subj,trial,block,date,stim,stim_order,response,rt,age,english,french,language,sex,param_index,segment,pitch,stretch
655faeaa22964920719a77b3,0,0,2024-02-28T17:20:39.780Z,english_181.wav,0,pill,1970,23,5,5,Francis,f,0,0.0,-0.97272984,0.61376697
655faeaa22964920719a77b3,0,0,2024-02-28T17:20:39.780Z,english_181.wav,0,pill,1970,23,5,5,Francis,f,1,0.1,-77.78814802,0.85355331
655faeaa22964920719a77b3,0,0,2024-02-28T17:20:39.780Z,english_181.wav,0,pill,1970,23,5,5,Francis,f,2,0.2,30.93073149,1.49426592
655faeaa22964920719a77b3,0,0,2024-02-28T17:20:39.780Z,english_181.wav,0,pill,1970,23,5,5,Francis,f,3,0.3,-15.42483918,1.18212422
655faeaa22964920719a77b3,0,0,2024-02-28T17:20:39.780Z,english_181.wav,0,pill,1970,23,5,5,Francis,f,4,0.4,25.76707037,1.41051316
655faeaa22964920719a77b3,0,0,2024-02-28T17:20:39.780Z,english_181.wav,0,pill,1970,23,5,5,Francis,f,5,0.5,-29.04038637,0.72870407
655faeaa22964920719a77b3,0,0,2024-02-28T17:20:39.780Z,english_181.wav,0,pill,1970,23,5,5,Francis,f,6,0.6,13.2566372,0.94615724
655faeaa22964920719a77b3,0,0,2024-02-28T17:20:39.780Z,english_181.wav,0,pill,1970,23,5,5,Francis,f,7,0.7,83.86524807,0.24258424
655faeaa22964920719a77b3,0,0,2024-02-28T17:20:39.780Z,english_181.wav,0,pill,1970,23,5,5,Francis,f,8,0.8,13.33685446,1.00008676
655faeaa22964920719a77b3,0,0,2024-02-28T17:20:39.780Z,english_181.wav,0,pill,1970,23,5,5,Francis,f,9,0.9,15.31267769,0.92341919
655faeaa22964920719a77b3,0,0,2024-02-28T17:20:39.780Z,english_181.wav,0,pill,1970,23,5,5,Francis,f,10,1.0,-61.51651878,0.15563028
655faeaa22964920719a77b3,0,0,2024-02-28T17:20:39.780Z,english_181.wav,0,pill,1970,23,5,5,Francis,f,11,1.09391667,11.45529288,0.83237058
655faeaa22964920719a77b3,1,0,2024-02-28T17:20:39.780Z,english_539.wav,0,peel,1439,23,5,5,Francis,f,0,0.0,-94.17846062,0.79705309
655faeaa22964920719a77b3,1,0,2024-02-28T17:20:39.780Z,english_539.wav,0,peel,1439,23,5,5,Francis,f,1,0.1,-5.02019603,0.75034459
655faeaa22964920719a77b3,1,0,2024-02-28T17:20:39.780Z,english_539.wav,0,peel,1439,23,5,5,Francis,f,2,0.2,-69.32919076,1.92009714
655faeaa22964920719a77b3,1,0,2024-02-28T17:20:39.780Z,english_539.wav,0,peel,1439,23,5,5,Francis,f,3,0.3,80.71922828,1.69419261
655faeaa22964920719a77b3,1,0,2024-02-28T17:20:39.780Z,english_539.wav,0,peel,1439,23,5,5,Francis,f,4,0.4,-44.41930109,1.08134057
655faeaa22964920719a77b3,1,0,2024-02-28T17:20:39.780Z,english_539.wav,0,peel,1439,23,5,5,Francis,f,5,0.5,60.55312323,0.26247587
655faeaa22964920719a77b3,1,0,2024-02-28T17:20:39.780Z,english_539.wav,0,peel,1439,23,5,5,Francis,f,6,0.6,-22.38704472,1.40392738
655faeaa22964920719a77b3,1,0,2024-02-28T17:20:39.780Z,english_539.wav,0,peel,1439,23,5,5,Francis,f,7,0.7,42.18310052,0.38201887
655faeaa22964920719a77b3,1,0,2024-02-28T17:20:39.780Z,english_539.wav,0,peel,1439,23,5,5,Francis,f,8,0.8,-3.23406116,1.79513964
655faeaa22964920719a77b3,1,0,2024-02-28T17:20:39.780Z,english_539.wav,0,peel,1439,23,5,5,Francis,f,9,0.9,86.87834775,0.10058598
655faeaa22964920719a77b3,1,0,2024-02-28T17:20:39.780Z,english_539.wav,0,peel,1439,23,5,5,Francis,f,10,1.0,-2.56962664,1.19776684
655faeaa22964920719a77b3,1,0,2024-02-28T17:20:39.780Z,english_539.wav,0,peel,1439,23,5,5,Francis,f,11,1.09391667,13.84279534,1.72675702
655faeaa22964920719a77b3,2,0,2024-02-28T17:20:39.780Z,english_398.wav,0,pill,1301,23,5,5,Francis,f,0,0.0,58.43536872,0.19891774
655faeaa22964920719a77b3,2,0,2024-02-28T17:20:39.780Z,english_398.wav,0,pill,1301,23,5,5,Francis,f,1,0.1,-82.57908231,0.03529734
655faeaa22964920719a77b3,2,0,2024-02-28T17:20:39.780Z,english_398.wav,0,pill,1301,23,5,5,Francis,f,2,0.2,-3.40439415,1.69592316
655faeaa22964920719a77b3,2,0,2024-02-28T17:20:39.780Z,english_398.wav,0,pill,1301,23,5,5,Francis,f,3,0.3,-83.74176257,0.07086845
655faeaa22964920719a77b3,2,0,2024-02-28T17:20:39.780Z,english_398.wav,0,pill,1301,23,5,5,Francis,f,4,0.4,38.89596711,0.77458748
655faeaa22964920719a77b3,2,0,2024-02-28T17:20:39.780Z,english_398.wav,0,pill,1301,23,5,5,Francis,f,5,0.5,63.49142751,1.25980126
655faeaa22964920719a77b3,2,0,2024-02-28T17:20:39.780Z,english_398.wav,0,pill,1301,23,5,5,Francis,f,6,0.6,64.24765223,1.54445807
655faeaa22964920719a77b3,2,0,2024-02-28T17:20:39.780Z,english_398.wav,0,pill,1301,23,5,5,Francis,f,7,0.7,24.37031282,0.23015685
655faeaa22964920719a77b3,2,0,2024-02-28T17:20:39.780Z,english_398.wav,0,pill,1301,23,5,5,Francis,f,8,0.8,18.2651004,0.80693823
655faeaa22964920719a77b3,2,0,2024-02-28T17:20:39.780Z,english_398.wav,0,pill,1301,23,5,5,Francis,f,9,0.9,-3.768449,0.61010049
655faeaa22964920719a77b3,2,0,2024-02-28T17:20:39.780Z,english_398.wav,0,pill,1301,23,5,5,Francis,f,10,1.0,55.48069175,0.09811637
655faeaa22964920719a77b3,2,0,2024-02-28T17:20:39.780Z,english_398.wav,0,pill,1301,23,5,5,Francis,f,11,1.09391667,-2.34176887,1.22967895
655faeaa22964920719a77b3,3,0,2024-02-28T17:20:39.780Z,english_400.wav,0,peel,1060,23,5,5,Francis,f,0,0.0,-25.02230777,0.48486425
655faeaa22964920719a77b3,3,0,2024-02-28T17:20:39.780Z,english_400.wav,0,peel,1060,23,5,5,Francis,f,1,0.1,49.22110948,0.13954262
655faeaa22964920719a77b3,3,0,2024-02-28T17:20:39.780Z,english_400.wav,0,peel,1060,23,5,5,Francis,f,2,0.2,-25.24422823,0.30114108
655faeaa22964920719a77b3,3,0,2024-02-28T17:20:39.780Z,english_400.wav,0,peel,1060,23,5,5,Francis,f,3,0.3,-67.45566663,0.1192849
655faeaa22964920719a77b3,3,0,2024-02-28T17:20:39.780Z,english_400.wav,0,peel,1060,23,5,5,Francis,f,4,0.4,-45.51948519,1.32093998
655faeaa22964920719a77b3,3,0,2024-02-28T17:20:39.780Z,english_400.wav,0,peel,1060,23,5,5,Francis,f,5,0.5,-18.6326315,1.53333364
655faeaa22964920719a77b3,3,0,2024-02-28T17:20:39.780Z,english_400.wav,0,peel,1060,23,5,5,Francis,f,6,0.6,39.79801231,1.63066866
655faeaa22964920719a77b3,3,0,2024-02-28T17:20:39.780Z,english_400.wav,0,peel,1060,23,5,5,Francis,f,7,0.7,-16.89099315,1.10413319
655faeaa22964920719a77b3,3,0,2024-02-28T17:20:39.780Z,english_400.wav,0,peel,1060,23,5,5,Francis,f,8,0.8,73.50338814,1.82884713
655faeaa22964920719a77b3,3,0,2024-02-28T17:20:39.780Z,english_400.wav,0,peel,1060,23,5,5,Francis,f,9,0.9,34.20665044,0.24999453
655faeaa22964920719a77b3,3,0,2024-02-28T17:20:39.780Z,english_400.wav,0,peel,1060,23,5,5,Francis,f,10,1.0,43.60884608,0.44753764
655faeaa22964920719a77b3,3,0,2024-02-28T17:20:39.780Z,english_400.wav,0,peel,1060,23,5,5,Francis,f,11,1.09391667,-63.62307837,1.09142561
655faeaa22964920719a77b3,4,0,2024-02-28T17:20:39.780Z,english_736.wav,0,peel,806,23,5,5,Francis,f,0,0.0,-40.28778627,1.23426282
655faeaa22964920719a77b3,4,0,2024-02-28T17:20:39.780Z,english_736.wav,0,peel,806,23,5,5,Francis,f,1,0.1,-59.09726207,0.97807774
655faeaa22964920719a77b3,4,0,2024-02-28T17:20:39.780Z,english_736.wav,0,peel,806,23,5,5,Francis,f,2,0.2,98.49969238,0.54049946
655faeaa22964920719a77b3,4,0,2024-02-28T17:20:39.780Z,english_736.wav,0,peel,806,23,5,5,Francis,f,3,0.3,46.0778128,1.1691641
655faeaa22964920719a77b3,4,0,2024-02-28T17:20:39.780Z,english_736.wav,0,peel,806,23,5,5,Francis,f,4,0.4,-55.04304699,1.22843398
655faeaa22964920719a77b3,4,0,2024-02-28T17:20:39.780Z,english_736.wav,0,peel,806,23,5,5,Francis,f,5,0.5,34.12740936,0.9861662
655faeaa22964920719a77b3,4,0,2024-02-28T17:20:39.780Z,english_736.wav,0,peel,806,23,5,5,Francis,f,6,0.6,54.26275803,0.17445904
655faeaa22964920719a77b3,4,0,2024-02-28T17:20:39.780Z,english_736.wav,0,peel,806,23,5,5,Francis,f,7,0.7,-55.98308326,1.1578723
655faeaa22964920719a77b3,4,0,2024-02-28T17:20:39.780Z,english_736.wav,0,peel,806,23,5,5,Francis,f,8,0.8,59.79863481,1.37075184
655faeaa22964920719a77b3,4,0,2024-02-28T17:20:39.780Z,english_736.wav,0,peel,806,23,5,5,Francis,f,9,0.9,88.14503005,1.47849055
655faeaa22964920719a77b3,4,0,2024-02-28T17:20:39.780Z,english_736.wav,0,peel,806,23,5,5,Francis,f,10,1.0,91.37007784,0.08571689
655faeaa22964920719a77b3,4,0,2024-02-28T17:20:39.780Z,english_736.wav,0,peel,806,23,5,5,Francis,f,11,1.09391667,76.63160817,1.4768314
655faeaa22964920719a77b3,5,0,2024-02-28T17:20:39.780Z,english_816.wav,0,peel,781,23,5,5,Francis,f,0,0.0,-17.35587933,1.80713615
655faeaa22964920719a77b3,5,0,2024-02-28T17:20:39.780Z,english_816.wav,0,peel,781,23,5,5,Francis,f,1,0.1,0.95768859,0.65818518
655faeaa22964920719a77b3,5,0,2024-02-28T17:20:39.780Z,english_816.wav,0,peel,781,23,5,5,Francis,f,2,0.2,47.37608494,0.13743933
655faeaa22964920719a77b3,5,0,2024-02-28T17:20:39.780Z,english_816.wav,0,peel,781,23,5,5,Francis,f,3,0.3,-29.30928245,0.63156649
655faeaa22964920719a77b3,5,0,2024-02-28T17:20:39.780Z,english_816.wav,0,peel,781,23,5,5,Francis,f,4,0.4,0.3886714,0.74841843
655faeaa22964920719a77b3,5,0,2024-02-28T17:20:39.780Z,english_816.wav,0,peel,781,23,5,5,Francis,f,5,0.5,11.78751261,1.47868634
655faeaa22964920719a77b3,5,0,2024-02-28T17:20:39.780Z,english_816.wav,0,peel,781,23,5,5,Francis,f,6,0.6,-3.17696206,1.19861887
655faeaa22964920719a77b3,5,0,2024-02-28T17:20:39.780Z,english_816.wav,0,peel,781,23,5,5,Francis,f,7,0.7,-19.53944189,0.27488431
655faeaa22964920719a77b3,5,0,2024-02-28T17:20:39.780Z,english_816.wav,0,peel,781,23,5,5,Francis,f,8,0.8,-7.70582249,0.84423799
655faeaa22964920719a77b3,5,0,2024-02-28T17:20:39.780Z,english_816.wav,0,peel,781,23,5,5,Francis,f,9,0.9,-20.54964166,0.77450003
655faeaa22964920719a77b3,5,0,2024-02-28T17:20:39.780Z,english_816.wav,0,peel,781,23,5,5,Francis,f,10,1.0,-60.75740285,1.95248665
655faeaa22964920719a77b3,5,0,2024-02-28T17:20:39.780Z,english_816.wav,0,peel,781,23,5,5,Francis,f,11,1.09391667,-12.71558958,0.720403
655faeaa22964920719a77b3,6,0,2024-02-28T17:20:39.780Z,english_476.wav,0,pill,3582,23,5,5,Francis,f,0,0.0,44.69659717,1.41297837
655faeaa22964920719a77b3,6,0,2024-02-28T17:20:39.780Z,english_476.wav,0,pill,3582,23,5,5,Francis,f,1,0.1,-34.716814,1.05145195
655faeaa22964920719a77b3,6,0,2024-02-28T17:20:39.780Z,english_476.wav,0,pill,3582,23,5,5,Francis,f,2,0.2,-37.83043351,0.94681533
655faeaa22964920719a77b3,6,0,2024-02-28T17:20:39.780Z,english_476.wav,0,pill,3582,23,5,5,Francis,f,3,0.3,-62.93772859,1.38886049
655faeaa22964920719a77b3,6,0,2024-02-28T17:20:39.780Z,english_476.wav,0,pill,3582,23,5,5,Francis,f,4,0.4,29.80105548,0.50983073
655faeaa22964920719a77b3,6,0,2024-02-28T17:20:39.780Z,english_476.wav,0,pill,3582,23,5,5,Francis,f,5,0.5,-19.93397346,0.87963627
655faeaa22964920719a77b3,6,0,2024-02-28T17:20:39.780Z,english_476.wav,0,pill,3582,23,5,5,Francis,f,6,0.6,-81.51838574,0.37083783
655faeaa22964920719a77b3,6,0,2024-02-28T17:20:39.780Z,english_476.wav,0,pill,3582,23,5,5,Francis,f,7,0.7,-13.12417842,1.60201274
655faeaa22964920719a77b3,6,0,2024-02-28T17:20:39.780Z,english_476.wav,0,pill,3582,23,5,5,Francis,f,8,0.8,-49.11622946,0.02246419
655faeaa22964920719a77b3,6,0,2024-02-28T17:20:39.780Z,english_476.wav,0,pill,3582,23,5,5,Francis,f,9,0.9,-40.62215118,1.35146298
655faeaa22964920719a77b3,6,0,2024-02-28T17:20:39.780Z,english_476.wav,0,pill,3582,23,5,5,Francis,f,10,1.0,-29.85989769,1.39707139
655faeaa22964920719a77b3,6,0,2024-02-28T17:20:39.780Z,english_476.wav,0,pill,3582,23,5,5,Francis,f,11,1.09391667,-46.8973955,0.19828042
655faeaa22964920719a77b3,7,0,2024-02-28T17:20:39.780Z,english_275.wav,0,peel,818,23,5,5,Francis,f,0,0.0,-31.53954932,1.11178535
655faeaa22964920719a77b3,7,0,2024-02-28T17:20:39.780Z,english_275.wav,0,peel,818,23,5,5,Francis,f,1,0.1,67.55550323,1.43872854
655faeaa22964920719a77b3,7,0,2024-02-28T17:20:39.780Z,english_275.wav,0,peel,818,23,5,5,Francis,f,2,0.2,55.26204535,1.00652784
655faeaa22964920719a77b3,7,0,2024-02-28T17:20:39.780Z,english_275.wav,0,peel,818,23,5,5,Francis,f,3,0.3,-80.01639585,1.88859993
655faeaa22964920719a77b3,7,0,2024-02-28T17:20:39.780Z,english_275.wav,0,peel,818,23,5,5,Francis,f,4,0.4,94.9520187,1.11098418
655faeaa22964920719a77b3,7,0,2024-02-28T17:20:39.780Z,english_275.wav,0,peel,818,23,5,5,Francis,f,5,0.5,14.34639333,0.053376
655faeaa22964920719a77b3,7,0,2024-02-28T17:20:39.780Z,english_275.wav,0,peel,818,23,5,5,Francis,f,6,0.6,86.55683539,0.64698711
655faeaa22964920719a77b3,7,0,2024-02-28T17:20:39.780Z,english_275.wav,0,peel,818,23,5,5,Francis,f,7,0.7,-89.78552737,0.30486873
655faeaa22964920719a77b3,7,0,2024-02-28T17:20:39.780Z,english_275.wav,0,peel,818,23,5,5,Francis,f,8,0.8,-1.72373159,1.76121679
655faeaa22964920719a77b3,7,0,2024-02-28T17:20:39.780Z,english_275.wav,0,peel,818,23,5,5,Francis,f,9,0.9,-17.62384296,1.26518318
655faeaa22964920719a77b3,7,0,2024-02-28T17:20:39.780Z,english_275.wav,0,peel,818,23,5,5,Francis,f,10,1.0,-77.59342149,0.9746017
655faeaa22964920719a77b3,7,0,2024-02-28T17:20:39.780Z,english_275.wav,0,peel,818,23,5,5,Francis,f,11,1.09391667,-62.03983535,0.80300486
655faeaa22964920719a77b3,8,0,2024-02-28T17:20:39.780Z,english_288.wav,0,peel,750,23,5,5,Francis,f,0,0.0,-10.61246008,0.04412775
655faeaa22964920719a77b3,8,0,2024-02-28T17:20:39.780Z,english_288.wav,0,peel,750,23,5,5,Francis,f,1,0.1,-77.3112588,0.21847975
655faeaa22964920719a77b3,8,0,2024-02-28T17:20:39.780Z,english_288.wav,0,peel,750,23,5,5,Francis,f,2,0.2,12.30562344,1.50294944
655faeaa22964920719a77b3,8,0,2024-02-28T17:20:39.780Z,english_288.wav,0,peel,750,23,5,5,Francis,f,3,0.3,-36.70742639,1.12595953
655faeaa22964920719a77b3,8,0,2024-02-28T17:20:39.780Z,english_288.wav,0,peel,750,23,5,5,Francis,f,4,0.4,41.04793924,1.62688255
655faeaa22964920719a77b3,8,0,2024-02-28T17:20:39.780Z,english_288.wav,0,peel,750,23,5,5,Francis,f,5,0.5,-35.19832077,1.25280317
655faeaa22964920719a77b3,8,0,2024-02-28T17:20:39.780Z,english_288.wav,0,peel,750,23,5,5,Francis,f,6,0.6,-67.76212828,1.61760302
655faeaa22964920719a77b3,8,0,2024-02-28T17:20:39.780Z,english_288.wav,0,peel,750,23,5,5,Francis,f,7,0.7,-31.76962834,1.08014254
655faeaa22964920719a77b3,8,0,2024-02-28T17:20:39.780Z,english_288.wav,0,peel,750,23,5,5,Francis,f,8,0.8,52.35478753,0.46218832
655faeaa22964920719a77b3,8,0,2024-02-28T17:20:39.780Z,english_288.wav,0,peel,750,23,5,5,Francis,f,9,0.9,-75.48042215,1.57844793
655faeaa22964920719a77b3,8,0,2024-02-28T17:20:39.780Z,english_288.wav,0,peel,750,23,5,5,Francis,f,10,1.0,62.21198268,0.42631449
655faeaa22964920719a77b3,8,0,2024-02-28T17:20:39.780Z,english_288.wav,0,peel,750,23,5,5,Francis,f,11,1.09391667,-19.37131538,1.42176412
655faeaa22964920719a77b3,9,0,2024-02-28T17:20:39.780Z,english_396.wav,0,pill,435,23,5,5,Francis,f,0,0.0,84.93727222,0.86172546
655faeaa22964920719a77b3,9,0,2024-02-28T17:20:39.780Z,english_396.wav,0,pill,435,23,5,5,Francis,f,1,0.1,-63.66791866,1.32010306
655faeaa22964920719a77b3,9,0,2024-02-28T17:20:39.780Z,english_396.wav,0,pill,435,23,5,5,Francis,f,2,0.2,14.45946743,1.92977093
655faeaa22964920719a77b3,9,0,2024-02-28T17:20:39.780Z,english_396.wav,0,pill,435,23,5,5,Francis,f,3,0.3,-3.11232885,1.56073736
655faeaa22964920719a77b3,9,0,2024-02-28T17:20:39.780Z,english_396.wav,0,pill,435,23,5,5,Francis,f,4,0.4,-24.43595518,0.53468527
655faeaa22964920719a77b3,9,0,2024-02-28T17:20:39.780Z,english_396.wav,0,pill,435,23,5,5,Francis,f,5,0.5,-51.99030464,1.39813115
655faeaa22964920719a77b3,9,0,2024-02-28T17:20:39.780Z,english_396.wav,0,pill,435,23,5,5,Francis,f,6,0.6,79.76166554,0.18875949
655faeaa22964920719a77b3,9,0,2024-02-28T17:20:39.780Z,english_396.wav,0,pill,435,23,5,5,Francis,f,7,0.7,57.3813763,0.18509546
655faeaa22964920719a77b3,9,0,2024-02-28T17:20:39.780Z,english_396.wav,0,pill,435,23,5,5,Francis,f,8,0.8,31.81531803,0.3363238
655faeaa22964920719a77b3,9,0,2024-02-28T17:20:39.780Z,english_396.wav,0,pill,435,23,5,5,Francis,f,9,0.9,63.48869565,0.50261655
655faeaa22964920719a77b3,9,0,2024-02-28T17:20:39.780Z,english_396.wav,0,pill,435,23,5,5,Francis,f,10,1.0,71.83555581,1.79852856
655faeaa22964920719a77b3,9,0,2024-02-28T17:20:39.780Z,english_396.wav,0,pill,435,23,5,5,Francis,f,11,1.09391667,-2.44249492,0.37213294
655faeaa22964920719a77b3,10,0,2024-02-28T17:20:39.780Z,english_686.wav,0,peel,239,23,5,5,Francis,f,0,0.0,-67.05425971,1.70124543
655faeaa22964920719a77b3,10,0,2024-02-28T17:20:39.780Z,english_686.wav,0,peel,239,23,5,5,Francis,f,1,0.1,-39.97086024,0.46826984
655faeaa22964920719a77b3,10,0,2024-02-28T17:20:39.780Z,english_686.wav,0,peel,239,23,5,5,Francis,f,2,0.2,-95.68334926,0.38007699
655faeaa22964920719a77b3,10,0,2024-02-28T17:20:39.780Z,english_686.wav,0,peel,239,23,5,5,Francis,f,3,0.3,95.25173903,1.75748907
655faeaa22964920719a77b3,10,0,2024-02-28T17:20:39.780Z,english_686.wav,0,peel,239,23,5,5,Francis,f,4,0.4,-32.8311948,0.73728226
655faeaa22964920719a77b3,10,0,2024-02-28T17:20:39.780Z,english_686.wav,0,peel,239,23,5,5,Francis,f,5,0.5,-48.95766653,0.66391126
655faeaa22964920719a77b3,10,0,2024-02-28T17:20:39.780Z,english_686.wav,0,peel,239,23,5,5,Francis,f,6,0.6,1.46673541,0.49234924
655faeaa22964920719a77b3,10,0,2024-02-28T17:20:39.780Z,english_686.wav,0,peel,239,23,5,5,Francis,f,7,0.7,2.82521342,1.58569933
655faeaa22964920719a77b3,10,0,2024-02-28T17:20:39.780Z,english_686.wav,0,peel,239,23,5,5,Francis,f,8,0.8,-50.40490355,0.73602174
655faeaa22964920719a77b3,10,0,2024-02-28T17:20:39.780Z,english_686.wav,0,peel,239,23,5,5,Francis,f,9,0.9,-13.31081272,0.69160948
655faeaa22964920719a77b3,10,0,2024-02-28T17:20:39.780Z,english_686.wav,0,peel,239,23,5,5,Francis,f,10,1.0,86.45331077,1.60918627
655faeaa22964920719a77b3,10,0,2024-02-28T17:20:39.780Z,english_686.wav,0,peel,239,23,5,5,Francis,f,11,1.09391667,27.45785802,0.82158227
655faeaa22964920719a77b3,11,0,2024-02-28T17:20:39.780Z,english_37.wav,0,peel,412,23,5,5,Francis,f,0,0.0,68.40782596,0.52957209
655faeaa22964920719a77b3,11,0,2024-02-28T17:20:39.780Z,english_37.wav,0,peel,412,23,5,5,Francis,f,1,0.1,41.58379148,1.67320718
655faeaa22964920719a77b3,11,0,2024-02-28T17:20:39.780Z,english_37.wav,0,peel,412,23,5,5,Francis,f,2,0.2,63.04378759,1.31144487
655faeaa22964920719a77b3,11,0,2024-02-28T17:20:39.780Z,english_37.wav,0,peel,412,23,5,5,Francis,f,3,0.3,12.39470235,1.11254506
655faeaa22964920719a77b3,11,0,2024-02-28T17:20:39.780Z,english_37.wav,0,peel,412,23,5,5,Francis,f,4,0.4,-38.69600303,0.57972705
655faeaa22964920719a77b3,11,0,2024-02-28T17:20:39.780Z,english_37.wav,0,peel,412,23,5,5,Francis,f,5,0.5,-51.98957982,0.30651039
655faeaa22964920719a77b3,11,0,2024-02-28T17:20:39.780Z,english_37.wav,0,peel,412,23,5,5,Francis,f,6,0.6,90.7945682,0.45858619
655faeaa22964920719a77b3,11,0,2024-02-28T17:20:39.780Z,english_37.wav,0,peel,412,23,5,5,Francis,f,7,0.7,40.67115675,1.55641423
655faeaa22964920719a77b3,11,0,2024-02-28T17:20:39.780Z,english_37.wav,0,peel,412,23,5,5,Francis,f,8,0.8,34.01498334,1.01642962
655faeaa22964920719a77b3,11,0,2024-02-28T17:20:39.780Z,english_37.wav,0,peel,412,23,5,5,Francis,f,9,0.9,-88.26662934,0.95850402
655faeaa22964920719a77b3,11,0,2024-02-28T17:20:39.780Z,english_37.wav,0,peel,412,23,5,5,Francis,f,10,1.0,-41.35685221,0.70833558
655faeaa22964920719a77b3,11,0,2024-02-28T17:20:39.780Z,english_37.wav,0,peel,412,23,5,5,Francis,f,11,1.09391667,-27.43470179,0.55678167
655faeaa22964920719a77b3,12,0,2024-02-28T17:20:39.780Z,english_839.wav,0,pill,441,23,5,5,Francis,f,0,0.0,25.22327534,0.79021115
655faeaa22964920719a77b3,12,0,2024-02-28T17:20:39.780Z,english_839.wav,0,pill,441,23,5,5,Francis,f,1,0.1,65.97179868,1.36275453
655faeaa22964920719a77b3,12,0,2024-02-28T17:20:39.780Z,english_839.wav,0,pill,441,23,5,5,Francis,f,2,0.2,36.46298268,0.56940252
655faeaa22964920719a77b3,12,0,2024-02-28T17:20:39.780Z,english_839.wav,0,pill,441,23,5,5,Francis,f,3,0.3,0.36789595,1.38606336
655faeaa22964920719a77b3,12,0,2024-02-28T17:20:39.780Z,english_839.wav,0,pill,441,23,5,5,Francis,f,4,0.4,37.25543056,1.49876521
655faeaa22964920719a77b3,12,0,2024-02-28T17:20:39.780Z,english_839.wav,0,pill,441,23,5,5,Francis,f,5,0.5,13.61304399,1.33513266
655faeaa22964920719a77b3,12,0,2024-02-28T17:20:39.780Z,english_839.wav,0,pill,441,23,5,5,Francis,f,6,0.6,40.85367399,0.34922841
655faeaa22964920719a77b3,12,0,2024-02-28T17:20:39.780Z,english_839.wav,0,pill,441,23,5,5,Francis,f,7,0.7,92.87994107,1.58402098
655faeaa22964920719a77b3,12,0,2024-02-28T17:20:39.780Z,english_839.wav,0,pill,441,23,5,5,Francis,f,8,0.8,40.19777361,0.73275133
655faeaa22964920719a77b3,12,0,2024-02-28T17:20:39.780Z,english_839.wav,0,pill,441,23,5,5,Francis,f,9,0.9,-27.70209944,1.05467816
655faeaa22964920719a77b3,12,0,2024-02-28T17:20:39.780Z,english_839.wav,0,pill,441,23,5,5,Francis,f,10,1.0,-75.44304357,1.81419779
655faeaa22964920719a77b3,12,0,2024-02-28T17:20:39.780Z,english_839.wav,0,pill,441,23,5,5,Francis,f,11,1.09391667,15.82899147,1.89560881
655faeaa22964920719a77b3,13,0,2024-02-28T17:20:39.780Z,english_953.wav,0,pill,531,23,5,5,Francis,f,0,0.0,66.99743889,1.15286604
655faeaa22964920719a77b3,13,0,2024-02-28T17:20:39.780Z,english_953.wav,0,pill,531,23,5,5,Francis,f,1,0.1,-76.84252631,1.84100888
655faeaa22964920719a77b3,13,0,2024-02-28T17:20:39.780Z,english_953.wav,0,pill,531,23,5,5,Francis,f,2,0.2,-45.49309493,0.29896559
655faeaa22964920719a77b3,13,0,2024-02-28T17:20:39.780Z,english_953.wav,0,pill,531,23,5,5,Francis,f,3,0.3,55.46461894,0.47017465
655faeaa22964920719a77b3,13,0,2024-02-28T17:20:39.780Z,english_953.wav,0,pill,531,23,5,5,Francis,f,4,0.4,81.99201124,0.15248902
655faeaa22964920719a77b3,13,0,2024-02-28T17:20:39.780Z,english_953.wav,0,pill,531,23,5,5,Francis,f,5,0.5,1.34607331,1.13290225
655faeaa22964920719a77b3,13,0,2024-02-28T17:20:39.780Z,english_953.wav,0,pill,531,23,5,5,Francis,f,6,0.6,50.45029952,0.34595451
655faeaa22964920719a77b3,13,0,2024-02-28T17:20:39.780Z,english_953.wav,0,pill,531,23,5,5,Francis,f,7,0.7,74.64893983,0.44244875
655faeaa22964920719a77b3,13,0,2024-02-28T17:20:39.780Z,english_953.wav,0,pill,531,23,5,5,Francis,f,8,0.8,26.00448077,0.8076701
655faeaa22964920719a77b3,13,0,2024-02-28T17:20:39.780Z,english_953.wav,0,pill,531,23,5,5,Francis,f,9,0.9,-99.39894728,1.93347558
655faeaa22964920719a77b3,13,0,2024-02-28T17:20:39.780Z,english_953.wav,0,pill,531,23,5,5,Francis,f,10,1.0,-16.71063882,1.69365872
655faeaa22964920719a77b3,13,0,2024-02-28T17:20:39.780Z,english_953.wav,0,pill,531,23,5,5,Francis,f,11,1.09391667,53.60095231,1.16220812
655faeaa22964920719a77b3,14,0,2024-02-28T17:20:39.780Z,english_177.wav,0,peel,487,23,5,5,Francis,f,0,0.0,-57.81596748,0.69761869
655faeaa22964920719a77b3,14,0,2024-02-28T17:20:39.780Z,english_177.wav,0,peel,487,23,5,5,Francis,f,1,0.1,-87.62944192,1.53783025
655faeaa22964920719a77b3,14,0,2024-02-28T17:20:39.780Z,english_177.wav,0,peel,487,23,5,5,Francis,f,2,0.2,-12.74583394,0.70741291
655faeaa22964920719a77b3,14,0,2024-02-28T17:20:39.780Z,english_177.wav,0,peel,487,23,5,5,Francis,f,3,0.3,-2.66394442,0.02843329
655faeaa22964920719a77b3,14,0,2024-02-28T17:20:39.780Z,english_177.wav,0,peel,487,23,5,5,Francis,f,4,0.4,28.11680056,0.56005584
655faeaa22964920719a77b3,14,0,2024-02-28T17:20:39.780Z,english_177.wav,0,peel,487,23,5,5,Francis,f,5,0.5,82.07769197,0.13324212
655faeaa22964920719a77b3,14,0,2024-02-28T17:20:39.780Z,english_177.wav,0,peel,487,23,5,5,Francis,f,6,0.6,-8.30720051,0.4590918
655faeaa22964920719a77b3,14,0,2024-02-28T17:20:39.780Z,english_177.wav,0,peel,487,23,5,5,Francis,f,7,0.7,81.97133583,1.98307648
655faeaa22964920719a77b3,14,0,2024-02-28T17:20:39.780Z,english_177.wav,0,peel,487,23,5,5,Francis,f,8,0.8,50.88605448,1.78311129
655faeaa22964920719a77b3,14,0,2024-02-28T17:20:39.780Z,english_177.wav,0,peel,487,23,5,5,Francis,f,9,0.9,19.94892862,0.31041574
655faeaa22964920719a77b3,14,0,2024-02-28T17:20:39.780Z,english_177.wav,0,peel,487,23,5,5,Francis,f,10,1.0,38.05594955,0.36871164
655faeaa22964920719a77b3,14,0,2024-02-28T17:20:39.780Z,english_177.wav,0,peel,487,23,5,5,Francis,f,11,1.09391667,14.05932683,1.41932356
655faeaa22964920719a77b3,15,0,2024-02-28T17:20:39.780Z,english_879.wav,0,pill,348,23,5,5,Francis,f,0,0.0,-41.71376067,1.10654485
655faeaa22964920719a77b3,15,0,2024-02-28T17:20:39.780Z,english_879.wav,0,pill,348,23,5,5,Francis,f,1,0.1,5.81272632,1.32832236
655faeaa22964920719a77b3,15,0,2024-02-28T17:20:39.780Z,english_879.wav,0,pill,348,23,5,5,Francis,f,2,0.2,-22.32054487,1.5555922
655faeaa22964920719a77b3,15,0,2024-02-28T17:20:39.780Z,english_879.wav,0,pill,348,23,5,5,Francis,f,3,0.3,93.64091385,0.11041486
655faeaa22964920719a77b3,15,0,2024-02-28T17:20:39.780Z,english_879.wav,0,pill,348,23,5,5,Francis,f,4,0.4,-40.92402167,1.31993608
655faeaa22964920719a77b3,15,0,2024-02-28T17:20:39.780Z,english_879.wav,0,pill,348,23,5,5,Francis,f,5,0.5,13.45427288,1.7629303
655faeaa22964920719a77b3,15,0,2024-02-28T17:20:39.780Z,english_879.wav,0,pill,348,23,5,5,Francis,f,6,0.6,-86.15210755,1.83129602
655faeaa22964920719a77b3,15,0,2024-02-28T17:20:39.780Z,english_879.wav,0,pill,348,23,5,5,Francis,f,7,0.7,-20.9667874,1.42589619
655faeaa22964920719a77b3,15,0,2024-02-28T17:20:39.780Z,english_879.wav,0,pill,348,23,5,5,Francis,f,8,0.8,-18.58842444,0.74351112
655faeaa22964920719a77b3,15,0,2024-02-28T17:20:39.780Z,english_879.wav,0,pill,348,23,5,5,Francis,f,9,0.9,-72.1364449,0.32763887
655faeaa22964920719a77b3,15,0,2024-02-28T17:20:39.780Z,english_879.wav,0,pill,348,23,5,5,Francis,f,10,1.0,-83.06025628,1.7749803
655faeaa22964920719a77b3,15,0,2024-02-28T17:20:39.780Z,english_879.wav,0,pill,348,23,5,5,Francis,f,11,1.09391667,76.41221389,1.6164567
655faeaa22964920719a77b3,16,0,2024-02-28T17:20:39.780Z,english_120.wav,0,pill,408,23,5,5,Francis,f,0,0.0,-26.38999682,0.72895048
655faeaa22964920719a77b3,16,0,2024-02-28T17:20:39.780Z,english_120.wav,0,pill,408,23,5,5,Francis,f,1,0.1,-22.99967347,1.8926075
655faeaa22964920719a77b3,16,0,2024-02-28T17:20:39.780Z,english_120.wav,0,pill,408,23,5,5,Francis,f,2,0.2,3.73325412,0.72613161
655faeaa22964920719a77b3,16,0,2024-02-28T17:20:39.780Z,english_120.wav,0,pill,408,23,5,5,Francis,f,3,0.3,4.96616557,1.865488
655faeaa22964920719a77b3,16,0,2024-02-28T17:20:39.780Z,english_120.wav,0,pill,408,23,5,5,Francis,f,4,0.4,-29.93221986,1.93166142
655faeaa22964920719a77b3,16,0,2024-02-28T17:20:39.780Z,english_120.wav,0,pill,408,23,5,5,Francis,f,5,0.5,37.07787093,0.25664039
655faeaa22964920719a77b3,16,0,2024-02-28T17:20:39.780Z,english_120.wav,0,pill,408,23,5,5,Francis,f,6,0.6,-72.11553582,1.70761542
655faeaa22964920719a77b3,16,0,2024-02-28T17:20:39.780Z,english_120.wav,0,pill,408,23,5,5,Francis,f,7,0.7,-26.01116497,0.9844932
655faeaa22964920719a77b3,16,0,2024-02-28T17:20:39.780Z,english_120.wav,0,pill,408,23,5,5,Francis,f,8,0.8,28.09141519,0.79083126
655faeaa22964920719a77b3,16,0,2024-02-28T17:20:39.780Z,english_120.wav,0,pill,408,23,5,5,Francis,f,9,0.9,-12.73315984,0.78849397
655faeaa22964920719a77b3,16,0,2024-02-28T17:20:39.780Z,english_120.wav,0,pill,408,23,5,5,Francis,f,10,1.0,-2.02458529,1.83169014
655faeaa22964920719a77b3,16,0,2024-02-28T17:20:39.780Z,english_120.wav,0,pill,408,23,5,5,Francis,f,11,1.09391667,-56.16856888,0.88953278
655faeaa22964920719a77b3,17,0,2024-02-28T17:20:39.780Z,english_451.wav,0,peel,336,23,5,5,Francis,f,0,0.0,-86.97928696,0.12091055
655faeaa22964920719a77b3,17,0,2024-02-28T17:20:39.780Z,english_451.wav,0,peel,336,23,5,5,Francis,f,1,0.1,35.46303065,0.11109609
655faeaa22964920719a77b3,17,0,2024-02-28T17:20:39.780Z,english_451.wav,0,peel,336,23,5,5,Francis,f,2,0.2,-6.55574904,0.96762463
655faeaa22964920719a77b3,17,0,2024-02-28T17:20:39.780Z,english_451.wav,0,peel,336,23,5,5,Francis,f,3,0.3,-70.24481901,0.33361345
655faeaa22964920719a77b3,17,0,2024-02-28T17:20:39.780Z,english_451.wav,0,peel,336,23,5,5,Francis,f,4,0.4,-15.3143791,1.63079661
655faeaa22964920719a77b3,17,0,2024-02-28T17:20:39.780Z,english_451.wav,0,peel,336,23,5,5,Francis,f,5,0.5,-46.78683141,1.71822711
655faeaa22964920719a77b3,17,0,2024-02-28T17:20:39.780Z,english_451.wav,0,peel,336,23,5,5,Francis,f,6,0.6,30.57428638,1.99896141
655faeaa22964920719a77b3,17,0,2024-02-28T17:20:39.780Z,english_451.wav,0,peel,336,23,5,5,Francis,f,7,0.7,-51.27590564,1.31564503
655faeaa22964920719a77b3,17,0,2024-02-28T17:20:39.780Z,english_451.wav,0,peel,336,23,5,5,Francis,f,8,0.8,-57.45214614,0.39748904
655faeaa22964920719a77b3,17,0,2024-02-28T17:20:39.780Z,english_451.wav,0,peel,336,23,5,5,Francis,f,9,0.9,43.47837492,0.70409186
655faeaa22964920719a77b3,17,0,2024-02-28T17:20:39.780Z,english_451.wav,0,peel,336,23,5,5,Francis,f,10,1.0,45.12702561,0.48590378
655faeaa22964920719a77b3,17,0,2024-02-28T17:20:39.780Z,english_451.wav,0,peel,336,23,5,5,Francis,f,11,1.09391667,-26.34948453,1.98999714
655faeaa22964920719a77b3,18,0,2024-02-28T17:20:39.780Z,english_865.wav,0,peel,322,23,5,5,Francis,f,0,0.0,86.1163895,0.19420048
655faeaa22964920719a77b3,18,0,2024-02-28T17:20:39.780Z,english_865.wav,0,peel,322,23,5,5,Francis,f,1,0.1,69.95513589,1.46581666
655faeaa22964920719a77b3,18,0,2024-02-28T17:20:39.780Z,english_865.wav,0,peel,322,23,5,5,Francis,f,2,0.2,-13.94671811,1.09876795
655faeaa22964920719a77b3,18,0,2024-02-28T17:20:39.780Z,english_865.wav,0,peel,322,23,5,5,Francis,f,3,0.3,-33.10342907,0.83580859
655faeaa22964920719a77b3,18,0,2024-02-28T17:20:39.780Z,english_865.wav,0,peel,322,23,5,5,Francis,f,4,0.4,-76.59504937,0.7375784
655faeaa22964920719a77b3,18,0,2024-02-28T17:20:39.780Z,english_865.wav,0,peel,322,23,5,5,Francis,f,5,0.5,-3.51899048,1.73720254
655faeaa22964920719a77b3,18,0,2024-02-28T17:20:39.780Z,english_865.wav,0,peel,322,23,5,5,Francis,f,6,0.6,30.42015795,0.47612768
655faeaa22964920719a77b3,18,0,2024-02-28T17:20:39.780Z,english_865.wav,0,peel,322,23,5,5,Francis,f,7,0.7,-55.73707392,0.34287239
655faeaa22964920719a77b3,18,0,2024-02-28T17:20:39.780Z,english_865.wav,0,peel,322,23,5,5,Francis,f,8,0.8,54.32986928,1.39046848
655faeaa22964920719a77b3,18,0,2024-02-28T17:20:39.780Z,english_865.wav,0,peel,322,23,5,5,Francis,f,9,0.9,-94.25719672,0.32361365
655faeaa22964920719a77b3,18,0,2024-02-28T17:20:39.780Z,english_865.wav,0,peel,322,23,5,5,Francis,f,10,1.0,52.44088275,0.4960331
655faeaa22964920719a77b3,18,0,2024-02-28T17:20:39.780Z,english_865.wav,0,peel,322,23,5,5,Francis,f,11,1.09391667,-37.34958779,0.90913699
655faeaa22964920719a77b3,19,0,2024-02-28T17:20:39.780Z,english_984.wav,0,peel,492,23,5,5,Francis,f,0,0.0,37.06586667,0.38877409
655faeaa22964920719a77b3,19,0,2024-02-28T17:20:39.780Z,english_984.wav,0,peel,492,23,5,5,Francis,f,1,0.1,50.7395804,1.41531624
655faeaa22964920719a77b3,19,0,2024-02-28T17:20:39.780Z,english_984.wav,0,peel,492,23,5,5,Francis,f,2,0.2,-33.05935168,1.73475513
655faeaa22964920719a77b3,19,0,2024-02-28T17:20:39.780Z,english_984.wav,0,peel,492,23,5,5,Francis,f,3,0.3,-68.36129611,0.46912413
655faeaa22964920719a77b3,19,0,2024-02-28T17:20:39.780Z,english_984.wav,0,peel,492,23,5,5,Francis,f,4,0.4,97.30192,0.39793421
655faeaa22964920719a77b3,19,0,2024-02-28T17:20:39.780Z,english_984.wav,0,peel,492,23,5,5,Francis,f,5,0.5,69.61380095,0.96500121
655faeaa22964920719a77b3,19,0,2024-02-28T17:20:39.780Z,english_984.wav,0,peel,492,23,5,5,Francis,f,6,0.6,69.64301942,1.49151778
655faeaa22964920719a77b3,19,0,2024-02-28T17:20:39.780Z,english_984.wav,0,peel,492,23,5,5,Francis,f,7,0.7,38.81811493,0.60244076
655faeaa22964920719a77b3,19,0,2024-02-28T17:20:39.780Z,english_984.wav,0,peel,492,23,5,5,Francis,f,8,0.8,9.12823389,0.32922577
655faeaa22964920719a77b3,19,0,2024-02-28T17:20:39.780Z,english_984.wav,0,peel,492,23,5,5,Francis,f,9,0.9,-90.77472933,0.54557953
655faeaa22964920719a77b3,19,0,2024-02-28T17:20:39.780Z,english_984.wav,0,peel,492,23,5,5,Francis,f,10,1.0,-60.21880391,0.88296579
655faeaa22964920719a77b3,19,0,2024-02-28T17:20:39.780Z,english_984.wav,0,peel,492,23,5,5,Francis,f,11,1.09391667,58.74577388,0.48906192
655faeaa22964920719a77b3,20,0,2024-02-28T17:20:39.780Z,english_213.wav,0,pill,221,23,5,5,Francis,f,0,0.0,-32.76105426,1.09332496
655faeaa22964920719a77b3,20,0,2024-02-28T17:20:39.780Z,english_213.wav,0,pill,221,23,5,5,Francis,f,1,0.1,20.82965334,1.62338997
655faeaa22964920719a77b3,20,0,2024-02-28T17:20:39.780Z,english_213.wav,0,pill,221,23,5,5,Francis,f,2,0.2,92.37712608,0.62920964
655faeaa22964920719a77b3,20,0,2024-02-28T17:20:39.780Z,english_213.wav,0,pill,221,23,5,5,Francis,f,3,0.3,62.5594058,1.24187197
655faeaa22964920719a77b3,20,0,2024-02-28T17:20:39.780Z,english_213.wav,0,pill,221,23,5,5,Francis,f,4,0.4,6.21236176,0.66893682
655faeaa22964920719a77b3,20,0,2024-02-28T17:20:39.780Z,english_213.wav,0,pill,221,23,5,5,Francis,f,5,0.5,4.78560907,0.46069242
655faeaa22964920719a77b3,20,0,2024-02-28T17:20:39.780Z,english_213.wav,0,pill,221,23,5,5,Francis,f,6,0.6,-34.71949358,0.40626587
655faeaa22964920719a77b3,20,0,2024-02-28T17:20:39.780Z,english_213.wav,0,pill,221,23,5,5,Francis,f,7,0.7,-10.08230205,1.52821633
655faeaa22964920719a77b3,20,0,2024-02-28T17:20:39.780Z,english_213.wav,0,pill,221,23,5,5,Francis,f,8,0.8,33.82806657,1.03411812
655faeaa22964920719a77b3,20,0,2024-02-28T17:20:39.780Z,english_213.wav,0,pill,221,23,5,5,Francis,f,9,0.9,-6.48550499,1.40320231
655faeaa22964920719a77b3,20,0,2024-02-28T17:20:39.780Z,english_213.wav,0,pill,221,23,5,5,Francis,f,10,1.0,-24.14508238,0.99721534
655faeaa22964920719a77b3,20,0,2024-02-28T17:20:39.780Z,english_213.wav,0,pill,221,23,5,5,Francis,f,11,1.09391667,87.95814846,0.20116539
655faeaa22964920719a77b3,21,0,2024-02-28T17:20:39.780Z,english_230.wav,0,pill,639,23,5,5,Francis,f,0,0.0,33.38389537,1.56748289
655faeaa22964920719a77b3,21,0,2024-02-28T17:20:39.780Z,english_230.wav,0,pill,639,23,5,5,Francis,f,1,0.1,-34.15374901,0.35840318
655faeaa22964920719a77b3,21,0,2024-02-28T17:20:39.780Z,english_230.wav,0,pill,639,23,5,5,Francis,f,2,0.2,-17.15972141,0.69573927
655faeaa22964920719a77b3,21,0,2024-02-28T17:20:39.780Z,english_230.wav,0,pill,639,23,5,5,Francis,f,3,0.3,-8.06213265,1.48062695
655faeaa22964920719a77b3,21,0,2024-02-28T17:20:39.780Z,english_230.wav,0,pill,639,23,5,5,Francis,f,4,0.4,10.20192226,1.80584749
655faeaa22964920719a77b3,21,0,2024-02-28T17:20:39.780Z,english_230.wav,0,pill,639,23,5,5,Francis,f,5,0.5,-58.60843687,0.27713833
655faeaa22964920719a77b3,21,0,2024-02-28T17:20:39.780Z,english_230.wav,0,pill,639,23,5,5,Francis,f,6,0.6,79.76687213,0.54911174
655faeaa22964920719a77b3,21,0,2024-02-28T17:20:39.780Z,english_230.wav,0,pill,639,23,5,5,Francis,f,7,0.7,-68.85443864,0.47648858
655faeaa22964920719a77b3,21,0,2024-02-28T17:20:39.780Z,english_230.wav,0,pill,639,23,5,5,Francis,f,8,0.8,-14.23970475,1.61704234
655faeaa22964920719a77b3,21,0,2024-02-28T17:20:39.780Z,english_230.wav,0,pill,639,23,5,5,Francis,f,9,0.9,-88.80466565,1.41921333
655faeaa22964920719a77b3,21,0,2024-02-28T17:20:39.780Z,english_230.wav,0,pill,639,23,5,5,Francis,f,10,1.0,-64.76676699,0.47778277
655faeaa22964920719a77b3,21,0,2024-02-28T17:20:39.780Z,english_230.wav,0,pill,639,23,5,5,Francis,f,11,1.09391667,-85.72124736,0.86213517
655faeaa22964920719a77b3,22,0,2024-02-28T17:20:39.780Z,english_729.wav,0,peel,202,23,5,5,Francis,f,0,0.0,-26.87736921,0.37881467
655faeaa22964920719a77b3,22,0,2024-02-28T17:20:39.780Z,english_729.wav,0,peel,202,23,5,5,Francis,f,1,0.1,-38.78454806,0.37257789
655faeaa22964920719a77b3,22,0,2024-02-28T17:20:39.780Z,english_729.wav,0,peel,202,23,5,5,Francis,f,2,0.2,-69.72148419,1.48940085
655faeaa22964920719a77b3,22,0,2024-02-28T17:20:39.780Z,english_729.wav,0,peel,202,23,5,5,Francis,f,3,0.3,56.72097213,1.14518806
655faeaa22964920719a77b3,22,0,2024-02-28T17:20:39.780Z,english_729.wav,0,peel,202,23,5,5,Francis,f,4,0.4,-88.39667283,1.2314091
655faeaa22964920719a77b3,22,0,2024-02-28T17:20:39.780Z,english_729.wav,0,peel,202,23,5,5,Francis,f,5,0.5,45.22282249,0.53736575
655faeaa22964920719a77b3,22,0,2024-02-28T17:20:39.780Z,english_729.wav,0,peel,202,23,5,5,Francis,f,6,0.6,-11.07444694,1.57677514
655faeaa22964920719a77b3,22,0,2024-02-28T17:20:39.780Z,english_729.wav,0,peel,202,23,5,5,Francis,f,7,0.7,-30.98601297,1.78543206
655faeaa22964920719a77b3,22,0,2024-02-28T17:20:39.780Z,english_729.wav,0,peel,202,23,5,5,Francis,f,8,0.8,49.05819927,0.9243348
655faeaa22964920719a77b3,22,0,2024-02-28T17:20:39.780Z,english_729.wav,0,peel,202,23,5,5,Francis,f,9,0.9,95.08611162,1.43220062
655faeaa22964920719a77b3,22,0,2024-02-28T17:20:39.780Z,english_729.wav,0,peel,202,23,5,5,Francis,f,10,1.0,-80.37669622,1.4106878
655faeaa22964920719a77b3,22,0,2024-02-28T17:20:39.780Z,english_729.wav,0,peel,202,23,5,5,Francis,f,11,1.09391667,-0.64736784,0.37073527
655faeaa22964920719a77b3,23,0,2024-02-28T17:20:39.780Z,english_888.wav,0,pill,732,23,5,5,Francis,f,0,0.0,-39.7925546,0.13458958
655faeaa22964920719a77b3,23,0,2024-02-28T17:20:39.780Z,english_888.wav,0,pill,732,23,5,5,Francis,f,1,0.1,-49.30113257,1.48324952
655faeaa22964920719a77b3,23,0,2024-02-28T17:20:39.780Z,english_888.wav,0,pill,732,23,5,5,Francis,f,2,0.2,5.97243806,0.77423602
655faeaa22964920719a77b3,23,0,2024-02-28T17:20:39.780Z,english_888.wav,0,pill,732,23,5,5,Francis,f,3,0.3,16.41276851,0.11110742
655faeaa22964920719a77b3,23,0,2024-02-28T17:20:39.780Z,english_888.wav,0,pill,732,23,5,5,Francis,f,4,0.4,72.72751695,0.50050507
655faeaa22964920719a77b3,23,0,2024-02-28T17:20:39.780Z,english_888.wav,0,pill,732,23,5,5,Francis,f,5,0.5,30.43059144,1.62800327
655faeaa22964920719a77b3,23,0,2024-02-28T17:20:39.780Z,english_888.wav,0,pill,732,23,5,5,Francis,f,6,0.6,-50.61460993,0.52150538
655faeaa22964920719a77b3,23,0,2024-02-28T17:20:39.780Z,english_888.wav,0,pill,732,23,5,5,Francis,f,7,0.7,27.35581245,1.33185555
655faeaa22964920719a77b3,23,0,2024-02-28T17:20:39.780Z,english_888.wav,0,pill,732,23,5,5,Francis,f,8,0.8,-42.43293374,1.57744059
655faeaa22964920719a77b3,23,0,2024-02-28T17:20:39.780Z,english_888.wav,0,pill,732,23,5,5,Francis,f,9,0.9,65.78948432,0.93033448
655faeaa22964920719a77b3,23,0,2024-02-28T17:20:39.780Z,english_888.wav,0,pill,732,23,5,5,Francis,f,10,1.0,10.78660964,1.1520653
655faeaa22964920719a77b3,23,0,2024-02-28T17:20:39.780Z,english_888.wav,0,pill,732,23,5,5,Francis,f,11,1.09391667,-21.51817703,1.84815249
655faeaa22964920719a77b3,24,0,2024-02-28T17:20:39.780Z,english_700.wav,0,peel,432,23,5,5,Francis,f,0,0.0,68.07429642,0.65814928
655faeaa22964920719a77b3,24,0,2024-02-28T17:20:39.780Z,english_700.wav,0,peel,432,23,5,5,Francis,f,1,0.1,-37.49377634,0.17735138
655faeaa22964920719a77b3,24,0,2024-02-28T17:20:39.780Z,english_700.wav,0,peel,432,23,5,5,Francis,f,2,0.2,-23.04099004,0.86512997
655faeaa22964920719a77b3,24,0,2024-02-28T17:20:39.780Z,english_700.wav,0,peel,432,23,5,5,Francis,f,3,0.3,29.04143541,1.58435568
655faeaa22964920719a77b3,24,0,2024-02-28T17:20:39.780Z,english_700.wav,0,peel,432,23,5,5,Francis,f,4,0.4,20.45754453,1.51654074
655faeaa22964920719a77b3,24,0,2024-02-28T17:20:39.780Z,english_700.wav,0,peel,432,23,5,5,Francis,f,5,0.5,37.24109952,1.28756254
655faeaa22964920719a77b3,24,0,2024-02-28T17:20:39.780Z,english_700.wav,0,peel,432,23,5,5,Francis,f,6,0.6,39.64018777,0.60860264
655faeaa22964920719a77b3,24,0,2024-02-28T17:20:39.780Z,english_700.wav,0,peel,432,23,5,5,Francis,f,7,0.7,51.86520487,1.44468929
655faeaa22964920719a77b3,24,0,2024-02-28T17:20:39.780Z,english_700.wav,0,peel,432,23,5,5,Francis,f,8,0.8,48.29334393,1.11255223
655faeaa22964920719a77b3,24,0,2024-02-28T17:20:39.780Z,english_700.wav,0,peel,432,23,5,5,Francis,f,9,0.9,69.44263224,0.2005319
655faeaa22964920719a77b3,24,0,2024-02-28T17:20:39.780Z,english_700.wav,0,peel,432,23,5,5,Francis,f,10,1.0,-89.62778161,1.42301772
655faeaa22964920719a77b3,24,0,2024-02-28T17:20:39.780Z,english_700.wav,0,peel,432,23,5,5,Francis,f,11,1.09391667,-27.88856176,1.42118254
655faeaa22964920719a77b3,25,0,2024-02-28T17:20:39.780Z,english_314.wav,0,peel,548,23,5,5,Francis,f,0,0.0,-72.77248659,0.8900907
655faeaa22964920719a77b3,25,0,2024-02-28T17:20:39.780Z,english_314.wav,0,peel,548,23,5,5,Francis,f,1,0.1,-16.3777023,0.59416925
655faeaa22964920719a77b3,25,0,2024-02-28T17:20:39.780Z,english_314.wav,0,peel,548,23,5,5,Francis,f,2,0.2,-54.89367252,1.27689755
655faeaa22964920719a77b3,25,0,2024-02-28T17:20:39.780Z,english_314.wav,0,peel,548,23,5,5,Francis,f,3,0.3,-94.61910998,0.70275331
655faeaa22964920719a77b3,25,0,2024-02-28T17:20:39.780Z,english_314.wav,0,peel,548,23,5,5,Francis,f,4,0.4,-16.43986335,1.42732001
655faeaa22964920719a77b3,25,0,2024-02-28T17:20:39.780Z,english_314.wav,0,peel,548,23,5,5,Francis,f,5,0.5,22.95549902,0.51357734
655faeaa22964920719a77b3,25,0,2024-02-28T17:20:39.780Z,english_314.wav,0,peel,548,23,5,5,Francis,f,6,0.6,-38.50046808,1.78706659
655faeaa22964920719a77b3,25,0,2024-02-28T17:20:39.780Z,english_314.wav,0,peel,548,23,5,5,Francis,f,7,0.7,94.4546569,0.51196802
655faeaa22964920719a77b3,25,0,2024-02-28T17:20:39.780Z,english_314.wav,0,peel,548,23,5,5,Francis,f,8,0.8,-37.64043119,0.29950004
655faeaa22964920719a77b3,25,0,2024-02-28T17:20:39.780Z,english_314.wav,0,peel,548,23,5,5,Francis,f,9,0.9,48.39030237,0.69158189
655faeaa22964920719a77b3,25,0,2024-02-28T17:20:39.780Z,english_314.wav,0,peel,548,23,5,5,Francis,f,10,1.0,-45.26638295,0.28421865
655faeaa22964920719a77b3,25,0,2024-02-28T17:20:39.780Z,english_314.wav,0,peel,548,23,5,5,Francis,f,11,1.09391667,-45.55554074,1.42591163
655faeaa22964920719a77b3,26,0,2024-02-28T17:20:39.780Z,english_472.wav,0,pill,508,23,5,5,Francis,f,0,0.0,-23.72821767,0.96911452
655faeaa22964920719a77b3,26,0,2024-02-28T17:20:39.780Z,english_472.wav,0,pill,508,23,5,5,Francis,f,1,0.1,7.29471696,0.40121138
655faeaa22964920719a77b3,26,0,2024-02-28T17:20:39.780Z,english_472.wav,0,pill,508,23,5,5,Francis,f,2,0.2,-58.55005371,1.15410482
655faeaa22964920719a77b3,26,0,2024-02-28T17:20:39.780Z,english_472.wav,0,pill,508,23,5,5,Francis,f,3,0.3,77.0504256,1.91400861
655faeaa22964920719a77b3,26,0,2024-02-28T17:20:39.780Z,english_472.wav,0,pill,508,23,5,5,Francis,f,4,0.4,87.29275565,0.05830067
655faeaa22964920719a77b3,26,0,2024-02-28T17:20:39.780Z,english_472.wav,0,pill,508,23,5,5,Francis,f,5,0.5,-70.9646192,0.87176087
655faeaa22964920719a77b3,26,0,2024-02-28T17:20:39.780Z,english_472.wav,0,pill,508,23,5,5,Francis,f,6,0.6,72.82743185,0.23371631
655faeaa22964920719a77b3,26,0,2024-02-28T17:20:39.780Z,english_472.wav,0,pill,508,23,5,5,Francis,f,7,0.7,-40.27439915,1.66198616
655faeaa22964920719a77b3,26,0,2024-02-28T17:20:39.780Z,english_472.wav,0,pill,508,23,5,5,Francis,f,8,0.8,-15.91396931,0.22492459
655faeaa22964920719a77b3,26,0,2024-02-28T17:20:39.780Z,english_472.wav,0,pill,508,23,5,5,Francis,f,9,0.9,27.40014094,0.55757982
655faeaa22964920719a77b3,26,0,2024-02-28T17:20:39.780Z,english_472.wav,0,pill,508,23,5,5,Francis,f,10,1.0,-13.69917785,1.15387827
655faeaa22964920719a77b3,26,0,2024-02-28T17:20:39.780Z,english_472.wav,0,pill,508,23,5,5,Francis,f,11,1.09391667,26.78237701,1.85526867
655faeaa22964920719a77b3,27,0,2024-02-28T17:20:39.780Z,english_317.wav,0,pill,698,23,5,5,Francis,f,0,0.0,35.80517537,1.51358533
655faeaa22964920719a77b3,27,0,2024-02-28T17:20:39.780Z,english_317.wav,0,pill,698,23,5,5,Francis,f,1,0.1,-47.20528256,0.29972078
655faeaa22964920719a77b3,27,0,2024-02-28T17:20:39.780Z,english_317.wav,0,pill,698,23,5,5,Francis,f,2,0.2,10.16864163,1.18281069
655faeaa22964920719a77b3,27,0,2024-02-28T17:20:39.780Z,english_317.wav,0,pill,698,23,5,5,Francis,f,3,0.3,32.59206289,1.39231518
655faeaa22964920719a77b3,27,0,2024-02-28T17:20:39.780Z,english_317.wav,0,pill,698,23,5,5,Francis,f,4,0.4,20.53754814,1.77974686
655faeaa22964920719a77b3,27,0,2024-02-28T17:20:39.780Z,english_317.wav,0,pill,698,23,5,5,Francis,f,5,0.5,-78.8593211,1.1695001
655faeaa22964920719a77b3,27,0,2024-02-28T17:20:39.780Z,english_317.wav,0,pill,698,23,5,5,Francis,f,6,0.6,-97.96541086,1.77666203
655faeaa22964920719a77b3,27,0,2024-02-28T17:20:39.780Z,english_317.wav,0,pill,698,23,5,5,Francis,f,7,0.7,49.60543729,0.8164879
655faeaa22964920719a77b3,27,0,2024-02-28T17:20:39.780Z,english_317.wav,0,pill,698,23,5,5,Francis,f,8,0.8,-69.92457952,0.08502592
655faeaa22964920719a77b3,27,0,2024-02-28T17:20:39.780Z,english_317.wav,0,pill,698,23,5,5,Francis,f,9,0.9,-3.69767957,1.29069951
655faeaa22964920719a77b3,27,0,2024-02-28T17:20:39.780Z,english_317.wav,0,pill,698,23,5,5,Francis,f,10,1.0,-3.35302539,0.64002495
655faeaa22964920719a77b3,27,0,2024-02-28T17:20:39.780Z,english_317.wav,0,pill,698,23,5,5,Francis,f,11,1.09391667,29.32411719,1.74584587
655faeaa22964920719a77b3,28,0,2024-02-28T17:20:39.780Z,english_892.wav,0,pill,629,23,5,5,Francis,f,0,0.0,-38.86767844,1.06552273
655faeaa22964920719a77b3,28,0,2024-02-28T17:20:39.780Z,english_892.wav,0,pill,629,23,5,5,Francis,f,1,0.1,29.31331075,1.21891825
655faeaa22964920719a77b3,28,0,2024-02-28T17:20:39.780Z,english_892.wav,0,pill,629,23,5,5,Francis,f,2,0.2,37.64120423,0.29574975
655faeaa22964920719a77b3,28,0,2024-02-28T17:20:39.780Z,english_892.wav,0,pill,629,23,5,5,Francis,f,3,0.3,25.96997634,0.59708479
655faeaa22964920719a77b3,28,0,2024-02-28T17:20:39.780Z,english_892.wav,0,pill,629,23,5,5,Francis,f,4,0.4,25.06772021,1.90102073
655faeaa22964920719a77b3,28,0,2024-02-28T17:20:39.780Z,english_892.wav,0,pill,629,23,5,5,Francis,f,5,0.5,19.15395825,0.08656429
655faeaa22964920719a77b3,28,0,2024-02-28T17:20:39.780Z,english_892.wav,0,pill,629,23,5,5,Francis,f,6,0.6,96.7473058,1.91022134
655faeaa22964920719a77b3,28,0,2024-02-28T17:20:39.780Z,english_892.wav,0,pill,629,23,5,5,Francis,f,7,0.7,-43.25342834,0.18523015
655faeaa22964920719a77b3,28,0,2024-02-28T17:20:39.780Z,english_892.wav,0,pill,629,23,5,5,Francis,f,8,0.8,-30.92807771,0.17424813
655faeaa22964920719a77b3,28,0,2024-02-28T17:20:39.780Z,english_892.wav,0,pill,629,23,5,5,Francis,f,9,0.9,-18.81814059,1.10584125
655faeaa22964920719a77b3,28,0,2024-02-28T17:20:39.780Z,english_892.wav,0,pill,629,23,5,5,Francis,f,10,1.0,21.2135068,1.16786025
655faeaa22964920719a77b3,28,0,2024-02-28T17:20:39.780Z,english_892.wav,0,pill,629,23,5,5,Francis,f,11,1.09391667,36.95597597,1.53062308
655faeaa22964920719a77b3,29,0,2024-02-28T17:20:39.780Z,english_127.wav,0,peel,75,23,5,5,Francis,f,0,0.0,-97.90087244,0.58111051
655faeaa22964920719a77b3,29,0,2024-02-28T17:20:39.780Z,english_127.wav,0,peel,75,23,5,5,Francis,f,1,0.1,-36.95796642,1.98466344
655faeaa22964920719a77b3,29,0,2024-02-28T17:20:39.780Z,english_127.wav,0,peel,75,23,5,5,Francis,f,2,0.2,33.65056974,0.66246338
655faeaa22964920719a77b3,29,0,2024-02-28T17:20:39.780Z,english_127.wav,0,peel,75,23,5,5,Francis,f,3,0.3,-19.85406453,0.15661461
655faeaa22964920719a77b3,29,0,2024-02-28T17:20:39.780Z,english_127.wav,0,peel,75,23,5,5,Francis,f,4,0.4,-42.6348027,1.74661521
655faeaa22964920719a77b3,29,0,2024-02-28T17:20:39.780Z,english_127.wav,0,peel,75,23,5,5,Francis,f,5,0.5,-56.79071689,1.58365522
655faeaa22964920719a77b3,29,0,2024-02-28T17:20:39.780Z,english_127.wav,0,peel,75,23,5,5,Francis,f,6,0.6,-5.36842737,0.14537305
655faeaa22964920719a77b3,29,0,2024-02-28T17:20:39.780Z,english_127.wav,0,peel,75,23,5,5,Francis,f,7,0.7,-65.17730662,1.46904529
655faeaa22964920719a77b3,29,0,2024-02-28T17:20:39.780Z,english_127.wav,0,peel,75,23,5,5,Francis,f,8,0.8,55.11157095,1.23944377
655faeaa22964920719a77b3,29,0,2024-02-28T17:20:39.780Z,english_127.wav,0,peel,75,23,5,5,Francis,f,9,0.9,-6.91901103,1.93001672
655faeaa22964920719a77b3,29,0,2024-02-28T17:20:39.780Z,english_127.wav,0,peel,75,23,5,5,Francis,f,10,1.0,32.26051644,0.93435528
655faeaa22964920719a77b3,29,0,2024-02-28T17:20:39.780Z,english_127.wav,0,peel,75,23,5,5,Francis,f,11,1.09391667,51.54181068,1.6531459
655faeaa22964920719a77b3,30,0,2024-02-28T17:20:39.780Z,english_406.wav,0,pill,519,23,5,5,Francis,f,0,0.0,16.41054839,1.82011871
655faeaa22964920719a77b3,30,0,2024-02-28T17:20:39.780Z,english_406.wav,0,pill,519,23,5,5,Francis,f,1,0.1,-23.44264217,1.5788444
655faeaa22964920719a77b3,30,0,2024-02-28T17:20:39.780Z,english_406.wav,0,pill,519,23,5,5,Francis,f,2,0.2,67.00437835,0.98241909
655faeaa22964920719a77b3,30,0,2024-02-28T17:20:39.780Z,english_406.wav,0,pill,519,23,5,5,Francis,f,3,0.3,32.24147439,1.73565394
655faeaa22964920719a77b3,30,0,2024-02-28T17:20:39.780Z,english_406.wav,0,pill,519,23,5,5,Francis,f,4,0.4,-69.94095423,0.23880913
655faeaa22964920719a77b3,30,0,2024-02-28T17:20:39.780Z,english_406.wav,0,pill,519,23,5,5,Francis,f,5,0.5,-75.95608649,1.64825439
655faeaa22964920719a77b3,30,0,2024-02-28T17:20:39.780Z,english_406.wav,0,pill,519,23,5,5,Francis,f,6,0.6,26.64856795,1.51416343
655faeaa22964920719a77b3,30,0,2024-02-28T17:20:39.780Z,english_406.wav,0,pill,519,23,5,5,Francis,f,7,0.7,28.46707033,0.23765412
655faeaa22964920719a77b3,30,0,2024-02-28T17:20:39.780Z,english_406.wav,0,pill,519,23,5,5,Francis,f,8,0.8,8.57252797,0.78664096
655faeaa22964920719a77b3,30,0,2024-02-28T17:20:39.780Z,english_406.wav,0,pill,519,23,5,5,Francis,f,9,0.9,-43.42045484,1.03412093
655faeaa22964920719a77b3,30,0,2024-02-28T17:20:39.780Z,english_406.wav,0,pill,519,23,5,5,Francis,f,10,1.0,-38.23728815,1.06202892
655faeaa22964920719a77b3,30,0,2024-02-28T17:20:39.780Z,english_406.wav,0,pill,519,23,5,5,Francis,f,11,1.09391667,-48.66780803,0.40663901
655faeaa22964920719a77b3,31,0,2024-02-28T17:20:39.780Z,english_235.wav,0,pill,291,23,5,5,Francis,f,0,0.0,44.65499148,0.45157531
655faeaa22964920719a77b3,31,0,2024-02-28T17:20:39.780Z,english_235.wav,0,pill,291,23,5,5,Francis,f,1,0.1,77.52873905,0.81502167
655faeaa22964920719a77b3,31,0,2024-02-28T17:20:39.780Z,english_235.wav,0,pill,291,23,5,5,Francis,f,2,0.2,7.66193616,0.73184795
655faeaa22964920719a77b3,31,0,2024-02-28T17:20:39.780Z,english_235.wav,0,pill,291,23,5,5,Francis,f,3,0.3,-36.65234069,1.39041991
655faeaa22964920719a77b3,31,0,2024-02-28T17:20:39.780Z,english_235.wav,0,pill,291,23,5,5,Francis,f,4,0.4,-38.57977077,0.8131102
655faeaa22964920719a77b3,31,0,2024-02-28T17:20:39.780Z,english_235.wav,0,pill,291,23,5,5,Francis,f,5,0.5,-69.81992681,0.63770546
655faeaa22964920719a77b3,31,0,2024-02-28T17:20:39.780Z,english_235.wav,0,pill,291,23,5,5,Francis,f,6,0.6,-3.21185942,0.48204551
655faeaa22964920719a77b3,31,0,2024-02-28T17:20:39.780Z,english_235.wav,0,pill,291,23,5,5,Francis,f,7,0.7,-3.7989625,0.64449527
655faeaa22964920719a77b3,31,0,2024-02-28T17:20:39.780Z,english_235.wav,0,pill,291,23,5,5,Francis,f,8,0.8,-60.5356981,0.17411585
655faeaa22964920719a77b3,31,0,2024-02-28T17:20:39.780Z,english_235.wav,0,pill,291,23,5,5,Francis,f,9,0.9,10.60420307,1.43103789
655faeaa22964920719a77b3,31,0,2024-02-28T17:20:39.780Z,english_235.wav,0,pill,291,23,5,5,Francis,f,10,1.0,73.74029871,1.90034823
655faeaa22964920719a77b3,31,0,2024-02-28T17:20:39.780Z,english_235.wav,0,pill,291,23,5,5,Francis,f,11,1.09391667,-42.3978276,0.79167247
655faeaa22964920719a77b3,32,0,2024-02-28T17:20:39.780Z,english_982.wav,0,peel,1287,23,5,5,Francis,f,0,0.0,69.76944056,0.99276477
655faeaa22964920719a77b3,32,0,2024-02-28T17:20:39.780Z,english_982.wav,0,peel,1287,23,5,5,Francis,f,1,0.1,-42.93548761,1.13394656
655faeaa22964920719a77b3,32,0,2024-02-28T17:20:39.780Z,english_982.wav,0,peel,1287,23,5,5,Francis,f,2,0.2,36.82283162,0.8882043
655faeaa22964920719a77b3,32,0,2024-02-28T17:20:39.780Z,english_982.wav,0,peel,1287,23,5,5,Francis,f,3,0.3,32.72805269,0.48588646
655faeaa22964920719a77b3,32,0,2024-02-28T17:20:39.780Z,english_982.wav,0,peel,1287,23,5,5,Francis,f,4,0.4,59.91100813,0.19309887
655faeaa22964920719a77b3,32,0,2024-02-28T17:20:39.780Z,english_982.wav,0,peel,1287,23,5,5,Francis,f,5,0.5,-67.75715394,0.28513591
655faeaa22964920719a77b3,32,0,2024-02-28T17:20:39.780Z,english_982.wav,0,peel,1287,23,5,5,Francis,f,6,0.6,-89.50145132,0.07898736
655faeaa22964920719a77b3,32,0,2024-02-28T17:20:39.780Z,english_982.wav,0,peel,1287,23,5,5,Francis,f,7,0.7,-26.70280059,0.13233941
655faeaa22964920719a77b3,32,0,2024-02-28T17:20:39.780Z,english_982.wav,0,peel,1287,23,5,5,Francis,f,8,0.8,64.77389449,0.72291483
655faeaa22964920719a77b3,32,0,2024-02-28T17:20:39.780Z,english_982.wav,0,peel,1287,23,5,5,Francis,f,9,0.9,-30.11635891,0.45053492
655faeaa22964920719a77b3,32,0,2024-02-28T17:20:39.780Z,english_982.wav,0,peel,1287,23,5,5,Francis,f,10,1.0,-16.70024332,0.51435491
655faeaa22964920719a77b3,32,0,2024-02-28T17:20:39.780Z,english_982.wav,0,peel,1287,23,5,5,Francis,f,11,1.09391667,69.17887886,0.97661721
655faeaa22964920719a77b3,33,0,2024-02-28T17:20:39.780Z,english_963.wav,0,pill,357,23,5,5,Francis,f,0,0.0,12.85572416,1.75469767
655faeaa22964920719a77b3,33,0,2024-02-28T17:20:39.780Z,english_963.wav,0,pill,357,23,5,5,Francis,f,1,0.1,-76.17617766,0.88786329
655faeaa22964920719a77b3,33,0,2024-02-28T17:20:39.780Z,english_963.wav,0,pill,357,23,5,5,Francis,f,2,0.2,42.35975093,1.03977576
655faeaa22964920719a77b3,33,0,2024-02-28T17:20:39.780Z,english_963.wav,0,pill,357,23,5,5,Francis,f,3,0.3,-29.56352697,0.40233076
655faeaa22964920719a77b3,33,0,2024-02-28T17:20:39.780Z,english_963.wav,0,pill,357,23,5,5,Francis,f,4,0.4,1.9048802,1.77716713
655faeaa22964920719a77b3,33,0,2024-02-28T17:20:39.780Z,english_963.wav,0,pill,357,23,5,5,Francis,f,5,0.5,-59.42176318,1.22252544
655faeaa22964920719a77b3,33,0,2024-02-28T17:20:39.780Z,english_963.wav,0,pill,357,23,5,5,Francis,f,6,0.6,-90.23873789,1.36334994
655faeaa22964920719a77b3,33,0,2024-02-28T17:20:39.780Z,english_963.wav,0,pill,357,23,5,5,Francis,f,7,0.7,96.0492683,0.19892648
655faeaa22964920719a77b3,33,0,2024-02-28T17:20:39.780Z,english_963.wav,0,pill,357,23,5,5,Francis,f,8,0.8,-14.96705396,0.48578079
655faeaa22964920719a77b3,33,0,2024-02-28T17:20:39.780Z,english_963.wav,0,pill,357,23,5,5,Francis,f,9,0.9,53.28049668,0.49525144
655faeaa22964920719a77b3,33,0,2024-02-28T17:20:39.780Z,english_963.wav,0,pill,357,23,5,5,Francis,f,10,1.0,-50.64061571,1.97867338
655faeaa22964920719a77b3,33,0,2024-02-28T17:20:39.780Z,english_963.wav,0,pill,357,23,5,5,Francis,f,11,1.09391667,33.50411271,0.71277393
655faeaa22964920719a77b3,34,0,2024-02-28T17:20:39.780Z,english_182.wav,0,peel,321,23,5,5,Francis,f,0,0.0,-33.72839549,0.64170462
655faeaa22964920719a77b3,34,0,2024-02-28T17:20:39.780Z,english_182.wav,0,peel,321,23,5,5,Francis,f,1,0.1,71.95583488,0.46910546
655faeaa22964920719a77b3,34,0,2024-02-28T17:20:39.780Z,english_182.wav,0,peel,321,23,5,5,Francis,f,2,0.2,93.77497833,1.36329359
655faeaa22964920719a77b3,34,0,2024-02-28T17:20:39.780Z,english_182.wav,0,peel,321,23,5,5,Francis,f,3,0.3,-96.3431589,1.23106937
655faeaa22964920719a77b3,34,0,2024-02-28T17:20:39.780Z,english_182.wav,0,peel,321,23,5,5,Francis,f,4,0.4,-58.26438495,1.40247691
655faeaa22964920719a77b3,34,0,2024-02-28T17:20:39.780Z,english_182.wav,0,peel,321,23,5,5,Francis,f,5,0.5,40.50395066,0.60520266
655faeaa22964920719a77b3,34,0,2024-02-28T17:20:39.780Z,english_182.wav,0,peel,321,23,5,5,Francis,f,6,0.6,-57.53982371,0.0944441
655faeaa22964920719a77b3,34,0,2024-02-28T17:20:39.780Z,english_182.wav,0,peel,321,23,5,5,Francis,f,7,0.7,19.26336492,0.39825095
655faeaa22964920719a77b3,34,0,2024-02-28T17:20:39.780Z,english_182.wav,0,peel,321,23,5,5,Francis,f,8,0.8,53.61678759,0.94728121
655faeaa22964920719a77b3,34,0,2024-02-28T17:20:39.780Z,english_182.wav,0,peel,321,23,5,5,Francis,f,9,0.9,33.80250156,0.19803834
655faeaa22964920719a77b3,34,0,2024-02-28T17:20:39.780Z,english_182.wav,0,peel,321,23,5,5,Francis,f,10,1.0,47.27321227,1.21672532
655faeaa22964920719a77b3,34,0,2024-02-28T17:20:39.780Z,english_182.wav,0,peel,321,23,5,5,Francis,f,11,1.09391667,72.04949346,0.20681806
655faeaa22964920719a77b3,35,0,2024-02-28T17:20:39.780Z,english_478.wav,0,peel,1017,23,5,5,Francis,f,0,0.0,49.52865222,0.59081153
655faeaa22964920719a77b3,35,0,2024-02-28T17:20:39.780Z,english_478.wav,0,peel,1017,23,5,5,Francis,f,1,0.1,12.15356225,0.51284871
655faeaa22964920719a77b3,35,0,2024-02-28T17:20:39.780Z,english_478.wav,0,peel,1017,23,5,5,Francis,f,2,0.2,-37.73778512,1.1444407
655faeaa22964920719a77b3,35,0,2024-02-28T17:20:39.780Z,english_478.wav,0,peel,1017,23,5,5,Francis,f,3,0.3,-10.50364884,1.54775545
655faeaa22964920719a77b3,35,0,2024-02-28T17:20:39.780Z,english_478.wav,0,peel,1017,23,5,5,Francis,f,4,0.4,38.58870475,1.52435775
655faeaa22964920719a77b3,35,0,2024-02-28T17:20:39.780Z,english_478.wav,0,peel,1017,23,5,5,Francis,f,5,0.5,-22.27355878,1.20325801
655faeaa22964920719a77b3,35,0,2024-02-28T17:20:39.780Z,english_478.wav,0,peel,1017,23,5,5,Francis,f,6,0.6,-48.47445884,0.62139426
655faeaa22964920719a77b3,35,0,2024-02-28T17:20:39.780Z,english_478.wav,0,peel,1017,23,5,5,Francis,f,7,0.7,-51.27115533,0.67212897
655faeaa22964920719a77b3,35,0,2024-02-28T17:20:39.780Z,english_478.wav,0,peel,1017,23,5,5,Francis,f,8,0.8,73.13710457,1.21899898
655faeaa22964920719a77b3,35,0,2024-02-28T17:20:39.780Z,english_478.wav,0,peel,1017,23,5,5,Francis,f,9,0.9,5.78656281,0.57488153
655faeaa22964920719a77b3,35,0,2024-02-28T17:20:39.780Z,english_478.wav,0,peel,1017,23,5,5,Francis,f,10,1.0,-98.51331711,0.34521849
655faeaa22964920719a77b3,35,0,2024-02-28T17:20:39.780Z,english_478.wav,0,peel,1017,23,5,5,Francis,f,11,1.09391667,24.20472837,1.9492818
655faeaa22964920719a77b3,36,0,2024-02-28T17:20:39.780Z,english_815.wav,0,pill,837,23,5,5,Francis,f,0,0.0,13.37098153,0.8883119
655faeaa22964920719a77b3,36,0,2024-02-28T17:20:39.780Z,english_815.wav,0,pill,837,23,5,5,Francis,f,1,0.1,65.78624278,0.67980941
655faeaa22964920719a77b3,36,0,2024-02-28T17:20:39.780Z,english_815.wav,0,pill,837,23,5,5,Francis,f,2,0.2,66.40667823,0.95780133
655faeaa22964920719a77b3,36,0,2024-02-28T17:20:39.780Z,english_815.wav,0,pill,837,23,5,5,Francis,f,3,0.3,-44.62639189,1.51398111
655faeaa22964920719a77b3,36,0,2024-02-28T17:20:39.780Z,english_815.wav,0,pill,837,23,5,5,Francis,f,4,0.4,-51.75725077,1.4565051
655faeaa22964920719a77b3,36,0,2024-02-28T17:20:39.780Z,english_815.wav,0,pill,837,23,5,5,Francis,f,5,0.5,-79.21957107,0.83683567
655faeaa22964920719a77b3,36,0,2024-02-28T17:20:39.780Z,english_815.wav,0,pill,837,23,5,5,Francis,f,6,0.6,-56.86584236,0.38900819
655faeaa22964920719a77b3,36,0,2024-02-28T17:20:39.780Z,english_815.wav,0,pill,837,23,5,5,Francis,f,7,0.7,42.29244477,1.92415526
655faeaa22964920719a77b3,36,0,2024-02-28T17:20:39.780Z,english_815.wav,0,pill,837,23,5,5,Francis,f,8,0.8,-94.28545135,0.30571249
655faeaa22964920719a77b3,36,0,2024-02-28T17:20:39.780Z,english_815.wav,0,pill,837,23,5,5,Francis,f,9,0.9,-14.77734417,0.35189603
655faeaa22964920719a77b3,36,0,2024-02-28T17:20:39.780Z,english_815.wav,0,pill,837,23,5,5,Francis,f,10,1.0,55.50770682,0.8512317
655faeaa22964920719a77b3,36,0,2024-02-28T17:20:39.780Z,english_815.wav,0,pill,837,23,5,5,Francis,f,11,1.09391667,3.0451597,1.01865879
655faeaa22964920719a77b3,37,0,2024-02-28T17:20:39.780Z,english_835.wav,0,peel,378,23,5,5,Francis,f,0,0.0,-39.02011782,0.39436065
655faeaa22964920719a77b3,37,0,2024-02-28T17:20:39.780Z,english_835.wav,0,peel,378,23,5,5,Francis,f,1,0.1,-63.30829774,0.19347001
655faeaa22964920719a77b3,37,0,2024-02-28T17:20:39.780Z,english_835.wav,0,peel,378,23,5,5,Francis,f,2,0.2,-49.45230925,1.31632093
655faeaa22964920719a77b3,37,0,2024-02-28T17:20:39.780Z,english_835.wav,0,peel,378,23,5,5,Francis,f,3,0.3,-7.37432437,0.74578151
655faeaa22964920719a77b3,37,0,2024-02-28T17:20:39.780Z,english_835.wav,0,peel,378,23,5,5,Francis,f,4,0.4,13.5618111,1.17984814
655faeaa22964920719a77b3,37,0,2024-02-28T17:20:39.780Z,english_835.wav,0,peel,378,23,5,5,Francis,f,5,0.5,-42.04372358,1.65194144
655faeaa22964920719a77b3,37,0,2024-02-28T17:20:39.780Z,english_835.wav,0,peel,378,23,5,5,Francis,f,6,0.6,-23.05427732,1.69640587
655faeaa22964920719a77b3,37,0,2024-02-28T17:20:39.780Z,english_835.wav,0,peel,378,23,5,5,Francis,f,7,0.7,-46.66498758,1.48589436
655faeaa22964920719a77b3,37,0,2024-02-28T17:20:39.780Z,english_835.wav,0,peel,378,23,5,5,Francis,f,8,0.8,-43.23379064,0.66391529
655faeaa22964920719a77b3,37,0,2024-02-28T17:20:39.780Z,english_835.wav,0,peel,378,23,5,5,Francis,f,9,0.9,45.29964787,0.69924952
655faeaa22964920719a77b3,37,0,2024-02-28T17:20:39.780Z,english_835.wav,0,peel,378,23,5,5,Francis,f,10,1.0,-13.97031602,0.90104484
655faeaa22964920719a77b3,37,0,2024-02-28T17:20:39.780Z,english_835.wav,0,peel,378,23,5,5,Francis,f,11,1.09391667,-69.96512508,0.7026329
655faeaa22964920719a77b3,38,0,2024-02-28T17:20:39.780Z,english_931.wav,0,pill,546,23,5,5,Francis,f,0,0.0,-48.18620988,1.69837389
655faeaa22964920719a77b3,38,0,2024-02-28T17:20:39.780Z,english_931.wav,0,pill,546,23,5,5,Francis,f,1,0.1,93.34540741,1.28970497
655faeaa22964920719a77b3,38,0,2024-02-28T17:20:39.780Z,english_931.wav,0,pill,546,23,5,5,Francis,f,2,0.2,-88.99120058,1.49371187
655faeaa22964920719a77b3,38,0,2024-02-28T17:20:39.780Z,english_931.wav,0,pill,546,23,5,5,Francis,f,3,0.3,67.25284663,0.85799596
655faeaa22964920719a77b3,38,0,2024-02-28T17:20:39.780Z,english_931.wav,0,pill,546,23,5,5,Francis,f,4,0.4,-10.35682297,1.16281473
655faeaa22964920719a77b3,38,0,2024-02-28T17:20:39.780Z,english_931.wav,0,pill,546,23,5,5,Francis,f,5,0.5,-25.57246183,1.03469104
655faeaa22964920719a77b3,38,0,2024-02-28T17:20:39.780Z,english_931.wav,0,pill,546,23,5,5,Francis,f,6,0.6,-89.21725543,1.18976364
655faeaa22964920719a77b3,38,0,2024-02-28T17:20:39.780Z,english_931.wav,0,pill,546,23,5,5,Francis,f,7,0.7,48.14137998,0.15613957
655faeaa22964920719a77b3,38,0,2024-02-28T17:20:39.780Z,english_931.wav,0,pill,546,23,5,5,Francis,f,8,0.8,15.08583038,0.89546931
655faeaa22964920719a77b3,38,0,2024-02-28T17:20:39.780Z,english_931.wav,0,pill,546,23,5,5,Francis,f,9,0.9,-21.24642179,1.04801932
655faeaa22964920719a77b3,38,0,2024-02-28T17:20:39.780Z,english_931.wav,0,pill,546,23,5,5,Francis,f,10,1.0,-61.3036155,0.54320379
655faeaa22964920719a77b3,38,0,2024-02-28T17:20:39.780Z,english_931.wav,0,pill,546,23,5,5,Francis,f,11,1.09391667,-1.60302041,1.57083838
655faeaa22964920719a77b3,39,0,2024-02-28T17:20:39.780Z,english_597.wav,0,peel,170,23,5,5,Francis,f,0,0.0,-67.67099002,1.63271305
655faeaa22964920719a77b3,39,0,2024-02-28T17:20:39.780Z,english_597.wav,0,peel,170,23,5,5,Francis,f,1,0.1,-46.13734067,1.53444126
655faeaa22964920719a77b3,39,0,2024-02-28T17:20:39.780Z,english_597.wav,0,peel,170,23,5,5,Francis,f,2,0.2,8.53827294,0.45354979
655faeaa22964920719a77b3,39,0,2024-02-28T17:20:39.780Z,english_597.wav,0,peel,170,23,5,5,Francis,f,3,0.3,10.29364975,0.94704096
655faeaa22964920719a77b3,39,0,2024-02-28T17:20:39.780Z,english_597.wav,0,peel,170,23,5,5,Francis,f,4,0.4,90.70511651,1.59618965
655faeaa22964920719a77b3,39,0,2024-02-28T17:20:39.780Z,english_597.wav,0,peel,170,23,5,5,Francis,f,5,0.5,-85.6547255,1.87985709
655faeaa22964920719a77b3,39,0,2024-02-28T17:20:39.780Z,english_597.wav,0,peel,170,23,5,5,Francis,f,6,0.6,-55.29379698,1.26591303
655faeaa22964920719a77b3,39,0,2024-02-28T17:20:39.780Z,english_597.wav,0,peel,170,23,5,5,Francis,f,7,0.7,-36.34265525,1.16675578
655faeaa22964920719a77b3,39,0,2024-02-28T17:20:39.780Z,english_597.wav,0,peel,170,23,5,5,Francis,f,8,0.8,-73.30529238,1.37898637
655faeaa22964920719a77b3,39,0,2024-02-28T17:20:39.780Z,english_597.wav,0,peel,170,23,5,5,Francis,f,9,0.9,47.92763573,1.11636219
655faeaa22964920719a77b3,39,0,2024-02-28T17:20:39.780Z,english_597.wav,0,peel,170,23,5,5,Francis,f,10,1.0,68.39969631,0.24288005
655faeaa22964920719a77b3,39,0,2024-02-28T17:20:39.780Z,english_597.wav,0,peel,170,23,5,5,Francis,f,11,1.09391667,-54.84039666,1.68900271
655faeaa22964920719a77b3,40,0,2024-02-28T17:20:39.780Z,english_859.wav,0,pill,523,23,5,5,Francis,f,0,0.0,31.07114651,1.62014662
655faeaa22964920719a77b3,40,0,2024-02-28T17:20:39.780Z,english_859.wav,0,pill,523,23,5,5,Francis,f,1,0.1,-28.29036268,0.23536516
655faeaa22964920719a77b3,40,0,2024-02-28T17:20:39.780Z,english_859.wav,0,pill,523,23,5,5,Francis,f,2,0.2,-99.32977332,1.20919843
655faeaa22964920719a77b3,40,0,2024-02-28T17:20:39.780Z,english_859.wav,0,pill,523,23,5,5,Francis,f,3,0.3,24.56403326,1.87022771
655faeaa22964920719a77b3,40,0,2024-02-28T17:20:39.780Z,english_859.wav,0,pill,523,23,5,5,Francis,f,4,0.4,13.96924155,1.25340901
655faeaa22964920719a77b3,40,0,2024-02-28T17:20:39.780Z,english_859.wav,0,pill,523,23,5,5,Francis,f,5,0.5,-7.10648456,1.24145487
655faeaa22964920719a77b3,40,0,2024-02-28T17:20:39.780Z,english_859.wav,0,pill,523,23,5,5,Francis,f,6,0.6,16.2139947,0.16688969
655faeaa22964920719a77b3,40,0,2024-02-28T17:20:39.780Z,english_859.wav,0,pill,523,23,5,5,Francis,f,7,0.7,-63.09488954,1.9877967
655faeaa22964920719a77b3,40,0,2024-02-28T17:20:39.780Z,english_859.wav,0,pill,523,23,5,5,Francis,f,8,0.8,32.97149002,1.05528454
655faeaa22964920719a77b3,40,0,2024-02-28T17:20:39.780Z,english_859.wav,0,pill,523,23,5,5,Francis,f,9,0.9,73.86440675,1.04254929
655faeaa22964920719a77b3,40,0,2024-02-28T17:20:39.780Z,english_859.wav,0,pill,523,23,5,5,Francis,f,10,1.0,18.08685772,0.40355025
655faeaa22964920719a77b3,40,0,2024-02-28T17:20:39.780Z,english_859.wav,0,pill,523,23,5,5,Francis,f,11,1.09391667,63.56526174,1.52495745
655faeaa22964920719a77b3,41,0,2024-02-28T17:20:39.780Z,english_468.wav,0,peel,1201,23,5,5,Francis,f,0,0.0,19.31976264,0.66158439
655faeaa22964920719a77b3,41,0,2024-02-28T17:20:39.780Z,english_468.wav,0,peel,1201,23,5,5,Francis,f,1,0.1,-31.93707888,1.54343798
655faeaa22964920719a77b3,41,0,2024-02-28T17:20:39.780Z,english_468.wav,0,peel,1201,23,5,5,Francis,f,2,0.2,87.74953583,1.18268033
655faeaa22964920719a77b3,41,0,2024-02-28T17:20:39.780Z,english_468.wav,0,peel,1201,23,5,5,Francis,f,3,0.3,75.542399,0.92842135
655faeaa22964920719a77b3,41,0,2024-02-28T17:20:39.780Z,english_468.wav,0,peel,1201,23,5,5,Francis,f,4,0.4,-30.66435396,1.55978724
655faeaa22964920719a77b3,41,0,2024-02-28T17:20:39.780Z,english_468.wav,0,peel,1201,23,5,5,Francis,f,5,0.5,27.34391208,1.04364147
655faeaa22964920719a77b3,41,0,2024-02-28T17:20:39.780Z,english_468.wav,0,peel,1201,23,5,5,Francis,f,6,0.6,-88.33380447,1.4617077
655faeaa22964920719a77b3,41,0,2024-02-28T17:20:39.780Z,english_468.wav,0,peel,1201,23,5,5,Francis,f,7,0.7,22.89610212,1.75173298
655faeaa22964920719a77b3,41,0,2024-02-28T17:20:39.780Z,english_468.wav,0,peel,1201,23,5,5,Francis,f,8,0.8,-23.39935551,0.43321648
655faeaa22964920719a77b3,41,0,2024-02-28T17:20:39.780Z,english_468.wav,0,peel,1201,23,5,5,Francis,f,9,0.9,4.99226109,0.70184302
655faeaa22964920719a77b3,41,0,2024-02-28T17:20:39.780Z,english_468.wav,0,peel,1201,23,5,5,Francis,f,10,1.0,10.7480571,0.01962582
655faeaa22964920719a77b3,41,0,2024-02-28T17:20:39.780Z,english_468.wav,0,peel,1201,23,5,5,Francis,f,11,1.09391667,16.97403313,1.09642758
655faeaa22964920719a77b3,42,0,2024-02-28T17:20:39.780Z,english_568.wav,0,pill,445,23,5,5,Francis,f,0,0.0,-70.38029014,0.48501983
655faeaa22964920719a77b3,42,0,2024-02-28T17:20:39.780Z,english_568.wav,0,pill,445,23,5,5,Francis,f,1,0.1,-41.38064903,0.42639108
655faeaa22964920719a77b3,42,0,2024-02-28T17:20:39.780Z,english_568.wav,0,pill,445,23,5,5,Francis,f,2,0.2,-76.08214461,0.24911927
655faeaa22964920719a77b3,42,0,2024-02-28T17:20:39.780Z,english_568.wav,0,pill,445,23,5,5,Francis,f,3,0.3,-34.54351618,1.98842758
655faeaa22964920719a77b3,42,0,2024-02-28T17:20:39.780Z,english_568.wav,0,pill,445,23,5,5,Francis,f,4,0.4,-96.70272001,0.68639175
655faeaa22964920719a77b3,42,0,2024-02-28T17:20:39.780Z,english_568.wav,0,pill,445,23,5,5,Francis,f,5,0.5,8.09889664,1.0927512
655faeaa22964920719a77b3,42,0,2024-02-28T17:20:39.780Z,english_568.wav,0,pill,445,23,5,5,Francis,f,6,0.6,-60.6705204,1.75749365
655faeaa22964920719a77b3,42,0,2024-02-28T17:20:39.780Z,english_568.wav,0,pill,445,23,5,5,Francis,f,7,0.7,-98.59663747,0.99189126
655faeaa22964920719a77b3,42,0,2024-02-28T17:20:39.780Z,english_568.wav,0,pill,445,23,5,5,Francis,f,8,0.8,12.62015403,0.650614
655faeaa22964920719a77b3,42,0,2024-02-28T17:20:39.780Z,english_568.wav,0,pill,445,23,5,5,Francis,f,9,0.9,12.77342586,0.59921044
655faeaa22964920719a77b3,42,0,2024-02-28T17:20:39.780Z,english_568.wav,0,pill,445,23,5,5,Francis,f,10,1.0,27.03767254,1.9050284
655faeaa22964920719a77b3,42,0,2024-02-28T17:20:39.780Z,english_568.wav,0,pill,445,23,5,5,Francis,f,11,1.09391667,13.09180394,1.75175141
655faeaa22964920719a77b3,43,0,2024-02-28T17:20:39.780Z,english_157.wav,0,peel,1399,23,5,5,Francis,f,0,0.0,-13.52894965,0.65332196
655faeaa22964920719a77b3,43,0,2024-02-28T17:20:39.780Z,english_157.wav,0,peel,1399,23,5,5,Francis,f,1,0.1,-34.99957873,1.87717108
655faeaa22964920719a77b3,43,0,2024-02-28T17:20:39.780Z,english_157.wav,0,peel,1399,23,5,5,Francis,f,2,0.2,-21.40265814,1.13451342
655faeaa22964920719a77b3,43,0,2024-02-28T17:20:39.780Z,english_157.wav,0,peel,1399,23,5,5,Francis,f,3,0.3,-42.34898027,1.30632551
655faeaa22964920719a77b3,43,0,2024-02-28T17:20:39.780Z,english_157.wav,0,peel,1399,23,5,5,Francis,f,4,0.4,-7.21242164,1.3432327
655faeaa22964920719a77b3,43,0,2024-02-28T17:20:39.780Z,english_157.wav,0,peel,1399,23,5,5,Francis,f,5,0.5,17.61734953,1.54006945
655faeaa22964920719a77b3,43,0,2024-02-28T17:20:39.780Z,english_157.wav,0,peel,1399,23,5,5,Francis,f,6,0.6,-1.66241966,1.50501088
655faeaa22964920719a77b3,43,0,2024-02-28T17:20:39.780Z,english_157.wav,0,peel,1399,23,5,5,Francis,f,7,0.7,-36.07690291,1.48209283
655faeaa22964920719a77b3,43,0,2024-02-28T17:20:39.780Z,english_157.wav,0,peel,1399,23,5,5,Francis,f,8,0.8,-3.81325634,1.76315724
655faeaa22964920719a77b3,43,0,2024-02-28T17:20:39.780Z,english_157.wav,0,peel,1399,23,5,5,Francis,f,9,0.9,-34.91223396,1.8569822
655faeaa22964920719a77b3,43,0,2024-02-28T17:20:39.780Z,english_157.wav,0,peel,1399,23,5,5,Francis,f,10,1.0,-67.0356687,1.47066105
655faeaa22964920719a77b3,43,0,2024-02-28T17:20:39.780Z,english_157.wav,0,peel,1399,23,5,5,Francis,f,11,1.09391667,69.36414719,1.7499067
655faeaa22964920719a77b3,44,0,2024-02-28T17:20:39.780Z,english_6.wav,0,pill,231,23,5,5,Francis,f,0,0.0,44.864421,1.86077693
655faeaa22964920719a77b3,44,0,2024-02-28T17:20:39.780Z,english_6.wav,0,pill,231,23,5,5,Francis,f,1,0.1,-39.26462371,1.12524403
655faeaa22964920719a77b3,44,0,2024-02-28T17:20:39.780Z,english_6.wav,0,pill,231,23,5,5,Francis,f,2,0.2,28.2122741,1.12796265
655faeaa22964920719a77b3,44,0,2024-02-28T17:20:39.780Z,english_6.wav,0,pill,231,23,5,5,Francis,f,3,0.3,-41.98853637,1.49970504
655faeaa22964920719a77b3,44,0,2024-02-28T17:20:39.780Z,english_6.wav,0,pill,231,23,5,5,Francis,f,4,0.4,60.80708212,1.13312462
655faeaa22964920719a77b3,44,0,2024-02-28T17:20:39.780Z,english_6.wav,0,pill,231,23,5,5,Francis,f,5,0.5,-87.67731195,1.89229122
655faeaa22964920719a77b3,44,0,2024-02-28T17:20:39.780Z,english_6.wav,0,pill,231,23,5,5,Francis,f,6,0.6,16.44282049,1.4551088
655faeaa22964920719a77b3,44,0,2024-02-28T17:20:39.780Z,english_6.wav,0,pill,231,23,5,5,Francis,f,7,0.7,-17.08970644,0.20295498
655faeaa22964920719a77b3,44,0,2024-02-28T17:20:39.780Z,english_6.wav,0,pill,231,23,5,5,Francis,f,8,0.8,-27.18118405,0.3241588
655faeaa22964920719a77b3,44,0,2024-02-28T17:20:39.780Z,english_6.wav,0,pill,231,23,5,5,Francis,f,9,0.9,-79.6171435,1.16747207
655faeaa22964920719a77b3,44,0,2024-02-28T17:20:39.780Z,english_6.wav,0,pill,231,23,5,5,Francis,f,10,1.0,-16.26211535,1.56894598
655faeaa22964920719a77b3,44,0,2024-02-28T17:20:39.780Z,english_6.wav,0,pill,231,23,5,5,Francis,f,11,1.09391667,89.36610691,0.99768517
655faeaa22964920719a77b3,45,0,2024-02-28T17:20:39.780Z,english_934.wav,0,peel,364,23,5,5,Francis,f,0,0.0,-11.34943225,0.24415631
655faeaa22964920719a77b3,45,0,2024-02-28T17:20:39.780Z,english_934.wav,0,peel,364,23,5,5,Francis,f,1,0.1,65.85322301,1.37961224
655faeaa22964920719a77b3,45,0,2024-02-28T17:20:39.780Z,english_934.wav,0,peel,364,23,5,5,Francis,f,2,0.2,-85.4605192,1.63298201
655faeaa22964920719a77b3,45,0,2024-02-28T17:20:39.780Z,english_934.wav,0,peel,364,23,5,5,Francis,f,3,0.3,13.55265206,0.01798396
655faeaa22964920719a77b3,45,0,2024-02-28T17:20:39.780Z,english_934.wav,0,peel,364,23,5,5,Francis,f,4,0.4,0.50969379,0.66397169
655faeaa22964920719a77b3,45,0,2024-02-28T17:20:39.780Z,english_934.wav,0,peel,364,23,5,5,Francis,f,5,0.5,69.19486286,0.2241268
655faeaa22964920719a77b3,45,0,2024-02-28T17:20:39.780Z,english_934.wav,0,peel,364,23,5,5,Francis,f,6,0.6,-98.42209139,1.8505399
655faeaa22964920719a77b3,45,0,2024-02-28T17:20:39.780Z,english_934.wav,0,peel,364,23,5,5,Francis,f,7,0.7,-96.61496438,1.29472214
655faeaa22964920719a77b3,45,0,2024-02-28T17:20:39.780Z,english_934.wav,0,peel,364,23,5,5,Francis,f,8,0.8,-65.00160108,0.83065813
655faeaa22964920719a77b3,45,0,2024-02-28T17:20:39.780Z,english_934.wav,0,peel,364,23,5,5,Francis,f,9,0.9,48.73056023,1.34944931
655faeaa22964920719a77b3,45,0,2024-02-28T17:20:39.780Z,english_934.wav,0,peel,364,23,5,5,Francis,f,10,1.0,10.84569579,1.40216081
655faeaa22964920719a77b3,45,0,2024-02-28T17:20:39.780Z,english_934.wav,0,peel,364,23,5,5,Francis,f,11,1.09391667,97.87119684,1.98377201
655faeaa22964920719a77b3,46,0,2024-02-28T17:20:39.780Z,english_282.wav,0,pill,401,23,5,5,Francis,f,0,0.0,79.51809952,1.2792911
655faeaa22964920719a77b3,46,0,2024-02-28T17:20:39.780Z,english_282.wav,0,pill,401,23,5,5,Francis,f,1,0.1,55.92109115,0.93344042
655faeaa22964920719a77b3,46,0,2024-02-28T17:20:39.780Z,english_282.wav,0,pill,401,23,5,5,Francis,f,2,0.2,36.01060515,1.94968889
655faeaa22964920719a77b3,46,0,2024-02-28T17:20:39.780Z,english_282.wav,0,pill,401,23,5,5,Francis,f,3,0.3,4.60281664,1.12428424
655faeaa22964920719a77b3,46,0,2024-02-28T17:20:39.780Z,english_282.wav,0,pill,401,23,5,5,Francis,f,4,0.4,35.69966579,0.7610034
655faeaa22964920719a77b3,46,0,2024-02-28T17:20:39.780Z,english_282.wav,0,pill,401,23,5,5,Francis,f,5,0.5,-79.87721836,0.66186596
655faeaa22964920719a77b3,46,0,2024-02-28T17:20:39.780Z,english_282.wav,0,pill,401,23,5,5,Francis,f,6,0.6,-3.98252218,0.57211865
655faeaa22964920719a77b3,46,0,2024-02-28T17:20:39.780Z,english_282.wav,0,pill,401,23,5,5,Francis,f,7,0.7,-78.10052274,0.40544896
655faeaa22964920719a77b3,46,0,2024-02-28T17:20:39.780Z,english_282.wav,0,pill,401,23,5,5,Francis,f,8,0.8,69.1474283,0.68156422
655faeaa22964920719a77b3,46,0,2024-02-28T17:20:39.780Z,english_282.wav,0,pill,401,23,5,5,Francis,f,9,0.9,58.09261901,0.87028019
655faeaa22964920719a77b3,46,0,2024-02-28T17:20:39.780Z,english_282.wav,0,pill,401,23,5,5,Francis,f,10,1.0,94.50826365,1.91563213
655faeaa22964920719a77b3,46,0,2024-02-28T17:20:39.780Z,english_282.wav,0,pill,401,23,5,5,Francis,f,11,1.09391667,71.90418642,1.01931827
655faeaa22964920719a77b3,47,0,2024-02-28T17:20:39.780Z,english_455.wav,0,peel,375,23,5,5,Francis,f,0,0.0,26.42834913,1.62221941
655faeaa22964920719a77b3,47,0,2024-02-28T17:20:39.780Z,english_455.wav,0,peel,375,23,5,5,Francis,f,1,0.1,-7.65720218,1.46036611
655faeaa22964920719a77b3,47,0,2024-02-28T17:20:39.780Z,english_455.wav,0,peel,375,23,5,5,Francis,f,2,0.2,-36.03524122,1.24406571
655faeaa22964920719a77b3,47,0,2024-02-28T17:20:39.780Z,english_455.wav,0,peel,375,23,5,5,Francis,f,3,0.3,-9.36591816,1.98304613
655faeaa22964920719a77b3,47,0,2024-02-28T17:20:39.780Z,english_455.wav,0,peel,375,23,5,5,Francis,f,4,0.4,74.01503077,0.42616314
655faeaa22964920719a77b3,47,0,2024-02-28T17:20:39.780Z,english_455.wav,0,peel,375,23,5,5,Francis,f,5,0.5,-66.92719297,0.24476163
655faeaa22964920719a77b3,47,0,2024-02-28T17:20:39.780Z,english_455.wav,0,peel,375,23,5,5,Francis,f,6,0.6,-30.7057444,1.77552442
655faeaa22964920719a77b3,47,0,2024-02-28T17:20:39.780Z,english_455.wav,0,peel,375,23,5,5,Francis,f,7,0.7,40.84752834,1.05242247
655faeaa22964920719a77b3,47,0,2024-02-28T17:20:39.780Z,english_455.wav,0,peel,375,23,5,5,Francis,f,8,0.8,15.65936383,0.70330742
655faeaa22964920719a77b3,47,0,2024-02-28T17:20:39.780Z,english_455.wav,0,peel,375,23,5,5,Francis,f,9,0.9,-13.21472975,0.60059781
655faeaa22964920719a77b3,47,0,2024-02-28T17:20:39.780Z,english_455.wav,0,peel,375,23,5,5,Francis,f,10,1.0,44.82999828,0.40485906
655faeaa22964920719a77b3,47,0,2024-02-28T17:20:39.780Z,english_455.wav,0,peel,375,23,5,5,Francis,f,11,1.09391667,-79.02570563,1.70610938
655faeaa22964920719a77b3,48,0,2024-02-28T17:20:39.780Z,english_118.wav,0,pill,549,23,5,5,Francis,f,0,0.0,37.82351895,1.3762948
655faeaa22964920719a77b3,48,0,2024-02-28T17:20:39.780Z,english_118.wav,0,pill,549,23,5,5,Francis,f,1,0.1,-67.70818615,0.33841533
655faeaa22964920719a77b3,48,0,2024-02-28T17:20:39.780Z,english_118.wav,0,pill,549,23,5,5,Francis,f,2,0.2,68.69944334,0.45852716
655faeaa22964920719a77b3,48,0,2024-02-28T17:20:39.780Z,english_118.wav,0,pill,549,23,5,5,Francis,f,3,0.3,52.36371426,1.7289391
655faeaa22964920719a77b3,48,0,2024-02-28T17:20:39.780Z,english_118.wav,0,pill,549,23,5,5,Francis,f,4,0.4,75.26535893,1.37893215
655faeaa22964920719a77b3,48,0,2024-02-28T17:20:39.780Z,english_118.wav,0,pill,549,23,5,5,Francis,f,5,0.5,-76.41094454,1.61108602
655faeaa22964920719a77b3,48,0,2024-02-28T17:20:39.780Z,english_118.wav,0,pill,549,23,5,5,Francis,f,6,0.6,0.45465547,0.84685901
655faeaa22964920719a77b3,48,0,2024-02-28T17:20:39.780Z,english_118.wav,0,pill,549,23,5,5,Francis,f,7,0.7,55.44753482,1.08403972
655faeaa22964920719a77b3,48,0,2024-02-28T17:20:39.780Z,english_118.wav,0,pill,549,23,5,5,Francis,f,8,0.8,-53.17394643,0.42004792
655faeaa22964920719a77b3,48,0,2024-02-28T17:20:39.780Z,english_118.wav,0,pill,549,23,5,5,Francis,f,9,0.9,-98.70911392,0.56823128
655faeaa22964920719a77b3,48,0,2024-02-28T17:20:39.780Z,english_118.wav,0,pill,549,23,5,5,Francis,f,10,1.0,-4.73000909,1.43622179
655faeaa22964920719a77b3,48,0,2024-02-28T17:20:39.780Z,english_118.wav,0,pill,549,23,5,5,Francis,f,11,1.09391667,-39.29610214,1.0044269
655faeaa22964920719a77b3,49,0,2024-02-28T17:20:39.780Z,english_75.wav,0,peel,295,23,5,5,Francis,f,0,0.0,65.41838677,1.57781759
655faeaa22964920719a77b3,49,0,2024-02-28T17:20:39.780Z,english_75.wav,0,peel,295,23,5,5,Francis,f,1,0.1,-26.14209168,0.77148349
655faeaa22964920719a77b3,49,0,2024-02-28T17:20:39.780Z,english_75.wav,0,peel,295,23,5,5,Francis,f,2,0.2,-26.49286349,1.21755239
655faeaa22964920719a77b3,49,0,2024-02-28T17:20:39.780Z,english_75.wav,0,peel,295,23,5,5,Francis,f,3,0.3,24.3393517,1.81969944
655faeaa22964920719a77b3,49,0,2024-02-28T17:20:39.780Z,english_75.wav,0,peel,295,23,5,5,Francis,f,4,0.4,41.72589255,1.02092036
655faeaa22964920719a77b3,49,0,2024-02-28T17:20:39.780Z,english_75.wav,0,peel,295,23,5,5,Francis,f,5,0.5,5.99778054,0.99503371
655faeaa22964920719a77b3,49,0,2024-02-28T17:20:39.780Z,english_75.wav,0,peel,295,23,5,5,Francis,f,6,0.6,-80.58181045,0.23100369
655faeaa22964920719a77b3,49,0,2024-02-28T17:20:39.780Z,english_75.wav,0,peel,295,23,5,5,Francis,f,7,0.7,-99.66211708,0.28893428
655faeaa22964920719a77b3,49,0,2024-02-28T17:20:39.780Z,english_75.wav,0,peel,295,23,5,5,Francis,f,8,0.8,55.65408757,1.5775207
655faeaa22964920719a77b3,49,0,2024-02-28T17:20:39.780Z,english_75.wav,0,peel,295,23,5,5,Francis,f,9,0.9,95.67727499,1.18557327
655faeaa22964920719a77b3,49,0,2024-02-28T17:20:39.780Z,english_75.wav,0,peel,295,23,5,5,Francis,f,10,1.0,-83.58076108,0.49264005
655faeaa22964920719a77b3,49,0,2024-02-28T17:20:39.780Z,english_75.wav,0,peel,295,23,5,5,Francis,f,11,1.09391667,-10.73672479,0.18205409
655faeaa22964920719a77b3,50,1,2024-02-28T17:20:39.780Z,english_378.wav,0,peel,917,23,5,5,Francis,f,0,0.0,-6.75592408,1.57446733
655faeaa22964920719a77b3,50,1,2024-02-28T17:20:39.780Z,english_378.wav,0,peel,917,23,5,5,Francis,f,1,0.1,-33.28558439,0.29285803
655faeaa22964920719a77b3,50,1,2024-02-28T17:20:39.780Z,english_378.wav,0,peel,917,23,5,5,Francis,f,2,0.2,-96.71642688,0.09494473
655faeaa22964920719a77b3,50,1,2024-02-28T17:20:39.780Z,english_378.wav,0,peel,917,23,5,5,Francis,f,3,0.3,70.45646645,0.09114875
655faeaa22964920719a77b3,50,1,2024-02-28T17:20:39.780Z,english_378.wav,0,peel,917,23,5,5,Francis,f,4,0.4,20.01443052,0.12099564
655faeaa22964920719a77b3,50,1,2024-02-28T17:20:39.780Z,english_378.wav,0,peel,917,23,5,5,Francis,f,5,0.5,-69.62604827,0.06996617
655faeaa22964920719a77b3,50,1,2024-02-28T17:20:39.780Z,english_378.wav,0,peel,917,23,5,5,Francis,f,6,0.6,-82.6103386,0.89001983
655faeaa22964920719a77b3,50,1,2024-02-28T17:20:39.780Z,english_378.wav,0,peel,917,23,5,5,Francis,f,7,0.7,-53.90394432,1.80047075
655faeaa22964920719a77b3,50,1,2024-02-28T17:20:39.780Z,english_378.wav,0,peel,917,23,5,5,Francis,f,8,0.8,75.60526061,1.92282567
655faeaa22964920719a77b3,50,1,2024-02-28T17:20:39.780Z,english_378.wav,0,peel,917,23,5,5,Francis,f,9,0.9,-65.71007404,0.07000512
655faeaa22964920719a77b3,50,1,2024-02-28T17:20:39.780Z,english_378.wav,0,peel,917,23,5,5,Francis,f,10,1.0,-82.95728524,0.51793223
655faeaa22964920719a77b3,50,1,2024-02-28T17:20:39.780Z,english_378.wav,0,peel,917,23,5,5,Francis,f,11,1.09391667,40.19708488,1.33854892
655faeaa22964920719a77b3,51,1,2024-02-28T17:20:39.780Z,english_86.wav,0,pill,507,23,5,5,Francis,f,0,0.0,-3.72553925,0.66197281
655faeaa22964920719a77b3,51,1,2024-02-28T17:20:39.780Z,english_86.wav,0,pill,507,23,5,5,Francis,f,1,0.1,-41.77635103,0.38892539
655faeaa22964920719a77b3,51,1,2024-02-28T17:20:39.780Z,english_86.wav,0,pill,507,23,5,5,Francis,f,2,0.2,-64.64581593,1.26355648
655faeaa22964920719a77b3,51,1,2024-02-28T17:20:39.780Z,english_86.wav,0,pill,507,23,5,5,Francis,f,3,0.3,-0.78514906,0.34485331
655faeaa22964920719a77b3,51,1,2024-02-28T17:20:39.780Z,english_86.wav,0,pill,507,23,5,5,Francis,f,4,0.4,-70.50997039,0.98807129
655faeaa22964920719a77b3,51,1,2024-02-28T17:20:39.780Z,english_86.wav,0,pill,507,23,5,5,Francis,f,5,0.5,-34.81986123,0.56904936
655faeaa22964920719a77b3,51,1,2024-02-28T17:20:39.780Z,english_86.wav,0,pill,507,23,5,5,Francis,f,6,0.6,-59.46042522,0.23018048
655faeaa22964920719a77b3,51,1,2024-02-28T17:20:39.780Z,english_86.wav,0,pill,507,23,5,5,Francis,f,7,0.7,29.81407596,1.60610688
655faeaa22964920719a77b3,51,1,2024-02-28T17:20:39.780Z,english_86.wav,0,pill,507,23,5,5,Francis,f,8,0.8,-52.11647052,1.58476743
655faeaa22964920719a77b3,51,1,2024-02-28T17:20:39.780Z,english_86.wav,0,pill,507,23,5,5,Francis,f,9,0.9,98.4622519,0.26441475
655faeaa22964920719a77b3,51,1,2024-02-28T17:20:39.780Z,english_86.wav,0,pill,507,23,5,5,Francis,f,10,1.0,58.6455937,0.54392284
655faeaa22964920719a77b3,51,1,2024-02-28T17:20:39.780Z,english_86.wav,0,pill,507,23,5,5,Francis,f,11,1.09391667,89.20517371,0.04911314
655faeaa22964920719a77b3,52,1,2024-02-28T17:20:39.780Z,english_581.wav,0,pill,389,23,5,5,Francis,f,0,0.0,73.66932606,1.55016183
655faeaa22964920719a77b3,52,1,2024-02-28T17:20:39.780Z,english_581.wav,0,pill,389,23,5,5,Francis,f,1,0.1,-66.94779644,0.89838662
655faeaa22964920719a77b3,52,1,2024-02-28T17:20:39.780Z,english_581.wav,0,pill,389,23,5,5,Francis,f,2,0.2,17.54153331,0.42808685
655faeaa22964920719a77b3,52,1,2024-02-28T17:20:39.780Z,english_581.wav,0,pill,389,23,5,5,Francis,f,3,0.3,-33.4804178,0.92207517
655faeaa22964920719a77b3,52,1,2024-02-28T17:20:39.780Z,english_581.wav,0,pill,389,23,5,5,Francis,f,4,0.4,-75.87348007,0.40201435
655faeaa22964920719a77b3,52,1,2024-02-28T17:20:39.780Z,english_581.wav,0,pill,389,23,5,5,Francis,f,5,0.5,-19.3699166,0.78725452
655faeaa22964920719a77b3,52,1,2024-02-28T17:20:39.780Z,english_581.wav,0,pill,389,23,5,5,Francis,f,6,0.6,44.64649322,0.99552959
655faeaa22964920719a77b3,52,1,2024-02-28T17:20:39.780Z,english_581.wav,0,pill,389,23,5,5,Francis,f,7,0.7,49.72085551,1.64481575
655faeaa22964920719a77b3,52,1,2024-02-28T17:20:39.780Z,english_581.wav,0,pill,389,23,5,5,Francis,f,8,0.8,-60.52101801,1.59282789
655faeaa22964920719a77b3,52,1,2024-02-28T17:20:39.780Z,english_581.wav,0,pill,389,23,5,5,Francis,f,9,0.9,-63.98249467,0.98679066
655faeaa22964920719a77b3,52,1,2024-02-28T17:20:39.780Z,english_581.wav,0,pill,389,23,5,5,Francis,f,10,1.0,-38.32664081,1.29384626
655faeaa22964920719a77b3,52,1,2024-02-28T17:20:39.780Z,english_581.wav,0,pill,389,23,5,5,Francis,f,11,1.09391667,93.53202253,1.70769846
655faeaa22964920719a77b3,53,1,2024-02-28T17:20:39.780Z,english_100.wav,0,peel,871,23,5,5,Francis,f,0,0.0,-24.42637315,0.62540921
655faeaa22964920719a77b3,53,1,2024-02-28T17:20:39.780Z,english_100.wav,0,peel,871,23,5,5,Francis,f,1,0.1,47.77288594,1.22625666
655faeaa22964920719a77b3,53,1,2024-02-28T17:20:39.780Z,english_100.wav,0,peel,871,23,5,5,Francis,f,2,0.2,-50.36782497,1.26348183
655faeaa22964920719a77b3,53,1,2024-02-28T17:20:39.780Z,english_100.wav,0,peel,871,23,5,5,Francis,f,3,0.3,2.2842979,0.25528387
655faeaa22964920719a77b3,53,1,2024-02-28T17:20:39.780Z,english_100.wav,0,peel,871,23,5,5,Francis,f,4,0.4,-15.6809061,0.91288523
655faeaa22964920719a77b3,53,1,2024-02-28T17:20:39.780Z,english_100.wav,0,peel,871,23,5,5,Francis,f,5,0.5,12.92206519,1.75475855
655faeaa22964920719a77b3,53,1,2024-02-28T17:20:39.780Z,english_100.wav,0,peel,871,23,5,5,Francis,f,6,0.6,58.2816769,1.62969237
655faeaa22964920719a77b3,53,1,2024-02-28T17:20:39.780Z,english_100.wav,0,peel,871,23,5,5,Francis,f,7,0.7,48.23099815,0.00541247
655faeaa22964920719a77b3,53,1,2024-02-28T17:20:39.780Z,english_100.wav,0,peel,871,23,5,5,Francis,f,8,0.8,-72.65138159,0.94746335
655faeaa22964920719a77b3,53,1,2024-02-28T17:20:39.780Z,english_100.wav,0,peel,871,23,5,5,Francis,f,9,0.9,22.56578389,0.25544392
655faeaa22964920719a77b3,53,1,2024-02-28T17:20:39.780Z,english_100.wav,0,peel,871,23,5,5,Francis,f,10,1.0,5.8175855,1.63729526
655faeaa22964920719a77b3,53,1,2024-02-28T17:20:39.780Z,english_100.wav,0,peel,871,23,5,5,Francis,f,11,1.09391667,54.85953581,1.97415754
655faeaa22964920719a77b3,54,1,2024-02-28T17:20:39.780Z,english_820.wav,0,peel,10,23,5,5,Francis,f,0,0.0,-90.13612519,0.91151007
655faeaa22964920719a77b3,54,1,2024-02-28T17:20:39.780Z,english_820.wav,0,peel,10,23,5,5,Francis,f,1,0.1,-50.72556256,1.30362027
655faeaa22964920719a77b3,54,1,2024-02-28T17:20:39.780Z,english_820.wav,0,peel,10,23,5,5,Francis,f,2,0.2,-79.00829797,0.25855126
655faeaa22964920719a77b3,54,1,2024-02-28T17:20:39.780Z,english_820.wav,0,peel,10,23,5,5,Francis,f,3,0.3,-14.44339945,1.8078566
655faeaa22964920719a77b3,54,1,2024-02-28T17:20:39.780Z,english_820.wav,0,peel,10,23,5,5,Francis,f,4,0.4,25.9456349,1.15063196
655faeaa22964920719a77b3,54,1,2024-02-28T17:20:39.780Z,english_820.wav,0,peel,10,23,5,5,Francis,f,5,0.5,-28.76259068,1.03640346
655faeaa22964920719a77b3,54,1,2024-02-28T17:20:39.780Z,english_820.wav,0,peel,10,23,5,5,Francis,f,6,0.6,-20.65873648,1.10712464
655faeaa22964920719a77b3,54,1,2024-02-28T17:20:39.780Z,english_820.wav,0,peel,10,23,5,5,Francis,f,7,0.7,19.30633091,1.58948272
655faeaa22964920719a77b3,54,1,2024-02-28T17:20:39.780Z,english_820.wav,0,peel,10,23,5,5,Francis,f,8,0.8,6.01129625,1.36569453
655faeaa22964920719a77b3,54,1,2024-02-28T17:20:39.780Z,english_820.wav,0,peel,10,23,5,5,Francis,f,9,0.9,-10.90113074,0.84663536
655faeaa22964920719a77b3,54,1,2024-02-28T17:20:39.780Z,english_820.wav,0,peel,10,23,5,5,Francis,f,10,1.0,-2.19154449,1.67108309
655faeaa22964920719a77b3,54,1,2024-02-28T17:20:39.780Z,english_820.wav,0,peel,10,23,5,5,Francis,f,11,1.09391667,-66.85311594,1.79051546
655faeaa22964920719a77b3,55,1,2024-02-28T17:20:39.780Z,english_465.wav,0,peel,301,23,5,5,Francis,f,0,0.0,32.62808343,1.95674705
655faeaa22964920719a77b3,55,1,2024-02-28T17:20:39.780Z,english_465.wav,0,peel,301,23,5,5,Francis,f,1,0.1,-19.45954063,0.2020369
655faeaa22964920719a77b3,55,1,2024-02-28T17:20:39.780Z,english_465.wav,0,peel,301,23,5,5,Francis,f,2,0.2,31.8583501,0.52421729
655faeaa22964920719a77b3,55,1,2024-02-28T17:20:39.780Z,english_465.wav,0,peel,301,23,5,5,Francis,f,3,0.3,62.10393883,0.65974817
655faeaa22964920719a77b3,55,1,2024-02-28T17:20:39.780Z,english_465.wav,0,peel,301,23,5,5,Francis,f,4,0.4,18.6647785,0.39728546
655faeaa22964920719a77b3,55,1,2024-02-28T17:20:39.780Z,english_465.wav,0,peel,301,23,5,5,Francis,f,5,0.5,60.37095119,0.37134149
655faeaa22964920719a77b3,55,1,2024-02-28T17:20:39.780Z,english_465.wav,0,peel,301,23,5,5,Francis,f,6,0.6,-66.90125798,0.92371442
655faeaa22964920719a77b3,55,1,2024-02-28T17:20:39.780Z,english_465.wav,0,peel,301,23,5,5,Francis,f,7,0.7,-81.40602189,0.31310251
655faeaa22964920719a77b3,55,1,2024-02-28T17:20:39.780Z,english_465.wav,0,peel,301,23,5,5,Francis,f,8,0.8,50.53882687,1.13414137
655faeaa22964920719a77b3,55,1,2024-02-28T17:20:39.780Z,english_465.wav,0,peel,301,23,5,5,Francis,f,9,0.9,-56.46028762,0.34422608
655faeaa22964920719a77b3,55,1,2024-02-28T17:20:39.780Z,english_465.wav,0,peel,301,23,5,5,Francis,f,10,1.0,17.60561432,1.91257156
655faeaa22964920719a77b3,55,1,2024-02-28T17:20:39.780Z,english_465.wav,0,peel,301,23,5,5,Francis,f,11,1.09391667,99.29101089,1.23959362
655faeaa22964920719a77b3,56,1,2024-02-28T17:20:39.780Z,english_698.wav,0,pill,346,23,5,5,Francis,f,0,0.0,-98.49976842,0.43179997
655faeaa22964920719a77b3,56,1,2024-02-28T17:20:39.780Z,english_698.wav,0,pill,346,23,5,5,Francis,f,1,0.1,97.00885889,1.41337894
655faeaa22964920719a77b3,56,1,2024-02-28T17:20:39.780Z,english_698.wav,0,pill,346,23,5,5,Francis,f,2,0.2,54.87082892,1.17184634
655faeaa22964920719a77b3,56,1,2024-02-28T17:20:39.780Z,english_698.wav,0,pill,346,23,5,5,Francis,f,3,0.3,-24.25113459,0.60534302
655faeaa22964920719a77b3,56,1,2024-02-28T17:20:39.780Z,english_698.wav,0,pill,346,23,5,5,Francis,f,4,0.4,-19.41361559,1.24831976
655faeaa22964920719a77b3,56,1,2024-02-28T17:20:39.780Z,english_698.wav,0,pill,346,23,5,5,Francis,f,5,0.5,38.63477703,1.39113252
655faeaa22964920719a77b3,56,1,2024-02-28T17:20:39.780Z,english_698.wav,0,pill,346,23,5,5,Francis,f,6,0.6,-31.74740997,1.28562889
655faeaa22964920719a77b3,56,1,2024-02-28T17:20:39.780Z,english_698.wav,0,pill,346,23,5,5,Francis,f,7,0.7,75.16156156,1.10433052
655faeaa22964920719a77b3,56,1,2024-02-28T17:20:39.780Z,english_698.wav,0,pill,346,23,5,5,Francis,f,8,0.8,41.06057046,1.08053659
655faeaa22964920719a77b3,56,1,2024-02-28T17:20:39.780Z,english_698.wav,0,pill,346,23,5,5,Francis,f,9,0.9,-30.65402234,1.52582563
655faeaa22964920719a77b3,56,1,2024-02-28T17:20:39.780Z,english_698.wav,0,pill,346,23,5,5,Francis,f,10,1.0,-13.5987644,0.95244876
655faeaa22964920719a77b3,56,1,2024-02-28T17:20:39.780Z,english_698.wav,0,pill,346,23,5,5,Francis,f,11,1.09391667,-10.25655958,1.39681887
655faeaa22964920719a77b3,57,1,2024-02-28T17:20:39.780Z,english_475.wav,0,peel,1050,23,5,5,Francis,f,0,0.0,29.80961577,0.43821818
655faeaa22964920719a77b3,57,1,2024-02-28T17:20:39.780Z,english_475.wav,0,peel,1050,23,5,5,Francis,f,1,0.1,48.86857013,0.91916023
655faeaa22964920719a77b3,57,1,2024-02-28T17:20:39.780Z,english_475.wav,0,peel,1050,23,5,5,Francis,f,2,0.2,-75.87963709,1.43870603
655faeaa22964920719a77b3,57,1,2024-02-28T17:20:39.780Z,english_475.wav,0,peel,1050,23,5,5,Francis,f,3,0.3,30.73642142,0.67232978
655faeaa22964920719a77b3,57,1,2024-02-28T17:20:39.780Z,english_475.wav,0,peel,1050,23,5,5,Francis,f,4,0.4,-47.77384215,0.927705
655faeaa22964920719a77b3,57,1,2024-02-28T17:20:39.780Z,english_475.wav,0,peel,1050,23,5,5,Francis,f,5,0.5,95.74069733,0.04190462
655faeaa22964920719a77b3,57,1,2024-02-28T17:20:39.780Z,english_475.wav,0,peel,1050,23,5,5,Francis,f,6,0.6,49.89153758,1.51758055
655faeaa22964920719a77b3,57,1,2024-02-28T17:20:39.780Z,english_475.wav,0,peel,1050,23,5,5,Francis,f,7,0.7,-93.96412935,1.81908107
655faeaa22964920719a77b3,57,1,2024-02-28T17:20:39.780Z,english_475.wav,0,peel,1050,23,5,5,Francis,f,8,0.8,-13.00332235,1.60949708
655faeaa22964920719a77b3,57,1,2024-02-28T17:20:39.780Z,english_475.wav,0,peel,1050,23,5,5,Francis,f,9,0.9,80.99885276,1.9985333
655faeaa22964920719a77b3,57,1,2024-02-28T17:20:39.780Z,english_475.wav,0,peel,1050,23,5,5,Francis,f,10,1.0,-12.77273084,1.07792874
655faeaa22964920719a77b3,57,1,2024-02-28T17:20:39.780Z,english_475.wav,0,peel,1050,23,5,5,Francis,f,11,1.09391667,-3.9803657,1.55358956
655faeaa22964920719a77b3,58,1,2024-02-28T17:20:39.780Z,english_135.wav,0,pill,314,23,5,5,Francis,f,0,0.0,1.52771956,1.05574256
655faeaa22964920719a77b3,58,1,2024-02-28T17:20:39.780Z,english_135.wav,0,pill,314,23,5,5,Francis,f,1,0.1,87.85930758,0.07400982
655faeaa22964920719a77b3,58,1,2024-02-28T17:20:39.780Z,english_135.wav,0,pill,314,23,5,5,Francis,f,2,0.2,10.69232429,1.27555025
655faeaa22964920719a77b3,58,1,2024-02-28T17:20:39.780Z,english_135.wav,0,pill,314,23,5,5,Francis,f,3,0.3,-30.56293348,1.65548466
655faeaa22964920719a77b3,58,1,2024-02-28T17:20:39.780Z,english_135.wav,0,pill,314,23,5,5,Francis,f,4,0.4,18.68768105,0.65488565
655faeaa22964920719a77b3,58,1,2024-02-28T17:20:39.780Z,english_135.wav,0,pill,314,23,5,5,Francis,f,5,0.5,83.74749446,1.6850938
655faeaa22964920719a77b3,58,1,2024-02-28T17:20:39.780Z,english_135.wav,0,pill,314,23,5,5,Francis,f,6,0.6,2.30267465,0.17916719
655faeaa22964920719a77b3,58,1,2024-02-28T17:20:39.780Z,english_135.wav,0,pill,314,23,5,5,Francis,f,7,0.7,10.55624665,0.7091252
655faeaa22964920719a77b3,58,1,2024-02-28T17:20:39.780Z,english_135.wav,0,pill,314,23,5,5,Francis,f,8,0.8,-52.17497639,1.14424326
655faeaa22964920719a77b3,58,1,2024-02-28T17:20:39.780Z,english_135.wav,0,pill,314,23,5,5,Francis,f,9,0.9,63.1552018,0.08021557
655faeaa22964920719a77b3,58,1,2024-02-28T17:20:39.780Z,english_135.wav,0,pill,314,23,5,5,Francis,f,10,1.0,32.56027872,1.28558373
655faeaa22964920719a77b3,58,1,2024-02-28T17:20:39.780Z,english_135.wav,0,pill,314,23,5,5,Francis,f,11,1.09391667,49.01841871,0.80254185
655faeaa22964920719a77b3,59,1,2024-02-28T17:20:39.780Z,english_943.wav,0,pill,502,23,5,5,Francis,f,0,0.0,79.5890822,1.20824936
655faeaa22964920719a77b3,59,1,2024-02-28T17:20:39.780Z,english_943.wav,0,pill,502,23,5,5,Francis,f,1,0.1,78.55264714,0.88116928
655faeaa22964920719a77b3,59,1,2024-02-28T17:20:39.780Z,english_943.wav,0,pill,502,23,5,5,Francis,f,2,0.2,44.19658383,1.0423498
655faeaa22964920719a77b3,59,1,2024-02-28T17:20:39.780Z,english_943.wav,0,pill,502,23,5,5,Francis,f,3,0.3,-16.14605168,1.30491636
655faeaa22964920719a77b3,59,1,2024-02-28T17:20:39.780Z,english_943.wav,0,pill,502,23,5,5,Francis,f,4,0.4,46.84349784,1.23781924
655faeaa22964920719a77b3,59,1,2024-02-28T17:20:39.780Z,english_943.wav,0,pill,502,23,5,5,Francis,f,5,0.5,67.29364224,1.19542323
655faeaa22964920719a77b3,59,1,2024-02-28T17:20:39.780Z,english_943.wav,0,pill,502,23,5,5,Francis,f,6,0.6,62.75940247,1.00041218
655faeaa22964920719a77b3,59,1,2024-02-28T17:20:39.780Z,english_943.wav,0,pill,502,23,5,5,Francis,f,7,0.7,-42.13911475,1.18889719
655faeaa22964920719a77b3,59,1,2024-02-28T17:20:39.780Z,english_943.wav,0,pill,502,23,5,5,Francis,f,8,0.8,-19.02728939,0.17654831
655faeaa22964920719a77b3,59,1,2024-02-28T17:20:39.780Z,english_943.wav,0,pill,502,23,5,5,Francis,f,9,0.9,-16.03900615,0.65298118
655faeaa22964920719a77b3,59,1,2024-02-28T17:20:39.780Z,english_943.wav,0,pill,502,23,5,5,Francis,f,10,1.0,15.22888591,0.96725626
655faeaa22964920719a77b3,59,1,2024-02-28T17:20:39.780Z,english_943.wav,0,pill,502,23,5,5,Francis,f,11,1.09391667,60.70409514,1.67455333
655faeaa22964920719a77b3,60,1,2024-02-28T17:20:39.780Z,english_954.wav,0,pill,742,23,5,5,Francis,f,0,0.0,-5.86860432,0.02682789
655faeaa22964920719a77b3,60,1,2024-02-28T17:20:39.780Z,english_954.wav,0,pill,742,23,5,5,Francis,f,1,0.1,38.42724969,1.50907573
655faeaa22964920719a77b3,60,1,2024-02-28T17:20:39.780Z,english_954.wav,0,pill,742,23,5,5,Francis,f,2,0.2,83.51680292,1.17187714
655faeaa22964920719a77b3,60,1,2024-02-28T17:20:39.780Z,english_954.wav,0,pill,742,23,5,5,Francis,f,3,0.3,-25.06032499,1.88473576
655faeaa22964920719a77b3,60,1,2024-02-28T17:20:39.780Z,english_954.wav,0,pill,742,23,5,5,Francis,f,4,0.4,-17.48975264,0.3035603
655faeaa22964920719a77b3,60,1,2024-02-28T17:20:39.780Z,english_954.wav,0,pill,742,23,5,5,Francis,f,5,0.5,95.06102198,1.35082964
655faeaa22964920719a77b3,60,1,2024-02-28T17:20:39.780Z,english_954.wav,0,pill,742,23,5,5,Francis,f,6,0.6,0.80140457,0.63281948
655faeaa22964920719a77b3,60,1,2024-02-28T17:20:39.780Z,english_954.wav,0,pill,742,23,5,5,Francis,f,7,0.7,-41.69263262,0.91375779
655faeaa22964920719a77b3,60,1,2024-02-28T17:20:39.780Z,english_954.wav,0,pill,742,23,5,5,Francis,f,8,0.8,18.46045351,0.80486046
655faeaa22964920719a77b3,60,1,2024-02-28T17:20:39.780Z,english_954.wav,0,pill,742,23,5,5,Francis,f,9,0.9,-7.88727361,0.18383046
655faeaa22964920719a77b3,60,1,2024-02-28T17:20:39.780Z,english_954.wav,0,pill,742,23,5,5,Francis,f,10,1.0,-34.36872213,1.25307449
655faeaa22964920719a77b3,60,1,2024-02-28T17:20:39.780Z,english_954.wav,0,pill,742,23,5,5,Francis,f,11,1.09391667,40.0906943,0.22905501
655faeaa22964920719a77b3,61,1,2024-02-28T17:20:39.780Z,english_531.wav,0,pill,1033,23,5,5,Francis,f,0,0.0,64.01741769,1.51547649
655faeaa22964920719a77b3,61,1,2024-02-28T17:20:39.780Z,english_531.wav,0,pill,1033,23,5,5,Francis,f,1,0.1,26.7868786,1.88187252
655faeaa22964920719a77b3,61,1,2024-02-28T17:20:39.780Z,english_531.wav,0,pill,1033,23,5,5,Francis,f,2,0.2,-11.61455466,1.96684575
655faeaa22964920719a77b3,61,1,2024-02-28T17:20:39.780Z,english_531.wav,0,pill,1033,23,5,5,Francis,f,3,0.3,5.98277112,0.79325927
655faeaa22964920719a77b3,61,1,2024-02-28T17:20:39.780Z,english_531.wav,0,pill,1033,23,5,5,Francis,f,4,0.4,-58.29733436,0.88962117
655faeaa22964920719a77b3,61,1,2024-02-28T17:20:39.780Z,english_531.wav,0,pill,1033,23,5,5,Francis,f,5,0.5,-28.52423669,0.54211356
655faeaa22964920719a77b3,61,1,2024-02-28T17:20:39.780Z,english_531.wav,0,pill,1033,23,5,5,Francis,f,6,0.6,-20.08515402,0.71772169
655faeaa22964920719a77b3,61,1,2024-02-28T17:20:39.780Z,english_531.wav,0,pill,1033,23,5,5,Francis,f,7,0.7,56.89013176,1.30220499
655faeaa22964920719a77b3,61,1,2024-02-28T17:20:39.780Z,english_531.wav,0,pill,1033,23,5,5,Francis,f,8,0.8,-1.76253667,0.81496958
655faeaa22964920719a77b3,61,1,2024-02-28T17:20:39.780Z,english_531.wav,0,pill,1033,23,5,5,Francis,f,9,0.9,17.11874088,0.64316233
655faeaa22964920719a77b3,61,1,2024-02-28T17:20:39.780Z,english_531.wav,0,pill,1033,23,5,5,Francis,f,10,1.0,-69.92464743,0.7734262
655faeaa22964920719a77b3,61,1,2024-02-28T17:20:39.780Z,english_531.wav,0,pill,1033,23,5,5,Francis,f,11,1.09391667,16.89803128,0.24670156
655faeaa22964920719a77b3,62,1,2024-02-28T17:20:39.780Z,english_409.wav,0,pill,618,23,5,5,Francis,f,0,0.0,-79.1757247,0.87513374
655faeaa22964920719a77b3,62,1,2024-02-28T17:20:39.780Z,english_409.wav,0,pill,618,23,5,5,Francis,f,1,0.1,-82.91562438,0.12656435
655faeaa22964920719a77b3,62,1,2024-02-28T17:20:39.780Z,english_409.wav,0,pill,618,23,5,5,Francis,f,2,0.2,91.50346008,0.63589246
655faeaa22964920719a77b3,62,1,2024-02-28T17:20:39.780Z,english_409.wav,0,pill,618,23,5,5,Francis,f,3,0.3,-40.10375406,1.28419635
655faeaa22964920719a77b3,62,1,2024-02-28T17:20:39.780Z,english_409.wav,0,pill,618,23,5,5,Francis,f,4,0.4,90.70869954,0.88499041
655faeaa22964920719a77b3,62,1,2024-02-28T17:20:39.780Z,english_409.wav,0,pill,618,23,5,5,Francis,f,5,0.5,-20.97681685,1.10973129
655faeaa22964920719a77b3,62,1,2024-02-28T17:20:39.780Z,english_409.wav,0,pill,618,23,5,5,Francis,f,6,0.6,17.21215857,0.84354096
655faeaa22964920719a77b3,62,1,2024-02-28T17:20:39.780Z,english_409.wav,0,pill,618,23,5,5,Francis,f,7,0.7,-53.91144795,1.20925869
655faeaa22964920719a77b3,62,1,2024-02-28T17:20:39.780Z,english_409.wav,0,pill,618,23,5,5,Francis,f,8,0.8,37.0057153,0.06654022
655faeaa22964920719a77b3,62,1,2024-02-28T17:20:39.780Z,english_409.wav,0,pill,618,23,5,5,Francis,f,9,0.9,34.22730219,1.12491035
655faeaa22964920719a77b3,62,1,2024-02-28T17:20:39.780Z,english_409.wav,0,pill,618,23,5,5,Francis,f,10,1.0,10.55146488,1.41050889
655faeaa22964920719a77b3,62,1,2024-02-28T17:20:39.780Z,english_409.wav,0,pill,618,23,5,5,Francis,f,11,1.09391667,-24.71915283,1.38366211
655faeaa22964920719a77b3,63,1,2024-02-28T17:20:39.780Z,english_922.wav,0,peel,130,23,5,5,Francis,f,0,0.0,61.1700044,0.77397562
655faeaa22964920719a77b3,63,1,2024-02-28T17:20:39.780Z,english_922.wav,0,peel,130,23,5,5,Francis,f,1,0.1,82.06984085,1.14937293
655faeaa22964920719a77b3,63,1,2024-02-28T17:20:39.780Z,english_922.wav,0,peel,130,23,5,5,Francis,f,2,0.2,-92.27579322,1.03435185
655faeaa22964920719a77b3,63,1,2024-02-28T17:20:39.780Z,english_922.wav,0,peel,130,23,5,5,Francis,f,3,0.3,89.90024406,0.69514863
655faeaa22964920719a77b3,63,1,2024-02-28T17:20:39.780Z,english_922.wav,0,peel,130,23,5,5,Francis,f,4,0.4,36.91510644,0.29090795
655faeaa22964920719a77b3,63,1,2024-02-28T17:20:39.780Z,english_922.wav,0,peel,130,23,5,5,Francis,f,5,0.5,-58.72846655,0.08046627
655faeaa22964920719a77b3,63,1,2024-02-28T17:20:39.780Z,english_922.wav,0,peel,130,23,5,5,Francis,f,6,0.6,85.21548547,0.39343329
655faeaa22964920719a77b3,63,1,2024-02-28T17:20:39.780Z,english_922.wav,0,peel,130,23,5,5,Francis,f,7,0.7,32.72450866,0.50557621
655faeaa22964920719a77b3,63,1,2024-02-28T17:20:39.780Z,english_922.wav,0,peel,130,23,5,5,Francis,f,8,0.8,50.92998004,1.28859728
655faeaa22964920719a77b3,63,1,2024-02-28T17:20:39.780Z,english_922.wav,0,peel,130,23,5,5,Francis,f,9,0.9,-26.56973856,0.44286158
655faeaa22964920719a77b3,63,1,2024-02-28T17:20:39.780Z,english_922.wav,0,peel,130,23,5,5,Francis,f,10,1.0,-43.37360145,1.43016745
655faeaa22964920719a77b3,63,1,2024-02-28T17:20:39.780Z,english_922.wav,0,peel,130,23,5,5,Francis,f,11,1.09391667,-17.2071356,1.42163313
655faeaa22964920719a77b3,64,1,2024-02-28T17:20:39.780Z,english_154.wav,0,peel,209,23,5,5,Francis,f,0,0.0,50.07590523,1.91490825
655faeaa22964920719a77b3,64,1,2024-02-28T17:20:39.780Z,english_154.wav,0,peel,209,23,5,5,Francis,f,1,0.1,54.36539589,1.49511577
655faeaa22964920719a77b3,64,1,2024-02-28T17:20:39.780Z,english_154.wav,0,peel,209,23,5,5,Francis,f,2,0.2,-33.00647988,0.88521845
655faeaa22964920719a77b3,64,1,2024-02-28T17:20:39.780Z,english_154.wav,0,peel,209,23,5,5,Francis,f,3,0.3,-21.71222975,1.92896632
655faeaa22964920719a77b3,64,1,2024-02-28T17:20:39.780Z,english_154.wav,0,peel,209,23,5,5,Francis,f,4,0.4,-59.72627018,1.65018162
655faeaa22964920719a77b3,64,1,2024-02-28T17:20:39.780Z,english_154.wav,0,peel,209,23,5,5,Francis,f,5,0.5,-65.27928089,0.16844772
655faeaa22964920719a77b3,64,1,2024-02-28T17:20:39.780Z,english_154.wav,0,peel,209,23,5,5,Francis,f,6,0.6,25.37742378,1.26574184
