subj,trial,block,date,stim,stim_order,response,rt,age,english,french,language,sex,param_index,segment,pitch,stretch
5ec454e23d68ea32ee554d12,0,0,2024-02-28T14:29:41.850Z,english_407.wav,0,pill,3276,38,4,5,Français,f,0,0.0,-24.60693705,0.46722995
5ec454e23d68ea32ee554d12,0,0,2024-02-28T14:29:41.850Z,english_407.wav,0,pill,3276,38,4,5,Français,f,1,0.1,-18.03262929,1.67527194
5ec454e23d68ea32ee554d12,0,0,2024-02-28T14:29:41.850Z,english_407.wav,0,pill,3276,38,4,5,Français,f,2,0.2,78.43262301,0.46653722
5ec454e23d68ea32ee554d12,0,0,2024-02-28T14:29:41.850Z,english_407.wav,0,pill,3276,38,4,5,Français,f,3,0.3,-68.3918043,0.93598541
5ec454e23d68ea32ee554d12,0,0,2024-02-28T14:29:41.850Z,english_407.wav,0,pill,3276,38,4,5,Français,f,4,0.4,-80.30955939,1.16461279
5ec454e23d68ea32ee554d12,0,0,2024-02-28T14:29:41.850Z,english_407.wav,0,pill,3276,38,4,5,Français,f,5,0.5,85.23652971,0.21312226
5ec454e23d68ea32ee554d12,0,0,2024-02-28T14:29:41.850Z,english_407.wav,0,pill,3276,38,4,5,Français,f,6,0.6,-34.75897275,0.26523352
5ec454e23d68ea32ee554d12,0,0,2024-02-28T14:29:41.850Z,english_407.wav,0,pill,3276,38,4,5,Français,f,7,0.7,-13.65493451,0.26712079
5ec454e23d68ea32ee554d12,0,0,2024-02-28T14:29:41.850Z,english_407.wav,0,pill,3276,38,4,5,Français,f,8,0.8,18.27954458,0.66430326
5ec454e23d68ea32ee554d12,0,0,2024-02-28T14:29:41.850Z,english_407.wav,0,pill,3276,38,4,5,Français,f,9,0.9,-61.83588329,0.96548424
5ec454e23d68ea32ee554d12,0,0,2024-02-28T14:29:41.850Z,english_407.wav,0,pill,3276,38,4,5,Français,f,10,1.0,1.46934054,0.70653645
5ec454e23d68ea32ee554d12,0,0,2024-02-28T14:29:41.850Z,english_407.wav,0,pill,3276,38,4,5,Français,f,11,1.09391667,21.65066183,1.4905418
5ec454e23d68ea32ee554d12,1,0,2024-02-28T14:29:41.850Z,english_160.wav,0,pill,1465,38,4,5,Français,f,0,0.0,54.87282188,1.23358014
5ec454e23d68ea32ee554d12,1,0,2024-02-28T14:29:41.850Z,english_160.wav,0,pill,1465,38,4,5,Français,f,1,0.1,38.39559314,0.90117281
5ec454e23d68ea32ee554d12,1,0,2024-02-28T14:29:41.850Z,english_160.wav,0,pill,1465,38,4,5,Français,f,2,0.2,45.94024754,1.29672558
5ec454e23d68ea32ee554d12,1,0,2024-02-28T14:29:41.850Z,english_160.wav,0,pill,1465,38,4,5,Français,f,3,0.3,23.2538411,1.0625388
5ec454e23d68ea32ee554d12,1,0,2024-02-28T14:29:41.850Z,english_160.wav,0,pill,1465,38,4,5,Français,f,4,0.4,-76.36457338,1.82179424
5ec454e23d68ea32ee554d12,1,0,2024-02-28T14:29:41.850Z,english_160.wav,0,pill,1465,38,4,5,Français,f,5,0.5,-7.52503837,0.15771982
5ec454e23d68ea32ee554d12,1,0,2024-02-28T14:29:41.850Z,english_160.wav,0,pill,1465,38,4,5,Français,f,6,0.6,-67.2018033,1.20020733
5ec454e23d68ea32ee554d12,1,0,2024-02-28T14:29:41.850Z,english_160.wav,0,pill,1465,38,4,5,Français,f,7,0.7,40.79859053,1.72655744
5ec454e23d68ea32ee554d12,1,0,2024-02-28T14:29:41.850Z,english_160.wav,0,pill,1465,38,4,5,Français,f,8,0.8,-54.00476677,1.68926394
5ec454e23d68ea32ee554d12,1,0,2024-02-28T14:29:41.850Z,english_160.wav,0,pill,1465,38,4,5,Français,f,9,0.9,-39.47782367,0.81447331
5ec454e23d68ea32ee554d12,1,0,2024-02-28T14:29:41.850Z,english_160.wav,0,pill,1465,38,4,5,Français,f,10,1.0,13.27455738,0.52461363
5ec454e23d68ea32ee554d12,1,0,2024-02-28T14:29:41.850Z,english_160.wav,0,pill,1465,38,4,5,Français,f,11,1.09391667,82.72582228,1.24111221
5ec454e23d68ea32ee554d12,2,0,2024-02-28T14:29:41.850Z,english_82.wav,0,pill,752,38,4,5,Français,f,0,0.0,-50.65944843,0.53695405
5ec454e23d68ea32ee554d12,2,0,2024-02-28T14:29:41.850Z,english_82.wav,0,pill,752,38,4,5,Français,f,1,0.1,-8.30198342,1.68823048
5ec454e23d68ea32ee554d12,2,0,2024-02-28T14:29:41.850Z,english_82.wav,0,pill,752,38,4,5,Français,f,2,0.2,28.238309,0.29560695
5ec454e23d68ea32ee554d12,2,0,2024-02-28T14:29:41.850Z,english_82.wav,0,pill,752,38,4,5,Français,f,3,0.3,-35.80408689,0.83443164
5ec454e23d68ea32ee554d12,2,0,2024-02-28T14:29:41.850Z,english_82.wav,0,pill,752,38,4,5,Français,f,4,0.4,80.50699914,0.87894934
5ec454e23d68ea32ee554d12,2,0,2024-02-28T14:29:41.850Z,english_82.wav,0,pill,752,38,4,5,Français,f,5,0.5,-99.69979401,1.46703122
5ec454e23d68ea32ee554d12,2,0,2024-02-28T14:29:41.850Z,english_82.wav,0,pill,752,38,4,5,Français,f,6,0.6,30.38876845,0.23248639
5ec454e23d68ea32ee554d12,2,0,2024-02-28T14:29:41.850Z,english_82.wav,0,pill,752,38,4,5,Français,f,7,0.7,-2.76434691,1.71572221
5ec454e23d68ea32ee554d12,2,0,2024-02-28T14:29:41.850Z,english_82.wav,0,pill,752,38,4,5,Français,f,8,0.8,-19.59960586,1.24729907
5ec454e23d68ea32ee554d12,2,0,2024-02-28T14:29:41.850Z,english_82.wav,0,pill,752,38,4,5,Français,f,9,0.9,-93.26966696,0.75753981
5ec454e23d68ea32ee554d12,2,0,2024-02-28T14:29:41.850Z,english_82.wav,0,pill,752,38,4,5,Français,f,10,1.0,64.56379815,1.65214627
5ec454e23d68ea32ee554d12,2,0,2024-02-28T14:29:41.850Z,english_82.wav,0,pill,752,38,4,5,Français,f,11,1.09391667,-59.79308705,0.40383656
5ec454e23d68ea32ee554d12,3,0,2024-02-28T14:29:41.850Z,english_89.wav,0,peel,203,38,4,5,Français,f,0,0.0,44.55560521,0.83141016
5ec454e23d68ea32ee554d12,3,0,2024-02-28T14:29:41.850Z,english_89.wav,0,peel,203,38,4,5,Français,f,1,0.1,-38.12575075,0.73728779
5ec454e23d68ea32ee554d12,3,0,2024-02-28T14:29:41.850Z,english_89.wav,0,peel,203,38,4,5,Français,f,2,0.2,-85.08741113,0.76468972
5ec454e23d68ea32ee554d12,3,0,2024-02-28T14:29:41.850Z,english_89.wav,0,peel,203,38,4,5,Français,f,3,0.3,-34.51149373,1.40220205
5ec454e23d68ea32ee554d12,3,0,2024-02-28T14:29:41.850Z,english_89.wav,0,peel,203,38,4,5,Français,f,4,0.4,91.4200198,1.40801955
5ec454e23d68ea32ee554d12,3,0,2024-02-28T14:29:41.850Z,english_89.wav,0,peel,203,38,4,5,Français,f,5,0.5,-88.24762839,0.24508348
5ec454e23d68ea32ee554d12,3,0,2024-02-28T14:29:41.850Z,english_89.wav,0,peel,203,38,4,5,Français,f,6,0.6,-12.15976794,0.73331541
5ec454e23d68ea32ee554d12,3,0,2024-02-28T14:29:41.850Z,english_89.wav,0,peel,203,38,4,5,Français,f,7,0.7,8.11504905,1.14258486
5ec454e23d68ea32ee554d12,3,0,2024-02-28T14:29:41.850Z,english_89.wav,0,peel,203,38,4,5,Français,f,8,0.8,48.7516223,0.28719695
5ec454e23d68ea32ee554d12,3,0,2024-02-28T14:29:41.850Z,english_89.wav,0,peel,203,38,4,5,Français,f,9,0.9,-61.89417078,1.82425172
5ec454e23d68ea32ee554d12,3,0,2024-02-28T14:29:41.850Z,english_89.wav,0,peel,203,38,4,5,Français,f,10,1.0,70.08039029,1.66848997
5ec454e23d68ea32ee554d12,3,0,2024-02-28T14:29:41.850Z,english_89.wav,0,peel,203,38,4,5,Français,f,11,1.09391667,73.1109171,1.25647122
5ec454e23d68ea32ee554d12,4,0,2024-02-28T14:29:41.850Z,english_725.wav,0,pill,1982,38,4,5,Français,f,0,0.0,-9.03644008,1.33439085
5ec454e23d68ea32ee554d12,4,0,2024-02-28T14:29:41.850Z,english_725.wav,0,pill,1982,38,4,5,Français,f,1,0.1,17.25768585,1.14250237
5ec454e23d68ea32ee554d12,4,0,2024-02-28T14:29:41.850Z,english_725.wav,0,pill,1982,38,4,5,Français,f,2,0.2,31.80596944,1.31071592
5ec454e23d68ea32ee554d12,4,0,2024-02-28T14:29:41.850Z,english_725.wav,0,pill,1982,38,4,5,Français,f,3,0.3,-37.53705258,0.64785465
5ec454e23d68ea32ee554d12,4,0,2024-02-28T14:29:41.850Z,english_725.wav,0,pill,1982,38,4,5,Français,f,4,0.4,-72.83315878,1.42686134
5ec454e23d68ea32ee554d12,4,0,2024-02-28T14:29:41.850Z,english_725.wav,0,pill,1982,38,4,5,Français,f,5,0.5,-86.89655244,1.9351134
5ec454e23d68ea32ee554d12,4,0,2024-02-28T14:29:41.850Z,english_725.wav,0,pill,1982,38,4,5,Français,f,6,0.6,-41.36643193,0.6329639
5ec454e23d68ea32ee554d12,4,0,2024-02-28T14:29:41.850Z,english_725.wav,0,pill,1982,38,4,5,Français,f,7,0.7,-24.29547068,1.12609379
5ec454e23d68ea32ee554d12,4,0,2024-02-28T14:29:41.850Z,english_725.wav,0,pill,1982,38,4,5,Français,f,8,0.8,-10.26201034,0.4317144
5ec454e23d68ea32ee554d12,4,0,2024-02-28T14:29:41.850Z,english_725.wav,0,pill,1982,38,4,5,Français,f,9,0.9,-84.73732243,0.11714111
5ec454e23d68ea32ee554d12,4,0,2024-02-28T14:29:41.850Z,english_725.wav,0,pill,1982,38,4,5,Français,f,10,1.0,29.57592595,1.51572797
5ec454e23d68ea32ee554d12,4,0,2024-02-28T14:29:41.850Z,english_725.wav,0,pill,1982,38,4,5,Français,f,11,1.09391667,-31.00210879,0.75437121
5ec454e23d68ea32ee554d12,5,0,2024-02-28T14:29:41.850Z,english_18.wav,0,pill,743,38,4,5,Français,f,0,0.0,-34.26622777,1.34360385
5ec454e23d68ea32ee554d12,5,0,2024-02-28T14:29:41.850Z,english_18.wav,0,pill,743,38,4,5,Français,f,1,0.1,-75.64955683,1.57489552
5ec454e23d68ea32ee554d12,5,0,2024-02-28T14:29:41.850Z,english_18.wav,0,pill,743,38,4,5,Français,f,2,0.2,-27.92679038,0.39363555
5ec454e23d68ea32ee554d12,5,0,2024-02-28T14:29:41.850Z,english_18.wav,0,pill,743,38,4,5,Français,f,3,0.3,-19.62027656,0.89611778
5ec454e23d68ea32ee554d12,5,0,2024-02-28T14:29:41.850Z,english_18.wav,0,pill,743,38,4,5,Français,f,4,0.4,-20.32459895,1.50747647
5ec454e23d68ea32ee554d12,5,0,2024-02-28T14:29:41.850Z,english_18.wav,0,pill,743,38,4,5,Français,f,5,0.5,0.79905947,0.43558214
5ec454e23d68ea32ee554d12,5,0,2024-02-28T14:29:41.850Z,english_18.wav,0,pill,743,38,4,5,Français,f,6,0.6,8.10958223,1.91834816
5ec454e23d68ea32ee554d12,5,0,2024-02-28T14:29:41.850Z,english_18.wav,0,pill,743,38,4,5,Français,f,7,0.7,-12.88361986,0.90012517
5ec454e23d68ea32ee554d12,5,0,2024-02-28T14:29:41.850Z,english_18.wav,0,pill,743,38,4,5,Français,f,8,0.8,74.6796053,0.69419363
5ec454e23d68ea32ee554d12,5,0,2024-02-28T14:29:41.850Z,english_18.wav,0,pill,743,38,4,5,Français,f,9,0.9,13.61359807,0.27849068
5ec454e23d68ea32ee554d12,5,0,2024-02-28T14:29:41.850Z,english_18.wav,0,pill,743,38,4,5,Français,f,10,1.0,-21.69070415,0.10490824
5ec454e23d68ea32ee554d12,5,0,2024-02-28T14:29:41.850Z,english_18.wav,0,pill,743,38,4,5,Français,f,11,1.09391667,-57.34652915,1.33460981
5ec454e23d68ea32ee554d12,6,0,2024-02-28T14:29:41.850Z,english_669.wav,0,peel,2896,38,4,5,Français,f,0,0.0,63.63841723,1.21965741
5ec454e23d68ea32ee554d12,6,0,2024-02-28T14:29:41.850Z,english_669.wav,0,peel,2896,38,4,5,Français,f,1,0.1,-16.46655099,1.77063888
5ec454e23d68ea32ee554d12,6,0,2024-02-28T14:29:41.850Z,english_669.wav,0,peel,2896,38,4,5,Français,f,2,0.2,59.94652085,1.19972221
5ec454e23d68ea32ee554d12,6,0,2024-02-28T14:29:41.850Z,english_669.wav,0,peel,2896,38,4,5,Français,f,3,0.3,87.91202499,1.09192955
5ec454e23d68ea32ee554d12,6,0,2024-02-28T14:29:41.850Z,english_669.wav,0,peel,2896,38,4,5,Français,f,4,0.4,-9.72604882,0.69529064
5ec454e23d68ea32ee554d12,6,0,2024-02-28T14:29:41.850Z,english_669.wav,0,peel,2896,38,4,5,Français,f,5,0.5,72.16172308,1.09710692
5ec454e23d68ea32ee554d12,6,0,2024-02-28T14:29:41.850Z,english_669.wav,0,peel,2896,38,4,5,Français,f,6,0.6,-64.88013083,1.91297745
5ec454e23d68ea32ee554d12,6,0,2024-02-28T14:29:41.850Z,english_669.wav,0,peel,2896,38,4,5,Français,f,7,0.7,26.66035036,1.12487674
5ec454e23d68ea32ee554d12,6,0,2024-02-28T14:29:41.850Z,english_669.wav,0,peel,2896,38,4,5,Français,f,8,0.8,-43.66675722,0.95542007
5ec454e23d68ea32ee554d12,6,0,2024-02-28T14:29:41.850Z,english_669.wav,0,peel,2896,38,4,5,Français,f,9,0.9,4.29997564,1.3922733
5ec454e23d68ea32ee554d12,6,0,2024-02-28T14:29:41.850Z,english_669.wav,0,peel,2896,38,4,5,Français,f,10,1.0,-68.31489554,1.61053031
5ec454e23d68ea32ee554d12,6,0,2024-02-28T14:29:41.850Z,english_669.wav,0,peel,2896,38,4,5,Français,f,11,1.09391667,-65.69487781,0.28856802
5ec454e23d68ea32ee554d12,7,0,2024-02-28T14:29:41.850Z,english_840.wav,0,pill,1072,38,4,5,Français,f,0,0.0,26.56026625,0.58802825
5ec454e23d68ea32ee554d12,7,0,2024-02-28T14:29:41.850Z,english_840.wav,0,pill,1072,38,4,5,Français,f,1,0.1,-45.76742425,0.34012551
5ec454e23d68ea32ee554d12,7,0,2024-02-28T14:29:41.850Z,english_840.wav,0,pill,1072,38,4,5,Français,f,2,0.2,58.26038182,1.59409568
5ec454e23d68ea32ee554d12,7,0,2024-02-28T14:29:41.850Z,english_840.wav,0,pill,1072,38,4,5,Français,f,3,0.3,-41.91368618,1.45145116
5ec454e23d68ea32ee554d12,7,0,2024-02-28T14:29:41.850Z,english_840.wav,0,pill,1072,38,4,5,Français,f,4,0.4,51.82879955,1.12346348
5ec454e23d68ea32ee554d12,7,0,2024-02-28T14:29:41.850Z,english_840.wav,0,pill,1072,38,4,5,Français,f,5,0.5,-58.1814991,0.72614378
5ec454e23d68ea32ee554d12,7,0,2024-02-28T14:29:41.850Z,english_840.wav,0,pill,1072,38,4,5,Français,f,6,0.6,-6.21480863,0.0561304
5ec454e23d68ea32ee554d12,7,0,2024-02-28T14:29:41.850Z,english_840.wav,0,pill,1072,38,4,5,Français,f,7,0.7,-38.35463557,1.05027211
5ec454e23d68ea32ee554d12,7,0,2024-02-28T14:29:41.850Z,english_840.wav,0,pill,1072,38,4,5,Français,f,8,0.8,62.53471627,0.63772174
5ec454e23d68ea32ee554d12,7,0,2024-02-28T14:29:41.850Z,english_840.wav,0,pill,1072,38,4,5,Français,f,9,0.9,-5.88618506,0.79180252
5ec454e23d68ea32ee554d12,7,0,2024-02-28T14:29:41.850Z,english_840.wav,0,pill,1072,38,4,5,Français,f,10,1.0,-22.96620486,0.08952915
5ec454e23d68ea32ee554d12,7,0,2024-02-28T14:29:41.850Z,english_840.wav,0,pill,1072,38,4,5,Français,f,11,1.09391667,38.90401131,0.46969462
5ec454e23d68ea32ee554d12,8,0,2024-02-28T14:29:41.850Z,english_531.wav,0,pill,832,38,4,5,Français,f,0,0.0,64.01741769,1.51547649
5ec454e23d68ea32ee554d12,8,0,2024-02-28T14:29:41.850Z,english_531.wav,0,pill,832,38,4,5,Français,f,1,0.1,26.7868786,1.88187252
5ec454e23d68ea32ee554d12,8,0,2024-02-28T14:29:41.850Z,english_531.wav,0,pill,832,38,4,5,Français,f,2,0.2,-11.61455466,1.96684575
5ec454e23d68ea32ee554d12,8,0,2024-02-28T14:29:41.850Z,english_531.wav,0,pill,832,38,4,5,Français,f,3,0.3,5.98277112,0.79325927
5ec454e23d68ea32ee554d12,8,0,2024-02-28T14:29:41.850Z,english_531.wav,0,pill,832,38,4,5,Français,f,4,0.4,-58.29733436,0.88962117
5ec454e23d68ea32ee554d12,8,0,2024-02-28T14:29:41.850Z,english_531.wav,0,pill,832,38,4,5,Français,f,5,0.5,-28.52423669,0.54211356
5ec454e23d68ea32ee554d12,8,0,2024-02-28T14:29:41.850Z,english_531.wav,0,pill,832,38,4,5,Français,f,6,0.6,-20.08515402,0.71772169
5ec454e23d68ea32ee554d12,8,0,2024-02-28T14:29:41.850Z,english_531.wav,0,pill,832,38,4,5,Français,f,7,0.7,56.89013176,1.30220499
5ec454e23d68ea32ee554d12,8,0,2024-02-28T14:29:41.850Z,english_531.wav,0,pill,832,38,4,5,Français,f,8,0.8,-1.76253667,0.81496958
5ec454e23d68ea32ee554d12,8,0,2024-02-28T14:29:41.850Z,english_531.wav,0,pill,832,38,4,5,Français,f,9,0.9,17.11874088,0.64316233
5ec454e23d68ea32ee554d12,8,0,2024-02-28T14:29:41.850Z,english_531.wav,0,pill,832,38,4,5,Français,f,10,1.0,-69.92464743,0.7734262
5ec454e23d68ea32ee554d12,8,0,2024-02-28T14:29:41.850Z,english_531.wav,0,pill,832,38,4,5,Français,f,11,1.09391667,16.89803128,0.24670156
5ec454e23d68ea32ee554d12,9,0,2024-02-28T14:29:41.850Z,english_294.wav,0,peel,1940,38,4,5,Français,f,0,0.0,-35.26170476,0.76895084
5ec454e23d68ea32ee554d12,9,0,2024-02-28T14:29:41.850Z,english_294.wav,0,peel,1940,38,4,5,Français,f,1,0.1,-68.79847515,0.42345848
5ec454e23d68ea32ee554d12,9,0,2024-02-28T14:29:41.850Z,english_294.wav,0,peel,1940,38,4,5,Français,f,2,0.2,21.65443345,1.88759315
5ec454e23d68ea32ee554d12,9,0,2024-02-28T14:29:41.850Z,english_294.wav,0,peel,1940,38,4,5,Français,f,3,0.3,18.61336719,0.20743541
5ec454e23d68ea32ee554d12,9,0,2024-02-28T14:29:41.850Z,english_294.wav,0,peel,1940,38,4,5,Français,f,4,0.4,29.14118392,0.10193981
5ec454e23d68ea32ee554d12,9,0,2024-02-28T14:29:41.850Z,english_294.wav,0,peel,1940,38,4,5,Français,f,5,0.5,-0.79474297,0.31438326
5ec454e23d68ea32ee554d12,9,0,2024-02-28T14:29:41.850Z,english_294.wav,0,peel,1940,38,4,5,Français,f,6,0.6,-83.10715175,1.2995954
5ec454e23d68ea32ee554d12,9,0,2024-02-28T14:29:41.850Z,english_294.wav,0,peel,1940,38,4,5,Français,f,7,0.7,-22.63410673,1.94703728
5ec454e23d68ea32ee554d12,9,0,2024-02-28T14:29:41.850Z,english_294.wav,0,peel,1940,38,4,5,Français,f,8,0.8,-21.26415856,0.92366458
5ec454e23d68ea32ee554d12,9,0,2024-02-28T14:29:41.850Z,english_294.wav,0,peel,1940,38,4,5,Français,f,9,0.9,47.90727918,1.04223302
5ec454e23d68ea32ee554d12,9,0,2024-02-28T14:29:41.850Z,english_294.wav,0,peel,1940,38,4,5,Français,f,10,1.0,-39.88232682,1.01801331
5ec454e23d68ea32ee554d12,9,0,2024-02-28T14:29:41.850Z,english_294.wav,0,peel,1940,38,4,5,Français,f,11,1.09391667,-74.09279353,0.911147
5ec454e23d68ea32ee554d12,10,0,2024-02-28T14:29:41.850Z,english_754.wav,0,pill,928,38,4,5,Français,f,0,0.0,-64.18066608,1.31756219
5ec454e23d68ea32ee554d12,10,0,2024-02-28T14:29:41.850Z,english_754.wav,0,pill,928,38,4,5,Français,f,1,0.1,-98.7453181,0.6775935
5ec454e23d68ea32ee554d12,10,0,2024-02-28T14:29:41.850Z,english_754.wav,0,pill,928,38,4,5,Français,f,2,0.2,-52.29987626,0.44453287
5ec454e23d68ea32ee554d12,10,0,2024-02-28T14:29:41.850Z,english_754.wav,0,pill,928,38,4,5,Français,f,3,0.3,-91.6870734,0.79930959
5ec454e23d68ea32ee554d12,10,0,2024-02-28T14:29:41.850Z,english_754.wav,0,pill,928,38,4,5,Français,f,4,0.4,-99.93480519,0.36385227
5ec454e23d68ea32ee554d12,10,0,2024-02-28T14:29:41.850Z,english_754.wav,0,pill,928,38,4,5,Français,f,5,0.5,-2.56117899,1.60724529
5ec454e23d68ea32ee554d12,10,0,2024-02-28T14:29:41.850Z,english_754.wav,0,pill,928,38,4,5,Français,f,6,0.6,-58.25705586,1.54119087
5ec454e23d68ea32ee554d12,10,0,2024-02-28T14:29:41.850Z,english_754.wav,0,pill,928,38,4,5,Français,f,7,0.7,-50.59283721,0.4128908
5ec454e23d68ea32ee554d12,10,0,2024-02-28T14:29:41.850Z,english_754.wav,0,pill,928,38,4,5,Français,f,8,0.8,-3.4865488,0.89168042
5ec454e23d68ea32ee554d12,10,0,2024-02-28T14:29:41.850Z,english_754.wav,0,pill,928,38,4,5,Français,f,9,0.9,11.81028617,0.16017021
5ec454e23d68ea32ee554d12,10,0,2024-02-28T14:29:41.850Z,english_754.wav,0,pill,928,38,4,5,Français,f,10,1.0,27.46545009,1.03192762
5ec454e23d68ea32ee554d12,10,0,2024-02-28T14:29:41.850Z,english_754.wav,0,pill,928,38,4,5,Français,f,11,1.09391667,8.3161915,0.24632806
5ec454e23d68ea32ee554d12,11,0,2024-02-28T14:29:41.850Z,english_178.wav,0,peel,467,38,4,5,Français,f,0,0.0,5.42478923,1.01011156
5ec454e23d68ea32ee554d12,11,0,2024-02-28T14:29:41.850Z,english_178.wav,0,peel,467,38,4,5,Français,f,1,0.1,66.71711881,1.60637441
5ec454e23d68ea32ee554d12,11,0,2024-02-28T14:29:41.850Z,english_178.wav,0,peel,467,38,4,5,Français,f,2,0.2,25.13944125,0.85795496
5ec454e23d68ea32ee554d12,11,0,2024-02-28T14:29:41.850Z,english_178.wav,0,peel,467,38,4,5,Français,f,3,0.3,95.56005782,1.35214977
5ec454e23d68ea32ee554d12,11,0,2024-02-28T14:29:41.850Z,english_178.wav,0,peel,467,38,4,5,Français,f,4,0.4,16.85207382,0.61247399
5ec454e23d68ea32ee554d12,11,0,2024-02-28T14:29:41.850Z,english_178.wav,0,peel,467,38,4,5,Français,f,5,0.5,-27.28270002,1.45555962
5ec454e23d68ea32ee554d12,11,0,2024-02-28T14:29:41.850Z,english_178.wav,0,peel,467,38,4,5,Français,f,6,0.6,86.24132907,0.34817024
5ec454e23d68ea32ee554d12,11,0,2024-02-28T14:29:41.850Z,english_178.wav,0,peel,467,38,4,5,Français,f,7,0.7,-67.08119727,0.78995697
5ec454e23d68ea32ee554d12,11,0,2024-02-28T14:29:41.850Z,english_178.wav,0,peel,467,38,4,5,Français,f,8,0.8,-0.81610081,1.09427424
5ec454e23d68ea32ee554d12,11,0,2024-02-28T14:29:41.850Z,english_178.wav,0,peel,467,38,4,5,Français,f,9,0.9,-32.08256077,1.32224293
5ec454e23d68ea32ee554d12,11,0,2024-02-28T14:29:41.850Z,english_178.wav,0,peel,467,38,4,5,Français,f,10,1.0,33.26765995,1.53013904
5ec454e23d68ea32ee554d12,11,0,2024-02-28T14:29:41.850Z,english_178.wav,0,peel,467,38,4,5,Français,f,11,1.09391667,50.15163679,1.40313699
5ec454e23d68ea32ee554d12,12,0,2024-02-28T14:29:41.850Z,english_166.wav,0,peel,408,38,4,5,Français,f,0,0.0,-22.47224396,0.79935629
5ec454e23d68ea32ee554d12,12,0,2024-02-28T14:29:41.850Z,english_166.wav,0,peel,408,38,4,5,Français,f,1,0.1,8.34418228,1.08766258
5ec454e23d68ea32ee554d12,12,0,2024-02-28T14:29:41.850Z,english_166.wav,0,peel,408,38,4,5,Français,f,2,0.2,-26.80375044,0.88793969
5ec454e23d68ea32ee554d12,12,0,2024-02-28T14:29:41.850Z,english_166.wav,0,peel,408,38,4,5,Français,f,3,0.3,-25.22426401,1.85581966
5ec454e23d68ea32ee554d12,12,0,2024-02-28T14:29:41.850Z,english_166.wav,0,peel,408,38,4,5,Français,f,4,0.4,-44.17860095,1.74261815
5ec454e23d68ea32ee554d12,12,0,2024-02-28T14:29:41.850Z,english_166.wav,0,peel,408,38,4,5,Français,f,5,0.5,-7.8395137,0.67828824
5ec454e23d68ea32ee554d12,12,0,2024-02-28T14:29:41.850Z,english_166.wav,0,peel,408,38,4,5,Français,f,6,0.6,42.03338864,0.30993225
5ec454e23d68ea32ee554d12,12,0,2024-02-28T14:29:41.850Z,english_166.wav,0,peel,408,38,4,5,Français,f,7,0.7,50.48936268,1.83209491
5ec454e23d68ea32ee554d12,12,0,2024-02-28T14:29:41.850Z,english_166.wav,0,peel,408,38,4,5,Français,f,8,0.8,-79.33283531,1.96795539
5ec454e23d68ea32ee554d12,12,0,2024-02-28T14:29:41.850Z,english_166.wav,0,peel,408,38,4,5,Français,f,9,0.9,57.67304972,0.73278394
5ec454e23d68ea32ee554d12,12,0,2024-02-28T14:29:41.850Z,english_166.wav,0,peel,408,38,4,5,Français,f,10,1.0,75.92662412,1.69577801
5ec454e23d68ea32ee554d12,12,0,2024-02-28T14:29:41.850Z,english_166.wav,0,peel,408,38,4,5,Français,f,11,1.09391667,-5.06556073,0.31756742
5ec454e23d68ea32ee554d12,13,0,2024-02-28T14:29:41.850Z,english_466.wav,0,pill,507,38,4,5,Français,f,0,0.0,29.78122055,0.08614047
5ec454e23d68ea32ee554d12,13,0,2024-02-28T14:29:41.850Z,english_466.wav,0,pill,507,38,4,5,Français,f,1,0.1,1.00212309,0.60651355
5ec454e23d68ea32ee554d12,13,0,2024-02-28T14:29:41.850Z,english_466.wav,0,pill,507,38,4,5,Français,f,2,0.2,84.88341441,0.95660543
5ec454e23d68ea32ee554d12,13,0,2024-02-28T14:29:41.850Z,english_466.wav,0,pill,507,38,4,5,Français,f,3,0.3,18.0671926,0.08485907
5ec454e23d68ea32ee554d12,13,0,2024-02-28T14:29:41.850Z,english_466.wav,0,pill,507,38,4,5,Français,f,4,0.4,-63.20091068,0.78105645
5ec454e23d68ea32ee554d12,13,0,2024-02-28T14:29:41.850Z,english_466.wav,0,pill,507,38,4,5,Français,f,5,0.5,-1.15346207,0.10730209
5ec454e23d68ea32ee554d12,13,0,2024-02-28T14:29:41.850Z,english_466.wav,0,pill,507,38,4,5,Français,f,6,0.6,-1.70645236,1.7980607
5ec454e23d68ea32ee554d12,13,0,2024-02-28T14:29:41.850Z,english_466.wav,0,pill,507,38,4,5,Français,f,7,0.7,37.24590025,1.48241485
5ec454e23d68ea32ee554d12,13,0,2024-02-28T14:29:41.850Z,english_466.wav,0,pill,507,38,4,5,Français,f,8,0.8,-40.92862731,0.1626415
5ec454e23d68ea32ee554d12,13,0,2024-02-28T14:29:41.850Z,english_466.wav,0,pill,507,38,4,5,Français,f,9,0.9,-58.08317272,1.43527927
5ec454e23d68ea32ee554d12,13,0,2024-02-28T14:29:41.850Z,english_466.wav,0,pill,507,38,4,5,Français,f,10,1.0,-59.75718078,0.97707475
5ec454e23d68ea32ee554d12,13,0,2024-02-28T14:29:41.850Z,english_466.wav,0,pill,507,38,4,5,Français,f,11,1.09391667,13.82760032,1.6467926
5ec454e23d68ea32ee554d12,14,0,2024-02-28T14:29:41.850Z,english_584.wav,0,pill,546,38,4,5,Français,f,0,0.0,50.7358721,1.24615014
5ec454e23d68ea32ee554d12,14,0,2024-02-28T14:29:41.850Z,english_584.wav,0,pill,546,38,4,5,Français,f,1,0.1,-37.41238679,1.8454839
5ec454e23d68ea32ee554d12,14,0,2024-02-28T14:29:41.850Z,english_584.wav,0,pill,546,38,4,5,Français,f,2,0.2,-21.91541438,1.76277899
5ec454e23d68ea32ee554d12,14,0,2024-02-28T14:29:41.850Z,english_584.wav,0,pill,546,38,4,5,Français,f,3,0.3,67.49251718,0.88473448
5ec454e23d68ea32ee554d12,14,0,2024-02-28T14:29:41.850Z,english_584.wav,0,pill,546,38,4,5,Français,f,4,0.4,36.0609863,0.58271182
5ec454e23d68ea32ee554d12,14,0,2024-02-28T14:29:41.850Z,english_584.wav,0,pill,546,38,4,5,Français,f,5,0.5,29.68399092,1.46602634
5ec454e23d68ea32ee554d12,14,0,2024-02-28T14:29:41.850Z,english_584.wav,0,pill,546,38,4,5,Français,f,6,0.6,69.24169566,1.79468998
5ec454e23d68ea32ee554d12,14,0,2024-02-28T14:29:41.850Z,english_584.wav,0,pill,546,38,4,5,Français,f,7,0.7,2.10305954,1.56143928
5ec454e23d68ea32ee554d12,14,0,2024-02-28T14:29:41.850Z,english_584.wav,0,pill,546,38,4,5,Français,f,8,0.8,23.93501401,0.46568097
5ec454e23d68ea32ee554d12,14,0,2024-02-28T14:29:41.850Z,english_584.wav,0,pill,546,38,4,5,Français,f,9,0.9,-17.64282744,0.5808441
5ec454e23d68ea32ee554d12,14,0,2024-02-28T14:29:41.850Z,english_584.wav,0,pill,546,38,4,5,Français,f,10,1.0,80.89116082,1.80196263
5ec454e23d68ea32ee554d12,14,0,2024-02-28T14:29:41.850Z,english_584.wav,0,pill,546,38,4,5,Français,f,11,1.09391667,-10.99932322,1.58954467
5ec454e23d68ea32ee554d12,15,0,2024-02-28T14:29:41.850Z,english_484.wav,0,peel,608,38,4,5,Français,f,0,0.0,2.0569585,0.34651955
5ec454e23d68ea32ee554d12,15,0,2024-02-28T14:29:41.850Z,english_484.wav,0,peel,608,38,4,5,Français,f,1,0.1,-79.1484241,1.84776357
5ec454e23d68ea32ee554d12,15,0,2024-02-28T14:29:41.850Z,english_484.wav,0,peel,608,38,4,5,Français,f,2,0.2,30.9033229,1.82203066
5ec454e23d68ea32ee554d12,15,0,2024-02-28T14:29:41.850Z,english_484.wav,0,peel,608,38,4,5,Français,f,3,0.3,12.05929197,1.56778111
5ec454e23d68ea32ee554d12,15,0,2024-02-28T14:29:41.850Z,english_484.wav,0,peel,608,38,4,5,Français,f,4,0.4,-72.8204973,1.22252397
5ec454e23d68ea32ee554d12,15,0,2024-02-28T14:29:41.850Z,english_484.wav,0,peel,608,38,4,5,Français,f,5,0.5,-89.96387514,1.78789861
5ec454e23d68ea32ee554d12,15,0,2024-02-28T14:29:41.850Z,english_484.wav,0,peel,608,38,4,5,Français,f,6,0.6,-22.94210609,0.02218534
5ec454e23d68ea32ee554d12,15,0,2024-02-28T14:29:41.850Z,english_484.wav,0,peel,608,38,4,5,Français,f,7,0.7,17.91925192,1.7744569
5ec454e23d68ea32ee554d12,15,0,2024-02-28T14:29:41.850Z,english_484.wav,0,peel,608,38,4,5,Français,f,8,0.8,-62.01555508,1.27917124
5ec454e23d68ea32ee554d12,15,0,2024-02-28T14:29:41.850Z,english_484.wav,0,peel,608,38,4,5,Français,f,9,0.9,-43.27412131,1.76665807
5ec454e23d68ea32ee554d12,15,0,2024-02-28T14:29:41.850Z,english_484.wav,0,peel,608,38,4,5,Français,f,10,1.0,0.91553281,1.1189794
5ec454e23d68ea32ee554d12,15,0,2024-02-28T14:29:41.850Z,english_484.wav,0,peel,608,38,4,5,Français,f,11,1.09391667,-32.68645572,0.68984214
5ec454e23d68ea32ee554d12,16,0,2024-02-28T14:29:41.850Z,english_285.wav,0,peel,412,38,4,5,Français,f,0,0.0,48.62119612,1.78431697
5ec454e23d68ea32ee554d12,16,0,2024-02-28T14:29:41.850Z,english_285.wav,0,peel,412,38,4,5,Français,f,1,0.1,-77.49487419,0.21017115
5ec454e23d68ea32ee554d12,16,0,2024-02-28T14:29:41.850Z,english_285.wav,0,peel,412,38,4,5,Français,f,2,0.2,-92.74855632,0.90754364
5ec454e23d68ea32ee554d12,16,0,2024-02-28T14:29:41.850Z,english_285.wav,0,peel,412,38,4,5,Français,f,3,0.3,-5.04409868,0.79299305
5ec454e23d68ea32ee554d12,16,0,2024-02-28T14:29:41.850Z,english_285.wav,0,peel,412,38,4,5,Français,f,4,0.4,-37.04184738,0.73704045
5ec454e23d68ea32ee554d12,16,0,2024-02-28T14:29:41.850Z,english_285.wav,0,peel,412,38,4,5,Français,f,5,0.5,93.82836291,1.49438795
5ec454e23d68ea32ee554d12,16,0,2024-02-28T14:29:41.850Z,english_285.wav,0,peel,412,38,4,5,Français,f,6,0.6,46.80360504,1.8666859
5ec454e23d68ea32ee554d12,16,0,2024-02-28T14:29:41.850Z,english_285.wav,0,peel,412,38,4,5,Français,f,7,0.7,99.71187558,1.28156013
5ec454e23d68ea32ee554d12,16,0,2024-02-28T14:29:41.850Z,english_285.wav,0,peel,412,38,4,5,Français,f,8,0.8,70.29725425,0.27278766
5ec454e23d68ea32ee554d12,16,0,2024-02-28T14:29:41.850Z,english_285.wav,0,peel,412,38,4,5,Français,f,9,0.9,2.68384344,1.64624
5ec454e23d68ea32ee554d12,16,0,2024-02-28T14:29:41.850Z,english_285.wav,0,peel,412,38,4,5,Français,f,10,1.0,33.86757162,0.38779205
5ec454e23d68ea32ee554d12,16,0,2024-02-28T14:29:41.850Z,english_285.wav,0,peel,412,38,4,5,Français,f,11,1.09391667,28.22402765,0.9971565
5ec454e23d68ea32ee554d12,17,0,2024-02-28T14:29:41.850Z,english_508.wav,0,peel,930,38,4,5,Français,f,0,0.0,29.95487344,1.28947786
5ec454e23d68ea32ee554d12,17,0,2024-02-28T14:29:41.850Z,english_508.wav,0,peel,930,38,4,5,Français,f,1,0.1,-43.56994085,0.45872669
5ec454e23d68ea32ee554d12,17,0,2024-02-28T14:29:41.850Z,english_508.wav,0,peel,930,38,4,5,Français,f,2,0.2,95.99440846,1.02864136
5ec454e23d68ea32ee554d12,17,0,2024-02-28T14:29:41.850Z,english_508.wav,0,peel,930,38,4,5,Français,f,3,0.3,96.63128694,1.38697031
5ec454e23d68ea32ee554d12,17,0,2024-02-28T14:29:41.850Z,english_508.wav,0,peel,930,38,4,5,Français,f,4,0.4,81.88240965,0.48619633
5ec454e23d68ea32ee554d12,17,0,2024-02-28T14:29:41.850Z,english_508.wav,0,peel,930,38,4,5,Français,f,5,0.5,-30.32405698,1.35316712
5ec454e23d68ea32ee554d12,17,0,2024-02-28T14:29:41.850Z,english_508.wav,0,peel,930,38,4,5,Français,f,6,0.6,-70.6760635,0.61818132
5ec454e23d68ea32ee554d12,17,0,2024-02-28T14:29:41.850Z,english_508.wav,0,peel,930,38,4,5,Français,f,7,0.7,-36.19238407,0.31535759
5ec454e23d68ea32ee554d12,17,0,2024-02-28T14:29:41.850Z,english_508.wav,0,peel,930,38,4,5,Français,f,8,0.8,18.2315003,1.60240226
5ec454e23d68ea32ee554d12,17,0,2024-02-28T14:29:41.850Z,english_508.wav,0,peel,930,38,4,5,Français,f,9,0.9,-71.56865734,1.17638413
5ec454e23d68ea32ee554d12,17,0,2024-02-28T14:29:41.850Z,english_508.wav,0,peel,930,38,4,5,Français,f,10,1.0,-72.78274833,0.8457368
5ec454e23d68ea32ee554d12,17,0,2024-02-28T14:29:41.850Z,english_508.wav,0,peel,930,38,4,5,Français,f,11,1.09391667,51.72471755,0.31851434
5ec454e23d68ea32ee554d12,18,0,2024-02-28T14:29:41.850Z,english_112.wav,0,pill,1257,38,4,5,Français,f,0,0.0,49.45259009,1.41914206
5ec454e23d68ea32ee554d12,18,0,2024-02-28T14:29:41.850Z,english_112.wav,0,pill,1257,38,4,5,Français,f,1,0.1,26.00670844,1.08420532
5ec454e23d68ea32ee554d12,18,0,2024-02-28T14:29:41.850Z,english_112.wav,0,pill,1257,38,4,5,Français,f,2,0.2,-62.78053013,1.90864959
5ec454e23d68ea32ee554d12,18,0,2024-02-28T14:29:41.850Z,english_112.wav,0,pill,1257,38,4,5,Français,f,3,0.3,13.64858628,0.00296714
5ec454e23d68ea32ee554d12,18,0,2024-02-28T14:29:41.850Z,english_112.wav,0,pill,1257,38,4,5,Français,f,4,0.4,-46.53502922,0.2257171
5ec454e23d68ea32ee554d12,18,0,2024-02-28T14:29:41.850Z,english_112.wav,0,pill,1257,38,4,5,Français,f,5,0.5,55.2952107,1.98382605
5ec454e23d68ea32ee554d12,18,0,2024-02-28T14:29:41.850Z,english_112.wav,0,pill,1257,38,4,5,Français,f,6,0.6,-37.49134954,0.39764394
5ec454e23d68ea32ee554d12,18,0,2024-02-28T14:29:41.850Z,english_112.wav,0,pill,1257,38,4,5,Français,f,7,0.7,9.25181319,1.10443659
5ec454e23d68ea32ee554d12,18,0,2024-02-28T14:29:41.850Z,english_112.wav,0,pill,1257,38,4,5,Français,f,8,0.8,52.76907871,0.52917173
5ec454e23d68ea32ee554d12,18,0,2024-02-28T14:29:41.850Z,english_112.wav,0,pill,1257,38,4,5,Français,f,9,0.9,40.19984459,0.39475588
5ec454e23d68ea32ee554d12,18,0,2024-02-28T14:29:41.850Z,english_112.wav,0,pill,1257,38,4,5,Français,f,10,1.0,72.4009261,0.72882938
5ec454e23d68ea32ee554d12,18,0,2024-02-28T14:29:41.850Z,english_112.wav,0,pill,1257,38,4,5,Français,f,11,1.09391667,-65.62688247,0.87807842
5ec454e23d68ea32ee554d12,19,0,2024-02-28T14:29:41.850Z,english_514.wav,0,pill,1344,38,4,5,Français,f,0,0.0,-59.82766829,1.35471226
5ec454e23d68ea32ee554d12,19,0,2024-02-28T14:29:41.850Z,english_514.wav,0,pill,1344,38,4,5,Français,f,1,0.1,-4.54284015,0.81191054
5ec454e23d68ea32ee554d12,19,0,2024-02-28T14:29:41.850Z,english_514.wav,0,pill,1344,38,4,5,Français,f,2,0.2,75.12688257,1.30120799
5ec454e23d68ea32ee554d12,19,0,2024-02-28T14:29:41.850Z,english_514.wav,0,pill,1344,38,4,5,Français,f,3,0.3,52.77263543,1.91982738
5ec454e23d68ea32ee554d12,19,0,2024-02-28T14:29:41.850Z,english_514.wav,0,pill,1344,38,4,5,Français,f,4,0.4,-86.38859223,1.85775535
5ec454e23d68ea32ee554d12,19,0,2024-02-28T14:29:41.850Z,english_514.wav,0,pill,1344,38,4,5,Français,f,5,0.5,22.0573972,0.92799532
5ec454e23d68ea32ee554d12,19,0,2024-02-28T14:29:41.850Z,english_514.wav,0,pill,1344,38,4,5,Français,f,6,0.6,-81.94223644,0.39882237
5ec454e23d68ea32ee554d12,19,0,2024-02-28T14:29:41.850Z,english_514.wav,0,pill,1344,38,4,5,Français,f,7,0.7,33.46090425,1.85696096
5ec454e23d68ea32ee554d12,19,0,2024-02-28T14:29:41.850Z,english_514.wav,0,pill,1344,38,4,5,Français,f,8,0.8,10.59703074,0.26578536
5ec454e23d68ea32ee554d12,19,0,2024-02-28T14:29:41.850Z,english_514.wav,0,pill,1344,38,4,5,Français,f,9,0.9,74.40481447,1.80594265
5ec454e23d68ea32ee554d12,19,0,2024-02-28T14:29:41.850Z,english_514.wav,0,pill,1344,38,4,5,Français,f,10,1.0,35.18551728,0.66929464
5ec454e23d68ea32ee554d12,19,0,2024-02-28T14:29:41.850Z,english_514.wav,0,pill,1344,38,4,5,Français,f,11,1.09391667,-52.88743611,1.62933111
5ec454e23d68ea32ee554d12,20,0,2024-02-28T14:29:41.850Z,english_409.wav,0,pill,1211,38,4,5,Français,f,0,0.0,-79.1757247,0.87513374
5ec454e23d68ea32ee554d12,20,0,2024-02-28T14:29:41.850Z,english_409.wav,0,pill,1211,38,4,5,Français,f,1,0.1,-82.91562438,0.12656435
5ec454e23d68ea32ee554d12,20,0,2024-02-28T14:29:41.850Z,english_409.wav,0,pill,1211,38,4,5,Français,f,2,0.2,91.50346008,0.63589246
5ec454e23d68ea32ee554d12,20,0,2024-02-28T14:29:41.850Z,english_409.wav,0,pill,1211,38,4,5,Français,f,3,0.3,-40.10375406,1.28419635
5ec454e23d68ea32ee554d12,20,0,2024-02-28T14:29:41.850Z,english_409.wav,0,pill,1211,38,4,5,Français,f,4,0.4,90.70869954,0.88499041
5ec454e23d68ea32ee554d12,20,0,2024-02-28T14:29:41.850Z,english_409.wav,0,pill,1211,38,4,5,Français,f,5,0.5,-20.97681685,1.10973129
5ec454e23d68ea32ee554d12,20,0,2024-02-28T14:29:41.850Z,english_409.wav,0,pill,1211,38,4,5,Français,f,6,0.6,17.21215857,0.84354096
5ec454e23d68ea32ee554d12,20,0,2024-02-28T14:29:41.850Z,english_409.wav,0,pill,1211,38,4,5,Français,f,7,0.7,-53.91144795,1.20925869
5ec454e23d68ea32ee554d12,20,0,2024-02-28T14:29:41.850Z,english_409.wav,0,pill,1211,38,4,5,Français,f,8,0.8,37.0057153,0.06654022
5ec454e23d68ea32ee554d12,20,0,2024-02-28T14:29:41.850Z,english_409.wav,0,pill,1211,38,4,5,Français,f,9,0.9,34.22730219,1.12491035
5ec454e23d68ea32ee554d12,20,0,2024-02-28T14:29:41.850Z,english_409.wav,0,pill,1211,38,4,5,Français,f,10,1.0,10.55146488,1.41050889
5ec454e23d68ea32ee554d12,20,0,2024-02-28T14:29:41.850Z,english_409.wav,0,pill,1211,38,4,5,Français,f,11,1.09391667,-24.71915283,1.38366211
5ec454e23d68ea32ee554d12,21,0,2024-02-28T14:29:41.850Z,english_552.wav,0,peel,735,38,4,5,Français,f,0,0.0,24.23901763,1.612105
5ec454e23d68ea32ee554d12,21,0,2024-02-28T14:29:41.850Z,english_552.wav,0,peel,735,38,4,5,Français,f,1,0.1,-68.29569332,0.23755281
5ec454e23d68ea32ee554d12,21,0,2024-02-28T14:29:41.850Z,english_552.wav,0,peel,735,38,4,5,Français,f,2,0.2,-76.60440788,1.12644766
5ec454e23d68ea32ee554d12,21,0,2024-02-28T14:29:41.850Z,english_552.wav,0,peel,735,38,4,5,Français,f,3,0.3,-14.28309722,1.6498911
5ec454e23d68ea32ee554d12,21,0,2024-02-28T14:29:41.850Z,english_552.wav,0,peel,735,38,4,5,Français,f,4,0.4,7.45259631,1.62705162
5ec454e23d68ea32ee554d12,21,0,2024-02-28T14:29:41.850Z,english_552.wav,0,peel,735,38,4,5,Français,f,5,0.5,-96.79412631,0.02108582
5ec454e23d68ea32ee554d12,21,0,2024-02-28T14:29:41.850Z,english_552.wav,0,peel,735,38,4,5,Français,f,6,0.6,19.00121721,0.46250888
5ec454e23d68ea32ee554d12,21,0,2024-02-28T14:29:41.850Z,english_552.wav,0,peel,735,38,4,5,Français,f,7,0.7,28.47093687,0.61388361
5ec454e23d68ea32ee554d12,21,0,2024-02-28T14:29:41.850Z,english_552.wav,0,peel,735,38,4,5,Français,f,8,0.8,-28.36467118,1.42538322
5ec454e23d68ea32ee554d12,21,0,2024-02-28T14:29:41.850Z,english_552.wav,0,peel,735,38,4,5,Français,f,9,0.9,27.37810517,1.50029895
5ec454e23d68ea32ee554d12,21,0,2024-02-28T14:29:41.850Z,english_552.wav,0,peel,735,38,4,5,Français,f,10,1.0,-1.36668835,0.7956711
5ec454e23d68ea32ee554d12,21,0,2024-02-28T14:29:41.850Z,english_552.wav,0,peel,735,38,4,5,Français,f,11,1.09391667,-10.50305513,0.62245048
5ec454e23d68ea32ee554d12,22,0,2024-02-28T14:29:41.850Z,english_832.wav,0,peel,1009,38,4,5,Français,f,0,0.0,-88.58549248,0.22284511
5ec454e23d68ea32ee554d12,22,0,2024-02-28T14:29:41.850Z,english_832.wav,0,peel,1009,38,4,5,Français,f,1,0.1,8.34347478,1.43554353
5ec454e23d68ea32ee554d12,22,0,2024-02-28T14:29:41.850Z,english_832.wav,0,peel,1009,38,4,5,Français,f,2,0.2,-33.69240403,1.25168829
5ec454e23d68ea32ee554d12,22,0,2024-02-28T14:29:41.850Z,english_832.wav,0,peel,1009,38,4,5,Français,f,3,0.3,-38.19874018,1.76549117
5ec454e23d68ea32ee554d12,22,0,2024-02-28T14:29:41.850Z,english_832.wav,0,peel,1009,38,4,5,Français,f,4,0.4,69.91001741,0.48241117
5ec454e23d68ea32ee554d12,22,0,2024-02-28T14:29:41.850Z,english_832.wav,0,peel,1009,38,4,5,Français,f,5,0.5,76.9560892,1.98484056
5ec454e23d68ea32ee554d12,22,0,2024-02-28T14:29:41.850Z,english_832.wav,0,peel,1009,38,4,5,Français,f,6,0.6,32.91071569,0.38621033
5ec454e23d68ea32ee554d12,22,0,2024-02-28T14:29:41.850Z,english_832.wav,0,peel,1009,38,4,5,Français,f,7,0.7,-13.39927827,0.77915885
5ec454e23d68ea32ee554d12,22,0,2024-02-28T14:29:41.850Z,english_832.wav,0,peel,1009,38,4,5,Français,f,8,0.8,44.52631215,0.49939301
5ec454e23d68ea32ee554d12,22,0,2024-02-28T14:29:41.850Z,english_832.wav,0,peel,1009,38,4,5,Français,f,9,0.9,45.29069076,1.70508711
5ec454e23d68ea32ee554d12,22,0,2024-02-28T14:29:41.850Z,english_832.wav,0,peel,1009,38,4,5,Français,f,10,1.0,-68.4923338,1.07362721
5ec454e23d68ea32ee554d12,22,0,2024-02-28T14:29:41.850Z,english_832.wav,0,peel,1009,38,4,5,Français,f,11,1.09391667,-25.64660407,1.64737721
5ec454e23d68ea32ee554d12,23,0,2024-02-28T14:29:41.850Z,english_259.wav,0,pill,656,38,4,5,Français,f,0,0.0,-96.45723027,1.20447661
5ec454e23d68ea32ee554d12,23,0,2024-02-28T14:29:41.850Z,english_259.wav,0,pill,656,38,4,5,Français,f,1,0.1,46.81898893,1.98089962
5ec454e23d68ea32ee554d12,23,0,2024-02-28T14:29:41.850Z,english_259.wav,0,pill,656,38,4,5,Français,f,2,0.2,-52.24123134,0.13419359
5ec454e23d68ea32ee554d12,23,0,2024-02-28T14:29:41.850Z,english_259.wav,0,pill,656,38,4,5,Français,f,3,0.3,-93.20482306,0.77341906
5ec454e23d68ea32ee554d12,23,0,2024-02-28T14:29:41.850Z,english_259.wav,0,pill,656,38,4,5,Français,f,4,0.4,-73.17016095,0.41314705
5ec454e23d68ea32ee554d12,23,0,2024-02-28T14:29:41.850Z,english_259.wav,0,pill,656,38,4,5,Français,f,5,0.5,65.38390332,1.70927399
5ec454e23d68ea32ee554d12,23,0,2024-02-28T14:29:41.850Z,english_259.wav,0,pill,656,38,4,5,Français,f,6,0.6,-74.48910715,0.82975987
5ec454e23d68ea32ee554d12,23,0,2024-02-28T14:29:41.850Z,english_259.wav,0,pill,656,38,4,5,Français,f,7,0.7,18.35767077,1.00284167
5ec454e23d68ea32ee554d12,23,0,2024-02-28T14:29:41.850Z,english_259.wav,0,pill,656,38,4,5,Français,f,8,0.8,-83.13603565,0.65136174
5ec454e23d68ea32ee554d12,23,0,2024-02-28T14:29:41.850Z,english_259.wav,0,pill,656,38,4,5,Français,f,9,0.9,-60.914408,1.08902536
5ec454e23d68ea32ee554d12,23,0,2024-02-28T14:29:41.850Z,english_259.wav,0,pill,656,38,4,5,Français,f,10,1.0,13.76318207,0.29016251
5ec454e23d68ea32ee554d12,23,0,2024-02-28T14:29:41.850Z,english_259.wav,0,pill,656,38,4,5,Français,f,11,1.09391667,-74.06068615,0.25284804
5ec454e23d68ea32ee554d12,24,0,2024-02-28T14:29:41.850Z,english_57.wav,0,peel,512,38,4,5,Français,f,0,0.0,69.92924321,1.37399784
5ec454e23d68ea32ee554d12,24,0,2024-02-28T14:29:41.850Z,english_57.wav,0,peel,512,38,4,5,Français,f,1,0.1,50.83595835,1.30125162
5ec454e23d68ea32ee554d12,24,0,2024-02-28T14:29:41.850Z,english_57.wav,0,peel,512,38,4,5,Français,f,2,0.2,72.89041726,0.76532722
5ec454e23d68ea32ee554d12,24,0,2024-02-28T14:29:41.850Z,english_57.wav,0,peel,512,38,4,5,Français,f,3,0.3,-25.50577281,0.08256356
5ec454e23d68ea32ee554d12,24,0,2024-02-28T14:29:41.850Z,english_57.wav,0,peel,512,38,4,5,Français,f,4,0.4,-12.89341009,1.10396563
5ec454e23d68ea32ee554d12,24,0,2024-02-28T14:29:41.850Z,english_57.wav,0,peel,512,38,4,5,Français,f,5,0.5,-24.95937253,1.0000289
5ec454e23d68ea32ee554d12,24,0,2024-02-28T14:29:41.850Z,english_57.wav,0,peel,512,38,4,5,Français,f,6,0.6,64.68704807,0.6504756
5ec454e23d68ea32ee554d12,24,0,2024-02-28T14:29:41.850Z,english_57.wav,0,peel,512,38,4,5,Français,f,7,0.7,26.76917617,1.09615913
5ec454e23d68ea32ee554d12,24,0,2024-02-28T14:29:41.850Z,english_57.wav,0,peel,512,38,4,5,Français,f,8,0.8,-85.40894658,0.70411597
5ec454e23d68ea32ee554d12,24,0,2024-02-28T14:29:41.850Z,english_57.wav,0,peel,512,38,4,5,Français,f,9,0.9,-86.04927125,0.54802277
5ec454e23d68ea32ee554d12,24,0,2024-02-28T14:29:41.850Z,english_57.wav,0,peel,512,38,4,5,Français,f,10,1.0,86.88641586,1.43991022
5ec454e23d68ea32ee554d12,24,0,2024-02-28T14:29:41.850Z,english_57.wav,0,peel,512,38,4,5,Français,f,11,1.09391667,-99.07725694,1.41890007
5ec454e23d68ea32ee554d12,25,0,2024-02-28T14:29:41.850Z,english_605.wav,0,peel,397,38,4,5,Français,f,0,0.0,-8.49945262,0.18632105
5ec454e23d68ea32ee554d12,25,0,2024-02-28T14:29:41.850Z,english_605.wav,0,peel,397,38,4,5,Français,f,1,0.1,78.59318703,0.57386106
5ec454e23d68ea32ee554d12,25,0,2024-02-28T14:29:41.850Z,english_605.wav,0,peel,397,38,4,5,Français,f,2,0.2,5.51226276,1.08904108
5ec454e23d68ea32ee554d12,25,0,2024-02-28T14:29:41.850Z,english_605.wav,0,peel,397,38,4,5,Français,f,3,0.3,-57.71623977,1.06659478
5ec454e23d68ea32ee554d12,25,0,2024-02-28T14:29:41.850Z,english_605.wav,0,peel,397,38,4,5,Français,f,4,0.4,-16.40155513,1.07197466
5ec454e23d68ea32ee554d12,25,0,2024-02-28T14:29:41.850Z,english_605.wav,0,peel,397,38,4,5,Français,f,5,0.5,65.3464243,0.99856442
5ec454e23d68ea32ee554d12,25,0,2024-02-28T14:29:41.850Z,english_605.wav,0,peel,397,38,4,5,Français,f,6,0.6,75.43847502,1.20108487
5ec454e23d68ea32ee554d12,25,0,2024-02-28T14:29:41.850Z,english_605.wav,0,peel,397,38,4,5,Français,f,7,0.7,-23.5169708,0.82408686
5ec454e23d68ea32ee554d12,25,0,2024-02-28T14:29:41.850Z,english_605.wav,0,peel,397,38,4,5,Français,f,8,0.8,90.90480097,1.4403859
5ec454e23d68ea32ee554d12,25,0,2024-02-28T14:29:41.850Z,english_605.wav,0,peel,397,38,4,5,Français,f,9,0.9,2.3218264,1.38639998
5ec454e23d68ea32ee554d12,25,0,2024-02-28T14:29:41.850Z,english_605.wav,0,peel,397,38,4,5,Français,f,10,1.0,-54.16543883,0.92793051
5ec454e23d68ea32ee554d12,25,0,2024-02-28T14:29:41.850Z,english_605.wav,0,peel,397,38,4,5,Français,f,11,1.09391667,-30.94766284,1.95794577
5ec454e23d68ea32ee554d12,26,0,2024-02-28T14:29:41.850Z,english_480.wav,0,peel,817,38,4,5,Français,f,0,0.0,9.88794778,0.87231247
5ec454e23d68ea32ee554d12,26,0,2024-02-28T14:29:41.850Z,english_480.wav,0,peel,817,38,4,5,Français,f,1,0.1,-95.33959947,0.98456716
5ec454e23d68ea32ee554d12,26,0,2024-02-28T14:29:41.850Z,english_480.wav,0,peel,817,38,4,5,Français,f,2,0.2,-71.35423478,0.16901934
5ec454e23d68ea32ee554d12,26,0,2024-02-28T14:29:41.850Z,english_480.wav,0,peel,817,38,4,5,Français,f,3,0.3,-83.02465504,0.73359769
5ec454e23d68ea32ee554d12,26,0,2024-02-28T14:29:41.850Z,english_480.wav,0,peel,817,38,4,5,Français,f,4,0.4,44.94534434,1.77352581
5ec454e23d68ea32ee554d12,26,0,2024-02-28T14:29:41.850Z,english_480.wav,0,peel,817,38,4,5,Français,f,5,0.5,90.60802244,0.80191765
5ec454e23d68ea32ee554d12,26,0,2024-02-28T14:29:41.850Z,english_480.wav,0,peel,817,38,4,5,Français,f,6,0.6,-21.26982867,1.98344476
5ec454e23d68ea32ee554d12,26,0,2024-02-28T14:29:41.850Z,english_480.wav,0,peel,817,38,4,5,Français,f,7,0.7,9.71569321,1.54524915
5ec454e23d68ea32ee554d12,26,0,2024-02-28T14:29:41.850Z,english_480.wav,0,peel,817,38,4,5,Français,f,8,0.8,-55.27404123,1.67546329
5ec454e23d68ea32ee554d12,26,0,2024-02-28T14:29:41.850Z,english_480.wav,0,peel,817,38,4,5,Français,f,9,0.9,-2.41346819,1.13666865
5ec454e23d68ea32ee554d12,26,0,2024-02-28T14:29:41.850Z,english_480.wav,0,peel,817,38,4,5,Français,f,10,1.0,56.20871311,1.61861075
5ec454e23d68ea32ee554d12,26,0,2024-02-28T14:29:41.850Z,english_480.wav,0,peel,817,38,4,5,Français,f,11,1.09391667,-52.83193459,1.31490021
5ec454e23d68ea32ee554d12,27,0,2024-02-28T14:29:41.850Z,english_842.wav,0,pill,542,38,4,5,Français,f,0,0.0,-81.72100022,1.05096469
5ec454e23d68ea32ee554d12,27,0,2024-02-28T14:29:41.850Z,english_842.wav,0,pill,542,38,4,5,Français,f,1,0.1,18.84637506,0.68369723
5ec454e23d68ea32ee554d12,27,0,2024-02-28T14:29:41.850Z,english_842.wav,0,pill,542,38,4,5,Français,f,2,0.2,-80.18621681,1.52749806
5ec454e23d68ea32ee554d12,27,0,2024-02-28T14:29:41.850Z,english_842.wav,0,pill,542,38,4,5,Français,f,3,0.3,38.99509662,0.81526033
5ec454e23d68ea32ee554d12,27,0,2024-02-28T14:29:41.850Z,english_842.wav,0,pill,542,38,4,5,Français,f,4,0.4,24.76840986,1.70702662
5ec454e23d68ea32ee554d12,27,0,2024-02-28T14:29:41.850Z,english_842.wav,0,pill,542,38,4,5,Français,f,5,0.5,-19.71585535,1.05576458
5ec454e23d68ea32ee554d12,27,0,2024-02-28T14:29:41.850Z,english_842.wav,0,pill,542,38,4,5,Français,f,6,0.6,69.03077802,0.15620837
5ec454e23d68ea32ee554d12,27,0,2024-02-28T14:29:41.850Z,english_842.wav,0,pill,542,38,4,5,Français,f,7,0.7,35.91349986,1.43624924
5ec454e23d68ea32ee554d12,27,0,2024-02-28T14:29:41.850Z,english_842.wav,0,pill,542,38,4,5,Français,f,8,0.8,-27.17447615,0.34293919
5ec454e23d68ea32ee554d12,27,0,2024-02-28T14:29:41.850Z,english_842.wav,0,pill,542,38,4,5,Français,f,9,0.9,-26.64790606,1.32305508
5ec454e23d68ea32ee554d12,27,0,2024-02-28T14:29:41.850Z,english_842.wav,0,pill,542,38,4,5,Français,f,10,1.0,27.41987323,1.04384127
5ec454e23d68ea32ee554d12,27,0,2024-02-28T14:29:41.850Z,english_842.wav,0,pill,542,38,4,5,Français,f,11,1.09391667,30.72990316,1.55933633
5ec454e23d68ea32ee554d12,28,0,2024-02-28T14:29:41.850Z,english_395.wav,0,peel,383,38,4,5,Français,f,0,0.0,39.05735914,1.69654302
5ec454e23d68ea32ee554d12,28,0,2024-02-28T14:29:41.850Z,english_395.wav,0,peel,383,38,4,5,Français,f,1,0.1,-30.77266737,0.48886043
5ec454e23d68ea32ee554d12,28,0,2024-02-28T14:29:41.850Z,english_395.wav,0,peel,383,38,4,5,Français,f,2,0.2,-0.16224694,0.59241683
5ec454e23d68ea32ee554d12,28,0,2024-02-28T14:29:41.850Z,english_395.wav,0,peel,383,38,4,5,Français,f,3,0.3,98.26599176,1.90770156
5ec454e23d68ea32ee554d12,28,0,2024-02-28T14:29:41.850Z,english_395.wav,0,peel,383,38,4,5,Français,f,4,0.4,21.09962978,0.86143521
5ec454e23d68ea32ee554d12,28,0,2024-02-28T14:29:41.850Z,english_395.wav,0,peel,383,38,4,5,Français,f,5,0.5,26.89873822,1.51049254
5ec454e23d68ea32ee554d12,28,0,2024-02-28T14:29:41.850Z,english_395.wav,0,peel,383,38,4,5,Français,f,6,0.6,32.8700083,1.66869176
5ec454e23d68ea32ee554d12,28,0,2024-02-28T14:29:41.850Z,english_395.wav,0,peel,383,38,4,5,Français,f,7,0.7,-50.37483781,0.44723996
5ec454e23d68ea32ee554d12,28,0,2024-02-28T14:29:41.850Z,english_395.wav,0,peel,383,38,4,5,Français,f,8,0.8,-69.66232076,1.5722879
5ec454e23d68ea32ee554d12,28,0,2024-02-28T14:29:41.850Z,english_395.wav,0,peel,383,38,4,5,Français,f,9,0.9,-62.2392655,1.69268341
5ec454e23d68ea32ee554d12,28,0,2024-02-28T14:29:41.850Z,english_395.wav,0,peel,383,38,4,5,Français,f,10,1.0,-93.99204506,0.08078728
5ec454e23d68ea32ee554d12,28,0,2024-02-28T14:29:41.850Z,english_395.wav,0,peel,383,38,4,5,Français,f,11,1.09391667,46.98946298,0.81015785
5ec454e23d68ea32ee554d12,29,0,2024-02-28T14:29:41.850Z,english_49.wav,0,pill,612,38,4,5,Français,f,0,0.0,-7.77522682,0.84923144
5ec454e23d68ea32ee554d12,29,0,2024-02-28T14:29:41.850Z,english_49.wav,0,pill,612,38,4,5,Français,f,1,0.1,-69.00488143,0.33119372
5ec454e23d68ea32ee554d12,29,0,2024-02-28T14:29:41.850Z,english_49.wav,0,pill,612,38,4,5,Français,f,2,0.2,56.47558832,1.22070051
5ec454e23d68ea32ee554d12,29,0,2024-02-28T14:29:41.850Z,english_49.wav,0,pill,612,38,4,5,Français,f,3,0.3,47.73828653,0.09401361
5ec454e23d68ea32ee554d12,29,0,2024-02-28T14:29:41.850Z,english_49.wav,0,pill,612,38,4,5,Français,f,4,0.4,-58.74936134,0.13758585
5ec454e23d68ea32ee554d12,29,0,2024-02-28T14:29:41.850Z,english_49.wav,0,pill,612,38,4,5,Français,f,5,0.5,-16.00930073,1.02104263
5ec454e23d68ea32ee554d12,29,0,2024-02-28T14:29:41.850Z,english_49.wav,0,pill,612,38,4,5,Français,f,6,0.6,68.77090309,1.27727042
5ec454e23d68ea32ee554d12,29,0,2024-02-28T14:29:41.850Z,english_49.wav,0,pill,612,38,4,5,Français,f,7,0.7,47.28501738,0.65680798
5ec454e23d68ea32ee554d12,29,0,2024-02-28T14:29:41.850Z,english_49.wav,0,pill,612,38,4,5,Français,f,8,0.8,-26.83696642,1.41824482
5ec454e23d68ea32ee554d12,29,0,2024-02-28T14:29:41.850Z,english_49.wav,0,pill,612,38,4,5,Français,f,9,0.9,16.45883289,0.73136625
5ec454e23d68ea32ee554d12,29,0,2024-02-28T14:29:41.850Z,english_49.wav,0,pill,612,38,4,5,Français,f,10,1.0,-23.79769264,0.31271595
5ec454e23d68ea32ee554d12,29,0,2024-02-28T14:29:41.850Z,english_49.wav,0,pill,612,38,4,5,Français,f,11,1.09391667,62.62161118,0.15435739
5ec454e23d68ea32ee554d12,30,0,2024-02-28T14:29:41.850Z,english_73.wav,0,pill,1070,38,4,5,Français,f,0,0.0,38.52625464,1.16533306
5ec454e23d68ea32ee554d12,30,0,2024-02-28T14:29:41.850Z,english_73.wav,0,pill,1070,38,4,5,Français,f,1,0.1,17.92930882,0.44885559
5ec454e23d68ea32ee554d12,30,0,2024-02-28T14:29:41.850Z,english_73.wav,0,pill,1070,38,4,5,Français,f,2,0.2,-38.01807157,0.25634763
5ec454e23d68ea32ee554d12,30,0,2024-02-28T14:29:41.850Z,english_73.wav,0,pill,1070,38,4,5,Français,f,3,0.3,85.72989632,0.76435582
5ec454e23d68ea32ee554d12,30,0,2024-02-28T14:29:41.850Z,english_73.wav,0,pill,1070,38,4,5,Français,f,4,0.4,64.07938426,0.66279224
5ec454e23d68ea32ee554d12,30,0,2024-02-28T14:29:41.850Z,english_73.wav,0,pill,1070,38,4,5,Français,f,5,0.5,35.13086045,0.74817845
5ec454e23d68ea32ee554d12,30,0,2024-02-28T14:29:41.850Z,english_73.wav,0,pill,1070,38,4,5,Français,f,6,0.6,-51.81368524,1.61498224
5ec454e23d68ea32ee554d12,30,0,2024-02-28T14:29:41.850Z,english_73.wav,0,pill,1070,38,4,5,Français,f,7,0.7,67.25389113,0.87077327
5ec454e23d68ea32ee554d12,30,0,2024-02-28T14:29:41.850Z,english_73.wav,0,pill,1070,38,4,5,Français,f,8,0.8,-86.27446695,1.49803977
5ec454e23d68ea32ee554d12,30,0,2024-02-28T14:29:41.850Z,english_73.wav,0,pill,1070,38,4,5,Français,f,9,0.9,-27.14939681,1.76361979
5ec454e23d68ea32ee554d12,30,0,2024-02-28T14:29:41.850Z,english_73.wav,0,pill,1070,38,4,5,Français,f,10,1.0,96.8565589,0.06686871
5ec454e23d68ea32ee554d12,30,0,2024-02-28T14:29:41.850Z,english_73.wav,0,pill,1070,38,4,5,Français,f,11,1.09391667,51.55403573,1.63588343
5ec454e23d68ea32ee554d12,31,0,2024-02-28T14:29:41.850Z,english_696.wav,0,peel,845,38,4,5,Français,f,0,0.0,80.76263908,0.91509798
5ec454e23d68ea32ee554d12,31,0,2024-02-28T14:29:41.850Z,english_696.wav,0,peel,845,38,4,5,Français,f,1,0.1,-81.05122768,1.74478529
5ec454e23d68ea32ee554d12,31,0,2024-02-28T14:29:41.850Z,english_696.wav,0,peel,845,38,4,5,Français,f,2,0.2,25.61500263,0.26644886
5ec454e23d68ea32ee554d12,31,0,2024-02-28T14:29:41.850Z,english_696.wav,0,peel,845,38,4,5,Français,f,3,0.3,25.88663843,1.54651286
5ec454e23d68ea32ee554d12,31,0,2024-02-28T14:29:41.850Z,english_696.wav,0,peel,845,38,4,5,Français,f,4,0.4,-95.94910221,0.7055337
5ec454e23d68ea32ee554d12,31,0,2024-02-28T14:29:41.850Z,english_696.wav,0,peel,845,38,4,5,Français,f,5,0.5,-72.42601444,0.71467656
5ec454e23d68ea32ee554d12,31,0,2024-02-28T14:29:41.850Z,english_696.wav,0,peel,845,38,4,5,Français,f,6,0.6,24.16177071,0.57693313
5ec454e23d68ea32ee554d12,31,0,2024-02-28T14:29:41.850Z,english_696.wav,0,peel,845,38,4,5,Français,f,7,0.7,64.95279218,1.47925574
5ec454e23d68ea32ee554d12,31,0,2024-02-28T14:29:41.850Z,english_696.wav,0,peel,845,38,4,5,Français,f,8,0.8,52.94859059,0.57583693
5ec454e23d68ea32ee554d12,31,0,2024-02-28T14:29:41.850Z,english_696.wav,0,peel,845,38,4,5,Français,f,9,0.9,-62.75879423,1.82750547
5ec454e23d68ea32ee554d12,31,0,2024-02-28T14:29:41.850Z,english_696.wav,0,peel,845,38,4,5,Français,f,10,1.0,30.29085573,0.4690012
5ec454e23d68ea32ee554d12,31,0,2024-02-28T14:29:41.850Z,english_696.wav,0,peel,845,38,4,5,Français,f,11,1.09391667,95.60067697,1.32087167
5ec454e23d68ea32ee554d12,32,0,2024-02-28T14:29:41.850Z,english_38.wav,0,peel,1242,38,4,5,Français,f,0,0.0,84.84297862,0.12127835
5ec454e23d68ea32ee554d12,32,0,2024-02-28T14:29:41.850Z,english_38.wav,0,peel,1242,38,4,5,Français,f,1,0.1,-41.13766339,0.39553601
5ec454e23d68ea32ee554d12,32,0,2024-02-28T14:29:41.850Z,english_38.wav,0,peel,1242,38,4,5,Français,f,2,0.2,31.0243005,1.29400733
5ec454e23d68ea32ee554d12,32,0,2024-02-28T14:29:41.850Z,english_38.wav,0,peel,1242,38,4,5,Français,f,3,0.3,51.71643077,0.38578685
5ec454e23d68ea32ee554d12,32,0,2024-02-28T14:29:41.850Z,english_38.wav,0,peel,1242,38,4,5,Français,f,4,0.4,-15.52187673,0.67216324
5ec454e23d68ea32ee554d12,32,0,2024-02-28T14:29:41.850Z,english_38.wav,0,peel,1242,38,4,5,Français,f,5,0.5,37.47478577,0.61922356
5ec454e23d68ea32ee554d12,32,0,2024-02-28T14:29:41.850Z,english_38.wav,0,peel,1242,38,4,5,Français,f,6,0.6,27.01527087,0.0538602
5ec454e23d68ea32ee554d12,32,0,2024-02-28T14:29:41.850Z,english_38.wav,0,peel,1242,38,4,5,Français,f,7,0.7,44.60136097,0.56901487
5ec454e23d68ea32ee554d12,32,0,2024-02-28T14:29:41.850Z,english_38.wav,0,peel,1242,38,4,5,Français,f,8,0.8,-52.37417606,1.28646438
5ec454e23d68ea32ee554d12,32,0,2024-02-28T14:29:41.850Z,english_38.wav,0,peel,1242,38,4,5,Français,f,9,0.9,-48.58777174,0.80149466
5ec454e23d68ea32ee554d12,32,0,2024-02-28T14:29:41.850Z,english_38.wav,0,peel,1242,38,4,5,Français,f,10,1.0,7.20305444,1.28981754
5ec454e23d68ea32ee554d12,32,0,2024-02-28T14:29:41.850Z,english_38.wav,0,peel,1242,38,4,5,Français,f,11,1.09391667,-74.66052111,0.46742112
5ec454e23d68ea32ee554d12,33,0,2024-02-28T14:29:41.850Z,english_342.wav,0,peel,703,38,4,5,Français,f,0,0.0,41.55644967,0.78446862
5ec454e23d68ea32ee554d12,33,0,2024-02-28T14:29:41.850Z,english_342.wav,0,peel,703,38,4,5,Français,f,1,0.1,67.8619368,0.85565407
5ec454e23d68ea32ee554d12,33,0,2024-02-28T14:29:41.850Z,english_342.wav,0,peel,703,38,4,5,Français,f,2,0.2,-84.54944787,1.8318275
5ec454e23d68ea32ee554d12,33,0,2024-02-28T14:29:41.850Z,english_342.wav,0,peel,703,38,4,5,Français,f,3,0.3,-13.40526133,1.61118522
5ec454e23d68ea32ee554d12,33,0,2024-02-28T14:29:41.850Z,english_342.wav,0,peel,703,38,4,5,Français,f,4,0.4,84.55980061,0.75274568
5ec454e23d68ea32ee554d12,33,0,2024-02-28T14:29:41.850Z,english_342.wav,0,peel,703,38,4,5,Français,f,5,0.5,-73.66695786,0.63423277
5ec454e23d68ea32ee554d12,33,0,2024-02-28T14:29:41.850Z,english_342.wav,0,peel,703,38,4,5,Français,f,6,0.6,32.1068808,1.74871382
5ec454e23d68ea32ee554d12,33,0,2024-02-28T14:29:41.850Z,english_342.wav,0,peel,703,38,4,5,Français,f,7,0.7,96.14629479,0.40859241
5ec454e23d68ea32ee554d12,33,0,2024-02-28T14:29:41.850Z,english_342.wav,0,peel,703,38,4,5,Français,f,8,0.8,55.28291813,1.57798181
5ec454e23d68ea32ee554d12,33,0,2024-02-28T14:29:41.850Z,english_342.wav,0,peel,703,38,4,5,Français,f,9,0.9,35.51210396,1.87430569
5ec454e23d68ea32ee554d12,33,0,2024-02-28T14:29:41.850Z,english_342.wav,0,peel,703,38,4,5,Français,f,10,1.0,29.41468439,1.15438502
5ec454e23d68ea32ee554d12,33,0,2024-02-28T14:29:41.850Z,english_342.wav,0,peel,703,38,4,5,Français,f,11,1.09391667,39.84982535,1.30694685
5ec454e23d68ea32ee554d12,34,0,2024-02-28T14:29:41.850Z,english_802.wav,0,pill,789,38,4,5,Français,f,0,0.0,59.91511279,1.85367275
5ec454e23d68ea32ee554d12,34,0,2024-02-28T14:29:41.850Z,english_802.wav,0,pill,789,38,4,5,Français,f,1,0.1,12.24886821,1.18024621
5ec454e23d68ea32ee554d12,34,0,2024-02-28T14:29:41.850Z,english_802.wav,0,pill,789,38,4,5,Français,f,2,0.2,96.02397802,1.49834519
5ec454e23d68ea32ee554d12,34,0,2024-02-28T14:29:41.850Z,english_802.wav,0,pill,789,38,4,5,Français,f,3,0.3,13.76175382,0.18406028
5ec454e23d68ea32ee554d12,34,0,2024-02-28T14:29:41.850Z,english_802.wav,0,pill,789,38,4,5,Français,f,4,0.4,61.38770088,0.92630848
5ec454e23d68ea32ee554d12,34,0,2024-02-28T14:29:41.850Z,english_802.wav,0,pill,789,38,4,5,Français,f,5,0.5,-27.16563277,0.54382734
5ec454e23d68ea32ee554d12,34,0,2024-02-28T14:29:41.850Z,english_802.wav,0,pill,789,38,4,5,Français,f,6,0.6,-56.7121097,1.05559663
5ec454e23d68ea32ee554d12,34,0,2024-02-28T14:29:41.850Z,english_802.wav,0,pill,789,38,4,5,Français,f,7,0.7,-6.03893496,0.71322875
5ec454e23d68ea32ee554d12,34,0,2024-02-28T14:29:41.850Z,english_802.wav,0,pill,789,38,4,5,Français,f,8,0.8,-52.64183472,0.836902
5ec454e23d68ea32ee554d12,34,0,2024-02-28T14:29:41.850Z,english_802.wav,0,pill,789,38,4,5,Français,f,9,0.9,20.48360961,1.2036053
5ec454e23d68ea32ee554d12,34,0,2024-02-28T14:29:41.850Z,english_802.wav,0,pill,789,38,4,5,Français,f,10,1.0,63.06136933,1.08845051
5ec454e23d68ea32ee554d12,34,0,2024-02-28T14:29:41.850Z,english_802.wav,0,pill,789,38,4,5,Français,f,11,1.09391667,47.93084829,1.71595045
5ec454e23d68ea32ee554d12,35,0,2024-02-28T14:29:41.850Z,english_3.wav,0,pill,881,38,4,5,Français,f,0,0.0,46.12890401,1.26973721
5ec454e23d68ea32ee554d12,35,0,2024-02-28T14:29:41.850Z,english_3.wav,0,pill,881,38,4,5,Français,f,1,0.1,-46.79234899,0.81563074
5ec454e23d68ea32ee554d12,35,0,2024-02-28T14:29:41.850Z,english_3.wav,0,pill,881,38,4,5,Français,f,2,0.2,43.27356125,1.94124466
5ec454e23d68ea32ee554d12,35,0,2024-02-28T14:29:41.850Z,english_3.wav,0,pill,881,38,4,5,Français,f,3,0.3,-72.16670898,0.70667384
5ec454e23d68ea32ee554d12,35,0,2024-02-28T14:29:41.850Z,english_3.wav,0,pill,881,38,4,5,Français,f,4,0.4,-20.43688573,1.08403016
5ec454e23d68ea32ee554d12,35,0,2024-02-28T14:29:41.850Z,english_3.wav,0,pill,881,38,4,5,Français,f,5,0.5,47.47685518,0.3642344
5ec454e23d68ea32ee554d12,35,0,2024-02-28T14:29:41.850Z,english_3.wav,0,pill,881,38,4,5,Français,f,6,0.6,-99.10404807,0.99174199
5ec454e23d68ea32ee554d12,35,0,2024-02-28T14:29:41.850Z,english_3.wav,0,pill,881,38,4,5,Français,f,7,0.7,26.000254,0.55041702
5ec454e23d68ea32ee554d12,35,0,2024-02-28T14:29:41.850Z,english_3.wav,0,pill,881,38,4,5,Français,f,8,0.8,-7.26217139,0.75824974
5ec454e23d68ea32ee554d12,35,0,2024-02-28T14:29:41.850Z,english_3.wav,0,pill,881,38,4,5,Français,f,9,0.9,-22.74562987,0.866985
5ec454e23d68ea32ee554d12,35,0,2024-02-28T14:29:41.850Z,english_3.wav,0,pill,881,38,4,5,Français,f,10,1.0,-68.2177704,1.56473108
5ec454e23d68ea32ee554d12,35,0,2024-02-28T14:29:41.850Z,english_3.wav,0,pill,881,38,4,5,Français,f,11,1.09391667,25.12417325,0.96011667
5ec454e23d68ea32ee554d12,36,0,2024-02-28T14:29:41.850Z,english_238.wav,0,pill,464,38,4,5,Français,f,0,0.0,-25.3614735,1.74975572
5ec454e23d68ea32ee554d12,36,0,2024-02-28T14:29:41.850Z,english_238.wav,0,pill,464,38,4,5,Français,f,1,0.1,13.63610574,0.46955084
5ec454e23d68ea32ee554d12,36,0,2024-02-28T14:29:41.850Z,english_238.wav,0,pill,464,38,4,5,Français,f,2,0.2,47.68455174,0.90849847
5ec454e23d68ea32ee554d12,36,0,2024-02-28T14:29:41.850Z,english_238.wav,0,pill,464,38,4,5,Français,f,3,0.3,-45.84662584,1.75842807
5ec454e23d68ea32ee554d12,36,0,2024-02-28T14:29:41.850Z,english_238.wav,0,pill,464,38,4,5,Français,f,4,0.4,-24.72789326,0.8348983
5ec454e23d68ea32ee554d12,36,0,2024-02-28T14:29:41.850Z,english_238.wav,0,pill,464,38,4,5,Français,f,5,0.5,64.94752312,0.09811013
5ec454e23d68ea32ee554d12,36,0,2024-02-28T14:29:41.850Z,english_238.wav,0,pill,464,38,4,5,Français,f,6,0.6,91.26767563,0.01897595
5ec454e23d68ea32ee554d12,36,0,2024-02-28T14:29:41.850Z,english_238.wav,0,pill,464,38,4,5,Français,f,7,0.7,39.1185383,1.47798962
5ec454e23d68ea32ee554d12,36,0,2024-02-28T14:29:41.850Z,english_238.wav,0,pill,464,38,4,5,Français,f,8,0.8,-79.79663189,0.10732885
5ec454e23d68ea32ee554d12,36,0,2024-02-28T14:29:41.850Z,english_238.wav,0,pill,464,38,4,5,Français,f,9,0.9,82.76131323,1.36210441
5ec454e23d68ea32ee554d12,36,0,2024-02-28T14:29:41.850Z,english_238.wav,0,pill,464,38,4,5,Français,f,10,1.0,-67.84724973,1.46345611
5ec454e23d68ea32ee554d12,36,0,2024-02-28T14:29:41.850Z,english_238.wav,0,pill,464,38,4,5,Français,f,11,1.09391667,10.72336038,1.19403649
5ec454e23d68ea32ee554d12,37,0,2024-02-28T14:29:41.850Z,english_246.wav,0,peel,553,38,4,5,Français,f,0,0.0,65.19555702,1.04626937
5ec454e23d68ea32ee554d12,37,0,2024-02-28T14:29:41.850Z,english_246.wav,0,peel,553,38,4,5,Français,f,1,0.1,-88.31116696,1.63597079
5ec454e23d68ea32ee554d12,37,0,2024-02-28T14:29:41.850Z,english_246.wav,0,peel,553,38,4,5,Français,f,2,0.2,-87.15645837,1.95419498
5ec454e23d68ea32ee554d12,37,0,2024-02-28T14:29:41.850Z,english_246.wav,0,peel,553,38,4,5,Français,f,3,0.3,57.84934166,0.56872665
5ec454e23d68ea32ee554d12,37,0,2024-02-28T14:29:41.850Z,english_246.wav,0,peel,553,38,4,5,Français,f,4,0.4,-76.45557784,0.40309221
5ec454e23d68ea32ee554d12,37,0,2024-02-28T14:29:41.850Z,english_246.wav,0,peel,553,38,4,5,Français,f,5,0.5,66.32688278,1.93282921
5ec454e23d68ea32ee554d12,37,0,2024-02-28T14:29:41.850Z,english_246.wav,0,peel,553,38,4,5,Français,f,6,0.6,93.44738027,1.28213971
5ec454e23d68ea32ee554d12,37,0,2024-02-28T14:29:41.850Z,english_246.wav,0,peel,553,38,4,5,Français,f,7,0.7,54.7923908,1.70127241
5ec454e23d68ea32ee554d12,37,0,2024-02-28T14:29:41.850Z,english_246.wav,0,peel,553,38,4,5,Français,f,8,0.8,-1.38437059,0.15014799
5ec454e23d68ea32ee554d12,37,0,2024-02-28T14:29:41.850Z,english_246.wav,0,peel,553,38,4,5,Français,f,9,0.9,5.22264847,1.21649106
5ec454e23d68ea32ee554d12,37,0,2024-02-28T14:29:41.850Z,english_246.wav,0,peel,553,38,4,5,Français,f,10,1.0,-11.85909484,1.48942771
5ec454e23d68ea32ee554d12,37,0,2024-02-28T14:29:41.850Z,english_246.wav,0,peel,553,38,4,5,Français,f,11,1.09391667,65.00290812,0.35768018
5ec454e23d68ea32ee554d12,38,0,2024-02-28T14:29:41.850Z,english_233.wav,0,peel,290,38,4,5,Français,f,0,0.0,-12.45233214,1.31283544
5ec454e23d68ea32ee554d12,38,0,2024-02-28T14:29:41.850Z,english_233.wav,0,peel,290,38,4,5,Français,f,1,0.1,-33.20786902,0.09471032
5ec454e23d68ea32ee554d12,38,0,2024-02-28T14:29:41.850Z,english_233.wav,0,peel,290,38,4,5,Français,f,2,0.2,-3.84628349,1.88233627
5ec454e23d68ea32ee554d12,38,0,2024-02-28T14:29:41.850Z,english_233.wav,0,peel,290,38,4,5,Français,f,3,0.3,52.58812425,1.21028248
5ec454e23d68ea32ee554d12,38,0,2024-02-28T14:29:41.850Z,english_233.wav,0,peel,290,38,4,5,Français,f,4,0.4,-82.78729146,0.9101705
5ec454e23d68ea32ee554d12,38,0,2024-02-28T14:29:41.850Z,english_233.wav,0,peel,290,38,4,5,Français,f,5,0.5,-90.93928836,1.74264946
5ec454e23d68ea32ee554d12,38,0,2024-02-28T14:29:41.850Z,english_233.wav,0,peel,290,38,4,5,Français,f,6,0.6,91.49342166,1.34024886
5ec454e23d68ea32ee554d12,38,0,2024-02-28T14:29:41.850Z,english_233.wav,0,peel,290,38,4,5,Français,f,7,0.7,39.27925393,0.33883292
5ec454e23d68ea32ee554d12,38,0,2024-02-28T14:29:41.850Z,english_233.wav,0,peel,290,38,4,5,Français,f,8,0.8,-0.66571259,1.35075989
5ec454e23d68ea32ee554d12,38,0,2024-02-28T14:29:41.850Z,english_233.wav,0,peel,290,38,4,5,Français,f,9,0.9,50.1456693,1.4470152
5ec454e23d68ea32ee554d12,38,0,2024-02-28T14:29:41.850Z,english_233.wav,0,peel,290,38,4,5,Français,f,10,1.0,-6.64277825,1.15231478
5ec454e23d68ea32ee554d12,38,0,2024-02-28T14:29:41.850Z,english_233.wav,0,peel,290,38,4,5,Français,f,11,1.09391667,8.91074874,1.87164883
5ec454e23d68ea32ee554d12,39,0,2024-02-28T14:29:41.850Z,english_309.wav,0,pill,439,38,4,5,Français,f,0,0.0,-34.14852999,1.21753296
5ec454e23d68ea32ee554d12,39,0,2024-02-28T14:29:41.850Z,english_309.wav,0,pill,439,38,4,5,Français,f,1,0.1,-60.02804827,1.49982591
5ec454e23d68ea32ee554d12,39,0,2024-02-28T14:29:41.850Z,english_309.wav,0,pill,439,38,4,5,Français,f,2,0.2,6.0299745,1.91679373
5ec454e23d68ea32ee554d12,39,0,2024-02-28T14:29:41.850Z,english_309.wav,0,pill,439,38,4,5,Français,f,3,0.3,65.21163803,0.32322976
5ec454e23d68ea32ee554d12,39,0,2024-02-28T14:29:41.850Z,english_309.wav,0,pill,439,38,4,5,Français,f,4,0.4,70.66724966,1.88516358
5ec454e23d68ea32ee554d12,39,0,2024-02-28T14:29:41.850Z,english_309.wav,0,pill,439,38,4,5,Français,f,5,0.5,45.99109365,1.4437576
5ec454e23d68ea32ee554d12,39,0,2024-02-28T14:29:41.850Z,english_309.wav,0,pill,439,38,4,5,Français,f,6,0.6,-19.50247914,1.34394651
5ec454e23d68ea32ee554d12,39,0,2024-02-28T14:29:41.850Z,english_309.wav,0,pill,439,38,4,5,Français,f,7,0.7,-1.40871488,0.70865896
5ec454e23d68ea32ee554d12,39,0,2024-02-28T14:29:41.850Z,english_309.wav,0,pill,439,38,4,5,Français,f,8,0.8,76.93262372,0.16374417
5ec454e23d68ea32ee554d12,39,0,2024-02-28T14:29:41.850Z,english_309.wav,0,pill,439,38,4,5,Français,f,9,0.9,-6.89150381,0.04755869
5ec454e23d68ea32ee554d12,39,0,2024-02-28T14:29:41.850Z,english_309.wav,0,pill,439,38,4,5,Français,f,10,1.0,-55.94090841,0.82149119
5ec454e23d68ea32ee554d12,39,0,2024-02-28T14:29:41.850Z,english_309.wav,0,pill,439,38,4,5,Français,f,11,1.09391667,80.41347419,0.6378001
5ec454e23d68ea32ee554d12,40,0,2024-02-28T14:29:41.850Z,english_42.wav,0,pill,699,38,4,5,Français,f,0,0.0,-12.35235723,0.89110064
5ec454e23d68ea32ee554d12,40,0,2024-02-28T14:29:41.850Z,english_42.wav,0,pill,699,38,4,5,Français,f,1,0.1,-31.30593397,0.38934259
5ec454e23d68ea32ee554d12,40,0,2024-02-28T14:29:41.850Z,english_42.wav,0,pill,699,38,4,5,Français,f,2,0.2,93.22547931,1.45440232
5ec454e23d68ea32ee554d12,40,0,2024-02-28T14:29:41.850Z,english_42.wav,0,pill,699,38,4,5,Français,f,3,0.3,3.55661221,0.25584691
5ec454e23d68ea32ee554d12,40,0,2024-02-28T14:29:41.850Z,english_42.wav,0,pill,699,38,4,5,Français,f,4,0.4,-65.82574245,1.05295351
5ec454e23d68ea32ee554d12,40,0,2024-02-28T14:29:41.850Z,english_42.wav,0,pill,699,38,4,5,Français,f,5,0.5,29.87364381,0.59087155
5ec454e23d68ea32ee554d12,40,0,2024-02-28T14:29:41.850Z,english_42.wav,0,pill,699,38,4,5,Français,f,6,0.6,-76.70361056,0.12112438
5ec454e23d68ea32ee554d12,40,0,2024-02-28T14:29:41.850Z,english_42.wav,0,pill,699,38,4,5,Français,f,7,0.7,-29.10356368,0.72116868
5ec454e23d68ea32ee554d12,40,0,2024-02-28T14:29:41.850Z,english_42.wav,0,pill,699,38,4,5,Français,f,8,0.8,-52.57981462,0.07340316
5ec454e23d68ea32ee554d12,40,0,2024-02-28T14:29:41.850Z,english_42.wav,0,pill,699,38,4,5,Français,f,9,0.9,3.2621499,1.9617885
5ec454e23d68ea32ee554d12,40,0,2024-02-28T14:29:41.850Z,english_42.wav,0,pill,699,38,4,5,Français,f,10,1.0,-86.59512904,0.50342264
5ec454e23d68ea32ee554d12,40,0,2024-02-28T14:29:41.850Z,english_42.wav,0,pill,699,38,4,5,Français,f,11,1.09391667,39.23696044,1.24684981
5ec454e23d68ea32ee554d12,41,0,2024-02-28T14:29:41.850Z,english_248.wav,0,peel,391,38,4,5,Français,f,0,0.0,-77.65935665,1.91143756
5ec454e23d68ea32ee554d12,41,0,2024-02-28T14:29:41.850Z,english_248.wav,0,peel,391,38,4,5,Français,f,1,0.1,13.01307899,0.95656899
5ec454e23d68ea32ee554d12,41,0,2024-02-28T14:29:41.850Z,english_248.wav,0,peel,391,38,4,5,Français,f,2,0.2,-6.27197977,0.05318577
5ec454e23d68ea32ee554d12,41,0,2024-02-28T14:29:41.850Z,english_248.wav,0,peel,391,38,4,5,Français,f,3,0.3,99.77801709,1.67121165
5ec454e23d68ea32ee554d12,41,0,2024-02-28T14:29:41.850Z,english_248.wav,0,peel,391,38,4,5,Français,f,4,0.4,-3.73096601,0.67240869
5ec454e23d68ea32ee554d12,41,0,2024-02-28T14:29:41.850Z,english_248.wav,0,peel,391,38,4,5,Français,f,5,0.5,48.17717711,1.00234822
5ec454e23d68ea32ee554d12,41,0,2024-02-28T14:29:41.850Z,english_248.wav,0,peel,391,38,4,5,Français,f,6,0.6,-36.84313939,0.30376957
5ec454e23d68ea32ee554d12,41,0,2024-02-28T14:29:41.850Z,english_248.wav,0,peel,391,38,4,5,Français,f,7,0.7,-61.99766544,1.01064126
5ec454e23d68ea32ee554d12,41,0,2024-02-28T14:29:41.850Z,english_248.wav,0,peel,391,38,4,5,Français,f,8,0.8,-76.82864618,1.57737707
5ec454e23d68ea32ee554d12,41,0,2024-02-28T14:29:41.850Z,english_248.wav,0,peel,391,38,4,5,Français,f,9,0.9,-38.01252631,0.84763517
5ec454e23d68ea32ee554d12,41,0,2024-02-28T14:29:41.850Z,english_248.wav,0,peel,391,38,4,5,Français,f,10,1.0,85.29761704,1.67346182
5ec454e23d68ea32ee554d12,41,0,2024-02-28T14:29:41.850Z,english_248.wav,0,peel,391,38,4,5,Français,f,11,1.09391667,46.87388229,0.28083573
5ec454e23d68ea32ee554d12,42,0,2024-02-28T14:29:41.850Z,english_394.wav,0,peel,748,38,4,5,Français,f,0,0.0,-15.73952497,0.37404547
5ec454e23d68ea32ee554d12,42,0,2024-02-28T14:29:41.850Z,english_394.wav,0,peel,748,38,4,5,Français,f,1,0.1,-72.53875874,0.74662783
5ec454e23d68ea32ee554d12,42,0,2024-02-28T14:29:41.850Z,english_394.wav,0,peel,748,38,4,5,Français,f,2,0.2,-2.77448658,0.09869687
5ec454e23d68ea32ee554d12,42,0,2024-02-28T14:29:41.850Z,english_394.wav,0,peel,748,38,4,5,Français,f,3,0.3,-34.13929652,0.4926167
5ec454e23d68ea32ee554d12,42,0,2024-02-28T14:29:41.850Z,english_394.wav,0,peel,748,38,4,5,Français,f,4,0.4,98.89455917,0.88094357
5ec454e23d68ea32ee554d12,42,0,2024-02-28T14:29:41.850Z,english_394.wav,0,peel,748,38,4,5,Français,f,5,0.5,92.17283268,1.74845503
5ec454e23d68ea32ee554d12,42,0,2024-02-28T14:29:41.850Z,english_394.wav,0,peel,748,38,4,5,Français,f,6,0.6,57.90330337,0.56104095
5ec454e23d68ea32ee554d12,42,0,2024-02-28T14:29:41.850Z,english_394.wav,0,peel,748,38,4,5,Français,f,7,0.7,42.86143517,1.17773509
5ec454e23d68ea32ee554d12,42,0,2024-02-28T14:29:41.850Z,english_394.wav,0,peel,748,38,4,5,Français,f,8,0.8,-24.72366611,1.30676371
5ec454e23d68ea32ee554d12,42,0,2024-02-28T14:29:41.850Z,english_394.wav,0,peel,748,38,4,5,Français,f,9,0.9,1.80991862,0.02013397
5ec454e23d68ea32ee554d12,42,0,2024-02-28T14:29:41.850Z,english_394.wav,0,peel,748,38,4,5,Français,f,10,1.0,-3.52242486,1.86341361
5ec454e23d68ea32ee554d12,42,0,2024-02-28T14:29:41.850Z,english_394.wav,0,peel,748,38,4,5,Français,f,11,1.09391667,-17.84344946,0.37928015
5ec454e23d68ea32ee554d12,43,0,2024-02-28T14:29:41.850Z,english_445.wav,0,pill,697,38,4,5,Français,f,0,0.0,76.42112213,1.57802926
5ec454e23d68ea32ee554d12,43,0,2024-02-28T14:29:41.850Z,english_445.wav,0,pill,697,38,4,5,Français,f,1,0.1,-97.95203426,1.29835175
5ec454e23d68ea32ee554d12,43,0,2024-02-28T14:29:41.850Z,english_445.wav,0,pill,697,38,4,5,Français,f,2,0.2,-59.82746333,0.53636504
5ec454e23d68ea32ee554d12,43,0,2024-02-28T14:29:41.850Z,english_445.wav,0,pill,697,38,4,5,Français,f,3,0.3,-13.48573522,1.2021667
5ec454e23d68ea32ee554d12,43,0,2024-02-28T14:29:41.850Z,english_445.wav,0,pill,697,38,4,5,Français,f,4,0.4,81.29973607,1.41426839
5ec454e23d68ea32ee554d12,43,0,2024-02-28T14:29:41.850Z,english_445.wav,0,pill,697,38,4,5,Français,f,5,0.5,41.3671656,1.60295296
5ec454e23d68ea32ee554d12,43,0,2024-02-28T14:29:41.850Z,english_445.wav,0,pill,697,38,4,5,Français,f,6,0.6,-85.98514438,0.58159358
5ec454e23d68ea32ee554d12,43,0,2024-02-28T14:29:41.850Z,english_445.wav,0,pill,697,38,4,5,Français,f,7,0.7,57.90232239,0.76199649
5ec454e23d68ea32ee554d12,43,0,2024-02-28T14:29:41.850Z,english_445.wav,0,pill,697,38,4,5,Français,f,8,0.8,-95.60547231,0.54097795
5ec454e23d68ea32ee554d12,43,0,2024-02-28T14:29:41.850Z,english_445.wav,0,pill,697,38,4,5,Français,f,9,0.9,17.13362758,0.00538706
5ec454e23d68ea32ee554d12,43,0,2024-02-28T14:29:41.850Z,english_445.wav,0,pill,697,38,4,5,Français,f,10,1.0,46.54539843,0.3060589
5ec454e23d68ea32ee554d12,43,0,2024-02-28T14:29:41.850Z,english_445.wav,0,pill,697,38,4,5,Français,f,11,1.09391667,43.78720367,1.39576853
5ec454e23d68ea32ee554d12,44,0,2024-02-28T14:29:41.850Z,english_56.wav,0,peel,419,38,4,5,Français,f,0,0.0,94.56130546,1.78248544
5ec454e23d68ea32ee554d12,44,0,2024-02-28T14:29:41.850Z,english_56.wav,0,peel,419,38,4,5,Français,f,1,0.1,98.82920217,0.32774506
5ec454e23d68ea32ee554d12,44,0,2024-02-28T14:29:41.850Z,english_56.wav,0,peel,419,38,4,5,Français,f,2,0.2,-30.68243792,0.4010142
5ec454e23d68ea32ee554d12,44,0,2024-02-28T14:29:41.850Z,english_56.wav,0,peel,419,38,4,5,Français,f,3,0.3,-48.75978293,0.84475133
5ec454e23d68ea32ee554d12,44,0,2024-02-28T14:29:41.850Z,english_56.wav,0,peel,419,38,4,5,Français,f,4,0.4,-79.08505246,1.07558594
5ec454e23d68ea32ee554d12,44,0,2024-02-28T14:29:41.850Z,english_56.wav,0,peel,419,38,4,5,Français,f,5,0.5,18.07000914,1.2644329
5ec454e23d68ea32ee554d12,44,0,2024-02-28T14:29:41.850Z,english_56.wav,0,peel,419,38,4,5,Français,f,6,0.6,57.19590548,1.63811398
5ec454e23d68ea32ee554d12,44,0,2024-02-28T14:29:41.850Z,english_56.wav,0,peel,419,38,4,5,Français,f,7,0.7,6.7178476,1.3488209
5ec454e23d68ea32ee554d12,44,0,2024-02-28T14:29:41.850Z,english_56.wav,0,peel,419,38,4,5,Français,f,8,0.8,-59.05070955,0.73862335
5ec454e23d68ea32ee554d12,44,0,2024-02-28T14:29:41.850Z,english_56.wav,0,peel,419,38,4,5,Français,f,9,0.9,-76.10802368,0.85331353
5ec454e23d68ea32ee554d12,44,0,2024-02-28T14:29:41.850Z,english_56.wav,0,peel,419,38,4,5,Français,f,10,1.0,-28.87948521,1.24951522
5ec454e23d68ea32ee554d12,44,0,2024-02-28T14:29:41.850Z,english_56.wav,0,peel,419,38,4,5,Français,f,11,1.09391667,8.04938486,0.68295905
5ec454e23d68ea32ee554d12,45,0,2024-02-28T14:29:41.850Z,english_253.wav,0,peel,1087,38,4,5,Français,f,0,0.0,-76.54232622,1.69452202
5ec454e23d68ea32ee554d12,45,0,2024-02-28T14:29:41.850Z,english_253.wav,0,peel,1087,38,4,5,Français,f,1,0.1,23.75797542,0.94155674
5ec454e23d68ea32ee554d12,45,0,2024-02-28T14:29:41.850Z,english_253.wav,0,peel,1087,38,4,5,Français,f,2,0.2,-82.53055468,0.70353207
5ec454e23d68ea32ee554d12,45,0,2024-02-28T14:29:41.850Z,english_253.wav,0,peel,1087,38,4,5,Français,f,3,0.3,19.65476927,1.42331271
5ec454e23d68ea32ee554d12,45,0,2024-02-28T14:29:41.850Z,english_253.wav,0,peel,1087,38,4,5,Français,f,4,0.4,-55.81107988,1.11334266
5ec454e23d68ea32ee554d12,45,0,2024-02-28T14:29:41.850Z,english_253.wav,0,peel,1087,38,4,5,Français,f,5,0.5,73.24574297,1.34927457
5ec454e23d68ea32ee554d12,45,0,2024-02-28T14:29:41.850Z,english_253.wav,0,peel,1087,38,4,5,Français,f,6,0.6,-22.29926161,0.26375751
5ec454e23d68ea32ee554d12,45,0,2024-02-28T14:29:41.850Z,english_253.wav,0,peel,1087,38,4,5,Français,f,7,0.7,-11.91242057,0.63100518
5ec454e23d68ea32ee554d12,45,0,2024-02-28T14:29:41.850Z,english_253.wav,0,peel,1087,38,4,5,Français,f,8,0.8,-33.99896833,0.22145521
5ec454e23d68ea32ee554d12,45,0,2024-02-28T14:29:41.850Z,english_253.wav,0,peel,1087,38,4,5,Français,f,9,0.9,32.30473406,0.69052847
5ec454e23d68ea32ee554d12,45,0,2024-02-28T14:29:41.850Z,english_253.wav,0,peel,1087,38,4,5,Français,f,10,1.0,68.10745133,1.32352728
5ec454e23d68ea32ee554d12,45,0,2024-02-28T14:29:41.850Z,english_253.wav,0,peel,1087,38,4,5,Français,f,11,1.09391667,-22.82824608,0.79605757
5ec454e23d68ea32ee554d12,46,0,2024-02-28T14:29:41.850Z,english_963.wav,0,peel,712,38,4,5,Français,f,0,0.0,12.85572416,1.75469767
5ec454e23d68ea32ee554d12,46,0,2024-02-28T14:29:41.850Z,english_963.wav,0,peel,712,38,4,5,Français,f,1,0.1,-76.17617766,0.88786329
5ec454e23d68ea32ee554d12,46,0,2024-02-28T14:29:41.850Z,english_963.wav,0,peel,712,38,4,5,Français,f,2,0.2,42.35975093,1.03977576
5ec454e23d68ea32ee554d12,46,0,2024-02-28T14:29:41.850Z,english_963.wav,0,peel,712,38,4,5,Français,f,3,0.3,-29.56352697,0.40233076
5ec454e23d68ea32ee554d12,46,0,2024-02-28T14:29:41.850Z,english_963.wav,0,peel,712,38,4,5,Français,f,4,0.4,1.9048802,1.77716713
5ec454e23d68ea32ee554d12,46,0,2024-02-28T14:29:41.850Z,english_963.wav,0,peel,712,38,4,5,Français,f,5,0.5,-59.42176318,1.22252544
5ec454e23d68ea32ee554d12,46,0,2024-02-28T14:29:41.850Z,english_963.wav,0,peel,712,38,4,5,Français,f,6,0.6,-90.23873789,1.36334994
5ec454e23d68ea32ee554d12,46,0,2024-02-28T14:29:41.850Z,english_963.wav,0,peel,712,38,4,5,Français,f,7,0.7,96.0492683,0.19892648
5ec454e23d68ea32ee554d12,46,0,2024-02-28T14:29:41.850Z,english_963.wav,0,peel,712,38,4,5,Français,f,8,0.8,-14.96705396,0.48578079
5ec454e23d68ea32ee554d12,46,0,2024-02-28T14:29:41.850Z,english_963.wav,0,peel,712,38,4,5,Français,f,9,0.9,53.28049668,0.49525144
5ec454e23d68ea32ee554d12,46,0,2024-02-28T14:29:41.850Z,english_963.wav,0,peel,712,38,4,5,Français,f,10,1.0,-50.64061571,1.97867338
5ec454e23d68ea32ee554d12,46,0,2024-02-28T14:29:41.850Z,english_963.wav,0,peel,712,38,4,5,Français,f,11,1.09391667,33.50411271,0.71277393
5ec454e23d68ea32ee554d12,47,0,2024-02-28T14:29:41.850Z,english_523.wav,0,pill,563,38,4,5,Français,f,0,0.0,-25.97539799,0.34449626
5ec454e23d68ea32ee554d12,47,0,2024-02-28T14:29:41.850Z,english_523.wav,0,pill,563,38,4,5,Français,f,1,0.1,-25.11108095,0.18549089
5ec454e23d68ea32ee554d12,47,0,2024-02-28T14:29:41.850Z,english_523.wav,0,pill,563,38,4,5,Français,f,2,0.2,-67.4070828,1.10257375
5ec454e23d68ea32ee554d12,47,0,2024-02-28T14:29:41.850Z,english_523.wav,0,pill,563,38,4,5,Français,f,3,0.3,14.34055957,0.39893493
5ec454e23d68ea32ee554d12,47,0,2024-02-28T14:29:41.850Z,english_523.wav,0,pill,563,38,4,5,Français,f,4,0.4,10.27536217,1.8821087
5ec454e23d68ea32ee554d12,47,0,2024-02-28T14:29:41.850Z,english_523.wav,0,pill,563,38,4,5,Français,f,5,0.5,2.68899624,1.33802983
5ec454e23d68ea32ee554d12,47,0,2024-02-28T14:29:41.850Z,english_523.wav,0,pill,563,38,4,5,Français,f,6,0.6,5.43637058,1.93381979
5ec454e23d68ea32ee554d12,47,0,2024-02-28T14:29:41.850Z,english_523.wav,0,pill,563,38,4,5,Français,f,7,0.7,84.96836729,1.3963609
5ec454e23d68ea32ee554d12,47,0,2024-02-28T14:29:41.850Z,english_523.wav,0,pill,563,38,4,5,Français,f,8,0.8,0.15377924,0.58447079
5ec454e23d68ea32ee554d12,47,0,2024-02-28T14:29:41.850Z,english_523.wav,0,pill,563,38,4,5,Français,f,9,0.9,-34.21093103,0.41716989
5ec454e23d68ea32ee554d12,47,0,2024-02-28T14:29:41.850Z,english_523.wav,0,pill,563,38,4,5,Français,f,10,1.0,-94.05275706,1.25827867
5ec454e23d68ea32ee554d12,47,0,2024-02-28T14:29:41.850Z,english_523.wav,0,pill,563,38,4,5,Français,f,11,1.09391667,-75.26058007,0.83944497
5ec454e23d68ea32ee554d12,48,0,2024-02-28T14:29:41.850Z,english_346.wav,0,peel,452,38,4,5,Français,f,0,0.0,24.07666509,0.66537663
5ec454e23d68ea32ee554d12,48,0,2024-02-28T14:29:41.850Z,english_346.wav,0,peel,452,38,4,5,Français,f,1,0.1,-87.64157913,1.54123619
5ec454e23d68ea32ee554d12,48,0,2024-02-28T14:29:41.850Z,english_346.wav,0,peel,452,38,4,5,Français,f,2,0.2,-51.3970499,0.92348631
5ec454e23d68ea32ee554d12,48,0,2024-02-28T14:29:41.850Z,english_346.wav,0,peel,452,38,4,5,Français,f,3,0.3,79.45874018,0.33920207
5ec454e23d68ea32ee554d12,48,0,2024-02-28T14:29:41.850Z,english_346.wav,0,peel,452,38,4,5,Français,f,4,0.4,-74.83031912,0.94433533
5ec454e23d68ea32ee554d12,48,0,2024-02-28T14:29:41.850Z,english_346.wav,0,peel,452,38,4,5,Français,f,5,0.5,-2.98294823,0.8352321
5ec454e23d68ea32ee554d12,48,0,2024-02-28T14:29:41.850Z,english_346.wav,0,peel,452,38,4,5,Français,f,6,0.6,-32.38946294,0.95810053
5ec454e23d68ea32ee554d12,48,0,2024-02-28T14:29:41.850Z,english_346.wav,0,peel,452,38,4,5,Français,f,7,0.7,-24.81590652,0.99822629
5ec454e23d68ea32ee554d12,48,0,2024-02-28T14:29:41.850Z,english_346.wav,0,peel,452,38,4,5,Français,f,8,0.8,-13.90891955,0.18782062
5ec454e23d68ea32ee554d12,48,0,2024-02-28T14:29:41.850Z,english_346.wav,0,peel,452,38,4,5,Français,f,9,0.9,-33.49626836,1.6271571
5ec454e23d68ea32ee554d12,48,0,2024-02-28T14:29:41.850Z,english_346.wav,0,peel,452,38,4,5,Français,f,10,1.0,-23.2144111,1.67158741
5ec454e23d68ea32ee554d12,48,0,2024-02-28T14:29:41.850Z,english_346.wav,0,peel,452,38,4,5,Français,f,11,1.09391667,-9.66358574,1.16169049
5ec454e23d68ea32ee554d12,49,0,2024-02-28T14:29:41.850Z,english_656.wav,0,peel,522,38,4,5,Français,f,0,0.0,-81.79066312,1.40445152
5ec454e23d68ea32ee554d12,49,0,2024-02-28T14:29:41.850Z,english_656.wav,0,peel,522,38,4,5,Français,f,1,0.1,82.04093637,1.3245448
5ec454e23d68ea32ee554d12,49,0,2024-02-28T14:29:41.850Z,english_656.wav,0,peel,522,38,4,5,Français,f,2,0.2,-52.28001609,1.15771434
5ec454e23d68ea32ee554d12,49,0,2024-02-28T14:29:41.850Z,english_656.wav,0,peel,522,38,4,5,Français,f,3,0.3,67.28232458,1.36671169
5ec454e23d68ea32ee554d12,49,0,2024-02-28T14:29:41.850Z,english_656.wav,0,peel,522,38,4,5,Français,f,4,0.4,-93.82911819,1.65032622
5ec454e23d68ea32ee554d12,49,0,2024-02-28T14:29:41.850Z,english_656.wav,0,peel,522,38,4,5,Français,f,5,0.5,-25.69923398,0.37873681
5ec454e23d68ea32ee554d12,49,0,2024-02-28T14:29:41.850Z,english_656.wav,0,peel,522,38,4,5,Français,f,6,0.6,-22.63880376,0.51917639
5ec454e23d68ea32ee554d12,49,0,2024-02-28T14:29:41.850Z,english_656.wav,0,peel,522,38,4,5,Français,f,7,0.7,28.9128231,1.1632187
5ec454e23d68ea32ee554d12,49,0,2024-02-28T14:29:41.850Z,english_656.wav,0,peel,522,38,4,5,Français,f,8,0.8,-87.87621278,0.95022034
5ec454e23d68ea32ee554d12,49,0,2024-02-28T14:29:41.850Z,english_656.wav,0,peel,522,38,4,5,Français,f,9,0.9,-32.99395829,1.57205129
5ec454e23d68ea32ee554d12,49,0,2024-02-28T14:29:41.850Z,english_656.wav,0,peel,522,38,4,5,Français,f,10,1.0,67.88283241,0.61260001
5ec454e23d68ea32ee554d12,49,0,2024-02-28T14:29:41.850Z,english_656.wav,0,peel,522,38,4,5,Français,f,11,1.09391667,-65.62849391,1.24421279
5ec454e23d68ea32ee554d12,50,1,2024-02-28T14:29:41.850Z,english_861.wav,0,pill,2501,38,4,5,Français,f,0,0.0,25.4501387,1.11165111
5ec454e23d68ea32ee554d12,50,1,2024-02-28T14:29:41.850Z,english_861.wav,0,pill,2501,38,4,5,Français,f,1,0.1,63.77188621,1.38930356
5ec454e23d68ea32ee554d12,50,1,2024-02-28T14:29:41.850Z,english_861.wav,0,pill,2501,38,4,5,Français,f,2,0.2,8.16107914,0.85763188
5ec454e23d68ea32ee554d12,50,1,2024-02-28T14:29:41.850Z,english_861.wav,0,pill,2501,38,4,5,Français,f,3,0.3,41.89997673,0.26479285
5ec454e23d68ea32ee554d12,50,1,2024-02-28T14:29:41.850Z,english_861.wav,0,pill,2501,38,4,5,Français,f,4,0.4,-63.53893236,0.36121213
5ec454e23d68ea32ee554d12,50,1,2024-02-28T14:29:41.850Z,english_861.wav,0,pill,2501,38,4,5,Français,f,5,0.5,57.74914229,1.75452306
5ec454e23d68ea32ee554d12,50,1,2024-02-28T14:29:41.850Z,english_861.wav,0,pill,2501,38,4,5,Français,f,6,0.6,-60.14311181,1.62162149
5ec454e23d68ea32ee554d12,50,1,2024-02-28T14:29:41.850Z,english_861.wav,0,pill,2501,38,4,5,Français,f,7,0.7,3.67795544,0.63165878
5ec454e23d68ea32ee554d12,50,1,2024-02-28T14:29:41.850Z,english_861.wav,0,pill,2501,38,4,5,Français,f,8,0.8,-80.01439722,0.85751028
5ec454e23d68ea32ee554d12,50,1,2024-02-28T14:29:41.850Z,english_861.wav,0,pill,2501,38,4,5,Français,f,9,0.9,-37.7550596,1.51613867
5ec454e23d68ea32ee554d12,50,1,2024-02-28T14:29:41.850Z,english_861.wav,0,pill,2501,38,4,5,Français,f,10,1.0,-13.58281726,1.37338535
5ec454e23d68ea32ee554d12,50,1,2024-02-28T14:29:41.850Z,english_861.wav,0,pill,2501,38,4,5,Français,f,11,1.09391667,59.5288882,0.25913333
5ec454e23d68ea32ee554d12,51,1,2024-02-28T14:29:41.850Z,english_610.wav,0,pill,796,38,4,5,Français,f,0,0.0,-92.84300711,0.87509592
5ec454e23d68ea32ee554d12,51,1,2024-02-28T14:29:41.850Z,english_610.wav,0,pill,796,38,4,5,Français,f,1,0.1,84.93303095,1.15799642
5ec454e23d68ea32ee554d12,51,1,2024-02-28T14:29:41.850Z,english_610.wav,0,pill,796,38,4,5,Français,f,2,0.2,80.17137486,0.35067597
5ec454e23d68ea32ee554d12,51,1,2024-02-28T14:29:41.850Z,english_610.wav,0,pill,796,38,4,5,Français,f,3,0.3,-20.18134966,0.73569606
5ec454e23d68ea32ee554d12,51,1,2024-02-28T14:29:41.850Z,english_610.wav,0,pill,796,38,4,5,Français,f,4,0.4,-20.20363531,1.23116766
5ec454e23d68ea32ee554d12,51,1,2024-02-28T14:29:41.850Z,english_610.wav,0,pill,796,38,4,5,Français,f,5,0.5,-69.79247274,0.29684789
5ec454e23d68ea32ee554d12,51,1,2024-02-28T14:29:41.850Z,english_610.wav,0,pill,796,38,4,5,Français,f,6,0.6,33.10957698,0.98948574
5ec454e23d68ea32ee554d12,51,1,2024-02-28T14:29:41.850Z,english_610.wav,0,pill,796,38,4,5,Français,f,7,0.7,-20.50322303,0.76787478
5ec454e23d68ea32ee554d12,51,1,2024-02-28T14:29:41.850Z,english_610.wav,0,pill,796,38,4,5,Français,f,8,0.8,-72.05825618,0.48117832
5ec454e23d68ea32ee554d12,51,1,2024-02-28T14:29:41.850Z,english_610.wav,0,pill,796,38,4,5,Français,f,9,0.9,1.26743028,0.47321928
5ec454e23d68ea32ee554d12,51,1,2024-02-28T14:29:41.850Z,english_610.wav,0,pill,796,38,4,5,Français,f,10,1.0,17.12915034,0.17126553
5ec454e23d68ea32ee554d12,51,1,2024-02-28T14:29:41.850Z,english_610.wav,0,pill,796,38,4,5,Français,f,11,1.09391667,64.76618694,1.04318183
5ec454e23d68ea32ee554d12,52,1,2024-02-28T14:29:41.850Z,english_654.wav,0,peel,306,38,4,5,Français,f,0,0.0,-60.45158089,1.67384998
5ec454e23d68ea32ee554d12,52,1,2024-02-28T14:29:41.850Z,english_654.wav,0,peel,306,38,4,5,Français,f,1,0.1,9.53392367,1.95158047
5ec454e23d68ea32ee554d12,52,1,2024-02-28T14:29:41.850Z,english_654.wav,0,peel,306,38,4,5,Français,f,2,0.2,75.34484554,0.15197486
5ec454e23d68ea32ee554d12,52,1,2024-02-28T14:29:41.850Z,english_654.wav,0,peel,306,38,4,5,Français,f,3,0.3,-77.95617505,1.81249974
5ec454e23d68ea32ee554d12,52,1,2024-02-28T14:29:41.850Z,english_654.wav,0,peel,306,38,4,5,Français,f,4,0.4,45.13912589,1.69970503
5ec454e23d68ea32ee554d12,52,1,2024-02-28T14:29:41.850Z,english_654.wav,0,peel,306,38,4,5,Français,f,5,0.5,-50.515313,0.99652043
5ec454e23d68ea32ee554d12,52,1,2024-02-28T14:29:41.850Z,english_654.wav,0,peel,306,38,4,5,Français,f,6,0.6,9.32431964,0.79094839
5ec454e23d68ea32ee554d12,52,1,2024-02-28T14:29:41.850Z,english_654.wav,0,peel,306,38,4,5,Français,f,7,0.7,-34.09762813,1.33338821
5ec454e23d68ea32ee554d12,52,1,2024-02-28T14:29:41.850Z,english_654.wav,0,peel,306,38,4,5,Français,f,8,0.8,-21.66012002,1.37263534
5ec454e23d68ea32ee554d12,52,1,2024-02-28T14:29:41.850Z,english_654.wav,0,peel,306,38,4,5,Français,f,9,0.9,-34.25563526,0.62767279
5ec454e23d68ea32ee554d12,52,1,2024-02-28T14:29:41.850Z,english_654.wav,0,peel,306,38,4,5,Français,f,10,1.0,63.7959229,1.72608881
5ec454e23d68ea32ee554d12,52,1,2024-02-28T14:29:41.850Z,english_654.wav,0,peel,306,38,4,5,Français,f,11,1.09391667,-58.04833316,0.85441877
5ec454e23d68ea32ee554d12,53,1,2024-02-28T14:29:41.850Z,english_826.wav,0,pill,422,38,4,5,Français,f,0,0.0,-48.66820204,0.50881221
5ec454e23d68ea32ee554d12,53,1,2024-02-28T14:29:41.850Z,english_826.wav,0,pill,422,38,4,5,Français,f,1,0.1,15.87758798,1.7988984
5ec454e23d68ea32ee554d12,53,1,2024-02-28T14:29:41.850Z,english_826.wav,0,pill,422,38,4,5,Français,f,2,0.2,-81.06156605,0.35571274
5ec454e23d68ea32ee554d12,53,1,2024-02-28T14:29:41.850Z,english_826.wav,0,pill,422,38,4,5,Français,f,3,0.3,-38.67543271,0.88871824
5ec454e23d68ea32ee554d12,53,1,2024-02-28T14:29:41.850Z,english_826.wav,0,pill,422,38,4,5,Français,f,4,0.4,8.70050458,0.81611388
5ec454e23d68ea32ee554d12,53,1,2024-02-28T14:29:41.850Z,english_826.wav,0,pill,422,38,4,5,Français,f,5,0.5,-12.50279128,1.15396637
5ec454e23d68ea32ee554d12,53,1,2024-02-28T14:29:41.850Z,english_826.wav,0,pill,422,38,4,5,Français,f,6,0.6,53.18940921,0.06242761
5ec454e23d68ea32ee554d12,53,1,2024-02-28T14:29:41.850Z,english_826.wav,0,pill,422,38,4,5,Français,f,7,0.7,25.51770895,0.35293371
5ec454e23d68ea32ee554d12,53,1,2024-02-28T14:29:41.850Z,english_826.wav,0,pill,422,38,4,5,Français,f,8,0.8,-2.14290614,1.13493967
5ec454e23d68ea32ee554d12,53,1,2024-02-28T14:29:41.850Z,english_826.wav,0,pill,422,38,4,5,Français,f,9,0.9,59.43969754,1.56070885
5ec454e23d68ea32ee554d12,53,1,2024-02-28T14:29:41.850Z,english_826.wav,0,pill,422,38,4,5,Français,f,10,1.0,36.73554264,1.2686095
5ec454e23d68ea32ee554d12,53,1,2024-02-28T14:29:41.850Z,english_826.wav,0,pill,422,38,4,5,Français,f,11,1.09391667,99.18694211,1.14436626
5ec454e23d68ea32ee554d12,54,1,2024-02-28T14:29:41.850Z,english_168.wav,0,pill,645,38,4,5,Français,f,0,0.0,-2.82851798,0.84695831
5ec454e23d68ea32ee554d12,54,1,2024-02-28T14:29:41.850Z,english_168.wav,0,pill,645,38,4,5,Français,f,1,0.1,47.00857465,0.31778045
5ec454e23d68ea32ee554d12,54,1,2024-02-28T14:29:41.850Z,english_168.wav,0,pill,645,38,4,5,Français,f,2,0.2,-17.58347791,1.27812293
5ec454e23d68ea32ee554d12,54,1,2024-02-28T14:29:41.850Z,english_168.wav,0,pill,645,38,4,5,Français,f,3,0.3,-13.31715429,0.74038461
5ec454e23d68ea32ee554d12,54,1,2024-02-28T14:29:41.850Z,english_168.wav,0,pill,645,38,4,5,Français,f,4,0.4,32.59893477,0.53430653
5ec454e23d68ea32ee554d12,54,1,2024-02-28T14:29:41.850Z,english_168.wav,0,pill,645,38,4,5,Français,f,5,0.5,97.16584938,0.39836338
5ec454e23d68ea32ee554d12,54,1,2024-02-28T14:29:41.850Z,english_168.wav,0,pill,645,38,4,5,Français,f,6,0.6,-13.44636048,1.18595545
5ec454e23d68ea32ee554d12,54,1,2024-02-28T14:29:41.850Z,english_168.wav,0,pill,645,38,4,5,Français,f,7,0.7,9.9504683,1.40244409
5ec454e23d68ea32ee554d12,54,1,2024-02-28T14:29:41.850Z,english_168.wav,0,pill,645,38,4,5,Français,f,8,0.8,45.41604728,0.07499365
5ec454e23d68ea32ee554d12,54,1,2024-02-28T14:29:41.850Z,english_168.wav,0,pill,645,38,4,5,Français,f,9,0.9,-79.49961867,0.73784136
5ec454e23d68ea32ee554d12,54,1,2024-02-28T14:29:41.850Z,english_168.wav,0,pill,645,38,4,5,Français,f,10,1.0,35.96813383,1.37065847
5ec454e23d68ea32ee554d12,54,1,2024-02-28T14:29:41.850Z,english_168.wav,0,pill,645,38,4,5,Français,f,11,1.09391667,-86.51274139,0.67911571
5ec454e23d68ea32ee554d12,55,1,2024-02-28T14:29:41.850Z,english_325.wav,0,pill,554,38,4,5,Français,f,0,0.0,-6.61362073,0.69132615
5ec454e23d68ea32ee554d12,55,1,2024-02-28T14:29:41.850Z,english_325.wav,0,pill,554,38,4,5,Français,f,1,0.1,16.0389953,1.70453966
5ec454e23d68ea32ee554d12,55,1,2024-02-28T14:29:41.850Z,english_325.wav,0,pill,554,38,4,5,Français,f,2,0.2,-15.26495654,1.15898488
5ec454e23d68ea32ee554d12,55,1,2024-02-28T14:29:41.850Z,english_325.wav,0,pill,554,38,4,5,Français,f,3,0.3,-82.62165142,0.76725677
5ec454e23d68ea32ee554d12,55,1,2024-02-28T14:29:41.850Z,english_325.wav,0,pill,554,38,4,5,Français,f,4,0.4,85.7387579,1.1728167
5ec454e23d68ea32ee554d12,55,1,2024-02-28T14:29:41.850Z,english_325.wav,0,pill,554,38,4,5,Français,f,5,0.5,15.3822882,1.82028555
5ec454e23d68ea32ee554d12,55,1,2024-02-28T14:29:41.850Z,english_325.wav,0,pill,554,38,4,5,Français,f,6,0.6,-26.54266781,1.83292981
5ec454e23d68ea32ee554d12,55,1,2024-02-28T14:29:41.850Z,english_325.wav,0,pill,554,38,4,5,Français,f,7,0.7,-60.18579541,1.929681
5ec454e23d68ea32ee554d12,55,1,2024-02-28T14:29:41.850Z,english_325.wav,0,pill,554,38,4,5,Français,f,8,0.8,-28.6472792,0.83713433
5ec454e23d68ea32ee554d12,55,1,2024-02-28T14:29:41.850Z,english_325.wav,0,pill,554,38,4,5,Français,f,9,0.9,66.02417384,0.85579123
5ec454e23d68ea32ee554d12,55,1,2024-02-28T14:29:41.850Z,english_325.wav,0,pill,554,38,4,5,Français,f,10,1.0,39.52898261,1.16758419
5ec454e23d68ea32ee554d12,55,1,2024-02-28T14:29:41.850Z,english_325.wav,0,pill,554,38,4,5,Français,f,11,1.09391667,-19.70187517,1.84761063
5ec454e23d68ea32ee554d12,56,1,2024-02-28T14:29:41.850Z,english_607.wav,0,pill,558,38,4,5,Français,f,0,0.0,0.27599318,1.85195662
5ec454e23d68ea32ee554d12,56,1,2024-02-28T14:29:41.850Z,english_607.wav,0,pill,558,38,4,5,Français,f,1,0.1,61.54655284,0.01211705
5ec454e23d68ea32ee554d12,56,1,2024-02-28T14:29:41.850Z,english_607.wav,0,pill,558,38,4,5,Français,f,2,0.2,-45.68438061,1.01527113
5ec454e23d68ea32ee554d12,56,1,2024-02-28T14:29:41.850Z,english_607.wav,0,pill,558,38,4,5,Français,f,3,0.3,-56.50831868,0.58104245
5ec454e23d68ea32ee554d12,56,1,2024-02-28T14:29:41.850Z,english_607.wav,0,pill,558,38,4,5,Français,f,4,0.4,15.2577286,0.36467608
5ec454e23d68ea32ee554d12,56,1,2024-02-28T14:29:41.850Z,english_607.wav,0,pill,558,38,4,5,Français,f,5,0.5,-52.12017374,0.76758339
5ec454e23d68ea32ee554d12,56,1,2024-02-28T14:29:41.850Z,english_607.wav,0,pill,558,38,4,5,Français,f,6,0.6,97.83272545,1.21313057
5ec454e23d68ea32ee554d12,56,1,2024-02-28T14:29:41.850Z,english_607.wav,0,pill,558,38,4,5,Français,f,7,0.7,7.21834566,1.69539972
5ec454e23d68ea32ee554d12,56,1,2024-02-28T14:29:41.850Z,english_607.wav,0,pill,558,38,4,5,Français,f,8,0.8,8.71902974,0.38171646
5ec454e23d68ea32ee554d12,56,1,2024-02-28T14:29:41.850Z,english_607.wav,0,pill,558,38,4,5,Français,f,9,0.9,84.51998902,1.4848349
5ec454e23d68ea32ee554d12,56,1,2024-02-28T14:29:41.850Z,english_607.wav,0,pill,558,38,4,5,Français,f,10,1.0,-21.50673836,0.84163241
5ec454e23d68ea32ee554d12,56,1,2024-02-28T14:29:41.850Z,english_607.wav,0,pill,558,38,4,5,Français,f,11,1.09391667,68.90809966,0.34247873
5ec454e23d68ea32ee554d12,57,1,2024-02-28T14:29:41.850Z,english_884.wav,0,peel,387,38,4,5,Français,f,0,0.0,-26.7986483,0.93358525
5ec454e23d68ea32ee554d12,57,1,2024-02-28T14:29:41.850Z,english_884.wav,0,peel,387,38,4,5,Français,f,1,0.1,-20.57946037,0.61599081
5ec454e23d68ea32ee554d12,57,1,2024-02-28T14:29:41.850Z,english_884.wav,0,peel,387,38,4,5,Français,f,2,0.2,-14.61918651,1.88488325
5ec454e23d68ea32ee554d12,57,1,2024-02-28T14:29:41.850Z,english_884.wav,0,peel,387,38,4,5,Français,f,3,0.3,-54.80261731,0.21075836
5ec454e23d68ea32ee554d12,57,1,2024-02-28T14:29:41.850Z,english_884.wav,0,peel,387,38,4,5,Français,f,4,0.4,32.41231837,0.52073008
5ec454e23d68ea32ee554d12,57,1,2024-02-28T14:29:41.850Z,english_884.wav,0,peel,387,38,4,5,Français,f,5,0.5,22.58711785,1.07474078
5ec454e23d68ea32ee554d12,57,1,2024-02-28T14:29:41.850Z,english_884.wav,0,peel,387,38,4,5,Français,f,6,0.6,-23.74471885,1.54114542
5ec454e23d68ea32ee554d12,57,1,2024-02-28T14:29:41.850Z,english_884.wav,0,peel,387,38,4,5,Français,f,7,0.7,0.47861234,0.96193885
5ec454e23d68ea32ee554d12,57,1,2024-02-28T14:29:41.850Z,english_884.wav,0,peel,387,38,4,5,Français,f,8,0.8,-1.79385185,0.3951249
5ec454e23d68ea32ee554d12,57,1,2024-02-28T14:29:41.850Z,english_884.wav,0,peel,387,38,4,5,Français,f,9,0.9,-17.00071045,1.98003937
5ec454e23d68ea32ee554d12,57,1,2024-02-28T14:29:41.850Z,english_884.wav,0,peel,387,38,4,5,Français,f,10,1.0,12.5163052,0.39843766
5ec454e23d68ea32ee554d12,57,1,2024-02-28T14:29:41.850Z,english_884.wav,0,peel,387,38,4,5,Français,f,11,1.09391667,-96.33383281,1.06218732
5ec454e23d68ea32ee554d12,58,1,2024-02-28T14:29:41.850Z,english_176.wav,0,pill,541,38,4,5,Français,f,0,0.0,-29.79812822,0.43469721
5ec454e23d68ea32ee554d12,58,1,2024-02-28T14:29:41.850Z,english_176.wav,0,pill,541,38,4,5,Français,f,1,0.1,-16.19961317,0.8905279
5ec454e23d68ea32ee554d12,58,1,2024-02-28T14:29:41.850Z,english_176.wav,0,pill,541,38,4,5,Français,f,2,0.2,13.51202418,1.36195462
5ec454e23d68ea32ee554d12,58,1,2024-02-28T14:29:41.850Z,english_176.wav,0,pill,541,38,4,5,Français,f,3,0.3,10.74594974,0.86537329
5ec454e23d68ea32ee554d12,58,1,2024-02-28T14:29:41.850Z,english_176.wav,0,pill,541,38,4,5,Français,f,4,0.4,-52.94473426,0.61396379
5ec454e23d68ea32ee554d12,58,1,2024-02-28T14:29:41.850Z,english_176.wav,0,pill,541,38,4,5,Français,f,5,0.5,52.13031176,0.71790783
5ec454e23d68ea32ee554d12,58,1,2024-02-28T14:29:41.850Z,english_176.wav,0,pill,541,38,4,5,Français,f,6,0.6,75.74839712,1.10097826
5ec454e23d68ea32ee554d12,58,1,2024-02-28T14:29:41.850Z,english_176.wav,0,pill,541,38,4,5,Français,f,7,0.7,62.6882876,1.68067326
5ec454e23d68ea32ee554d12,58,1,2024-02-28T14:29:41.850Z,english_176.wav,0,pill,541,38,4,5,Français,f,8,0.8,-12.46472889,1.35151853
5ec454e23d68ea32ee554d12,58,1,2024-02-28T14:29:41.850Z,english_176.wav,0,pill,541,38,4,5,Français,f,9,0.9,74.66747541,0.28756574
5ec454e23d68ea32ee554d12,58,1,2024-02-28T14:29:41.850Z,english_176.wav,0,pill,541,38,4,5,Français,f,10,1.0,-22.48226553,0.36668304
5ec454e23d68ea32ee554d12,58,1,2024-02-28T14:29:41.850Z,english_176.wav,0,pill,541,38,4,5,Français,f,11,1.09391667,-36.55733652,1.35894928
5ec454e23d68ea32ee554d12,59,1,2024-02-28T14:29:41.850Z,english_154.wav,0,pill,1102,38,4,5,Français,f,0,0.0,50.07590523,1.91490825
5ec454e23d68ea32ee554d12,59,1,2024-02-28T14:29:41.850Z,english_154.wav,0,pill,1102,38,4,5,Français,f,1,0.1,54.36539589,1.49511577
5ec454e23d68ea32ee554d12,59,1,2024-02-28T14:29:41.850Z,english_154.wav,0,pill,1102,38,4,5,Français,f,2,0.2,-33.00647988,0.88521845
5ec454e23d68ea32ee554d12,59,1,2024-02-28T14:29:41.850Z,english_154.wav,0,pill,1102,38,4,5,Français,f,3,0.3,-21.71222975,1.92896632
5ec454e23d68ea32ee554d12,59,1,2024-02-28T14:29:41.850Z,english_154.wav,0,pill,1102,38,4,5,Français,f,4,0.4,-59.72627018,1.65018162
5ec454e23d68ea32ee554d12,59,1,2024-02-28T14:29:41.850Z,english_154.wav,0,pill,1102,38,4,5,Français,f,5,0.5,-65.27928089,0.16844772
5ec454e23d68ea32ee554d12,59,1,2024-02-28T14:29:41.850Z,english_154.wav,0,pill,1102,38,4,5,Français,f,6,0.6,25.37742378,1.26574184
5ec454e23d68ea32ee554d12,59,1,2024-02-28T14:29:41.850Z,english_154.wav,0,pill,1102,38,4,5,Français,f,7,0.7,7.20174616,1.59894503
5ec454e23d68ea32ee554d12,59,1,2024-02-28T14:29:41.850Z,english_154.wav,0,pill,1102,38,4,5,Français,f,8,0.8,-20.24283456,1.83170987
5ec454e23d68ea32ee554d12,59,1,2024-02-28T14:29:41.850Z,english_154.wav,0,pill,1102,38,4,5,Français,f,9,0.9,-23.90559996,1.31030459
5ec454e23d68ea32ee554d12,59,1,2024-02-28T14:29:41.850Z,english_154.wav,0,pill,1102,38,4,5,Français,f,10,1.0,71.61106984,0.51427228
5ec454e23d68ea32ee554d12,59,1,2024-02-28T14:29:41.850Z,english_154.wav,0,pill,1102,38,4,5,Français,f,11,1.09391667,25.6022542,1.19971073
5ec454e23d68ea32ee554d12,60,1,2024-02-28T14:29:41.850Z,english_808.wav,0,peel,475,38,4,5,Français,f,0,0.0,-54.51930087,0.8777304
5ec454e23d68ea32ee554d12,60,1,2024-02-28T14:29:41.850Z,english_808.wav,0,peel,475,38,4,5,Français,f,1,0.1,-81.0495762,1.15782472
5ec454e23d68ea32ee554d12,60,1,2024-02-28T14:29:41.850Z,english_808.wav,0,peel,475,38,4,5,Français,f,2,0.2,4.70470679,1.67617188
5ec454e23d68ea32ee554d12,60,1,2024-02-28T14:29:41.850Z,english_808.wav,0,peel,475,38,4,5,Français,f,3,0.3,56.77475896,0.46785173
5ec454e23d68ea32ee554d12,60,1,2024-02-28T14:29:41.850Z,english_808.wav,0,peel,475,38,4,5,Français,f,4,0.4,-45.19313698,1.34598798
5ec454e23d68ea32ee554d12,60,1,2024-02-28T14:29:41.850Z,english_808.wav,0,peel,475,38,4,5,Français,f,5,0.5,-12.85220206,1.21107636
5ec454e23d68ea32ee554d12,60,1,2024-02-28T14:29:41.850Z,english_808.wav,0,peel,475,38,4,5,Français,f,6,0.6,-3.64494866,0.33957231
5ec454e23d68ea32ee554d12,60,1,2024-02-28T14:29:41.850Z,english_808.wav,0,peel,475,38,4,5,Français,f,7,0.7,-54.59560116,1.78675234
5ec454e23d68ea32ee554d12,60,1,2024-02-28T14:29:41.850Z,english_808.wav,0,peel,475,38,4,5,Français,f,8,0.8,62.80587621,0.41874976
5ec454e23d68ea32ee554d12,60,1,2024-02-28T14:29:41.850Z,english_808.wav,0,peel,475,38,4,5,Français,f,9,0.9,41.76195467,0.58154764
5ec454e23d68ea32ee554d12,60,1,2024-02-28T14:29:41.850Z,english_808.wav,0,peel,475,38,4,5,Français,f,10,1.0,59.57414533,1.87307122
5ec454e23d68ea32ee554d12,60,1,2024-02-28T14:29:41.850Z,english_808.wav,0,peel,475,38,4,5,Français,f,11,1.09391667,-81.82049826,0.91565949
5ec454e23d68ea32ee554d12,61,1,2024-02-28T14:29:41.850Z,english_799.wav,0,pill,404,38,4,5,Français,f,0,0.0,20.93448877,0.48820712
5ec454e23d68ea32ee554d12,61,1,2024-02-28T14:29:41.850Z,english_799.wav,0,pill,404,38,4,5,Français,f,1,0.1,74.90549066,0.80562581
5ec454e23d68ea32ee554d12,61,1,2024-02-28T14:29:41.850Z,english_799.wav,0,pill,404,38,4,5,Français,f,2,0.2,79.35216778,1.19822254
5ec454e23d68ea32ee554d12,61,1,2024-02-28T14:29:41.850Z,english_799.wav,0,pill,404,38,4,5,Français,f,3,0.3,-10.62506754,1.60128914
5ec454e23d68ea32ee554d12,61,1,2024-02-28T14:29:41.850Z,english_799.wav,0,pill,404,38,4,5,Français,f,4,0.4,6.33564747,0.01319764
5ec454e23d68ea32ee554d12,61,1,2024-02-28T14:29:41.850Z,english_799.wav,0,pill,404,38,4,5,Français,f,5,0.5,90.41443979,1.72553046
5ec454e23d68ea32ee554d12,61,1,2024-02-28T14:29:41.850Z,english_799.wav,0,pill,404,38,4,5,Français,f,6,0.6,-60.57880503,1.2547609
5ec454e23d68ea32ee554d12,61,1,2024-02-28T14:29:41.850Z,english_799.wav,0,pill,404,38,4,5,Français,f,7,0.7,9.86229071,0.74830712
5ec454e23d68ea32ee554d12,61,1,2024-02-28T14:29:41.850Z,english_799.wav,0,pill,404,38,4,5,Français,f,8,0.8,-45.57695026,0.71080767
5ec454e23d68ea32ee554d12,61,1,2024-02-28T14:29:41.850Z,english_799.wav,0,pill,404,38,4,5,Français,f,9,0.9,4.80419962,0.83933205
5ec454e23d68ea32ee554d12,61,1,2024-02-28T14:29:41.850Z,english_799.wav,0,pill,404,38,4,5,Français,f,10,1.0,49.35310044,0.24394342
5ec454e23d68ea32ee554d12,61,1,2024-02-28T14:29:41.850Z,english_799.wav,0,pill,404,38,4,5,Français,f,11,1.09391667,82.63345718,0.9569793
5ec454e23d68ea32ee554d12,62,1,2024-02-28T14:29:41.850Z,english_221.wav,0,peel,456,38,4,5,Français,f,0,0.0,51.59419639,1.60301685
5ec454e23d68ea32ee554d12,62,1,2024-02-28T14:29:41.850Z,english_221.wav,0,peel,456,38,4,5,Français,f,1,0.1,28.26132642,0.83573739
5ec454e23d68ea32ee554d12,62,1,2024-02-28T14:29:41.850Z,english_221.wav,0,peel,456,38,4,5,Français,f,2,0.2,-34.94147144,0.93704217
5ec454e23d68ea32ee554d12,62,1,2024-02-28T14:29:41.850Z,english_221.wav,0,peel,456,38,4,5,Français,f,3,0.3,-31.96211967,0.88555826
5ec454e23d68ea32ee554d12,62,1,2024-02-28T14:29:41.850Z,english_221.wav,0,peel,456,38,4,5,Français,f,4,0.4,27.55850985,0.5651105
5ec454e23d68ea32ee554d12,62,1,2024-02-28T14:29:41.850Z,english_221.wav,0,peel,456,38,4,5,Français,f,5,0.5,97.12748538,1.50042712
5ec454e23d68ea32ee554d12,62,1,2024-02-28T14:29:41.850Z,english_221.wav,0,peel,456,38,4,5,Français,f,6,0.6,-87.99836205,1.37940743
5ec454e23d68ea32ee554d12,62,1,2024-02-28T14:29:41.850Z,english_221.wav,0,peel,456,38,4,5,Français,f,7,0.7,-54.93495001,1.56054558
5ec454e23d68ea32ee554d12,62,1,2024-02-28T14:29:41.850Z,english_221.wav,0,peel,456,38,4,5,Français,f,8,0.8,-48.43567063,0.7980345
5ec454e23d68ea32ee554d12,62,1,2024-02-28T14:29:41.850Z,english_221.wav,0,peel,456,38,4,5,Français,f,9,0.9,-35.77267917,1.82401387
5ec454e23d68ea32ee554d12,62,1,2024-02-28T14:29:41.850Z,english_221.wav,0,peel,456,38,4,5,Français,f,10,1.0,16.39753123,0.17969474
5ec454e23d68ea32ee554d12,62,1,2024-02-28T14:29:41.850Z,english_221.wav,0,peel,456,38,4,5,Français,f,11,1.09391667,10.18788165,1.97856764
5ec454e23d68ea32ee554d12,63,1,2024-02-28T14:29:41.850Z,english_911.wav,0,peel,542,38,4,5,Français,f,0,0.0,97.74431138,1.45295226
5ec454e23d68ea32ee554d12,63,1,2024-02-28T14:29:41.850Z,english_911.wav,0,peel,542,38,4,5,Français,f,1,0.1,63.25353714,0.52934156
5ec454e23d68ea32ee554d12,63,1,2024-02-28T14:29:41.850Z,english_911.wav,0,peel,542,38,4,5,Français,f,2,0.2,31.76873058,1.12978313
5ec454e23d68ea32ee554d12,63,1,2024-02-28T14:29:41.850Z,english_911.wav,0,peel,542,38,4,5,Français,f,3,0.3,-80.65515271,0.46492479
5ec454e23d68ea32ee554d12,63,1,2024-02-28T14:29:41.850Z,english_911.wav,0,peel,542,38,4,5,Français,f,4,0.4,87.72308134,1.65576631
5ec454e23d68ea32ee554d12,63,1,2024-02-28T14:29:41.850Z,english_911.wav,0,peel,542,38,4,5,Français,f,5,0.5,-43.90030619,0.95301179
5ec454e23d68ea32ee554d12,63,1,2024-02-28T14:29:41.850Z,english_911.wav,0,peel,542,38,4,5,Français,f,6,0.6,-96.43392939,1.98033305
5ec454e23d68ea32ee554d12,63,1,2024-02-28T14:29:41.850Z,english_911.wav,0,peel,542,38,4,5,Français,f,7,0.7,-95.09691132,0.56650122
5ec454e23d68ea32ee554d12,63,1,2024-02-28T14:29:41.850Z,english_911.wav,0,peel,542,38,4,5,Français,f,8,0.8,7.77484736,1.59543029
5ec454e23d68ea32ee554d12,63,1,2024-02-28T14:29:41.850Z,english_911.wav,0,peel,542,38,4,5,Français,f,9,0.9,12.16907111,1.97260423
5ec454e23d68ea32ee554d12,63,1,2024-02-28T14:29:41.850Z,english_911.wav,0,peel,542,38,4,5,Français,f,10,1.0,33.87787458,1.68149339
5ec454e23d68ea32ee554d12,63,1,2024-02-28T14:29:41.850Z,english_911.wav,0,peel,542,38,4,5,Français,f,11,1.09391667,10.13841493,1.03055348
5ec454e23d68ea32ee554d12,64,1,2024-02-28T14:29:41.850Z,english_688.wav,0,pill,595,38,4,5,Français,f,0,0.0,-29.94010546,0.64779988
