subj,trial,block,date,stim,stim_order,response,rt,age,english,french,language,sex,param_index,segment,pitch,stretch
6155a4dec04439eaed63abdc,0,0,2024-02-28T14:46:08.127Z,english_788.wav,0,peel,3394,37,4,5,Français ,m,0,0.0,17.89309058,1.04861509
6155a4dec04439eaed63abdc,0,0,2024-02-28T14:46:08.127Z,english_788.wav,0,peel,3394,37,4,5,Français ,m,1,0.1,71.29743237,1.67595733
6155a4dec04439eaed63abdc,0,0,2024-02-28T14:46:08.127Z,english_788.wav,0,peel,3394,37,4,5,Français ,m,2,0.2,-58.86773575,0.86315506
6155a4dec04439eaed63abdc,0,0,2024-02-28T14:46:08.127Z,english_788.wav,0,peel,3394,37,4,5,Français ,m,3,0.3,-79.26718247,0.41984481
6155a4dec04439eaed63abdc,0,0,2024-02-28T14:46:08.127Z,english_788.wav,0,peel,3394,37,4,5,Français ,m,4,0.4,35.72874859,0.95404094
6155a4dec04439eaed63abdc,0,0,2024-02-28T14:46:08.127Z,english_788.wav,0,peel,3394,37,4,5,Français ,m,5,0.5,-14.77309026,0.45544588
6155a4dec04439eaed63abdc,0,0,2024-02-28T14:46:08.127Z,english_788.wav,0,peel,3394,37,4,5,Français ,m,6,0.6,-78.45807111,0.07788433
6155a4dec04439eaed63abdc,0,0,2024-02-28T14:46:08.127Z,english_788.wav,0,peel,3394,37,4,5,Français ,m,7,0.7,40.66379457,0.7267532
6155a4dec04439eaed63abdc,0,0,2024-02-28T14:46:08.127Z,english_788.wav,0,peel,3394,37,4,5,Français ,m,8,0.8,51.99524397,1.61048189
6155a4dec04439eaed63abdc,0,0,2024-02-28T14:46:08.127Z,english_788.wav,0,peel,3394,37,4,5,Français ,m,9,0.9,23.30304068,1.83471325
6155a4dec04439eaed63abdc,0,0,2024-02-28T14:46:08.127Z,english_788.wav,0,peel,3394,37,4,5,Français ,m,10,1.0,87.05916465,1.60214946
6155a4dec04439eaed63abdc,0,0,2024-02-28T14:46:08.127Z,english_788.wav,0,peel,3394,37,4,5,Français ,m,11,1.09391667,-42.18000877,1.51632908
6155a4dec04439eaed63abdc,1,0,2024-02-28T14:46:08.127Z,english_130.wav,0,peel,1967,37,4,5,Français ,m,0,0.0,63.22786083,1.15410046
6155a4dec04439eaed63abdc,1,0,2024-02-28T14:46:08.127Z,english_130.wav,0,peel,1967,37,4,5,Français ,m,1,0.1,87.85722404,0.37024368
6155a4dec04439eaed63abdc,1,0,2024-02-28T14:46:08.127Z,english_130.wav,0,peel,1967,37,4,5,Français ,m,2,0.2,-11.67996756,1.81334
6155a4dec04439eaed63abdc,1,0,2024-02-28T14:46:08.127Z,english_130.wav,0,peel,1967,37,4,5,Français ,m,3,0.3,-61.23287213,1.04249546
6155a4dec04439eaed63abdc,1,0,2024-02-28T14:46:08.127Z,english_130.wav,0,peel,1967,37,4,5,Français ,m,4,0.4,31.74111168,0.8243923
6155a4dec04439eaed63abdc,1,0,2024-02-28T14:46:08.127Z,english_130.wav,0,peel,1967,37,4,5,Français ,m,5,0.5,33.84141617,1.89113742
6155a4dec04439eaed63abdc,1,0,2024-02-28T14:46:08.127Z,english_130.wav,0,peel,1967,37,4,5,Français ,m,6,0.6,19.96692936,0.69337223
6155a4dec04439eaed63abdc,1,0,2024-02-28T14:46:08.127Z,english_130.wav,0,peel,1967,37,4,5,Français ,m,7,0.7,-37.06015238,1.01307283
6155a4dec04439eaed63abdc,1,0,2024-02-28T14:46:08.127Z,english_130.wav,0,peel,1967,37,4,5,Français ,m,8,0.8,53.30817693,0.67908163
6155a4dec04439eaed63abdc,1,0,2024-02-28T14:46:08.127Z,english_130.wav,0,peel,1967,37,4,5,Français ,m,9,0.9,56.319569,0.07541053
6155a4dec04439eaed63abdc,1,0,2024-02-28T14:46:08.127Z,english_130.wav,0,peel,1967,37,4,5,Français ,m,10,1.0,38.79278484,1.95325555
6155a4dec04439eaed63abdc,1,0,2024-02-28T14:46:08.127Z,english_130.wav,0,peel,1967,37,4,5,Français ,m,11,1.09391667,-4.91911249,0.98387982
6155a4dec04439eaed63abdc,2,0,2024-02-28T14:46:08.127Z,english_694.wav,0,pill,2289,37,4,5,Français ,m,0,0.0,28.89643962,0.23097519
6155a4dec04439eaed63abdc,2,0,2024-02-28T14:46:08.127Z,english_694.wav,0,pill,2289,37,4,5,Français ,m,1,0.1,-44.49941165,1.12594213
6155a4dec04439eaed63abdc,2,0,2024-02-28T14:46:08.127Z,english_694.wav,0,pill,2289,37,4,5,Français ,m,2,0.2,60.6754056,1.01502789
6155a4dec04439eaed63abdc,2,0,2024-02-28T14:46:08.127Z,english_694.wav,0,pill,2289,37,4,5,Français ,m,3,0.3,72.66869222,0.55545347
6155a4dec04439eaed63abdc,2,0,2024-02-28T14:46:08.127Z,english_694.wav,0,pill,2289,37,4,5,Français ,m,4,0.4,26.91102981,0.313515
6155a4dec04439eaed63abdc,2,0,2024-02-28T14:46:08.127Z,english_694.wav,0,pill,2289,37,4,5,Français ,m,5,0.5,-19.36398165,0.8133174
6155a4dec04439eaed63abdc,2,0,2024-02-28T14:46:08.127Z,english_694.wav,0,pill,2289,37,4,5,Français ,m,6,0.6,83.61982614,0.08479119
6155a4dec04439eaed63abdc,2,0,2024-02-28T14:46:08.127Z,english_694.wav,0,pill,2289,37,4,5,Français ,m,7,0.7,-93.83830037,1.36590055
6155a4dec04439eaed63abdc,2,0,2024-02-28T14:46:08.127Z,english_694.wav,0,pill,2289,37,4,5,Français ,m,8,0.8,-41.75440855,1.50882856
6155a4dec04439eaed63abdc,2,0,2024-02-28T14:46:08.127Z,english_694.wav,0,pill,2289,37,4,5,Français ,m,9,0.9,-17.17525064,1.54263899
6155a4dec04439eaed63abdc,2,0,2024-02-28T14:46:08.127Z,english_694.wav,0,pill,2289,37,4,5,Français ,m,10,1.0,5.88397372,1.28663395
6155a4dec04439eaed63abdc,2,0,2024-02-28T14:46:08.127Z,english_694.wav,0,pill,2289,37,4,5,Français ,m,11,1.09391667,84.29938157,0.05122723
6155a4dec04439eaed63abdc,3,0,2024-02-28T14:46:08.127Z,english_903.wav,0,pill,2013,37,4,5,Français ,m,0,0.0,74.40610552,1.10397813
6155a4dec04439eaed63abdc,3,0,2024-02-28T14:46:08.127Z,english_903.wav,0,pill,2013,37,4,5,Français ,m,1,0.1,-14.0058198,0.67044391
6155a4dec04439eaed63abdc,3,0,2024-02-28T14:46:08.127Z,english_903.wav,0,pill,2013,37,4,5,Français ,m,2,0.2,-43.18870249,1.06331023
6155a4dec04439eaed63abdc,3,0,2024-02-28T14:46:08.127Z,english_903.wav,0,pill,2013,37,4,5,Français ,m,3,0.3,85.51038869,0.60586728
6155a4dec04439eaed63abdc,3,0,2024-02-28T14:46:08.127Z,english_903.wav,0,pill,2013,37,4,5,Français ,m,4,0.4,8.36930428,0.11380816
6155a4dec04439eaed63abdc,3,0,2024-02-28T14:46:08.127Z,english_903.wav,0,pill,2013,37,4,5,Français ,m,5,0.5,-11.10468326,1.21530961
6155a4dec04439eaed63abdc,3,0,2024-02-28T14:46:08.127Z,english_903.wav,0,pill,2013,37,4,5,Français ,m,6,0.6,0.77760872,1.48658081
6155a4dec04439eaed63abdc,3,0,2024-02-28T14:46:08.127Z,english_903.wav,0,pill,2013,37,4,5,Français ,m,7,0.7,61.82804998,1.41412243
6155a4dec04439eaed63abdc,3,0,2024-02-28T14:46:08.127Z,english_903.wav,0,pill,2013,37,4,5,Français ,m,8,0.8,-21.718638,0.93606202
6155a4dec04439eaed63abdc,3,0,2024-02-28T14:46:08.127Z,english_903.wav,0,pill,2013,37,4,5,Français ,m,9,0.9,-41.58529941,0.40038549
6155a4dec04439eaed63abdc,3,0,2024-02-28T14:46:08.127Z,english_903.wav,0,pill,2013,37,4,5,Français ,m,10,1.0,22.99211782,0.6748387
6155a4dec04439eaed63abdc,3,0,2024-02-28T14:46:08.127Z,english_903.wav,0,pill,2013,37,4,5,Français ,m,11,1.09391667,-96.82772328,0.72929926
6155a4dec04439eaed63abdc,4,0,2024-02-28T14:46:08.127Z,english_857.wav,0,pill,1932,37,4,5,Français ,m,0,0.0,-56.93168928,1.92395656
6155a4dec04439eaed63abdc,4,0,2024-02-28T14:46:08.127Z,english_857.wav,0,pill,1932,37,4,5,Français ,m,1,0.1,-40.57515649,1.41156549
6155a4dec04439eaed63abdc,4,0,2024-02-28T14:46:08.127Z,english_857.wav,0,pill,1932,37,4,5,Français ,m,2,0.2,-26.26283105,0.14185194
6155a4dec04439eaed63abdc,4,0,2024-02-28T14:46:08.127Z,english_857.wav,0,pill,1932,37,4,5,Français ,m,3,0.3,-49.62797955,1.1985334
6155a4dec04439eaed63abdc,4,0,2024-02-28T14:46:08.127Z,english_857.wav,0,pill,1932,37,4,5,Français ,m,4,0.4,47.07146778,0.83326814
6155a4dec04439eaed63abdc,4,0,2024-02-28T14:46:08.127Z,english_857.wav,0,pill,1932,37,4,5,Français ,m,5,0.5,-96.41882062,0.71224123
6155a4dec04439eaed63abdc,4,0,2024-02-28T14:46:08.127Z,english_857.wav,0,pill,1932,37,4,5,Français ,m,6,0.6,63.09662026,1.58040322
6155a4dec04439eaed63abdc,4,0,2024-02-28T14:46:08.127Z,english_857.wav,0,pill,1932,37,4,5,Français ,m,7,0.7,98.67053018,1.02327595
6155a4dec04439eaed63abdc,4,0,2024-02-28T14:46:08.127Z,english_857.wav,0,pill,1932,37,4,5,Français ,m,8,0.8,-56.85749065,1.48703987
6155a4dec04439eaed63abdc,4,0,2024-02-28T14:46:08.127Z,english_857.wav,0,pill,1932,37,4,5,Français ,m,9,0.9,-18.03690135,0.70290333
6155a4dec04439eaed63abdc,4,0,2024-02-28T14:46:08.127Z,english_857.wav,0,pill,1932,37,4,5,Français ,m,10,1.0,52.13097753,0.53460392
6155a4dec04439eaed63abdc,4,0,2024-02-28T14:46:08.127Z,english_857.wav,0,pill,1932,37,4,5,Français ,m,11,1.09391667,52.54650928,1.10851945
6155a4dec04439eaed63abdc,5,0,2024-02-28T14:46:08.127Z,english_214.wav,0,pill,627,37,4,5,Français ,m,0,0.0,77.66249847,1.66443393
6155a4dec04439eaed63abdc,5,0,2024-02-28T14:46:08.127Z,english_214.wav,0,pill,627,37,4,5,Français ,m,1,0.1,-66.26077856,1.37654428
6155a4dec04439eaed63abdc,5,0,2024-02-28T14:46:08.127Z,english_214.wav,0,pill,627,37,4,5,Français ,m,2,0.2,-51.4922282,1.40712663
6155a4dec04439eaed63abdc,5,0,2024-02-28T14:46:08.127Z,english_214.wav,0,pill,627,37,4,5,Français ,m,3,0.3,14.18659261,0.14412451
6155a4dec04439eaed63abdc,5,0,2024-02-28T14:46:08.127Z,english_214.wav,0,pill,627,37,4,5,Français ,m,4,0.4,-48.84743407,0.91551293
6155a4dec04439eaed63abdc,5,0,2024-02-28T14:46:08.127Z,english_214.wav,0,pill,627,37,4,5,Français ,m,5,0.5,19.47798934,0.32690142
6155a4dec04439eaed63abdc,5,0,2024-02-28T14:46:08.127Z,english_214.wav,0,pill,627,37,4,5,Français ,m,6,0.6,30.92446632,1.55465622
6155a4dec04439eaed63abdc,5,0,2024-02-28T14:46:08.127Z,english_214.wav,0,pill,627,37,4,5,Français ,m,7,0.7,-20.72955743,0.81533764
6155a4dec04439eaed63abdc,5,0,2024-02-28T14:46:08.127Z,english_214.wav,0,pill,627,37,4,5,Français ,m,8,0.8,-84.03788896,1.36872512
6155a4dec04439eaed63abdc,5,0,2024-02-28T14:46:08.127Z,english_214.wav,0,pill,627,37,4,5,Français ,m,9,0.9,1.19993411,0.61257248
6155a4dec04439eaed63abdc,5,0,2024-02-28T14:46:08.127Z,english_214.wav,0,pill,627,37,4,5,Français ,m,10,1.0,-10.67189742,1.2492197
6155a4dec04439eaed63abdc,5,0,2024-02-28T14:46:08.127Z,english_214.wav,0,pill,627,37,4,5,Français ,m,11,1.09391667,76.51495677,1.13872638
6155a4dec04439eaed63abdc,6,0,2024-02-28T14:46:08.127Z,english_226.wav,0,peel,1602,37,4,5,Français ,m,0,0.0,98.43255035,0.1861089
6155a4dec04439eaed63abdc,6,0,2024-02-28T14:46:08.127Z,english_226.wav,0,peel,1602,37,4,5,Français ,m,1,0.1,23.16871923,1.79682409
6155a4dec04439eaed63abdc,6,0,2024-02-28T14:46:08.127Z,english_226.wav,0,peel,1602,37,4,5,Français ,m,2,0.2,-3.17590314,0.62264246
6155a4dec04439eaed63abdc,6,0,2024-02-28T14:46:08.127Z,english_226.wav,0,peel,1602,37,4,5,Français ,m,3,0.3,99.80077362,0.77697044
6155a4dec04439eaed63abdc,6,0,2024-02-28T14:46:08.127Z,english_226.wav,0,peel,1602,37,4,5,Français ,m,4,0.4,-24.84472991,0.40647993
6155a4dec04439eaed63abdc,6,0,2024-02-28T14:46:08.127Z,english_226.wav,0,peel,1602,37,4,5,Français ,m,5,0.5,-71.24957961,0.2976559
6155a4dec04439eaed63abdc,6,0,2024-02-28T14:46:08.127Z,english_226.wav,0,peel,1602,37,4,5,Français ,m,6,0.6,65.30269432,1.34176321
6155a4dec04439eaed63abdc,6,0,2024-02-28T14:46:08.127Z,english_226.wav,0,peel,1602,37,4,5,Français ,m,7,0.7,72.52720516,1.5087957
6155a4dec04439eaed63abdc,6,0,2024-02-28T14:46:08.127Z,english_226.wav,0,peel,1602,37,4,5,Français ,m,8,0.8,-90.19894531,1.69033096
6155a4dec04439eaed63abdc,6,0,2024-02-28T14:46:08.127Z,english_226.wav,0,peel,1602,37,4,5,Français ,m,9,0.9,11.74226894,0.35382167
6155a4dec04439eaed63abdc,6,0,2024-02-28T14:46:08.127Z,english_226.wav,0,peel,1602,37,4,5,Français ,m,10,1.0,-32.60755552,1.3177586
6155a4dec04439eaed63abdc,6,0,2024-02-28T14:46:08.127Z,english_226.wav,0,peel,1602,37,4,5,Français ,m,11,1.09391667,10.41380533,0.38575288
6155a4dec04439eaed63abdc,7,0,2024-02-28T14:46:08.127Z,english_181.wav,0,pill,1653,37,4,5,Français ,m,0,0.0,-0.97272984,0.61376697
6155a4dec04439eaed63abdc,7,0,2024-02-28T14:46:08.127Z,english_181.wav,0,pill,1653,37,4,5,Français ,m,1,0.1,-77.78814802,0.85355331
6155a4dec04439eaed63abdc,7,0,2024-02-28T14:46:08.127Z,english_181.wav,0,pill,1653,37,4,5,Français ,m,2,0.2,30.93073149,1.49426592
6155a4dec04439eaed63abdc,7,0,2024-02-28T14:46:08.127Z,english_181.wav,0,pill,1653,37,4,5,Français ,m,3,0.3,-15.42483918,1.18212422
6155a4dec04439eaed63abdc,7,0,2024-02-28T14:46:08.127Z,english_181.wav,0,pill,1653,37,4,5,Français ,m,4,0.4,25.76707037,1.41051316
6155a4dec04439eaed63abdc,7,0,2024-02-28T14:46:08.127Z,english_181.wav,0,pill,1653,37,4,5,Français ,m,5,0.5,-29.04038637,0.72870407
6155a4dec04439eaed63abdc,7,0,2024-02-28T14:46:08.127Z,english_181.wav,0,pill,1653,37,4,5,Français ,m,6,0.6,13.2566372,0.94615724
6155a4dec04439eaed63abdc,7,0,2024-02-28T14:46:08.127Z,english_181.wav,0,pill,1653,37,4,5,Français ,m,7,0.7,83.86524807,0.24258424
6155a4dec04439eaed63abdc,7,0,2024-02-28T14:46:08.127Z,english_181.wav,0,pill,1653,37,4,5,Français ,m,8,0.8,13.33685446,1.00008676
6155a4dec04439eaed63abdc,7,0,2024-02-28T14:46:08.127Z,english_181.wav,0,pill,1653,37,4,5,Français ,m,9,0.9,15.31267769,0.92341919
6155a4dec04439eaed63abdc,7,0,2024-02-28T14:46:08.127Z,english_181.wav,0,pill,1653,37,4,5,Français ,m,10,1.0,-61.51651878,0.15563028
6155a4dec04439eaed63abdc,7,0,2024-02-28T14:46:08.127Z,english_181.wav,0,pill,1653,37,4,5,Français ,m,11,1.09391667,11.45529288,0.83237058
6155a4dec04439eaed63abdc,8,0,2024-02-28T14:46:08.127Z,english_176.wav,0,pill,1971,37,4,5,Français ,m,0,0.0,-29.79812822,0.43469721
6155a4dec04439eaed63abdc,8,0,2024-02-28T14:46:08.127Z,english_176.wav,0,pill,1971,37,4,5,Français ,m,1,0.1,-16.19961317,0.8905279
6155a4dec04439eaed63abdc,8,0,2024-02-28T14:46:08.127Z,english_176.wav,0,pill,1971,37,4,5,Français ,m,2,0.2,13.51202418,1.36195462
6155a4dec04439eaed63abdc,8,0,2024-02-28T14:46:08.127Z,english_176.wav,0,pill,1971,37,4,5,Français ,m,3,0.3,10.74594974,0.86537329
6155a4dec04439eaed63abdc,8,0,2024-02-28T14:46:08.127Z,english_176.wav,0,pill,1971,37,4,5,Français ,m,4,0.4,-52.94473426,0.61396379
6155a4dec04439eaed63abdc,8,0,2024-02-28T14:46:08.127Z,english_176.wav,0,pill,1971,37,4,5,Français ,m,5,0.5,52.13031176,0.71790783
6155a4dec04439eaed63abdc,8,0,2024-02-28T14:46:08.127Z,english_176.wav,0,pill,1971,37,4,5,Français ,m,6,0.6,75.74839712,1.10097826
6155a4dec04439eaed63abdc,8,0,2024-02-28T14:46:08.127Z,english_176.wav,0,pill,1971,37,4,5,Français ,m,7,0.7,62.6882876,1.68067326
6155a4dec04439eaed63abdc,8,0,2024-02-28T14:46:08.127Z,english_176.wav,0,pill,1971,37,4,5,Français ,m,8,0.8,-12.46472889,1.35151853
6155a4dec04439eaed63abdc,8,0,2024-02-28T14:46:08.127Z,english_176.wav,0,pill,1971,37,4,5,Français ,m,9,0.9,74.66747541,0.28756574
6155a4dec04439eaed63abdc,8,0,2024-02-28T14:46:08.127Z,english_176.wav,0,pill,1971,37,4,5,Français ,m,10,1.0,-22.48226553,0.36668304
6155a4dec04439eaed63abdc,8,0,2024-02-28T14:46:08.127Z,english_176.wav,0,pill,1971,37,4,5,Français ,m,11,1.09391667,-36.55733652,1.35894928
6155a4dec04439eaed63abdc,9,0,2024-02-28T14:46:08.127Z,english_476.wav,0,peel,3215,37,4,5,Français ,m,0,0.0,44.69659717,1.41297837
6155a4dec04439eaed63abdc,9,0,2024-02-28T14:46:08.127Z,english_476.wav,0,peel,3215,37,4,5,Français ,m,1,0.1,-34.716814,1.05145195
6155a4dec04439eaed63abdc,9,0,2024-02-28T14:46:08.127Z,english_476.wav,0,peel,3215,37,4,5,Français ,m,2,0.2,-37.83043351,0.94681533
6155a4dec04439eaed63abdc,9,0,2024-02-28T14:46:08.127Z,english_476.wav,0,peel,3215,37,4,5,Français ,m,3,0.3,-62.93772859,1.38886049
6155a4dec04439eaed63abdc,9,0,2024-02-28T14:46:08.127Z,english_476.wav,0,peel,3215,37,4,5,Français ,m,4,0.4,29.80105548,0.50983073
6155a4dec04439eaed63abdc,9,0,2024-02-28T14:46:08.127Z,english_476.wav,0,peel,3215,37,4,5,Français ,m,5,0.5,-19.93397346,0.87963627
6155a4dec04439eaed63abdc,9,0,2024-02-28T14:46:08.127Z,english_476.wav,0,peel,3215,37,4,5,Français ,m,6,0.6,-81.51838574,0.37083783
6155a4dec04439eaed63abdc,9,0,2024-02-28T14:46:08.127Z,english_476.wav,0,peel,3215,37,4,5,Français ,m,7,0.7,-13.12417842,1.60201274
6155a4dec04439eaed63abdc,9,0,2024-02-28T14:46:08.127Z,english_476.wav,0,peel,3215,37,4,5,Français ,m,8,0.8,-49.11622946,0.02246419
6155a4dec04439eaed63abdc,9,0,2024-02-28T14:46:08.127Z,english_476.wav,0,peel,3215,37,4,5,Français ,m,9,0.9,-40.62215118,1.35146298
6155a4dec04439eaed63abdc,9,0,2024-02-28T14:46:08.127Z,english_476.wav,0,peel,3215,37,4,5,Français ,m,10,1.0,-29.85989769,1.39707139
6155a4dec04439eaed63abdc,9,0,2024-02-28T14:46:08.127Z,english_476.wav,0,peel,3215,37,4,5,Français ,m,11,1.09391667,-46.8973955,0.19828042
6155a4dec04439eaed63abdc,10,0,2024-02-28T14:46:08.127Z,english_772.wav,0,peel,451,37,4,5,Français ,m,0,0.0,-98.58408334,0.99511883
6155a4dec04439eaed63abdc,10,0,2024-02-28T14:46:08.127Z,english_772.wav,0,peel,451,37,4,5,Français ,m,1,0.1,-61.87034705,1.73357078
6155a4dec04439eaed63abdc,10,0,2024-02-28T14:46:08.127Z,english_772.wav,0,peel,451,37,4,5,Français ,m,2,0.2,-18.09819366,0.0586696
6155a4dec04439eaed63abdc,10,0,2024-02-28T14:46:08.127Z,english_772.wav,0,peel,451,37,4,5,Français ,m,3,0.3,12.3782964,0.06385699
6155a4dec04439eaed63abdc,10,0,2024-02-28T14:46:08.127Z,english_772.wav,0,peel,451,37,4,5,Français ,m,4,0.4,-22.02938965,1.69798328
6155a4dec04439eaed63abdc,10,0,2024-02-28T14:46:08.127Z,english_772.wav,0,peel,451,37,4,5,Français ,m,5,0.5,59.95527001,1.42811841
6155a4dec04439eaed63abdc,10,0,2024-02-28T14:46:08.127Z,english_772.wav,0,peel,451,37,4,5,Français ,m,6,0.6,-20.50157966,1.57518039
6155a4dec04439eaed63abdc,10,0,2024-02-28T14:46:08.127Z,english_772.wav,0,peel,451,37,4,5,Français ,m,7,0.7,-21.89990222,1.02318801
6155a4dec04439eaed63abdc,10,0,2024-02-28T14:46:08.127Z,english_772.wav,0,peel,451,37,4,5,Français ,m,8,0.8,25.10186839,0.72889481
6155a4dec04439eaed63abdc,10,0,2024-02-28T14:46:08.127Z,english_772.wav,0,peel,451,37,4,5,Français ,m,9,0.9,-9.02191032,0.61952628
6155a4dec04439eaed63abdc,10,0,2024-02-28T14:46:08.127Z,english_772.wav,0,peel,451,37,4,5,Français ,m,10,1.0,-16.49784397,1.31221342
6155a4dec04439eaed63abdc,10,0,2024-02-28T14:46:08.127Z,english_772.wav,0,peel,451,37,4,5,Français ,m,11,1.09391667,-42.94184761,1.78690458
6155a4dec04439eaed63abdc,11,0,2024-02-28T14:46:08.127Z,english_502.wav,0,peel,344,37,4,5,Français ,m,0,0.0,57.69639955,1.15234611
6155a4dec04439eaed63abdc,11,0,2024-02-28T14:46:08.127Z,english_502.wav,0,peel,344,37,4,5,Français ,m,1,0.1,28.96096349,1.67970143
6155a4dec04439eaed63abdc,11,0,2024-02-28T14:46:08.127Z,english_502.wav,0,peel,344,37,4,5,Français ,m,2,0.2,-5.93680221,0.71376986
6155a4dec04439eaed63abdc,11,0,2024-02-28T14:46:08.127Z,english_502.wav,0,peel,344,37,4,5,Français ,m,3,0.3,-9.12517159,0.49125702
6155a4dec04439eaed63abdc,11,0,2024-02-28T14:46:08.127Z,english_502.wav,0,peel,344,37,4,5,Français ,m,4,0.4,44.04961264,0.39874308
6155a4dec04439eaed63abdc,11,0,2024-02-28T14:46:08.127Z,english_502.wav,0,peel,344,37,4,5,Français ,m,5,0.5,84.4955788,0.1440426
6155a4dec04439eaed63abdc,11,0,2024-02-28T14:46:08.127Z,english_502.wav,0,peel,344,37,4,5,Français ,m,6,0.6,97.09857183,1.53167879
6155a4dec04439eaed63abdc,11,0,2024-02-28T14:46:08.127Z,english_502.wav,0,peel,344,37,4,5,Français ,m,7,0.7,99.13853902,1.52730171
6155a4dec04439eaed63abdc,11,0,2024-02-28T14:46:08.127Z,english_502.wav,0,peel,344,37,4,5,Français ,m,8,0.8,91.26297662,0.65970293
6155a4dec04439eaed63abdc,11,0,2024-02-28T14:46:08.127Z,english_502.wav,0,peel,344,37,4,5,Français ,m,9,0.9,17.95296758,0.91797137
6155a4dec04439eaed63abdc,11,0,2024-02-28T14:46:08.127Z,english_502.wav,0,peel,344,37,4,5,Français ,m,10,1.0,-98.67508596,1.57983796
6155a4dec04439eaed63abdc,11,0,2024-02-28T14:46:08.127Z,english_502.wav,0,peel,344,37,4,5,Français ,m,11,1.09391667,-78.95703283,0.77767597
6155a4dec04439eaed63abdc,12,0,2024-02-28T14:46:08.127Z,english_385.wav,0,pill,733,37,4,5,Français ,m,0,0.0,0.33828369,0.38016584
6155a4dec04439eaed63abdc,12,0,2024-02-28T14:46:08.127Z,english_385.wav,0,pill,733,37,4,5,Français ,m,1,0.1,2.41058867,1.8714009
6155a4dec04439eaed63abdc,12,0,2024-02-28T14:46:08.127Z,english_385.wav,0,pill,733,37,4,5,Français ,m,2,0.2,-12.54892467,0.45382881
6155a4dec04439eaed63abdc,12,0,2024-02-28T14:46:08.127Z,english_385.wav,0,pill,733,37,4,5,Français ,m,3,0.3,-41.7912056,1.31398474
6155a4dec04439eaed63abdc,12,0,2024-02-28T14:46:08.127Z,english_385.wav,0,pill,733,37,4,5,Français ,m,4,0.4,-44.49264688,1.04402362
6155a4dec04439eaed63abdc,12,0,2024-02-28T14:46:08.127Z,english_385.wav,0,pill,733,37,4,5,Français ,m,5,0.5,0.14407831,0.57870544
6155a4dec04439eaed63abdc,12,0,2024-02-28T14:46:08.127Z,english_385.wav,0,pill,733,37,4,5,Français ,m,6,0.6,-25.57843431,1.74841786
6155a4dec04439eaed63abdc,12,0,2024-02-28T14:46:08.127Z,english_385.wav,0,pill,733,37,4,5,Français ,m,7,0.7,-39.2816597,1.62984391
6155a4dec04439eaed63abdc,12,0,2024-02-28T14:46:08.127Z,english_385.wav,0,pill,733,37,4,5,Français ,m,8,0.8,-88.59516391,0.16451748
6155a4dec04439eaed63abdc,12,0,2024-02-28T14:46:08.127Z,english_385.wav,0,pill,733,37,4,5,Français ,m,9,0.9,-28.05531573,0.80459877
6155a4dec04439eaed63abdc,12,0,2024-02-28T14:46:08.127Z,english_385.wav,0,pill,733,37,4,5,Français ,m,10,1.0,-37.07272381,0.03974207
6155a4dec04439eaed63abdc,12,0,2024-02-28T14:46:08.127Z,english_385.wav,0,pill,733,37,4,5,Français ,m,11,1.09391667,-61.44238802,1.20121467
6155a4dec04439eaed63abdc,13,0,2024-02-28T14:46:08.127Z,english_929.wav,0,pill,542,37,4,5,Français ,m,0,0.0,-18.74393268,1.03205893
6155a4dec04439eaed63abdc,13,0,2024-02-28T14:46:08.127Z,english_929.wav,0,pill,542,37,4,5,Français ,m,1,0.1,33.5098218,1.56324899
6155a4dec04439eaed63abdc,13,0,2024-02-28T14:46:08.127Z,english_929.wav,0,pill,542,37,4,5,Français ,m,2,0.2,-29.94782209,1.48903241
6155a4dec04439eaed63abdc,13,0,2024-02-28T14:46:08.127Z,english_929.wav,0,pill,542,37,4,5,Français ,m,3,0.3,-33.25977884,0.12654912
6155a4dec04439eaed63abdc,13,0,2024-02-28T14:46:08.127Z,english_929.wav,0,pill,542,37,4,5,Français ,m,4,0.4,-9.01985938,0.84484029
6155a4dec04439eaed63abdc,13,0,2024-02-28T14:46:08.127Z,english_929.wav,0,pill,542,37,4,5,Français ,m,5,0.5,-82.73987875,0.94715121
6155a4dec04439eaed63abdc,13,0,2024-02-28T14:46:08.127Z,english_929.wav,0,pill,542,37,4,5,Français ,m,6,0.6,48.07587241,1.69154368
6155a4dec04439eaed63abdc,13,0,2024-02-28T14:46:08.127Z,english_929.wav,0,pill,542,37,4,5,Français ,m,7,0.7,-43.15088987,0.81126675
6155a4dec04439eaed63abdc,13,0,2024-02-28T14:46:08.127Z,english_929.wav,0,pill,542,37,4,5,Français ,m,8,0.8,82.92488977,0.36905029
6155a4dec04439eaed63abdc,13,0,2024-02-28T14:46:08.127Z,english_929.wav,0,pill,542,37,4,5,Français ,m,9,0.9,-60.38444868,0.50874334
6155a4dec04439eaed63abdc,13,0,2024-02-28T14:46:08.127Z,english_929.wav,0,pill,542,37,4,5,Français ,m,10,1.0,27.71416794,0.95284967
6155a4dec04439eaed63abdc,13,0,2024-02-28T14:46:08.127Z,english_929.wav,0,pill,542,37,4,5,Français ,m,11,1.09391667,21.92497573,0.65099343
6155a4dec04439eaed63abdc,14,0,2024-02-28T14:46:08.127Z,english_585.wav,0,pill,397,37,4,5,Français ,m,0,0.0,-86.93944466,0.1588986
6155a4dec04439eaed63abdc,14,0,2024-02-28T14:46:08.127Z,english_585.wav,0,pill,397,37,4,5,Français ,m,1,0.1,-97.95669785,0.38183266
6155a4dec04439eaed63abdc,14,0,2024-02-28T14:46:08.127Z,english_585.wav,0,pill,397,37,4,5,Français ,m,2,0.2,35.19908461,0.20642212
6155a4dec04439eaed63abdc,14,0,2024-02-28T14:46:08.127Z,english_585.wav,0,pill,397,37,4,5,Français ,m,3,0.3,66.00378301,1.21146119
6155a4dec04439eaed63abdc,14,0,2024-02-28T14:46:08.127Z,english_585.wav,0,pill,397,37,4,5,Français ,m,4,0.4,10.9229126,0.35502735
6155a4dec04439eaed63abdc,14,0,2024-02-28T14:46:08.127Z,english_585.wav,0,pill,397,37,4,5,Français ,m,5,0.5,72.37678619,1.56586524
6155a4dec04439eaed63abdc,14,0,2024-02-28T14:46:08.127Z,english_585.wav,0,pill,397,37,4,5,Français ,m,6,0.6,-57.08192974,1.83214489
6155a4dec04439eaed63abdc,14,0,2024-02-28T14:46:08.127Z,english_585.wav,0,pill,397,37,4,5,Français ,m,7,0.7,-77.39915084,0.43697271
6155a4dec04439eaed63abdc,14,0,2024-02-28T14:46:08.127Z,english_585.wav,0,pill,397,37,4,5,Français ,m,8,0.8,38.55710496,0.35169773
6155a4dec04439eaed63abdc,14,0,2024-02-28T14:46:08.127Z,english_585.wav,0,pill,397,37,4,5,Français ,m,9,0.9,-27.16276528,1.49983702
6155a4dec04439eaed63abdc,14,0,2024-02-28T14:46:08.127Z,english_585.wav,0,pill,397,37,4,5,Français ,m,10,1.0,46.25769813,0.51254386
6155a4dec04439eaed63abdc,14,0,2024-02-28T14:46:08.127Z,english_585.wav,0,pill,397,37,4,5,Français ,m,11,1.09391667,-14.18587881,0.12379544
6155a4dec04439eaed63abdc,15,0,2024-02-28T14:46:08.127Z,english_59.wav,0,pill,1567,37,4,5,Français ,m,0,0.0,13.6818357,1.39102809
6155a4dec04439eaed63abdc,15,0,2024-02-28T14:46:08.127Z,english_59.wav,0,pill,1567,37,4,5,Français ,m,1,0.1,-62.28772111,1.7641323
6155a4dec04439eaed63abdc,15,0,2024-02-28T14:46:08.127Z,english_59.wav,0,pill,1567,37,4,5,Français ,m,2,0.2,49.12418905,1.93370096
6155a4dec04439eaed63abdc,15,0,2024-02-28T14:46:08.127Z,english_59.wav,0,pill,1567,37,4,5,Français ,m,3,0.3,-11.37021527,1.41546104
6155a4dec04439eaed63abdc,15,0,2024-02-28T14:46:08.127Z,english_59.wav,0,pill,1567,37,4,5,Français ,m,4,0.4,-54.18333873,1.8712645
6155a4dec04439eaed63abdc,15,0,2024-02-28T14:46:08.127Z,english_59.wav,0,pill,1567,37,4,5,Français ,m,5,0.5,89.00177849,1.58142361
6155a4dec04439eaed63abdc,15,0,2024-02-28T14:46:08.127Z,english_59.wav,0,pill,1567,37,4,5,Français ,m,6,0.6,-39.13145847,1.31038649
6155a4dec04439eaed63abdc,15,0,2024-02-28T14:46:08.127Z,english_59.wav,0,pill,1567,37,4,5,Français ,m,7,0.7,-8.40184911,1.79881342
6155a4dec04439eaed63abdc,15,0,2024-02-28T14:46:08.127Z,english_59.wav,0,pill,1567,37,4,5,Français ,m,8,0.8,-34.91016987,0.00761053
6155a4dec04439eaed63abdc,15,0,2024-02-28T14:46:08.127Z,english_59.wav,0,pill,1567,37,4,5,Français ,m,9,0.9,92.47037208,0.77279167
6155a4dec04439eaed63abdc,15,0,2024-02-28T14:46:08.127Z,english_59.wav,0,pill,1567,37,4,5,Français ,m,10,1.0,91.56160698,0.86326769
6155a4dec04439eaed63abdc,15,0,2024-02-28T14:46:08.127Z,english_59.wav,0,pill,1567,37,4,5,Français ,m,11,1.09391667,-64.52293265,1.19458968
6155a4dec04439eaed63abdc,16,0,2024-02-28T14:46:08.127Z,english_2.wav,0,pill,630,37,4,5,Français ,m,0,0.0,41.22215969,0.59226954
6155a4dec04439eaed63abdc,16,0,2024-02-28T14:46:08.127Z,english_2.wav,0,pill,630,37,4,5,Français ,m,1,0.1,63.4325041,1.70689004
6155a4dec04439eaed63abdc,16,0,2024-02-28T14:46:08.127Z,english_2.wav,0,pill,630,37,4,5,Français ,m,2,0.2,30.26698033,1.70278764
6155a4dec04439eaed63abdc,16,0,2024-02-28T14:46:08.127Z,english_2.wav,0,pill,630,37,4,5,Français ,m,3,0.3,-42.97414703,0.93211278
6155a4dec04439eaed63abdc,16,0,2024-02-28T14:46:08.127Z,english_2.wav,0,pill,630,37,4,5,Français ,m,4,0.4,78.73420301,0.75985414
6155a4dec04439eaed63abdc,16,0,2024-02-28T14:46:08.127Z,english_2.wav,0,pill,630,37,4,5,Français ,m,5,0.5,98.07294335,1.00279357
6155a4dec04439eaed63abdc,16,0,2024-02-28T14:46:08.127Z,english_2.wav,0,pill,630,37,4,5,Français ,m,6,0.6,-11.43066233,1.68044469
6155a4dec04439eaed63abdc,16,0,2024-02-28T14:46:08.127Z,english_2.wav,0,pill,630,37,4,5,Français ,m,7,0.7,98.59484661,1.4408376
6155a4dec04439eaed63abdc,16,0,2024-02-28T14:46:08.127Z,english_2.wav,0,pill,630,37,4,5,Français ,m,8,0.8,5.98934189,0.34467269
6155a4dec04439eaed63abdc,16,0,2024-02-28T14:46:08.127Z,english_2.wav,0,pill,630,37,4,5,Français ,m,9,0.9,12.71998757,0.3933307
6155a4dec04439eaed63abdc,16,0,2024-02-28T14:46:08.127Z,english_2.wav,0,pill,630,37,4,5,Français ,m,10,1.0,80.81444137,0.30092676
6155a4dec04439eaed63abdc,16,0,2024-02-28T14:46:08.127Z,english_2.wav,0,pill,630,37,4,5,Français ,m,11,1.09391667,-65.72418196,0.87599386
6155a4dec04439eaed63abdc,17,0,2024-02-28T14:46:08.127Z,english_400.wav,0,peel,754,37,4,5,Français ,m,0,0.0,-25.02230777,0.48486425
6155a4dec04439eaed63abdc,17,0,2024-02-28T14:46:08.127Z,english_400.wav,0,peel,754,37,4,5,Français ,m,1,0.1,49.22110948,0.13954262
6155a4dec04439eaed63abdc,17,0,2024-02-28T14:46:08.127Z,english_400.wav,0,peel,754,37,4,5,Français ,m,2,0.2,-25.24422823,0.30114108
6155a4dec04439eaed63abdc,17,0,2024-02-28T14:46:08.127Z,english_400.wav,0,peel,754,37,4,5,Français ,m,3,0.3,-67.45566663,0.1192849
6155a4dec04439eaed63abdc,17,0,2024-02-28T14:46:08.127Z,english_400.wav,0,peel,754,37,4,5,Français ,m,4,0.4,-45.51948519,1.32093998
6155a4dec04439eaed63abdc,17,0,2024-02-28T14:46:08.127Z,english_400.wav,0,peel,754,37,4,5,Français ,m,5,0.5,-18.6326315,1.53333364
6155a4dec04439eaed63abdc,17,0,2024-02-28T14:46:08.127Z,english_400.wav,0,peel,754,37,4,5,Français ,m,6,0.6,39.79801231,1.63066866
6155a4dec04439eaed63abdc,17,0,2024-02-28T14:46:08.127Z,english_400.wav,0,peel,754,37,4,5,Français ,m,7,0.7,-16.89099315,1.10413319
6155a4dec04439eaed63abdc,17,0,2024-02-28T14:46:08.127Z,english_400.wav,0,peel,754,37,4,5,Français ,m,8,0.8,73.50338814,1.82884713
6155a4dec04439eaed63abdc,17,0,2024-02-28T14:46:08.127Z,english_400.wav,0,peel,754,37,4,5,Français ,m,9,0.9,34.20665044,0.24999453
6155a4dec04439eaed63abdc,17,0,2024-02-28T14:46:08.127Z,english_400.wav,0,peel,754,37,4,5,Français ,m,10,1.0,43.60884608,0.44753764
6155a4dec04439eaed63abdc,17,0,2024-02-28T14:46:08.127Z,english_400.wav,0,peel,754,37,4,5,Français ,m,11,1.09391667,-63.62307837,1.09142561
6155a4dec04439eaed63abdc,18,0,2024-02-28T14:46:08.127Z,english_166.wav,0,peel,451,37,4,5,Français ,m,0,0.0,-22.47224396,0.79935629
6155a4dec04439eaed63abdc,18,0,2024-02-28T14:46:08.127Z,english_166.wav,0,peel,451,37,4,5,Français ,m,1,0.1,8.34418228,1.08766258
6155a4dec04439eaed63abdc,18,0,2024-02-28T14:46:08.127Z,english_166.wav,0,peel,451,37,4,5,Français ,m,2,0.2,-26.80375044,0.88793969
6155a4dec04439eaed63abdc,18,0,2024-02-28T14:46:08.127Z,english_166.wav,0,peel,451,37,4,5,Français ,m,3,0.3,-25.22426401,1.85581966
6155a4dec04439eaed63abdc,18,0,2024-02-28T14:46:08.127Z,english_166.wav,0,peel,451,37,4,5,Français ,m,4,0.4,-44.17860095,1.74261815
6155a4dec04439eaed63abdc,18,0,2024-02-28T14:46:08.127Z,english_166.wav,0,peel,451,37,4,5,Français ,m,5,0.5,-7.8395137,0.67828824
6155a4dec04439eaed63abdc,18,0,2024-02-28T14:46:08.127Z,english_166.wav,0,peel,451,37,4,5,Français ,m,6,0.6,42.03338864,0.30993225
6155a4dec04439eaed63abdc,18,0,2024-02-28T14:46:08.127Z,english_166.wav,0,peel,451,37,4,5,Français ,m,7,0.7,50.48936268,1.83209491
6155a4dec04439eaed63abdc,18,0,2024-02-28T14:46:08.127Z,english_166.wav,0,peel,451,37,4,5,Français ,m,8,0.8,-79.33283531,1.96795539
6155a4dec04439eaed63abdc,18,0,2024-02-28T14:46:08.127Z,english_166.wav,0,peel,451,37,4,5,Français ,m,9,0.9,57.67304972,0.73278394
6155a4dec04439eaed63abdc,18,0,2024-02-28T14:46:08.127Z,english_166.wav,0,peel,451,37,4,5,Français ,m,10,1.0,75.92662412,1.69577801
6155a4dec04439eaed63abdc,18,0,2024-02-28T14:46:08.127Z,english_166.wav,0,peel,451,37,4,5,Français ,m,11,1.09391667,-5.06556073,0.31756742
6155a4dec04439eaed63abdc,19,0,2024-02-28T14:46:08.127Z,english_933.wav,0,peel,1784,37,4,5,Français ,m,0,0.0,-32.55224072,0.19221515
6155a4dec04439eaed63abdc,19,0,2024-02-28T14:46:08.127Z,english_933.wav,0,peel,1784,37,4,5,Français ,m,1,0.1,59.44257797,1.43025401
6155a4dec04439eaed63abdc,19,0,2024-02-28T14:46:08.127Z,english_933.wav,0,peel,1784,37,4,5,Français ,m,2,0.2,17.39690353,1.54503316
6155a4dec04439eaed63abdc,19,0,2024-02-28T14:46:08.127Z,english_933.wav,0,peel,1784,37,4,5,Français ,m,3,0.3,-22.68529576,0.8626505
6155a4dec04439eaed63abdc,19,0,2024-02-28T14:46:08.127Z,english_933.wav,0,peel,1784,37,4,5,Français ,m,4,0.4,-75.07818399,0.16630427
6155a4dec04439eaed63abdc,19,0,2024-02-28T14:46:08.127Z,english_933.wav,0,peel,1784,37,4,5,Français ,m,5,0.5,-42.21384225,0.04785165
6155a4dec04439eaed63abdc,19,0,2024-02-28T14:46:08.127Z,english_933.wav,0,peel,1784,37,4,5,Français ,m,6,0.6,88.28795698,0.15375828
6155a4dec04439eaed63abdc,19,0,2024-02-28T14:46:08.127Z,english_933.wav,0,peel,1784,37,4,5,Français ,m,7,0.7,-93.76467276,0.19154161
6155a4dec04439eaed63abdc,19,0,2024-02-28T14:46:08.127Z,english_933.wav,0,peel,1784,37,4,5,Français ,m,8,0.8,-63.09167857,1.95653775
6155a4dec04439eaed63abdc,19,0,2024-02-28T14:46:08.127Z,english_933.wav,0,peel,1784,37,4,5,Français ,m,9,0.9,42.2087571,0.40020781
6155a4dec04439eaed63abdc,19,0,2024-02-28T14:46:08.127Z,english_933.wav,0,peel,1784,37,4,5,Français ,m,10,1.0,48.07358396,0.86859993
6155a4dec04439eaed63abdc,19,0,2024-02-28T14:46:08.127Z,english_933.wav,0,peel,1784,37,4,5,Français ,m,11,1.09391667,62.42851897,1.49244645
6155a4dec04439eaed63abdc,20,0,2024-02-28T14:46:08.127Z,english_209.wav,0,pill,735,37,4,5,Français ,m,0,0.0,-69.97643607,1.01752059
6155a4dec04439eaed63abdc,20,0,2024-02-28T14:46:08.127Z,english_209.wav,0,pill,735,37,4,5,Français ,m,1,0.1,-88.52393114,0.50741315
6155a4dec04439eaed63abdc,20,0,2024-02-28T14:46:08.127Z,english_209.wav,0,pill,735,37,4,5,Français ,m,2,0.2,-92.64381406,1.61277815
6155a4dec04439eaed63abdc,20,0,2024-02-28T14:46:08.127Z,english_209.wav,0,pill,735,37,4,5,Français ,m,3,0.3,-12.19607679,1.4872908
6155a4dec04439eaed63abdc,20,0,2024-02-28T14:46:08.127Z,english_209.wav,0,pill,735,37,4,5,Français ,m,4,0.4,51.51628924,0.5793757
6155a4dec04439eaed63abdc,20,0,2024-02-28T14:46:08.127Z,english_209.wav,0,pill,735,37,4,5,Français ,m,5,0.5,-0.64468501,0.52779709
6155a4dec04439eaed63abdc,20,0,2024-02-28T14:46:08.127Z,english_209.wav,0,pill,735,37,4,5,Français ,m,6,0.6,71.59302863,0.0231703
6155a4dec04439eaed63abdc,20,0,2024-02-28T14:46:08.127Z,english_209.wav,0,pill,735,37,4,5,Français ,m,7,0.7,-9.81029184,1.34840208
6155a4dec04439eaed63abdc,20,0,2024-02-28T14:46:08.127Z,english_209.wav,0,pill,735,37,4,5,Français ,m,8,0.8,-24.63818078,0.66467052
6155a4dec04439eaed63abdc,20,0,2024-02-28T14:46:08.127Z,english_209.wav,0,pill,735,37,4,5,Français ,m,9,0.9,-3.20105403,0.39411628
6155a4dec04439eaed63abdc,20,0,2024-02-28T14:46:08.127Z,english_209.wav,0,pill,735,37,4,5,Français ,m,10,1.0,34.64482647,0.07463584
6155a4dec04439eaed63abdc,20,0,2024-02-28T14:46:08.127Z,english_209.wav,0,pill,735,37,4,5,Français ,m,11,1.09391667,-96.73374827,1.52336413
6155a4dec04439eaed63abdc,21,0,2024-02-28T14:46:08.127Z,english_535.wav,0,peel,1052,37,4,5,Français ,m,0,0.0,-4.00375318,0.74823916
6155a4dec04439eaed63abdc,21,0,2024-02-28T14:46:08.127Z,english_535.wav,0,peel,1052,37,4,5,Français ,m,1,0.1,-37.57387138,0.9109632
6155a4dec04439eaed63abdc,21,0,2024-02-28T14:46:08.127Z,english_535.wav,0,peel,1052,37,4,5,Français ,m,2,0.2,-31.12595353,0.84755902
6155a4dec04439eaed63abdc,21,0,2024-02-28T14:46:08.127Z,english_535.wav,0,peel,1052,37,4,5,Français ,m,3,0.3,2.06341331,1.09662022
6155a4dec04439eaed63abdc,21,0,2024-02-28T14:46:08.127Z,english_535.wav,0,peel,1052,37,4,5,Français ,m,4,0.4,56.11576492,0.26254995
6155a4dec04439eaed63abdc,21,0,2024-02-28T14:46:08.127Z,english_535.wav,0,peel,1052,37,4,5,Français ,m,5,0.5,30.13214978,1.29967994
6155a4dec04439eaed63abdc,21,0,2024-02-28T14:46:08.127Z,english_535.wav,0,peel,1052,37,4,5,Français ,m,6,0.6,14.78197265,1.50452532
6155a4dec04439eaed63abdc,21,0,2024-02-28T14:46:08.127Z,english_535.wav,0,peel,1052,37,4,5,Français ,m,7,0.7,-18.38930177,1.51808924
6155a4dec04439eaed63abdc,21,0,2024-02-28T14:46:08.127Z,english_535.wav,0,peel,1052,37,4,5,Français ,m,8,0.8,-10.54396075,0.34439234
6155a4dec04439eaed63abdc,21,0,2024-02-28T14:46:08.127Z,english_535.wav,0,peel,1052,37,4,5,Français ,m,9,0.9,39.09773013,0.86790386
6155a4dec04439eaed63abdc,21,0,2024-02-28T14:46:08.127Z,english_535.wav,0,peel,1052,37,4,5,Français ,m,10,1.0,46.13111143,0.86784134
6155a4dec04439eaed63abdc,21,0,2024-02-28T14:46:08.127Z,english_535.wav,0,peel,1052,37,4,5,Français ,m,11,1.09391667,-64.44597459,0.57511998
6155a4dec04439eaed63abdc,22,0,2024-02-28T14:46:08.127Z,english_406.wav,0,pill,624,37,4,5,Français ,m,0,0.0,16.41054839,1.82011871
6155a4dec04439eaed63abdc,22,0,2024-02-28T14:46:08.127Z,english_406.wav,0,pill,624,37,4,5,Français ,m,1,0.1,-23.44264217,1.5788444
6155a4dec04439eaed63abdc,22,0,2024-02-28T14:46:08.127Z,english_406.wav,0,pill,624,37,4,5,Français ,m,2,0.2,67.00437835,0.98241909
6155a4dec04439eaed63abdc,22,0,2024-02-28T14:46:08.127Z,english_406.wav,0,pill,624,37,4,5,Français ,m,3,0.3,32.24147439,1.73565394
6155a4dec04439eaed63abdc,22,0,2024-02-28T14:46:08.127Z,english_406.wav,0,pill,624,37,4,5,Français ,m,4,0.4,-69.94095423,0.23880913
6155a4dec04439eaed63abdc,22,0,2024-02-28T14:46:08.127Z,english_406.wav,0,pill,624,37,4,5,Français ,m,5,0.5,-75.95608649,1.64825439
6155a4dec04439eaed63abdc,22,0,2024-02-28T14:46:08.127Z,english_406.wav,0,pill,624,37,4,5,Français ,m,6,0.6,26.64856795,1.51416343
6155a4dec04439eaed63abdc,22,0,2024-02-28T14:46:08.127Z,english_406.wav,0,pill,624,37,4,5,Français ,m,7,0.7,28.46707033,0.23765412
6155a4dec04439eaed63abdc,22,0,2024-02-28T14:46:08.127Z,english_406.wav,0,pill,624,37,4,5,Français ,m,8,0.8,8.57252797,0.78664096
6155a4dec04439eaed63abdc,22,0,2024-02-28T14:46:08.127Z,english_406.wav,0,pill,624,37,4,5,Français ,m,9,0.9,-43.42045484,1.03412093
6155a4dec04439eaed63abdc,22,0,2024-02-28T14:46:08.127Z,english_406.wav,0,pill,624,37,4,5,Français ,m,10,1.0,-38.23728815,1.06202892
6155a4dec04439eaed63abdc,22,0,2024-02-28T14:46:08.127Z,english_406.wav,0,pill,624,37,4,5,Français ,m,11,1.09391667,-48.66780803,0.40663901
6155a4dec04439eaed63abdc,23,0,2024-02-28T14:46:08.127Z,english_703.wav,0,pill,540,37,4,5,Français ,m,0,0.0,78.46017663,1.67482732
6155a4dec04439eaed63abdc,23,0,2024-02-28T14:46:08.127Z,english_703.wav,0,pill,540,37,4,5,Français ,m,1,0.1,78.89990628,0.94697422
6155a4dec04439eaed63abdc,23,0,2024-02-28T14:46:08.127Z,english_703.wav,0,pill,540,37,4,5,Français ,m,2,0.2,1.22121352,1.07367108
6155a4dec04439eaed63abdc,23,0,2024-02-28T14:46:08.127Z,english_703.wav,0,pill,540,37,4,5,Français ,m,3,0.3,-13.66512032,0.83871506
6155a4dec04439eaed63abdc,23,0,2024-02-28T14:46:08.127Z,english_703.wav,0,pill,540,37,4,5,Français ,m,4,0.4,59.78772349,1.95413199
6155a4dec04439eaed63abdc,23,0,2024-02-28T14:46:08.127Z,english_703.wav,0,pill,540,37,4,5,Français ,m,5,0.5,33.72988184,1.09413462
6155a4dec04439eaed63abdc,23,0,2024-02-28T14:46:08.127Z,english_703.wav,0,pill,540,37,4,5,Français ,m,6,0.6,-23.35963014,0.42330202
6155a4dec04439eaed63abdc,23,0,2024-02-28T14:46:08.127Z,english_703.wav,0,pill,540,37,4,5,Français ,m,7,0.7,8.84013909,1.69590524
6155a4dec04439eaed63abdc,23,0,2024-02-28T14:46:08.127Z,english_703.wav,0,pill,540,37,4,5,Français ,m,8,0.8,-91.65457131,0.02701352
6155a4dec04439eaed63abdc,23,0,2024-02-28T14:46:08.127Z,english_703.wav,0,pill,540,37,4,5,Français ,m,9,0.9,-19.77683044,1.37794046
6155a4dec04439eaed63abdc,23,0,2024-02-28T14:46:08.127Z,english_703.wav,0,pill,540,37,4,5,Français ,m,10,1.0,93.0408658,1.99856472
6155a4dec04439eaed63abdc,23,0,2024-02-28T14:46:08.127Z,english_703.wav,0,pill,540,37,4,5,Français ,m,11,1.09391667,-46.92339825,0.84923666
6155a4dec04439eaed63abdc,24,0,2024-02-28T14:46:08.127Z,english_868.wav,0,peel,385,37,4,5,Français ,m,0,0.0,8.81168197,0.91928245
6155a4dec04439eaed63abdc,24,0,2024-02-28T14:46:08.127Z,english_868.wav,0,peel,385,37,4,5,Français ,m,1,0.1,28.82624603,1.1322176
6155a4dec04439eaed63abdc,24,0,2024-02-28T14:46:08.127Z,english_868.wav,0,peel,385,37,4,5,Français ,m,2,0.2,-13.41860503,0.903902
6155a4dec04439eaed63abdc,24,0,2024-02-28T14:46:08.127Z,english_868.wav,0,peel,385,37,4,5,Français ,m,3,0.3,-3.78239355,0.85237712
6155a4dec04439eaed63abdc,24,0,2024-02-28T14:46:08.127Z,english_868.wav,0,peel,385,37,4,5,Français ,m,4,0.4,-99.28888376,0.30528578
6155a4dec04439eaed63abdc,24,0,2024-02-28T14:46:08.127Z,english_868.wav,0,peel,385,37,4,5,Français ,m,5,0.5,97.17399406,0.73312891
6155a4dec04439eaed63abdc,24,0,2024-02-28T14:46:08.127Z,english_868.wav,0,peel,385,37,4,5,Français ,m,6,0.6,-7.91387191,1.49247212
6155a4dec04439eaed63abdc,24,0,2024-02-28T14:46:08.127Z,english_868.wav,0,peel,385,37,4,5,Français ,m,7,0.7,60.9049728,1.20652206
6155a4dec04439eaed63abdc,24,0,2024-02-28T14:46:08.127Z,english_868.wav,0,peel,385,37,4,5,Français ,m,8,0.8,-11.98639675,1.13523652
6155a4dec04439eaed63abdc,24,0,2024-02-28T14:46:08.127Z,english_868.wav,0,peel,385,37,4,5,Français ,m,9,0.9,-1.38257528,0.60296342
6155a4dec04439eaed63abdc,24,0,2024-02-28T14:46:08.127Z,english_868.wav,0,peel,385,37,4,5,Français ,m,10,1.0,25.89344048,0.75702193
6155a4dec04439eaed63abdc,24,0,2024-02-28T14:46:08.127Z,english_868.wav,0,peel,385,37,4,5,Français ,m,11,1.09391667,-40.04347975,0.87917509
6155a4dec04439eaed63abdc,25,0,2024-02-28T14:46:08.127Z,english_74.wav,0,pill,300,37,4,5,Français ,m,0,0.0,24.65162801,0.19950325
6155a4dec04439eaed63abdc,25,0,2024-02-28T14:46:08.127Z,english_74.wav,0,pill,300,37,4,5,Français ,m,1,0.1,-30.39880554,1.43111439
6155a4dec04439eaed63abdc,25,0,2024-02-28T14:46:08.127Z,english_74.wav,0,pill,300,37,4,5,Français ,m,2,0.2,-41.38450202,0.7414266
6155a4dec04439eaed63abdc,25,0,2024-02-28T14:46:08.127Z,english_74.wav,0,pill,300,37,4,5,Français ,m,3,0.3,31.11276598,1.07627737
6155a4dec04439eaed63abdc,25,0,2024-02-28T14:46:08.127Z,english_74.wav,0,pill,300,37,4,5,Français ,m,4,0.4,-57.65294567,1.92323622
6155a4dec04439eaed63abdc,25,0,2024-02-28T14:46:08.127Z,english_74.wav,0,pill,300,37,4,5,Français ,m,5,0.5,-51.69576528,1.17854767
6155a4dec04439eaed63abdc,25,0,2024-02-28T14:46:08.127Z,english_74.wav,0,pill,300,37,4,5,Français ,m,6,0.6,24.90932223,0.17974996
6155a4dec04439eaed63abdc,25,0,2024-02-28T14:46:08.127Z,english_74.wav,0,pill,300,37,4,5,Français ,m,7,0.7,-33.10450871,0.92482308
6155a4dec04439eaed63abdc,25,0,2024-02-28T14:46:08.127Z,english_74.wav,0,pill,300,37,4,5,Français ,m,8,0.8,-69.97293112,0.31413891
6155a4dec04439eaed63abdc,25,0,2024-02-28T14:46:08.127Z,english_74.wav,0,pill,300,37,4,5,Français ,m,9,0.9,88.74386832,1.87630938
6155a4dec04439eaed63abdc,25,0,2024-02-28T14:46:08.127Z,english_74.wav,0,pill,300,37,4,5,Français ,m,10,1.0,-68.30431972,1.39265686
6155a4dec04439eaed63abdc,25,0,2024-02-28T14:46:08.127Z,english_74.wav,0,pill,300,37,4,5,Français ,m,11,1.09391667,-30.20733398,0.32158433
6155a4dec04439eaed63abdc,26,0,2024-02-28T14:46:08.127Z,english_795.wav,0,peel,327,37,4,5,Français ,m,0,0.0,87.97989278,1.59591128
6155a4dec04439eaed63abdc,26,0,2024-02-28T14:46:08.127Z,english_795.wav,0,peel,327,37,4,5,Français ,m,1,0.1,-23.39853739,1.94488646
6155a4dec04439eaed63abdc,26,0,2024-02-28T14:46:08.127Z,english_795.wav,0,peel,327,37,4,5,Français ,m,2,0.2,85.15897758,0.62481037
6155a4dec04439eaed63abdc,26,0,2024-02-28T14:46:08.127Z,english_795.wav,0,peel,327,37,4,5,Français ,m,3,0.3,30.45214085,0.56488466
6155a4dec04439eaed63abdc,26,0,2024-02-28T14:46:08.127Z,english_795.wav,0,peel,327,37,4,5,Français ,m,4,0.4,25.21841082,0.81270144
6155a4dec04439eaed63abdc,26,0,2024-02-28T14:46:08.127Z,english_795.wav,0,peel,327,37,4,5,Français ,m,5,0.5,36.10678603,1.54003491
6155a4dec04439eaed63abdc,26,0,2024-02-28T14:46:08.127Z,english_795.wav,0,peel,327,37,4,5,Français ,m,6,0.6,61.48762219,1.21959161
6155a4dec04439eaed63abdc,26,0,2024-02-28T14:46:08.127Z,english_795.wav,0,peel,327,37,4,5,Français ,m,7,0.7,14.5754085,0.84714061
6155a4dec04439eaed63abdc,26,0,2024-02-28T14:46:08.127Z,english_795.wav,0,peel,327,37,4,5,Français ,m,8,0.8,-57.54329739,1.28928587
6155a4dec04439eaed63abdc,26,0,2024-02-28T14:46:08.127Z,english_795.wav,0,peel,327,37,4,5,Français ,m,9,0.9,-73.09117399,1.61523869
6155a4dec04439eaed63abdc,26,0,2024-02-28T14:46:08.127Z,english_795.wav,0,peel,327,37,4,5,Français ,m,10,1.0,77.49994784,1.68827262
6155a4dec04439eaed63abdc,26,0,2024-02-28T14:46:08.127Z,english_795.wav,0,peel,327,37,4,5,Français ,m,11,1.09391667,89.63116882,1.85702814
6155a4dec04439eaed63abdc,27,0,2024-02-28T14:46:08.127Z,english_481.wav,0,pill,1518,37,4,5,Français ,m,0,0.0,12.53874901,1.58204947
6155a4dec04439eaed63abdc,27,0,2024-02-28T14:46:08.127Z,english_481.wav,0,pill,1518,37,4,5,Français ,m,1,0.1,-9.84524601,0.30197463
6155a4dec04439eaed63abdc,27,0,2024-02-28T14:46:08.127Z,english_481.wav,0,pill,1518,37,4,5,Français ,m,2,0.2,-28.69081604,1.36929082
6155a4dec04439eaed63abdc,27,0,2024-02-28T14:46:08.127Z,english_481.wav,0,pill,1518,37,4,5,Français ,m,3,0.3,-3.98654711,1.57950224
6155a4dec04439eaed63abdc,27,0,2024-02-28T14:46:08.127Z,english_481.wav,0,pill,1518,37,4,5,Français ,m,4,0.4,-31.85582808,1.64821008
6155a4dec04439eaed63abdc,27,0,2024-02-28T14:46:08.127Z,english_481.wav,0,pill,1518,37,4,5,Français ,m,5,0.5,-60.66158974,1.40708
6155a4dec04439eaed63abdc,27,0,2024-02-28T14:46:08.127Z,english_481.wav,0,pill,1518,37,4,5,Français ,m,6,0.6,37.08553698,0.90705567
6155a4dec04439eaed63abdc,27,0,2024-02-28T14:46:08.127Z,english_481.wav,0,pill,1518,37,4,5,Français ,m,7,0.7,-55.30747295,0.62618862
6155a4dec04439eaed63abdc,27,0,2024-02-28T14:46:08.127Z,english_481.wav,0,pill,1518,37,4,5,Français ,m,8,0.8,79.95944373,0.10659235
6155a4dec04439eaed63abdc,27,0,2024-02-28T14:46:08.127Z,english_481.wav,0,pill,1518,37,4,5,Français ,m,9,0.9,16.93049167,0.31824417
6155a4dec04439eaed63abdc,27,0,2024-02-28T14:46:08.127Z,english_481.wav,0,pill,1518,37,4,5,Français ,m,10,1.0,2.57902723,0.18714767
6155a4dec04439eaed63abdc,27,0,2024-02-28T14:46:08.127Z,english_481.wav,0,pill,1518,37,4,5,Français ,m,11,1.09391667,9.37320396,0.57978015
6155a4dec04439eaed63abdc,28,0,2024-02-28T14:46:08.127Z,english_377.wav,0,pill,826,37,4,5,Français ,m,0,0.0,73.04653382,1.47836601
6155a4dec04439eaed63abdc,28,0,2024-02-28T14:46:08.127Z,english_377.wav,0,pill,826,37,4,5,Français ,m,1,0.1,61.01214683,1.01623989
6155a4dec04439eaed63abdc,28,0,2024-02-28T14:46:08.127Z,english_377.wav,0,pill,826,37,4,5,Français ,m,2,0.2,-82.4479578,1.48528015
6155a4dec04439eaed63abdc,28,0,2024-02-28T14:46:08.127Z,english_377.wav,0,pill,826,37,4,5,Français ,m,3,0.3,-6.35059144,0.37422398
6155a4dec04439eaed63abdc,28,0,2024-02-28T14:46:08.127Z,english_377.wav,0,pill,826,37,4,5,Français ,m,4,0.4,58.86113959,0.85864758
6155a4dec04439eaed63abdc,28,0,2024-02-28T14:46:08.127Z,english_377.wav,0,pill,826,37,4,5,Français ,m,5,0.5,19.19354738,0.94448051
6155a4dec04439eaed63abdc,28,0,2024-02-28T14:46:08.127Z,english_377.wav,0,pill,826,37,4,5,Français ,m,6,0.6,-31.09076765,1.48225941
6155a4dec04439eaed63abdc,28,0,2024-02-28T14:46:08.127Z,english_377.wav,0,pill,826,37,4,5,Français ,m,7,0.7,-78.80759367,0.12460905
6155a4dec04439eaed63abdc,28,0,2024-02-28T14:46:08.127Z,english_377.wav,0,pill,826,37,4,5,Français ,m,8,0.8,40.88540154,0.28155513
6155a4dec04439eaed63abdc,28,0,2024-02-28T14:46:08.127Z,english_377.wav,0,pill,826,37,4,5,Français ,m,9,0.9,2.78755214,0.51707897
6155a4dec04439eaed63abdc,28,0,2024-02-28T14:46:08.127Z,english_377.wav,0,pill,826,37,4,5,Français ,m,10,1.0,-65.38807899,0.25575056
6155a4dec04439eaed63abdc,28,0,2024-02-28T14:46:08.127Z,english_377.wav,0,pill,826,37,4,5,Français ,m,11,1.09391667,58.80108337,0.70835394
6155a4dec04439eaed63abdc,29,0,2024-02-28T14:46:08.127Z,english_837.wav,0,peel,442,37,4,5,Français ,m,0,0.0,-19.55907837,0.36214908
6155a4dec04439eaed63abdc,29,0,2024-02-28T14:46:08.127Z,english_837.wav,0,peel,442,37,4,5,Français ,m,1,0.1,81.5519268,1.07178346
6155a4dec04439eaed63abdc,29,0,2024-02-28T14:46:08.127Z,english_837.wav,0,peel,442,37,4,5,Français ,m,2,0.2,51.06726568,0.32034272
6155a4dec04439eaed63abdc,29,0,2024-02-28T14:46:08.127Z,english_837.wav,0,peel,442,37,4,5,Français ,m,3,0.3,11.56573734,0.28433719
6155a4dec04439eaed63abdc,29,0,2024-02-28T14:46:08.127Z,english_837.wav,0,peel,442,37,4,5,Français ,m,4,0.4,3.9548588,0.83672743
6155a4dec04439eaed63abdc,29,0,2024-02-28T14:46:08.127Z,english_837.wav,0,peel,442,37,4,5,Français ,m,5,0.5,-33.36822777,0.19314145
6155a4dec04439eaed63abdc,29,0,2024-02-28T14:46:08.127Z,english_837.wav,0,peel,442,37,4,5,Français ,m,6,0.6,36.7691739,0.96322299
6155a4dec04439eaed63abdc,29,0,2024-02-28T14:46:08.127Z,english_837.wav,0,peel,442,37,4,5,Français ,m,7,0.7,-18.61244812,1.32224338
6155a4dec04439eaed63abdc,29,0,2024-02-28T14:46:08.127Z,english_837.wav,0,peel,442,37,4,5,Français ,m,8,0.8,16.54769658,1.87041814
6155a4dec04439eaed63abdc,29,0,2024-02-28T14:46:08.127Z,english_837.wav,0,peel,442,37,4,5,Français ,m,9,0.9,-37.16394557,0.06067537
6155a4dec04439eaed63abdc,29,0,2024-02-28T14:46:08.127Z,english_837.wav,0,peel,442,37,4,5,Français ,m,10,1.0,10.95001842,0.49261583
6155a4dec04439eaed63abdc,29,0,2024-02-28T14:46:08.127Z,english_837.wav,0,peel,442,37,4,5,Français ,m,11,1.09391667,34.38345354,1.54886366
6155a4dec04439eaed63abdc,30,0,2024-02-28T14:46:08.127Z,english_813.wav,0,peel,904,37,4,5,Français ,m,0,0.0,-21.47810291,0.42494113
6155a4dec04439eaed63abdc,30,0,2024-02-28T14:46:08.127Z,english_813.wav,0,peel,904,37,4,5,Français ,m,1,0.1,-84.13417806,0.85563352
6155a4dec04439eaed63abdc,30,0,2024-02-28T14:46:08.127Z,english_813.wav,0,peel,904,37,4,5,Français ,m,2,0.2,-18.57483833,1.62435889
6155a4dec04439eaed63abdc,30,0,2024-02-28T14:46:08.127Z,english_813.wav,0,peel,904,37,4,5,Français ,m,3,0.3,85.46223106,1.84520067
6155a4dec04439eaed63abdc,30,0,2024-02-28T14:46:08.127Z,english_813.wav,0,peel,904,37,4,5,Français ,m,4,0.4,-47.12255135,0.16630065
6155a4dec04439eaed63abdc,30,0,2024-02-28T14:46:08.127Z,english_813.wav,0,peel,904,37,4,5,Français ,m,5,0.5,55.13909294,1.66622477
6155a4dec04439eaed63abdc,30,0,2024-02-28T14:46:08.127Z,english_813.wav,0,peel,904,37,4,5,Français ,m,6,0.6,-92.27868598,1.29440347
6155a4dec04439eaed63abdc,30,0,2024-02-28T14:46:08.127Z,english_813.wav,0,peel,904,37,4,5,Français ,m,7,0.7,-98.65237277,1.30366
6155a4dec04439eaed63abdc,30,0,2024-02-28T14:46:08.127Z,english_813.wav,0,peel,904,37,4,5,Français ,m,8,0.8,-73.59665384,0.95942882
6155a4dec04439eaed63abdc,30,0,2024-02-28T14:46:08.127Z,english_813.wav,0,peel,904,37,4,5,Français ,m,9,0.9,99.75598896,0.41648042
6155a4dec04439eaed63abdc,30,0,2024-02-28T14:46:08.127Z,english_813.wav,0,peel,904,37,4,5,Français ,m,10,1.0,22.46235737,0.55260475
6155a4dec04439eaed63abdc,30,0,2024-02-28T14:46:08.127Z,english_813.wav,0,peel,904,37,4,5,Français ,m,11,1.09391667,-23.97281603,0.8655965
6155a4dec04439eaed63abdc,31,0,2024-02-28T14:46:08.127Z,english_893.wav,0,peel,1024,37,4,5,Français ,m,0,0.0,-88.27288408,0.46079997
6155a4dec04439eaed63abdc,31,0,2024-02-28T14:46:08.127Z,english_893.wav,0,peel,1024,37,4,5,Français ,m,1,0.1,65.02931774,1.28353758
6155a4dec04439eaed63abdc,31,0,2024-02-28T14:46:08.127Z,english_893.wav,0,peel,1024,37,4,5,Français ,m,2,0.2,52.75255946,1.5240413
6155a4dec04439eaed63abdc,31,0,2024-02-28T14:46:08.127Z,english_893.wav,0,peel,1024,37,4,5,Français ,m,3,0.3,83.63729727,1.67217786
6155a4dec04439eaed63abdc,31,0,2024-02-28T14:46:08.127Z,english_893.wav,0,peel,1024,37,4,5,Français ,m,4,0.4,-40.64554186,1.32541151
6155a4dec04439eaed63abdc,31,0,2024-02-28T14:46:08.127Z,english_893.wav,0,peel,1024,37,4,5,Français ,m,5,0.5,-63.5561657,0.97852107
6155a4dec04439eaed63abdc,31,0,2024-02-28T14:46:08.127Z,english_893.wav,0,peel,1024,37,4,5,Français ,m,6,0.6,86.64180858,0.03458433
6155a4dec04439eaed63abdc,31,0,2024-02-28T14:46:08.127Z,english_893.wav,0,peel,1024,37,4,5,Français ,m,7,0.7,66.95085035,1.20988187
6155a4dec04439eaed63abdc,31,0,2024-02-28T14:46:08.127Z,english_893.wav,0,peel,1024,37,4,5,Français ,m,8,0.8,-95.78590216,1.76333765
6155a4dec04439eaed63abdc,31,0,2024-02-28T14:46:08.127Z,english_893.wav,0,peel,1024,37,4,5,Français ,m,9,0.9,-69.05067698,0.45158105
6155a4dec04439eaed63abdc,31,0,2024-02-28T14:46:08.127Z,english_893.wav,0,peel,1024,37,4,5,Français ,m,10,1.0,-26.34394451,1.28641333
6155a4dec04439eaed63abdc,31,0,2024-02-28T14:46:08.127Z,english_893.wav,0,peel,1024,37,4,5,Français ,m,11,1.09391667,46.22858611,0.88140728
6155a4dec04439eaed63abdc,32,0,2024-02-28T14:46:08.127Z,english_116.wav,0,pill,645,37,4,5,Français ,m,0,0.0,-9.55497422,1.40906913
6155a4dec04439eaed63abdc,32,0,2024-02-28T14:46:08.127Z,english_116.wav,0,pill,645,37,4,5,Français ,m,1,0.1,49.93536879,1.01406047
6155a4dec04439eaed63abdc,32,0,2024-02-28T14:46:08.127Z,english_116.wav,0,pill,645,37,4,5,Français ,m,2,0.2,-79.25579082,0.11711084
6155a4dec04439eaed63abdc,32,0,2024-02-28T14:46:08.127Z,english_116.wav,0,pill,645,37,4,5,Français ,m,3,0.3,-36.23152563,0.60671403
6155a4dec04439eaed63abdc,32,0,2024-02-28T14:46:08.127Z,english_116.wav,0,pill,645,37,4,5,Français ,m,4,0.4,-13.54411706,0.84673882
6155a4dec04439eaed63abdc,32,0,2024-02-28T14:46:08.127Z,english_116.wav,0,pill,645,37,4,5,Français ,m,5,0.5,94.79003248,0.4711221
6155a4dec04439eaed63abdc,32,0,2024-02-28T14:46:08.127Z,english_116.wav,0,pill,645,37,4,5,Français ,m,6,0.6,82.07262677,0.05184022
6155a4dec04439eaed63abdc,32,0,2024-02-28T14:46:08.127Z,english_116.wav,0,pill,645,37,4,5,Français ,m,7,0.7,34.20482138,0.25033894
6155a4dec04439eaed63abdc,32,0,2024-02-28T14:46:08.127Z,english_116.wav,0,pill,645,37,4,5,Français ,m,8,0.8,-57.39554956,0.57212798
6155a4dec04439eaed63abdc,32,0,2024-02-28T14:46:08.127Z,english_116.wav,0,pill,645,37,4,5,Français ,m,9,0.9,74.8891327,0.83139931
6155a4dec04439eaed63abdc,32,0,2024-02-28T14:46:08.127Z,english_116.wav,0,pill,645,37,4,5,Français ,m,10,1.0,25.67722271,0.9159615
6155a4dec04439eaed63abdc,32,0,2024-02-28T14:46:08.127Z,english_116.wav,0,pill,645,37,4,5,Français ,m,11,1.09391667,39.70859054,1.32229157
6155a4dec04439eaed63abdc,33,0,2024-02-28T14:46:08.127Z,english_661.wav,0,peel,411,37,4,5,Français ,m,0,0.0,-96.27017097,0.06095717
6155a4dec04439eaed63abdc,33,0,2024-02-28T14:46:08.127Z,english_661.wav,0,peel,411,37,4,5,Français ,m,1,0.1,-8.23164951,1.37830678
6155a4dec04439eaed63abdc,33,0,2024-02-28T14:46:08.127Z,english_661.wav,0,peel,411,37,4,5,Français ,m,2,0.2,-17.16483844,0.60938429
6155a4dec04439eaed63abdc,33,0,2024-02-28T14:46:08.127Z,english_661.wav,0,peel,411,37,4,5,Français ,m,3,0.3,51.38438878,1.50755712
6155a4dec04439eaed63abdc,33,0,2024-02-28T14:46:08.127Z,english_661.wav,0,peel,411,37,4,5,Français ,m,4,0.4,-46.68819378,0.78233896
6155a4dec04439eaed63abdc,33,0,2024-02-28T14:46:08.127Z,english_661.wav,0,peel,411,37,4,5,Français ,m,5,0.5,-48.36150329,1.0485375
6155a4dec04439eaed63abdc,33,0,2024-02-28T14:46:08.127Z,english_661.wav,0,peel,411,37,4,5,Français ,m,6,0.6,39.11171658,1.09444979
6155a4dec04439eaed63abdc,33,0,2024-02-28T14:46:08.127Z,english_661.wav,0,peel,411,37,4,5,Français ,m,7,0.7,61.02242978,0.69142926
6155a4dec04439eaed63abdc,33,0,2024-02-28T14:46:08.127Z,english_661.wav,0,peel,411,37,4,5,Français ,m,8,0.8,-31.59479495,1.58337901
6155a4dec04439eaed63abdc,33,0,2024-02-28T14:46:08.127Z,english_661.wav,0,peel,411,37,4,5,Français ,m,9,0.9,29.78054616,1.62604078
6155a4dec04439eaed63abdc,33,0,2024-02-28T14:46:08.127Z,english_661.wav,0,peel,411,37,4,5,Français ,m,10,1.0,12.03263948,0.74172624
6155a4dec04439eaed63abdc,33,0,2024-02-28T14:46:08.127Z,english_661.wav,0,peel,411,37,4,5,Français ,m,11,1.09391667,45.41432931,1.92603435
6155a4dec04439eaed63abdc,34,0,2024-02-28T14:46:08.127Z,english_111.wav,0,pill,666,37,4,5,Français ,m,0,0.0,-7.89423459,1.73172447
6155a4dec04439eaed63abdc,34,0,2024-02-28T14:46:08.127Z,english_111.wav,0,pill,666,37,4,5,Français ,m,1,0.1,-50.39853442,1.30536321
6155a4dec04439eaed63abdc,34,0,2024-02-28T14:46:08.127Z,english_111.wav,0,pill,666,37,4,5,Français ,m,2,0.2,85.22773015,0.28962065
6155a4dec04439eaed63abdc,34,0,2024-02-28T14:46:08.127Z,english_111.wav,0,pill,666,37,4,5,Français ,m,3,0.3,-7.88513069,1.6166787
6155a4dec04439eaed63abdc,34,0,2024-02-28T14:46:08.127Z,english_111.wav,0,pill,666,37,4,5,Français ,m,4,0.4,-36.68324303,0.55677008
6155a4dec04439eaed63abdc,34,0,2024-02-28T14:46:08.127Z,english_111.wav,0,pill,666,37,4,5,Français ,m,5,0.5,-4.8649615,1.31756148
6155a4dec04439eaed63abdc,34,0,2024-02-28T14:46:08.127Z,english_111.wav,0,pill,666,37,4,5,Français ,m,6,0.6,-92.19494919,1.4789538
6155a4dec04439eaed63abdc,34,0,2024-02-28T14:46:08.127Z,english_111.wav,0,pill,666,37,4,5,Français ,m,7,0.7,-6.11032283,0.53950686
6155a4dec04439eaed63abdc,34,0,2024-02-28T14:46:08.127Z,english_111.wav,0,pill,666,37,4,5,Français ,m,8,0.8,41.34470973,0.89868821
6155a4dec04439eaed63abdc,34,0,2024-02-28T14:46:08.127Z,english_111.wav,0,pill,666,37,4,5,Français ,m,9,0.9,-73.07088632,0.90401257
6155a4dec04439eaed63abdc,34,0,2024-02-28T14:46:08.127Z,english_111.wav,0,pill,666,37,4,5,Français ,m,10,1.0,50.36502587,0.61580764
6155a4dec04439eaed63abdc,34,0,2024-02-28T14:46:08.127Z,english_111.wav,0,pill,666,37,4,5,Français ,m,11,1.09391667,-49.90215361,1.87610476
6155a4dec04439eaed63abdc,35,0,2024-02-28T14:46:08.127Z,english_158.wav,0,pill,534,37,4,5,Français ,m,0,0.0,41.17268037,0.12012262
6155a4dec04439eaed63abdc,35,0,2024-02-28T14:46:08.127Z,english_158.wav,0,pill,534,37,4,5,Français ,m,1,0.1,39.43055099,1.02753784
6155a4dec04439eaed63abdc,35,0,2024-02-28T14:46:08.127Z,english_158.wav,0,pill,534,37,4,5,Français ,m,2,0.2,18.17307199,1.36643436
6155a4dec04439eaed63abdc,35,0,2024-02-28T14:46:08.127Z,english_158.wav,0,pill,534,37,4,5,Français ,m,3,0.3,2.1288608,1.78617089
6155a4dec04439eaed63abdc,35,0,2024-02-28T14:46:08.127Z,english_158.wav,0,pill,534,37,4,5,Français ,m,4,0.4,14.16848378,0.39713516
6155a4dec04439eaed63abdc,35,0,2024-02-28T14:46:08.127Z,english_158.wav,0,pill,534,37,4,5,Français ,m,5,0.5,-31.43837624,1.5313636
6155a4dec04439eaed63abdc,35,0,2024-02-28T14:46:08.127Z,english_158.wav,0,pill,534,37,4,5,Français ,m,6,0.6,46.37345031,1.20655285
6155a4dec04439eaed63abdc,35,0,2024-02-28T14:46:08.127Z,english_158.wav,0,pill,534,37,4,5,Français ,m,7,0.7,58.75582509,0.16880901
6155a4dec04439eaed63abdc,35,0,2024-02-28T14:46:08.127Z,english_158.wav,0,pill,534,37,4,5,Français ,m,8,0.8,23.78862253,0.30409425
6155a4dec04439eaed63abdc,35,0,2024-02-28T14:46:08.127Z,english_158.wav,0,pill,534,37,4,5,Français ,m,9,0.9,-4.2911947,1.28329421
6155a4dec04439eaed63abdc,35,0,2024-02-28T14:46:08.127Z,english_158.wav,0,pill,534,37,4,5,Français ,m,10,1.0,-43.40891041,0.17704904
6155a4dec04439eaed63abdc,35,0,2024-02-28T14:46:08.127Z,english_158.wav,0,pill,534,37,4,5,Français ,m,11,1.09391667,16.25522825,0.66899263
6155a4dec04439eaed63abdc,36,0,2024-02-28T14:46:08.127Z,english_721.wav,0,peel,377,37,4,5,Français ,m,0,0.0,-21.91327124,0.70003707
6155a4dec04439eaed63abdc,36,0,2024-02-28T14:46:08.127Z,english_721.wav,0,peel,377,37,4,5,Français ,m,1,0.1,-90.20435546,0.21927921
6155a4dec04439eaed63abdc,36,0,2024-02-28T14:46:08.127Z,english_721.wav,0,peel,377,37,4,5,Français ,m,2,0.2,95.69234683,1.46481191
6155a4dec04439eaed63abdc,36,0,2024-02-28T14:46:08.127Z,english_721.wav,0,peel,377,37,4,5,Français ,m,3,0.3,22.1637049,0.791078
6155a4dec04439eaed63abdc,36,0,2024-02-28T14:46:08.127Z,english_721.wav,0,peel,377,37,4,5,Français ,m,4,0.4,11.60833415,1.28893612
6155a4dec04439eaed63abdc,36,0,2024-02-28T14:46:08.127Z,english_721.wav,0,peel,377,37,4,5,Français ,m,5,0.5,-18.08358407,1.03888409
6155a4dec04439eaed63abdc,36,0,2024-02-28T14:46:08.127Z,english_721.wav,0,peel,377,37,4,5,Français ,m,6,0.6,-18.19761364,1.04801609
6155a4dec04439eaed63abdc,36,0,2024-02-28T14:46:08.127Z,english_721.wav,0,peel,377,37,4,5,Français ,m,7,0.7,68.04091508,1.56253366
6155a4dec04439eaed63abdc,36,0,2024-02-28T14:46:08.127Z,english_721.wav,0,peel,377,37,4,5,Français ,m,8,0.8,78.50797801,1.28640088
6155a4dec04439eaed63abdc,36,0,2024-02-28T14:46:08.127Z,english_721.wav,0,peel,377,37,4,5,Français ,m,9,0.9,-26.72259946,0.27215185
6155a4dec04439eaed63abdc,36,0,2024-02-28T14:46:08.127Z,english_721.wav,0,peel,377,37,4,5,Français ,m,10,1.0,-5.45523717,0.551057
6155a4dec04439eaed63abdc,36,0,2024-02-28T14:46:08.127Z,english_721.wav,0,peel,377,37,4,5,Français ,m,11,1.09391667,8.48352437,1.19022125
6155a4dec04439eaed63abdc,37,0,2024-02-28T14:46:08.127Z,english_301.wav,0,peel,558,37,4,5,Français ,m,0,0.0,20.00084454,0.51149801
6155a4dec04439eaed63abdc,37,0,2024-02-28T14:46:08.127Z,english_301.wav,0,peel,558,37,4,5,Français ,m,1,0.1,-52.8514029,1.39891418
6155a4dec04439eaed63abdc,37,0,2024-02-28T14:46:08.127Z,english_301.wav,0,peel,558,37,4,5,Français ,m,2,0.2,18.35573453,1.20064295
6155a4dec04439eaed63abdc,37,0,2024-02-28T14:46:08.127Z,english_301.wav,0,peel,558,37,4,5,Français ,m,3,0.3,20.24530443,1.16262284
6155a4dec04439eaed63abdc,37,0,2024-02-28T14:46:08.127Z,english_301.wav,0,peel,558,37,4,5,Français ,m,4,0.4,-31.13596974,0.89189618
6155a4dec04439eaed63abdc,37,0,2024-02-28T14:46:08.127Z,english_301.wav,0,peel,558,37,4,5,Français ,m,5,0.5,-57.63348461,0.05591257
6155a4dec04439eaed63abdc,37,0,2024-02-28T14:46:08.127Z,english_301.wav,0,peel,558,37,4,5,Français ,m,6,0.6,-75.64185581,1.65560528
6155a4dec04439eaed63abdc,37,0,2024-02-28T14:46:08.127Z,english_301.wav,0,peel,558,37,4,5,Français ,m,7,0.7,11.75816268,0.92096294
6155a4dec04439eaed63abdc,37,0,2024-02-28T14:46:08.127Z,english_301.wav,0,peel,558,37,4,5,Français ,m,8,0.8,94.20607314,0.41490279
6155a4dec04439eaed63abdc,37,0,2024-02-28T14:46:08.127Z,english_301.wav,0,peel,558,37,4,5,Français ,m,9,0.9,-85.03664705,1.73145538
6155a4dec04439eaed63abdc,37,0,2024-02-28T14:46:08.127Z,english_301.wav,0,peel,558,37,4,5,Français ,m,10,1.0,-35.05020918,1.60276464
6155a4dec04439eaed63abdc,37,0,2024-02-28T14:46:08.127Z,english_301.wav,0,peel,558,37,4,5,Français ,m,11,1.09391667,79.38839228,1.26188471
6155a4dec04439eaed63abdc,38,0,2024-02-28T14:46:08.127Z,english_702.wav,0,pill,649,37,4,5,Français ,m,0,0.0,-2.41900738,1.81607637
6155a4dec04439eaed63abdc,38,0,2024-02-28T14:46:08.127Z,english_702.wav,0,pill,649,37,4,5,Français ,m,1,0.1,-65.10936104,1.79791742
6155a4dec04439eaed63abdc,38,0,2024-02-28T14:46:08.127Z,english_702.wav,0,pill,649,37,4,5,Français ,m,2,0.2,-27.82316235,1.28936134
6155a4dec04439eaed63abdc,38,0,2024-02-28T14:46:08.127Z,english_702.wav,0,pill,649,37,4,5,Français ,m,3,0.3,41.61212407,1.13263155
6155a4dec04439eaed63abdc,38,0,2024-02-28T14:46:08.127Z,english_702.wav,0,pill,649,37,4,5,Français ,m,4,0.4,-37.59716444,0.61084433
6155a4dec04439eaed63abdc,38,0,2024-02-28T14:46:08.127Z,english_702.wav,0,pill,649,37,4,5,Français ,m,5,0.5,84.73262552,1.50612828
6155a4dec04439eaed63abdc,38,0,2024-02-28T14:46:08.127Z,english_702.wav,0,pill,649,37,4,5,Français ,m,6,0.6,34.73400205,1.99649644
6155a4dec04439eaed63abdc,38,0,2024-02-28T14:46:08.127Z,english_702.wav,0,pill,649,37,4,5,Français ,m,7,0.7,-30.1082561,0.56234564
6155a4dec04439eaed63abdc,38,0,2024-02-28T14:46:08.127Z,english_702.wav,0,pill,649,37,4,5,Français ,m,8,0.8,-63.0729989,0.4625337
6155a4dec04439eaed63abdc,38,0,2024-02-28T14:46:08.127Z,english_702.wav,0,pill,649,37,4,5,Français ,m,9,0.9,-90.77732933,0.98197063
6155a4dec04439eaed63abdc,38,0,2024-02-28T14:46:08.127Z,english_702.wav,0,pill,649,37,4,5,Français ,m,10,1.0,-4.9487879,0.31924939
6155a4dec04439eaed63abdc,38,0,2024-02-28T14:46:08.127Z,english_702.wav,0,pill,649,37,4,5,Français ,m,11,1.09391667,-47.54503703,0.55890029
6155a4dec04439eaed63abdc,39,0,2024-02-28T14:46:08.127Z,english_139.wav,0,pill,431,37,4,5,Français ,m,0,0.0,81.69119698,1.27933894
6155a4dec04439eaed63abdc,39,0,2024-02-28T14:46:08.127Z,english_139.wav,0,pill,431,37,4,5,Français ,m,1,0.1,42.19378668,0.17402895
6155a4dec04439eaed63abdc,39,0,2024-02-28T14:46:08.127Z,english_139.wav,0,pill,431,37,4,5,Français ,m,2,0.2,-40.74285827,0.51201081
6155a4dec04439eaed63abdc,39,0,2024-02-28T14:46:08.127Z,english_139.wav,0,pill,431,37,4,5,Français ,m,3,0.3,49.20247594,0.94873681
6155a4dec04439eaed63abdc,39,0,2024-02-28T14:46:08.127Z,english_139.wav,0,pill,431,37,4,5,Français ,m,4,0.4,-31.78428617,1.19745534
6155a4dec04439eaed63abdc,39,0,2024-02-28T14:46:08.127Z,english_139.wav,0,pill,431,37,4,5,Français ,m,5,0.5,33.76293525,0.67270535
6155a4dec04439eaed63abdc,39,0,2024-02-28T14:46:08.127Z,english_139.wav,0,pill,431,37,4,5,Français ,m,6,0.6,7.11439176,1.44433094
6155a4dec04439eaed63abdc,39,0,2024-02-28T14:46:08.127Z,english_139.wav,0,pill,431,37,4,5,Français ,m,7,0.7,-18.31872173,0.44605891
6155a4dec04439eaed63abdc,39,0,2024-02-28T14:46:08.127Z,english_139.wav,0,pill,431,37,4,5,Français ,m,8,0.8,79.70412409,0.81778602
6155a4dec04439eaed63abdc,39,0,2024-02-28T14:46:08.127Z,english_139.wav,0,pill,431,37,4,5,Français ,m,9,0.9,-88.5628162,1.24773735
6155a4dec04439eaed63abdc,39,0,2024-02-28T14:46:08.127Z,english_139.wav,0,pill,431,37,4,5,Français ,m,10,1.0,-65.12448171,0.00984113
6155a4dec04439eaed63abdc,39,0,2024-02-28T14:46:08.127Z,english_139.wav,0,pill,431,37,4,5,Français ,m,11,1.09391667,11.63103966,1.43403062
6155a4dec04439eaed63abdc,40,0,2024-02-28T14:46:08.127Z,english_114.wav,0,pill,474,37,4,5,Français ,m,0,0.0,-38.33361484,0.25479749
6155a4dec04439eaed63abdc,40,0,2024-02-28T14:46:08.127Z,english_114.wav,0,pill,474,37,4,5,Français ,m,1,0.1,-12.76602364,1.23857364
6155a4dec04439eaed63abdc,40,0,2024-02-28T14:46:08.127Z,english_114.wav,0,pill,474,37,4,5,Français ,m,2,0.2,0.32729235,0.44881648
6155a4dec04439eaed63abdc,40,0,2024-02-28T14:46:08.127Z,english_114.wav,0,pill,474,37,4,5,Français ,m,3,0.3,-29.2958396,1.47628631
6155a4dec04439eaed63abdc,40,0,2024-02-28T14:46:08.127Z,english_114.wav,0,pill,474,37,4,5,Français ,m,4,0.4,-44.05321795,1.29960212
6155a4dec04439eaed63abdc,40,0,2024-02-28T14:46:08.127Z,english_114.wav,0,pill,474,37,4,5,Français ,m,5,0.5,77.26891482,0.86625142
6155a4dec04439eaed63abdc,40,0,2024-02-28T14:46:08.127Z,english_114.wav,0,pill,474,37,4,5,Français ,m,6,0.6,-80.80990528,1.18678323
6155a4dec04439eaed63abdc,40,0,2024-02-28T14:46:08.127Z,english_114.wav,0,pill,474,37,4,5,Français ,m,7,0.7,-78.02585179,0.40341658
6155a4dec04439eaed63abdc,40,0,2024-02-28T14:46:08.127Z,english_114.wav,0,pill,474,37,4,5,Français ,m,8,0.8,14.37560873,0.69236485
6155a4dec04439eaed63abdc,40,0,2024-02-28T14:46:08.127Z,english_114.wav,0,pill,474,37,4,5,Français ,m,9,0.9,-41.68954869,0.99173078
6155a4dec04439eaed63abdc,40,0,2024-02-28T14:46:08.127Z,english_114.wav,0,pill,474,37,4,5,Français ,m,10,1.0,-51.42719285,0.71091923
6155a4dec04439eaed63abdc,40,0,2024-02-28T14:46:08.127Z,english_114.wav,0,pill,474,37,4,5,Français ,m,11,1.09391667,29.02505558,1.73837671
6155a4dec04439eaed63abdc,41,0,2024-02-28T14:46:08.127Z,english_873.wav,0,pill,396,37,4,5,Français ,m,0,0.0,-5.34184308,0.18534223
6155a4dec04439eaed63abdc,41,0,2024-02-28T14:46:08.127Z,english_873.wav,0,pill,396,37,4,5,Français ,m,1,0.1,29.86705528,1.00948066
6155a4dec04439eaed63abdc,41,0,2024-02-28T14:46:08.127Z,english_873.wav,0,pill,396,37,4,5,Français ,m,2,0.2,-53.62087934,0.93104213
6155a4dec04439eaed63abdc,41,0,2024-02-28T14:46:08.127Z,english_873.wav,0,pill,396,37,4,5,Français ,m,3,0.3,-59.16709203,1.19025309
6155a4dec04439eaed63abdc,41,0,2024-02-28T14:46:08.127Z,english_873.wav,0,pill,396,37,4,5,Français ,m,4,0.4,69.60141357,1.48608178
6155a4dec04439eaed63abdc,41,0,2024-02-28T14:46:08.127Z,english_873.wav,0,pill,396,37,4,5,Français ,m,5,0.5,-44.07046907,0.89447273
6155a4dec04439eaed63abdc,41,0,2024-02-28T14:46:08.127Z,english_873.wav,0,pill,396,37,4,5,Français ,m,6,0.6,55.781826,0.18822797
6155a4dec04439eaed63abdc,41,0,2024-02-28T14:46:08.127Z,english_873.wav,0,pill,396,37,4,5,Français ,m,7,0.7,-40.21183655,0.79732375
6155a4dec04439eaed63abdc,41,0,2024-02-28T14:46:08.127Z,english_873.wav,0,pill,396,37,4,5,Français ,m,8,0.8,9.01550121,0.51650354
6155a4dec04439eaed63abdc,41,0,2024-02-28T14:46:08.127Z,english_873.wav,0,pill,396,37,4,5,Français ,m,9,0.9,-15.28098321,0.06272522
6155a4dec04439eaed63abdc,41,0,2024-02-28T14:46:08.127Z,english_873.wav,0,pill,396,37,4,5,Français ,m,10,1.0,-64.77079799,1.63736384
6155a4dec04439eaed63abdc,41,0,2024-02-28T14:46:08.127Z,english_873.wav,0,pill,396,37,4,5,Français ,m,11,1.09391667,80.68199225,1.95600343
6155a4dec04439eaed63abdc,42,0,2024-02-28T14:46:08.127Z,english_613.wav,0,pill,363,37,4,5,Français ,m,0,0.0,56.02417359,1.45969094
6155a4dec04439eaed63abdc,42,0,2024-02-28T14:46:08.127Z,english_613.wav,0,pill,363,37,4,5,Français ,m,1,0.1,-15.12096295,0.70307333
6155a4dec04439eaed63abdc,42,0,2024-02-28T14:46:08.127Z,english_613.wav,0,pill,363,37,4,5,Français ,m,2,0.2,24.11599025,1.55595157
6155a4dec04439eaed63abdc,42,0,2024-02-28T14:46:08.127Z,english_613.wav,0,pill,363,37,4,5,Français ,m,3,0.3,-98.52161237,0.89820675
6155a4dec04439eaed63abdc,42,0,2024-02-28T14:46:08.127Z,english_613.wav,0,pill,363,37,4,5,Français ,m,4,0.4,-83.03822249,1.36107021
6155a4dec04439eaed63abdc,42,0,2024-02-28T14:46:08.127Z,english_613.wav,0,pill,363,37,4,5,Français ,m,5,0.5,21.43017138,0.16432707
6155a4dec04439eaed63abdc,42,0,2024-02-28T14:46:08.127Z,english_613.wav,0,pill,363,37,4,5,Français ,m,6,0.6,63.83169659,0.04833877
6155a4dec04439eaed63abdc,42,0,2024-02-28T14:46:08.127Z,english_613.wav,0,pill,363,37,4,5,Français ,m,7,0.7,20.52778074,0.40598637
6155a4dec04439eaed63abdc,42,0,2024-02-28T14:46:08.127Z,english_613.wav,0,pill,363,37,4,5,Français ,m,8,0.8,94.54806404,1.56556559
6155a4dec04439eaed63abdc,42,0,2024-02-28T14:46:08.127Z,english_613.wav,0,pill,363,37,4,5,Français ,m,9,0.9,22.39216261,0.73835637
6155a4dec04439eaed63abdc,42,0,2024-02-28T14:46:08.127Z,english_613.wav,0,pill,363,37,4,5,Français ,m,10,1.0,-21.9484098,1.13631796
6155a4dec04439eaed63abdc,42,0,2024-02-28T14:46:08.127Z,english_613.wav,0,pill,363,37,4,5,Français ,m,11,1.09391667,-64.50590256,0.17382409
6155a4dec04439eaed63abdc,43,0,2024-02-28T14:46:08.127Z,english_299.wav,0,peel,202,37,4,5,Français ,m,0,0.0,-74.4174694,1.88606728
6155a4dec04439eaed63abdc,43,0,2024-02-28T14:46:08.127Z,english_299.wav,0,peel,202,37,4,5,Français ,m,1,0.1,67.95279973,1.33791825
6155a4dec04439eaed63abdc,43,0,2024-02-28T14:46:08.127Z,english_299.wav,0,peel,202,37,4,5,Français ,m,2,0.2,-39.20846612,1.49728268
6155a4dec04439eaed63abdc,43,0,2024-02-28T14:46:08.127Z,english_299.wav,0,peel,202,37,4,5,Français ,m,3,0.3,75.10442899,0.10286405
6155a4dec04439eaed63abdc,43,0,2024-02-28T14:46:08.127Z,english_299.wav,0,peel,202,37,4,5,Français ,m,4,0.4,64.17156696,0.88852199
6155a4dec04439eaed63abdc,43,0,2024-02-28T14:46:08.127Z,english_299.wav,0,peel,202,37,4,5,Français ,m,5,0.5,-42.38450544,0.77437708
6155a4dec04439eaed63abdc,43,0,2024-02-28T14:46:08.127Z,english_299.wav,0,peel,202,37,4,5,Français ,m,6,0.6,-86.29317574,1.38211023
6155a4dec04439eaed63abdc,43,0,2024-02-28T14:46:08.127Z,english_299.wav,0,peel,202,37,4,5,Français ,m,7,0.7,11.40905892,1.00427558
6155a4dec04439eaed63abdc,43,0,2024-02-28T14:46:08.127Z,english_299.wav,0,peel,202,37,4,5,Français ,m,8,0.8,13.2984643,1.53256025
6155a4dec04439eaed63abdc,43,0,2024-02-28T14:46:08.127Z,english_299.wav,0,peel,202,37,4,5,Français ,m,9,0.9,-36.56440039,1.00789046
6155a4dec04439eaed63abdc,43,0,2024-02-28T14:46:08.127Z,english_299.wav,0,peel,202,37,4,5,Français ,m,10,1.0,-93.57212319,0.84413966
6155a4dec04439eaed63abdc,43,0,2024-02-28T14:46:08.127Z,english_299.wav,0,peel,202,37,4,5,Français ,m,11,1.09391667,13.37429031,1.54480909
6155a4dec04439eaed63abdc,44,0,2024-02-28T14:46:08.127Z,english_819.wav,0,peel,835,37,4,5,Français ,m,0,0.0,6.72623194,0.10273963
6155a4dec04439eaed63abdc,44,0,2024-02-28T14:46:08.127Z,english_819.wav,0,peel,835,37,4,5,Français ,m,1,0.1,-24.07867569,0.80237212
6155a4dec04439eaed63abdc,44,0,2024-02-28T14:46:08.127Z,english_819.wav,0,peel,835,37,4,5,Français ,m,2,0.2,-75.26306383,1.8012582
6155a4dec04439eaed63abdc,44,0,2024-02-28T14:46:08.127Z,english_819.wav,0,peel,835,37,4,5,Français ,m,3,0.3,85.43148154,0.87923376
6155a4dec04439eaed63abdc,44,0,2024-02-28T14:46:08.127Z,english_819.wav,0,peel,835,37,4,5,Français ,m,4,0.4,-22.40483415,1.38500076
6155a4dec04439eaed63abdc,44,0,2024-02-28T14:46:08.127Z,english_819.wav,0,peel,835,37,4,5,Français ,m,5,0.5,1.97440144,1.100674
6155a4dec04439eaed63abdc,44,0,2024-02-28T14:46:08.127Z,english_819.wav,0,peel,835,37,4,5,Français ,m,6,0.6,75.70782388,0.97376952
6155a4dec04439eaed63abdc,44,0,2024-02-28T14:46:08.127Z,english_819.wav,0,peel,835,37,4,5,Français ,m,7,0.7,95.57794207,0.98089121
6155a4dec04439eaed63abdc,44,0,2024-02-28T14:46:08.127Z,english_819.wav,0,peel,835,37,4,5,Français ,m,8,0.8,65.41207774,0.54459863
6155a4dec04439eaed63abdc,44,0,2024-02-28T14:46:08.127Z,english_819.wav,0,peel,835,37,4,5,Français ,m,9,0.9,20.80814343,0.87801334
6155a4dec04439eaed63abdc,44,0,2024-02-28T14:46:08.127Z,english_819.wav,0,peel,835,37,4,5,Français ,m,10,1.0,82.13081789,1.51334628
6155a4dec04439eaed63abdc,44,0,2024-02-28T14:46:08.127Z,english_819.wav,0,peel,835,37,4,5,Français ,m,11,1.09391667,8.11322976,1.26475282
6155a4dec04439eaed63abdc,45,0,2024-02-28T14:46:08.127Z,english_687.wav,0,peel,370,37,4,5,Français ,m,0,0.0,-35.70290508,1.44721002
6155a4dec04439eaed63abdc,45,0,2024-02-28T14:46:08.127Z,english_687.wav,0,peel,370,37,4,5,Français ,m,1,0.1,96.19930643,1.66446564
6155a4dec04439eaed63abdc,45,0,2024-02-28T14:46:08.127Z,english_687.wav,0,peel,370,37,4,5,Français ,m,2,0.2,-16.32623685,0.17388823
6155a4dec04439eaed63abdc,45,0,2024-02-28T14:46:08.127Z,english_687.wav,0,peel,370,37,4,5,Français ,m,3,0.3,69.01262748,0.9756111
6155a4dec04439eaed63abdc,45,0,2024-02-28T14:46:08.127Z,english_687.wav,0,peel,370,37,4,5,Français ,m,4,0.4,-86.96335793,0.75788852
6155a4dec04439eaed63abdc,45,0,2024-02-28T14:46:08.127Z,english_687.wav,0,peel,370,37,4,5,Français ,m,5,0.5,-94.81036094,1.04245625
6155a4dec04439eaed63abdc,45,0,2024-02-28T14:46:08.127Z,english_687.wav,0,peel,370,37,4,5,Français ,m,6,0.6,24.28115893,0.94679533
6155a4dec04439eaed63abdc,45,0,2024-02-28T14:46:08.127Z,english_687.wav,0,peel,370,37,4,5,Français ,m,7,0.7,-73.50271946,1.98988769
6155a4dec04439eaed63abdc,45,0,2024-02-28T14:46:08.127Z,english_687.wav,0,peel,370,37,4,5,Français ,m,8,0.8,-67.86786343,1.9531078
6155a4dec04439eaed63abdc,45,0,2024-02-28T14:46:08.127Z,english_687.wav,0,peel,370,37,4,5,Français ,m,9,0.9,-59.44479717,1.90267124
6155a4dec04439eaed63abdc,45,0,2024-02-28T14:46:08.127Z,english_687.wav,0,peel,370,37,4,5,Français ,m,10,1.0,0.72231801,1.17236586
6155a4dec04439eaed63abdc,45,0,2024-02-28T14:46:08.127Z,english_687.wav,0,peel,370,37,4,5,Français ,m,11,1.09391667,-0.70049857,1.47850695
6155a4dec04439eaed63abdc,46,0,2024-02-28T14:46:08.127Z,english_305.wav,0,pill,445,37,4,5,Français ,m,0,0.0,17.49267602,0.00977258
6155a4dec04439eaed63abdc,46,0,2024-02-28T14:46:08.127Z,english_305.wav,0,pill,445,37,4,5,Français ,m,1,0.1,17.59035292,1.17585195
6155a4dec04439eaed63abdc,46,0,2024-02-28T14:46:08.127Z,english_305.wav,0,pill,445,37,4,5,Français ,m,2,0.2,83.12376417,1.66932103
6155a4dec04439eaed63abdc,46,0,2024-02-28T14:46:08.127Z,english_305.wav,0,pill,445,37,4,5,Français ,m,3,0.3,-81.59474703,0.83160233
6155a4dec04439eaed63abdc,46,0,2024-02-28T14:46:08.127Z,english_305.wav,0,pill,445,37,4,5,Français ,m,4,0.4,-99.63264863,1.05024367
6155a4dec04439eaed63abdc,46,0,2024-02-28T14:46:08.127Z,english_305.wav,0,pill,445,37,4,5,Français ,m,5,0.5,42.69289025,1.13369845
6155a4dec04439eaed63abdc,46,0,2024-02-28T14:46:08.127Z,english_305.wav,0,pill,445,37,4,5,Français ,m,6,0.6,82.55548118,0.21867151
6155a4dec04439eaed63abdc,46,0,2024-02-28T14:46:08.127Z,english_305.wav,0,pill,445,37,4,5,Français ,m,7,0.7,15.87479687,0.32447169
6155a4dec04439eaed63abdc,46,0,2024-02-28T14:46:08.127Z,english_305.wav,0,pill,445,37,4,5,Français ,m,8,0.8,-15.6323718,1.86350195
6155a4dec04439eaed63abdc,46,0,2024-02-28T14:46:08.127Z,english_305.wav,0,pill,445,37,4,5,Français ,m,9,0.9,98.18396958,0.82463705
6155a4dec04439eaed63abdc,46,0,2024-02-28T14:46:08.127Z,english_305.wav,0,pill,445,37,4,5,Français ,m,10,1.0,52.83112054,0.94709308
6155a4dec04439eaed63abdc,46,0,2024-02-28T14:46:08.127Z,english_305.wav,0,pill,445,37,4,5,Français ,m,11,1.09391667,33.63343534,0.36254065
6155a4dec04439eaed63abdc,47,0,2024-02-28T14:46:08.127Z,english_200.wav,0,pill,546,37,4,5,Français ,m,0,0.0,-48.93101302,1.76712635
6155a4dec04439eaed63abdc,47,0,2024-02-28T14:46:08.127Z,english_200.wav,0,pill,546,37,4,5,Français ,m,1,0.1,29.34121658,1.41196845
6155a4dec04439eaed63abdc,47,0,2024-02-28T14:46:08.127Z,english_200.wav,0,pill,546,37,4,5,Français ,m,2,0.2,23.36197279,0.60842774
6155a4dec04439eaed63abdc,47,0,2024-02-28T14:46:08.127Z,english_200.wav,0,pill,546,37,4,5,Français ,m,3,0.3,-1.20403398,1.94277316
6155a4dec04439eaed63abdc,47,0,2024-02-28T14:46:08.127Z,english_200.wav,0,pill,546,37,4,5,Français ,m,4,0.4,-47.67478064,1.4476438
6155a4dec04439eaed63abdc,47,0,2024-02-28T14:46:08.127Z,english_200.wav,0,pill,546,37,4,5,Français ,m,5,0.5,18.83507041,1.13791246
6155a4dec04439eaed63abdc,47,0,2024-02-28T14:46:08.127Z,english_200.wav,0,pill,546,37,4,5,Français ,m,6,0.6,-17.22460439,1.88825133
6155a4dec04439eaed63abdc,47,0,2024-02-28T14:46:08.127Z,english_200.wav,0,pill,546,37,4,5,Français ,m,7,0.7,95.20697574,1.08026942
6155a4dec04439eaed63abdc,47,0,2024-02-28T14:46:08.127Z,english_200.wav,0,pill,546,37,4,5,Français ,m,8,0.8,-6.20708562,0.16695357
6155a4dec04439eaed63abdc,47,0,2024-02-28T14:46:08.127Z,english_200.wav,0,pill,546,37,4,5,Français ,m,9,0.9,-37.25970541,0.7312143
6155a4dec04439eaed63abdc,47,0,2024-02-28T14:46:08.127Z,english_200.wav,0,pill,546,37,4,5,Français ,m,10,1.0,4.5592837,0.56031965
6155a4dec04439eaed63abdc,47,0,2024-02-28T14:46:08.127Z,english_200.wav,0,pill,546,37,4,5,Français ,m,11,1.09391667,86.68415923,0.70419729
6155a4dec04439eaed63abdc,48,0,2024-02-28T14:46:08.127Z,english_379.wav,0,pill,1110,37,4,5,Français ,m,0,0.0,49.53215273,0.78528704
6155a4dec04439eaed63abdc,48,0,2024-02-28T14:46:08.127Z,english_379.wav,0,pill,1110,37,4,5,Français ,m,1,0.1,9.27522888,1.81748923
6155a4dec04439eaed63abdc,48,0,2024-02-28T14:46:08.127Z,english_379.wav,0,pill,1110,37,4,5,Français ,m,2,0.2,37.03122757,0.92030015
6155a4dec04439eaed63abdc,48,0,2024-02-28T14:46:08.127Z,english_379.wav,0,pill,1110,37,4,5,Français ,m,3,0.3,99.63155139,1.45290857
6155a4dec04439eaed63abdc,48,0,2024-02-28T14:46:08.127Z,english_379.wav,0,pill,1110,37,4,5,Français ,m,4,0.4,33.35011574,1.06621496
6155a4dec04439eaed63abdc,48,0,2024-02-28T14:46:08.127Z,english_379.wav,0,pill,1110,37,4,5,Français ,m,5,0.5,-7.70874078,1.14308429
6155a4dec04439eaed63abdc,48,0,2024-02-28T14:46:08.127Z,english_379.wav,0,pill,1110,37,4,5,Français ,m,6,0.6,46.33326353,0.43706451
6155a4dec04439eaed63abdc,48,0,2024-02-28T14:46:08.127Z,english_379.wav,0,pill,1110,37,4,5,Français ,m,7,0.7,41.12969148,0.56663738
6155a4dec04439eaed63abdc,48,0,2024-02-28T14:46:08.127Z,english_379.wav,0,pill,1110,37,4,5,Français ,m,8,0.8,-55.78540597,1.37256697
6155a4dec04439eaed63abdc,48,0,2024-02-28T14:46:08.127Z,english_379.wav,0,pill,1110,37,4,5,Français ,m,9,0.9,-84.4527127,0.4510475
6155a4dec04439eaed63abdc,48,0,2024-02-28T14:46:08.127Z,english_379.wav,0,pill,1110,37,4,5,Français ,m,10,1.0,13.84600332,1.31801048
6155a4dec04439eaed63abdc,48,0,2024-02-28T14:46:08.127Z,english_379.wav,0,pill,1110,37,4,5,Français ,m,11,1.09391667,82.55643163,0.64535043
6155a4dec04439eaed63abdc,49,0,2024-02-28T14:46:08.127Z,english_421.wav,0,pill,585,37,4,5,Français ,m,0,0.0,-77.37875109,0.40906671
6155a4dec04439eaed63abdc,49,0,2024-02-28T14:46:08.127Z,english_421.wav,0,pill,585,37,4,5,Français ,m,1,0.1,21.68470971,0.10764534
6155a4dec04439eaed63abdc,49,0,2024-02-28T14:46:08.127Z,english_421.wav,0,pill,585,37,4,5,Français ,m,2,0.2,25.95594031,0.09890733
6155a4dec04439eaed63abdc,49,0,2024-02-28T14:46:08.127Z,english_421.wav,0,pill,585,37,4,5,Français ,m,3,0.3,-54.56850785,1.06704705
6155a4dec04439eaed63abdc,49,0,2024-02-28T14:46:08.127Z,english_421.wav,0,pill,585,37,4,5,Français ,m,4,0.4,24.0018444,0.2085299
6155a4dec04439eaed63abdc,49,0,2024-02-28T14:46:08.127Z,english_421.wav,0,pill,585,37,4,5,Français ,m,5,0.5,-47.82681182,0.29426066
6155a4dec04439eaed63abdc,49,0,2024-02-28T14:46:08.127Z,english_421.wav,0,pill,585,37,4,5,Français ,m,6,0.6,-46.58707105,1.5200041
6155a4dec04439eaed63abdc,49,0,2024-02-28T14:46:08.127Z,english_421.wav,0,pill,585,37,4,5,Français ,m,7,0.7,77.25272005,0.50765671
6155a4dec04439eaed63abdc,49,0,2024-02-28T14:46:08.127Z,english_421.wav,0,pill,585,37,4,5,Français ,m,8,0.8,77.76425926,0.03381604
6155a4dec04439eaed63abdc,49,0,2024-02-28T14:46:08.127Z,english_421.wav,0,pill,585,37,4,5,Français ,m,9,0.9,25.41801762,1.11402173
6155a4dec04439eaed63abdc,49,0,2024-02-28T14:46:08.127Z,english_421.wav,0,pill,585,37,4,5,Français ,m,10,1.0,38.43952496,1.16253286
6155a4dec04439eaed63abdc,49,0,2024-02-28T14:46:08.127Z,english_421.wav,0,pill,585,37,4,5,Français ,m,11,1.09391667,67.75811728,1.4554509
6155a4dec04439eaed63abdc,50,1,2024-02-28T14:49:05.570Z,english_576.wav,0,pill,528,37,4,5,Français ,m,0,0.0,-58.66306645,1.71561025
6155a4dec04439eaed63abdc,50,1,2024-02-28T14:49:05.570Z,english_576.wav,0,pill,528,37,4,5,Français ,m,1,0.1,-48.85456955,1.69080607
6155a4dec04439eaed63abdc,50,1,2024-02-28T14:49:05.570Z,english_576.wav,0,pill,528,37,4,5,Français ,m,2,0.2,29.24978703,1.36521175
6155a4dec04439eaed63abdc,50,1,2024-02-28T14:49:05.570Z,english_576.wav,0,pill,528,37,4,5,Français ,m,3,0.3,-4.57987844,0.87715483
6155a4dec04439eaed63abdc,50,1,2024-02-28T14:49:05.570Z,english_576.wav,0,pill,528,37,4,5,Français ,m,4,0.4,17.09511918,0.38991217
6155a4dec04439eaed63abdc,50,1,2024-02-28T14:49:05.570Z,english_576.wav,0,pill,528,37,4,5,Français ,m,5,0.5,-36.28101864,0.94074697
6155a4dec04439eaed63abdc,50,1,2024-02-28T14:49:05.570Z,english_576.wav,0,pill,528,37,4,5,Français ,m,6,0.6,16.68992844,0.21735662
6155a4dec04439eaed63abdc,50,1,2024-02-28T14:49:05.570Z,english_576.wav,0,pill,528,37,4,5,Français ,m,7,0.7,41.08024696,0.2928344
6155a4dec04439eaed63abdc,50,1,2024-02-28T14:49:05.570Z,english_576.wav,0,pill,528,37,4,5,Français ,m,8,0.8,84.11774755,1.75349185
6155a4dec04439eaed63abdc,50,1,2024-02-28T14:49:05.570Z,english_576.wav,0,pill,528,37,4,5,Français ,m,9,0.9,37.20407844,0.5790335
6155a4dec04439eaed63abdc,50,1,2024-02-28T14:49:05.570Z,english_576.wav,0,pill,528,37,4,5,Français ,m,10,1.0,-6.74453613,0.77029309
6155a4dec04439eaed63abdc,50,1,2024-02-28T14:49:05.570Z,english_576.wav,0,pill,528,37,4,5,Français ,m,11,1.09391667,8.90716527,0.55391499
6155a4dec04439eaed63abdc,51,1,2024-02-28T14:49:05.570Z,english_974.wav,0,peel,255,37,4,5,Français ,m,0,0.0,-93.03864928,0.43845399
6155a4dec04439eaed63abdc,51,1,2024-02-28T14:49:05.570Z,english_974.wav,0,peel,255,37,4,5,Français ,m,1,0.1,-77.75716604,1.6903579
6155a4dec04439eaed63abdc,51,1,2024-02-28T14:49:05.570Z,english_974.wav,0,peel,255,37,4,5,Français ,m,2,0.2,0.69139929,1.16063432
6155a4dec04439eaed63abdc,51,1,2024-02-28T14:49:05.570Z,english_974.wav,0,peel,255,37,4,5,Français ,m,3,0.3,26.0953238,1.86115796
6155a4dec04439eaed63abdc,51,1,2024-02-28T14:49:05.570Z,english_974.wav,0,peel,255,37,4,5,Français ,m,4,0.4,98.53440651,1.84489406
6155a4dec04439eaed63abdc,51,1,2024-02-28T14:49:05.570Z,english_974.wav,0,peel,255,37,4,5,Français ,m,5,0.5,92.94553081,1.48551441
6155a4dec04439eaed63abdc,51,1,2024-02-28T14:49:05.570Z,english_974.wav,0,peel,255,37,4,5,Français ,m,6,0.6,-7.63804917,0.45444214
6155a4dec04439eaed63abdc,51,1,2024-02-28T14:49:05.570Z,english_974.wav,0,peel,255,37,4,5,Français ,m,7,0.7,9.10874073,0.66005011
6155a4dec04439eaed63abdc,51,1,2024-02-28T14:49:05.570Z,english_974.wav,0,peel,255,37,4,5,Français ,m,8,0.8,-89.79433239,1.73425962
6155a4dec04439eaed63abdc,51,1,2024-02-28T14:49:05.570Z,english_974.wav,0,peel,255,37,4,5,Français ,m,9,0.9,-25.22506103,0.5346903
6155a4dec04439eaed63abdc,51,1,2024-02-28T14:49:05.570Z,english_974.wav,0,peel,255,37,4,5,Français ,m,10,1.0,90.91634132,1.12098349
6155a4dec04439eaed63abdc,51,1,2024-02-28T14:49:05.570Z,english_974.wav,0,peel,255,37,4,5,Français ,m,11,1.09391667,96.1258414,0.52486182
6155a4dec04439eaed63abdc,52,1,2024-02-28T14:49:05.570Z,english_254.wav,0,peel,716,37,4,5,Français ,m,0,0.0,-79.97486314,0.1587751
6155a4dec04439eaed63abdc,52,1,2024-02-28T14:49:05.570Z,english_254.wav,0,peel,716,37,4,5,Français ,m,1,0.1,4.97939185,1.19895937
6155a4dec04439eaed63abdc,52,1,2024-02-28T14:49:05.570Z,english_254.wav,0,peel,716,37,4,5,Français ,m,2,0.2,-28.78047168,0.42029652
6155a4dec04439eaed63abdc,52,1,2024-02-28T14:49:05.570Z,english_254.wav,0,peel,716,37,4,5,Français ,m,3,0.3,54.84679162,0.35684023
6155a4dec04439eaed63abdc,52,1,2024-02-28T14:49:05.570Z,english_254.wav,0,peel,716,37,4,5,Français ,m,4,0.4,-29.5092506,0.61489906
6155a4dec04439eaed63abdc,52,1,2024-02-28T14:49:05.570Z,english_254.wav,0,peel,716,37,4,5,Français ,m,5,0.5,32.35526616,0.62359164
6155a4dec04439eaed63abdc,52,1,2024-02-28T14:49:05.570Z,english_254.wav,0,peel,716,37,4,5,Français ,m,6,0.6,30.73043206,0.73353012
6155a4dec04439eaed63abdc,52,1,2024-02-28T14:49:05.570Z,english_254.wav,0,peel,716,37,4,5,Français ,m,7,0.7,-63.39934618,1.26915249
6155a4dec04439eaed63abdc,52,1,2024-02-28T14:49:05.570Z,english_254.wav,0,peel,716,37,4,5,Français ,m,8,0.8,41.52768957,1.27281169
6155a4dec04439eaed63abdc,52,1,2024-02-28T14:49:05.570Z,english_254.wav,0,peel,716,37,4,5,Français ,m,9,0.9,-68.73480186,1.34629586
6155a4dec04439eaed63abdc,52,1,2024-02-28T14:49:05.570Z,english_254.wav,0,peel,716,37,4,5,Français ,m,10,1.0,39.94615362,0.72701625
6155a4dec04439eaed63abdc,52,1,2024-02-28T14:49:05.570Z,english_254.wav,0,peel,716,37,4,5,Français ,m,11,1.09391667,-8.67015509,0.66252937
6155a4dec04439eaed63abdc,53,1,2024-02-28T14:49:05.570Z,english_864.wav,0,pill,1209,37,4,5,Français ,m,0,0.0,-0.0387960156,1.23414585
6155a4dec04439eaed63abdc,53,1,2024-02-28T14:49:05.570Z,english_864.wav,0,pill,1209,37,4,5,Français ,m,1,0.1,38.1316994,0.9307675
6155a4dec04439eaed63abdc,53,1,2024-02-28T14:49:05.570Z,english_864.wav,0,pill,1209,37,4,5,Français ,m,2,0.2,-27.0649645,0.03913176
6155a4dec04439eaed63abdc,53,1,2024-02-28T14:49:05.570Z,english_864.wav,0,pill,1209,37,4,5,Français ,m,3,0.3,48.6299289,0.1581059
6155a4dec04439eaed63abdc,53,1,2024-02-28T14:49:05.570Z,english_864.wav,0,pill,1209,37,4,5,Français ,m,4,0.4,-73.1690056,1.26848515
6155a4dec04439eaed63abdc,53,1,2024-02-28T14:49:05.570Z,english_864.wav,0,pill,1209,37,4,5,Français ,m,5,0.5,-28.1080401,1.70642176
6155a4dec04439eaed63abdc,53,1,2024-02-28T14:49:05.570Z,english_864.wav,0,pill,1209,37,4,5,Français ,m,6,0.6,47.3805694,1.16045112
6155a4dec04439eaed63abdc,53,1,2024-02-28T14:49:05.570Z,english_864.wav,0,pill,1209,37,4,5,Français ,m,7,0.7,-91.4211748,1.92718933
6155a4dec04439eaed63abdc,53,1,2024-02-28T14:49:05.570Z,english_864.wav,0,pill,1209,37,4,5,Français ,m,8,0.8,5.88699375,0.86462582
6155a4dec04439eaed63abdc,53,1,2024-02-28T14:49:05.570Z,english_864.wav,0,pill,1209,37,4,5,Français ,m,9,0.9,88.3416583,0.91973589
6155a4dec04439eaed63abdc,53,1,2024-02-28T14:49:05.570Z,english_864.wav,0,pill,1209,37,4,5,Français ,m,10,1.0,-36.7945697,0.59650291
6155a4dec04439eaed63abdc,53,1,2024-02-28T14:49:05.570Z,english_864.wav,0,pill,1209,37,4,5,Français ,m,11,1.09391667,-60.7645339,0.61493886
6155a4dec04439eaed63abdc,54,1,2024-02-28T14:49:05.570Z,english_755.wav,0,peel,891,37,4,5,Français ,m,0,0.0,-75.26385552,0.09689384
6155a4dec04439eaed63abdc,54,1,2024-02-28T14:49:05.570Z,english_755.wav,0,peel,891,37,4,5,Français ,m,1,0.1,-77.54873454,0.88213328
6155a4dec04439eaed63abdc,54,1,2024-02-28T14:49:05.570Z,english_755.wav,0,peel,891,37,4,5,Français ,m,2,0.2,13.4311812,0.06512801
6155a4dec04439eaed63abdc,54,1,2024-02-28T14:49:05.570Z,english_755.wav,0,peel,891,37,4,5,Français ,m,3,0.3,7.92656706,1.12427914
6155a4dec04439eaed63abdc,54,1,2024-02-28T14:49:05.570Z,english_755.wav,0,peel,891,37,4,5,Français ,m,4,0.4,43.04088715,0.73534916
6155a4dec04439eaed63abdc,54,1,2024-02-28T14:49:05.570Z,english_755.wav,0,peel,891,37,4,5,Français ,m,5,0.5,-52.66329155,0.96891313
6155a4dec04439eaed63abdc,54,1,2024-02-28T14:49:05.570Z,english_755.wav,0,peel,891,37,4,5,Français ,m,6,0.6,84.44946609,0.99997318
6155a4dec04439eaed63abdc,54,1,2024-02-28T14:49:05.570Z,english_755.wav,0,peel,891,37,4,5,Français ,m,7,0.7,35.14899848,1.2765527
6155a4dec04439eaed63abdc,54,1,2024-02-28T14:49:05.570Z,english_755.wav,0,peel,891,37,4,5,Français ,m,8,0.8,-13.90496644,1.38017734
6155a4dec04439eaed63abdc,54,1,2024-02-28T14:49:05.570Z,english_755.wav,0,peel,891,37,4,5,Français ,m,9,0.9,10.2251388,1.18692736
6155a4dec04439eaed63abdc,54,1,2024-02-28T14:49:05.570Z,english_755.wav,0,peel,891,37,4,5,Français ,m,10,1.0,-36.70454503,0.69548573
6155a4dec04439eaed63abdc,54,1,2024-02-28T14:49:05.570Z,english_755.wav,0,peel,891,37,4,5,Français ,m,11,1.09391667,11.3834831,0.72968454
6155a4dec04439eaed63abdc,55,1,2024-02-28T14:49:05.570Z,english_202.wav,0,peel,940,37,4,5,Français ,m,0,0.0,-55.5835629,1.42115323
6155a4dec04439eaed63abdc,55,1,2024-02-28T14:49:05.570Z,english_202.wav,0,peel,940,37,4,5,Français ,m,1,0.1,-74.17222211,1.11230171
6155a4dec04439eaed63abdc,55,1,2024-02-28T14:49:05.570Z,english_202.wav,0,peel,940,37,4,5,Français ,m,2,0.2,32.91988816,1.2604868
6155a4dec04439eaed63abdc,55,1,2024-02-28T14:49:05.570Z,english_202.wav,0,peel,940,37,4,5,Français ,m,3,0.3,-61.08726633,1.38170621
6155a4dec04439eaed63abdc,55,1,2024-02-28T14:49:05.570Z,english_202.wav,0,peel,940,37,4,5,Français ,m,4,0.4,74.28120307,1.19502306
6155a4dec04439eaed63abdc,55,1,2024-02-28T14:49:05.570Z,english_202.wav,0,peel,940,37,4,5,Français ,m,5,0.5,27.15782783,1.3290301
6155a4dec04439eaed63abdc,55,1,2024-02-28T14:49:05.570Z,english_202.wav,0,peel,940,37,4,5,Français ,m,6,0.6,-31.42828759,1.43273837
6155a4dec04439eaed63abdc,55,1,2024-02-28T14:49:05.570Z,english_202.wav,0,peel,940,37,4,5,Français ,m,7,0.7,-85.57803202,0.23505516
6155a4dec04439eaed63abdc,55,1,2024-02-28T14:49:05.570Z,english_202.wav,0,peel,940,37,4,5,Français ,m,8,0.8,-8.83313062,0.8306151
6155a4dec04439eaed63abdc,55,1,2024-02-28T14:49:05.570Z,english_202.wav,0,peel,940,37,4,5,Français ,m,9,0.9,75.88912897,1.14421979
6155a4dec04439eaed63abdc,55,1,2024-02-28T14:49:05.570Z,english_202.wav,0,peel,940,37,4,5,Français ,m,10,1.0,-46.89935533,1.72535261
6155a4dec04439eaed63abdc,55,1,2024-02-28T14:49:05.570Z,english_202.wav,0,peel,940,37,4,5,Français ,m,11,1.09391667,1.73094833,1.37481935
6155a4dec04439eaed63abdc,56,1,2024-02-28T14:49:05.570Z,english_692.wav,0,peel,851,37,4,5,Français ,m,0,0.0,17.01173199,0.47550749
6155a4dec04439eaed63abdc,56,1,2024-02-28T14:49:05.570Z,english_692.wav,0,peel,851,37,4,5,Français ,m,1,0.1,-83.06969334,1.08739119
6155a4dec04439eaed63abdc,56,1,2024-02-28T14:49:05.570Z,english_692.wav,0,peel,851,37,4,5,Français ,m,2,0.2,-58.44100575,1.75941989
6155a4dec04439eaed63abdc,56,1,2024-02-28T14:49:05.570Z,english_692.wav,0,peel,851,37,4,5,Français ,m,3,0.3,-91.32119293,0.308091
6155a4dec04439eaed63abdc,56,1,2024-02-28T14:49:05.570Z,english_692.wav,0,peel,851,37,4,5,Français ,m,4,0.4,-39.52405727,0.34371229
6155a4dec04439eaed63abdc,56,1,2024-02-28T14:49:05.570Z,english_692.wav,0,peel,851,37,4,5,Français ,m,5,0.5,-40.26958375,0.85553053
6155a4dec04439eaed63abdc,56,1,2024-02-28T14:49:05.570Z,english_692.wav,0,peel,851,37,4,5,Français ,m,6,0.6,55.4362835,1.67285815
6155a4dec04439eaed63abdc,56,1,2024-02-28T14:49:05.570Z,english_692.wav,0,peel,851,37,4,5,Français ,m,7,0.7,20.27621399,1.37569405
6155a4dec04439eaed63abdc,56,1,2024-02-28T14:49:05.570Z,english_692.wav,0,peel,851,37,4,5,Français ,m,8,0.8,-86.30023131,1.97676153
6155a4dec04439eaed63abdc,56,1,2024-02-28T14:49:05.570Z,english_692.wav,0,peel,851,37,4,5,Français ,m,9,0.9,6.83955759,0.86697186
6155a4dec04439eaed63abdc,56,1,2024-02-28T14:49:05.570Z,english_692.wav,0,peel,851,37,4,5,Français ,m,10,1.0,6.70379303,1.63903464
6155a4dec04439eaed63abdc,56,1,2024-02-28T14:49:05.570Z,english_692.wav,0,peel,851,37,4,5,Français ,m,11,1.09391667,92.50690067,0.89498599
6155a4dec04439eaed63abdc,57,1,2024-02-28T14:49:05.570Z,english_980.wav,0,pill,470,37,4,5,Français ,m,0,0.0,-89.21120638,0.86013949
6155a4dec04439eaed63abdc,57,1,2024-02-28T14:49:05.570Z,english_980.wav,0,pill,470,37,4,5,Français ,m,1,0.1,-61.94586113,1.20415769
6155a4dec04439eaed63abdc,57,1,2024-02-28T14:49:05.570Z,english_980.wav,0,pill,470,37,4,5,Français ,m,2,0.2,66.92224931,1.12519254
6155a4dec04439eaed63abdc,57,1,2024-02-28T14:49:05.570Z,english_980.wav,0,pill,470,37,4,5,Français ,m,3,0.3,-8.83169244,1.93563119
6155a4dec04439eaed63abdc,57,1,2024-02-28T14:49:05.570Z,english_980.wav,0,pill,470,37,4,5,Français ,m,4,0.4,-62.26224073,1.36290277
6155a4dec04439eaed63abdc,57,1,2024-02-28T14:49:05.570Z,english_980.wav,0,pill,470,37,4,5,Français ,m,5,0.5,-40.69471865,0.31823405
6155a4dec04439eaed63abdc,57,1,2024-02-28T14:49:05.570Z,english_980.wav,0,pill,470,37,4,5,Français ,m,6,0.6,-55.09323572,1.64522851
6155a4dec04439eaed63abdc,57,1,2024-02-28T14:49:05.570Z,english_980.wav,0,pill,470,37,4,5,Français ,m,7,0.7,-85.76938639,0.41705872
6155a4dec04439eaed63abdc,57,1,2024-02-28T14:49:05.570Z,english_980.wav,0,pill,470,37,4,5,Français ,m,8,0.8,-61.73931362,0.77550812
6155a4dec04439eaed63abdc,57,1,2024-02-28T14:49:05.570Z,english_980.wav,0,pill,470,37,4,5,Français ,m,9,0.9,29.10621895,0.71060598
6155a4dec04439eaed63abdc,57,1,2024-02-28T14:49:05.570Z,english_980.wav,0,pill,470,37,4,5,Français ,m,10,1.0,-54.92010394,0.25781542
6155a4dec04439eaed63abdc,57,1,2024-02-28T14:49:05.570Z,english_980.wav,0,pill,470,37,4,5,Français ,m,11,1.09391667,-99.59524777,0.26651543
6155a4dec04439eaed63abdc,58,1,2024-02-28T14:49:05.570Z,english_479.wav,0,pill,513,37,4,5,Français ,m,0,0.0,-34.7893931,1.93393565
6155a4dec04439eaed63abdc,58,1,2024-02-28T14:49:05.570Z,english_479.wav,0,pill,513,37,4,5,Français ,m,1,0.1,-71.34069905,0.26573691
6155a4dec04439eaed63abdc,58,1,2024-02-28T14:49:05.570Z,english_479.wav,0,pill,513,37,4,5,Français ,m,2,0.2,58.87573247,0.73981952
6155a4dec04439eaed63abdc,58,1,2024-02-28T14:49:05.570Z,english_479.wav,0,pill,513,37,4,5,Français ,m,3,0.3,-54.09913821,1.46667746
6155a4dec04439eaed63abdc,58,1,2024-02-28T14:49:05.570Z,english_479.wav,0,pill,513,37,4,5,Français ,m,4,0.4,43.12020224,0.55048015
6155a4dec04439eaed63abdc,58,1,2024-02-28T14:49:05.570Z,english_479.wav,0,pill,513,37,4,5,Français ,m,5,0.5,-44.41654249,0.62176048
6155a4dec04439eaed63abdc,58,1,2024-02-28T14:49:05.570Z,english_479.wav,0,pill,513,37,4,5,Français ,m,6,0.6,57.88290142,0.05220831
6155a4dec04439eaed63abdc,58,1,2024-02-28T14:49:05.570Z,english_479.wav,0,pill,513,37,4,5,Français ,m,7,0.7,-1.44997962,0.21971087
6155a4dec04439eaed63abdc,58,1,2024-02-28T14:49:05.570Z,english_479.wav,0,pill,513,37,4,5,Français ,m,8,0.8,89.72797502,0.30059048
6155a4dec04439eaed63abdc,58,1,2024-02-28T14:49:05.570Z,english_479.wav,0,pill,513,37,4,5,Français ,m,9,0.9,97.22467665,0.39403565
6155a4dec04439eaed63abdc,58,1,2024-02-28T14:49:05.570Z,english_479.wav,0,pill,513,37,4,5,Français ,m,10,1.0,52.11815336,1.20859565
6155a4dec04439eaed63abdc,58,1,2024-02-28T14:49:05.570Z,english_479.wav,0,pill,513,37,4,5,Français ,m,11,1.09391667,71.23188895,0.36818185
6155a4dec04439eaed63abdc,59,1,2024-02-28T14:49:05.570Z,english_430.wav,0,pill,208,37,4,5,Français ,m,0,0.0,-88.95761908,1.0411215
6155a4dec04439eaed63abdc,59,1,2024-02-28T14:49:05.570Z,english_430.wav,0,pill,208,37,4,5,Français ,m,1,0.1,39.34804897,1.73577333
6155a4dec04439eaed63abdc,59,1,2024-02-28T14:49:05.570Z,english_430.wav,0,pill,208,37,4,5,Français ,m,2,0.2,-21.72599187,0.8754531
6155a4dec04439eaed63abdc,59,1,2024-02-28T14:49:05.570Z,english_430.wav,0,pill,208,37,4,5,Français ,m,3,0.3,-97.97733292,0.18874451
6155a4dec04439eaed63abdc,59,1,2024-02-28T14:49:05.570Z,english_430.wav,0,pill,208,37,4,5,Français ,m,4,0.4,98.23201219,1.1142071
6155a4dec04439eaed63abdc,59,1,2024-02-28T14:49:05.570Z,english_430.wav,0,pill,208,37,4,5,Français ,m,5,0.5,92.79611353,0.3830467
6155a4dec04439eaed63abdc,59,1,2024-02-28T14:49:05.570Z,english_430.wav,0,pill,208,37,4,5,Français ,m,6,0.6,44.81381594,0.5347185
6155a4dec04439eaed63abdc,59,1,2024-02-28T14:49:05.570Z,english_430.wav,0,pill,208,37,4,5,Français ,m,7,0.7,-96.67681225,0.4014233
6155a4dec04439eaed63abdc,59,1,2024-02-28T14:49:05.570Z,english_430.wav,0,pill,208,37,4,5,Français ,m,8,0.8,99.24041947,0.50454446
6155a4dec04439eaed63abdc,59,1,2024-02-28T14:49:05.570Z,english_430.wav,0,pill,208,37,4,5,Français ,m,9,0.9,33.24344921,0.88496249
6155a4dec04439eaed63abdc,59,1,2024-02-28T14:49:05.570Z,english_430.wav,0,pill,208,37,4,5,Français ,m,10,1.0,-26.01349309,1.71251412
6155a4dec04439eaed63abdc,59,1,2024-02-28T14:49:05.570Z,english_430.wav,0,pill,208,37,4,5,Français ,m,11,1.09391667,-84.24925862,1.92006939
6155a4dec04439eaed63abdc,60,1,2024-02-28T14:49:05.570Z,english_210.wav,0,peel,225,37,4,5,Français ,m,0,0.0,-22.3598959,0.75499894
6155a4dec04439eaed63abdc,60,1,2024-02-28T14:49:05.570Z,english_210.wav,0,peel,225,37,4,5,Français ,m,1,0.1,82.81767229,1.61294131
6155a4dec04439eaed63abdc,60,1,2024-02-28T14:49:05.570Z,english_210.wav,0,peel,225,37,4,5,Français ,m,2,0.2,64.75592146,0.96857287
6155a4dec04439eaed63abdc,60,1,2024-02-28T14:49:05.570Z,english_210.wav,0,peel,225,37,4,5,Français ,m,3,0.3,38.64105246,1.31710082
6155a4dec04439eaed63abdc,60,1,2024-02-28T14:49:05.570Z,english_210.wav,0,peel,225,37,4,5,Français ,m,4,0.4,-56.81269148,0.48607374
6155a4dec04439eaed63abdc,60,1,2024-02-28T14:49:05.570Z,english_210.wav,0,peel,225,37,4,5,Français ,m,5,0.5,55.50536216,0.56849668
6155a4dec04439eaed63abdc,60,1,2024-02-28T14:49:05.570Z,english_210.wav,0,peel,225,37,4,5,Français ,m,6,0.6,-90.16901587,0.68954785
6155a4dec04439eaed63abdc,60,1,2024-02-28T14:49:05.570Z,english_210.wav,0,peel,225,37,4,5,Français ,m,7,0.7,-5.65019453,1.61518036
6155a4dec04439eaed63abdc,60,1,2024-02-28T14:49:05.570Z,english_210.wav,0,peel,225,37,4,5,Français ,m,8,0.8,-52.20950635,0.58148747
6155a4dec04439eaed63abdc,60,1,2024-02-28T14:49:05.570Z,english_210.wav,0,peel,225,37,4,5,Français ,m,9,0.9,2.11037441,1.45053329
6155a4dec04439eaed63abdc,60,1,2024-02-28T14:49:05.570Z,english_210.wav,0,peel,225,37,4,5,Français ,m,10,1.0,-72.63173863,1.53157276
6155a4dec04439eaed63abdc,60,1,2024-02-28T14:49:05.570Z,english_210.wav,0,peel,225,37,4,5,Français ,m,11,1.09391667,-28.48995406,1.31948045
6155a4dec04439eaed63abdc,61,1,2024-02-28T14:49:05.570Z,english_263.wav,0,pill,1667,37,4,5,Français ,m,0,0.0,60.54836266,0.88286661
6155a4dec04439eaed63abdc,61,1,2024-02-28T14:49:05.570Z,english_263.wav,0,pill,1667,37,4,5,Français ,m,1,0.1,-7.25947701,0.15523443
6155a4dec04439eaed63abdc,61,1,2024-02-28T14:49:05.570Z,english_263.wav,0,pill,1667,37,4,5,Français ,m,2,0.2,57.3147166,0.89947763
6155a4dec04439eaed63abdc,61,1,2024-02-28T14:49:05.570Z,english_263.wav,0,pill,1667,37,4,5,Français ,m,3,0.3,-54.27216299,1.94594407
6155a4dec04439eaed63abdc,61,1,2024-02-28T14:49:05.570Z,english_263.wav,0,pill,1667,37,4,5,Français ,m,4,0.4,-55.29215067,0.36252841
6155a4dec04439eaed63abdc,61,1,2024-02-28T14:49:05.570Z,english_263.wav,0,pill,1667,37,4,5,Français ,m,5,0.5,-35.67260064,0.43064253
6155a4dec04439eaed63abdc,61,1,2024-02-28T14:49:05.570Z,english_263.wav,0,pill,1667,37,4,5,Français ,m,6,0.6,64.27930659,0.12649613
6155a4dec04439eaed63abdc,61,1,2024-02-28T14:49:05.570Z,english_263.wav,0,pill,1667,37,4,5,Français ,m,7,0.7,39.11312223,0.99935682
6155a4dec04439eaed63abdc,61,1,2024-02-28T14:49:05.570Z,english_263.wav,0,pill,1667,37,4,5,Français ,m,8,0.8,-36.26628423,0.98138808
6155a4dec04439eaed63abdc,61,1,2024-02-28T14:49:05.570Z,english_263.wav,0,pill,1667,37,4,5,Français ,m,9,0.9,24.26738527,1.68351405
6155a4dec04439eaed63abdc,61,1,2024-02-28T14:49:05.570Z,english_263.wav,0,pill,1667,37,4,5,Français ,m,10,1.0,43.73514677,0.97417267
6155a4dec04439eaed63abdc,61,1,2024-02-28T14:49:05.570Z,english_263.wav,0,pill,1667,37,4,5,Français ,m,11,1.09391667,-15.47335433,0.42659576
6155a4dec04439eaed63abdc,62,1,2024-02-28T14:49:05.570Z,english_330.wav,0,pill,376,37,4,5,Français ,m,0,0.0,2.24171654,0.54683967
6155a4dec04439eaed63abdc,62,1,2024-02-28T14:49:05.570Z,english_330.wav,0,pill,376,37,4,5,Français ,m,1,0.1,-47.25901686,1.92392168
6155a4dec04439eaed63abdc,62,1,2024-02-28T14:49:05.570Z,english_330.wav,0,pill,376,37,4,5,Français ,m,2,0.2,-45.6229367,0.88546949
6155a4dec04439eaed63abdc,62,1,2024-02-28T14:49:05.570Z,english_330.wav,0,pill,376,37,4,5,Français ,m,3,0.3,-66.26500136,1.41106585
6155a4dec04439eaed63abdc,62,1,2024-02-28T14:49:05.570Z,english_330.wav,0,pill,376,37,4,5,Français ,m,4,0.4,13.126007,1.87683818
6155a4dec04439eaed63abdc,62,1,2024-02-28T14:49:05.570Z,english_330.wav,0,pill,376,37,4,5,Français ,m,5,0.5,-55.3162329,1.08870848
6155a4dec04439eaed63abdc,62,1,2024-02-28T14:49:05.570Z,english_330.wav,0,pill,376,37,4,5,Français ,m,6,0.6,-44.94887053,0.98346159
6155a4dec04439eaed63abdc,62,1,2024-02-28T14:49:05.570Z,english_330.wav,0,pill,376,37,4,5,Français ,m,7,0.7,21.08483531,0.45031197
6155a4dec04439eaed63abdc,62,1,2024-02-28T14:49:05.570Z,english_330.wav,0,pill,376,37,4,5,Français ,m,8,0.8,-37.88434209,1.40044514
6155a4dec04439eaed63abdc,62,1,2024-02-28T14:49:05.570Z,english_330.wav,0,pill,376,37,4,5,Français ,m,9,0.9,4.20371748,0.75112893
6155a4dec04439eaed63abdc,62,1,2024-02-28T14:49:05.570Z,english_330.wav,0,pill,376,37,4,5,Français ,m,10,1.0,80.65582765,0.77181744
6155a4dec04439eaed63abdc,62,1,2024-02-28T14:49:05.570Z,english_330.wav,0,pill,376,37,4,5,Français ,m,11,1.09391667,87.33082059,0.38922024
6155a4dec04439eaed63abdc,63,1,2024-02-28T14:49:05.570Z,english_382.wav,0,peel,417,37,4,5,Français ,m,0,0.0,51.10840748,1.50482446
6155a4dec04439eaed63abdc,63,1,2024-02-28T14:49:05.570Z,english_382.wav,0,peel,417,37,4,5,Français ,m,1,0.1,-91.92289356,1.64118974
6155a4dec04439eaed63abdc,63,1,2024-02-28T14:49:05.570Z,english_382.wav,0,peel,417,37,4,5,Français ,m,2,0.2,-79.84820622,1.27294553
6155a4dec04439eaed63abdc,63,1,2024-02-28T14:49:05.570Z,english_382.wav,0,peel,417,37,4,5,Français ,m,3,0.3,77.1343998,1.68382972
6155a4dec04439eaed63abdc,63,1,2024-02-28T14:49:05.570Z,english_382.wav,0,peel,417,37,4,5,Français ,m,4,0.4,-28.37542717,0.77725399
6155a4dec04439eaed63abdc,63,1,2024-02-28T14:49:05.570Z,english_382.wav,0,peel,417,37,4,5,Français ,m,5,0.5,-45.23452982,0.19931522
