subj,trial,block,date,stim,stim_order,response,rt,age,english,french,language,sex,param_index,segment,pitch,stretch
58bfee7de5869400018f5e9e,0,0,2024-02-28T14:49:44.508Z,english_723.wav,0,pill,3677,37,5,5,francais,m,0,0.0,41.38539941,1.7889603
58bfee7de5869400018f5e9e,0,0,2024-02-28T14:49:44.508Z,english_723.wav,0,pill,3677,37,5,5,francais,m,1,0.1,-10.01095303,0.1038592
58bfee7de5869400018f5e9e,0,0,2024-02-28T14:49:44.508Z,english_723.wav,0,pill,3677,37,5,5,francais,m,2,0.2,29.27272113,0.53110076
58bfee7de5869400018f5e9e,0,0,2024-02-28T14:49:44.508Z,english_723.wav,0,pill,3677,37,5,5,francais,m,3,0.3,-49.7176535,0.29760974
58bfee7de5869400018f5e9e,0,0,2024-02-28T14:49:44.508Z,english_723.wav,0,pill,3677,37,5,5,francais,m,4,0.4,-10.52042461,1.31106604
58bfee7de5869400018f5e9e,0,0,2024-02-28T14:49:44.508Z,english_723.wav,0,pill,3677,37,5,5,francais,m,5,0.5,-43.11656662,0.93542765
58bfee7de5869400018f5e9e,0,0,2024-02-28T14:49:44.508Z,english_723.wav,0,pill,3677,37,5,5,francais,m,6,0.6,-24.09481257,1.32967349
58bfee7de5869400018f5e9e,0,0,2024-02-28T14:49:44.508Z,english_723.wav,0,pill,3677,37,5,5,francais,m,7,0.7,61.11286308,1.11219452
58bfee7de5869400018f5e9e,0,0,2024-02-28T14:49:44.508Z,english_723.wav,0,pill,3677,37,5,5,francais,m,8,0.8,-37.09128746,0.4392085
58bfee7de5869400018f5e9e,0,0,2024-02-28T14:49:44.508Z,english_723.wav,0,pill,3677,37,5,5,francais,m,9,0.9,71.58023837,1.93673799
58bfee7de5869400018f5e9e,0,0,2024-02-28T14:49:44.508Z,english_723.wav,0,pill,3677,37,5,5,francais,m,10,1.0,30.56657054,0.01664343
58bfee7de5869400018f5e9e,0,0,2024-02-28T14:49:44.508Z,english_723.wav,0,pill,3677,37,5,5,francais,m,11,1.09391667,-5.36806636,0.22848658
58bfee7de5869400018f5e9e,1,0,2024-02-28T14:49:44.508Z,english_866.wav,0,peel,1000,37,5,5,francais,m,0,0.0,32.13948388,0.64921597
58bfee7de5869400018f5e9e,1,0,2024-02-28T14:49:44.508Z,english_866.wav,0,peel,1000,37,5,5,francais,m,1,0.1,38.60075831,1.48742897
58bfee7de5869400018f5e9e,1,0,2024-02-28T14:49:44.508Z,english_866.wav,0,peel,1000,37,5,5,francais,m,2,0.2,-79.61982729,0.28495491
58bfee7de5869400018f5e9e,1,0,2024-02-28T14:49:44.508Z,english_866.wav,0,peel,1000,37,5,5,francais,m,3,0.3,-60.72840424,0.9139307
58bfee7de5869400018f5e9e,1,0,2024-02-28T14:49:44.508Z,english_866.wav,0,peel,1000,37,5,5,francais,m,4,0.4,-37.10812529,1.2771469
58bfee7de5869400018f5e9e,1,0,2024-02-28T14:49:44.508Z,english_866.wav,0,peel,1000,37,5,5,francais,m,5,0.5,20.23366157,0.5381413
58bfee7de5869400018f5e9e,1,0,2024-02-28T14:49:44.508Z,english_866.wav,0,peel,1000,37,5,5,francais,m,6,0.6,-58.420194,0.14669297
58bfee7de5869400018f5e9e,1,0,2024-02-28T14:49:44.508Z,english_866.wav,0,peel,1000,37,5,5,francais,m,7,0.7,10.40447232,0.11342134
58bfee7de5869400018f5e9e,1,0,2024-02-28T14:49:44.508Z,english_866.wav,0,peel,1000,37,5,5,francais,m,8,0.8,-52.83849426,1.53208977
58bfee7de5869400018f5e9e,1,0,2024-02-28T14:49:44.508Z,english_866.wav,0,peel,1000,37,5,5,francais,m,9,0.9,32.83340069,0.84107623
58bfee7de5869400018f5e9e,1,0,2024-02-28T14:49:44.508Z,english_866.wav,0,peel,1000,37,5,5,francais,m,10,1.0,9.31901299,1.05202157
58bfee7de5869400018f5e9e,1,0,2024-02-28T14:49:44.508Z,english_866.wav,0,peel,1000,37,5,5,francais,m,11,1.09391667,-17.41907809,1.86418674
58bfee7de5869400018f5e9e,2,0,2024-02-28T14:49:44.508Z,english_413.wav,0,pill,2844,37,5,5,francais,m,0,0.0,14.83112151,0.44215223
58bfee7de5869400018f5e9e,2,0,2024-02-28T14:49:44.508Z,english_413.wav,0,pill,2844,37,5,5,francais,m,1,0.1,11.76914083,1.16902386
58bfee7de5869400018f5e9e,2,0,2024-02-28T14:49:44.508Z,english_413.wav,0,pill,2844,37,5,5,francais,m,2,0.2,56.99835841,1.34778137
58bfee7de5869400018f5e9e,2,0,2024-02-28T14:49:44.508Z,english_413.wav,0,pill,2844,37,5,5,francais,m,3,0.3,-91.21705368,1.75286116
58bfee7de5869400018f5e9e,2,0,2024-02-28T14:49:44.508Z,english_413.wav,0,pill,2844,37,5,5,francais,m,4,0.4,45.54032704,0.59475232
58bfee7de5869400018f5e9e,2,0,2024-02-28T14:49:44.508Z,english_413.wav,0,pill,2844,37,5,5,francais,m,5,0.5,27.79493499,1.56815753
58bfee7de5869400018f5e9e,2,0,2024-02-28T14:49:44.508Z,english_413.wav,0,pill,2844,37,5,5,francais,m,6,0.6,-45.92047179,1.45096495
58bfee7de5869400018f5e9e,2,0,2024-02-28T14:49:44.508Z,english_413.wav,0,pill,2844,37,5,5,francais,m,7,0.7,30.6901634,1.27145961
58bfee7de5869400018f5e9e,2,0,2024-02-28T14:49:44.508Z,english_413.wav,0,pill,2844,37,5,5,francais,m,8,0.8,-6.79166087,1.53710405
58bfee7de5869400018f5e9e,2,0,2024-02-28T14:49:44.508Z,english_413.wav,0,pill,2844,37,5,5,francais,m,9,0.9,-73.44231095,1.76487513
58bfee7de5869400018f5e9e,2,0,2024-02-28T14:49:44.508Z,english_413.wav,0,pill,2844,37,5,5,francais,m,10,1.0,72.98773842,1.73986125
58bfee7de5869400018f5e9e,2,0,2024-02-28T14:49:44.508Z,english_413.wav,0,pill,2844,37,5,5,francais,m,11,1.09391667,-6.1173613,0.92350985
58bfee7de5869400018f5e9e,3,0,2024-02-28T14:49:44.508Z,english_68.wav,0,pill,446,37,5,5,francais,m,0,0.0,26.58837816,1.41652886
58bfee7de5869400018f5e9e,3,0,2024-02-28T14:49:44.508Z,english_68.wav,0,pill,446,37,5,5,francais,m,1,0.1,-30.26201774,1.6821225
58bfee7de5869400018f5e9e,3,0,2024-02-28T14:49:44.508Z,english_68.wav,0,pill,446,37,5,5,francais,m,2,0.2,-90.31994669,0.24298021
58bfee7de5869400018f5e9e,3,0,2024-02-28T14:49:44.508Z,english_68.wav,0,pill,446,37,5,5,francais,m,3,0.3,-80.73820175,0.67959509
58bfee7de5869400018f5e9e,3,0,2024-02-28T14:49:44.508Z,english_68.wav,0,pill,446,37,5,5,francais,m,4,0.4,-81.40390329,1.6191627
58bfee7de5869400018f5e9e,3,0,2024-02-28T14:49:44.508Z,english_68.wav,0,pill,446,37,5,5,francais,m,5,0.5,-53.94630637,0.53489657
58bfee7de5869400018f5e9e,3,0,2024-02-28T14:49:44.508Z,english_68.wav,0,pill,446,37,5,5,francais,m,6,0.6,54.33124478,1.08896417
58bfee7de5869400018f5e9e,3,0,2024-02-28T14:49:44.508Z,english_68.wav,0,pill,446,37,5,5,francais,m,7,0.7,-19.04235486,1.94234514
58bfee7de5869400018f5e9e,3,0,2024-02-28T14:49:44.508Z,english_68.wav,0,pill,446,37,5,5,francais,m,8,0.8,-60.29150312,1.53460069
58bfee7de5869400018f5e9e,3,0,2024-02-28T14:49:44.508Z,english_68.wav,0,pill,446,37,5,5,francais,m,9,0.9,-10.04711988,1.76859618
58bfee7de5869400018f5e9e,3,0,2024-02-28T14:49:44.508Z,english_68.wav,0,pill,446,37,5,5,francais,m,10,1.0,14.48015304,0.93905077
58bfee7de5869400018f5e9e,3,0,2024-02-28T14:49:44.508Z,english_68.wav,0,pill,446,37,5,5,francais,m,11,1.09391667,-61.29871008,1.70593474
58bfee7de5869400018f5e9e,4,0,2024-02-28T14:49:44.508Z,english_691.wav,0,peel,1022,37,5,5,francais,m,0,0.0,53.99142335,1.37901611
58bfee7de5869400018f5e9e,4,0,2024-02-28T14:49:44.508Z,english_691.wav,0,peel,1022,37,5,5,francais,m,1,0.1,59.99308562,0.48516991
58bfee7de5869400018f5e9e,4,0,2024-02-28T14:49:44.508Z,english_691.wav,0,peel,1022,37,5,5,francais,m,2,0.2,-83.77980644,1.93939228
58bfee7de5869400018f5e9e,4,0,2024-02-28T14:49:44.508Z,english_691.wav,0,peel,1022,37,5,5,francais,m,3,0.3,5.55909075,1.80900702
58bfee7de5869400018f5e9e,4,0,2024-02-28T14:49:44.508Z,english_691.wav,0,peel,1022,37,5,5,francais,m,4,0.4,23.79459539,0.81475575
58bfee7de5869400018f5e9e,4,0,2024-02-28T14:49:44.508Z,english_691.wav,0,peel,1022,37,5,5,francais,m,5,0.5,-52.64546011,0.95195088
58bfee7de5869400018f5e9e,4,0,2024-02-28T14:49:44.508Z,english_691.wav,0,peel,1022,37,5,5,francais,m,6,0.6,2.68270455,1.3919478
58bfee7de5869400018f5e9e,4,0,2024-02-28T14:49:44.508Z,english_691.wav,0,peel,1022,37,5,5,francais,m,7,0.7,-52.61692888,0.70729183
58bfee7de5869400018f5e9e,4,0,2024-02-28T14:49:44.508Z,english_691.wav,0,peel,1022,37,5,5,francais,m,8,0.8,-36.65533837,1.61794077
58bfee7de5869400018f5e9e,4,0,2024-02-28T14:49:44.508Z,english_691.wav,0,peel,1022,37,5,5,francais,m,9,0.9,-75.69832194,0.1770134
58bfee7de5869400018f5e9e,4,0,2024-02-28T14:49:44.508Z,english_691.wav,0,peel,1022,37,5,5,francais,m,10,1.0,1.92131533,0.51863844
58bfee7de5869400018f5e9e,4,0,2024-02-28T14:49:44.508Z,english_691.wav,0,peel,1022,37,5,5,francais,m,11,1.09391667,-54.35087966,0.34478655
58bfee7de5869400018f5e9e,5,0,2024-02-28T14:49:44.508Z,english_699.wav,0,peel,965,37,5,5,francais,m,0,0.0,-10.64404417,0.39733036
58bfee7de5869400018f5e9e,5,0,2024-02-28T14:49:44.508Z,english_699.wav,0,peel,965,37,5,5,francais,m,1,0.1,-35.40818129,1.17761209
58bfee7de5869400018f5e9e,5,0,2024-02-28T14:49:44.508Z,english_699.wav,0,peel,965,37,5,5,francais,m,2,0.2,83.59292759,0.75132377
58bfee7de5869400018f5e9e,5,0,2024-02-28T14:49:44.508Z,english_699.wav,0,peel,965,37,5,5,francais,m,3,0.3,-40.30907773,0.9903314
58bfee7de5869400018f5e9e,5,0,2024-02-28T14:49:44.508Z,english_699.wav,0,peel,965,37,5,5,francais,m,4,0.4,-61.47705422,1.4462142
58bfee7de5869400018f5e9e,5,0,2024-02-28T14:49:44.508Z,english_699.wav,0,peel,965,37,5,5,francais,m,5,0.5,73.77462927,1.48079401
58bfee7de5869400018f5e9e,5,0,2024-02-28T14:49:44.508Z,english_699.wav,0,peel,965,37,5,5,francais,m,6,0.6,-33.57926845,1.0256948
58bfee7de5869400018f5e9e,5,0,2024-02-28T14:49:44.508Z,english_699.wav,0,peel,965,37,5,5,francais,m,7,0.7,4.64440908,1.03411727
58bfee7de5869400018f5e9e,5,0,2024-02-28T14:49:44.508Z,english_699.wav,0,peel,965,37,5,5,francais,m,8,0.8,-17.22893219,1.52402725
58bfee7de5869400018f5e9e,5,0,2024-02-28T14:49:44.508Z,english_699.wav,0,peel,965,37,5,5,francais,m,9,0.9,7.65230973,0.08305717
58bfee7de5869400018f5e9e,5,0,2024-02-28T14:49:44.508Z,english_699.wav,0,peel,965,37,5,5,francais,m,10,1.0,91.77034013,1.30692687
58bfee7de5869400018f5e9e,5,0,2024-02-28T14:49:44.508Z,english_699.wav,0,peel,965,37,5,5,francais,m,11,1.09391667,29.53486649,1.30233828
58bfee7de5869400018f5e9e,6,0,2024-02-28T14:49:44.508Z,english_55.wav,0,pill,1376,37,5,5,francais,m,0,0.0,55.67307479,0.52782995
58bfee7de5869400018f5e9e,6,0,2024-02-28T14:49:44.508Z,english_55.wav,0,pill,1376,37,5,5,francais,m,1,0.1,-68.77763233,1.04888997
58bfee7de5869400018f5e9e,6,0,2024-02-28T14:49:44.508Z,english_55.wav,0,pill,1376,37,5,5,francais,m,2,0.2,-65.56479824,1.48348863
58bfee7de5869400018f5e9e,6,0,2024-02-28T14:49:44.508Z,english_55.wav,0,pill,1376,37,5,5,francais,m,3,0.3,-28.17507295,0.48831434
58bfee7de5869400018f5e9e,6,0,2024-02-28T14:49:44.508Z,english_55.wav,0,pill,1376,37,5,5,francais,m,4,0.4,12.71546493,0.57381204
58bfee7de5869400018f5e9e,6,0,2024-02-28T14:49:44.508Z,english_55.wav,0,pill,1376,37,5,5,francais,m,5,0.5,79.84163838,0.45321787
58bfee7de5869400018f5e9e,6,0,2024-02-28T14:49:44.508Z,english_55.wav,0,pill,1376,37,5,5,francais,m,6,0.6,-44.12045936,1.63628375
58bfee7de5869400018f5e9e,6,0,2024-02-28T14:49:44.508Z,english_55.wav,0,pill,1376,37,5,5,francais,m,7,0.7,-80.03895773,1.60012046
58bfee7de5869400018f5e9e,6,0,2024-02-28T14:49:44.508Z,english_55.wav,0,pill,1376,37,5,5,francais,m,8,0.8,89.560279,1.77258714
58bfee7de5869400018f5e9e,6,0,2024-02-28T14:49:44.508Z,english_55.wav,0,pill,1376,37,5,5,francais,m,9,0.9,-86.43761931,0.52302607
58bfee7de5869400018f5e9e,6,0,2024-02-28T14:49:44.508Z,english_55.wav,0,pill,1376,37,5,5,francais,m,10,1.0,26.43928763,1.59376443
58bfee7de5869400018f5e9e,6,0,2024-02-28T14:49:44.508Z,english_55.wav,0,pill,1376,37,5,5,francais,m,11,1.09391667,35.34186428,1.33420322
58bfee7de5869400018f5e9e,7,0,2024-02-28T14:49:44.508Z,english_960.wav,0,peel,609,37,5,5,francais,m,0,0.0,-2.34292173,0.04592369
58bfee7de5869400018f5e9e,7,0,2024-02-28T14:49:44.508Z,english_960.wav,0,peel,609,37,5,5,francais,m,1,0.1,-14.33809381,1.93256303
58bfee7de5869400018f5e9e,7,0,2024-02-28T14:49:44.508Z,english_960.wav,0,peel,609,37,5,5,francais,m,2,0.2,23.80635185,1.63542615
58bfee7de5869400018f5e9e,7,0,2024-02-28T14:49:44.508Z,english_960.wav,0,peel,609,37,5,5,francais,m,3,0.3,-47.8246654,1.38214449
58bfee7de5869400018f5e9e,7,0,2024-02-28T14:49:44.508Z,english_960.wav,0,peel,609,37,5,5,francais,m,4,0.4,37.72126587,0.23301782
58bfee7de5869400018f5e9e,7,0,2024-02-28T14:49:44.508Z,english_960.wav,0,peel,609,37,5,5,francais,m,5,0.5,52.9199081,0.53692552
58bfee7de5869400018f5e9e,7,0,2024-02-28T14:49:44.508Z,english_960.wav,0,peel,609,37,5,5,francais,m,6,0.6,7.44982422,1.02814311
58bfee7de5869400018f5e9e,7,0,2024-02-28T14:49:44.508Z,english_960.wav,0,peel,609,37,5,5,francais,m,7,0.7,-7.86948203,0.98154622
58bfee7de5869400018f5e9e,7,0,2024-02-28T14:49:44.508Z,english_960.wav,0,peel,609,37,5,5,francais,m,8,0.8,72.23117138,0.31984479
58bfee7de5869400018f5e9e,7,0,2024-02-28T14:49:44.508Z,english_960.wav,0,peel,609,37,5,5,francais,m,9,0.9,44.79944131,1.34408856
58bfee7de5869400018f5e9e,7,0,2024-02-28T14:49:44.508Z,english_960.wav,0,peel,609,37,5,5,francais,m,10,1.0,4.95796587,0.65666074
58bfee7de5869400018f5e9e,7,0,2024-02-28T14:49:44.508Z,english_960.wav,0,peel,609,37,5,5,francais,m,11,1.09391667,60.45608826,0.78367591
58bfee7de5869400018f5e9e,8,0,2024-02-28T14:49:44.508Z,english_33.wav,0,pill,1054,37,5,5,francais,m,0,0.0,-39.58082457,0.53160826
58bfee7de5869400018f5e9e,8,0,2024-02-28T14:49:44.508Z,english_33.wav,0,pill,1054,37,5,5,francais,m,1,0.1,30.52342894,0.02130102
58bfee7de5869400018f5e9e,8,0,2024-02-28T14:49:44.508Z,english_33.wav,0,pill,1054,37,5,5,francais,m,2,0.2,23.47265499,1.79968549
58bfee7de5869400018f5e9e,8,0,2024-02-28T14:49:44.508Z,english_33.wav,0,pill,1054,37,5,5,francais,m,3,0.3,35.06724548,1.77904441
58bfee7de5869400018f5e9e,8,0,2024-02-28T14:49:44.508Z,english_33.wav,0,pill,1054,37,5,5,francais,m,4,0.4,68.41384456,0.50678762
58bfee7de5869400018f5e9e,8,0,2024-02-28T14:49:44.508Z,english_33.wav,0,pill,1054,37,5,5,francais,m,5,0.5,91.35527089,1.72631603
58bfee7de5869400018f5e9e,8,0,2024-02-28T14:49:44.508Z,english_33.wav,0,pill,1054,37,5,5,francais,m,6,0.6,45.24436298,0.90579128
58bfee7de5869400018f5e9e,8,0,2024-02-28T14:49:44.508Z,english_33.wav,0,pill,1054,37,5,5,francais,m,7,0.7,-95.9941639,1.42335886
58bfee7de5869400018f5e9e,8,0,2024-02-28T14:49:44.508Z,english_33.wav,0,pill,1054,37,5,5,francais,m,8,0.8,52.18884155,1.10708789
58bfee7de5869400018f5e9e,8,0,2024-02-28T14:49:44.508Z,english_33.wav,0,pill,1054,37,5,5,francais,m,9,0.9,-59.5821221,1.04407415
58bfee7de5869400018f5e9e,8,0,2024-02-28T14:49:44.508Z,english_33.wav,0,pill,1054,37,5,5,francais,m,10,1.0,-35.64274737,1.58844638
58bfee7de5869400018f5e9e,8,0,2024-02-28T14:49:44.508Z,english_33.wav,0,pill,1054,37,5,5,francais,m,11,1.09391667,-73.32122587,0.94640907
58bfee7de5869400018f5e9e,9,0,2024-02-28T14:49:44.508Z,english_202.wav,0,pill,631,37,5,5,francais,m,0,0.0,-55.5835629,1.42115323
58bfee7de5869400018f5e9e,9,0,2024-02-28T14:49:44.508Z,english_202.wav,0,pill,631,37,5,5,francais,m,1,0.1,-74.17222211,1.11230171
58bfee7de5869400018f5e9e,9,0,2024-02-28T14:49:44.508Z,english_202.wav,0,pill,631,37,5,5,francais,m,2,0.2,32.91988816,1.2604868
58bfee7de5869400018f5e9e,9,0,2024-02-28T14:49:44.508Z,english_202.wav,0,pill,631,37,5,5,francais,m,3,0.3,-61.08726633,1.38170621
58bfee7de5869400018f5e9e,9,0,2024-02-28T14:49:44.508Z,english_202.wav,0,pill,631,37,5,5,francais,m,4,0.4,74.28120307,1.19502306
58bfee7de5869400018f5e9e,9,0,2024-02-28T14:49:44.508Z,english_202.wav,0,pill,631,37,5,5,francais,m,5,0.5,27.15782783,1.3290301
58bfee7de5869400018f5e9e,9,0,2024-02-28T14:49:44.508Z,english_202.wav,0,pill,631,37,5,5,francais,m,6,0.6,-31.42828759,1.43273837
58bfee7de5869400018f5e9e,9,0,2024-02-28T14:49:44.508Z,english_202.wav,0,pill,631,37,5,5,francais,m,7,0.7,-85.57803202,0.23505516
58bfee7de5869400018f5e9e,9,0,2024-02-28T14:49:44.508Z,english_202.wav,0,pill,631,37,5,5,francais,m,8,0.8,-8.83313062,0.8306151
58bfee7de5869400018f5e9e,9,0,2024-02-28T14:49:44.508Z,english_202.wav,0,pill,631,37,5,5,francais,m,9,0.9,75.88912897,1.14421979
58bfee7de5869400018f5e9e,9,0,2024-02-28T14:49:44.508Z,english_202.wav,0,pill,631,37,5,5,francais,m,10,1.0,-46.89935533,1.72535261
58bfee7de5869400018f5e9e,9,0,2024-02-28T14:49:44.508Z,english_202.wav,0,pill,631,37,5,5,francais,m,11,1.09391667,1.73094833,1.37481935
58bfee7de5869400018f5e9e,10,0,2024-02-28T14:49:44.508Z,english_660.wav,0,pill,602,37,5,5,francais,m,0,0.0,-6.98483794,0.74998418
58bfee7de5869400018f5e9e,10,0,2024-02-28T14:49:44.508Z,english_660.wav,0,pill,602,37,5,5,francais,m,1,0.1,-19.91361353,1.44180771
58bfee7de5869400018f5e9e,10,0,2024-02-28T14:49:44.508Z,english_660.wav,0,pill,602,37,5,5,francais,m,2,0.2,78.11411012,1.86148363
58bfee7de5869400018f5e9e,10,0,2024-02-28T14:49:44.508Z,english_660.wav,0,pill,602,37,5,5,francais,m,3,0.3,31.9686312,0.29878934
58bfee7de5869400018f5e9e,10,0,2024-02-28T14:49:44.508Z,english_660.wav,0,pill,602,37,5,5,francais,m,4,0.4,59.3000475,0.70934132
58bfee7de5869400018f5e9e,10,0,2024-02-28T14:49:44.508Z,english_660.wav,0,pill,602,37,5,5,francais,m,5,0.5,-70.43888588,1.90119169
58bfee7de5869400018f5e9e,10,0,2024-02-28T14:49:44.508Z,english_660.wav,0,pill,602,37,5,5,francais,m,6,0.6,-20.07366552,0.76680768
58bfee7de5869400018f5e9e,10,0,2024-02-28T14:49:44.508Z,english_660.wav,0,pill,602,37,5,5,francais,m,7,0.7,-55.63699673,0.42211173
58bfee7de5869400018f5e9e,10,0,2024-02-28T14:49:44.508Z,english_660.wav,0,pill,602,37,5,5,francais,m,8,0.8,-98.18697012,0.44483448
58bfee7de5869400018f5e9e,10,0,2024-02-28T14:49:44.508Z,english_660.wav,0,pill,602,37,5,5,francais,m,9,0.9,13.89215317,1.66618929
58bfee7de5869400018f5e9e,10,0,2024-02-28T14:49:44.508Z,english_660.wav,0,pill,602,37,5,5,francais,m,10,1.0,-7.40212614,0.443528
58bfee7de5869400018f5e9e,10,0,2024-02-28T14:49:44.508Z,english_660.wav,0,pill,602,37,5,5,francais,m,11,1.09391667,28.56237553,1.27514236
58bfee7de5869400018f5e9e,11,0,2024-02-28T14:49:44.508Z,english_295.wav,0,peel,812,37,5,5,francais,m,0,0.0,-21.33588045,0.64007693
58bfee7de5869400018f5e9e,11,0,2024-02-28T14:49:44.508Z,english_295.wav,0,peel,812,37,5,5,francais,m,1,0.1,28.18111365,0.36210443
58bfee7de5869400018f5e9e,11,0,2024-02-28T14:49:44.508Z,english_295.wav,0,peel,812,37,5,5,francais,m,2,0.2,-11.21795953,0.97510536
58bfee7de5869400018f5e9e,11,0,2024-02-28T14:49:44.508Z,english_295.wav,0,peel,812,37,5,5,francais,m,3,0.3,-75.82203472,1.22570619
58bfee7de5869400018f5e9e,11,0,2024-02-28T14:49:44.508Z,english_295.wav,0,peel,812,37,5,5,francais,m,4,0.4,36.75980824,1.08813481
58bfee7de5869400018f5e9e,11,0,2024-02-28T14:49:44.508Z,english_295.wav,0,peel,812,37,5,5,francais,m,5,0.5,82.52508149,1.82668288
58bfee7de5869400018f5e9e,11,0,2024-02-28T14:49:44.508Z,english_295.wav,0,peel,812,37,5,5,francais,m,6,0.6,-2.95672331,0.03453598
58bfee7de5869400018f5e9e,11,0,2024-02-28T14:49:44.508Z,english_295.wav,0,peel,812,37,5,5,francais,m,7,0.7,78.98755658,1.07945409
58bfee7de5869400018f5e9e,11,0,2024-02-28T14:49:44.508Z,english_295.wav,0,peel,812,37,5,5,francais,m,8,0.8,34.02541903,0.06380248
58bfee7de5869400018f5e9e,11,0,2024-02-28T14:49:44.508Z,english_295.wav,0,peel,812,37,5,5,francais,m,9,0.9,40.25185798,0.46673817
58bfee7de5869400018f5e9e,11,0,2024-02-28T14:49:44.508Z,english_295.wav,0,peel,812,37,5,5,francais,m,10,1.0,-23.49198504,0.55804019
58bfee7de5869400018f5e9e,11,0,2024-02-28T14:49:44.508Z,english_295.wav,0,peel,812,37,5,5,francais,m,11,1.09391667,43.4619086,0.67911388
58bfee7de5869400018f5e9e,12,0,2024-02-28T14:49:44.508Z,english_800.wav,0,pill,513,37,5,5,francais,m,0,0.0,35.31456444,1.69516606
58bfee7de5869400018f5e9e,12,0,2024-02-28T14:49:44.508Z,english_800.wav,0,pill,513,37,5,5,francais,m,1,0.1,32.41521545,0.23308544
58bfee7de5869400018f5e9e,12,0,2024-02-28T14:49:44.508Z,english_800.wav,0,pill,513,37,5,5,francais,m,2,0.2,-54.21409297,0.95659058
58bfee7de5869400018f5e9e,12,0,2024-02-28T14:49:44.508Z,english_800.wav,0,pill,513,37,5,5,francais,m,3,0.3,-42.78782363,1.51885901
58bfee7de5869400018f5e9e,12,0,2024-02-28T14:49:44.508Z,english_800.wav,0,pill,513,37,5,5,francais,m,4,0.4,54.56880631,1.37866605
58bfee7de5869400018f5e9e,12,0,2024-02-28T14:49:44.508Z,english_800.wav,0,pill,513,37,5,5,francais,m,5,0.5,-47.76201321,0.13843314
58bfee7de5869400018f5e9e,12,0,2024-02-28T14:49:44.508Z,english_800.wav,0,pill,513,37,5,5,francais,m,6,0.6,21.101395,0.69869138
58bfee7de5869400018f5e9e,12,0,2024-02-28T14:49:44.508Z,english_800.wav,0,pill,513,37,5,5,francais,m,7,0.7,-85.00905452,1.55469424
58bfee7de5869400018f5e9e,12,0,2024-02-28T14:49:44.508Z,english_800.wav,0,pill,513,37,5,5,francais,m,8,0.8,89.73188045,1.19022687
58bfee7de5869400018f5e9e,12,0,2024-02-28T14:49:44.508Z,english_800.wav,0,pill,513,37,5,5,francais,m,9,0.9,58.36158131,1.40913395
58bfee7de5869400018f5e9e,12,0,2024-02-28T14:49:44.508Z,english_800.wav,0,pill,513,37,5,5,francais,m,10,1.0,82.86297317,1.54823015
58bfee7de5869400018f5e9e,12,0,2024-02-28T14:49:44.508Z,english_800.wav,0,pill,513,37,5,5,francais,m,11,1.09391667,50.19485525,1.45235784
58bfee7de5869400018f5e9e,13,0,2024-02-28T14:49:44.508Z,english_24.wav,0,peel,858,37,5,5,francais,m,0,0.0,19.80934614,1.72303363
58bfee7de5869400018f5e9e,13,0,2024-02-28T14:49:44.508Z,english_24.wav,0,peel,858,37,5,5,francais,m,1,0.1,18.47296287,1.17223446
58bfee7de5869400018f5e9e,13,0,2024-02-28T14:49:44.508Z,english_24.wav,0,peel,858,37,5,5,francais,m,2,0.2,-87.44087303,0.32252022
58bfee7de5869400018f5e9e,13,0,2024-02-28T14:49:44.508Z,english_24.wav,0,peel,858,37,5,5,francais,m,3,0.3,-24.76838412,1.29113778
58bfee7de5869400018f5e9e,13,0,2024-02-28T14:49:44.508Z,english_24.wav,0,peel,858,37,5,5,francais,m,4,0.4,28.54854922,1.23026356
58bfee7de5869400018f5e9e,13,0,2024-02-28T14:49:44.508Z,english_24.wav,0,peel,858,37,5,5,francais,m,5,0.5,-93.00925389,1.272094
58bfee7de5869400018f5e9e,13,0,2024-02-28T14:49:44.508Z,english_24.wav,0,peel,858,37,5,5,francais,m,6,0.6,43.83851229,1.03857334
58bfee7de5869400018f5e9e,13,0,2024-02-28T14:49:44.508Z,english_24.wav,0,peel,858,37,5,5,francais,m,7,0.7,56.50445967,0.04355902
58bfee7de5869400018f5e9e,13,0,2024-02-28T14:49:44.508Z,english_24.wav,0,peel,858,37,5,5,francais,m,8,0.8,-34.51680679,1.12262583
58bfee7de5869400018f5e9e,13,0,2024-02-28T14:49:44.508Z,english_24.wav,0,peel,858,37,5,5,francais,m,9,0.9,77.91008798,0.83275479
58bfee7de5869400018f5e9e,13,0,2024-02-28T14:49:44.508Z,english_24.wav,0,peel,858,37,5,5,francais,m,10,1.0,22.21951013,0.49987962
58bfee7de5869400018f5e9e,13,0,2024-02-28T14:49:44.508Z,english_24.wav,0,peel,858,37,5,5,francais,m,11,1.09391667,44.21755505,0.6404637
58bfee7de5869400018f5e9e,14,0,2024-02-28T14:49:44.508Z,english_213.wav,0,pill,524,37,5,5,francais,m,0,0.0,-32.76105426,1.09332496
58bfee7de5869400018f5e9e,14,0,2024-02-28T14:49:44.508Z,english_213.wav,0,pill,524,37,5,5,francais,m,1,0.1,20.82965334,1.62338997
58bfee7de5869400018f5e9e,14,0,2024-02-28T14:49:44.508Z,english_213.wav,0,pill,524,37,5,5,francais,m,2,0.2,92.37712608,0.62920964
58bfee7de5869400018f5e9e,14,0,2024-02-28T14:49:44.508Z,english_213.wav,0,pill,524,37,5,5,francais,m,3,0.3,62.5594058,1.24187197
58bfee7de5869400018f5e9e,14,0,2024-02-28T14:49:44.508Z,english_213.wav,0,pill,524,37,5,5,francais,m,4,0.4,6.21236176,0.66893682
58bfee7de5869400018f5e9e,14,0,2024-02-28T14:49:44.508Z,english_213.wav,0,pill,524,37,5,5,francais,m,5,0.5,4.78560907,0.46069242
58bfee7de5869400018f5e9e,14,0,2024-02-28T14:49:44.508Z,english_213.wav,0,pill,524,37,5,5,francais,m,6,0.6,-34.71949358,0.40626587
58bfee7de5869400018f5e9e,14,0,2024-02-28T14:49:44.508Z,english_213.wav,0,pill,524,37,5,5,francais,m,7,0.7,-10.08230205,1.52821633
58bfee7de5869400018f5e9e,14,0,2024-02-28T14:49:44.508Z,english_213.wav,0,pill,524,37,5,5,francais,m,8,0.8,33.82806657,1.03411812
58bfee7de5869400018f5e9e,14,0,2024-02-28T14:49:44.508Z,english_213.wav,0,pill,524,37,5,5,francais,m,9,0.9,-6.48550499,1.40320231
58bfee7de5869400018f5e9e,14,0,2024-02-28T14:49:44.508Z,english_213.wav,0,pill,524,37,5,5,francais,m,10,1.0,-24.14508238,0.99721534
58bfee7de5869400018f5e9e,14,0,2024-02-28T14:49:44.508Z,english_213.wav,0,pill,524,37,5,5,francais,m,11,1.09391667,87.95814846,0.20116539
58bfee7de5869400018f5e9e,15,0,2024-02-28T14:49:44.508Z,english_649.wav,0,pill,999,37,5,5,francais,m,0,0.0,54.13337143,0.90685718
58bfee7de5869400018f5e9e,15,0,2024-02-28T14:49:44.508Z,english_649.wav,0,pill,999,37,5,5,francais,m,1,0.1,51.13672213,0.97028986
58bfee7de5869400018f5e9e,15,0,2024-02-28T14:49:44.508Z,english_649.wav,0,pill,999,37,5,5,francais,m,2,0.2,-46.53747516,0.5338014
58bfee7de5869400018f5e9e,15,0,2024-02-28T14:49:44.508Z,english_649.wav,0,pill,999,37,5,5,francais,m,3,0.3,-5.04561857,1.37151822
58bfee7de5869400018f5e9e,15,0,2024-02-28T14:49:44.508Z,english_649.wav,0,pill,999,37,5,5,francais,m,4,0.4,-96.10296837,1.19898074
58bfee7de5869400018f5e9e,15,0,2024-02-28T14:49:44.508Z,english_649.wav,0,pill,999,37,5,5,francais,m,5,0.5,91.1633791,0.83288569
58bfee7de5869400018f5e9e,15,0,2024-02-28T14:49:44.508Z,english_649.wav,0,pill,999,37,5,5,francais,m,6,0.6,40.43734858,1.46195871
58bfee7de5869400018f5e9e,15,0,2024-02-28T14:49:44.508Z,english_649.wav,0,pill,999,37,5,5,francais,m,7,0.7,-6.34456649,0.52535218
58bfee7de5869400018f5e9e,15,0,2024-02-28T14:49:44.508Z,english_649.wav,0,pill,999,37,5,5,francais,m,8,0.8,-47.75781838,0.56197414
58bfee7de5869400018f5e9e,15,0,2024-02-28T14:49:44.508Z,english_649.wav,0,pill,999,37,5,5,francais,m,9,0.9,-30.94847666,1.41697717
58bfee7de5869400018f5e9e,15,0,2024-02-28T14:49:44.508Z,english_649.wav,0,pill,999,37,5,5,francais,m,10,1.0,-10.84084503,1.24330897
58bfee7de5869400018f5e9e,15,0,2024-02-28T14:49:44.508Z,english_649.wav,0,pill,999,37,5,5,francais,m,11,1.09391667,16.60657514,0.55891177
58bfee7de5869400018f5e9e,16,0,2024-02-28T14:49:44.508Z,english_869.wav,0,peel,756,37,5,5,francais,m,0,0.0,-20.7946379,1.94834657
58bfee7de5869400018f5e9e,16,0,2024-02-28T14:49:44.508Z,english_869.wav,0,peel,756,37,5,5,francais,m,1,0.1,-22.88594334,1.67021182
58bfee7de5869400018f5e9e,16,0,2024-02-28T14:49:44.508Z,english_869.wav,0,peel,756,37,5,5,francais,m,2,0.2,-44.01188064,1.50520546
58bfee7de5869400018f5e9e,16,0,2024-02-28T14:49:44.508Z,english_869.wav,0,peel,756,37,5,5,francais,m,3,0.3,58.96228493,0.98955103
58bfee7de5869400018f5e9e,16,0,2024-02-28T14:49:44.508Z,english_869.wav,0,peel,756,37,5,5,francais,m,4,0.4,0.25554563,0.43254465
58bfee7de5869400018f5e9e,16,0,2024-02-28T14:49:44.508Z,english_869.wav,0,peel,756,37,5,5,francais,m,5,0.5,-14.29276016,1.32326318
58bfee7de5869400018f5e9e,16,0,2024-02-28T14:49:44.508Z,english_869.wav,0,peel,756,37,5,5,francais,m,6,0.6,40.28852475,0.34817039
58bfee7de5869400018f5e9e,16,0,2024-02-28T14:49:44.508Z,english_869.wav,0,peel,756,37,5,5,francais,m,7,0.7,83.9110951,0.4259349
58bfee7de5869400018f5e9e,16,0,2024-02-28T14:49:44.508Z,english_869.wav,0,peel,756,37,5,5,francais,m,8,0.8,-58.08971542,0.20780663
58bfee7de5869400018f5e9e,16,0,2024-02-28T14:49:44.508Z,english_869.wav,0,peel,756,37,5,5,francais,m,9,0.9,-47.84735546,0.9384124
58bfee7de5869400018f5e9e,16,0,2024-02-28T14:49:44.508Z,english_869.wav,0,peel,756,37,5,5,francais,m,10,1.0,18.70420486,1.5529846
58bfee7de5869400018f5e9e,16,0,2024-02-28T14:49:44.508Z,english_869.wav,0,peel,756,37,5,5,francais,m,11,1.09391667,33.02688521,1.23929613
58bfee7de5869400018f5e9e,17,0,2024-02-28T14:49:44.508Z,english_886.wav,0,peel,411,37,5,5,francais,m,0,0.0,-16.36651411,1.8465656
58bfee7de5869400018f5e9e,17,0,2024-02-28T14:49:44.508Z,english_886.wav,0,peel,411,37,5,5,francais,m,1,0.1,94.81992149,0.03609627
58bfee7de5869400018f5e9e,17,0,2024-02-28T14:49:44.508Z,english_886.wav,0,peel,411,37,5,5,francais,m,2,0.2,-83.66014359,0.10032261
58bfee7de5869400018f5e9e,17,0,2024-02-28T14:49:44.508Z,english_886.wav,0,peel,411,37,5,5,francais,m,3,0.3,66.57072673,0.61597825
58bfee7de5869400018f5e9e,17,0,2024-02-28T14:49:44.508Z,english_886.wav,0,peel,411,37,5,5,francais,m,4,0.4,-30.10881228,1.8473118
58bfee7de5869400018f5e9e,17,0,2024-02-28T14:49:44.508Z,english_886.wav,0,peel,411,37,5,5,francais,m,5,0.5,29.87535156,0.22794276
58bfee7de5869400018f5e9e,17,0,2024-02-28T14:49:44.508Z,english_886.wav,0,peel,411,37,5,5,francais,m,6,0.6,-5.84374474,1.70663056
58bfee7de5869400018f5e9e,17,0,2024-02-28T14:49:44.508Z,english_886.wav,0,peel,411,37,5,5,francais,m,7,0.7,-37.08874517,1.00704844
58bfee7de5869400018f5e9e,17,0,2024-02-28T14:49:44.508Z,english_886.wav,0,peel,411,37,5,5,francais,m,8,0.8,-37.71419391,1.51514851
58bfee7de5869400018f5e9e,17,0,2024-02-28T14:49:44.508Z,english_886.wav,0,peel,411,37,5,5,francais,m,9,0.9,81.54676756,0.33267442
58bfee7de5869400018f5e9e,17,0,2024-02-28T14:49:44.508Z,english_886.wav,0,peel,411,37,5,5,francais,m,10,1.0,34.24528544,1.39448041
58bfee7de5869400018f5e9e,17,0,2024-02-28T14:49:44.508Z,english_886.wav,0,peel,411,37,5,5,francais,m,11,1.09391667,-36.87365079,0.32097187
58bfee7de5869400018f5e9e,18,0,2024-02-28T14:49:44.508Z,english_113.wav,0,peel,431,37,5,5,francais,m,0,0.0,15.28166422,0.55667307
58bfee7de5869400018f5e9e,18,0,2024-02-28T14:49:44.508Z,english_113.wav,0,peel,431,37,5,5,francais,m,1,0.1,47.09879561,0.58592964
58bfee7de5869400018f5e9e,18,0,2024-02-28T14:49:44.508Z,english_113.wav,0,peel,431,37,5,5,francais,m,2,0.2,30.55065419,1.23790542
58bfee7de5869400018f5e9e,18,0,2024-02-28T14:49:44.508Z,english_113.wav,0,peel,431,37,5,5,francais,m,3,0.3,60.74459651,0.97364291
58bfee7de5869400018f5e9e,18,0,2024-02-28T14:49:44.508Z,english_113.wav,0,peel,431,37,5,5,francais,m,4,0.4,-80.73338373,0.01252312
58bfee7de5869400018f5e9e,18,0,2024-02-28T14:49:44.508Z,english_113.wav,0,peel,431,37,5,5,francais,m,5,0.5,-58.25545597,0.68334247
58bfee7de5869400018f5e9e,18,0,2024-02-28T14:49:44.508Z,english_113.wav,0,peel,431,37,5,5,francais,m,6,0.6,82.81118061,0.36908508
58bfee7de5869400018f5e9e,18,0,2024-02-28T14:49:44.508Z,english_113.wav,0,peel,431,37,5,5,francais,m,7,0.7,-61.4933419,0.9756346
58bfee7de5869400018f5e9e,18,0,2024-02-28T14:49:44.508Z,english_113.wav,0,peel,431,37,5,5,francais,m,8,0.8,15.22379089,1.72445689
58bfee7de5869400018f5e9e,18,0,2024-02-28T14:49:44.508Z,english_113.wav,0,peel,431,37,5,5,francais,m,9,0.9,-30.23460484,0.62749292
58bfee7de5869400018f5e9e,18,0,2024-02-28T14:49:44.508Z,english_113.wav,0,peel,431,37,5,5,francais,m,10,1.0,29.92994598,0.55530103
58bfee7de5869400018f5e9e,18,0,2024-02-28T14:49:44.508Z,english_113.wav,0,peel,431,37,5,5,francais,m,11,1.09391667,22.43308389,0.65235156
58bfee7de5869400018f5e9e,19,0,2024-02-28T14:49:44.508Z,english_126.wav,0,peel,446,37,5,5,francais,m,0,0.0,17.23277349,0.07681875
58bfee7de5869400018f5e9e,19,0,2024-02-28T14:49:44.508Z,english_126.wav,0,peel,446,37,5,5,francais,m,1,0.1,-82.02564831,1.15308157
58bfee7de5869400018f5e9e,19,0,2024-02-28T14:49:44.508Z,english_126.wav,0,peel,446,37,5,5,francais,m,2,0.2,-89.77449202,0.24325653
58bfee7de5869400018f5e9e,19,0,2024-02-28T14:49:44.508Z,english_126.wav,0,peel,446,37,5,5,francais,m,3,0.3,-51.19975639,0.26308615
58bfee7de5869400018f5e9e,19,0,2024-02-28T14:49:44.508Z,english_126.wav,0,peel,446,37,5,5,francais,m,4,0.4,-15.70542785,1.15666053
58bfee7de5869400018f5e9e,19,0,2024-02-28T14:49:44.508Z,english_126.wav,0,peel,446,37,5,5,francais,m,5,0.5,-86.49178279,0.93452427
58bfee7de5869400018f5e9e,19,0,2024-02-28T14:49:44.508Z,english_126.wav,0,peel,446,37,5,5,francais,m,6,0.6,-63.9993416,1.80863716
58bfee7de5869400018f5e9e,19,0,2024-02-28T14:49:44.508Z,english_126.wav,0,peel,446,37,5,5,francais,m,7,0.7,15.94919888,1.09862854
58bfee7de5869400018f5e9e,19,0,2024-02-28T14:49:44.508Z,english_126.wav,0,peel,446,37,5,5,francais,m,8,0.8,14.83212149,1.20748097
58bfee7de5869400018f5e9e,19,0,2024-02-28T14:49:44.508Z,english_126.wav,0,peel,446,37,5,5,francais,m,9,0.9,89.46410037,1.44558157
58bfee7de5869400018f5e9e,19,0,2024-02-28T14:49:44.508Z,english_126.wav,0,peel,446,37,5,5,francais,m,10,1.0,-9.32479478,0.49090758
58bfee7de5869400018f5e9e,19,0,2024-02-28T14:49:44.508Z,english_126.wav,0,peel,446,37,5,5,francais,m,11,1.09391667,36.75071045,0.88504815
58bfee7de5869400018f5e9e,20,0,2024-02-28T14:49:44.508Z,english_193.wav,0,peel,564,37,5,5,francais,m,0,0.0,-79.19298438,1.8278475
58bfee7de5869400018f5e9e,20,0,2024-02-28T14:49:44.508Z,english_193.wav,0,peel,564,37,5,5,francais,m,1,0.1,83.18398782,1.66141822
58bfee7de5869400018f5e9e,20,0,2024-02-28T14:49:44.508Z,english_193.wav,0,peel,564,37,5,5,francais,m,2,0.2,41.62817707,0.29384933
58bfee7de5869400018f5e9e,20,0,2024-02-28T14:49:44.508Z,english_193.wav,0,peel,564,37,5,5,francais,m,3,0.3,-63.57509965,0.14342966
58bfee7de5869400018f5e9e,20,0,2024-02-28T14:49:44.508Z,english_193.wav,0,peel,564,37,5,5,francais,m,4,0.4,84.76628996,1.0428664
58bfee7de5869400018f5e9e,20,0,2024-02-28T14:49:44.508Z,english_193.wav,0,peel,564,37,5,5,francais,m,5,0.5,10.12738943,1.69229155
58bfee7de5869400018f5e9e,20,0,2024-02-28T14:49:44.508Z,english_193.wav,0,peel,564,37,5,5,francais,m,6,0.6,-37.32432508,0.16574738
58bfee7de5869400018f5e9e,20,0,2024-02-28T14:49:44.508Z,english_193.wav,0,peel,564,37,5,5,francais,m,7,0.7,4.93485207,1.7490427
58bfee7de5869400018f5e9e,20,0,2024-02-28T14:49:44.508Z,english_193.wav,0,peel,564,37,5,5,francais,m,8,0.8,34.87911105,0.62073431
58bfee7de5869400018f5e9e,20,0,2024-02-28T14:49:44.508Z,english_193.wav,0,peel,564,37,5,5,francais,m,9,0.9,-39.85363935,0.72815791
58bfee7de5869400018f5e9e,20,0,2024-02-28T14:49:44.508Z,english_193.wav,0,peel,564,37,5,5,francais,m,10,1.0,34.81523129,1.27219327
58bfee7de5869400018f5e9e,20,0,2024-02-28T14:49:44.508Z,english_193.wav,0,peel,564,37,5,5,francais,m,11,1.09391667,72.77087749,1.22929628
58bfee7de5869400018f5e9e,21,0,2024-02-28T14:49:44.508Z,english_103.wav,0,pill,287,37,5,5,francais,m,0,0.0,48.6835233,0.31659488
58bfee7de5869400018f5e9e,21,0,2024-02-28T14:49:44.508Z,english_103.wav,0,pill,287,37,5,5,francais,m,1,0.1,36.55238137,0.91966706
58bfee7de5869400018f5e9e,21,0,2024-02-28T14:49:44.508Z,english_103.wav,0,pill,287,37,5,5,francais,m,2,0.2,48.06121709,0.7088313
58bfee7de5869400018f5e9e,21,0,2024-02-28T14:49:44.508Z,english_103.wav,0,pill,287,37,5,5,francais,m,3,0.3,-53.21418968,0.61655079
58bfee7de5869400018f5e9e,21,0,2024-02-28T14:49:44.508Z,english_103.wav,0,pill,287,37,5,5,francais,m,4,0.4,-84.49986715,0.3504638
58bfee7de5869400018f5e9e,21,0,2024-02-28T14:49:44.508Z,english_103.wav,0,pill,287,37,5,5,francais,m,5,0.5,2.274647,0.15173733
58bfee7de5869400018f5e9e,21,0,2024-02-28T14:49:44.508Z,english_103.wav,0,pill,287,37,5,5,francais,m,6,0.6,65.76169241,0.65986716
58bfee7de5869400018f5e9e,21,0,2024-02-28T14:49:44.508Z,english_103.wav,0,pill,287,37,5,5,francais,m,7,0.7,-54.56461338,1.01542857
58bfee7de5869400018f5e9e,21,0,2024-02-28T14:49:44.508Z,english_103.wav,0,pill,287,37,5,5,francais,m,8,0.8,-9.60778265,0.43719066
58bfee7de5869400018f5e9e,21,0,2024-02-28T14:49:44.508Z,english_103.wav,0,pill,287,37,5,5,francais,m,9,0.9,20.85441667,1.38316606
58bfee7de5869400018f5e9e,21,0,2024-02-28T14:49:44.508Z,english_103.wav,0,pill,287,37,5,5,francais,m,10,1.0,-75.91935247,1.2339212
58bfee7de5869400018f5e9e,21,0,2024-02-28T14:49:44.508Z,english_103.wav,0,pill,287,37,5,5,francais,m,11,1.09391667,-89.16544197,1.84830476
58bfee7de5869400018f5e9e,22,0,2024-02-28T14:49:44.508Z,english_106.wav,0,pill,1191,37,5,5,francais,m,0,0.0,49.34223169,0.13389709
58bfee7de5869400018f5e9e,22,0,2024-02-28T14:49:44.508Z,english_106.wav,0,pill,1191,37,5,5,francais,m,1,0.1,-45.57503338,0.25174437
58bfee7de5869400018f5e9e,22,0,2024-02-28T14:49:44.508Z,english_106.wav,0,pill,1191,37,5,5,francais,m,2,0.2,-15.08492624,0.82402432
58bfee7de5869400018f5e9e,22,0,2024-02-28T14:49:44.508Z,english_106.wav,0,pill,1191,37,5,5,francais,m,3,0.3,-19.8979669,0.82208583
58bfee7de5869400018f5e9e,22,0,2024-02-28T14:49:44.508Z,english_106.wav,0,pill,1191,37,5,5,francais,m,4,0.4,-25.53796799,1.38135822
58bfee7de5869400018f5e9e,22,0,2024-02-28T14:49:44.508Z,english_106.wav,0,pill,1191,37,5,5,francais,m,5,0.5,88.30993321,0.76093903
58bfee7de5869400018f5e9e,22,0,2024-02-28T14:49:44.508Z,english_106.wav,0,pill,1191,37,5,5,francais,m,6,0.6,-64.76962788,0.57981415
58bfee7de5869400018f5e9e,22,0,2024-02-28T14:49:44.508Z,english_106.wav,0,pill,1191,37,5,5,francais,m,7,0.7,-39.71315935,1.62636068
58bfee7de5869400018f5e9e,22,0,2024-02-28T14:49:44.508Z,english_106.wav,0,pill,1191,37,5,5,francais,m,8,0.8,92.87896843,1.17795772
58bfee7de5869400018f5e9e,22,0,2024-02-28T14:49:44.508Z,english_106.wav,0,pill,1191,37,5,5,francais,m,9,0.9,-52.99965121,0.06230935
58bfee7de5869400018f5e9e,22,0,2024-02-28T14:49:44.508Z,english_106.wav,0,pill,1191,37,5,5,francais,m,10,1.0,37.25809924,0.54036795
58bfee7de5869400018f5e9e,22,0,2024-02-28T14:49:44.508Z,english_106.wav,0,pill,1191,37,5,5,francais,m,11,1.09391667,83.50306975,1.72343759
58bfee7de5869400018f5e9e,23,0,2024-02-28T14:49:44.508Z,english_415.wav,0,pill,834,37,5,5,francais,m,0,0.0,84.16048874,1.30136544
58bfee7de5869400018f5e9e,23,0,2024-02-28T14:49:44.508Z,english_415.wav,0,pill,834,37,5,5,francais,m,1,0.1,56.88803289,0.47786549
58bfee7de5869400018f5e9e,23,0,2024-02-28T14:49:44.508Z,english_415.wav,0,pill,834,37,5,5,francais,m,2,0.2,-77.93771944,0.87690241
58bfee7de5869400018f5e9e,23,0,2024-02-28T14:49:44.508Z,english_415.wav,0,pill,834,37,5,5,francais,m,3,0.3,33.37600363,1.56003174
58bfee7de5869400018f5e9e,23,0,2024-02-28T14:49:44.508Z,english_415.wav,0,pill,834,37,5,5,francais,m,4,0.4,-61.82656021,0.56797275
58bfee7de5869400018f5e9e,23,0,2024-02-28T14:49:44.508Z,english_415.wav,0,pill,834,37,5,5,francais,m,5,0.5,-67.90016523,1.69402787
58bfee7de5869400018f5e9e,23,0,2024-02-28T14:49:44.508Z,english_415.wav,0,pill,834,37,5,5,francais,m,6,0.6,96.16166422,0.32249707
58bfee7de5869400018f5e9e,23,0,2024-02-28T14:49:44.508Z,english_415.wav,0,pill,834,37,5,5,francais,m,7,0.7,-50.86749148,0.03139967
58bfee7de5869400018f5e9e,23,0,2024-02-28T14:49:44.508Z,english_415.wav,0,pill,834,37,5,5,francais,m,8,0.8,55.29150844,1.30261133
58bfee7de5869400018f5e9e,23,0,2024-02-28T14:49:44.508Z,english_415.wav,0,pill,834,37,5,5,francais,m,9,0.9,-2.61257825,0.40350463
58bfee7de5869400018f5e9e,23,0,2024-02-28T14:49:44.508Z,english_415.wav,0,pill,834,37,5,5,francais,m,10,1.0,-83.3993401,1.74375152
58bfee7de5869400018f5e9e,23,0,2024-02-28T14:49:44.508Z,english_415.wav,0,pill,834,37,5,5,francais,m,11,1.09391667,24.68732816,0.25871995
58bfee7de5869400018f5e9e,24,0,2024-02-28T14:49:44.508Z,english_503.wav,0,peel,411,37,5,5,francais,m,0,0.0,82.81450313,0.83149822
58bfee7de5869400018f5e9e,24,0,2024-02-28T14:49:44.508Z,english_503.wav,0,peel,411,37,5,5,francais,m,1,0.1,87.05662754,1.91463783
58bfee7de5869400018f5e9e,24,0,2024-02-28T14:49:44.508Z,english_503.wav,0,peel,411,37,5,5,francais,m,2,0.2,42.99051807,0.15190796
58bfee7de5869400018f5e9e,24,0,2024-02-28T14:49:44.508Z,english_503.wav,0,peel,411,37,5,5,francais,m,3,0.3,23.32883613,1.60754129
58bfee7de5869400018f5e9e,24,0,2024-02-28T14:49:44.508Z,english_503.wav,0,peel,411,37,5,5,francais,m,4,0.4,48.50951883,0.81229928
58bfee7de5869400018f5e9e,24,0,2024-02-28T14:49:44.508Z,english_503.wav,0,peel,411,37,5,5,francais,m,5,0.5,-47.47339199,1.3748652
58bfee7de5869400018f5e9e,24,0,2024-02-28T14:49:44.508Z,english_503.wav,0,peel,411,37,5,5,francais,m,6,0.6,-9.99119765,1.71927888
58bfee7de5869400018f5e9e,24,0,2024-02-28T14:49:44.508Z,english_503.wav,0,peel,411,37,5,5,francais,m,7,0.7,68.86997334,0.8455295
58bfee7de5869400018f5e9e,24,0,2024-02-28T14:49:44.508Z,english_503.wav,0,peel,411,37,5,5,francais,m,8,0.8,-44.22385081,0.49975448
58bfee7de5869400018f5e9e,24,0,2024-02-28T14:49:44.508Z,english_503.wav,0,peel,411,37,5,5,francais,m,9,0.9,14.75546466,0.2402037
58bfee7de5869400018f5e9e,24,0,2024-02-28T14:49:44.508Z,english_503.wav,0,peel,411,37,5,5,francais,m,10,1.0,-47.31135976,1.02101903
58bfee7de5869400018f5e9e,24,0,2024-02-28T14:49:44.508Z,english_503.wav,0,peel,411,37,5,5,francais,m,11,1.09391667,-18.86254353,1.59376689
58bfee7de5869400018f5e9e,25,0,2024-02-28T14:49:44.508Z,english_979.wav,0,peel,459,37,5,5,francais,m,0,0.0,37.48457567,1.4207367
58bfee7de5869400018f5e9e,25,0,2024-02-28T14:49:44.508Z,english_979.wav,0,peel,459,37,5,5,francais,m,1,0.1,-37.02244062,1.31079647
58bfee7de5869400018f5e9e,25,0,2024-02-28T14:49:44.508Z,english_979.wav,0,peel,459,37,5,5,francais,m,2,0.2,-24.69283161,0.99381913
58bfee7de5869400018f5e9e,25,0,2024-02-28T14:49:44.508Z,english_979.wav,0,peel,459,37,5,5,francais,m,3,0.3,-46.06023598,1.92885953
58bfee7de5869400018f5e9e,25,0,2024-02-28T14:49:44.508Z,english_979.wav,0,peel,459,37,5,5,francais,m,4,0.4,-42.84074597,1.90853779
58bfee7de5869400018f5e9e,25,0,2024-02-28T14:49:44.508Z,english_979.wav,0,peel,459,37,5,5,francais,m,5,0.5,74.27862476,0.2569717
58bfee7de5869400018f5e9e,25,0,2024-02-28T14:49:44.508Z,english_979.wav,0,peel,459,37,5,5,francais,m,6,0.6,-8.30998961,0.19374483
58bfee7de5869400018f5e9e,25,0,2024-02-28T14:49:44.508Z,english_979.wav,0,peel,459,37,5,5,francais,m,7,0.7,58.9564601,1.09057025
58bfee7de5869400018f5e9e,25,0,2024-02-28T14:49:44.508Z,english_979.wav,0,peel,459,37,5,5,francais,m,8,0.8,-5.32034309,1.33389295
58bfee7de5869400018f5e9e,25,0,2024-02-28T14:49:44.508Z,english_979.wav,0,peel,459,37,5,5,francais,m,9,0.9,26.74044499,0.56327367
58bfee7de5869400018f5e9e,25,0,2024-02-28T14:49:44.508Z,english_979.wav,0,peel,459,37,5,5,francais,m,10,1.0,-18.64517926,0.75332902
58bfee7de5869400018f5e9e,25,0,2024-02-28T14:49:44.508Z,english_979.wav,0,peel,459,37,5,5,francais,m,11,1.09391667,58.46936922,0.45071064
58bfee7de5869400018f5e9e,26,0,2024-02-28T14:49:44.508Z,english_863.wav,0,pill,307,37,5,5,francais,m,0,0.0,3.14313852,1.16629305
58bfee7de5869400018f5e9e,26,0,2024-02-28T14:49:44.508Z,english_863.wav,0,pill,307,37,5,5,francais,m,1,0.1,-23.21665248,0.07060829
58bfee7de5869400018f5e9e,26,0,2024-02-28T14:49:44.508Z,english_863.wav,0,pill,307,37,5,5,francais,m,2,0.2,94.57997372,0.73624632
58bfee7de5869400018f5e9e,26,0,2024-02-28T14:49:44.508Z,english_863.wav,0,pill,307,37,5,5,francais,m,3,0.3,-70.02674633,1.78608874
58bfee7de5869400018f5e9e,26,0,2024-02-28T14:49:44.508Z,english_863.wav,0,pill,307,37,5,5,francais,m,4,0.4,40.94796862,1.19353904
58bfee7de5869400018f5e9e,26,0,2024-02-28T14:49:44.508Z,english_863.wav,0,pill,307,37,5,5,francais,m,5,0.5,88.61836916,1.05800258
58bfee7de5869400018f5e9e,26,0,2024-02-28T14:49:44.508Z,english_863.wav,0,pill,307,37,5,5,francais,m,6,0.6,69.208784,1.13776513
58bfee7de5869400018f5e9e,26,0,2024-02-28T14:49:44.508Z,english_863.wav,0,pill,307,37,5,5,francais,m,7,0.7,77.12421504,0.42226269
58bfee7de5869400018f5e9e,26,0,2024-02-28T14:49:44.508Z,english_863.wav,0,pill,307,37,5,5,francais,m,8,0.8,-17.44873358,1.07561455
58bfee7de5869400018f5e9e,26,0,2024-02-28T14:49:44.508Z,english_863.wav,0,pill,307,37,5,5,francais,m,9,0.9,-87.01424673,0.7154793
58bfee7de5869400018f5e9e,26,0,2024-02-28T14:49:44.508Z,english_863.wav,0,pill,307,37,5,5,francais,m,10,1.0,-56.04990787,0.64178271
58bfee7de5869400018f5e9e,26,0,2024-02-28T14:49:44.508Z,english_863.wav,0,pill,307,37,5,5,francais,m,11,1.09391667,-48.10301357,1.63280959
58bfee7de5869400018f5e9e,27,0,2024-02-28T14:49:44.508Z,english_330.wav,0,pill,485,37,5,5,francais,m,0,0.0,2.24171654,0.54683967
58bfee7de5869400018f5e9e,27,0,2024-02-28T14:49:44.508Z,english_330.wav,0,pill,485,37,5,5,francais,m,1,0.1,-47.25901686,1.92392168
58bfee7de5869400018f5e9e,27,0,2024-02-28T14:49:44.508Z,english_330.wav,0,pill,485,37,5,5,francais,m,2,0.2,-45.6229367,0.88546949
58bfee7de5869400018f5e9e,27,0,2024-02-28T14:49:44.508Z,english_330.wav,0,pill,485,37,5,5,francais,m,3,0.3,-66.26500136,1.41106585
58bfee7de5869400018f5e9e,27,0,2024-02-28T14:49:44.508Z,english_330.wav,0,pill,485,37,5,5,francais,m,4,0.4,13.126007,1.87683818
58bfee7de5869400018f5e9e,27,0,2024-02-28T14:49:44.508Z,english_330.wav,0,pill,485,37,5,5,francais,m,5,0.5,-55.3162329,1.08870848
58bfee7de5869400018f5e9e,27,0,2024-02-28T14:49:44.508Z,english_330.wav,0,pill,485,37,5,5,francais,m,6,0.6,-44.94887053,0.98346159
58bfee7de5869400018f5e9e,27,0,2024-02-28T14:49:44.508Z,english_330.wav,0,pill,485,37,5,5,francais,m,7,0.7,21.08483531,0.45031197
58bfee7de5869400018f5e9e,27,0,2024-02-28T14:49:44.508Z,english_330.wav,0,pill,485,37,5,5,francais,m,8,0.8,-37.88434209,1.40044514
58bfee7de5869400018f5e9e,27,0,2024-02-28T14:49:44.508Z,english_330.wav,0,pill,485,37,5,5,francais,m,9,0.9,4.20371748,0.75112893
58bfee7de5869400018f5e9e,27,0,2024-02-28T14:49:44.508Z,english_330.wav,0,pill,485,37,5,5,francais,m,10,1.0,80.65582765,0.77181744
58bfee7de5869400018f5e9e,27,0,2024-02-28T14:49:44.508Z,english_330.wav,0,pill,485,37,5,5,francais,m,11,1.09391667,87.33082059,0.38922024
58bfee7de5869400018f5e9e,28,0,2024-02-28T14:49:44.508Z,english_493.wav,0,peel,1003,37,5,5,francais,m,0,0.0,-8.91567992,0.90906845
58bfee7de5869400018f5e9e,28,0,2024-02-28T14:49:44.508Z,english_493.wav,0,peel,1003,37,5,5,francais,m,1,0.1,-2.81052192,1.82277729
58bfee7de5869400018f5e9e,28,0,2024-02-28T14:49:44.508Z,english_493.wav,0,peel,1003,37,5,5,francais,m,2,0.2,0.93987988,1.85575617
58bfee7de5869400018f5e9e,28,0,2024-02-28T14:49:44.508Z,english_493.wav,0,peel,1003,37,5,5,francais,m,3,0.3,-44.0664777,0.198144
58bfee7de5869400018f5e9e,28,0,2024-02-28T14:49:44.508Z,english_493.wav,0,peel,1003,37,5,5,francais,m,4,0.4,12.64172921,0.31833397
58bfee7de5869400018f5e9e,28,0,2024-02-28T14:49:44.508Z,english_493.wav,0,peel,1003,37,5,5,francais,m,5,0.5,38.10396852,0.16370317
58bfee7de5869400018f5e9e,28,0,2024-02-28T14:49:44.508Z,english_493.wav,0,peel,1003,37,5,5,francais,m,6,0.6,51.1275002,0.48830507
58bfee7de5869400018f5e9e,28,0,2024-02-28T14:49:44.508Z,english_493.wav,0,peel,1003,37,5,5,francais,m,7,0.7,-51.72089694,0.59724282
58bfee7de5869400018f5e9e,28,0,2024-02-28T14:49:44.508Z,english_493.wav,0,peel,1003,37,5,5,francais,m,8,0.8,-22.89469136,0.45798431
58bfee7de5869400018f5e9e,28,0,2024-02-28T14:49:44.508Z,english_493.wav,0,peel,1003,37,5,5,francais,m,9,0.9,55.14015253,1.24461858
58bfee7de5869400018f5e9e,28,0,2024-02-28T14:49:44.508Z,english_493.wav,0,peel,1003,37,5,5,francais,m,10,1.0,69.89984763,1.33195334
58bfee7de5869400018f5e9e,28,0,2024-02-28T14:49:44.508Z,english_493.wav,0,peel,1003,37,5,5,francais,m,11,1.09391667,7.83521283,1.92068406
58bfee7de5869400018f5e9e,29,0,2024-02-28T14:49:44.508Z,english_951.wav,0,pill,1211,37,5,5,francais,m,0,0.0,-36.21368885,0.73102916
58bfee7de5869400018f5e9e,29,0,2024-02-28T14:49:44.508Z,english_951.wav,0,pill,1211,37,5,5,francais,m,1,0.1,-21.58887728,1.91789337
58bfee7de5869400018f5e9e,29,0,2024-02-28T14:49:44.508Z,english_951.wav,0,pill,1211,37,5,5,francais,m,2,0.2,13.41790132,0.21798818
58bfee7de5869400018f5e9e,29,0,2024-02-28T14:49:44.508Z,english_951.wav,0,pill,1211,37,5,5,francais,m,3,0.3,54.14984422,1.25250258
58bfee7de5869400018f5e9e,29,0,2024-02-28T14:49:44.508Z,english_951.wav,0,pill,1211,37,5,5,francais,m,4,0.4,-14.70759229,1.17100168
58bfee7de5869400018f5e9e,29,0,2024-02-28T14:49:44.508Z,english_951.wav,0,pill,1211,37,5,5,francais,m,5,0.5,-89.28721174,0.37038944
58bfee7de5869400018f5e9e,29,0,2024-02-28T14:49:44.508Z,english_951.wav,0,pill,1211,37,5,5,francais,m,6,0.6,-44.90139169,0.22313149
58bfee7de5869400018f5e9e,29,0,2024-02-28T14:49:44.508Z,english_951.wav,0,pill,1211,37,5,5,francais,m,7,0.7,31.96128506,1.88317087
58bfee7de5869400018f5e9e,29,0,2024-02-28T14:49:44.508Z,english_951.wav,0,pill,1211,37,5,5,francais,m,8,0.8,15.8351581,0.03386618
58bfee7de5869400018f5e9e,29,0,2024-02-28T14:49:44.508Z,english_951.wav,0,pill,1211,37,5,5,francais,m,9,0.9,-35.27402609,1.29108959
58bfee7de5869400018f5e9e,29,0,2024-02-28T14:49:44.508Z,english_951.wav,0,pill,1211,37,5,5,francais,m,10,1.0,-2.7577194,0.69196657
58bfee7de5869400018f5e9e,29,0,2024-02-28T14:49:44.508Z,english_951.wav,0,pill,1211,37,5,5,francais,m,11,1.09391667,-33.63227805,1.7463571
58bfee7de5869400018f5e9e,30,0,2024-02-28T14:49:44.508Z,english_598.wav,0,pill,722,37,5,5,francais,m,0,0.0,66.59254232,1.11503085
58bfee7de5869400018f5e9e,30,0,2024-02-28T14:49:44.508Z,english_598.wav,0,pill,722,37,5,5,francais,m,1,0.1,-0.16294116,1.29891619
58bfee7de5869400018f5e9e,30,0,2024-02-28T14:49:44.508Z,english_598.wav,0,pill,722,37,5,5,francais,m,2,0.2,87.91623233,0.04302605
58bfee7de5869400018f5e9e,30,0,2024-02-28T14:49:44.508Z,english_598.wav,0,pill,722,37,5,5,francais,m,3,0.3,4.78179149,1.90355783
58bfee7de5869400018f5e9e,30,0,2024-02-28T14:49:44.508Z,english_598.wav,0,pill,722,37,5,5,francais,m,4,0.4,87.27330533,0.66957129
58bfee7de5869400018f5e9e,30,0,2024-02-28T14:49:44.508Z,english_598.wav,0,pill,722,37,5,5,francais,m,5,0.5,15.94205468,1.28062406
58bfee7de5869400018f5e9e,30,0,2024-02-28T14:49:44.508Z,english_598.wav,0,pill,722,37,5,5,francais,m,6,0.6,-57.72302194,0.15067731
58bfee7de5869400018f5e9e,30,0,2024-02-28T14:49:44.508Z,english_598.wav,0,pill,722,37,5,5,francais,m,7,0.7,-11.53545195,0.37044447
58bfee7de5869400018f5e9e,30,0,2024-02-28T14:49:44.508Z,english_598.wav,0,pill,722,37,5,5,francais,m,8,0.8,-97.23766847,0.00668091
58bfee7de5869400018f5e9e,30,0,2024-02-28T14:49:44.508Z,english_598.wav,0,pill,722,37,5,5,francais,m,9,0.9,-89.11050407,1.24076678
58bfee7de5869400018f5e9e,30,0,2024-02-28T14:49:44.508Z,english_598.wav,0,pill,722,37,5,5,francais,m,10,1.0,-7.65193873,0.4751477
58bfee7de5869400018f5e9e,30,0,2024-02-28T14:49:44.508Z,english_598.wav,0,pill,722,37,5,5,francais,m,11,1.09391667,-0.117565,1.3589293
58bfee7de5869400018f5e9e,31,0,2024-02-28T14:49:44.508Z,english_659.wav,0,peel,309,37,5,5,francais,m,0,0.0,-42.73609053,0.70277484
58bfee7de5869400018f5e9e,31,0,2024-02-28T14:49:44.508Z,english_659.wav,0,peel,309,37,5,5,francais,m,1,0.1,-54.26462218,1.15657561
58bfee7de5869400018f5e9e,31,0,2024-02-28T14:49:44.508Z,english_659.wav,0,peel,309,37,5,5,francais,m,2,0.2,4.14591437,0.91169634
58bfee7de5869400018f5e9e,31,0,2024-02-28T14:49:44.508Z,english_659.wav,0,peel,309,37,5,5,francais,m,3,0.3,27.62308209,0.71232504
58bfee7de5869400018f5e9e,31,0,2024-02-28T14:49:44.508Z,english_659.wav,0,peel,309,37,5,5,francais,m,4,0.4,38.57198708,1.23589102
58bfee7de5869400018f5e9e,31,0,2024-02-28T14:49:44.508Z,english_659.wav,0,peel,309,37,5,5,francais,m,5,0.5,80.21422515,0.15679007
58bfee7de5869400018f5e9e,31,0,2024-02-28T14:49:44.508Z,english_659.wav,0,peel,309,37,5,5,francais,m,6,0.6,73.99870372,0.18969614
58bfee7de5869400018f5e9e,31,0,2024-02-28T14:49:44.508Z,english_659.wav,0,peel,309,37,5,5,francais,m,7,0.7,-75.83334389,0.50055959
58bfee7de5869400018f5e9e,31,0,2024-02-28T14:49:44.508Z,english_659.wav,0,peel,309,37,5,5,francais,m,8,0.8,62.20160473,1.57461742
58bfee7de5869400018f5e9e,31,0,2024-02-28T14:49:44.508Z,english_659.wav,0,peel,309,37,5,5,francais,m,9,0.9,4.13787027,1.20431491
58bfee7de5869400018f5e9e,31,0,2024-02-28T14:49:44.508Z,english_659.wav,0,peel,309,37,5,5,francais,m,10,1.0,54.01825885,1.24355935
58bfee7de5869400018f5e9e,31,0,2024-02-28T14:49:44.508Z,english_659.wav,0,peel,309,37,5,5,francais,m,11,1.09391667,93.31828501,1.36043281
58bfee7de5869400018f5e9e,32,0,2024-02-28T14:49:44.508Z,english_378.wav,0,peel,593,37,5,5,francais,m,0,0.0,-6.75592408,1.57446733
58bfee7de5869400018f5e9e,32,0,2024-02-28T14:49:44.508Z,english_378.wav,0,peel,593,37,5,5,francais,m,1,0.1,-33.28558439,0.29285803
58bfee7de5869400018f5e9e,32,0,2024-02-28T14:49:44.508Z,english_378.wav,0,peel,593,37,5,5,francais,m,2,0.2,-96.71642688,0.09494473
58bfee7de5869400018f5e9e,32,0,2024-02-28T14:49:44.508Z,english_378.wav,0,peel,593,37,5,5,francais,m,3,0.3,70.45646645,0.09114875
58bfee7de5869400018f5e9e,32,0,2024-02-28T14:49:44.508Z,english_378.wav,0,peel,593,37,5,5,francais,m,4,0.4,20.01443052,0.12099564
58bfee7de5869400018f5e9e,32,0,2024-02-28T14:49:44.508Z,english_378.wav,0,peel,593,37,5,5,francais,m,5,0.5,-69.62604827,0.06996617
58bfee7de5869400018f5e9e,32,0,2024-02-28T14:49:44.508Z,english_378.wav,0,peel,593,37,5,5,francais,m,6,0.6,-82.6103386,0.89001983
58bfee7de5869400018f5e9e,32,0,2024-02-28T14:49:44.508Z,english_378.wav,0,peel,593,37,5,5,francais,m,7,0.7,-53.90394432,1.80047075
58bfee7de5869400018f5e9e,32,0,2024-02-28T14:49:44.508Z,english_378.wav,0,peel,593,37,5,5,francais,m,8,0.8,75.60526061,1.92282567
58bfee7de5869400018f5e9e,32,0,2024-02-28T14:49:44.508Z,english_378.wav,0,peel,593,37,5,5,francais,m,9,0.9,-65.71007404,0.07000512
58bfee7de5869400018f5e9e,32,0,2024-02-28T14:49:44.508Z,english_378.wav,0,peel,593,37,5,5,francais,m,10,1.0,-82.95728524,0.51793223
58bfee7de5869400018f5e9e,32,0,2024-02-28T14:49:44.508Z,english_378.wav,0,peel,593,37,5,5,francais,m,11,1.09391667,40.19708488,1.33854892
58bfee7de5869400018f5e9e,33,0,2024-02-28T14:49:44.508Z,english_620.wav,0,pill,308,37,5,5,francais,m,0,0.0,70.25249287,1.60927754
58bfee7de5869400018f5e9e,33,0,2024-02-28T14:49:44.508Z,english_620.wav,0,pill,308,37,5,5,francais,m,1,0.1,-54.17403538,0.35556605
58bfee7de5869400018f5e9e,33,0,2024-02-28T14:49:44.508Z,english_620.wav,0,pill,308,37,5,5,francais,m,2,0.2,-24.27909239,1.04145572
58bfee7de5869400018f5e9e,33,0,2024-02-28T14:49:44.508Z,english_620.wav,0,pill,308,37,5,5,francais,m,3,0.3,-72.34505274,1.98653049
58bfee7de5869400018f5e9e,33,0,2024-02-28T14:49:44.508Z,english_620.wav,0,pill,308,37,5,5,francais,m,4,0.4,-84.16228676,0.35027861
58bfee7de5869400018f5e9e,33,0,2024-02-28T14:49:44.508Z,english_620.wav,0,pill,308,37,5,5,francais,m,5,0.5,-50.29822256,1.43135392
58bfee7de5869400018f5e9e,33,0,2024-02-28T14:49:44.508Z,english_620.wav,0,pill,308,37,5,5,francais,m,6,0.6,87.34344189,1.2880573
58bfee7de5869400018f5e9e,33,0,2024-02-28T14:49:44.508Z,english_620.wav,0,pill,308,37,5,5,francais,m,7,0.7,-51.38543443,1.68116405
58bfee7de5869400018f5e9e,33,0,2024-02-28T14:49:44.508Z,english_620.wav,0,pill,308,37,5,5,francais,m,8,0.8,40.7028666,1.8236964
58bfee7de5869400018f5e9e,33,0,2024-02-28T14:49:44.508Z,english_620.wav,0,pill,308,37,5,5,francais,m,9,0.9,-95.70979416,0.04712506
58bfee7de5869400018f5e9e,33,0,2024-02-28T14:49:44.508Z,english_620.wav,0,pill,308,37,5,5,francais,m,10,1.0,95.25950338,1.86928379
58bfee7de5869400018f5e9e,33,0,2024-02-28T14:49:44.508Z,english_620.wav,0,pill,308,37,5,5,francais,m,11,1.09391667,-68.50782959,0.75081121
58bfee7de5869400018f5e9e,34,0,2024-02-28T14:49:44.508Z,english_178.wav,0,pill,445,37,5,5,francais,m,0,0.0,5.42478923,1.01011156
58bfee7de5869400018f5e9e,34,0,2024-02-28T14:49:44.508Z,english_178.wav,0,pill,445,37,5,5,francais,m,1,0.1,66.71711881,1.60637441
58bfee7de5869400018f5e9e,34,0,2024-02-28T14:49:44.508Z,english_178.wav,0,pill,445,37,5,5,francais,m,2,0.2,25.13944125,0.85795496
58bfee7de5869400018f5e9e,34,0,2024-02-28T14:49:44.508Z,english_178.wav,0,pill,445,37,5,5,francais,m,3,0.3,95.56005782,1.35214977
58bfee7de5869400018f5e9e,34,0,2024-02-28T14:49:44.508Z,english_178.wav,0,pill,445,37,5,5,francais,m,4,0.4,16.85207382,0.61247399
58bfee7de5869400018f5e9e,34,0,2024-02-28T14:49:44.508Z,english_178.wav,0,pill,445,37,5,5,francais,m,5,0.5,-27.28270002,1.45555962
58bfee7de5869400018f5e9e,34,0,2024-02-28T14:49:44.508Z,english_178.wav,0,pill,445,37,5,5,francais,m,6,0.6,86.24132907,0.34817024
58bfee7de5869400018f5e9e,34,0,2024-02-28T14:49:44.508Z,english_178.wav,0,pill,445,37,5,5,francais,m,7,0.7,-67.08119727,0.78995697
58bfee7de5869400018f5e9e,34,0,2024-02-28T14:49:44.508Z,english_178.wav,0,pill,445,37,5,5,francais,m,8,0.8,-0.81610081,1.09427424
58bfee7de5869400018f5e9e,34,0,2024-02-28T14:49:44.508Z,english_178.wav,0,pill,445,37,5,5,francais,m,9,0.9,-32.08256077,1.32224293
58bfee7de5869400018f5e9e,34,0,2024-02-28T14:49:44.508Z,english_178.wav,0,pill,445,37,5,5,francais,m,10,1.0,33.26765995,1.53013904
58bfee7de5869400018f5e9e,34,0,2024-02-28T14:49:44.508Z,english_178.wav,0,pill,445,37,5,5,francais,m,11,1.09391667,50.15163679,1.40313699
58bfee7de5869400018f5e9e,35,0,2024-02-28T14:49:44.508Z,english_622.wav,0,pill,316,37,5,5,francais,m,0,0.0,85.23778605,0.25362511
58bfee7de5869400018f5e9e,35,0,2024-02-28T14:49:44.508Z,english_622.wav,0,pill,316,37,5,5,francais,m,1,0.1,-65.052425,0.70835512
58bfee7de5869400018f5e9e,35,0,2024-02-28T14:49:44.508Z,english_622.wav,0,pill,316,37,5,5,francais,m,2,0.2,94.1080223,1.56739435
58bfee7de5869400018f5e9e,35,0,2024-02-28T14:49:44.508Z,english_622.wav,0,pill,316,37,5,5,francais,m,3,0.3,60.75067227,0.57882882
58bfee7de5869400018f5e9e,35,0,2024-02-28T14:49:44.508Z,english_622.wav,0,pill,316,37,5,5,francais,m,4,0.4,82.36087021,1.03820214
58bfee7de5869400018f5e9e,35,0,2024-02-28T14:49:44.508Z,english_622.wav,0,pill,316,37,5,5,francais,m,5,0.5,-1.2973795,0.49027556
58bfee7de5869400018f5e9e,35,0,2024-02-28T14:49:44.508Z,english_622.wav,0,pill,316,37,5,5,francais,m,6,0.6,-58.39763813,0.28856178
58bfee7de5869400018f5e9e,35,0,2024-02-28T14:49:44.508Z,english_622.wav,0,pill,316,37,5,5,francais,m,7,0.7,58.2192584,1.06997695
58bfee7de5869400018f5e9e,35,0,2024-02-28T14:49:44.508Z,english_622.wav,0,pill,316,37,5,5,francais,m,8,0.8,-34.88970136,1.42411309
58bfee7de5869400018f5e9e,35,0,2024-02-28T14:49:44.508Z,english_622.wav,0,pill,316,37,5,5,francais,m,9,0.9,58.73036873,1.57990687
58bfee7de5869400018f5e9e,35,0,2024-02-28T14:49:44.508Z,english_622.wav,0,pill,316,37,5,5,francais,m,10,1.0,-83.0394786,0.97655658
58bfee7de5869400018f5e9e,35,0,2024-02-28T14:49:44.508Z,english_622.wav,0,pill,316,37,5,5,francais,m,11,1.09391667,11.79606421,1.49131796
58bfee7de5869400018f5e9e,36,0,2024-02-28T14:49:44.508Z,english_384.wav,0,peel,2015,37,5,5,francais,m,0,0.0,25.59746769,0.31530466
58bfee7de5869400018f5e9e,36,0,2024-02-28T14:49:44.508Z,english_384.wav,0,peel,2015,37,5,5,francais,m,1,0.1,77.10112132,1.4723663
58bfee7de5869400018f5e9e,36,0,2024-02-28T14:49:44.508Z,english_384.wav,0,peel,2015,37,5,5,francais,m,2,0.2,-44.89854527,0.76042634
58bfee7de5869400018f5e9e,36,0,2024-02-28T14:49:44.508Z,english_384.wav,0,peel,2015,37,5,5,francais,m,3,0.3,-92.39491606,1.26765442
58bfee7de5869400018f5e9e,36,0,2024-02-28T14:49:44.508Z,english_384.wav,0,peel,2015,37,5,5,francais,m,4,0.4,-7.21963548,0.4561299
58bfee7de5869400018f5e9e,36,0,2024-02-28T14:49:44.508Z,english_384.wav,0,peel,2015,37,5,5,francais,m,5,0.5,-12.57418593,0.66006902
58bfee7de5869400018f5e9e,36,0,2024-02-28T14:49:44.508Z,english_384.wav,0,peel,2015,37,5,5,francais,m,6,0.6,-91.58210139,0.52858229
58bfee7de5869400018f5e9e,36,0,2024-02-28T14:49:44.508Z,english_384.wav,0,peel,2015,37,5,5,francais,m,7,0.7,-83.16364251,0.95307861
58bfee7de5869400018f5e9e,36,0,2024-02-28T14:49:44.508Z,english_384.wav,0,peel,2015,37,5,5,francais,m,8,0.8,-99.35642135,1.25910316
58bfee7de5869400018f5e9e,36,0,2024-02-28T14:49:44.508Z,english_384.wav,0,peel,2015,37,5,5,francais,m,9,0.9,39.42669245,1.31614459
58bfee7de5869400018f5e9e,36,0,2024-02-28T14:49:44.508Z,english_384.wav,0,peel,2015,37,5,5,francais,m,10,1.0,2.14731946,0.23757066
58bfee7de5869400018f5e9e,36,0,2024-02-28T14:49:44.508Z,english_384.wav,0,peel,2015,37,5,5,francais,m,11,1.09391667,-81.26968126,1.34705459
58bfee7de5869400018f5e9e,37,0,2024-02-28T14:49:44.508Z,english_125.wav,0,pill,1783,37,5,5,francais,m,0,0.0,37.27554733,0.5612227
58bfee7de5869400018f5e9e,37,0,2024-02-28T14:49:44.508Z,english_125.wav,0,pill,1783,37,5,5,francais,m,1,0.1,24.29830201,1.75747345
58bfee7de5869400018f5e9e,37,0,2024-02-28T14:49:44.508Z,english_125.wav,0,pill,1783,37,5,5,francais,m,2,0.2,-43.3040728,1.33602667
58bfee7de5869400018f5e9e,37,0,2024-02-28T14:49:44.508Z,english_125.wav,0,pill,1783,37,5,5,francais,m,3,0.3,32.63559677,0.25379983
58bfee7de5869400018f5e9e,37,0,2024-02-28T14:49:44.508Z,english_125.wav,0,pill,1783,37,5,5,francais,m,4,0.4,65.75819377,0.46765889
58bfee7de5869400018f5e9e,37,0,2024-02-28T14:49:44.508Z,english_125.wav,0,pill,1783,37,5,5,francais,m,5,0.5,93.24268126,0.0945868
58bfee7de5869400018f5e9e,37,0,2024-02-28T14:49:44.508Z,english_125.wav,0,pill,1783,37,5,5,francais,m,6,0.6,-15.30697981,1.31767057
58bfee7de5869400018f5e9e,37,0,2024-02-28T14:49:44.508Z,english_125.wav,0,pill,1783,37,5,5,francais,m,7,0.7,92.42760244,0.46721292
58bfee7de5869400018f5e9e,37,0,2024-02-28T14:49:44.508Z,english_125.wav,0,pill,1783,37,5,5,francais,m,8,0.8,43.95412796,1.38944415
58bfee7de5869400018f5e9e,37,0,2024-02-28T14:49:44.508Z,english_125.wav,0,pill,1783,37,5,5,francais,m,9,0.9,15.32237433,1.70361777
58bfee7de5869400018f5e9e,37,0,2024-02-28T14:49:44.508Z,english_125.wav,0,pill,1783,37,5,5,francais,m,10,1.0,-94.44407427,0.93528665
58bfee7de5869400018f5e9e,37,0,2024-02-28T14:49:44.508Z,english_125.wav,0,pill,1783,37,5,5,francais,m,11,1.09391667,87.09346239,1.20335548
58bfee7de5869400018f5e9e,38,0,2024-02-28T14:49:44.508Z,english_544.wav,0,peel,1739,37,5,5,francais,m,0,0.0,-12.83752334,0.26746705
58bfee7de5869400018f5e9e,38,0,2024-02-28T14:49:44.508Z,english_544.wav,0,peel,1739,37,5,5,francais,m,1,0.1,18.81551767,0.28928579
58bfee7de5869400018f5e9e,38,0,2024-02-28T14:49:44.508Z,english_544.wav,0,peel,1739,37,5,5,francais,m,2,0.2,-29.56712799,1.1529058
58bfee7de5869400018f5e9e,38,0,2024-02-28T14:49:44.508Z,english_544.wav,0,peel,1739,37,5,5,francais,m,3,0.3,-88.71669508,0.71030524
58bfee7de5869400018f5e9e,38,0,2024-02-28T14:49:44.508Z,english_544.wav,0,peel,1739,37,5,5,francais,m,4,0.4,60.52504719,1.2257672
58bfee7de5869400018f5e9e,38,0,2024-02-28T14:49:44.508Z,english_544.wav,0,peel,1739,37,5,5,francais,m,5,0.5,-63.41119431,1.58517904
58bfee7de5869400018f5e9e,38,0,2024-02-28T14:49:44.508Z,english_544.wav,0,peel,1739,37,5,5,francais,m,6,0.6,8.79618234,0.02752012
58bfee7de5869400018f5e9e,38,0,2024-02-28T14:49:44.508Z,english_544.wav,0,peel,1739,37,5,5,francais,m,7,0.7,-45.10475513,0.40266107
58bfee7de5869400018f5e9e,38,0,2024-02-28T14:49:44.508Z,english_544.wav,0,peel,1739,37,5,5,francais,m,8,0.8,-50.11360918,1.24234406
58bfee7de5869400018f5e9e,38,0,2024-02-28T14:49:44.508Z,english_544.wav,0,peel,1739,37,5,5,francais,m,9,0.9,24.528145,0.82116457
58bfee7de5869400018f5e9e,38,0,2024-02-28T14:49:44.508Z,english_544.wav,0,peel,1739,37,5,5,francais,m,10,1.0,39.08857689,0.0963448
58bfee7de5869400018f5e9e,38,0,2024-02-28T14:49:44.508Z,english_544.wav,0,peel,1739,37,5,5,francais,m,11,1.09391667,16.62790968,0.38181462
58bfee7de5869400018f5e9e,39,0,2024-02-28T14:49:44.508Z,english_496.wav,0,pill,1845,37,5,5,francais,m,0,0.0,71.48836841,0.54791396
58bfee7de5869400018f5e9e,39,0,2024-02-28T14:49:44.508Z,english_496.wav,0,pill,1845,37,5,5,francais,m,1,0.1,15.20852814,0.58485485
58bfee7de5869400018f5e9e,39,0,2024-02-28T14:49:44.508Z,english_496.wav,0,pill,1845,37,5,5,francais,m,2,0.2,-96.44274776,0.36991182
58bfee7de5869400018f5e9e,39,0,2024-02-28T14:49:44.508Z,english_496.wav,0,pill,1845,37,5,5,francais,m,3,0.3,-60.77213324,0.28046451
58bfee7de5869400018f5e9e,39,0,2024-02-28T14:49:44.508Z,english_496.wav,0,pill,1845,37,5,5,francais,m,4,0.4,51.84358461,1.3513408
58bfee7de5869400018f5e9e,39,0,2024-02-28T14:49:44.508Z,english_496.wav,0,pill,1845,37,5,5,francais,m,5,0.5,-29.81815899,0.81550086
58bfee7de5869400018f5e9e,39,0,2024-02-28T14:49:44.508Z,english_496.wav,0,pill,1845,37,5,5,francais,m,6,0.6,68.78610252,1.72009229
58bfee7de5869400018f5e9e,39,0,2024-02-28T14:49:44.508Z,english_496.wav,0,pill,1845,37,5,5,francais,m,7,0.7,-7.56844822,0.3057716
58bfee7de5869400018f5e9e,39,0,2024-02-28T14:49:44.508Z,english_496.wav,0,pill,1845,37,5,5,francais,m,8,0.8,77.81323141,0.47124655
58bfee7de5869400018f5e9e,39,0,2024-02-28T14:49:44.508Z,english_496.wav,0,pill,1845,37,5,5,francais,m,9,0.9,-20.60892305,1.72803136
58bfee7de5869400018f5e9e,39,0,2024-02-28T14:49:44.508Z,english_496.wav,0,pill,1845,37,5,5,francais,m,10,1.0,-49.14310168,0.96978589
58bfee7de5869400018f5e9e,39,0,2024-02-28T14:49:44.508Z,english_496.wav,0,pill,1845,37,5,5,francais,m,11,1.09391667,12.76376139,1.35172816
58bfee7de5869400018f5e9e,40,0,2024-02-28T14:49:44.508Z,english_291.wav,0,peel,604,37,5,5,francais,m,0,0.0,-35.42543517,1.79657699
58bfee7de5869400018f5e9e,40,0,2024-02-28T14:49:44.508Z,english_291.wav,0,peel,604,37,5,5,francais,m,1,0.1,-58.51846155,0.45193929
58bfee7de5869400018f5e9e,40,0,2024-02-28T14:49:44.508Z,english_291.wav,0,peel,604,37,5,5,francais,m,2,0.2,-22.76348489,1.43927243
58bfee7de5869400018f5e9e,40,0,2024-02-28T14:49:44.508Z,english_291.wav,0,peel,604,37,5,5,francais,m,3,0.3,19.21250817,0.51811893
58bfee7de5869400018f5e9e,40,0,2024-02-28T14:49:44.508Z,english_291.wav,0,peel,604,37,5,5,francais,m,4,0.4,10.39547897,0.67991537
58bfee7de5869400018f5e9e,40,0,2024-02-28T14:49:44.508Z,english_291.wav,0,peel,604,37,5,5,francais,m,5,0.5,-11.61823126,1.97176362
58bfee7de5869400018f5e9e,40,0,2024-02-28T14:49:44.508Z,english_291.wav,0,peel,604,37,5,5,francais,m,6,0.6,-78.73745365,1.52786701
58bfee7de5869400018f5e9e,40,0,2024-02-28T14:49:44.508Z,english_291.wav,0,peel,604,37,5,5,francais,m,7,0.7,-83.41752971,0.24358096
58bfee7de5869400018f5e9e,40,0,2024-02-28T14:49:44.508Z,english_291.wav,0,peel,604,37,5,5,francais,m,8,0.8,27.65579478,0.76180969
58bfee7de5869400018f5e9e,40,0,2024-02-28T14:49:44.508Z,english_291.wav,0,peel,604,37,5,5,francais,m,9,0.9,-91.79765348,0.40398826
58bfee7de5869400018f5e9e,40,0,2024-02-28T14:49:44.508Z,english_291.wav,0,peel,604,37,5,5,francais,m,10,1.0,39.55856781,0.49665503
58bfee7de5869400018f5e9e,40,0,2024-02-28T14:49:44.508Z,english_291.wav,0,peel,604,37,5,5,francais,m,11,1.09391667,64.357963,1.15353833
58bfee7de5869400018f5e9e,41,0,2024-02-28T14:49:44.508Z,english_896.wav,0,pill,1505,37,5,5,francais,m,0,0.0,15.15197213,1.10343193
58bfee7de5869400018f5e9e,41,0,2024-02-28T14:49:44.508Z,english_896.wav,0,pill,1505,37,5,5,francais,m,1,0.1,12.09834356,1.24784569
58bfee7de5869400018f5e9e,41,0,2024-02-28T14:49:44.508Z,english_896.wav,0,pill,1505,37,5,5,francais,m,2,0.2,-98.90945178,0.69536812
58bfee7de5869400018f5e9e,41,0,2024-02-28T14:49:44.508Z,english_896.wav,0,pill,1505,37,5,5,francais,m,3,0.3,-7.24132806,1.50082123
58bfee7de5869400018f5e9e,41,0,2024-02-28T14:49:44.508Z,english_896.wav,0,pill,1505,37,5,5,francais,m,4,0.4,-22.04912785,1.78962455
58bfee7de5869400018f5e9e,41,0,2024-02-28T14:49:44.508Z,english_896.wav,0,pill,1505,37,5,5,francais,m,5,0.5,53.27175302,0.59868421
58bfee7de5869400018f5e9e,41,0,2024-02-28T14:49:44.508Z,english_896.wav,0,pill,1505,37,5,5,francais,m,6,0.6,18.92228417,1.36027969
58bfee7de5869400018f5e9e,41,0,2024-02-28T14:49:44.508Z,english_896.wav,0,pill,1505,37,5,5,francais,m,7,0.7,65.4652164,1.44726147
58bfee7de5869400018f5e9e,41,0,2024-02-28T14:49:44.508Z,english_896.wav,0,pill,1505,37,5,5,francais,m,8,0.8,51.91420072,1.08983894
58bfee7de5869400018f5e9e,41,0,2024-02-28T14:49:44.508Z,english_896.wav,0,pill,1505,37,5,5,francais,m,9,0.9,20.23549525,0.07451316
58bfee7de5869400018f5e9e,41,0,2024-02-28T14:49:44.508Z,english_896.wav,0,pill,1505,37,5,5,francais,m,10,1.0,-86.64191921,0.79077881
58bfee7de5869400018f5e9e,41,0,2024-02-28T14:49:44.508Z,english_896.wav,0,pill,1505,37,5,5,francais,m,11,1.09391667,-62.9037571,1.64262615
58bfee7de5869400018f5e9e,42,0,2024-02-28T14:49:44.508Z,english_938.wav,0,pill,1021,37,5,5,francais,m,0,0.0,-53.63878643,0.25625638
58bfee7de5869400018f5e9e,42,0,2024-02-28T14:49:44.508Z,english_938.wav,0,pill,1021,37,5,5,francais,m,1,0.1,-38.8400944,1.23524187
58bfee7de5869400018f5e9e,42,0,2024-02-28T14:49:44.508Z,english_938.wav,0,pill,1021,37,5,5,francais,m,2,0.2,-9.87265498,0.81990957
58bfee7de5869400018f5e9e,42,0,2024-02-28T14:49:44.508Z,english_938.wav,0,pill,1021,37,5,5,francais,m,3,0.3,16.2059687,1.45712995
58bfee7de5869400018f5e9e,42,0,2024-02-28T14:49:44.508Z,english_938.wav,0,pill,1021,37,5,5,francais,m,4,0.4,-90.53563301,0.4819737
58bfee7de5869400018f5e9e,42,0,2024-02-28T14:49:44.508Z,english_938.wav,0,pill,1021,37,5,5,francais,m,5,0.5,64.72350929,0.32505179
58bfee7de5869400018f5e9e,42,0,2024-02-28T14:49:44.508Z,english_938.wav,0,pill,1021,37,5,5,francais,m,6,0.6,-52.05654387,1.44150274
58bfee7de5869400018f5e9e,42,0,2024-02-28T14:49:44.508Z,english_938.wav,0,pill,1021,37,5,5,francais,m,7,0.7,-42.35049902,1.58605202
58bfee7de5869400018f5e9e,42,0,2024-02-28T14:49:44.508Z,english_938.wav,0,pill,1021,37,5,5,francais,m,8,0.8,32.88204039,0.48300943
58bfee7de5869400018f5e9e,42,0,2024-02-28T14:49:44.508Z,english_938.wav,0,pill,1021,37,5,5,francais,m,9,0.9,-86.42075109,1.19049872
58bfee7de5869400018f5e9e,42,0,2024-02-28T14:49:44.508Z,english_938.wav,0,pill,1021,37,5,5,francais,m,10,1.0,31.2389269,1.85243238
58bfee7de5869400018f5e9e,42,0,2024-02-28T14:49:44.508Z,english_938.wav,0,pill,1021,37,5,5,francais,m,11,1.09391667,-10.13697021,0.92208217
58bfee7de5869400018f5e9e,43,0,2024-02-28T14:49:44.508Z,english_340.wav,0,pill,382,37,5,5,francais,m,0,0.0,19.74255444,0.3319767
58bfee7de5869400018f5e9e,43,0,2024-02-28T14:49:44.508Z,english_340.wav,0,pill,382,37,5,5,francais,m,1,0.1,25.16855735,0.61048523
58bfee7de5869400018f5e9e,43,0,2024-02-28T14:49:44.508Z,english_340.wav,0,pill,382,37,5,5,francais,m,2,0.2,-45.10982673,0.21275179
58bfee7de5869400018f5e9e,43,0,2024-02-28T14:49:44.508Z,english_340.wav,0,pill,382,37,5,5,francais,m,3,0.3,-94.4237425,0.29825912
58bfee7de5869400018f5e9e,43,0,2024-02-28T14:49:44.508Z,english_340.wav,0,pill,382,37,5,5,francais,m,4,0.4,33.61318105,0.68673966
58bfee7de5869400018f5e9e,43,0,2024-02-28T14:49:44.508Z,english_340.wav,0,pill,382,37,5,5,francais,m,5,0.5,-32.11968845,0.56528685
58bfee7de5869400018f5e9e,43,0,2024-02-28T14:49:44.508Z,english_340.wav,0,pill,382,37,5,5,francais,m,6,0.6,-73.96198045,1.1523669
58bfee7de5869400018f5e9e,43,0,2024-02-28T14:49:44.508Z,english_340.wav,0,pill,382,37,5,5,francais,m,7,0.7,-70.65108678,1.56179354
58bfee7de5869400018f5e9e,43,0,2024-02-28T14:49:44.508Z,english_340.wav,0,pill,382,37,5,5,francais,m,8,0.8,-16.68054018,0.7478511
58bfee7de5869400018f5e9e,43,0,2024-02-28T14:49:44.508Z,english_340.wav,0,pill,382,37,5,5,francais,m,9,0.9,17.74464594,1.06303665
58bfee7de5869400018f5e9e,43,0,2024-02-28T14:49:44.508Z,english_340.wav,0,pill,382,37,5,5,francais,m,10,1.0,-17.13563894,1.69470448
58bfee7de5869400018f5e9e,43,0,2024-02-28T14:49:44.508Z,english_340.wav,0,pill,382,37,5,5,francais,m,11,1.09391667,85.44426077,1.53904315
58bfee7de5869400018f5e9e,44,0,2024-02-28T14:49:44.508Z,english_706.wav,0,peel,227,37,5,5,francais,m,0,0.0,-18.59828841,1.29674848
58bfee7de5869400018f5e9e,44,0,2024-02-28T14:49:44.508Z,english_706.wav,0,peel,227,37,5,5,francais,m,1,0.1,17.62467533,1.04037111
58bfee7de5869400018f5e9e,44,0,2024-02-28T14:49:44.508Z,english_706.wav,0,peel,227,37,5,5,francais,m,2,0.2,-32.04245358,0.06692701
58bfee7de5869400018f5e9e,44,0,2024-02-28T14:49:44.508Z,english_706.wav,0,peel,227,37,5,5,francais,m,3,0.3,-59.68997275,0.01228106
58bfee7de5869400018f5e9e,44,0,2024-02-28T14:49:44.508Z,english_706.wav,0,peel,227,37,5,5,francais,m,4,0.4,-88.86740026,1.17857321
58bfee7de5869400018f5e9e,44,0,2024-02-28T14:49:44.508Z,english_706.wav,0,peel,227,37,5,5,francais,m,5,0.5,20.33601639,0.64258097
58bfee7de5869400018f5e9e,44,0,2024-02-28T14:49:44.508Z,english_706.wav,0,peel,227,37,5,5,francais,m,6,0.6,88.8364898,0.45138919
58bfee7de5869400018f5e9e,44,0,2024-02-28T14:49:44.508Z,english_706.wav,0,peel,227,37,5,5,francais,m,7,0.7,-63.14338412,0.65752297
58bfee7de5869400018f5e9e,44,0,2024-02-28T14:49:44.508Z,english_706.wav,0,peel,227,37,5,5,francais,m,8,0.8,-30.16182588,0.08455698
58bfee7de5869400018f5e9e,44,0,2024-02-28T14:49:44.508Z,english_706.wav,0,peel,227,37,5,5,francais,m,9,0.9,58.36718538,1.13304912
58bfee7de5869400018f5e9e,44,0,2024-02-28T14:49:44.508Z,english_706.wav,0,peel,227,37,5,5,francais,m,10,1.0,-51.79248442,1.89686489
58bfee7de5869400018f5e9e,44,0,2024-02-28T14:49:44.508Z,english_706.wav,0,peel,227,37,5,5,francais,m,11,1.09391667,-57.45505408,1.14298605
58bfee7de5869400018f5e9e,45,0,2024-02-28T14:49:44.508Z,english_696.wav,0,peel,605,37,5,5,francais,m,0,0.0,80.76263908,0.91509798
58bfee7de5869400018f5e9e,45,0,2024-02-28T14:49:44.508Z,english_696.wav,0,peel,605,37,5,5,francais,m,1,0.1,-81.05122768,1.74478529
58bfee7de5869400018f5e9e,45,0,2024-02-28T14:49:44.508Z,english_696.wav,0,peel,605,37,5,5,francais,m,2,0.2,25.61500263,0.26644886
58bfee7de5869400018f5e9e,45,0,2024-02-28T14:49:44.508Z,english_696.wav,0,peel,605,37,5,5,francais,m,3,0.3,25.88663843,1.54651286
58bfee7de5869400018f5e9e,45,0,2024-02-28T14:49:44.508Z,english_696.wav,0,peel,605,37,5,5,francais,m,4,0.4,-95.94910221,0.7055337
58bfee7de5869400018f5e9e,45,0,2024-02-28T14:49:44.508Z,english_696.wav,0,peel,605,37,5,5,francais,m,5,0.5,-72.42601444,0.71467656
58bfee7de5869400018f5e9e,45,0,2024-02-28T14:49:44.508Z,english_696.wav,0,peel,605,37,5,5,francais,m,6,0.6,24.16177071,0.57693313
58bfee7de5869400018f5e9e,45,0,2024-02-28T14:49:44.508Z,english_696.wav,0,peel,605,37,5,5,francais,m,7,0.7,64.95279218,1.47925574
58bfee7de5869400018f5e9e,45,0,2024-02-28T14:49:44.508Z,english_696.wav,0,peel,605,37,5,5,francais,m,8,0.8,52.94859059,0.57583693
58bfee7de5869400018f5e9e,45,0,2024-02-28T14:49:44.508Z,english_696.wav,0,peel,605,37,5,5,francais,m,9,0.9,-62.75879423,1.82750547
58bfee7de5869400018f5e9e,45,0,2024-02-28T14:49:44.508Z,english_696.wav,0,peel,605,37,5,5,francais,m,10,1.0,30.29085573,0.4690012
58bfee7de5869400018f5e9e,45,0,2024-02-28T14:49:44.508Z,english_696.wav,0,peel,605,37,5,5,francais,m,11,1.09391667,95.60067697,1.32087167
58bfee7de5869400018f5e9e,46,0,2024-02-28T14:49:44.508Z,english_743.wav,0,peel,1326,37,5,5,francais,m,0,0.0,97.77122609,0.40936323
58bfee7de5869400018f5e9e,46,0,2024-02-28T14:49:44.508Z,english_743.wav,0,peel,1326,37,5,5,francais,m,1,0.1,75.39760322,0.83333714
58bfee7de5869400018f5e9e,46,0,2024-02-28T14:49:44.508Z,english_743.wav,0,peel,1326,37,5,5,francais,m,2,0.2,-92.56300928,1.9299588
58bfee7de5869400018f5e9e,46,0,2024-02-28T14:49:44.508Z,english_743.wav,0,peel,1326,37,5,5,francais,m,3,0.3,73.60734954,0.31044819
58bfee7de5869400018f5e9e,46,0,2024-02-28T14:49:44.508Z,english_743.wav,0,peel,1326,37,5,5,francais,m,4,0.4,84.82420222,1.11112706
58bfee7de5869400018f5e9e,46,0,2024-02-28T14:49:44.508Z,english_743.wav,0,peel,1326,37,5,5,francais,m,5,0.5,-57.35733587,0.30641345
58bfee7de5869400018f5e9e,46,0,2024-02-28T14:49:44.508Z,english_743.wav,0,peel,1326,37,5,5,francais,m,6,0.6,36.05799571,1.79191215
58bfee7de5869400018f5e9e,46,0,2024-02-28T14:49:44.508Z,english_743.wav,0,peel,1326,37,5,5,francais,m,7,0.7,-80.10781894,1.43353199
58bfee7de5869400018f5e9e,46,0,2024-02-28T14:49:44.508Z,english_743.wav,0,peel,1326,37,5,5,francais,m,8,0.8,79.81818761,0.61341243
58bfee7de5869400018f5e9e,46,0,2024-02-28T14:49:44.508Z,english_743.wav,0,peel,1326,37,5,5,francais,m,9,0.9,71.53815245,1.6920607
58bfee7de5869400018f5e9e,46,0,2024-02-28T14:49:44.508Z,english_743.wav,0,peel,1326,37,5,5,francais,m,10,1.0,39.3075371,0.85862509
58bfee7de5869400018f5e9e,46,0,2024-02-28T14:49:44.508Z,english_743.wav,0,peel,1326,37,5,5,francais,m,11,1.09391667,85.61049635,0.78833379
58bfee7de5869400018f5e9e,47,0,2024-02-28T14:49:44.508Z,english_180.wav,0,pill,1094,37,5,5,francais,m,0,0.0,42.85478744,0.49645543
58bfee7de5869400018f5e9e,47,0,2024-02-28T14:49:44.508Z,english_180.wav,0,pill,1094,37,5,5,francais,m,1,0.1,11.60642133,1.40377655
58bfee7de5869400018f5e9e,47,0,2024-02-28T14:49:44.508Z,english_180.wav,0,pill,1094,37,5,5,francais,m,2,0.2,-27.38772625,0.70453688
58bfee7de5869400018f5e9e,47,0,2024-02-28T14:49:44.508Z,english_180.wav,0,pill,1094,37,5,5,francais,m,3,0.3,80.41560742,1.01697082
58bfee7de5869400018f5e9e,47,0,2024-02-28T14:49:44.508Z,english_180.wav,0,pill,1094,37,5,5,francais,m,4,0.4,-67.11843031,0.59692665
58bfee7de5869400018f5e9e,47,0,2024-02-28T14:49:44.508Z,english_180.wav,0,pill,1094,37,5,5,francais,m,5,0.5,25.47679572,0.43242047
58bfee7de5869400018f5e9e,47,0,2024-02-28T14:49:44.508Z,english_180.wav,0,pill,1094,37,5,5,francais,m,6,0.6,29.48556379,0.65503898
58bfee7de5869400018f5e9e,47,0,2024-02-28T14:49:44.508Z,english_180.wav,0,pill,1094,37,5,5,francais,m,7,0.7,-62.53851543,1.14916488
58bfee7de5869400018f5e9e,47,0,2024-02-28T14:49:44.508Z,english_180.wav,0,pill,1094,37,5,5,francais,m,8,0.8,-49.48041885,0.12826618
58bfee7de5869400018f5e9e,47,0,2024-02-28T14:49:44.508Z,english_180.wav,0,pill,1094,37,5,5,francais,m,9,0.9,29.80835172,1.82068044
58bfee7de5869400018f5e9e,47,0,2024-02-28T14:49:44.508Z,english_180.wav,0,pill,1094,37,5,5,francais,m,10,1.0,83.85336689,1.93281092
58bfee7de5869400018f5e9e,47,0,2024-02-28T14:49:44.508Z,english_180.wav,0,pill,1094,37,5,5,francais,m,11,1.09391667,-22.17498974,1.38105191
58bfee7de5869400018f5e9e,48,0,2024-02-28T14:49:44.508Z,english_188.wav,0,peel,2303,37,5,5,francais,m,0,0.0,-44.78438497,0.94710117
58bfee7de5869400018f5e9e,48,0,2024-02-28T14:49:44.508Z,english_188.wav,0,peel,2303,37,5,5,francais,m,1,0.1,-59.64362525,0.96413905
58bfee7de5869400018f5e9e,48,0,2024-02-28T14:49:44.508Z,english_188.wav,0,peel,2303,37,5,5,francais,m,2,0.2,-64.08533898,0.84840618
58bfee7de5869400018f5e9e,48,0,2024-02-28T14:49:44.508Z,english_188.wav,0,peel,2303,37,5,5,francais,m,3,0.3,-29.1378116,0.37627617
58bfee7de5869400018f5e9e,48,0,2024-02-28T14:49:44.508Z,english_188.wav,0,peel,2303,37,5,5,francais,m,4,0.4,-4.14868477,1.62621942
58bfee7de5869400018f5e9e,48,0,2024-02-28T14:49:44.508Z,english_188.wav,0,peel,2303,37,5,5,francais,m,5,0.5,-61.00737987,0.44747201
58bfee7de5869400018f5e9e,48,0,2024-02-28T14:49:44.508Z,english_188.wav,0,peel,2303,37,5,5,francais,m,6,0.6,61.72468412,0.51555254
58bfee7de5869400018f5e9e,48,0,2024-02-28T14:49:44.508Z,english_188.wav,0,peel,2303,37,5,5,francais,m,7,0.7,91.61563335,1.97040932
58bfee7de5869400018f5e9e,48,0,2024-02-28T14:49:44.508Z,english_188.wav,0,peel,2303,37,5,5,francais,m,8,0.8,-69.21450223,0.35468899
58bfee7de5869400018f5e9e,48,0,2024-02-28T14:49:44.508Z,english_188.wav,0,peel,2303,37,5,5,francais,m,9,0.9,55.80681999,1.42342949
58bfee7de5869400018f5e9e,48,0,2024-02-28T14:49:44.508Z,english_188.wav,0,peel,2303,37,5,5,francais,m,10,1.0,-13.47812759,1.23724986
58bfee7de5869400018f5e9e,48,0,2024-02-28T14:49:44.508Z,english_188.wav,0,peel,2303,37,5,5,francais,m,11,1.09391667,47.39616925,0.05613364
58bfee7de5869400018f5e9e,49,0,2024-02-28T14:49:44.508Z,english_579.wav,0,pill,677,37,5,5,francais,m,0,0.0,-6.35392527,1.17195822
58bfee7de5869400018f5e9e,49,0,2024-02-28T14:49:44.508Z,english_579.wav,0,pill,677,37,5,5,francais,m,1,0.1,5.78092652,1.67817047
58bfee7de5869400018f5e9e,49,0,2024-02-28T14:49:44.508Z,english_579.wav,0,pill,677,37,5,5,francais,m,2,0.2,55.74149698,0.96512057
58bfee7de5869400018f5e9e,49,0,2024-02-28T14:49:44.508Z,english_579.wav,0,pill,677,37,5,5,francais,m,3,0.3,64.66054606,0.73760998
58bfee7de5869400018f5e9e,49,0,2024-02-28T14:49:44.508Z,english_579.wav,0,pill,677,37,5,5,francais,m,4,0.4,-20.37343055,0.24043414
58bfee7de5869400018f5e9e,49,0,2024-02-28T14:49:44.508Z,english_579.wav,0,pill,677,37,5,5,francais,m,5,0.5,97.55604333,0.0297902
58bfee7de5869400018f5e9e,49,0,2024-02-28T14:49:44.508Z,english_579.wav,0,pill,677,37,5,5,francais,m,6,0.6,-7.40313463,0.83835869
58bfee7de5869400018f5e9e,49,0,2024-02-28T14:49:44.508Z,english_579.wav,0,pill,677,37,5,5,francais,m,7,0.7,-9.7199121,0.36547932
58bfee7de5869400018f5e9e,49,0,2024-02-28T14:49:44.508Z,english_579.wav,0,pill,677,37,5,5,francais,m,8,0.8,-43.88557754,1.0786992
58bfee7de5869400018f5e9e,49,0,2024-02-28T14:49:44.508Z,english_579.wav,0,pill,677,37,5,5,francais,m,9,0.9,89.28129007,1.76340712
58bfee7de5869400018f5e9e,49,0,2024-02-28T14:49:44.508Z,english_579.wav,0,pill,677,37,5,5,francais,m,10,1.0,21.49927336,0.94339598
58bfee7de5869400018f5e9e,49,0,2024-02-28T14:49:44.508Z,english_579.wav,0,pill,677,37,5,5,francais,m,11,1.09391667,85.53999973,1.1220246
58bfee7de5869400018f5e9e,50,1,2024-02-28T14:49:44.508Z,english_873.wav,0,pill,567,37,5,5,francais,m,0,0.0,-5.34184308,0.18534223
58bfee7de5869400018f5e9e,50,1,2024-02-28T14:49:44.508Z,english_873.wav,0,pill,567,37,5,5,francais,m,1,0.1,29.86705528,1.00948066
58bfee7de5869400018f5e9e,50,1,2024-02-28T14:49:44.508Z,english_873.wav,0,pill,567,37,5,5,francais,m,2,0.2,-53.62087934,0.93104213
58bfee7de5869400018f5e9e,50,1,2024-02-28T14:49:44.508Z,english_873.wav,0,pill,567,37,5,5,francais,m,3,0.3,-59.16709203,1.19025309
58bfee7de5869400018f5e9e,50,1,2024-02-28T14:49:44.508Z,english_873.wav,0,pill,567,37,5,5,francais,m,4,0.4,69.60141357,1.48608178
58bfee7de5869400018f5e9e,50,1,2024-02-28T14:49:44.508Z,english_873.wav,0,pill,567,37,5,5,francais,m,5,0.5,-44.07046907,0.89447273
58bfee7de5869400018f5e9e,50,1,2024-02-28T14:49:44.508Z,english_873.wav,0,pill,567,37,5,5,francais,m,6,0.6,55.781826,0.18822797
58bfee7de5869400018f5e9e,50,1,2024-02-28T14:49:44.508Z,english_873.wav,0,pill,567,37,5,5,francais,m,7,0.7,-40.21183655,0.79732375
58bfee7de5869400018f5e9e,50,1,2024-02-28T14:49:44.508Z,english_873.wav,0,pill,567,37,5,5,francais,m,8,0.8,9.01550121,0.51650354
58bfee7de5869400018f5e9e,50,1,2024-02-28T14:49:44.508Z,english_873.wav,0,pill,567,37,5,5,francais,m,9,0.9,-15.28098321,0.06272522
58bfee7de5869400018f5e9e,50,1,2024-02-28T14:49:44.508Z,english_873.wav,0,pill,567,37,5,5,francais,m,10,1.0,-64.77079799,1.63736384
58bfee7de5869400018f5e9e,50,1,2024-02-28T14:49:44.508Z,english_873.wav,0,pill,567,37,5,5,francais,m,11,1.09391667,80.68199225,1.95600343
58bfee7de5869400018f5e9e,51,1,2024-02-28T14:49:44.508Z,english_923.wav,0,pill,920,37,5,5,francais,m,0,0.0,93.2289474,1.70020423
58bfee7de5869400018f5e9e,51,1,2024-02-28T14:49:44.508Z,english_923.wav,0,pill,920,37,5,5,francais,m,1,0.1,-90.20705496,1.01222006
58bfee7de5869400018f5e9e,51,1,2024-02-28T14:49:44.508Z,english_923.wav,0,pill,920,37,5,5,francais,m,2,0.2,-39.60180218,0.78975297
58bfee7de5869400018f5e9e,51,1,2024-02-28T14:49:44.508Z,english_923.wav,0,pill,920,37,5,5,francais,m,3,0.3,80.82184167,0.55346402
58bfee7de5869400018f5e9e,51,1,2024-02-28T14:49:44.508Z,english_923.wav,0,pill,920,37,5,5,francais,m,4,0.4,-9.151808,0.82944294
58bfee7de5869400018f5e9e,51,1,2024-02-28T14:49:44.508Z,english_923.wav,0,pill,920,37,5,5,francais,m,5,0.5,26.58775585,1.08031611
58bfee7de5869400018f5e9e,51,1,2024-02-28T14:49:44.508Z,english_923.wav,0,pill,920,37,5,5,francais,m,6,0.6,6.23734234,0.85830077
58bfee7de5869400018f5e9e,51,1,2024-02-28T14:49:44.508Z,english_923.wav,0,pill,920,37,5,5,francais,m,7,0.7,72.65407882,1.16981472
58bfee7de5869400018f5e9e,51,1,2024-02-28T14:49:44.508Z,english_923.wav,0,pill,920,37,5,5,francais,m,8,0.8,-19.39856568,1.72430236
58bfee7de5869400018f5e9e,51,1,2024-02-28T14:49:44.508Z,english_923.wav,0,pill,920,37,5,5,francais,m,9,0.9,-78.04150402,0.87754791
58bfee7de5869400018f5e9e,51,1,2024-02-28T14:49:44.508Z,english_923.wav,0,pill,920,37,5,5,francais,m,10,1.0,32.81309653,1.2494211
58bfee7de5869400018f5e9e,51,1,2024-02-28T14:49:44.508Z,english_923.wav,0,pill,920,37,5,5,francais,m,11,1.09391667,90.62685446,1.97603122
58bfee7de5869400018f5e9e,52,1,2024-02-28T14:49:44.508Z,english_285.wav,0,peel,291,37,5,5,francais,m,0,0.0,48.62119612,1.78431697
58bfee7de5869400018f5e9e,52,1,2024-02-28T14:49:44.508Z,english_285.wav,0,peel,291,37,5,5,francais,m,1,0.1,-77.49487419,0.21017115
58bfee7de5869400018f5e9e,52,1,2024-02-28T14:49:44.508Z,english_285.wav,0,peel,291,37,5,5,francais,m,2,0.2,-92.74855632,0.90754364
58bfee7de5869400018f5e9e,52,1,2024-02-28T14:49:44.508Z,english_285.wav,0,peel,291,37,5,5,francais,m,3,0.3,-5.04409868,0.79299305
58bfee7de5869400018f5e9e,52,1,2024-02-28T14:49:44.508Z,english_285.wav,0,peel,291,37,5,5,francais,m,4,0.4,-37.04184738,0.73704045
58bfee7de5869400018f5e9e,52,1,2024-02-28T14:49:44.508Z,english_285.wav,0,peel,291,37,5,5,francais,m,5,0.5,93.82836291,1.49438795
58bfee7de5869400018f5e9e,52,1,2024-02-28T14:49:44.508Z,english_285.wav,0,peel,291,37,5,5,francais,m,6,0.6,46.80360504,1.8666859
58bfee7de5869400018f5e9e,52,1,2024-02-28T14:49:44.508Z,english_285.wav,0,peel,291,37,5,5,francais,m,7,0.7,99.71187558,1.28156013
58bfee7de5869400018f5e9e,52,1,2024-02-28T14:49:44.508Z,english_285.wav,0,peel,291,37,5,5,francais,m,8,0.8,70.29725425,0.27278766
58bfee7de5869400018f5e9e,52,1,2024-02-28T14:49:44.508Z,english_285.wav,0,peel,291,37,5,5,francais,m,9,0.9,2.68384344,1.64624
58bfee7de5869400018f5e9e,52,1,2024-02-28T14:49:44.508Z,english_285.wav,0,peel,291,37,5,5,francais,m,10,1.0,33.86757162,0.38779205
58bfee7de5869400018f5e9e,52,1,2024-02-28T14:49:44.508Z,english_285.wav,0,peel,291,37,5,5,francais,m,11,1.09391667,28.22402765,0.9971565
58bfee7de5869400018f5e9e,53,1,2024-02-28T14:49:44.508Z,english_259.wav,0,peel,511,37,5,5,francais,m,0,0.0,-96.45723027,1.20447661
58bfee7de5869400018f5e9e,53,1,2024-02-28T14:49:44.508Z,english_259.wav,0,peel,511,37,5,5,francais,m,1,0.1,46.81898893,1.98089962
58bfee7de5869400018f5e9e,53,1,2024-02-28T14:49:44.508Z,english_259.wav,0,peel,511,37,5,5,francais,m,2,0.2,-52.24123134,0.13419359
58bfee7de5869400018f5e9e,53,1,2024-02-28T14:49:44.508Z,english_259.wav,0,peel,511,37,5,5,francais,m,3,0.3,-93.20482306,0.77341906
58bfee7de5869400018f5e9e,53,1,2024-02-28T14:49:44.508Z,english_259.wav,0,peel,511,37,5,5,francais,m,4,0.4,-73.17016095,0.41314705
58bfee7de5869400018f5e9e,53,1,2024-02-28T14:49:44.508Z,english_259.wav,0,peel,511,37,5,5,francais,m,5,0.5,65.38390332,1.70927399
58bfee7de5869400018f5e9e,53,1,2024-02-28T14:49:44.508Z,english_259.wav,0,peel,511,37,5,5,francais,m,6,0.6,-74.48910715,0.82975987
58bfee7de5869400018f5e9e,53,1,2024-02-28T14:49:44.508Z,english_259.wav,0,peel,511,37,5,5,francais,m,7,0.7,18.35767077,1.00284167
58bfee7de5869400018f5e9e,53,1,2024-02-28T14:49:44.508Z,english_259.wav,0,peel,511,37,5,5,francais,m,8,0.8,-83.13603565,0.65136174
58bfee7de5869400018f5e9e,53,1,2024-02-28T14:49:44.508Z,english_259.wav,0,peel,511,37,5,5,francais,m,9,0.9,-60.914408,1.08902536
58bfee7de5869400018f5e9e,53,1,2024-02-28T14:49:44.508Z,english_259.wav,0,peel,511,37,5,5,francais,m,10,1.0,13.76318207,0.29016251
58bfee7de5869400018f5e9e,53,1,2024-02-28T14:49:44.508Z,english_259.wav,0,peel,511,37,5,5,francais,m,11,1.09391667,-74.06068615,0.25284804
58bfee7de5869400018f5e9e,54,1,2024-02-28T14:49:44.508Z,english_3.wav,0,pill,581,37,5,5,francais,m,0,0.0,46.12890401,1.26973721
58bfee7de5869400018f5e9e,54,1,2024-02-28T14:49:44.508Z,english_3.wav,0,pill,581,37,5,5,francais,m,1,0.1,-46.79234899,0.81563074
58bfee7de5869400018f5e9e,54,1,2024-02-28T14:49:44.508Z,english_3.wav,0,pill,581,37,5,5,francais,m,2,0.2,43.27356125,1.94124466
58bfee7de5869400018f5e9e,54,1,2024-02-28T14:49:44.508Z,english_3.wav,0,pill,581,37,5,5,francais,m,3,0.3,-72.16670898,0.70667384
58bfee7de5869400018f5e9e,54,1,2024-02-28T14:49:44.508Z,english_3.wav,0,pill,581,37,5,5,francais,m,4,0.4,-20.43688573,1.08403016
58bfee7de5869400018f5e9e,54,1,2024-02-28T14:49:44.508Z,english_3.wav,0,pill,581,37,5,5,francais,m,5,0.5,47.47685518,0.3642344
58bfee7de5869400018f5e9e,54,1,2024-02-28T14:49:44.508Z,english_3.wav,0,pill,581,37,5,5,francais,m,6,0.6,-99.10404807,0.99174199
58bfee7de5869400018f5e9e,54,1,2024-02-28T14:49:44.508Z,english_3.wav,0,pill,581,37,5,5,francais,m,7,0.7,26.000254,0.55041702
58bfee7de5869400018f5e9e,54,1,2024-02-28T14:49:44.508Z,english_3.wav,0,pill,581,37,5,5,francais,m,8,0.8,-7.26217139,0.75824974
58bfee7de5869400018f5e9e,54,1,2024-02-28T14:49:44.508Z,english_3.wav,0,pill,581,37,5,5,francais,m,9,0.9,-22.74562987,0.866985
58bfee7de5869400018f5e9e,54,1,2024-02-28T14:49:44.508Z,english_3.wav,0,pill,581,37,5,5,francais,m,10,1.0,-68.2177704,1.56473108
58bfee7de5869400018f5e9e,54,1,2024-02-28T14:49:44.508Z,english_3.wav,0,pill,581,37,5,5,francais,m,11,1.09391667,25.12417325,0.96011667
58bfee7de5869400018f5e9e,55,1,2024-02-28T14:49:44.508Z,english_924.wav,0,peel,297,37,5,5,francais,m,0,0.0,-34.16359775,0.79366522
58bfee7de5869400018f5e9e,55,1,2024-02-28T14:49:44.508Z,english_924.wav,0,peel,297,37,5,5,francais,m,1,0.1,95.89868764,0.73795008
58bfee7de5869400018f5e9e,55,1,2024-02-28T14:49:44.508Z,english_924.wav,0,peel,297,37,5,5,francais,m,2,0.2,-7.67474925,0.39139015
58bfee7de5869400018f5e9e,55,1,2024-02-28T14:49:44.508Z,english_924.wav,0,peel,297,37,5,5,francais,m,3,0.3,-21.77911834,0.47707552
58bfee7de5869400018f5e9e,55,1,2024-02-28T14:49:44.508Z,english_924.wav,0,peel,297,37,5,5,francais,m,4,0.4,31.17946122,0.09637783
58bfee7de5869400018f5e9e,55,1,2024-02-28T14:49:44.508Z,english_924.wav,0,peel,297,37,5,5,francais,m,5,0.5,0.48616436,1.58696559
58bfee7de5869400018f5e9e,55,1,2024-02-28T14:49:44.508Z,english_924.wav,0,peel,297,37,5,5,francais,m,6,0.6,56.04156449,1.87427133
58bfee7de5869400018f5e9e,55,1,2024-02-28T14:49:44.508Z,english_924.wav,0,peel,297,37,5,5,francais,m,7,0.7,79.12331334,0.57578157
58bfee7de5869400018f5e9e,55,1,2024-02-28T14:49:44.508Z,english_924.wav,0,peel,297,37,5,5,francais,m,8,0.8,58.34446187,1.11639403
58bfee7de5869400018f5e9e,55,1,2024-02-28T14:49:44.508Z,english_924.wav,0,peel,297,37,5,5,francais,m,9,0.9,51.02751352,1.98577552
58bfee7de5869400018f5e9e,55,1,2024-02-28T14:49:44.508Z,english_924.wav,0,peel,297,37,5,5,francais,m,10,1.0,59.10490512,0.22580189
58bfee7de5869400018f5e9e,55,1,2024-02-28T14:49:44.508Z,english_924.wav,0,peel,297,37,5,5,francais,m,11,1.09391667,60.06487251,1.66820152
58bfee7de5869400018f5e9e,56,1,2024-02-28T14:49:44.508Z,english_204.wav,0,peel,342,37,5,5,francais,m,0,0.0,-54.18548322,0.4935822
58bfee7de5869400018f5e9e,56,1,2024-02-28T14:49:44.508Z,english_204.wav,0,peel,342,37,5,5,francais,m,1,0.1,-11.27218157,1.37686427
58bfee7de5869400018f5e9e,56,1,2024-02-28T14:49:44.508Z,english_204.wav,0,peel,342,37,5,5,francais,m,2,0.2,57.70913134,1.17627269
58bfee7de5869400018f5e9e,56,1,2024-02-28T14:49:44.508Z,english_204.wav,0,peel,342,37,5,5,francais,m,3,0.3,-85.27797026,1.14645494
58bfee7de5869400018f5e9e,56,1,2024-02-28T14:49:44.508Z,english_204.wav,0,peel,342,37,5,5,francais,m,4,0.4,28.61054009,1.61303053
58bfee7de5869400018f5e9e,56,1,2024-02-28T14:49:44.508Z,english_204.wav,0,peel,342,37,5,5,francais,m,5,0.5,-36.71816677,0.72559221
58bfee7de5869400018f5e9e,56,1,2024-02-28T14:49:44.508Z,english_204.wav,0,peel,342,37,5,5,francais,m,6,0.6,-27.72446487,1.95000364
58bfee7de5869400018f5e9e,56,1,2024-02-28T14:49:44.508Z,english_204.wav,0,peel,342,37,5,5,francais,m,7,0.7,14.69142801,0.06695508
58bfee7de5869400018f5e9e,56,1,2024-02-28T14:49:44.508Z,english_204.wav,0,peel,342,37,5,5,francais,m,8,0.8,9.61746044,1.52094915
58bfee7de5869400018f5e9e,56,1,2024-02-28T14:49:44.508Z,english_204.wav,0,peel,342,37,5,5,francais,m,9,0.9,22.67127582,0.41034945
58bfee7de5869400018f5e9e,56,1,2024-02-28T14:49:44.508Z,english_204.wav,0,peel,342,37,5,5,francais,m,10,1.0,69.36328148,0.4470276
58bfee7de5869400018f5e9e,56,1,2024-02-28T14:49:44.508Z,english_204.wav,0,peel,342,37,5,5,francais,m,11,1.09391667,-44.4283226,1.93225144
58bfee7de5869400018f5e9e,57,1,2024-02-28T14:49:44.508Z,english_401.wav,0,pill,264,37,5,5,francais,m,0,0.0,-36.1059854,1.51802818
58bfee7de5869400018f5e9e,57,1,2024-02-28T14:49:44.508Z,english_401.wav,0,pill,264,37,5,5,francais,m,1,0.1,38.605133,1.15871841
58bfee7de5869400018f5e9e,57,1,2024-02-28T14:49:44.508Z,english_401.wav,0,pill,264,37,5,5,francais,m,2,0.2,6.46138816,1.08082563
58bfee7de5869400018f5e9e,57,1,2024-02-28T14:49:44.508Z,english_401.wav,0,pill,264,37,5,5,francais,m,3,0.3,-76.8629005,0.42984112
58bfee7de5869400018f5e9e,57,1,2024-02-28T14:49:44.508Z,english_401.wav,0,pill,264,37,5,5,francais,m,4,0.4,53.9378868,1.24745689
58bfee7de5869400018f5e9e,57,1,2024-02-28T14:49:44.508Z,english_401.wav,0,pill,264,37,5,5,francais,m,5,0.5,28.3848957,0.52889601
58bfee7de5869400018f5e9e,57,1,2024-02-28T14:49:44.508Z,english_401.wav,0,pill,264,37,5,5,francais,m,6,0.6,49.535102,1.52039951
58bfee7de5869400018f5e9e,57,1,2024-02-28T14:49:44.508Z,english_401.wav,0,pill,264,37,5,5,francais,m,7,0.7,-64.7881021,1.59778592
58bfee7de5869400018f5e9e,57,1,2024-02-28T14:49:44.508Z,english_401.wav,0,pill,264,37,5,5,francais,m,8,0.8,-98.9667189,0.63237027
58bfee7de5869400018f5e9e,57,1,2024-02-28T14:49:44.508Z,english_401.wav,0,pill,264,37,5,5,francais,m,9,0.9,-0.0263257976,0.3603848
58bfee7de5869400018f5e9e,57,1,2024-02-28T14:49:44.508Z,english_401.wav,0,pill,264,37,5,5,francais,m,10,1.0,-0.147031707,0.91165557
58bfee7de5869400018f5e9e,57,1,2024-02-28T14:49:44.508Z,english_401.wav,0,pill,264,37,5,5,francais,m,11,1.09391667,-83.6458716,1.59350312
58bfee7de5869400018f5e9e,58,1,2024-02-28T14:49:44.508Z,english_799.wav,0,peel,634,37,5,5,francais,m,0,0.0,20.93448877,0.48820712
58bfee7de5869400018f5e9e,58,1,2024-02-28T14:49:44.508Z,english_799.wav,0,peel,634,37,5,5,francais,m,1,0.1,74.90549066,0.80562581
58bfee7de5869400018f5e9e,58,1,2024-02-28T14:49:44.508Z,english_799.wav,0,peel,634,37,5,5,francais,m,2,0.2,79.35216778,1.19822254
58bfee7de5869400018f5e9e,58,1,2024-02-28T14:49:44.508Z,english_799.wav,0,peel,634,37,5,5,francais,m,3,0.3,-10.62506754,1.60128914
58bfee7de5869400018f5e9e,58,1,2024-02-28T14:49:44.508Z,english_799.wav,0,peel,634,37,5,5,francais,m,4,0.4,6.33564747,0.01319764
58bfee7de5869400018f5e9e,58,1,2024-02-28T14:49:44.508Z,english_799.wav,0,peel,634,37,5,5,francais,m,5,0.5,90.41443979,1.72553046
58bfee7de5869400018f5e9e,58,1,2024-02-28T14:49:44.508Z,english_799.wav,0,peel,634,37,5,5,francais,m,6,0.6,-60.57880503,1.2547609
58bfee7de5869400018f5e9e,58,1,2024-02-28T14:49:44.508Z,english_799.wav,0,peel,634,37,5,5,francais,m,7,0.7,9.86229071,0.74830712
58bfee7de5869400018f5e9e,58,1,2024-02-28T14:49:44.508Z,english_799.wav,0,peel,634,37,5,5,francais,m,8,0.8,-45.57695026,0.71080767
58bfee7de5869400018f5e9e,58,1,2024-02-28T14:49:44.508Z,english_799.wav,0,peel,634,37,5,5,francais,m,9,0.9,4.80419962,0.83933205
58bfee7de5869400018f5e9e,58,1,2024-02-28T14:49:44.508Z,english_799.wav,0,peel,634,37,5,5,francais,m,10,1.0,49.35310044,0.24394342
58bfee7de5869400018f5e9e,58,1,2024-02-28T14:49:44.508Z,english_799.wav,0,peel,634,37,5,5,francais,m,11,1.09391667,82.63345718,0.9569793
58bfee7de5869400018f5e9e,59,1,2024-02-28T14:49:44.508Z,english_150.wav,0,pill,318,37,5,5,francais,m,0,0.0,-50.54232549,1.16258998
58bfee7de5869400018f5e9e,59,1,2024-02-28T14:49:44.508Z,english_150.wav,0,pill,318,37,5,5,francais,m,1,0.1,34.32153656,0.79689364
58bfee7de5869400018f5e9e,59,1,2024-02-28T14:49:44.508Z,english_150.wav,0,pill,318,37,5,5,francais,m,2,0.2,-10.92395048,0.16790755
58bfee7de5869400018f5e9e,59,1,2024-02-28T14:49:44.508Z,english_150.wav,0,pill,318,37,5,5,francais,m,3,0.3,53.72738624,0.35039588
58bfee7de5869400018f5e9e,59,1,2024-02-28T14:49:44.508Z,english_150.wav,0,pill,318,37,5,5,francais,m,4,0.4,62.41801081,0.24836215
58bfee7de5869400018f5e9e,59,1,2024-02-28T14:49:44.508Z,english_150.wav,0,pill,318,37,5,5,francais,m,5,0.5,-32.60317387,0.38408886
58bfee7de5869400018f5e9e,59,1,2024-02-28T14:49:44.508Z,english_150.wav,0,pill,318,37,5,5,francais,m,6,0.6,-14.80411838,0.47894499
58bfee7de5869400018f5e9e,59,1,2024-02-28T14:49:44.508Z,english_150.wav,0,pill,318,37,5,5,francais,m,7,0.7,55.20966729,1.81942338
58bfee7de5869400018f5e9e,59,1,2024-02-28T14:49:44.508Z,english_150.wav,0,pill,318,37,5,5,francais,m,8,0.8,-74.0684305,1.36079379
58bfee7de5869400018f5e9e,59,1,2024-02-28T14:49:44.508Z,english_150.wav,0,pill,318,37,5,5,francais,m,9,0.9,-4.87965611,1.63972786
58bfee7de5869400018f5e9e,59,1,2024-02-28T14:49:44.508Z,english_150.wav,0,pill,318,37,5,5,francais,m,10,1.0,-79.50813125,1.65428446
58bfee7de5869400018f5e9e,59,1,2024-02-28T14:49:44.508Z,english_150.wav,0,pill,318,37,5,5,francais,m,11,1.09391667,24.9492826,1.31063675
58bfee7de5869400018f5e9e,60,1,2024-02-28T14:49:44.508Z,english_639.wav,0,pill,311,37,5,5,francais,m,0,0.0,5.56347498,1.83509432
58bfee7de5869400018f5e9e,60,1,2024-02-28T14:49:44.508Z,english_639.wav,0,pill,311,37,5,5,francais,m,1,0.1,75.73661073,0.44211572
58bfee7de5869400018f5e9e,60,1,2024-02-28T14:49:44.508Z,english_639.wav,0,pill,311,37,5,5,francais,m,2,0.2,-90.85300276,1.03578017
58bfee7de5869400018f5e9e,60,1,2024-02-28T14:49:44.508Z,english_639.wav,0,pill,311,37,5,5,francais,m,3,0.3,-28.02471483,0.46973677
58bfee7de5869400018f5e9e,60,1,2024-02-28T14:49:44.508Z,english_639.wav,0,pill,311,37,5,5,francais,m,4,0.4,-62.26468724,0.54820752
58bfee7de5869400018f5e9e,60,1,2024-02-28T14:49:44.508Z,english_639.wav,0,pill,311,37,5,5,francais,m,5,0.5,17.80250947,0.51964922
58bfee7de5869400018f5e9e,60,1,2024-02-28T14:49:44.508Z,english_639.wav,0,pill,311,37,5,5,francais,m,6,0.6,29.29879682,0.06117772
58bfee7de5869400018f5e9e,60,1,2024-02-28T14:49:44.508Z,english_639.wav,0,pill,311,37,5,5,francais,m,7,0.7,-6.14897809,0.67480304
58bfee7de5869400018f5e9e,60,1,2024-02-28T14:49:44.508Z,english_639.wav,0,pill,311,37,5,5,francais,m,8,0.8,-11.9254819,0.85869346
58bfee7de5869400018f5e9e,60,1,2024-02-28T14:49:44.508Z,english_639.wav,0,pill,311,37,5,5,francais,m,9,0.9,6.20327944,1.90136883
58bfee7de5869400018f5e9e,60,1,2024-02-28T14:49:44.508Z,english_639.wav,0,pill,311,37,5,5,francais,m,10,1.0,-44.51875699,1.31276151
58bfee7de5869400018f5e9e,60,1,2024-02-28T14:49:44.508Z,english_639.wav,0,pill,311,37,5,5,francais,m,11,1.09391667,52.00361599,1.93524577
58bfee7de5869400018f5e9e,61,1,2024-02-28T14:49:44.508Z,english_712.wav,0,peel,247,37,5,5,francais,m,0,0.0,-23.1463857,0.37379236
58bfee7de5869400018f5e9e,61,1,2024-02-28T14:49:44.508Z,english_712.wav,0,peel,247,37,5,5,francais,m,1,0.1,24.6800968,1.67699004
58bfee7de5869400018f5e9e,61,1,2024-02-28T14:49:44.508Z,english_712.wav,0,peel,247,37,5,5,francais,m,2,0.2,0.0161964332,1.79701075
58bfee7de5869400018f5e9e,61,1,2024-02-28T14:49:44.508Z,english_712.wav,0,peel,247,37,5,5,francais,m,3,0.3,-17.6606804,0.97598087
58bfee7de5869400018f5e9e,61,1,2024-02-28T14:49:44.508Z,english_712.wav,0,peel,247,37,5,5,francais,m,4,0.4,0.366433398,0.364202
58bfee7de5869400018f5e9e,61,1,2024-02-28T14:49:44.508Z,english_712.wav,0,peel,247,37,5,5,francais,m,5,0.5,92.1731967,1.74943947
58bfee7de5869400018f5e9e,61,1,2024-02-28T14:49:44.508Z,english_712.wav,0,peel,247,37,5,5,francais,m,6,0.6,37.7445609,0.51022449
58bfee7de5869400018f5e9e,61,1,2024-02-28T14:49:44.508Z,english_712.wav,0,peel,247,37,5,5,francais,m,7,0.7,36.1997785,1.89888437
58bfee7de5869400018f5e9e,61,1,2024-02-28T14:49:44.508Z,english_712.wav,0,peel,247,37,5,5,francais,m,8,0.8,68.1982864,1.17858578
58bfee7de5869400018f5e9e,61,1,2024-02-28T14:49:44.508Z,english_712.wav,0,peel,247,37,5,5,francais,m,9,0.9,89.0317309,0.87832213
58bfee7de5869400018f5e9e,61,1,2024-02-28T14:49:44.508Z,english_712.wav,0,peel,247,37,5,5,francais,m,10,1.0,-18.2298461,1.72214889
58bfee7de5869400018f5e9e,61,1,2024-02-28T14:49:44.508Z,english_712.wav,0,peel,247,37,5,5,francais,m,11,1.09391667,4.18738238,0.60066774
58bfee7de5869400018f5e9e,62,1,2024-02-28T14:49:44.508Z,english_733.wav,0,pill,594,37,5,5,francais,m,0,0.0,60.12911829,1.17715688
58bfee7de5869400018f5e9e,62,1,2024-02-28T14:49:44.508Z,english_733.wav,0,pill,594,37,5,5,francais,m,1,0.1,-6.07350544,0.73101999
58bfee7de5869400018f5e9e,62,1,2024-02-28T14:49:44.508Z,english_733.wav,0,pill,594,37,5,5,francais,m,2,0.2,-97.34447637,0.23762906
58bfee7de5869400018f5e9e,62,1,2024-02-28T14:49:44.508Z,english_733.wav,0,pill,594,37,5,5,francais,m,3,0.3,13.91289177,0.47801532
58bfee7de5869400018f5e9e,62,1,2024-02-28T14:49:44.508Z,english_733.wav,0,pill,594,37,5,5,francais,m,4,0.4,24.58615212,1.00660929
58bfee7de5869400018f5e9e,62,1,2024-02-28T14:49:44.508Z,english_733.wav,0,pill,594,37,5,5,francais,m,5,0.5,-0.46947401,0.69954151
58bfee7de5869400018f5e9e,62,1,2024-02-28T14:49:44.508Z,english_733.wav,0,pill,594,37,5,5,francais,m,6,0.6,-95.42432467,0.66296436
58bfee7de5869400018f5e9e,62,1,2024-02-28T14:49:44.508Z,english_733.wav,0,pill,594,37,5,5,francais,m,7,0.7,-12.42368325,0.8353001
58bfee7de5869400018f5e9e,62,1,2024-02-28T14:49:44.508Z,english_733.wav,0,pill,594,37,5,5,francais,m,8,0.8,-68.21201108,0.93210743
58bfee7de5869400018f5e9e,62,1,2024-02-28T14:49:44.508Z,english_733.wav,0,pill,594,37,5,5,francais,m,9,0.9,80.23434779,0.7426454
58bfee7de5869400018f5e9e,62,1,2024-02-28T14:49:44.508Z,english_733.wav,0,pill,594,37,5,5,francais,m,10,1.0,37.72859174,1.31979312
58bfee7de5869400018f5e9e,62,1,2024-02-28T14:49:44.508Z,english_733.wav,0,pill,594,37,5,5,francais,m,11,1.09391667,99.34819771,0.72211033
58bfee7de5869400018f5e9e,63,1,2024-02-28T14:49:44.508Z,english_805.wav,0,peel,421,37,5,5,francais,m,0,0.0,19.24000096,0.52175854
58bfee7de5869400018f5e9e,63,1,2024-02-28T14:49:44.508Z,english_805.wav,0,peel,421,37,5,5,francais,m,1,0.1,-57.56428934,1.45107426
58bfee7de5869400018f5e9e,63,1,2024-02-28T14:49:44.508Z,english_805.wav,0,peel,421,37,5,5,francais,m,2,0.2,-17.74165003,1.66296684
58bfee7de5869400018f5e9e,63,1,2024-02-28T14:49:44.508Z,english_805.wav,0,peel,421,37,5,5,francais,m,3,0.3,94.45114709,1.339528
58bfee7de5869400018f5e9e,63,1,2024-02-28T14:49:44.508Z,english_805.wav,0,peel,421,37,5,5,francais,m,4,0.4,58.80414928,1.45905309
58bfee7de5869400018f5e9e,63,1,2024-02-28T14:49:44.508Z,english_805.wav,0,peel,421,37,5,5,francais,m,5,0.5,15.95265091,0.95701688
58bfee7de5869400018f5e9e,63,1,2024-02-28T14:49:44.508Z,english_805.wav,0,peel,421,37,5,5,francais,m,6,0.6,-64.01744173,0.10004415
58bfee7de5869400018f5e9e,63,1,2024-02-28T14:49:44.508Z,english_805.wav,0,peel,421,37,5,5,francais,m,7,0.7,-39.81720589,1.33408917
58bfee7de5869400018f5e9e,63,1,2024-02-28T14:49:44.508Z,english_805.wav,0,peel,421,37,5,5,francais,m,8,0.8,48.58222908,0.26158276
58bfee7de5869400018f5e9e,63,1,2024-02-28T14:49:44.508Z,english_805.wav,0,peel,421,37,5,5,francais,m,9,0.9,79.1348353,0.78316965
58bfee7de5869400018f5e9e,63,1,2024-02-28T14:49:44.508Z,english_805.wav,0,peel,421,37,5,5,francais,m,10,1.0,66.03274921,0.77046412
58bfee7de5869400018f5e9e,63,1,2024-02-28T14:49:44.508Z,english_805.wav,0,peel,421,37,5,5,francais,m,11,1.09391667,-37.34721406,0.38567889
