subj,trial,block,date,stim,stim_order,response,rt,age,english,french,language,sex,param_index,segment,pitch,stretch
60c7987a11054a60df5ed5f8,0,0,2024-02-28T14:07:55.887Z,english_505.wav,0,peel,5141,26,3,5,français,f,0,0.0,91.23085556,0.82413934
60c7987a11054a60df5ed5f8,0,0,2024-02-28T14:07:55.887Z,english_505.wav,0,peel,5141,26,3,5,français,f,1,0.1,-15.55826488,0.35004659
60c7987a11054a60df5ed5f8,0,0,2024-02-28T14:07:55.887Z,english_505.wav,0,peel,5141,26,3,5,français,f,2,0.2,12.35940028,1.21560266
60c7987a11054a60df5ed5f8,0,0,2024-02-28T14:07:55.887Z,english_505.wav,0,peel,5141,26,3,5,français,f,3,0.3,-0.93203898,1.75278196
60c7987a11054a60df5ed5f8,0,0,2024-02-28T14:07:55.887Z,english_505.wav,0,peel,5141,26,3,5,français,f,4,0.4,98.55638555,1.03675584
60c7987a11054a60df5ed5f8,0,0,2024-02-28T14:07:55.887Z,english_505.wav,0,peel,5141,26,3,5,français,f,5,0.5,89.84667018,1.84604412
60c7987a11054a60df5ed5f8,0,0,2024-02-28T14:07:55.887Z,english_505.wav,0,peel,5141,26,3,5,français,f,6,0.6,61.88853531,0.6105869
60c7987a11054a60df5ed5f8,0,0,2024-02-28T14:07:55.887Z,english_505.wav,0,peel,5141,26,3,5,français,f,7,0.7,19.66566337,1.77513514
60c7987a11054a60df5ed5f8,0,0,2024-02-28T14:07:55.887Z,english_505.wav,0,peel,5141,26,3,5,français,f,8,0.8,-99.77897317,0.3232423
60c7987a11054a60df5ed5f8,0,0,2024-02-28T14:07:55.887Z,english_505.wav,0,peel,5141,26,3,5,français,f,9,0.9,-24.29755532,0.91185212
60c7987a11054a60df5ed5f8,0,0,2024-02-28T14:07:55.887Z,english_505.wav,0,peel,5141,26,3,5,français,f,10,1.0,67.47807651,1.75020631
60c7987a11054a60df5ed5f8,0,0,2024-02-28T14:07:55.887Z,english_505.wav,0,peel,5141,26,3,5,français,f,11,1.09391667,13.49034132,1.09867425
60c7987a11054a60df5ed5f8,1,0,2024-02-28T14:07:55.887Z,english_336.wav,0,peel,2332,26,3,5,français,f,0,0.0,81.71607603,0.24645368
60c7987a11054a60df5ed5f8,1,0,2024-02-28T14:07:55.887Z,english_336.wav,0,peel,2332,26,3,5,français,f,1,0.1,-15.78086785,1.53225808
60c7987a11054a60df5ed5f8,1,0,2024-02-28T14:07:55.887Z,english_336.wav,0,peel,2332,26,3,5,français,f,2,0.2,23.7073003,0.72747831
60c7987a11054a60df5ed5f8,1,0,2024-02-28T14:07:55.887Z,english_336.wav,0,peel,2332,26,3,5,français,f,3,0.3,-55.22954441,1.13985004
60c7987a11054a60df5ed5f8,1,0,2024-02-28T14:07:55.887Z,english_336.wav,0,peel,2332,26,3,5,français,f,4,0.4,-82.40927831,1.08390501
60c7987a11054a60df5ed5f8,1,0,2024-02-28T14:07:55.887Z,english_336.wav,0,peel,2332,26,3,5,français,f,5,0.5,18.45613874,1.68458766
60c7987a11054a60df5ed5f8,1,0,2024-02-28T14:07:55.887Z,english_336.wav,0,peel,2332,26,3,5,français,f,6,0.6,-8.80089887,0.21615576
60c7987a11054a60df5ed5f8,1,0,2024-02-28T14:07:55.887Z,english_336.wav,0,peel,2332,26,3,5,français,f,7,0.7,19.65234969,0.20974011
60c7987a11054a60df5ed5f8,1,0,2024-02-28T14:07:55.887Z,english_336.wav,0,peel,2332,26,3,5,français,f,8,0.8,69.92960645,0.419805
60c7987a11054a60df5ed5f8,1,0,2024-02-28T14:07:55.887Z,english_336.wav,0,peel,2332,26,3,5,français,f,9,0.9,-8.61589223,0.51685969
60c7987a11054a60df5ed5f8,1,0,2024-02-28T14:07:55.887Z,english_336.wav,0,peel,2332,26,3,5,français,f,10,1.0,73.7587051,1.09673706
60c7987a11054a60df5ed5f8,1,0,2024-02-28T14:07:55.887Z,english_336.wav,0,peel,2332,26,3,5,français,f,11,1.09391667,23.54589263,1.85023779
60c7987a11054a60df5ed5f8,2,0,2024-02-28T14:07:55.887Z,english_998.wav,0,peel,2076,26,3,5,français,f,0,0.0,-83.67346728,1.27391906
60c7987a11054a60df5ed5f8,2,0,2024-02-28T14:07:55.887Z,english_998.wav,0,peel,2076,26,3,5,français,f,1,0.1,-68.43297462,0.75913393
60c7987a11054a60df5ed5f8,2,0,2024-02-28T14:07:55.887Z,english_998.wav,0,peel,2076,26,3,5,français,f,2,0.2,47.84560439,1.02363825
60c7987a11054a60df5ed5f8,2,0,2024-02-28T14:07:55.887Z,english_998.wav,0,peel,2076,26,3,5,français,f,3,0.3,71.43971258,1.78775676
60c7987a11054a60df5ed5f8,2,0,2024-02-28T14:07:55.887Z,english_998.wav,0,peel,2076,26,3,5,français,f,4,0.4,-30.40941836,0.0961221
60c7987a11054a60df5ed5f8,2,0,2024-02-28T14:07:55.887Z,english_998.wav,0,peel,2076,26,3,5,français,f,5,0.5,69.31214212,1.18933693
60c7987a11054a60df5ed5f8,2,0,2024-02-28T14:07:55.887Z,english_998.wav,0,peel,2076,26,3,5,français,f,6,0.6,-95.04564508,1.9379163
60c7987a11054a60df5ed5f8,2,0,2024-02-28T14:07:55.887Z,english_998.wav,0,peel,2076,26,3,5,français,f,7,0.7,-61.88405175,1.91389769
60c7987a11054a60df5ed5f8,2,0,2024-02-28T14:07:55.887Z,english_998.wav,0,peel,2076,26,3,5,français,f,8,0.8,11.43915949,1.08895614
60c7987a11054a60df5ed5f8,2,0,2024-02-28T14:07:55.887Z,english_998.wav,0,peel,2076,26,3,5,français,f,9,0.9,79.6365109,1.52042952
60c7987a11054a60df5ed5f8,2,0,2024-02-28T14:07:55.887Z,english_998.wav,0,peel,2076,26,3,5,français,f,10,1.0,58.29305302,0.38016323
60c7987a11054a60df5ed5f8,2,0,2024-02-28T14:07:55.887Z,english_998.wav,0,peel,2076,26,3,5,français,f,11,1.09391667,44.0288717,1.77799574
60c7987a11054a60df5ed5f8,3,0,2024-02-28T14:07:55.887Z,english_461.wav,0,peel,1187,26,3,5,français,f,0,0.0,20.40366348,0.56042838
60c7987a11054a60df5ed5f8,3,0,2024-02-28T14:07:55.887Z,english_461.wav,0,peel,1187,26,3,5,français,f,1,0.1,-22.31307181,0.54946445
60c7987a11054a60df5ed5f8,3,0,2024-02-28T14:07:55.887Z,english_461.wav,0,peel,1187,26,3,5,français,f,2,0.2,-89.37114144,1.64772646
60c7987a11054a60df5ed5f8,3,0,2024-02-28T14:07:55.887Z,english_461.wav,0,peel,1187,26,3,5,français,f,3,0.3,-62.56780286,1.49638786
60c7987a11054a60df5ed5f8,3,0,2024-02-28T14:07:55.887Z,english_461.wav,0,peel,1187,26,3,5,français,f,4,0.4,98.66430914,1.35717302
60c7987a11054a60df5ed5f8,3,0,2024-02-28T14:07:55.887Z,english_461.wav,0,peel,1187,26,3,5,français,f,5,0.5,31.54001237,1.77354921
60c7987a11054a60df5ed5f8,3,0,2024-02-28T14:07:55.887Z,english_461.wav,0,peel,1187,26,3,5,français,f,6,0.6,-32.39124998,0.30044417
60c7987a11054a60df5ed5f8,3,0,2024-02-28T14:07:55.887Z,english_461.wav,0,peel,1187,26,3,5,français,f,7,0.7,-36.51161339,0.61964528
60c7987a11054a60df5ed5f8,3,0,2024-02-28T14:07:55.887Z,english_461.wav,0,peel,1187,26,3,5,français,f,8,0.8,53.57144474,1.90165564
60c7987a11054a60df5ed5f8,3,0,2024-02-28T14:07:55.887Z,english_461.wav,0,peel,1187,26,3,5,français,f,9,0.9,-58.15364794,1.196075
60c7987a11054a60df5ed5f8,3,0,2024-02-28T14:07:55.887Z,english_461.wav,0,peel,1187,26,3,5,français,f,10,1.0,49.37662152,1.99169905
60c7987a11054a60df5ed5f8,3,0,2024-02-28T14:07:55.887Z,english_461.wav,0,peel,1187,26,3,5,français,f,11,1.09391667,-58.25142674,0.63333461
60c7987a11054a60df5ed5f8,4,0,2024-02-28T14:07:55.887Z,english_378.wav,0,pill,2495,26,3,5,français,f,0,0.0,-6.75592408,1.57446733
60c7987a11054a60df5ed5f8,4,0,2024-02-28T14:07:55.887Z,english_378.wav,0,pill,2495,26,3,5,français,f,1,0.1,-33.28558439,0.29285803
60c7987a11054a60df5ed5f8,4,0,2024-02-28T14:07:55.887Z,english_378.wav,0,pill,2495,26,3,5,français,f,2,0.2,-96.71642688,0.09494473
60c7987a11054a60df5ed5f8,4,0,2024-02-28T14:07:55.887Z,english_378.wav,0,pill,2495,26,3,5,français,f,3,0.3,70.45646645,0.09114875
60c7987a11054a60df5ed5f8,4,0,2024-02-28T14:07:55.887Z,english_378.wav,0,pill,2495,26,3,5,français,f,4,0.4,20.01443052,0.12099564
60c7987a11054a60df5ed5f8,4,0,2024-02-28T14:07:55.887Z,english_378.wav,0,pill,2495,26,3,5,français,f,5,0.5,-69.62604827,0.06996617
60c7987a11054a60df5ed5f8,4,0,2024-02-28T14:07:55.887Z,english_378.wav,0,pill,2495,26,3,5,français,f,6,0.6,-82.6103386,0.89001983
60c7987a11054a60df5ed5f8,4,0,2024-02-28T14:07:55.887Z,english_378.wav,0,pill,2495,26,3,5,français,f,7,0.7,-53.90394432,1.80047075
60c7987a11054a60df5ed5f8,4,0,2024-02-28T14:07:55.887Z,english_378.wav,0,pill,2495,26,3,5,français,f,8,0.8,75.60526061,1.92282567
60c7987a11054a60df5ed5f8,4,0,2024-02-28T14:07:55.887Z,english_378.wav,0,pill,2495,26,3,5,français,f,9,0.9,-65.71007404,0.07000512
60c7987a11054a60df5ed5f8,4,0,2024-02-28T14:07:55.887Z,english_378.wav,0,pill,2495,26,3,5,français,f,10,1.0,-82.95728524,0.51793223
60c7987a11054a60df5ed5f8,4,0,2024-02-28T14:07:55.887Z,english_378.wav,0,pill,2495,26,3,5,français,f,11,1.09391667,40.19708488,1.33854892
60c7987a11054a60df5ed5f8,5,0,2024-02-28T14:07:55.887Z,english_904.wav,0,peel,800,26,3,5,français,f,0,0.0,-74.82582528,1.4013029
60c7987a11054a60df5ed5f8,5,0,2024-02-28T14:07:55.887Z,english_904.wav,0,peel,800,26,3,5,français,f,1,0.1,-96.79575006,0.13633554
60c7987a11054a60df5ed5f8,5,0,2024-02-28T14:07:55.887Z,english_904.wav,0,peel,800,26,3,5,français,f,2,0.2,95.14053513,0.85457449
60c7987a11054a60df5ed5f8,5,0,2024-02-28T14:07:55.887Z,english_904.wav,0,peel,800,26,3,5,français,f,3,0.3,-60.85445871,0.52689268
60c7987a11054a60df5ed5f8,5,0,2024-02-28T14:07:55.887Z,english_904.wav,0,peel,800,26,3,5,français,f,4,0.4,-53.61462939,1.15689505
60c7987a11054a60df5ed5f8,5,0,2024-02-28T14:07:55.887Z,english_904.wav,0,peel,800,26,3,5,français,f,5,0.5,36.4108286,1.15306908
60c7987a11054a60df5ed5f8,5,0,2024-02-28T14:07:55.887Z,english_904.wav,0,peel,800,26,3,5,français,f,6,0.6,-81.73904146,0.53780722
60c7987a11054a60df5ed5f8,5,0,2024-02-28T14:07:55.887Z,english_904.wav,0,peel,800,26,3,5,français,f,7,0.7,67.08505199,1.6251065
60c7987a11054a60df5ed5f8,5,0,2024-02-28T14:07:55.887Z,english_904.wav,0,peel,800,26,3,5,français,f,8,0.8,-51.49043615,0.93791245
60c7987a11054a60df5ed5f8,5,0,2024-02-28T14:07:55.887Z,english_904.wav,0,peel,800,26,3,5,français,f,9,0.9,-56.43319174,0.6672811
60c7987a11054a60df5ed5f8,5,0,2024-02-28T14:07:55.887Z,english_904.wav,0,peel,800,26,3,5,français,f,10,1.0,-26.03996305,0.48044762
60c7987a11054a60df5ed5f8,5,0,2024-02-28T14:07:55.887Z,english_904.wav,0,peel,800,26,3,5,français,f,11,1.09391667,9.12764333,1.83086337
60c7987a11054a60df5ed5f8,6,0,2024-02-28T14:07:55.887Z,english_513.wav,0,peel,1593,26,3,5,français,f,0,0.0,69.69423026,1.14751405
60c7987a11054a60df5ed5f8,6,0,2024-02-28T14:07:55.887Z,english_513.wav,0,peel,1593,26,3,5,français,f,1,0.1,-61.65221054,0.70036193
60c7987a11054a60df5ed5f8,6,0,2024-02-28T14:07:55.887Z,english_513.wav,0,peel,1593,26,3,5,français,f,2,0.2,12.06620713,1.7124885
60c7987a11054a60df5ed5f8,6,0,2024-02-28T14:07:55.887Z,english_513.wav,0,peel,1593,26,3,5,français,f,3,0.3,68.31024972,0.98016869
60c7987a11054a60df5ed5f8,6,0,2024-02-28T14:07:55.887Z,english_513.wav,0,peel,1593,26,3,5,français,f,4,0.4,74.12641094,0.11366006
60c7987a11054a60df5ed5f8,6,0,2024-02-28T14:07:55.887Z,english_513.wav,0,peel,1593,26,3,5,français,f,5,0.5,6.77833978,0.43979592
60c7987a11054a60df5ed5f8,6,0,2024-02-28T14:07:55.887Z,english_513.wav,0,peel,1593,26,3,5,français,f,6,0.6,-4.07072349,1.91776754
60c7987a11054a60df5ed5f8,6,0,2024-02-28T14:07:55.887Z,english_513.wav,0,peel,1593,26,3,5,français,f,7,0.7,-75.18978196,0.49107068
60c7987a11054a60df5ed5f8,6,0,2024-02-28T14:07:55.887Z,english_513.wav,0,peel,1593,26,3,5,français,f,8,0.8,-25.44315508,0.92055325
60c7987a11054a60df5ed5f8,6,0,2024-02-28T14:07:55.887Z,english_513.wav,0,peel,1593,26,3,5,français,f,9,0.9,1.64473536,0.8410121
60c7987a11054a60df5ed5f8,6,0,2024-02-28T14:07:55.887Z,english_513.wav,0,peel,1593,26,3,5,français,f,10,1.0,-82.34234751,0.34671239
60c7987a11054a60df5ed5f8,6,0,2024-02-28T14:07:55.887Z,english_513.wav,0,peel,1593,26,3,5,français,f,11,1.09391667,-17.87879592,1.52659427
60c7987a11054a60df5ed5f8,7,0,2024-02-28T14:07:55.887Z,english_742.wav,0,pill,1272,26,3,5,français,f,0,0.0,16.40248558,0.38841716
60c7987a11054a60df5ed5f8,7,0,2024-02-28T14:07:55.887Z,english_742.wav,0,pill,1272,26,3,5,français,f,1,0.1,-74.48361089,0.81078957
60c7987a11054a60df5ed5f8,7,0,2024-02-28T14:07:55.887Z,english_742.wav,0,pill,1272,26,3,5,français,f,2,0.2,-68.54189756,1.40021639
60c7987a11054a60df5ed5f8,7,0,2024-02-28T14:07:55.887Z,english_742.wav,0,pill,1272,26,3,5,français,f,3,0.3,-12.74577912,0.37000306
60c7987a11054a60df5ed5f8,7,0,2024-02-28T14:07:55.887Z,english_742.wav,0,pill,1272,26,3,5,français,f,4,0.4,42.91022855,0.86528291
60c7987a11054a60df5ed5f8,7,0,2024-02-28T14:07:55.887Z,english_742.wav,0,pill,1272,26,3,5,français,f,5,0.5,61.35454691,0.21278301
60c7987a11054a60df5ed5f8,7,0,2024-02-28T14:07:55.887Z,english_742.wav,0,pill,1272,26,3,5,français,f,6,0.6,-74.78284805,1.55046698
60c7987a11054a60df5ed5f8,7,0,2024-02-28T14:07:55.887Z,english_742.wav,0,pill,1272,26,3,5,français,f,7,0.7,71.03659878,1.739545
60c7987a11054a60df5ed5f8,7,0,2024-02-28T14:07:55.887Z,english_742.wav,0,pill,1272,26,3,5,français,f,8,0.8,51.11475536,1.10810315
60c7987a11054a60df5ed5f8,7,0,2024-02-28T14:07:55.887Z,english_742.wav,0,pill,1272,26,3,5,français,f,9,0.9,52.57489365,0.37698393
60c7987a11054a60df5ed5f8,7,0,2024-02-28T14:07:55.887Z,english_742.wav,0,pill,1272,26,3,5,français,f,10,1.0,-21.18365938,1.01484038
60c7987a11054a60df5ed5f8,7,0,2024-02-28T14:07:55.887Z,english_742.wav,0,pill,1272,26,3,5,français,f,11,1.09391667,62.14901308,0.3479372
60c7987a11054a60df5ed5f8,8,0,2024-02-28T14:07:55.887Z,english_497.wav,0,pill,2529,26,3,5,français,f,0,0.0,80.19747469,0.03666691
60c7987a11054a60df5ed5f8,8,0,2024-02-28T14:07:55.887Z,english_497.wav,0,pill,2529,26,3,5,français,f,1,0.1,-96.43069026,0.31407974
60c7987a11054a60df5ed5f8,8,0,2024-02-28T14:07:55.887Z,english_497.wav,0,pill,2529,26,3,5,français,f,2,0.2,6.71798647,0.70160097
60c7987a11054a60df5ed5f8,8,0,2024-02-28T14:07:55.887Z,english_497.wav,0,pill,2529,26,3,5,français,f,3,0.3,19.69444111,1.30733275
60c7987a11054a60df5ed5f8,8,0,2024-02-28T14:07:55.887Z,english_497.wav,0,pill,2529,26,3,5,français,f,4,0.4,-18.5018769,1.0770642
60c7987a11054a60df5ed5f8,8,0,2024-02-28T14:07:55.887Z,english_497.wav,0,pill,2529,26,3,5,français,f,5,0.5,-89.69065854,1.1030143
60c7987a11054a60df5ed5f8,8,0,2024-02-28T14:07:55.887Z,english_497.wav,0,pill,2529,26,3,5,français,f,6,0.6,18.45091423,0.72184595
60c7987a11054a60df5ed5f8,8,0,2024-02-28T14:07:55.887Z,english_497.wav,0,pill,2529,26,3,5,français,f,7,0.7,58.14918595,0.59634745
60c7987a11054a60df5ed5f8,8,0,2024-02-28T14:07:55.887Z,english_497.wav,0,pill,2529,26,3,5,français,f,8,0.8,-12.73126571,0.95783225
60c7987a11054a60df5ed5f8,8,0,2024-02-28T14:07:55.887Z,english_497.wav,0,pill,2529,26,3,5,français,f,9,0.9,-37.82928272,0.84592096
60c7987a11054a60df5ed5f8,8,0,2024-02-28T14:07:55.887Z,english_497.wav,0,pill,2529,26,3,5,français,f,10,1.0,-47.82962272,1.86600497
60c7987a11054a60df5ed5f8,8,0,2024-02-28T14:07:55.887Z,english_497.wav,0,pill,2529,26,3,5,français,f,11,1.09391667,-71.69807159,0.50915901
60c7987a11054a60df5ed5f8,9,0,2024-02-28T14:07:55.887Z,english_441.wav,0,peel,390,26,3,5,français,f,0,0.0,50.50255474,0.8815455
60c7987a11054a60df5ed5f8,9,0,2024-02-28T14:07:55.887Z,english_441.wav,0,peel,390,26,3,5,français,f,1,0.1,-64.78300632,1.25615458
60c7987a11054a60df5ed5f8,9,0,2024-02-28T14:07:55.887Z,english_441.wav,0,peel,390,26,3,5,français,f,2,0.2,-33.84229425,1.89461417
60c7987a11054a60df5ed5f8,9,0,2024-02-28T14:07:55.887Z,english_441.wav,0,peel,390,26,3,5,français,f,3,0.3,-1.98671345,0.56042506
60c7987a11054a60df5ed5f8,9,0,2024-02-28T14:07:55.887Z,english_441.wav,0,peel,390,26,3,5,français,f,4,0.4,42.73114644,0.74141977
60c7987a11054a60df5ed5f8,9,0,2024-02-28T14:07:55.887Z,english_441.wav,0,peel,390,26,3,5,français,f,5,0.5,42.14553529,0.72181114
60c7987a11054a60df5ed5f8,9,0,2024-02-28T14:07:55.887Z,english_441.wav,0,peel,390,26,3,5,français,f,6,0.6,-44.94303107,0.25334865
60c7987a11054a60df5ed5f8,9,0,2024-02-28T14:07:55.887Z,english_441.wav,0,peel,390,26,3,5,français,f,7,0.7,13.09989783,1.76130975
60c7987a11054a60df5ed5f8,9,0,2024-02-28T14:07:55.887Z,english_441.wav,0,peel,390,26,3,5,français,f,8,0.8,-41.80171469,0.91340104
60c7987a11054a60df5ed5f8,9,0,2024-02-28T14:07:55.887Z,english_441.wav,0,peel,390,26,3,5,français,f,9,0.9,54.31484613,1.37487336
60c7987a11054a60df5ed5f8,9,0,2024-02-28T14:07:55.887Z,english_441.wav,0,peel,390,26,3,5,français,f,10,1.0,46.32391657,1.57808342
60c7987a11054a60df5ed5f8,9,0,2024-02-28T14:07:55.887Z,english_441.wav,0,peel,390,26,3,5,français,f,11,1.09391667,35.46886189,1.31817522
60c7987a11054a60df5ed5f8,10,0,2024-02-28T14:07:55.887Z,english_204.wav,0,pill,292,26,3,5,français,f,0,0.0,-54.18548322,0.4935822
60c7987a11054a60df5ed5f8,10,0,2024-02-28T14:07:55.887Z,english_204.wav,0,pill,292,26,3,5,français,f,1,0.1,-11.27218157,1.37686427
60c7987a11054a60df5ed5f8,10,0,2024-02-28T14:07:55.887Z,english_204.wav,0,pill,292,26,3,5,français,f,2,0.2,57.70913134,1.17627269
60c7987a11054a60df5ed5f8,10,0,2024-02-28T14:07:55.887Z,english_204.wav,0,pill,292,26,3,5,français,f,3,0.3,-85.27797026,1.14645494
60c7987a11054a60df5ed5f8,10,0,2024-02-28T14:07:55.887Z,english_204.wav,0,pill,292,26,3,5,français,f,4,0.4,28.61054009,1.61303053
60c7987a11054a60df5ed5f8,10,0,2024-02-28T14:07:55.887Z,english_204.wav,0,pill,292,26,3,5,français,f,5,0.5,-36.71816677,0.72559221
60c7987a11054a60df5ed5f8,10,0,2024-02-28T14:07:55.887Z,english_204.wav,0,pill,292,26,3,5,français,f,6,0.6,-27.72446487,1.95000364
60c7987a11054a60df5ed5f8,10,0,2024-02-28T14:07:55.887Z,english_204.wav,0,pill,292,26,3,5,français,f,7,0.7,14.69142801,0.06695508
60c7987a11054a60df5ed5f8,10,0,2024-02-28T14:07:55.887Z,english_204.wav,0,pill,292,26,3,5,français,f,8,0.8,9.61746044,1.52094915
60c7987a11054a60df5ed5f8,10,0,2024-02-28T14:07:55.887Z,english_204.wav,0,pill,292,26,3,5,français,f,9,0.9,22.67127582,0.41034945
60c7987a11054a60df5ed5f8,10,0,2024-02-28T14:07:55.887Z,english_204.wav,0,pill,292,26,3,5,français,f,10,1.0,69.36328148,0.4470276
60c7987a11054a60df5ed5f8,10,0,2024-02-28T14:07:55.887Z,english_204.wav,0,pill,292,26,3,5,français,f,11,1.09391667,-44.4283226,1.93225144
60c7987a11054a60df5ed5f8,11,0,2024-02-28T14:07:55.887Z,english_721.wav,0,pill,560,26,3,5,français,f,0,0.0,-21.91327124,0.70003707
60c7987a11054a60df5ed5f8,11,0,2024-02-28T14:07:55.887Z,english_721.wav,0,pill,560,26,3,5,français,f,1,0.1,-90.20435546,0.21927921
60c7987a11054a60df5ed5f8,11,0,2024-02-28T14:07:55.887Z,english_721.wav,0,pill,560,26,3,5,français,f,2,0.2,95.69234683,1.46481191
60c7987a11054a60df5ed5f8,11,0,2024-02-28T14:07:55.887Z,english_721.wav,0,pill,560,26,3,5,français,f,3,0.3,22.1637049,0.791078
60c7987a11054a60df5ed5f8,11,0,2024-02-28T14:07:55.887Z,english_721.wav,0,pill,560,26,3,5,français,f,4,0.4,11.60833415,1.28893612
60c7987a11054a60df5ed5f8,11,0,2024-02-28T14:07:55.887Z,english_721.wav,0,pill,560,26,3,5,français,f,5,0.5,-18.08358407,1.03888409
60c7987a11054a60df5ed5f8,11,0,2024-02-28T14:07:55.887Z,english_721.wav,0,pill,560,26,3,5,français,f,6,0.6,-18.19761364,1.04801609
60c7987a11054a60df5ed5f8,11,0,2024-02-28T14:07:55.887Z,english_721.wav,0,pill,560,26,3,5,français,f,7,0.7,68.04091508,1.56253366
60c7987a11054a60df5ed5f8,11,0,2024-02-28T14:07:55.887Z,english_721.wav,0,pill,560,26,3,5,français,f,8,0.8,78.50797801,1.28640088
60c7987a11054a60df5ed5f8,11,0,2024-02-28T14:07:55.887Z,english_721.wav,0,pill,560,26,3,5,français,f,9,0.9,-26.72259946,0.27215185
60c7987a11054a60df5ed5f8,11,0,2024-02-28T14:07:55.887Z,english_721.wav,0,pill,560,26,3,5,français,f,10,1.0,-5.45523717,0.551057
60c7987a11054a60df5ed5f8,11,0,2024-02-28T14:07:55.887Z,english_721.wav,0,pill,560,26,3,5,français,f,11,1.09391667,8.48352437,1.19022125
60c7987a11054a60df5ed5f8,12,0,2024-02-28T14:07:55.887Z,english_360.wav,0,pill,1447,26,3,5,français,f,0,0.0,-18.06250331,0.74392756
60c7987a11054a60df5ed5f8,12,0,2024-02-28T14:07:55.887Z,english_360.wav,0,pill,1447,26,3,5,français,f,1,0.1,-60.78778271,0.33295665
60c7987a11054a60df5ed5f8,12,0,2024-02-28T14:07:55.887Z,english_360.wav,0,pill,1447,26,3,5,français,f,2,0.2,64.58604958,0.59589568
60c7987a11054a60df5ed5f8,12,0,2024-02-28T14:07:55.887Z,english_360.wav,0,pill,1447,26,3,5,français,f,3,0.3,15.14883939,1.76245157
60c7987a11054a60df5ed5f8,12,0,2024-02-28T14:07:55.887Z,english_360.wav,0,pill,1447,26,3,5,français,f,4,0.4,35.32268856,1.62745171
60c7987a11054a60df5ed5f8,12,0,2024-02-28T14:07:55.887Z,english_360.wav,0,pill,1447,26,3,5,français,f,5,0.5,85.60433583,0.48465
60c7987a11054a60df5ed5f8,12,0,2024-02-28T14:07:55.887Z,english_360.wav,0,pill,1447,26,3,5,français,f,6,0.6,-60.74616214,0.94927774
60c7987a11054a60df5ed5f8,12,0,2024-02-28T14:07:55.887Z,english_360.wav,0,pill,1447,26,3,5,français,f,7,0.7,93.69417602,1.65570249
60c7987a11054a60df5ed5f8,12,0,2024-02-28T14:07:55.887Z,english_360.wav,0,pill,1447,26,3,5,français,f,8,0.8,16.46151858,1.54593081
60c7987a11054a60df5ed5f8,12,0,2024-02-28T14:07:55.887Z,english_360.wav,0,pill,1447,26,3,5,français,f,9,0.9,58.0175924,0.34320104
60c7987a11054a60df5ed5f8,12,0,2024-02-28T14:07:55.887Z,english_360.wav,0,pill,1447,26,3,5,français,f,10,1.0,51.01229948,0.20094936
60c7987a11054a60df5ed5f8,12,0,2024-02-28T14:07:55.887Z,english_360.wav,0,pill,1447,26,3,5,français,f,11,1.09391667,19.14891505,0.69882977
60c7987a11054a60df5ed5f8,13,0,2024-02-28T14:07:55.887Z,english_389.wav,0,peel,274,26,3,5,français,f,0,0.0,-27.92030451,1.81186154
60c7987a11054a60df5ed5f8,13,0,2024-02-28T14:07:55.887Z,english_389.wav,0,peel,274,26,3,5,français,f,1,0.1,-46.10796153,1.54804085
60c7987a11054a60df5ed5f8,13,0,2024-02-28T14:07:55.887Z,english_389.wav,0,peel,274,26,3,5,français,f,2,0.2,29.27243325,0.55488288
60c7987a11054a60df5ed5f8,13,0,2024-02-28T14:07:55.887Z,english_389.wav,0,peel,274,26,3,5,français,f,3,0.3,-81.13766006,1.00824624
60c7987a11054a60df5ed5f8,13,0,2024-02-28T14:07:55.887Z,english_389.wav,0,peel,274,26,3,5,français,f,4,0.4,-25.00115648,1.07224035
60c7987a11054a60df5ed5f8,13,0,2024-02-28T14:07:55.887Z,english_389.wav,0,peel,274,26,3,5,français,f,5,0.5,-17.10951233,0.42212287
60c7987a11054a60df5ed5f8,13,0,2024-02-28T14:07:55.887Z,english_389.wav,0,peel,274,26,3,5,français,f,6,0.6,15.83507298,1.0440142
60c7987a11054a60df5ed5f8,13,0,2024-02-28T14:07:55.887Z,english_389.wav,0,peel,274,26,3,5,français,f,7,0.7,79.29241289,1.00958508
60c7987a11054a60df5ed5f8,13,0,2024-02-28T14:07:55.887Z,english_389.wav,0,peel,274,26,3,5,français,f,8,0.8,27.96570621,0.92707182
60c7987a11054a60df5ed5f8,13,0,2024-02-28T14:07:55.887Z,english_389.wav,0,peel,274,26,3,5,français,f,9,0.9,-91.92786914,1.30621654
60c7987a11054a60df5ed5f8,13,0,2024-02-28T14:07:55.887Z,english_389.wav,0,peel,274,26,3,5,français,f,10,1.0,39.38033895,1.4968603
60c7987a11054a60df5ed5f8,13,0,2024-02-28T14:07:55.887Z,english_389.wav,0,peel,274,26,3,5,français,f,11,1.09391667,-32.92969944,0.53867672
60c7987a11054a60df5ed5f8,14,0,2024-02-28T14:07:55.887Z,english_909.wav,0,peel,420,26,3,5,français,f,0,0.0,10.71027544,0.31194576
60c7987a11054a60df5ed5f8,14,0,2024-02-28T14:07:55.887Z,english_909.wav,0,peel,420,26,3,5,français,f,1,0.1,-48.99679887,0.75562572
60c7987a11054a60df5ed5f8,14,0,2024-02-28T14:07:55.887Z,english_909.wav,0,peel,420,26,3,5,français,f,2,0.2,0.10936675,1.15361909
60c7987a11054a60df5ed5f8,14,0,2024-02-28T14:07:55.887Z,english_909.wav,0,peel,420,26,3,5,français,f,3,0.3,-9.5972352,1.70848665
60c7987a11054a60df5ed5f8,14,0,2024-02-28T14:07:55.887Z,english_909.wav,0,peel,420,26,3,5,français,f,4,0.4,41.63700809,1.17263968
60c7987a11054a60df5ed5f8,14,0,2024-02-28T14:07:55.887Z,english_909.wav,0,peel,420,26,3,5,français,f,5,0.5,-54.98653808,1.91472761
60c7987a11054a60df5ed5f8,14,0,2024-02-28T14:07:55.887Z,english_909.wav,0,peel,420,26,3,5,français,f,6,0.6,-79.93461055,0.74389201
60c7987a11054a60df5ed5f8,14,0,2024-02-28T14:07:55.887Z,english_909.wav,0,peel,420,26,3,5,français,f,7,0.7,-18.97053935,0.87039019
60c7987a11054a60df5ed5f8,14,0,2024-02-28T14:07:55.887Z,english_909.wav,0,peel,420,26,3,5,français,f,8,0.8,-79.95487678,0.69566776
60c7987a11054a60df5ed5f8,14,0,2024-02-28T14:07:55.887Z,english_909.wav,0,peel,420,26,3,5,français,f,9,0.9,48.57972969,0.96721203
60c7987a11054a60df5ed5f8,14,0,2024-02-28T14:07:55.887Z,english_909.wav,0,peel,420,26,3,5,français,f,10,1.0,81.75147214,1.53411622
60c7987a11054a60df5ed5f8,14,0,2024-02-28T14:07:55.887Z,english_909.wav,0,peel,420,26,3,5,français,f,11,1.09391667,-81.8755088,1.74360808
60c7987a11054a60df5ed5f8,15,0,2024-02-28T14:07:55.887Z,english_733.wav,0,pill,415,26,3,5,français,f,0,0.0,60.12911829,1.17715688
60c7987a11054a60df5ed5f8,15,0,2024-02-28T14:07:55.887Z,english_733.wav,0,pill,415,26,3,5,français,f,1,0.1,-6.07350544,0.73101999
60c7987a11054a60df5ed5f8,15,0,2024-02-28T14:07:55.887Z,english_733.wav,0,pill,415,26,3,5,français,f,2,0.2,-97.34447637,0.23762906
60c7987a11054a60df5ed5f8,15,0,2024-02-28T14:07:55.887Z,english_733.wav,0,pill,415,26,3,5,français,f,3,0.3,13.91289177,0.47801532
60c7987a11054a60df5ed5f8,15,0,2024-02-28T14:07:55.887Z,english_733.wav,0,pill,415,26,3,5,français,f,4,0.4,24.58615212,1.00660929
60c7987a11054a60df5ed5f8,15,0,2024-02-28T14:07:55.887Z,english_733.wav,0,pill,415,26,3,5,français,f,5,0.5,-0.46947401,0.69954151
60c7987a11054a60df5ed5f8,15,0,2024-02-28T14:07:55.887Z,english_733.wav,0,pill,415,26,3,5,français,f,6,0.6,-95.42432467,0.66296436
60c7987a11054a60df5ed5f8,15,0,2024-02-28T14:07:55.887Z,english_733.wav,0,pill,415,26,3,5,français,f,7,0.7,-12.42368325,0.8353001
60c7987a11054a60df5ed5f8,15,0,2024-02-28T14:07:55.887Z,english_733.wav,0,pill,415,26,3,5,français,f,8,0.8,-68.21201108,0.93210743
60c7987a11054a60df5ed5f8,15,0,2024-02-28T14:07:55.887Z,english_733.wav,0,pill,415,26,3,5,français,f,9,0.9,80.23434779,0.7426454
60c7987a11054a60df5ed5f8,15,0,2024-02-28T14:07:55.887Z,english_733.wav,0,pill,415,26,3,5,français,f,10,1.0,37.72859174,1.31979312
60c7987a11054a60df5ed5f8,15,0,2024-02-28T14:07:55.887Z,english_733.wav,0,pill,415,26,3,5,français,f,11,1.09391667,99.34819771,0.72211033
60c7987a11054a60df5ed5f8,16,0,2024-02-28T14:07:55.887Z,english_512.wav,0,peel,2340,26,3,5,français,f,0,0.0,-23.56559233,0.34737706
60c7987a11054a60df5ed5f8,16,0,2024-02-28T14:07:55.887Z,english_512.wav,0,peel,2340,26,3,5,français,f,1,0.1,44.15406219,1.80415703
60c7987a11054a60df5ed5f8,16,0,2024-02-28T14:07:55.887Z,english_512.wav,0,peel,2340,26,3,5,français,f,2,0.2,90.2297784,1.77401658
60c7987a11054a60df5ed5f8,16,0,2024-02-28T14:07:55.887Z,english_512.wav,0,peel,2340,26,3,5,français,f,3,0.3,31.62400251,0.80962243
60c7987a11054a60df5ed5f8,16,0,2024-02-28T14:07:55.887Z,english_512.wav,0,peel,2340,26,3,5,français,f,4,0.4,-71.52797272,0.21525837
60c7987a11054a60df5ed5f8,16,0,2024-02-28T14:07:55.887Z,english_512.wav,0,peel,2340,26,3,5,français,f,5,0.5,-17.92560707,0.09930304
60c7987a11054a60df5ed5f8,16,0,2024-02-28T14:07:55.887Z,english_512.wav,0,peel,2340,26,3,5,français,f,6,0.6,78.14138422,0.93763429
60c7987a11054a60df5ed5f8,16,0,2024-02-28T14:07:55.887Z,english_512.wav,0,peel,2340,26,3,5,français,f,7,0.7,-0.55474778,0.07747984
60c7987a11054a60df5ed5f8,16,0,2024-02-28T14:07:55.887Z,english_512.wav,0,peel,2340,26,3,5,français,f,8,0.8,-0.96763975,1.28799801
60c7987a11054a60df5ed5f8,16,0,2024-02-28T14:07:55.887Z,english_512.wav,0,peel,2340,26,3,5,français,f,9,0.9,18.83454105,0.32721238
60c7987a11054a60df5ed5f8,16,0,2024-02-28T14:07:55.887Z,english_512.wav,0,peel,2340,26,3,5,français,f,10,1.0,3.09463475,0.68607536
60c7987a11054a60df5ed5f8,16,0,2024-02-28T14:07:55.887Z,english_512.wav,0,peel,2340,26,3,5,français,f,11,1.09391667,65.7955852,1.62840549
60c7987a11054a60df5ed5f8,17,0,2024-02-28T14:07:55.887Z,english_51.wav,0,pill,1519,26,3,5,français,f,0,0.0,4.82438937,1.72214018
60c7987a11054a60df5ed5f8,17,0,2024-02-28T14:07:55.887Z,english_51.wav,0,pill,1519,26,3,5,français,f,1,0.1,-25.96164734,0.88661189
60c7987a11054a60df5ed5f8,17,0,2024-02-28T14:07:55.887Z,english_51.wav,0,pill,1519,26,3,5,français,f,2,0.2,69.41579929,0.13058188
60c7987a11054a60df5ed5f8,17,0,2024-02-28T14:07:55.887Z,english_51.wav,0,pill,1519,26,3,5,français,f,3,0.3,-53.59443599,0.95728679
60c7987a11054a60df5ed5f8,17,0,2024-02-28T14:07:55.887Z,english_51.wav,0,pill,1519,26,3,5,français,f,4,0.4,-3.65182133,1.79715226
60c7987a11054a60df5ed5f8,17,0,2024-02-28T14:07:55.887Z,english_51.wav,0,pill,1519,26,3,5,français,f,5,0.5,-31.28869864,0.9981941
60c7987a11054a60df5ed5f8,17,0,2024-02-28T14:07:55.887Z,english_51.wav,0,pill,1519,26,3,5,français,f,6,0.6,61.83683128,0.02786947
60c7987a11054a60df5ed5f8,17,0,2024-02-28T14:07:55.887Z,english_51.wav,0,pill,1519,26,3,5,français,f,7,0.7,21.64373061,0.63001571
60c7987a11054a60df5ed5f8,17,0,2024-02-28T14:07:55.887Z,english_51.wav,0,pill,1519,26,3,5,français,f,8,0.8,63.25865389,1.19147023
60c7987a11054a60df5ed5f8,17,0,2024-02-28T14:07:55.887Z,english_51.wav,0,pill,1519,26,3,5,français,f,9,0.9,-40.06070135,0.58040848
60c7987a11054a60df5ed5f8,17,0,2024-02-28T14:07:55.887Z,english_51.wav,0,pill,1519,26,3,5,français,f,10,1.0,68.22105394,1.03101423
60c7987a11054a60df5ed5f8,17,0,2024-02-28T14:07:55.887Z,english_51.wav,0,pill,1519,26,3,5,français,f,11,1.09391667,-1.01243895,0.89107538
60c7987a11054a60df5ed5f8,18,0,2024-02-28T14:07:55.887Z,english_260.wav,0,peel,895,26,3,5,français,f,0,0.0,15.97763116,1.94177241
60c7987a11054a60df5ed5f8,18,0,2024-02-28T14:07:55.887Z,english_260.wav,0,peel,895,26,3,5,français,f,1,0.1,-13.3847134,0.74015027
60c7987a11054a60df5ed5f8,18,0,2024-02-28T14:07:55.887Z,english_260.wav,0,peel,895,26,3,5,français,f,2,0.2,-29.63675022,0.26772348
60c7987a11054a60df5ed5f8,18,0,2024-02-28T14:07:55.887Z,english_260.wav,0,peel,895,26,3,5,français,f,3,0.3,-94.12252117,0.24482628
60c7987a11054a60df5ed5f8,18,0,2024-02-28T14:07:55.887Z,english_260.wav,0,peel,895,26,3,5,français,f,4,0.4,37.44404644,0.73676391
60c7987a11054a60df5ed5f8,18,0,2024-02-28T14:07:55.887Z,english_260.wav,0,peel,895,26,3,5,français,f,5,0.5,-13.47562993,0.3869803
60c7987a11054a60df5ed5f8,18,0,2024-02-28T14:07:55.887Z,english_260.wav,0,peel,895,26,3,5,français,f,6,0.6,28.72077468,0.62582606
60c7987a11054a60df5ed5f8,18,0,2024-02-28T14:07:55.887Z,english_260.wav,0,peel,895,26,3,5,français,f,7,0.7,-25.31213713,0.50244213
60c7987a11054a60df5ed5f8,18,0,2024-02-28T14:07:55.887Z,english_260.wav,0,peel,895,26,3,5,français,f,8,0.8,12.33791488,0.1260874
60c7987a11054a60df5ed5f8,18,0,2024-02-28T14:07:55.887Z,english_260.wav,0,peel,895,26,3,5,français,f,9,0.9,1.56732473,0.8031848
60c7987a11054a60df5ed5f8,18,0,2024-02-28T14:07:55.887Z,english_260.wav,0,peel,895,26,3,5,français,f,10,1.0,-29.87361041,1.5387452
60c7987a11054a60df5ed5f8,18,0,2024-02-28T14:07:55.887Z,english_260.wav,0,peel,895,26,3,5,français,f,11,1.09391667,9.56042619,0.69389389
60c7987a11054a60df5ed5f8,19,0,2024-02-28T14:07:55.887Z,english_993.wav,0,peel,317,26,3,5,français,f,0,0.0,-8.65746923,1.97743958
60c7987a11054a60df5ed5f8,19,0,2024-02-28T14:07:55.887Z,english_993.wav,0,peel,317,26,3,5,français,f,1,0.1,-27.87522694,0.36006803
60c7987a11054a60df5ed5f8,19,0,2024-02-28T14:07:55.887Z,english_993.wav,0,peel,317,26,3,5,français,f,2,0.2,41.79329436,0.06856355
60c7987a11054a60df5ed5f8,19,0,2024-02-28T14:07:55.887Z,english_993.wav,0,peel,317,26,3,5,français,f,3,0.3,-23.16935708,0.38955927
60c7987a11054a60df5ed5f8,19,0,2024-02-28T14:07:55.887Z,english_993.wav,0,peel,317,26,3,5,français,f,4,0.4,18.8592239,1.25297016
60c7987a11054a60df5ed5f8,19,0,2024-02-28T14:07:55.887Z,english_993.wav,0,peel,317,26,3,5,français,f,5,0.5,40.29392848,0.33975417
60c7987a11054a60df5ed5f8,19,0,2024-02-28T14:07:55.887Z,english_993.wav,0,peel,317,26,3,5,français,f,6,0.6,77.6038757,1.12200744
60c7987a11054a60df5ed5f8,19,0,2024-02-28T14:07:55.887Z,english_993.wav,0,peel,317,26,3,5,français,f,7,0.7,33.5103026,1.75189261
60c7987a11054a60df5ed5f8,19,0,2024-02-28T14:07:55.887Z,english_993.wav,0,peel,317,26,3,5,français,f,8,0.8,71.9206852,0.43539509
60c7987a11054a60df5ed5f8,19,0,2024-02-28T14:07:55.887Z,english_993.wav,0,peel,317,26,3,5,français,f,9,0.9,-28.91081602,1.78200425
60c7987a11054a60df5ed5f8,19,0,2024-02-28T14:07:55.887Z,english_993.wav,0,peel,317,26,3,5,français,f,10,1.0,-66.92854856,0.58801976
60c7987a11054a60df5ed5f8,19,0,2024-02-28T14:07:55.887Z,english_993.wav,0,peel,317,26,3,5,français,f,11,1.09391667,-70.4693707,0.997712
60c7987a11054a60df5ed5f8,20,0,2024-02-28T14:07:55.887Z,english_885.wav,0,pill,538,26,3,5,français,f,0,0.0,54.55471531,1.33761042
60c7987a11054a60df5ed5f8,20,0,2024-02-28T14:07:55.887Z,english_885.wav,0,pill,538,26,3,5,français,f,1,0.1,-9.45538995,0.16839263
60c7987a11054a60df5ed5f8,20,0,2024-02-28T14:07:55.887Z,english_885.wav,0,pill,538,26,3,5,français,f,2,0.2,51.71669589,0.15282828
60c7987a11054a60df5ed5f8,20,0,2024-02-28T14:07:55.887Z,english_885.wav,0,pill,538,26,3,5,français,f,3,0.3,35.30778931,0.93528856
60c7987a11054a60df5ed5f8,20,0,2024-02-28T14:07:55.887Z,english_885.wav,0,pill,538,26,3,5,français,f,4,0.4,20.62870104,0.42450529
60c7987a11054a60df5ed5f8,20,0,2024-02-28T14:07:55.887Z,english_885.wav,0,pill,538,26,3,5,français,f,5,0.5,45.97492152,1.13086713
60c7987a11054a60df5ed5f8,20,0,2024-02-28T14:07:55.887Z,english_885.wav,0,pill,538,26,3,5,français,f,6,0.6,57.72908242,1.16302136
60c7987a11054a60df5ed5f8,20,0,2024-02-28T14:07:55.887Z,english_885.wav,0,pill,538,26,3,5,français,f,7,0.7,-7.90762664,1.12991064
60c7987a11054a60df5ed5f8,20,0,2024-02-28T14:07:55.887Z,english_885.wav,0,pill,538,26,3,5,français,f,8,0.8,-27.43803549,0.98725245
60c7987a11054a60df5ed5f8,20,0,2024-02-28T14:07:55.887Z,english_885.wav,0,pill,538,26,3,5,français,f,9,0.9,-45.75999486,0.61152154
60c7987a11054a60df5ed5f8,20,0,2024-02-28T14:07:55.887Z,english_885.wav,0,pill,538,26,3,5,français,f,10,1.0,65.06809526,0.86912983
60c7987a11054a60df5ed5f8,20,0,2024-02-28T14:07:55.887Z,english_885.wav,0,pill,538,26,3,5,français,f,11,1.09391667,85.31433116,0.92468658
60c7987a11054a60df5ed5f8,21,0,2024-02-28T14:07:55.887Z,english_132.wav,0,peel,475,26,3,5,français,f,0,0.0,0.80878803,1.8484575
60c7987a11054a60df5ed5f8,21,0,2024-02-28T14:07:55.887Z,english_132.wav,0,peel,475,26,3,5,français,f,1,0.1,-89.46369243,0.19659267
60c7987a11054a60df5ed5f8,21,0,2024-02-28T14:07:55.887Z,english_132.wav,0,peel,475,26,3,5,français,f,2,0.2,-42.02740452,0.98704764
60c7987a11054a60df5ed5f8,21,0,2024-02-28T14:07:55.887Z,english_132.wav,0,peel,475,26,3,5,français,f,3,0.3,-31.54071999,0.90975168
60c7987a11054a60df5ed5f8,21,0,2024-02-28T14:07:55.887Z,english_132.wav,0,peel,475,26,3,5,français,f,4,0.4,0.25010778,1.48690857
60c7987a11054a60df5ed5f8,21,0,2024-02-28T14:07:55.887Z,english_132.wav,0,peel,475,26,3,5,français,f,5,0.5,58.11815913,1.16973021
60c7987a11054a60df5ed5f8,21,0,2024-02-28T14:07:55.887Z,english_132.wav,0,peel,475,26,3,5,français,f,6,0.6,81.96461668,0.00206468
60c7987a11054a60df5ed5f8,21,0,2024-02-28T14:07:55.887Z,english_132.wav,0,peel,475,26,3,5,français,f,7,0.7,-44.50191201,0.61136538
60c7987a11054a60df5ed5f8,21,0,2024-02-28T14:07:55.887Z,english_132.wav,0,peel,475,26,3,5,français,f,8,0.8,-95.34081409,0.53595083
60c7987a11054a60df5ed5f8,21,0,2024-02-28T14:07:55.887Z,english_132.wav,0,peel,475,26,3,5,français,f,9,0.9,-97.06518429,0.1294964
60c7987a11054a60df5ed5f8,21,0,2024-02-28T14:07:55.887Z,english_132.wav,0,peel,475,26,3,5,français,f,10,1.0,9.04827132,0.71465456
60c7987a11054a60df5ed5f8,21,0,2024-02-28T14:07:55.887Z,english_132.wav,0,peel,475,26,3,5,français,f,11,1.09391667,76.3058936,0.51987053
60c7987a11054a60df5ed5f8,22,0,2024-02-28T14:07:55.887Z,english_599.wav,0,peel,809,26,3,5,français,f,0,0.0,68.55754102,0.43315889
60c7987a11054a60df5ed5f8,22,0,2024-02-28T14:07:55.887Z,english_599.wav,0,peel,809,26,3,5,français,f,1,0.1,-7.26037981,0.25693118
60c7987a11054a60df5ed5f8,22,0,2024-02-28T14:07:55.887Z,english_599.wav,0,peel,809,26,3,5,français,f,2,0.2,92.88050494,0.63718224
60c7987a11054a60df5ed5f8,22,0,2024-02-28T14:07:55.887Z,english_599.wav,0,peel,809,26,3,5,français,f,3,0.3,-30.01198602,0.72589136
60c7987a11054a60df5ed5f8,22,0,2024-02-28T14:07:55.887Z,english_599.wav,0,peel,809,26,3,5,français,f,4,0.4,-12.83448782,1.41268703
60c7987a11054a60df5ed5f8,22,0,2024-02-28T14:07:55.887Z,english_599.wav,0,peel,809,26,3,5,français,f,5,0.5,95.18827309,1.68026213
60c7987a11054a60df5ed5f8,22,0,2024-02-28T14:07:55.887Z,english_599.wav,0,peel,809,26,3,5,français,f,6,0.6,76.69886181,1.35988865
60c7987a11054a60df5ed5f8,22,0,2024-02-28T14:07:55.887Z,english_599.wav,0,peel,809,26,3,5,français,f,7,0.7,-88.96581396,1.48925284
60c7987a11054a60df5ed5f8,22,0,2024-02-28T14:07:55.887Z,english_599.wav,0,peel,809,26,3,5,français,f,8,0.8,6.31748227,0.8159251
60c7987a11054a60df5ed5f8,22,0,2024-02-28T14:07:55.887Z,english_599.wav,0,peel,809,26,3,5,français,f,9,0.9,-93.23103284,0.71703188
60c7987a11054a60df5ed5f8,22,0,2024-02-28T14:07:55.887Z,english_599.wav,0,peel,809,26,3,5,français,f,10,1.0,52.23538248,0.37366583
60c7987a11054a60df5ed5f8,22,0,2024-02-28T14:07:55.887Z,english_599.wav,0,peel,809,26,3,5,français,f,11,1.09391667,80.6723105,0.06283904
60c7987a11054a60df5ed5f8,23,0,2024-02-28T14:07:55.887Z,english_356.wav,0,pill,315,26,3,5,français,f,0,0.0,32.76906958,0.08562483
60c7987a11054a60df5ed5f8,23,0,2024-02-28T14:07:55.887Z,english_356.wav,0,pill,315,26,3,5,français,f,1,0.1,-4.50463472,0.71215991
60c7987a11054a60df5ed5f8,23,0,2024-02-28T14:07:55.887Z,english_356.wav,0,pill,315,26,3,5,français,f,2,0.2,-3.50879641,0.27192591
60c7987a11054a60df5ed5f8,23,0,2024-02-28T14:07:55.887Z,english_356.wav,0,pill,315,26,3,5,français,f,3,0.3,-66.50182595,1.84647675
60c7987a11054a60df5ed5f8,23,0,2024-02-28T14:07:55.887Z,english_356.wav,0,pill,315,26,3,5,français,f,4,0.4,-41.87578379,0.94018547
60c7987a11054a60df5ed5f8,23,0,2024-02-28T14:07:55.887Z,english_356.wav,0,pill,315,26,3,5,français,f,5,0.5,15.06829484,0.35538969
60c7987a11054a60df5ed5f8,23,0,2024-02-28T14:07:55.887Z,english_356.wav,0,pill,315,26,3,5,français,f,6,0.6,-0.09178899,0.67852857
60c7987a11054a60df5ed5f8,23,0,2024-02-28T14:07:55.887Z,english_356.wav,0,pill,315,26,3,5,français,f,7,0.7,-46.92797448,1.60890004
60c7987a11054a60df5ed5f8,23,0,2024-02-28T14:07:55.887Z,english_356.wav,0,pill,315,26,3,5,français,f,8,0.8,77.06532678,0.18175686
60c7987a11054a60df5ed5f8,23,0,2024-02-28T14:07:55.887Z,english_356.wav,0,pill,315,26,3,5,français,f,9,0.9,26.9349071,1.60704056
60c7987a11054a60df5ed5f8,23,0,2024-02-28T14:07:55.887Z,english_356.wav,0,pill,315,26,3,5,français,f,10,1.0,1.26347583,0.84129373
60c7987a11054a60df5ed5f8,23,0,2024-02-28T14:07:55.887Z,english_356.wav,0,pill,315,26,3,5,français,f,11,1.09391667,-52.5712343,0.27010089
60c7987a11054a60df5ed5f8,24,0,2024-02-28T14:07:55.887Z,english_234.wav,0,peel,1378,26,3,5,français,f,0,0.0,71.25344855,1.77024373
60c7987a11054a60df5ed5f8,24,0,2024-02-28T14:07:55.887Z,english_234.wav,0,peel,1378,26,3,5,français,f,1,0.1,2.51724238,1.93450941
60c7987a11054a60df5ed5f8,24,0,2024-02-28T14:07:55.887Z,english_234.wav,0,peel,1378,26,3,5,français,f,2,0.2,11.96692617,1.39397551
60c7987a11054a60df5ed5f8,24,0,2024-02-28T14:07:55.887Z,english_234.wav,0,peel,1378,26,3,5,français,f,3,0.3,64.81737023,1.38496922
60c7987a11054a60df5ed5f8,24,0,2024-02-28T14:07:55.887Z,english_234.wav,0,peel,1378,26,3,5,français,f,4,0.4,73.84050439,1.81820251
60c7987a11054a60df5ed5f8,24,0,2024-02-28T14:07:55.887Z,english_234.wav,0,peel,1378,26,3,5,français,f,5,0.5,-23.01072055,1.61085564
60c7987a11054a60df5ed5f8,24,0,2024-02-28T14:07:55.887Z,english_234.wav,0,peel,1378,26,3,5,français,f,6,0.6,-44.95387086,1.3729139
60c7987a11054a60df5ed5f8,24,0,2024-02-28T14:07:55.887Z,english_234.wav,0,peel,1378,26,3,5,français,f,7,0.7,-11.63871465,1.59939785
60c7987a11054a60df5ed5f8,24,0,2024-02-28T14:07:55.887Z,english_234.wav,0,peel,1378,26,3,5,français,f,8,0.8,88.55977512,0.08431317
60c7987a11054a60df5ed5f8,24,0,2024-02-28T14:07:55.887Z,english_234.wav,0,peel,1378,26,3,5,français,f,9,0.9,51.63791617,1.41302364
60c7987a11054a60df5ed5f8,24,0,2024-02-28T14:07:55.887Z,english_234.wav,0,peel,1378,26,3,5,français,f,10,1.0,-71.95139975,1.44509252
60c7987a11054a60df5ed5f8,24,0,2024-02-28T14:07:55.887Z,english_234.wav,0,peel,1378,26,3,5,français,f,11,1.09391667,-75.67665254,0.88259776
60c7987a11054a60df5ed5f8,25,0,2024-02-28T14:07:55.887Z,english_829.wav,0,pill,418,26,3,5,français,f,0,0.0,-7.89955856,0.852516
60c7987a11054a60df5ed5f8,25,0,2024-02-28T14:07:55.887Z,english_829.wav,0,pill,418,26,3,5,français,f,1,0.1,-18.01769042,0.97788956
60c7987a11054a60df5ed5f8,25,0,2024-02-28T14:07:55.887Z,english_829.wav,0,pill,418,26,3,5,français,f,2,0.2,57.48418942,1.32810397
60c7987a11054a60df5ed5f8,25,0,2024-02-28T14:07:55.887Z,english_829.wav,0,pill,418,26,3,5,français,f,3,0.3,41.9687918,0.18108064
60c7987a11054a60df5ed5f8,25,0,2024-02-28T14:07:55.887Z,english_829.wav,0,pill,418,26,3,5,français,f,4,0.4,-61.64702177,0.15705118
60c7987a11054a60df5ed5f8,25,0,2024-02-28T14:07:55.887Z,english_829.wav,0,pill,418,26,3,5,français,f,5,0.5,-20.29007911,0.66571436
60c7987a11054a60df5ed5f8,25,0,2024-02-28T14:07:55.887Z,english_829.wav,0,pill,418,26,3,5,français,f,6,0.6,93.24496902,0.20869504
60c7987a11054a60df5ed5f8,25,0,2024-02-28T14:07:55.887Z,english_829.wav,0,pill,418,26,3,5,français,f,7,0.7,-32.99482484,1.27621492
60c7987a11054a60df5ed5f8,25,0,2024-02-28T14:07:55.887Z,english_829.wav,0,pill,418,26,3,5,français,f,8,0.8,6.59233546,1.10768251
60c7987a11054a60df5ed5f8,25,0,2024-02-28T14:07:55.887Z,english_829.wav,0,pill,418,26,3,5,français,f,9,0.9,-90.87646181,1.10361444
60c7987a11054a60df5ed5f8,25,0,2024-02-28T14:07:55.887Z,english_829.wav,0,pill,418,26,3,5,français,f,10,1.0,9.72736643,0.98320382
60c7987a11054a60df5ed5f8,25,0,2024-02-28T14:07:55.887Z,english_829.wav,0,pill,418,26,3,5,français,f,11,1.09391667,-11.26207351,1.01672444
60c7987a11054a60df5ed5f8,26,0,2024-02-28T14:07:55.887Z,english_174.wav,0,pill,346,26,3,5,français,f,0,0.0,-1.27352161,1.81219165
60c7987a11054a60df5ed5f8,26,0,2024-02-28T14:07:55.887Z,english_174.wav,0,pill,346,26,3,5,français,f,1,0.1,-67.76486912,0.77028854
60c7987a11054a60df5ed5f8,26,0,2024-02-28T14:07:55.887Z,english_174.wav,0,pill,346,26,3,5,français,f,2,0.2,38.59821356,0.44136445
60c7987a11054a60df5ed5f8,26,0,2024-02-28T14:07:55.887Z,english_174.wav,0,pill,346,26,3,5,français,f,3,0.3,-68.30936474,1.01129338
60c7987a11054a60df5ed5f8,26,0,2024-02-28T14:07:55.887Z,english_174.wav,0,pill,346,26,3,5,français,f,4,0.4,-90.24428589,0.76518489
60c7987a11054a60df5ed5f8,26,0,2024-02-28T14:07:55.887Z,english_174.wav,0,pill,346,26,3,5,français,f,5,0.5,-78.84758788,1.51905633
60c7987a11054a60df5ed5f8,26,0,2024-02-28T14:07:55.887Z,english_174.wav,0,pill,346,26,3,5,français,f,6,0.6,82.67516556,0.9260744
60c7987a11054a60df5ed5f8,26,0,2024-02-28T14:07:55.887Z,english_174.wav,0,pill,346,26,3,5,français,f,7,0.7,27.65744762,1.48661059
60c7987a11054a60df5ed5f8,26,0,2024-02-28T14:07:55.887Z,english_174.wav,0,pill,346,26,3,5,français,f,8,0.8,82.5621195,0.13101211
60c7987a11054a60df5ed5f8,26,0,2024-02-28T14:07:55.887Z,english_174.wav,0,pill,346,26,3,5,français,f,9,0.9,22.03109017,0.66605082
60c7987a11054a60df5ed5f8,26,0,2024-02-28T14:07:55.887Z,english_174.wav,0,pill,346,26,3,5,français,f,10,1.0,97.22651297,0.90549752
60c7987a11054a60df5ed5f8,26,0,2024-02-28T14:07:55.887Z,english_174.wav,0,pill,346,26,3,5,français,f,11,1.09391667,6.30116613,1.52579229
60c7987a11054a60df5ed5f8,27,0,2024-02-28T14:07:55.887Z,english_255.wav,0,pill,559,26,3,5,français,f,0,0.0,94.72265592,1.19967406
60c7987a11054a60df5ed5f8,27,0,2024-02-28T14:07:55.887Z,english_255.wav,0,pill,559,26,3,5,français,f,1,0.1,1.10845293,1.25035485
60c7987a11054a60df5ed5f8,27,0,2024-02-28T14:07:55.887Z,english_255.wav,0,pill,559,26,3,5,français,f,2,0.2,-1.90413972,1.85398204
60c7987a11054a60df5ed5f8,27,0,2024-02-28T14:07:55.887Z,english_255.wav,0,pill,559,26,3,5,français,f,3,0.3,-45.9655603,0.56259094
60c7987a11054a60df5ed5f8,27,0,2024-02-28T14:07:55.887Z,english_255.wav,0,pill,559,26,3,5,français,f,4,0.4,-6.89013944,1.07948955
60c7987a11054a60df5ed5f8,27,0,2024-02-28T14:07:55.887Z,english_255.wav,0,pill,559,26,3,5,français,f,5,0.5,3.45085104,0.7328114
60c7987a11054a60df5ed5f8,27,0,2024-02-28T14:07:55.887Z,english_255.wav,0,pill,559,26,3,5,français,f,6,0.6,-68.66949423,0.49197221
60c7987a11054a60df5ed5f8,27,0,2024-02-28T14:07:55.887Z,english_255.wav,0,pill,559,26,3,5,français,f,7,0.7,-22.56077648,1.14850602
60c7987a11054a60df5ed5f8,27,0,2024-02-28T14:07:55.887Z,english_255.wav,0,pill,559,26,3,5,français,f,8,0.8,-32.1394332,1.46654584
60c7987a11054a60df5ed5f8,27,0,2024-02-28T14:07:55.887Z,english_255.wav,0,pill,559,26,3,5,français,f,9,0.9,56.48595448,0.34163334
60c7987a11054a60df5ed5f8,27,0,2024-02-28T14:07:55.887Z,english_255.wav,0,pill,559,26,3,5,français,f,10,1.0,-33.08950479,0.52219351
60c7987a11054a60df5ed5f8,27,0,2024-02-28T14:07:55.887Z,english_255.wav,0,pill,559,26,3,5,français,f,11,1.09391667,55.58931482,1.18693331
60c7987a11054a60df5ed5f8,28,0,2024-02-28T14:07:55.887Z,english_852.wav,0,peel,334,26,3,5,français,f,0,0.0,-72.43588369,0.36787591
60c7987a11054a60df5ed5f8,28,0,2024-02-28T14:07:55.887Z,english_852.wav,0,peel,334,26,3,5,français,f,1,0.1,-98.6251287,1.73505489
60c7987a11054a60df5ed5f8,28,0,2024-02-28T14:07:55.887Z,english_852.wav,0,peel,334,26,3,5,français,f,2,0.2,-89.42746768,1.62660713
60c7987a11054a60df5ed5f8,28,0,2024-02-28T14:07:55.887Z,english_852.wav,0,peel,334,26,3,5,français,f,3,0.3,-34.62530113,0.43311906
60c7987a11054a60df5ed5f8,28,0,2024-02-28T14:07:55.887Z,english_852.wav,0,peel,334,26,3,5,français,f,4,0.4,30.41205687,0.44776213
60c7987a11054a60df5ed5f8,28,0,2024-02-28T14:07:55.887Z,english_852.wav,0,peel,334,26,3,5,français,f,5,0.5,2.837509,1.35793831
60c7987a11054a60df5ed5f8,28,0,2024-02-28T14:07:55.887Z,english_852.wav,0,peel,334,26,3,5,français,f,6,0.6,-71.5278257,0.32605315
60c7987a11054a60df5ed5f8,28,0,2024-02-28T14:07:55.887Z,english_852.wav,0,peel,334,26,3,5,français,f,7,0.7,49.48057975,0.34111515
60c7987a11054a60df5ed5f8,28,0,2024-02-28T14:07:55.887Z,english_852.wav,0,peel,334,26,3,5,français,f,8,0.8,88.19174023,1.45336533
60c7987a11054a60df5ed5f8,28,0,2024-02-28T14:07:55.887Z,english_852.wav,0,peel,334,26,3,5,français,f,9,0.9,20.52660859,1.82703196
60c7987a11054a60df5ed5f8,28,0,2024-02-28T14:07:55.887Z,english_852.wav,0,peel,334,26,3,5,français,f,10,1.0,-18.49679028,0.13003363
60c7987a11054a60df5ed5f8,28,0,2024-02-28T14:07:55.887Z,english_852.wav,0,peel,334,26,3,5,français,f,11,1.09391667,15.64652165,0.89322684
60c7987a11054a60df5ed5f8,29,0,2024-02-28T14:07:55.887Z,english_48.wav,0,pill,277,26,3,5,français,f,0,0.0,60.63460718,0.33804588
60c7987a11054a60df5ed5f8,29,0,2024-02-28T14:07:55.887Z,english_48.wav,0,pill,277,26,3,5,français,f,1,0.1,-63.25879977,1.53774441
60c7987a11054a60df5ed5f8,29,0,2024-02-28T14:07:55.887Z,english_48.wav,0,pill,277,26,3,5,français,f,2,0.2,72.16287223,0.96691945
60c7987a11054a60df5ed5f8,29,0,2024-02-28T14:07:55.887Z,english_48.wav,0,pill,277,26,3,5,français,f,3,0.3,56.56802271,1.67994136
60c7987a11054a60df5ed5f8,29,0,2024-02-28T14:07:55.887Z,english_48.wav,0,pill,277,26,3,5,français,f,4,0.4,90.70764649,1.00040305
60c7987a11054a60df5ed5f8,29,0,2024-02-28T14:07:55.887Z,english_48.wav,0,pill,277,26,3,5,français,f,5,0.5,-36.31712893,1.89041629
60c7987a11054a60df5ed5f8,29,0,2024-02-28T14:07:55.887Z,english_48.wav,0,pill,277,26,3,5,français,f,6,0.6,25.72223985,0.11424734
60c7987a11054a60df5ed5f8,29,0,2024-02-28T14:07:55.887Z,english_48.wav,0,pill,277,26,3,5,français,f,7,0.7,-14.91989637,0.3528252
60c7987a11054a60df5ed5f8,29,0,2024-02-28T14:07:55.887Z,english_48.wav,0,pill,277,26,3,5,français,f,8,0.8,-17.95558792,0.85742963
60c7987a11054a60df5ed5f8,29,0,2024-02-28T14:07:55.887Z,english_48.wav,0,pill,277,26,3,5,français,f,9,0.9,-5.44719263,0.59657969
60c7987a11054a60df5ed5f8,29,0,2024-02-28T14:07:55.887Z,english_48.wav,0,pill,277,26,3,5,français,f,10,1.0,-94.92564537,0.30631529
60c7987a11054a60df5ed5f8,29,0,2024-02-28T14:07:55.887Z,english_48.wav,0,pill,277,26,3,5,français,f,11,1.09391667,-13.08808473,1.45053444
60c7987a11054a60df5ed5f8,30,0,2024-02-28T14:07:55.887Z,english_503.wav,0,peel,420,26,3,5,français,f,0,0.0,82.81450313,0.83149822
60c7987a11054a60df5ed5f8,30,0,2024-02-28T14:07:55.887Z,english_503.wav,0,peel,420,26,3,5,français,f,1,0.1,87.05662754,1.91463783
60c7987a11054a60df5ed5f8,30,0,2024-02-28T14:07:55.887Z,english_503.wav,0,peel,420,26,3,5,français,f,2,0.2,42.99051807,0.15190796
60c7987a11054a60df5ed5f8,30,0,2024-02-28T14:07:55.887Z,english_503.wav,0,peel,420,26,3,5,français,f,3,0.3,23.32883613,1.60754129
60c7987a11054a60df5ed5f8,30,0,2024-02-28T14:07:55.887Z,english_503.wav,0,peel,420,26,3,5,français,f,4,0.4,48.50951883,0.81229928
60c7987a11054a60df5ed5f8,30,0,2024-02-28T14:07:55.887Z,english_503.wav,0,peel,420,26,3,5,français,f,5,0.5,-47.47339199,1.3748652
60c7987a11054a60df5ed5f8,30,0,2024-02-28T14:07:55.887Z,english_503.wav,0,peel,420,26,3,5,français,f,6,0.6,-9.99119765,1.71927888
60c7987a11054a60df5ed5f8,30,0,2024-02-28T14:07:55.887Z,english_503.wav,0,peel,420,26,3,5,français,f,7,0.7,68.86997334,0.8455295
60c7987a11054a60df5ed5f8,30,0,2024-02-28T14:07:55.887Z,english_503.wav,0,peel,420,26,3,5,français,f,8,0.8,-44.22385081,0.49975448
60c7987a11054a60df5ed5f8,30,0,2024-02-28T14:07:55.887Z,english_503.wav,0,peel,420,26,3,5,français,f,9,0.9,14.75546466,0.2402037
60c7987a11054a60df5ed5f8,30,0,2024-02-28T14:07:55.887Z,english_503.wav,0,peel,420,26,3,5,français,f,10,1.0,-47.31135976,1.02101903
60c7987a11054a60df5ed5f8,30,0,2024-02-28T14:07:55.887Z,english_503.wav,0,peel,420,26,3,5,français,f,11,1.09391667,-18.86254353,1.59376689
60c7987a11054a60df5ed5f8,31,0,2024-02-28T14:07:55.887Z,english_836.wav,0,pill,538,26,3,5,français,f,0,0.0,-63.35061063,0.08705993
60c7987a11054a60df5ed5f8,31,0,2024-02-28T14:07:55.887Z,english_836.wav,0,pill,538,26,3,5,français,f,1,0.1,-12.99108937,1.16779184
60c7987a11054a60df5ed5f8,31,0,2024-02-28T14:07:55.887Z,english_836.wav,0,pill,538,26,3,5,français,f,2,0.2,82.76327371,1.21817992
60c7987a11054a60df5ed5f8,31,0,2024-02-28T14:07:55.887Z,english_836.wav,0,pill,538,26,3,5,français,f,3,0.3,-37.04296685,1.4013418
60c7987a11054a60df5ed5f8,31,0,2024-02-28T14:07:55.887Z,english_836.wav,0,pill,538,26,3,5,français,f,4,0.4,12.42823269,0.6973531
60c7987a11054a60df5ed5f8,31,0,2024-02-28T14:07:55.887Z,english_836.wav,0,pill,538,26,3,5,français,f,5,0.5,-3.53155132,1.80885829
60c7987a11054a60df5ed5f8,31,0,2024-02-28T14:07:55.887Z,english_836.wav,0,pill,538,26,3,5,français,f,6,0.6,-65.36206882,1.88816728
60c7987a11054a60df5ed5f8,31,0,2024-02-28T14:07:55.887Z,english_836.wav,0,pill,538,26,3,5,français,f,7,0.7,37.4940371,0.0831571
60c7987a11054a60df5ed5f8,31,0,2024-02-28T14:07:55.887Z,english_836.wav,0,pill,538,26,3,5,français,f,8,0.8,82.10669288,1.479167
60c7987a11054a60df5ed5f8,31,0,2024-02-28T14:07:55.887Z,english_836.wav,0,pill,538,26,3,5,français,f,9,0.9,44.64707994,1.19168264
60c7987a11054a60df5ed5f8,31,0,2024-02-28T14:07:55.887Z,english_836.wav,0,pill,538,26,3,5,français,f,10,1.0,19.81650131,1.28184293
60c7987a11054a60df5ed5f8,31,0,2024-02-28T14:07:55.887Z,english_836.wav,0,pill,538,26,3,5,français,f,11,1.09391667,-37.93998677,1.25532644
60c7987a11054a60df5ed5f8,32,0,2024-02-28T14:07:55.887Z,english_64.wav,0,peel,334,26,3,5,français,f,0,0.0,35.19701481,0.1517014
60c7987a11054a60df5ed5f8,32,0,2024-02-28T14:07:55.887Z,english_64.wav,0,peel,334,26,3,5,français,f,1,0.1,75.83495736,1.3624391
60c7987a11054a60df5ed5f8,32,0,2024-02-28T14:07:55.887Z,english_64.wav,0,peel,334,26,3,5,français,f,2,0.2,-57.84604767,0.35043993
60c7987a11054a60df5ed5f8,32,0,2024-02-28T14:07:55.887Z,english_64.wav,0,peel,334,26,3,5,français,f,3,0.3,18.18328311,1.06032252
60c7987a11054a60df5ed5f8,32,0,2024-02-28T14:07:55.887Z,english_64.wav,0,peel,334,26,3,5,français,f,4,0.4,2.5532884,1.51833669
60c7987a11054a60df5ed5f8,32,0,2024-02-28T14:07:55.887Z,english_64.wav,0,peel,334,26,3,5,français,f,5,0.5,24.93011402,0.65789286
60c7987a11054a60df5ed5f8,32,0,2024-02-28T14:07:55.887Z,english_64.wav,0,peel,334,26,3,5,français,f,6,0.6,-51.99875854,1.38401799
60c7987a11054a60df5ed5f8,32,0,2024-02-28T14:07:55.887Z,english_64.wav,0,peel,334,26,3,5,français,f,7,0.7,52.45873465,1.62873445
60c7987a11054a60df5ed5f8,32,0,2024-02-28T14:07:55.887Z,english_64.wav,0,peel,334,26,3,5,français,f,8,0.8,42.38876358,0.48968984
60c7987a11054a60df5ed5f8,32,0,2024-02-28T14:07:55.887Z,english_64.wav,0,peel,334,26,3,5,français,f,9,0.9,54.33691238,0.64777192
60c7987a11054a60df5ed5f8,32,0,2024-02-28T14:07:55.887Z,english_64.wav,0,peel,334,26,3,5,français,f,10,1.0,27.02485659,0.8399807
60c7987a11054a60df5ed5f8,32,0,2024-02-28T14:07:55.887Z,english_64.wav,0,peel,334,26,3,5,français,f,11,1.09391667,58.99390703,0.25985176
60c7987a11054a60df5ed5f8,33,0,2024-02-28T14:07:55.887Z,english_87.wav,0,pill,339,26,3,5,français,f,0,0.0,-7.69614497,1.36395538
60c7987a11054a60df5ed5f8,33,0,2024-02-28T14:07:55.887Z,english_87.wav,0,pill,339,26,3,5,français,f,1,0.1,-50.79583923,0.55370317
60c7987a11054a60df5ed5f8,33,0,2024-02-28T14:07:55.887Z,english_87.wav,0,pill,339,26,3,5,français,f,2,0.2,-21.62085435,0.68433779
60c7987a11054a60df5ed5f8,33,0,2024-02-28T14:07:55.887Z,english_87.wav,0,pill,339,26,3,5,français,f,3,0.3,23.33346841,1.42277988
60c7987a11054a60df5ed5f8,33,0,2024-02-28T14:07:55.887Z,english_87.wav,0,pill,339,26,3,5,français,f,4,0.4,84.82731916,1.16991809
60c7987a11054a60df5ed5f8,33,0,2024-02-28T14:07:55.887Z,english_87.wav,0,pill,339,26,3,5,français,f,5,0.5,74.54936251,0.13065421
60c7987a11054a60df5ed5f8,33,0,2024-02-28T14:07:55.887Z,english_87.wav,0,pill,339,26,3,5,français,f,6,0.6,-86.24882643,1.74622352
60c7987a11054a60df5ed5f8,33,0,2024-02-28T14:07:55.887Z,english_87.wav,0,pill,339,26,3,5,français,f,7,0.7,18.19590059,0.87122315
60c7987a11054a60df5ed5f8,33,0,2024-02-28T14:07:55.887Z,english_87.wav,0,pill,339,26,3,5,français,f,8,0.8,86.70789686,1.52981879
60c7987a11054a60df5ed5f8,33,0,2024-02-28T14:07:55.887Z,english_87.wav,0,pill,339,26,3,5,français,f,9,0.9,67.00424782,1.42292715
60c7987a11054a60df5ed5f8,33,0,2024-02-28T14:07:55.887Z,english_87.wav,0,pill,339,26,3,5,français,f,10,1.0,91.10231962,0.07145037
60c7987a11054a60df5ed5f8,33,0,2024-02-28T14:07:55.887Z,english_87.wav,0,pill,339,26,3,5,français,f,11,1.09391667,23.49318924,0.54757178
60c7987a11054a60df5ed5f8,34,0,2024-02-28T14:07:55.887Z,english_883.wav,0,pill,603,26,3,5,français,f,0,0.0,-84.46412598,0.36586486
60c7987a11054a60df5ed5f8,34,0,2024-02-28T14:07:55.887Z,english_883.wav,0,pill,603,26,3,5,français,f,1,0.1,-48.29800463,1.2838589
60c7987a11054a60df5ed5f8,34,0,2024-02-28T14:07:55.887Z,english_883.wav,0,pill,603,26,3,5,français,f,2,0.2,-81.14674871,0.35124497
60c7987a11054a60df5ed5f8,34,0,2024-02-28T14:07:55.887Z,english_883.wav,0,pill,603,26,3,5,français,f,3,0.3,-14.72052063,0.55313004
60c7987a11054a60df5ed5f8,34,0,2024-02-28T14:07:55.887Z,english_883.wav,0,pill,603,26,3,5,français,f,4,0.4,84.15645486,1.38696071
60c7987a11054a60df5ed5f8,34,0,2024-02-28T14:07:55.887Z,english_883.wav,0,pill,603,26,3,5,français,f,5,0.5,-46.7306994,0.05285084
60c7987a11054a60df5ed5f8,34,0,2024-02-28T14:07:55.887Z,english_883.wav,0,pill,603,26,3,5,français,f,6,0.6,-55.92753429,0.33437309
60c7987a11054a60df5ed5f8,34,0,2024-02-28T14:07:55.887Z,english_883.wav,0,pill,603,26,3,5,français,f,7,0.7,69.20414462,0.05014106
60c7987a11054a60df5ed5f8,34,0,2024-02-28T14:07:55.887Z,english_883.wav,0,pill,603,26,3,5,français,f,8,0.8,42.35113705,1.1093355
60c7987a11054a60df5ed5f8,34,0,2024-02-28T14:07:55.887Z,english_883.wav,0,pill,603,26,3,5,français,f,9,0.9,68.93741473,1.05755937
60c7987a11054a60df5ed5f8,34,0,2024-02-28T14:07:55.887Z,english_883.wav,0,pill,603,26,3,5,français,f,10,1.0,5.16727893,0.06749628
60c7987a11054a60df5ed5f8,34,0,2024-02-28T14:07:55.887Z,english_883.wav,0,pill,603,26,3,5,français,f,11,1.09391667,-87.05225408,1.22701865
60c7987a11054a60df5ed5f8,35,0,2024-02-28T14:07:55.887Z,english_680.wav,0,peel,390,26,3,5,français,f,0,0.0,34.87100104,0.28324866
60c7987a11054a60df5ed5f8,35,0,2024-02-28T14:07:55.887Z,english_680.wav,0,peel,390,26,3,5,français,f,1,0.1,-42.78152033,0.8126674
60c7987a11054a60df5ed5f8,35,0,2024-02-28T14:07:55.887Z,english_680.wav,0,peel,390,26,3,5,français,f,2,0.2,53.30670494,0.29371905
60c7987a11054a60df5ed5f8,35,0,2024-02-28T14:07:55.887Z,english_680.wav,0,peel,390,26,3,5,français,f,3,0.3,-19.15351041,0.35755618
60c7987a11054a60df5ed5f8,35,0,2024-02-28T14:07:55.887Z,english_680.wav,0,peel,390,26,3,5,français,f,4,0.4,81.43981803,1.51227527
60c7987a11054a60df5ed5f8,35,0,2024-02-28T14:07:55.887Z,english_680.wav,0,peel,390,26,3,5,français,f,5,0.5,-40.3529223,1.96868376
60c7987a11054a60df5ed5f8,35,0,2024-02-28T14:07:55.887Z,english_680.wav,0,peel,390,26,3,5,français,f,6,0.6,-80.08540334,0.83617015
60c7987a11054a60df5ed5f8,35,0,2024-02-28T14:07:55.887Z,english_680.wav,0,peel,390,26,3,5,français,f,7,0.7,-59.88446673,0.96819403
60c7987a11054a60df5ed5f8,35,0,2024-02-28T14:07:55.887Z,english_680.wav,0,peel,390,26,3,5,français,f,8,0.8,14.21531263,0.41039135
60c7987a11054a60df5ed5f8,35,0,2024-02-28T14:07:55.887Z,english_680.wav,0,peel,390,26,3,5,français,f,9,0.9,39.26105915,0.45984498
60c7987a11054a60df5ed5f8,35,0,2024-02-28T14:07:55.887Z,english_680.wav,0,peel,390,26,3,5,français,f,10,1.0,-43.76684188,0.60924907
60c7987a11054a60df5ed5f8,35,0,2024-02-28T14:07:55.887Z,english_680.wav,0,peel,390,26,3,5,français,f,11,1.09391667,-17.50761484,0.18151502
60c7987a11054a60df5ed5f8,36,0,2024-02-28T14:07:55.887Z,english_977.wav,0,peel,1554,26,3,5,français,f,0,0.0,45.32437977,1.51258306
60c7987a11054a60df5ed5f8,36,0,2024-02-28T14:07:55.887Z,english_977.wav,0,peel,1554,26,3,5,français,f,1,0.1,31.46444726,1.62107879
60c7987a11054a60df5ed5f8,36,0,2024-02-28T14:07:55.887Z,english_977.wav,0,peel,1554,26,3,5,français,f,2,0.2,7.78815071,0.80620837
60c7987a11054a60df5ed5f8,36,0,2024-02-28T14:07:55.887Z,english_977.wav,0,peel,1554,26,3,5,français,f,3,0.3,-38.46709342,1.66578012
60c7987a11054a60df5ed5f8,36,0,2024-02-28T14:07:55.887Z,english_977.wav,0,peel,1554,26,3,5,français,f,4,0.4,-43.12628929,0.5028638
60c7987a11054a60df5ed5f8,36,0,2024-02-28T14:07:55.887Z,english_977.wav,0,peel,1554,26,3,5,français,f,5,0.5,-60.3999411,1.57064844
60c7987a11054a60df5ed5f8,36,0,2024-02-28T14:07:55.887Z,english_977.wav,0,peel,1554,26,3,5,français,f,6,0.6,38.30873417,1.43046029
60c7987a11054a60df5ed5f8,36,0,2024-02-28T14:07:55.887Z,english_977.wav,0,peel,1554,26,3,5,français,f,7,0.7,-32.30937365,0.97320454
60c7987a11054a60df5ed5f8,36,0,2024-02-28T14:07:55.887Z,english_977.wav,0,peel,1554,26,3,5,français,f,8,0.8,-13.91730907,0.87874216
60c7987a11054a60df5ed5f8,36,0,2024-02-28T14:07:55.887Z,english_977.wav,0,peel,1554,26,3,5,français,f,9,0.9,-81.54845422,1.41826341
60c7987a11054a60df5ed5f8,36,0,2024-02-28T14:07:55.887Z,english_977.wav,0,peel,1554,26,3,5,français,f,10,1.0,29.31026278,0.04715706
60c7987a11054a60df5ed5f8,36,0,2024-02-28T14:07:55.887Z,english_977.wav,0,peel,1554,26,3,5,français,f,11,1.09391667,34.6707146,1.45727151
60c7987a11054a60df5ed5f8,37,0,2024-02-28T14:07:55.887Z,english_433.wav,0,pill,689,26,3,5,français,f,0,0.0,-74.5918135,1.01979496
60c7987a11054a60df5ed5f8,37,0,2024-02-28T14:07:55.887Z,english_433.wav,0,pill,689,26,3,5,français,f,1,0.1,28.79821434,0.80806248
60c7987a11054a60df5ed5f8,37,0,2024-02-28T14:07:55.887Z,english_433.wav,0,pill,689,26,3,5,français,f,2,0.2,97.27836698,0.68923441
60c7987a11054a60df5ed5f8,37,0,2024-02-28T14:07:55.887Z,english_433.wav,0,pill,689,26,3,5,français,f,3,0.3,70.33680468,0.29842911
60c7987a11054a60df5ed5f8,37,0,2024-02-28T14:07:55.887Z,english_433.wav,0,pill,689,26,3,5,français,f,4,0.4,14.06818155,1.28851822
60c7987a11054a60df5ed5f8,37,0,2024-02-28T14:07:55.887Z,english_433.wav,0,pill,689,26,3,5,français,f,5,0.5,-16.97736982,0.93328677
60c7987a11054a60df5ed5f8,37,0,2024-02-28T14:07:55.887Z,english_433.wav,0,pill,689,26,3,5,français,f,6,0.6,75.14922554,0.10219622
60c7987a11054a60df5ed5f8,37,0,2024-02-28T14:07:55.887Z,english_433.wav,0,pill,689,26,3,5,français,f,7,0.7,23.29055894,1.41929067
60c7987a11054a60df5ed5f8,37,0,2024-02-28T14:07:55.887Z,english_433.wav,0,pill,689,26,3,5,français,f,8,0.8,-26.03253211,0.8010075
60c7987a11054a60df5ed5f8,37,0,2024-02-28T14:07:55.887Z,english_433.wav,0,pill,689,26,3,5,français,f,9,0.9,28.95520226,0.76563128
60c7987a11054a60df5ed5f8,37,0,2024-02-28T14:07:55.887Z,english_433.wav,0,pill,689,26,3,5,français,f,10,1.0,-61.82682237,0.36703777
60c7987a11054a60df5ed5f8,37,0,2024-02-28T14:07:55.887Z,english_433.wav,0,pill,689,26,3,5,français,f,11,1.09391667,47.27585079,0.80268974
60c7987a11054a60df5ed5f8,38,0,2024-02-28T14:07:55.887Z,english_112.wav,0,peel,408,26,3,5,français,f,0,0.0,49.45259009,1.41914206
60c7987a11054a60df5ed5f8,38,0,2024-02-28T14:07:55.887Z,english_112.wav,0,peel,408,26,3,5,français,f,1,0.1,26.00670844,1.08420532
60c7987a11054a60df5ed5f8,38,0,2024-02-28T14:07:55.887Z,english_112.wav,0,peel,408,26,3,5,français,f,2,0.2,-62.78053013,1.90864959
60c7987a11054a60df5ed5f8,38,0,2024-02-28T14:07:55.887Z,english_112.wav,0,peel,408,26,3,5,français,f,3,0.3,13.64858628,0.00296714
60c7987a11054a60df5ed5f8,38,0,2024-02-28T14:07:55.887Z,english_112.wav,0,peel,408,26,3,5,français,f,4,0.4,-46.53502922,0.2257171
60c7987a11054a60df5ed5f8,38,0,2024-02-28T14:07:55.887Z,english_112.wav,0,peel,408,26,3,5,français,f,5,0.5,55.2952107,1.98382605
60c7987a11054a60df5ed5f8,38,0,2024-02-28T14:07:55.887Z,english_112.wav,0,peel,408,26,3,5,français,f,6,0.6,-37.49134954,0.39764394
60c7987a11054a60df5ed5f8,38,0,2024-02-28T14:07:55.887Z,english_112.wav,0,peel,408,26,3,5,français,f,7,0.7,9.25181319,1.10443659
60c7987a11054a60df5ed5f8,38,0,2024-02-28T14:07:55.887Z,english_112.wav,0,peel,408,26,3,5,français,f,8,0.8,52.76907871,0.52917173
60c7987a11054a60df5ed5f8,38,0,2024-02-28T14:07:55.887Z,english_112.wav,0,peel,408,26,3,5,français,f,9,0.9,40.19984459,0.39475588
60c7987a11054a60df5ed5f8,38,0,2024-02-28T14:07:55.887Z,english_112.wav,0,peel,408,26,3,5,français,f,10,1.0,72.4009261,0.72882938
60c7987a11054a60df5ed5f8,38,0,2024-02-28T14:07:55.887Z,english_112.wav,0,peel,408,26,3,5,français,f,11,1.09391667,-65.62688247,0.87807842
60c7987a11054a60df5ed5f8,39,0,2024-02-28T14:07:55.887Z,english_280.wav,0,peel,288,26,3,5,français,f,0,0.0,88.39262763,0.21682945
60c7987a11054a60df5ed5f8,39,0,2024-02-28T14:07:55.887Z,english_280.wav,0,peel,288,26,3,5,français,f,1,0.1,-30.0419816,1.88667459
60c7987a11054a60df5ed5f8,39,0,2024-02-28T14:07:55.887Z,english_280.wav,0,peel,288,26,3,5,français,f,2,0.2,-70.85942958,0.16117743
60c7987a11054a60df5ed5f8,39,0,2024-02-28T14:07:55.887Z,english_280.wav,0,peel,288,26,3,5,français,f,3,0.3,-46.07032191,0.35719266
60c7987a11054a60df5ed5f8,39,0,2024-02-28T14:07:55.887Z,english_280.wav,0,peel,288,26,3,5,français,f,4,0.4,22.37889655,1.6700127
60c7987a11054a60df5ed5f8,39,0,2024-02-28T14:07:55.887Z,english_280.wav,0,peel,288,26,3,5,français,f,5,0.5,47.83072725,1.73336776
60c7987a11054a60df5ed5f8,39,0,2024-02-28T14:07:55.887Z,english_280.wav,0,peel,288,26,3,5,français,f,6,0.6,22.02613007,0.653825
60c7987a11054a60df5ed5f8,39,0,2024-02-28T14:07:55.887Z,english_280.wav,0,peel,288,26,3,5,français,f,7,0.7,-10.57655449,1.99113264
60c7987a11054a60df5ed5f8,39,0,2024-02-28T14:07:55.887Z,english_280.wav,0,peel,288,26,3,5,français,f,8,0.8,78.01759084,1.83439976
60c7987a11054a60df5ed5f8,39,0,2024-02-28T14:07:55.887Z,english_280.wav,0,peel,288,26,3,5,français,f,9,0.9,38.41828257,1.29158868
60c7987a11054a60df5ed5f8,39,0,2024-02-28T14:07:55.887Z,english_280.wav,0,peel,288,26,3,5,français,f,10,1.0,88.43566384,1.21494043
60c7987a11054a60df5ed5f8,39,0,2024-02-28T14:07:55.887Z,english_280.wav,0,peel,288,26,3,5,français,f,11,1.09391667,-41.21843243,1.43203323
60c7987a11054a60df5ed5f8,40,0,2024-02-28T14:07:55.887Z,english_753.wav,0,peel,755,26,3,5,français,f,0,0.0,-37.70671017,1.74884561
60c7987a11054a60df5ed5f8,40,0,2024-02-28T14:07:55.887Z,english_753.wav,0,peel,755,26,3,5,français,f,1,0.1,-51.92629572,0.91942072
60c7987a11054a60df5ed5f8,40,0,2024-02-28T14:07:55.887Z,english_753.wav,0,peel,755,26,3,5,français,f,2,0.2,93.98068105,1.59964549
60c7987a11054a60df5ed5f8,40,0,2024-02-28T14:07:55.887Z,english_753.wav,0,peel,755,26,3,5,français,f,3,0.3,-51.39932121,1.12825203
60c7987a11054a60df5ed5f8,40,0,2024-02-28T14:07:55.887Z,english_753.wav,0,peel,755,26,3,5,français,f,4,0.4,95.80116655,1.21219761
60c7987a11054a60df5ed5f8,40,0,2024-02-28T14:07:55.887Z,english_753.wav,0,peel,755,26,3,5,français,f,5,0.5,54.2507311,1.26026343
60c7987a11054a60df5ed5f8,40,0,2024-02-28T14:07:55.887Z,english_753.wav,0,peel,755,26,3,5,français,f,6,0.6,20.30160244,1.5757537
60c7987a11054a60df5ed5f8,40,0,2024-02-28T14:07:55.887Z,english_753.wav,0,peel,755,26,3,5,français,f,7,0.7,55.46646904,0.16664365
60c7987a11054a60df5ed5f8,40,0,2024-02-28T14:07:55.887Z,english_753.wav,0,peel,755,26,3,5,français,f,8,0.8,-44.46613041,1.11726469
60c7987a11054a60df5ed5f8,40,0,2024-02-28T14:07:55.887Z,english_753.wav,0,peel,755,26,3,5,français,f,9,0.9,32.26226525,1.53816652
60c7987a11054a60df5ed5f8,40,0,2024-02-28T14:07:55.887Z,english_753.wav,0,peel,755,26,3,5,français,f,10,1.0,94.05472838,0.62126972
60c7987a11054a60df5ed5f8,40,0,2024-02-28T14:07:55.887Z,english_753.wav,0,peel,755,26,3,5,français,f,11,1.09391667,42.98878145,0.46411799
60c7987a11054a60df5ed5f8,41,0,2024-02-28T14:07:55.887Z,english_475.wav,0,pill,586,26,3,5,français,f,0,0.0,29.80961577,0.43821818
60c7987a11054a60df5ed5f8,41,0,2024-02-28T14:07:55.887Z,english_475.wav,0,pill,586,26,3,5,français,f,1,0.1,48.86857013,0.91916023
60c7987a11054a60df5ed5f8,41,0,2024-02-28T14:07:55.887Z,english_475.wav,0,pill,586,26,3,5,français,f,2,0.2,-75.87963709,1.43870603
60c7987a11054a60df5ed5f8,41,0,2024-02-28T14:07:55.887Z,english_475.wav,0,pill,586,26,3,5,français,f,3,0.3,30.73642142,0.67232978
60c7987a11054a60df5ed5f8,41,0,2024-02-28T14:07:55.887Z,english_475.wav,0,pill,586,26,3,5,français,f,4,0.4,-47.77384215,0.927705
60c7987a11054a60df5ed5f8,41,0,2024-02-28T14:07:55.887Z,english_475.wav,0,pill,586,26,3,5,français,f,5,0.5,95.74069733,0.04190462
60c7987a11054a60df5ed5f8,41,0,2024-02-28T14:07:55.887Z,english_475.wav,0,pill,586,26,3,5,français,f,6,0.6,49.89153758,1.51758055
60c7987a11054a60df5ed5f8,41,0,2024-02-28T14:07:55.887Z,english_475.wav,0,pill,586,26,3,5,français,f,7,0.7,-93.96412935,1.81908107
60c7987a11054a60df5ed5f8,41,0,2024-02-28T14:07:55.887Z,english_475.wav,0,pill,586,26,3,5,français,f,8,0.8,-13.00332235,1.60949708
60c7987a11054a60df5ed5f8,41,0,2024-02-28T14:07:55.887Z,english_475.wav,0,pill,586,26,3,5,français,f,9,0.9,80.99885276,1.9985333
60c7987a11054a60df5ed5f8,41,0,2024-02-28T14:07:55.887Z,english_475.wav,0,pill,586,26,3,5,français,f,10,1.0,-12.77273084,1.07792874
60c7987a11054a60df5ed5f8,41,0,2024-02-28T14:07:55.887Z,english_475.wav,0,pill,586,26,3,5,français,f,11,1.09391667,-3.9803657,1.55358956
60c7987a11054a60df5ed5f8,42,0,2024-02-28T14:07:55.887Z,english_761.wav,0,peel,464,26,3,5,français,f,0,0.0,-80.97330145,0.75841869
60c7987a11054a60df5ed5f8,42,0,2024-02-28T14:07:55.887Z,english_761.wav,0,peel,464,26,3,5,français,f,1,0.1,-87.8498671,0.93275546
60c7987a11054a60df5ed5f8,42,0,2024-02-28T14:07:55.887Z,english_761.wav,0,peel,464,26,3,5,français,f,2,0.2,-46.50669934,1.71329225
60c7987a11054a60df5ed5f8,42,0,2024-02-28T14:07:55.887Z,english_761.wav,0,peel,464,26,3,5,français,f,3,0.3,59.20965722,1.0347089
60c7987a11054a60df5ed5f8,42,0,2024-02-28T14:07:55.887Z,english_761.wav,0,peel,464,26,3,5,français,f,4,0.4,-35.71104214,1.01687932
60c7987a11054a60df5ed5f8,42,0,2024-02-28T14:07:55.887Z,english_761.wav,0,peel,464,26,3,5,français,f,5,0.5,-52.81542402,0.41101951
60c7987a11054a60df5ed5f8,42,0,2024-02-28T14:07:55.887Z,english_761.wav,0,peel,464,26,3,5,français,f,6,0.6,31.64937697,0.68065775
60c7987a11054a60df5ed5f8,42,0,2024-02-28T14:07:55.887Z,english_761.wav,0,peel,464,26,3,5,français,f,7,0.7,29.30310565,1.83101612
60c7987a11054a60df5ed5f8,42,0,2024-02-28T14:07:55.887Z,english_761.wav,0,peel,464,26,3,5,français,f,8,0.8,-83.11546178,0.13402502
60c7987a11054a60df5ed5f8,42,0,2024-02-28T14:07:55.887Z,english_761.wav,0,peel,464,26,3,5,français,f,9,0.9,4.4057425,1.22130523
60c7987a11054a60df5ed5f8,42,0,2024-02-28T14:07:55.887Z,english_761.wav,0,peel,464,26,3,5,français,f,10,1.0,40.14606476,0.44607754
60c7987a11054a60df5ed5f8,42,0,2024-02-28T14:07:55.887Z,english_761.wav,0,peel,464,26,3,5,français,f,11,1.09391667,-16.15452459,1.73687105
60c7987a11054a60df5ed5f8,43,0,2024-02-28T14:07:55.887Z,english_496.wav,0,pill,244,26,3,5,français,f,0,0.0,71.48836841,0.54791396
60c7987a11054a60df5ed5f8,43,0,2024-02-28T14:07:55.887Z,english_496.wav,0,pill,244,26,3,5,français,f,1,0.1,15.20852814,0.58485485
60c7987a11054a60df5ed5f8,43,0,2024-02-28T14:07:55.887Z,english_496.wav,0,pill,244,26,3,5,français,f,2,0.2,-96.44274776,0.36991182
60c7987a11054a60df5ed5f8,43,0,2024-02-28T14:07:55.887Z,english_496.wav,0,pill,244,26,3,5,français,f,3,0.3,-60.77213324,0.28046451
60c7987a11054a60df5ed5f8,43,0,2024-02-28T14:07:55.887Z,english_496.wav,0,pill,244,26,3,5,français,f,4,0.4,51.84358461,1.3513408
60c7987a11054a60df5ed5f8,43,0,2024-02-28T14:07:55.887Z,english_496.wav,0,pill,244,26,3,5,français,f,5,0.5,-29.81815899,0.81550086
60c7987a11054a60df5ed5f8,43,0,2024-02-28T14:07:55.887Z,english_496.wav,0,pill,244,26,3,5,français,f,6,0.6,68.78610252,1.72009229
60c7987a11054a60df5ed5f8,43,0,2024-02-28T14:07:55.887Z,english_496.wav,0,pill,244,26,3,5,français,f,7,0.7,-7.56844822,0.3057716
60c7987a11054a60df5ed5f8,43,0,2024-02-28T14:07:55.887Z,english_496.wav,0,pill,244,26,3,5,français,f,8,0.8,77.81323141,0.47124655
60c7987a11054a60df5ed5f8,43,0,2024-02-28T14:07:55.887Z,english_496.wav,0,pill,244,26,3,5,français,f,9,0.9,-20.60892305,1.72803136
60c7987a11054a60df5ed5f8,43,0,2024-02-28T14:07:55.887Z,english_496.wav,0,pill,244,26,3,5,français,f,10,1.0,-49.14310168,0.96978589
60c7987a11054a60df5ed5f8,43,0,2024-02-28T14:07:55.887Z,english_496.wav,0,pill,244,26,3,5,français,f,11,1.09391667,12.76376139,1.35172816
60c7987a11054a60df5ed5f8,44,0,2024-02-28T14:07:55.887Z,english_741.wav,0,pill,300,26,3,5,français,f,0,0.0,-52.58118809,0.04069066
60c7987a11054a60df5ed5f8,44,0,2024-02-28T14:07:55.887Z,english_741.wav,0,pill,300,26,3,5,français,f,1,0.1,12.25497131,1.79280913
60c7987a11054a60df5ed5f8,44,0,2024-02-28T14:07:55.887Z,english_741.wav,0,pill,300,26,3,5,français,f,2,0.2,-66.99465096,1.62861486
60c7987a11054a60df5ed5f8,44,0,2024-02-28T14:07:55.887Z,english_741.wav,0,pill,300,26,3,5,français,f,3,0.3,33.21075969,1.99142518
60c7987a11054a60df5ed5f8,44,0,2024-02-28T14:07:55.887Z,english_741.wav,0,pill,300,26,3,5,français,f,4,0.4,-80.7229313,0.68846699
60c7987a11054a60df5ed5f8,44,0,2024-02-28T14:07:55.887Z,english_741.wav,0,pill,300,26,3,5,français,f,5,0.5,33.52953563,0.95565852
60c7987a11054a60df5ed5f8,44,0,2024-02-28T14:07:55.887Z,english_741.wav,0,pill,300,26,3,5,français,f,6,0.6,-70.06014591,1.55389223
60c7987a11054a60df5ed5f8,44,0,2024-02-28T14:07:55.887Z,english_741.wav,0,pill,300,26,3,5,français,f,7,0.7,74.24671254,0.39415735
60c7987a11054a60df5ed5f8,44,0,2024-02-28T14:07:55.887Z,english_741.wav,0,pill,300,26,3,5,français,f,8,0.8,-72.74719072,1.19562483
60c7987a11054a60df5ed5f8,44,0,2024-02-28T14:07:55.887Z,english_741.wav,0,pill,300,26,3,5,français,f,9,0.9,-6.6044487,1.16664034
60c7987a11054a60df5ed5f8,44,0,2024-02-28T14:07:55.887Z,english_741.wav,0,pill,300,26,3,5,français,f,10,1.0,14.62137165,0.62122377
60c7987a11054a60df5ed5f8,44,0,2024-02-28T14:07:55.887Z,english_741.wav,0,pill,300,26,3,5,français,f,11,1.09391667,-3.50523329,0.83751938
60c7987a11054a60df5ed5f8,45,0,2024-02-28T14:07:55.887Z,english_859.wav,0,pill,670,26,3,5,français,f,0,0.0,31.07114651,1.62014662
60c7987a11054a60df5ed5f8,45,0,2024-02-28T14:07:55.887Z,english_859.wav,0,pill,670,26,3,5,français,f,1,0.1,-28.29036268,0.23536516
60c7987a11054a60df5ed5f8,45,0,2024-02-28T14:07:55.887Z,english_859.wav,0,pill,670,26,3,5,français,f,2,0.2,-99.32977332,1.20919843
60c7987a11054a60df5ed5f8,45,0,2024-02-28T14:07:55.887Z,english_859.wav,0,pill,670,26,3,5,français,f,3,0.3,24.56403326,1.87022771
60c7987a11054a60df5ed5f8,45,0,2024-02-28T14:07:55.887Z,english_859.wav,0,pill,670,26,3,5,français,f,4,0.4,13.96924155,1.25340901
60c7987a11054a60df5ed5f8,45,0,2024-02-28T14:07:55.887Z,english_859.wav,0,pill,670,26,3,5,français,f,5,0.5,-7.10648456,1.24145487
60c7987a11054a60df5ed5f8,45,0,2024-02-28T14:07:55.887Z,english_859.wav,0,pill,670,26,3,5,français,f,6,0.6,16.2139947,0.16688969
60c7987a11054a60df5ed5f8,45,0,2024-02-28T14:07:55.887Z,english_859.wav,0,pill,670,26,3,5,français,f,7,0.7,-63.09488954,1.9877967
60c7987a11054a60df5ed5f8,45,0,2024-02-28T14:07:55.887Z,english_859.wav,0,pill,670,26,3,5,français,f,8,0.8,32.97149002,1.05528454
60c7987a11054a60df5ed5f8,45,0,2024-02-28T14:07:55.887Z,english_859.wav,0,pill,670,26,3,5,français,f,9,0.9,73.86440675,1.04254929
60c7987a11054a60df5ed5f8,45,0,2024-02-28T14:07:55.887Z,english_859.wav,0,pill,670,26,3,5,français,f,10,1.0,18.08685772,0.40355025
60c7987a11054a60df5ed5f8,45,0,2024-02-28T14:07:55.887Z,english_859.wav,0,pill,670,26,3,5,français,f,11,1.09391667,63.56526174,1.52495745
60c7987a11054a60df5ed5f8,46,0,2024-02-28T14:07:55.887Z,english_83.wav,0,peel,369,26,3,5,français,f,0,0.0,-13.2041621,1.43008508
60c7987a11054a60df5ed5f8,46,0,2024-02-28T14:07:55.887Z,english_83.wav,0,peel,369,26,3,5,français,f,1,0.1,72.11694132,0.66721453
60c7987a11054a60df5ed5f8,46,0,2024-02-28T14:07:55.887Z,english_83.wav,0,peel,369,26,3,5,français,f,2,0.2,72.29533823,0.92720226
60c7987a11054a60df5ed5f8,46,0,2024-02-28T14:07:55.887Z,english_83.wav,0,peel,369,26,3,5,français,f,3,0.3,27.12463377,1.5008618
60c7987a11054a60df5ed5f8,46,0,2024-02-28T14:07:55.887Z,english_83.wav,0,peel,369,26,3,5,français,f,4,0.4,-0.51668001,0.92612905
60c7987a11054a60df5ed5f8,46,0,2024-02-28T14:07:55.887Z,english_83.wav,0,peel,369,26,3,5,français,f,5,0.5,95.33803701,1.15889455
60c7987a11054a60df5ed5f8,46,0,2024-02-28T14:07:55.887Z,english_83.wav,0,peel,369,26,3,5,français,f,6,0.6,29.01440832,1.69874537
60c7987a11054a60df5ed5f8,46,0,2024-02-28T14:07:55.887Z,english_83.wav,0,peel,369,26,3,5,français,f,7,0.7,95.49757562,1.82400366
60c7987a11054a60df5ed5f8,46,0,2024-02-28T14:07:55.887Z,english_83.wav,0,peel,369,26,3,5,français,f,8,0.8,73.0572007,0.49276816
60c7987a11054a60df5ed5f8,46,0,2024-02-28T14:07:55.887Z,english_83.wav,0,peel,369,26,3,5,français,f,9,0.9,-51.56555772,1.24642372
60c7987a11054a60df5ed5f8,46,0,2024-02-28T14:07:55.887Z,english_83.wav,0,peel,369,26,3,5,français,f,10,1.0,75.9566984,1.81994123
60c7987a11054a60df5ed5f8,46,0,2024-02-28T14:07:55.887Z,english_83.wav,0,peel,369,26,3,5,français,f,11,1.09391667,-25.09105013,1.274738
60c7987a11054a60df5ed5f8,47,0,2024-02-28T14:07:55.887Z,english_153.wav,0,peel,203,26,3,5,français,f,0,0.0,-22.0137653,0.27160884
60c7987a11054a60df5ed5f8,47,0,2024-02-28T14:07:55.887Z,english_153.wav,0,peel,203,26,3,5,français,f,1,0.1,21.87420495,0.44150389
60c7987a11054a60df5ed5f8,47,0,2024-02-28T14:07:55.887Z,english_153.wav,0,peel,203,26,3,5,français,f,2,0.2,78.88032694,1.08191418
60c7987a11054a60df5ed5f8,47,0,2024-02-28T14:07:55.887Z,english_153.wav,0,peel,203,26,3,5,français,f,3,0.3,68.02596654,0.18142841
60c7987a11054a60df5ed5f8,47,0,2024-02-28T14:07:55.887Z,english_153.wav,0,peel,203,26,3,5,français,f,4,0.4,52.06150723,0.17455202
60c7987a11054a60df5ed5f8,47,0,2024-02-28T14:07:55.887Z,english_153.wav,0,peel,203,26,3,5,français,f,5,0.5,-15.64198183,1.88425449
60c7987a11054a60df5ed5f8,47,0,2024-02-28T14:07:55.887Z,english_153.wav,0,peel,203,26,3,5,français,f,6,0.6,-55.92218577,1.64687285
60c7987a11054a60df5ed5f8,47,0,2024-02-28T14:07:55.887Z,english_153.wav,0,peel,203,26,3,5,français,f,7,0.7,45.74926524,1.52678411
60c7987a11054a60df5ed5f8,47,0,2024-02-28T14:07:55.887Z,english_153.wav,0,peel,203,26,3,5,français,f,8,0.8,13.43145428,1.81629534
60c7987a11054a60df5ed5f8,47,0,2024-02-28T14:07:55.887Z,english_153.wav,0,peel,203,26,3,5,français,f,9,0.9,-40.59369693,0.8186826
60c7987a11054a60df5ed5f8,47,0,2024-02-28T14:07:55.887Z,english_153.wav,0,peel,203,26,3,5,français,f,10,1.0,14.2660924,0.36511419
60c7987a11054a60df5ed5f8,47,0,2024-02-28T14:07:55.887Z,english_153.wav,0,peel,203,26,3,5,français,f,11,1.09391667,62.05558257,1.38161287
60c7987a11054a60df5ed5f8,48,0,2024-02-28T14:07:55.887Z,english_108.wav,0,pill,240,26,3,5,français,f,0,0.0,-72.12984017,0.26945128
60c7987a11054a60df5ed5f8,48,0,2024-02-28T14:07:55.887Z,english_108.wav,0,pill,240,26,3,5,français,f,1,0.1,8.19812644,1.01925784
60c7987a11054a60df5ed5f8,48,0,2024-02-28T14:07:55.887Z,english_108.wav,0,pill,240,26,3,5,français,f,2,0.2,78.6546888,1.32918217
60c7987a11054a60df5ed5f8,48,0,2024-02-28T14:07:55.887Z,english_108.wav,0,pill,240,26,3,5,français,f,3,0.3,-30.04278384,0.63536527
60c7987a11054a60df5ed5f8,48,0,2024-02-28T14:07:55.887Z,english_108.wav,0,pill,240,26,3,5,français,f,4,0.4,-12.36369755,1.19436668
60c7987a11054a60df5ed5f8,48,0,2024-02-28T14:07:55.887Z,english_108.wav,0,pill,240,26,3,5,français,f,5,0.5,70.67382026,0.3289366
60c7987a11054a60df5ed5f8,48,0,2024-02-28T14:07:55.887Z,english_108.wav,0,pill,240,26,3,5,français,f,6,0.6,-56.34929952,1.40732185
60c7987a11054a60df5ed5f8,48,0,2024-02-28T14:07:55.887Z,english_108.wav,0,pill,240,26,3,5,français,f,7,0.7,-58.84895788,0.91014899
60c7987a11054a60df5ed5f8,48,0,2024-02-28T14:07:55.887Z,english_108.wav,0,pill,240,26,3,5,français,f,8,0.8,-57.8473435,0.89824174
60c7987a11054a60df5ed5f8,48,0,2024-02-28T14:07:55.887Z,english_108.wav,0,pill,240,26,3,5,français,f,9,0.9,74.00200547,0.75928312
60c7987a11054a60df5ed5f8,48,0,2024-02-28T14:07:55.887Z,english_108.wav,0,pill,240,26,3,5,français,f,10,1.0,14.31080133,1.3591553
60c7987a11054a60df5ed5f8,48,0,2024-02-28T14:07:55.887Z,english_108.wav,0,pill,240,26,3,5,français,f,11,1.09391667,52.36561827,1.12113776
60c7987a11054a60df5ed5f8,49,0,2024-02-28T14:07:55.887Z,english_687.wav,0,pill,7,26,3,5,français,f,0,0.0,-35.70290508,1.44721002
60c7987a11054a60df5ed5f8,49,0,2024-02-28T14:07:55.887Z,english_687.wav,0,pill,7,26,3,5,français,f,1,0.1,96.19930643,1.66446564
60c7987a11054a60df5ed5f8,49,0,2024-02-28T14:07:55.887Z,english_687.wav,0,pill,7,26,3,5,français,f,2,0.2,-16.32623685,0.17388823
60c7987a11054a60df5ed5f8,49,0,2024-02-28T14:07:55.887Z,english_687.wav,0,pill,7,26,3,5,français,f,3,0.3,69.01262748,0.9756111
60c7987a11054a60df5ed5f8,49,0,2024-02-28T14:07:55.887Z,english_687.wav,0,pill,7,26,3,5,français,f,4,0.4,-86.96335793,0.75788852
60c7987a11054a60df5ed5f8,49,0,2024-02-28T14:07:55.887Z,english_687.wav,0,pill,7,26,3,5,français,f,5,0.5,-94.81036094,1.04245625
60c7987a11054a60df5ed5f8,49,0,2024-02-28T14:07:55.887Z,english_687.wav,0,pill,7,26,3,5,français,f,6,0.6,24.28115893,0.94679533
60c7987a11054a60df5ed5f8,49,0,2024-02-28T14:07:55.887Z,english_687.wav,0,pill,7,26,3,5,français,f,7,0.7,-73.50271946,1.98988769
60c7987a11054a60df5ed5f8,49,0,2024-02-28T14:07:55.887Z,english_687.wav,0,pill,7,26,3,5,français,f,8,0.8,-67.86786343,1.9531078
60c7987a11054a60df5ed5f8,49,0,2024-02-28T14:07:55.887Z,english_687.wav,0,pill,7,26,3,5,français,f,9,0.9,-59.44479717,1.90267124
60c7987a11054a60df5ed5f8,49,0,2024-02-28T14:07:55.887Z,english_687.wav,0,pill,7,26,3,5,français,f,10,1.0,0.72231801,1.17236586
60c7987a11054a60df5ed5f8,49,0,2024-02-28T14:07:55.887Z,english_687.wav,0,pill,7,26,3,5,français,f,11,1.09391667,-0.70049857,1.47850695
60c7987a11054a60df5ed5f8,50,1,2024-02-28T14:07:55.887Z,english_612.wav,0,peel,305,26,3,5,français,f,0,0.0,-32.56638412,1.34102199
60c7987a11054a60df5ed5f8,50,1,2024-02-28T14:07:55.887Z,english_612.wav,0,peel,305,26,3,5,français,f,1,0.1,49.8981081,0.75759379
60c7987a11054a60df5ed5f8,50,1,2024-02-28T14:07:55.887Z,english_612.wav,0,peel,305,26,3,5,français,f,2,0.2,-21.03155474,1.225333
60c7987a11054a60df5ed5f8,50,1,2024-02-28T14:07:55.887Z,english_612.wav,0,peel,305,26,3,5,français,f,3,0.3,-51.85436973,1.79972666
60c7987a11054a60df5ed5f8,50,1,2024-02-28T14:07:55.887Z,english_612.wav,0,peel,305,26,3,5,français,f,4,0.4,-40.10971626,0.82062061
60c7987a11054a60df5ed5f8,50,1,2024-02-28T14:07:55.887Z,english_612.wav,0,peel,305,26,3,5,français,f,5,0.5,-9.29933233,0.18015475
60c7987a11054a60df5ed5f8,50,1,2024-02-28T14:07:55.887Z,english_612.wav,0,peel,305,26,3,5,français,f,6,0.6,53.77549864,0.28029793
60c7987a11054a60df5ed5f8,50,1,2024-02-28T14:07:55.887Z,english_612.wav,0,peel,305,26,3,5,français,f,7,0.7,-93.73306799,1.24302717
60c7987a11054a60df5ed5f8,50,1,2024-02-28T14:07:55.887Z,english_612.wav,0,peel,305,26,3,5,français,f,8,0.8,10.07222851,1.83652713
60c7987a11054a60df5ed5f8,50,1,2024-02-28T14:07:55.887Z,english_612.wav,0,peel,305,26,3,5,français,f,9,0.9,17.79731187,1.55098579
60c7987a11054a60df5ed5f8,50,1,2024-02-28T14:07:55.887Z,english_612.wav,0,peel,305,26,3,5,français,f,10,1.0,-51.55835123,0.97719026
60c7987a11054a60df5ed5f8,50,1,2024-02-28T14:07:55.887Z,english_612.wav,0,peel,305,26,3,5,français,f,11,1.09391667,-22.80344529,0.39162915
60c7987a11054a60df5ed5f8,51,1,2024-02-28T14:07:55.887Z,english_499.wav,0,pill,427,26,3,5,français,f,0,0.0,-7.75302897,0.29368166
60c7987a11054a60df5ed5f8,51,1,2024-02-28T14:07:55.887Z,english_499.wav,0,pill,427,26,3,5,français,f,1,0.1,23.88086762,1.58141682
60c7987a11054a60df5ed5f8,51,1,2024-02-28T14:07:55.887Z,english_499.wav,0,pill,427,26,3,5,français,f,2,0.2,-0.54854112,0.68322719
60c7987a11054a60df5ed5f8,51,1,2024-02-28T14:07:55.887Z,english_499.wav,0,pill,427,26,3,5,français,f,3,0.3,11.38417001,1.0607803
60c7987a11054a60df5ed5f8,51,1,2024-02-28T14:07:55.887Z,english_499.wav,0,pill,427,26,3,5,français,f,4,0.4,76.48373601,0.5459371
60c7987a11054a60df5ed5f8,51,1,2024-02-28T14:07:55.887Z,english_499.wav,0,pill,427,26,3,5,français,f,5,0.5,34.68075028,1.82829661
60c7987a11054a60df5ed5f8,51,1,2024-02-28T14:07:55.887Z,english_499.wav,0,pill,427,26,3,5,français,f,6,0.6,-14.34298834,1.23009433
60c7987a11054a60df5ed5f8,51,1,2024-02-28T14:07:55.887Z,english_499.wav,0,pill,427,26,3,5,français,f,7,0.7,26.82043511,1.38131853
60c7987a11054a60df5ed5f8,51,1,2024-02-28T14:07:55.887Z,english_499.wav,0,pill,427,26,3,5,français,f,8,0.8,60.32593039,0.45099226
60c7987a11054a60df5ed5f8,51,1,2024-02-28T14:07:55.887Z,english_499.wav,0,pill,427,26,3,5,français,f,9,0.9,-38.40765739,1.79672484
60c7987a11054a60df5ed5f8,51,1,2024-02-28T14:07:55.887Z,english_499.wav,0,pill,427,26,3,5,français,f,10,1.0,7.55243951,0.11050545
60c7987a11054a60df5ed5f8,51,1,2024-02-28T14:07:55.887Z,english_499.wav,0,pill,427,26,3,5,français,f,11,1.09391667,-96.29085545,0.98124995
60c7987a11054a60df5ed5f8,52,1,2024-02-28T14:07:55.887Z,english_253.wav,0,peel,631,26,3,5,français,f,0,0.0,-76.54232622,1.69452202
60c7987a11054a60df5ed5f8,52,1,2024-02-28T14:07:55.887Z,english_253.wav,0,peel,631,26,3,5,français,f,1,0.1,23.75797542,0.94155674
60c7987a11054a60df5ed5f8,52,1,2024-02-28T14:07:55.887Z,english_253.wav,0,peel,631,26,3,5,français,f,2,0.2,-82.53055468,0.70353207
60c7987a11054a60df5ed5f8,52,1,2024-02-28T14:07:55.887Z,english_253.wav,0,peel,631,26,3,5,français,f,3,0.3,19.65476927,1.42331271
60c7987a11054a60df5ed5f8,52,1,2024-02-28T14:07:55.887Z,english_253.wav,0,peel,631,26,3,5,français,f,4,0.4,-55.81107988,1.11334266
60c7987a11054a60df5ed5f8,52,1,2024-02-28T14:07:55.887Z,english_253.wav,0,peel,631,26,3,5,français,f,5,0.5,73.24574297,1.34927457
60c7987a11054a60df5ed5f8,52,1,2024-02-28T14:07:55.887Z,english_253.wav,0,peel,631,26,3,5,français,f,6,0.6,-22.29926161,0.26375751
60c7987a11054a60df5ed5f8,52,1,2024-02-28T14:07:55.887Z,english_253.wav,0,peel,631,26,3,5,français,f,7,0.7,-11.91242057,0.63100518
60c7987a11054a60df5ed5f8,52,1,2024-02-28T14:07:55.887Z,english_253.wav,0,peel,631,26,3,5,français,f,8,0.8,-33.99896833,0.22145521
60c7987a11054a60df5ed5f8,52,1,2024-02-28T14:07:55.887Z,english_253.wav,0,peel,631,26,3,5,français,f,9,0.9,32.30473406,0.69052847
60c7987a11054a60df5ed5f8,52,1,2024-02-28T14:07:55.887Z,english_253.wav,0,peel,631,26,3,5,français,f,10,1.0,68.10745133,1.32352728
60c7987a11054a60df5ed5f8,52,1,2024-02-28T14:07:55.887Z,english_253.wav,0,peel,631,26,3,5,français,f,11,1.09391667,-22.82824608,0.79605757
60c7987a11054a60df5ed5f8,53,1,2024-02-28T14:07:55.887Z,english_86.wav,0,pill,284,26,3,5,français,f,0,0.0,-3.72553925,0.66197281
60c7987a11054a60df5ed5f8,53,1,2024-02-28T14:07:55.887Z,english_86.wav,0,pill,284,26,3,5,français,f,1,0.1,-41.77635103,0.38892539
60c7987a11054a60df5ed5f8,53,1,2024-02-28T14:07:55.887Z,english_86.wav,0,pill,284,26,3,5,français,f,2,0.2,-64.64581593,1.26355648
60c7987a11054a60df5ed5f8,53,1,2024-02-28T14:07:55.887Z,english_86.wav,0,pill,284,26,3,5,français,f,3,0.3,-0.78514906,0.34485331
60c7987a11054a60df5ed5f8,53,1,2024-02-28T14:07:55.887Z,english_86.wav,0,pill,284,26,3,5,français,f,4,0.4,-70.50997039,0.98807129
60c7987a11054a60df5ed5f8,53,1,2024-02-28T14:07:55.887Z,english_86.wav,0,pill,284,26,3,5,français,f,5,0.5,-34.81986123,0.56904936
60c7987a11054a60df5ed5f8,53,1,2024-02-28T14:07:55.887Z,english_86.wav,0,pill,284,26,3,5,français,f,6,0.6,-59.46042522,0.23018048
60c7987a11054a60df5ed5f8,53,1,2024-02-28T14:07:55.887Z,english_86.wav,0,pill,284,26,3,5,français,f,7,0.7,29.81407596,1.60610688
60c7987a11054a60df5ed5f8,53,1,2024-02-28T14:07:55.887Z,english_86.wav,0,pill,284,26,3,5,français,f,8,0.8,-52.11647052,1.58476743
60c7987a11054a60df5ed5f8,53,1,2024-02-28T14:07:55.887Z,english_86.wav,0,pill,284,26,3,5,français,f,9,0.9,98.4622519,0.26441475
60c7987a11054a60df5ed5f8,53,1,2024-02-28T14:07:55.887Z,english_86.wav,0,pill,284,26,3,5,français,f,10,1.0,58.6455937,0.54392284
60c7987a11054a60df5ed5f8,53,1,2024-02-28T14:07:55.887Z,english_86.wav,0,pill,284,26,3,5,français,f,11,1.09391667,89.20517371,0.04911314
60c7987a11054a60df5ed5f8,54,1,2024-02-28T14:07:55.887Z,english_386.wav,0,peel,272,26,3,5,français,f,0,0.0,-19.52342601,1.87136497
60c7987a11054a60df5ed5f8,54,1,2024-02-28T14:07:55.887Z,english_386.wav,0,peel,272,26,3,5,français,f,1,0.1,12.51870084,1.2884713
60c7987a11054a60df5ed5f8,54,1,2024-02-28T14:07:55.887Z,english_386.wav,0,peel,272,26,3,5,français,f,2,0.2,39.37532447,0.99035372
60c7987a11054a60df5ed5f8,54,1,2024-02-28T14:07:55.887Z,english_386.wav,0,peel,272,26,3,5,français,f,3,0.3,-27.49424213,1.4593324
60c7987a11054a60df5ed5f8,54,1,2024-02-28T14:07:55.887Z,english_386.wav,0,peel,272,26,3,5,français,f,4,0.4,2.74242911,1.12443884
60c7987a11054a60df5ed5f8,54,1,2024-02-28T14:07:55.887Z,english_386.wav,0,peel,272,26,3,5,français,f,5,0.5,15.14964773,0.10576994
60c7987a11054a60df5ed5f8,54,1,2024-02-28T14:07:55.887Z,english_386.wav,0,peel,272,26,3,5,français,f,6,0.6,45.71194496,1.21238053
60c7987a11054a60df5ed5f8,54,1,2024-02-28T14:07:55.887Z,english_386.wav,0,peel,272,26,3,5,français,f,7,0.7,28.98960809,0.05301684
60c7987a11054a60df5ed5f8,54,1,2024-02-28T14:07:55.887Z,english_386.wav,0,peel,272,26,3,5,français,f,8,0.8,-39.83484556,0.73550617
60c7987a11054a60df5ed5f8,54,1,2024-02-28T14:07:55.887Z,english_386.wav,0,peel,272,26,3,5,français,f,9,0.9,33.1587893,1.02363056
60c7987a11054a60df5ed5f8,54,1,2024-02-28T14:07:55.887Z,english_386.wav,0,peel,272,26,3,5,français,f,10,1.0,24.37786674,0.31570088
60c7987a11054a60df5ed5f8,54,1,2024-02-28T14:07:55.887Z,english_386.wav,0,peel,272,26,3,5,français,f,11,1.09391667,-21.81878644,0.61715616
60c7987a11054a60df5ed5f8,55,1,2024-02-28T14:07:55.887Z,english_764.wav,0,peel,282,26,3,5,français,f,0,0.0,-83.00734362,1.43154352
60c7987a11054a60df5ed5f8,55,1,2024-02-28T14:07:55.887Z,english_764.wav,0,peel,282,26,3,5,français,f,1,0.1,84.10171544,1.56325347
60c7987a11054a60df5ed5f8,55,1,2024-02-28T14:07:55.887Z,english_764.wav,0,peel,282,26,3,5,français,f,2,0.2,49.2008901,1.26543708
60c7987a11054a60df5ed5f8,55,1,2024-02-28T14:07:55.887Z,english_764.wav,0,peel,282,26,3,5,français,f,3,0.3,-10.6841825,0.423798415
60c7987a11054a60df5ed5f8,55,1,2024-02-28T14:07:55.887Z,english_764.wav,0,peel,282,26,3,5,français,f,4,0.4,-4.51825693,1.27376863
60c7987a11054a60df5ed5f8,55,1,2024-02-28T14:07:55.887Z,english_764.wav,0,peel,282,26,3,5,français,f,5,0.5,13.05855171,0.758380694
60c7987a11054a60df5ed5f8,55,1,2024-02-28T14:07:55.887Z,english_764.wav,0,peel,282,26,3,5,français,f,6,0.6,-89.35484482,0.001003512
60c7987a11054a60df5ed5f8,55,1,2024-02-28T14:07:55.887Z,english_764.wav,0,peel,282,26,3,5,français,f,7,0.7,31.98534685,0.899071383
60c7987a11054a60df5ed5f8,55,1,2024-02-28T14:07:55.887Z,english_764.wav,0,peel,282,26,3,5,français,f,8,0.8,-75.69390241,1.10287579
60c7987a11054a60df5ed5f8,55,1,2024-02-28T14:07:55.887Z,english_764.wav,0,peel,282,26,3,5,français,f,9,0.9,27.20832849,1.25133293
60c7987a11054a60df5ed5f8,55,1,2024-02-28T14:07:55.887Z,english_764.wav,0,peel,282,26,3,5,français,f,10,1.0,56.31930051,1.83305733
60c7987a11054a60df5ed5f8,55,1,2024-02-28T14:07:55.887Z,english_764.wav,0,peel,282,26,3,5,français,f,11,1.09391667,-35.91935055,1.51505239
60c7987a11054a60df5ed5f8,56,1,2024-02-28T14:07:55.887Z,english_518.wav,0,peel,321,26,3,5,français,f,0,0.0,22.01202895,1.18568215
60c7987a11054a60df5ed5f8,56,1,2024-02-28T14:07:55.887Z,english_518.wav,0,peel,321,26,3,5,français,f,1,0.1,84.85911905,1.27730104
60c7987a11054a60df5ed5f8,56,1,2024-02-28T14:07:55.887Z,english_518.wav,0,peel,321,26,3,5,français,f,2,0.2,6.76803646,1.88343212
60c7987a11054a60df5ed5f8,56,1,2024-02-28T14:07:55.887Z,english_518.wav,0,peel,321,26,3,5,français,f,3,0.3,-12.31334731,1.70516568
60c7987a11054a60df5ed5f8,56,1,2024-02-28T14:07:55.887Z,english_518.wav,0,peel,321,26,3,5,français,f,4,0.4,-5.3812793,1.21188584
60c7987a11054a60df5ed5f8,56,1,2024-02-28T14:07:55.887Z,english_518.wav,0,peel,321,26,3,5,français,f,5,0.5,-39.12372131,1.55365309
60c7987a11054a60df5ed5f8,56,1,2024-02-28T14:07:55.887Z,english_518.wav,0,peel,321,26,3,5,français,f,6,0.6,-19.59187687,1.67380265
60c7987a11054a60df5ed5f8,56,1,2024-02-28T14:07:55.887Z,english_518.wav,0,peel,321,26,3,5,français,f,7,0.7,30.09174406,1.67954719
60c7987a11054a60df5ed5f8,56,1,2024-02-28T14:07:55.887Z,english_518.wav,0,peel,321,26,3,5,français,f,8,0.8,12.21299005,1.45293932
60c7987a11054a60df5ed5f8,56,1,2024-02-28T14:07:55.887Z,english_518.wav,0,peel,321,26,3,5,français,f,9,0.9,-30.98849923,1.42118442
60c7987a11054a60df5ed5f8,56,1,2024-02-28T14:07:55.887Z,english_518.wav,0,peel,321,26,3,5,français,f,10,1.0,-66.88783357,1.84946345
60c7987a11054a60df5ed5f8,56,1,2024-02-28T14:07:55.887Z,english_518.wav,0,peel,321,26,3,5,français,f,11,1.09391667,-47.66173225,1.44146986
60c7987a11054a60df5ed5f8,57,1,2024-02-28T14:07:55.887Z,english_176.wav,0,pill,447,26,3,5,français,f,0,0.0,-29.79812822,0.43469721
60c7987a11054a60df5ed5f8,57,1,2024-02-28T14:07:55.887Z,english_176.wav,0,pill,447,26,3,5,français,f,1,0.1,-16.19961317,0.8905279
60c7987a11054a60df5ed5f8,57,1,2024-02-28T14:07:55.887Z,english_176.wav,0,pill,447,26,3,5,français,f,2,0.2,13.51202418,1.36195462
60c7987a11054a60df5ed5f8,57,1,2024-02-28T14:07:55.887Z,english_176.wav,0,pill,447,26,3,5,français,f,3,0.3,10.74594974,0.86537329
60c7987a11054a60df5ed5f8,57,1,2024-02-28T14:07:55.887Z,english_176.wav,0,pill,447,26,3,5,français,f,4,0.4,-52.94473426,0.61396379
60c7987a11054a60df5ed5f8,57,1,2024-02-28T14:07:55.887Z,english_176.wav,0,pill,447,26,3,5,français,f,5,0.5,52.13031176,0.71790783
60c7987a11054a60df5ed5f8,57,1,2024-02-28T14:07:55.887Z,english_176.wav,0,pill,447,26,3,5,français,f,6,0.6,75.74839712,1.10097826
60c7987a11054a60df5ed5f8,57,1,2024-02-28T14:07:55.887Z,english_176.wav,0,pill,447,26,3,5,français,f,7,0.7,62.6882876,1.68067326
60c7987a11054a60df5ed5f8,57,1,2024-02-28T14:07:55.887Z,english_176.wav,0,pill,447,26,3,5,français,f,8,0.8,-12.46472889,1.35151853
60c7987a11054a60df5ed5f8,57,1,2024-02-28T14:07:55.887Z,english_176.wav,0,pill,447,26,3,5,français,f,9,0.9,74.66747541,0.28756574
60c7987a11054a60df5ed5f8,57,1,2024-02-28T14:07:55.887Z,english_176.wav,0,pill,447,26,3,5,français,f,10,1.0,-22.48226553,0.36668304
60c7987a11054a60df5ed5f8,57,1,2024-02-28T14:07:55.887Z,english_176.wav,0,pill,447,26,3,5,français,f,11,1.09391667,-36.55733652,1.35894928
60c7987a11054a60df5ed5f8,58,1,2024-02-28T14:07:55.887Z,english_862.wav,0,pill,773,26,3,5,français,f,0,0.0,21.21965496,0.74332802
60c7987a11054a60df5ed5f8,58,1,2024-02-28T14:07:55.887Z,english_862.wav,0,pill,773,26,3,5,français,f,1,0.1,-28.10028624,0.09938773
60c7987a11054a60df5ed5f8,58,1,2024-02-28T14:07:55.887Z,english_862.wav,0,pill,773,26,3,5,français,f,2,0.2,87.2285398,0.50575358
60c7987a11054a60df5ed5f8,58,1,2024-02-28T14:07:55.887Z,english_862.wav,0,pill,773,26,3,5,français,f,3,0.3,41.56317367,0.643087
60c7987a11054a60df5ed5f8,58,1,2024-02-28T14:07:55.887Z,english_862.wav,0,pill,773,26,3,5,français,f,4,0.4,-7.26177219,0.60738988
60c7987a11054a60df5ed5f8,58,1,2024-02-28T14:07:55.887Z,english_862.wav,0,pill,773,26,3,5,français,f,5,0.5,82.03356609,0.78763104
60c7987a11054a60df5ed5f8,58,1,2024-02-28T14:07:55.887Z,english_862.wav,0,pill,773,26,3,5,français,f,6,0.6,-50.47589124,1.37786949
60c7987a11054a60df5ed5f8,58,1,2024-02-28T14:07:55.887Z,english_862.wav,0,pill,773,26,3,5,français,f,7,0.7,-94.47584418,1.33601808
60c7987a11054a60df5ed5f8,58,1,2024-02-28T14:07:55.887Z,english_862.wav,0,pill,773,26,3,5,français,f,8,0.8,-25.95412099,1.06645132
60c7987a11054a60df5ed5f8,58,1,2024-02-28T14:07:55.887Z,english_862.wav,0,pill,773,26,3,5,français,f,9,0.9,99.30679825,1.13650404
60c7987a11054a60df5ed5f8,58,1,2024-02-28T14:07:55.887Z,english_862.wav,0,pill,773,26,3,5,français,f,10,1.0,62.70648748,0.36591568
60c7987a11054a60df5ed5f8,58,1,2024-02-28T14:07:55.887Z,english_862.wav,0,pill,773,26,3,5,français,f,11,1.09391667,64.43642371,1.86759313
60c7987a11054a60df5ed5f8,59,1,2024-02-28T14:07:55.887Z,english_921.wav,0,pill,636,26,3,5,français,f,0,0.0,31.46476347,1.40929115
60c7987a11054a60df5ed5f8,59,1,2024-02-28T14:07:55.887Z,english_921.wav,0,pill,636,26,3,5,français,f,1,0.1,-97.58408055,0.95578469
60c7987a11054a60df5ed5f8,59,1,2024-02-28T14:07:55.887Z,english_921.wav,0,pill,636,26,3,5,français,f,2,0.2,54.67506657,1.08840418
60c7987a11054a60df5ed5f8,59,1,2024-02-28T14:07:55.887Z,english_921.wav,0,pill,636,26,3,5,français,f,3,0.3,22.21056557,0.27152021
60c7987a11054a60df5ed5f8,59,1,2024-02-28T14:07:55.887Z,english_921.wav,0,pill,636,26,3,5,français,f,4,0.4,0.8393727,1.01175766
60c7987a11054a60df5ed5f8,59,1,2024-02-28T14:07:55.887Z,english_921.wav,0,pill,636,26,3,5,français,f,5,0.5,-71.57742702,0.91544212
60c7987a11054a60df5ed5f8,59,1,2024-02-28T14:07:55.887Z,english_921.wav,0,pill,636,26,3,5,français,f,6,0.6,-21.98162251,1.03161778
60c7987a11054a60df5ed5f8,59,1,2024-02-28T14:07:55.887Z,english_921.wav,0,pill,636,26,3,5,français,f,7,0.7,-45.34354294,1.69417828
60c7987a11054a60df5ed5f8,59,1,2024-02-28T14:07:55.887Z,english_921.wav,0,pill,636,26,3,5,français,f,8,0.8,-54.46580015,1.14800845
60c7987a11054a60df5ed5f8,59,1,2024-02-28T14:07:55.887Z,english_921.wav,0,pill,636,26,3,5,français,f,9,0.9,-33.00243687,1.17008377
60c7987a11054a60df5ed5f8,59,1,2024-02-28T14:07:55.887Z,english_921.wav,0,pill,636,26,3,5,français,f,10,1.0,45.39245913,0.19449602
60c7987a11054a60df5ed5f8,59,1,2024-02-28T14:07:55.887Z,english_921.wav,0,pill,636,26,3,5,français,f,11,1.09391667,-24.69054897,1.58975603
60c7987a11054a60df5ed5f8,60,1,2024-02-28T14:07:55.887Z,english_436.wav,0,pill,337,26,3,5,français,f,0,0.0,-5.79676766,0.51982844
60c7987a11054a60df5ed5f8,60,1,2024-02-28T14:07:55.887Z,english_436.wav,0,pill,337,26,3,5,français,f,1,0.1,-7.88979016,1.6050725
60c7987a11054a60df5ed5f8,60,1,2024-02-28T14:07:55.887Z,english_436.wav,0,pill,337,26,3,5,français,f,2,0.2,-30.02673636,1.59647027
60c7987a11054a60df5ed5f8,60,1,2024-02-28T14:07:55.887Z,english_436.wav,0,pill,337,26,3,5,français,f,3,0.3,10.91379363,1.97742112
60c7987a11054a60df5ed5f8,60,1,2024-02-28T14:07:55.887Z,english_436.wav,0,pill,337,26,3,5,français,f,4,0.4,1.79762369,1.85601804
60c7987a11054a60df5ed5f8,60,1,2024-02-28T14:07:55.887Z,english_436.wav,0,pill,337,26,3,5,français,f,5,0.5,73.94991314,1.38993988
60c7987a11054a60df5ed5f8,60,1,2024-02-28T14:07:55.887Z,english_436.wav,0,pill,337,26,3,5,français,f,6,0.6,77.03109361,1.43065154
60c7987a11054a60df5ed5f8,60,1,2024-02-28T14:07:55.887Z,english_436.wav,0,pill,337,26,3,5,français,f,7,0.7,-48.27841607,0.14937688
60c7987a11054a60df5ed5f8,60,1,2024-02-28T14:07:55.887Z,english_436.wav,0,pill,337,26,3,5,français,f,8,0.8,57.26579501,1.65528817
60c7987a11054a60df5ed5f8,60,1,2024-02-28T14:07:55.887Z,english_436.wav,0,pill,337,26,3,5,français,f,9,0.9,-80.56784579,1.0202375
60c7987a11054a60df5ed5f8,60,1,2024-02-28T14:07:55.887Z,english_436.wav,0,pill,337,26,3,5,français,f,10,1.0,64.74546515,1.82414723
60c7987a11054a60df5ed5f8,60,1,2024-02-28T14:07:55.887Z,english_436.wav,0,pill,337,26,3,5,français,f,11,1.09391667,5.24901362,1.00971458
60c7987a11054a60df5ed5f8,61,1,2024-02-28T14:07:55.887Z,english_574.wav,0,pill,1516,26,3,5,français,f,0,0.0,30.16253717,0.985146
60c7987a11054a60df5ed5f8,61,1,2024-02-28T14:07:55.887Z,english_574.wav,0,pill,1516,26,3,5,français,f,1,0.1,-51.87995618,1.53182158
60c7987a11054a60df5ed5f8,61,1,2024-02-28T14:07:55.887Z,english_574.wav,0,pill,1516,26,3,5,français,f,2,0.2,24.46456732,1.42910062
60c7987a11054a60df5ed5f8,61,1,2024-02-28T14:07:55.887Z,english_574.wav,0,pill,1516,26,3,5,français,f,3,0.3,-94.35752884,0.82906666
60c7987a11054a60df5ed5f8,61,1,2024-02-28T14:07:55.887Z,english_574.wav,0,pill,1516,26,3,5,français,f,4,0.4,64.35841576,1.00783528
60c7987a11054a60df5ed5f8,61,1,2024-02-28T14:07:55.887Z,english_574.wav,0,pill,1516,26,3,5,français,f,5,0.5,-49.28362763,1.2732344
60c7987a11054a60df5ed5f8,61,1,2024-02-28T14:07:55.887Z,english_574.wav,0,pill,1516,26,3,5,français,f,6,0.6,14.18269939,1.27248482
60c7987a11054a60df5ed5f8,61,1,2024-02-28T14:07:55.887Z,english_574.wav,0,pill,1516,26,3,5,français,f,7,0.7,-50.86809752,0.5240718
60c7987a11054a60df5ed5f8,61,1,2024-02-28T14:07:55.887Z,english_574.wav,0,pill,1516,26,3,5,français,f,8,0.8,53.84502892,0.53991613
60c7987a11054a60df5ed5f8,61,1,2024-02-28T14:07:55.887Z,english_574.wav,0,pill,1516,26,3,5,français,f,9,0.9,-66.65469805,0.74966761
60c7987a11054a60df5ed5f8,61,1,2024-02-28T14:07:55.887Z,english_574.wav,0,pill,1516,26,3,5,français,f,10,1.0,-86.96769925,0.29132247
60c7987a11054a60df5ed5f8,61,1,2024-02-28T14:07:55.887Z,english_574.wav,0,pill,1516,26,3,5,français,f,11,1.09391667,-53.07810136,0.5179051
60c7987a11054a60df5ed5f8,62,1,2024-02-28T14:07:55.887Z,english_869.wav,0,peel,1038,26,3,5,français,f,0,0.0,-20.7946379,1.94834657
60c7987a11054a60df5ed5f8,62,1,2024-02-28T14:07:55.887Z,english_869.wav,0,peel,1038,26,3,5,français,f,1,0.1,-22.88594334,1.67021182
60c7987a11054a60df5ed5f8,62,1,2024-02-28T14:07:55.887Z,english_869.wav,0,peel,1038,26,3,5,français,f,2,0.2,-44.01188064,1.50520546
60c7987a11054a60df5ed5f8,62,1,2024-02-28T14:07:55.887Z,english_869.wav,0,peel,1038,26,3,5,français,f,3,0.3,58.96228493,0.98955103
60c7987a11054a60df5ed5f8,62,1,2024-02-28T14:07:55.887Z,english_869.wav,0,peel,1038,26,3,5,français,f,4,0.4,0.25554563,0.43254465
60c7987a11054a60df5ed5f8,62,1,2024-02-28T14:07:55.887Z,english_869.wav,0,peel,1038,26,3,5,français,f,5,0.5,-14.29276016,1.32326318
60c7987a11054a60df5ed5f8,62,1,2024-02-28T14:07:55.887Z,english_869.wav,0,peel,1038,26,3,5,français,f,6,0.6,40.28852475,0.34817039
60c7987a11054a60df5ed5f8,62,1,2024-02-28T14:07:55.887Z,english_869.wav,0,peel,1038,26,3,5,français,f,7,0.7,83.9110951,0.4259349
60c7987a11054a60df5ed5f8,62,1,2024-02-28T14:07:55.887Z,english_869.wav,0,peel,1038,26,3,5,français,f,8,0.8,-58.08971542,0.20780663
60c7987a11054a60df5ed5f8,62,1,2024-02-28T14:07:55.887Z,english_869.wav,0,peel,1038,26,3,5,français,f,9,0.9,-47.84735546,0.9384124
60c7987a11054a60df5ed5f8,62,1,2024-02-28T14:07:55.887Z,english_869.wav,0,peel,1038,26,3,5,français,f,10,1.0,18.70420486,1.5529846
60c7987a11054a60df5ed5f8,62,1,2024-02-28T14:07:55.887Z,english_869.wav,0,peel,1038,26,3,5,français,f,11,1.09391667,33.02688521,1.23929613
60c7987a11054a60df5ed5f8,63,1,2024-02-28T14:07:55.887Z,english_630.wav,0,peel,312,26,3,5,français,f,0,0.0,78.75492265,1.14018337
60c7987a11054a60df5ed5f8,63,1,2024-02-28T14:07:55.887Z,english_630.wav,0,peel,312,26,3,5,français,f,1,0.1,-83.58930578,0.42247423
60c7987a11054a60df5ed5f8,63,1,2024-02-28T14:07:55.887Z,english_630.wav,0,peel,312,26,3,5,français,f,2,0.2,-79.71821409,1.15399078
60c7987a11054a60df5ed5f8,63,1,2024-02-28T14:07:55.887Z,english_630.wav,0,peel,312,26,3,5,français,f,3,0.3,-40.02519871,1.63118088
60c7987a11054a60df5ed5f8,63,1,2024-02-28T14:07:55.887Z,english_630.wav,0,peel,312,26,3,5,français,f,4,0.4,28.39164799,0.60995737
60c7987a11054a60df5ed5f8,63,1,2024-02-28T14:07:55.887Z,english_630.wav,0,peel,312,26,3,5,français,f,5,0.5,-22.91010751,1.14933658
60c7987a11054a60df5ed5f8,63,1,2024-02-28T14:07:55.887Z,english_630.wav,0,peel,312,26,3,5,français,f,6,0.6,66.99878234,1.58053618
60c7987a11054a60df5ed5f8,63,1,2024-02-28T14:07:55.887Z,english_630.wav,0,peel,312,26,3,5,français,f,7,0.7,-67.03907611,1.44408005
60c7987a11054a60df5ed5f8,63,1,2024-02-28T14:07:55.887Z,english_630.wav,0,peel,312,26,3,5,français,f,8,0.8,-31.68288064,0.22921488
60c7987a11054a60df5ed5f8,63,1,2024-02-28T14:07:55.887Z,english_630.wav,0,peel,312,26,3,5,français,f,9,0.9,-92.36791787,1.99244959
60c7987a11054a60df5ed5f8,63,1,2024-02-28T14:07:55.887Z,english_630.wav,0,peel,312,26,3,5,français,f,10,1.0,-47.34450832,1.8016164
60c7987a11054a60df5ed5f8,63,1,2024-02-28T14:07:55.887Z,english_630.wav,0,peel,312,26,3,5,français,f,11,1.09391667,-92.12755103,1.49248838
60c7987a11054a60df5ed5f8,64,1,2024-02-28T14:07:55.887Z,english_375.wav,0,peel,295,26,3,5,français,f,0,0.0,-66.54027977,1.30902013
