subj,trial,block,date,stim,stim_order,response,rt,age,english,french,language,sex,param_index,segment,pitch,stretch
610d671491693e4ff410860c,0,0,2024-02-28T14:41:53.371Z,english_285.wav,0,pill,854,36,4,5,français,m,0,0.0,48.62119612,1.78431697
610d671491693e4ff410860c,0,0,2024-02-28T14:41:53.371Z,english_285.wav,0,pill,854,36,4,5,français,m,1,0.1,-77.49487419,0.21017115
610d671491693e4ff410860c,0,0,2024-02-28T14:41:53.371Z,english_285.wav,0,pill,854,36,4,5,français,m,2,0.2,-92.74855632,0.90754364
610d671491693e4ff410860c,0,0,2024-02-28T14:41:53.371Z,english_285.wav,0,pill,854,36,4,5,français,m,3,0.3,-5.04409868,0.79299305
610d671491693e4ff410860c,0,0,2024-02-28T14:41:53.371Z,english_285.wav,0,pill,854,36,4,5,français,m,4,0.4,-37.04184738,0.73704045
610d671491693e4ff410860c,0,0,2024-02-28T14:41:53.371Z,english_285.wav,0,pill,854,36,4,5,français,m,5,0.5,93.82836291,1.49438795
610d671491693e4ff410860c,0,0,2024-02-28T14:41:53.371Z,english_285.wav,0,pill,854,36,4,5,français,m,6,0.6,46.80360504,1.8666859
610d671491693e4ff410860c,0,0,2024-02-28T14:41:53.371Z,english_285.wav,0,pill,854,36,4,5,français,m,7,0.7,99.71187558,1.28156013
610d671491693e4ff410860c,0,0,2024-02-28T14:41:53.371Z,english_285.wav,0,pill,854,36,4,5,français,m,8,0.8,70.29725425,0.27278766
610d671491693e4ff410860c,0,0,2024-02-28T14:41:53.371Z,english_285.wav,0,pill,854,36,4,5,français,m,9,0.9,2.68384344,1.64624
610d671491693e4ff410860c,0,0,2024-02-28T14:41:53.371Z,english_285.wav,0,pill,854,36,4,5,français,m,10,1.0,33.86757162,0.38779205
610d671491693e4ff410860c,0,0,2024-02-28T14:41:53.371Z,english_285.wav,0,pill,854,36,4,5,français,m,11,1.09391667,28.22402765,0.9971565
610d671491693e4ff410860c,1,0,2024-02-28T14:41:53.371Z,english_583.wav,0,peel,578,36,4,5,français,m,0,0.0,-89.46926799,1.93205848
610d671491693e4ff410860c,1,0,2024-02-28T14:41:53.371Z,english_583.wav,0,peel,578,36,4,5,français,m,1,0.1,-21.95760647,0.52539253
610d671491693e4ff410860c,1,0,2024-02-28T14:41:53.371Z,english_583.wav,0,peel,578,36,4,5,français,m,2,0.2,51.54638902,0.25359823
610d671491693e4ff410860c,1,0,2024-02-28T14:41:53.371Z,english_583.wav,0,peel,578,36,4,5,français,m,3,0.3,-19.59460838,0.46642282
610d671491693e4ff410860c,1,0,2024-02-28T14:41:53.371Z,english_583.wav,0,peel,578,36,4,5,français,m,4,0.4,-80.65157181,0.25879931
610d671491693e4ff410860c,1,0,2024-02-28T14:41:53.371Z,english_583.wav,0,peel,578,36,4,5,français,m,5,0.5,13.46564549,0.54774352
610d671491693e4ff410860c,1,0,2024-02-28T14:41:53.371Z,english_583.wav,0,peel,578,36,4,5,français,m,6,0.6,-1.99224774,1.89783447
610d671491693e4ff410860c,1,0,2024-02-28T14:41:53.371Z,english_583.wav,0,peel,578,36,4,5,français,m,7,0.7,96.26030273,0.46572744
610d671491693e4ff410860c,1,0,2024-02-28T14:41:53.371Z,english_583.wav,0,peel,578,36,4,5,français,m,8,0.8,-75.70856073,0.69184565
610d671491693e4ff410860c,1,0,2024-02-28T14:41:53.371Z,english_583.wav,0,peel,578,36,4,5,français,m,9,0.9,40.78035579,1.20488206
610d671491693e4ff410860c,1,0,2024-02-28T14:41:53.371Z,english_583.wav,0,peel,578,36,4,5,français,m,10,1.0,3.65984432,1.22997803
610d671491693e4ff410860c,1,0,2024-02-28T14:41:53.371Z,english_583.wav,0,peel,578,36,4,5,français,m,11,1.09391667,-26.98513255,1.99403249
610d671491693e4ff410860c,2,0,2024-02-28T14:41:53.371Z,english_821.wav,0,peel,601,36,4,5,français,m,0,0.0,60.02897282,0.81118736
610d671491693e4ff410860c,2,0,2024-02-28T14:41:53.371Z,english_821.wav,0,peel,601,36,4,5,français,m,1,0.1,-31.71016541,1.4887669
610d671491693e4ff410860c,2,0,2024-02-28T14:41:53.371Z,english_821.wav,0,peel,601,36,4,5,français,m,2,0.2,65.3097336,0.65578563
610d671491693e4ff410860c,2,0,2024-02-28T14:41:53.371Z,english_821.wav,0,peel,601,36,4,5,français,m,3,0.3,39.90488009,0.99843063
610d671491693e4ff410860c,2,0,2024-02-28T14:41:53.371Z,english_821.wav,0,peel,601,36,4,5,français,m,4,0.4,65.66520818,0.54862628
610d671491693e4ff410860c,2,0,2024-02-28T14:41:53.371Z,english_821.wav,0,peel,601,36,4,5,français,m,5,0.5,-73.56912207,0.9620802
610d671491693e4ff410860c,2,0,2024-02-28T14:41:53.371Z,english_821.wav,0,peel,601,36,4,5,français,m,6,0.6,0.74999233,1.96570853
610d671491693e4ff410860c,2,0,2024-02-28T14:41:53.371Z,english_821.wav,0,peel,601,36,4,5,français,m,7,0.7,64.12769535,1.86660776
610d671491693e4ff410860c,2,0,2024-02-28T14:41:53.371Z,english_821.wav,0,peel,601,36,4,5,français,m,8,0.8,-79.18665898,0.48590566
610d671491693e4ff410860c,2,0,2024-02-28T14:41:53.371Z,english_821.wav,0,peel,601,36,4,5,français,m,9,0.9,-84.62050136,1.1315153
610d671491693e4ff410860c,2,0,2024-02-28T14:41:53.371Z,english_821.wav,0,peel,601,36,4,5,français,m,10,1.0,99.19624858,1.62744853
610d671491693e4ff410860c,2,0,2024-02-28T14:41:53.371Z,english_821.wav,0,peel,601,36,4,5,français,m,11,1.09391667,71.58670695,1.94836872
610d671491693e4ff410860c,3,0,2024-02-28T14:41:53.371Z,english_369.wav,0,peel,776,36,4,5,français,m,0,0.0,-98.51702781,1.05319591
610d671491693e4ff410860c,3,0,2024-02-28T14:41:53.371Z,english_369.wav,0,peel,776,36,4,5,français,m,1,0.1,-77.74164505,0.35563608
610d671491693e4ff410860c,3,0,2024-02-28T14:41:53.371Z,english_369.wav,0,peel,776,36,4,5,français,m,2,0.2,13.86053007,0.74921535
610d671491693e4ff410860c,3,0,2024-02-28T14:41:53.371Z,english_369.wav,0,peel,776,36,4,5,français,m,3,0.3,94.45294859,1.88151113
610d671491693e4ff410860c,3,0,2024-02-28T14:41:53.371Z,english_369.wav,0,peel,776,36,4,5,français,m,4,0.4,-68.44131684,1.38340448
610d671491693e4ff410860c,3,0,2024-02-28T14:41:53.371Z,english_369.wav,0,peel,776,36,4,5,français,m,5,0.5,-11.02159052,1.0971757
610d671491693e4ff410860c,3,0,2024-02-28T14:41:53.371Z,english_369.wav,0,peel,776,36,4,5,français,m,6,0.6,-93.03562761,0.74102815
610d671491693e4ff410860c,3,0,2024-02-28T14:41:53.371Z,english_369.wav,0,peel,776,36,4,5,français,m,7,0.7,92.19991551,0.86578633
610d671491693e4ff410860c,3,0,2024-02-28T14:41:53.371Z,english_369.wav,0,peel,776,36,4,5,français,m,8,0.8,44.28946949,0.42333119
610d671491693e4ff410860c,3,0,2024-02-28T14:41:53.371Z,english_369.wav,0,peel,776,36,4,5,français,m,9,0.9,-36.54704406,1.30148328
610d671491693e4ff410860c,3,0,2024-02-28T14:41:53.371Z,english_369.wav,0,peel,776,36,4,5,français,m,10,1.0,75.92915306,0.13274677
610d671491693e4ff410860c,3,0,2024-02-28T14:41:53.371Z,english_369.wav,0,peel,776,36,4,5,français,m,11,1.09391667,43.6375557,0.3552412
610d671491693e4ff410860c,4,0,2024-02-28T14:41:53.371Z,english_671.wav,0,pill,634,36,4,5,français,m,0,0.0,-45.93815434,1.42496889
610d671491693e4ff410860c,4,0,2024-02-28T14:41:53.371Z,english_671.wav,0,pill,634,36,4,5,français,m,1,0.1,-9.85133236,0.72590703
610d671491693e4ff410860c,4,0,2024-02-28T14:41:53.371Z,english_671.wav,0,pill,634,36,4,5,français,m,2,0.2,-90.27584827,0.03582408
610d671491693e4ff410860c,4,0,2024-02-28T14:41:53.371Z,english_671.wav,0,pill,634,36,4,5,français,m,3,0.3,-12.62569024,1.95422408
610d671491693e4ff410860c,4,0,2024-02-28T14:41:53.371Z,english_671.wav,0,pill,634,36,4,5,français,m,4,0.4,-25.02264323,0.03147383
610d671491693e4ff410860c,4,0,2024-02-28T14:41:53.371Z,english_671.wav,0,pill,634,36,4,5,français,m,5,0.5,-73.63967284,1.78242159
610d671491693e4ff410860c,4,0,2024-02-28T14:41:53.371Z,english_671.wav,0,pill,634,36,4,5,français,m,6,0.6,-8.12482987,0.44075536
610d671491693e4ff410860c,4,0,2024-02-28T14:41:53.371Z,english_671.wav,0,pill,634,36,4,5,français,m,7,0.7,20.3897076,1.76056673
610d671491693e4ff410860c,4,0,2024-02-28T14:41:53.371Z,english_671.wav,0,pill,634,36,4,5,français,m,8,0.8,-16.71271092,0.82662657
610d671491693e4ff410860c,4,0,2024-02-28T14:41:53.371Z,english_671.wav,0,pill,634,36,4,5,français,m,9,0.9,60.34106396,0.3638046
610d671491693e4ff410860c,4,0,2024-02-28T14:41:53.371Z,english_671.wav,0,pill,634,36,4,5,français,m,10,1.0,-65.87673981,0.96822524
610d671491693e4ff410860c,4,0,2024-02-28T14:41:53.371Z,english_671.wav,0,pill,634,36,4,5,français,m,11,1.09391667,-90.1963817,0.11003173
610d671491693e4ff410860c,5,0,2024-02-28T14:41:53.371Z,english_340.wav,0,peel,337,36,4,5,français,m,0,0.0,19.74255444,0.3319767
610d671491693e4ff410860c,5,0,2024-02-28T14:41:53.371Z,english_340.wav,0,peel,337,36,4,5,français,m,1,0.1,25.16855735,0.61048523
610d671491693e4ff410860c,5,0,2024-02-28T14:41:53.371Z,english_340.wav,0,peel,337,36,4,5,français,m,2,0.2,-45.10982673,0.21275179
610d671491693e4ff410860c,5,0,2024-02-28T14:41:53.371Z,english_340.wav,0,peel,337,36,4,5,français,m,3,0.3,-94.4237425,0.29825912
610d671491693e4ff410860c,5,0,2024-02-28T14:41:53.371Z,english_340.wav,0,peel,337,36,4,5,français,m,4,0.4,33.61318105,0.68673966
610d671491693e4ff410860c,5,0,2024-02-28T14:41:53.371Z,english_340.wav,0,peel,337,36,4,5,français,m,5,0.5,-32.11968845,0.56528685
610d671491693e4ff410860c,5,0,2024-02-28T14:41:53.371Z,english_340.wav,0,peel,337,36,4,5,français,m,6,0.6,-73.96198045,1.1523669
610d671491693e4ff410860c,5,0,2024-02-28T14:41:53.371Z,english_340.wav,0,peel,337,36,4,5,français,m,7,0.7,-70.65108678,1.56179354
610d671491693e4ff410860c,5,0,2024-02-28T14:41:53.371Z,english_340.wav,0,peel,337,36,4,5,français,m,8,0.8,-16.68054018,0.7478511
610d671491693e4ff410860c,5,0,2024-02-28T14:41:53.371Z,english_340.wav,0,peel,337,36,4,5,français,m,9,0.9,17.74464594,1.06303665
610d671491693e4ff410860c,5,0,2024-02-28T14:41:53.371Z,english_340.wav,0,peel,337,36,4,5,français,m,10,1.0,-17.13563894,1.69470448
610d671491693e4ff410860c,5,0,2024-02-28T14:41:53.371Z,english_340.wav,0,peel,337,36,4,5,français,m,11,1.09391667,85.44426077,1.53904315
610d671491693e4ff410860c,6,0,2024-02-28T14:41:53.371Z,english_718.wav,0,pill,738,36,4,5,français,m,0,0.0,61.00269276,1.9915537
610d671491693e4ff410860c,6,0,2024-02-28T14:41:53.371Z,english_718.wav,0,pill,738,36,4,5,français,m,1,0.1,-4.74934843,0.89410112
610d671491693e4ff410860c,6,0,2024-02-28T14:41:53.371Z,english_718.wav,0,pill,738,36,4,5,français,m,2,0.2,9.01462899,1.56072611
610d671491693e4ff410860c,6,0,2024-02-28T14:41:53.371Z,english_718.wav,0,pill,738,36,4,5,français,m,3,0.3,79.23930225,0.98422559
610d671491693e4ff410860c,6,0,2024-02-28T14:41:53.371Z,english_718.wav,0,pill,738,36,4,5,français,m,4,0.4,-22.0403667,1.91227381
610d671491693e4ff410860c,6,0,2024-02-28T14:41:53.371Z,english_718.wav,0,pill,738,36,4,5,français,m,5,0.5,-60.9220938,1.04807259
610d671491693e4ff410860c,6,0,2024-02-28T14:41:53.371Z,english_718.wav,0,pill,738,36,4,5,français,m,6,0.6,36.91126826,0.76136187
610d671491693e4ff410860c,6,0,2024-02-28T14:41:53.371Z,english_718.wav,0,pill,738,36,4,5,français,m,7,0.7,23.15113788,1.40698191
610d671491693e4ff410860c,6,0,2024-02-28T14:41:53.371Z,english_718.wav,0,pill,738,36,4,5,français,m,8,0.8,-72.29830581,0.19509634
610d671491693e4ff410860c,6,0,2024-02-28T14:41:53.371Z,english_718.wav,0,pill,738,36,4,5,français,m,9,0.9,-56.27843268,0.95755477
610d671491693e4ff410860c,6,0,2024-02-28T14:41:53.371Z,english_718.wav,0,pill,738,36,4,5,français,m,10,1.0,-20.76477327,0.32836836
610d671491693e4ff410860c,6,0,2024-02-28T14:41:53.371Z,english_718.wav,0,pill,738,36,4,5,français,m,11,1.09391667,-26.98598325,1.63350278
610d671491693e4ff410860c,7,0,2024-02-28T14:41:53.371Z,english_731.wav,0,pill,514,36,4,5,français,m,0,0.0,-7.36185514,1.393769
610d671491693e4ff410860c,7,0,2024-02-28T14:41:53.371Z,english_731.wav,0,pill,514,36,4,5,français,m,1,0.1,90.53877185,0.98238467
610d671491693e4ff410860c,7,0,2024-02-28T14:41:53.371Z,english_731.wav,0,pill,514,36,4,5,français,m,2,0.2,-41.94407757,1.23695651
610d671491693e4ff410860c,7,0,2024-02-28T14:41:53.371Z,english_731.wav,0,pill,514,36,4,5,français,m,3,0.3,25.1521842,1.19631379
610d671491693e4ff410860c,7,0,2024-02-28T14:41:53.371Z,english_731.wav,0,pill,514,36,4,5,français,m,4,0.4,68.57946125,0.88911396
610d671491693e4ff410860c,7,0,2024-02-28T14:41:53.371Z,english_731.wav,0,pill,514,36,4,5,français,m,5,0.5,65.86891495,1.98349596
610d671491693e4ff410860c,7,0,2024-02-28T14:41:53.371Z,english_731.wav,0,pill,514,36,4,5,français,m,6,0.6,-52.28114947,0.8296111
610d671491693e4ff410860c,7,0,2024-02-28T14:41:53.371Z,english_731.wav,0,pill,514,36,4,5,français,m,7,0.7,15.16550818,0.44150217
610d671491693e4ff410860c,7,0,2024-02-28T14:41:53.371Z,english_731.wav,0,pill,514,36,4,5,français,m,8,0.8,25.27999627,1.48173114
610d671491693e4ff410860c,7,0,2024-02-28T14:41:53.371Z,english_731.wav,0,pill,514,36,4,5,français,m,9,0.9,11.70162838,1.09419359
610d671491693e4ff410860c,7,0,2024-02-28T14:41:53.371Z,english_731.wav,0,pill,514,36,4,5,français,m,10,1.0,-94.01759602,0.20829797
610d671491693e4ff410860c,7,0,2024-02-28T14:41:53.371Z,english_731.wav,0,pill,514,36,4,5,français,m,11,1.09391667,-3.24792735,1.32232845
610d671491693e4ff410860c,8,0,2024-02-28T14:41:53.371Z,english_857.wav,0,peel,869,36,4,5,français,m,0,0.0,-56.93168928,1.92395656
610d671491693e4ff410860c,8,0,2024-02-28T14:41:53.371Z,english_857.wav,0,peel,869,36,4,5,français,m,1,0.1,-40.57515649,1.41156549
610d671491693e4ff410860c,8,0,2024-02-28T14:41:53.371Z,english_857.wav,0,peel,869,36,4,5,français,m,2,0.2,-26.26283105,0.14185194
610d671491693e4ff410860c,8,0,2024-02-28T14:41:53.371Z,english_857.wav,0,peel,869,36,4,5,français,m,3,0.3,-49.62797955,1.1985334
610d671491693e4ff410860c,8,0,2024-02-28T14:41:53.371Z,english_857.wav,0,peel,869,36,4,5,français,m,4,0.4,47.07146778,0.83326814
610d671491693e4ff410860c,8,0,2024-02-28T14:41:53.371Z,english_857.wav,0,peel,869,36,4,5,français,m,5,0.5,-96.41882062,0.71224123
610d671491693e4ff410860c,8,0,2024-02-28T14:41:53.371Z,english_857.wav,0,peel,869,36,4,5,français,m,6,0.6,63.09662026,1.58040322
610d671491693e4ff410860c,8,0,2024-02-28T14:41:53.371Z,english_857.wav,0,peel,869,36,4,5,français,m,7,0.7,98.67053018,1.02327595
610d671491693e4ff410860c,8,0,2024-02-28T14:41:53.371Z,english_857.wav,0,peel,869,36,4,5,français,m,8,0.8,-56.85749065,1.48703987
610d671491693e4ff410860c,8,0,2024-02-28T14:41:53.371Z,english_857.wav,0,peel,869,36,4,5,français,m,9,0.9,-18.03690135,0.70290333
610d671491693e4ff410860c,8,0,2024-02-28T14:41:53.371Z,english_857.wav,0,peel,869,36,4,5,français,m,10,1.0,52.13097753,0.53460392
610d671491693e4ff410860c,8,0,2024-02-28T14:41:53.371Z,english_857.wav,0,peel,869,36,4,5,français,m,11,1.09391667,52.54650928,1.10851945
610d671491693e4ff410860c,9,0,2024-02-28T14:41:53.371Z,english_354.wav,0,pill,395,36,4,5,français,m,0,0.0,-28.87420486,0.20754018
610d671491693e4ff410860c,9,0,2024-02-28T14:41:53.371Z,english_354.wav,0,pill,395,36,4,5,français,m,1,0.1,-23.35112853,1.88177303
610d671491693e4ff410860c,9,0,2024-02-28T14:41:53.371Z,english_354.wav,0,pill,395,36,4,5,français,m,2,0.2,5.36311679,1.60863404
610d671491693e4ff410860c,9,0,2024-02-28T14:41:53.371Z,english_354.wav,0,pill,395,36,4,5,français,m,3,0.3,88.42745553,0.83478671
610d671491693e4ff410860c,9,0,2024-02-28T14:41:53.371Z,english_354.wav,0,pill,395,36,4,5,français,m,4,0.4,2.47520697,1.51310965
610d671491693e4ff410860c,9,0,2024-02-28T14:41:53.371Z,english_354.wav,0,pill,395,36,4,5,français,m,5,0.5,46.1200008,1.04317866
610d671491693e4ff410860c,9,0,2024-02-28T14:41:53.371Z,english_354.wav,0,pill,395,36,4,5,français,m,6,0.6,-18.78131858,0.09474749
610d671491693e4ff410860c,9,0,2024-02-28T14:41:53.371Z,english_354.wav,0,pill,395,36,4,5,français,m,7,0.7,-50.4047441,1.6889762
610d671491693e4ff410860c,9,0,2024-02-28T14:41:53.371Z,english_354.wav,0,pill,395,36,4,5,français,m,8,0.8,70.60844452,0.35231613
610d671491693e4ff410860c,9,0,2024-02-28T14:41:53.371Z,english_354.wav,0,pill,395,36,4,5,français,m,9,0.9,-79.1017332,0.20561504
610d671491693e4ff410860c,9,0,2024-02-28T14:41:53.371Z,english_354.wav,0,pill,395,36,4,5,français,m,10,1.0,-66.82350364,0.40462269
610d671491693e4ff410860c,9,0,2024-02-28T14:41:53.371Z,english_354.wav,0,pill,395,36,4,5,français,m,11,1.09391667,-48.20226443,0.51831425
610d671491693e4ff410860c,10,0,2024-02-28T14:41:53.371Z,english_689.wav,0,peel,424,36,4,5,français,m,0,0.0,83.12133252,1.04214093
610d671491693e4ff410860c,10,0,2024-02-28T14:41:53.371Z,english_689.wav,0,peel,424,36,4,5,français,m,1,0.1,-80.97372196,0.40468985
610d671491693e4ff410860c,10,0,2024-02-28T14:41:53.371Z,english_689.wav,0,peel,424,36,4,5,français,m,2,0.2,-28.26528551,1.50877389
610d671491693e4ff410860c,10,0,2024-02-28T14:41:53.371Z,english_689.wav,0,peel,424,36,4,5,français,m,3,0.3,42.6688421,1.67206734
610d671491693e4ff410860c,10,0,2024-02-28T14:41:53.371Z,english_689.wav,0,peel,424,36,4,5,français,m,4,0.4,6.31951717,1.24892229
610d671491693e4ff410860c,10,0,2024-02-28T14:41:53.371Z,english_689.wav,0,peel,424,36,4,5,français,m,5,0.5,65.13167849,0.38767445
610d671491693e4ff410860c,10,0,2024-02-28T14:41:53.371Z,english_689.wav,0,peel,424,36,4,5,français,m,6,0.6,-21.58547915,1.45702475
610d671491693e4ff410860c,10,0,2024-02-28T14:41:53.371Z,english_689.wav,0,peel,424,36,4,5,français,m,7,0.7,-38.42350837,0.16690889
610d671491693e4ff410860c,10,0,2024-02-28T14:41:53.371Z,english_689.wav,0,peel,424,36,4,5,français,m,8,0.8,72.27336224,1.13554192
610d671491693e4ff410860c,10,0,2024-02-28T14:41:53.371Z,english_689.wav,0,peel,424,36,4,5,français,m,9,0.9,-22.08116071,0.21927817
610d671491693e4ff410860c,10,0,2024-02-28T14:41:53.371Z,english_689.wav,0,peel,424,36,4,5,français,m,10,1.0,-2.34337227,0.41094591
610d671491693e4ff410860c,10,0,2024-02-28T14:41:53.371Z,english_689.wav,0,peel,424,36,4,5,français,m,11,1.09391667,32.05995553,0.34398042
610d671491693e4ff410860c,11,0,2024-02-28T14:41:53.371Z,english_166.wav,0,peel,408,36,4,5,français,m,0,0.0,-22.47224396,0.79935629
610d671491693e4ff410860c,11,0,2024-02-28T14:41:53.371Z,english_166.wav,0,peel,408,36,4,5,français,m,1,0.1,8.34418228,1.08766258
610d671491693e4ff410860c,11,0,2024-02-28T14:41:53.371Z,english_166.wav,0,peel,408,36,4,5,français,m,2,0.2,-26.80375044,0.88793969
610d671491693e4ff410860c,11,0,2024-02-28T14:41:53.371Z,english_166.wav,0,peel,408,36,4,5,français,m,3,0.3,-25.22426401,1.85581966
610d671491693e4ff410860c,11,0,2024-02-28T14:41:53.371Z,english_166.wav,0,peel,408,36,4,5,français,m,4,0.4,-44.17860095,1.74261815
610d671491693e4ff410860c,11,0,2024-02-28T14:41:53.371Z,english_166.wav,0,peel,408,36,4,5,français,m,5,0.5,-7.8395137,0.67828824
610d671491693e4ff410860c,11,0,2024-02-28T14:41:53.371Z,english_166.wav,0,peel,408,36,4,5,français,m,6,0.6,42.03338864,0.30993225
610d671491693e4ff410860c,11,0,2024-02-28T14:41:53.371Z,english_166.wav,0,peel,408,36,4,5,français,m,7,0.7,50.48936268,1.83209491
610d671491693e4ff410860c,11,0,2024-02-28T14:41:53.371Z,english_166.wav,0,peel,408,36,4,5,français,m,8,0.8,-79.33283531,1.96795539
610d671491693e4ff410860c,11,0,2024-02-28T14:41:53.371Z,english_166.wav,0,peel,408,36,4,5,français,m,9,0.9,57.67304972,0.73278394
610d671491693e4ff410860c,11,0,2024-02-28T14:41:53.371Z,english_166.wav,0,peel,408,36,4,5,français,m,10,1.0,75.92662412,1.69577801
610d671491693e4ff410860c,11,0,2024-02-28T14:41:53.371Z,english_166.wav,0,peel,408,36,4,5,français,m,11,1.09391667,-5.06556073,0.31756742
610d671491693e4ff410860c,12,0,2024-02-28T14:41:53.371Z,english_18.wav,0,peel,439,36,4,5,français,m,0,0.0,-34.26622777,1.34360385
610d671491693e4ff410860c,12,0,2024-02-28T14:41:53.371Z,english_18.wav,0,peel,439,36,4,5,français,m,1,0.1,-75.64955683,1.57489552
610d671491693e4ff410860c,12,0,2024-02-28T14:41:53.371Z,english_18.wav,0,peel,439,36,4,5,français,m,2,0.2,-27.92679038,0.39363555
610d671491693e4ff410860c,12,0,2024-02-28T14:41:53.371Z,english_18.wav,0,peel,439,36,4,5,français,m,3,0.3,-19.62027656,0.89611778
610d671491693e4ff410860c,12,0,2024-02-28T14:41:53.371Z,english_18.wav,0,peel,439,36,4,5,français,m,4,0.4,-20.32459895,1.50747647
610d671491693e4ff410860c,12,0,2024-02-28T14:41:53.371Z,english_18.wav,0,peel,439,36,4,5,français,m,5,0.5,0.79905947,0.43558214
610d671491693e4ff410860c,12,0,2024-02-28T14:41:53.371Z,english_18.wav,0,peel,439,36,4,5,français,m,6,0.6,8.10958223,1.91834816
610d671491693e4ff410860c,12,0,2024-02-28T14:41:53.371Z,english_18.wav,0,peel,439,36,4,5,français,m,7,0.7,-12.88361986,0.90012517
610d671491693e4ff410860c,12,0,2024-02-28T14:41:53.371Z,english_18.wav,0,peel,439,36,4,5,français,m,8,0.8,74.6796053,0.69419363
610d671491693e4ff410860c,12,0,2024-02-28T14:41:53.371Z,english_18.wav,0,peel,439,36,4,5,français,m,9,0.9,13.61359807,0.27849068
610d671491693e4ff410860c,12,0,2024-02-28T14:41:53.371Z,english_18.wav,0,peel,439,36,4,5,français,m,10,1.0,-21.69070415,0.10490824
610d671491693e4ff410860c,12,0,2024-02-28T14:41:53.371Z,english_18.wav,0,peel,439,36,4,5,français,m,11,1.09391667,-57.34652915,1.33460981
610d671491693e4ff410860c,13,0,2024-02-28T14:41:53.371Z,english_7.wav,0,pill,940,36,4,5,français,m,0,0.0,6.20403874,1.30974385
610d671491693e4ff410860c,13,0,2024-02-28T14:41:53.371Z,english_7.wav,0,pill,940,36,4,5,français,m,1,0.1,37.19731147,0.99661129
610d671491693e4ff410860c,13,0,2024-02-28T14:41:53.371Z,english_7.wav,0,pill,940,36,4,5,français,m,2,0.2,49.31472848,1.03745865
610d671491693e4ff410860c,13,0,2024-02-28T14:41:53.371Z,english_7.wav,0,pill,940,36,4,5,français,m,3,0.3,-90.70180435,1.78258145
610d671491693e4ff410860c,13,0,2024-02-28T14:41:53.371Z,english_7.wav,0,pill,940,36,4,5,français,m,4,0.4,27.47473692,0.46239098
610d671491693e4ff410860c,13,0,2024-02-28T14:41:53.371Z,english_7.wav,0,pill,940,36,4,5,français,m,5,0.5,15.65561706,1.16284284
610d671491693e4ff410860c,13,0,2024-02-28T14:41:53.371Z,english_7.wav,0,pill,940,36,4,5,français,m,6,0.6,67.99861593,0.54440065
610d671491693e4ff410860c,13,0,2024-02-28T14:41:53.371Z,english_7.wav,0,pill,940,36,4,5,français,m,7,0.7,-2.80792886,0.65589639
610d671491693e4ff410860c,13,0,2024-02-28T14:41:53.371Z,english_7.wav,0,pill,940,36,4,5,français,m,8,0.8,-17.20995774,0.81804206
610d671491693e4ff410860c,13,0,2024-02-28T14:41:53.371Z,english_7.wav,0,pill,940,36,4,5,français,m,9,0.9,38.34852693,0.8839338
610d671491693e4ff410860c,13,0,2024-02-28T14:41:53.371Z,english_7.wav,0,pill,940,36,4,5,français,m,10,1.0,6.34291962,0.72265374
610d671491693e4ff410860c,13,0,2024-02-28T14:41:53.371Z,english_7.wav,0,pill,940,36,4,5,français,m,11,1.09391667,-45.85734326,0.75155419
610d671491693e4ff410860c,14,0,2024-02-28T14:41:53.371Z,english_284.wav,0,peel,779,36,4,5,français,m,0,0.0,-64.32327457,0.91308262
610d671491693e4ff410860c,14,0,2024-02-28T14:41:53.371Z,english_284.wav,0,peel,779,36,4,5,français,m,1,0.1,-67.89025783,0.76791564
610d671491693e4ff410860c,14,0,2024-02-28T14:41:53.371Z,english_284.wav,0,peel,779,36,4,5,français,m,2,0.2,63.39804367,0.83095971
610d671491693e4ff410860c,14,0,2024-02-28T14:41:53.371Z,english_284.wav,0,peel,779,36,4,5,français,m,3,0.3,-47.8895651,1.79742446
610d671491693e4ff410860c,14,0,2024-02-28T14:41:53.371Z,english_284.wav,0,peel,779,36,4,5,français,m,4,0.4,27.68105964,1.18503846
610d671491693e4ff410860c,14,0,2024-02-28T14:41:53.371Z,english_284.wav,0,peel,779,36,4,5,français,m,5,0.5,58.35244252,1.29913938
610d671491693e4ff410860c,14,0,2024-02-28T14:41:53.371Z,english_284.wav,0,peel,779,36,4,5,français,m,6,0.6,-24.74070708,1.72192785
610d671491693e4ff410860c,14,0,2024-02-28T14:41:53.371Z,english_284.wav,0,peel,779,36,4,5,français,m,7,0.7,-82.19387926,1.7387844
610d671491693e4ff410860c,14,0,2024-02-28T14:41:53.371Z,english_284.wav,0,peel,779,36,4,5,français,m,8,0.8,-97.32479033,1.05930336
610d671491693e4ff410860c,14,0,2024-02-28T14:41:53.371Z,english_284.wav,0,peel,779,36,4,5,français,m,9,0.9,99.46728609,0.10150249
610d671491693e4ff410860c,14,0,2024-02-28T14:41:53.371Z,english_284.wav,0,peel,779,36,4,5,français,m,10,1.0,-92.70862536,0.67687392
610d671491693e4ff410860c,14,0,2024-02-28T14:41:53.371Z,english_284.wav,0,peel,779,36,4,5,français,m,11,1.09391667,47.98339035,1.83996488
610d671491693e4ff410860c,15,0,2024-02-28T14:41:53.371Z,english_155.wav,0,peel,497,36,4,5,français,m,0,0.0,21.6550533,0.01570598
610d671491693e4ff410860c,15,0,2024-02-28T14:41:53.371Z,english_155.wav,0,peel,497,36,4,5,français,m,1,0.1,-0.0016794128,1.76749017
610d671491693e4ff410860c,15,0,2024-02-28T14:41:53.371Z,english_155.wav,0,peel,497,36,4,5,français,m,2,0.2,-77.5292073,1.37583653
610d671491693e4ff410860c,15,0,2024-02-28T14:41:53.371Z,english_155.wav,0,peel,497,36,4,5,français,m,3,0.3,-44.9313065,0.19365623
610d671491693e4ff410860c,15,0,2024-02-28T14:41:53.371Z,english_155.wav,0,peel,497,36,4,5,français,m,4,0.4,-33.7969309,1.34202306
610d671491693e4ff410860c,15,0,2024-02-28T14:41:53.371Z,english_155.wav,0,peel,497,36,4,5,français,m,5,0.5,46.2285188,1.87351349
610d671491693e4ff410860c,15,0,2024-02-28T14:41:53.371Z,english_155.wav,0,peel,497,36,4,5,français,m,6,0.6,93.0191022,1.89118344
610d671491693e4ff410860c,15,0,2024-02-28T14:41:53.371Z,english_155.wav,0,peel,497,36,4,5,français,m,7,0.7,80.6417886,1.25713993
610d671491693e4ff410860c,15,0,2024-02-28T14:41:53.371Z,english_155.wav,0,peel,497,36,4,5,français,m,8,0.8,-76.4782648,1.84259347
610d671491693e4ff410860c,15,0,2024-02-28T14:41:53.371Z,english_155.wav,0,peel,497,36,4,5,français,m,9,0.9,-35.964927,0.04007403
610d671491693e4ff410860c,15,0,2024-02-28T14:41:53.371Z,english_155.wav,0,peel,497,36,4,5,français,m,10,1.0,90.375739,1.64837519
610d671491693e4ff410860c,15,0,2024-02-28T14:41:53.371Z,english_155.wav,0,peel,497,36,4,5,français,m,11,1.09391667,66.476003,1.87071869
610d671491693e4ff410860c,16,0,2024-02-28T14:41:53.371Z,english_163.wav,0,peel,400,36,4,5,français,m,0,0.0,-75.52696483,0.21633828
610d671491693e4ff410860c,16,0,2024-02-28T14:41:53.371Z,english_163.wav,0,peel,400,36,4,5,français,m,1,0.1,-50.94410786,0.31603177
610d671491693e4ff410860c,16,0,2024-02-28T14:41:53.371Z,english_163.wav,0,peel,400,36,4,5,français,m,2,0.2,-38.29944429,1.04333718
610d671491693e4ff410860c,16,0,2024-02-28T14:41:53.371Z,english_163.wav,0,peel,400,36,4,5,français,m,3,0.3,-32.57127411,1.57763682
610d671491693e4ff410860c,16,0,2024-02-28T14:41:53.371Z,english_163.wav,0,peel,400,36,4,5,français,m,4,0.4,-30.55941116,0.14485533
610d671491693e4ff410860c,16,0,2024-02-28T14:41:53.371Z,english_163.wav,0,peel,400,36,4,5,français,m,5,0.5,-14.52407307,1.53043555
610d671491693e4ff410860c,16,0,2024-02-28T14:41:53.371Z,english_163.wav,0,peel,400,36,4,5,français,m,6,0.6,28.48601544,0.0734581
610d671491693e4ff410860c,16,0,2024-02-28T14:41:53.371Z,english_163.wav,0,peel,400,36,4,5,français,m,7,0.7,-14.30599007,1.19104414
610d671491693e4ff410860c,16,0,2024-02-28T14:41:53.371Z,english_163.wav,0,peel,400,36,4,5,français,m,8,0.8,38.98323909,0.4056819
610d671491693e4ff410860c,16,0,2024-02-28T14:41:53.371Z,english_163.wav,0,peel,400,36,4,5,français,m,9,0.9,-70.97720427,1.30823112
610d671491693e4ff410860c,16,0,2024-02-28T14:41:53.371Z,english_163.wav,0,peel,400,36,4,5,français,m,10,1.0,-31.77991107,1.63835528
610d671491693e4ff410860c,16,0,2024-02-28T14:41:53.371Z,english_163.wav,0,peel,400,36,4,5,français,m,11,1.09391667,-57.22342155,1.03131117
610d671491693e4ff410860c,17,0,2024-02-28T14:41:53.371Z,english_106.wav,0,pill,422,36,4,5,français,m,0,0.0,49.34223169,0.13389709
610d671491693e4ff410860c,17,0,2024-02-28T14:41:53.371Z,english_106.wav,0,pill,422,36,4,5,français,m,1,0.1,-45.57503338,0.25174437
610d671491693e4ff410860c,17,0,2024-02-28T14:41:53.371Z,english_106.wav,0,pill,422,36,4,5,français,m,2,0.2,-15.08492624,0.82402432
610d671491693e4ff410860c,17,0,2024-02-28T14:41:53.371Z,english_106.wav,0,pill,422,36,4,5,français,m,3,0.3,-19.8979669,0.82208583
610d671491693e4ff410860c,17,0,2024-02-28T14:41:53.371Z,english_106.wav,0,pill,422,36,4,5,français,m,4,0.4,-25.53796799,1.38135822
610d671491693e4ff410860c,17,0,2024-02-28T14:41:53.371Z,english_106.wav,0,pill,422,36,4,5,français,m,5,0.5,88.30993321,0.76093903
610d671491693e4ff410860c,17,0,2024-02-28T14:41:53.371Z,english_106.wav,0,pill,422,36,4,5,français,m,6,0.6,-64.76962788,0.57981415
610d671491693e4ff410860c,17,0,2024-02-28T14:41:53.371Z,english_106.wav,0,pill,422,36,4,5,français,m,7,0.7,-39.71315935,1.62636068
610d671491693e4ff410860c,17,0,2024-02-28T14:41:53.371Z,english_106.wav,0,pill,422,36,4,5,français,m,8,0.8,92.87896843,1.17795772
610d671491693e4ff410860c,17,0,2024-02-28T14:41:53.371Z,english_106.wav,0,pill,422,36,4,5,français,m,9,0.9,-52.99965121,0.06230935
610d671491693e4ff410860c,17,0,2024-02-28T14:41:53.371Z,english_106.wav,0,pill,422,36,4,5,français,m,10,1.0,37.25809924,0.54036795
610d671491693e4ff410860c,17,0,2024-02-28T14:41:53.371Z,english_106.wav,0,pill,422,36,4,5,français,m,11,1.09391667,83.50306975,1.72343759
610d671491693e4ff410860c,18,0,2024-02-28T14:41:53.371Z,english_522.wav,0,peel,447,36,4,5,français,m,0,0.0,-41.53907187,0.57004443
610d671491693e4ff410860c,18,0,2024-02-28T14:41:53.371Z,english_522.wav,0,peel,447,36,4,5,français,m,1,0.1,-34.77242331,0.9419408
610d671491693e4ff410860c,18,0,2024-02-28T14:41:53.371Z,english_522.wav,0,peel,447,36,4,5,français,m,2,0.2,44.84688975,1.66104168
610d671491693e4ff410860c,18,0,2024-02-28T14:41:53.371Z,english_522.wav,0,peel,447,36,4,5,français,m,3,0.3,0.52781467,0.91446022
610d671491693e4ff410860c,18,0,2024-02-28T14:41:53.371Z,english_522.wav,0,peel,447,36,4,5,français,m,4,0.4,-85.49095183,1.87910308
610d671491693e4ff410860c,18,0,2024-02-28T14:41:53.371Z,english_522.wav,0,peel,447,36,4,5,français,m,5,0.5,49.75805681,1.6772423
610d671491693e4ff410860c,18,0,2024-02-28T14:41:53.371Z,english_522.wav,0,peel,447,36,4,5,français,m,6,0.6,-34.01238983,1.00245935
610d671491693e4ff410860c,18,0,2024-02-28T14:41:53.371Z,english_522.wav,0,peel,447,36,4,5,français,m,7,0.7,-76.80695945,1.44049733
610d671491693e4ff410860c,18,0,2024-02-28T14:41:53.371Z,english_522.wav,0,peel,447,36,4,5,français,m,8,0.8,57.48181657,0.74965877
610d671491693e4ff410860c,18,0,2024-02-28T14:41:53.371Z,english_522.wav,0,peel,447,36,4,5,français,m,9,0.9,-42.740182,1.30386633
610d671491693e4ff410860c,18,0,2024-02-28T14:41:53.371Z,english_522.wav,0,peel,447,36,4,5,français,m,10,1.0,76.48970234,1.30270801
610d671491693e4ff410860c,18,0,2024-02-28T14:41:53.371Z,english_522.wav,0,peel,447,36,4,5,français,m,11,1.09391667,-24.33451257,0.47933239
610d671491693e4ff410860c,19,0,2024-02-28T14:41:53.371Z,english_399.wav,0,peel,440,36,4,5,français,m,0,0.0,7.35119233,1.43512774
610d671491693e4ff410860c,19,0,2024-02-28T14:41:53.371Z,english_399.wav,0,peel,440,36,4,5,français,m,1,0.1,7.30105906,1.7056904
610d671491693e4ff410860c,19,0,2024-02-28T14:41:53.371Z,english_399.wav,0,peel,440,36,4,5,français,m,2,0.2,-55.03587691,1.60882656
610d671491693e4ff410860c,19,0,2024-02-28T14:41:53.371Z,english_399.wav,0,peel,440,36,4,5,français,m,3,0.3,63.9361431,1.57397844
610d671491693e4ff410860c,19,0,2024-02-28T14:41:53.371Z,english_399.wav,0,peel,440,36,4,5,français,m,4,0.4,44.6049307,0.93377042
610d671491693e4ff410860c,19,0,2024-02-28T14:41:53.371Z,english_399.wav,0,peel,440,36,4,5,français,m,5,0.5,68.42668929,1.9481779
610d671491693e4ff410860c,19,0,2024-02-28T14:41:53.371Z,english_399.wav,0,peel,440,36,4,5,français,m,6,0.6,54.53895784,1.40688071
610d671491693e4ff410860c,19,0,2024-02-28T14:41:53.371Z,english_399.wav,0,peel,440,36,4,5,français,m,7,0.7,87.63954028,0.69376281
610d671491693e4ff410860c,19,0,2024-02-28T14:41:53.371Z,english_399.wav,0,peel,440,36,4,5,français,m,8,0.8,-0.41432999,1.28838791
610d671491693e4ff410860c,19,0,2024-02-28T14:41:53.371Z,english_399.wav,0,peel,440,36,4,5,français,m,9,0.9,24.60615905,0.52758228
610d671491693e4ff410860c,19,0,2024-02-28T14:41:53.371Z,english_399.wav,0,peel,440,36,4,5,français,m,10,1.0,-97.67130798,0.96519431
610d671491693e4ff410860c,19,0,2024-02-28T14:41:53.371Z,english_399.wav,0,peel,440,36,4,5,français,m,11,1.09391667,61.44027276,1.05566464
610d671491693e4ff410860c,20,0,2024-02-28T14:41:53.371Z,english_90.wav,0,peel,490,36,4,5,français,m,0,0.0,63.54924995,1.34228215
610d671491693e4ff410860c,20,0,2024-02-28T14:41:53.371Z,english_90.wav,0,peel,490,36,4,5,français,m,1,0.1,-59.21327506,1.34732724
610d671491693e4ff410860c,20,0,2024-02-28T14:41:53.371Z,english_90.wav,0,peel,490,36,4,5,français,m,2,0.2,34.58495613,1.75147993
610d671491693e4ff410860c,20,0,2024-02-28T14:41:53.371Z,english_90.wav,0,peel,490,36,4,5,français,m,3,0.3,3.2427236,0.03089284
610d671491693e4ff410860c,20,0,2024-02-28T14:41:53.371Z,english_90.wav,0,peel,490,36,4,5,français,m,4,0.4,1.17936493,1.52341973
610d671491693e4ff410860c,20,0,2024-02-28T14:41:53.371Z,english_90.wav,0,peel,490,36,4,5,français,m,5,0.5,50.51297544,0.97925583
610d671491693e4ff410860c,20,0,2024-02-28T14:41:53.371Z,english_90.wav,0,peel,490,36,4,5,français,m,6,0.6,61.04656064,1.17642538
610d671491693e4ff410860c,20,0,2024-02-28T14:41:53.371Z,english_90.wav,0,peel,490,36,4,5,français,m,7,0.7,-96.36424089,1.13367306
610d671491693e4ff410860c,20,0,2024-02-28T14:41:53.371Z,english_90.wav,0,peel,490,36,4,5,français,m,8,0.8,9.94738881,1.45431282
610d671491693e4ff410860c,20,0,2024-02-28T14:41:53.371Z,english_90.wav,0,peel,490,36,4,5,français,m,9,0.9,-95.56108651,0.56738547
610d671491693e4ff410860c,20,0,2024-02-28T14:41:53.371Z,english_90.wav,0,peel,490,36,4,5,français,m,10,1.0,-78.91453265,1.10123663
610d671491693e4ff410860c,20,0,2024-02-28T14:41:53.371Z,english_90.wav,0,peel,490,36,4,5,français,m,11,1.09391667,57.06664979,0.76686745
610d671491693e4ff410860c,21,0,2024-02-28T14:41:53.371Z,english_353.wav,0,pill,622,36,4,5,français,m,0,0.0,-70.67724429,1.06843483
610d671491693e4ff410860c,21,0,2024-02-28T14:41:53.371Z,english_353.wav,0,pill,622,36,4,5,français,m,1,0.1,-71.688049,0.77169117
610d671491693e4ff410860c,21,0,2024-02-28T14:41:53.371Z,english_353.wav,0,pill,622,36,4,5,français,m,2,0.2,35.51924952,1.46248358
610d671491693e4ff410860c,21,0,2024-02-28T14:41:53.371Z,english_353.wav,0,pill,622,36,4,5,français,m,3,0.3,-2.11218413,1.49078151
610d671491693e4ff410860c,21,0,2024-02-28T14:41:53.371Z,english_353.wav,0,pill,622,36,4,5,français,m,4,0.4,-16.43862389,1.12150818
610d671491693e4ff410860c,21,0,2024-02-28T14:41:53.371Z,english_353.wav,0,pill,622,36,4,5,français,m,5,0.5,42.52341858,1.51009479
610d671491693e4ff410860c,21,0,2024-02-28T14:41:53.371Z,english_353.wav,0,pill,622,36,4,5,français,m,6,0.6,-45.01562353,1.56291015
610d671491693e4ff410860c,21,0,2024-02-28T14:41:53.371Z,english_353.wav,0,pill,622,36,4,5,français,m,7,0.7,41.4367476,1.91892948
610d671491693e4ff410860c,21,0,2024-02-28T14:41:53.371Z,english_353.wav,0,pill,622,36,4,5,français,m,8,0.8,-7.80846777,1.01197455
610d671491693e4ff410860c,21,0,2024-02-28T14:41:53.371Z,english_353.wav,0,pill,622,36,4,5,français,m,9,0.9,42.15448352,1.4134273
610d671491693e4ff410860c,21,0,2024-02-28T14:41:53.371Z,english_353.wav,0,pill,622,36,4,5,français,m,10,1.0,92.0591742,1.42236133
610d671491693e4ff410860c,21,0,2024-02-28T14:41:53.371Z,english_353.wav,0,pill,622,36,4,5,français,m,11,1.09391667,-12.12221809,0.78816947
610d671491693e4ff410860c,22,0,2024-02-28T14:41:53.371Z,english_39.wav,0,peel,367,36,4,5,français,m,0,0.0,34.55093166,1.34796705
610d671491693e4ff410860c,22,0,2024-02-28T14:41:53.371Z,english_39.wav,0,peel,367,36,4,5,français,m,1,0.1,-1.41260387,0.08491471
610d671491693e4ff410860c,22,0,2024-02-28T14:41:53.371Z,english_39.wav,0,peel,367,36,4,5,français,m,2,0.2,91.9059208,1.67265438
610d671491693e4ff410860c,22,0,2024-02-28T14:41:53.371Z,english_39.wav,0,peel,367,36,4,5,français,m,3,0.3,67.91256725,0.89650698
610d671491693e4ff410860c,22,0,2024-02-28T14:41:53.371Z,english_39.wav,0,peel,367,36,4,5,français,m,4,0.4,-65.38565065,0.64014049
610d671491693e4ff410860c,22,0,2024-02-28T14:41:53.371Z,english_39.wav,0,peel,367,36,4,5,français,m,5,0.5,-78.2257863,1.50034896
610d671491693e4ff410860c,22,0,2024-02-28T14:41:53.371Z,english_39.wav,0,peel,367,36,4,5,français,m,6,0.6,-21.37966567,0.90896714
610d671491693e4ff410860c,22,0,2024-02-28T14:41:53.371Z,english_39.wav,0,peel,367,36,4,5,français,m,7,0.7,29.85741907,1.5349886
610d671491693e4ff410860c,22,0,2024-02-28T14:41:53.371Z,english_39.wav,0,peel,367,36,4,5,français,m,8,0.8,-64.93181205,0.91983464
610d671491693e4ff410860c,22,0,2024-02-28T14:41:53.371Z,english_39.wav,0,peel,367,36,4,5,français,m,9,0.9,27.95057541,1.17583732
610d671491693e4ff410860c,22,0,2024-02-28T14:41:53.371Z,english_39.wav,0,peel,367,36,4,5,français,m,10,1.0,5.43341778,1.89111311
610d671491693e4ff410860c,22,0,2024-02-28T14:41:53.371Z,english_39.wav,0,peel,367,36,4,5,français,m,11,1.09391667,-89.64672073,1.19651243
610d671491693e4ff410860c,23,0,2024-02-28T14:41:53.371Z,english_26.wav,0,pill,688,36,4,5,français,m,0,0.0,-47.00443728,0.76495966
610d671491693e4ff410860c,23,0,2024-02-28T14:41:53.371Z,english_26.wav,0,pill,688,36,4,5,français,m,1,0.1,-34.82629788,0.39579578
610d671491693e4ff410860c,23,0,2024-02-28T14:41:53.371Z,english_26.wav,0,pill,688,36,4,5,français,m,2,0.2,24.7004615,0.94110956
610d671491693e4ff410860c,23,0,2024-02-28T14:41:53.371Z,english_26.wav,0,pill,688,36,4,5,français,m,3,0.3,58.84625328,1.03122295
610d671491693e4ff410860c,23,0,2024-02-28T14:41:53.371Z,english_26.wav,0,pill,688,36,4,5,français,m,4,0.4,35.91387632,0.44153341
610d671491693e4ff410860c,23,0,2024-02-28T14:41:53.371Z,english_26.wav,0,pill,688,36,4,5,français,m,5,0.5,-49.42977929,0.19802805
610d671491693e4ff410860c,23,0,2024-02-28T14:41:53.371Z,english_26.wav,0,pill,688,36,4,5,français,m,6,0.6,63.62799551,0.5127439
610d671491693e4ff410860c,23,0,2024-02-28T14:41:53.371Z,english_26.wav,0,pill,688,36,4,5,français,m,7,0.7,-20.10119494,1.41060294
610d671491693e4ff410860c,23,0,2024-02-28T14:41:53.371Z,english_26.wav,0,pill,688,36,4,5,français,m,8,0.8,-32.9417882,0.36769689
610d671491693e4ff410860c,23,0,2024-02-28T14:41:53.371Z,english_26.wav,0,pill,688,36,4,5,français,m,9,0.9,-76.94114545,0.44844399
610d671491693e4ff410860c,23,0,2024-02-28T14:41:53.371Z,english_26.wav,0,pill,688,36,4,5,français,m,10,1.0,55.52160425,0.43574826
610d671491693e4ff410860c,23,0,2024-02-28T14:41:53.371Z,english_26.wav,0,pill,688,36,4,5,français,m,11,1.09391667,-26.0703889,0.40615906
610d671491693e4ff410860c,24,0,2024-02-28T14:41:53.371Z,english_414.wav,0,peel,348,36,4,5,français,m,0,0.0,-7.03040906,1.53438074
610d671491693e4ff410860c,24,0,2024-02-28T14:41:53.371Z,english_414.wav,0,peel,348,36,4,5,français,m,1,0.1,-5.82495626,1.95928517
610d671491693e4ff410860c,24,0,2024-02-28T14:41:53.371Z,english_414.wav,0,peel,348,36,4,5,français,m,2,0.2,-2.66835352,1.73189387
610d671491693e4ff410860c,24,0,2024-02-28T14:41:53.371Z,english_414.wav,0,peel,348,36,4,5,français,m,3,0.3,-59.72056864,1.8329069
610d671491693e4ff410860c,24,0,2024-02-28T14:41:53.371Z,english_414.wav,0,peel,348,36,4,5,français,m,4,0.4,44.4623709,1.79888129
610d671491693e4ff410860c,24,0,2024-02-28T14:41:53.371Z,english_414.wav,0,peel,348,36,4,5,français,m,5,0.5,-43.61302568,0.54974626
610d671491693e4ff410860c,24,0,2024-02-28T14:41:53.371Z,english_414.wav,0,peel,348,36,4,5,français,m,6,0.6,69.2168607,1.59944318
610d671491693e4ff410860c,24,0,2024-02-28T14:41:53.371Z,english_414.wav,0,peel,348,36,4,5,français,m,7,0.7,92.16151545,0.63993653
610d671491693e4ff410860c,24,0,2024-02-28T14:41:53.371Z,english_414.wav,0,peel,348,36,4,5,français,m,8,0.8,74.54688425,0.28985998
610d671491693e4ff410860c,24,0,2024-02-28T14:41:53.371Z,english_414.wav,0,peel,348,36,4,5,français,m,9,0.9,3.36775838,0.49016728
610d671491693e4ff410860c,24,0,2024-02-28T14:41:53.371Z,english_414.wav,0,peel,348,36,4,5,français,m,10,1.0,-65.34358207,1.26877749
610d671491693e4ff410860c,24,0,2024-02-28T14:41:53.371Z,english_414.wav,0,peel,348,36,4,5,français,m,11,1.09391667,36.44921696,1.3437293
610d671491693e4ff410860c,25,0,2024-02-28T14:41:53.371Z,english_639.wav,0,peel,345,36,4,5,français,m,0,0.0,5.56347498,1.83509432
610d671491693e4ff410860c,25,0,2024-02-28T14:41:53.371Z,english_639.wav,0,peel,345,36,4,5,français,m,1,0.1,75.73661073,0.44211572
610d671491693e4ff410860c,25,0,2024-02-28T14:41:53.371Z,english_639.wav,0,peel,345,36,4,5,français,m,2,0.2,-90.85300276,1.03578017
610d671491693e4ff410860c,25,0,2024-02-28T14:41:53.371Z,english_639.wav,0,peel,345,36,4,5,français,m,3,0.3,-28.02471483,0.46973677
610d671491693e4ff410860c,25,0,2024-02-28T14:41:53.371Z,english_639.wav,0,peel,345,36,4,5,français,m,4,0.4,-62.26468724,0.54820752
610d671491693e4ff410860c,25,0,2024-02-28T14:41:53.371Z,english_639.wav,0,peel,345,36,4,5,français,m,5,0.5,17.80250947,0.51964922
610d671491693e4ff410860c,25,0,2024-02-28T14:41:53.371Z,english_639.wav,0,peel,345,36,4,5,français,m,6,0.6,29.29879682,0.06117772
610d671491693e4ff410860c,25,0,2024-02-28T14:41:53.371Z,english_639.wav,0,peel,345,36,4,5,français,m,7,0.7,-6.14897809,0.67480304
610d671491693e4ff410860c,25,0,2024-02-28T14:41:53.371Z,english_639.wav,0,peel,345,36,4,5,français,m,8,0.8,-11.9254819,0.85869346
610d671491693e4ff410860c,25,0,2024-02-28T14:41:53.371Z,english_639.wav,0,peel,345,36,4,5,français,m,9,0.9,6.20327944,1.90136883
610d671491693e4ff410860c,25,0,2024-02-28T14:41:53.371Z,english_639.wav,0,peel,345,36,4,5,français,m,10,1.0,-44.51875699,1.31276151
610d671491693e4ff410860c,25,0,2024-02-28T14:41:53.371Z,english_639.wav,0,peel,345,36,4,5,français,m,11,1.09391667,52.00361599,1.93524577
610d671491693e4ff410860c,26,0,2024-02-28T14:41:53.371Z,english_794.wav,0,pill,415,36,4,5,français,m,0,0.0,-94.32956865,0.17232345
610d671491693e4ff410860c,26,0,2024-02-28T14:41:53.371Z,english_794.wav,0,pill,415,36,4,5,français,m,1,0.1,-54.44529308,0.63768668
610d671491693e4ff410860c,26,0,2024-02-28T14:41:53.371Z,english_794.wav,0,pill,415,36,4,5,français,m,2,0.2,41.27752313,0.54334699
610d671491693e4ff410860c,26,0,2024-02-28T14:41:53.371Z,english_794.wav,0,pill,415,36,4,5,français,m,3,0.3,-24.41011935,0.41814183
610d671491693e4ff410860c,26,0,2024-02-28T14:41:53.371Z,english_794.wav,0,pill,415,36,4,5,français,m,4,0.4,-17.86009113,0.83205575
610d671491693e4ff410860c,26,0,2024-02-28T14:41:53.371Z,english_794.wav,0,pill,415,36,4,5,français,m,5,0.5,70.96620098,1.38587001
610d671491693e4ff410860c,26,0,2024-02-28T14:41:53.371Z,english_794.wav,0,pill,415,36,4,5,français,m,6,0.6,-6.92588192,0.50257762
610d671491693e4ff410860c,26,0,2024-02-28T14:41:53.371Z,english_794.wav,0,pill,415,36,4,5,français,m,7,0.7,1.86567935,1.6396819
610d671491693e4ff410860c,26,0,2024-02-28T14:41:53.371Z,english_794.wav,0,pill,415,36,4,5,français,m,8,0.8,85.29780195,1.19491374
610d671491693e4ff410860c,26,0,2024-02-28T14:41:53.371Z,english_794.wav,0,pill,415,36,4,5,français,m,9,0.9,66.99714839,0.22376499
610d671491693e4ff410860c,26,0,2024-02-28T14:41:53.371Z,english_794.wav,0,pill,415,36,4,5,français,m,10,1.0,34.72052642,0.81945326
610d671491693e4ff410860c,26,0,2024-02-28T14:41:53.371Z,english_794.wav,0,pill,415,36,4,5,français,m,11,1.09391667,18.1862992,1.51337696
610d671491693e4ff410860c,27,0,2024-02-28T14:41:53.371Z,english_174.wav,0,peel,556,36,4,5,français,m,0,0.0,-1.27352161,1.81219165
610d671491693e4ff410860c,27,0,2024-02-28T14:41:53.371Z,english_174.wav,0,peel,556,36,4,5,français,m,1,0.1,-67.76486912,0.77028854
610d671491693e4ff410860c,27,0,2024-02-28T14:41:53.371Z,english_174.wav,0,peel,556,36,4,5,français,m,2,0.2,38.59821356,0.44136445
610d671491693e4ff410860c,27,0,2024-02-28T14:41:53.371Z,english_174.wav,0,peel,556,36,4,5,français,m,3,0.3,-68.30936474,1.01129338
610d671491693e4ff410860c,27,0,2024-02-28T14:41:53.371Z,english_174.wav,0,peel,556,36,4,5,français,m,4,0.4,-90.24428589,0.76518489
610d671491693e4ff410860c,27,0,2024-02-28T14:41:53.371Z,english_174.wav,0,peel,556,36,4,5,français,m,5,0.5,-78.84758788,1.51905633
610d671491693e4ff410860c,27,0,2024-02-28T14:41:53.371Z,english_174.wav,0,peel,556,36,4,5,français,m,6,0.6,82.67516556,0.9260744
610d671491693e4ff410860c,27,0,2024-02-28T14:41:53.371Z,english_174.wav,0,peel,556,36,4,5,français,m,7,0.7,27.65744762,1.48661059
610d671491693e4ff410860c,27,0,2024-02-28T14:41:53.371Z,english_174.wav,0,peel,556,36,4,5,français,m,8,0.8,82.5621195,0.13101211
610d671491693e4ff410860c,27,0,2024-02-28T14:41:53.371Z,english_174.wav,0,peel,556,36,4,5,français,m,9,0.9,22.03109017,0.66605082
610d671491693e4ff410860c,27,0,2024-02-28T14:41:53.371Z,english_174.wav,0,peel,556,36,4,5,français,m,10,1.0,97.22651297,0.90549752
610d671491693e4ff410860c,27,0,2024-02-28T14:41:53.371Z,english_174.wav,0,peel,556,36,4,5,français,m,11,1.09391667,6.30116613,1.52579229
610d671491693e4ff410860c,28,0,2024-02-28T14:41:53.371Z,english_150.wav,0,peel,313,36,4,5,français,m,0,0.0,-50.54232549,1.16258998
610d671491693e4ff410860c,28,0,2024-02-28T14:41:53.371Z,english_150.wav,0,peel,313,36,4,5,français,m,1,0.1,34.32153656,0.79689364
610d671491693e4ff410860c,28,0,2024-02-28T14:41:53.371Z,english_150.wav,0,peel,313,36,4,5,français,m,2,0.2,-10.92395048,0.16790755
610d671491693e4ff410860c,28,0,2024-02-28T14:41:53.371Z,english_150.wav,0,peel,313,36,4,5,français,m,3,0.3,53.72738624,0.35039588
610d671491693e4ff410860c,28,0,2024-02-28T14:41:53.371Z,english_150.wav,0,peel,313,36,4,5,français,m,4,0.4,62.41801081,0.24836215
610d671491693e4ff410860c,28,0,2024-02-28T14:41:53.371Z,english_150.wav,0,peel,313,36,4,5,français,m,5,0.5,-32.60317387,0.38408886
610d671491693e4ff410860c,28,0,2024-02-28T14:41:53.371Z,english_150.wav,0,peel,313,36,4,5,français,m,6,0.6,-14.80411838,0.47894499
610d671491693e4ff410860c,28,0,2024-02-28T14:41:53.371Z,english_150.wav,0,peel,313,36,4,5,français,m,7,0.7,55.20966729,1.81942338
610d671491693e4ff410860c,28,0,2024-02-28T14:41:53.371Z,english_150.wav,0,peel,313,36,4,5,français,m,8,0.8,-74.0684305,1.36079379
610d671491693e4ff410860c,28,0,2024-02-28T14:41:53.371Z,english_150.wav,0,peel,313,36,4,5,français,m,9,0.9,-4.87965611,1.63972786
610d671491693e4ff410860c,28,0,2024-02-28T14:41:53.371Z,english_150.wav,0,peel,313,36,4,5,français,m,10,1.0,-79.50813125,1.65428446
610d671491693e4ff410860c,28,0,2024-02-28T14:41:53.371Z,english_150.wav,0,peel,313,36,4,5,français,m,11,1.09391667,24.9492826,1.31063675
610d671491693e4ff410860c,29,0,2024-02-28T14:41:53.371Z,english_131.wav,0,pill,511,36,4,5,français,m,0,0.0,0.31363537,1.18724551
610d671491693e4ff410860c,29,0,2024-02-28T14:41:53.371Z,english_131.wav,0,pill,511,36,4,5,français,m,1,0.1,36.71486201,1.11707061
610d671491693e4ff410860c,29,0,2024-02-28T14:41:53.371Z,english_131.wav,0,pill,511,36,4,5,français,m,2,0.2,-43.77123754,0.00275246
610d671491693e4ff410860c,29,0,2024-02-28T14:41:53.371Z,english_131.wav,0,pill,511,36,4,5,français,m,3,0.3,-25.02514695,1.15512468
610d671491693e4ff410860c,29,0,2024-02-28T14:41:53.371Z,english_131.wav,0,pill,511,36,4,5,français,m,4,0.4,-57.33579205,1.12677457
610d671491693e4ff410860c,29,0,2024-02-28T14:41:53.371Z,english_131.wav,0,pill,511,36,4,5,français,m,5,0.5,-86.86546268,1.05779514
610d671491693e4ff410860c,29,0,2024-02-28T14:41:53.371Z,english_131.wav,0,pill,511,36,4,5,français,m,6,0.6,34.68309006,1.76361287
610d671491693e4ff410860c,29,0,2024-02-28T14:41:53.371Z,english_131.wav,0,pill,511,36,4,5,français,m,7,0.7,-54.571254,1.49422438
610d671491693e4ff410860c,29,0,2024-02-28T14:41:53.371Z,english_131.wav,0,pill,511,36,4,5,français,m,8,0.8,15.2602828,0.77084465
610d671491693e4ff410860c,29,0,2024-02-28T14:41:53.371Z,english_131.wav,0,pill,511,36,4,5,français,m,9,0.9,37.40968803,0.77617306
610d671491693e4ff410860c,29,0,2024-02-28T14:41:53.371Z,english_131.wav,0,pill,511,36,4,5,français,m,10,1.0,-75.44923375,0.87602882
610d671491693e4ff410860c,29,0,2024-02-28T14:41:53.371Z,english_131.wav,0,pill,511,36,4,5,français,m,11,1.09391667,22.36121129,1.56580011
610d671491693e4ff410860c,30,0,2024-02-28T14:41:53.371Z,english_785.wav,0,pill,627,36,4,5,français,m,0,0.0,-73.74150429,1.15978121
610d671491693e4ff410860c,30,0,2024-02-28T14:41:53.371Z,english_785.wav,0,pill,627,36,4,5,français,m,1,0.1,-10.25262424,1.76239803
610d671491693e4ff410860c,30,0,2024-02-28T14:41:53.371Z,english_785.wav,0,pill,627,36,4,5,français,m,2,0.2,-91.38996228,1.35267709
610d671491693e4ff410860c,30,0,2024-02-28T14:41:53.371Z,english_785.wav,0,pill,627,36,4,5,français,m,3,0.3,-58.16150792,0.50742704
610d671491693e4ff410860c,30,0,2024-02-28T14:41:53.371Z,english_785.wav,0,pill,627,36,4,5,français,m,4,0.4,56.13851827,1.43887546
610d671491693e4ff410860c,30,0,2024-02-28T14:41:53.371Z,english_785.wav,0,pill,627,36,4,5,français,m,5,0.5,-53.87138426,0.30204401
610d671491693e4ff410860c,30,0,2024-02-28T14:41:53.371Z,english_785.wav,0,pill,627,36,4,5,français,m,6,0.6,-26.51328271,0.04616459
610d671491693e4ff410860c,30,0,2024-02-28T14:41:53.371Z,english_785.wav,0,pill,627,36,4,5,français,m,7,0.7,38.10109315,0.31028806
610d671491693e4ff410860c,30,0,2024-02-28T14:41:53.371Z,english_785.wav,0,pill,627,36,4,5,français,m,8,0.8,-52.27058488,1.01215639
610d671491693e4ff410860c,30,0,2024-02-28T14:41:53.371Z,english_785.wav,0,pill,627,36,4,5,français,m,9,0.9,61.81362114,1.14370061
610d671491693e4ff410860c,30,0,2024-02-28T14:41:53.371Z,english_785.wav,0,pill,627,36,4,5,français,m,10,1.0,-48.3420263,1.51703025
610d671491693e4ff410860c,30,0,2024-02-28T14:41:53.371Z,english_785.wav,0,pill,627,36,4,5,français,m,11,1.09391667,5.55581958,0.02011385
610d671491693e4ff410860c,31,0,2024-02-28T14:41:53.371Z,english_417.wav,0,peel,505,36,4,5,français,m,0,0.0,29.37383655,1.92425936
610d671491693e4ff410860c,31,0,2024-02-28T14:41:53.371Z,english_417.wav,0,peel,505,36,4,5,français,m,1,0.1,23.19156398,0.6229039
610d671491693e4ff410860c,31,0,2024-02-28T14:41:53.371Z,english_417.wav,0,peel,505,36,4,5,français,m,2,0.2,85.81337763,1.36154183
610d671491693e4ff410860c,31,0,2024-02-28T14:41:53.371Z,english_417.wav,0,peel,505,36,4,5,français,m,3,0.3,-29.64908449,0.09031289
610d671491693e4ff410860c,31,0,2024-02-28T14:41:53.371Z,english_417.wav,0,peel,505,36,4,5,français,m,4,0.4,8.97904128,0.90960709
610d671491693e4ff410860c,31,0,2024-02-28T14:41:53.371Z,english_417.wav,0,peel,505,36,4,5,français,m,5,0.5,39.22706603,1.25920128
610d671491693e4ff410860c,31,0,2024-02-28T14:41:53.371Z,english_417.wav,0,peel,505,36,4,5,français,m,6,0.6,61.83715867,1.48525242
610d671491693e4ff410860c,31,0,2024-02-28T14:41:53.371Z,english_417.wav,0,peel,505,36,4,5,français,m,7,0.7,-85.41027475,0.60232136
610d671491693e4ff410860c,31,0,2024-02-28T14:41:53.371Z,english_417.wav,0,peel,505,36,4,5,français,m,8,0.8,73.95238576,0.50952592
610d671491693e4ff410860c,31,0,2024-02-28T14:41:53.371Z,english_417.wav,0,peel,505,36,4,5,français,m,9,0.9,27.80762862,0.22145612
610d671491693e4ff410860c,31,0,2024-02-28T14:41:53.371Z,english_417.wav,0,peel,505,36,4,5,français,m,10,1.0,-27.42196196,0.91644458
610d671491693e4ff410860c,31,0,2024-02-28T14:41:53.371Z,english_417.wav,0,peel,505,36,4,5,français,m,11,1.09391667,-33.44848628,1.07641807
610d671491693e4ff410860c,32,0,2024-02-28T14:41:53.371Z,english_873.wav,0,peel,417,36,4,5,français,m,0,0.0,-5.34184308,0.18534223
610d671491693e4ff410860c,32,0,2024-02-28T14:41:53.371Z,english_873.wav,0,peel,417,36,4,5,français,m,1,0.1,29.86705528,1.00948066
610d671491693e4ff410860c,32,0,2024-02-28T14:41:53.371Z,english_873.wav,0,peel,417,36,4,5,français,m,2,0.2,-53.62087934,0.93104213
610d671491693e4ff410860c,32,0,2024-02-28T14:41:53.371Z,english_873.wav,0,peel,417,36,4,5,français,m,3,0.3,-59.16709203,1.19025309
610d671491693e4ff410860c,32,0,2024-02-28T14:41:53.371Z,english_873.wav,0,peel,417,36,4,5,français,m,4,0.4,69.60141357,1.48608178
610d671491693e4ff410860c,32,0,2024-02-28T14:41:53.371Z,english_873.wav,0,peel,417,36,4,5,français,m,5,0.5,-44.07046907,0.89447273
610d671491693e4ff410860c,32,0,2024-02-28T14:41:53.371Z,english_873.wav,0,peel,417,36,4,5,français,m,6,0.6,55.781826,0.18822797
610d671491693e4ff410860c,32,0,2024-02-28T14:41:53.371Z,english_873.wav,0,peel,417,36,4,5,français,m,7,0.7,-40.21183655,0.79732375
610d671491693e4ff410860c,32,0,2024-02-28T14:41:53.371Z,english_873.wav,0,peel,417,36,4,5,français,m,8,0.8,9.01550121,0.51650354
610d671491693e4ff410860c,32,0,2024-02-28T14:41:53.371Z,english_873.wav,0,peel,417,36,4,5,français,m,9,0.9,-15.28098321,0.06272522
610d671491693e4ff410860c,32,0,2024-02-28T14:41:53.371Z,english_873.wav,0,peel,417,36,4,5,français,m,10,1.0,-64.77079799,1.63736384
610d671491693e4ff410860c,32,0,2024-02-28T14:41:53.371Z,english_873.wav,0,peel,417,36,4,5,français,m,11,1.09391667,80.68199225,1.95600343
610d671491693e4ff410860c,33,0,2024-02-28T14:41:53.371Z,english_998.wav,0,peel,394,36,4,5,français,m,0,0.0,-83.67346728,1.27391906
610d671491693e4ff410860c,33,0,2024-02-28T14:41:53.371Z,english_998.wav,0,peel,394,36,4,5,français,m,1,0.1,-68.43297462,0.75913393
610d671491693e4ff410860c,33,0,2024-02-28T14:41:53.371Z,english_998.wav,0,peel,394,36,4,5,français,m,2,0.2,47.84560439,1.02363825
610d671491693e4ff410860c,33,0,2024-02-28T14:41:53.371Z,english_998.wav,0,peel,394,36,4,5,français,m,3,0.3,71.43971258,1.78775676
610d671491693e4ff410860c,33,0,2024-02-28T14:41:53.371Z,english_998.wav,0,peel,394,36,4,5,français,m,4,0.4,-30.40941836,0.0961221
610d671491693e4ff410860c,33,0,2024-02-28T14:41:53.371Z,english_998.wav,0,peel,394,36,4,5,français,m,5,0.5,69.31214212,1.18933693
610d671491693e4ff410860c,33,0,2024-02-28T14:41:53.371Z,english_998.wav,0,peel,394,36,4,5,français,m,6,0.6,-95.04564508,1.9379163
610d671491693e4ff410860c,33,0,2024-02-28T14:41:53.371Z,english_998.wav,0,peel,394,36,4,5,français,m,7,0.7,-61.88405175,1.91389769
610d671491693e4ff410860c,33,0,2024-02-28T14:41:53.371Z,english_998.wav,0,peel,394,36,4,5,français,m,8,0.8,11.43915949,1.08895614
610d671491693e4ff410860c,33,0,2024-02-28T14:41:53.371Z,english_998.wav,0,peel,394,36,4,5,français,m,9,0.9,79.6365109,1.52042952
610d671491693e4ff410860c,33,0,2024-02-28T14:41:53.371Z,english_998.wav,0,peel,394,36,4,5,français,m,10,1.0,58.29305302,0.38016323
610d671491693e4ff410860c,33,0,2024-02-28T14:41:53.371Z,english_998.wav,0,peel,394,36,4,5,français,m,11,1.09391667,44.0288717,1.77799574
610d671491693e4ff410860c,34,0,2024-02-28T14:41:53.371Z,english_748.wav,0,peel,493,36,4,5,français,m,0,0.0,-33.83596368,1.91287282
610d671491693e4ff410860c,34,0,2024-02-28T14:41:53.371Z,english_748.wav,0,peel,493,36,4,5,français,m,1,0.1,-59.15381013,1.28041444
610d671491693e4ff410860c,34,0,2024-02-28T14:41:53.371Z,english_748.wav,0,peel,493,36,4,5,français,m,2,0.2,-64.86299243,0.04095899
610d671491693e4ff410860c,34,0,2024-02-28T14:41:53.371Z,english_748.wav,0,peel,493,36,4,5,français,m,3,0.3,-73.6430977,0.41914446
610d671491693e4ff410860c,34,0,2024-02-28T14:41:53.371Z,english_748.wav,0,peel,493,36,4,5,français,m,4,0.4,-91.05214173,1.08223978
610d671491693e4ff410860c,34,0,2024-02-28T14:41:53.371Z,english_748.wav,0,peel,493,36,4,5,français,m,5,0.5,-45.40797518,0.2529754
610d671491693e4ff410860c,34,0,2024-02-28T14:41:53.371Z,english_748.wav,0,peel,493,36,4,5,français,m,6,0.6,13.66964743,1.11197698
610d671491693e4ff410860c,34,0,2024-02-28T14:41:53.371Z,english_748.wav,0,peel,493,36,4,5,français,m,7,0.7,95.37065991,0.98751557
610d671491693e4ff410860c,34,0,2024-02-28T14:41:53.371Z,english_748.wav,0,peel,493,36,4,5,français,m,8,0.8,26.41264332,0.20616642
610d671491693e4ff410860c,34,0,2024-02-28T14:41:53.371Z,english_748.wav,0,peel,493,36,4,5,français,m,9,0.9,48.24832417,0.07234113
610d671491693e4ff410860c,34,0,2024-02-28T14:41:53.371Z,english_748.wav,0,peel,493,36,4,5,français,m,10,1.0,52.4867675,0.75683712
610d671491693e4ff410860c,34,0,2024-02-28T14:41:53.371Z,english_748.wav,0,peel,493,36,4,5,français,m,11,1.09391667,-11.31996214,0.73246581
610d671491693e4ff410860c,35,0,2024-02-28T14:41:53.371Z,english_192.wav,0,peel,248,36,4,5,français,m,0,0.0,-44.06496916,1.38059828
610d671491693e4ff410860c,35,0,2024-02-28T14:41:53.371Z,english_192.wav,0,peel,248,36,4,5,français,m,1,0.1,-1.73373059,0.79242211
610d671491693e4ff410860c,35,0,2024-02-28T14:41:53.371Z,english_192.wav,0,peel,248,36,4,5,français,m,2,0.2,-29.10510113,0.7213484
610d671491693e4ff410860c,35,0,2024-02-28T14:41:53.371Z,english_192.wav,0,peel,248,36,4,5,français,m,3,0.3,71.54582207,1.27323666
610d671491693e4ff410860c,35,0,2024-02-28T14:41:53.371Z,english_192.wav,0,peel,248,36,4,5,français,m,4,0.4,47.17920128,0.22557274
610d671491693e4ff410860c,35,0,2024-02-28T14:41:53.371Z,english_192.wav,0,peel,248,36,4,5,français,m,5,0.5,46.36925649,1.52280769
610d671491693e4ff410860c,35,0,2024-02-28T14:41:53.371Z,english_192.wav,0,peel,248,36,4,5,français,m,6,0.6,34.98575102,0.97358447
610d671491693e4ff410860c,35,0,2024-02-28T14:41:53.371Z,english_192.wav,0,peel,248,36,4,5,français,m,7,0.7,51.8668686,0.90127966
610d671491693e4ff410860c,35,0,2024-02-28T14:41:53.371Z,english_192.wav,0,peel,248,36,4,5,français,m,8,0.8,-35.42178409,0.86874685
610d671491693e4ff410860c,35,0,2024-02-28T14:41:53.371Z,english_192.wav,0,peel,248,36,4,5,français,m,9,0.9,-56.11776415,1.58446024
610d671491693e4ff410860c,35,0,2024-02-28T14:41:53.371Z,english_192.wav,0,peel,248,36,4,5,français,m,10,1.0,-44.79305263,1.51736237
610d671491693e4ff410860c,35,0,2024-02-28T14:41:53.371Z,english_192.wav,0,peel,248,36,4,5,français,m,11,1.09391667,37.72006641,0.71870831
610d671491693e4ff410860c,36,0,2024-02-28T14:41:53.371Z,english_167.wav,0,peel,710,36,4,5,français,m,0,0.0,24.63183347,0.27443004
610d671491693e4ff410860c,36,0,2024-02-28T14:41:53.371Z,english_167.wav,0,peel,710,36,4,5,français,m,1,0.1,13.73246145,1.84171745
610d671491693e4ff410860c,36,0,2024-02-28T14:41:53.371Z,english_167.wav,0,peel,710,36,4,5,français,m,2,0.2,-60.43880616,1.67288004
610d671491693e4ff410860c,36,0,2024-02-28T14:41:53.371Z,english_167.wav,0,peel,710,36,4,5,français,m,3,0.3,7.09789875,0.06788145
610d671491693e4ff410860c,36,0,2024-02-28T14:41:53.371Z,english_167.wav,0,peel,710,36,4,5,français,m,4,0.4,-33.19551678,0.85380936
610d671491693e4ff410860c,36,0,2024-02-28T14:41:53.371Z,english_167.wav,0,peel,710,36,4,5,français,m,5,0.5,95.64356753,0.74095746
610d671491693e4ff410860c,36,0,2024-02-28T14:41:53.371Z,english_167.wav,0,peel,710,36,4,5,français,m,6,0.6,-14.26788655,0.50118345
610d671491693e4ff410860c,36,0,2024-02-28T14:41:53.371Z,english_167.wav,0,peel,710,36,4,5,français,m,7,0.7,66.37452918,0.34417323
610d671491693e4ff410860c,36,0,2024-02-28T14:41:53.371Z,english_167.wav,0,peel,710,36,4,5,français,m,8,0.8,21.11990371,0.18827799
610d671491693e4ff410860c,36,0,2024-02-28T14:41:53.371Z,english_167.wav,0,peel,710,36,4,5,français,m,9,0.9,91.73440173,1.5764248
610d671491693e4ff410860c,36,0,2024-02-28T14:41:53.371Z,english_167.wav,0,peel,710,36,4,5,français,m,10,1.0,98.54474933,1.57665407
610d671491693e4ff410860c,36,0,2024-02-28T14:41:53.371Z,english_167.wav,0,peel,710,36,4,5,français,m,11,1.09391667,47.66166762,0.79567252
610d671491693e4ff410860c,37,0,2024-02-28T14:41:53.371Z,english_898.wav,0,pill,506,36,4,5,français,m,0,0.0,-34.72631164,0.55709283
610d671491693e4ff410860c,37,0,2024-02-28T14:41:53.371Z,english_898.wav,0,pill,506,36,4,5,français,m,1,0.1,67.7212699,1.5055727
610d671491693e4ff410860c,37,0,2024-02-28T14:41:53.371Z,english_898.wav,0,pill,506,36,4,5,français,m,2,0.2,92.06316774,1.25694743
610d671491693e4ff410860c,37,0,2024-02-28T14:41:53.371Z,english_898.wav,0,pill,506,36,4,5,français,m,3,0.3,-76.73151606,1.78673408
610d671491693e4ff410860c,37,0,2024-02-28T14:41:53.371Z,english_898.wav,0,pill,506,36,4,5,français,m,4,0.4,97.93920214,0.88325681
610d671491693e4ff410860c,37,0,2024-02-28T14:41:53.371Z,english_898.wav,0,pill,506,36,4,5,français,m,5,0.5,99.11447245,1.91785586
610d671491693e4ff410860c,37,0,2024-02-28T14:41:53.371Z,english_898.wav,0,pill,506,36,4,5,français,m,6,0.6,83.05225532,1.93702091
610d671491693e4ff410860c,37,0,2024-02-28T14:41:53.371Z,english_898.wav,0,pill,506,36,4,5,français,m,7,0.7,-27.3520563,1.06642546
610d671491693e4ff410860c,37,0,2024-02-28T14:41:53.371Z,english_898.wav,0,pill,506,36,4,5,français,m,8,0.8,40.20374668,1.06201677
610d671491693e4ff410860c,37,0,2024-02-28T14:41:53.371Z,english_898.wav,0,pill,506,36,4,5,français,m,9,0.9,-11.73877097,0.68712783
610d671491693e4ff410860c,37,0,2024-02-28T14:41:53.371Z,english_898.wav,0,pill,506,36,4,5,français,m,10,1.0,-73.8798446,0.31583941
610d671491693e4ff410860c,37,0,2024-02-28T14:41:53.371Z,english_898.wav,0,pill,506,36,4,5,français,m,11,1.09391667,81.33954877,1.03949418
610d671491693e4ff410860c,38,0,2024-02-28T14:41:53.371Z,english_404.wav,0,pill,727,36,4,5,français,m,0,0.0,51.0629149,0.92872816
610d671491693e4ff410860c,38,0,2024-02-28T14:41:53.371Z,english_404.wav,0,pill,727,36,4,5,français,m,1,0.1,-20.11660717,1.09197178
610d671491693e4ff410860c,38,0,2024-02-28T14:41:53.371Z,english_404.wav,0,pill,727,36,4,5,français,m,2,0.2,-24.08850376,1.28516423
610d671491693e4ff410860c,38,0,2024-02-28T14:41:53.371Z,english_404.wav,0,pill,727,36,4,5,français,m,3,0.3,-31.42467522,0.67196706
610d671491693e4ff410860c,38,0,2024-02-28T14:41:53.371Z,english_404.wav,0,pill,727,36,4,5,français,m,4,0.4,53.01415625,0.26298551
610d671491693e4ff410860c,38,0,2024-02-28T14:41:53.371Z,english_404.wav,0,pill,727,36,4,5,français,m,5,0.5,-45.18749729,0.832552
610d671491693e4ff410860c,38,0,2024-02-28T14:41:53.371Z,english_404.wav,0,pill,727,36,4,5,français,m,6,0.6,75.22262363,0.94238773
610d671491693e4ff410860c,38,0,2024-02-28T14:41:53.371Z,english_404.wav,0,pill,727,36,4,5,français,m,7,0.7,53.71694776,0.97166455
610d671491693e4ff410860c,38,0,2024-02-28T14:41:53.371Z,english_404.wav,0,pill,727,36,4,5,français,m,8,0.8,-31.94049291,0.24504
610d671491693e4ff410860c,38,0,2024-02-28T14:41:53.371Z,english_404.wav,0,pill,727,36,4,5,français,m,9,0.9,64.49384663,1.54934709
610d671491693e4ff410860c,38,0,2024-02-28T14:41:53.371Z,english_404.wav,0,pill,727,36,4,5,français,m,10,1.0,-87.57862232,0.71675997
610d671491693e4ff410860c,38,0,2024-02-28T14:41:53.371Z,english_404.wav,0,pill,727,36,4,5,français,m,11,1.09391667,-93.26487386,1.21108184
610d671491693e4ff410860c,39,0,2024-02-28T14:41:53.371Z,english_837.wav,0,pill,708,36,4,5,français,m,0,0.0,-19.55907837,0.36214908
610d671491693e4ff410860c,39,0,2024-02-28T14:41:53.371Z,english_837.wav,0,pill,708,36,4,5,français,m,1,0.1,81.5519268,1.07178346
610d671491693e4ff410860c,39,0,2024-02-28T14:41:53.371Z,english_837.wav,0,pill,708,36,4,5,français,m,2,0.2,51.06726568,0.32034272
610d671491693e4ff410860c,39,0,2024-02-28T14:41:53.371Z,english_837.wav,0,pill,708,36,4,5,français,m,3,0.3,11.56573734,0.28433719
610d671491693e4ff410860c,39,0,2024-02-28T14:41:53.371Z,english_837.wav,0,pill,708,36,4,5,français,m,4,0.4,3.9548588,0.83672743
610d671491693e4ff410860c,39,0,2024-02-28T14:41:53.371Z,english_837.wav,0,pill,708,36,4,5,français,m,5,0.5,-33.36822777,0.19314145
610d671491693e4ff410860c,39,0,2024-02-28T14:41:53.371Z,english_837.wav,0,pill,708,36,4,5,français,m,6,0.6,36.7691739,0.96322299
610d671491693e4ff410860c,39,0,2024-02-28T14:41:53.371Z,english_837.wav,0,pill,708,36,4,5,français,m,7,0.7,-18.61244812,1.32224338
610d671491693e4ff410860c,39,0,2024-02-28T14:41:53.371Z,english_837.wav,0,pill,708,36,4,5,français,m,8,0.8,16.54769658,1.87041814
610d671491693e4ff410860c,39,0,2024-02-28T14:41:53.371Z,english_837.wav,0,pill,708,36,4,5,français,m,9,0.9,-37.16394557,0.06067537
610d671491693e4ff410860c,39,0,2024-02-28T14:41:53.371Z,english_837.wav,0,pill,708,36,4,5,français,m,10,1.0,10.95001842,0.49261583
610d671491693e4ff410860c,39,0,2024-02-28T14:41:53.371Z,english_837.wav,0,pill,708,36,4,5,français,m,11,1.09391667,34.38345354,1.54886366
610d671491693e4ff410860c,40,0,2024-02-28T14:41:53.371Z,english_702.wav,0,peel,419,36,4,5,français,m,0,0.0,-2.41900738,1.81607637
610d671491693e4ff410860c,40,0,2024-02-28T14:41:53.371Z,english_702.wav,0,peel,419,36,4,5,français,m,1,0.1,-65.10936104,1.79791742
610d671491693e4ff410860c,40,0,2024-02-28T14:41:53.371Z,english_702.wav,0,peel,419,36,4,5,français,m,2,0.2,-27.82316235,1.28936134
610d671491693e4ff410860c,40,0,2024-02-28T14:41:53.371Z,english_702.wav,0,peel,419,36,4,5,français,m,3,0.3,41.61212407,1.13263155
610d671491693e4ff410860c,40,0,2024-02-28T14:41:53.371Z,english_702.wav,0,peel,419,36,4,5,français,m,4,0.4,-37.59716444,0.61084433
610d671491693e4ff410860c,40,0,2024-02-28T14:41:53.371Z,english_702.wav,0,peel,419,36,4,5,français,m,5,0.5,84.73262552,1.50612828
610d671491693e4ff410860c,40,0,2024-02-28T14:41:53.371Z,english_702.wav,0,peel,419,36,4,5,français,m,6,0.6,34.73400205,1.99649644
610d671491693e4ff410860c,40,0,2024-02-28T14:41:53.371Z,english_702.wav,0,peel,419,36,4,5,français,m,7,0.7,-30.1082561,0.56234564
610d671491693e4ff410860c,40,0,2024-02-28T14:41:53.371Z,english_702.wav,0,peel,419,36,4,5,français,m,8,0.8,-63.0729989,0.4625337
610d671491693e4ff410860c,40,0,2024-02-28T14:41:53.371Z,english_702.wav,0,peel,419,36,4,5,français,m,9,0.9,-90.77732933,0.98197063
610d671491693e4ff410860c,40,0,2024-02-28T14:41:53.371Z,english_702.wav,0,peel,419,36,4,5,français,m,10,1.0,-4.9487879,0.31924939
610d671491693e4ff410860c,40,0,2024-02-28T14:41:53.371Z,english_702.wav,0,peel,419,36,4,5,français,m,11,1.09391667,-47.54503703,0.55890029
610d671491693e4ff410860c,41,0,2024-02-28T14:41:53.371Z,english_528.wav,0,pill,552,36,4,5,français,m,0,0.0,89.92931817,1.55464654
610d671491693e4ff410860c,41,0,2024-02-28T14:41:53.371Z,english_528.wav,0,pill,552,36,4,5,français,m,1,0.1,69.43761356,1.5693867
610d671491693e4ff410860c,41,0,2024-02-28T14:41:53.371Z,english_528.wav,0,pill,552,36,4,5,français,m,2,0.2,-74.63581074,0.24579909
610d671491693e4ff410860c,41,0,2024-02-28T14:41:53.371Z,english_528.wav,0,pill,552,36,4,5,français,m,3,0.3,66.94799646,0.89003704
610d671491693e4ff410860c,41,0,2024-02-28T14:41:53.371Z,english_528.wav,0,pill,552,36,4,5,français,m,4,0.4,93.4667874,0.02709789
610d671491693e4ff410860c,41,0,2024-02-28T14:41:53.371Z,english_528.wav,0,pill,552,36,4,5,français,m,5,0.5,-73.58583841,1.93159194
610d671491693e4ff410860c,41,0,2024-02-28T14:41:53.371Z,english_528.wav,0,pill,552,36,4,5,français,m,6,0.6,60.58074805,1.21534299
610d671491693e4ff410860c,41,0,2024-02-28T14:41:53.371Z,english_528.wav,0,pill,552,36,4,5,français,m,7,0.7,-19.51561534,1.54968918
610d671491693e4ff410860c,41,0,2024-02-28T14:41:53.371Z,english_528.wav,0,pill,552,36,4,5,français,m,8,0.8,1.50674214,1.22283315
610d671491693e4ff410860c,41,0,2024-02-28T14:41:53.371Z,english_528.wav,0,pill,552,36,4,5,français,m,9,0.9,-4.69145727,0.16463995
610d671491693e4ff410860c,41,0,2024-02-28T14:41:53.371Z,english_528.wav,0,pill,552,36,4,5,français,m,10,1.0,-90.65001005,0.26004795
610d671491693e4ff410860c,41,0,2024-02-28T14:41:53.371Z,english_528.wav,0,pill,552,36,4,5,français,m,11,1.09391667,80.40130965,0.00778095
610d671491693e4ff410860c,42,0,2024-02-28T14:41:53.371Z,english_725.wav,0,peel,397,36,4,5,français,m,0,0.0,-9.03644008,1.33439085
610d671491693e4ff410860c,42,0,2024-02-28T14:41:53.371Z,english_725.wav,0,peel,397,36,4,5,français,m,1,0.1,17.25768585,1.14250237
610d671491693e4ff410860c,42,0,2024-02-28T14:41:53.371Z,english_725.wav,0,peel,397,36,4,5,français,m,2,0.2,31.80596944,1.31071592
610d671491693e4ff410860c,42,0,2024-02-28T14:41:53.371Z,english_725.wav,0,peel,397,36,4,5,français,m,3,0.3,-37.53705258,0.64785465
610d671491693e4ff410860c,42,0,2024-02-28T14:41:53.371Z,english_725.wav,0,peel,397,36,4,5,français,m,4,0.4,-72.83315878,1.42686134
610d671491693e4ff410860c,42,0,2024-02-28T14:41:53.371Z,english_725.wav,0,peel,397,36,4,5,français,m,5,0.5,-86.89655244,1.9351134
610d671491693e4ff410860c,42,0,2024-02-28T14:41:53.371Z,english_725.wav,0,peel,397,36,4,5,français,m,6,0.6,-41.36643193,0.6329639
610d671491693e4ff410860c,42,0,2024-02-28T14:41:53.371Z,english_725.wav,0,peel,397,36,4,5,français,m,7,0.7,-24.29547068,1.12609379
610d671491693e4ff410860c,42,0,2024-02-28T14:41:53.371Z,english_725.wav,0,peel,397,36,4,5,français,m,8,0.8,-10.26201034,0.4317144
610d671491693e4ff410860c,42,0,2024-02-28T14:41:53.371Z,english_725.wav,0,peel,397,36,4,5,français,m,9,0.9,-84.73732243,0.11714111
610d671491693e4ff410860c,42,0,2024-02-28T14:41:53.371Z,english_725.wav,0,peel,397,36,4,5,français,m,10,1.0,29.57592595,1.51572797
610d671491693e4ff410860c,42,0,2024-02-28T14:41:53.371Z,english_725.wav,0,peel,397,36,4,5,français,m,11,1.09391667,-31.00210879,0.75437121
610d671491693e4ff410860c,43,0,2024-02-28T14:41:53.371Z,english_681.wav,0,peel,538,36,4,5,français,m,0,0.0,-92.26077834,1.18766689
610d671491693e4ff410860c,43,0,2024-02-28T14:41:53.371Z,english_681.wav,0,peel,538,36,4,5,français,m,1,0.1,11.95344045,1.17925246
610d671491693e4ff410860c,43,0,2024-02-28T14:41:53.371Z,english_681.wav,0,peel,538,36,4,5,français,m,2,0.2,35.63077321,1.18714511
610d671491693e4ff410860c,43,0,2024-02-28T14:41:53.371Z,english_681.wav,0,peel,538,36,4,5,français,m,3,0.3,10.32953838,0.81117053
610d671491693e4ff410860c,43,0,2024-02-28T14:41:53.371Z,english_681.wav,0,peel,538,36,4,5,français,m,4,0.4,-65.38984885,0.881102
610d671491693e4ff410860c,43,0,2024-02-28T14:41:53.371Z,english_681.wav,0,peel,538,36,4,5,français,m,5,0.5,97.33649353,0.91983652
610d671491693e4ff410860c,43,0,2024-02-28T14:41:53.371Z,english_681.wav,0,peel,538,36,4,5,français,m,6,0.6,-8.45532029,1.26950169
610d671491693e4ff410860c,43,0,2024-02-28T14:41:53.371Z,english_681.wav,0,peel,538,36,4,5,français,m,7,0.7,-65.12679711,1.73435483
610d671491693e4ff410860c,43,0,2024-02-28T14:41:53.371Z,english_681.wav,0,peel,538,36,4,5,français,m,8,0.8,-45.40923943,0.23522848
610d671491693e4ff410860c,43,0,2024-02-28T14:41:53.371Z,english_681.wav,0,peel,538,36,4,5,français,m,9,0.9,15.66943247,1.44084722
610d671491693e4ff410860c,43,0,2024-02-28T14:41:53.371Z,english_681.wav,0,peel,538,36,4,5,français,m,10,1.0,-78.97347716,0.55279263
610d671491693e4ff410860c,43,0,2024-02-28T14:41:53.371Z,english_681.wav,0,peel,538,36,4,5,français,m,11,1.09391667,28.12793686,1.79690954
610d671491693e4ff410860c,44,0,2024-02-28T14:41:53.371Z,english_82.wav,0,peel,428,36,4,5,français,m,0,0.0,-50.65944843,0.53695405
610d671491693e4ff410860c,44,0,2024-02-28T14:41:53.371Z,english_82.wav,0,peel,428,36,4,5,français,m,1,0.1,-8.30198342,1.68823048
610d671491693e4ff410860c,44,0,2024-02-28T14:41:53.371Z,english_82.wav,0,peel,428,36,4,5,français,m,2,0.2,28.238309,0.29560695
610d671491693e4ff410860c,44,0,2024-02-28T14:41:53.371Z,english_82.wav,0,peel,428,36,4,5,français,m,3,0.3,-35.80408689,0.83443164
610d671491693e4ff410860c,44,0,2024-02-28T14:41:53.371Z,english_82.wav,0,peel,428,36,4,5,français,m,4,0.4,80.50699914,0.87894934
610d671491693e4ff410860c,44,0,2024-02-28T14:41:53.371Z,english_82.wav,0,peel,428,36,4,5,français,m,5,0.5,-99.69979401,1.46703122
610d671491693e4ff410860c,44,0,2024-02-28T14:41:53.371Z,english_82.wav,0,peel,428,36,4,5,français,m,6,0.6,30.38876845,0.23248639
610d671491693e4ff410860c,44,0,2024-02-28T14:41:53.371Z,english_82.wav,0,peel,428,36,4,5,français,m,7,0.7,-2.76434691,1.71572221
610d671491693e4ff410860c,44,0,2024-02-28T14:41:53.371Z,english_82.wav,0,peel,428,36,4,5,français,m,8,0.8,-19.59960586,1.24729907
610d671491693e4ff410860c,44,0,2024-02-28T14:41:53.371Z,english_82.wav,0,peel,428,36,4,5,français,m,9,0.9,-93.26966696,0.75753981
610d671491693e4ff410860c,44,0,2024-02-28T14:41:53.371Z,english_82.wav,0,peel,428,36,4,5,français,m,10,1.0,64.56379815,1.65214627
610d671491693e4ff410860c,44,0,2024-02-28T14:41:53.371Z,english_82.wav,0,peel,428,36,4,5,français,m,11,1.09391667,-59.79308705,0.40383656
610d671491693e4ff410860c,45,0,2024-02-28T14:41:53.371Z,english_191.wav,0,peel,441,36,4,5,français,m,0,0.0,-24.02277358,1.0914461
610d671491693e4ff410860c,45,0,2024-02-28T14:41:53.371Z,english_191.wav,0,peel,441,36,4,5,français,m,1,0.1,63.4439463,0.33098092
610d671491693e4ff410860c,45,0,2024-02-28T14:41:53.371Z,english_191.wav,0,peel,441,36,4,5,français,m,2,0.2,-22.47731103,1.86196051
610d671491693e4ff410860c,45,0,2024-02-28T14:41:53.371Z,english_191.wav,0,peel,441,36,4,5,français,m,3,0.3,-9.99025732,0.09450542
610d671491693e4ff410860c,45,0,2024-02-28T14:41:53.371Z,english_191.wav,0,peel,441,36,4,5,français,m,4,0.4,58.56180387,1.1158369
610d671491693e4ff410860c,45,0,2024-02-28T14:41:53.371Z,english_191.wav,0,peel,441,36,4,5,français,m,5,0.5,62.8001027,0.90347235
610d671491693e4ff410860c,45,0,2024-02-28T14:41:53.371Z,english_191.wav,0,peel,441,36,4,5,français,m,6,0.6,15.39253294,1.55895669
610d671491693e4ff410860c,45,0,2024-02-28T14:41:53.371Z,english_191.wav,0,peel,441,36,4,5,français,m,7,0.7,56.82172684,1.11486536
610d671491693e4ff410860c,45,0,2024-02-28T14:41:53.371Z,english_191.wav,0,peel,441,36,4,5,français,m,8,0.8,-77.92272587,0.70296155
610d671491693e4ff410860c,45,0,2024-02-28T14:41:53.371Z,english_191.wav,0,peel,441,36,4,5,français,m,9,0.9,-72.7474465,1.56868029
610d671491693e4ff410860c,45,0,2024-02-28T14:41:53.371Z,english_191.wav,0,peel,441,36,4,5,français,m,10,1.0,-73.86130367,1.33347033
610d671491693e4ff410860c,45,0,2024-02-28T14:41:53.371Z,english_191.wav,0,peel,441,36,4,5,français,m,11,1.09391667,-78.65780479,1.27370222
610d671491693e4ff410860c,46,0,2024-02-28T14:41:53.371Z,english_455.wav,0,peel,461,36,4,5,français,m,0,0.0,26.42834913,1.62221941
610d671491693e4ff410860c,46,0,2024-02-28T14:41:53.371Z,english_455.wav,0,peel,461,36,4,5,français,m,1,0.1,-7.65720218,1.46036611
610d671491693e4ff410860c,46,0,2024-02-28T14:41:53.371Z,english_455.wav,0,peel,461,36,4,5,français,m,2,0.2,-36.03524122,1.24406571
610d671491693e4ff410860c,46,0,2024-02-28T14:41:53.371Z,english_455.wav,0,peel,461,36,4,5,français,m,3,0.3,-9.36591816,1.98304613
610d671491693e4ff410860c,46,0,2024-02-28T14:41:53.371Z,english_455.wav,0,peel,461,36,4,5,français,m,4,0.4,74.01503077,0.42616314
610d671491693e4ff410860c,46,0,2024-02-28T14:41:53.371Z,english_455.wav,0,peel,461,36,4,5,français,m,5,0.5,-66.92719297,0.24476163
610d671491693e4ff410860c,46,0,2024-02-28T14:41:53.371Z,english_455.wav,0,peel,461,36,4,5,français,m,6,0.6,-30.7057444,1.77552442
610d671491693e4ff410860c,46,0,2024-02-28T14:41:53.371Z,english_455.wav,0,peel,461,36,4,5,français,m,7,0.7,40.84752834,1.05242247
610d671491693e4ff410860c,46,0,2024-02-28T14:41:53.371Z,english_455.wav,0,peel,461,36,4,5,français,m,8,0.8,15.65936383,0.70330742
610d671491693e4ff410860c,46,0,2024-02-28T14:41:53.371Z,english_455.wav,0,peel,461,36,4,5,français,m,9,0.9,-13.21472975,0.60059781
610d671491693e4ff410860c,46,0,2024-02-28T14:41:53.371Z,english_455.wav,0,peel,461,36,4,5,français,m,10,1.0,44.82999828,0.40485906
610d671491693e4ff410860c,46,0,2024-02-28T14:41:53.371Z,english_455.wav,0,peel,461,36,4,5,français,m,11,1.09391667,-79.02570563,1.70610938
610d671491693e4ff410860c,47,0,2024-02-28T14:41:53.371Z,english_756.wav,0,peel,305,36,4,5,français,m,0,0.0,-32.70542045,0.92316539
610d671491693e4ff410860c,47,0,2024-02-28T14:41:53.371Z,english_756.wav,0,peel,305,36,4,5,français,m,1,0.1,62.91454888,0.37547917
610d671491693e4ff410860c,47,0,2024-02-28T14:41:53.371Z,english_756.wav,0,peel,305,36,4,5,français,m,2,0.2,-9.17678833,1.92598223
610d671491693e4ff410860c,47,0,2024-02-28T14:41:53.371Z,english_756.wav,0,peel,305,36,4,5,français,m,3,0.3,16.28624283,0.89010875
610d671491693e4ff410860c,47,0,2024-02-28T14:41:53.371Z,english_756.wav,0,peel,305,36,4,5,français,m,4,0.4,-33.51792534,0.38662098
610d671491693e4ff410860c,47,0,2024-02-28T14:41:53.371Z,english_756.wav,0,peel,305,36,4,5,français,m,5,0.5,88.01648813,1.17672662
610d671491693e4ff410860c,47,0,2024-02-28T14:41:53.371Z,english_756.wav,0,peel,305,36,4,5,français,m,6,0.6,62.37064714,0.21957896
610d671491693e4ff410860c,47,0,2024-02-28T14:41:53.371Z,english_756.wav,0,peel,305,36,4,5,français,m,7,0.7,-52.3683359,1.78953747
610d671491693e4ff410860c,47,0,2024-02-28T14:41:53.371Z,english_756.wav,0,peel,305,36,4,5,français,m,8,0.8,56.37360277,1.89812903
610d671491693e4ff410860c,47,0,2024-02-28T14:41:53.371Z,english_756.wav,0,peel,305,36,4,5,français,m,9,0.9,-54.86484941,1.43873799
610d671491693e4ff410860c,47,0,2024-02-28T14:41:53.371Z,english_756.wav,0,peel,305,36,4,5,français,m,10,1.0,91.23924333,1.51351367
610d671491693e4ff410860c,47,0,2024-02-28T14:41:53.371Z,english_756.wav,0,peel,305,36,4,5,français,m,11,1.09391667,-26.61223969,1.73327561
610d671491693e4ff410860c,48,0,2024-02-28T14:41:53.371Z,english_472.wav,0,peel,464,36,4,5,français,m,0,0.0,-23.72821767,0.96911452
610d671491693e4ff410860c,48,0,2024-02-28T14:41:53.371Z,english_472.wav,0,peel,464,36,4,5,français,m,1,0.1,7.29471696,0.40121138
610d671491693e4ff410860c,48,0,2024-02-28T14:41:53.371Z,english_472.wav,0,peel,464,36,4,5,français,m,2,0.2,-58.55005371,1.15410482
610d671491693e4ff410860c,48,0,2024-02-28T14:41:53.371Z,english_472.wav,0,peel,464,36,4,5,français,m,3,0.3,77.0504256,1.91400861
610d671491693e4ff410860c,48,0,2024-02-28T14:41:53.371Z,english_472.wav,0,peel,464,36,4,5,français,m,4,0.4,87.29275565,0.05830067
610d671491693e4ff410860c,48,0,2024-02-28T14:41:53.371Z,english_472.wav,0,peel,464,36,4,5,français,m,5,0.5,-70.9646192,0.87176087
610d671491693e4ff410860c,48,0,2024-02-28T14:41:53.371Z,english_472.wav,0,peel,464,36,4,5,français,m,6,0.6,72.82743185,0.23371631
610d671491693e4ff410860c,48,0,2024-02-28T14:41:53.371Z,english_472.wav,0,peel,464,36,4,5,français,m,7,0.7,-40.27439915,1.66198616
610d671491693e4ff410860c,48,0,2024-02-28T14:41:53.371Z,english_472.wav,0,peel,464,36,4,5,français,m,8,0.8,-15.91396931,0.22492459
610d671491693e4ff410860c,48,0,2024-02-28T14:41:53.371Z,english_472.wav,0,peel,464,36,4,5,français,m,9,0.9,27.40014094,0.55757982
610d671491693e4ff410860c,48,0,2024-02-28T14:41:53.371Z,english_472.wav,0,peel,464,36,4,5,français,m,10,1.0,-13.69917785,1.15387827
610d671491693e4ff410860c,48,0,2024-02-28T14:41:53.371Z,english_472.wav,0,peel,464,36,4,5,français,m,11,1.09391667,26.78237701,1.85526867
610d671491693e4ff410860c,49,0,2024-02-28T14:41:53.371Z,english_736.wav,0,pill,859,36,4,5,français,m,0,0.0,-40.28778627,1.23426282
610d671491693e4ff410860c,49,0,2024-02-28T14:41:53.371Z,english_736.wav,0,pill,859,36,4,5,français,m,1,0.1,-59.09726207,0.97807774
610d671491693e4ff410860c,49,0,2024-02-28T14:41:53.371Z,english_736.wav,0,pill,859,36,4,5,français,m,2,0.2,98.49969238,0.54049946
610d671491693e4ff410860c,49,0,2024-02-28T14:41:53.371Z,english_736.wav,0,pill,859,36,4,5,français,m,3,0.3,46.0778128,1.1691641
610d671491693e4ff410860c,49,0,2024-02-28T14:41:53.371Z,english_736.wav,0,pill,859,36,4,5,français,m,4,0.4,-55.04304699,1.22843398
610d671491693e4ff410860c,49,0,2024-02-28T14:41:53.371Z,english_736.wav,0,pill,859,36,4,5,français,m,5,0.5,34.12740936,0.9861662
610d671491693e4ff410860c,49,0,2024-02-28T14:41:53.371Z,english_736.wav,0,pill,859,36,4,5,français,m,6,0.6,54.26275803,0.17445904
610d671491693e4ff410860c,49,0,2024-02-28T14:41:53.371Z,english_736.wav,0,pill,859,36,4,5,français,m,7,0.7,-55.98308326,1.1578723
610d671491693e4ff410860c,49,0,2024-02-28T14:41:53.371Z,english_736.wav,0,pill,859,36,4,5,français,m,8,0.8,59.79863481,1.37075184
610d671491693e4ff410860c,49,0,2024-02-28T14:41:53.371Z,english_736.wav,0,pill,859,36,4,5,français,m,9,0.9,88.14503005,1.47849055
610d671491693e4ff410860c,49,0,2024-02-28T14:41:53.371Z,english_736.wav,0,pill,859,36,4,5,français,m,10,1.0,91.37007784,0.08571689
610d671491693e4ff410860c,49,0,2024-02-28T14:41:53.371Z,english_736.wav,0,pill,859,36,4,5,français,m,11,1.09391667,76.63160817,1.4768314
610d671491693e4ff410860c,50,1,2024-02-28T14:41:53.371Z,english_115.wav,0,peel,743,36,4,5,français,m,0,0.0,-26.06400201,1.03170605
610d671491693e4ff410860c,50,1,2024-02-28T14:41:53.371Z,english_115.wav,0,peel,743,36,4,5,français,m,1,0.1,28.0769801,0.8133226
610d671491693e4ff410860c,50,1,2024-02-28T14:41:53.371Z,english_115.wav,0,peel,743,36,4,5,français,m,2,0.2,0.22454624,0.23304389
610d671491693e4ff410860c,50,1,2024-02-28T14:41:53.371Z,english_115.wav,0,peel,743,36,4,5,français,m,3,0.3,56.47311496,0.50394373
610d671491693e4ff410860c,50,1,2024-02-28T14:41:53.371Z,english_115.wav,0,peel,743,36,4,5,français,m,4,0.4,-7.56064775,1.43876449
610d671491693e4ff410860c,50,1,2024-02-28T14:41:53.371Z,english_115.wav,0,peel,743,36,4,5,français,m,5,0.5,-63.44787447,0.35899171
610d671491693e4ff410860c,50,1,2024-02-28T14:41:53.371Z,english_115.wav,0,peel,743,36,4,5,français,m,6,0.6,-52.68338839,1.5505321
610d671491693e4ff410860c,50,1,2024-02-28T14:41:53.371Z,english_115.wav,0,peel,743,36,4,5,français,m,7,0.7,37.43443466,0.2049404
610d671491693e4ff410860c,50,1,2024-02-28T14:41:53.371Z,english_115.wav,0,peel,743,36,4,5,français,m,8,0.8,-32.93332061,0.392349
610d671491693e4ff410860c,50,1,2024-02-28T14:41:53.371Z,english_115.wav,0,peel,743,36,4,5,français,m,9,0.9,74.83402321,1.84542686
610d671491693e4ff410860c,50,1,2024-02-28T14:41:53.371Z,english_115.wav,0,peel,743,36,4,5,français,m,10,1.0,-11.65316277,0.75053433
610d671491693e4ff410860c,50,1,2024-02-28T14:41:53.371Z,english_115.wav,0,peel,743,36,4,5,français,m,11,1.09391667,-63.92247639,1.42014848
610d671491693e4ff410860c,51,1,2024-02-28T14:41:53.371Z,english_976.wav,0,pill,432,36,4,5,français,m,0,0.0,-7.94823885,1.93996979
610d671491693e4ff410860c,51,1,2024-02-28T14:41:53.371Z,english_976.wav,0,pill,432,36,4,5,français,m,1,0.1,96.34184584,0.68967214
610d671491693e4ff410860c,51,1,2024-02-28T14:41:53.371Z,english_976.wav,0,pill,432,36,4,5,français,m,2,0.2,-33.68410723,1.52037239
610d671491693e4ff410860c,51,1,2024-02-28T14:41:53.371Z,english_976.wav,0,pill,432,36,4,5,français,m,3,0.3,71.00734619,0.92144072
610d671491693e4ff410860c,51,1,2024-02-28T14:41:53.371Z,english_976.wav,0,pill,432,36,4,5,français,m,4,0.4,-73.42321757,1.16805043
610d671491693e4ff410860c,51,1,2024-02-28T14:41:53.371Z,english_976.wav,0,pill,432,36,4,5,français,m,5,0.5,68.14494718,0.75881772
610d671491693e4ff410860c,51,1,2024-02-28T14:41:53.371Z,english_976.wav,0,pill,432,36,4,5,français,m,6,0.6,72.66069131,0.99023479
610d671491693e4ff410860c,51,1,2024-02-28T14:41:53.371Z,english_976.wav,0,pill,432,36,4,5,français,m,7,0.7,-46.1327141,1.21750342
610d671491693e4ff410860c,51,1,2024-02-28T14:41:53.371Z,english_976.wav,0,pill,432,36,4,5,français,m,8,0.8,-13.93014286,1.7476055
610d671491693e4ff410860c,51,1,2024-02-28T14:41:53.371Z,english_976.wav,0,pill,432,36,4,5,français,m,9,0.9,53.41967838,1.87214478
610d671491693e4ff410860c,51,1,2024-02-28T14:41:53.371Z,english_976.wav,0,pill,432,36,4,5,français,m,10,1.0,-12.62377888,0.1004517
610d671491693e4ff410860c,51,1,2024-02-28T14:41:53.371Z,english_976.wav,0,pill,432,36,4,5,français,m,11,1.09391667,-9.46767518,1.64660027
610d671491693e4ff410860c,52,1,2024-02-28T14:41:53.371Z,english_850.wav,0,peel,477,36,4,5,français,m,0,0.0,88.4841053,1.0516167
610d671491693e4ff410860c,52,1,2024-02-28T14:41:53.371Z,english_850.wav,0,peel,477,36,4,5,français,m,1,0.1,44.0356076,0.93870726
610d671491693e4ff410860c,52,1,2024-02-28T14:41:53.371Z,english_850.wav,0,peel,477,36,4,5,français,m,2,0.2,36.7211438,0.35713104
610d671491693e4ff410860c,52,1,2024-02-28T14:41:53.371Z,english_850.wav,0,peel,477,36,4,5,français,m,3,0.3,0.0712842206,0.75335241
610d671491693e4ff410860c,52,1,2024-02-28T14:41:53.371Z,english_850.wav,0,peel,477,36,4,5,français,m,4,0.4,-60.510913,0.4836317
610d671491693e4ff410860c,52,1,2024-02-28T14:41:53.371Z,english_850.wav,0,peel,477,36,4,5,français,m,5,0.5,18.6261702,1.19329581
610d671491693e4ff410860c,52,1,2024-02-28T14:41:53.371Z,english_850.wav,0,peel,477,36,4,5,français,m,6,0.6,28.0848248,0.49505096
610d671491693e4ff410860c,52,1,2024-02-28T14:41:53.371Z,english_850.wav,0,peel,477,36,4,5,français,m,7,0.7,77.0757469,0.01443344
610d671491693e4ff410860c,52,1,2024-02-28T14:41:53.371Z,english_850.wav,0,peel,477,36,4,5,français,m,8,0.8,4.44763904,1.44754501
610d671491693e4ff410860c,52,1,2024-02-28T14:41:53.371Z,english_850.wav,0,peel,477,36,4,5,français,m,9,0.9,-78.5523864,1.7444195
610d671491693e4ff410860c,52,1,2024-02-28T14:41:53.371Z,english_850.wav,0,peel,477,36,4,5,français,m,10,1.0,-47.0846658,1.61305952
610d671491693e4ff410860c,52,1,2024-02-28T14:41:53.371Z,english_850.wav,0,peel,477,36,4,5,français,m,11,1.09391667,98.0288694,0.78368458
610d671491693e4ff410860c,53,1,2024-02-28T14:41:53.371Z,english_614.wav,0,pill,666,36,4,5,français,m,0,0.0,-82.48035623,0.71590115
610d671491693e4ff410860c,53,1,2024-02-28T14:41:53.371Z,english_614.wav,0,pill,666,36,4,5,français,m,1,0.1,79.46307131,0.88553055
610d671491693e4ff410860c,53,1,2024-02-28T14:41:53.371Z,english_614.wav,0,pill,666,36,4,5,français,m,2,0.2,-34.63501936,0.6127243
610d671491693e4ff410860c,53,1,2024-02-28T14:41:53.371Z,english_614.wav,0,pill,666,36,4,5,français,m,3,0.3,-36.11573217,1.30048752
610d671491693e4ff410860c,53,1,2024-02-28T14:41:53.371Z,english_614.wav,0,pill,666,36,4,5,français,m,4,0.4,28.60715933,0.96267967
610d671491693e4ff410860c,53,1,2024-02-28T14:41:53.371Z,english_614.wav,0,pill,666,36,4,5,français,m,5,0.5,-48.6136036,0.63406811
610d671491693e4ff410860c,53,1,2024-02-28T14:41:53.371Z,english_614.wav,0,pill,666,36,4,5,français,m,6,0.6,-7.2226969,1.30483529
610d671491693e4ff410860c,53,1,2024-02-28T14:41:53.371Z,english_614.wav,0,pill,666,36,4,5,français,m,7,0.7,-29.94263831,0.38784821
610d671491693e4ff410860c,53,1,2024-02-28T14:41:53.371Z,english_614.wav,0,pill,666,36,4,5,français,m,8,0.8,-84.37614436,0.63559187
610d671491693e4ff410860c,53,1,2024-02-28T14:41:53.371Z,english_614.wav,0,pill,666,36,4,5,français,m,9,0.9,6.08502503,0.26922563
610d671491693e4ff410860c,53,1,2024-02-28T14:41:53.371Z,english_614.wav,0,pill,666,36,4,5,français,m,10,1.0,89.45930015,0.19525475
610d671491693e4ff410860c,53,1,2024-02-28T14:41:53.371Z,english_614.wav,0,pill,666,36,4,5,français,m,11,1.09391667,-99.05808014,1.74947328
610d671491693e4ff410860c,54,1,2024-02-28T14:41:53.371Z,english_707.wav,0,peel,465,36,4,5,français,m,0,0.0,7.00891716,0.72720076
610d671491693e4ff410860c,54,1,2024-02-28T14:41:53.371Z,english_707.wav,0,peel,465,36,4,5,français,m,1,0.1,74.96034683,1.51197727
610d671491693e4ff410860c,54,1,2024-02-28T14:41:53.371Z,english_707.wav,0,peel,465,36,4,5,français,m,2,0.2,-68.0333814,0.14777377
610d671491693e4ff410860c,54,1,2024-02-28T14:41:53.371Z,english_707.wav,0,peel,465,36,4,5,français,m,3,0.3,58.29848436,0.12739287
610d671491693e4ff410860c,54,1,2024-02-28T14:41:53.371Z,english_707.wav,0,peel,465,36,4,5,français,m,4,0.4,-84.31982667,0.76569704
610d671491693e4ff410860c,54,1,2024-02-28T14:41:53.371Z,english_707.wav,0,peel,465,36,4,5,français,m,5,0.5,35.8298309,0.136889
610d671491693e4ff410860c,54,1,2024-02-28T14:41:53.371Z,english_707.wav,0,peel,465,36,4,5,français,m,6,0.6,-38.90477455,1.7747503
610d671491693e4ff410860c,54,1,2024-02-28T14:41:53.371Z,english_707.wav,0,peel,465,36,4,5,français,m,7,0.7,82.66036962,1.07544151
610d671491693e4ff410860c,54,1,2024-02-28T14:41:53.371Z,english_707.wav,0,peel,465,36,4,5,français,m,8,0.8,-14.24432163,1.02550143
610d671491693e4ff410860c,54,1,2024-02-28T14:41:53.371Z,english_707.wav,0,peel,465,36,4,5,français,m,9,0.9,25.44052546,1.01640219
610d671491693e4ff410860c,54,1,2024-02-28T14:41:53.371Z,english_707.wav,0,peel,465,36,4,5,français,m,10,1.0,-83.90842928,0.78720721
610d671491693e4ff410860c,54,1,2024-02-28T14:41:53.371Z,english_707.wav,0,peel,465,36,4,5,français,m,11,1.09391667,-32.29890156,1.33640167
610d671491693e4ff410860c,55,1,2024-02-28T14:41:53.371Z,english_911.wav,0,peel,439,36,4,5,français,m,0,0.0,97.74431138,1.45295226
610d671491693e4ff410860c,55,1,2024-02-28T14:41:53.371Z,english_911.wav,0,peel,439,36,4,5,français,m,1,0.1,63.25353714,0.52934156
610d671491693e4ff410860c,55,1,2024-02-28T14:41:53.371Z,english_911.wav,0,peel,439,36,4,5,français,m,2,0.2,31.76873058,1.12978313
610d671491693e4ff410860c,55,1,2024-02-28T14:41:53.371Z,english_911.wav,0,peel,439,36,4,5,français,m,3,0.3,-80.65515271,0.46492479
610d671491693e4ff410860c,55,1,2024-02-28T14:41:53.371Z,english_911.wav,0,peel,439,36,4,5,français,m,4,0.4,87.72308134,1.65576631
610d671491693e4ff410860c,55,1,2024-02-28T14:41:53.371Z,english_911.wav,0,peel,439,36,4,5,français,m,5,0.5,-43.90030619,0.95301179
610d671491693e4ff410860c,55,1,2024-02-28T14:41:53.371Z,english_911.wav,0,peel,439,36,4,5,français,m,6,0.6,-96.43392939,1.98033305
610d671491693e4ff410860c,55,1,2024-02-28T14:41:53.371Z,english_911.wav,0,peel,439,36,4,5,français,m,7,0.7,-95.09691132,0.56650122
610d671491693e4ff410860c,55,1,2024-02-28T14:41:53.371Z,english_911.wav,0,peel,439,36,4,5,français,m,8,0.8,7.77484736,1.59543029
610d671491693e4ff410860c,55,1,2024-02-28T14:41:53.371Z,english_911.wav,0,peel,439,36,4,5,français,m,9,0.9,12.16907111,1.97260423
610d671491693e4ff410860c,55,1,2024-02-28T14:41:53.371Z,english_911.wav,0,peel,439,36,4,5,français,m,10,1.0,33.87787458,1.68149339
610d671491693e4ff410860c,55,1,2024-02-28T14:41:53.371Z,english_911.wav,0,peel,439,36,4,5,français,m,11,1.09391667,10.13841493,1.03055348
610d671491693e4ff410860c,56,1,2024-02-28T14:41:53.371Z,english_866.wav,0,pill,624,36,4,5,français,m,0,0.0,32.13948388,0.64921597
610d671491693e4ff410860c,56,1,2024-02-28T14:41:53.371Z,english_866.wav,0,pill,624,36,4,5,français,m,1,0.1,38.60075831,1.48742897
610d671491693e4ff410860c,56,1,2024-02-28T14:41:53.371Z,english_866.wav,0,pill,624,36,4,5,français,m,2,0.2,-79.61982729,0.28495491
610d671491693e4ff410860c,56,1,2024-02-28T14:41:53.371Z,english_866.wav,0,pill,624,36,4,5,français,m,3,0.3,-60.72840424,0.9139307
610d671491693e4ff410860c,56,1,2024-02-28T14:41:53.371Z,english_866.wav,0,pill,624,36,4,5,français,m,4,0.4,-37.10812529,1.2771469
610d671491693e4ff410860c,56,1,2024-02-28T14:41:53.371Z,english_866.wav,0,pill,624,36,4,5,français,m,5,0.5,20.23366157,0.5381413
610d671491693e4ff410860c,56,1,2024-02-28T14:41:53.371Z,english_866.wav,0,pill,624,36,4,5,français,m,6,0.6,-58.420194,0.14669297
610d671491693e4ff410860c,56,1,2024-02-28T14:41:53.371Z,english_866.wav,0,pill,624,36,4,5,français,m,7,0.7,10.40447232,0.11342134
610d671491693e4ff410860c,56,1,2024-02-28T14:41:53.371Z,english_866.wav,0,pill,624,36,4,5,français,m,8,0.8,-52.83849426,1.53208977
610d671491693e4ff410860c,56,1,2024-02-28T14:41:53.371Z,english_866.wav,0,pill,624,36,4,5,français,m,9,0.9,32.83340069,0.84107623
610d671491693e4ff410860c,56,1,2024-02-28T14:41:53.371Z,english_866.wav,0,pill,624,36,4,5,français,m,10,1.0,9.31901299,1.05202157
610d671491693e4ff410860c,56,1,2024-02-28T14:41:53.371Z,english_866.wav,0,pill,624,36,4,5,français,m,11,1.09391667,-17.41907809,1.86418674
610d671491693e4ff410860c,57,1,2024-02-28T14:41:53.371Z,english_88.wav,0,peel,364,36,4,5,français,m,0,0.0,-71.9844785,0.53660294
610d671491693e4ff410860c,57,1,2024-02-28T14:41:53.371Z,english_88.wav,0,peel,364,36,4,5,français,m,1,0.1,-49.01939905,1.47642874
610d671491693e4ff410860c,57,1,2024-02-28T14:41:53.371Z,english_88.wav,0,peel,364,36,4,5,français,m,2,0.2,50.12381506,0.52511459
610d671491693e4ff410860c,57,1,2024-02-28T14:41:53.371Z,english_88.wav,0,peel,364,36,4,5,français,m,3,0.3,-84.58055822,1.50109779
610d671491693e4ff410860c,57,1,2024-02-28T14:41:53.371Z,english_88.wav,0,peel,364,36,4,5,français,m,4,0.4,-75.77840035,0.97976024
610d671491693e4ff410860c,57,1,2024-02-28T14:41:53.371Z,english_88.wav,0,peel,364,36,4,5,français,m,5,0.5,-24.7911267,0.85239994
610d671491693e4ff410860c,57,1,2024-02-28T14:41:53.371Z,english_88.wav,0,peel,364,36,4,5,français,m,6,0.6,-23.67428976,1.05191942
610d671491693e4ff410860c,57,1,2024-02-28T14:41:53.371Z,english_88.wav,0,peel,364,36,4,5,français,m,7,0.7,-54.46174988,0.4066024
610d671491693e4ff410860c,57,1,2024-02-28T14:41:53.371Z,english_88.wav,0,peel,364,36,4,5,français,m,8,0.8,17.41292988,0.004424
610d671491693e4ff410860c,57,1,2024-02-28T14:41:53.371Z,english_88.wav,0,peel,364,36,4,5,français,m,9,0.9,-76.44908604,1.90836134
610d671491693e4ff410860c,57,1,2024-02-28T14:41:53.371Z,english_88.wav,0,peel,364,36,4,5,français,m,10,1.0,-2.36913576,1.74184755
610d671491693e4ff410860c,57,1,2024-02-28T14:41:53.371Z,english_88.wav,0,peel,364,36,4,5,français,m,11,1.09391667,-39.62259758,0.66301055
610d671491693e4ff410860c,58,1,2024-02-28T14:41:53.371Z,english_407.wav,0,peel,400,36,4,5,français,m,0,0.0,-24.60693705,0.46722995
610d671491693e4ff410860c,58,1,2024-02-28T14:41:53.371Z,english_407.wav,0,peel,400,36,4,5,français,m,1,0.1,-18.03262929,1.67527194
610d671491693e4ff410860c,58,1,2024-02-28T14:41:53.371Z,english_407.wav,0,peel,400,36,4,5,français,m,2,0.2,78.43262301,0.46653722
610d671491693e4ff410860c,58,1,2024-02-28T14:41:53.371Z,english_407.wav,0,peel,400,36,4,5,français,m,3,0.3,-68.3918043,0.93598541
610d671491693e4ff410860c,58,1,2024-02-28T14:41:53.371Z,english_407.wav,0,peel,400,36,4,5,français,m,4,0.4,-80.30955939,1.16461279
610d671491693e4ff410860c,58,1,2024-02-28T14:41:53.371Z,english_407.wav,0,peel,400,36,4,5,français,m,5,0.5,85.23652971,0.21312226
610d671491693e4ff410860c,58,1,2024-02-28T14:41:53.371Z,english_407.wav,0,peel,400,36,4,5,français,m,6,0.6,-34.75897275,0.26523352
610d671491693e4ff410860c,58,1,2024-02-28T14:41:53.371Z,english_407.wav,0,peel,400,36,4,5,français,m,7,0.7,-13.65493451,0.26712079
610d671491693e4ff410860c,58,1,2024-02-28T14:41:53.371Z,english_407.wav,0,peel,400,36,4,5,français,m,8,0.8,18.27954458,0.66430326
610d671491693e4ff410860c,58,1,2024-02-28T14:41:53.371Z,english_407.wav,0,peel,400,36,4,5,français,m,9,0.9,-61.83588329,0.96548424
610d671491693e4ff410860c,58,1,2024-02-28T14:41:53.371Z,english_407.wav,0,peel,400,36,4,5,français,m,10,1.0,1.46934054,0.70653645
610d671491693e4ff410860c,58,1,2024-02-28T14:41:53.371Z,english_407.wav,0,peel,400,36,4,5,français,m,11,1.09391667,21.65066183,1.4905418
610d671491693e4ff410860c,59,1,2024-02-28T14:41:53.371Z,english_696.wav,0,pill,535,36,4,5,français,m,0,0.0,80.76263908,0.91509798
610d671491693e4ff410860c,59,1,2024-02-28T14:41:53.371Z,english_696.wav,0,pill,535,36,4,5,français,m,1,0.1,-81.05122768,1.74478529
610d671491693e4ff410860c,59,1,2024-02-28T14:41:53.371Z,english_696.wav,0,pill,535,36,4,5,français,m,2,0.2,25.61500263,0.26644886
610d671491693e4ff410860c,59,1,2024-02-28T14:41:53.371Z,english_696.wav,0,pill,535,36,4,5,français,m,3,0.3,25.88663843,1.54651286
610d671491693e4ff410860c,59,1,2024-02-28T14:41:53.371Z,english_696.wav,0,pill,535,36,4,5,français,m,4,0.4,-95.94910221,0.7055337
610d671491693e4ff410860c,59,1,2024-02-28T14:41:53.371Z,english_696.wav,0,pill,535,36,4,5,français,m,5,0.5,-72.42601444,0.71467656
610d671491693e4ff410860c,59,1,2024-02-28T14:41:53.371Z,english_696.wav,0,pill,535,36,4,5,français,m,6,0.6,24.16177071,0.57693313
610d671491693e4ff410860c,59,1,2024-02-28T14:41:53.371Z,english_696.wav,0,pill,535,36,4,5,français,m,7,0.7,64.95279218,1.47925574
610d671491693e4ff410860c,59,1,2024-02-28T14:41:53.371Z,english_696.wav,0,pill,535,36,4,5,français,m,8,0.8,52.94859059,0.57583693
610d671491693e4ff410860c,59,1,2024-02-28T14:41:53.371Z,english_696.wav,0,pill,535,36,4,5,français,m,9,0.9,-62.75879423,1.82750547
610d671491693e4ff410860c,59,1,2024-02-28T14:41:53.371Z,english_696.wav,0,pill,535,36,4,5,français,m,10,1.0,30.29085573,0.4690012
610d671491693e4ff410860c,59,1,2024-02-28T14:41:53.371Z,english_696.wav,0,pill,535,36,4,5,français,m,11,1.09391667,95.60067697,1.32087167
610d671491693e4ff410860c,60,1,2024-02-28T14:41:53.371Z,english_330.wav,0,pill,901,36,4,5,français,m,0,0.0,2.24171654,0.54683967
610d671491693e4ff410860c,60,1,2024-02-28T14:41:53.371Z,english_330.wav,0,pill,901,36,4,5,français,m,1,0.1,-47.25901686,1.92392168
610d671491693e4ff410860c,60,1,2024-02-28T14:41:53.371Z,english_330.wav,0,pill,901,36,4,5,français,m,2,0.2,-45.6229367,0.88546949
610d671491693e4ff410860c,60,1,2024-02-28T14:41:53.371Z,english_330.wav,0,pill,901,36,4,5,français,m,3,0.3,-66.26500136,1.41106585
610d671491693e4ff410860c,60,1,2024-02-28T14:41:53.371Z,english_330.wav,0,pill,901,36,4,5,français,m,4,0.4,13.126007,1.87683818
610d671491693e4ff410860c,60,1,2024-02-28T14:41:53.371Z,english_330.wav,0,pill,901,36,4,5,français,m,5,0.5,-55.3162329,1.08870848
610d671491693e4ff410860c,60,1,2024-02-28T14:41:53.371Z,english_330.wav,0,pill,901,36,4,5,français,m,6,0.6,-44.94887053,0.98346159
610d671491693e4ff410860c,60,1,2024-02-28T14:41:53.371Z,english_330.wav,0,pill,901,36,4,5,français,m,7,0.7,21.08483531,0.45031197
610d671491693e4ff410860c,60,1,2024-02-28T14:41:53.371Z,english_330.wav,0,pill,901,36,4,5,français,m,8,0.8,-37.88434209,1.40044514
610d671491693e4ff410860c,60,1,2024-02-28T14:41:53.371Z,english_330.wav,0,pill,901,36,4,5,français,m,9,0.9,4.20371748,0.75112893
610d671491693e4ff410860c,60,1,2024-02-28T14:41:53.371Z,english_330.wav,0,pill,901,36,4,5,français,m,10,1.0,80.65582765,0.77181744
610d671491693e4ff410860c,60,1,2024-02-28T14:41:53.371Z,english_330.wav,0,pill,901,36,4,5,français,m,11,1.09391667,87.33082059,0.38922024
610d671491693e4ff410860c,61,1,2024-02-28T14:41:53.371Z,english_279.wav,0,peel,391,36,4,5,français,m,0,0.0,-36.23762281,1.55188156
610d671491693e4ff410860c,61,1,2024-02-28T14:41:53.371Z,english_279.wav,0,peel,391,36,4,5,français,m,1,0.1,-35.59764132,1.09158025
610d671491693e4ff410860c,61,1,2024-02-28T14:41:53.371Z,english_279.wav,0,peel,391,36,4,5,français,m,2,0.2,-13.82808191,1.04107002
610d671491693e4ff410860c,61,1,2024-02-28T14:41:53.371Z,english_279.wav,0,peel,391,36,4,5,français,m,3,0.3,66.93896188,1.2362444
610d671491693e4ff410860c,61,1,2024-02-28T14:41:53.371Z,english_279.wav,0,peel,391,36,4,5,français,m,4,0.4,44.18525499,0.95842363
610d671491693e4ff410860c,61,1,2024-02-28T14:41:53.371Z,english_279.wav,0,peel,391,36,4,5,français,m,5,0.5,77.32475473,1.88195108
610d671491693e4ff410860c,61,1,2024-02-28T14:41:53.371Z,english_279.wav,0,peel,391,36,4,5,français,m,6,0.6,48.96526153,0.79599844
610d671491693e4ff410860c,61,1,2024-02-28T14:41:53.371Z,english_279.wav,0,peel,391,36,4,5,français,m,7,0.7,-92.8605498,1.52048921
610d671491693e4ff410860c,61,1,2024-02-28T14:41:53.371Z,english_279.wav,0,peel,391,36,4,5,français,m,8,0.8,-72.65791469,0.72907645
610d671491693e4ff410860c,61,1,2024-02-28T14:41:53.371Z,english_279.wav,0,peel,391,36,4,5,français,m,9,0.9,-40.93814374,0.85560625
610d671491693e4ff410860c,61,1,2024-02-28T14:41:53.371Z,english_279.wav,0,peel,391,36,4,5,français,m,10,1.0,53.10101084,1.78550088
610d671491693e4ff410860c,61,1,2024-02-28T14:41:53.371Z,english_279.wav,0,peel,391,36,4,5,français,m,11,1.09391667,-12.52992697,0.47871606
610d671491693e4ff410860c,62,1,2024-02-28T14:41:53.371Z,english_631.wav,0,peel,335,36,4,5,français,m,0,0.0,-27.81937338,1.32778062
610d671491693e4ff410860c,62,1,2024-02-28T14:41:53.371Z,english_631.wav,0,peel,335,36,4,5,français,m,1,0.1,33.35930373,0.48085638
610d671491693e4ff410860c,62,1,2024-02-28T14:41:53.371Z,english_631.wav,0,peel,335,36,4,5,français,m,2,0.2,-11.73917174,1.38663751
610d671491693e4ff410860c,62,1,2024-02-28T14:41:53.371Z,english_631.wav,0,peel,335,36,4,5,français,m,3,0.3,-1.18589974,1.87480355
610d671491693e4ff410860c,62,1,2024-02-28T14:41:53.371Z,english_631.wav,0,peel,335,36,4,5,français,m,4,0.4,27.16828493,0.88998166
610d671491693e4ff410860c,62,1,2024-02-28T14:41:53.371Z,english_631.wav,0,peel,335,36,4,5,français,m,5,0.5,53.71281756,0.85037115
610d671491693e4ff410860c,62,1,2024-02-28T14:41:53.371Z,english_631.wav,0,peel,335,36,4,5,français,m,6,0.6,81.56085765,0.88131869
610d671491693e4ff410860c,62,1,2024-02-28T14:41:53.371Z,english_631.wav,0,peel,335,36,4,5,français,m,7,0.7,89.56289447,1.45107232
610d671491693e4ff410860c,62,1,2024-02-28T14:41:53.371Z,english_631.wav,0,peel,335,36,4,5,français,m,8,0.8,-43.2108802,1.60608237
610d671491693e4ff410860c,62,1,2024-02-28T14:41:53.371Z,english_631.wav,0,peel,335,36,4,5,français,m,9,0.9,-23.23030719,1.10456267
610d671491693e4ff410860c,62,1,2024-02-28T14:41:53.371Z,english_631.wav,0,peel,335,36,4,5,français,m,10,1.0,88.86506339,0.94928651
610d671491693e4ff410860c,62,1,2024-02-28T14:41:53.371Z,english_631.wav,0,peel,335,36,4,5,français,m,11,1.09391667,-96.00200772,0.59566853
610d671491693e4ff410860c,63,1,2024-02-28T14:41:53.371Z,english_98.wav,0,peel,378,36,4,5,français,m,0,0.0,-38.17071081,1.32171021
610d671491693e4ff410860c,63,1,2024-02-28T14:41:53.371Z,english_98.wav,0,peel,378,36,4,5,français,m,1,0.1,3.99117813,0.45941391
610d671491693e4ff410860c,63,1,2024-02-28T14:41:53.371Z,english_98.wav,0,peel,378,36,4,5,français,m,2,0.2,76.94779223,1.60836627
610d671491693e4ff410860c,63,1,2024-02-28T14:41:53.371Z,english_98.wav,0,peel,378,36,4,5,français,m,3,0.3,-47.40720284,0.02861918
610d671491693e4ff410860c,63,1,2024-02-28T14:41:53.371Z,english_98.wav,0,peel,378,36,4,5,français,m,4,0.4,60.49673758,0.62913144
610d671491693e4ff410860c,63,1,2024-02-28T14:41:53.371Z,english_98.wav,0,peel,378,36,4,5,français,m,5,0.5,-72.0425771,0.32921161
610d671491693e4ff410860c,63,1,2024-02-28T14:41:53.371Z,english_98.wav,0,peel,378,36,4,5,français,m,6,0.6,75.35793907,0.47491973
610d671491693e4ff410860c,63,1,2024-02-28T14:41:53.371Z,english_98.wav,0,peel,378,36,4,5,français,m,7,0.7,-37.84878225,1.13024742
610d671491693e4ff410860c,63,1,2024-02-28T14:41:53.371Z,english_98.wav,0,peel,378,36,4,5,français,m,8,0.8,-2.2661701,1.3276578
610d671491693e4ff410860c,63,1,2024-02-28T14:41:53.371Z,english_98.wav,0,peel,378,36,4,5,français,m,9,0.9,-10.24921113,0.74289268
610d671491693e4ff410860c,63,1,2024-02-28T14:41:53.371Z,english_98.wav,0,peel,378,36,4,5,français,m,10,1.0,2.65052449,0.21343851
610d671491693e4ff410860c,63,1,2024-02-28T14:41:53.371Z,english_98.wav,0,peel,378,36,4,5,français,m,11,1.09391667,-59.74440562,0.54238322
610d671491693e4ff410860c,64,1,2024-02-28T14:41:53.371Z,english_774.wav,0,peel,182,36,4,5,français,m,0,0.0,38.7876064,0.43642058
610d671491693e4ff410860c,64,1,2024-02-28T14:41:53.371Z,english_774.wav,0,peel,182,36,4,5,français,m,1,0.1,-21.79427352,1.59194207
