subj,trial,block,date,stim,stim_order,response,rt,age,english,french,language,sex,param_index,segment,pitch,stretch
5f90c32f69122f1cebd1cc0b,0,0,2024-02-28T17:14:53.569Z,english_434.wav,0,pill,4661,55,4,5,français,m,0,0.0,50.47761392,1.72511711
5f90c32f69122f1cebd1cc0b,0,0,2024-02-28T17:14:53.569Z,english_434.wav,0,pill,4661,55,4,5,français,m,1,0.1,-33.38487677,0.67409863
5f90c32f69122f1cebd1cc0b,0,0,2024-02-28T17:14:53.569Z,english_434.wav,0,pill,4661,55,4,5,français,m,2,0.2,-6.35895817,0.85225266
5f90c32f69122f1cebd1cc0b,0,0,2024-02-28T17:14:53.569Z,english_434.wav,0,pill,4661,55,4,5,français,m,3,0.3,58.81206484,1.03084546
5f90c32f69122f1cebd1cc0b,0,0,2024-02-28T17:14:53.569Z,english_434.wav,0,pill,4661,55,4,5,français,m,4,0.4,2.00815972,0.30841411
5f90c32f69122f1cebd1cc0b,0,0,2024-02-28T17:14:53.569Z,english_434.wav,0,pill,4661,55,4,5,français,m,5,0.5,-28.96305016,0.11116274
5f90c32f69122f1cebd1cc0b,0,0,2024-02-28T17:14:53.569Z,english_434.wav,0,pill,4661,55,4,5,français,m,6,0.6,-44.65800209,0.82038961
5f90c32f69122f1cebd1cc0b,0,0,2024-02-28T17:14:53.569Z,english_434.wav,0,pill,4661,55,4,5,français,m,7,0.7,-3.89112712,1.79901884
5f90c32f69122f1cebd1cc0b,0,0,2024-02-28T17:14:53.569Z,english_434.wav,0,pill,4661,55,4,5,français,m,8,0.8,-49.09619099,1.01461121
5f90c32f69122f1cebd1cc0b,0,0,2024-02-28T17:14:53.569Z,english_434.wav,0,pill,4661,55,4,5,français,m,9,0.9,-79.81092904,1.16161114
5f90c32f69122f1cebd1cc0b,0,0,2024-02-28T17:14:53.569Z,english_434.wav,0,pill,4661,55,4,5,français,m,10,1.0,72.91556136,1.34038877
5f90c32f69122f1cebd1cc0b,0,0,2024-02-28T17:14:53.569Z,english_434.wav,0,pill,4661,55,4,5,français,m,11,1.09391667,-8.48383865,1.19926856
5f90c32f69122f1cebd1cc0b,1,0,2024-02-28T17:14:53.569Z,english_307.wav,0,pill,3280,55,4,5,français,m,0,0.0,4.09277184,1.54634017
5f90c32f69122f1cebd1cc0b,1,0,2024-02-28T17:14:53.569Z,english_307.wav,0,pill,3280,55,4,5,français,m,1,0.1,-55.10651609,1.62042314
5f90c32f69122f1cebd1cc0b,1,0,2024-02-28T17:14:53.569Z,english_307.wav,0,pill,3280,55,4,5,français,m,2,0.2,40.66104674,0.53651735
5f90c32f69122f1cebd1cc0b,1,0,2024-02-28T17:14:53.569Z,english_307.wav,0,pill,3280,55,4,5,français,m,3,0.3,25.01631041,1.3289867
5f90c32f69122f1cebd1cc0b,1,0,2024-02-28T17:14:53.569Z,english_307.wav,0,pill,3280,55,4,5,français,m,4,0.4,-83.19534886,1.20481488
5f90c32f69122f1cebd1cc0b,1,0,2024-02-28T17:14:53.569Z,english_307.wav,0,pill,3280,55,4,5,français,m,5,0.5,50.47121196,0.91135424
5f90c32f69122f1cebd1cc0b,1,0,2024-02-28T17:14:53.569Z,english_307.wav,0,pill,3280,55,4,5,français,m,6,0.6,-23.06520129,0.34154344
5f90c32f69122f1cebd1cc0b,1,0,2024-02-28T17:14:53.569Z,english_307.wav,0,pill,3280,55,4,5,français,m,7,0.7,6.60696351,0.77838965
5f90c32f69122f1cebd1cc0b,1,0,2024-02-28T17:14:53.569Z,english_307.wav,0,pill,3280,55,4,5,français,m,8,0.8,32.78812168,1.52188148
5f90c32f69122f1cebd1cc0b,1,0,2024-02-28T17:14:53.569Z,english_307.wav,0,pill,3280,55,4,5,français,m,9,0.9,-29.8510749,1.3469183
5f90c32f69122f1cebd1cc0b,1,0,2024-02-28T17:14:53.569Z,english_307.wav,0,pill,3280,55,4,5,français,m,10,1.0,-51.20036712,0.11286505
5f90c32f69122f1cebd1cc0b,1,0,2024-02-28T17:14:53.569Z,english_307.wav,0,pill,3280,55,4,5,français,m,11,1.09391667,-34.31103599,1.9894596
5f90c32f69122f1cebd1cc0b,2,0,2024-02-28T17:14:53.569Z,english_324.wav,0,pill,2458,55,4,5,français,m,0,0.0,17.54140289,0.28643924
5f90c32f69122f1cebd1cc0b,2,0,2024-02-28T17:14:53.569Z,english_324.wav,0,pill,2458,55,4,5,français,m,1,0.1,71.06846472,0.89310243
5f90c32f69122f1cebd1cc0b,2,0,2024-02-28T17:14:53.569Z,english_324.wav,0,pill,2458,55,4,5,français,m,2,0.2,-58.0756972,0.19434283
5f90c32f69122f1cebd1cc0b,2,0,2024-02-28T17:14:53.569Z,english_324.wav,0,pill,2458,55,4,5,français,m,3,0.3,21.96350357,1.40300385
5f90c32f69122f1cebd1cc0b,2,0,2024-02-28T17:14:53.569Z,english_324.wav,0,pill,2458,55,4,5,français,m,4,0.4,8.51736718,0.22031138
5f90c32f69122f1cebd1cc0b,2,0,2024-02-28T17:14:53.569Z,english_324.wav,0,pill,2458,55,4,5,français,m,5,0.5,54.10034556,1.10087032
5f90c32f69122f1cebd1cc0b,2,0,2024-02-28T17:14:53.569Z,english_324.wav,0,pill,2458,55,4,5,français,m,6,0.6,-45.23490782,0.61239123
5f90c32f69122f1cebd1cc0b,2,0,2024-02-28T17:14:53.569Z,english_324.wav,0,pill,2458,55,4,5,français,m,7,0.7,-47.50195247,0.50887139
5f90c32f69122f1cebd1cc0b,2,0,2024-02-28T17:14:53.569Z,english_324.wav,0,pill,2458,55,4,5,français,m,8,0.8,90.23201078,1.93720132
5f90c32f69122f1cebd1cc0b,2,0,2024-02-28T17:14:53.569Z,english_324.wav,0,pill,2458,55,4,5,français,m,9,0.9,-25.79699052,1.9219801
5f90c32f69122f1cebd1cc0b,2,0,2024-02-28T17:14:53.569Z,english_324.wav,0,pill,2458,55,4,5,français,m,10,1.0,-46.49971987,0.58550327
5f90c32f69122f1cebd1cc0b,2,0,2024-02-28T17:14:53.569Z,english_324.wav,0,pill,2458,55,4,5,français,m,11,1.09391667,53.98083149,0.44963146
5f90c32f69122f1cebd1cc0b,3,0,2024-02-28T17:14:53.569Z,english_231.wav,0,pill,4995,55,4,5,français,m,0,0.0,-62.2179541,1.81174186
5f90c32f69122f1cebd1cc0b,3,0,2024-02-28T17:14:53.569Z,english_231.wav,0,pill,4995,55,4,5,français,m,1,0.1,-68.5873809,1.83025058
5f90c32f69122f1cebd1cc0b,3,0,2024-02-28T17:14:53.569Z,english_231.wav,0,pill,4995,55,4,5,français,m,2,0.2,-23.63984274,0.80354138
5f90c32f69122f1cebd1cc0b,3,0,2024-02-28T17:14:53.569Z,english_231.wav,0,pill,4995,55,4,5,français,m,3,0.3,-33.31819394,1.41218614
5f90c32f69122f1cebd1cc0b,3,0,2024-02-28T17:14:53.569Z,english_231.wav,0,pill,4995,55,4,5,français,m,4,0.4,73.10663902,0.69584773
5f90c32f69122f1cebd1cc0b,3,0,2024-02-28T17:14:53.569Z,english_231.wav,0,pill,4995,55,4,5,français,m,5,0.5,-43.5142123,0.95321477
5f90c32f69122f1cebd1cc0b,3,0,2024-02-28T17:14:53.569Z,english_231.wav,0,pill,4995,55,4,5,français,m,6,0.6,31.90774571,1.60478776
5f90c32f69122f1cebd1cc0b,3,0,2024-02-28T17:14:53.569Z,english_231.wav,0,pill,4995,55,4,5,français,m,7,0.7,86.22472646,0.79586742
5f90c32f69122f1cebd1cc0b,3,0,2024-02-28T17:14:53.569Z,english_231.wav,0,pill,4995,55,4,5,français,m,8,0.8,-71.54568586,1.11798483
5f90c32f69122f1cebd1cc0b,3,0,2024-02-28T17:14:53.569Z,english_231.wav,0,pill,4995,55,4,5,français,m,9,0.9,72.93187179,1.7522781
5f90c32f69122f1cebd1cc0b,3,0,2024-02-28T17:14:53.569Z,english_231.wav,0,pill,4995,55,4,5,français,m,10,1.0,29.12885345,0.47731109
5f90c32f69122f1cebd1cc0b,3,0,2024-02-28T17:14:53.569Z,english_231.wav,0,pill,4995,55,4,5,français,m,11,1.09391667,-28.38876841,0.90269173
5f90c32f69122f1cebd1cc0b,4,0,2024-02-28T17:14:53.569Z,english_701.wav,0,pill,950,55,4,5,français,m,0,0.0,-93.84804117,0.47905205
5f90c32f69122f1cebd1cc0b,4,0,2024-02-28T17:14:53.569Z,english_701.wav,0,pill,950,55,4,5,français,m,1,0.1,-77.23912918,0.43335114
5f90c32f69122f1cebd1cc0b,4,0,2024-02-28T17:14:53.569Z,english_701.wav,0,pill,950,55,4,5,français,m,2,0.2,-45.57356693,0.98258142
5f90c32f69122f1cebd1cc0b,4,0,2024-02-28T17:14:53.569Z,english_701.wav,0,pill,950,55,4,5,français,m,3,0.3,-80.33366172,1.56424934
5f90c32f69122f1cebd1cc0b,4,0,2024-02-28T17:14:53.569Z,english_701.wav,0,pill,950,55,4,5,français,m,4,0.4,95.38038132,1.99053476
5f90c32f69122f1cebd1cc0b,4,0,2024-02-28T17:14:53.569Z,english_701.wav,0,pill,950,55,4,5,français,m,5,0.5,43.37257018,1.06230172
5f90c32f69122f1cebd1cc0b,4,0,2024-02-28T17:14:53.569Z,english_701.wav,0,pill,950,55,4,5,français,m,6,0.6,20.80863296,1.81617496
5f90c32f69122f1cebd1cc0b,4,0,2024-02-28T17:14:53.569Z,english_701.wav,0,pill,950,55,4,5,français,m,7,0.7,-74.49587502,0.70378114
5f90c32f69122f1cebd1cc0b,4,0,2024-02-28T17:14:53.569Z,english_701.wav,0,pill,950,55,4,5,français,m,8,0.8,53.82285156,1.40362465
5f90c32f69122f1cebd1cc0b,4,0,2024-02-28T17:14:53.569Z,english_701.wav,0,pill,950,55,4,5,français,m,9,0.9,86.20229822,0.70617413
5f90c32f69122f1cebd1cc0b,4,0,2024-02-28T17:14:53.569Z,english_701.wav,0,pill,950,55,4,5,français,m,10,1.0,-84.46214873,0.74798843
5f90c32f69122f1cebd1cc0b,4,0,2024-02-28T17:14:53.569Z,english_701.wav,0,pill,950,55,4,5,français,m,11,1.09391667,1.75691035,0.6850293
5f90c32f69122f1cebd1cc0b,5,0,2024-02-28T17:14:53.569Z,english_130.wav,0,pill,1388,55,4,5,français,m,0,0.0,63.22786083,1.15410046
5f90c32f69122f1cebd1cc0b,5,0,2024-02-28T17:14:53.569Z,english_130.wav,0,pill,1388,55,4,5,français,m,1,0.1,87.85722404,0.37024368
5f90c32f69122f1cebd1cc0b,5,0,2024-02-28T17:14:53.569Z,english_130.wav,0,pill,1388,55,4,5,français,m,2,0.2,-11.67996756,1.81334
5f90c32f69122f1cebd1cc0b,5,0,2024-02-28T17:14:53.569Z,english_130.wav,0,pill,1388,55,4,5,français,m,3,0.3,-61.23287213,1.04249546
5f90c32f69122f1cebd1cc0b,5,0,2024-02-28T17:14:53.569Z,english_130.wav,0,pill,1388,55,4,5,français,m,4,0.4,31.74111168,0.8243923
5f90c32f69122f1cebd1cc0b,5,0,2024-02-28T17:14:53.569Z,english_130.wav,0,pill,1388,55,4,5,français,m,5,0.5,33.84141617,1.89113742
5f90c32f69122f1cebd1cc0b,5,0,2024-02-28T17:14:53.569Z,english_130.wav,0,pill,1388,55,4,5,français,m,6,0.6,19.96692936,0.69337223
5f90c32f69122f1cebd1cc0b,5,0,2024-02-28T17:14:53.569Z,english_130.wav,0,pill,1388,55,4,5,français,m,7,0.7,-37.06015238,1.01307283
5f90c32f69122f1cebd1cc0b,5,0,2024-02-28T17:14:53.569Z,english_130.wav,0,pill,1388,55,4,5,français,m,8,0.8,53.30817693,0.67908163
5f90c32f69122f1cebd1cc0b,5,0,2024-02-28T17:14:53.569Z,english_130.wav,0,pill,1388,55,4,5,français,m,9,0.9,56.319569,0.07541053
5f90c32f69122f1cebd1cc0b,5,0,2024-02-28T17:14:53.569Z,english_130.wav,0,pill,1388,55,4,5,français,m,10,1.0,38.79278484,1.95325555
5f90c32f69122f1cebd1cc0b,5,0,2024-02-28T17:14:53.569Z,english_130.wav,0,pill,1388,55,4,5,français,m,11,1.09391667,-4.91911249,0.98387982
5f90c32f69122f1cebd1cc0b,6,0,2024-02-28T17:14:53.569Z,english_508.wav,0,pill,1049,55,4,5,français,m,0,0.0,29.95487344,1.28947786
5f90c32f69122f1cebd1cc0b,6,0,2024-02-28T17:14:53.569Z,english_508.wav,0,pill,1049,55,4,5,français,m,1,0.1,-43.56994085,0.45872669
5f90c32f69122f1cebd1cc0b,6,0,2024-02-28T17:14:53.569Z,english_508.wav,0,pill,1049,55,4,5,français,m,2,0.2,95.99440846,1.02864136
5f90c32f69122f1cebd1cc0b,6,0,2024-02-28T17:14:53.569Z,english_508.wav,0,pill,1049,55,4,5,français,m,3,0.3,96.63128694,1.38697031
5f90c32f69122f1cebd1cc0b,6,0,2024-02-28T17:14:53.569Z,english_508.wav,0,pill,1049,55,4,5,français,m,4,0.4,81.88240965,0.48619633
5f90c32f69122f1cebd1cc0b,6,0,2024-02-28T17:14:53.569Z,english_508.wav,0,pill,1049,55,4,5,français,m,5,0.5,-30.32405698,1.35316712
5f90c32f69122f1cebd1cc0b,6,0,2024-02-28T17:14:53.569Z,english_508.wav,0,pill,1049,55,4,5,français,m,6,0.6,-70.6760635,0.61818132
5f90c32f69122f1cebd1cc0b,6,0,2024-02-28T17:14:53.569Z,english_508.wav,0,pill,1049,55,4,5,français,m,7,0.7,-36.19238407,0.31535759
5f90c32f69122f1cebd1cc0b,6,0,2024-02-28T17:14:53.569Z,english_508.wav,0,pill,1049,55,4,5,français,m,8,0.8,18.2315003,1.60240226
5f90c32f69122f1cebd1cc0b,6,0,2024-02-28T17:14:53.569Z,english_508.wav,0,pill,1049,55,4,5,français,m,9,0.9,-71.56865734,1.17638413
5f90c32f69122f1cebd1cc0b,6,0,2024-02-28T17:14:53.569Z,english_508.wav,0,pill,1049,55,4,5,français,m,10,1.0,-72.78274833,0.8457368
5f90c32f69122f1cebd1cc0b,6,0,2024-02-28T17:14:53.569Z,english_508.wav,0,pill,1049,55,4,5,français,m,11,1.09391667,51.72471755,0.31851434
5f90c32f69122f1cebd1cc0b,7,0,2024-02-28T17:14:53.569Z,english_983.wav,0,pill,1236,55,4,5,français,m,0,0.0,-50.22823897,0.88633634
5f90c32f69122f1cebd1cc0b,7,0,2024-02-28T17:14:53.569Z,english_983.wav,0,pill,1236,55,4,5,français,m,1,0.1,-4.67437073,1.28034271
5f90c32f69122f1cebd1cc0b,7,0,2024-02-28T17:14:53.569Z,english_983.wav,0,pill,1236,55,4,5,français,m,2,0.2,-31.6094098,0.94172266
5f90c32f69122f1cebd1cc0b,7,0,2024-02-28T17:14:53.569Z,english_983.wav,0,pill,1236,55,4,5,français,m,3,0.3,25.42275216,0.73344406
5f90c32f69122f1cebd1cc0b,7,0,2024-02-28T17:14:53.569Z,english_983.wav,0,pill,1236,55,4,5,français,m,4,0.4,79.9624674,1.78223604
5f90c32f69122f1cebd1cc0b,7,0,2024-02-28T17:14:53.569Z,english_983.wav,0,pill,1236,55,4,5,français,m,5,0.5,11.84827872,1.04715588
5f90c32f69122f1cebd1cc0b,7,0,2024-02-28T17:14:53.569Z,english_983.wav,0,pill,1236,55,4,5,français,m,6,0.6,-53.41316004,1.93599287
5f90c32f69122f1cebd1cc0b,7,0,2024-02-28T17:14:53.569Z,english_983.wav,0,pill,1236,55,4,5,français,m,7,0.7,-2.37481813,0.44413806
5f90c32f69122f1cebd1cc0b,7,0,2024-02-28T17:14:53.569Z,english_983.wav,0,pill,1236,55,4,5,français,m,8,0.8,81.38125647,0.67013669
5f90c32f69122f1cebd1cc0b,7,0,2024-02-28T17:14:53.569Z,english_983.wav,0,pill,1236,55,4,5,français,m,9,0.9,-62.03068284,1.03528206
5f90c32f69122f1cebd1cc0b,7,0,2024-02-28T17:14:53.569Z,english_983.wav,0,pill,1236,55,4,5,français,m,10,1.0,-64.21224493,0.12422577
5f90c32f69122f1cebd1cc0b,7,0,2024-02-28T17:14:53.569Z,english_983.wav,0,pill,1236,55,4,5,français,m,11,1.09391667,38.19793451,1.50859084
5f90c32f69122f1cebd1cc0b,8,0,2024-02-28T17:14:53.569Z,english_217.wav,0,pill,1063,55,4,5,français,m,0,0.0,49.03427647,0.32664973
5f90c32f69122f1cebd1cc0b,8,0,2024-02-28T17:14:53.569Z,english_217.wav,0,pill,1063,55,4,5,français,m,1,0.1,55.51339481,1.39032489
5f90c32f69122f1cebd1cc0b,8,0,2024-02-28T17:14:53.569Z,english_217.wav,0,pill,1063,55,4,5,français,m,2,0.2,8.85342812,0.17335256
5f90c32f69122f1cebd1cc0b,8,0,2024-02-28T17:14:53.569Z,english_217.wav,0,pill,1063,55,4,5,français,m,3,0.3,38.54994366,0.12434027
5f90c32f69122f1cebd1cc0b,8,0,2024-02-28T17:14:53.569Z,english_217.wav,0,pill,1063,55,4,5,français,m,4,0.4,-2.70833959,1.97912601
5f90c32f69122f1cebd1cc0b,8,0,2024-02-28T17:14:53.569Z,english_217.wav,0,pill,1063,55,4,5,français,m,5,0.5,70.3938548,0.49508024
5f90c32f69122f1cebd1cc0b,8,0,2024-02-28T17:14:53.569Z,english_217.wav,0,pill,1063,55,4,5,français,m,6,0.6,5.12480722,1.41080808
5f90c32f69122f1cebd1cc0b,8,0,2024-02-28T17:14:53.569Z,english_217.wav,0,pill,1063,55,4,5,français,m,7,0.7,-74.03796069,0.59237566
5f90c32f69122f1cebd1cc0b,8,0,2024-02-28T17:14:53.569Z,english_217.wav,0,pill,1063,55,4,5,français,m,8,0.8,-33.3486243,0.51007366
5f90c32f69122f1cebd1cc0b,8,0,2024-02-28T17:14:53.569Z,english_217.wav,0,pill,1063,55,4,5,français,m,9,0.9,-40.28599149,0.60232464
5f90c32f69122f1cebd1cc0b,8,0,2024-02-28T17:14:53.569Z,english_217.wav,0,pill,1063,55,4,5,français,m,10,1.0,19.2288181,0.62471618
5f90c32f69122f1cebd1cc0b,8,0,2024-02-28T17:14:53.569Z,english_217.wav,0,pill,1063,55,4,5,français,m,11,1.09391667,28.27107092,0.07651966
5f90c32f69122f1cebd1cc0b,9,0,2024-02-28T17:14:53.569Z,english_23.wav,0,pill,1537,55,4,5,français,m,0,0.0,-81.37820874,0.766267
5f90c32f69122f1cebd1cc0b,9,0,2024-02-28T17:14:53.569Z,english_23.wav,0,pill,1537,55,4,5,français,m,1,0.1,78.5335862,0.99963617
5f90c32f69122f1cebd1cc0b,9,0,2024-02-28T17:14:53.569Z,english_23.wav,0,pill,1537,55,4,5,français,m,2,0.2,2.49490295,0.86356333
5f90c32f69122f1cebd1cc0b,9,0,2024-02-28T17:14:53.569Z,english_23.wav,0,pill,1537,55,4,5,français,m,3,0.3,-86.79579175,1.2935249
5f90c32f69122f1cebd1cc0b,9,0,2024-02-28T17:14:53.569Z,english_23.wav,0,pill,1537,55,4,5,français,m,4,0.4,67.70163639,1.06200742
5f90c32f69122f1cebd1cc0b,9,0,2024-02-28T17:14:53.569Z,english_23.wav,0,pill,1537,55,4,5,français,m,5,0.5,15.95354821,0.35652914
5f90c32f69122f1cebd1cc0b,9,0,2024-02-28T17:14:53.569Z,english_23.wav,0,pill,1537,55,4,5,français,m,6,0.6,39.96363373,0.94623028
5f90c32f69122f1cebd1cc0b,9,0,2024-02-28T17:14:53.569Z,english_23.wav,0,pill,1537,55,4,5,français,m,7,0.7,26.12658962,1.75391992
5f90c32f69122f1cebd1cc0b,9,0,2024-02-28T17:14:53.569Z,english_23.wav,0,pill,1537,55,4,5,français,m,8,0.8,-97.91039736,0.51382587
5f90c32f69122f1cebd1cc0b,9,0,2024-02-28T17:14:53.569Z,english_23.wav,0,pill,1537,55,4,5,français,m,9,0.9,-31.02807756,0.42089134
5f90c32f69122f1cebd1cc0b,9,0,2024-02-28T17:14:53.569Z,english_23.wav,0,pill,1537,55,4,5,français,m,10,1.0,-20.21947661,0.35251111
5f90c32f69122f1cebd1cc0b,9,0,2024-02-28T17:14:53.569Z,english_23.wav,0,pill,1537,55,4,5,français,m,11,1.09391667,-62.16065677,0.28724109
5f90c32f69122f1cebd1cc0b,10,0,2024-02-28T17:14:53.569Z,english_935.wav,0,pill,16443,55,4,5,français,m,0,0.0,-66.017305,0.5568005
5f90c32f69122f1cebd1cc0b,10,0,2024-02-28T17:14:53.569Z,english_935.wav,0,pill,16443,55,4,5,français,m,1,0.1,-96.46975552,0.64067821
5f90c32f69122f1cebd1cc0b,10,0,2024-02-28T17:14:53.569Z,english_935.wav,0,pill,16443,55,4,5,français,m,2,0.2,41.01490818,1.2239279
5f90c32f69122f1cebd1cc0b,10,0,2024-02-28T17:14:53.569Z,english_935.wav,0,pill,16443,55,4,5,français,m,3,0.3,-8.07360152,1.1472743
5f90c32f69122f1cebd1cc0b,10,0,2024-02-28T17:14:53.569Z,english_935.wav,0,pill,16443,55,4,5,français,m,4,0.4,43.89693233,0.40023778
5f90c32f69122f1cebd1cc0b,10,0,2024-02-28T17:14:53.569Z,english_935.wav,0,pill,16443,55,4,5,français,m,5,0.5,-91.80623652,1.34831364
5f90c32f69122f1cebd1cc0b,10,0,2024-02-28T17:14:53.569Z,english_935.wav,0,pill,16443,55,4,5,français,m,6,0.6,20.19515947,1.39566251
5f90c32f69122f1cebd1cc0b,10,0,2024-02-28T17:14:53.569Z,english_935.wav,0,pill,16443,55,4,5,français,m,7,0.7,-99.45471076,0.66795844
5f90c32f69122f1cebd1cc0b,10,0,2024-02-28T17:14:53.569Z,english_935.wav,0,pill,16443,55,4,5,français,m,8,0.8,15.46433912,1.24993732
5f90c32f69122f1cebd1cc0b,10,0,2024-02-28T17:14:53.569Z,english_935.wav,0,pill,16443,55,4,5,français,m,9,0.9,29.18172842,0.82560858
5f90c32f69122f1cebd1cc0b,10,0,2024-02-28T17:14:53.569Z,english_935.wav,0,pill,16443,55,4,5,français,m,10,1.0,64.82314597,1.15031979
5f90c32f69122f1cebd1cc0b,10,0,2024-02-28T17:14:53.569Z,english_935.wav,0,pill,16443,55,4,5,français,m,11,1.09391667,43.21629408,1.54604581
5f90c32f69122f1cebd1cc0b,11,0,2024-02-28T17:14:53.569Z,english_230.wav,0,pill,1228,55,4,5,français,m,0,0.0,33.38389537,1.56748289
5f90c32f69122f1cebd1cc0b,11,0,2024-02-28T17:14:53.569Z,english_230.wav,0,pill,1228,55,4,5,français,m,1,0.1,-34.15374901,0.35840318
5f90c32f69122f1cebd1cc0b,11,0,2024-02-28T17:14:53.569Z,english_230.wav,0,pill,1228,55,4,5,français,m,2,0.2,-17.15972141,0.69573927
5f90c32f69122f1cebd1cc0b,11,0,2024-02-28T17:14:53.569Z,english_230.wav,0,pill,1228,55,4,5,français,m,3,0.3,-8.06213265,1.48062695
5f90c32f69122f1cebd1cc0b,11,0,2024-02-28T17:14:53.569Z,english_230.wav,0,pill,1228,55,4,5,français,m,4,0.4,10.20192226,1.80584749
5f90c32f69122f1cebd1cc0b,11,0,2024-02-28T17:14:53.569Z,english_230.wav,0,pill,1228,55,4,5,français,m,5,0.5,-58.60843687,0.27713833
5f90c32f69122f1cebd1cc0b,11,0,2024-02-28T17:14:53.569Z,english_230.wav,0,pill,1228,55,4,5,français,m,6,0.6,79.76687213,0.54911174
5f90c32f69122f1cebd1cc0b,11,0,2024-02-28T17:14:53.569Z,english_230.wav,0,pill,1228,55,4,5,français,m,7,0.7,-68.85443864,0.47648858
5f90c32f69122f1cebd1cc0b,11,0,2024-02-28T17:14:53.569Z,english_230.wav,0,pill,1228,55,4,5,français,m,8,0.8,-14.23970475,1.61704234
5f90c32f69122f1cebd1cc0b,11,0,2024-02-28T17:14:53.569Z,english_230.wav,0,pill,1228,55,4,5,français,m,9,0.9,-88.80466565,1.41921333
5f90c32f69122f1cebd1cc0b,11,0,2024-02-28T17:14:53.569Z,english_230.wav,0,pill,1228,55,4,5,français,m,10,1.0,-64.76676699,0.47778277
5f90c32f69122f1cebd1cc0b,11,0,2024-02-28T17:14:53.569Z,english_230.wav,0,pill,1228,55,4,5,français,m,11,1.09391667,-85.72124736,0.86213517
5f90c32f69122f1cebd1cc0b,12,0,2024-02-28T17:14:53.569Z,english_578.wav,0,pill,1800,55,4,5,français,m,0,0.0,-75.00897619,0.74810011
5f90c32f69122f1cebd1cc0b,12,0,2024-02-28T17:14:53.569Z,english_578.wav,0,pill,1800,55,4,5,français,m,1,0.1,-99.92599168,1.6653295
5f90c32f69122f1cebd1cc0b,12,0,2024-02-28T17:14:53.569Z,english_578.wav,0,pill,1800,55,4,5,français,m,2,0.2,-41.97852884,0.86958953
5f90c32f69122f1cebd1cc0b,12,0,2024-02-28T17:14:53.569Z,english_578.wav,0,pill,1800,55,4,5,français,m,3,0.3,-44.5286304,1.82114948
5f90c32f69122f1cebd1cc0b,12,0,2024-02-28T17:14:53.569Z,english_578.wav,0,pill,1800,55,4,5,français,m,4,0.4,33.7471246,1.20682151
5f90c32f69122f1cebd1cc0b,12,0,2024-02-28T17:14:53.569Z,english_578.wav,0,pill,1800,55,4,5,français,m,5,0.5,-20.55369632,0.95346463
5f90c32f69122f1cebd1cc0b,12,0,2024-02-28T17:14:53.569Z,english_578.wav,0,pill,1800,55,4,5,français,m,6,0.6,80.47589593,1.35013789
5f90c32f69122f1cebd1cc0b,12,0,2024-02-28T17:14:53.569Z,english_578.wav,0,pill,1800,55,4,5,français,m,7,0.7,-14.97727246,1.4182331
5f90c32f69122f1cebd1cc0b,12,0,2024-02-28T17:14:53.569Z,english_578.wav,0,pill,1800,55,4,5,français,m,8,0.8,-21.44814327,1.48872207
5f90c32f69122f1cebd1cc0b,12,0,2024-02-28T17:14:53.569Z,english_578.wav,0,pill,1800,55,4,5,français,m,9,0.9,-62.07774638,0.52217737
5f90c32f69122f1cebd1cc0b,12,0,2024-02-28T17:14:53.569Z,english_578.wav,0,pill,1800,55,4,5,français,m,10,1.0,-99.81693505,1.9830309
5f90c32f69122f1cebd1cc0b,12,0,2024-02-28T17:14:53.569Z,english_578.wav,0,pill,1800,55,4,5,français,m,11,1.09391667,-93.56727968,1.11565266
5f90c32f69122f1cebd1cc0b,13,0,2024-02-28T17:14:53.569Z,english_317.wav,0,pill,551,55,4,5,français,m,0,0.0,35.80517537,1.51358533
5f90c32f69122f1cebd1cc0b,13,0,2024-02-28T17:14:53.569Z,english_317.wav,0,pill,551,55,4,5,français,m,1,0.1,-47.20528256,0.29972078
5f90c32f69122f1cebd1cc0b,13,0,2024-02-28T17:14:53.569Z,english_317.wav,0,pill,551,55,4,5,français,m,2,0.2,10.16864163,1.18281069
5f90c32f69122f1cebd1cc0b,13,0,2024-02-28T17:14:53.569Z,english_317.wav,0,pill,551,55,4,5,français,m,3,0.3,32.59206289,1.39231518
5f90c32f69122f1cebd1cc0b,13,0,2024-02-28T17:14:53.569Z,english_317.wav,0,pill,551,55,4,5,français,m,4,0.4,20.53754814,1.77974686
5f90c32f69122f1cebd1cc0b,13,0,2024-02-28T17:14:53.569Z,english_317.wav,0,pill,551,55,4,5,français,m,5,0.5,-78.8593211,1.1695001
5f90c32f69122f1cebd1cc0b,13,0,2024-02-28T17:14:53.569Z,english_317.wav,0,pill,551,55,4,5,français,m,6,0.6,-97.96541086,1.77666203
5f90c32f69122f1cebd1cc0b,13,0,2024-02-28T17:14:53.569Z,english_317.wav,0,pill,551,55,4,5,français,m,7,0.7,49.60543729,0.8164879
5f90c32f69122f1cebd1cc0b,13,0,2024-02-28T17:14:53.569Z,english_317.wav,0,pill,551,55,4,5,français,m,8,0.8,-69.92457952,0.08502592
5f90c32f69122f1cebd1cc0b,13,0,2024-02-28T17:14:53.569Z,english_317.wav,0,pill,551,55,4,5,français,m,9,0.9,-3.69767957,1.29069951
5f90c32f69122f1cebd1cc0b,13,0,2024-02-28T17:14:53.569Z,english_317.wav,0,pill,551,55,4,5,français,m,10,1.0,-3.35302539,0.64002495
5f90c32f69122f1cebd1cc0b,13,0,2024-02-28T17:14:53.569Z,english_317.wav,0,pill,551,55,4,5,français,m,11,1.09391667,29.32411719,1.74584587
5f90c32f69122f1cebd1cc0b,14,0,2024-02-28T17:14:53.569Z,english_504.wav,0,pill,832,55,4,5,français,m,0,0.0,-66.23189197,1.64024725
5f90c32f69122f1cebd1cc0b,14,0,2024-02-28T17:14:53.569Z,english_504.wav,0,pill,832,55,4,5,français,m,1,0.1,-7.28081394,1.33861833
5f90c32f69122f1cebd1cc0b,14,0,2024-02-28T17:14:53.569Z,english_504.wav,0,pill,832,55,4,5,français,m,2,0.2,-74.05426979,0.21996253
5f90c32f69122f1cebd1cc0b,14,0,2024-02-28T17:14:53.569Z,english_504.wav,0,pill,832,55,4,5,français,m,3,0.3,-2.17834407,0.9295354
5f90c32f69122f1cebd1cc0b,14,0,2024-02-28T17:14:53.569Z,english_504.wav,0,pill,832,55,4,5,français,m,4,0.4,-44.29553612,0.18867482
5f90c32f69122f1cebd1cc0b,14,0,2024-02-28T17:14:53.569Z,english_504.wav,0,pill,832,55,4,5,français,m,5,0.5,-21.93882769,0.17745141
5f90c32f69122f1cebd1cc0b,14,0,2024-02-28T17:14:53.569Z,english_504.wav,0,pill,832,55,4,5,français,m,6,0.6,-6.80381408,1.36415298
5f90c32f69122f1cebd1cc0b,14,0,2024-02-28T17:14:53.569Z,english_504.wav,0,pill,832,55,4,5,français,m,7,0.7,9.00050206,1.08571676
5f90c32f69122f1cebd1cc0b,14,0,2024-02-28T17:14:53.569Z,english_504.wav,0,pill,832,55,4,5,français,m,8,0.8,-19.58321875,1.38544941
5f90c32f69122f1cebd1cc0b,14,0,2024-02-28T17:14:53.569Z,english_504.wav,0,pill,832,55,4,5,français,m,9,0.9,-97.27632106,0.33380342
5f90c32f69122f1cebd1cc0b,14,0,2024-02-28T17:14:53.569Z,english_504.wav,0,pill,832,55,4,5,français,m,10,1.0,94.36582119,0.16971293
5f90c32f69122f1cebd1cc0b,14,0,2024-02-28T17:14:53.569Z,english_504.wav,0,pill,832,55,4,5,français,m,11,1.09391667,-77.55415354,0.89224977
5f90c32f69122f1cebd1cc0b,15,0,2024-02-28T17:14:53.569Z,english_918.wav,0,pill,691,55,4,5,français,m,0,0.0,7.81141633,1.24491342
5f90c32f69122f1cebd1cc0b,15,0,2024-02-28T17:14:53.569Z,english_918.wav,0,pill,691,55,4,5,français,m,1,0.1,82.72316881,0.03757961
5f90c32f69122f1cebd1cc0b,15,0,2024-02-28T17:14:53.569Z,english_918.wav,0,pill,691,55,4,5,français,m,2,0.2,30.05807571,1.14238595
5f90c32f69122f1cebd1cc0b,15,0,2024-02-28T17:14:53.569Z,english_918.wav,0,pill,691,55,4,5,français,m,3,0.3,-70.58941721,0.04886902
5f90c32f69122f1cebd1cc0b,15,0,2024-02-28T17:14:53.569Z,english_918.wav,0,pill,691,55,4,5,français,m,4,0.4,-65.52419577,0.89349405
5f90c32f69122f1cebd1cc0b,15,0,2024-02-28T17:14:53.569Z,english_918.wav,0,pill,691,55,4,5,français,m,5,0.5,-8.01629029,0.46427507
5f90c32f69122f1cebd1cc0b,15,0,2024-02-28T17:14:53.569Z,english_918.wav,0,pill,691,55,4,5,français,m,6,0.6,16.78163005,1.22953669
5f90c32f69122f1cebd1cc0b,15,0,2024-02-28T17:14:53.569Z,english_918.wav,0,pill,691,55,4,5,français,m,7,0.7,72.93916831,1.878364
5f90c32f69122f1cebd1cc0b,15,0,2024-02-28T17:14:53.569Z,english_918.wav,0,pill,691,55,4,5,français,m,8,0.8,-2.28760557,0.42759123
5f90c32f69122f1cebd1cc0b,15,0,2024-02-28T17:14:53.569Z,english_918.wav,0,pill,691,55,4,5,français,m,9,0.9,-18.70975913,0.20519841
5f90c32f69122f1cebd1cc0b,15,0,2024-02-28T17:14:53.569Z,english_918.wav,0,pill,691,55,4,5,français,m,10,1.0,1.09551631,1.09007735
5f90c32f69122f1cebd1cc0b,15,0,2024-02-28T17:14:53.569Z,english_918.wav,0,pill,691,55,4,5,français,m,11,1.09391667,-2.64797824,0.32770208
5f90c32f69122f1cebd1cc0b,16,0,2024-02-28T17:14:53.569Z,english_584.wav,0,pill,1314,55,4,5,français,m,0,0.0,50.7358721,1.24615014
5f90c32f69122f1cebd1cc0b,16,0,2024-02-28T17:14:53.569Z,english_584.wav,0,pill,1314,55,4,5,français,m,1,0.1,-37.41238679,1.8454839
5f90c32f69122f1cebd1cc0b,16,0,2024-02-28T17:14:53.569Z,english_584.wav,0,pill,1314,55,4,5,français,m,2,0.2,-21.91541438,1.76277899
5f90c32f69122f1cebd1cc0b,16,0,2024-02-28T17:14:53.569Z,english_584.wav,0,pill,1314,55,4,5,français,m,3,0.3,67.49251718,0.88473448
5f90c32f69122f1cebd1cc0b,16,0,2024-02-28T17:14:53.569Z,english_584.wav,0,pill,1314,55,4,5,français,m,4,0.4,36.0609863,0.58271182
5f90c32f69122f1cebd1cc0b,16,0,2024-02-28T17:14:53.569Z,english_584.wav,0,pill,1314,55,4,5,français,m,5,0.5,29.68399092,1.46602634
5f90c32f69122f1cebd1cc0b,16,0,2024-02-28T17:14:53.569Z,english_584.wav,0,pill,1314,55,4,5,français,m,6,0.6,69.24169566,1.79468998
5f90c32f69122f1cebd1cc0b,16,0,2024-02-28T17:14:53.569Z,english_584.wav,0,pill,1314,55,4,5,français,m,7,0.7,2.10305954,1.56143928
5f90c32f69122f1cebd1cc0b,16,0,2024-02-28T17:14:53.569Z,english_584.wav,0,pill,1314,55,4,5,français,m,8,0.8,23.93501401,0.46568097
5f90c32f69122f1cebd1cc0b,16,0,2024-02-28T17:14:53.569Z,english_584.wav,0,pill,1314,55,4,5,français,m,9,0.9,-17.64282744,0.5808441
5f90c32f69122f1cebd1cc0b,16,0,2024-02-28T17:14:53.569Z,english_584.wav,0,pill,1314,55,4,5,français,m,10,1.0,80.89116082,1.80196263
5f90c32f69122f1cebd1cc0b,16,0,2024-02-28T17:14:53.569Z,english_584.wav,0,pill,1314,55,4,5,français,m,11,1.09391667,-10.99932322,1.58954467
5f90c32f69122f1cebd1cc0b,17,0,2024-02-28T17:14:53.569Z,english_458.wav,0,pill,586,55,4,5,français,m,0,0.0,-17.35193705,0.22923126
5f90c32f69122f1cebd1cc0b,17,0,2024-02-28T17:14:53.569Z,english_458.wav,0,pill,586,55,4,5,français,m,1,0.1,76.25272333,1.42441377
5f90c32f69122f1cebd1cc0b,17,0,2024-02-28T17:14:53.569Z,english_458.wav,0,pill,586,55,4,5,français,m,2,0.2,66.551046,0.60732538
5f90c32f69122f1cebd1cc0b,17,0,2024-02-28T17:14:53.569Z,english_458.wav,0,pill,586,55,4,5,français,m,3,0.3,-95.41815816,0.4830802
5f90c32f69122f1cebd1cc0b,17,0,2024-02-28T17:14:53.569Z,english_458.wav,0,pill,586,55,4,5,français,m,4,0.4,-5.20731416,0.7532548
5f90c32f69122f1cebd1cc0b,17,0,2024-02-28T17:14:53.569Z,english_458.wav,0,pill,586,55,4,5,français,m,5,0.5,-15.31002561,1.81914976
5f90c32f69122f1cebd1cc0b,17,0,2024-02-28T17:14:53.569Z,english_458.wav,0,pill,586,55,4,5,français,m,6,0.6,63.5103627,1.22838438
5f90c32f69122f1cebd1cc0b,17,0,2024-02-28T17:14:53.569Z,english_458.wav,0,pill,586,55,4,5,français,m,7,0.7,-32.19044721,0.06067943
5f90c32f69122f1cebd1cc0b,17,0,2024-02-28T17:14:53.569Z,english_458.wav,0,pill,586,55,4,5,français,m,8,0.8,9.85446701,0.231332
5f90c32f69122f1cebd1cc0b,17,0,2024-02-28T17:14:53.569Z,english_458.wav,0,pill,586,55,4,5,français,m,9,0.9,-64.97569882,1.40147857
5f90c32f69122f1cebd1cc0b,17,0,2024-02-28T17:14:53.569Z,english_458.wav,0,pill,586,55,4,5,français,m,10,1.0,59.10726436,0.29468522
5f90c32f69122f1cebd1cc0b,17,0,2024-02-28T17:14:53.569Z,english_458.wav,0,pill,586,55,4,5,français,m,11,1.09391667,60.50538111,0.47293516
5f90c32f69122f1cebd1cc0b,18,0,2024-02-28T17:14:53.569Z,english_854.wav,0,pill,402,55,4,5,français,m,0,0.0,41.65293518,0.10243767
5f90c32f69122f1cebd1cc0b,18,0,2024-02-28T17:14:53.569Z,english_854.wav,0,pill,402,55,4,5,français,m,1,0.1,12.19905505,1.22737147
5f90c32f69122f1cebd1cc0b,18,0,2024-02-28T17:14:53.569Z,english_854.wav,0,pill,402,55,4,5,français,m,2,0.2,-17.7367635,0.80405871
5f90c32f69122f1cebd1cc0b,18,0,2024-02-28T17:14:53.569Z,english_854.wav,0,pill,402,55,4,5,français,m,3,0.3,82.5511566,1.55191633
5f90c32f69122f1cebd1cc0b,18,0,2024-02-28T17:14:53.569Z,english_854.wav,0,pill,402,55,4,5,français,m,4,0.4,24.18828857,0.00681269
5f90c32f69122f1cebd1cc0b,18,0,2024-02-28T17:14:53.569Z,english_854.wav,0,pill,402,55,4,5,français,m,5,0.5,-37.78588701,1.47971367
5f90c32f69122f1cebd1cc0b,18,0,2024-02-28T17:14:53.569Z,english_854.wav,0,pill,402,55,4,5,français,m,6,0.6,12.42409681,0.34468947
5f90c32f69122f1cebd1cc0b,18,0,2024-02-28T17:14:53.569Z,english_854.wav,0,pill,402,55,4,5,français,m,7,0.7,-1.0486121,0.87101018
5f90c32f69122f1cebd1cc0b,18,0,2024-02-28T17:14:53.569Z,english_854.wav,0,pill,402,55,4,5,français,m,8,0.8,-50.74764629,1.12590191
5f90c32f69122f1cebd1cc0b,18,0,2024-02-28T17:14:53.569Z,english_854.wav,0,pill,402,55,4,5,français,m,9,0.9,-93.36344031,1.039516
5f90c32f69122f1cebd1cc0b,18,0,2024-02-28T17:14:53.569Z,english_854.wav,0,pill,402,55,4,5,français,m,10,1.0,39.91763763,1.26341771
5f90c32f69122f1cebd1cc0b,18,0,2024-02-28T17:14:53.569Z,english_854.wav,0,pill,402,55,4,5,français,m,11,1.09391667,-16.62780594,1.79941384
5f90c32f69122f1cebd1cc0b,19,0,2024-02-28T17:14:53.569Z,english_846.wav,0,pill,534,55,4,5,français,m,0,0.0,47.64315726,0.95758586
5f90c32f69122f1cebd1cc0b,19,0,2024-02-28T17:14:53.569Z,english_846.wav,0,pill,534,55,4,5,français,m,1,0.1,43.78617601,0.16218947
5f90c32f69122f1cebd1cc0b,19,0,2024-02-28T17:14:53.569Z,english_846.wav,0,pill,534,55,4,5,français,m,2,0.2,-67.59598015,0.72860603
5f90c32f69122f1cebd1cc0b,19,0,2024-02-28T17:14:53.569Z,english_846.wav,0,pill,534,55,4,5,français,m,3,0.3,75.82681519,0.60627127
5f90c32f69122f1cebd1cc0b,19,0,2024-02-28T17:14:53.569Z,english_846.wav,0,pill,534,55,4,5,français,m,4,0.4,74.28596976,0.41876793
5f90c32f69122f1cebd1cc0b,19,0,2024-02-28T17:14:53.569Z,english_846.wav,0,pill,534,55,4,5,français,m,5,0.5,40.48744531,1.23414848
5f90c32f69122f1cebd1cc0b,19,0,2024-02-28T17:14:53.569Z,english_846.wav,0,pill,534,55,4,5,français,m,6,0.6,-65.90904049,1.54330327
5f90c32f69122f1cebd1cc0b,19,0,2024-02-28T17:14:53.569Z,english_846.wav,0,pill,534,55,4,5,français,m,7,0.7,90.52035497,1.06483437
5f90c32f69122f1cebd1cc0b,19,0,2024-02-28T17:14:53.569Z,english_846.wav,0,pill,534,55,4,5,français,m,8,0.8,-68.67205107,0.84380864
5f90c32f69122f1cebd1cc0b,19,0,2024-02-28T17:14:53.569Z,english_846.wav,0,pill,534,55,4,5,français,m,9,0.9,8.67982792,0.84626324
5f90c32f69122f1cebd1cc0b,19,0,2024-02-28T17:14:53.569Z,english_846.wav,0,pill,534,55,4,5,français,m,10,1.0,-64.09193989,1.29492524
5f90c32f69122f1cebd1cc0b,19,0,2024-02-28T17:14:53.569Z,english_846.wav,0,pill,534,55,4,5,français,m,11,1.09391667,11.5113113,0.37776928
5f90c32f69122f1cebd1cc0b,20,0,2024-02-28T17:14:53.569Z,english_639.wav,0,pill,359,55,4,5,français,m,0,0.0,5.56347498,1.83509432
5f90c32f69122f1cebd1cc0b,20,0,2024-02-28T17:14:53.569Z,english_639.wav,0,pill,359,55,4,5,français,m,1,0.1,75.73661073,0.44211572
5f90c32f69122f1cebd1cc0b,20,0,2024-02-28T17:14:53.569Z,english_639.wav,0,pill,359,55,4,5,français,m,2,0.2,-90.85300276,1.03578017
5f90c32f69122f1cebd1cc0b,20,0,2024-02-28T17:14:53.569Z,english_639.wav,0,pill,359,55,4,5,français,m,3,0.3,-28.02471483,0.46973677
5f90c32f69122f1cebd1cc0b,20,0,2024-02-28T17:14:53.569Z,english_639.wav,0,pill,359,55,4,5,français,m,4,0.4,-62.26468724,0.54820752
5f90c32f69122f1cebd1cc0b,20,0,2024-02-28T17:14:53.569Z,english_639.wav,0,pill,359,55,4,5,français,m,5,0.5,17.80250947,0.51964922
5f90c32f69122f1cebd1cc0b,20,0,2024-02-28T17:14:53.569Z,english_639.wav,0,pill,359,55,4,5,français,m,6,0.6,29.29879682,0.06117772
5f90c32f69122f1cebd1cc0b,20,0,2024-02-28T17:14:53.569Z,english_639.wav,0,pill,359,55,4,5,français,m,7,0.7,-6.14897809,0.67480304
5f90c32f69122f1cebd1cc0b,20,0,2024-02-28T17:14:53.569Z,english_639.wav,0,pill,359,55,4,5,français,m,8,0.8,-11.9254819,0.85869346
5f90c32f69122f1cebd1cc0b,20,0,2024-02-28T17:14:53.569Z,english_639.wav,0,pill,359,55,4,5,français,m,9,0.9,6.20327944,1.90136883
5f90c32f69122f1cebd1cc0b,20,0,2024-02-28T17:14:53.569Z,english_639.wav,0,pill,359,55,4,5,français,m,10,1.0,-44.51875699,1.31276151
5f90c32f69122f1cebd1cc0b,20,0,2024-02-28T17:14:53.569Z,english_639.wav,0,pill,359,55,4,5,français,m,11,1.09391667,52.00361599,1.93524577
5f90c32f69122f1cebd1cc0b,21,0,2024-02-28T17:14:53.569Z,english_354.wav,0,pill,592,55,4,5,français,m,0,0.0,-28.87420486,0.20754018
5f90c32f69122f1cebd1cc0b,21,0,2024-02-28T17:14:53.569Z,english_354.wav,0,pill,592,55,4,5,français,m,1,0.1,-23.35112853,1.88177303
5f90c32f69122f1cebd1cc0b,21,0,2024-02-28T17:14:53.569Z,english_354.wav,0,pill,592,55,4,5,français,m,2,0.2,5.36311679,1.60863404
5f90c32f69122f1cebd1cc0b,21,0,2024-02-28T17:14:53.569Z,english_354.wav,0,pill,592,55,4,5,français,m,3,0.3,88.42745553,0.83478671
5f90c32f69122f1cebd1cc0b,21,0,2024-02-28T17:14:53.569Z,english_354.wav,0,pill,592,55,4,5,français,m,4,0.4,2.47520697,1.51310965
5f90c32f69122f1cebd1cc0b,21,0,2024-02-28T17:14:53.569Z,english_354.wav,0,pill,592,55,4,5,français,m,5,0.5,46.1200008,1.04317866
5f90c32f69122f1cebd1cc0b,21,0,2024-02-28T17:14:53.569Z,english_354.wav,0,pill,592,55,4,5,français,m,6,0.6,-18.78131858,0.09474749
5f90c32f69122f1cebd1cc0b,21,0,2024-02-28T17:14:53.569Z,english_354.wav,0,pill,592,55,4,5,français,m,7,0.7,-50.4047441,1.6889762
5f90c32f69122f1cebd1cc0b,21,0,2024-02-28T17:14:53.569Z,english_354.wav,0,pill,592,55,4,5,français,m,8,0.8,70.60844452,0.35231613
5f90c32f69122f1cebd1cc0b,21,0,2024-02-28T17:14:53.569Z,english_354.wav,0,pill,592,55,4,5,français,m,9,0.9,-79.1017332,0.20561504
5f90c32f69122f1cebd1cc0b,21,0,2024-02-28T17:14:53.569Z,english_354.wav,0,pill,592,55,4,5,français,m,10,1.0,-66.82350364,0.40462269
5f90c32f69122f1cebd1cc0b,21,0,2024-02-28T17:14:53.569Z,english_354.wav,0,pill,592,55,4,5,français,m,11,1.09391667,-48.20226443,0.51831425
5f90c32f69122f1cebd1cc0b,22,0,2024-02-28T17:14:53.569Z,english_444.wav,0,pill,610,55,4,5,français,m,0,0.0,-22.35255086,1.17037243
5f90c32f69122f1cebd1cc0b,22,0,2024-02-28T17:14:53.569Z,english_444.wav,0,pill,610,55,4,5,français,m,1,0.1,-38.39735659,0.80831945
5f90c32f69122f1cebd1cc0b,22,0,2024-02-28T17:14:53.569Z,english_444.wav,0,pill,610,55,4,5,français,m,2,0.2,81.84483339,1.07936497
5f90c32f69122f1cebd1cc0b,22,0,2024-02-28T17:14:53.569Z,english_444.wav,0,pill,610,55,4,5,français,m,3,0.3,89.66951187,1.80338122
5f90c32f69122f1cebd1cc0b,22,0,2024-02-28T17:14:53.569Z,english_444.wav,0,pill,610,55,4,5,français,m,4,0.4,78.72815519,1.1980111
5f90c32f69122f1cebd1cc0b,22,0,2024-02-28T17:14:53.569Z,english_444.wav,0,pill,610,55,4,5,français,m,5,0.5,-52.70100407,1.57414757
5f90c32f69122f1cebd1cc0b,22,0,2024-02-28T17:14:53.569Z,english_444.wav,0,pill,610,55,4,5,français,m,6,0.6,-16.77558941,1.54546577
5f90c32f69122f1cebd1cc0b,22,0,2024-02-28T17:14:53.569Z,english_444.wav,0,pill,610,55,4,5,français,m,7,0.7,74.67924026,0.86646901
5f90c32f69122f1cebd1cc0b,22,0,2024-02-28T17:14:53.569Z,english_444.wav,0,pill,610,55,4,5,français,m,8,0.8,58.06859333,1.76340154
5f90c32f69122f1cebd1cc0b,22,0,2024-02-28T17:14:53.569Z,english_444.wav,0,pill,610,55,4,5,français,m,9,0.9,62.1778936,1.16134605
5f90c32f69122f1cebd1cc0b,22,0,2024-02-28T17:14:53.569Z,english_444.wav,0,pill,610,55,4,5,français,m,10,1.0,-11.97095728,0.83068954
5f90c32f69122f1cebd1cc0b,22,0,2024-02-28T17:14:53.569Z,english_444.wav,0,pill,610,55,4,5,français,m,11,1.09391667,61.96058284,1.94365144
5f90c32f69122f1cebd1cc0b,23,0,2024-02-28T17:14:53.569Z,english_432.wav,0,pill,342,55,4,5,français,m,0,0.0,28.49955807,0.25208372
5f90c32f69122f1cebd1cc0b,23,0,2024-02-28T17:14:53.569Z,english_432.wav,0,pill,342,55,4,5,français,m,1,0.1,-31.8275444,0.73448825
5f90c32f69122f1cebd1cc0b,23,0,2024-02-28T17:14:53.569Z,english_432.wav,0,pill,342,55,4,5,français,m,2,0.2,24.24217544,0.75780001
5f90c32f69122f1cebd1cc0b,23,0,2024-02-28T17:14:53.569Z,english_432.wav,0,pill,342,55,4,5,français,m,3,0.3,-66.09269444,1.1180686
5f90c32f69122f1cebd1cc0b,23,0,2024-02-28T17:14:53.569Z,english_432.wav,0,pill,342,55,4,5,français,m,4,0.4,-62.15798019,1.06816696
5f90c32f69122f1cebd1cc0b,23,0,2024-02-28T17:14:53.569Z,english_432.wav,0,pill,342,55,4,5,français,m,5,0.5,-49.72154406,0.60613643
5f90c32f69122f1cebd1cc0b,23,0,2024-02-28T17:14:53.569Z,english_432.wav,0,pill,342,55,4,5,français,m,6,0.6,-47.69762913,0.58276722
5f90c32f69122f1cebd1cc0b,23,0,2024-02-28T17:14:53.569Z,english_432.wav,0,pill,342,55,4,5,français,m,7,0.7,77.36626765,1.4653334
5f90c32f69122f1cebd1cc0b,23,0,2024-02-28T17:14:53.569Z,english_432.wav,0,pill,342,55,4,5,français,m,8,0.8,5.83013874,1.3937813
5f90c32f69122f1cebd1cc0b,23,0,2024-02-28T17:14:53.569Z,english_432.wav,0,pill,342,55,4,5,français,m,9,0.9,28.26329168,1.50157436
5f90c32f69122f1cebd1cc0b,23,0,2024-02-28T17:14:53.569Z,english_432.wav,0,pill,342,55,4,5,français,m,10,1.0,-41.71680011,1.14185861
5f90c32f69122f1cebd1cc0b,23,0,2024-02-28T17:14:53.569Z,english_432.wav,0,pill,342,55,4,5,français,m,11,1.09391667,67.89473062,1.59474316
5f90c32f69122f1cebd1cc0b,24,0,2024-02-28T17:14:53.569Z,english_748.wav,0,pill,465,55,4,5,français,m,0,0.0,-33.83596368,1.91287282
5f90c32f69122f1cebd1cc0b,24,0,2024-02-28T17:14:53.569Z,english_748.wav,0,pill,465,55,4,5,français,m,1,0.1,-59.15381013,1.28041444
5f90c32f69122f1cebd1cc0b,24,0,2024-02-28T17:14:53.569Z,english_748.wav,0,pill,465,55,4,5,français,m,2,0.2,-64.86299243,0.04095899
5f90c32f69122f1cebd1cc0b,24,0,2024-02-28T17:14:53.569Z,english_748.wav,0,pill,465,55,4,5,français,m,3,0.3,-73.6430977,0.41914446
5f90c32f69122f1cebd1cc0b,24,0,2024-02-28T17:14:53.569Z,english_748.wav,0,pill,465,55,4,5,français,m,4,0.4,-91.05214173,1.08223978
5f90c32f69122f1cebd1cc0b,24,0,2024-02-28T17:14:53.569Z,english_748.wav,0,pill,465,55,4,5,français,m,5,0.5,-45.40797518,0.2529754
5f90c32f69122f1cebd1cc0b,24,0,2024-02-28T17:14:53.569Z,english_748.wav,0,pill,465,55,4,5,français,m,6,0.6,13.66964743,1.11197698
5f90c32f69122f1cebd1cc0b,24,0,2024-02-28T17:14:53.569Z,english_748.wav,0,pill,465,55,4,5,français,m,7,0.7,95.37065991,0.98751557
5f90c32f69122f1cebd1cc0b,24,0,2024-02-28T17:14:53.569Z,english_748.wav,0,pill,465,55,4,5,français,m,8,0.8,26.41264332,0.20616642
5f90c32f69122f1cebd1cc0b,24,0,2024-02-28T17:14:53.569Z,english_748.wav,0,pill,465,55,4,5,français,m,9,0.9,48.24832417,0.07234113
5f90c32f69122f1cebd1cc0b,24,0,2024-02-28T17:14:53.569Z,english_748.wav,0,pill,465,55,4,5,français,m,10,1.0,52.4867675,0.75683712
5f90c32f69122f1cebd1cc0b,24,0,2024-02-28T17:14:53.569Z,english_748.wav,0,pill,465,55,4,5,français,m,11,1.09391667,-11.31996214,0.73246581
5f90c32f69122f1cebd1cc0b,25,0,2024-02-28T17:14:53.569Z,english_338.wav,0,pill,520,55,4,5,français,m,0,0.0,-28.32882855,1.26446903
5f90c32f69122f1cebd1cc0b,25,0,2024-02-28T17:14:53.569Z,english_338.wav,0,pill,520,55,4,5,français,m,1,0.1,57.31812169,0.76759877
5f90c32f69122f1cebd1cc0b,25,0,2024-02-28T17:14:53.569Z,english_338.wav,0,pill,520,55,4,5,français,m,2,0.2,14.45982208,1.52351901
5f90c32f69122f1cebd1cc0b,25,0,2024-02-28T17:14:53.569Z,english_338.wav,0,pill,520,55,4,5,français,m,3,0.3,77.41090692,1.04471398
5f90c32f69122f1cebd1cc0b,25,0,2024-02-28T17:14:53.569Z,english_338.wav,0,pill,520,55,4,5,français,m,4,0.4,-1.8867557,0.90426999
5f90c32f69122f1cebd1cc0b,25,0,2024-02-28T17:14:53.569Z,english_338.wav,0,pill,520,55,4,5,français,m,5,0.5,-35.85874383,1.69664706
5f90c32f69122f1cebd1cc0b,25,0,2024-02-28T17:14:53.569Z,english_338.wav,0,pill,520,55,4,5,français,m,6,0.6,-55.1613605,0.17582058
5f90c32f69122f1cebd1cc0b,25,0,2024-02-28T17:14:53.569Z,english_338.wav,0,pill,520,55,4,5,français,m,7,0.7,-70.94430614,0.54140942
5f90c32f69122f1cebd1cc0b,25,0,2024-02-28T17:14:53.569Z,english_338.wav,0,pill,520,55,4,5,français,m,8,0.8,5.91952673,0.81798021
5f90c32f69122f1cebd1cc0b,25,0,2024-02-28T17:14:53.569Z,english_338.wav,0,pill,520,55,4,5,français,m,9,0.9,-77.52896216,1.90630538
5f90c32f69122f1cebd1cc0b,25,0,2024-02-28T17:14:53.569Z,english_338.wav,0,pill,520,55,4,5,français,m,10,1.0,-12.19112467,0.59557422
5f90c32f69122f1cebd1cc0b,25,0,2024-02-28T17:14:53.569Z,english_338.wav,0,pill,520,55,4,5,français,m,11,1.09391667,6.6549641,0.42071392
5f90c32f69122f1cebd1cc0b,26,0,2024-02-28T17:14:53.569Z,english_649.wav,0,pill,222,55,4,5,français,m,0,0.0,54.13337143,0.90685718
5f90c32f69122f1cebd1cc0b,26,0,2024-02-28T17:14:53.569Z,english_649.wav,0,pill,222,55,4,5,français,m,1,0.1,51.13672213,0.97028986
5f90c32f69122f1cebd1cc0b,26,0,2024-02-28T17:14:53.569Z,english_649.wav,0,pill,222,55,4,5,français,m,2,0.2,-46.53747516,0.5338014
5f90c32f69122f1cebd1cc0b,26,0,2024-02-28T17:14:53.569Z,english_649.wav,0,pill,222,55,4,5,français,m,3,0.3,-5.04561857,1.37151822
5f90c32f69122f1cebd1cc0b,26,0,2024-02-28T17:14:53.569Z,english_649.wav,0,pill,222,55,4,5,français,m,4,0.4,-96.10296837,1.19898074
5f90c32f69122f1cebd1cc0b,26,0,2024-02-28T17:14:53.569Z,english_649.wav,0,pill,222,55,4,5,français,m,5,0.5,91.1633791,0.83288569
5f90c32f69122f1cebd1cc0b,26,0,2024-02-28T17:14:53.569Z,english_649.wav,0,pill,222,55,4,5,français,m,6,0.6,40.43734858,1.46195871
5f90c32f69122f1cebd1cc0b,26,0,2024-02-28T17:14:53.569Z,english_649.wav,0,pill,222,55,4,5,français,m,7,0.7,-6.34456649,0.52535218
5f90c32f69122f1cebd1cc0b,26,0,2024-02-28T17:14:53.569Z,english_649.wav,0,pill,222,55,4,5,français,m,8,0.8,-47.75781838,0.56197414
5f90c32f69122f1cebd1cc0b,26,0,2024-02-28T17:14:53.569Z,english_649.wav,0,pill,222,55,4,5,français,m,9,0.9,-30.94847666,1.41697717
5f90c32f69122f1cebd1cc0b,26,0,2024-02-28T17:14:53.569Z,english_649.wav,0,pill,222,55,4,5,français,m,10,1.0,-10.84084503,1.24330897
5f90c32f69122f1cebd1cc0b,26,0,2024-02-28T17:14:53.569Z,english_649.wav,0,pill,222,55,4,5,français,m,11,1.09391667,16.60657514,0.55891177
5f90c32f69122f1cebd1cc0b,27,0,2024-02-28T17:14:53.569Z,english_251.wav,0,pill,444,55,4,5,français,m,0,0.0,-93.03805102,1.12342723
5f90c32f69122f1cebd1cc0b,27,0,2024-02-28T17:14:53.569Z,english_251.wav,0,pill,444,55,4,5,français,m,1,0.1,51.2655571,1.9149468
5f90c32f69122f1cebd1cc0b,27,0,2024-02-28T17:14:53.569Z,english_251.wav,0,pill,444,55,4,5,français,m,2,0.2,37.58283666,1.73876516
5f90c32f69122f1cebd1cc0b,27,0,2024-02-28T17:14:53.569Z,english_251.wav,0,pill,444,55,4,5,français,m,3,0.3,-55.53133441,1.01047504
5f90c32f69122f1cebd1cc0b,27,0,2024-02-28T17:14:53.569Z,english_251.wav,0,pill,444,55,4,5,français,m,4,0.4,98.21602679,0.87048418
5f90c32f69122f1cebd1cc0b,27,0,2024-02-28T17:14:53.569Z,english_251.wav,0,pill,444,55,4,5,français,m,5,0.5,-85.24256095,1.77281536
5f90c32f69122f1cebd1cc0b,27,0,2024-02-28T17:14:53.569Z,english_251.wav,0,pill,444,55,4,5,français,m,6,0.6,-76.0460332,1.29741372
5f90c32f69122f1cebd1cc0b,27,0,2024-02-28T17:14:53.569Z,english_251.wav,0,pill,444,55,4,5,français,m,7,0.7,26.51950349,0.41684213
5f90c32f69122f1cebd1cc0b,27,0,2024-02-28T17:14:53.569Z,english_251.wav,0,pill,444,55,4,5,français,m,8,0.8,-37.24987979,1.13690271
5f90c32f69122f1cebd1cc0b,27,0,2024-02-28T17:14:53.569Z,english_251.wav,0,pill,444,55,4,5,français,m,9,0.9,-60.42287441,1.00770315
5f90c32f69122f1cebd1cc0b,27,0,2024-02-28T17:14:53.569Z,english_251.wav,0,pill,444,55,4,5,français,m,10,1.0,31.01216571,0.51077747
5f90c32f69122f1cebd1cc0b,27,0,2024-02-28T17:14:53.569Z,english_251.wav,0,pill,444,55,4,5,français,m,11,1.09391667,74.35472995,0.89311028
5f90c32f69122f1cebd1cc0b,28,0,2024-02-28T17:14:53.569Z,english_975.wav,0,pill,255,55,4,5,français,m,0,0.0,-53.40155937,0.28931867
5f90c32f69122f1cebd1cc0b,28,0,2024-02-28T17:14:53.569Z,english_975.wav,0,pill,255,55,4,5,français,m,1,0.1,-46.7591449,0.26014098
5f90c32f69122f1cebd1cc0b,28,0,2024-02-28T17:14:53.569Z,english_975.wav,0,pill,255,55,4,5,français,m,2,0.2,-39.94858347,0.60863929
5f90c32f69122f1cebd1cc0b,28,0,2024-02-28T17:14:53.569Z,english_975.wav,0,pill,255,55,4,5,français,m,3,0.3,4.12816175,1.96061536
5f90c32f69122f1cebd1cc0b,28,0,2024-02-28T17:14:53.569Z,english_975.wav,0,pill,255,55,4,5,français,m,4,0.4,83.44282051,0.74428813
5f90c32f69122f1cebd1cc0b,28,0,2024-02-28T17:14:53.569Z,english_975.wav,0,pill,255,55,4,5,français,m,5,0.5,20.33193784,1.01644474
5f90c32f69122f1cebd1cc0b,28,0,2024-02-28T17:14:53.569Z,english_975.wav,0,pill,255,55,4,5,français,m,6,0.6,-92.84690604,0.21290726
5f90c32f69122f1cebd1cc0b,28,0,2024-02-28T17:14:53.569Z,english_975.wav,0,pill,255,55,4,5,français,m,7,0.7,69.62119896,0.78909982
5f90c32f69122f1cebd1cc0b,28,0,2024-02-28T17:14:53.569Z,english_975.wav,0,pill,255,55,4,5,français,m,8,0.8,-27.30637844,1.61436772
5f90c32f69122f1cebd1cc0b,28,0,2024-02-28T17:14:53.569Z,english_975.wav,0,pill,255,55,4,5,français,m,9,0.9,71.11664605,0.92754286
5f90c32f69122f1cebd1cc0b,28,0,2024-02-28T17:14:53.569Z,english_975.wav,0,pill,255,55,4,5,français,m,10,1.0,-25.28708081,1.92956557
5f90c32f69122f1cebd1cc0b,28,0,2024-02-28T17:14:53.569Z,english_975.wav,0,pill,255,55,4,5,français,m,11,1.09391667,-18.06651804,1.66494484
5f90c32f69122f1cebd1cc0b,29,0,2024-02-28T17:14:53.569Z,english_977.wav,0,pill,983,55,4,5,français,m,0,0.0,45.32437977,1.51258306
5f90c32f69122f1cebd1cc0b,29,0,2024-02-28T17:14:53.569Z,english_977.wav,0,pill,983,55,4,5,français,m,1,0.1,31.46444726,1.62107879
5f90c32f69122f1cebd1cc0b,29,0,2024-02-28T17:14:53.569Z,english_977.wav,0,pill,983,55,4,5,français,m,2,0.2,7.78815071,0.80620837
5f90c32f69122f1cebd1cc0b,29,0,2024-02-28T17:14:53.569Z,english_977.wav,0,pill,983,55,4,5,français,m,3,0.3,-38.46709342,1.66578012
5f90c32f69122f1cebd1cc0b,29,0,2024-02-28T17:14:53.569Z,english_977.wav,0,pill,983,55,4,5,français,m,4,0.4,-43.12628929,0.5028638
5f90c32f69122f1cebd1cc0b,29,0,2024-02-28T17:14:53.569Z,english_977.wav,0,pill,983,55,4,5,français,m,5,0.5,-60.3999411,1.57064844
5f90c32f69122f1cebd1cc0b,29,0,2024-02-28T17:14:53.569Z,english_977.wav,0,pill,983,55,4,5,français,m,6,0.6,38.30873417,1.43046029
5f90c32f69122f1cebd1cc0b,29,0,2024-02-28T17:14:53.569Z,english_977.wav,0,pill,983,55,4,5,français,m,7,0.7,-32.30937365,0.97320454
5f90c32f69122f1cebd1cc0b,29,0,2024-02-28T17:14:53.569Z,english_977.wav,0,pill,983,55,4,5,français,m,8,0.8,-13.91730907,0.87874216
5f90c32f69122f1cebd1cc0b,29,0,2024-02-28T17:14:53.569Z,english_977.wav,0,pill,983,55,4,5,français,m,9,0.9,-81.54845422,1.41826341
5f90c32f69122f1cebd1cc0b,29,0,2024-02-28T17:14:53.569Z,english_977.wav,0,pill,983,55,4,5,français,m,10,1.0,29.31026278,0.04715706
5f90c32f69122f1cebd1cc0b,29,0,2024-02-28T17:14:53.569Z,english_977.wav,0,pill,983,55,4,5,français,m,11,1.09391667,34.6707146,1.45727151
5f90c32f69122f1cebd1cc0b,30,0,2024-02-28T17:14:53.569Z,english_527.wav,0,pill,287,55,4,5,français,m,0,0.0,-1.3381573,0.84142087
5f90c32f69122f1cebd1cc0b,30,0,2024-02-28T17:14:53.569Z,english_527.wav,0,pill,287,55,4,5,français,m,1,0.1,58.15701777,0.45178491
5f90c32f69122f1cebd1cc0b,30,0,2024-02-28T17:14:53.569Z,english_527.wav,0,pill,287,55,4,5,français,m,2,0.2,8.11788849,1.20075359
5f90c32f69122f1cebd1cc0b,30,0,2024-02-28T17:14:53.569Z,english_527.wav,0,pill,287,55,4,5,français,m,3,0.3,44.39731413,0.65328865
5f90c32f69122f1cebd1cc0b,30,0,2024-02-28T17:14:53.569Z,english_527.wav,0,pill,287,55,4,5,français,m,4,0.4,-87.54788147,0.96835908
5f90c32f69122f1cebd1cc0b,30,0,2024-02-28T17:14:53.569Z,english_527.wav,0,pill,287,55,4,5,français,m,5,0.5,-93.25195843,0.53512631
5f90c32f69122f1cebd1cc0b,30,0,2024-02-28T17:14:53.569Z,english_527.wav,0,pill,287,55,4,5,français,m,6,0.6,93.45473079,1.66257619
5f90c32f69122f1cebd1cc0b,30,0,2024-02-28T17:14:53.569Z,english_527.wav,0,pill,287,55,4,5,français,m,7,0.7,47.10175622,1.10602602
5f90c32f69122f1cebd1cc0b,30,0,2024-02-28T17:14:53.569Z,english_527.wav,0,pill,287,55,4,5,français,m,8,0.8,40.24548325,0.88440787
5f90c32f69122f1cebd1cc0b,30,0,2024-02-28T17:14:53.569Z,english_527.wav,0,pill,287,55,4,5,français,m,9,0.9,26.99431972,1.16792169
5f90c32f69122f1cebd1cc0b,30,0,2024-02-28T17:14:53.569Z,english_527.wav,0,pill,287,55,4,5,français,m,10,1.0,23.18417948,1.44045273
5f90c32f69122f1cebd1cc0b,30,0,2024-02-28T17:14:53.569Z,english_527.wav,0,pill,287,55,4,5,français,m,11,1.09391667,1.05655255,0.83626501
5f90c32f69122f1cebd1cc0b,31,0,2024-02-28T17:14:53.569Z,english_944.wav,0,pill,500,55,4,5,français,m,0,0.0,15.60693819,1.52023204
5f90c32f69122f1cebd1cc0b,31,0,2024-02-28T17:14:53.569Z,english_944.wav,0,pill,500,55,4,5,français,m,1,0.1,-30.17366225,1.91331724
5f90c32f69122f1cebd1cc0b,31,0,2024-02-28T17:14:53.569Z,english_944.wav,0,pill,500,55,4,5,français,m,2,0.2,-74.98996265,0.77968244
5f90c32f69122f1cebd1cc0b,31,0,2024-02-28T17:14:53.569Z,english_944.wav,0,pill,500,55,4,5,français,m,3,0.3,-21.71143967,0.16568234
5f90c32f69122f1cebd1cc0b,31,0,2024-02-28T17:14:53.569Z,english_944.wav,0,pill,500,55,4,5,français,m,4,0.4,-71.17152847,0.05371195
5f90c32f69122f1cebd1cc0b,31,0,2024-02-28T17:14:53.569Z,english_944.wav,0,pill,500,55,4,5,français,m,5,0.5,-79.08347918,0.45619097
5f90c32f69122f1cebd1cc0b,31,0,2024-02-28T17:14:53.569Z,english_944.wav,0,pill,500,55,4,5,français,m,6,0.6,30.00213426,0.51735739
5f90c32f69122f1cebd1cc0b,31,0,2024-02-28T17:14:53.569Z,english_944.wav,0,pill,500,55,4,5,français,m,7,0.7,-95.66333823,1.56234264
5f90c32f69122f1cebd1cc0b,31,0,2024-02-28T17:14:53.569Z,english_944.wav,0,pill,500,55,4,5,français,m,8,0.8,-86.13874985,1.61252587
5f90c32f69122f1cebd1cc0b,31,0,2024-02-28T17:14:53.569Z,english_944.wav,0,pill,500,55,4,5,français,m,9,0.9,-92.76645644,0.66568015
5f90c32f69122f1cebd1cc0b,31,0,2024-02-28T17:14:53.569Z,english_944.wav,0,pill,500,55,4,5,français,m,10,1.0,-60.06542453,1.71575711
5f90c32f69122f1cebd1cc0b,31,0,2024-02-28T17:14:53.569Z,english_944.wav,0,pill,500,55,4,5,français,m,11,1.09391667,-49.67322896,1.10728615
5f90c32f69122f1cebd1cc0b,32,0,2024-02-28T17:14:53.569Z,english_569.wav,0,pill,475,55,4,5,français,m,0,0.0,80.86242067,1.33421849
5f90c32f69122f1cebd1cc0b,32,0,2024-02-28T17:14:53.569Z,english_569.wav,0,pill,475,55,4,5,français,m,1,0.1,-36.85440805,1.5057291
5f90c32f69122f1cebd1cc0b,32,0,2024-02-28T17:14:53.569Z,english_569.wav,0,pill,475,55,4,5,français,m,2,0.2,55.48604093,1.7838276
5f90c32f69122f1cebd1cc0b,32,0,2024-02-28T17:14:53.569Z,english_569.wav,0,pill,475,55,4,5,français,m,3,0.3,-32.48832212,0.34502948
5f90c32f69122f1cebd1cc0b,32,0,2024-02-28T17:14:53.569Z,english_569.wav,0,pill,475,55,4,5,français,m,4,0.4,34.47022209,1.33242051
5f90c32f69122f1cebd1cc0b,32,0,2024-02-28T17:14:53.569Z,english_569.wav,0,pill,475,55,4,5,français,m,5,0.5,23.79827115,0.68239412
5f90c32f69122f1cebd1cc0b,32,0,2024-02-28T17:14:53.569Z,english_569.wav,0,pill,475,55,4,5,français,m,6,0.6,-29.60411728,1.41145095
5f90c32f69122f1cebd1cc0b,32,0,2024-02-28T17:14:53.569Z,english_569.wav,0,pill,475,55,4,5,français,m,7,0.7,-3.34902879,0.70703372
5f90c32f69122f1cebd1cc0b,32,0,2024-02-28T17:14:53.569Z,english_569.wav,0,pill,475,55,4,5,français,m,8,0.8,-24.14207397,0.57539158
5f90c32f69122f1cebd1cc0b,32,0,2024-02-28T17:14:53.569Z,english_569.wav,0,pill,475,55,4,5,français,m,9,0.9,49.40170215,1.31553206
5f90c32f69122f1cebd1cc0b,32,0,2024-02-28T17:14:53.569Z,english_569.wav,0,pill,475,55,4,5,français,m,10,1.0,34.30113072,0.57675215
5f90c32f69122f1cebd1cc0b,32,0,2024-02-28T17:14:53.569Z,english_569.wav,0,pill,475,55,4,5,français,m,11,1.09391667,-89.06013863,1.91555697
5f90c32f69122f1cebd1cc0b,33,0,2024-02-28T17:14:53.569Z,english_890.wav,0,pill,766,55,4,5,français,m,0,0.0,31.44625075,1.15032127
5f90c32f69122f1cebd1cc0b,33,0,2024-02-28T17:14:53.569Z,english_890.wav,0,pill,766,55,4,5,français,m,1,0.1,-90.32825643,0.20043056
5f90c32f69122f1cebd1cc0b,33,0,2024-02-28T17:14:53.569Z,english_890.wav,0,pill,766,55,4,5,français,m,2,0.2,-64.7017166,0.4631213
5f90c32f69122f1cebd1cc0b,33,0,2024-02-28T17:14:53.569Z,english_890.wav,0,pill,766,55,4,5,français,m,3,0.3,15.62340259,1.29891642
5f90c32f69122f1cebd1cc0b,33,0,2024-02-28T17:14:53.569Z,english_890.wav,0,pill,766,55,4,5,français,m,4,0.4,-79.4752192,0.6480645
5f90c32f69122f1cebd1cc0b,33,0,2024-02-28T17:14:53.569Z,english_890.wav,0,pill,766,55,4,5,français,m,5,0.5,74.79009283,0.81505597
5f90c32f69122f1cebd1cc0b,33,0,2024-02-28T17:14:53.569Z,english_890.wav,0,pill,766,55,4,5,français,m,6,0.6,-57.91380652,1.23579114
5f90c32f69122f1cebd1cc0b,33,0,2024-02-28T17:14:53.569Z,english_890.wav,0,pill,766,55,4,5,français,m,7,0.7,92.43048613,0.16251602
5f90c32f69122f1cebd1cc0b,33,0,2024-02-28T17:14:53.569Z,english_890.wav,0,pill,766,55,4,5,français,m,8,0.8,-1.35432996,0.74439657
5f90c32f69122f1cebd1cc0b,33,0,2024-02-28T17:14:53.569Z,english_890.wav,0,pill,766,55,4,5,français,m,9,0.9,-1.4007117,1.69626999
5f90c32f69122f1cebd1cc0b,33,0,2024-02-28T17:14:53.569Z,english_890.wav,0,pill,766,55,4,5,français,m,10,1.0,-22.8275935,0.07593713
5f90c32f69122f1cebd1cc0b,33,0,2024-02-28T17:14:53.569Z,english_890.wav,0,pill,766,55,4,5,français,m,11,1.09391667,-34.82288483,0.22950927
5f90c32f69122f1cebd1cc0b,34,0,2024-02-28T17:14:53.569Z,english_77.wav,0,pill,797,55,4,5,français,m,0,0.0,14.85901356,0.93801636
5f90c32f69122f1cebd1cc0b,34,0,2024-02-28T17:14:53.569Z,english_77.wav,0,pill,797,55,4,5,français,m,1,0.1,-14.38598058,1.78480039
5f90c32f69122f1cebd1cc0b,34,0,2024-02-28T17:14:53.569Z,english_77.wav,0,pill,797,55,4,5,français,m,2,0.2,-43.69728494,1.59819809
5f90c32f69122f1cebd1cc0b,34,0,2024-02-28T17:14:53.569Z,english_77.wav,0,pill,797,55,4,5,français,m,3,0.3,-19.24854373,0.89560743
5f90c32f69122f1cebd1cc0b,34,0,2024-02-28T17:14:53.569Z,english_77.wav,0,pill,797,55,4,5,français,m,4,0.4,4.73942442,0.68128783
5f90c32f69122f1cebd1cc0b,34,0,2024-02-28T17:14:53.569Z,english_77.wav,0,pill,797,55,4,5,français,m,5,0.5,6.08734895,1.19225119
5f90c32f69122f1cebd1cc0b,34,0,2024-02-28T17:14:53.569Z,english_77.wav,0,pill,797,55,4,5,français,m,6,0.6,2.07981921,1.49267812
5f90c32f69122f1cebd1cc0b,34,0,2024-02-28T17:14:53.569Z,english_77.wav,0,pill,797,55,4,5,français,m,7,0.7,-3.22152689,1.83354621
5f90c32f69122f1cebd1cc0b,34,0,2024-02-28T17:14:53.569Z,english_77.wav,0,pill,797,55,4,5,français,m,8,0.8,-81.97912938,0.65715704
5f90c32f69122f1cebd1cc0b,34,0,2024-02-28T17:14:53.569Z,english_77.wav,0,pill,797,55,4,5,français,m,9,0.9,9.14807536,1.29592629
5f90c32f69122f1cebd1cc0b,34,0,2024-02-28T17:14:53.569Z,english_77.wav,0,pill,797,55,4,5,français,m,10,1.0,-30.52937586,1.03409297
5f90c32f69122f1cebd1cc0b,34,0,2024-02-28T17:14:53.569Z,english_77.wav,0,pill,797,55,4,5,français,m,11,1.09391667,17.14336326,1.45456337
5f90c32f69122f1cebd1cc0b,35,0,2024-02-28T17:14:53.569Z,english_390.wav,0,pill,308,55,4,5,français,m,0,0.0,-44.27999606,0.47786392
5f90c32f69122f1cebd1cc0b,35,0,2024-02-28T17:14:53.569Z,english_390.wav,0,pill,308,55,4,5,français,m,1,0.1,87.16388753,0.26367192
5f90c32f69122f1cebd1cc0b,35,0,2024-02-28T17:14:53.569Z,english_390.wav,0,pill,308,55,4,5,français,m,2,0.2,51.76447156,0.808543
5f90c32f69122f1cebd1cc0b,35,0,2024-02-28T17:14:53.569Z,english_390.wav,0,pill,308,55,4,5,français,m,3,0.3,4.72890769,1.08355999
5f90c32f69122f1cebd1cc0b,35,0,2024-02-28T17:14:53.569Z,english_390.wav,0,pill,308,55,4,5,français,m,4,0.4,40.54029915,1.05186068
5f90c32f69122f1cebd1cc0b,35,0,2024-02-28T17:14:53.569Z,english_390.wav,0,pill,308,55,4,5,français,m,5,0.5,-2.52273407,0.0330936
5f90c32f69122f1cebd1cc0b,35,0,2024-02-28T17:14:53.569Z,english_390.wav,0,pill,308,55,4,5,français,m,6,0.6,-16.68397449,0.46793247
5f90c32f69122f1cebd1cc0b,35,0,2024-02-28T17:14:53.569Z,english_390.wav,0,pill,308,55,4,5,français,m,7,0.7,61.52515281,1.47386131
5f90c32f69122f1cebd1cc0b,35,0,2024-02-28T17:14:53.569Z,english_390.wav,0,pill,308,55,4,5,français,m,8,0.8,-9.09589247,0.59216285
5f90c32f69122f1cebd1cc0b,35,0,2024-02-28T17:14:53.569Z,english_390.wav,0,pill,308,55,4,5,français,m,9,0.9,-24.40260524,0.27707759
5f90c32f69122f1cebd1cc0b,35,0,2024-02-28T17:14:53.569Z,english_390.wav,0,pill,308,55,4,5,français,m,10,1.0,-74.87237933,1.34831193
5f90c32f69122f1cebd1cc0b,35,0,2024-02-28T17:14:53.569Z,english_390.wav,0,pill,308,55,4,5,français,m,11,1.09391667,-82.02950505,1.5447274
5f90c32f69122f1cebd1cc0b,36,0,2024-02-28T17:14:53.569Z,english_478.wav,0,pill,398,55,4,5,français,m,0,0.0,49.52865222,0.59081153
5f90c32f69122f1cebd1cc0b,36,0,2024-02-28T17:14:53.569Z,english_478.wav,0,pill,398,55,4,5,français,m,1,0.1,12.15356225,0.51284871
5f90c32f69122f1cebd1cc0b,36,0,2024-02-28T17:14:53.569Z,english_478.wav,0,pill,398,55,4,5,français,m,2,0.2,-37.73778512,1.1444407
5f90c32f69122f1cebd1cc0b,36,0,2024-02-28T17:14:53.569Z,english_478.wav,0,pill,398,55,4,5,français,m,3,0.3,-10.50364884,1.54775545
5f90c32f69122f1cebd1cc0b,36,0,2024-02-28T17:14:53.569Z,english_478.wav,0,pill,398,55,4,5,français,m,4,0.4,38.58870475,1.52435775
5f90c32f69122f1cebd1cc0b,36,0,2024-02-28T17:14:53.569Z,english_478.wav,0,pill,398,55,4,5,français,m,5,0.5,-22.27355878,1.20325801
5f90c32f69122f1cebd1cc0b,36,0,2024-02-28T17:14:53.569Z,english_478.wav,0,pill,398,55,4,5,français,m,6,0.6,-48.47445884,0.62139426
5f90c32f69122f1cebd1cc0b,36,0,2024-02-28T17:14:53.569Z,english_478.wav,0,pill,398,55,4,5,français,m,7,0.7,-51.27115533,0.67212897
5f90c32f69122f1cebd1cc0b,36,0,2024-02-28T17:14:53.569Z,english_478.wav,0,pill,398,55,4,5,français,m,8,0.8,73.13710457,1.21899898
5f90c32f69122f1cebd1cc0b,36,0,2024-02-28T17:14:53.569Z,english_478.wav,0,pill,398,55,4,5,français,m,9,0.9,5.78656281,0.57488153
5f90c32f69122f1cebd1cc0b,36,0,2024-02-28T17:14:53.569Z,english_478.wav,0,pill,398,55,4,5,français,m,10,1.0,-98.51331711,0.34521849
5f90c32f69122f1cebd1cc0b,36,0,2024-02-28T17:14:53.569Z,english_478.wav,0,pill,398,55,4,5,français,m,11,1.09391667,24.20472837,1.9492818
5f90c32f69122f1cebd1cc0b,37,0,2024-02-28T17:14:53.569Z,english_120.wav,0,pill,430,55,4,5,français,m,0,0.0,-26.38999682,0.72895048
5f90c32f69122f1cebd1cc0b,37,0,2024-02-28T17:14:53.569Z,english_120.wav,0,pill,430,55,4,5,français,m,1,0.1,-22.99967347,1.8926075
5f90c32f69122f1cebd1cc0b,37,0,2024-02-28T17:14:53.569Z,english_120.wav,0,pill,430,55,4,5,français,m,2,0.2,3.73325412,0.72613161
5f90c32f69122f1cebd1cc0b,37,0,2024-02-28T17:14:53.569Z,english_120.wav,0,pill,430,55,4,5,français,m,3,0.3,4.96616557,1.865488
5f90c32f69122f1cebd1cc0b,37,0,2024-02-28T17:14:53.569Z,english_120.wav,0,pill,430,55,4,5,français,m,4,0.4,-29.93221986,1.93166142
5f90c32f69122f1cebd1cc0b,37,0,2024-02-28T17:14:53.569Z,english_120.wav,0,pill,430,55,4,5,français,m,5,0.5,37.07787093,0.25664039
5f90c32f69122f1cebd1cc0b,37,0,2024-02-28T17:14:53.569Z,english_120.wav,0,pill,430,55,4,5,français,m,6,0.6,-72.11553582,1.70761542
5f90c32f69122f1cebd1cc0b,37,0,2024-02-28T17:14:53.569Z,english_120.wav,0,pill,430,55,4,5,français,m,7,0.7,-26.01116497,0.9844932
5f90c32f69122f1cebd1cc0b,37,0,2024-02-28T17:14:53.569Z,english_120.wav,0,pill,430,55,4,5,français,m,8,0.8,28.09141519,0.79083126
5f90c32f69122f1cebd1cc0b,37,0,2024-02-28T17:14:53.569Z,english_120.wav,0,pill,430,55,4,5,français,m,9,0.9,-12.73315984,0.78849397
5f90c32f69122f1cebd1cc0b,37,0,2024-02-28T17:14:53.569Z,english_120.wav,0,pill,430,55,4,5,français,m,10,1.0,-2.02458529,1.83169014
5f90c32f69122f1cebd1cc0b,37,0,2024-02-28T17:14:53.569Z,english_120.wav,0,pill,430,55,4,5,français,m,11,1.09391667,-56.16856888,0.88953278
5f90c32f69122f1cebd1cc0b,38,0,2024-02-28T17:14:53.569Z,english_420.wav,0,pill,330,55,4,5,français,m,0,0.0,66.35781632,1.51060149
5f90c32f69122f1cebd1cc0b,38,0,2024-02-28T17:14:53.569Z,english_420.wav,0,pill,330,55,4,5,français,m,1,0.1,-12.06831675,0.86092396
5f90c32f69122f1cebd1cc0b,38,0,2024-02-28T17:14:53.569Z,english_420.wav,0,pill,330,55,4,5,français,m,2,0.2,71.12167329,1.98213421
5f90c32f69122f1cebd1cc0b,38,0,2024-02-28T17:14:53.569Z,english_420.wav,0,pill,330,55,4,5,français,m,3,0.3,-65.08320496,0.15165496
5f90c32f69122f1cebd1cc0b,38,0,2024-02-28T17:14:53.569Z,english_420.wav,0,pill,330,55,4,5,français,m,4,0.4,-82.82301749,1.26926091
5f90c32f69122f1cebd1cc0b,38,0,2024-02-28T17:14:53.569Z,english_420.wav,0,pill,330,55,4,5,français,m,5,0.5,32.31625944,1.00523376
5f90c32f69122f1cebd1cc0b,38,0,2024-02-28T17:14:53.569Z,english_420.wav,0,pill,330,55,4,5,français,m,6,0.6,68.14197427,1.33555594
5f90c32f69122f1cebd1cc0b,38,0,2024-02-28T17:14:53.569Z,english_420.wav,0,pill,330,55,4,5,français,m,7,0.7,69.60296215,1.16834727
5f90c32f69122f1cebd1cc0b,38,0,2024-02-28T17:14:53.569Z,english_420.wav,0,pill,330,55,4,5,français,m,8,0.8,38.87135773,0.07961385
5f90c32f69122f1cebd1cc0b,38,0,2024-02-28T17:14:53.569Z,english_420.wav,0,pill,330,55,4,5,français,m,9,0.9,55.81325805,0.13061417
5f90c32f69122f1cebd1cc0b,38,0,2024-02-28T17:14:53.569Z,english_420.wav,0,pill,330,55,4,5,français,m,10,1.0,91.56317805,1.16603809
5f90c32f69122f1cebd1cc0b,38,0,2024-02-28T17:14:53.569Z,english_420.wav,0,pill,330,55,4,5,français,m,11,1.09391667,58.32530745,1.93332186
5f90c32f69122f1cebd1cc0b,39,0,2024-02-28T17:14:53.569Z,english_669.wav,0,pill,789,55,4,5,français,m,0,0.0,63.63841723,1.21965741
5f90c32f69122f1cebd1cc0b,39,0,2024-02-28T17:14:53.569Z,english_669.wav,0,pill,789,55,4,5,français,m,1,0.1,-16.46655099,1.77063888
5f90c32f69122f1cebd1cc0b,39,0,2024-02-28T17:14:53.569Z,english_669.wav,0,pill,789,55,4,5,français,m,2,0.2,59.94652085,1.19972221
5f90c32f69122f1cebd1cc0b,39,0,2024-02-28T17:14:53.569Z,english_669.wav,0,pill,789,55,4,5,français,m,3,0.3,87.91202499,1.09192955
5f90c32f69122f1cebd1cc0b,39,0,2024-02-28T17:14:53.569Z,english_669.wav,0,pill,789,55,4,5,français,m,4,0.4,-9.72604882,0.69529064
5f90c32f69122f1cebd1cc0b,39,0,2024-02-28T17:14:53.569Z,english_669.wav,0,pill,789,55,4,5,français,m,5,0.5,72.16172308,1.09710692
5f90c32f69122f1cebd1cc0b,39,0,2024-02-28T17:14:53.569Z,english_669.wav,0,pill,789,55,4,5,français,m,6,0.6,-64.88013083,1.91297745
5f90c32f69122f1cebd1cc0b,39,0,2024-02-28T17:14:53.569Z,english_669.wav,0,pill,789,55,4,5,français,m,7,0.7,26.66035036,1.12487674
5f90c32f69122f1cebd1cc0b,39,0,2024-02-28T17:14:53.569Z,english_669.wav,0,pill,789,55,4,5,français,m,8,0.8,-43.66675722,0.95542007
5f90c32f69122f1cebd1cc0b,39,0,2024-02-28T17:14:53.569Z,english_669.wav,0,pill,789,55,4,5,français,m,9,0.9,4.29997564,1.3922733
5f90c32f69122f1cebd1cc0b,39,0,2024-02-28T17:14:53.569Z,english_669.wav,0,pill,789,55,4,5,français,m,10,1.0,-68.31489554,1.61053031
5f90c32f69122f1cebd1cc0b,39,0,2024-02-28T17:14:53.569Z,english_669.wav,0,pill,789,55,4,5,français,m,11,1.09391667,-65.69487781,0.28856802
5f90c32f69122f1cebd1cc0b,40,0,2024-02-28T17:14:53.569Z,english_629.wav,0,pill,306,55,4,5,français,m,0,0.0,-98.30964243,0.81771725
5f90c32f69122f1cebd1cc0b,40,0,2024-02-28T17:14:53.569Z,english_629.wav,0,pill,306,55,4,5,français,m,1,0.1,-5.62970232,0.80248144
5f90c32f69122f1cebd1cc0b,40,0,2024-02-28T17:14:53.569Z,english_629.wav,0,pill,306,55,4,5,français,m,2,0.2,20.69990793,1.65272957
5f90c32f69122f1cebd1cc0b,40,0,2024-02-28T17:14:53.569Z,english_629.wav,0,pill,306,55,4,5,français,m,3,0.3,-4.68954038,0.79587507
5f90c32f69122f1cebd1cc0b,40,0,2024-02-28T17:14:53.569Z,english_629.wav,0,pill,306,55,4,5,français,m,4,0.4,-82.80499964,0.51843323
5f90c32f69122f1cebd1cc0b,40,0,2024-02-28T17:14:53.569Z,english_629.wav,0,pill,306,55,4,5,français,m,5,0.5,68.80297029,1.06630495
5f90c32f69122f1cebd1cc0b,40,0,2024-02-28T17:14:53.569Z,english_629.wav,0,pill,306,55,4,5,français,m,6,0.6,-24.62615081,0.85921764
5f90c32f69122f1cebd1cc0b,40,0,2024-02-28T17:14:53.569Z,english_629.wav,0,pill,306,55,4,5,français,m,7,0.7,-86.27878454,1.30572182
5f90c32f69122f1cebd1cc0b,40,0,2024-02-28T17:14:53.569Z,english_629.wav,0,pill,306,55,4,5,français,m,8,0.8,-88.66663155,0.67243508
5f90c32f69122f1cebd1cc0b,40,0,2024-02-28T17:14:53.569Z,english_629.wav,0,pill,306,55,4,5,français,m,9,0.9,8.97030431,0.68958588
5f90c32f69122f1cebd1cc0b,40,0,2024-02-28T17:14:53.569Z,english_629.wav,0,pill,306,55,4,5,français,m,10,1.0,-94.86018334,0.23451131
5f90c32f69122f1cebd1cc0b,40,0,2024-02-28T17:14:53.569Z,english_629.wav,0,pill,306,55,4,5,français,m,11,1.09391667,10.00961885,1.91010728
5f90c32f69122f1cebd1cc0b,41,0,2024-02-28T17:14:53.569Z,english_284.wav,0,pill,2753,55,4,5,français,m,0,0.0,-64.32327457,0.91308262
5f90c32f69122f1cebd1cc0b,41,0,2024-02-28T17:14:53.569Z,english_284.wav,0,pill,2753,55,4,5,français,m,1,0.1,-67.89025783,0.76791564
5f90c32f69122f1cebd1cc0b,41,0,2024-02-28T17:14:53.569Z,english_284.wav,0,pill,2753,55,4,5,français,m,2,0.2,63.39804367,0.83095971
5f90c32f69122f1cebd1cc0b,41,0,2024-02-28T17:14:53.569Z,english_284.wav,0,pill,2753,55,4,5,français,m,3,0.3,-47.8895651,1.79742446
5f90c32f69122f1cebd1cc0b,41,0,2024-02-28T17:14:53.569Z,english_284.wav,0,pill,2753,55,4,5,français,m,4,0.4,27.68105964,1.18503846
5f90c32f69122f1cebd1cc0b,41,0,2024-02-28T17:14:53.569Z,english_284.wav,0,pill,2753,55,4,5,français,m,5,0.5,58.35244252,1.29913938
5f90c32f69122f1cebd1cc0b,41,0,2024-02-28T17:14:53.569Z,english_284.wav,0,pill,2753,55,4,5,français,m,6,0.6,-24.74070708,1.72192785
5f90c32f69122f1cebd1cc0b,41,0,2024-02-28T17:14:53.569Z,english_284.wav,0,pill,2753,55,4,5,français,m,7,0.7,-82.19387926,1.7387844
5f90c32f69122f1cebd1cc0b,41,0,2024-02-28T17:14:53.569Z,english_284.wav,0,pill,2753,55,4,5,français,m,8,0.8,-97.32479033,1.05930336
5f90c32f69122f1cebd1cc0b,41,0,2024-02-28T17:14:53.569Z,english_284.wav,0,pill,2753,55,4,5,français,m,9,0.9,99.46728609,0.10150249
5f90c32f69122f1cebd1cc0b,41,0,2024-02-28T17:14:53.569Z,english_284.wav,0,pill,2753,55,4,5,français,m,10,1.0,-92.70862536,0.67687392
5f90c32f69122f1cebd1cc0b,41,0,2024-02-28T17:14:53.569Z,english_284.wav,0,pill,2753,55,4,5,français,m,11,1.09391667,47.98339035,1.83996488
5f90c32f69122f1cebd1cc0b,42,0,2024-02-28T17:14:53.569Z,english_369.wav,0,pill,1675,55,4,5,français,m,0,0.0,-98.51702781,1.05319591
5f90c32f69122f1cebd1cc0b,42,0,2024-02-28T17:14:53.569Z,english_369.wav,0,pill,1675,55,4,5,français,m,1,0.1,-77.74164505,0.35563608
5f90c32f69122f1cebd1cc0b,42,0,2024-02-28T17:14:53.569Z,english_369.wav,0,pill,1675,55,4,5,français,m,2,0.2,13.86053007,0.74921535
5f90c32f69122f1cebd1cc0b,42,0,2024-02-28T17:14:53.569Z,english_369.wav,0,pill,1675,55,4,5,français,m,3,0.3,94.45294859,1.88151113
5f90c32f69122f1cebd1cc0b,42,0,2024-02-28T17:14:53.569Z,english_369.wav,0,pill,1675,55,4,5,français,m,4,0.4,-68.44131684,1.38340448
5f90c32f69122f1cebd1cc0b,42,0,2024-02-28T17:14:53.569Z,english_369.wav,0,pill,1675,55,4,5,français,m,5,0.5,-11.02159052,1.0971757
5f90c32f69122f1cebd1cc0b,42,0,2024-02-28T17:14:53.569Z,english_369.wav,0,pill,1675,55,4,5,français,m,6,0.6,-93.03562761,0.74102815
5f90c32f69122f1cebd1cc0b,42,0,2024-02-28T17:14:53.569Z,english_369.wav,0,pill,1675,55,4,5,français,m,7,0.7,92.19991551,0.86578633
5f90c32f69122f1cebd1cc0b,42,0,2024-02-28T17:14:53.569Z,english_369.wav,0,pill,1675,55,4,5,français,m,8,0.8,44.28946949,0.42333119
5f90c32f69122f1cebd1cc0b,42,0,2024-02-28T17:14:53.569Z,english_369.wav,0,pill,1675,55,4,5,français,m,9,0.9,-36.54704406,1.30148328
5f90c32f69122f1cebd1cc0b,42,0,2024-02-28T17:14:53.569Z,english_369.wav,0,pill,1675,55,4,5,français,m,10,1.0,75.92915306,0.13274677
5f90c32f69122f1cebd1cc0b,42,0,2024-02-28T17:14:53.569Z,english_369.wav,0,pill,1675,55,4,5,français,m,11,1.09391667,43.6375557,0.3552412
5f90c32f69122f1cebd1cc0b,43,0,2024-02-28T17:14:53.569Z,english_465.wav,0,pill,337,55,4,5,français,m,0,0.0,32.62808343,1.95674705
5f90c32f69122f1cebd1cc0b,43,0,2024-02-28T17:14:53.569Z,english_465.wav,0,pill,337,55,4,5,français,m,1,0.1,-19.45954063,0.2020369
5f90c32f69122f1cebd1cc0b,43,0,2024-02-28T17:14:53.569Z,english_465.wav,0,pill,337,55,4,5,français,m,2,0.2,31.8583501,0.52421729
5f90c32f69122f1cebd1cc0b,43,0,2024-02-28T17:14:53.569Z,english_465.wav,0,pill,337,55,4,5,français,m,3,0.3,62.10393883,0.65974817
5f90c32f69122f1cebd1cc0b,43,0,2024-02-28T17:14:53.569Z,english_465.wav,0,pill,337,55,4,5,français,m,4,0.4,18.6647785,0.39728546
5f90c32f69122f1cebd1cc0b,43,0,2024-02-28T17:14:53.569Z,english_465.wav,0,pill,337,55,4,5,français,m,5,0.5,60.37095119,0.37134149
5f90c32f69122f1cebd1cc0b,43,0,2024-02-28T17:14:53.569Z,english_465.wav,0,pill,337,55,4,5,français,m,6,0.6,-66.90125798,0.92371442
5f90c32f69122f1cebd1cc0b,43,0,2024-02-28T17:14:53.569Z,english_465.wav,0,pill,337,55,4,5,français,m,7,0.7,-81.40602189,0.31310251
5f90c32f69122f1cebd1cc0b,43,0,2024-02-28T17:14:53.569Z,english_465.wav,0,pill,337,55,4,5,français,m,8,0.8,50.53882687,1.13414137
5f90c32f69122f1cebd1cc0b,43,0,2024-02-28T17:14:53.569Z,english_465.wav,0,pill,337,55,4,5,français,m,9,0.9,-56.46028762,0.34422608
5f90c32f69122f1cebd1cc0b,43,0,2024-02-28T17:14:53.569Z,english_465.wav,0,pill,337,55,4,5,français,m,10,1.0,17.60561432,1.91257156
5f90c32f69122f1cebd1cc0b,43,0,2024-02-28T17:14:53.569Z,english_465.wav,0,pill,337,55,4,5,français,m,11,1.09391667,99.29101089,1.23959362
5f90c32f69122f1cebd1cc0b,44,0,2024-02-28T17:14:53.569Z,english_446.wav,0,pill,337,55,4,5,français,m,0,0.0,-71.72833513,0.37077237
5f90c32f69122f1cebd1cc0b,44,0,2024-02-28T17:14:53.569Z,english_446.wav,0,pill,337,55,4,5,français,m,1,0.1,-14.74031919,0.56990881
5f90c32f69122f1cebd1cc0b,44,0,2024-02-28T17:14:53.569Z,english_446.wav,0,pill,337,55,4,5,français,m,2,0.2,-21.83541147,1.59729725
5f90c32f69122f1cebd1cc0b,44,0,2024-02-28T17:14:53.569Z,english_446.wav,0,pill,337,55,4,5,français,m,3,0.3,-67.51881517,1.97035771
5f90c32f69122f1cebd1cc0b,44,0,2024-02-28T17:14:53.569Z,english_446.wav,0,pill,337,55,4,5,français,m,4,0.4,-91.38875442,0.52850963
5f90c32f69122f1cebd1cc0b,44,0,2024-02-28T17:14:53.569Z,english_446.wav,0,pill,337,55,4,5,français,m,5,0.5,6.74447183,1.74112616
5f90c32f69122f1cebd1cc0b,44,0,2024-02-28T17:14:53.569Z,english_446.wav,0,pill,337,55,4,5,français,m,6,0.6,26.61618155,0.02543003
5f90c32f69122f1cebd1cc0b,44,0,2024-02-28T17:14:53.569Z,english_446.wav,0,pill,337,55,4,5,français,m,7,0.7,72.29706337,0.19739553
5f90c32f69122f1cebd1cc0b,44,0,2024-02-28T17:14:53.569Z,english_446.wav,0,pill,337,55,4,5,français,m,8,0.8,58.26898218,0.10712319
5f90c32f69122f1cebd1cc0b,44,0,2024-02-28T17:14:53.569Z,english_446.wav,0,pill,337,55,4,5,français,m,9,0.9,30.44634512,0.63352141
5f90c32f69122f1cebd1cc0b,44,0,2024-02-28T17:14:53.569Z,english_446.wav,0,pill,337,55,4,5,français,m,10,1.0,-17.84842899,1.44239476
5f90c32f69122f1cebd1cc0b,44,0,2024-02-28T17:14:53.569Z,english_446.wav,0,pill,337,55,4,5,français,m,11,1.09391667,-24.00080187,0.76601062
5f90c32f69122f1cebd1cc0b,45,0,2024-02-28T17:14:53.569Z,english_499.wav,0,pill,632,55,4,5,français,m,0,0.0,-7.75302897,0.29368166
5f90c32f69122f1cebd1cc0b,45,0,2024-02-28T17:14:53.569Z,english_499.wav,0,pill,632,55,4,5,français,m,1,0.1,23.88086762,1.58141682
5f90c32f69122f1cebd1cc0b,45,0,2024-02-28T17:14:53.569Z,english_499.wav,0,pill,632,55,4,5,français,m,2,0.2,-0.54854112,0.68322719
5f90c32f69122f1cebd1cc0b,45,0,2024-02-28T17:14:53.569Z,english_499.wav,0,pill,632,55,4,5,français,m,3,0.3,11.38417001,1.0607803
5f90c32f69122f1cebd1cc0b,45,0,2024-02-28T17:14:53.569Z,english_499.wav,0,pill,632,55,4,5,français,m,4,0.4,76.48373601,0.5459371
5f90c32f69122f1cebd1cc0b,45,0,2024-02-28T17:14:53.569Z,english_499.wav,0,pill,632,55,4,5,français,m,5,0.5,34.68075028,1.82829661
5f90c32f69122f1cebd1cc0b,45,0,2024-02-28T17:14:53.569Z,english_499.wav,0,pill,632,55,4,5,français,m,6,0.6,-14.34298834,1.23009433
5f90c32f69122f1cebd1cc0b,45,0,2024-02-28T17:14:53.569Z,english_499.wav,0,pill,632,55,4,5,français,m,7,0.7,26.82043511,1.38131853
5f90c32f69122f1cebd1cc0b,45,0,2024-02-28T17:14:53.569Z,english_499.wav,0,pill,632,55,4,5,français,m,8,0.8,60.32593039,0.45099226
5f90c32f69122f1cebd1cc0b,45,0,2024-02-28T17:14:53.569Z,english_499.wav,0,pill,632,55,4,5,français,m,9,0.9,-38.40765739,1.79672484
5f90c32f69122f1cebd1cc0b,45,0,2024-02-28T17:14:53.569Z,english_499.wav,0,pill,632,55,4,5,français,m,10,1.0,7.55243951,0.11050545
5f90c32f69122f1cebd1cc0b,45,0,2024-02-28T17:14:53.569Z,english_499.wav,0,pill,632,55,4,5,français,m,11,1.09391667,-96.29085545,0.98124995
5f90c32f69122f1cebd1cc0b,46,0,2024-02-28T17:14:53.569Z,english_514.wav,0,pill,1244,55,4,5,français,m,0,0.0,-59.82766829,1.35471226
5f90c32f69122f1cebd1cc0b,46,0,2024-02-28T17:14:53.569Z,english_514.wav,0,pill,1244,55,4,5,français,m,1,0.1,-4.54284015,0.81191054
5f90c32f69122f1cebd1cc0b,46,0,2024-02-28T17:14:53.569Z,english_514.wav,0,pill,1244,55,4,5,français,m,2,0.2,75.12688257,1.30120799
5f90c32f69122f1cebd1cc0b,46,0,2024-02-28T17:14:53.569Z,english_514.wav,0,pill,1244,55,4,5,français,m,3,0.3,52.77263543,1.91982738
5f90c32f69122f1cebd1cc0b,46,0,2024-02-28T17:14:53.569Z,english_514.wav,0,pill,1244,55,4,5,français,m,4,0.4,-86.38859223,1.85775535
5f90c32f69122f1cebd1cc0b,46,0,2024-02-28T17:14:53.569Z,english_514.wav,0,pill,1244,55,4,5,français,m,5,0.5,22.0573972,0.92799532
5f90c32f69122f1cebd1cc0b,46,0,2024-02-28T17:14:53.569Z,english_514.wav,0,pill,1244,55,4,5,français,m,6,0.6,-81.94223644,0.39882237
5f90c32f69122f1cebd1cc0b,46,0,2024-02-28T17:14:53.569Z,english_514.wav,0,pill,1244,55,4,5,français,m,7,0.7,33.46090425,1.85696096
5f90c32f69122f1cebd1cc0b,46,0,2024-02-28T17:14:53.569Z,english_514.wav,0,pill,1244,55,4,5,français,m,8,0.8,10.59703074,0.26578536
5f90c32f69122f1cebd1cc0b,46,0,2024-02-28T17:14:53.569Z,english_514.wav,0,pill,1244,55,4,5,français,m,9,0.9,74.40481447,1.80594265
5f90c32f69122f1cebd1cc0b,46,0,2024-02-28T17:14:53.569Z,english_514.wav,0,pill,1244,55,4,5,français,m,10,1.0,35.18551728,0.66929464
5f90c32f69122f1cebd1cc0b,46,0,2024-02-28T17:14:53.569Z,english_514.wav,0,pill,1244,55,4,5,français,m,11,1.09391667,-52.88743611,1.62933111
5f90c32f69122f1cebd1cc0b,47,0,2024-02-28T17:14:53.569Z,english_183.wav,0,pill,717,55,4,5,français,m,0,0.0,56.94082111,1.46471885
5f90c32f69122f1cebd1cc0b,47,0,2024-02-28T17:14:53.569Z,english_183.wav,0,pill,717,55,4,5,français,m,1,0.1,23.76823823,0.27157125
5f90c32f69122f1cebd1cc0b,47,0,2024-02-28T17:14:53.569Z,english_183.wav,0,pill,717,55,4,5,français,m,2,0.2,-72.77208824,0.89995591
5f90c32f69122f1cebd1cc0b,47,0,2024-02-28T17:14:53.569Z,english_183.wav,0,pill,717,55,4,5,français,m,3,0.3,-26.01651227,0.86595775
5f90c32f69122f1cebd1cc0b,47,0,2024-02-28T17:14:53.569Z,english_183.wav,0,pill,717,55,4,5,français,m,4,0.4,97.95217456,0.99665554
5f90c32f69122f1cebd1cc0b,47,0,2024-02-28T17:14:53.569Z,english_183.wav,0,pill,717,55,4,5,français,m,5,0.5,-88.35240054,1.5130978
5f90c32f69122f1cebd1cc0b,47,0,2024-02-28T17:14:53.569Z,english_183.wav,0,pill,717,55,4,5,français,m,6,0.6,8.20957713,0.89371921
5f90c32f69122f1cebd1cc0b,47,0,2024-02-28T17:14:53.569Z,english_183.wav,0,pill,717,55,4,5,français,m,7,0.7,-0.21457891,0.60499738
5f90c32f69122f1cebd1cc0b,47,0,2024-02-28T17:14:53.569Z,english_183.wav,0,pill,717,55,4,5,français,m,8,0.8,-22.50054627,0.6752389
5f90c32f69122f1cebd1cc0b,47,0,2024-02-28T17:14:53.569Z,english_183.wav,0,pill,717,55,4,5,français,m,9,0.9,-26.93782132,0.26345185
5f90c32f69122f1cebd1cc0b,47,0,2024-02-28T17:14:53.569Z,english_183.wav,0,pill,717,55,4,5,français,m,10,1.0,-9.93952746,0.41919446
5f90c32f69122f1cebd1cc0b,47,0,2024-02-28T17:14:53.569Z,english_183.wav,0,pill,717,55,4,5,français,m,11,1.09391667,16.7040789,0.61479122
5f90c32f69122f1cebd1cc0b,48,0,2024-02-28T17:14:53.569Z,english_83.wav,0,pill,230,55,4,5,français,m,0,0.0,-13.2041621,1.43008508
5f90c32f69122f1cebd1cc0b,48,0,2024-02-28T17:14:53.569Z,english_83.wav,0,pill,230,55,4,5,français,m,1,0.1,72.11694132,0.66721453
5f90c32f69122f1cebd1cc0b,48,0,2024-02-28T17:14:53.569Z,english_83.wav,0,pill,230,55,4,5,français,m,2,0.2,72.29533823,0.92720226
5f90c32f69122f1cebd1cc0b,48,0,2024-02-28T17:14:53.569Z,english_83.wav,0,pill,230,55,4,5,français,m,3,0.3,27.12463377,1.5008618
5f90c32f69122f1cebd1cc0b,48,0,2024-02-28T17:14:53.569Z,english_83.wav,0,pill,230,55,4,5,français,m,4,0.4,-0.51668001,0.92612905
5f90c32f69122f1cebd1cc0b,48,0,2024-02-28T17:14:53.569Z,english_83.wav,0,pill,230,55,4,5,français,m,5,0.5,95.33803701,1.15889455
5f90c32f69122f1cebd1cc0b,48,0,2024-02-28T17:14:53.569Z,english_83.wav,0,pill,230,55,4,5,français,m,6,0.6,29.01440832,1.69874537
5f90c32f69122f1cebd1cc0b,48,0,2024-02-28T17:14:53.569Z,english_83.wav,0,pill,230,55,4,5,français,m,7,0.7,95.49757562,1.82400366
5f90c32f69122f1cebd1cc0b,48,0,2024-02-28T17:14:53.569Z,english_83.wav,0,pill,230,55,4,5,français,m,8,0.8,73.0572007,0.49276816
5f90c32f69122f1cebd1cc0b,48,0,2024-02-28T17:14:53.569Z,english_83.wav,0,pill,230,55,4,5,français,m,9,0.9,-51.56555772,1.24642372
5f90c32f69122f1cebd1cc0b,48,0,2024-02-28T17:14:53.569Z,english_83.wav,0,pill,230,55,4,5,français,m,10,1.0,75.9566984,1.81994123
5f90c32f69122f1cebd1cc0b,48,0,2024-02-28T17:14:53.569Z,english_83.wav,0,pill,230,55,4,5,français,m,11,1.09391667,-25.09105013,1.274738
5f90c32f69122f1cebd1cc0b,49,0,2024-02-28T17:14:53.569Z,english_796.wav,0,pill,1465,55,4,5,français,m,0,0.0,23.83274793,0.06036971
5f90c32f69122f1cebd1cc0b,49,0,2024-02-28T17:14:53.569Z,english_796.wav,0,pill,1465,55,4,5,français,m,1,0.1,58.93639275,1.88058462
5f90c32f69122f1cebd1cc0b,49,0,2024-02-28T17:14:53.569Z,english_796.wav,0,pill,1465,55,4,5,français,m,2,0.2,38.21414004,0.18227098
5f90c32f69122f1cebd1cc0b,49,0,2024-02-28T17:14:53.569Z,english_796.wav,0,pill,1465,55,4,5,français,m,3,0.3,28.9924604,1.37773272
5f90c32f69122f1cebd1cc0b,49,0,2024-02-28T17:14:53.569Z,english_796.wav,0,pill,1465,55,4,5,français,m,4,0.4,-7.06068982,1.64549947
5f90c32f69122f1cebd1cc0b,49,0,2024-02-28T17:14:53.569Z,english_796.wav,0,pill,1465,55,4,5,français,m,5,0.5,-87.6291124,1.67194705
5f90c32f69122f1cebd1cc0b,49,0,2024-02-28T17:14:53.569Z,english_796.wav,0,pill,1465,55,4,5,français,m,6,0.6,-19.55999428,0.64689213
5f90c32f69122f1cebd1cc0b,49,0,2024-02-28T17:14:53.569Z,english_796.wav,0,pill,1465,55,4,5,français,m,7,0.7,12.86748648,1.59726084
5f90c32f69122f1cebd1cc0b,49,0,2024-02-28T17:14:53.569Z,english_796.wav,0,pill,1465,55,4,5,français,m,8,0.8,60.66600698,0.96069219
5f90c32f69122f1cebd1cc0b,49,0,2024-02-28T17:14:53.569Z,english_796.wav,0,pill,1465,55,4,5,français,m,9,0.9,63.14579763,1.00931817
5f90c32f69122f1cebd1cc0b,49,0,2024-02-28T17:14:53.569Z,english_796.wav,0,pill,1465,55,4,5,français,m,10,1.0,38.43403738,1.05195825
5f90c32f69122f1cebd1cc0b,49,0,2024-02-28T17:14:53.569Z,english_796.wav,0,pill,1465,55,4,5,français,m,11,1.09391667,-11.41285249,1.96327853
5f90c32f69122f1cebd1cc0b,50,1,2024-02-28T17:14:53.569Z,english_647.wav,0,pill,620,55,4,5,français,m,0,0.0,54.52725229,1.1883546
5f90c32f69122f1cebd1cc0b,50,1,2024-02-28T17:14:53.569Z,english_647.wav,0,pill,620,55,4,5,français,m,1,0.1,-56.14693886,1.65081997
5f90c32f69122f1cebd1cc0b,50,1,2024-02-28T17:14:53.569Z,english_647.wav,0,pill,620,55,4,5,français,m,2,0.2,71.63132719,1.02051213
5f90c32f69122f1cebd1cc0b,50,1,2024-02-28T17:14:53.569Z,english_647.wav,0,pill,620,55,4,5,français,m,3,0.3,-23.02387172,1.7000584
5f90c32f69122f1cebd1cc0b,50,1,2024-02-28T17:14:53.569Z,english_647.wav,0,pill,620,55,4,5,français,m,4,0.4,-60.51376999,0.62509688
5f90c32f69122f1cebd1cc0b,50,1,2024-02-28T17:14:53.569Z,english_647.wav,0,pill,620,55,4,5,français,m,5,0.5,-64.57692494,1.60189297
5f90c32f69122f1cebd1cc0b,50,1,2024-02-28T17:14:53.569Z,english_647.wav,0,pill,620,55,4,5,français,m,6,0.6,46.96365994,1.40209494
5f90c32f69122f1cebd1cc0b,50,1,2024-02-28T17:14:53.569Z,english_647.wav,0,pill,620,55,4,5,français,m,7,0.7,2.340544,1.32470585
5f90c32f69122f1cebd1cc0b,50,1,2024-02-28T17:14:53.569Z,english_647.wav,0,pill,620,55,4,5,français,m,8,0.8,-11.6475953,1.16038123
5f90c32f69122f1cebd1cc0b,50,1,2024-02-28T17:14:53.569Z,english_647.wav,0,pill,620,55,4,5,français,m,9,0.9,62.71297866,0.96037121
5f90c32f69122f1cebd1cc0b,50,1,2024-02-28T17:14:53.569Z,english_647.wav,0,pill,620,55,4,5,français,m,10,1.0,-48.91159538,0.45954714
5f90c32f69122f1cebd1cc0b,50,1,2024-02-28T17:14:53.569Z,english_647.wav,0,pill,620,55,4,5,français,m,11,1.09391667,-39.00416387,1.53514393
5f90c32f69122f1cebd1cc0b,51,1,2024-02-28T17:14:53.569Z,english_576.wav,0,pill,470,55,4,5,français,m,0,0.0,-58.66306645,1.71561025
5f90c32f69122f1cebd1cc0b,51,1,2024-02-28T17:14:53.569Z,english_576.wav,0,pill,470,55,4,5,français,m,1,0.1,-48.85456955,1.69080607
5f90c32f69122f1cebd1cc0b,51,1,2024-02-28T17:14:53.569Z,english_576.wav,0,pill,470,55,4,5,français,m,2,0.2,29.24978703,1.36521175
5f90c32f69122f1cebd1cc0b,51,1,2024-02-28T17:14:53.569Z,english_576.wav,0,pill,470,55,4,5,français,m,3,0.3,-4.57987844,0.87715483
5f90c32f69122f1cebd1cc0b,51,1,2024-02-28T17:14:53.569Z,english_576.wav,0,pill,470,55,4,5,français,m,4,0.4,17.09511918,0.38991217
5f90c32f69122f1cebd1cc0b,51,1,2024-02-28T17:14:53.569Z,english_576.wav,0,pill,470,55,4,5,français,m,5,0.5,-36.28101864,0.94074697
5f90c32f69122f1cebd1cc0b,51,1,2024-02-28T17:14:53.569Z,english_576.wav,0,pill,470,55,4,5,français,m,6,0.6,16.68992844,0.21735662
5f90c32f69122f1cebd1cc0b,51,1,2024-02-28T17:14:53.569Z,english_576.wav,0,pill,470,55,4,5,français,m,7,0.7,41.08024696,0.2928344
5f90c32f69122f1cebd1cc0b,51,1,2024-02-28T17:14:53.569Z,english_576.wav,0,pill,470,55,4,5,français,m,8,0.8,84.11774755,1.75349185
5f90c32f69122f1cebd1cc0b,51,1,2024-02-28T17:14:53.569Z,english_576.wav,0,pill,470,55,4,5,français,m,9,0.9,37.20407844,0.5790335
5f90c32f69122f1cebd1cc0b,51,1,2024-02-28T17:14:53.569Z,english_576.wav,0,pill,470,55,4,5,français,m,10,1.0,-6.74453613,0.77029309
5f90c32f69122f1cebd1cc0b,51,1,2024-02-28T17:14:53.569Z,english_576.wav,0,pill,470,55,4,5,français,m,11,1.09391667,8.90716527,0.55391499
5f90c32f69122f1cebd1cc0b,52,1,2024-02-28T17:14:53.569Z,english_368.wav,0,pill,719,55,4,5,français,m,0,0.0,-21.74410199,1.11444004
5f90c32f69122f1cebd1cc0b,52,1,2024-02-28T17:14:53.569Z,english_368.wav,0,pill,719,55,4,5,français,m,1,0.1,-54.46820056,1.02689489
5f90c32f69122f1cebd1cc0b,52,1,2024-02-28T17:14:53.569Z,english_368.wav,0,pill,719,55,4,5,français,m,2,0.2,36.37288824,1.84847876
5f90c32f69122f1cebd1cc0b,52,1,2024-02-28T17:14:53.569Z,english_368.wav,0,pill,719,55,4,5,français,m,3,0.3,28.79669065,1.32768322
5f90c32f69122f1cebd1cc0b,52,1,2024-02-28T17:14:53.569Z,english_368.wav,0,pill,719,55,4,5,français,m,4,0.4,64.63914759,1.2143292
5f90c32f69122f1cebd1cc0b,52,1,2024-02-28T17:14:53.569Z,english_368.wav,0,pill,719,55,4,5,français,m,5,0.5,-47.48725989,1.4175641
5f90c32f69122f1cebd1cc0b,52,1,2024-02-28T17:14:53.569Z,english_368.wav,0,pill,719,55,4,5,français,m,6,0.6,-56.63725257,0.26859899
5f90c32f69122f1cebd1cc0b,52,1,2024-02-28T17:14:53.569Z,english_368.wav,0,pill,719,55,4,5,français,m,7,0.7,-15.67963737,1.20913194
5f90c32f69122f1cebd1cc0b,52,1,2024-02-28T17:14:53.569Z,english_368.wav,0,pill,719,55,4,5,français,m,8,0.8,-67.03077711,0.71725489
5f90c32f69122f1cebd1cc0b,52,1,2024-02-28T17:14:53.569Z,english_368.wav,0,pill,719,55,4,5,français,m,9,0.9,-87.98164929,0.61705061
5f90c32f69122f1cebd1cc0b,52,1,2024-02-28T17:14:53.569Z,english_368.wav,0,pill,719,55,4,5,français,m,10,1.0,66.360443,1.87423649
5f90c32f69122f1cebd1cc0b,52,1,2024-02-28T17:14:53.569Z,english_368.wav,0,pill,719,55,4,5,français,m,11,1.09391667,86.76512067,0.90814369
5f90c32f69122f1cebd1cc0b,53,1,2024-02-28T17:14:53.569Z,english_173.wav,0,pill,930,55,4,5,français,m,0,0.0,34.32682043,0.82312646
5f90c32f69122f1cebd1cc0b,53,1,2024-02-28T17:14:53.569Z,english_173.wav,0,pill,930,55,4,5,français,m,1,0.1,-35.22347769,0.84965345
5f90c32f69122f1cebd1cc0b,53,1,2024-02-28T17:14:53.569Z,english_173.wav,0,pill,930,55,4,5,français,m,2,0.2,15.69043139,0.84607348
5f90c32f69122f1cebd1cc0b,53,1,2024-02-28T17:14:53.569Z,english_173.wav,0,pill,930,55,4,5,français,m,3,0.3,-71.83777825,0.55995079
5f90c32f69122f1cebd1cc0b,53,1,2024-02-28T17:14:53.569Z,english_173.wav,0,pill,930,55,4,5,français,m,4,0.4,-96.81426106,0.51635348
5f90c32f69122f1cebd1cc0b,53,1,2024-02-28T17:14:53.569Z,english_173.wav,0,pill,930,55,4,5,français,m,5,0.5,-51.15803827,1.6072313
5f90c32f69122f1cebd1cc0b,53,1,2024-02-28T17:14:53.569Z,english_173.wav,0,pill,930,55,4,5,français,m,6,0.6,-12.70248505,1.25349503
5f90c32f69122f1cebd1cc0b,53,1,2024-02-28T17:14:53.569Z,english_173.wav,0,pill,930,55,4,5,français,m,7,0.7,-30.75730157,1.4731344
5f90c32f69122f1cebd1cc0b,53,1,2024-02-28T17:14:53.569Z,english_173.wav,0,pill,930,55,4,5,français,m,8,0.8,-5.0022938,0.28621328
5f90c32f69122f1cebd1cc0b,53,1,2024-02-28T17:14:53.569Z,english_173.wav,0,pill,930,55,4,5,français,m,9,0.9,41.07030003,0.95942448
5f90c32f69122f1cebd1cc0b,53,1,2024-02-28T17:14:53.569Z,english_173.wav,0,pill,930,55,4,5,français,m,10,1.0,-5.319412,0.2847469
5f90c32f69122f1cebd1cc0b,53,1,2024-02-28T17:14:53.569Z,english_173.wav,0,pill,930,55,4,5,français,m,11,1.09391667,43.01251996,0.4938404
5f90c32f69122f1cebd1cc0b,54,1,2024-02-28T17:14:53.569Z,english_801.wav,0,pill,517,55,4,5,français,m,0,0.0,-54.47653584,1.90910012
5f90c32f69122f1cebd1cc0b,54,1,2024-02-28T17:14:53.569Z,english_801.wav,0,pill,517,55,4,5,français,m,1,0.1,-41.28810238,0.95006917
5f90c32f69122f1cebd1cc0b,54,1,2024-02-28T17:14:53.569Z,english_801.wav,0,pill,517,55,4,5,français,m,2,0.2,91.65690287,0.84100017
5f90c32f69122f1cebd1cc0b,54,1,2024-02-28T17:14:53.569Z,english_801.wav,0,pill,517,55,4,5,français,m,3,0.3,-9.28605219,0.92695143
5f90c32f69122f1cebd1cc0b,54,1,2024-02-28T17:14:53.569Z,english_801.wav,0,pill,517,55,4,5,français,m,4,0.4,-68.3172527,0.80239333
5f90c32f69122f1cebd1cc0b,54,1,2024-02-28T17:14:53.569Z,english_801.wav,0,pill,517,55,4,5,français,m,5,0.5,-20.53863649,1.92743309
5f90c32f69122f1cebd1cc0b,54,1,2024-02-28T17:14:53.569Z,english_801.wav,0,pill,517,55,4,5,français,m,6,0.6,23.12715477,0.16796328
5f90c32f69122f1cebd1cc0b,54,1,2024-02-28T17:14:53.569Z,english_801.wav,0,pill,517,55,4,5,français,m,7,0.7,-28.99385244,0.5012895
5f90c32f69122f1cebd1cc0b,54,1,2024-02-28T17:14:53.569Z,english_801.wav,0,pill,517,55,4,5,français,m,8,0.8,-31.7840881,0.67203268
5f90c32f69122f1cebd1cc0b,54,1,2024-02-28T17:14:53.569Z,english_801.wav,0,pill,517,55,4,5,français,m,9,0.9,-50.00972714,0.25650815
5f90c32f69122f1cebd1cc0b,54,1,2024-02-28T17:14:53.569Z,english_801.wav,0,pill,517,55,4,5,français,m,10,1.0,-40.65380245,0.35020128
5f90c32f69122f1cebd1cc0b,54,1,2024-02-28T17:14:53.569Z,english_801.wav,0,pill,517,55,4,5,français,m,11,1.09391667,5.46992446,1.80995829
5f90c32f69122f1cebd1cc0b,55,1,2024-02-28T17:14:53.569Z,english_667.wav,0,pill,516,55,4,5,français,m,0,0.0,-40.55421882,0.65900383
5f90c32f69122f1cebd1cc0b,55,1,2024-02-28T17:14:53.569Z,english_667.wav,0,pill,516,55,4,5,français,m,1,0.1,-4.36791553,1.32668807
5f90c32f69122f1cebd1cc0b,55,1,2024-02-28T17:14:53.569Z,english_667.wav,0,pill,516,55,4,5,français,m,2,0.2,-47.28306179,1.36801295
5f90c32f69122f1cebd1cc0b,55,1,2024-02-28T17:14:53.569Z,english_667.wav,0,pill,516,55,4,5,français,m,3,0.3,4.54742829,1.31909989
5f90c32f69122f1cebd1cc0b,55,1,2024-02-28T17:14:53.569Z,english_667.wav,0,pill,516,55,4,5,français,m,4,0.4,56.02469614,1.3880932
5f90c32f69122f1cebd1cc0b,55,1,2024-02-28T17:14:53.569Z,english_667.wav,0,pill,516,55,4,5,français,m,5,0.5,-1.96932384,1.04427425
5f90c32f69122f1cebd1cc0b,55,1,2024-02-28T17:14:53.569Z,english_667.wav,0,pill,516,55,4,5,français,m,6,0.6,5.19539512,1.75340959
5f90c32f69122f1cebd1cc0b,55,1,2024-02-28T17:14:53.569Z,english_667.wav,0,pill,516,55,4,5,français,m,7,0.7,-58.89384288,0.51778984
5f90c32f69122f1cebd1cc0b,55,1,2024-02-28T17:14:53.569Z,english_667.wav,0,pill,516,55,4,5,français,m,8,0.8,-23.79810438,1.0404646
5f90c32f69122f1cebd1cc0b,55,1,2024-02-28T17:14:53.569Z,english_667.wav,0,pill,516,55,4,5,français,m,9,0.9,98.84523473,0.97755594
5f90c32f69122f1cebd1cc0b,55,1,2024-02-28T17:14:53.569Z,english_667.wav,0,pill,516,55,4,5,français,m,10,1.0,7.14220046,0.3681696
5f90c32f69122f1cebd1cc0b,55,1,2024-02-28T17:14:53.569Z,english_667.wav,0,pill,516,55,4,5,français,m,11,1.09391667,-53.41190767,1.51620439
5f90c32f69122f1cebd1cc0b,56,1,2024-02-28T17:14:53.569Z,english_520.wav,0,pill,656,55,4,5,français,m,0,0.0,81.60451099,1.42215493
5f90c32f69122f1cebd1cc0b,56,1,2024-02-28T17:14:53.569Z,english_520.wav,0,pill,656,55,4,5,français,m,1,0.1,69.46138455,0.98392103
5f90c32f69122f1cebd1cc0b,56,1,2024-02-28T17:14:53.569Z,english_520.wav,0,pill,656,55,4,5,français,m,2,0.2,-58.94741441,0.41352977
5f90c32f69122f1cebd1cc0b,56,1,2024-02-28T17:14:53.569Z,english_520.wav,0,pill,656,55,4,5,français,m,3,0.3,47.06127128,1.65086881
5f90c32f69122f1cebd1cc0b,56,1,2024-02-28T17:14:53.569Z,english_520.wav,0,pill,656,55,4,5,français,m,4,0.4,65.59970746,1.1422101
5f90c32f69122f1cebd1cc0b,56,1,2024-02-28T17:14:53.569Z,english_520.wav,0,pill,656,55,4,5,français,m,5,0.5,-54.81254387,0.90438236
5f90c32f69122f1cebd1cc0b,56,1,2024-02-28T17:14:53.569Z,english_520.wav,0,pill,656,55,4,5,français,m,6,0.6,-23.99846478,1.18287515
5f90c32f69122f1cebd1cc0b,56,1,2024-02-28T17:14:53.569Z,english_520.wav,0,pill,656,55,4,5,français,m,7,0.7,58.62113859,1.34589403
5f90c32f69122f1cebd1cc0b,56,1,2024-02-28T17:14:53.569Z,english_520.wav,0,pill,656,55,4,5,français,m,8,0.8,-30.26167425,1.10757311
5f90c32f69122f1cebd1cc0b,56,1,2024-02-28T17:14:53.569Z,english_520.wav,0,pill,656,55,4,5,français,m,9,0.9,-80.60582802,1.70569805
5f90c32f69122f1cebd1cc0b,56,1,2024-02-28T17:14:53.569Z,english_520.wav,0,pill,656,55,4,5,français,m,10,1.0,81.56591992,0.16869321
5f90c32f69122f1cebd1cc0b,56,1,2024-02-28T17:14:53.569Z,english_520.wav,0,pill,656,55,4,5,français,m,11,1.09391667,1.5485392,0.32839145
5f90c32f69122f1cebd1cc0b,57,1,2024-02-28T17:14:53.569Z,english_733.wav,0,pill,579,55,4,5,français,m,0,0.0,60.12911829,1.17715688
5f90c32f69122f1cebd1cc0b,57,1,2024-02-28T17:14:53.569Z,english_733.wav,0,pill,579,55,4,5,français,m,1,0.1,-6.07350544,0.73101999
5f90c32f69122f1cebd1cc0b,57,1,2024-02-28T17:14:53.569Z,english_733.wav,0,pill,579,55,4,5,français,m,2,0.2,-97.34447637,0.23762906
5f90c32f69122f1cebd1cc0b,57,1,2024-02-28T17:14:53.569Z,english_733.wav,0,pill,579,55,4,5,français,m,3,0.3,13.91289177,0.47801532
5f90c32f69122f1cebd1cc0b,57,1,2024-02-28T17:14:53.569Z,english_733.wav,0,pill,579,55,4,5,français,m,4,0.4,24.58615212,1.00660929
5f90c32f69122f1cebd1cc0b,57,1,2024-02-28T17:14:53.569Z,english_733.wav,0,pill,579,55,4,5,français,m,5,0.5,-0.46947401,0.69954151
5f90c32f69122f1cebd1cc0b,57,1,2024-02-28T17:14:53.569Z,english_733.wav,0,pill,579,55,4,5,français,m,6,0.6,-95.42432467,0.66296436
5f90c32f69122f1cebd1cc0b,57,1,2024-02-28T17:14:53.569Z,english_733.wav,0,pill,579,55,4,5,français,m,7,0.7,-12.42368325,0.8353001
5f90c32f69122f1cebd1cc0b,57,1,2024-02-28T17:14:53.569Z,english_733.wav,0,pill,579,55,4,5,français,m,8,0.8,-68.21201108,0.93210743
5f90c32f69122f1cebd1cc0b,57,1,2024-02-28T17:14:53.569Z,english_733.wav,0,pill,579,55,4,5,français,m,9,0.9,80.23434779,0.7426454
5f90c32f69122f1cebd1cc0b,57,1,2024-02-28T17:14:53.569Z,english_733.wav,0,pill,579,55,4,5,français,m,10,1.0,37.72859174,1.31979312
5f90c32f69122f1cebd1cc0b,57,1,2024-02-28T17:14:53.569Z,english_733.wav,0,pill,579,55,4,5,français,m,11,1.09391667,99.34819771,0.72211033
5f90c32f69122f1cebd1cc0b,58,1,2024-02-28T17:14:53.569Z,english_706.wav,0,pill,486,55,4,5,français,m,0,0.0,-18.59828841,1.29674848
5f90c32f69122f1cebd1cc0b,58,1,2024-02-28T17:14:53.569Z,english_706.wav,0,pill,486,55,4,5,français,m,1,0.1,17.62467533,1.04037111
5f90c32f69122f1cebd1cc0b,58,1,2024-02-28T17:14:53.569Z,english_706.wav,0,pill,486,55,4,5,français,m,2,0.2,-32.04245358,0.06692701
5f90c32f69122f1cebd1cc0b,58,1,2024-02-28T17:14:53.569Z,english_706.wav,0,pill,486,55,4,5,français,m,3,0.3,-59.68997275,0.01228106
5f90c32f69122f1cebd1cc0b,58,1,2024-02-28T17:14:53.569Z,english_706.wav,0,pill,486,55,4,5,français,m,4,0.4,-88.86740026,1.17857321
5f90c32f69122f1cebd1cc0b,58,1,2024-02-28T17:14:53.569Z,english_706.wav,0,pill,486,55,4,5,français,m,5,0.5,20.33601639,0.64258097
5f90c32f69122f1cebd1cc0b,58,1,2024-02-28T17:14:53.569Z,english_706.wav,0,pill,486,55,4,5,français,m,6,0.6,88.8364898,0.45138919
5f90c32f69122f1cebd1cc0b,58,1,2024-02-28T17:14:53.569Z,english_706.wav,0,pill,486,55,4,5,français,m,7,0.7,-63.14338412,0.65752297
5f90c32f69122f1cebd1cc0b,58,1,2024-02-28T17:14:53.569Z,english_706.wav,0,pill,486,55,4,5,français,m,8,0.8,-30.16182588,0.08455698
5f90c32f69122f1cebd1cc0b,58,1,2024-02-28T17:14:53.569Z,english_706.wav,0,pill,486,55,4,5,français,m,9,0.9,58.36718538,1.13304912
5f90c32f69122f1cebd1cc0b,58,1,2024-02-28T17:14:53.569Z,english_706.wav,0,pill,486,55,4,5,français,m,10,1.0,-51.79248442,1.89686489
5f90c32f69122f1cebd1cc0b,58,1,2024-02-28T17:14:53.569Z,english_706.wav,0,pill,486,55,4,5,français,m,11,1.09391667,-57.45505408,1.14298605
5f90c32f69122f1cebd1cc0b,59,1,2024-02-28T17:14:53.569Z,english_535.wav,0,pill,615,55,4,5,français,m,0,0.0,-4.00375318,0.74823916
5f90c32f69122f1cebd1cc0b,59,1,2024-02-28T17:14:53.569Z,english_535.wav,0,pill,615,55,4,5,français,m,1,0.1,-37.57387138,0.9109632
5f90c32f69122f1cebd1cc0b,59,1,2024-02-28T17:14:53.569Z,english_535.wav,0,pill,615,55,4,5,français,m,2,0.2,-31.12595353,0.84755902
5f90c32f69122f1cebd1cc0b,59,1,2024-02-28T17:14:53.569Z,english_535.wav,0,pill,615,55,4,5,français,m,3,0.3,2.06341331,1.09662022
5f90c32f69122f1cebd1cc0b,59,1,2024-02-28T17:14:53.569Z,english_535.wav,0,pill,615,55,4,5,français,m,4,0.4,56.11576492,0.26254995
5f90c32f69122f1cebd1cc0b,59,1,2024-02-28T17:14:53.569Z,english_535.wav,0,pill,615,55,4,5,français,m,5,0.5,30.13214978,1.29967994
5f90c32f69122f1cebd1cc0b,59,1,2024-02-28T17:14:53.569Z,english_535.wav,0,pill,615,55,4,5,français,m,6,0.6,14.78197265,1.50452532
5f90c32f69122f1cebd1cc0b,59,1,2024-02-28T17:14:53.569Z,english_535.wav,0,pill,615,55,4,5,français,m,7,0.7,-18.38930177,1.51808924
5f90c32f69122f1cebd1cc0b,59,1,2024-02-28T17:14:53.569Z,english_535.wav,0,pill,615,55,4,5,français,m,8,0.8,-10.54396075,0.34439234
5f90c32f69122f1cebd1cc0b,59,1,2024-02-28T17:14:53.569Z,english_535.wav,0,pill,615,55,4,5,français,m,9,0.9,39.09773013,0.86790386
5f90c32f69122f1cebd1cc0b,59,1,2024-02-28T17:14:53.569Z,english_535.wav,0,pill,615,55,4,5,français,m,10,1.0,46.13111143,0.86784134
5f90c32f69122f1cebd1cc0b,59,1,2024-02-28T17:14:53.569Z,english_535.wav,0,pill,615,55,4,5,français,m,11,1.09391667,-64.44597459,0.57511998
5f90c32f69122f1cebd1cc0b,60,1,2024-02-28T17:14:53.569Z,english_856.wav,0,pill,1436,55,4,5,français,m,0,0.0,-87.78087501,0.23355411
5f90c32f69122f1cebd1cc0b,60,1,2024-02-28T17:14:53.569Z,english_856.wav,0,pill,1436,55,4,5,français,m,1,0.1,-5.3712764,0.25625776
5f90c32f69122f1cebd1cc0b,60,1,2024-02-28T17:14:53.569Z,english_856.wav,0,pill,1436,55,4,5,français,m,2,0.2,-32.01336506,0.23781871
5f90c32f69122f1cebd1cc0b,60,1,2024-02-28T17:14:53.569Z,english_856.wav,0,pill,1436,55,4,5,français,m,3,0.3,-17.67932292,1.00270159
5f90c32f69122f1cebd1cc0b,60,1,2024-02-28T17:14:53.569Z,english_856.wav,0,pill,1436,55,4,5,français,m,4,0.4,-24.3028662,1.45467938
5f90c32f69122f1cebd1cc0b,60,1,2024-02-28T17:14:53.569Z,english_856.wav,0,pill,1436,55,4,5,français,m,5,0.5,-24.1832065,0.02272775
5f90c32f69122f1cebd1cc0b,60,1,2024-02-28T17:14:53.569Z,english_856.wav,0,pill,1436,55,4,5,français,m,6,0.6,72.09597394,1.47665781
5f90c32f69122f1cebd1cc0b,60,1,2024-02-28T17:14:53.569Z,english_856.wav,0,pill,1436,55,4,5,français,m,7,0.7,99.56545873,1.13119878
5f90c32f69122f1cebd1cc0b,60,1,2024-02-28T17:14:53.569Z,english_856.wav,0,pill,1436,55,4,5,français,m,8,0.8,-38.26985921,1.70416673
5f90c32f69122f1cebd1cc0b,60,1,2024-02-28T17:14:53.569Z,english_856.wav,0,pill,1436,55,4,5,français,m,9,0.9,46.8718891,1.96783156
5f90c32f69122f1cebd1cc0b,60,1,2024-02-28T17:14:53.569Z,english_856.wav,0,pill,1436,55,4,5,français,m,10,1.0,23.13402485,0.77103282
5f90c32f69122f1cebd1cc0b,60,1,2024-02-28T17:14:53.569Z,english_856.wav,0,pill,1436,55,4,5,français,m,11,1.09391667,-57.51825613,1.57872491
5f90c32f69122f1cebd1cc0b,61,1,2024-02-28T17:14:53.569Z,english_31.wav,0,pill,1038,55,4,5,français,m,0,0.0,27.66535658,1.77982522
5f90c32f69122f1cebd1cc0b,61,1,2024-02-28T17:14:53.569Z,english_31.wav,0,pill,1038,55,4,5,français,m,1,0.1,13.56694794,1.07162792
5f90c32f69122f1cebd1cc0b,61,1,2024-02-28T17:14:53.569Z,english_31.wav,0,pill,1038,55,4,5,français,m,2,0.2,18.47033094,0.18234571
5f90c32f69122f1cebd1cc0b,61,1,2024-02-28T17:14:53.569Z,english_31.wav,0,pill,1038,55,4,5,français,m,3,0.3,59.04276692,1.10955417
5f90c32f69122f1cebd1cc0b,61,1,2024-02-28T17:14:53.569Z,english_31.wav,0,pill,1038,55,4,5,français,m,4,0.4,-91.09157625,1.72425302
5f90c32f69122f1cebd1cc0b,61,1,2024-02-28T17:14:53.569Z,english_31.wav,0,pill,1038,55,4,5,français,m,5,0.5,-18.02658585,0.5579513
5f90c32f69122f1cebd1cc0b,61,1,2024-02-28T17:14:53.569Z,english_31.wav,0,pill,1038,55,4,5,français,m,6,0.6,-35.60184109,1.93053319
5f90c32f69122f1cebd1cc0b,61,1,2024-02-28T17:14:53.569Z,english_31.wav,0,pill,1038,55,4,5,français,m,7,0.7,54.26515106,1.77971636
5f90c32f69122f1cebd1cc0b,61,1,2024-02-28T17:14:53.569Z,english_31.wav,0,pill,1038,55,4,5,français,m,8,0.8,-22.38727861,0.37301738
5f90c32f69122f1cebd1cc0b,61,1,2024-02-28T17:14:53.569Z,english_31.wav,0,pill,1038,55,4,5,français,m,9,0.9,43.77933905,1.40160657
5f90c32f69122f1cebd1cc0b,61,1,2024-02-28T17:14:53.569Z,english_31.wav,0,pill,1038,55,4,5,français,m,10,1.0,18.37090143,0.31959468
5f90c32f69122f1cebd1cc0b,61,1,2024-02-28T17:14:53.569Z,english_31.wav,0,pill,1038,55,4,5,français,m,11,1.09391667,6.84824494,1.79655945
5f90c32f69122f1cebd1cc0b,62,1,2024-02-28T17:14:53.569Z,english_27.wav,0,pill,10467,55,4,5,français,m,0,0.0,79.54091256,1.25862136
5f90c32f69122f1cebd1cc0b,62,1,2024-02-28T17:14:53.569Z,english_27.wav,0,pill,10467,55,4,5,français,m,1,0.1,8.12106861,0.9398724
5f90c32f69122f1cebd1cc0b,62,1,2024-02-28T17:14:53.569Z,english_27.wav,0,pill,10467,55,4,5,français,m,2,0.2,-86.96528304,1.23485766
5f90c32f69122f1cebd1cc0b,62,1,2024-02-28T17:14:53.569Z,english_27.wav,0,pill,10467,55,4,5,français,m,3,0.3,34.39896744,0.94041456
5f90c32f69122f1cebd1cc0b,62,1,2024-02-28T17:14:53.569Z,english_27.wav,0,pill,10467,55,4,5,français,m,4,0.4,73.46875222,1.68451502
5f90c32f69122f1cebd1cc0b,62,1,2024-02-28T17:14:53.569Z,english_27.wav,0,pill,10467,55,4,5,français,m,5,0.5,-83.8449803,0.54115759
5f90c32f69122f1cebd1cc0b,62,1,2024-02-28T17:14:53.569Z,english_27.wav,0,pill,10467,55,4,5,français,m,6,0.6,58.21808767,0.09765006
5f90c32f69122f1cebd1cc0b,62,1,2024-02-28T17:14:53.569Z,english_27.wav,0,pill,10467,55,4,5,français,m,7,0.7,-1.02085817,0.91208016
5f90c32f69122f1cebd1cc0b,62,1,2024-02-28T17:14:53.569Z,english_27.wav,0,pill,10467,55,4,5,français,m,8,0.8,-33.33574161,1.53320318
5f90c32f69122f1cebd1cc0b,62,1,2024-02-28T17:14:53.569Z,english_27.wav,0,pill,10467,55,4,5,français,m,9,0.9,24.41997053,1.39457069
5f90c32f69122f1cebd1cc0b,62,1,2024-02-28T17:14:53.569Z,english_27.wav,0,pill,10467,55,4,5,français,m,10,1.0,-54.97722052,0.85736332
5f90c32f69122f1cebd1cc0b,62,1,2024-02-28T17:14:53.569Z,english_27.wav,0,pill,10467,55,4,5,français,m,11,1.09391667,-40.91525951,0.73478674
5f90c32f69122f1cebd1cc0b,63,1,2024-02-28T17:14:53.569Z,english_455.wav,0,pill,2496,55,4,5,français,m,0,0.0,26.42834913,1.62221941
5f90c32f69122f1cebd1cc0b,63,1,2024-02-28T17:14:53.569Z,english_455.wav,0,pill,2496,55,4,5,français,m,1,0.1,-7.65720218,1.46036611
5f90c32f69122f1cebd1cc0b,63,1,2024-02-28T17:14:53.569Z,english_455.wav,0,pill,2496,55,4,5,français,m,2,0.2,-36.03524122,1.24406571
5f90c32f69122f1cebd1cc0b,63,1,2024-02-28T17:14:53.569Z,english_455.wav,0,pill,2496,55,4,5,français,m,3,0.3,-9.36591816,1.98304613
5f90c32f69122f1cebd1cc0b,63,1,2024-02-28T17:14:53.569Z,english_455.wav,0,pill,2496,55,4,5,français,m,4,0.4,74.01503077,0.42616314
5f90c32f69122f1cebd1cc0b,63,1,2024-02-28T17:14:53.569Z,english_455.wav,0,pill,2496,55,4,5,français,m,5,0.5,-66.92719297,0.24476163
5f90c32f69122f1cebd1cc0b,63,1,2024-02-28T17:14:53.569Z,english_455.wav,0,pill,2496,55,4,5,français,m,6,0.6,-30.7057444,1.77552442
5f90c32f69122f1cebd1cc0b,63,1,2024-02-28T17:14:53.569Z,english_455.wav,0,pill,2496,55,4,5,français,m,7,0.7,40.84752834,1.05242247
5f90c32f69122f1cebd1cc0b,63,1,2024-02-28T17:14:53.569Z,english_455.wav,0,pill,2496,55,4,5,français,m,8,0.8,15.65936383,0.70330742
5f90c32f69122f1cebd1cc0b,63,1,2024-02-28T17:14:53.569Z,english_455.wav,0,pill,2496,55,4,5,français,m,9,0.9,-13.21472975,0.60059781
5f90c32f69122f1cebd1cc0b,63,1,2024-02-28T17:14:53.569Z,english_455.wav,0,pill,2496,55,4,5,français,m,10,1.0,44.82999828,0.40485906
5f90c32f69122f1cebd1cc0b,63,1,2024-02-28T17:14:53.569Z,english_455.wav,0,pill,2496,55,4,5,français,m,11,1.09391667,-79.02570563,1.70610938
