subj,trial,block,date,stim,stim_order,response,rt,age,english,french,language,sex,param_index,segment,pitch,stretch
5e15aae07bf572b8f97a847d,0,0,2024-02-28T14:18:03.879Z,english_50.wav,0,peel,2268,29,5,5,français,m,0,0.0,-32.36494138,1.37054129
5e15aae07bf572b8f97a847d,0,0,2024-02-28T14:18:03.879Z,english_50.wav,0,peel,2268,29,5,5,français,m,1,0.1,76.6244439,1.57215181
5e15aae07bf572b8f97a847d,0,0,2024-02-28T14:18:03.879Z,english_50.wav,0,peel,2268,29,5,5,français,m,2,0.2,-16.62217643,1.07317842
5e15aae07bf572b8f97a847d,0,0,2024-02-28T14:18:03.879Z,english_50.wav,0,peel,2268,29,5,5,français,m,3,0.3,63.40850527,0.82623857
5e15aae07bf572b8f97a847d,0,0,2024-02-28T14:18:03.879Z,english_50.wav,0,peel,2268,29,5,5,français,m,4,0.4,68.81783594,0.72038729
5e15aae07bf572b8f97a847d,0,0,2024-02-28T14:18:03.879Z,english_50.wav,0,peel,2268,29,5,5,français,m,5,0.5,-35.17384088,1.90936147
5e15aae07bf572b8f97a847d,0,0,2024-02-28T14:18:03.879Z,english_50.wav,0,peel,2268,29,5,5,français,m,6,0.6,42.93688325,0.3744962
5e15aae07bf572b8f97a847d,0,0,2024-02-28T14:18:03.879Z,english_50.wav,0,peel,2268,29,5,5,français,m,7,0.7,-82.21044816,0.69245834
5e15aae07bf572b8f97a847d,0,0,2024-02-28T14:18:03.879Z,english_50.wav,0,peel,2268,29,5,5,français,m,8,0.8,-42.73245843,0.60585647
5e15aae07bf572b8f97a847d,0,0,2024-02-28T14:18:03.879Z,english_50.wav,0,peel,2268,29,5,5,français,m,9,0.9,-3.13393134,1.24840552
5e15aae07bf572b8f97a847d,0,0,2024-02-28T14:18:03.879Z,english_50.wav,0,peel,2268,29,5,5,français,m,10,1.0,-86.41078269,0.02488175
5e15aae07bf572b8f97a847d,0,0,2024-02-28T14:18:03.879Z,english_50.wav,0,peel,2268,29,5,5,français,m,11,1.09391667,14.80187439,1.59728167
5e15aae07bf572b8f97a847d,1,0,2024-02-28T14:18:03.879Z,english_45.wav,0,peel,1205,29,5,5,français,m,0,0.0,-55.14721801,0.29299266
5e15aae07bf572b8f97a847d,1,0,2024-02-28T14:18:03.879Z,english_45.wav,0,peel,1205,29,5,5,français,m,1,0.1,57.09452307,0.9247964
5e15aae07bf572b8f97a847d,1,0,2024-02-28T14:18:03.879Z,english_45.wav,0,peel,1205,29,5,5,français,m,2,0.2,-1.62499195,1.0494158
5e15aae07bf572b8f97a847d,1,0,2024-02-28T14:18:03.879Z,english_45.wav,0,peel,1205,29,5,5,français,m,3,0.3,-13.00347301,1.81345336
5e15aae07bf572b8f97a847d,1,0,2024-02-28T14:18:03.879Z,english_45.wav,0,peel,1205,29,5,5,français,m,4,0.4,13.64765964,1.7292362
5e15aae07bf572b8f97a847d,1,0,2024-02-28T14:18:03.879Z,english_45.wav,0,peel,1205,29,5,5,français,m,5,0.5,-16.23645369,0.3059786
5e15aae07bf572b8f97a847d,1,0,2024-02-28T14:18:03.879Z,english_45.wav,0,peel,1205,29,5,5,français,m,6,0.6,12.80202188,1.60566624
5e15aae07bf572b8f97a847d,1,0,2024-02-28T14:18:03.879Z,english_45.wav,0,peel,1205,29,5,5,français,m,7,0.7,18.490615,1.60640041
5e15aae07bf572b8f97a847d,1,0,2024-02-28T14:18:03.879Z,english_45.wav,0,peel,1205,29,5,5,français,m,8,0.8,-32.73911513,0.6923723
5e15aae07bf572b8f97a847d,1,0,2024-02-28T14:18:03.879Z,english_45.wav,0,peel,1205,29,5,5,français,m,9,0.9,72.91810524,1.31031073
5e15aae07bf572b8f97a847d,1,0,2024-02-28T14:18:03.879Z,english_45.wav,0,peel,1205,29,5,5,français,m,10,1.0,-39.54069726,0.9624361
5e15aae07bf572b8f97a847d,1,0,2024-02-28T14:18:03.879Z,english_45.wav,0,peel,1205,29,5,5,français,m,11,1.09391667,1.32954538,1.523717
5e15aae07bf572b8f97a847d,2,0,2024-02-28T14:18:03.879Z,english_85.wav,0,peel,925,29,5,5,français,m,0,0.0,-6.14964992,0.56025081
5e15aae07bf572b8f97a847d,2,0,2024-02-28T14:18:03.879Z,english_85.wav,0,peel,925,29,5,5,français,m,1,0.1,32.16339234,0.61514747
5e15aae07bf572b8f97a847d,2,0,2024-02-28T14:18:03.879Z,english_85.wav,0,peel,925,29,5,5,français,m,2,0.2,-24.97067864,1.35990705
5e15aae07bf572b8f97a847d,2,0,2024-02-28T14:18:03.879Z,english_85.wav,0,peel,925,29,5,5,français,m,3,0.3,89.32269375,1.86054319
5e15aae07bf572b8f97a847d,2,0,2024-02-28T14:18:03.879Z,english_85.wav,0,peel,925,29,5,5,français,m,4,0.4,50.53908361,0.59713816
5e15aae07bf572b8f97a847d,2,0,2024-02-28T14:18:03.879Z,english_85.wav,0,peel,925,29,5,5,français,m,5,0.5,40.43548113,0.3523201
5e15aae07bf572b8f97a847d,2,0,2024-02-28T14:18:03.879Z,english_85.wav,0,peel,925,29,5,5,français,m,6,0.6,-51.5766196,0.98047294
5e15aae07bf572b8f97a847d,2,0,2024-02-28T14:18:03.879Z,english_85.wav,0,peel,925,29,5,5,français,m,7,0.7,98.63406519,0.71363617
5e15aae07bf572b8f97a847d,2,0,2024-02-28T14:18:03.879Z,english_85.wav,0,peel,925,29,5,5,français,m,8,0.8,15.90562432,1.19020527
5e15aae07bf572b8f97a847d,2,0,2024-02-28T14:18:03.879Z,english_85.wav,0,peel,925,29,5,5,français,m,9,0.9,-42.65370164,0.91645954
5e15aae07bf572b8f97a847d,2,0,2024-02-28T14:18:03.879Z,english_85.wav,0,peel,925,29,5,5,français,m,10,1.0,89.3078196,1.15839844
5e15aae07bf572b8f97a847d,2,0,2024-02-28T14:18:03.879Z,english_85.wav,0,peel,925,29,5,5,français,m,11,1.09391667,-29.48451548,0.12488766
5e15aae07bf572b8f97a847d,3,0,2024-02-28T14:18:03.879Z,english_866.wav,0,pill,1979,29,5,5,français,m,0,0.0,32.13948388,0.64921597
5e15aae07bf572b8f97a847d,3,0,2024-02-28T14:18:03.879Z,english_866.wav,0,pill,1979,29,5,5,français,m,1,0.1,38.60075831,1.48742897
5e15aae07bf572b8f97a847d,3,0,2024-02-28T14:18:03.879Z,english_866.wav,0,pill,1979,29,5,5,français,m,2,0.2,-79.61982729,0.28495491
5e15aae07bf572b8f97a847d,3,0,2024-02-28T14:18:03.879Z,english_866.wav,0,pill,1979,29,5,5,français,m,3,0.3,-60.72840424,0.9139307
5e15aae07bf572b8f97a847d,3,0,2024-02-28T14:18:03.879Z,english_866.wav,0,pill,1979,29,5,5,français,m,4,0.4,-37.10812529,1.2771469
5e15aae07bf572b8f97a847d,3,0,2024-02-28T14:18:03.879Z,english_866.wav,0,pill,1979,29,5,5,français,m,5,0.5,20.23366157,0.5381413
5e15aae07bf572b8f97a847d,3,0,2024-02-28T14:18:03.879Z,english_866.wav,0,pill,1979,29,5,5,français,m,6,0.6,-58.420194,0.14669297
5e15aae07bf572b8f97a847d,3,0,2024-02-28T14:18:03.879Z,english_866.wav,0,pill,1979,29,5,5,français,m,7,0.7,10.40447232,0.11342134
5e15aae07bf572b8f97a847d,3,0,2024-02-28T14:18:03.879Z,english_866.wav,0,pill,1979,29,5,5,français,m,8,0.8,-52.83849426,1.53208977
5e15aae07bf572b8f97a847d,3,0,2024-02-28T14:18:03.879Z,english_866.wav,0,pill,1979,29,5,5,français,m,9,0.9,32.83340069,0.84107623
5e15aae07bf572b8f97a847d,3,0,2024-02-28T14:18:03.879Z,english_866.wav,0,pill,1979,29,5,5,français,m,10,1.0,9.31901299,1.05202157
5e15aae07bf572b8f97a847d,3,0,2024-02-28T14:18:03.879Z,english_866.wav,0,pill,1979,29,5,5,français,m,11,1.09391667,-17.41907809,1.86418674
5e15aae07bf572b8f97a847d,4,0,2024-02-28T14:18:03.879Z,english_276.wav,0,pill,888,29,5,5,français,m,0,0.0,21.98586045,0.30932428
5e15aae07bf572b8f97a847d,4,0,2024-02-28T14:18:03.879Z,english_276.wav,0,pill,888,29,5,5,français,m,1,0.1,-67.99860163,0.09597304
5e15aae07bf572b8f97a847d,4,0,2024-02-28T14:18:03.879Z,english_276.wav,0,pill,888,29,5,5,français,m,2,0.2,25.17256123,1.83076822
5e15aae07bf572b8f97a847d,4,0,2024-02-28T14:18:03.879Z,english_276.wav,0,pill,888,29,5,5,français,m,3,0.3,21.36527348,0.0831707
5e15aae07bf572b8f97a847d,4,0,2024-02-28T14:18:03.879Z,english_276.wav,0,pill,888,29,5,5,français,m,4,0.4,35.76600766,1.62200671
5e15aae07bf572b8f97a847d,4,0,2024-02-28T14:18:03.879Z,english_276.wav,0,pill,888,29,5,5,français,m,5,0.5,-7.15376156,1.09615837
5e15aae07bf572b8f97a847d,4,0,2024-02-28T14:18:03.879Z,english_276.wav,0,pill,888,29,5,5,français,m,6,0.6,6.29513946,1.21666569
5e15aae07bf572b8f97a847d,4,0,2024-02-28T14:18:03.879Z,english_276.wav,0,pill,888,29,5,5,français,m,7,0.7,-54.12906392,0.44734549
5e15aae07bf572b8f97a847d,4,0,2024-02-28T14:18:03.879Z,english_276.wav,0,pill,888,29,5,5,français,m,8,0.8,17.42972017,0.42974841
5e15aae07bf572b8f97a847d,4,0,2024-02-28T14:18:03.879Z,english_276.wav,0,pill,888,29,5,5,français,m,9,0.9,4.25119531,0.69082029
5e15aae07bf572b8f97a847d,4,0,2024-02-28T14:18:03.879Z,english_276.wav,0,pill,888,29,5,5,français,m,10,1.0,-8.01806671,1.55074446
5e15aae07bf572b8f97a847d,4,0,2024-02-28T14:18:03.879Z,english_276.wav,0,pill,888,29,5,5,français,m,11,1.09391667,17.7867456,1.15912049
5e15aae07bf572b8f97a847d,5,0,2024-02-28T14:18:03.879Z,english_681.wav,0,peel,1082,29,5,5,français,m,0,0.0,-92.26077834,1.18766689
5e15aae07bf572b8f97a847d,5,0,2024-02-28T14:18:03.879Z,english_681.wav,0,peel,1082,29,5,5,français,m,1,0.1,11.95344045,1.17925246
5e15aae07bf572b8f97a847d,5,0,2024-02-28T14:18:03.879Z,english_681.wav,0,peel,1082,29,5,5,français,m,2,0.2,35.63077321,1.18714511
5e15aae07bf572b8f97a847d,5,0,2024-02-28T14:18:03.879Z,english_681.wav,0,peel,1082,29,5,5,français,m,3,0.3,10.32953838,0.81117053
5e15aae07bf572b8f97a847d,5,0,2024-02-28T14:18:03.879Z,english_681.wav,0,peel,1082,29,5,5,français,m,4,0.4,-65.38984885,0.881102
5e15aae07bf572b8f97a847d,5,0,2024-02-28T14:18:03.879Z,english_681.wav,0,peel,1082,29,5,5,français,m,5,0.5,97.33649353,0.91983652
5e15aae07bf572b8f97a847d,5,0,2024-02-28T14:18:03.879Z,english_681.wav,0,peel,1082,29,5,5,français,m,6,0.6,-8.45532029,1.26950169
5e15aae07bf572b8f97a847d,5,0,2024-02-28T14:18:03.879Z,english_681.wav,0,peel,1082,29,5,5,français,m,7,0.7,-65.12679711,1.73435483
5e15aae07bf572b8f97a847d,5,0,2024-02-28T14:18:03.879Z,english_681.wav,0,peel,1082,29,5,5,français,m,8,0.8,-45.40923943,0.23522848
5e15aae07bf572b8f97a847d,5,0,2024-02-28T14:18:03.879Z,english_681.wav,0,peel,1082,29,5,5,français,m,9,0.9,15.66943247,1.44084722
5e15aae07bf572b8f97a847d,5,0,2024-02-28T14:18:03.879Z,english_681.wav,0,peel,1082,29,5,5,français,m,10,1.0,-78.97347716,0.55279263
5e15aae07bf572b8f97a847d,5,0,2024-02-28T14:18:03.879Z,english_681.wav,0,peel,1082,29,5,5,français,m,11,1.09391667,28.12793686,1.79690954
5e15aae07bf572b8f97a847d,6,0,2024-02-28T14:18:03.879Z,english_538.wav,0,pill,879,29,5,5,français,m,0,0.0,10.61627961,1.15184391
5e15aae07bf572b8f97a847d,6,0,2024-02-28T14:18:03.879Z,english_538.wav,0,pill,879,29,5,5,français,m,1,0.1,-8.0929012,1.50748819
5e15aae07bf572b8f97a847d,6,0,2024-02-28T14:18:03.879Z,english_538.wav,0,pill,879,29,5,5,français,m,2,0.2,4.29598946,0.49576218
5e15aae07bf572b8f97a847d,6,0,2024-02-28T14:18:03.879Z,english_538.wav,0,pill,879,29,5,5,français,m,3,0.3,-22.12858968,1.003898
5e15aae07bf572b8f97a847d,6,0,2024-02-28T14:18:03.879Z,english_538.wav,0,pill,879,29,5,5,français,m,4,0.4,-56.21885188,1.76624867
5e15aae07bf572b8f97a847d,6,0,2024-02-28T14:18:03.879Z,english_538.wav,0,pill,879,29,5,5,français,m,5,0.5,21.93376584,1.27574792
5e15aae07bf572b8f97a847d,6,0,2024-02-28T14:18:03.879Z,english_538.wav,0,pill,879,29,5,5,français,m,6,0.6,-68.32489038,0.1993111
5e15aae07bf572b8f97a847d,6,0,2024-02-28T14:18:03.879Z,english_538.wav,0,pill,879,29,5,5,français,m,7,0.7,-66.29674784,0.49400206
5e15aae07bf572b8f97a847d,6,0,2024-02-28T14:18:03.879Z,english_538.wav,0,pill,879,29,5,5,français,m,8,0.8,-74.72581258,0.32135859
5e15aae07bf572b8f97a847d,6,0,2024-02-28T14:18:03.879Z,english_538.wav,0,pill,879,29,5,5,français,m,9,0.9,14.86779264,1.63136948
5e15aae07bf572b8f97a847d,6,0,2024-02-28T14:18:03.879Z,english_538.wav,0,pill,879,29,5,5,français,m,10,1.0,61.56126855,1.32900666
5e15aae07bf572b8f97a847d,6,0,2024-02-28T14:18:03.879Z,english_538.wav,0,pill,879,29,5,5,français,m,11,1.09391667,-58.45933513,1.2934419
5e15aae07bf572b8f97a847d,7,0,2024-02-28T14:18:03.879Z,english_157.wav,0,peel,348,29,5,5,français,m,0,0.0,-13.52894965,0.65332196
5e15aae07bf572b8f97a847d,7,0,2024-02-28T14:18:03.879Z,english_157.wav,0,peel,348,29,5,5,français,m,1,0.1,-34.99957873,1.87717108
5e15aae07bf572b8f97a847d,7,0,2024-02-28T14:18:03.879Z,english_157.wav,0,peel,348,29,5,5,français,m,2,0.2,-21.40265814,1.13451342
5e15aae07bf572b8f97a847d,7,0,2024-02-28T14:18:03.879Z,english_157.wav,0,peel,348,29,5,5,français,m,3,0.3,-42.34898027,1.30632551
5e15aae07bf572b8f97a847d,7,0,2024-02-28T14:18:03.879Z,english_157.wav,0,peel,348,29,5,5,français,m,4,0.4,-7.21242164,1.3432327
5e15aae07bf572b8f97a847d,7,0,2024-02-28T14:18:03.879Z,english_157.wav,0,peel,348,29,5,5,français,m,5,0.5,17.61734953,1.54006945
5e15aae07bf572b8f97a847d,7,0,2024-02-28T14:18:03.879Z,english_157.wav,0,peel,348,29,5,5,français,m,6,0.6,-1.66241966,1.50501088
5e15aae07bf572b8f97a847d,7,0,2024-02-28T14:18:03.879Z,english_157.wav,0,peel,348,29,5,5,français,m,7,0.7,-36.07690291,1.48209283
5e15aae07bf572b8f97a847d,7,0,2024-02-28T14:18:03.879Z,english_157.wav,0,peel,348,29,5,5,français,m,8,0.8,-3.81325634,1.76315724
5e15aae07bf572b8f97a847d,7,0,2024-02-28T14:18:03.879Z,english_157.wav,0,peel,348,29,5,5,français,m,9,0.9,-34.91223396,1.8569822
5e15aae07bf572b8f97a847d,7,0,2024-02-28T14:18:03.879Z,english_157.wav,0,peel,348,29,5,5,français,m,10,1.0,-67.0356687,1.47066105
5e15aae07bf572b8f97a847d,7,0,2024-02-28T14:18:03.879Z,english_157.wav,0,peel,348,29,5,5,français,m,11,1.09391667,69.36414719,1.7499067
5e15aae07bf572b8f97a847d,8,0,2024-02-28T14:18:03.879Z,english_686.wav,0,peel,553,29,5,5,français,m,0,0.0,-67.05425971,1.70124543
5e15aae07bf572b8f97a847d,8,0,2024-02-28T14:18:03.879Z,english_686.wav,0,peel,553,29,5,5,français,m,1,0.1,-39.97086024,0.46826984
5e15aae07bf572b8f97a847d,8,0,2024-02-28T14:18:03.879Z,english_686.wav,0,peel,553,29,5,5,français,m,2,0.2,-95.68334926,0.38007699
5e15aae07bf572b8f97a847d,8,0,2024-02-28T14:18:03.879Z,english_686.wav,0,peel,553,29,5,5,français,m,3,0.3,95.25173903,1.75748907
5e15aae07bf572b8f97a847d,8,0,2024-02-28T14:18:03.879Z,english_686.wav,0,peel,553,29,5,5,français,m,4,0.4,-32.8311948,0.73728226
5e15aae07bf572b8f97a847d,8,0,2024-02-28T14:18:03.879Z,english_686.wav,0,peel,553,29,5,5,français,m,5,0.5,-48.95766653,0.66391126
5e15aae07bf572b8f97a847d,8,0,2024-02-28T14:18:03.879Z,english_686.wav,0,peel,553,29,5,5,français,m,6,0.6,1.46673541,0.49234924
5e15aae07bf572b8f97a847d,8,0,2024-02-28T14:18:03.879Z,english_686.wav,0,peel,553,29,5,5,français,m,7,0.7,2.82521342,1.58569933
5e15aae07bf572b8f97a847d,8,0,2024-02-28T14:18:03.879Z,english_686.wav,0,peel,553,29,5,5,français,m,8,0.8,-50.40490355,0.73602174
5e15aae07bf572b8f97a847d,8,0,2024-02-28T14:18:03.879Z,english_686.wav,0,peel,553,29,5,5,français,m,9,0.9,-13.31081272,0.69160948
5e15aae07bf572b8f97a847d,8,0,2024-02-28T14:18:03.879Z,english_686.wav,0,peel,553,29,5,5,français,m,10,1.0,86.45331077,1.60918627
5e15aae07bf572b8f97a847d,8,0,2024-02-28T14:18:03.879Z,english_686.wav,0,peel,553,29,5,5,français,m,11,1.09391667,27.45785802,0.82158227
5e15aae07bf572b8f97a847d,9,0,2024-02-28T14:18:03.879Z,english_300.wav,0,peel,840,29,5,5,français,m,0,0.0,2.79972232,1.53749115
5e15aae07bf572b8f97a847d,9,0,2024-02-28T14:18:03.879Z,english_300.wav,0,peel,840,29,5,5,français,m,1,0.1,-6.00092765,1.12105385
5e15aae07bf572b8f97a847d,9,0,2024-02-28T14:18:03.879Z,english_300.wav,0,peel,840,29,5,5,français,m,2,0.2,5.93513414,1.21050577
5e15aae07bf572b8f97a847d,9,0,2024-02-28T14:18:03.879Z,english_300.wav,0,peel,840,29,5,5,français,m,3,0.3,65.0106623,1.39038364
5e15aae07bf572b8f97a847d,9,0,2024-02-28T14:18:03.879Z,english_300.wav,0,peel,840,29,5,5,français,m,4,0.4,-35.27715369,0.59533856
5e15aae07bf572b8f97a847d,9,0,2024-02-28T14:18:03.879Z,english_300.wav,0,peel,840,29,5,5,français,m,5,0.5,-49.20910009,0.92189242
5e15aae07bf572b8f97a847d,9,0,2024-02-28T14:18:03.879Z,english_300.wav,0,peel,840,29,5,5,français,m,6,0.6,90.62348649,1.12293969
5e15aae07bf572b8f97a847d,9,0,2024-02-28T14:18:03.879Z,english_300.wav,0,peel,840,29,5,5,français,m,7,0.7,-62.79963136,0.08212217
5e15aae07bf572b8f97a847d,9,0,2024-02-28T14:18:03.879Z,english_300.wav,0,peel,840,29,5,5,français,m,8,0.8,41.66095929,0.24893909
5e15aae07bf572b8f97a847d,9,0,2024-02-28T14:18:03.879Z,english_300.wav,0,peel,840,29,5,5,français,m,9,0.9,-9.40303164,0.97640661
5e15aae07bf572b8f97a847d,9,0,2024-02-28T14:18:03.879Z,english_300.wav,0,peel,840,29,5,5,français,m,10,1.0,-11.98915311,1.76885677
5e15aae07bf572b8f97a847d,9,0,2024-02-28T14:18:03.879Z,english_300.wav,0,peel,840,29,5,5,français,m,11,1.09391667,86.33383712,1.97400425
5e15aae07bf572b8f97a847d,10,0,2024-02-28T14:18:03.879Z,english_893.wav,0,pill,1629,29,5,5,français,m,0,0.0,-88.27288408,0.46079997
5e15aae07bf572b8f97a847d,10,0,2024-02-28T14:18:03.879Z,english_893.wav,0,pill,1629,29,5,5,français,m,1,0.1,65.02931774,1.28353758
5e15aae07bf572b8f97a847d,10,0,2024-02-28T14:18:03.879Z,english_893.wav,0,pill,1629,29,5,5,français,m,2,0.2,52.75255946,1.5240413
5e15aae07bf572b8f97a847d,10,0,2024-02-28T14:18:03.879Z,english_893.wav,0,pill,1629,29,5,5,français,m,3,0.3,83.63729727,1.67217786
5e15aae07bf572b8f97a847d,10,0,2024-02-28T14:18:03.879Z,english_893.wav,0,pill,1629,29,5,5,français,m,4,0.4,-40.64554186,1.32541151
5e15aae07bf572b8f97a847d,10,0,2024-02-28T14:18:03.879Z,english_893.wav,0,pill,1629,29,5,5,français,m,5,0.5,-63.5561657,0.97852107
5e15aae07bf572b8f97a847d,10,0,2024-02-28T14:18:03.879Z,english_893.wav,0,pill,1629,29,5,5,français,m,6,0.6,86.64180858,0.03458433
5e15aae07bf572b8f97a847d,10,0,2024-02-28T14:18:03.879Z,english_893.wav,0,pill,1629,29,5,5,français,m,7,0.7,66.95085035,1.20988187
5e15aae07bf572b8f97a847d,10,0,2024-02-28T14:18:03.879Z,english_893.wav,0,pill,1629,29,5,5,français,m,8,0.8,-95.78590216,1.76333765
5e15aae07bf572b8f97a847d,10,0,2024-02-28T14:18:03.879Z,english_893.wav,0,pill,1629,29,5,5,français,m,9,0.9,-69.05067698,0.45158105
5e15aae07bf572b8f97a847d,10,0,2024-02-28T14:18:03.879Z,english_893.wav,0,pill,1629,29,5,5,français,m,10,1.0,-26.34394451,1.28641333
5e15aae07bf572b8f97a847d,10,0,2024-02-28T14:18:03.879Z,english_893.wav,0,pill,1629,29,5,5,français,m,11,1.09391667,46.22858611,0.88140728
5e15aae07bf572b8f97a847d,11,0,2024-02-28T14:18:03.879Z,english_811.wav,0,pill,1424,29,5,5,français,m,0,0.0,-74.87697924,0.45507787
5e15aae07bf572b8f97a847d,11,0,2024-02-28T14:18:03.879Z,english_811.wav,0,pill,1424,29,5,5,français,m,1,0.1,96.86117413,1.76793824
5e15aae07bf572b8f97a847d,11,0,2024-02-28T14:18:03.879Z,english_811.wav,0,pill,1424,29,5,5,français,m,2,0.2,10.72305858,0.84862028
5e15aae07bf572b8f97a847d,11,0,2024-02-28T14:18:03.879Z,english_811.wav,0,pill,1424,29,5,5,français,m,3,0.3,48.56085209,0.62727309
5e15aae07bf572b8f97a847d,11,0,2024-02-28T14:18:03.879Z,english_811.wav,0,pill,1424,29,5,5,français,m,4,0.4,-99.82729779,1.03490246
5e15aae07bf572b8f97a847d,11,0,2024-02-28T14:18:03.879Z,english_811.wav,0,pill,1424,29,5,5,français,m,5,0.5,79.99074979,1.90507478
5e15aae07bf572b8f97a847d,11,0,2024-02-28T14:18:03.879Z,english_811.wav,0,pill,1424,29,5,5,français,m,6,0.6,-9.67190631,0.06135305
5e15aae07bf572b8f97a847d,11,0,2024-02-28T14:18:03.879Z,english_811.wav,0,pill,1424,29,5,5,français,m,7,0.7,-89.53034614,0.24955368
5e15aae07bf572b8f97a847d,11,0,2024-02-28T14:18:03.879Z,english_811.wav,0,pill,1424,29,5,5,français,m,8,0.8,84.53947336,0.72917007
5e15aae07bf572b8f97a847d,11,0,2024-02-28T14:18:03.879Z,english_811.wav,0,pill,1424,29,5,5,français,m,9,0.9,-76.82386536,1.5042388
5e15aae07bf572b8f97a847d,11,0,2024-02-28T14:18:03.879Z,english_811.wav,0,pill,1424,29,5,5,français,m,10,1.0,-19.04963958,1.60193394
5e15aae07bf572b8f97a847d,11,0,2024-02-28T14:18:03.879Z,english_811.wav,0,pill,1424,29,5,5,français,m,11,1.09391667,78.79317252,0.72084905
5e15aae07bf572b8f97a847d,12,0,2024-02-28T14:18:03.879Z,english_419.wav,0,pill,1226,29,5,5,français,m,0,0.0,-43.56677124,1.2135263
5e15aae07bf572b8f97a847d,12,0,2024-02-28T14:18:03.879Z,english_419.wav,0,pill,1226,29,5,5,français,m,1,0.1,-83.21546868,0.41335372
5e15aae07bf572b8f97a847d,12,0,2024-02-28T14:18:03.879Z,english_419.wav,0,pill,1226,29,5,5,français,m,2,0.2,-41.54064667,1.17083651
5e15aae07bf572b8f97a847d,12,0,2024-02-28T14:18:03.879Z,english_419.wav,0,pill,1226,29,5,5,français,m,3,0.3,-35.81330599,0.87264028
5e15aae07bf572b8f97a847d,12,0,2024-02-28T14:18:03.879Z,english_419.wav,0,pill,1226,29,5,5,français,m,4,0.4,-43.55129097,0.34128763
5e15aae07bf572b8f97a847d,12,0,2024-02-28T14:18:03.879Z,english_419.wav,0,pill,1226,29,5,5,français,m,5,0.5,-33.79077662,1.24788402
5e15aae07bf572b8f97a847d,12,0,2024-02-28T14:18:03.879Z,english_419.wav,0,pill,1226,29,5,5,français,m,6,0.6,70.44881048,0.43489623
5e15aae07bf572b8f97a847d,12,0,2024-02-28T14:18:03.879Z,english_419.wav,0,pill,1226,29,5,5,français,m,7,0.7,3.24826562,0.29781148
5e15aae07bf572b8f97a847d,12,0,2024-02-28T14:18:03.879Z,english_419.wav,0,pill,1226,29,5,5,français,m,8,0.8,34.80296655,1.73156921
5e15aae07bf572b8f97a847d,12,0,2024-02-28T14:18:03.879Z,english_419.wav,0,pill,1226,29,5,5,français,m,9,0.9,-7.36062238,1.52997649
5e15aae07bf572b8f97a847d,12,0,2024-02-28T14:18:03.879Z,english_419.wav,0,pill,1226,29,5,5,français,m,10,1.0,41.00092789,0.32887005
5e15aae07bf572b8f97a847d,12,0,2024-02-28T14:18:03.879Z,english_419.wav,0,pill,1226,29,5,5,français,m,11,1.09391667,-17.62948534,0.83665111
5e15aae07bf572b8f97a847d,13,0,2024-02-28T14:18:03.879Z,english_808.wav,0,peel,986,29,5,5,français,m,0,0.0,-54.51930087,0.8777304
5e15aae07bf572b8f97a847d,13,0,2024-02-28T14:18:03.879Z,english_808.wav,0,peel,986,29,5,5,français,m,1,0.1,-81.0495762,1.15782472
5e15aae07bf572b8f97a847d,13,0,2024-02-28T14:18:03.879Z,english_808.wav,0,peel,986,29,5,5,français,m,2,0.2,4.70470679,1.67617188
5e15aae07bf572b8f97a847d,13,0,2024-02-28T14:18:03.879Z,english_808.wav,0,peel,986,29,5,5,français,m,3,0.3,56.77475896,0.46785173
5e15aae07bf572b8f97a847d,13,0,2024-02-28T14:18:03.879Z,english_808.wav,0,peel,986,29,5,5,français,m,4,0.4,-45.19313698,1.34598798
5e15aae07bf572b8f97a847d,13,0,2024-02-28T14:18:03.879Z,english_808.wav,0,peel,986,29,5,5,français,m,5,0.5,-12.85220206,1.21107636
5e15aae07bf572b8f97a847d,13,0,2024-02-28T14:18:03.879Z,english_808.wav,0,peel,986,29,5,5,français,m,6,0.6,-3.64494866,0.33957231
5e15aae07bf572b8f97a847d,13,0,2024-02-28T14:18:03.879Z,english_808.wav,0,peel,986,29,5,5,français,m,7,0.7,-54.59560116,1.78675234
5e15aae07bf572b8f97a847d,13,0,2024-02-28T14:18:03.879Z,english_808.wav,0,peel,986,29,5,5,français,m,8,0.8,62.80587621,0.41874976
5e15aae07bf572b8f97a847d,13,0,2024-02-28T14:18:03.879Z,english_808.wav,0,peel,986,29,5,5,français,m,9,0.9,41.76195467,0.58154764
5e15aae07bf572b8f97a847d,13,0,2024-02-28T14:18:03.879Z,english_808.wav,0,peel,986,29,5,5,français,m,10,1.0,59.57414533,1.87307122
5e15aae07bf572b8f97a847d,13,0,2024-02-28T14:18:03.879Z,english_808.wav,0,peel,986,29,5,5,français,m,11,1.09391667,-81.82049826,0.91565949
5e15aae07bf572b8f97a847d,14,0,2024-02-28T14:18:03.879Z,english_227.wav,0,peel,1117,29,5,5,français,m,0,0.0,87.02540196,1.45120071
5e15aae07bf572b8f97a847d,14,0,2024-02-28T14:18:03.879Z,english_227.wav,0,peel,1117,29,5,5,français,m,1,0.1,-87.16855408,1.99718195
5e15aae07bf572b8f97a847d,14,0,2024-02-28T14:18:03.879Z,english_227.wav,0,peel,1117,29,5,5,français,m,2,0.2,13.6128173,0.6126104
5e15aae07bf572b8f97a847d,14,0,2024-02-28T14:18:03.879Z,english_227.wav,0,peel,1117,29,5,5,français,m,3,0.3,25.59592298,0.97530447
5e15aae07bf572b8f97a847d,14,0,2024-02-28T14:18:03.879Z,english_227.wav,0,peel,1117,29,5,5,français,m,4,0.4,3.06661623,1.74861281
5e15aae07bf572b8f97a847d,14,0,2024-02-28T14:18:03.879Z,english_227.wav,0,peel,1117,29,5,5,français,m,5,0.5,-6.41872275,1.95931784
5e15aae07bf572b8f97a847d,14,0,2024-02-28T14:18:03.879Z,english_227.wav,0,peel,1117,29,5,5,français,m,6,0.6,-40.97922684,1.44262054
5e15aae07bf572b8f97a847d,14,0,2024-02-28T14:18:03.879Z,english_227.wav,0,peel,1117,29,5,5,français,m,7,0.7,-51.74632522,0.76385193
5e15aae07bf572b8f97a847d,14,0,2024-02-28T14:18:03.879Z,english_227.wav,0,peel,1117,29,5,5,français,m,8,0.8,-35.50720635,0.83123806
5e15aae07bf572b8f97a847d,14,0,2024-02-28T14:18:03.879Z,english_227.wav,0,peel,1117,29,5,5,français,m,9,0.9,-52.46041148,1.0121191
5e15aae07bf572b8f97a847d,14,0,2024-02-28T14:18:03.879Z,english_227.wav,0,peel,1117,29,5,5,français,m,10,1.0,-5.55255579,1.39124165
5e15aae07bf572b8f97a847d,14,0,2024-02-28T14:18:03.879Z,english_227.wav,0,peel,1117,29,5,5,français,m,11,1.09391667,92.65490635,1.37791309
5e15aae07bf572b8f97a847d,15,0,2024-02-28T14:18:03.879Z,english_638.wav,0,pill,1663,29,5,5,français,m,0,0.0,27.0849984,1.3280689
5e15aae07bf572b8f97a847d,15,0,2024-02-28T14:18:03.879Z,english_638.wav,0,pill,1663,29,5,5,français,m,1,0.1,-76.77372335,0.56896387
5e15aae07bf572b8f97a847d,15,0,2024-02-28T14:18:03.879Z,english_638.wav,0,pill,1663,29,5,5,français,m,2,0.2,-5.6974772,0.56746927
5e15aae07bf572b8f97a847d,15,0,2024-02-28T14:18:03.879Z,english_638.wav,0,pill,1663,29,5,5,français,m,3,0.3,-27.04640621,0.40067671
5e15aae07bf572b8f97a847d,15,0,2024-02-28T14:18:03.879Z,english_638.wav,0,pill,1663,29,5,5,français,m,4,0.4,10.67934685,1.88228275
5e15aae07bf572b8f97a847d,15,0,2024-02-28T14:18:03.879Z,english_638.wav,0,pill,1663,29,5,5,français,m,5,0.5,-13.18628206,0.52168705
5e15aae07bf572b8f97a847d,15,0,2024-02-28T14:18:03.879Z,english_638.wav,0,pill,1663,29,5,5,français,m,6,0.6,11.34372698,0.80905376
5e15aae07bf572b8f97a847d,15,0,2024-02-28T14:18:03.879Z,english_638.wav,0,pill,1663,29,5,5,français,m,7,0.7,-64.2430687,1.41810717
5e15aae07bf572b8f97a847d,15,0,2024-02-28T14:18:03.879Z,english_638.wav,0,pill,1663,29,5,5,français,m,8,0.8,46.35115049,1.8285697
5e15aae07bf572b8f97a847d,15,0,2024-02-28T14:18:03.879Z,english_638.wav,0,pill,1663,29,5,5,français,m,9,0.9,44.69499683,0.3100636
5e15aae07bf572b8f97a847d,15,0,2024-02-28T14:18:03.879Z,english_638.wav,0,pill,1663,29,5,5,français,m,10,1.0,-11.73136011,1.74790386
5e15aae07bf572b8f97a847d,15,0,2024-02-28T14:18:03.879Z,english_638.wav,0,pill,1663,29,5,5,français,m,11,1.09391667,-77.04953993,1.8348397
5e15aae07bf572b8f97a847d,16,0,2024-02-28T14:18:03.879Z,english_44.wav,0,pill,1366,29,5,5,français,m,0,0.0,4.31802361,1.29887764
5e15aae07bf572b8f97a847d,16,0,2024-02-28T14:18:03.879Z,english_44.wav,0,pill,1366,29,5,5,français,m,1,0.1,47.0728406,1.11913745
5e15aae07bf572b8f97a847d,16,0,2024-02-28T14:18:03.879Z,english_44.wav,0,pill,1366,29,5,5,français,m,2,0.2,-14.77115386,1.22583552
5e15aae07bf572b8f97a847d,16,0,2024-02-28T14:18:03.879Z,english_44.wav,0,pill,1366,29,5,5,français,m,3,0.3,48.30959917,1.94992967
5e15aae07bf572b8f97a847d,16,0,2024-02-28T14:18:03.879Z,english_44.wav,0,pill,1366,29,5,5,français,m,4,0.4,-48.39525922,1.60078026
5e15aae07bf572b8f97a847d,16,0,2024-02-28T14:18:03.879Z,english_44.wav,0,pill,1366,29,5,5,français,m,5,0.5,-15.20190814,1.61096713
5e15aae07bf572b8f97a847d,16,0,2024-02-28T14:18:03.879Z,english_44.wav,0,pill,1366,29,5,5,français,m,6,0.6,-7.79536513,0.91293866
5e15aae07bf572b8f97a847d,16,0,2024-02-28T14:18:03.879Z,english_44.wav,0,pill,1366,29,5,5,français,m,7,0.7,-57.36737228,1.91414895
5e15aae07bf572b8f97a847d,16,0,2024-02-28T14:18:03.879Z,english_44.wav,0,pill,1366,29,5,5,français,m,8,0.8,-4.58128381,0.38490234
5e15aae07bf572b8f97a847d,16,0,2024-02-28T14:18:03.879Z,english_44.wav,0,pill,1366,29,5,5,français,m,9,0.9,-46.69208344,1.07535839
5e15aae07bf572b8f97a847d,16,0,2024-02-28T14:18:03.879Z,english_44.wav,0,pill,1366,29,5,5,français,m,10,1.0,-83.85792586,1.14300315
5e15aae07bf572b8f97a847d,16,0,2024-02-28T14:18:03.879Z,english_44.wav,0,pill,1366,29,5,5,français,m,11,1.09391667,-0.53505125,0.87829704
5e15aae07bf572b8f97a847d,17,0,2024-02-28T14:18:03.879Z,english_432.wav,0,peel,493,29,5,5,français,m,0,0.0,28.49955807,0.25208372
5e15aae07bf572b8f97a847d,17,0,2024-02-28T14:18:03.879Z,english_432.wav,0,peel,493,29,5,5,français,m,1,0.1,-31.8275444,0.73448825
5e15aae07bf572b8f97a847d,17,0,2024-02-28T14:18:03.879Z,english_432.wav,0,peel,493,29,5,5,français,m,2,0.2,24.24217544,0.75780001
5e15aae07bf572b8f97a847d,17,0,2024-02-28T14:18:03.879Z,english_432.wav,0,peel,493,29,5,5,français,m,3,0.3,-66.09269444,1.1180686
5e15aae07bf572b8f97a847d,17,0,2024-02-28T14:18:03.879Z,english_432.wav,0,peel,493,29,5,5,français,m,4,0.4,-62.15798019,1.06816696
5e15aae07bf572b8f97a847d,17,0,2024-02-28T14:18:03.879Z,english_432.wav,0,peel,493,29,5,5,français,m,5,0.5,-49.72154406,0.60613643
5e15aae07bf572b8f97a847d,17,0,2024-02-28T14:18:03.879Z,english_432.wav,0,peel,493,29,5,5,français,m,6,0.6,-47.69762913,0.58276722
5e15aae07bf572b8f97a847d,17,0,2024-02-28T14:18:03.879Z,english_432.wav,0,peel,493,29,5,5,français,m,7,0.7,77.36626765,1.4653334
5e15aae07bf572b8f97a847d,17,0,2024-02-28T14:18:03.879Z,english_432.wav,0,peel,493,29,5,5,français,m,8,0.8,5.83013874,1.3937813
5e15aae07bf572b8f97a847d,17,0,2024-02-28T14:18:03.879Z,english_432.wav,0,peel,493,29,5,5,français,m,9,0.9,28.26329168,1.50157436
5e15aae07bf572b8f97a847d,17,0,2024-02-28T14:18:03.879Z,english_432.wav,0,peel,493,29,5,5,français,m,10,1.0,-41.71680011,1.14185861
5e15aae07bf572b8f97a847d,17,0,2024-02-28T14:18:03.879Z,english_432.wav,0,peel,493,29,5,5,français,m,11,1.09391667,67.89473062,1.59474316
5e15aae07bf572b8f97a847d,18,0,2024-02-28T14:18:03.879Z,english_436.wav,0,peel,295,29,5,5,français,m,0,0.0,-5.79676766,0.51982844
5e15aae07bf572b8f97a847d,18,0,2024-02-28T14:18:03.879Z,english_436.wav,0,peel,295,29,5,5,français,m,1,0.1,-7.88979016,1.6050725
5e15aae07bf572b8f97a847d,18,0,2024-02-28T14:18:03.879Z,english_436.wav,0,peel,295,29,5,5,français,m,2,0.2,-30.02673636,1.59647027
5e15aae07bf572b8f97a847d,18,0,2024-02-28T14:18:03.879Z,english_436.wav,0,peel,295,29,5,5,français,m,3,0.3,10.91379363,1.97742112
5e15aae07bf572b8f97a847d,18,0,2024-02-28T14:18:03.879Z,english_436.wav,0,peel,295,29,5,5,français,m,4,0.4,1.79762369,1.85601804
5e15aae07bf572b8f97a847d,18,0,2024-02-28T14:18:03.879Z,english_436.wav,0,peel,295,29,5,5,français,m,5,0.5,73.94991314,1.38993988
5e15aae07bf572b8f97a847d,18,0,2024-02-28T14:18:03.879Z,english_436.wav,0,peel,295,29,5,5,français,m,6,0.6,77.03109361,1.43065154
5e15aae07bf572b8f97a847d,18,0,2024-02-28T14:18:03.879Z,english_436.wav,0,peel,295,29,5,5,français,m,7,0.7,-48.27841607,0.14937688
5e15aae07bf572b8f97a847d,18,0,2024-02-28T14:18:03.879Z,english_436.wav,0,peel,295,29,5,5,français,m,8,0.8,57.26579501,1.65528817
5e15aae07bf572b8f97a847d,18,0,2024-02-28T14:18:03.879Z,english_436.wav,0,peel,295,29,5,5,français,m,9,0.9,-80.56784579,1.0202375
5e15aae07bf572b8f97a847d,18,0,2024-02-28T14:18:03.879Z,english_436.wav,0,peel,295,29,5,5,français,m,10,1.0,64.74546515,1.82414723
5e15aae07bf572b8f97a847d,18,0,2024-02-28T14:18:03.879Z,english_436.wav,0,peel,295,29,5,5,français,m,11,1.09391667,5.24901362,1.00971458
5e15aae07bf572b8f97a847d,19,0,2024-02-28T14:18:03.879Z,english_718.wav,0,pill,657,29,5,5,français,m,0,0.0,61.00269276,1.9915537
5e15aae07bf572b8f97a847d,19,0,2024-02-28T14:18:03.879Z,english_718.wav,0,pill,657,29,5,5,français,m,1,0.1,-4.74934843,0.89410112
5e15aae07bf572b8f97a847d,19,0,2024-02-28T14:18:03.879Z,english_718.wav,0,pill,657,29,5,5,français,m,2,0.2,9.01462899,1.56072611
5e15aae07bf572b8f97a847d,19,0,2024-02-28T14:18:03.879Z,english_718.wav,0,pill,657,29,5,5,français,m,3,0.3,79.23930225,0.98422559
5e15aae07bf572b8f97a847d,19,0,2024-02-28T14:18:03.879Z,english_718.wav,0,pill,657,29,5,5,français,m,4,0.4,-22.0403667,1.91227381
5e15aae07bf572b8f97a847d,19,0,2024-02-28T14:18:03.879Z,english_718.wav,0,pill,657,29,5,5,français,m,5,0.5,-60.9220938,1.04807259
5e15aae07bf572b8f97a847d,19,0,2024-02-28T14:18:03.879Z,english_718.wav,0,pill,657,29,5,5,français,m,6,0.6,36.91126826,0.76136187
5e15aae07bf572b8f97a847d,19,0,2024-02-28T14:18:03.879Z,english_718.wav,0,pill,657,29,5,5,français,m,7,0.7,23.15113788,1.40698191
5e15aae07bf572b8f97a847d,19,0,2024-02-28T14:18:03.879Z,english_718.wav,0,pill,657,29,5,5,français,m,8,0.8,-72.29830581,0.19509634
5e15aae07bf572b8f97a847d,19,0,2024-02-28T14:18:03.879Z,english_718.wav,0,pill,657,29,5,5,français,m,9,0.9,-56.27843268,0.95755477
5e15aae07bf572b8f97a847d,19,0,2024-02-28T14:18:03.879Z,english_718.wav,0,pill,657,29,5,5,français,m,10,1.0,-20.76477327,0.32836836
5e15aae07bf572b8f97a847d,19,0,2024-02-28T14:18:03.879Z,english_718.wav,0,pill,657,29,5,5,français,m,11,1.09391667,-26.98598325,1.63350278
5e15aae07bf572b8f97a847d,20,0,2024-02-28T14:18:03.879Z,english_949.wav,0,pill,1234,29,5,5,français,m,0,0.0,54.61462209,1.24439385
5e15aae07bf572b8f97a847d,20,0,2024-02-28T14:18:03.879Z,english_949.wav,0,pill,1234,29,5,5,français,m,1,0.1,-50.15567249,1.34534032
5e15aae07bf572b8f97a847d,20,0,2024-02-28T14:18:03.879Z,english_949.wav,0,pill,1234,29,5,5,français,m,2,0.2,-79.16450403,1.77870323
5e15aae07bf572b8f97a847d,20,0,2024-02-28T14:18:03.879Z,english_949.wav,0,pill,1234,29,5,5,français,m,3,0.3,-44.83948747,0.1999312
5e15aae07bf572b8f97a847d,20,0,2024-02-28T14:18:03.879Z,english_949.wav,0,pill,1234,29,5,5,français,m,4,0.4,-72.5668355,0.37427324
5e15aae07bf572b8f97a847d,20,0,2024-02-28T14:18:03.879Z,english_949.wav,0,pill,1234,29,5,5,français,m,5,0.5,23.11693261,0.13497677
5e15aae07bf572b8f97a847d,20,0,2024-02-28T14:18:03.879Z,english_949.wav,0,pill,1234,29,5,5,français,m,6,0.6,55.55317843,0.61790997
5e15aae07bf572b8f97a847d,20,0,2024-02-28T14:18:03.879Z,english_949.wav,0,pill,1234,29,5,5,français,m,7,0.7,59.5386341,0.95689705
5e15aae07bf572b8f97a847d,20,0,2024-02-28T14:18:03.879Z,english_949.wav,0,pill,1234,29,5,5,français,m,8,0.8,67.81612368,0.69621675
5e15aae07bf572b8f97a847d,20,0,2024-02-28T14:18:03.879Z,english_949.wav,0,pill,1234,29,5,5,français,m,9,0.9,-21.79138996,1.43619216
5e15aae07bf572b8f97a847d,20,0,2024-02-28T14:18:03.879Z,english_949.wav,0,pill,1234,29,5,5,français,m,10,1.0,-21.61100123,0.99379929
5e15aae07bf572b8f97a847d,20,0,2024-02-28T14:18:03.879Z,english_949.wav,0,pill,1234,29,5,5,français,m,11,1.09391667,60.1714172,0.04897066
5e15aae07bf572b8f97a847d,21,0,2024-02-28T14:18:03.879Z,english_293.wav,0,peel,479,29,5,5,français,m,0,0.0,-41.6717185,1.35571263
5e15aae07bf572b8f97a847d,21,0,2024-02-28T14:18:03.879Z,english_293.wav,0,peel,479,29,5,5,français,m,1,0.1,80.2291893,0.51147984
5e15aae07bf572b8f97a847d,21,0,2024-02-28T14:18:03.879Z,english_293.wav,0,peel,479,29,5,5,français,m,2,0.2,-71.0140068,0.41951934
5e15aae07bf572b8f97a847d,21,0,2024-02-28T14:18:03.879Z,english_293.wav,0,peel,479,29,5,5,français,m,3,0.3,-90.64066123,0.6442562
5e15aae07bf572b8f97a847d,21,0,2024-02-28T14:18:03.879Z,english_293.wav,0,peel,479,29,5,5,français,m,4,0.4,-6.53332233,0.98522539
5e15aae07bf572b8f97a847d,21,0,2024-02-28T14:18:03.879Z,english_293.wav,0,peel,479,29,5,5,français,m,5,0.5,-9.32979117,0.92132945
5e15aae07bf572b8f97a847d,21,0,2024-02-28T14:18:03.879Z,english_293.wav,0,peel,479,29,5,5,français,m,6,0.6,53.89735235,1.4753131
5e15aae07bf572b8f97a847d,21,0,2024-02-28T14:18:03.879Z,english_293.wav,0,peel,479,29,5,5,français,m,7,0.7,-63.4364313,0.11499708
5e15aae07bf572b8f97a847d,21,0,2024-02-28T14:18:03.879Z,english_293.wav,0,peel,479,29,5,5,français,m,8,0.8,-96.19547901,1.03841664
5e15aae07bf572b8f97a847d,21,0,2024-02-28T14:18:03.879Z,english_293.wav,0,peel,479,29,5,5,français,m,9,0.9,-36.41686224,1.94583411
5e15aae07bf572b8f97a847d,21,0,2024-02-28T14:18:03.879Z,english_293.wav,0,peel,479,29,5,5,français,m,10,1.0,99.46412477,0.65545153
5e15aae07bf572b8f97a847d,21,0,2024-02-28T14:18:03.879Z,english_293.wav,0,peel,479,29,5,5,français,m,11,1.09391667,17.36040502,1.59979165
5e15aae07bf572b8f97a847d,22,0,2024-02-28T14:18:03.879Z,english_524.wav,0,peel,945,29,5,5,français,m,0,0.0,-30.25985822,0.34793973
5e15aae07bf572b8f97a847d,22,0,2024-02-28T14:18:03.879Z,english_524.wav,0,peel,945,29,5,5,français,m,1,0.1,-25.72639464,1.18810863
5e15aae07bf572b8f97a847d,22,0,2024-02-28T14:18:03.879Z,english_524.wav,0,peel,945,29,5,5,français,m,2,0.2,-19.31311579,0.08692409
5e15aae07bf572b8f97a847d,22,0,2024-02-28T14:18:03.879Z,english_524.wav,0,peel,945,29,5,5,français,m,3,0.3,75.52996736,0.42169144
5e15aae07bf572b8f97a847d,22,0,2024-02-28T14:18:03.879Z,english_524.wav,0,peel,945,29,5,5,français,m,4,0.4,95.21234869,0.91790301
5e15aae07bf572b8f97a847d,22,0,2024-02-28T14:18:03.879Z,english_524.wav,0,peel,945,29,5,5,français,m,5,0.5,-71.1057772,1.60079155
5e15aae07bf572b8f97a847d,22,0,2024-02-28T14:18:03.879Z,english_524.wav,0,peel,945,29,5,5,français,m,6,0.6,-19.64273872,0.41126457
5e15aae07bf572b8f97a847d,22,0,2024-02-28T14:18:03.879Z,english_524.wav,0,peel,945,29,5,5,français,m,7,0.7,-1.31214815,0.20209882
5e15aae07bf572b8f97a847d,22,0,2024-02-28T14:18:03.879Z,english_524.wav,0,peel,945,29,5,5,français,m,8,0.8,64.64076703,1.03575809
5e15aae07bf572b8f97a847d,22,0,2024-02-28T14:18:03.879Z,english_524.wav,0,peel,945,29,5,5,français,m,9,0.9,-18.69724377,0.43486471
5e15aae07bf572b8f97a847d,22,0,2024-02-28T14:18:03.879Z,english_524.wav,0,peel,945,29,5,5,français,m,10,1.0,-40.5043492,0.51132712
5e15aae07bf572b8f97a847d,22,0,2024-02-28T14:18:03.879Z,english_524.wav,0,peel,945,29,5,5,français,m,11,1.09391667,-72.71091187,0.92380924
5e15aae07bf572b8f97a847d,23,0,2024-02-28T14:18:03.879Z,english_221.wav,0,peel,646,29,5,5,français,m,0,0.0,51.59419639,1.60301685
5e15aae07bf572b8f97a847d,23,0,2024-02-28T14:18:03.879Z,english_221.wav,0,peel,646,29,5,5,français,m,1,0.1,28.26132642,0.83573739
5e15aae07bf572b8f97a847d,23,0,2024-02-28T14:18:03.879Z,english_221.wav,0,peel,646,29,5,5,français,m,2,0.2,-34.94147144,0.93704217
5e15aae07bf572b8f97a847d,23,0,2024-02-28T14:18:03.879Z,english_221.wav,0,peel,646,29,5,5,français,m,3,0.3,-31.96211967,0.88555826
5e15aae07bf572b8f97a847d,23,0,2024-02-28T14:18:03.879Z,english_221.wav,0,peel,646,29,5,5,français,m,4,0.4,27.55850985,0.5651105
5e15aae07bf572b8f97a847d,23,0,2024-02-28T14:18:03.879Z,english_221.wav,0,peel,646,29,5,5,français,m,5,0.5,97.12748538,1.50042712
5e15aae07bf572b8f97a847d,23,0,2024-02-28T14:18:03.879Z,english_221.wav,0,peel,646,29,5,5,français,m,6,0.6,-87.99836205,1.37940743
5e15aae07bf572b8f97a847d,23,0,2024-02-28T14:18:03.879Z,english_221.wav,0,peel,646,29,5,5,français,m,7,0.7,-54.93495001,1.56054558
5e15aae07bf572b8f97a847d,23,0,2024-02-28T14:18:03.879Z,english_221.wav,0,peel,646,29,5,5,français,m,8,0.8,-48.43567063,0.7980345
5e15aae07bf572b8f97a847d,23,0,2024-02-28T14:18:03.879Z,english_221.wav,0,peel,646,29,5,5,français,m,9,0.9,-35.77267917,1.82401387
5e15aae07bf572b8f97a847d,23,0,2024-02-28T14:18:03.879Z,english_221.wav,0,peel,646,29,5,5,français,m,10,1.0,16.39753123,0.17969474
5e15aae07bf572b8f97a847d,23,0,2024-02-28T14:18:03.879Z,english_221.wav,0,peel,646,29,5,5,français,m,11,1.09391667,10.18788165,1.97856764
5e15aae07bf572b8f97a847d,24,0,2024-02-28T14:18:03.879Z,english_501.wav,0,peel,4489,29,5,5,français,m,0,0.0,-77.74446326,0.58310938
5e15aae07bf572b8f97a847d,24,0,2024-02-28T14:18:03.879Z,english_501.wav,0,peel,4489,29,5,5,français,m,1,0.1,-2.03843579,1.55300385
5e15aae07bf572b8f97a847d,24,0,2024-02-28T14:18:03.879Z,english_501.wav,0,peel,4489,29,5,5,français,m,2,0.2,-96.88873428,1.96337639
5e15aae07bf572b8f97a847d,24,0,2024-02-28T14:18:03.879Z,english_501.wav,0,peel,4489,29,5,5,français,m,3,0.3,-65.26537264,1.90170473
5e15aae07bf572b8f97a847d,24,0,2024-02-28T14:18:03.879Z,english_501.wav,0,peel,4489,29,5,5,français,m,4,0.4,20.10074667,1.92179136
5e15aae07bf572b8f97a847d,24,0,2024-02-28T14:18:03.879Z,english_501.wav,0,peel,4489,29,5,5,français,m,5,0.5,61.35543997,1.23988027
5e15aae07bf572b8f97a847d,24,0,2024-02-28T14:18:03.879Z,english_501.wav,0,peel,4489,29,5,5,français,m,6,0.6,65.65951244,0.8779329
5e15aae07bf572b8f97a847d,24,0,2024-02-28T14:18:03.879Z,english_501.wav,0,peel,4489,29,5,5,français,m,7,0.7,78.35949412,1.06874401
5e15aae07bf572b8f97a847d,24,0,2024-02-28T14:18:03.879Z,english_501.wav,0,peel,4489,29,5,5,français,m,8,0.8,39.47708972,1.24831936
5e15aae07bf572b8f97a847d,24,0,2024-02-28T14:18:03.879Z,english_501.wav,0,peel,4489,29,5,5,français,m,9,0.9,-39.43243223,0.13883645
5e15aae07bf572b8f97a847d,24,0,2024-02-28T14:18:03.879Z,english_501.wav,0,peel,4489,29,5,5,français,m,10,1.0,-6.34452472,0.71986461
5e15aae07bf572b8f97a847d,24,0,2024-02-28T14:18:03.879Z,english_501.wav,0,peel,4489,29,5,5,français,m,11,1.09391667,-41.95684031,1.1315232
5e15aae07bf572b8f97a847d,25,0,2024-02-28T14:18:03.879Z,english_606.wav,0,peel,690,29,5,5,français,m,0,0.0,72.77252021,1.14271188
5e15aae07bf572b8f97a847d,25,0,2024-02-28T14:18:03.879Z,english_606.wav,0,peel,690,29,5,5,français,m,1,0.1,22.60713343,1.41897374
5e15aae07bf572b8f97a847d,25,0,2024-02-28T14:18:03.879Z,english_606.wav,0,peel,690,29,5,5,français,m,2,0.2,30.91882808,1.73372854
5e15aae07bf572b8f97a847d,25,0,2024-02-28T14:18:03.879Z,english_606.wav,0,peel,690,29,5,5,français,m,3,0.3,-48.84223864,1.07065865
5e15aae07bf572b8f97a847d,25,0,2024-02-28T14:18:03.879Z,english_606.wav,0,peel,690,29,5,5,français,m,4,0.4,-29.82386042,0.5542197
5e15aae07bf572b8f97a847d,25,0,2024-02-28T14:18:03.879Z,english_606.wav,0,peel,690,29,5,5,français,m,5,0.5,82.48397831,0.65978179
5e15aae07bf572b8f97a847d,25,0,2024-02-28T14:18:03.879Z,english_606.wav,0,peel,690,29,5,5,français,m,6,0.6,-18.49396427,0.64487358
5e15aae07bf572b8f97a847d,25,0,2024-02-28T14:18:03.879Z,english_606.wav,0,peel,690,29,5,5,français,m,7,0.7,26.88567381,1.50533402
5e15aae07bf572b8f97a847d,25,0,2024-02-28T14:18:03.879Z,english_606.wav,0,peel,690,29,5,5,français,m,8,0.8,-18.34346668,1.51615031
5e15aae07bf572b8f97a847d,25,0,2024-02-28T14:18:03.879Z,english_606.wav,0,peel,690,29,5,5,français,m,9,0.9,10.06544583,0.11673085
5e15aae07bf572b8f97a847d,25,0,2024-02-28T14:18:03.879Z,english_606.wav,0,peel,690,29,5,5,français,m,10,1.0,-89.88083722,0.60775024
5e15aae07bf572b8f97a847d,25,0,2024-02-28T14:18:03.879Z,english_606.wav,0,peel,690,29,5,5,français,m,11,1.09391667,66.64968825,0.13627416
5e15aae07bf572b8f97a847d,26,0,2024-02-28T14:18:03.879Z,english_250.wav,0,peel,1191,29,5,5,français,m,0,0.0,-2.1507045,1.65815165
5e15aae07bf572b8f97a847d,26,0,2024-02-28T14:18:03.879Z,english_250.wav,0,peel,1191,29,5,5,français,m,1,0.1,-59.20535761,0.73684424
5e15aae07bf572b8f97a847d,26,0,2024-02-28T14:18:03.879Z,english_250.wav,0,peel,1191,29,5,5,français,m,2,0.2,33.81892305,0.78053485
5e15aae07bf572b8f97a847d,26,0,2024-02-28T14:18:03.879Z,english_250.wav,0,peel,1191,29,5,5,français,m,3,0.3,43.78107199,1.26996131
5e15aae07bf572b8f97a847d,26,0,2024-02-28T14:18:03.879Z,english_250.wav,0,peel,1191,29,5,5,français,m,4,0.4,-58.56253377,1.90489744
5e15aae07bf572b8f97a847d,26,0,2024-02-28T14:18:03.879Z,english_250.wav,0,peel,1191,29,5,5,français,m,5,0.5,-73.24110126,0.31125788
5e15aae07bf572b8f97a847d,26,0,2024-02-28T14:18:03.879Z,english_250.wav,0,peel,1191,29,5,5,français,m,6,0.6,77.97062328,0.73718841
5e15aae07bf572b8f97a847d,26,0,2024-02-28T14:18:03.879Z,english_250.wav,0,peel,1191,29,5,5,français,m,7,0.7,-37.56549364,0.04729413
5e15aae07bf572b8f97a847d,26,0,2024-02-28T14:18:03.879Z,english_250.wav,0,peel,1191,29,5,5,français,m,8,0.8,57.43189813,1.70152056
5e15aae07bf572b8f97a847d,26,0,2024-02-28T14:18:03.879Z,english_250.wav,0,peel,1191,29,5,5,français,m,9,0.9,46.17345888,0.07204925
5e15aae07bf572b8f97a847d,26,0,2024-02-28T14:18:03.879Z,english_250.wav,0,peel,1191,29,5,5,français,m,10,1.0,59.28871843,1.91615732
5e15aae07bf572b8f97a847d,26,0,2024-02-28T14:18:03.879Z,english_250.wav,0,peel,1191,29,5,5,français,m,11,1.09391667,54.90140723,1.08139277
5e15aae07bf572b8f97a847d,27,0,2024-02-28T14:18:03.879Z,english_101.wav,0,pill,355,29,5,5,français,m,0,0.0,54.85574333,0.56749545
5e15aae07bf572b8f97a847d,27,0,2024-02-28T14:18:03.879Z,english_101.wav,0,pill,355,29,5,5,français,m,1,0.1,0.70808879,1.44378271
5e15aae07bf572b8f97a847d,27,0,2024-02-28T14:18:03.879Z,english_101.wav,0,pill,355,29,5,5,français,m,2,0.2,-80.1183649,0.79216525
5e15aae07bf572b8f97a847d,27,0,2024-02-28T14:18:03.879Z,english_101.wav,0,pill,355,29,5,5,français,m,3,0.3,41.22016504,0.86392682
5e15aae07bf572b8f97a847d,27,0,2024-02-28T14:18:03.879Z,english_101.wav,0,pill,355,29,5,5,français,m,4,0.4,-9.97599034,0.6963626
5e15aae07bf572b8f97a847d,27,0,2024-02-28T14:18:03.879Z,english_101.wav,0,pill,355,29,5,5,français,m,5,0.5,90.56668979,0.60530731
5e15aae07bf572b8f97a847d,27,0,2024-02-28T14:18:03.879Z,english_101.wav,0,pill,355,29,5,5,français,m,6,0.6,-60.35193263,1.66078928
5e15aae07bf572b8f97a847d,27,0,2024-02-28T14:18:03.879Z,english_101.wav,0,pill,355,29,5,5,français,m,7,0.7,61.72690789,1.6801741
5e15aae07bf572b8f97a847d,27,0,2024-02-28T14:18:03.879Z,english_101.wav,0,pill,355,29,5,5,français,m,8,0.8,88.15092983,1.39430446
5e15aae07bf572b8f97a847d,27,0,2024-02-28T14:18:03.879Z,english_101.wav,0,pill,355,29,5,5,français,m,9,0.9,40.7935106,0.81152744
5e15aae07bf572b8f97a847d,27,0,2024-02-28T14:18:03.879Z,english_101.wav,0,pill,355,29,5,5,français,m,10,1.0,84.72598744,0.36950081
5e15aae07bf572b8f97a847d,27,0,2024-02-28T14:18:03.879Z,english_101.wav,0,pill,355,29,5,5,français,m,11,1.09391667,-47.25265497,1.44384249
5e15aae07bf572b8f97a847d,28,0,2024-02-28T14:18:03.879Z,english_642.wav,0,peel,360,29,5,5,français,m,0,0.0,91.32452464,1.47199137
5e15aae07bf572b8f97a847d,28,0,2024-02-28T14:18:03.879Z,english_642.wav,0,peel,360,29,5,5,français,m,1,0.1,25.50334758,0.86889355
5e15aae07bf572b8f97a847d,28,0,2024-02-28T14:18:03.879Z,english_642.wav,0,peel,360,29,5,5,français,m,2,0.2,16.65062249,0.12872518
5e15aae07bf572b8f97a847d,28,0,2024-02-28T14:18:03.879Z,english_642.wav,0,peel,360,29,5,5,français,m,3,0.3,59.49550973,0.72033949
5e15aae07bf572b8f97a847d,28,0,2024-02-28T14:18:03.879Z,english_642.wav,0,peel,360,29,5,5,français,m,4,0.4,71.09902,1.524748
5e15aae07bf572b8f97a847d,28,0,2024-02-28T14:18:03.879Z,english_642.wav,0,peel,360,29,5,5,français,m,5,0.5,32.48084173,1.90798091
5e15aae07bf572b8f97a847d,28,0,2024-02-28T14:18:03.879Z,english_642.wav,0,peel,360,29,5,5,français,m,6,0.6,-3.97213515,1.71709986
5e15aae07bf572b8f97a847d,28,0,2024-02-28T14:18:03.879Z,english_642.wav,0,peel,360,29,5,5,français,m,7,0.7,-1.84724139,1.47754373
5e15aae07bf572b8f97a847d,28,0,2024-02-28T14:18:03.879Z,english_642.wav,0,peel,360,29,5,5,français,m,8,0.8,94.84850521,1.43391033
5e15aae07bf572b8f97a847d,28,0,2024-02-28T14:18:03.879Z,english_642.wav,0,peel,360,29,5,5,français,m,9,0.9,-6.66803952,1.68537408
5e15aae07bf572b8f97a847d,28,0,2024-02-28T14:18:03.879Z,english_642.wav,0,peel,360,29,5,5,français,m,10,1.0,95.32562857,1.1201051
5e15aae07bf572b8f97a847d,28,0,2024-02-28T14:18:03.879Z,english_642.wav,0,peel,360,29,5,5,français,m,11,1.09391667,43.75707904,1.27926817
5e15aae07bf572b8f97a847d,29,0,2024-02-28T14:18:03.879Z,english_887.wav,0,pill,572,29,5,5,français,m,0,0.0,-3.44900861,0.51239927
5e15aae07bf572b8f97a847d,29,0,2024-02-28T14:18:03.879Z,english_887.wav,0,pill,572,29,5,5,français,m,1,0.1,-17.8432189,1.03264561
5e15aae07bf572b8f97a847d,29,0,2024-02-28T14:18:03.879Z,english_887.wav,0,pill,572,29,5,5,français,m,2,0.2,-6.85827808,0.34600943
5e15aae07bf572b8f97a847d,29,0,2024-02-28T14:18:03.879Z,english_887.wav,0,pill,572,29,5,5,français,m,3,0.3,45.65439731,0.47649702
5e15aae07bf572b8f97a847d,29,0,2024-02-28T14:18:03.879Z,english_887.wav,0,pill,572,29,5,5,français,m,4,0.4,-45.51901732,1.73458193
5e15aae07bf572b8f97a847d,29,0,2024-02-28T14:18:03.879Z,english_887.wav,0,pill,572,29,5,5,français,m,5,0.5,-48.46749348,0.81561736
5e15aae07bf572b8f97a847d,29,0,2024-02-28T14:18:03.879Z,english_887.wav,0,pill,572,29,5,5,français,m,6,0.6,61.02871352,1.13461249
5e15aae07bf572b8f97a847d,29,0,2024-02-28T14:18:03.879Z,english_887.wav,0,pill,572,29,5,5,français,m,7,0.7,88.88451803,0.39624217
5e15aae07bf572b8f97a847d,29,0,2024-02-28T14:18:03.879Z,english_887.wav,0,pill,572,29,5,5,français,m,8,0.8,-62.50472578,0.97607282
5e15aae07bf572b8f97a847d,29,0,2024-02-28T14:18:03.879Z,english_887.wav,0,pill,572,29,5,5,français,m,9,0.9,-72.54245457,0.43830143
5e15aae07bf572b8f97a847d,29,0,2024-02-28T14:18:03.879Z,english_887.wav,0,pill,572,29,5,5,français,m,10,1.0,69.58025846,1.14588811
5e15aae07bf572b8f97a847d,29,0,2024-02-28T14:18:03.879Z,english_887.wav,0,pill,572,29,5,5,français,m,11,1.09391667,-27.66978609,0.14331088
5e15aae07bf572b8f97a847d,30,0,2024-02-28T14:18:03.879Z,english_335.wav,0,pill,421,29,5,5,français,m,0,0.0,41.80743468,1.01381682
5e15aae07bf572b8f97a847d,30,0,2024-02-28T14:18:03.879Z,english_335.wav,0,pill,421,29,5,5,français,m,1,0.1,-95.17376615,1.5620604
5e15aae07bf572b8f97a847d,30,0,2024-02-28T14:18:03.879Z,english_335.wav,0,pill,421,29,5,5,français,m,2,0.2,39.98208272,0.19265383
5e15aae07bf572b8f97a847d,30,0,2024-02-28T14:18:03.879Z,english_335.wav,0,pill,421,29,5,5,français,m,3,0.3,-46.35703256,1.42247653
5e15aae07bf572b8f97a847d,30,0,2024-02-28T14:18:03.879Z,english_335.wav,0,pill,421,29,5,5,français,m,4,0.4,24.82145544,0.70328136
5e15aae07bf572b8f97a847d,30,0,2024-02-28T14:18:03.879Z,english_335.wav,0,pill,421,29,5,5,français,m,5,0.5,-31.00133873,1.01966488
5e15aae07bf572b8f97a847d,30,0,2024-02-28T14:18:03.879Z,english_335.wav,0,pill,421,29,5,5,français,m,6,0.6,-26.38344945,1.23451824
5e15aae07bf572b8f97a847d,30,0,2024-02-28T14:18:03.879Z,english_335.wav,0,pill,421,29,5,5,français,m,7,0.7,86.60347,0.55082158
5e15aae07bf572b8f97a847d,30,0,2024-02-28T14:18:03.879Z,english_335.wav,0,pill,421,29,5,5,français,m,8,0.8,-70.37080157,0.451758
5e15aae07bf572b8f97a847d,30,0,2024-02-28T14:18:03.879Z,english_335.wav,0,pill,421,29,5,5,français,m,9,0.9,61.18063824,0.68398752
5e15aae07bf572b8f97a847d,30,0,2024-02-28T14:18:03.879Z,english_335.wav,0,pill,421,29,5,5,français,m,10,1.0,-30.21404124,0.79476381
5e15aae07bf572b8f97a847d,30,0,2024-02-28T14:18:03.879Z,english_335.wav,0,pill,421,29,5,5,français,m,11,1.09391667,-36.90555067,1.69556673
5e15aae07bf572b8f97a847d,31,0,2024-02-28T14:18:03.879Z,english_700.wav,0,pill,961,29,5,5,français,m,0,0.0,68.07429642,0.65814928
5e15aae07bf572b8f97a847d,31,0,2024-02-28T14:18:03.879Z,english_700.wav,0,pill,961,29,5,5,français,m,1,0.1,-37.49377634,0.17735138
5e15aae07bf572b8f97a847d,31,0,2024-02-28T14:18:03.879Z,english_700.wav,0,pill,961,29,5,5,français,m,2,0.2,-23.04099004,0.86512997
5e15aae07bf572b8f97a847d,31,0,2024-02-28T14:18:03.879Z,english_700.wav,0,pill,961,29,5,5,français,m,3,0.3,29.04143541,1.58435568
5e15aae07bf572b8f97a847d,31,0,2024-02-28T14:18:03.879Z,english_700.wav,0,pill,961,29,5,5,français,m,4,0.4,20.45754453,1.51654074
5e15aae07bf572b8f97a847d,31,0,2024-02-28T14:18:03.879Z,english_700.wav,0,pill,961,29,5,5,français,m,5,0.5,37.24109952,1.28756254
5e15aae07bf572b8f97a847d,31,0,2024-02-28T14:18:03.879Z,english_700.wav,0,pill,961,29,5,5,français,m,6,0.6,39.64018777,0.60860264
5e15aae07bf572b8f97a847d,31,0,2024-02-28T14:18:03.879Z,english_700.wav,0,pill,961,29,5,5,français,m,7,0.7,51.86520487,1.44468929
5e15aae07bf572b8f97a847d,31,0,2024-02-28T14:18:03.879Z,english_700.wav,0,pill,961,29,5,5,français,m,8,0.8,48.29334393,1.11255223
5e15aae07bf572b8f97a847d,31,0,2024-02-28T14:18:03.879Z,english_700.wav,0,pill,961,29,5,5,français,m,9,0.9,69.44263224,0.2005319
5e15aae07bf572b8f97a847d,31,0,2024-02-28T14:18:03.879Z,english_700.wav,0,pill,961,29,5,5,français,m,10,1.0,-89.62778161,1.42301772
5e15aae07bf572b8f97a847d,31,0,2024-02-28T14:18:03.879Z,english_700.wav,0,pill,961,29,5,5,français,m,11,1.09391667,-27.88856176,1.42118254
5e15aae07bf572b8f97a847d,32,0,2024-02-28T14:18:03.879Z,english_53.wav,0,peel,533,29,5,5,français,m,0,0.0,-9.98510741,0.74460472
5e15aae07bf572b8f97a847d,32,0,2024-02-28T14:18:03.879Z,english_53.wav,0,peel,533,29,5,5,français,m,1,0.1,90.79697624,1.15408397
5e15aae07bf572b8f97a847d,32,0,2024-02-28T14:18:03.879Z,english_53.wav,0,peel,533,29,5,5,français,m,2,0.2,-13.66139315,1.79328536
5e15aae07bf572b8f97a847d,32,0,2024-02-28T14:18:03.879Z,english_53.wav,0,peel,533,29,5,5,français,m,3,0.3,-58.03832427,1.05093724
5e15aae07bf572b8f97a847d,32,0,2024-02-28T14:18:03.879Z,english_53.wav,0,peel,533,29,5,5,français,m,4,0.4,-14.2879771,0.44247057
5e15aae07bf572b8f97a847d,32,0,2024-02-28T14:18:03.879Z,english_53.wav,0,peel,533,29,5,5,français,m,5,0.5,-9.92334291,0.88826362
5e15aae07bf572b8f97a847d,32,0,2024-02-28T14:18:03.879Z,english_53.wav,0,peel,533,29,5,5,français,m,6,0.6,48.00852586,1.51515328
5e15aae07bf572b8f97a847d,32,0,2024-02-28T14:18:03.879Z,english_53.wav,0,peel,533,29,5,5,français,m,7,0.7,-7.96828411,1.78598668
5e15aae07bf572b8f97a847d,32,0,2024-02-28T14:18:03.879Z,english_53.wav,0,peel,533,29,5,5,français,m,8,0.8,3.91211897,0.80456615
5e15aae07bf572b8f97a847d,32,0,2024-02-28T14:18:03.879Z,english_53.wav,0,peel,533,29,5,5,français,m,9,0.9,9.32007469,0.44108586
5e15aae07bf572b8f97a847d,32,0,2024-02-28T14:18:03.879Z,english_53.wav,0,peel,533,29,5,5,français,m,10,1.0,-65.1483507,1.43639609
5e15aae07bf572b8f97a847d,32,0,2024-02-28T14:18:03.879Z,english_53.wav,0,peel,533,29,5,5,français,m,11,1.09391667,-31.85609608,1.915162
5e15aae07bf572b8f97a847d,33,0,2024-02-28T14:18:03.879Z,english_865.wav,0,peel,642,29,5,5,français,m,0,0.0,86.1163895,0.19420048
5e15aae07bf572b8f97a847d,33,0,2024-02-28T14:18:03.879Z,english_865.wav,0,peel,642,29,5,5,français,m,1,0.1,69.95513589,1.46581666
5e15aae07bf572b8f97a847d,33,0,2024-02-28T14:18:03.879Z,english_865.wav,0,peel,642,29,5,5,français,m,2,0.2,-13.94671811,1.09876795
5e15aae07bf572b8f97a847d,33,0,2024-02-28T14:18:03.879Z,english_865.wav,0,peel,642,29,5,5,français,m,3,0.3,-33.10342907,0.83580859
5e15aae07bf572b8f97a847d,33,0,2024-02-28T14:18:03.879Z,english_865.wav,0,peel,642,29,5,5,français,m,4,0.4,-76.59504937,0.7375784
5e15aae07bf572b8f97a847d,33,0,2024-02-28T14:18:03.879Z,english_865.wav,0,peel,642,29,5,5,français,m,5,0.5,-3.51899048,1.73720254
5e15aae07bf572b8f97a847d,33,0,2024-02-28T14:18:03.879Z,english_865.wav,0,peel,642,29,5,5,français,m,6,0.6,30.42015795,0.47612768
5e15aae07bf572b8f97a847d,33,0,2024-02-28T14:18:03.879Z,english_865.wav,0,peel,642,29,5,5,français,m,7,0.7,-55.73707392,0.34287239
5e15aae07bf572b8f97a847d,33,0,2024-02-28T14:18:03.879Z,english_865.wav,0,peel,642,29,5,5,français,m,8,0.8,54.32986928,1.39046848
5e15aae07bf572b8f97a847d,33,0,2024-02-28T14:18:03.879Z,english_865.wav,0,peel,642,29,5,5,français,m,9,0.9,-94.25719672,0.32361365
5e15aae07bf572b8f97a847d,33,0,2024-02-28T14:18:03.879Z,english_865.wav,0,peel,642,29,5,5,français,m,10,1.0,52.44088275,0.4960331
5e15aae07bf572b8f97a847d,33,0,2024-02-28T14:18:03.879Z,english_865.wav,0,peel,642,29,5,5,français,m,11,1.09391667,-37.34958779,0.90913699
5e15aae07bf572b8f97a847d,34,0,2024-02-28T14:18:03.879Z,english_463.wav,0,peel,549,29,5,5,français,m,0,0.0,10.50801154,1.17811947
5e15aae07bf572b8f97a847d,34,0,2024-02-28T14:18:03.879Z,english_463.wav,0,peel,549,29,5,5,français,m,1,0.1,53.01075337,0.17767022
5e15aae07bf572b8f97a847d,34,0,2024-02-28T14:18:03.879Z,english_463.wav,0,peel,549,29,5,5,français,m,2,0.2,-45.92576003,0.48691175
5e15aae07bf572b8f97a847d,34,0,2024-02-28T14:18:03.879Z,english_463.wav,0,peel,549,29,5,5,français,m,3,0.3,19.52430908,0.61421231
5e15aae07bf572b8f97a847d,34,0,2024-02-28T14:18:03.879Z,english_463.wav,0,peel,549,29,5,5,français,m,4,0.4,-49.30728031,1.08242916
5e15aae07bf572b8f97a847d,34,0,2024-02-28T14:18:03.879Z,english_463.wav,0,peel,549,29,5,5,français,m,5,0.5,14.12996474,0.36464212
5e15aae07bf572b8f97a847d,34,0,2024-02-28T14:18:03.879Z,english_463.wav,0,peel,549,29,5,5,français,m,6,0.6,-38.56124135,1.11640778
5e15aae07bf572b8f97a847d,34,0,2024-02-28T14:18:03.879Z,english_463.wav,0,peel,549,29,5,5,français,m,7,0.7,60.51994471,0.46617429
5e15aae07bf572b8f97a847d,34,0,2024-02-28T14:18:03.879Z,english_463.wav,0,peel,549,29,5,5,français,m,8,0.8,-80.92150268,1.24207175
5e15aae07bf572b8f97a847d,34,0,2024-02-28T14:18:03.879Z,english_463.wav,0,peel,549,29,5,5,français,m,9,0.9,77.91302957,1.740718
5e15aae07bf572b8f97a847d,34,0,2024-02-28T14:18:03.879Z,english_463.wav,0,peel,549,29,5,5,français,m,10,1.0,-17.96219129,0.97634615
5e15aae07bf572b8f97a847d,34,0,2024-02-28T14:18:03.879Z,english_463.wav,0,peel,549,29,5,5,français,m,11,1.09391667,-4.0549477,0.84642764
5e15aae07bf572b8f97a847d,35,0,2024-02-28T14:18:03.879Z,english_609.wav,0,peel,325,29,5,5,français,m,0,0.0,45.1693917,1.16218677
5e15aae07bf572b8f97a847d,35,0,2024-02-28T14:18:03.879Z,english_609.wav,0,peel,325,29,5,5,français,m,1,0.1,-72.3247495,1.56939275
5e15aae07bf572b8f97a847d,35,0,2024-02-28T14:18:03.879Z,english_609.wav,0,peel,325,29,5,5,français,m,2,0.2,18.68361548,1.47980491
5e15aae07bf572b8f97a847d,35,0,2024-02-28T14:18:03.879Z,english_609.wav,0,peel,325,29,5,5,français,m,3,0.3,-27.6682302,1.03639669
5e15aae07bf572b8f97a847d,35,0,2024-02-28T14:18:03.879Z,english_609.wav,0,peel,325,29,5,5,français,m,4,0.4,3.63671522,0.81396394
5e15aae07bf572b8f97a847d,35,0,2024-02-28T14:18:03.879Z,english_609.wav,0,peel,325,29,5,5,français,m,5,0.5,21.21340101,1.33770591
5e15aae07bf572b8f97a847d,35,0,2024-02-28T14:18:03.879Z,english_609.wav,0,peel,325,29,5,5,français,m,6,0.6,15.49381211,1.85408959
5e15aae07bf572b8f97a847d,35,0,2024-02-28T14:18:03.879Z,english_609.wav,0,peel,325,29,5,5,français,m,7,0.7,1.52669615,0.1270649
5e15aae07bf572b8f97a847d,35,0,2024-02-28T14:18:03.879Z,english_609.wav,0,peel,325,29,5,5,français,m,8,0.8,25.44993701,0.72088093
5e15aae07bf572b8f97a847d,35,0,2024-02-28T14:18:03.879Z,english_609.wav,0,peel,325,29,5,5,français,m,9,0.9,-58.9173922,1.10933741
5e15aae07bf572b8f97a847d,35,0,2024-02-28T14:18:03.879Z,english_609.wav,0,peel,325,29,5,5,français,m,10,1.0,4.8985277,0.9989657
5e15aae07bf572b8f97a847d,35,0,2024-02-28T14:18:03.879Z,english_609.wav,0,peel,325,29,5,5,français,m,11,1.09391667,-19.12587244,1.15972192
5e15aae07bf572b8f97a847d,36,0,2024-02-28T14:18:03.879Z,english_107.wav,0,peel,404,29,5,5,français,m,0,0.0,14.75106281,1.14538344
5e15aae07bf572b8f97a847d,36,0,2024-02-28T14:18:03.879Z,english_107.wav,0,peel,404,29,5,5,français,m,1,0.1,61.55616618,1.63691709
5e15aae07bf572b8f97a847d,36,0,2024-02-28T14:18:03.879Z,english_107.wav,0,peel,404,29,5,5,français,m,2,0.2,-53.67988365,1.34954163
5e15aae07bf572b8f97a847d,36,0,2024-02-28T14:18:03.879Z,english_107.wav,0,peel,404,29,5,5,français,m,3,0.3,-26.40552644,0.87865188
5e15aae07bf572b8f97a847d,36,0,2024-02-28T14:18:03.879Z,english_107.wav,0,peel,404,29,5,5,français,m,4,0.4,-39.74978172,0.87105183
5e15aae07bf572b8f97a847d,36,0,2024-02-28T14:18:03.879Z,english_107.wav,0,peel,404,29,5,5,français,m,5,0.5,59.30152115,0.97837698
5e15aae07bf572b8f97a847d,36,0,2024-02-28T14:18:03.879Z,english_107.wav,0,peel,404,29,5,5,français,m,6,0.6,47.78500901,0.24331513
5e15aae07bf572b8f97a847d,36,0,2024-02-28T14:18:03.879Z,english_107.wav,0,peel,404,29,5,5,français,m,7,0.7,-56.28829924,1.31332622
5e15aae07bf572b8f97a847d,36,0,2024-02-28T14:18:03.879Z,english_107.wav,0,peel,404,29,5,5,français,m,8,0.8,-27.92998764,1.65018095
5e15aae07bf572b8f97a847d,36,0,2024-02-28T14:18:03.879Z,english_107.wav,0,peel,404,29,5,5,français,m,9,0.9,-79.09348068,0.9374591
5e15aae07bf572b8f97a847d,36,0,2024-02-28T14:18:03.879Z,english_107.wav,0,peel,404,29,5,5,français,m,10,1.0,-12.41548757,1.20965119
5e15aae07bf572b8f97a847d,36,0,2024-02-28T14:18:03.879Z,english_107.wav,0,peel,404,29,5,5,français,m,11,1.09391667,52.16057728,1.85980397
5e15aae07bf572b8f97a847d,37,0,2024-02-28T14:18:03.879Z,english_216.wav,0,pill,323,29,5,5,français,m,0,0.0,-40.27379603,1.31885312
5e15aae07bf572b8f97a847d,37,0,2024-02-28T14:18:03.879Z,english_216.wav,0,pill,323,29,5,5,français,m,1,0.1,-9.47472605,1.52413536
5e15aae07bf572b8f97a847d,37,0,2024-02-28T14:18:03.879Z,english_216.wav,0,pill,323,29,5,5,français,m,2,0.2,10.83044308,0.3375517
5e15aae07bf572b8f97a847d,37,0,2024-02-28T14:18:03.879Z,english_216.wav,0,pill,323,29,5,5,français,m,3,0.3,-73.80571365,0.67857864
5e15aae07bf572b8f97a847d,37,0,2024-02-28T14:18:03.879Z,english_216.wav,0,pill,323,29,5,5,français,m,4,0.4,41.89217051,0.9344087
5e15aae07bf572b8f97a847d,37,0,2024-02-28T14:18:03.879Z,english_216.wav,0,pill,323,29,5,5,français,m,5,0.5,-33.36366466,0.89775046
5e15aae07bf572b8f97a847d,37,0,2024-02-28T14:18:03.879Z,english_216.wav,0,pill,323,29,5,5,français,m,6,0.6,-97.24072999,0.74652634
5e15aae07bf572b8f97a847d,37,0,2024-02-28T14:18:03.879Z,english_216.wav,0,pill,323,29,5,5,français,m,7,0.7,-3.36916359,0.00621512
5e15aae07bf572b8f97a847d,37,0,2024-02-28T14:18:03.879Z,english_216.wav,0,pill,323,29,5,5,français,m,8,0.8,-1.27566838,0.72729094
5e15aae07bf572b8f97a847d,37,0,2024-02-28T14:18:03.879Z,english_216.wav,0,pill,323,29,5,5,français,m,9,0.9,29.4346129,1.23180128
5e15aae07bf572b8f97a847d,37,0,2024-02-28T14:18:03.879Z,english_216.wav,0,pill,323,29,5,5,français,m,10,1.0,96.31719875,0.44193416
5e15aae07bf572b8f97a847d,37,0,2024-02-28T14:18:03.879Z,english_216.wav,0,pill,323,29,5,5,français,m,11,1.09391667,90.69441865,0.08230135
5e15aae07bf572b8f97a847d,38,0,2024-02-28T14:18:03.879Z,english_802.wav,0,peel,271,29,5,5,français,m,0,0.0,59.91511279,1.85367275
5e15aae07bf572b8f97a847d,38,0,2024-02-28T14:18:03.879Z,english_802.wav,0,peel,271,29,5,5,français,m,1,0.1,12.24886821,1.18024621
5e15aae07bf572b8f97a847d,38,0,2024-02-28T14:18:03.879Z,english_802.wav,0,peel,271,29,5,5,français,m,2,0.2,96.02397802,1.49834519
5e15aae07bf572b8f97a847d,38,0,2024-02-28T14:18:03.879Z,english_802.wav,0,peel,271,29,5,5,français,m,3,0.3,13.76175382,0.18406028
5e15aae07bf572b8f97a847d,38,0,2024-02-28T14:18:03.879Z,english_802.wav,0,peel,271,29,5,5,français,m,4,0.4,61.38770088,0.92630848
5e15aae07bf572b8f97a847d,38,0,2024-02-28T14:18:03.879Z,english_802.wav,0,peel,271,29,5,5,français,m,5,0.5,-27.16563277,0.54382734
5e15aae07bf572b8f97a847d,38,0,2024-02-28T14:18:03.879Z,english_802.wav,0,peel,271,29,5,5,français,m,6,0.6,-56.7121097,1.05559663
5e15aae07bf572b8f97a847d,38,0,2024-02-28T14:18:03.879Z,english_802.wav,0,peel,271,29,5,5,français,m,7,0.7,-6.03893496,0.71322875
5e15aae07bf572b8f97a847d,38,0,2024-02-28T14:18:03.879Z,english_802.wav,0,peel,271,29,5,5,français,m,8,0.8,-52.64183472,0.836902
5e15aae07bf572b8f97a847d,38,0,2024-02-28T14:18:03.879Z,english_802.wav,0,peel,271,29,5,5,français,m,9,0.9,20.48360961,1.2036053
5e15aae07bf572b8f97a847d,38,0,2024-02-28T14:18:03.879Z,english_802.wav,0,peel,271,29,5,5,français,m,10,1.0,63.06136933,1.08845051
5e15aae07bf572b8f97a847d,38,0,2024-02-28T14:18:03.879Z,english_802.wav,0,peel,271,29,5,5,français,m,11,1.09391667,47.93084829,1.71595045
5e15aae07bf572b8f97a847d,39,0,2024-02-28T14:18:03.879Z,english_669.wav,0,peel,206,29,5,5,français,m,0,0.0,63.63841723,1.21965741
5e15aae07bf572b8f97a847d,39,0,2024-02-28T14:18:03.879Z,english_669.wav,0,peel,206,29,5,5,français,m,1,0.1,-16.46655099,1.77063888
5e15aae07bf572b8f97a847d,39,0,2024-02-28T14:18:03.879Z,english_669.wav,0,peel,206,29,5,5,français,m,2,0.2,59.94652085,1.19972221
5e15aae07bf572b8f97a847d,39,0,2024-02-28T14:18:03.879Z,english_669.wav,0,peel,206,29,5,5,français,m,3,0.3,87.91202499,1.09192955
5e15aae07bf572b8f97a847d,39,0,2024-02-28T14:18:03.879Z,english_669.wav,0,peel,206,29,5,5,français,m,4,0.4,-9.72604882,0.69529064
5e15aae07bf572b8f97a847d,39,0,2024-02-28T14:18:03.879Z,english_669.wav,0,peel,206,29,5,5,français,m,5,0.5,72.16172308,1.09710692
5e15aae07bf572b8f97a847d,39,0,2024-02-28T14:18:03.879Z,english_669.wav,0,peel,206,29,5,5,français,m,6,0.6,-64.88013083,1.91297745
5e15aae07bf572b8f97a847d,39,0,2024-02-28T14:18:03.879Z,english_669.wav,0,peel,206,29,5,5,français,m,7,0.7,26.66035036,1.12487674
5e15aae07bf572b8f97a847d,39,0,2024-02-28T14:18:03.879Z,english_669.wav,0,peel,206,29,5,5,français,m,8,0.8,-43.66675722,0.95542007
5e15aae07bf572b8f97a847d,39,0,2024-02-28T14:18:03.879Z,english_669.wav,0,peel,206,29,5,5,français,m,9,0.9,4.29997564,1.3922733
5e15aae07bf572b8f97a847d,39,0,2024-02-28T14:18:03.879Z,english_669.wav,0,peel,206,29,5,5,français,m,10,1.0,-68.31489554,1.61053031
5e15aae07bf572b8f97a847d,39,0,2024-02-28T14:18:03.879Z,english_669.wav,0,peel,206,29,5,5,français,m,11,1.09391667,-65.69487781,0.28856802
5e15aae07bf572b8f97a847d,40,0,2024-02-28T14:18:03.879Z,english_214.wav,0,peel,254,29,5,5,français,m,0,0.0,77.66249847,1.66443393
5e15aae07bf572b8f97a847d,40,0,2024-02-28T14:18:03.879Z,english_214.wav,0,peel,254,29,5,5,français,m,1,0.1,-66.26077856,1.37654428
5e15aae07bf572b8f97a847d,40,0,2024-02-28T14:18:03.879Z,english_214.wav,0,peel,254,29,5,5,français,m,2,0.2,-51.4922282,1.40712663
5e15aae07bf572b8f97a847d,40,0,2024-02-28T14:18:03.879Z,english_214.wav,0,peel,254,29,5,5,français,m,3,0.3,14.18659261,0.14412451
5e15aae07bf572b8f97a847d,40,0,2024-02-28T14:18:03.879Z,english_214.wav,0,peel,254,29,5,5,français,m,4,0.4,-48.84743407,0.91551293
5e15aae07bf572b8f97a847d,40,0,2024-02-28T14:18:03.879Z,english_214.wav,0,peel,254,29,5,5,français,m,5,0.5,19.47798934,0.32690142
5e15aae07bf572b8f97a847d,40,0,2024-02-28T14:18:03.879Z,english_214.wav,0,peel,254,29,5,5,français,m,6,0.6,30.92446632,1.55465622
5e15aae07bf572b8f97a847d,40,0,2024-02-28T14:18:03.879Z,english_214.wav,0,peel,254,29,5,5,français,m,7,0.7,-20.72955743,0.81533764
5e15aae07bf572b8f97a847d,40,0,2024-02-28T14:18:03.879Z,english_214.wav,0,peel,254,29,5,5,français,m,8,0.8,-84.03788896,1.36872512
5e15aae07bf572b8f97a847d,40,0,2024-02-28T14:18:03.879Z,english_214.wav,0,peel,254,29,5,5,français,m,9,0.9,1.19993411,0.61257248
5e15aae07bf572b8f97a847d,40,0,2024-02-28T14:18:03.879Z,english_214.wav,0,peel,254,29,5,5,français,m,10,1.0,-10.67189742,1.2492197
5e15aae07bf572b8f97a847d,40,0,2024-02-28T14:18:03.879Z,english_214.wav,0,peel,254,29,5,5,français,m,11,1.09391667,76.51495677,1.13872638
5e15aae07bf572b8f97a847d,41,0,2024-02-28T14:18:03.879Z,english_613.wav,0,pill,270,29,5,5,français,m,0,0.0,56.02417359,1.45969094
5e15aae07bf572b8f97a847d,41,0,2024-02-28T14:18:03.879Z,english_613.wav,0,pill,270,29,5,5,français,m,1,0.1,-15.12096295,0.70307333
5e15aae07bf572b8f97a847d,41,0,2024-02-28T14:18:03.879Z,english_613.wav,0,pill,270,29,5,5,français,m,2,0.2,24.11599025,1.55595157
5e15aae07bf572b8f97a847d,41,0,2024-02-28T14:18:03.879Z,english_613.wav,0,pill,270,29,5,5,français,m,3,0.3,-98.52161237,0.89820675
5e15aae07bf572b8f97a847d,41,0,2024-02-28T14:18:03.879Z,english_613.wav,0,pill,270,29,5,5,français,m,4,0.4,-83.03822249,1.36107021
5e15aae07bf572b8f97a847d,41,0,2024-02-28T14:18:03.879Z,english_613.wav,0,pill,270,29,5,5,français,m,5,0.5,21.43017138,0.16432707
5e15aae07bf572b8f97a847d,41,0,2024-02-28T14:18:03.879Z,english_613.wav,0,pill,270,29,5,5,français,m,6,0.6,63.83169659,0.04833877
5e15aae07bf572b8f97a847d,41,0,2024-02-28T14:18:03.879Z,english_613.wav,0,pill,270,29,5,5,français,m,7,0.7,20.52778074,0.40598637
5e15aae07bf572b8f97a847d,41,0,2024-02-28T14:18:03.879Z,english_613.wav,0,pill,270,29,5,5,français,m,8,0.8,94.54806404,1.56556559
5e15aae07bf572b8f97a847d,41,0,2024-02-28T14:18:03.879Z,english_613.wav,0,pill,270,29,5,5,français,m,9,0.9,22.39216261,0.73835637
5e15aae07bf572b8f97a847d,41,0,2024-02-28T14:18:03.879Z,english_613.wav,0,pill,270,29,5,5,français,m,10,1.0,-21.9484098,1.13631796
5e15aae07bf572b8f97a847d,41,0,2024-02-28T14:18:03.879Z,english_613.wav,0,pill,270,29,5,5,français,m,11,1.09391667,-64.50590256,0.17382409
5e15aae07bf572b8f97a847d,42,0,2024-02-28T14:18:03.879Z,english_779.wav,0,pill,698,29,5,5,français,m,0,0.0,2.5732513,1.647041
5e15aae07bf572b8f97a847d,42,0,2024-02-28T14:18:03.879Z,english_779.wav,0,pill,698,29,5,5,français,m,1,0.1,65.46905282,1.84593927
5e15aae07bf572b8f97a847d,42,0,2024-02-28T14:18:03.879Z,english_779.wav,0,pill,698,29,5,5,français,m,2,0.2,71.19594141,0.45510565
5e15aae07bf572b8f97a847d,42,0,2024-02-28T14:18:03.879Z,english_779.wav,0,pill,698,29,5,5,français,m,3,0.3,60.39832791,1.01795959
5e15aae07bf572b8f97a847d,42,0,2024-02-28T14:18:03.879Z,english_779.wav,0,pill,698,29,5,5,français,m,4,0.4,-88.69626856,0.08128748
5e15aae07bf572b8f97a847d,42,0,2024-02-28T14:18:03.879Z,english_779.wav,0,pill,698,29,5,5,français,m,5,0.5,88.13724484,1.92668947
5e15aae07bf572b8f97a847d,42,0,2024-02-28T14:18:03.879Z,english_779.wav,0,pill,698,29,5,5,français,m,6,0.6,-21.3716901,0.83024876
5e15aae07bf572b8f97a847d,42,0,2024-02-28T14:18:03.879Z,english_779.wav,0,pill,698,29,5,5,français,m,7,0.7,50.45377943,1.4170414
5e15aae07bf572b8f97a847d,42,0,2024-02-28T14:18:03.879Z,english_779.wav,0,pill,698,29,5,5,français,m,8,0.8,88.14580375,1.13372324
5e15aae07bf572b8f97a847d,42,0,2024-02-28T14:18:03.879Z,english_779.wav,0,pill,698,29,5,5,français,m,9,0.9,-75.16546804,0.91489346
5e15aae07bf572b8f97a847d,42,0,2024-02-28T14:18:03.879Z,english_779.wav,0,pill,698,29,5,5,français,m,10,1.0,-15.63730308,0.03287719
5e15aae07bf572b8f97a847d,42,0,2024-02-28T14:18:03.879Z,english_779.wav,0,pill,698,29,5,5,français,m,11,1.09391667,-11.80666885,1.28058258
5e15aae07bf572b8f97a847d,43,0,2024-02-28T14:18:03.879Z,english_413.wav,0,peel,385,29,5,5,français,m,0,0.0,14.83112151,0.44215223
5e15aae07bf572b8f97a847d,43,0,2024-02-28T14:18:03.879Z,english_413.wav,0,peel,385,29,5,5,français,m,1,0.1,11.76914083,1.16902386
5e15aae07bf572b8f97a847d,43,0,2024-02-28T14:18:03.879Z,english_413.wav,0,peel,385,29,5,5,français,m,2,0.2,56.99835841,1.34778137
5e15aae07bf572b8f97a847d,43,0,2024-02-28T14:18:03.879Z,english_413.wav,0,peel,385,29,5,5,français,m,3,0.3,-91.21705368,1.75286116
5e15aae07bf572b8f97a847d,43,0,2024-02-28T14:18:03.879Z,english_413.wav,0,peel,385,29,5,5,français,m,4,0.4,45.54032704,0.59475232
5e15aae07bf572b8f97a847d,43,0,2024-02-28T14:18:03.879Z,english_413.wav,0,peel,385,29,5,5,français,m,5,0.5,27.79493499,1.56815753
5e15aae07bf572b8f97a847d,43,0,2024-02-28T14:18:03.879Z,english_413.wav,0,peel,385,29,5,5,français,m,6,0.6,-45.92047179,1.45096495
5e15aae07bf572b8f97a847d,43,0,2024-02-28T14:18:03.879Z,english_413.wav,0,peel,385,29,5,5,français,m,7,0.7,30.6901634,1.27145961
5e15aae07bf572b8f97a847d,43,0,2024-02-28T14:18:03.879Z,english_413.wav,0,peel,385,29,5,5,français,m,8,0.8,-6.79166087,1.53710405
5e15aae07bf572b8f97a847d,43,0,2024-02-28T14:18:03.879Z,english_413.wav,0,peel,385,29,5,5,français,m,9,0.9,-73.44231095,1.76487513
5e15aae07bf572b8f97a847d,43,0,2024-02-28T14:18:03.879Z,english_413.wav,0,peel,385,29,5,5,français,m,10,1.0,72.98773842,1.73986125
5e15aae07bf572b8f97a847d,43,0,2024-02-28T14:18:03.879Z,english_413.wav,0,peel,385,29,5,5,français,m,11,1.09391667,-6.1173613,0.92350985
5e15aae07bf572b8f97a847d,44,0,2024-02-28T14:18:03.879Z,english_969.wav,0,peel,431,29,5,5,français,m,0,0.0,29.09924348,1.53055803
5e15aae07bf572b8f97a847d,44,0,2024-02-28T14:18:03.879Z,english_969.wav,0,peel,431,29,5,5,français,m,1,0.1,-95.88090252,0.21771883
5e15aae07bf572b8f97a847d,44,0,2024-02-28T14:18:03.879Z,english_969.wav,0,peel,431,29,5,5,français,m,2,0.2,45.5103226,0.6895083
5e15aae07bf572b8f97a847d,44,0,2024-02-28T14:18:03.879Z,english_969.wav,0,peel,431,29,5,5,français,m,3,0.3,22.6688792,1.38165803
5e15aae07bf572b8f97a847d,44,0,2024-02-28T14:18:03.879Z,english_969.wav,0,peel,431,29,5,5,français,m,4,0.4,28.43861777,1.43845422
5e15aae07bf572b8f97a847d,44,0,2024-02-28T14:18:03.879Z,english_969.wav,0,peel,431,29,5,5,français,m,5,0.5,-64.30828006,1.41047112
5e15aae07bf572b8f97a847d,44,0,2024-02-28T14:18:03.879Z,english_969.wav,0,peel,431,29,5,5,français,m,6,0.6,-54.50431648,1.45510114
5e15aae07bf572b8f97a847d,44,0,2024-02-28T14:18:03.879Z,english_969.wav,0,peel,431,29,5,5,français,m,7,0.7,30.42451317,0.72825636
5e15aae07bf572b8f97a847d,44,0,2024-02-28T14:18:03.879Z,english_969.wav,0,peel,431,29,5,5,français,m,8,0.8,-91.90179979,1.35653581
5e15aae07bf572b8f97a847d,44,0,2024-02-28T14:18:03.879Z,english_969.wav,0,peel,431,29,5,5,français,m,9,0.9,4.36119227,1.06956255
5e15aae07bf572b8f97a847d,44,0,2024-02-28T14:18:03.879Z,english_969.wav,0,peel,431,29,5,5,français,m,10,1.0,-67.80457813,1.00621562
5e15aae07bf572b8f97a847d,44,0,2024-02-28T14:18:03.879Z,english_969.wav,0,peel,431,29,5,5,français,m,11,1.09391667,-80.8303423,1.05370229
5e15aae07bf572b8f97a847d,45,0,2024-02-28T14:18:03.879Z,english_431.wav,0,peel,377,29,5,5,français,m,0,0.0,80.69254561,1.28844059
5e15aae07bf572b8f97a847d,45,0,2024-02-28T14:18:03.879Z,english_431.wav,0,peel,377,29,5,5,français,m,1,0.1,-59.39729579,0.02904499
5e15aae07bf572b8f97a847d,45,0,2024-02-28T14:18:03.879Z,english_431.wav,0,peel,377,29,5,5,français,m,2,0.2,32.8562558,0.95132877
5e15aae07bf572b8f97a847d,45,0,2024-02-28T14:18:03.879Z,english_431.wav,0,peel,377,29,5,5,français,m,3,0.3,-22.29744676,1.51616745
5e15aae07bf572b8f97a847d,45,0,2024-02-28T14:18:03.879Z,english_431.wav,0,peel,377,29,5,5,français,m,4,0.4,31.71546531,1.13295381
5e15aae07bf572b8f97a847d,45,0,2024-02-28T14:18:03.879Z,english_431.wav,0,peel,377,29,5,5,français,m,5,0.5,26.68689131,0.76516543
5e15aae07bf572b8f97a847d,45,0,2024-02-28T14:18:03.879Z,english_431.wav,0,peel,377,29,5,5,français,m,6,0.6,-67.6485219,0.83201004
5e15aae07bf572b8f97a847d,45,0,2024-02-28T14:18:03.879Z,english_431.wav,0,peel,377,29,5,5,français,m,7,0.7,27.20384073,0.376561
5e15aae07bf572b8f97a847d,45,0,2024-02-28T14:18:03.879Z,english_431.wav,0,peel,377,29,5,5,français,m,8,0.8,-89.82269949,1.59621374
5e15aae07bf572b8f97a847d,45,0,2024-02-28T14:18:03.879Z,english_431.wav,0,peel,377,29,5,5,français,m,9,0.9,-57.22282633,0.7949968
5e15aae07bf572b8f97a847d,45,0,2024-02-28T14:18:03.879Z,english_431.wav,0,peel,377,29,5,5,français,m,10,1.0,66.80474658,1.43069985
5e15aae07bf572b8f97a847d,45,0,2024-02-28T14:18:03.879Z,english_431.wav,0,peel,377,29,5,5,français,m,11,1.09391667,-8.50085654,0.47836789
5e15aae07bf572b8f97a847d,46,0,2024-02-28T14:18:03.879Z,english_209.wav,0,pill,527,29,5,5,français,m,0,0.0,-69.97643607,1.01752059
5e15aae07bf572b8f97a847d,46,0,2024-02-28T14:18:03.879Z,english_209.wav,0,pill,527,29,5,5,français,m,1,0.1,-88.52393114,0.50741315
5e15aae07bf572b8f97a847d,46,0,2024-02-28T14:18:03.879Z,english_209.wav,0,pill,527,29,5,5,français,m,2,0.2,-92.64381406,1.61277815
5e15aae07bf572b8f97a847d,46,0,2024-02-28T14:18:03.879Z,english_209.wav,0,pill,527,29,5,5,français,m,3,0.3,-12.19607679,1.4872908
5e15aae07bf572b8f97a847d,46,0,2024-02-28T14:18:03.879Z,english_209.wav,0,pill,527,29,5,5,français,m,4,0.4,51.51628924,0.5793757
5e15aae07bf572b8f97a847d,46,0,2024-02-28T14:18:03.879Z,english_209.wav,0,pill,527,29,5,5,français,m,5,0.5,-0.64468501,0.52779709
5e15aae07bf572b8f97a847d,46,0,2024-02-28T14:18:03.879Z,english_209.wav,0,pill,527,29,5,5,français,m,6,0.6,71.59302863,0.0231703
5e15aae07bf572b8f97a847d,46,0,2024-02-28T14:18:03.879Z,english_209.wav,0,pill,527,29,5,5,français,m,7,0.7,-9.81029184,1.34840208
5e15aae07bf572b8f97a847d,46,0,2024-02-28T14:18:03.879Z,english_209.wav,0,pill,527,29,5,5,français,m,8,0.8,-24.63818078,0.66467052
5e15aae07bf572b8f97a847d,46,0,2024-02-28T14:18:03.879Z,english_209.wav,0,pill,527,29,5,5,français,m,9,0.9,-3.20105403,0.39411628
5e15aae07bf572b8f97a847d,46,0,2024-02-28T14:18:03.879Z,english_209.wav,0,pill,527,29,5,5,français,m,10,1.0,34.64482647,0.07463584
5e15aae07bf572b8f97a847d,46,0,2024-02-28T14:18:03.879Z,english_209.wav,0,pill,527,29,5,5,français,m,11,1.09391667,-96.73374827,1.52336413
5e15aae07bf572b8f97a847d,47,0,2024-02-28T14:18:03.879Z,english_787.wav,0,peel,415,29,5,5,français,m,0,0.0,75.50983857,0.8452738
5e15aae07bf572b8f97a847d,47,0,2024-02-28T14:18:03.879Z,english_787.wav,0,peel,415,29,5,5,français,m,1,0.1,-1.58249906,0.76339694
5e15aae07bf572b8f97a847d,47,0,2024-02-28T14:18:03.879Z,english_787.wav,0,peel,415,29,5,5,français,m,2,0.2,3.57353021,0.25803741
5e15aae07bf572b8f97a847d,47,0,2024-02-28T14:18:03.879Z,english_787.wav,0,peel,415,29,5,5,français,m,3,0.3,-99.77057176,1.65296212
5e15aae07bf572b8f97a847d,47,0,2024-02-28T14:18:03.879Z,english_787.wav,0,peel,415,29,5,5,français,m,4,0.4,-38.99568239,1.74214563
5e15aae07bf572b8f97a847d,47,0,2024-02-28T14:18:03.879Z,english_787.wav,0,peel,415,29,5,5,français,m,5,0.5,15.30754913,0.91821048
5e15aae07bf572b8f97a847d,47,0,2024-02-28T14:18:03.879Z,english_787.wav,0,peel,415,29,5,5,français,m,6,0.6,-97.41525775,1.20673022
5e15aae07bf572b8f97a847d,47,0,2024-02-28T14:18:03.879Z,english_787.wav,0,peel,415,29,5,5,français,m,7,0.7,39.01293018,1.21324632
5e15aae07bf572b8f97a847d,47,0,2024-02-28T14:18:03.879Z,english_787.wav,0,peel,415,29,5,5,français,m,8,0.8,42.79848726,1.47465653
5e15aae07bf572b8f97a847d,47,0,2024-02-28T14:18:03.879Z,english_787.wav,0,peel,415,29,5,5,français,m,9,0.9,9.93276614,0.97625714
5e15aae07bf572b8f97a847d,47,0,2024-02-28T14:18:03.879Z,english_787.wav,0,peel,415,29,5,5,français,m,10,1.0,-95.01180619,1.17241626
5e15aae07bf572b8f97a847d,47,0,2024-02-28T14:18:03.879Z,english_787.wav,0,peel,415,29,5,5,français,m,11,1.09391667,-15.9004552,0.99284929
5e15aae07bf572b8f97a847d,48,0,2024-02-28T14:18:03.879Z,english_314.wav,0,pill,651,29,5,5,français,m,0,0.0,-72.77248659,0.8900907
5e15aae07bf572b8f97a847d,48,0,2024-02-28T14:18:03.879Z,english_314.wav,0,pill,651,29,5,5,français,m,1,0.1,-16.3777023,0.59416925
5e15aae07bf572b8f97a847d,48,0,2024-02-28T14:18:03.879Z,english_314.wav,0,pill,651,29,5,5,français,m,2,0.2,-54.89367252,1.27689755
5e15aae07bf572b8f97a847d,48,0,2024-02-28T14:18:03.879Z,english_314.wav,0,pill,651,29,5,5,français,m,3,0.3,-94.61910998,0.70275331
5e15aae07bf572b8f97a847d,48,0,2024-02-28T14:18:03.879Z,english_314.wav,0,pill,651,29,5,5,français,m,4,0.4,-16.43986335,1.42732001
5e15aae07bf572b8f97a847d,48,0,2024-02-28T14:18:03.879Z,english_314.wav,0,pill,651,29,5,5,français,m,5,0.5,22.95549902,0.51357734
5e15aae07bf572b8f97a847d,48,0,2024-02-28T14:18:03.879Z,english_314.wav,0,pill,651,29,5,5,français,m,6,0.6,-38.50046808,1.78706659
5e15aae07bf572b8f97a847d,48,0,2024-02-28T14:18:03.879Z,english_314.wav,0,pill,651,29,5,5,français,m,7,0.7,94.4546569,0.51196802
5e15aae07bf572b8f97a847d,48,0,2024-02-28T14:18:03.879Z,english_314.wav,0,pill,651,29,5,5,français,m,8,0.8,-37.64043119,0.29950004
5e15aae07bf572b8f97a847d,48,0,2024-02-28T14:18:03.879Z,english_314.wav,0,pill,651,29,5,5,français,m,9,0.9,48.39030237,0.69158189
5e15aae07bf572b8f97a847d,48,0,2024-02-28T14:18:03.879Z,english_314.wav,0,pill,651,29,5,5,français,m,10,1.0,-45.26638295,0.28421865
5e15aae07bf572b8f97a847d,48,0,2024-02-28T14:18:03.879Z,english_314.wav,0,pill,651,29,5,5,français,m,11,1.09391667,-45.55554074,1.42591163
5e15aae07bf572b8f97a847d,49,0,2024-02-28T14:18:03.879Z,english_34.wav,0,peel,472,29,5,5,français,m,0,0.0,9.71692873,1.51290073
5e15aae07bf572b8f97a847d,49,0,2024-02-28T14:18:03.879Z,english_34.wav,0,peel,472,29,5,5,français,m,1,0.1,-32.4765448,1.69209185
5e15aae07bf572b8f97a847d,49,0,2024-02-28T14:18:03.879Z,english_34.wav,0,peel,472,29,5,5,français,m,2,0.2,15.43761556,1.03006511
5e15aae07bf572b8f97a847d,49,0,2024-02-28T14:18:03.879Z,english_34.wav,0,peel,472,29,5,5,français,m,3,0.3,58.61018381,0.24425739
5e15aae07bf572b8f97a847d,49,0,2024-02-28T14:18:03.879Z,english_34.wav,0,peel,472,29,5,5,français,m,4,0.4,25.83507297,1.41814457
5e15aae07bf572b8f97a847d,49,0,2024-02-28T14:18:03.879Z,english_34.wav,0,peel,472,29,5,5,français,m,5,0.5,-56.32199776,1.04050252
5e15aae07bf572b8f97a847d,49,0,2024-02-28T14:18:03.879Z,english_34.wav,0,peel,472,29,5,5,français,m,6,0.6,-56.68859517,0.2977066
5e15aae07bf572b8f97a847d,49,0,2024-02-28T14:18:03.879Z,english_34.wav,0,peel,472,29,5,5,français,m,7,0.7,-35.23691581,0.84278016
5e15aae07bf572b8f97a847d,49,0,2024-02-28T14:18:03.879Z,english_34.wav,0,peel,472,29,5,5,français,m,8,0.8,-38.05292499,1.02765016
5e15aae07bf572b8f97a847d,49,0,2024-02-28T14:18:03.879Z,english_34.wav,0,peel,472,29,5,5,français,m,9,0.9,-19.80503333,1.82923519
5e15aae07bf572b8f97a847d,49,0,2024-02-28T14:18:03.879Z,english_34.wav,0,peel,472,29,5,5,français,m,10,1.0,18.63515133,1.36188649
5e15aae07bf572b8f97a847d,49,0,2024-02-28T14:18:03.879Z,english_34.wav,0,peel,472,29,5,5,français,m,11,1.09391667,20.3470687,1.04188566
5e15aae07bf572b8f97a847d,50,1,2024-02-28T14:18:03.879Z,english_545.wav,0,peel,282,29,5,5,français,m,0,0.0,-99.01008517,0.51580829
5e15aae07bf572b8f97a847d,50,1,2024-02-28T14:18:03.879Z,english_545.wav,0,peel,282,29,5,5,français,m,1,0.1,65.47335851,0.53489733
5e15aae07bf572b8f97a847d,50,1,2024-02-28T14:18:03.879Z,english_545.wav,0,peel,282,29,5,5,français,m,2,0.2,-84.28840174,1.28091178
5e15aae07bf572b8f97a847d,50,1,2024-02-28T14:18:03.879Z,english_545.wav,0,peel,282,29,5,5,français,m,3,0.3,-53.2257253,1.83272888
5e15aae07bf572b8f97a847d,50,1,2024-02-28T14:18:03.879Z,english_545.wav,0,peel,282,29,5,5,français,m,4,0.4,-67.85056043,0.88291171
5e15aae07bf572b8f97a847d,50,1,2024-02-28T14:18:03.879Z,english_545.wav,0,peel,282,29,5,5,français,m,5,0.5,-22.57245088,0.35382027
5e15aae07bf572b8f97a847d,50,1,2024-02-28T14:18:03.879Z,english_545.wav,0,peel,282,29,5,5,français,m,6,0.6,-0.78864791,1.57508052
5e15aae07bf572b8f97a847d,50,1,2024-02-28T14:18:03.879Z,english_545.wav,0,peel,282,29,5,5,français,m,7,0.7,17.40611159,0.29019895
5e15aae07bf572b8f97a847d,50,1,2024-02-28T14:18:03.879Z,english_545.wav,0,peel,282,29,5,5,français,m,8,0.8,62.9168566,1.37661243
5e15aae07bf572b8f97a847d,50,1,2024-02-28T14:18:03.879Z,english_545.wav,0,peel,282,29,5,5,français,m,9,0.9,32.36790846,0.94083914
5e15aae07bf572b8f97a847d,50,1,2024-02-28T14:18:03.879Z,english_545.wav,0,peel,282,29,5,5,français,m,10,1.0,-91.70599266,1.54827837
5e15aae07bf572b8f97a847d,50,1,2024-02-28T14:18:03.879Z,english_545.wav,0,peel,282,29,5,5,français,m,11,1.09391667,50.31108328,0.28023548
5e15aae07bf572b8f97a847d,51,1,2024-02-28T14:18:03.879Z,english_4.wav,0,peel,257,29,5,5,français,m,0,0.0,-33.3305161,1.1805291
5e15aae07bf572b8f97a847d,51,1,2024-02-28T14:18:03.879Z,english_4.wav,0,peel,257,29,5,5,français,m,1,0.1,-23.37326796,0.77631495
5e15aae07bf572b8f97a847d,51,1,2024-02-28T14:18:03.879Z,english_4.wav,0,peel,257,29,5,5,français,m,2,0.2,-42.80660343,1.23796573
5e15aae07bf572b8f97a847d,51,1,2024-02-28T14:18:03.879Z,english_4.wav,0,peel,257,29,5,5,français,m,3,0.3,-85.97409915,0.59874379
5e15aae07bf572b8f97a847d,51,1,2024-02-28T14:18:03.879Z,english_4.wav,0,peel,257,29,5,5,français,m,4,0.4,51.28251826,0.69643725
5e15aae07bf572b8f97a847d,51,1,2024-02-28T14:18:03.879Z,english_4.wav,0,peel,257,29,5,5,français,m,5,0.5,20.44685701,0.26804311
5e15aae07bf572b8f97a847d,51,1,2024-02-28T14:18:03.879Z,english_4.wav,0,peel,257,29,5,5,français,m,6,0.6,23.55063394,0.13974856
5e15aae07bf572b8f97a847d,51,1,2024-02-28T14:18:03.879Z,english_4.wav,0,peel,257,29,5,5,français,m,7,0.7,-22.02944006,0.25652729
5e15aae07bf572b8f97a847d,51,1,2024-02-28T14:18:03.879Z,english_4.wav,0,peel,257,29,5,5,français,m,8,0.8,55.64002673,0.69877455
5e15aae07bf572b8f97a847d,51,1,2024-02-28T14:18:03.879Z,english_4.wav,0,peel,257,29,5,5,français,m,9,0.9,43.82412807,0.73036563
5e15aae07bf572b8f97a847d,51,1,2024-02-28T14:18:03.879Z,english_4.wav,0,peel,257,29,5,5,français,m,10,1.0,96.09742447,1.13065304
5e15aae07bf572b8f97a847d,51,1,2024-02-28T14:18:03.879Z,english_4.wav,0,peel,257,29,5,5,français,m,11,1.09391667,94.89276626,0.42036746
5e15aae07bf572b8f97a847d,52,1,2024-02-28T14:18:03.879Z,english_153.wav,0,peel,245,29,5,5,français,m,0,0.0,-22.0137653,0.27160884
5e15aae07bf572b8f97a847d,52,1,2024-02-28T14:18:03.879Z,english_153.wav,0,peel,245,29,5,5,français,m,1,0.1,21.87420495,0.44150389
5e15aae07bf572b8f97a847d,52,1,2024-02-28T14:18:03.879Z,english_153.wav,0,peel,245,29,5,5,français,m,2,0.2,78.88032694,1.08191418
5e15aae07bf572b8f97a847d,52,1,2024-02-28T14:18:03.879Z,english_153.wav,0,peel,245,29,5,5,français,m,3,0.3,68.02596654,0.18142841
5e15aae07bf572b8f97a847d,52,1,2024-02-28T14:18:03.879Z,english_153.wav,0,peel,245,29,5,5,français,m,4,0.4,52.06150723,0.17455202
5e15aae07bf572b8f97a847d,52,1,2024-02-28T14:18:03.879Z,english_153.wav,0,peel,245,29,5,5,français,m,5,0.5,-15.64198183,1.88425449
5e15aae07bf572b8f97a847d,52,1,2024-02-28T14:18:03.879Z,english_153.wav,0,peel,245,29,5,5,français,m,6,0.6,-55.92218577,1.64687285
5e15aae07bf572b8f97a847d,52,1,2024-02-28T14:18:03.879Z,english_153.wav,0,peel,245,29,5,5,français,m,7,0.7,45.74926524,1.52678411
5e15aae07bf572b8f97a847d,52,1,2024-02-28T14:18:03.879Z,english_153.wav,0,peel,245,29,5,5,français,m,8,0.8,13.43145428,1.81629534
5e15aae07bf572b8f97a847d,52,1,2024-02-28T14:18:03.879Z,english_153.wav,0,peel,245,29,5,5,français,m,9,0.9,-40.59369693,0.8186826
5e15aae07bf572b8f97a847d,52,1,2024-02-28T14:18:03.879Z,english_153.wav,0,peel,245,29,5,5,français,m,10,1.0,14.2660924,0.36511419
5e15aae07bf572b8f97a847d,52,1,2024-02-28T14:18:03.879Z,english_153.wav,0,peel,245,29,5,5,français,m,11,1.09391667,62.05558257,1.38161287
5e15aae07bf572b8f97a847d,53,1,2024-02-28T14:18:03.879Z,english_499.wav,0,peel,357,29,5,5,français,m,0,0.0,-7.75302897,0.29368166
5e15aae07bf572b8f97a847d,53,1,2024-02-28T14:18:03.879Z,english_499.wav,0,peel,357,29,5,5,français,m,1,0.1,23.88086762,1.58141682
5e15aae07bf572b8f97a847d,53,1,2024-02-28T14:18:03.879Z,english_499.wav,0,peel,357,29,5,5,français,m,2,0.2,-0.54854112,0.68322719
5e15aae07bf572b8f97a847d,53,1,2024-02-28T14:18:03.879Z,english_499.wav,0,peel,357,29,5,5,français,m,3,0.3,11.38417001,1.0607803
5e15aae07bf572b8f97a847d,53,1,2024-02-28T14:18:03.879Z,english_499.wav,0,peel,357,29,5,5,français,m,4,0.4,76.48373601,0.5459371
5e15aae07bf572b8f97a847d,53,1,2024-02-28T14:18:03.879Z,english_499.wav,0,peel,357,29,5,5,français,m,5,0.5,34.68075028,1.82829661
5e15aae07bf572b8f97a847d,53,1,2024-02-28T14:18:03.879Z,english_499.wav,0,peel,357,29,5,5,français,m,6,0.6,-14.34298834,1.23009433
5e15aae07bf572b8f97a847d,53,1,2024-02-28T14:18:03.879Z,english_499.wav,0,peel,357,29,5,5,français,m,7,0.7,26.82043511,1.38131853
5e15aae07bf572b8f97a847d,53,1,2024-02-28T14:18:03.879Z,english_499.wav,0,peel,357,29,5,5,français,m,8,0.8,60.32593039,0.45099226
5e15aae07bf572b8f97a847d,53,1,2024-02-28T14:18:03.879Z,english_499.wav,0,peel,357,29,5,5,français,m,9,0.9,-38.40765739,1.79672484
5e15aae07bf572b8f97a847d,53,1,2024-02-28T14:18:03.879Z,english_499.wav,0,peel,357,29,5,5,français,m,10,1.0,7.55243951,0.11050545
5e15aae07bf572b8f97a847d,53,1,2024-02-28T14:18:03.879Z,english_499.wav,0,peel,357,29,5,5,français,m,11,1.09391667,-96.29085545,0.98124995
5e15aae07bf572b8f97a847d,54,1,2024-02-28T14:18:03.879Z,english_178.wav,0,peel,191,29,5,5,français,m,0,0.0,5.42478923,1.01011156
5e15aae07bf572b8f97a847d,54,1,2024-02-28T14:18:03.879Z,english_178.wav,0,peel,191,29,5,5,français,m,1,0.1,66.71711881,1.60637441
5e15aae07bf572b8f97a847d,54,1,2024-02-28T14:18:03.879Z,english_178.wav,0,peel,191,29,5,5,français,m,2,0.2,25.13944125,0.85795496
5e15aae07bf572b8f97a847d,54,1,2024-02-28T14:18:03.879Z,english_178.wav,0,peel,191,29,5,5,français,m,3,0.3,95.56005782,1.35214977
5e15aae07bf572b8f97a847d,54,1,2024-02-28T14:18:03.879Z,english_178.wav,0,peel,191,29,5,5,français,m,4,0.4,16.85207382,0.61247399
5e15aae07bf572b8f97a847d,54,1,2024-02-28T14:18:03.879Z,english_178.wav,0,peel,191,29,5,5,français,m,5,0.5,-27.28270002,1.45555962
5e15aae07bf572b8f97a847d,54,1,2024-02-28T14:18:03.879Z,english_178.wav,0,peel,191,29,5,5,français,m,6,0.6,86.24132907,0.34817024
5e15aae07bf572b8f97a847d,54,1,2024-02-28T14:18:03.879Z,english_178.wav,0,peel,191,29,5,5,français,m,7,0.7,-67.08119727,0.78995697
5e15aae07bf572b8f97a847d,54,1,2024-02-28T14:18:03.879Z,english_178.wav,0,peel,191,29,5,5,français,m,8,0.8,-0.81610081,1.09427424
5e15aae07bf572b8f97a847d,54,1,2024-02-28T14:18:03.879Z,english_178.wav,0,peel,191,29,5,5,français,m,9,0.9,-32.08256077,1.32224293
5e15aae07bf572b8f97a847d,54,1,2024-02-28T14:18:03.879Z,english_178.wav,0,peel,191,29,5,5,français,m,10,1.0,33.26765995,1.53013904
5e15aae07bf572b8f97a847d,54,1,2024-02-28T14:18:03.879Z,english_178.wav,0,peel,191,29,5,5,français,m,11,1.09391667,50.15163679,1.40313699
5e15aae07bf572b8f97a847d,55,1,2024-02-28T14:18:03.879Z,english_372.wav,0,peel,323,29,5,5,français,m,0,0.0,26.59916967,1.01937466
5e15aae07bf572b8f97a847d,55,1,2024-02-28T14:18:03.879Z,english_372.wav,0,peel,323,29,5,5,français,m,1,0.1,3.58814385,0.79696142
5e15aae07bf572b8f97a847d,55,1,2024-02-28T14:18:03.879Z,english_372.wav,0,peel,323,29,5,5,français,m,2,0.2,-60.14178388,0.00503004
5e15aae07bf572b8f97a847d,55,1,2024-02-28T14:18:03.879Z,english_372.wav,0,peel,323,29,5,5,français,m,3,0.3,-44.19894674,0.84575405
5e15aae07bf572b8f97a847d,55,1,2024-02-28T14:18:03.879Z,english_372.wav,0,peel,323,29,5,5,français,m,4,0.4,-38.03613901,0.48969314
5e15aae07bf572b8f97a847d,55,1,2024-02-28T14:18:03.879Z,english_372.wav,0,peel,323,29,5,5,français,m,5,0.5,46.39303355,1.79043023
5e15aae07bf572b8f97a847d,55,1,2024-02-28T14:18:03.879Z,english_372.wav,0,peel,323,29,5,5,français,m,6,0.6,-33.97181462,1.46860797
5e15aae07bf572b8f97a847d,55,1,2024-02-28T14:18:03.879Z,english_372.wav,0,peel,323,29,5,5,français,m,7,0.7,-27.46884733,0.04122284
5e15aae07bf572b8f97a847d,55,1,2024-02-28T14:18:03.879Z,english_372.wav,0,peel,323,29,5,5,français,m,8,0.8,-45.55461231,0.63203754
5e15aae07bf572b8f97a847d,55,1,2024-02-28T14:18:03.879Z,english_372.wav,0,peel,323,29,5,5,français,m,9,0.9,20.15963599,1.00944548
5e15aae07bf572b8f97a847d,55,1,2024-02-28T14:18:03.879Z,english_372.wav,0,peel,323,29,5,5,français,m,10,1.0,54.79355498,0.7711604
5e15aae07bf572b8f97a847d,55,1,2024-02-28T14:18:03.879Z,english_372.wav,0,peel,323,29,5,5,français,m,11,1.09391667,93.56246184,0.15048829
5e15aae07bf572b8f97a847d,56,1,2024-02-28T14:18:03.879Z,english_994.wav,0,peel,212,29,5,5,français,m,0,0.0,36.98660599,0.81226984
5e15aae07bf572b8f97a847d,56,1,2024-02-28T14:18:03.879Z,english_994.wav,0,peel,212,29,5,5,français,m,1,0.1,-60.95311815,1.65591745
5e15aae07bf572b8f97a847d,56,1,2024-02-28T14:18:03.879Z,english_994.wav,0,peel,212,29,5,5,français,m,2,0.2,71.26510733,0.7009818
5e15aae07bf572b8f97a847d,56,1,2024-02-28T14:18:03.879Z,english_994.wav,0,peel,212,29,5,5,français,m,3,0.3,11.062559,1.67859876
5e15aae07bf572b8f97a847d,56,1,2024-02-28T14:18:03.879Z,english_994.wav,0,peel,212,29,5,5,français,m,4,0.4,70.6179669,1.05248669
5e15aae07bf572b8f97a847d,56,1,2024-02-28T14:18:03.879Z,english_994.wav,0,peel,212,29,5,5,français,m,5,0.5,-52.90665563,0.39767772
5e15aae07bf572b8f97a847d,56,1,2024-02-28T14:18:03.879Z,english_994.wav,0,peel,212,29,5,5,français,m,6,0.6,78.12480734,1.01059837
5e15aae07bf572b8f97a847d,56,1,2024-02-28T14:18:03.879Z,english_994.wav,0,peel,212,29,5,5,français,m,7,0.7,46.03409877,0.20028443
5e15aae07bf572b8f97a847d,56,1,2024-02-28T14:18:03.879Z,english_994.wav,0,peel,212,29,5,5,français,m,8,0.8,-66.74754668,0.75506808
5e15aae07bf572b8f97a847d,56,1,2024-02-28T14:18:03.879Z,english_994.wav,0,peel,212,29,5,5,français,m,9,0.9,56.18548234,1.57615428
5e15aae07bf572b8f97a847d,56,1,2024-02-28T14:18:03.879Z,english_994.wav,0,peel,212,29,5,5,français,m,10,1.0,-83.86573512,0.51140578
5e15aae07bf572b8f97a847d,56,1,2024-02-28T14:18:03.879Z,english_994.wav,0,peel,212,29,5,5,français,m,11,1.09391667,32.71445858,1.06238543
5e15aae07bf572b8f97a847d,57,1,2024-02-28T14:18:03.879Z,english_28.wav,0,peel,267,29,5,5,français,m,0,0.0,46.79443609,1.01055945
5e15aae07bf572b8f97a847d,57,1,2024-02-28T14:18:03.879Z,english_28.wav,0,peel,267,29,5,5,français,m,1,0.1,2.26441595,0.40890859
5e15aae07bf572b8f97a847d,57,1,2024-02-28T14:18:03.879Z,english_28.wav,0,peel,267,29,5,5,français,m,2,0.2,-92.86356779,1.10134245
5e15aae07bf572b8f97a847d,57,1,2024-02-28T14:18:03.879Z,english_28.wav,0,peel,267,29,5,5,français,m,3,0.3,70.49912331,0.66041546
5e15aae07bf572b8f97a847d,57,1,2024-02-28T14:18:03.879Z,english_28.wav,0,peel,267,29,5,5,français,m,4,0.4,-44.6918064,1.38812901
5e15aae07bf572b8f97a847d,57,1,2024-02-28T14:18:03.879Z,english_28.wav,0,peel,267,29,5,5,français,m,5,0.5,-40.18885973,1.34163595
5e15aae07bf572b8f97a847d,57,1,2024-02-28T14:18:03.879Z,english_28.wav,0,peel,267,29,5,5,français,m,6,0.6,22.89431524,1.22801128
5e15aae07bf572b8f97a847d,57,1,2024-02-28T14:18:03.879Z,english_28.wav,0,peel,267,29,5,5,français,m,7,0.7,-98.00041762,1.98732106
5e15aae07bf572b8f97a847d,57,1,2024-02-28T14:18:03.879Z,english_28.wav,0,peel,267,29,5,5,français,m,8,0.8,-45.25978985,1.24747992
5e15aae07bf572b8f97a847d,57,1,2024-02-28T14:18:03.879Z,english_28.wav,0,peel,267,29,5,5,français,m,9,0.9,-73.28359547,1.6043756
5e15aae07bf572b8f97a847d,57,1,2024-02-28T14:18:03.879Z,english_28.wav,0,peel,267,29,5,5,français,m,10,1.0,-75.042578,1.05397351
5e15aae07bf572b8f97a847d,57,1,2024-02-28T14:18:03.879Z,english_28.wav,0,peel,267,29,5,5,français,m,11,1.09391667,-54.18290404,0.28539485
5e15aae07bf572b8f97a847d,58,1,2024-02-28T14:18:03.879Z,english_906.wav,0,peel,575,29,5,5,français,m,0,0.0,64.42168111,1.18257449
5e15aae07bf572b8f97a847d,58,1,2024-02-28T14:18:03.879Z,english_906.wav,0,peel,575,29,5,5,français,m,1,0.1,-75.32695158,0.45696721
5e15aae07bf572b8f97a847d,58,1,2024-02-28T14:18:03.879Z,english_906.wav,0,peel,575,29,5,5,français,m,2,0.2,-55.78357421,1.62263234
5e15aae07bf572b8f97a847d,58,1,2024-02-28T14:18:03.879Z,english_906.wav,0,peel,575,29,5,5,français,m,3,0.3,26.12850677,0.83346952
5e15aae07bf572b8f97a847d,58,1,2024-02-28T14:18:03.879Z,english_906.wav,0,peel,575,29,5,5,français,m,4,0.4,29.10012221,0.76465534
5e15aae07bf572b8f97a847d,58,1,2024-02-28T14:18:03.879Z,english_906.wav,0,peel,575,29,5,5,français,m,5,0.5,7.95357938,1.66892635
5e15aae07bf572b8f97a847d,58,1,2024-02-28T14:18:03.879Z,english_906.wav,0,peel,575,29,5,5,français,m,6,0.6,-42.71112843,1.28815297
5e15aae07bf572b8f97a847d,58,1,2024-02-28T14:18:03.879Z,english_906.wav,0,peel,575,29,5,5,français,m,7,0.7,-60.64092572,1.91632775
5e15aae07bf572b8f97a847d,58,1,2024-02-28T14:18:03.879Z,english_906.wav,0,peel,575,29,5,5,français,m,8,0.8,-45.42100425,1.00822189
5e15aae07bf572b8f97a847d,58,1,2024-02-28T14:18:03.879Z,english_906.wav,0,peel,575,29,5,5,français,m,9,0.9,59.9641991,0.39736855
5e15aae07bf572b8f97a847d,58,1,2024-02-28T14:18:03.879Z,english_906.wav,0,peel,575,29,5,5,français,m,10,1.0,50.66532668,0.09371369
5e15aae07bf572b8f97a847d,58,1,2024-02-28T14:18:03.879Z,english_906.wav,0,peel,575,29,5,5,français,m,11,1.09391667,-51.29146387,1.05932382
5e15aae07bf572b8f97a847d,59,1,2024-02-28T14:18:03.879Z,english_259.wav,0,peel,894,29,5,5,français,m,0,0.0,-96.45723027,1.20447661
5e15aae07bf572b8f97a847d,59,1,2024-02-28T14:18:03.879Z,english_259.wav,0,peel,894,29,5,5,français,m,1,0.1,46.81898893,1.98089962
5e15aae07bf572b8f97a847d,59,1,2024-02-28T14:18:03.879Z,english_259.wav,0,peel,894,29,5,5,français,m,2,0.2,-52.24123134,0.13419359
5e15aae07bf572b8f97a847d,59,1,2024-02-28T14:18:03.879Z,english_259.wav,0,peel,894,29,5,5,français,m,3,0.3,-93.20482306,0.77341906
5e15aae07bf572b8f97a847d,59,1,2024-02-28T14:18:03.879Z,english_259.wav,0,peel,894,29,5,5,français,m,4,0.4,-73.17016095,0.41314705
5e15aae07bf572b8f97a847d,59,1,2024-02-28T14:18:03.879Z,english_259.wav,0,peel,894,29,5,5,français,m,5,0.5,65.38390332,1.70927399
5e15aae07bf572b8f97a847d,59,1,2024-02-28T14:18:03.879Z,english_259.wav,0,peel,894,29,5,5,français,m,6,0.6,-74.48910715,0.82975987
5e15aae07bf572b8f97a847d,59,1,2024-02-28T14:18:03.879Z,english_259.wav,0,peel,894,29,5,5,français,m,7,0.7,18.35767077,1.00284167
5e15aae07bf572b8f97a847d,59,1,2024-02-28T14:18:03.879Z,english_259.wav,0,peel,894,29,5,5,français,m,8,0.8,-83.13603565,0.65136174
5e15aae07bf572b8f97a847d,59,1,2024-02-28T14:18:03.879Z,english_259.wav,0,peel,894,29,5,5,français,m,9,0.9,-60.914408,1.08902536
5e15aae07bf572b8f97a847d,59,1,2024-02-28T14:18:03.879Z,english_259.wav,0,peel,894,29,5,5,français,m,10,1.0,13.76318207,0.29016251
5e15aae07bf572b8f97a847d,59,1,2024-02-28T14:18:03.879Z,english_259.wav,0,peel,894,29,5,5,français,m,11,1.09391667,-74.06068615,0.25284804
5e15aae07bf572b8f97a847d,60,1,2024-02-28T14:18:03.879Z,english_770.wav,0,peel,453,29,5,5,français,m,0,0.0,91.12421142,0.39537222
5e15aae07bf572b8f97a847d,60,1,2024-02-28T14:18:03.879Z,english_770.wav,0,peel,453,29,5,5,français,m,1,0.1,-19.58540638,0.64754321
5e15aae07bf572b8f97a847d,60,1,2024-02-28T14:18:03.879Z,english_770.wav,0,peel,453,29,5,5,français,m,2,0.2,-79.28932671,1.33811004
5e15aae07bf572b8f97a847d,60,1,2024-02-28T14:18:03.879Z,english_770.wav,0,peel,453,29,5,5,français,m,3,0.3,84.41656944,0.79999887
5e15aae07bf572b8f97a847d,60,1,2024-02-28T14:18:03.879Z,english_770.wav,0,peel,453,29,5,5,français,m,4,0.4,-7.14437585,0.34341238
5e15aae07bf572b8f97a847d,60,1,2024-02-28T14:18:03.879Z,english_770.wav,0,peel,453,29,5,5,français,m,5,0.5,-65.427815,0.89137249
5e15aae07bf572b8f97a847d,60,1,2024-02-28T14:18:03.879Z,english_770.wav,0,peel,453,29,5,5,français,m,6,0.6,24.29112002,1.67993341
5e15aae07bf572b8f97a847d,60,1,2024-02-28T14:18:03.879Z,english_770.wav,0,peel,453,29,5,5,français,m,7,0.7,-96.64014953,1.65600172
5e15aae07bf572b8f97a847d,60,1,2024-02-28T14:18:03.879Z,english_770.wav,0,peel,453,29,5,5,français,m,8,0.8,-19.88619379,0.2664894
5e15aae07bf572b8f97a847d,60,1,2024-02-28T14:18:03.879Z,english_770.wav,0,peel,453,29,5,5,français,m,9,0.9,6.75538061,1.80740877
5e15aae07bf572b8f97a847d,60,1,2024-02-28T14:18:03.879Z,english_770.wav,0,peel,453,29,5,5,français,m,10,1.0,-9.4599271,0.27817675
5e15aae07bf572b8f97a847d,60,1,2024-02-28T14:18:03.879Z,english_770.wav,0,peel,453,29,5,5,français,m,11,1.09391667,37.64052975,0.07045036
5e15aae07bf572b8f97a847d,61,1,2024-02-28T14:18:03.879Z,english_491.wav,0,peel,642,29,5,5,français,m,0,0.0,-86.04728356,0.47614904
5e15aae07bf572b8f97a847d,61,1,2024-02-28T14:18:03.879Z,english_491.wav,0,peel,642,29,5,5,français,m,1,0.1,-65.88451303,0.55089812
5e15aae07bf572b8f97a847d,61,1,2024-02-28T14:18:03.879Z,english_491.wav,0,peel,642,29,5,5,français,m,2,0.2,-80.48711576,1.1167033
5e15aae07bf572b8f97a847d,61,1,2024-02-28T14:18:03.879Z,english_491.wav,0,peel,642,29,5,5,français,m,3,0.3,-14.20773903,1.47203435
5e15aae07bf572b8f97a847d,61,1,2024-02-28T14:18:03.879Z,english_491.wav,0,peel,642,29,5,5,français,m,4,0.4,8.14780759,1.34464479
5e15aae07bf572b8f97a847d,61,1,2024-02-28T14:18:03.879Z,english_491.wav,0,peel,642,29,5,5,français,m,5,0.5,-64.09571567,1.15432427
5e15aae07bf572b8f97a847d,61,1,2024-02-28T14:18:03.879Z,english_491.wav,0,peel,642,29,5,5,français,m,6,0.6,54.51757577,1.10816548
5e15aae07bf572b8f97a847d,61,1,2024-02-28T14:18:03.879Z,english_491.wav,0,peel,642,29,5,5,français,m,7,0.7,44.38602798,0.53599429
5e15aae07bf572b8f97a847d,61,1,2024-02-28T14:18:03.879Z,english_491.wav,0,peel,642,29,5,5,français,m,8,0.8,-1.2376907,1.13980754
5e15aae07bf572b8f97a847d,61,1,2024-02-28T14:18:03.879Z,english_491.wav,0,peel,642,29,5,5,français,m,9,0.9,77.13121924,0.89300384
5e15aae07bf572b8f97a847d,61,1,2024-02-28T14:18:03.879Z,english_491.wav,0,peel,642,29,5,5,français,m,10,1.0,-14.590686,0.5502855
5e15aae07bf572b8f97a847d,61,1,2024-02-28T14:18:03.879Z,english_491.wav,0,peel,642,29,5,5,français,m,11,1.09391667,68.41813951,1.59909439
5e15aae07bf572b8f97a847d,62,1,2024-02-28T14:18:03.879Z,english_723.wav,0,pill,714,29,5,5,français,m,0,0.0,41.38539941,1.7889603
5e15aae07bf572b8f97a847d,62,1,2024-02-28T14:18:03.879Z,english_723.wav,0,pill,714,29,5,5,français,m,1,0.1,-10.01095303,0.1038592
5e15aae07bf572b8f97a847d,62,1,2024-02-28T14:18:03.879Z,english_723.wav,0,pill,714,29,5,5,français,m,2,0.2,29.27272113,0.53110076
5e15aae07bf572b8f97a847d,62,1,2024-02-28T14:18:03.879Z,english_723.wav,0,pill,714,29,5,5,français,m,3,0.3,-49.7176535,0.29760974
5e15aae07bf572b8f97a847d,62,1,2024-02-28T14:18:03.879Z,english_723.wav,0,pill,714,29,5,5,français,m,4,0.4,-10.52042461,1.31106604
5e15aae07bf572b8f97a847d,62,1,2024-02-28T14:18:03.879Z,english_723.wav,0,pill,714,29,5,5,français,m,5,0.5,-43.11656662,0.93542765
5e15aae07bf572b8f97a847d,62,1,2024-02-28T14:18:03.879Z,english_723.wav,0,pill,714,29,5,5,français,m,6,0.6,-24.09481257,1.32967349
5e15aae07bf572b8f97a847d,62,1,2024-02-28T14:18:03.879Z,english_723.wav,0,pill,714,29,5,5,français,m,7,0.7,61.11286308,1.11219452
5e15aae07bf572b8f97a847d,62,1,2024-02-28T14:18:03.879Z,english_723.wav,0,pill,714,29,5,5,français,m,8,0.8,-37.09128746,0.4392085
5e15aae07bf572b8f97a847d,62,1,2024-02-28T14:18:03.879Z,english_723.wav,0,pill,714,29,5,5,français,m,9,0.9,71.58023837,1.93673799
5e15aae07bf572b8f97a847d,62,1,2024-02-28T14:18:03.879Z,english_723.wav,0,pill,714,29,5,5,français,m,10,1.0,30.56657054,0.01664343
5e15aae07bf572b8f97a847d,62,1,2024-02-28T14:18:03.879Z,english_723.wav,0,pill,714,29,5,5,français,m,11,1.09391667,-5.36806636,0.22848658
5e15aae07bf572b8f97a847d,63,1,2024-02-28T14:18:03.879Z,english_190.wav,0,pill,272,29,5,5,français,m,0,0.0,68.06436233,1.70360444
5e15aae07bf572b8f97a847d,63,1,2024-02-28T14:18:03.879Z,english_190.wav,0,pill,272,29,5,5,français,m,1,0.1,24.19088811,1.35006329
5e15aae07bf572b8f97a847d,63,1,2024-02-28T14:18:03.879Z,english_190.wav,0,pill,272,29,5,5,français,m,2,0.2,-65.11888028,0.62623632
5e15aae07bf572b8f97a847d,63,1,2024-02-28T14:18:03.879Z,english_190.wav,0,pill,272,29,5,5,français,m,3,0.3,32.33155843,0.74087673
5e15aae07bf572b8f97a847d,63,1,2024-02-28T14:18:03.879Z,english_190.wav,0,pill,272,29,5,5,français,m,4,0.4,-73.69082424,1.65268471
5e15aae07bf572b8f97a847d,63,1,2024-02-28T14:18:03.879Z,english_190.wav,0,pill,272,29,5,5,français,m,5,0.5,2.10243169,0.89116286
5e15aae07bf572b8f97a847d,63,1,2024-02-28T14:18:03.879Z,english_190.wav,0,pill,272,29,5,5,français,m,6,0.6,28.92667908,1.98709983
5e15aae07bf572b8f97a847d,63,1,2024-02-28T14:18:03.879Z,english_190.wav,0,pill,272,29,5,5,français,m,7,0.7,34.75610328,1.82073469
5e15aae07bf572b8f97a847d,63,1,2024-02-28T14:18:03.879Z,english_190.wav,0,pill,272,29,5,5,français,m,8,0.8,31.4188322,0.29012773
5e15aae07bf572b8f97a847d,63,1,2024-02-28T14:18:03.879Z,english_190.wav,0,pill,272,29,5,5,français,m,9,0.9,-96.94690026,0.16914855
5e15aae07bf572b8f97a847d,63,1,2024-02-28T14:18:03.879Z,english_190.wav,0,pill,272,29,5,5,français,m,10,1.0,53.11864997,1.64341156
5e15aae07bf572b8f97a847d,63,1,2024-02-28T14:18:03.879Z,english_190.wav,0,pill,272,29,5,5,français,m,11,1.09391667,-92.72540724,1.35295698
5e15aae07bf572b8f97a847d,64,1,2024-02-28T14:18:03.879Z,english_826.wav,0,peel,305,29,5,5,français,m,0,0.0,-48.66820204,0.50881221
