subj,trial,block,date,stim,stim_order,response,rt,age,english,french,language,sex,param_index,segment,pitch,stretch
60c750fa33e03bdaeae60c48,0,0,2024-02-28T14:55:35.773Z,english_1000.wav,0,peel,4431,24,4,5,Français,Féminin,0,0.0,-1.5072561,0.91946401
60c750fa33e03bdaeae60c48,0,0,2024-02-28T14:55:35.773Z,english_1000.wav,0,peel,4431,24,4,5,Français,Féminin,1,0.1,39.79014661,1.39592101
60c750fa33e03bdaeae60c48,0,0,2024-02-28T14:55:35.773Z,english_1000.wav,0,peel,4431,24,4,5,Français,Féminin,2,0.2,58.76846959,0.5487596
60c750fa33e03bdaeae60c48,0,0,2024-02-28T14:55:35.773Z,english_1000.wav,0,peel,4431,24,4,5,Français,Féminin,3,0.3,28.54889901,1.20778852
60c750fa33e03bdaeae60c48,0,0,2024-02-28T14:55:35.773Z,english_1000.wav,0,peel,4431,24,4,5,Français,Féminin,4,0.4,-74.34288484,0.05870568
60c750fa33e03bdaeae60c48,0,0,2024-02-28T14:55:35.773Z,english_1000.wav,0,peel,4431,24,4,5,Français,Féminin,5,0.5,7.94862856,1.40576818
60c750fa33e03bdaeae60c48,0,0,2024-02-28T14:55:35.773Z,english_1000.wav,0,peel,4431,24,4,5,Français,Féminin,6,0.6,75.96899765,0.56511458
60c750fa33e03bdaeae60c48,0,0,2024-02-28T14:55:35.773Z,english_1000.wav,0,peel,4431,24,4,5,Français,Féminin,7,0.7,20.32286843,0.44257477
60c750fa33e03bdaeae60c48,0,0,2024-02-28T14:55:35.773Z,english_1000.wav,0,peel,4431,24,4,5,Français,Féminin,8,0.8,6.51139675,0.97037601
60c750fa33e03bdaeae60c48,0,0,2024-02-28T14:55:35.773Z,english_1000.wav,0,peel,4431,24,4,5,Français,Féminin,9,0.9,95.873103,1.4916368
60c750fa33e03bdaeae60c48,0,0,2024-02-28T14:55:35.773Z,english_1000.wav,0,peel,4431,24,4,5,Français,Féminin,10,1.0,76.48547212,1.12595485
60c750fa33e03bdaeae60c48,0,0,2024-02-28T14:55:35.773Z,english_1000.wav,0,peel,4431,24,4,5,Français,Féminin,11,1.09391667,42.88935731,1.31879984
60c750fa33e03bdaeae60c48,1,0,2024-02-28T14:55:35.773Z,english_426.wav,0,pill,945,24,4,5,Français,Féminin,0,0.0,-67.17987083,1.61589393
60c750fa33e03bdaeae60c48,1,0,2024-02-28T14:55:35.773Z,english_426.wav,0,pill,945,24,4,5,Français,Féminin,1,0.1,70.02176421,1.03467422
60c750fa33e03bdaeae60c48,1,0,2024-02-28T14:55:35.773Z,english_426.wav,0,pill,945,24,4,5,Français,Féminin,2,0.2,82.2704811,1.69488483
60c750fa33e03bdaeae60c48,1,0,2024-02-28T14:55:35.773Z,english_426.wav,0,pill,945,24,4,5,Français,Féminin,3,0.3,-4.42560713,0.26984678
60c750fa33e03bdaeae60c48,1,0,2024-02-28T14:55:35.773Z,english_426.wav,0,pill,945,24,4,5,Français,Féminin,4,0.4,-22.03224373,1.53427209
60c750fa33e03bdaeae60c48,1,0,2024-02-28T14:55:35.773Z,english_426.wav,0,pill,945,24,4,5,Français,Féminin,5,0.5,-71.21536039,1.44135847
60c750fa33e03bdaeae60c48,1,0,2024-02-28T14:55:35.773Z,english_426.wav,0,pill,945,24,4,5,Français,Féminin,6,0.6,23.47193627,0.91698709
60c750fa33e03bdaeae60c48,1,0,2024-02-28T14:55:35.773Z,english_426.wav,0,pill,945,24,4,5,Français,Féminin,7,0.7,-95.21485964,0.33548871
60c750fa33e03bdaeae60c48,1,0,2024-02-28T14:55:35.773Z,english_426.wav,0,pill,945,24,4,5,Français,Féminin,8,0.8,76.54647,1.77334308
60c750fa33e03bdaeae60c48,1,0,2024-02-28T14:55:35.773Z,english_426.wav,0,pill,945,24,4,5,Français,Féminin,9,0.9,67.43828429,1.62177199
60c750fa33e03bdaeae60c48,1,0,2024-02-28T14:55:35.773Z,english_426.wav,0,pill,945,24,4,5,Français,Féminin,10,1.0,-41.3478141,0.29474728
60c750fa33e03bdaeae60c48,1,0,2024-02-28T14:55:35.773Z,english_426.wav,0,pill,945,24,4,5,Français,Féminin,11,1.09391667,-8.81391429,0.79627592
60c750fa33e03bdaeae60c48,2,0,2024-02-28T14:55:35.773Z,english_739.wav,0,pill,696,24,4,5,Français,Féminin,0,0.0,1.66907671,0.87693375
60c750fa33e03bdaeae60c48,2,0,2024-02-28T14:55:35.773Z,english_739.wav,0,pill,696,24,4,5,Français,Féminin,1,0.1,32.28194312,0.65337813
60c750fa33e03bdaeae60c48,2,0,2024-02-28T14:55:35.773Z,english_739.wav,0,pill,696,24,4,5,Français,Féminin,2,0.2,88.89595153,0.64089741
60c750fa33e03bdaeae60c48,2,0,2024-02-28T14:55:35.773Z,english_739.wav,0,pill,696,24,4,5,Français,Féminin,3,0.3,20.95779095,1.8100412
60c750fa33e03bdaeae60c48,2,0,2024-02-28T14:55:35.773Z,english_739.wav,0,pill,696,24,4,5,Français,Féminin,4,0.4,75.26857339,1.25976755
60c750fa33e03bdaeae60c48,2,0,2024-02-28T14:55:35.773Z,english_739.wav,0,pill,696,24,4,5,Français,Féminin,5,0.5,80.94392955,0.9768095
60c750fa33e03bdaeae60c48,2,0,2024-02-28T14:55:35.773Z,english_739.wav,0,pill,696,24,4,5,Français,Féminin,6,0.6,17.54887525,1.56119235
60c750fa33e03bdaeae60c48,2,0,2024-02-28T14:55:35.773Z,english_739.wav,0,pill,696,24,4,5,Français,Féminin,7,0.7,25.07377362,0.95993111
60c750fa33e03bdaeae60c48,2,0,2024-02-28T14:55:35.773Z,english_739.wav,0,pill,696,24,4,5,Français,Féminin,8,0.8,92.52917298,0.31388654
60c750fa33e03bdaeae60c48,2,0,2024-02-28T14:55:35.773Z,english_739.wav,0,pill,696,24,4,5,Français,Féminin,9,0.9,2.73629171,1.55063506
60c750fa33e03bdaeae60c48,2,0,2024-02-28T14:55:35.773Z,english_739.wav,0,pill,696,24,4,5,Français,Féminin,10,1.0,-80.00700458,1.57282249
60c750fa33e03bdaeae60c48,2,0,2024-02-28T14:55:35.773Z,english_739.wav,0,pill,696,24,4,5,Français,Féminin,11,1.09391667,-87.47656885,1.46307629
60c750fa33e03bdaeae60c48,3,0,2024-02-28T14:55:35.773Z,english_311.wav,0,pill,377,24,4,5,Français,Féminin,0,0.0,64.66080996,0.82460416
60c750fa33e03bdaeae60c48,3,0,2024-02-28T14:55:35.773Z,english_311.wav,0,pill,377,24,4,5,Français,Féminin,1,0.1,-69.02575999,0.36483522
60c750fa33e03bdaeae60c48,3,0,2024-02-28T14:55:35.773Z,english_311.wav,0,pill,377,24,4,5,Français,Féminin,2,0.2,-67.68739859,0.7494254
60c750fa33e03bdaeae60c48,3,0,2024-02-28T14:55:35.773Z,english_311.wav,0,pill,377,24,4,5,Français,Féminin,3,0.3,44.13725608,0.5130867
60c750fa33e03bdaeae60c48,3,0,2024-02-28T14:55:35.773Z,english_311.wav,0,pill,377,24,4,5,Français,Féminin,4,0.4,93.17105676,0.37208425
60c750fa33e03bdaeae60c48,3,0,2024-02-28T14:55:35.773Z,english_311.wav,0,pill,377,24,4,5,Français,Féminin,5,0.5,84.82973528,1.19695655
60c750fa33e03bdaeae60c48,3,0,2024-02-28T14:55:35.773Z,english_311.wav,0,pill,377,24,4,5,Français,Féminin,6,0.6,-34.91706274,0.97358849
60c750fa33e03bdaeae60c48,3,0,2024-02-28T14:55:35.773Z,english_311.wav,0,pill,377,24,4,5,Français,Féminin,7,0.7,-93.26420788,1.42777336
60c750fa33e03bdaeae60c48,3,0,2024-02-28T14:55:35.773Z,english_311.wav,0,pill,377,24,4,5,Français,Féminin,8,0.8,78.86658017,1.14684196
60c750fa33e03bdaeae60c48,3,0,2024-02-28T14:55:35.773Z,english_311.wav,0,pill,377,24,4,5,Français,Féminin,9,0.9,-56.88823021,0.88829321
60c750fa33e03bdaeae60c48,3,0,2024-02-28T14:55:35.773Z,english_311.wav,0,pill,377,24,4,5,Français,Féminin,10,1.0,16.33779759,0.74783525
60c750fa33e03bdaeae60c48,3,0,2024-02-28T14:55:35.773Z,english_311.wav,0,pill,377,24,4,5,Français,Féminin,11,1.09391667,54.14062415,1.42501308
60c750fa33e03bdaeae60c48,4,0,2024-02-28T14:55:35.773Z,english_518.wav,0,peel,324,24,4,5,Français,Féminin,0,0.0,22.01202895,1.18568215
60c750fa33e03bdaeae60c48,4,0,2024-02-28T14:55:35.773Z,english_518.wav,0,peel,324,24,4,5,Français,Féminin,1,0.1,84.85911905,1.27730104
60c750fa33e03bdaeae60c48,4,0,2024-02-28T14:55:35.773Z,english_518.wav,0,peel,324,24,4,5,Français,Féminin,2,0.2,6.76803646,1.88343212
60c750fa33e03bdaeae60c48,4,0,2024-02-28T14:55:35.773Z,english_518.wav,0,peel,324,24,4,5,Français,Féminin,3,0.3,-12.31334731,1.70516568
60c750fa33e03bdaeae60c48,4,0,2024-02-28T14:55:35.773Z,english_518.wav,0,peel,324,24,4,5,Français,Féminin,4,0.4,-5.3812793,1.21188584
60c750fa33e03bdaeae60c48,4,0,2024-02-28T14:55:35.773Z,english_518.wav,0,peel,324,24,4,5,Français,Féminin,5,0.5,-39.12372131,1.55365309
60c750fa33e03bdaeae60c48,4,0,2024-02-28T14:55:35.773Z,english_518.wav,0,peel,324,24,4,5,Français,Féminin,6,0.6,-19.59187687,1.67380265
60c750fa33e03bdaeae60c48,4,0,2024-02-28T14:55:35.773Z,english_518.wav,0,peel,324,24,4,5,Français,Féminin,7,0.7,30.09174406,1.67954719
60c750fa33e03bdaeae60c48,4,0,2024-02-28T14:55:35.773Z,english_518.wav,0,peel,324,24,4,5,Français,Féminin,8,0.8,12.21299005,1.45293932
60c750fa33e03bdaeae60c48,4,0,2024-02-28T14:55:35.773Z,english_518.wav,0,peel,324,24,4,5,Français,Féminin,9,0.9,-30.98849923,1.42118442
60c750fa33e03bdaeae60c48,4,0,2024-02-28T14:55:35.773Z,english_518.wav,0,peel,324,24,4,5,Français,Féminin,10,1.0,-66.88783357,1.84946345
60c750fa33e03bdaeae60c48,4,0,2024-02-28T14:55:35.773Z,english_518.wav,0,peel,324,24,4,5,Français,Féminin,11,1.09391667,-47.66173225,1.44146986
60c750fa33e03bdaeae60c48,5,0,2024-02-28T14:55:35.773Z,english_249.wav,0,pill,385,24,4,5,Français,Féminin,0,0.0,76.25739469,0.56602806
60c750fa33e03bdaeae60c48,5,0,2024-02-28T14:55:35.773Z,english_249.wav,0,pill,385,24,4,5,Français,Féminin,1,0.1,-72.9034905,1.86013856
60c750fa33e03bdaeae60c48,5,0,2024-02-28T14:55:35.773Z,english_249.wav,0,pill,385,24,4,5,Français,Féminin,2,0.2,-34.31284512,1.49321079
60c750fa33e03bdaeae60c48,5,0,2024-02-28T14:55:35.773Z,english_249.wav,0,pill,385,24,4,5,Français,Féminin,3,0.3,23.60127817,0.47941188
60c750fa33e03bdaeae60c48,5,0,2024-02-28T14:55:35.773Z,english_249.wav,0,pill,385,24,4,5,Français,Féminin,4,0.4,51.01923595,0.65185377
60c750fa33e03bdaeae60c48,5,0,2024-02-28T14:55:35.773Z,english_249.wav,0,pill,385,24,4,5,Français,Féminin,5,0.5,-89.59911495,1.3750676
60c750fa33e03bdaeae60c48,5,0,2024-02-28T14:55:35.773Z,english_249.wav,0,pill,385,24,4,5,Français,Féminin,6,0.6,34.41203989,1.54319682
60c750fa33e03bdaeae60c48,5,0,2024-02-28T14:55:35.773Z,english_249.wav,0,pill,385,24,4,5,Français,Féminin,7,0.7,52.60913862,0.09952226
60c750fa33e03bdaeae60c48,5,0,2024-02-28T14:55:35.773Z,english_249.wav,0,pill,385,24,4,5,Français,Féminin,8,0.8,-90.65371811,0.08638802
60c750fa33e03bdaeae60c48,5,0,2024-02-28T14:55:35.773Z,english_249.wav,0,pill,385,24,4,5,Français,Féminin,9,0.9,-64.64204846,1.60736563
60c750fa33e03bdaeae60c48,5,0,2024-02-28T14:55:35.773Z,english_249.wav,0,pill,385,24,4,5,Français,Féminin,10,1.0,-86.58401711,0.42122312
60c750fa33e03bdaeae60c48,5,0,2024-02-28T14:55:35.773Z,english_249.wav,0,pill,385,24,4,5,Français,Féminin,11,1.09391667,-34.03680634,0.01186603
60c750fa33e03bdaeae60c48,6,0,2024-02-28T14:55:35.773Z,english_664.wav,0,pill,541,24,4,5,Français,Féminin,0,0.0,87.83799753,0.80622544
60c750fa33e03bdaeae60c48,6,0,2024-02-28T14:55:35.773Z,english_664.wav,0,pill,541,24,4,5,Français,Féminin,1,0.1,93.07880912,0.71131531
60c750fa33e03bdaeae60c48,6,0,2024-02-28T14:55:35.773Z,english_664.wav,0,pill,541,24,4,5,Français,Féminin,2,0.2,-21.43792859,0.52490717
60c750fa33e03bdaeae60c48,6,0,2024-02-28T14:55:35.773Z,english_664.wav,0,pill,541,24,4,5,Français,Féminin,3,0.3,54.61607152,0.79105774
60c750fa33e03bdaeae60c48,6,0,2024-02-28T14:55:35.773Z,english_664.wav,0,pill,541,24,4,5,Français,Féminin,4,0.4,63.53186125,0.74894626
60c750fa33e03bdaeae60c48,6,0,2024-02-28T14:55:35.773Z,english_664.wav,0,pill,541,24,4,5,Français,Féminin,5,0.5,69.57332079,0.96341942
60c750fa33e03bdaeae60c48,6,0,2024-02-28T14:55:35.773Z,english_664.wav,0,pill,541,24,4,5,Français,Féminin,6,0.6,-98.283012,0.12490453
60c750fa33e03bdaeae60c48,6,0,2024-02-28T14:55:35.773Z,english_664.wav,0,pill,541,24,4,5,Français,Féminin,7,0.7,3.96514961,1.772086
60c750fa33e03bdaeae60c48,6,0,2024-02-28T14:55:35.773Z,english_664.wav,0,pill,541,24,4,5,Français,Féminin,8,0.8,-68.49765079,1.2138043
60c750fa33e03bdaeae60c48,6,0,2024-02-28T14:55:35.773Z,english_664.wav,0,pill,541,24,4,5,Français,Féminin,9,0.9,22.71561052,1.03968333
60c750fa33e03bdaeae60c48,6,0,2024-02-28T14:55:35.773Z,english_664.wav,0,pill,541,24,4,5,Français,Féminin,10,1.0,62.92065682,1.01702127
60c750fa33e03bdaeae60c48,6,0,2024-02-28T14:55:35.773Z,english_664.wav,0,pill,541,24,4,5,Français,Féminin,11,1.09391667,7.64063367,1.88905221
60c750fa33e03bdaeae60c48,7,0,2024-02-28T14:55:35.773Z,english_117.wav,0,peel,453,24,4,5,Français,Féminin,0,0.0,-28.38275439,0.21519039
60c750fa33e03bdaeae60c48,7,0,2024-02-28T14:55:35.773Z,english_117.wav,0,peel,453,24,4,5,Français,Féminin,1,0.1,98.42008379,0.51040987
60c750fa33e03bdaeae60c48,7,0,2024-02-28T14:55:35.773Z,english_117.wav,0,peel,453,24,4,5,Français,Féminin,2,0.2,41.31206558,0.4102792
60c750fa33e03bdaeae60c48,7,0,2024-02-28T14:55:35.773Z,english_117.wav,0,peel,453,24,4,5,Français,Féminin,3,0.3,-83.83183678,1.46073806
60c750fa33e03bdaeae60c48,7,0,2024-02-28T14:55:35.773Z,english_117.wav,0,peel,453,24,4,5,Français,Féminin,4,0.4,98.21463791,0.64884847
60c750fa33e03bdaeae60c48,7,0,2024-02-28T14:55:35.773Z,english_117.wav,0,peel,453,24,4,5,Français,Féminin,5,0.5,-2.48578352,0.03709947
60c750fa33e03bdaeae60c48,7,0,2024-02-28T14:55:35.773Z,english_117.wav,0,peel,453,24,4,5,Français,Féminin,6,0.6,-4.17640124,1.54490713
60c750fa33e03bdaeae60c48,7,0,2024-02-28T14:55:35.773Z,english_117.wav,0,peel,453,24,4,5,Français,Féminin,7,0.7,96.23712421,1.91280324
60c750fa33e03bdaeae60c48,7,0,2024-02-28T14:55:35.773Z,english_117.wav,0,peel,453,24,4,5,Français,Féminin,8,0.8,58.96351824,1.06675457
60c750fa33e03bdaeae60c48,7,0,2024-02-28T14:55:35.773Z,english_117.wav,0,peel,453,24,4,5,Français,Féminin,9,0.9,45.91477825,1.30412923
60c750fa33e03bdaeae60c48,7,0,2024-02-28T14:55:35.773Z,english_117.wav,0,peel,453,24,4,5,Français,Féminin,10,1.0,-11.19499605,1.45368514
60c750fa33e03bdaeae60c48,7,0,2024-02-28T14:55:35.773Z,english_117.wav,0,peel,453,24,4,5,Français,Féminin,11,1.09391667,-21.37390064,0.12058037
60c750fa33e03bdaeae60c48,8,0,2024-02-28T14:55:35.773Z,english_404.wav,0,pill,260,24,4,5,Français,Féminin,0,0.0,51.0629149,0.92872816
60c750fa33e03bdaeae60c48,8,0,2024-02-28T14:55:35.773Z,english_404.wav,0,pill,260,24,4,5,Français,Féminin,1,0.1,-20.11660717,1.09197178
60c750fa33e03bdaeae60c48,8,0,2024-02-28T14:55:35.773Z,english_404.wav,0,pill,260,24,4,5,Français,Féminin,2,0.2,-24.08850376,1.28516423
60c750fa33e03bdaeae60c48,8,0,2024-02-28T14:55:35.773Z,english_404.wav,0,pill,260,24,4,5,Français,Féminin,3,0.3,-31.42467522,0.67196706
60c750fa33e03bdaeae60c48,8,0,2024-02-28T14:55:35.773Z,english_404.wav,0,pill,260,24,4,5,Français,Féminin,4,0.4,53.01415625,0.26298551
60c750fa33e03bdaeae60c48,8,0,2024-02-28T14:55:35.773Z,english_404.wav,0,pill,260,24,4,5,Français,Féminin,5,0.5,-45.18749729,0.832552
60c750fa33e03bdaeae60c48,8,0,2024-02-28T14:55:35.773Z,english_404.wav,0,pill,260,24,4,5,Français,Féminin,6,0.6,75.22262363,0.94238773
60c750fa33e03bdaeae60c48,8,0,2024-02-28T14:55:35.773Z,english_404.wav,0,pill,260,24,4,5,Français,Féminin,7,0.7,53.71694776,0.97166455
60c750fa33e03bdaeae60c48,8,0,2024-02-28T14:55:35.773Z,english_404.wav,0,pill,260,24,4,5,Français,Féminin,8,0.8,-31.94049291,0.24504
60c750fa33e03bdaeae60c48,8,0,2024-02-28T14:55:35.773Z,english_404.wav,0,pill,260,24,4,5,Français,Féminin,9,0.9,64.49384663,1.54934709
60c750fa33e03bdaeae60c48,8,0,2024-02-28T14:55:35.773Z,english_404.wav,0,pill,260,24,4,5,Français,Féminin,10,1.0,-87.57862232,0.71675997
60c750fa33e03bdaeae60c48,8,0,2024-02-28T14:55:35.773Z,english_404.wav,0,pill,260,24,4,5,Français,Féminin,11,1.09391667,-93.26487386,1.21108184
60c750fa33e03bdaeae60c48,9,0,2024-02-28T14:55:35.773Z,english_638.wav,0,peel,188,24,4,5,Français,Féminin,0,0.0,27.0849984,1.3280689
60c750fa33e03bdaeae60c48,9,0,2024-02-28T14:55:35.773Z,english_638.wav,0,peel,188,24,4,5,Français,Féminin,1,0.1,-76.77372335,0.56896387
60c750fa33e03bdaeae60c48,9,0,2024-02-28T14:55:35.773Z,english_638.wav,0,peel,188,24,4,5,Français,Féminin,2,0.2,-5.6974772,0.56746927
60c750fa33e03bdaeae60c48,9,0,2024-02-28T14:55:35.773Z,english_638.wav,0,peel,188,24,4,5,Français,Féminin,3,0.3,-27.04640621,0.40067671
60c750fa33e03bdaeae60c48,9,0,2024-02-28T14:55:35.773Z,english_638.wav,0,peel,188,24,4,5,Français,Féminin,4,0.4,10.67934685,1.88228275
60c750fa33e03bdaeae60c48,9,0,2024-02-28T14:55:35.773Z,english_638.wav,0,peel,188,24,4,5,Français,Féminin,5,0.5,-13.18628206,0.52168705
60c750fa33e03bdaeae60c48,9,0,2024-02-28T14:55:35.773Z,english_638.wav,0,peel,188,24,4,5,Français,Féminin,6,0.6,11.34372698,0.80905376
60c750fa33e03bdaeae60c48,9,0,2024-02-28T14:55:35.773Z,english_638.wav,0,peel,188,24,4,5,Français,Féminin,7,0.7,-64.2430687,1.41810717
60c750fa33e03bdaeae60c48,9,0,2024-02-28T14:55:35.773Z,english_638.wav,0,peel,188,24,4,5,Français,Féminin,8,0.8,46.35115049,1.8285697
60c750fa33e03bdaeae60c48,9,0,2024-02-28T14:55:35.773Z,english_638.wav,0,peel,188,24,4,5,Français,Féminin,9,0.9,44.69499683,0.3100636
60c750fa33e03bdaeae60c48,9,0,2024-02-28T14:55:35.773Z,english_638.wav,0,peel,188,24,4,5,Français,Féminin,10,1.0,-11.73136011,1.74790386
60c750fa33e03bdaeae60c48,9,0,2024-02-28T14:55:35.773Z,english_638.wav,0,peel,188,24,4,5,Français,Féminin,11,1.09391667,-77.04953993,1.8348397
60c750fa33e03bdaeae60c48,10,0,2024-02-28T14:55:35.773Z,english_128.wav,0,peel,152,24,4,5,Français,Féminin,0,0.0,-22.61942611,1.66721471
60c750fa33e03bdaeae60c48,10,0,2024-02-28T14:55:35.773Z,english_128.wav,0,peel,152,24,4,5,Français,Féminin,1,0.1,68.41227715,1.06525369
60c750fa33e03bdaeae60c48,10,0,2024-02-28T14:55:35.773Z,english_128.wav,0,peel,152,24,4,5,Français,Féminin,2,0.2,-54.10958419,1.55278382
60c750fa33e03bdaeae60c48,10,0,2024-02-28T14:55:35.773Z,english_128.wav,0,peel,152,24,4,5,Français,Féminin,3,0.3,-34.3976761,1.27447121
60c750fa33e03bdaeae60c48,10,0,2024-02-28T14:55:35.773Z,english_128.wav,0,peel,152,24,4,5,Français,Féminin,4,0.4,-80.35189368,1.24533025
60c750fa33e03bdaeae60c48,10,0,2024-02-28T14:55:35.773Z,english_128.wav,0,peel,152,24,4,5,Français,Féminin,5,0.5,-23.21922247,0.40128709
60c750fa33e03bdaeae60c48,10,0,2024-02-28T14:55:35.773Z,english_128.wav,0,peel,152,24,4,5,Français,Féminin,6,0.6,75.93285278,1.08908342
60c750fa33e03bdaeae60c48,10,0,2024-02-28T14:55:35.773Z,english_128.wav,0,peel,152,24,4,5,Français,Féminin,7,0.7,-25.01230628,1.52248699
60c750fa33e03bdaeae60c48,10,0,2024-02-28T14:55:35.773Z,english_128.wav,0,peel,152,24,4,5,Français,Féminin,8,0.8,23.78207095,1.64911831
60c750fa33e03bdaeae60c48,10,0,2024-02-28T14:55:35.773Z,english_128.wav,0,peel,152,24,4,5,Français,Féminin,9,0.9,-74.87827882,0.03473392
60c750fa33e03bdaeae60c48,10,0,2024-02-28T14:55:35.773Z,english_128.wav,0,peel,152,24,4,5,Français,Féminin,10,1.0,74.39346852,1.99892406
60c750fa33e03bdaeae60c48,10,0,2024-02-28T14:55:35.773Z,english_128.wav,0,peel,152,24,4,5,Français,Féminin,11,1.09391667,30.71976897,1.56565298
60c750fa33e03bdaeae60c48,11,0,2024-02-28T14:55:35.773Z,english_127.wav,0,pill,90,24,4,5,Français,Féminin,0,0.0,-97.90087244,0.58111051
60c750fa33e03bdaeae60c48,11,0,2024-02-28T14:55:35.773Z,english_127.wav,0,pill,90,24,4,5,Français,Féminin,1,0.1,-36.95796642,1.98466344
60c750fa33e03bdaeae60c48,11,0,2024-02-28T14:55:35.773Z,english_127.wav,0,pill,90,24,4,5,Français,Féminin,2,0.2,33.65056974,0.66246338
60c750fa33e03bdaeae60c48,11,0,2024-02-28T14:55:35.773Z,english_127.wav,0,pill,90,24,4,5,Français,Féminin,3,0.3,-19.85406453,0.15661461
60c750fa33e03bdaeae60c48,11,0,2024-02-28T14:55:35.773Z,english_127.wav,0,pill,90,24,4,5,Français,Féminin,4,0.4,-42.6348027,1.74661521
60c750fa33e03bdaeae60c48,11,0,2024-02-28T14:55:35.773Z,english_127.wav,0,pill,90,24,4,5,Français,Féminin,5,0.5,-56.79071689,1.58365522
60c750fa33e03bdaeae60c48,11,0,2024-02-28T14:55:35.773Z,english_127.wav,0,pill,90,24,4,5,Français,Féminin,6,0.6,-5.36842737,0.14537305
60c750fa33e03bdaeae60c48,11,0,2024-02-28T14:55:35.773Z,english_127.wav,0,pill,90,24,4,5,Français,Féminin,7,0.7,-65.17730662,1.46904529
60c750fa33e03bdaeae60c48,11,0,2024-02-28T14:55:35.773Z,english_127.wav,0,pill,90,24,4,5,Français,Féminin,8,0.8,55.11157095,1.23944377
60c750fa33e03bdaeae60c48,11,0,2024-02-28T14:55:35.773Z,english_127.wav,0,pill,90,24,4,5,Français,Féminin,9,0.9,-6.91901103,1.93001672
60c750fa33e03bdaeae60c48,11,0,2024-02-28T14:55:35.773Z,english_127.wav,0,pill,90,24,4,5,Français,Féminin,10,1.0,32.26051644,0.93435528
60c750fa33e03bdaeae60c48,11,0,2024-02-28T14:55:35.773Z,english_127.wav,0,pill,90,24,4,5,Français,Féminin,11,1.09391667,51.54181068,1.6531459
60c750fa33e03bdaeae60c48,12,0,2024-02-28T14:55:35.773Z,english_333.wav,0,pill,245,24,4,5,Français,Féminin,0,0.0,-77.09264939,1.23191038
60c750fa33e03bdaeae60c48,12,0,2024-02-28T14:55:35.773Z,english_333.wav,0,pill,245,24,4,5,Français,Féminin,1,0.1,-5.78875624,1.45836537
60c750fa33e03bdaeae60c48,12,0,2024-02-28T14:55:35.773Z,english_333.wav,0,pill,245,24,4,5,Français,Féminin,2,0.2,-83.87680905,1.0531546
60c750fa33e03bdaeae60c48,12,0,2024-02-28T14:55:35.773Z,english_333.wav,0,pill,245,24,4,5,Français,Féminin,3,0.3,28.79088839,0.44111738
60c750fa33e03bdaeae60c48,12,0,2024-02-28T14:55:35.773Z,english_333.wav,0,pill,245,24,4,5,Français,Féminin,4,0.4,-8.31834177,1.38984954
60c750fa33e03bdaeae60c48,12,0,2024-02-28T14:55:35.773Z,english_333.wav,0,pill,245,24,4,5,Français,Féminin,5,0.5,-89.41834338,0.9205918
60c750fa33e03bdaeae60c48,12,0,2024-02-28T14:55:35.773Z,english_333.wav,0,pill,245,24,4,5,Français,Féminin,6,0.6,26.9852541,0.41991315
60c750fa33e03bdaeae60c48,12,0,2024-02-28T14:55:35.773Z,english_333.wav,0,pill,245,24,4,5,Français,Féminin,7,0.7,33.61847072,1.33278744
60c750fa33e03bdaeae60c48,12,0,2024-02-28T14:55:35.773Z,english_333.wav,0,pill,245,24,4,5,Français,Féminin,8,0.8,46.07239873,1.39586389
60c750fa33e03bdaeae60c48,12,0,2024-02-28T14:55:35.773Z,english_333.wav,0,pill,245,24,4,5,Français,Féminin,9,0.9,28.18917884,1.14407521
60c750fa33e03bdaeae60c48,12,0,2024-02-28T14:55:35.773Z,english_333.wav,0,pill,245,24,4,5,Français,Féminin,10,1.0,-44.50200932,1.34818546
60c750fa33e03bdaeae60c48,12,0,2024-02-28T14:55:35.773Z,english_333.wav,0,pill,245,24,4,5,Français,Féminin,11,1.09391667,47.37913403,0.31125762
60c750fa33e03bdaeae60c48,13,0,2024-02-28T14:55:35.773Z,english_231.wav,0,peel,518,24,4,5,Français,Féminin,0,0.0,-62.2179541,1.81174186
60c750fa33e03bdaeae60c48,13,0,2024-02-28T14:55:35.773Z,english_231.wav,0,peel,518,24,4,5,Français,Féminin,1,0.1,-68.5873809,1.83025058
60c750fa33e03bdaeae60c48,13,0,2024-02-28T14:55:35.773Z,english_231.wav,0,peel,518,24,4,5,Français,Féminin,2,0.2,-23.63984274,0.80354138
60c750fa33e03bdaeae60c48,13,0,2024-02-28T14:55:35.773Z,english_231.wav,0,peel,518,24,4,5,Français,Féminin,3,0.3,-33.31819394,1.41218614
60c750fa33e03bdaeae60c48,13,0,2024-02-28T14:55:35.773Z,english_231.wav,0,peel,518,24,4,5,Français,Féminin,4,0.4,73.10663902,0.69584773
60c750fa33e03bdaeae60c48,13,0,2024-02-28T14:55:35.773Z,english_231.wav,0,peel,518,24,4,5,Français,Féminin,5,0.5,-43.5142123,0.95321477
60c750fa33e03bdaeae60c48,13,0,2024-02-28T14:55:35.773Z,english_231.wav,0,peel,518,24,4,5,Français,Féminin,6,0.6,31.90774571,1.60478776
60c750fa33e03bdaeae60c48,13,0,2024-02-28T14:55:35.773Z,english_231.wav,0,peel,518,24,4,5,Français,Féminin,7,0.7,86.22472646,0.79586742
60c750fa33e03bdaeae60c48,13,0,2024-02-28T14:55:35.773Z,english_231.wav,0,peel,518,24,4,5,Français,Féminin,8,0.8,-71.54568586,1.11798483
60c750fa33e03bdaeae60c48,13,0,2024-02-28T14:55:35.773Z,english_231.wav,0,peel,518,24,4,5,Français,Féminin,9,0.9,72.93187179,1.7522781
60c750fa33e03bdaeae60c48,13,0,2024-02-28T14:55:35.773Z,english_231.wav,0,peel,518,24,4,5,Français,Féminin,10,1.0,29.12885345,0.47731109
60c750fa33e03bdaeae60c48,13,0,2024-02-28T14:55:35.773Z,english_231.wav,0,peel,518,24,4,5,Français,Féminin,11,1.09391667,-28.38876841,0.90269173
60c750fa33e03bdaeae60c48,14,0,2024-02-28T14:55:35.773Z,english_232.wav,0,pill,427,24,4,5,Français,Féminin,0,0.0,-26.51940276,0.21059611
60c750fa33e03bdaeae60c48,14,0,2024-02-28T14:55:35.773Z,english_232.wav,0,pill,427,24,4,5,Français,Féminin,1,0.1,80.97161113,0.68519171
60c750fa33e03bdaeae60c48,14,0,2024-02-28T14:55:35.773Z,english_232.wav,0,pill,427,24,4,5,Français,Féminin,2,0.2,-59.14883297,1.41170079
60c750fa33e03bdaeae60c48,14,0,2024-02-28T14:55:35.773Z,english_232.wav,0,pill,427,24,4,5,Français,Féminin,3,0.3,25.03200804,1.73443495
60c750fa33e03bdaeae60c48,14,0,2024-02-28T14:55:35.773Z,english_232.wav,0,pill,427,24,4,5,Français,Féminin,4,0.4,20.05380764,0.29201417
60c750fa33e03bdaeae60c48,14,0,2024-02-28T14:55:35.773Z,english_232.wav,0,pill,427,24,4,5,Français,Féminin,5,0.5,56.28196281,0.54790335
60c750fa33e03bdaeae60c48,14,0,2024-02-28T14:55:35.773Z,english_232.wav,0,pill,427,24,4,5,Français,Féminin,6,0.6,50.47197961,1.77444553
60c750fa33e03bdaeae60c48,14,0,2024-02-28T14:55:35.773Z,english_232.wav,0,pill,427,24,4,5,Français,Féminin,7,0.7,52.11037309,1.99008741
60c750fa33e03bdaeae60c48,14,0,2024-02-28T14:55:35.773Z,english_232.wav,0,pill,427,24,4,5,Français,Féminin,8,0.8,88.23327143,0.74569824
60c750fa33e03bdaeae60c48,14,0,2024-02-28T14:55:35.773Z,english_232.wav,0,pill,427,24,4,5,Français,Féminin,9,0.9,37.32869559,0.18993344
60c750fa33e03bdaeae60c48,14,0,2024-02-28T14:55:35.773Z,english_232.wav,0,pill,427,24,4,5,Français,Féminin,10,1.0,-23.53745861,0.72085595
60c750fa33e03bdaeae60c48,14,0,2024-02-28T14:55:35.773Z,english_232.wav,0,pill,427,24,4,5,Français,Féminin,11,1.09391667,93.83220457,1.92388819
60c750fa33e03bdaeae60c48,15,0,2024-02-28T14:55:35.773Z,english_509.wav,0,pill,761,24,4,5,Français,Féminin,0,0.0,-60.47633283,1.8433091
60c750fa33e03bdaeae60c48,15,0,2024-02-28T14:55:35.773Z,english_509.wav,0,pill,761,24,4,5,Français,Féminin,1,0.1,62.43182062,0.67753575
60c750fa33e03bdaeae60c48,15,0,2024-02-28T14:55:35.773Z,english_509.wav,0,pill,761,24,4,5,Français,Féminin,2,0.2,-89.10254598,0.6228286
60c750fa33e03bdaeae60c48,15,0,2024-02-28T14:55:35.773Z,english_509.wav,0,pill,761,24,4,5,Français,Féminin,3,0.3,-56.00324349,1.20175852
60c750fa33e03bdaeae60c48,15,0,2024-02-28T14:55:35.773Z,english_509.wav,0,pill,761,24,4,5,Français,Féminin,4,0.4,-22.97503075,0.68327781
60c750fa33e03bdaeae60c48,15,0,2024-02-28T14:55:35.773Z,english_509.wav,0,pill,761,24,4,5,Français,Féminin,5,0.5,-10.58010289,1.6981399
60c750fa33e03bdaeae60c48,15,0,2024-02-28T14:55:35.773Z,english_509.wav,0,pill,761,24,4,5,Français,Féminin,6,0.6,41.52809509,1.77808046
60c750fa33e03bdaeae60c48,15,0,2024-02-28T14:55:35.773Z,english_509.wav,0,pill,761,24,4,5,Français,Féminin,7,0.7,11.42336317,0.9915964
60c750fa33e03bdaeae60c48,15,0,2024-02-28T14:55:35.773Z,english_509.wav,0,pill,761,24,4,5,Français,Féminin,8,0.8,-33.49389875,1.58247003
60c750fa33e03bdaeae60c48,15,0,2024-02-28T14:55:35.773Z,english_509.wav,0,pill,761,24,4,5,Français,Féminin,9,0.9,-76.54160855,0.51702523
60c750fa33e03bdaeae60c48,15,0,2024-02-28T14:55:35.773Z,english_509.wav,0,pill,761,24,4,5,Français,Féminin,10,1.0,67.53120636,1.67242009
60c750fa33e03bdaeae60c48,15,0,2024-02-28T14:55:35.773Z,english_509.wav,0,pill,761,24,4,5,Français,Féminin,11,1.09391667,52.42137891,0.41732509
60c750fa33e03bdaeae60c48,16,0,2024-02-28T14:55:35.773Z,english_815.wav,0,peel,840,24,4,5,Français,Féminin,0,0.0,13.37098153,0.8883119
60c750fa33e03bdaeae60c48,16,0,2024-02-28T14:55:35.773Z,english_815.wav,0,peel,840,24,4,5,Français,Féminin,1,0.1,65.78624278,0.67980941
60c750fa33e03bdaeae60c48,16,0,2024-02-28T14:55:35.773Z,english_815.wav,0,peel,840,24,4,5,Français,Féminin,2,0.2,66.40667823,0.95780133
60c750fa33e03bdaeae60c48,16,0,2024-02-28T14:55:35.773Z,english_815.wav,0,peel,840,24,4,5,Français,Féminin,3,0.3,-44.62639189,1.51398111
60c750fa33e03bdaeae60c48,16,0,2024-02-28T14:55:35.773Z,english_815.wav,0,peel,840,24,4,5,Français,Féminin,4,0.4,-51.75725077,1.4565051
60c750fa33e03bdaeae60c48,16,0,2024-02-28T14:55:35.773Z,english_815.wav,0,peel,840,24,4,5,Français,Féminin,5,0.5,-79.21957107,0.83683567
60c750fa33e03bdaeae60c48,16,0,2024-02-28T14:55:35.773Z,english_815.wav,0,peel,840,24,4,5,Français,Féminin,6,0.6,-56.86584236,0.38900819
60c750fa33e03bdaeae60c48,16,0,2024-02-28T14:55:35.773Z,english_815.wav,0,peel,840,24,4,5,Français,Féminin,7,0.7,42.29244477,1.92415526
60c750fa33e03bdaeae60c48,16,0,2024-02-28T14:55:35.773Z,english_815.wav,0,peel,840,24,4,5,Français,Féminin,8,0.8,-94.28545135,0.30571249
60c750fa33e03bdaeae60c48,16,0,2024-02-28T14:55:35.773Z,english_815.wav,0,peel,840,24,4,5,Français,Féminin,9,0.9,-14.77734417,0.35189603
60c750fa33e03bdaeae60c48,16,0,2024-02-28T14:55:35.773Z,english_815.wav,0,peel,840,24,4,5,Français,Féminin,10,1.0,55.50770682,0.8512317
60c750fa33e03bdaeae60c48,16,0,2024-02-28T14:55:35.773Z,english_815.wav,0,peel,840,24,4,5,Français,Féminin,11,1.09391667,3.0451597,1.01865879
60c750fa33e03bdaeae60c48,17,0,2024-02-28T14:55:35.773Z,english_276.wav,0,peel,636,24,4,5,Français,Féminin,0,0.0,21.98586045,0.30932428
60c750fa33e03bdaeae60c48,17,0,2024-02-28T14:55:35.773Z,english_276.wav,0,peel,636,24,4,5,Français,Féminin,1,0.1,-67.99860163,0.09597304
60c750fa33e03bdaeae60c48,17,0,2024-02-28T14:55:35.773Z,english_276.wav,0,peel,636,24,4,5,Français,Féminin,2,0.2,25.17256123,1.83076822
60c750fa33e03bdaeae60c48,17,0,2024-02-28T14:55:35.773Z,english_276.wav,0,peel,636,24,4,5,Français,Féminin,3,0.3,21.36527348,0.0831707
60c750fa33e03bdaeae60c48,17,0,2024-02-28T14:55:35.773Z,english_276.wav,0,peel,636,24,4,5,Français,Féminin,4,0.4,35.76600766,1.62200671
60c750fa33e03bdaeae60c48,17,0,2024-02-28T14:55:35.773Z,english_276.wav,0,peel,636,24,4,5,Français,Féminin,5,0.5,-7.15376156,1.09615837
60c750fa33e03bdaeae60c48,17,0,2024-02-28T14:55:35.773Z,english_276.wav,0,peel,636,24,4,5,Français,Féminin,6,0.6,6.29513946,1.21666569
60c750fa33e03bdaeae60c48,17,0,2024-02-28T14:55:35.773Z,english_276.wav,0,peel,636,24,4,5,Français,Féminin,7,0.7,-54.12906392,0.44734549
60c750fa33e03bdaeae60c48,17,0,2024-02-28T14:55:35.773Z,english_276.wav,0,peel,636,24,4,5,Français,Féminin,8,0.8,17.42972017,0.42974841
60c750fa33e03bdaeae60c48,17,0,2024-02-28T14:55:35.773Z,english_276.wav,0,peel,636,24,4,5,Français,Féminin,9,0.9,4.25119531,0.69082029
60c750fa33e03bdaeae60c48,17,0,2024-02-28T14:55:35.773Z,english_276.wav,0,peel,636,24,4,5,Français,Féminin,10,1.0,-8.01806671,1.55074446
60c750fa33e03bdaeae60c48,17,0,2024-02-28T14:55:35.773Z,english_276.wav,0,peel,636,24,4,5,Français,Féminin,11,1.09391667,17.7867456,1.15912049
60c750fa33e03bdaeae60c48,18,0,2024-02-28T14:55:35.773Z,english_499.wav,0,pill,1167,24,4,5,Français,Féminin,0,0.0,-7.75302897,0.29368166
60c750fa33e03bdaeae60c48,18,0,2024-02-28T14:55:35.773Z,english_499.wav,0,pill,1167,24,4,5,Français,Féminin,1,0.1,23.88086762,1.58141682
60c750fa33e03bdaeae60c48,18,0,2024-02-28T14:55:35.773Z,english_499.wav,0,pill,1167,24,4,5,Français,Féminin,2,0.2,-0.54854112,0.68322719
60c750fa33e03bdaeae60c48,18,0,2024-02-28T14:55:35.773Z,english_499.wav,0,pill,1167,24,4,5,Français,Féminin,3,0.3,11.38417001,1.0607803
60c750fa33e03bdaeae60c48,18,0,2024-02-28T14:55:35.773Z,english_499.wav,0,pill,1167,24,4,5,Français,Féminin,4,0.4,76.48373601,0.5459371
60c750fa33e03bdaeae60c48,18,0,2024-02-28T14:55:35.773Z,english_499.wav,0,pill,1167,24,4,5,Français,Féminin,5,0.5,34.68075028,1.82829661
60c750fa33e03bdaeae60c48,18,0,2024-02-28T14:55:35.773Z,english_499.wav,0,pill,1167,24,4,5,Français,Féminin,6,0.6,-14.34298834,1.23009433
60c750fa33e03bdaeae60c48,18,0,2024-02-28T14:55:35.773Z,english_499.wav,0,pill,1167,24,4,5,Français,Féminin,7,0.7,26.82043511,1.38131853
60c750fa33e03bdaeae60c48,18,0,2024-02-28T14:55:35.773Z,english_499.wav,0,pill,1167,24,4,5,Français,Féminin,8,0.8,60.32593039,0.45099226
60c750fa33e03bdaeae60c48,18,0,2024-02-28T14:55:35.773Z,english_499.wav,0,pill,1167,24,4,5,Français,Féminin,9,0.9,-38.40765739,1.79672484
60c750fa33e03bdaeae60c48,18,0,2024-02-28T14:55:35.773Z,english_499.wav,0,pill,1167,24,4,5,Français,Féminin,10,1.0,7.55243951,0.11050545
60c750fa33e03bdaeae60c48,18,0,2024-02-28T14:55:35.773Z,english_499.wav,0,pill,1167,24,4,5,Français,Féminin,11,1.09391667,-96.29085545,0.98124995
60c750fa33e03bdaeae60c48,19,0,2024-02-28T14:55:35.773Z,english_345.wav,0,peel,677,24,4,5,Français,Féminin,0,0.0,-34.02990991,1.8609144
60c750fa33e03bdaeae60c48,19,0,2024-02-28T14:55:35.773Z,english_345.wav,0,peel,677,24,4,5,Français,Féminin,1,0.1,-88.27975281,1.48233205
60c750fa33e03bdaeae60c48,19,0,2024-02-28T14:55:35.773Z,english_345.wav,0,peel,677,24,4,5,Français,Féminin,2,0.2,-1.56807316,0.71166641
60c750fa33e03bdaeae60c48,19,0,2024-02-28T14:55:35.773Z,english_345.wav,0,peel,677,24,4,5,Français,Féminin,3,0.3,-28.98585365,0.21699581
60c750fa33e03bdaeae60c48,19,0,2024-02-28T14:55:35.773Z,english_345.wav,0,peel,677,24,4,5,Français,Féminin,4,0.4,83.28491736,1.65978529
60c750fa33e03bdaeae60c48,19,0,2024-02-28T14:55:35.773Z,english_345.wav,0,peel,677,24,4,5,Français,Féminin,5,0.5,-16.11421398,0.84551922
60c750fa33e03bdaeae60c48,19,0,2024-02-28T14:55:35.773Z,english_345.wav,0,peel,677,24,4,5,Français,Féminin,6,0.6,-92.22378926,0.60808254
60c750fa33e03bdaeae60c48,19,0,2024-02-28T14:55:35.773Z,english_345.wav,0,peel,677,24,4,5,Français,Féminin,7,0.7,50.09737337,1.24136652
60c750fa33e03bdaeae60c48,19,0,2024-02-28T14:55:35.773Z,english_345.wav,0,peel,677,24,4,5,Français,Féminin,8,0.8,11.89135809,0.61250032
60c750fa33e03bdaeae60c48,19,0,2024-02-28T14:55:35.773Z,english_345.wav,0,peel,677,24,4,5,Français,Féminin,9,0.9,86.57873929,0.42246236
60c750fa33e03bdaeae60c48,19,0,2024-02-28T14:55:35.773Z,english_345.wav,0,peel,677,24,4,5,Français,Féminin,10,1.0,15.84417261,0.8731046
60c750fa33e03bdaeae60c48,19,0,2024-02-28T14:55:35.773Z,english_345.wav,0,peel,677,24,4,5,Français,Féminin,11,1.09391667,22.95884771,1.62586913
60c750fa33e03bdaeae60c48,20,0,2024-02-28T14:55:35.773Z,english_972.wav,0,pill,1020,24,4,5,Français,Féminin,0,0.0,-23.39425143,1.25085973
60c750fa33e03bdaeae60c48,20,0,2024-02-28T14:55:35.773Z,english_972.wav,0,pill,1020,24,4,5,Français,Féminin,1,0.1,35.85055319,1.0698884
60c750fa33e03bdaeae60c48,20,0,2024-02-28T14:55:35.773Z,english_972.wav,0,pill,1020,24,4,5,Français,Féminin,2,0.2,67.19735569,1.90990051
60c750fa33e03bdaeae60c48,20,0,2024-02-28T14:55:35.773Z,english_972.wav,0,pill,1020,24,4,5,Français,Féminin,3,0.3,-48.3142237,1.50553478
60c750fa33e03bdaeae60c48,20,0,2024-02-28T14:55:35.773Z,english_972.wav,0,pill,1020,24,4,5,Français,Féminin,4,0.4,98.37530376,1.59397111
60c750fa33e03bdaeae60c48,20,0,2024-02-28T14:55:35.773Z,english_972.wav,0,pill,1020,24,4,5,Français,Féminin,5,0.5,49.57162288,0.74863955
60c750fa33e03bdaeae60c48,20,0,2024-02-28T14:55:35.773Z,english_972.wav,0,pill,1020,24,4,5,Français,Féminin,6,0.6,57.60699349,0.82823128
60c750fa33e03bdaeae60c48,20,0,2024-02-28T14:55:35.773Z,english_972.wav,0,pill,1020,24,4,5,Français,Féminin,7,0.7,-63.06687642,0.17780137
60c750fa33e03bdaeae60c48,20,0,2024-02-28T14:55:35.773Z,english_972.wav,0,pill,1020,24,4,5,Français,Féminin,8,0.8,66.62148397,0.09555814
60c750fa33e03bdaeae60c48,20,0,2024-02-28T14:55:35.773Z,english_972.wav,0,pill,1020,24,4,5,Français,Féminin,9,0.9,25.13322135,1.59117444
60c750fa33e03bdaeae60c48,20,0,2024-02-28T14:55:35.773Z,english_972.wav,0,pill,1020,24,4,5,Français,Féminin,10,1.0,-29.0922144,1.44799229
60c750fa33e03bdaeae60c48,20,0,2024-02-28T14:55:35.773Z,english_972.wav,0,pill,1020,24,4,5,Français,Féminin,11,1.09391667,-22.18125143,1.21058423
60c750fa33e03bdaeae60c48,21,0,2024-02-28T14:55:35.773Z,english_284.wav,0,peel,1210,24,4,5,Français,Féminin,0,0.0,-64.32327457,0.91308262
60c750fa33e03bdaeae60c48,21,0,2024-02-28T14:55:35.773Z,english_284.wav,0,peel,1210,24,4,5,Français,Féminin,1,0.1,-67.89025783,0.76791564
60c750fa33e03bdaeae60c48,21,0,2024-02-28T14:55:35.773Z,english_284.wav,0,peel,1210,24,4,5,Français,Féminin,2,0.2,63.39804367,0.83095971
60c750fa33e03bdaeae60c48,21,0,2024-02-28T14:55:35.773Z,english_284.wav,0,peel,1210,24,4,5,Français,Féminin,3,0.3,-47.8895651,1.79742446
60c750fa33e03bdaeae60c48,21,0,2024-02-28T14:55:35.773Z,english_284.wav,0,peel,1210,24,4,5,Français,Féminin,4,0.4,27.68105964,1.18503846
60c750fa33e03bdaeae60c48,21,0,2024-02-28T14:55:35.773Z,english_284.wav,0,peel,1210,24,4,5,Français,Féminin,5,0.5,58.35244252,1.29913938
60c750fa33e03bdaeae60c48,21,0,2024-02-28T14:55:35.773Z,english_284.wav,0,peel,1210,24,4,5,Français,Féminin,6,0.6,-24.74070708,1.72192785
60c750fa33e03bdaeae60c48,21,0,2024-02-28T14:55:35.773Z,english_284.wav,0,peel,1210,24,4,5,Français,Féminin,7,0.7,-82.19387926,1.7387844
60c750fa33e03bdaeae60c48,21,0,2024-02-28T14:55:35.773Z,english_284.wav,0,peel,1210,24,4,5,Français,Féminin,8,0.8,-97.32479033,1.05930336
60c750fa33e03bdaeae60c48,21,0,2024-02-28T14:55:35.773Z,english_284.wav,0,peel,1210,24,4,5,Français,Féminin,9,0.9,99.46728609,0.10150249
60c750fa33e03bdaeae60c48,21,0,2024-02-28T14:55:35.773Z,english_284.wav,0,peel,1210,24,4,5,Français,Féminin,10,1.0,-92.70862536,0.67687392
60c750fa33e03bdaeae60c48,21,0,2024-02-28T14:55:35.773Z,english_284.wav,0,peel,1210,24,4,5,Français,Féminin,11,1.09391667,47.98339035,1.83996488
60c750fa33e03bdaeae60c48,22,0,2024-02-28T14:55:35.773Z,english_728.wav,0,pill,438,24,4,5,Français,Féminin,0,0.0,86.97428458,1.28134459
60c750fa33e03bdaeae60c48,22,0,2024-02-28T14:55:35.773Z,english_728.wav,0,pill,438,24,4,5,Français,Féminin,1,0.1,68.85214371,0.92040862
60c750fa33e03bdaeae60c48,22,0,2024-02-28T14:55:35.773Z,english_728.wav,0,pill,438,24,4,5,Français,Féminin,2,0.2,-97.98565906,0.75536346
60c750fa33e03bdaeae60c48,22,0,2024-02-28T14:55:35.773Z,english_728.wav,0,pill,438,24,4,5,Français,Féminin,3,0.3,35.07930547,1.26670058
60c750fa33e03bdaeae60c48,22,0,2024-02-28T14:55:35.773Z,english_728.wav,0,pill,438,24,4,5,Français,Féminin,4,0.4,-30.18374109,0.22005976
60c750fa33e03bdaeae60c48,22,0,2024-02-28T14:55:35.773Z,english_728.wav,0,pill,438,24,4,5,Français,Féminin,5,0.5,-82.66469876,1.42168107
60c750fa33e03bdaeae60c48,22,0,2024-02-28T14:55:35.773Z,english_728.wav,0,pill,438,24,4,5,Français,Féminin,6,0.6,23.39578652,1.49957944
60c750fa33e03bdaeae60c48,22,0,2024-02-28T14:55:35.773Z,english_728.wav,0,pill,438,24,4,5,Français,Féminin,7,0.7,26.21600665,0.84685957
60c750fa33e03bdaeae60c48,22,0,2024-02-28T14:55:35.773Z,english_728.wav,0,pill,438,24,4,5,Français,Féminin,8,0.8,40.56146868,0.54890831
60c750fa33e03bdaeae60c48,22,0,2024-02-28T14:55:35.773Z,english_728.wav,0,pill,438,24,4,5,Français,Féminin,9,0.9,8.84190716,1.06754414
60c750fa33e03bdaeae60c48,22,0,2024-02-28T14:55:35.773Z,english_728.wav,0,pill,438,24,4,5,Français,Féminin,10,1.0,42.34962336,0.96376908
60c750fa33e03bdaeae60c48,22,0,2024-02-28T14:55:35.773Z,english_728.wav,0,pill,438,24,4,5,Français,Féminin,11,1.09391667,-32.07226286,0.10029528
60c750fa33e03bdaeae60c48,23,0,2024-02-28T14:55:35.773Z,english_498.wav,0,pill,378,24,4,5,Français,Féminin,0,0.0,43.98055184,1.94722798
60c750fa33e03bdaeae60c48,23,0,2024-02-28T14:55:35.773Z,english_498.wav,0,pill,378,24,4,5,Français,Féminin,1,0.1,91.3545984,1.93048351
60c750fa33e03bdaeae60c48,23,0,2024-02-28T14:55:35.773Z,english_498.wav,0,pill,378,24,4,5,Français,Féminin,2,0.2,-25.91563113,0.27240706
60c750fa33e03bdaeae60c48,23,0,2024-02-28T14:55:35.773Z,english_498.wav,0,pill,378,24,4,5,Français,Féminin,3,0.3,-14.96140851,1.06623965
60c750fa33e03bdaeae60c48,23,0,2024-02-28T14:55:35.773Z,english_498.wav,0,pill,378,24,4,5,Français,Féminin,4,0.4,-8.05824247,1.41558656
60c750fa33e03bdaeae60c48,23,0,2024-02-28T14:55:35.773Z,english_498.wav,0,pill,378,24,4,5,Français,Féminin,5,0.5,-61.63888891,0.26700347
60c750fa33e03bdaeae60c48,23,0,2024-02-28T14:55:35.773Z,english_498.wav,0,pill,378,24,4,5,Français,Féminin,6,0.6,37.86658664,0.54434522
60c750fa33e03bdaeae60c48,23,0,2024-02-28T14:55:35.773Z,english_498.wav,0,pill,378,24,4,5,Français,Féminin,7,0.7,-97.52325855,0.79258737
60c750fa33e03bdaeae60c48,23,0,2024-02-28T14:55:35.773Z,english_498.wav,0,pill,378,24,4,5,Français,Féminin,8,0.8,-16.03910224,1.13417158
60c750fa33e03bdaeae60c48,23,0,2024-02-28T14:55:35.773Z,english_498.wav,0,pill,378,24,4,5,Français,Féminin,9,0.9,83.25609208,0.68565339
60c750fa33e03bdaeae60c48,23,0,2024-02-28T14:55:35.773Z,english_498.wav,0,pill,378,24,4,5,Français,Féminin,10,1.0,-65.28300381,0.73020294
60c750fa33e03bdaeae60c48,23,0,2024-02-28T14:55:35.773Z,english_498.wav,0,pill,378,24,4,5,Français,Féminin,11,1.09391667,38.04109912,1.48505369
60c750fa33e03bdaeae60c48,24,0,2024-02-28T14:55:35.773Z,english_753.wav,0,peel,463,24,4,5,Français,Féminin,0,0.0,-37.70671017,1.74884561
60c750fa33e03bdaeae60c48,24,0,2024-02-28T14:55:35.773Z,english_753.wav,0,peel,463,24,4,5,Français,Féminin,1,0.1,-51.92629572,0.91942072
60c750fa33e03bdaeae60c48,24,0,2024-02-28T14:55:35.773Z,english_753.wav,0,peel,463,24,4,5,Français,Féminin,2,0.2,93.98068105,1.59964549
60c750fa33e03bdaeae60c48,24,0,2024-02-28T14:55:35.773Z,english_753.wav,0,peel,463,24,4,5,Français,Féminin,3,0.3,-51.39932121,1.12825203
60c750fa33e03bdaeae60c48,24,0,2024-02-28T14:55:35.773Z,english_753.wav,0,peel,463,24,4,5,Français,Féminin,4,0.4,95.80116655,1.21219761
60c750fa33e03bdaeae60c48,24,0,2024-02-28T14:55:35.773Z,english_753.wav,0,peel,463,24,4,5,Français,Féminin,5,0.5,54.2507311,1.26026343
60c750fa33e03bdaeae60c48,24,0,2024-02-28T14:55:35.773Z,english_753.wav,0,peel,463,24,4,5,Français,Féminin,6,0.6,20.30160244,1.5757537
60c750fa33e03bdaeae60c48,24,0,2024-02-28T14:55:35.773Z,english_753.wav,0,peel,463,24,4,5,Français,Féminin,7,0.7,55.46646904,0.16664365
60c750fa33e03bdaeae60c48,24,0,2024-02-28T14:55:35.773Z,english_753.wav,0,peel,463,24,4,5,Français,Féminin,8,0.8,-44.46613041,1.11726469
60c750fa33e03bdaeae60c48,24,0,2024-02-28T14:55:35.773Z,english_753.wav,0,peel,463,24,4,5,Français,Féminin,9,0.9,32.26226525,1.53816652
60c750fa33e03bdaeae60c48,24,0,2024-02-28T14:55:35.773Z,english_753.wav,0,peel,463,24,4,5,Français,Féminin,10,1.0,94.05472838,0.62126972
60c750fa33e03bdaeae60c48,24,0,2024-02-28T14:55:35.773Z,english_753.wav,0,peel,463,24,4,5,Français,Féminin,11,1.09391667,42.98878145,0.46411799
60c750fa33e03bdaeae60c48,25,0,2024-02-28T14:55:35.773Z,english_549.wav,0,pill,695,24,4,5,Français,Féminin,0,0.0,-35.97957433,1.40923676
60c750fa33e03bdaeae60c48,25,0,2024-02-28T14:55:35.773Z,english_549.wav,0,pill,695,24,4,5,Français,Féminin,1,0.1,-96.77259812,1.19920438
60c750fa33e03bdaeae60c48,25,0,2024-02-28T14:55:35.773Z,english_549.wav,0,pill,695,24,4,5,Français,Féminin,2,0.2,-92.07264472,1.05241403
60c750fa33e03bdaeae60c48,25,0,2024-02-28T14:55:35.773Z,english_549.wav,0,pill,695,24,4,5,Français,Féminin,3,0.3,-16.49421881,0.71571216
60c750fa33e03bdaeae60c48,25,0,2024-02-28T14:55:35.773Z,english_549.wav,0,pill,695,24,4,5,Français,Féminin,4,0.4,-35.51287809,1.54934791
60c750fa33e03bdaeae60c48,25,0,2024-02-28T14:55:35.773Z,english_549.wav,0,pill,695,24,4,5,Français,Féminin,5,0.5,40.31804664,1.46509975
60c750fa33e03bdaeae60c48,25,0,2024-02-28T14:55:35.773Z,english_549.wav,0,pill,695,24,4,5,Français,Féminin,6,0.6,-0.60755502,0.37894541
60c750fa33e03bdaeae60c48,25,0,2024-02-28T14:55:35.773Z,english_549.wav,0,pill,695,24,4,5,Français,Féminin,7,0.7,-79.63380358,1.07940095
60c750fa33e03bdaeae60c48,25,0,2024-02-28T14:55:35.773Z,english_549.wav,0,pill,695,24,4,5,Français,Féminin,8,0.8,41.85833645,1.81599169
60c750fa33e03bdaeae60c48,25,0,2024-02-28T14:55:35.773Z,english_549.wav,0,pill,695,24,4,5,Français,Féminin,9,0.9,47.12305504,1.82911987
60c750fa33e03bdaeae60c48,25,0,2024-02-28T14:55:35.773Z,english_549.wav,0,pill,695,24,4,5,Français,Féminin,10,1.0,28.29283857,1.58342339
60c750fa33e03bdaeae60c48,25,0,2024-02-28T14:55:35.773Z,english_549.wav,0,pill,695,24,4,5,Français,Féminin,11,1.09391667,39.2346499,1.63101791
60c750fa33e03bdaeae60c48,26,0,2024-02-28T14:55:35.773Z,english_37.wav,0,pill,880,24,4,5,Français,Féminin,0,0.0,68.40782596,0.52957209
60c750fa33e03bdaeae60c48,26,0,2024-02-28T14:55:35.773Z,english_37.wav,0,pill,880,24,4,5,Français,Féminin,1,0.1,41.58379148,1.67320718
60c750fa33e03bdaeae60c48,26,0,2024-02-28T14:55:35.773Z,english_37.wav,0,pill,880,24,4,5,Français,Féminin,2,0.2,63.04378759,1.31144487
60c750fa33e03bdaeae60c48,26,0,2024-02-28T14:55:35.773Z,english_37.wav,0,pill,880,24,4,5,Français,Féminin,3,0.3,12.39470235,1.11254506
60c750fa33e03bdaeae60c48,26,0,2024-02-28T14:55:35.773Z,english_37.wav,0,pill,880,24,4,5,Français,Féminin,4,0.4,-38.69600303,0.57972705
60c750fa33e03bdaeae60c48,26,0,2024-02-28T14:55:35.773Z,english_37.wav,0,pill,880,24,4,5,Français,Féminin,5,0.5,-51.98957982,0.30651039
60c750fa33e03bdaeae60c48,26,0,2024-02-28T14:55:35.773Z,english_37.wav,0,pill,880,24,4,5,Français,Féminin,6,0.6,90.7945682,0.45858619
60c750fa33e03bdaeae60c48,26,0,2024-02-28T14:55:35.773Z,english_37.wav,0,pill,880,24,4,5,Français,Féminin,7,0.7,40.67115675,1.55641423
60c750fa33e03bdaeae60c48,26,0,2024-02-28T14:55:35.773Z,english_37.wav,0,pill,880,24,4,5,Français,Féminin,8,0.8,34.01498334,1.01642962
60c750fa33e03bdaeae60c48,26,0,2024-02-28T14:55:35.773Z,english_37.wav,0,pill,880,24,4,5,Français,Féminin,9,0.9,-88.26662934,0.95850402
60c750fa33e03bdaeae60c48,26,0,2024-02-28T14:55:35.773Z,english_37.wav,0,pill,880,24,4,5,Français,Féminin,10,1.0,-41.35685221,0.70833558
60c750fa33e03bdaeae60c48,26,0,2024-02-28T14:55:35.773Z,english_37.wav,0,pill,880,24,4,5,Français,Féminin,11,1.09391667,-27.43470179,0.55678167
60c750fa33e03bdaeae60c48,27,0,2024-02-28T14:55:35.773Z,english_303.wav,0,peel,909,24,4,5,Français,Féminin,0,0.0,0.14016308,1.85835187
60c750fa33e03bdaeae60c48,27,0,2024-02-28T14:55:35.773Z,english_303.wav,0,peel,909,24,4,5,Français,Féminin,1,0.1,-44.5758284,0.39450132
60c750fa33e03bdaeae60c48,27,0,2024-02-28T14:55:35.773Z,english_303.wav,0,peel,909,24,4,5,Français,Féminin,2,0.2,40.18240402,0.24238742
60c750fa33e03bdaeae60c48,27,0,2024-02-28T14:55:35.773Z,english_303.wav,0,peel,909,24,4,5,Français,Féminin,3,0.3,-39.07989996,0.56764068
60c750fa33e03bdaeae60c48,27,0,2024-02-28T14:55:35.773Z,english_303.wav,0,peel,909,24,4,5,Français,Féminin,4,0.4,67.80800806,1.20233096
60c750fa33e03bdaeae60c48,27,0,2024-02-28T14:55:35.773Z,english_303.wav,0,peel,909,24,4,5,Français,Féminin,5,0.5,17.65490848,0.74682504
60c750fa33e03bdaeae60c48,27,0,2024-02-28T14:55:35.773Z,english_303.wav,0,peel,909,24,4,5,Français,Féminin,6,0.6,58.57137806,1.26635068
60c750fa33e03bdaeae60c48,27,0,2024-02-28T14:55:35.773Z,english_303.wav,0,peel,909,24,4,5,Français,Féminin,7,0.7,-9.36157139,0.78955625
60c750fa33e03bdaeae60c48,27,0,2024-02-28T14:55:35.773Z,english_303.wav,0,peel,909,24,4,5,Français,Féminin,8,0.8,-59.59223338,0.64317534
60c750fa33e03bdaeae60c48,27,0,2024-02-28T14:55:35.773Z,english_303.wav,0,peel,909,24,4,5,Français,Féminin,9,0.9,-85.34182112,0.64803316
60c750fa33e03bdaeae60c48,27,0,2024-02-28T14:55:35.773Z,english_303.wav,0,peel,909,24,4,5,Français,Féminin,10,1.0,98.58496987,0.59787494
60c750fa33e03bdaeae60c48,27,0,2024-02-28T14:55:35.773Z,english_303.wav,0,peel,909,24,4,5,Français,Féminin,11,1.09391667,0.30898467,1.47452335
60c750fa33e03bdaeae60c48,28,0,2024-02-28T14:55:35.773Z,english_662.wav,0,pill,807,24,4,5,Français,Féminin,0,0.0,31.31886637,0.51844492
60c750fa33e03bdaeae60c48,28,0,2024-02-28T14:55:35.773Z,english_662.wav,0,pill,807,24,4,5,Français,Féminin,1,0.1,-45.58012984,1.26337535
60c750fa33e03bdaeae60c48,28,0,2024-02-28T14:55:35.773Z,english_662.wav,0,pill,807,24,4,5,Français,Féminin,2,0.2,-36.67335117,1.47948125
60c750fa33e03bdaeae60c48,28,0,2024-02-28T14:55:35.773Z,english_662.wav,0,pill,807,24,4,5,Français,Féminin,3,0.3,91.68908931,1.54973702
60c750fa33e03bdaeae60c48,28,0,2024-02-28T14:55:35.773Z,english_662.wav,0,pill,807,24,4,5,Français,Féminin,4,0.4,99.42890358,1.40573319
60c750fa33e03bdaeae60c48,28,0,2024-02-28T14:55:35.773Z,english_662.wav,0,pill,807,24,4,5,Français,Féminin,5,0.5,-75.06867948,0.46765036
60c750fa33e03bdaeae60c48,28,0,2024-02-28T14:55:35.773Z,english_662.wav,0,pill,807,24,4,5,Français,Féminin,6,0.6,-53.3060983,1.29577772
60c750fa33e03bdaeae60c48,28,0,2024-02-28T14:55:35.773Z,english_662.wav,0,pill,807,24,4,5,Français,Féminin,7,0.7,66.7707286,1.28176027
60c750fa33e03bdaeae60c48,28,0,2024-02-28T14:55:35.773Z,english_662.wav,0,pill,807,24,4,5,Français,Féminin,8,0.8,69.18702853,1.79426909
60c750fa33e03bdaeae60c48,28,0,2024-02-28T14:55:35.773Z,english_662.wav,0,pill,807,24,4,5,Français,Féminin,9,0.9,-16.72052533,0.76623174
60c750fa33e03bdaeae60c48,28,0,2024-02-28T14:55:35.773Z,english_662.wav,0,pill,807,24,4,5,Français,Féminin,10,1.0,16.50634939,1.90203541
60c750fa33e03bdaeae60c48,28,0,2024-02-28T14:55:35.773Z,english_662.wav,0,pill,807,24,4,5,Français,Féminin,11,1.09391667,79.32738685,1.85204165
60c750fa33e03bdaeae60c48,29,0,2024-02-28T14:55:35.773Z,english_922.wav,0,pill,826,24,4,5,Français,Féminin,0,0.0,61.1700044,0.77397562
60c750fa33e03bdaeae60c48,29,0,2024-02-28T14:55:35.773Z,english_922.wav,0,pill,826,24,4,5,Français,Féminin,1,0.1,82.06984085,1.14937293
60c750fa33e03bdaeae60c48,29,0,2024-02-28T14:55:35.773Z,english_922.wav,0,pill,826,24,4,5,Français,Féminin,2,0.2,-92.27579322,1.03435185
60c750fa33e03bdaeae60c48,29,0,2024-02-28T14:55:35.773Z,english_922.wav,0,pill,826,24,4,5,Français,Féminin,3,0.3,89.90024406,0.69514863
60c750fa33e03bdaeae60c48,29,0,2024-02-28T14:55:35.773Z,english_922.wav,0,pill,826,24,4,5,Français,Féminin,4,0.4,36.91510644,0.29090795
60c750fa33e03bdaeae60c48,29,0,2024-02-28T14:55:35.773Z,english_922.wav,0,pill,826,24,4,5,Français,Féminin,5,0.5,-58.72846655,0.08046627
60c750fa33e03bdaeae60c48,29,0,2024-02-28T14:55:35.773Z,english_922.wav,0,pill,826,24,4,5,Français,Féminin,6,0.6,85.21548547,0.39343329
60c750fa33e03bdaeae60c48,29,0,2024-02-28T14:55:35.773Z,english_922.wav,0,pill,826,24,4,5,Français,Féminin,7,0.7,32.72450866,0.50557621
60c750fa33e03bdaeae60c48,29,0,2024-02-28T14:55:35.773Z,english_922.wav,0,pill,826,24,4,5,Français,Féminin,8,0.8,50.92998004,1.28859728
60c750fa33e03bdaeae60c48,29,0,2024-02-28T14:55:35.773Z,english_922.wav,0,pill,826,24,4,5,Français,Féminin,9,0.9,-26.56973856,0.44286158
60c750fa33e03bdaeae60c48,29,0,2024-02-28T14:55:35.773Z,english_922.wav,0,pill,826,24,4,5,Français,Féminin,10,1.0,-43.37360145,1.43016745
60c750fa33e03bdaeae60c48,29,0,2024-02-28T14:55:35.773Z,english_922.wav,0,pill,826,24,4,5,Français,Féminin,11,1.09391667,-17.2071356,1.42163313
60c750fa33e03bdaeae60c48,30,0,2024-02-28T14:55:35.773Z,english_122.wav,0,pill,375,24,4,5,Français,Féminin,0,0.0,77.3413932,0.58709567
60c750fa33e03bdaeae60c48,30,0,2024-02-28T14:55:35.773Z,english_122.wav,0,pill,375,24,4,5,Français,Féminin,1,0.1,-67.39185751,0.0796985
60c750fa33e03bdaeae60c48,30,0,2024-02-28T14:55:35.773Z,english_122.wav,0,pill,375,24,4,5,Français,Féminin,2,0.2,89.18550357,1.00639024
60c750fa33e03bdaeae60c48,30,0,2024-02-28T14:55:35.773Z,english_122.wav,0,pill,375,24,4,5,Français,Féminin,3,0.3,12.33038367,0.81094575
60c750fa33e03bdaeae60c48,30,0,2024-02-28T14:55:35.773Z,english_122.wav,0,pill,375,24,4,5,Français,Féminin,4,0.4,70.68402371,0.57598842
60c750fa33e03bdaeae60c48,30,0,2024-02-28T14:55:35.773Z,english_122.wav,0,pill,375,24,4,5,Français,Féminin,5,0.5,25.06803156,0.93423984
60c750fa33e03bdaeae60c48,30,0,2024-02-28T14:55:35.773Z,english_122.wav,0,pill,375,24,4,5,Français,Féminin,6,0.6,56.81750659,1.53113092
60c750fa33e03bdaeae60c48,30,0,2024-02-28T14:55:35.773Z,english_122.wav,0,pill,375,24,4,5,Français,Féminin,7,0.7,-43.57912499,1.09738921
60c750fa33e03bdaeae60c48,30,0,2024-02-28T14:55:35.773Z,english_122.wav,0,pill,375,24,4,5,Français,Féminin,8,0.8,-51.88401647,1.34315846
60c750fa33e03bdaeae60c48,30,0,2024-02-28T14:55:35.773Z,english_122.wav,0,pill,375,24,4,5,Français,Féminin,9,0.9,-2.10023036,0.94720038
60c750fa33e03bdaeae60c48,30,0,2024-02-28T14:55:35.773Z,english_122.wav,0,pill,375,24,4,5,Français,Féminin,10,1.0,-47.35507429,1.69772014
60c750fa33e03bdaeae60c48,30,0,2024-02-28T14:55:35.773Z,english_122.wav,0,pill,375,24,4,5,Français,Féminin,11,1.09391667,20.07877732,1.14244601
60c750fa33e03bdaeae60c48,31,0,2024-02-28T14:55:35.773Z,english_730.wav,0,pill,643,24,4,5,Français,Féminin,0,0.0,98.7829688,0.6873965
60c750fa33e03bdaeae60c48,31,0,2024-02-28T14:55:35.773Z,english_730.wav,0,pill,643,24,4,5,Français,Féminin,1,0.1,-67.9329994,0.65236597
60c750fa33e03bdaeae60c48,31,0,2024-02-28T14:55:35.773Z,english_730.wav,0,pill,643,24,4,5,Français,Féminin,2,0.2,-35.4157721,1.04626144
60c750fa33e03bdaeae60c48,31,0,2024-02-28T14:55:35.773Z,english_730.wav,0,pill,643,24,4,5,Français,Féminin,3,0.3,8.75583116,1.65669948
60c750fa33e03bdaeae60c48,31,0,2024-02-28T14:55:35.773Z,english_730.wav,0,pill,643,24,4,5,Français,Féminin,4,0.4,-60.72300086,1.8622585
60c750fa33e03bdaeae60c48,31,0,2024-02-28T14:55:35.773Z,english_730.wav,0,pill,643,24,4,5,Français,Féminin,5,0.5,-43.53238385,1.86205359
60c750fa33e03bdaeae60c48,31,0,2024-02-28T14:55:35.773Z,english_730.wav,0,pill,643,24,4,5,Français,Féminin,6,0.6,7.41942565,1.2731877
60c750fa33e03bdaeae60c48,31,0,2024-02-28T14:55:35.773Z,english_730.wav,0,pill,643,24,4,5,Français,Féminin,7,0.7,-30.23988593,0.2835626
60c750fa33e03bdaeae60c48,31,0,2024-02-28T14:55:35.773Z,english_730.wav,0,pill,643,24,4,5,Français,Féminin,8,0.8,98.85106115,0.42372638
60c750fa33e03bdaeae60c48,31,0,2024-02-28T14:55:35.773Z,english_730.wav,0,pill,643,24,4,5,Français,Féminin,9,0.9,11.8745124,1.35675351
60c750fa33e03bdaeae60c48,31,0,2024-02-28T14:55:35.773Z,english_730.wav,0,pill,643,24,4,5,Français,Féminin,10,1.0,-15.67114445,1.03423815
60c750fa33e03bdaeae60c48,31,0,2024-02-28T14:55:35.773Z,english_730.wav,0,pill,643,24,4,5,Français,Féminin,11,1.09391667,-67.06238252,0.63701046
60c750fa33e03bdaeae60c48,32,0,2024-02-28T14:55:35.773Z,english_233.wav,0,pill,436,24,4,5,Français,Féminin,0,0.0,-12.45233214,1.31283544
60c750fa33e03bdaeae60c48,32,0,2024-02-28T14:55:35.773Z,english_233.wav,0,pill,436,24,4,5,Français,Féminin,1,0.1,-33.20786902,0.09471032
60c750fa33e03bdaeae60c48,32,0,2024-02-28T14:55:35.773Z,english_233.wav,0,pill,436,24,4,5,Français,Féminin,2,0.2,-3.84628349,1.88233627
60c750fa33e03bdaeae60c48,32,0,2024-02-28T14:55:35.773Z,english_233.wav,0,pill,436,24,4,5,Français,Féminin,3,0.3,52.58812425,1.21028248
60c750fa33e03bdaeae60c48,32,0,2024-02-28T14:55:35.773Z,english_233.wav,0,pill,436,24,4,5,Français,Féminin,4,0.4,-82.78729146,0.9101705
60c750fa33e03bdaeae60c48,32,0,2024-02-28T14:55:35.773Z,english_233.wav,0,pill,436,24,4,5,Français,Féminin,5,0.5,-90.93928836,1.74264946
60c750fa33e03bdaeae60c48,32,0,2024-02-28T14:55:35.773Z,english_233.wav,0,pill,436,24,4,5,Français,Féminin,6,0.6,91.49342166,1.34024886
60c750fa33e03bdaeae60c48,32,0,2024-02-28T14:55:35.773Z,english_233.wav,0,pill,436,24,4,5,Français,Féminin,7,0.7,39.27925393,0.33883292
60c750fa33e03bdaeae60c48,32,0,2024-02-28T14:55:35.773Z,english_233.wav,0,pill,436,24,4,5,Français,Féminin,8,0.8,-0.66571259,1.35075989
60c750fa33e03bdaeae60c48,32,0,2024-02-28T14:55:35.773Z,english_233.wav,0,pill,436,24,4,5,Français,Féminin,9,0.9,50.1456693,1.4470152
60c750fa33e03bdaeae60c48,32,0,2024-02-28T14:55:35.773Z,english_233.wav,0,pill,436,24,4,5,Français,Féminin,10,1.0,-6.64277825,1.15231478
60c750fa33e03bdaeae60c48,32,0,2024-02-28T14:55:35.773Z,english_233.wav,0,pill,436,24,4,5,Français,Féminin,11,1.09391667,8.91074874,1.87164883
60c750fa33e03bdaeae60c48,33,0,2024-02-28T14:55:35.773Z,english_403.wav,0,pill,370,24,4,5,Français,Féminin,0,0.0,0.0155370236,1.50775741
60c750fa33e03bdaeae60c48,33,0,2024-02-28T14:55:35.773Z,english_403.wav,0,pill,370,24,4,5,Français,Féminin,1,0.1,-4.64270355,1.88632048
60c750fa33e03bdaeae60c48,33,0,2024-02-28T14:55:35.773Z,english_403.wav,0,pill,370,24,4,5,Français,Féminin,2,0.2,-86.7611077,1.79027228
60c750fa33e03bdaeae60c48,33,0,2024-02-28T14:55:35.773Z,english_403.wav,0,pill,370,24,4,5,Français,Féminin,3,0.3,-86.6854854,0.9708058
60c750fa33e03bdaeae60c48,33,0,2024-02-28T14:55:35.773Z,english_403.wav,0,pill,370,24,4,5,Français,Féminin,4,0.4,-74.3205589,1.26833926
60c750fa33e03bdaeae60c48,33,0,2024-02-28T14:55:35.773Z,english_403.wav,0,pill,370,24,4,5,Français,Féminin,5,0.5,56.1207621,0.98662828
60c750fa33e03bdaeae60c48,33,0,2024-02-28T14:55:35.773Z,english_403.wav,0,pill,370,24,4,5,Français,Féminin,6,0.6,15.0235235,1.65364002
60c750fa33e03bdaeae60c48,33,0,2024-02-28T14:55:35.773Z,english_403.wav,0,pill,370,24,4,5,Français,Féminin,7,0.7,25.8783198,1.52514764
60c750fa33e03bdaeae60c48,33,0,2024-02-28T14:55:35.773Z,english_403.wav,0,pill,370,24,4,5,Français,Féminin,8,0.8,21.3726461,1.10599603
60c750fa33e03bdaeae60c48,33,0,2024-02-28T14:55:35.773Z,english_403.wav,0,pill,370,24,4,5,Français,Féminin,9,0.9,86.9816794,1.01372586
60c750fa33e03bdaeae60c48,33,0,2024-02-28T14:55:35.773Z,english_403.wav,0,pill,370,24,4,5,Français,Féminin,10,1.0,-56.1900631,1.1928159
60c750fa33e03bdaeae60c48,33,0,2024-02-28T14:55:35.773Z,english_403.wav,0,pill,370,24,4,5,Français,Féminin,11,1.09391667,59.2986673,0.36234179
60c750fa33e03bdaeae60c48,34,0,2024-02-28T14:55:35.773Z,english_392.wav,0,pill,745,24,4,5,Français,Féminin,0,0.0,-70.59184809,1.01325522
60c750fa33e03bdaeae60c48,34,0,2024-02-28T14:55:35.773Z,english_392.wav,0,pill,745,24,4,5,Français,Féminin,1,0.1,20.01491038,0.99685804
60c750fa33e03bdaeae60c48,34,0,2024-02-28T14:55:35.773Z,english_392.wav,0,pill,745,24,4,5,Français,Féminin,2,0.2,95.98809517,1.2085184
60c750fa33e03bdaeae60c48,34,0,2024-02-28T14:55:35.773Z,english_392.wav,0,pill,745,24,4,5,Français,Féminin,3,0.3,21.94648666,0.87362666
60c750fa33e03bdaeae60c48,34,0,2024-02-28T14:55:35.773Z,english_392.wav,0,pill,745,24,4,5,Français,Féminin,4,0.4,71.03226698,0.83196355
60c750fa33e03bdaeae60c48,34,0,2024-02-28T14:55:35.773Z,english_392.wav,0,pill,745,24,4,5,Français,Féminin,5,0.5,-27.3636698,1.3261039
60c750fa33e03bdaeae60c48,34,0,2024-02-28T14:55:35.773Z,english_392.wav,0,pill,745,24,4,5,Français,Féminin,6,0.6,41.54107295,0.73205001
60c750fa33e03bdaeae60c48,34,0,2024-02-28T14:55:35.773Z,english_392.wav,0,pill,745,24,4,5,Français,Féminin,7,0.7,55.82041059,1.07805115
60c750fa33e03bdaeae60c48,34,0,2024-02-28T14:55:35.773Z,english_392.wav,0,pill,745,24,4,5,Français,Féminin,8,0.8,-12.2991889,0.81193203
60c750fa33e03bdaeae60c48,34,0,2024-02-28T14:55:35.773Z,english_392.wav,0,pill,745,24,4,5,Français,Féminin,9,0.9,-43.37866007,0.58657928
60c750fa33e03bdaeae60c48,34,0,2024-02-28T14:55:35.773Z,english_392.wav,0,pill,745,24,4,5,Français,Féminin,10,1.0,-72.71846832,1.75756764
60c750fa33e03bdaeae60c48,34,0,2024-02-28T14:55:35.773Z,english_392.wav,0,pill,745,24,4,5,Français,Féminin,11,1.09391667,17.46673253,0.10018242
60c750fa33e03bdaeae60c48,35,0,2024-02-28T14:55:35.773Z,english_103.wav,0,pill,720,24,4,5,Français,Féminin,0,0.0,48.6835233,0.31659488
60c750fa33e03bdaeae60c48,35,0,2024-02-28T14:55:35.773Z,english_103.wav,0,pill,720,24,4,5,Français,Féminin,1,0.1,36.55238137,0.91966706
60c750fa33e03bdaeae60c48,35,0,2024-02-28T14:55:35.773Z,english_103.wav,0,pill,720,24,4,5,Français,Féminin,2,0.2,48.06121709,0.7088313
60c750fa33e03bdaeae60c48,35,0,2024-02-28T14:55:35.773Z,english_103.wav,0,pill,720,24,4,5,Français,Féminin,3,0.3,-53.21418968,0.61655079
60c750fa33e03bdaeae60c48,35,0,2024-02-28T14:55:35.773Z,english_103.wav,0,pill,720,24,4,5,Français,Féminin,4,0.4,-84.49986715,0.3504638
60c750fa33e03bdaeae60c48,35,0,2024-02-28T14:55:35.773Z,english_103.wav,0,pill,720,24,4,5,Français,Féminin,5,0.5,2.274647,0.15173733
60c750fa33e03bdaeae60c48,35,0,2024-02-28T14:55:35.773Z,english_103.wav,0,pill,720,24,4,5,Français,Féminin,6,0.6,65.76169241,0.65986716
60c750fa33e03bdaeae60c48,35,0,2024-02-28T14:55:35.773Z,english_103.wav,0,pill,720,24,4,5,Français,Féminin,7,0.7,-54.56461338,1.01542857
60c750fa33e03bdaeae60c48,35,0,2024-02-28T14:55:35.773Z,english_103.wav,0,pill,720,24,4,5,Français,Féminin,8,0.8,-9.60778265,0.43719066
60c750fa33e03bdaeae60c48,35,0,2024-02-28T14:55:35.773Z,english_103.wav,0,pill,720,24,4,5,Français,Féminin,9,0.9,20.85441667,1.38316606
60c750fa33e03bdaeae60c48,35,0,2024-02-28T14:55:35.773Z,english_103.wav,0,pill,720,24,4,5,Français,Féminin,10,1.0,-75.91935247,1.2339212
60c750fa33e03bdaeae60c48,35,0,2024-02-28T14:55:35.773Z,english_103.wav,0,pill,720,24,4,5,Français,Féminin,11,1.09391667,-89.16544197,1.84830476
60c750fa33e03bdaeae60c48,36,0,2024-02-28T14:55:35.773Z,english_825.wav,0,peel,424,24,4,5,Français,Féminin,0,0.0,64.76464638,1.23145085
60c750fa33e03bdaeae60c48,36,0,2024-02-28T14:55:35.773Z,english_825.wav,0,peel,424,24,4,5,Français,Féminin,1,0.1,-51.3470416,0.79492421
60c750fa33e03bdaeae60c48,36,0,2024-02-28T14:55:35.773Z,english_825.wav,0,peel,424,24,4,5,Français,Féminin,2,0.2,9.90918002,0.48314333
60c750fa33e03bdaeae60c48,36,0,2024-02-28T14:55:35.773Z,english_825.wav,0,peel,424,24,4,5,Français,Féminin,3,0.3,63.24486906,0.28861919
60c750fa33e03bdaeae60c48,36,0,2024-02-28T14:55:35.773Z,english_825.wav,0,peel,424,24,4,5,Français,Féminin,4,0.4,-95.411726,1.05525194
60c750fa33e03bdaeae60c48,36,0,2024-02-28T14:55:35.773Z,english_825.wav,0,peel,424,24,4,5,Français,Féminin,5,0.5,17.77962704,1.51076591
60c750fa33e03bdaeae60c48,36,0,2024-02-28T14:55:35.773Z,english_825.wav,0,peel,424,24,4,5,Français,Féminin,6,0.6,23.26529379,1.04212622
60c750fa33e03bdaeae60c48,36,0,2024-02-28T14:55:35.773Z,english_825.wav,0,peel,424,24,4,5,Français,Féminin,7,0.7,37.62422032,0.64232838
60c750fa33e03bdaeae60c48,36,0,2024-02-28T14:55:35.773Z,english_825.wav,0,peel,424,24,4,5,Français,Féminin,8,0.8,-26.41359823,1.11700907
60c750fa33e03bdaeae60c48,36,0,2024-02-28T14:55:35.773Z,english_825.wav,0,peel,424,24,4,5,Français,Féminin,9,0.9,-38.32396509,1.02326758
60c750fa33e03bdaeae60c48,36,0,2024-02-28T14:55:35.773Z,english_825.wav,0,peel,424,24,4,5,Français,Féminin,10,1.0,63.21192295,0.3631898
60c750fa33e03bdaeae60c48,36,0,2024-02-28T14:55:35.773Z,english_825.wav,0,peel,424,24,4,5,Français,Féminin,11,1.09391667,-24.29267242,1.01931794
60c750fa33e03bdaeae60c48,37,0,2024-02-28T14:55:35.773Z,english_671.wav,0,peel,638,24,4,5,Français,Féminin,0,0.0,-45.93815434,1.42496889
60c750fa33e03bdaeae60c48,37,0,2024-02-28T14:55:35.773Z,english_671.wav,0,peel,638,24,4,5,Français,Féminin,1,0.1,-9.85133236,0.72590703
60c750fa33e03bdaeae60c48,37,0,2024-02-28T14:55:35.773Z,english_671.wav,0,peel,638,24,4,5,Français,Féminin,2,0.2,-90.27584827,0.03582408
60c750fa33e03bdaeae60c48,37,0,2024-02-28T14:55:35.773Z,english_671.wav,0,peel,638,24,4,5,Français,Féminin,3,0.3,-12.62569024,1.95422408
60c750fa33e03bdaeae60c48,37,0,2024-02-28T14:55:35.773Z,english_671.wav,0,peel,638,24,4,5,Français,Féminin,4,0.4,-25.02264323,0.03147383
60c750fa33e03bdaeae60c48,37,0,2024-02-28T14:55:35.773Z,english_671.wav,0,peel,638,24,4,5,Français,Féminin,5,0.5,-73.63967284,1.78242159
60c750fa33e03bdaeae60c48,37,0,2024-02-28T14:55:35.773Z,english_671.wav,0,peel,638,24,4,5,Français,Féminin,6,0.6,-8.12482987,0.44075536
60c750fa33e03bdaeae60c48,37,0,2024-02-28T14:55:35.773Z,english_671.wav,0,peel,638,24,4,5,Français,Féminin,7,0.7,20.3897076,1.76056673
60c750fa33e03bdaeae60c48,37,0,2024-02-28T14:55:35.773Z,english_671.wav,0,peel,638,24,4,5,Français,Féminin,8,0.8,-16.71271092,0.82662657
60c750fa33e03bdaeae60c48,37,0,2024-02-28T14:55:35.773Z,english_671.wav,0,peel,638,24,4,5,Français,Féminin,9,0.9,60.34106396,0.3638046
60c750fa33e03bdaeae60c48,37,0,2024-02-28T14:55:35.773Z,english_671.wav,0,peel,638,24,4,5,Français,Féminin,10,1.0,-65.87673981,0.96822524
60c750fa33e03bdaeae60c48,37,0,2024-02-28T14:55:35.773Z,english_671.wav,0,peel,638,24,4,5,Français,Féminin,11,1.09391667,-90.1963817,0.11003173
60c750fa33e03bdaeae60c48,38,0,2024-02-28T14:55:35.773Z,english_168.wav,0,pill,290,24,4,5,Français,Féminin,0,0.0,-2.82851798,0.84695831
60c750fa33e03bdaeae60c48,38,0,2024-02-28T14:55:35.773Z,english_168.wav,0,pill,290,24,4,5,Français,Féminin,1,0.1,47.00857465,0.31778045
60c750fa33e03bdaeae60c48,38,0,2024-02-28T14:55:35.773Z,english_168.wav,0,pill,290,24,4,5,Français,Féminin,2,0.2,-17.58347791,1.27812293
60c750fa33e03bdaeae60c48,38,0,2024-02-28T14:55:35.773Z,english_168.wav,0,pill,290,24,4,5,Français,Féminin,3,0.3,-13.31715429,0.74038461
60c750fa33e03bdaeae60c48,38,0,2024-02-28T14:55:35.773Z,english_168.wav,0,pill,290,24,4,5,Français,Féminin,4,0.4,32.59893477,0.53430653
60c750fa33e03bdaeae60c48,38,0,2024-02-28T14:55:35.773Z,english_168.wav,0,pill,290,24,4,5,Français,Féminin,5,0.5,97.16584938,0.39836338
60c750fa33e03bdaeae60c48,38,0,2024-02-28T14:55:35.773Z,english_168.wav,0,pill,290,24,4,5,Français,Féminin,6,0.6,-13.44636048,1.18595545
60c750fa33e03bdaeae60c48,38,0,2024-02-28T14:55:35.773Z,english_168.wav,0,pill,290,24,4,5,Français,Féminin,7,0.7,9.9504683,1.40244409
60c750fa33e03bdaeae60c48,38,0,2024-02-28T14:55:35.773Z,english_168.wav,0,pill,290,24,4,5,Français,Féminin,8,0.8,45.41604728,0.07499365
60c750fa33e03bdaeae60c48,38,0,2024-02-28T14:55:35.773Z,english_168.wav,0,pill,290,24,4,5,Français,Féminin,9,0.9,-79.49961867,0.73784136
60c750fa33e03bdaeae60c48,38,0,2024-02-28T14:55:35.773Z,english_168.wav,0,pill,290,24,4,5,Français,Féminin,10,1.0,35.96813383,1.37065847
60c750fa33e03bdaeae60c48,38,0,2024-02-28T14:55:35.773Z,english_168.wav,0,pill,290,24,4,5,Français,Féminin,11,1.09391667,-86.51274139,0.67911571
60c750fa33e03bdaeae60c48,39,0,2024-02-28T14:55:35.773Z,english_183.wav,0,peel,596,24,4,5,Français,Féminin,0,0.0,56.94082111,1.46471885
60c750fa33e03bdaeae60c48,39,0,2024-02-28T14:55:35.773Z,english_183.wav,0,peel,596,24,4,5,Français,Féminin,1,0.1,23.76823823,0.27157125
60c750fa33e03bdaeae60c48,39,0,2024-02-28T14:55:35.773Z,english_183.wav,0,peel,596,24,4,5,Français,Féminin,2,0.2,-72.77208824,0.89995591
60c750fa33e03bdaeae60c48,39,0,2024-02-28T14:55:35.773Z,english_183.wav,0,peel,596,24,4,5,Français,Féminin,3,0.3,-26.01651227,0.86595775
60c750fa33e03bdaeae60c48,39,0,2024-02-28T14:55:35.773Z,english_183.wav,0,peel,596,24,4,5,Français,Féminin,4,0.4,97.95217456,0.99665554
60c750fa33e03bdaeae60c48,39,0,2024-02-28T14:55:35.773Z,english_183.wav,0,peel,596,24,4,5,Français,Féminin,5,0.5,-88.35240054,1.5130978
60c750fa33e03bdaeae60c48,39,0,2024-02-28T14:55:35.773Z,english_183.wav,0,peel,596,24,4,5,Français,Féminin,6,0.6,8.20957713,0.89371921
60c750fa33e03bdaeae60c48,39,0,2024-02-28T14:55:35.773Z,english_183.wav,0,peel,596,24,4,5,Français,Féminin,7,0.7,-0.21457891,0.60499738
60c750fa33e03bdaeae60c48,39,0,2024-02-28T14:55:35.773Z,english_183.wav,0,peel,596,24,4,5,Français,Féminin,8,0.8,-22.50054627,0.6752389
60c750fa33e03bdaeae60c48,39,0,2024-02-28T14:55:35.773Z,english_183.wav,0,peel,596,24,4,5,Français,Féminin,9,0.9,-26.93782132,0.26345185
60c750fa33e03bdaeae60c48,39,0,2024-02-28T14:55:35.773Z,english_183.wav,0,peel,596,24,4,5,Français,Féminin,10,1.0,-9.93952746,0.41919446
60c750fa33e03bdaeae60c48,39,0,2024-02-28T14:55:35.773Z,english_183.wav,0,peel,596,24,4,5,Français,Féminin,11,1.09391667,16.7040789,0.61479122
60c750fa33e03bdaeae60c48,40,0,2024-02-28T14:55:35.773Z,english_334.wav,0,pill,350,24,4,5,Français,Féminin,0,0.0,96.16486857,1.13651221
60c750fa33e03bdaeae60c48,40,0,2024-02-28T14:55:35.773Z,english_334.wav,0,pill,350,24,4,5,Français,Féminin,1,0.1,-86.51500024,1.49269335
60c750fa33e03bdaeae60c48,40,0,2024-02-28T14:55:35.773Z,english_334.wav,0,pill,350,24,4,5,Français,Féminin,2,0.2,-9.37257187,0.61460927
60c750fa33e03bdaeae60c48,40,0,2024-02-28T14:55:35.773Z,english_334.wav,0,pill,350,24,4,5,Français,Féminin,3,0.3,72.06266942,0.5407499
60c750fa33e03bdaeae60c48,40,0,2024-02-28T14:55:35.773Z,english_334.wav,0,pill,350,24,4,5,Français,Féminin,4,0.4,11.10798007,1.09788414
60c750fa33e03bdaeae60c48,40,0,2024-02-28T14:55:35.773Z,english_334.wav,0,pill,350,24,4,5,Français,Féminin,5,0.5,-81.04621106,1.18897069
60c750fa33e03bdaeae60c48,40,0,2024-02-28T14:55:35.773Z,english_334.wav,0,pill,350,24,4,5,Français,Féminin,6,0.6,-50.80034191,1.05502288
60c750fa33e03bdaeae60c48,40,0,2024-02-28T14:55:35.773Z,english_334.wav,0,pill,350,24,4,5,Français,Féminin,7,0.7,40.96771285,1.84226931
60c750fa33e03bdaeae60c48,40,0,2024-02-28T14:55:35.773Z,english_334.wav,0,pill,350,24,4,5,Français,Féminin,8,0.8,92.51105292,0.15122728
60c750fa33e03bdaeae60c48,40,0,2024-02-28T14:55:35.773Z,english_334.wav,0,pill,350,24,4,5,Français,Féminin,9,0.9,6.87694398,1.31717853
60c750fa33e03bdaeae60c48,40,0,2024-02-28T14:55:35.773Z,english_334.wav,0,pill,350,24,4,5,Français,Féminin,10,1.0,8.2337815,0.71137381
60c750fa33e03bdaeae60c48,40,0,2024-02-28T14:55:35.773Z,english_334.wav,0,pill,350,24,4,5,Français,Féminin,11,1.09391667,-26.51950547,0.47666491
60c750fa33e03bdaeae60c48,41,0,2024-02-28T14:55:35.773Z,english_847.wav,0,pill,610,24,4,5,Français,Féminin,0,0.0,-73.89717539,1.8490528
60c750fa33e03bdaeae60c48,41,0,2024-02-28T14:55:35.773Z,english_847.wav,0,pill,610,24,4,5,Français,Féminin,1,0.1,58.2279035,0.78071375
60c750fa33e03bdaeae60c48,41,0,2024-02-28T14:55:35.773Z,english_847.wav,0,pill,610,24,4,5,Français,Féminin,2,0.2,-6.95336522,0.52277753
60c750fa33e03bdaeae60c48,41,0,2024-02-28T14:55:35.773Z,english_847.wav,0,pill,610,24,4,5,Français,Féminin,3,0.3,-22.95480777,0.58053559
60c750fa33e03bdaeae60c48,41,0,2024-02-28T14:55:35.773Z,english_847.wav,0,pill,610,24,4,5,Français,Féminin,4,0.4,52.90135008,1.88784757
60c750fa33e03bdaeae60c48,41,0,2024-02-28T14:55:35.773Z,english_847.wav,0,pill,610,24,4,5,Français,Féminin,5,0.5,-46.75765643,0.24672534
60c750fa33e03bdaeae60c48,41,0,2024-02-28T14:55:35.773Z,english_847.wav,0,pill,610,24,4,5,Français,Féminin,6,0.6,30.49472427,0.03480907
60c750fa33e03bdaeae60c48,41,0,2024-02-28T14:55:35.773Z,english_847.wav,0,pill,610,24,4,5,Français,Féminin,7,0.7,-69.71037967,1.27028129
60c750fa33e03bdaeae60c48,41,0,2024-02-28T14:55:35.773Z,english_847.wav,0,pill,610,24,4,5,Français,Féminin,8,0.8,-58.62690345,0.5771855
60c750fa33e03bdaeae60c48,41,0,2024-02-28T14:55:35.773Z,english_847.wav,0,pill,610,24,4,5,Français,Féminin,9,0.9,-33.68489601,1.71334453
60c750fa33e03bdaeae60c48,41,0,2024-02-28T14:55:35.773Z,english_847.wav,0,pill,610,24,4,5,Français,Féminin,10,1.0,-73.6486263,0.92032767
60c750fa33e03bdaeae60c48,41,0,2024-02-28T14:55:35.773Z,english_847.wav,0,pill,610,24,4,5,Français,Féminin,11,1.09391667,-82.9712864,0.36606921
60c750fa33e03bdaeae60c48,42,0,2024-02-28T14:55:35.773Z,english_145.wav,0,pill,989,24,4,5,Français,Féminin,0,0.0,33.46233159,0.5633393
60c750fa33e03bdaeae60c48,42,0,2024-02-28T14:55:35.773Z,english_145.wav,0,pill,989,24,4,5,Français,Féminin,1,0.1,-61.60936231,1.7411418
60c750fa33e03bdaeae60c48,42,0,2024-02-28T14:55:35.773Z,english_145.wav,0,pill,989,24,4,5,Français,Féminin,2,0.2,77.17787096,1.3932683
60c750fa33e03bdaeae60c48,42,0,2024-02-28T14:55:35.773Z,english_145.wav,0,pill,989,24,4,5,Français,Féminin,3,0.3,52.31633647,0.64008683
60c750fa33e03bdaeae60c48,42,0,2024-02-28T14:55:35.773Z,english_145.wav,0,pill,989,24,4,5,Français,Féminin,4,0.4,50.97764834,0.69845382
60c750fa33e03bdaeae60c48,42,0,2024-02-28T14:55:35.773Z,english_145.wav,0,pill,989,24,4,5,Français,Féminin,5,0.5,94.06594582,1.78155535
60c750fa33e03bdaeae60c48,42,0,2024-02-28T14:55:35.773Z,english_145.wav,0,pill,989,24,4,5,Français,Féminin,6,0.6,-40.82786952,0.94197467
60c750fa33e03bdaeae60c48,42,0,2024-02-28T14:55:35.773Z,english_145.wav,0,pill,989,24,4,5,Français,Féminin,7,0.7,-67.26734542,0.64900441
60c750fa33e03bdaeae60c48,42,0,2024-02-28T14:55:35.773Z,english_145.wav,0,pill,989,24,4,5,Français,Féminin,8,0.8,59.11900107,1.89522637
60c750fa33e03bdaeae60c48,42,0,2024-02-28T14:55:35.773Z,english_145.wav,0,pill,989,24,4,5,Français,Féminin,9,0.9,-56.17437001,0.96282543
60c750fa33e03bdaeae60c48,42,0,2024-02-28T14:55:35.773Z,english_145.wav,0,pill,989,24,4,5,Français,Féminin,10,1.0,-15.19613378,0.73054996
60c750fa33e03bdaeae60c48,42,0,2024-02-28T14:55:35.773Z,english_145.wav,0,pill,989,24,4,5,Français,Féminin,11,1.09391667,90.15311402,0.69896131
60c750fa33e03bdaeae60c48,43,0,2024-02-28T14:55:35.773Z,english_307.wav,0,pill,523,24,4,5,Français,Féminin,0,0.0,4.09277184,1.54634017
60c750fa33e03bdaeae60c48,43,0,2024-02-28T14:55:35.773Z,english_307.wav,0,pill,523,24,4,5,Français,Féminin,1,0.1,-55.10651609,1.62042314
60c750fa33e03bdaeae60c48,43,0,2024-02-28T14:55:35.773Z,english_307.wav,0,pill,523,24,4,5,Français,Féminin,2,0.2,40.66104674,0.53651735
60c750fa33e03bdaeae60c48,43,0,2024-02-28T14:55:35.773Z,english_307.wav,0,pill,523,24,4,5,Français,Féminin,3,0.3,25.01631041,1.3289867
60c750fa33e03bdaeae60c48,43,0,2024-02-28T14:55:35.773Z,english_307.wav,0,pill,523,24,4,5,Français,Féminin,4,0.4,-83.19534886,1.20481488
60c750fa33e03bdaeae60c48,43,0,2024-02-28T14:55:35.773Z,english_307.wav,0,pill,523,24,4,5,Français,Féminin,5,0.5,50.47121196,0.91135424
60c750fa33e03bdaeae60c48,43,0,2024-02-28T14:55:35.773Z,english_307.wav,0,pill,523,24,4,5,Français,Féminin,6,0.6,-23.06520129,0.34154344
60c750fa33e03bdaeae60c48,43,0,2024-02-28T14:55:35.773Z,english_307.wav,0,pill,523,24,4,5,Français,Féminin,7,0.7,6.60696351,0.77838965
60c750fa33e03bdaeae60c48,43,0,2024-02-28T14:55:35.773Z,english_307.wav,0,pill,523,24,4,5,Français,Féminin,8,0.8,32.78812168,1.52188148
60c750fa33e03bdaeae60c48,43,0,2024-02-28T14:55:35.773Z,english_307.wav,0,pill,523,24,4,5,Français,Féminin,9,0.9,-29.8510749,1.3469183
60c750fa33e03bdaeae60c48,43,0,2024-02-28T14:55:35.773Z,english_307.wav,0,pill,523,24,4,5,Français,Féminin,10,1.0,-51.20036712,0.11286505
60c750fa33e03bdaeae60c48,43,0,2024-02-28T14:55:35.773Z,english_307.wav,0,pill,523,24,4,5,Français,Féminin,11,1.09391667,-34.31103599,1.9894596
60c750fa33e03bdaeae60c48,44,0,2024-02-28T14:55:35.773Z,english_94.wav,0,peel,933,24,4,5,Français,Féminin,0,0.0,-69.13613192,0.71683615
60c750fa33e03bdaeae60c48,44,0,2024-02-28T14:55:35.773Z,english_94.wav,0,peel,933,24,4,5,Français,Féminin,1,0.1,-53.91573564,1.64130178
60c750fa33e03bdaeae60c48,44,0,2024-02-28T14:55:35.773Z,english_94.wav,0,peel,933,24,4,5,Français,Féminin,2,0.2,88.54569891,1.41561382
60c750fa33e03bdaeae60c48,44,0,2024-02-28T14:55:35.773Z,english_94.wav,0,peel,933,24,4,5,Français,Féminin,3,0.3,47.91558238,0.72478091
60c750fa33e03bdaeae60c48,44,0,2024-02-28T14:55:35.773Z,english_94.wav,0,peel,933,24,4,5,Français,Féminin,4,0.4,46.13883045,1.21480875
60c750fa33e03bdaeae60c48,44,0,2024-02-28T14:55:35.773Z,english_94.wav,0,peel,933,24,4,5,Français,Féminin,5,0.5,0.71209955,0.13058063
60c750fa33e03bdaeae60c48,44,0,2024-02-28T14:55:35.773Z,english_94.wav,0,peel,933,24,4,5,Français,Féminin,6,0.6,53.89774049,1.07607775
60c750fa33e03bdaeae60c48,44,0,2024-02-28T14:55:35.773Z,english_94.wav,0,peel,933,24,4,5,Français,Féminin,7,0.7,37.22112319,0.10112022
60c750fa33e03bdaeae60c48,44,0,2024-02-28T14:55:35.773Z,english_94.wav,0,peel,933,24,4,5,Français,Féminin,8,0.8,8.13348347,0.91343474
60c750fa33e03bdaeae60c48,44,0,2024-02-28T14:55:35.773Z,english_94.wav,0,peel,933,24,4,5,Français,Féminin,9,0.9,-10.35793642,0.77751528
60c750fa33e03bdaeae60c48,44,0,2024-02-28T14:55:35.773Z,english_94.wav,0,peel,933,24,4,5,Français,Féminin,10,1.0,75.25647247,0.57088528
60c750fa33e03bdaeae60c48,44,0,2024-02-28T14:55:35.773Z,english_94.wav,0,peel,933,24,4,5,Français,Féminin,11,1.09391667,-70.34686187,0.98841109
60c750fa33e03bdaeae60c48,45,0,2024-02-28T14:55:35.773Z,english_419.wav,0,pill,298,24,4,5,Français,Féminin,0,0.0,-43.56677124,1.2135263
60c750fa33e03bdaeae60c48,45,0,2024-02-28T14:55:35.773Z,english_419.wav,0,pill,298,24,4,5,Français,Féminin,1,0.1,-83.21546868,0.41335372
60c750fa33e03bdaeae60c48,45,0,2024-02-28T14:55:35.773Z,english_419.wav,0,pill,298,24,4,5,Français,Féminin,2,0.2,-41.54064667,1.17083651
60c750fa33e03bdaeae60c48,45,0,2024-02-28T14:55:35.773Z,english_419.wav,0,pill,298,24,4,5,Français,Féminin,3,0.3,-35.81330599,0.87264028
60c750fa33e03bdaeae60c48,45,0,2024-02-28T14:55:35.773Z,english_419.wav,0,pill,298,24,4,5,Français,Féminin,4,0.4,-43.55129097,0.34128763
60c750fa33e03bdaeae60c48,45,0,2024-02-28T14:55:35.773Z,english_419.wav,0,pill,298,24,4,5,Français,Féminin,5,0.5,-33.79077662,1.24788402
60c750fa33e03bdaeae60c48,45,0,2024-02-28T14:55:35.773Z,english_419.wav,0,pill,298,24,4,5,Français,Féminin,6,0.6,70.44881048,0.43489623
60c750fa33e03bdaeae60c48,45,0,2024-02-28T14:55:35.773Z,english_419.wav,0,pill,298,24,4,5,Français,Féminin,7,0.7,3.24826562,0.29781148
60c750fa33e03bdaeae60c48,45,0,2024-02-28T14:55:35.773Z,english_419.wav,0,pill,298,24,4,5,Français,Féminin,8,0.8,34.80296655,1.73156921
60c750fa33e03bdaeae60c48,45,0,2024-02-28T14:55:35.773Z,english_419.wav,0,pill,298,24,4,5,Français,Féminin,9,0.9,-7.36062238,1.52997649
60c750fa33e03bdaeae60c48,45,0,2024-02-28T14:55:35.773Z,english_419.wav,0,pill,298,24,4,5,Français,Féminin,10,1.0,41.00092789,0.32887005
60c750fa33e03bdaeae60c48,45,0,2024-02-28T14:55:35.773Z,english_419.wav,0,pill,298,24,4,5,Français,Féminin,11,1.09391667,-17.62948534,0.83665111
60c750fa33e03bdaeae60c48,46,0,2024-02-28T14:55:35.773Z,english_100.wav,0,pill,670,24,4,5,Français,Féminin,0,0.0,-24.42637315,0.62540921
60c750fa33e03bdaeae60c48,46,0,2024-02-28T14:55:35.773Z,english_100.wav,0,pill,670,24,4,5,Français,Féminin,1,0.1,47.77288594,1.22625666
60c750fa33e03bdaeae60c48,46,0,2024-02-28T14:55:35.773Z,english_100.wav,0,pill,670,24,4,5,Français,Féminin,2,0.2,-50.36782497,1.26348183
60c750fa33e03bdaeae60c48,46,0,2024-02-28T14:55:35.773Z,english_100.wav,0,pill,670,24,4,5,Français,Féminin,3,0.3,2.2842979,0.25528387
60c750fa33e03bdaeae60c48,46,0,2024-02-28T14:55:35.773Z,english_100.wav,0,pill,670,24,4,5,Français,Féminin,4,0.4,-15.6809061,0.91288523
60c750fa33e03bdaeae60c48,46,0,2024-02-28T14:55:35.773Z,english_100.wav,0,pill,670,24,4,5,Français,Féminin,5,0.5,12.92206519,1.75475855
60c750fa33e03bdaeae60c48,46,0,2024-02-28T14:55:35.773Z,english_100.wav,0,pill,670,24,4,5,Français,Féminin,6,0.6,58.2816769,1.62969237
60c750fa33e03bdaeae60c48,46,0,2024-02-28T14:55:35.773Z,english_100.wav,0,pill,670,24,4,5,Français,Féminin,7,0.7,48.23099815,0.00541247
60c750fa33e03bdaeae60c48,46,0,2024-02-28T14:55:35.773Z,english_100.wav,0,pill,670,24,4,5,Français,Féminin,8,0.8,-72.65138159,0.94746335
60c750fa33e03bdaeae60c48,46,0,2024-02-28T14:55:35.773Z,english_100.wav,0,pill,670,24,4,5,Français,Féminin,9,0.9,22.56578389,0.25544392
60c750fa33e03bdaeae60c48,46,0,2024-02-28T14:55:35.773Z,english_100.wav,0,pill,670,24,4,5,Français,Féminin,10,1.0,5.8175855,1.63729526
60c750fa33e03bdaeae60c48,46,0,2024-02-28T14:55:35.773Z,english_100.wav,0,pill,670,24,4,5,Français,Féminin,11,1.09391667,54.85953581,1.97415754
60c750fa33e03bdaeae60c48,47,0,2024-02-28T14:55:35.773Z,english_881.wav,0,peel,513,24,4,5,Français,Féminin,0,0.0,-6.48543923,0.68458474
60c750fa33e03bdaeae60c48,47,0,2024-02-28T14:55:35.773Z,english_881.wav,0,peel,513,24,4,5,Français,Féminin,1,0.1,52.42470042,1.23345655
60c750fa33e03bdaeae60c48,47,0,2024-02-28T14:55:35.773Z,english_881.wav,0,peel,513,24,4,5,Français,Féminin,2,0.2,27.22865134,1.03441451
60c750fa33e03bdaeae60c48,47,0,2024-02-28T14:55:35.773Z,english_881.wav,0,peel,513,24,4,5,Français,Féminin,3,0.3,-26.12053543,0.51926044
60c750fa33e03bdaeae60c48,47,0,2024-02-28T14:55:35.773Z,english_881.wav,0,peel,513,24,4,5,Français,Féminin,4,0.4,80.9200248,1.84993398
60c750fa33e03bdaeae60c48,47,0,2024-02-28T14:55:35.773Z,english_881.wav,0,peel,513,24,4,5,Français,Féminin,5,0.5,91.13618142,0.2782437
60c750fa33e03bdaeae60c48,47,0,2024-02-28T14:55:35.773Z,english_881.wav,0,peel,513,24,4,5,Français,Féminin,6,0.6,72.82749112,1.43037542
60c750fa33e03bdaeae60c48,47,0,2024-02-28T14:55:35.773Z,english_881.wav,0,peel,513,24,4,5,Français,Féminin,7,0.7,4.61309193,1.82353332
60c750fa33e03bdaeae60c48,47,0,2024-02-28T14:55:35.773Z,english_881.wav,0,peel,513,24,4,5,Français,Féminin,8,0.8,6.14992629,1.39771107
60c750fa33e03bdaeae60c48,47,0,2024-02-28T14:55:35.773Z,english_881.wav,0,peel,513,24,4,5,Français,Féminin,9,0.9,-73.40306534,0.81234613
60c750fa33e03bdaeae60c48,47,0,2024-02-28T14:55:35.773Z,english_881.wav,0,peel,513,24,4,5,Français,Féminin,10,1.0,-18.81910787,0.47215555
60c750fa33e03bdaeae60c48,47,0,2024-02-28T14:55:35.773Z,english_881.wav,0,peel,513,24,4,5,Français,Féminin,11,1.09391667,-70.65652208,1.77841719
60c750fa33e03bdaeae60c48,48,0,2024-02-28T14:55:35.773Z,english_676.wav,0,pill,1240,24,4,5,Français,Féminin,0,0.0,77.23951032,1.33259474
60c750fa33e03bdaeae60c48,48,0,2024-02-28T14:55:35.773Z,english_676.wav,0,pill,1240,24,4,5,Français,Féminin,1,0.1,27.47427545,0.90028372
60c750fa33e03bdaeae60c48,48,0,2024-02-28T14:55:35.773Z,english_676.wav,0,pill,1240,24,4,5,Français,Féminin,2,0.2,92.07370265,1.66717955
60c750fa33e03bdaeae60c48,48,0,2024-02-28T14:55:35.773Z,english_676.wav,0,pill,1240,24,4,5,Français,Féminin,3,0.3,-39.62602007,0.42158585
60c750fa33e03bdaeae60c48,48,0,2024-02-28T14:55:35.773Z,english_676.wav,0,pill,1240,24,4,5,Français,Féminin,4,0.4,-81.22107243,1.7878255
60c750fa33e03bdaeae60c48,48,0,2024-02-28T14:55:35.773Z,english_676.wav,0,pill,1240,24,4,5,Français,Féminin,5,0.5,-99.04707649,1.33780608
60c750fa33e03bdaeae60c48,48,0,2024-02-28T14:55:35.773Z,english_676.wav,0,pill,1240,24,4,5,Français,Féminin,6,0.6,-64.5180536,0.94548991
60c750fa33e03bdaeae60c48,48,0,2024-02-28T14:55:35.773Z,english_676.wav,0,pill,1240,24,4,5,Français,Féminin,7,0.7,91.29392748,1.43207041
60c750fa33e03bdaeae60c48,48,0,2024-02-28T14:55:35.773Z,english_676.wav,0,pill,1240,24,4,5,Français,Féminin,8,0.8,97.8635705,1.03085722
60c750fa33e03bdaeae60c48,48,0,2024-02-28T14:55:35.773Z,english_676.wav,0,pill,1240,24,4,5,Français,Féminin,9,0.9,-84.2423741,0.34895699
60c750fa33e03bdaeae60c48,48,0,2024-02-28T14:55:35.773Z,english_676.wav,0,pill,1240,24,4,5,Français,Féminin,10,1.0,-76.68596269,0.83720355
60c750fa33e03bdaeae60c48,48,0,2024-02-28T14:55:35.773Z,english_676.wav,0,pill,1240,24,4,5,Français,Féminin,11,1.09391667,65.10857552,1.31764415
60c750fa33e03bdaeae60c48,49,0,2024-02-28T14:55:35.773Z,english_43.wav,0,peel,1339,24,4,5,Français,Féminin,0,0.0,35.0853305,0.26027887
60c750fa33e03bdaeae60c48,49,0,2024-02-28T14:55:35.773Z,english_43.wav,0,peel,1339,24,4,5,Français,Féminin,1,0.1,-82.31052455,0.68956967
60c750fa33e03bdaeae60c48,49,0,2024-02-28T14:55:35.773Z,english_43.wav,0,peel,1339,24,4,5,Français,Féminin,2,0.2,-87.01844832,1.59168544
60c750fa33e03bdaeae60c48,49,0,2024-02-28T14:55:35.773Z,english_43.wav,0,peel,1339,24,4,5,Français,Féminin,3,0.3,35.19386066,0.50064201
60c750fa33e03bdaeae60c48,49,0,2024-02-28T14:55:35.773Z,english_43.wav,0,peel,1339,24,4,5,Français,Féminin,4,0.4,-6.50663416,1.69386915
60c750fa33e03bdaeae60c48,49,0,2024-02-28T14:55:35.773Z,english_43.wav,0,peel,1339,24,4,5,Français,Féminin,5,0.5,-43.93611532,1.13933047
60c750fa33e03bdaeae60c48,49,0,2024-02-28T14:55:35.773Z,english_43.wav,0,peel,1339,24,4,5,Français,Féminin,6,0.6,-73.49805581,1.51065435
60c750fa33e03bdaeae60c48,49,0,2024-02-28T14:55:35.773Z,english_43.wav,0,peel,1339,24,4,5,Français,Féminin,7,0.7,65.62731204,0.46562499
60c750fa33e03bdaeae60c48,49,0,2024-02-28T14:55:35.773Z,english_43.wav,0,peel,1339,24,4,5,Français,Féminin,8,0.8,-40.13292878,1.37756628
60c750fa33e03bdaeae60c48,49,0,2024-02-28T14:55:35.773Z,english_43.wav,0,peel,1339,24,4,5,Français,Féminin,9,0.9,-82.04161205,0.8121578
60c750fa33e03bdaeae60c48,49,0,2024-02-28T14:55:35.773Z,english_43.wav,0,peel,1339,24,4,5,Français,Féminin,10,1.0,51.94207196,0.36046396
60c750fa33e03bdaeae60c48,49,0,2024-02-28T14:55:35.773Z,english_43.wav,0,peel,1339,24,4,5,Français,Féminin,11,1.09391667,-30.06023569,0.31346917
60c750fa33e03bdaeae60c48,50,1,2024-02-28T14:58:05.715Z,english_265.wav,0,pill,426,24,4,5,Français,Féminin,0,0.0,37.99619851,0.51044294
60c750fa33e03bdaeae60c48,50,1,2024-02-28T14:58:05.715Z,english_265.wav,0,pill,426,24,4,5,Français,Féminin,1,0.1,92.08310578,1.10850201
60c750fa33e03bdaeae60c48,50,1,2024-02-28T14:58:05.715Z,english_265.wav,0,pill,426,24,4,5,Français,Féminin,2,0.2,-93.31608335,1.81697716
60c750fa33e03bdaeae60c48,50,1,2024-02-28T14:58:05.715Z,english_265.wav,0,pill,426,24,4,5,Français,Féminin,3,0.3,-28.1732534,0.4401458
60c750fa33e03bdaeae60c48,50,1,2024-02-28T14:58:05.715Z,english_265.wav,0,pill,426,24,4,5,Français,Féminin,4,0.4,91.25662543,1.00027347
60c750fa33e03bdaeae60c48,50,1,2024-02-28T14:58:05.715Z,english_265.wav,0,pill,426,24,4,5,Français,Féminin,5,0.5,-3.3980371,0.61680146
60c750fa33e03bdaeae60c48,50,1,2024-02-28T14:58:05.715Z,english_265.wav,0,pill,426,24,4,5,Français,Féminin,6,0.6,95.45543469,0.45035358
60c750fa33e03bdaeae60c48,50,1,2024-02-28T14:58:05.715Z,english_265.wav,0,pill,426,24,4,5,Français,Féminin,7,0.7,61.34311925,0.66686517
60c750fa33e03bdaeae60c48,50,1,2024-02-28T14:58:05.715Z,english_265.wav,0,pill,426,24,4,5,Français,Féminin,8,0.8,9.18146154,0.25031529
60c750fa33e03bdaeae60c48,50,1,2024-02-28T14:58:05.715Z,english_265.wav,0,pill,426,24,4,5,Français,Féminin,9,0.9,-39.71464373,1.2364051
60c750fa33e03bdaeae60c48,50,1,2024-02-28T14:58:05.715Z,english_265.wav,0,pill,426,24,4,5,Français,Féminin,10,1.0,67.37466109,0.23430361
60c750fa33e03bdaeae60c48,50,1,2024-02-28T14:58:05.715Z,english_265.wav,0,pill,426,24,4,5,Français,Féminin,11,1.09391667,-37.66383284,1.07797595
60c750fa33e03bdaeae60c48,51,1,2024-02-28T14:58:05.715Z,english_966.wav,0,pill,1127,24,4,5,Français,Féminin,0,0.0,-96.91789055,1.23686614
60c750fa33e03bdaeae60c48,51,1,2024-02-28T14:58:05.715Z,english_966.wav,0,pill,1127,24,4,5,Français,Féminin,1,0.1,-64.86850103,0.67188965
60c750fa33e03bdaeae60c48,51,1,2024-02-28T14:58:05.715Z,english_966.wav,0,pill,1127,24,4,5,Français,Féminin,2,0.2,-43.92628472,0.33271907
60c750fa33e03bdaeae60c48,51,1,2024-02-28T14:58:05.715Z,english_966.wav,0,pill,1127,24,4,5,Français,Féminin,3,0.3,-93.7136214,1.62713329
60c750fa33e03bdaeae60c48,51,1,2024-02-28T14:58:05.715Z,english_966.wav,0,pill,1127,24,4,5,Français,Féminin,4,0.4,-57.14902712,1.49154652
60c750fa33e03bdaeae60c48,51,1,2024-02-28T14:58:05.715Z,english_966.wav,0,pill,1127,24,4,5,Français,Féminin,5,0.5,-12.68506719,1.31520623
60c750fa33e03bdaeae60c48,51,1,2024-02-28T14:58:05.715Z,english_966.wav,0,pill,1127,24,4,5,Français,Féminin,6,0.6,-15.43922669,0.20724492
60c750fa33e03bdaeae60c48,51,1,2024-02-28T14:58:05.715Z,english_966.wav,0,pill,1127,24,4,5,Français,Féminin,7,0.7,24.10386484,0.13137995
60c750fa33e03bdaeae60c48,51,1,2024-02-28T14:58:05.715Z,english_966.wav,0,pill,1127,24,4,5,Français,Féminin,8,0.8,3.35646026,1.15134967
60c750fa33e03bdaeae60c48,51,1,2024-02-28T14:58:05.715Z,english_966.wav,0,pill,1127,24,4,5,Français,Féminin,9,0.9,88.24028536,0.75921019
60c750fa33e03bdaeae60c48,51,1,2024-02-28T14:58:05.715Z,english_966.wav,0,pill,1127,24,4,5,Français,Féminin,10,1.0,-32.39213993,0.67670762
60c750fa33e03bdaeae60c48,51,1,2024-02-28T14:58:05.715Z,english_966.wav,0,pill,1127,24,4,5,Français,Féminin,11,1.09391667,-1.72411588,1.22586656
60c750fa33e03bdaeae60c48,52,1,2024-02-28T14:58:05.715Z,english_155.wav,0,peel,526,24,4,5,Français,Féminin,0,0.0,21.6550533,0.01570598
60c750fa33e03bdaeae60c48,52,1,2024-02-28T14:58:05.715Z,english_155.wav,0,peel,526,24,4,5,Français,Féminin,1,0.1,-0.0016794128,1.76749017
60c750fa33e03bdaeae60c48,52,1,2024-02-28T14:58:05.715Z,english_155.wav,0,peel,526,24,4,5,Français,Féminin,2,0.2,-77.5292073,1.37583653
60c750fa33e03bdaeae60c48,52,1,2024-02-28T14:58:05.715Z,english_155.wav,0,peel,526,24,4,5,Français,Féminin,3,0.3,-44.9313065,0.19365623
60c750fa33e03bdaeae60c48,52,1,2024-02-28T14:58:05.715Z,english_155.wav,0,peel,526,24,4,5,Français,Féminin,4,0.4,-33.7969309,1.34202306
60c750fa33e03bdaeae60c48,52,1,2024-02-28T14:58:05.715Z,english_155.wav,0,peel,526,24,4,5,Français,Féminin,5,0.5,46.2285188,1.87351349
60c750fa33e03bdaeae60c48,52,1,2024-02-28T14:58:05.715Z,english_155.wav,0,peel,526,24,4,5,Français,Féminin,6,0.6,93.0191022,1.89118344
60c750fa33e03bdaeae60c48,52,1,2024-02-28T14:58:05.715Z,english_155.wav,0,peel,526,24,4,5,Français,Féminin,7,0.7,80.6417886,1.25713993
60c750fa33e03bdaeae60c48,52,1,2024-02-28T14:58:05.715Z,english_155.wav,0,peel,526,24,4,5,Français,Féminin,8,0.8,-76.4782648,1.84259347
60c750fa33e03bdaeae60c48,52,1,2024-02-28T14:58:05.715Z,english_155.wav,0,peel,526,24,4,5,Français,Féminin,9,0.9,-35.964927,0.04007403
60c750fa33e03bdaeae60c48,52,1,2024-02-28T14:58:05.715Z,english_155.wav,0,peel,526,24,4,5,Français,Féminin,10,1.0,90.375739,1.64837519
60c750fa33e03bdaeae60c48,52,1,2024-02-28T14:58:05.715Z,english_155.wav,0,peel,526,24,4,5,Français,Féminin,11,1.09391667,66.476003,1.87071869
60c750fa33e03bdaeae60c48,53,1,2024-02-28T14:58:05.715Z,english_402.wav,0,pill,322,24,4,5,Français,Féminin,0,0.0,13.762471,1.51429567
60c750fa33e03bdaeae60c48,53,1,2024-02-28T14:58:05.715Z,english_402.wav,0,pill,322,24,4,5,Français,Féminin,1,0.1,56.960538,1.68766969
60c750fa33e03bdaeae60c48,53,1,2024-02-28T14:58:05.715Z,english_402.wav,0,pill,322,24,4,5,Français,Féminin,2,0.2,31.61900178,1.34501255
60c750fa33e03bdaeae60c48,53,1,2024-02-28T14:58:05.715Z,english_402.wav,0,pill,322,24,4,5,Français,Féminin,3,0.3,-58.12329087,0.78143448
60c750fa33e03bdaeae60c48,53,1,2024-02-28T14:58:05.715Z,english_402.wav,0,pill,322,24,4,5,Français,Féminin,4,0.4,-92.10904416,0.95522192
60c750fa33e03bdaeae60c48,53,1,2024-02-28T14:58:05.715Z,english_402.wav,0,pill,322,24,4,5,Français,Féminin,5,0.5,-26.99116943,1.16323619
60c750fa33e03bdaeae60c48,53,1,2024-02-28T14:58:05.715Z,english_402.wav,0,pill,322,24,4,5,Français,Féminin,6,0.6,2.85267641,0.43497741
60c750fa33e03bdaeae60c48,53,1,2024-02-28T14:58:05.715Z,english_402.wav,0,pill,322,24,4,5,Français,Féminin,7,0.7,-21.2400385,1.84271931
60c750fa33e03bdaeae60c48,53,1,2024-02-28T14:58:05.715Z,english_402.wav,0,pill,322,24,4,5,Français,Féminin,8,0.8,47.25195685,1.28114522
60c750fa33e03bdaeae60c48,53,1,2024-02-28T14:58:05.715Z,english_402.wav,0,pill,322,24,4,5,Français,Féminin,9,0.9,86.30516809,0.9091169
60c750fa33e03bdaeae60c48,53,1,2024-02-28T14:58:05.715Z,english_402.wav,0,pill,322,24,4,5,Français,Féminin,10,1.0,-9.29622935,1.84546322
60c750fa33e03bdaeae60c48,53,1,2024-02-28T14:58:05.715Z,english_402.wav,0,pill,322,24,4,5,Français,Féminin,11,1.09391667,3.14612385,0.72114292
60c750fa33e03bdaeae60c48,54,1,2024-02-28T14:58:05.715Z,english_414.wav,0,pill,4444,24,4,5,Français,Féminin,0,0.0,-7.03040906,1.53438074
60c750fa33e03bdaeae60c48,54,1,2024-02-28T14:58:05.715Z,english_414.wav,0,pill,4444,24,4,5,Français,Féminin,1,0.1,-5.82495626,1.95928517
60c750fa33e03bdaeae60c48,54,1,2024-02-28T14:58:05.715Z,english_414.wav,0,pill,4444,24,4,5,Français,Féminin,2,0.2,-2.66835352,1.73189387
60c750fa33e03bdaeae60c48,54,1,2024-02-28T14:58:05.715Z,english_414.wav,0,pill,4444,24,4,5,Français,Féminin,3,0.3,-59.72056864,1.8329069
60c750fa33e03bdaeae60c48,54,1,2024-02-28T14:58:05.715Z,english_414.wav,0,pill,4444,24,4,5,Français,Féminin,4,0.4,44.4623709,1.79888129
60c750fa33e03bdaeae60c48,54,1,2024-02-28T14:58:05.715Z,english_414.wav,0,pill,4444,24,4,5,Français,Féminin,5,0.5,-43.61302568,0.54974626
60c750fa33e03bdaeae60c48,54,1,2024-02-28T14:58:05.715Z,english_414.wav,0,pill,4444,24,4,5,Français,Féminin,6,0.6,69.2168607,1.59944318
60c750fa33e03bdaeae60c48,54,1,2024-02-28T14:58:05.715Z,english_414.wav,0,pill,4444,24,4,5,Français,Féminin,7,0.7,92.16151545,0.63993653
60c750fa33e03bdaeae60c48,54,1,2024-02-28T14:58:05.715Z,english_414.wav,0,pill,4444,24,4,5,Français,Féminin,8,0.8,74.54688425,0.28985998
60c750fa33e03bdaeae60c48,54,1,2024-02-28T14:58:05.715Z,english_414.wav,0,pill,4444,24,4,5,Français,Féminin,9,0.9,3.36775838,0.49016728
60c750fa33e03bdaeae60c48,54,1,2024-02-28T14:58:05.715Z,english_414.wav,0,pill,4444,24,4,5,Français,Féminin,10,1.0,-65.34358207,1.26877749
60c750fa33e03bdaeae60c48,54,1,2024-02-28T14:58:05.715Z,english_414.wav,0,pill,4444,24,4,5,Français,Féminin,11,1.09391667,36.44921696,1.3437293
60c750fa33e03bdaeae60c48,55,1,2024-02-28T14:58:05.715Z,english_619.wav,0,pill,693,24,4,5,Français,Féminin,0,0.0,-41.0924044,1.71942116
60c750fa33e03bdaeae60c48,55,1,2024-02-28T14:58:05.715Z,english_619.wav,0,pill,693,24,4,5,Français,Féminin,1,0.1,-7.96280913,1.03534148
60c750fa33e03bdaeae60c48,55,1,2024-02-28T14:58:05.715Z,english_619.wav,0,pill,693,24,4,5,Français,Féminin,2,0.2,-87.23866402,1.90474628
60c750fa33e03bdaeae60c48,55,1,2024-02-28T14:58:05.715Z,english_619.wav,0,pill,693,24,4,5,Français,Féminin,3,0.3,-49.33627733,1.25465254
60c750fa33e03bdaeae60c48,55,1,2024-02-28T14:58:05.715Z,english_619.wav,0,pill,693,24,4,5,Français,Féminin,4,0.4,-9.049641,0.872658
60c750fa33e03bdaeae60c48,55,1,2024-02-28T14:58:05.715Z,english_619.wav,0,pill,693,24,4,5,Français,Féminin,5,0.5,-44.96771142,0.88442624
60c750fa33e03bdaeae60c48,55,1,2024-02-28T14:58:05.715Z,english_619.wav,0,pill,693,24,4,5,Français,Féminin,6,0.6,-40.79885207,0.90889779
60c750fa33e03bdaeae60c48,55,1,2024-02-28T14:58:05.715Z,english_619.wav,0,pill,693,24,4,5,Français,Féminin,7,0.7,40.82825876,0.65121567
60c750fa33e03bdaeae60c48,55,1,2024-02-28T14:58:05.715Z,english_619.wav,0,pill,693,24,4,5,Français,Féminin,8,0.8,-20.59710474,0.05436153
60c750fa33e03bdaeae60c48,55,1,2024-02-28T14:58:05.715Z,english_619.wav,0,pill,693,24,4,5,Français,Féminin,9,0.9,39.88878166,1.54961319
60c750fa33e03bdaeae60c48,55,1,2024-02-28T14:58:05.715Z,english_619.wav,0,pill,693,24,4,5,Français,Féminin,10,1.0,26.7856421,0.36194851
60c750fa33e03bdaeae60c48,55,1,2024-02-28T14:58:05.715Z,english_619.wav,0,pill,693,24,4,5,Français,Féminin,11,1.09391667,40.93095409,0.79464548
60c750fa33e03bdaeae60c48,56,1,2024-02-28T14:58:05.715Z,english_384.wav,0,pill,745,24,4,5,Français,Féminin,0,0.0,25.59746769,0.31530466
60c750fa33e03bdaeae60c48,56,1,2024-02-28T14:58:05.715Z,english_384.wav,0,pill,745,24,4,5,Français,Féminin,1,0.1,77.10112132,1.4723663
60c750fa33e03bdaeae60c48,56,1,2024-02-28T14:58:05.715Z,english_384.wav,0,pill,745,24,4,5,Français,Féminin,2,0.2,-44.89854527,0.76042634
60c750fa33e03bdaeae60c48,56,1,2024-02-28T14:58:05.715Z,english_384.wav,0,pill,745,24,4,5,Français,Féminin,3,0.3,-92.39491606,1.26765442
60c750fa33e03bdaeae60c48,56,1,2024-02-28T14:58:05.715Z,english_384.wav,0,pill,745,24,4,5,Français,Féminin,4,0.4,-7.21963548,0.4561299
60c750fa33e03bdaeae60c48,56,1,2024-02-28T14:58:05.715Z,english_384.wav,0,pill,745,24,4,5,Français,Féminin,5,0.5,-12.57418593,0.66006902
60c750fa33e03bdaeae60c48,56,1,2024-02-28T14:58:05.715Z,english_384.wav,0,pill,745,24,4,5,Français,Féminin,6,0.6,-91.58210139,0.52858229
60c750fa33e03bdaeae60c48,56,1,2024-02-28T14:58:05.715Z,english_384.wav,0,pill,745,24,4,5,Français,Féminin,7,0.7,-83.16364251,0.95307861
60c750fa33e03bdaeae60c48,56,1,2024-02-28T14:58:05.715Z,english_384.wav,0,pill,745,24,4,5,Français,Féminin,8,0.8,-99.35642135,1.25910316
60c750fa33e03bdaeae60c48,56,1,2024-02-28T14:58:05.715Z,english_384.wav,0,pill,745,24,4,5,Français,Féminin,9,0.9,39.42669245,1.31614459
60c750fa33e03bdaeae60c48,56,1,2024-02-28T14:58:05.715Z,english_384.wav,0,pill,745,24,4,5,Français,Féminin,10,1.0,2.14731946,0.23757066
60c750fa33e03bdaeae60c48,56,1,2024-02-28T14:58:05.715Z,english_384.wav,0,pill,745,24,4,5,Français,Féminin,11,1.09391667,-81.26968126,1.34705459
60c750fa33e03bdaeae60c48,57,1,2024-02-28T14:58:05.715Z,english_458.wav,0,peel,421,24,4,5,Français,Féminin,0,0.0,-17.35193705,0.22923126
60c750fa33e03bdaeae60c48,57,1,2024-02-28T14:58:05.715Z,english_458.wav,0,peel,421,24,4,5,Français,Féminin,1,0.1,76.25272333,1.42441377
60c750fa33e03bdaeae60c48,57,1,2024-02-28T14:58:05.715Z,english_458.wav,0,peel,421,24,4,5,Français,Féminin,2,0.2,66.551046,0.60732538
60c750fa33e03bdaeae60c48,57,1,2024-02-28T14:58:05.715Z,english_458.wav,0,peel,421,24,4,5,Français,Féminin,3,0.3,-95.41815816,0.4830802
60c750fa33e03bdaeae60c48,57,1,2024-02-28T14:58:05.715Z,english_458.wav,0,peel,421,24,4,5,Français,Féminin,4,0.4,-5.20731416,0.7532548
60c750fa33e03bdaeae60c48,57,1,2024-02-28T14:58:05.715Z,english_458.wav,0,peel,421,24,4,5,Français,Féminin,5,0.5,-15.31002561,1.81914976
60c750fa33e03bdaeae60c48,57,1,2024-02-28T14:58:05.715Z,english_458.wav,0,peel,421,24,4,5,Français,Féminin,6,0.6,63.5103627,1.22838438
60c750fa33e03bdaeae60c48,57,1,2024-02-28T14:58:05.715Z,english_458.wav,0,peel,421,24,4,5,Français,Féminin,7,0.7,-32.19044721,0.06067943
60c750fa33e03bdaeae60c48,57,1,2024-02-28T14:58:05.715Z,english_458.wav,0,peel,421,24,4,5,Français,Féminin,8,0.8,9.85446701,0.231332
60c750fa33e03bdaeae60c48,57,1,2024-02-28T14:58:05.715Z,english_458.wav,0,peel,421,24,4,5,Français,Féminin,9,0.9,-64.97569882,1.40147857
60c750fa33e03bdaeae60c48,57,1,2024-02-28T14:58:05.715Z,english_458.wav,0,peel,421,24,4,5,Français,Féminin,10,1.0,59.10726436,0.29468522
60c750fa33e03bdaeae60c48,57,1,2024-02-28T14:58:05.715Z,english_458.wav,0,peel,421,24,4,5,Français,Féminin,11,1.09391667,60.50538111,0.47293516
60c750fa33e03bdaeae60c48,58,1,2024-02-28T14:58:05.715Z,english_552.wav,0,pill,380,24,4,5,Français,Féminin,0,0.0,24.23901763,1.612105
60c750fa33e03bdaeae60c48,58,1,2024-02-28T14:58:05.715Z,english_552.wav,0,pill,380,24,4,5,Français,Féminin,1,0.1,-68.29569332,0.23755281
60c750fa33e03bdaeae60c48,58,1,2024-02-28T14:58:05.715Z,english_552.wav,0,pill,380,24,4,5,Français,Féminin,2,0.2,-76.60440788,1.12644766
60c750fa33e03bdaeae60c48,58,1,2024-02-28T14:58:05.715Z,english_552.wav,0,pill,380,24,4,5,Français,Féminin,3,0.3,-14.28309722,1.6498911
60c750fa33e03bdaeae60c48,58,1,2024-02-28T14:58:05.715Z,english_552.wav,0,pill,380,24,4,5,Français,Féminin,4,0.4,7.45259631,1.62705162
60c750fa33e03bdaeae60c48,58,1,2024-02-28T14:58:05.715Z,english_552.wav,0,pill,380,24,4,5,Français,Féminin,5,0.5,-96.79412631,0.02108582
60c750fa33e03bdaeae60c48,58,1,2024-02-28T14:58:05.715Z,english_552.wav,0,pill,380,24,4,5,Français,Féminin,6,0.6,19.00121721,0.46250888
60c750fa33e03bdaeae60c48,58,1,2024-02-28T14:58:05.715Z,english_552.wav,0,pill,380,24,4,5,Français,Féminin,7,0.7,28.47093687,0.61388361
60c750fa33e03bdaeae60c48,58,1,2024-02-28T14:58:05.715Z,english_552.wav,0,pill,380,24,4,5,Français,Féminin,8,0.8,-28.36467118,1.42538322
60c750fa33e03bdaeae60c48,58,1,2024-02-28T14:58:05.715Z,english_552.wav,0,pill,380,24,4,5,Français,Féminin,9,0.9,27.37810517,1.50029895
60c750fa33e03bdaeae60c48,58,1,2024-02-28T14:58:05.715Z,english_552.wav,0,pill,380,24,4,5,Français,Féminin,10,1.0,-1.36668835,0.7956711
60c750fa33e03bdaeae60c48,58,1,2024-02-28T14:58:05.715Z,english_552.wav,0,pill,380,24,4,5,Français,Féminin,11,1.09391667,-10.50305513,0.62245048
60c750fa33e03bdaeae60c48,59,1,2024-02-28T14:58:05.715Z,english_626.wav,0,pill,324,24,4,5,Français,Féminin,0,0.0,-0.56370029,1.601019
60c750fa33e03bdaeae60c48,59,1,2024-02-28T14:58:05.715Z,english_626.wav,0,pill,324,24,4,5,Français,Féminin,1,0.1,-99.91896683,1.02479774
60c750fa33e03bdaeae60c48,59,1,2024-02-28T14:58:05.715Z,english_626.wav,0,pill,324,24,4,5,Français,Féminin,2,0.2,71.91666298,1.56428022
60c750fa33e03bdaeae60c48,59,1,2024-02-28T14:58:05.715Z,english_626.wav,0,pill,324,24,4,5,Français,Féminin,3,0.3,5.93440056,1.41456241
60c750fa33e03bdaeae60c48,59,1,2024-02-28T14:58:05.715Z,english_626.wav,0,pill,324,24,4,5,Français,Féminin,4,0.4,30.6659702,1.90457562
60c750fa33e03bdaeae60c48,59,1,2024-02-28T14:58:05.715Z,english_626.wav,0,pill,324,24,4,5,Français,Féminin,5,0.5,50.2345252,1.04545234
60c750fa33e03bdaeae60c48,59,1,2024-02-28T14:58:05.715Z,english_626.wav,0,pill,324,24,4,5,Français,Féminin,6,0.6,26.80081253,1.05575336
60c750fa33e03bdaeae60c48,59,1,2024-02-28T14:58:05.715Z,english_626.wav,0,pill,324,24,4,5,Français,Féminin,7,0.7,57.01154581,1.40636518
60c750fa33e03bdaeae60c48,59,1,2024-02-28T14:58:05.715Z,english_626.wav,0,pill,324,24,4,5,Français,Féminin,8,0.8,-79.56021694,1.56161819
60c750fa33e03bdaeae60c48,59,1,2024-02-28T14:58:05.715Z,english_626.wav,0,pill,324,24,4,5,Français,Féminin,9,0.9,19.7734095,0.61190755
60c750fa33e03bdaeae60c48,59,1,2024-02-28T14:58:05.715Z,english_626.wav,0,pill,324,24,4,5,Français,Féminin,10,1.0,24.01737707,0.77515613
60c750fa33e03bdaeae60c48,59,1,2024-02-28T14:58:05.715Z,english_626.wav,0,pill,324,24,4,5,Français,Féminin,11,1.09391667,-71.48633622,1.93548934
60c750fa33e03bdaeae60c48,60,1,2024-02-28T14:58:05.715Z,english_801.wav,0,peel,548,24,4,5,Français,Féminin,0,0.0,-54.47653584,1.90910012
60c750fa33e03bdaeae60c48,60,1,2024-02-28T14:58:05.715Z,english_801.wav,0,peel,548,24,4,5,Français,Féminin,1,0.1,-41.28810238,0.95006917
60c750fa33e03bdaeae60c48,60,1,2024-02-28T14:58:05.715Z,english_801.wav,0,peel,548,24,4,5,Français,Féminin,2,0.2,91.65690287,0.84100017
60c750fa33e03bdaeae60c48,60,1,2024-02-28T14:58:05.715Z,english_801.wav,0,peel,548,24,4,5,Français,Féminin,3,0.3,-9.28605219,0.92695143
60c750fa33e03bdaeae60c48,60,1,2024-02-28T14:58:05.715Z,english_801.wav,0,peel,548,24,4,5,Français,Féminin,4,0.4,-68.3172527,0.80239333
60c750fa33e03bdaeae60c48,60,1,2024-02-28T14:58:05.715Z,english_801.wav,0,peel,548,24,4,5,Français,Féminin,5,0.5,-20.53863649,1.92743309
60c750fa33e03bdaeae60c48,60,1,2024-02-28T14:58:05.715Z,english_801.wav,0,peel,548,24,4,5,Français,Féminin,6,0.6,23.12715477,0.16796328
60c750fa33e03bdaeae60c48,60,1,2024-02-28T14:58:05.715Z,english_801.wav,0,peel,548,24,4,5,Français,Féminin,7,0.7,-28.99385244,0.5012895
60c750fa33e03bdaeae60c48,60,1,2024-02-28T14:58:05.715Z,english_801.wav,0,peel,548,24,4,5,Français,Féminin,8,0.8,-31.7840881,0.67203268
60c750fa33e03bdaeae60c48,60,1,2024-02-28T14:58:05.715Z,english_801.wav,0,peel,548,24,4,5,Français,Féminin,9,0.9,-50.00972714,0.25650815
60c750fa33e03bdaeae60c48,60,1,2024-02-28T14:58:05.715Z,english_801.wav,0,peel,548,24,4,5,Français,Féminin,10,1.0,-40.65380245,0.35020128
60c750fa33e03bdaeae60c48,60,1,2024-02-28T14:58:05.715Z,english_801.wav,0,peel,548,24,4,5,Français,Féminin,11,1.09391667,5.46992446,1.80995829
60c750fa33e03bdaeae60c48,61,1,2024-02-28T14:58:05.715Z,english_156.wav,0,pill,641,24,4,5,Français,Féminin,0,0.0,67.80241824,1.86846381
60c750fa33e03bdaeae60c48,61,1,2024-02-28T14:58:05.715Z,english_156.wav,0,pill,641,24,4,5,Français,Féminin,1,0.1,29.99846692,0.17784513
60c750fa33e03bdaeae60c48,61,1,2024-02-28T14:58:05.715Z,english_156.wav,0,pill,641,24,4,5,Français,Féminin,2,0.2,-57.62339124,0.792312
