subj,trial,block,date,stim,stim_order,response,rt,age,english,french,language,sex,param_index,segment,pitch,stretch
60fd01d7f7b981fdbe1f1b44,0,0,2024-02-28T17:17:09.218Z,english_114.wav,0,pill,2439,23,5,5,français,f,0,0.0,-38.33361484,0.25479749
60fd01d7f7b981fdbe1f1b44,0,0,2024-02-28T17:17:09.218Z,english_114.wav,0,pill,2439,23,5,5,français,f,1,0.1,-12.76602364,1.23857364
60fd01d7f7b981fdbe1f1b44,0,0,2024-02-28T17:17:09.218Z,english_114.wav,0,pill,2439,23,5,5,français,f,2,0.2,0.32729235,0.44881648
60fd01d7f7b981fdbe1f1b44,0,0,2024-02-28T17:17:09.218Z,english_114.wav,0,pill,2439,23,5,5,français,f,3,0.3,-29.2958396,1.47628631
60fd01d7f7b981fdbe1f1b44,0,0,2024-02-28T17:17:09.218Z,english_114.wav,0,pill,2439,23,5,5,français,f,4,0.4,-44.05321795,1.29960212
60fd01d7f7b981fdbe1f1b44,0,0,2024-02-28T17:17:09.218Z,english_114.wav,0,pill,2439,23,5,5,français,f,5,0.5,77.26891482,0.86625142
60fd01d7f7b981fdbe1f1b44,0,0,2024-02-28T17:17:09.218Z,english_114.wav,0,pill,2439,23,5,5,français,f,6,0.6,-80.80990528,1.18678323
60fd01d7f7b981fdbe1f1b44,0,0,2024-02-28T17:17:09.218Z,english_114.wav,0,pill,2439,23,5,5,français,f,7,0.7,-78.02585179,0.40341658
60fd01d7f7b981fdbe1f1b44,0,0,2024-02-28T17:17:09.218Z,english_114.wav,0,pill,2439,23,5,5,français,f,8,0.8,14.37560873,0.69236485
60fd01d7f7b981fdbe1f1b44,0,0,2024-02-28T17:17:09.218Z,english_114.wav,0,pill,2439,23,5,5,français,f,9,0.9,-41.68954869,0.99173078
60fd01d7f7b981fdbe1f1b44,0,0,2024-02-28T17:17:09.218Z,english_114.wav,0,pill,2439,23,5,5,français,f,10,1.0,-51.42719285,0.71091923
60fd01d7f7b981fdbe1f1b44,0,0,2024-02-28T17:17:09.218Z,english_114.wav,0,pill,2439,23,5,5,français,f,11,1.09391667,29.02505558,1.73837671
60fd01d7f7b981fdbe1f1b44,1,0,2024-02-28T17:17:09.218Z,english_307.wav,0,peel,1652,23,5,5,français,f,0,0.0,4.09277184,1.54634017
60fd01d7f7b981fdbe1f1b44,1,0,2024-02-28T17:17:09.218Z,english_307.wav,0,peel,1652,23,5,5,français,f,1,0.1,-55.10651609,1.62042314
60fd01d7f7b981fdbe1f1b44,1,0,2024-02-28T17:17:09.218Z,english_307.wav,0,peel,1652,23,5,5,français,f,2,0.2,40.66104674,0.53651735
60fd01d7f7b981fdbe1f1b44,1,0,2024-02-28T17:17:09.218Z,english_307.wav,0,peel,1652,23,5,5,français,f,3,0.3,25.01631041,1.3289867
60fd01d7f7b981fdbe1f1b44,1,0,2024-02-28T17:17:09.218Z,english_307.wav,0,peel,1652,23,5,5,français,f,4,0.4,-83.19534886,1.20481488
60fd01d7f7b981fdbe1f1b44,1,0,2024-02-28T17:17:09.218Z,english_307.wav,0,peel,1652,23,5,5,français,f,5,0.5,50.47121196,0.91135424
60fd01d7f7b981fdbe1f1b44,1,0,2024-02-28T17:17:09.218Z,english_307.wav,0,peel,1652,23,5,5,français,f,6,0.6,-23.06520129,0.34154344
60fd01d7f7b981fdbe1f1b44,1,0,2024-02-28T17:17:09.218Z,english_307.wav,0,peel,1652,23,5,5,français,f,7,0.7,6.60696351,0.77838965
60fd01d7f7b981fdbe1f1b44,1,0,2024-02-28T17:17:09.218Z,english_307.wav,0,peel,1652,23,5,5,français,f,8,0.8,32.78812168,1.52188148
60fd01d7f7b981fdbe1f1b44,1,0,2024-02-28T17:17:09.218Z,english_307.wav,0,peel,1652,23,5,5,français,f,9,0.9,-29.8510749,1.3469183
60fd01d7f7b981fdbe1f1b44,1,0,2024-02-28T17:17:09.218Z,english_307.wav,0,peel,1652,23,5,5,français,f,10,1.0,-51.20036712,0.11286505
60fd01d7f7b981fdbe1f1b44,1,0,2024-02-28T17:17:09.218Z,english_307.wav,0,peel,1652,23,5,5,français,f,11,1.09391667,-34.31103599,1.9894596
60fd01d7f7b981fdbe1f1b44,2,0,2024-02-28T17:17:09.218Z,english_901.wav,0,peel,1509,23,5,5,français,f,0,0.0,-96.81604806,1.46324918
60fd01d7f7b981fdbe1f1b44,2,0,2024-02-28T17:17:09.218Z,english_901.wav,0,peel,1509,23,5,5,français,f,1,0.1,37.83480038,0.84459601
60fd01d7f7b981fdbe1f1b44,2,0,2024-02-28T17:17:09.218Z,english_901.wav,0,peel,1509,23,5,5,français,f,2,0.2,-8.61723514,0.1668762
60fd01d7f7b981fdbe1f1b44,2,0,2024-02-28T17:17:09.218Z,english_901.wav,0,peel,1509,23,5,5,français,f,3,0.3,-84.9926442,0.0760945
60fd01d7f7b981fdbe1f1b44,2,0,2024-02-28T17:17:09.218Z,english_901.wav,0,peel,1509,23,5,5,français,f,4,0.4,-0.16612884,0.24671579
60fd01d7f7b981fdbe1f1b44,2,0,2024-02-28T17:17:09.218Z,english_901.wav,0,peel,1509,23,5,5,français,f,5,0.5,15.9690541,1.57602984
60fd01d7f7b981fdbe1f1b44,2,0,2024-02-28T17:17:09.218Z,english_901.wav,0,peel,1509,23,5,5,français,f,6,0.6,46.64910026,1.29975865
60fd01d7f7b981fdbe1f1b44,2,0,2024-02-28T17:17:09.218Z,english_901.wav,0,peel,1509,23,5,5,français,f,7,0.7,-78.92875072,1.65637017
60fd01d7f7b981fdbe1f1b44,2,0,2024-02-28T17:17:09.218Z,english_901.wav,0,peel,1509,23,5,5,français,f,8,0.8,97.27833726,0.50357009
60fd01d7f7b981fdbe1f1b44,2,0,2024-02-28T17:17:09.218Z,english_901.wav,0,peel,1509,23,5,5,français,f,9,0.9,57.26507245,0.73013763
60fd01d7f7b981fdbe1f1b44,2,0,2024-02-28T17:17:09.218Z,english_901.wav,0,peel,1509,23,5,5,français,f,10,1.0,87.23640608,0.60658699
60fd01d7f7b981fdbe1f1b44,2,0,2024-02-28T17:17:09.218Z,english_901.wav,0,peel,1509,23,5,5,français,f,11,1.09391667,9.28772105,1.30909728
60fd01d7f7b981fdbe1f1b44,3,0,2024-02-28T17:17:09.218Z,english_373.wav,0,pill,2104,23,5,5,français,f,0,0.0,-9.94709743,0.51311979
60fd01d7f7b981fdbe1f1b44,3,0,2024-02-28T17:17:09.218Z,english_373.wav,0,pill,2104,23,5,5,français,f,1,0.1,-83.40421168,1.13344135
60fd01d7f7b981fdbe1f1b44,3,0,2024-02-28T17:17:09.218Z,english_373.wav,0,pill,2104,23,5,5,français,f,2,0.2,-22.83191441,0.32488715
60fd01d7f7b981fdbe1f1b44,3,0,2024-02-28T17:17:09.218Z,english_373.wav,0,pill,2104,23,5,5,français,f,3,0.3,-83.42374119,1.83619002
60fd01d7f7b981fdbe1f1b44,3,0,2024-02-28T17:17:09.218Z,english_373.wav,0,pill,2104,23,5,5,français,f,4,0.4,-39.99792882,1.43136972
60fd01d7f7b981fdbe1f1b44,3,0,2024-02-28T17:17:09.218Z,english_373.wav,0,pill,2104,23,5,5,français,f,5,0.5,86.85199712,0.69456756
60fd01d7f7b981fdbe1f1b44,3,0,2024-02-28T17:17:09.218Z,english_373.wav,0,pill,2104,23,5,5,français,f,6,0.6,-4.78975396,1.06607271
60fd01d7f7b981fdbe1f1b44,3,0,2024-02-28T17:17:09.218Z,english_373.wav,0,pill,2104,23,5,5,français,f,7,0.7,-15.74997845,1.30605627
60fd01d7f7b981fdbe1f1b44,3,0,2024-02-28T17:17:09.218Z,english_373.wav,0,pill,2104,23,5,5,français,f,8,0.8,29.79511399,0.03221072
60fd01d7f7b981fdbe1f1b44,3,0,2024-02-28T17:17:09.218Z,english_373.wav,0,pill,2104,23,5,5,français,f,9,0.9,-25.05254908,1.44985225
60fd01d7f7b981fdbe1f1b44,3,0,2024-02-28T17:17:09.218Z,english_373.wav,0,pill,2104,23,5,5,français,f,10,1.0,-99.62886639,0.95503788
60fd01d7f7b981fdbe1f1b44,3,0,2024-02-28T17:17:09.218Z,english_373.wav,0,pill,2104,23,5,5,français,f,11,1.09391667,18.73159207,0.95128528
60fd01d7f7b981fdbe1f1b44,4,0,2024-02-28T17:17:09.218Z,english_214.wav,0,peel,446,23,5,5,français,f,0,0.0,77.66249847,1.66443393
60fd01d7f7b981fdbe1f1b44,4,0,2024-02-28T17:17:09.218Z,english_214.wav,0,peel,446,23,5,5,français,f,1,0.1,-66.26077856,1.37654428
60fd01d7f7b981fdbe1f1b44,4,0,2024-02-28T17:17:09.218Z,english_214.wav,0,peel,446,23,5,5,français,f,2,0.2,-51.4922282,1.40712663
60fd01d7f7b981fdbe1f1b44,4,0,2024-02-28T17:17:09.218Z,english_214.wav,0,peel,446,23,5,5,français,f,3,0.3,14.18659261,0.14412451
60fd01d7f7b981fdbe1f1b44,4,0,2024-02-28T17:17:09.218Z,english_214.wav,0,peel,446,23,5,5,français,f,4,0.4,-48.84743407,0.91551293
60fd01d7f7b981fdbe1f1b44,4,0,2024-02-28T17:17:09.218Z,english_214.wav,0,peel,446,23,5,5,français,f,5,0.5,19.47798934,0.32690142
60fd01d7f7b981fdbe1f1b44,4,0,2024-02-28T17:17:09.218Z,english_214.wav,0,peel,446,23,5,5,français,f,6,0.6,30.92446632,1.55465622
60fd01d7f7b981fdbe1f1b44,4,0,2024-02-28T17:17:09.218Z,english_214.wav,0,peel,446,23,5,5,français,f,7,0.7,-20.72955743,0.81533764
60fd01d7f7b981fdbe1f1b44,4,0,2024-02-28T17:17:09.218Z,english_214.wav,0,peel,446,23,5,5,français,f,8,0.8,-84.03788896,1.36872512
60fd01d7f7b981fdbe1f1b44,4,0,2024-02-28T17:17:09.218Z,english_214.wav,0,peel,446,23,5,5,français,f,9,0.9,1.19993411,0.61257248
60fd01d7f7b981fdbe1f1b44,4,0,2024-02-28T17:17:09.218Z,english_214.wav,0,peel,446,23,5,5,français,f,10,1.0,-10.67189742,1.2492197
60fd01d7f7b981fdbe1f1b44,4,0,2024-02-28T17:17:09.218Z,english_214.wav,0,peel,446,23,5,5,français,f,11,1.09391667,76.51495677,1.13872638
60fd01d7f7b981fdbe1f1b44,5,0,2024-02-28T17:17:09.218Z,english_45.wav,0,peel,1136,23,5,5,français,f,0,0.0,-55.14721801,0.29299266
60fd01d7f7b981fdbe1f1b44,5,0,2024-02-28T17:17:09.218Z,english_45.wav,0,peel,1136,23,5,5,français,f,1,0.1,57.09452307,0.9247964
60fd01d7f7b981fdbe1f1b44,5,0,2024-02-28T17:17:09.218Z,english_45.wav,0,peel,1136,23,5,5,français,f,2,0.2,-1.62499195,1.0494158
60fd01d7f7b981fdbe1f1b44,5,0,2024-02-28T17:17:09.218Z,english_45.wav,0,peel,1136,23,5,5,français,f,3,0.3,-13.00347301,1.81345336
60fd01d7f7b981fdbe1f1b44,5,0,2024-02-28T17:17:09.218Z,english_45.wav,0,peel,1136,23,5,5,français,f,4,0.4,13.64765964,1.7292362
60fd01d7f7b981fdbe1f1b44,5,0,2024-02-28T17:17:09.218Z,english_45.wav,0,peel,1136,23,5,5,français,f,5,0.5,-16.23645369,0.3059786
60fd01d7f7b981fdbe1f1b44,5,0,2024-02-28T17:17:09.218Z,english_45.wav,0,peel,1136,23,5,5,français,f,6,0.6,12.80202188,1.60566624
60fd01d7f7b981fdbe1f1b44,5,0,2024-02-28T17:17:09.218Z,english_45.wav,0,peel,1136,23,5,5,français,f,7,0.7,18.490615,1.60640041
60fd01d7f7b981fdbe1f1b44,5,0,2024-02-28T17:17:09.218Z,english_45.wav,0,peel,1136,23,5,5,français,f,8,0.8,-32.73911513,0.6923723
60fd01d7f7b981fdbe1f1b44,5,0,2024-02-28T17:17:09.218Z,english_45.wav,0,peel,1136,23,5,5,français,f,9,0.9,72.91810524,1.31031073
60fd01d7f7b981fdbe1f1b44,5,0,2024-02-28T17:17:09.218Z,english_45.wav,0,peel,1136,23,5,5,français,f,10,1.0,-39.54069726,0.9624361
60fd01d7f7b981fdbe1f1b44,5,0,2024-02-28T17:17:09.218Z,english_45.wav,0,peel,1136,23,5,5,français,f,11,1.09391667,1.32954538,1.523717
60fd01d7f7b981fdbe1f1b44,6,0,2024-02-28T17:17:09.218Z,english_788.wav,0,peel,307,23,5,5,français,f,0,0.0,17.89309058,1.04861509
60fd01d7f7b981fdbe1f1b44,6,0,2024-02-28T17:17:09.218Z,english_788.wav,0,peel,307,23,5,5,français,f,1,0.1,71.29743237,1.67595733
60fd01d7f7b981fdbe1f1b44,6,0,2024-02-28T17:17:09.218Z,english_788.wav,0,peel,307,23,5,5,français,f,2,0.2,-58.86773575,0.86315506
60fd01d7f7b981fdbe1f1b44,6,0,2024-02-28T17:17:09.218Z,english_788.wav,0,peel,307,23,5,5,français,f,3,0.3,-79.26718247,0.41984481
60fd01d7f7b981fdbe1f1b44,6,0,2024-02-28T17:17:09.218Z,english_788.wav,0,peel,307,23,5,5,français,f,4,0.4,35.72874859,0.95404094
60fd01d7f7b981fdbe1f1b44,6,0,2024-02-28T17:17:09.218Z,english_788.wav,0,peel,307,23,5,5,français,f,5,0.5,-14.77309026,0.45544588
60fd01d7f7b981fdbe1f1b44,6,0,2024-02-28T17:17:09.218Z,english_788.wav,0,peel,307,23,5,5,français,f,6,0.6,-78.45807111,0.07788433
60fd01d7f7b981fdbe1f1b44,6,0,2024-02-28T17:17:09.218Z,english_788.wav,0,peel,307,23,5,5,français,f,7,0.7,40.66379457,0.7267532
60fd01d7f7b981fdbe1f1b44,6,0,2024-02-28T17:17:09.218Z,english_788.wav,0,peel,307,23,5,5,français,f,8,0.8,51.99524397,1.61048189
60fd01d7f7b981fdbe1f1b44,6,0,2024-02-28T17:17:09.218Z,english_788.wav,0,peel,307,23,5,5,français,f,9,0.9,23.30304068,1.83471325
60fd01d7f7b981fdbe1f1b44,6,0,2024-02-28T17:17:09.218Z,english_788.wav,0,peel,307,23,5,5,français,f,10,1.0,87.05916465,1.60214946
60fd01d7f7b981fdbe1f1b44,6,0,2024-02-28T17:17:09.218Z,english_788.wav,0,peel,307,23,5,5,français,f,11,1.09391667,-42.18000877,1.51632908
60fd01d7f7b981fdbe1f1b44,7,0,2024-02-28T17:17:09.218Z,english_43.wav,0,peel,443,23,5,5,français,f,0,0.0,35.0853305,0.26027887
60fd01d7f7b981fdbe1f1b44,7,0,2024-02-28T17:17:09.218Z,english_43.wav,0,peel,443,23,5,5,français,f,1,0.1,-82.31052455,0.68956967
60fd01d7f7b981fdbe1f1b44,7,0,2024-02-28T17:17:09.218Z,english_43.wav,0,peel,443,23,5,5,français,f,2,0.2,-87.01844832,1.59168544
60fd01d7f7b981fdbe1f1b44,7,0,2024-02-28T17:17:09.218Z,english_43.wav,0,peel,443,23,5,5,français,f,3,0.3,35.19386066,0.50064201
60fd01d7f7b981fdbe1f1b44,7,0,2024-02-28T17:17:09.218Z,english_43.wav,0,peel,443,23,5,5,français,f,4,0.4,-6.50663416,1.69386915
60fd01d7f7b981fdbe1f1b44,7,0,2024-02-28T17:17:09.218Z,english_43.wav,0,peel,443,23,5,5,français,f,5,0.5,-43.93611532,1.13933047
60fd01d7f7b981fdbe1f1b44,7,0,2024-02-28T17:17:09.218Z,english_43.wav,0,peel,443,23,5,5,français,f,6,0.6,-73.49805581,1.51065435
60fd01d7f7b981fdbe1f1b44,7,0,2024-02-28T17:17:09.218Z,english_43.wav,0,peel,443,23,5,5,français,f,7,0.7,65.62731204,0.46562499
60fd01d7f7b981fdbe1f1b44,7,0,2024-02-28T17:17:09.218Z,english_43.wav,0,peel,443,23,5,5,français,f,8,0.8,-40.13292878,1.37756628
60fd01d7f7b981fdbe1f1b44,7,0,2024-02-28T17:17:09.218Z,english_43.wav,0,peel,443,23,5,5,français,f,9,0.9,-82.04161205,0.8121578
60fd01d7f7b981fdbe1f1b44,7,0,2024-02-28T17:17:09.218Z,english_43.wav,0,peel,443,23,5,5,français,f,10,1.0,51.94207196,0.36046396
60fd01d7f7b981fdbe1f1b44,7,0,2024-02-28T17:17:09.218Z,english_43.wav,0,peel,443,23,5,5,français,f,11,1.09391667,-30.06023569,0.31346917
60fd01d7f7b981fdbe1f1b44,8,0,2024-02-28T17:17:09.218Z,english_964.wav,0,peel,386,23,5,5,français,f,0,0.0,53.46570898,1.49731262
60fd01d7f7b981fdbe1f1b44,8,0,2024-02-28T17:17:09.218Z,english_964.wav,0,peel,386,23,5,5,français,f,1,0.1,-29.34116619,1.91326808
60fd01d7f7b981fdbe1f1b44,8,0,2024-02-28T17:17:09.218Z,english_964.wav,0,peel,386,23,5,5,français,f,2,0.2,54.99768825,0.76008105
60fd01d7f7b981fdbe1f1b44,8,0,2024-02-28T17:17:09.218Z,english_964.wav,0,peel,386,23,5,5,français,f,3,0.3,-81.76915679,1.84891579
60fd01d7f7b981fdbe1f1b44,8,0,2024-02-28T17:17:09.218Z,english_964.wav,0,peel,386,23,5,5,français,f,4,0.4,-62.14603757,0.58371441
60fd01d7f7b981fdbe1f1b44,8,0,2024-02-28T17:17:09.218Z,english_964.wav,0,peel,386,23,5,5,français,f,5,0.5,-51.83468115,0.22320605
60fd01d7f7b981fdbe1f1b44,8,0,2024-02-28T17:17:09.218Z,english_964.wav,0,peel,386,23,5,5,français,f,6,0.6,22.82176289,0.86228006
60fd01d7f7b981fdbe1f1b44,8,0,2024-02-28T17:17:09.218Z,english_964.wav,0,peel,386,23,5,5,français,f,7,0.7,43.03362668,1.2736027
60fd01d7f7b981fdbe1f1b44,8,0,2024-02-28T17:17:09.218Z,english_964.wav,0,peel,386,23,5,5,français,f,8,0.8,-91.1613604,0.96508229
60fd01d7f7b981fdbe1f1b44,8,0,2024-02-28T17:17:09.218Z,english_964.wav,0,peel,386,23,5,5,français,f,9,0.9,9.75788821,0.5978171
60fd01d7f7b981fdbe1f1b44,8,0,2024-02-28T17:17:09.218Z,english_964.wav,0,peel,386,23,5,5,français,f,10,1.0,-2.87390503,0.802961
60fd01d7f7b981fdbe1f1b44,8,0,2024-02-28T17:17:09.218Z,english_964.wav,0,peel,386,23,5,5,français,f,11,1.09391667,-53.09298444,0.69400331
60fd01d7f7b981fdbe1f1b44,9,0,2024-02-28T17:17:09.218Z,english_134.wav,0,peel,616,23,5,5,français,f,0,0.0,-24.26834644,1.03045274
60fd01d7f7b981fdbe1f1b44,9,0,2024-02-28T17:17:09.218Z,english_134.wav,0,peel,616,23,5,5,français,f,1,0.1,0.87898814,1.86888255
60fd01d7f7b981fdbe1f1b44,9,0,2024-02-28T17:17:09.218Z,english_134.wav,0,peel,616,23,5,5,français,f,2,0.2,29.43994061,1.70405425
60fd01d7f7b981fdbe1f1b44,9,0,2024-02-28T17:17:09.218Z,english_134.wav,0,peel,616,23,5,5,français,f,3,0.3,21.82945731,1.34767033
60fd01d7f7b981fdbe1f1b44,9,0,2024-02-28T17:17:09.218Z,english_134.wav,0,peel,616,23,5,5,français,f,4,0.4,49.09743773,0.8443881
60fd01d7f7b981fdbe1f1b44,9,0,2024-02-28T17:17:09.218Z,english_134.wav,0,peel,616,23,5,5,français,f,5,0.5,-15.97258886,1.38979788
60fd01d7f7b981fdbe1f1b44,9,0,2024-02-28T17:17:09.218Z,english_134.wav,0,peel,616,23,5,5,français,f,6,0.6,13.73233931,1.1830035
60fd01d7f7b981fdbe1f1b44,9,0,2024-02-28T17:17:09.218Z,english_134.wav,0,peel,616,23,5,5,français,f,7,0.7,-18.88709324,1.43950556
60fd01d7f7b981fdbe1f1b44,9,0,2024-02-28T17:17:09.218Z,english_134.wav,0,peel,616,23,5,5,français,f,8,0.8,13.58093601,1.18211722
60fd01d7f7b981fdbe1f1b44,9,0,2024-02-28T17:17:09.218Z,english_134.wav,0,peel,616,23,5,5,français,f,9,0.9,74.79947006,0.44903969
60fd01d7f7b981fdbe1f1b44,9,0,2024-02-28T17:17:09.218Z,english_134.wav,0,peel,616,23,5,5,français,f,10,1.0,-49.15519577,0.93357228
60fd01d7f7b981fdbe1f1b44,9,0,2024-02-28T17:17:09.218Z,english_134.wav,0,peel,616,23,5,5,français,f,11,1.09391667,18.17659257,1.8466086
60fd01d7f7b981fdbe1f1b44,10,0,2024-02-28T17:17:09.218Z,english_546.wav,0,pill,1419,23,5,5,français,f,0,0.0,46.42556952,1.20625584
60fd01d7f7b981fdbe1f1b44,10,0,2024-02-28T17:17:09.218Z,english_546.wav,0,pill,1419,23,5,5,français,f,1,0.1,-10.73211581,1.19354043
60fd01d7f7b981fdbe1f1b44,10,0,2024-02-28T17:17:09.218Z,english_546.wav,0,pill,1419,23,5,5,français,f,2,0.2,69.82885696,0.39242201
60fd01d7f7b981fdbe1f1b44,10,0,2024-02-28T17:17:09.218Z,english_546.wav,0,pill,1419,23,5,5,français,f,3,0.3,4.24524637,0.77917962
60fd01d7f7b981fdbe1f1b44,10,0,2024-02-28T17:17:09.218Z,english_546.wav,0,pill,1419,23,5,5,français,f,4,0.4,-36.8873083,0.89936753
60fd01d7f7b981fdbe1f1b44,10,0,2024-02-28T17:17:09.218Z,english_546.wav,0,pill,1419,23,5,5,français,f,5,0.5,-92.07863162,0.59596787
60fd01d7f7b981fdbe1f1b44,10,0,2024-02-28T17:17:09.218Z,english_546.wav,0,pill,1419,23,5,5,français,f,6,0.6,49.43168018,1.27370599
60fd01d7f7b981fdbe1f1b44,10,0,2024-02-28T17:17:09.218Z,english_546.wav,0,pill,1419,23,5,5,français,f,7,0.7,4.89013703,0.02537615
60fd01d7f7b981fdbe1f1b44,10,0,2024-02-28T17:17:09.218Z,english_546.wav,0,pill,1419,23,5,5,français,f,8,0.8,-45.1799297,1.59706758
60fd01d7f7b981fdbe1f1b44,10,0,2024-02-28T17:17:09.218Z,english_546.wav,0,pill,1419,23,5,5,français,f,9,0.9,-6.48755942,0.94170477
60fd01d7f7b981fdbe1f1b44,10,0,2024-02-28T17:17:09.218Z,english_546.wav,0,pill,1419,23,5,5,français,f,10,1.0,23.68595226,0.18201558
60fd01d7f7b981fdbe1f1b44,10,0,2024-02-28T17:17:09.218Z,english_546.wav,0,pill,1419,23,5,5,français,f,11,1.09391667,-42.43454139,0.25023834
60fd01d7f7b981fdbe1f1b44,11,0,2024-02-28T17:17:09.218Z,english_484.wav,0,peel,853,23,5,5,français,f,0,0.0,2.0569585,0.34651955
60fd01d7f7b981fdbe1f1b44,11,0,2024-02-28T17:17:09.218Z,english_484.wav,0,peel,853,23,5,5,français,f,1,0.1,-79.1484241,1.84776357
60fd01d7f7b981fdbe1f1b44,11,0,2024-02-28T17:17:09.218Z,english_484.wav,0,peel,853,23,5,5,français,f,2,0.2,30.9033229,1.82203066
60fd01d7f7b981fdbe1f1b44,11,0,2024-02-28T17:17:09.218Z,english_484.wav,0,peel,853,23,5,5,français,f,3,0.3,12.05929197,1.56778111
60fd01d7f7b981fdbe1f1b44,11,0,2024-02-28T17:17:09.218Z,english_484.wav,0,peel,853,23,5,5,français,f,4,0.4,-72.8204973,1.22252397
60fd01d7f7b981fdbe1f1b44,11,0,2024-02-28T17:17:09.218Z,english_484.wav,0,peel,853,23,5,5,français,f,5,0.5,-89.96387514,1.78789861
60fd01d7f7b981fdbe1f1b44,11,0,2024-02-28T17:17:09.218Z,english_484.wav,0,peel,853,23,5,5,français,f,6,0.6,-22.94210609,0.02218534
60fd01d7f7b981fdbe1f1b44,11,0,2024-02-28T17:17:09.218Z,english_484.wav,0,peel,853,23,5,5,français,f,7,0.7,17.91925192,1.7744569
60fd01d7f7b981fdbe1f1b44,11,0,2024-02-28T17:17:09.218Z,english_484.wav,0,peel,853,23,5,5,français,f,8,0.8,-62.01555508,1.27917124
60fd01d7f7b981fdbe1f1b44,11,0,2024-02-28T17:17:09.218Z,english_484.wav,0,peel,853,23,5,5,français,f,9,0.9,-43.27412131,1.76665807
60fd01d7f7b981fdbe1f1b44,11,0,2024-02-28T17:17:09.218Z,english_484.wav,0,peel,853,23,5,5,français,f,10,1.0,0.91553281,1.1189794
60fd01d7f7b981fdbe1f1b44,11,0,2024-02-28T17:17:09.218Z,english_484.wav,0,peel,853,23,5,5,français,f,11,1.09391667,-32.68645572,0.68984214
60fd01d7f7b981fdbe1f1b44,12,0,2024-02-28T17:17:09.218Z,english_25.wav,0,peel,1002,23,5,5,français,f,0,0.0,-3.04072315,0.82619881
60fd01d7f7b981fdbe1f1b44,12,0,2024-02-28T17:17:09.218Z,english_25.wav,0,peel,1002,23,5,5,français,f,1,0.1,-7.71178933,0.19533878
60fd01d7f7b981fdbe1f1b44,12,0,2024-02-28T17:17:09.218Z,english_25.wav,0,peel,1002,23,5,5,français,f,2,0.2,-42.18636208,1.08277914
60fd01d7f7b981fdbe1f1b44,12,0,2024-02-28T17:17:09.218Z,english_25.wav,0,peel,1002,23,5,5,français,f,3,0.3,-34.45077435,1.14412535
60fd01d7f7b981fdbe1f1b44,12,0,2024-02-28T17:17:09.218Z,english_25.wav,0,peel,1002,23,5,5,français,f,4,0.4,-84.66227969,1.20529311
60fd01d7f7b981fdbe1f1b44,12,0,2024-02-28T17:17:09.218Z,english_25.wav,0,peel,1002,23,5,5,français,f,5,0.5,-92.64439035,1.74650044
60fd01d7f7b981fdbe1f1b44,12,0,2024-02-28T17:17:09.218Z,english_25.wav,0,peel,1002,23,5,5,français,f,6,0.6,-61.14666871,0.43899038
60fd01d7f7b981fdbe1f1b44,12,0,2024-02-28T17:17:09.218Z,english_25.wav,0,peel,1002,23,5,5,français,f,7,0.7,-3.59823801,0.82830315
60fd01d7f7b981fdbe1f1b44,12,0,2024-02-28T17:17:09.218Z,english_25.wav,0,peel,1002,23,5,5,français,f,8,0.8,-55.86599887,0.29447237
60fd01d7f7b981fdbe1f1b44,12,0,2024-02-28T17:17:09.218Z,english_25.wav,0,peel,1002,23,5,5,français,f,9,0.9,70.71897097,0.99577412
60fd01d7f7b981fdbe1f1b44,12,0,2024-02-28T17:17:09.218Z,english_25.wav,0,peel,1002,23,5,5,français,f,10,1.0,-41.59717756,1.79017757
60fd01d7f7b981fdbe1f1b44,12,0,2024-02-28T17:17:09.218Z,english_25.wav,0,peel,1002,23,5,5,français,f,11,1.09391667,45.33564492,1.70871786
60fd01d7f7b981fdbe1f1b44,13,0,2024-02-28T17:17:09.218Z,english_775.wav,0,peel,1312,23,5,5,français,f,0,0.0,-31.43099856,1.38428974
60fd01d7f7b981fdbe1f1b44,13,0,2024-02-28T17:17:09.218Z,english_775.wav,0,peel,1312,23,5,5,français,f,1,0.1,8.65477654,1.381989
60fd01d7f7b981fdbe1f1b44,13,0,2024-02-28T17:17:09.218Z,english_775.wav,0,peel,1312,23,5,5,français,f,2,0.2,-52.28282098,0.85842321
60fd01d7f7b981fdbe1f1b44,13,0,2024-02-28T17:17:09.218Z,english_775.wav,0,peel,1312,23,5,5,français,f,3,0.3,91.1008366,0.86053133
60fd01d7f7b981fdbe1f1b44,13,0,2024-02-28T17:17:09.218Z,english_775.wav,0,peel,1312,23,5,5,français,f,4,0.4,-9.23078544,0.18720345
60fd01d7f7b981fdbe1f1b44,13,0,2024-02-28T17:17:09.218Z,english_775.wav,0,peel,1312,23,5,5,français,f,5,0.5,-48.12825779,1.02834673
60fd01d7f7b981fdbe1f1b44,13,0,2024-02-28T17:17:09.218Z,english_775.wav,0,peel,1312,23,5,5,français,f,6,0.6,31.75901499,0.26507894
60fd01d7f7b981fdbe1f1b44,13,0,2024-02-28T17:17:09.218Z,english_775.wav,0,peel,1312,23,5,5,français,f,7,0.7,26.51097314,0.89767529
60fd01d7f7b981fdbe1f1b44,13,0,2024-02-28T17:17:09.218Z,english_775.wav,0,peel,1312,23,5,5,français,f,8,0.8,-0.94893242,1.04721154
60fd01d7f7b981fdbe1f1b44,13,0,2024-02-28T17:17:09.218Z,english_775.wav,0,peel,1312,23,5,5,français,f,9,0.9,-80.42410318,1.94213174
60fd01d7f7b981fdbe1f1b44,13,0,2024-02-28T17:17:09.218Z,english_775.wav,0,peel,1312,23,5,5,français,f,10,1.0,-37.42269733,0.45384942
60fd01d7f7b981fdbe1f1b44,13,0,2024-02-28T17:17:09.218Z,english_775.wav,0,peel,1312,23,5,5,français,f,11,1.09391667,-30.31023423,1.30082565
60fd01d7f7b981fdbe1f1b44,14,0,2024-02-28T17:17:09.218Z,english_875.wav,0,peel,306,23,5,5,français,f,0,0.0,96.8338791,1.90969426
60fd01d7f7b981fdbe1f1b44,14,0,2024-02-28T17:17:09.218Z,english_875.wav,0,peel,306,23,5,5,français,f,1,0.1,37.68794022,1.00034929
60fd01d7f7b981fdbe1f1b44,14,0,2024-02-28T17:17:09.218Z,english_875.wav,0,peel,306,23,5,5,français,f,2,0.2,13.97824571,1.17763903
60fd01d7f7b981fdbe1f1b44,14,0,2024-02-28T17:17:09.218Z,english_875.wav,0,peel,306,23,5,5,français,f,3,0.3,18.96990702,0.35889427
60fd01d7f7b981fdbe1f1b44,14,0,2024-02-28T17:17:09.218Z,english_875.wav,0,peel,306,23,5,5,français,f,4,0.4,63.2084655,0.91300026
60fd01d7f7b981fdbe1f1b44,14,0,2024-02-28T17:17:09.218Z,english_875.wav,0,peel,306,23,5,5,français,f,5,0.5,-98.93629382,1.19226844
60fd01d7f7b981fdbe1f1b44,14,0,2024-02-28T17:17:09.218Z,english_875.wav,0,peel,306,23,5,5,français,f,6,0.6,81.29612198,1.44163348
60fd01d7f7b981fdbe1f1b44,14,0,2024-02-28T17:17:09.218Z,english_875.wav,0,peel,306,23,5,5,français,f,7,0.7,50.14728488,1.08588615
60fd01d7f7b981fdbe1f1b44,14,0,2024-02-28T17:17:09.218Z,english_875.wav,0,peel,306,23,5,5,français,f,8,0.8,13.48666865,1.80200416
60fd01d7f7b981fdbe1f1b44,14,0,2024-02-28T17:17:09.218Z,english_875.wav,0,peel,306,23,5,5,français,f,9,0.9,9.04770509,0.81736325
60fd01d7f7b981fdbe1f1b44,14,0,2024-02-28T17:17:09.218Z,english_875.wav,0,peel,306,23,5,5,français,f,10,1.0,37.35188663,1.15050925
60fd01d7f7b981fdbe1f1b44,14,0,2024-02-28T17:17:09.218Z,english_875.wav,0,peel,306,23,5,5,français,f,11,1.09391667,68.7171347,1.96049823
60fd01d7f7b981fdbe1f1b44,15,0,2024-02-28T17:17:09.218Z,english_330.wav,0,peel,400,23,5,5,français,f,0,0.0,2.24171654,0.54683967
60fd01d7f7b981fdbe1f1b44,15,0,2024-02-28T17:17:09.218Z,english_330.wav,0,peel,400,23,5,5,français,f,1,0.1,-47.25901686,1.92392168
60fd01d7f7b981fdbe1f1b44,15,0,2024-02-28T17:17:09.218Z,english_330.wav,0,peel,400,23,5,5,français,f,2,0.2,-45.6229367,0.88546949
60fd01d7f7b981fdbe1f1b44,15,0,2024-02-28T17:17:09.218Z,english_330.wav,0,peel,400,23,5,5,français,f,3,0.3,-66.26500136,1.41106585
60fd01d7f7b981fdbe1f1b44,15,0,2024-02-28T17:17:09.218Z,english_330.wav,0,peel,400,23,5,5,français,f,4,0.4,13.126007,1.87683818
60fd01d7f7b981fdbe1f1b44,15,0,2024-02-28T17:17:09.218Z,english_330.wav,0,peel,400,23,5,5,français,f,5,0.5,-55.3162329,1.08870848
60fd01d7f7b981fdbe1f1b44,15,0,2024-02-28T17:17:09.218Z,english_330.wav,0,peel,400,23,5,5,français,f,6,0.6,-44.94887053,0.98346159
60fd01d7f7b981fdbe1f1b44,15,0,2024-02-28T17:17:09.218Z,english_330.wav,0,peel,400,23,5,5,français,f,7,0.7,21.08483531,0.45031197
60fd01d7f7b981fdbe1f1b44,15,0,2024-02-28T17:17:09.218Z,english_330.wav,0,peel,400,23,5,5,français,f,8,0.8,-37.88434209,1.40044514
60fd01d7f7b981fdbe1f1b44,15,0,2024-02-28T17:17:09.218Z,english_330.wav,0,peel,400,23,5,5,français,f,9,0.9,4.20371748,0.75112893
60fd01d7f7b981fdbe1f1b44,15,0,2024-02-28T17:17:09.218Z,english_330.wav,0,peel,400,23,5,5,français,f,10,1.0,80.65582765,0.77181744
60fd01d7f7b981fdbe1f1b44,15,0,2024-02-28T17:17:09.218Z,english_330.wav,0,peel,400,23,5,5,français,f,11,1.09391667,87.33082059,0.38922024
60fd01d7f7b981fdbe1f1b44,16,0,2024-02-28T17:17:09.218Z,english_768.wav,0,peel,459,23,5,5,français,f,0,0.0,-36.48023157,0.55176247
60fd01d7f7b981fdbe1f1b44,16,0,2024-02-28T17:17:09.218Z,english_768.wav,0,peel,459,23,5,5,français,f,1,0.1,-17.61338817,1.65861302
60fd01d7f7b981fdbe1f1b44,16,0,2024-02-28T17:17:09.218Z,english_768.wav,0,peel,459,23,5,5,français,f,2,0.2,-51.57524938,0.62782429
60fd01d7f7b981fdbe1f1b44,16,0,2024-02-28T17:17:09.218Z,english_768.wav,0,peel,459,23,5,5,français,f,3,0.3,-57.67169634,1.15733197
60fd01d7f7b981fdbe1f1b44,16,0,2024-02-28T17:17:09.218Z,english_768.wav,0,peel,459,23,5,5,français,f,4,0.4,-45.04246972,0.58074534
60fd01d7f7b981fdbe1f1b44,16,0,2024-02-28T17:17:09.218Z,english_768.wav,0,peel,459,23,5,5,français,f,5,0.5,86.8588591,1.30969463
60fd01d7f7b981fdbe1f1b44,16,0,2024-02-28T17:17:09.218Z,english_768.wav,0,peel,459,23,5,5,français,f,6,0.6,-19.62051646,1.74894393
60fd01d7f7b981fdbe1f1b44,16,0,2024-02-28T17:17:09.218Z,english_768.wav,0,peel,459,23,5,5,français,f,7,0.7,60.7133964,1.23441546
60fd01d7f7b981fdbe1f1b44,16,0,2024-02-28T17:17:09.218Z,english_768.wav,0,peel,459,23,5,5,français,f,8,0.8,52.81660848,1.13072786
60fd01d7f7b981fdbe1f1b44,16,0,2024-02-28T17:17:09.218Z,english_768.wav,0,peel,459,23,5,5,français,f,9,0.9,-71.2236391,0.61655986
60fd01d7f7b981fdbe1f1b44,16,0,2024-02-28T17:17:09.218Z,english_768.wav,0,peel,459,23,5,5,français,f,10,1.0,-61.78017138,0.77540725
60fd01d7f7b981fdbe1f1b44,16,0,2024-02-28T17:17:09.218Z,english_768.wav,0,peel,459,23,5,5,français,f,11,1.09391667,-60.86782653,0.19180019
60fd01d7f7b981fdbe1f1b44,17,0,2024-02-28T17:17:09.218Z,english_144.wav,0,peel,518,23,5,5,français,f,0,0.0,31.57285019,1.02092862
60fd01d7f7b981fdbe1f1b44,17,0,2024-02-28T17:17:09.218Z,english_144.wav,0,peel,518,23,5,5,français,f,1,0.1,-66.82367858,1.21687454
60fd01d7f7b981fdbe1f1b44,17,0,2024-02-28T17:17:09.218Z,english_144.wav,0,peel,518,23,5,5,français,f,2,0.2,25.9026646,0.83451974
60fd01d7f7b981fdbe1f1b44,17,0,2024-02-28T17:17:09.218Z,english_144.wav,0,peel,518,23,5,5,français,f,3,0.3,-73.3005143,1.57454957
60fd01d7f7b981fdbe1f1b44,17,0,2024-02-28T17:17:09.218Z,english_144.wav,0,peel,518,23,5,5,français,f,4,0.4,44.123678,0.07717076
60fd01d7f7b981fdbe1f1b44,17,0,2024-02-28T17:17:09.218Z,english_144.wav,0,peel,518,23,5,5,français,f,5,0.5,49.27770762,0.27181384
60fd01d7f7b981fdbe1f1b44,17,0,2024-02-28T17:17:09.218Z,english_144.wav,0,peel,518,23,5,5,français,f,6,0.6,22.38256085,1.7133157
60fd01d7f7b981fdbe1f1b44,17,0,2024-02-28T17:17:09.218Z,english_144.wav,0,peel,518,23,5,5,français,f,7,0.7,-9.16605426,1.06775729
60fd01d7f7b981fdbe1f1b44,17,0,2024-02-28T17:17:09.218Z,english_144.wav,0,peel,518,23,5,5,français,f,8,0.8,-36.80428778,1.42091993
60fd01d7f7b981fdbe1f1b44,17,0,2024-02-28T17:17:09.218Z,english_144.wav,0,peel,518,23,5,5,français,f,9,0.9,-3.57060361,0.01524657
60fd01d7f7b981fdbe1f1b44,17,0,2024-02-28T17:17:09.218Z,english_144.wav,0,peel,518,23,5,5,français,f,10,1.0,-56.05458997,0.90246411
60fd01d7f7b981fdbe1f1b44,17,0,2024-02-28T17:17:09.218Z,english_144.wav,0,peel,518,23,5,5,français,f,11,1.09391667,-88.6470882,1.74083532
60fd01d7f7b981fdbe1f1b44,18,0,2024-02-28T17:17:09.218Z,english_313.wav,0,peel,397,23,5,5,français,f,0,0.0,-22.0180916,0.52298953
60fd01d7f7b981fdbe1f1b44,18,0,2024-02-28T17:17:09.218Z,english_313.wav,0,peel,397,23,5,5,français,f,1,0.1,96.16831441,0.58043298
60fd01d7f7b981fdbe1f1b44,18,0,2024-02-28T17:17:09.218Z,english_313.wav,0,peel,397,23,5,5,français,f,2,0.2,-45.33444961,0.43861373
60fd01d7f7b981fdbe1f1b44,18,0,2024-02-28T17:17:09.218Z,english_313.wav,0,peel,397,23,5,5,français,f,3,0.3,-30.76295123,0.29063093
60fd01d7f7b981fdbe1f1b44,18,0,2024-02-28T17:17:09.218Z,english_313.wav,0,peel,397,23,5,5,français,f,4,0.4,27.42080434,1.23880448
60fd01d7f7b981fdbe1f1b44,18,0,2024-02-28T17:17:09.218Z,english_313.wav,0,peel,397,23,5,5,français,f,5,0.5,96.50313713,0.08705859
60fd01d7f7b981fdbe1f1b44,18,0,2024-02-28T17:17:09.218Z,english_313.wav,0,peel,397,23,5,5,français,f,6,0.6,-0.94763764,1.32086894
60fd01d7f7b981fdbe1f1b44,18,0,2024-02-28T17:17:09.218Z,english_313.wav,0,peel,397,23,5,5,français,f,7,0.7,67.04457313,1.2914561
60fd01d7f7b981fdbe1f1b44,18,0,2024-02-28T17:17:09.218Z,english_313.wav,0,peel,397,23,5,5,français,f,8,0.8,2.6862445,0.44865702
60fd01d7f7b981fdbe1f1b44,18,0,2024-02-28T17:17:09.218Z,english_313.wav,0,peel,397,23,5,5,français,f,9,0.9,47.07555832,1.89388378
60fd01d7f7b981fdbe1f1b44,18,0,2024-02-28T17:17:09.218Z,english_313.wav,0,peel,397,23,5,5,français,f,10,1.0,-32.41079138,1.69735018
60fd01d7f7b981fdbe1f1b44,18,0,2024-02-28T17:17:09.218Z,english_313.wav,0,peel,397,23,5,5,français,f,11,1.09391667,11.15794631,1.75721469
60fd01d7f7b981fdbe1f1b44,19,0,2024-02-28T17:17:09.218Z,english_209.wav,0,peel,664,23,5,5,français,f,0,0.0,-69.97643607,1.01752059
60fd01d7f7b981fdbe1f1b44,19,0,2024-02-28T17:17:09.218Z,english_209.wav,0,peel,664,23,5,5,français,f,1,0.1,-88.52393114,0.50741315
60fd01d7f7b981fdbe1f1b44,19,0,2024-02-28T17:17:09.218Z,english_209.wav,0,peel,664,23,5,5,français,f,2,0.2,-92.64381406,1.61277815
60fd01d7f7b981fdbe1f1b44,19,0,2024-02-28T17:17:09.218Z,english_209.wav,0,peel,664,23,5,5,français,f,3,0.3,-12.19607679,1.4872908
60fd01d7f7b981fdbe1f1b44,19,0,2024-02-28T17:17:09.218Z,english_209.wav,0,peel,664,23,5,5,français,f,4,0.4,51.51628924,0.5793757
60fd01d7f7b981fdbe1f1b44,19,0,2024-02-28T17:17:09.218Z,english_209.wav,0,peel,664,23,5,5,français,f,5,0.5,-0.64468501,0.52779709
60fd01d7f7b981fdbe1f1b44,19,0,2024-02-28T17:17:09.218Z,english_209.wav,0,peel,664,23,5,5,français,f,6,0.6,71.59302863,0.0231703
60fd01d7f7b981fdbe1f1b44,19,0,2024-02-28T17:17:09.218Z,english_209.wav,0,peel,664,23,5,5,français,f,7,0.7,-9.81029184,1.34840208
60fd01d7f7b981fdbe1f1b44,19,0,2024-02-28T17:17:09.218Z,english_209.wav,0,peel,664,23,5,5,français,f,8,0.8,-24.63818078,0.66467052
60fd01d7f7b981fdbe1f1b44,19,0,2024-02-28T17:17:09.218Z,english_209.wav,0,peel,664,23,5,5,français,f,9,0.9,-3.20105403,0.39411628
60fd01d7f7b981fdbe1f1b44,19,0,2024-02-28T17:17:09.218Z,english_209.wav,0,peel,664,23,5,5,français,f,10,1.0,34.64482647,0.07463584
60fd01d7f7b981fdbe1f1b44,19,0,2024-02-28T17:17:09.218Z,english_209.wav,0,peel,664,23,5,5,français,f,11,1.09391667,-96.73374827,1.52336413
60fd01d7f7b981fdbe1f1b44,20,0,2024-02-28T17:17:09.218Z,english_694.wav,0,peel,430,23,5,5,français,f,0,0.0,28.89643962,0.23097519
60fd01d7f7b981fdbe1f1b44,20,0,2024-02-28T17:17:09.218Z,english_694.wav,0,peel,430,23,5,5,français,f,1,0.1,-44.49941165,1.12594213
60fd01d7f7b981fdbe1f1b44,20,0,2024-02-28T17:17:09.218Z,english_694.wav,0,peel,430,23,5,5,français,f,2,0.2,60.6754056,1.01502789
60fd01d7f7b981fdbe1f1b44,20,0,2024-02-28T17:17:09.218Z,english_694.wav,0,peel,430,23,5,5,français,f,3,0.3,72.66869222,0.55545347
60fd01d7f7b981fdbe1f1b44,20,0,2024-02-28T17:17:09.218Z,english_694.wav,0,peel,430,23,5,5,français,f,4,0.4,26.91102981,0.313515
60fd01d7f7b981fdbe1f1b44,20,0,2024-02-28T17:17:09.218Z,english_694.wav,0,peel,430,23,5,5,français,f,5,0.5,-19.36398165,0.8133174
60fd01d7f7b981fdbe1f1b44,20,0,2024-02-28T17:17:09.218Z,english_694.wav,0,peel,430,23,5,5,français,f,6,0.6,83.61982614,0.08479119
60fd01d7f7b981fdbe1f1b44,20,0,2024-02-28T17:17:09.218Z,english_694.wav,0,peel,430,23,5,5,français,f,7,0.7,-93.83830037,1.36590055
60fd01d7f7b981fdbe1f1b44,20,0,2024-02-28T17:17:09.218Z,english_694.wav,0,peel,430,23,5,5,français,f,8,0.8,-41.75440855,1.50882856
60fd01d7f7b981fdbe1f1b44,20,0,2024-02-28T17:17:09.218Z,english_694.wav,0,peel,430,23,5,5,français,f,9,0.9,-17.17525064,1.54263899
60fd01d7f7b981fdbe1f1b44,20,0,2024-02-28T17:17:09.218Z,english_694.wav,0,peel,430,23,5,5,français,f,10,1.0,5.88397372,1.28663395
60fd01d7f7b981fdbe1f1b44,20,0,2024-02-28T17:17:09.218Z,english_694.wav,0,peel,430,23,5,5,français,f,11,1.09391667,84.29938157,0.05122723
60fd01d7f7b981fdbe1f1b44,21,0,2024-02-28T17:17:09.218Z,english_177.wav,0,peel,1098,23,5,5,français,f,0,0.0,-57.81596748,0.69761869
60fd01d7f7b981fdbe1f1b44,21,0,2024-02-28T17:17:09.218Z,english_177.wav,0,peel,1098,23,5,5,français,f,1,0.1,-87.62944192,1.53783025
60fd01d7f7b981fdbe1f1b44,21,0,2024-02-28T17:17:09.218Z,english_177.wav,0,peel,1098,23,5,5,français,f,2,0.2,-12.74583394,0.70741291
60fd01d7f7b981fdbe1f1b44,21,0,2024-02-28T17:17:09.218Z,english_177.wav,0,peel,1098,23,5,5,français,f,3,0.3,-2.66394442,0.02843329
60fd01d7f7b981fdbe1f1b44,21,0,2024-02-28T17:17:09.218Z,english_177.wav,0,peel,1098,23,5,5,français,f,4,0.4,28.11680056,0.56005584
60fd01d7f7b981fdbe1f1b44,21,0,2024-02-28T17:17:09.218Z,english_177.wav,0,peel,1098,23,5,5,français,f,5,0.5,82.07769197,0.13324212
60fd01d7f7b981fdbe1f1b44,21,0,2024-02-28T17:17:09.218Z,english_177.wav,0,peel,1098,23,5,5,français,f,6,0.6,-8.30720051,0.4590918
60fd01d7f7b981fdbe1f1b44,21,0,2024-02-28T17:17:09.218Z,english_177.wav,0,peel,1098,23,5,5,français,f,7,0.7,81.97133583,1.98307648
60fd01d7f7b981fdbe1f1b44,21,0,2024-02-28T17:17:09.218Z,english_177.wav,0,peel,1098,23,5,5,français,f,8,0.8,50.88605448,1.78311129
60fd01d7f7b981fdbe1f1b44,21,0,2024-02-28T17:17:09.218Z,english_177.wav,0,peel,1098,23,5,5,français,f,9,0.9,19.94892862,0.31041574
60fd01d7f7b981fdbe1f1b44,21,0,2024-02-28T17:17:09.218Z,english_177.wav,0,peel,1098,23,5,5,français,f,10,1.0,38.05594955,0.36871164
60fd01d7f7b981fdbe1f1b44,21,0,2024-02-28T17:17:09.218Z,english_177.wav,0,peel,1098,23,5,5,français,f,11,1.09391667,14.05932683,1.41932356
60fd01d7f7b981fdbe1f1b44,22,0,2024-02-28T17:17:09.218Z,english_514.wav,0,peel,712,23,5,5,français,f,0,0.0,-59.82766829,1.35471226
60fd01d7f7b981fdbe1f1b44,22,0,2024-02-28T17:17:09.218Z,english_514.wav,0,peel,712,23,5,5,français,f,1,0.1,-4.54284015,0.81191054
60fd01d7f7b981fdbe1f1b44,22,0,2024-02-28T17:17:09.218Z,english_514.wav,0,peel,712,23,5,5,français,f,2,0.2,75.12688257,1.30120799
60fd01d7f7b981fdbe1f1b44,22,0,2024-02-28T17:17:09.218Z,english_514.wav,0,peel,712,23,5,5,français,f,3,0.3,52.77263543,1.91982738
60fd01d7f7b981fdbe1f1b44,22,0,2024-02-28T17:17:09.218Z,english_514.wav,0,peel,712,23,5,5,français,f,4,0.4,-86.38859223,1.85775535
60fd01d7f7b981fdbe1f1b44,22,0,2024-02-28T17:17:09.218Z,english_514.wav,0,peel,712,23,5,5,français,f,5,0.5,22.0573972,0.92799532
60fd01d7f7b981fdbe1f1b44,22,0,2024-02-28T17:17:09.218Z,english_514.wav,0,peel,712,23,5,5,français,f,6,0.6,-81.94223644,0.39882237
60fd01d7f7b981fdbe1f1b44,22,0,2024-02-28T17:17:09.218Z,english_514.wav,0,peel,712,23,5,5,français,f,7,0.7,33.46090425,1.85696096
60fd01d7f7b981fdbe1f1b44,22,0,2024-02-28T17:17:09.218Z,english_514.wav,0,peel,712,23,5,5,français,f,8,0.8,10.59703074,0.26578536
60fd01d7f7b981fdbe1f1b44,22,0,2024-02-28T17:17:09.218Z,english_514.wav,0,peel,712,23,5,5,français,f,9,0.9,74.40481447,1.80594265
60fd01d7f7b981fdbe1f1b44,22,0,2024-02-28T17:17:09.218Z,english_514.wav,0,peel,712,23,5,5,français,f,10,1.0,35.18551728,0.66929464
60fd01d7f7b981fdbe1f1b44,22,0,2024-02-28T17:17:09.218Z,english_514.wav,0,peel,712,23,5,5,français,f,11,1.09391667,-52.88743611,1.62933111
60fd01d7f7b981fdbe1f1b44,23,0,2024-02-28T17:17:09.218Z,english_703.wav,0,peel,993,23,5,5,français,f,0,0.0,78.46017663,1.67482732
60fd01d7f7b981fdbe1f1b44,23,0,2024-02-28T17:17:09.218Z,english_703.wav,0,peel,993,23,5,5,français,f,1,0.1,78.89990628,0.94697422
60fd01d7f7b981fdbe1f1b44,23,0,2024-02-28T17:17:09.218Z,english_703.wav,0,peel,993,23,5,5,français,f,2,0.2,1.22121352,1.07367108
60fd01d7f7b981fdbe1f1b44,23,0,2024-02-28T17:17:09.218Z,english_703.wav,0,peel,993,23,5,5,français,f,3,0.3,-13.66512032,0.83871506
60fd01d7f7b981fdbe1f1b44,23,0,2024-02-28T17:17:09.218Z,english_703.wav,0,peel,993,23,5,5,français,f,4,0.4,59.78772349,1.95413199
60fd01d7f7b981fdbe1f1b44,23,0,2024-02-28T17:17:09.218Z,english_703.wav,0,peel,993,23,5,5,français,f,5,0.5,33.72988184,1.09413462
60fd01d7f7b981fdbe1f1b44,23,0,2024-02-28T17:17:09.218Z,english_703.wav,0,peel,993,23,5,5,français,f,6,0.6,-23.35963014,0.42330202
60fd01d7f7b981fdbe1f1b44,23,0,2024-02-28T17:17:09.218Z,english_703.wav,0,peel,993,23,5,5,français,f,7,0.7,8.84013909,1.69590524
60fd01d7f7b981fdbe1f1b44,23,0,2024-02-28T17:17:09.218Z,english_703.wav,0,peel,993,23,5,5,français,f,8,0.8,-91.65457131,0.02701352
60fd01d7f7b981fdbe1f1b44,23,0,2024-02-28T17:17:09.218Z,english_703.wav,0,peel,993,23,5,5,français,f,9,0.9,-19.77683044,1.37794046
60fd01d7f7b981fdbe1f1b44,23,0,2024-02-28T17:17:09.218Z,english_703.wav,0,peel,993,23,5,5,français,f,10,1.0,93.0408658,1.99856472
60fd01d7f7b981fdbe1f1b44,23,0,2024-02-28T17:17:09.218Z,english_703.wav,0,peel,993,23,5,5,français,f,11,1.09391667,-46.92339825,0.84923666
60fd01d7f7b981fdbe1f1b44,24,0,2024-02-28T17:17:09.218Z,english_998.wav,0,peel,539,23,5,5,français,f,0,0.0,-83.67346728,1.27391906
60fd01d7f7b981fdbe1f1b44,24,0,2024-02-28T17:17:09.218Z,english_998.wav,0,peel,539,23,5,5,français,f,1,0.1,-68.43297462,0.75913393
60fd01d7f7b981fdbe1f1b44,24,0,2024-02-28T17:17:09.218Z,english_998.wav,0,peel,539,23,5,5,français,f,2,0.2,47.84560439,1.02363825
60fd01d7f7b981fdbe1f1b44,24,0,2024-02-28T17:17:09.218Z,english_998.wav,0,peel,539,23,5,5,français,f,3,0.3,71.43971258,1.78775676
60fd01d7f7b981fdbe1f1b44,24,0,2024-02-28T17:17:09.218Z,english_998.wav,0,peel,539,23,5,5,français,f,4,0.4,-30.40941836,0.0961221
60fd01d7f7b981fdbe1f1b44,24,0,2024-02-28T17:17:09.218Z,english_998.wav,0,peel,539,23,5,5,français,f,5,0.5,69.31214212,1.18933693
60fd01d7f7b981fdbe1f1b44,24,0,2024-02-28T17:17:09.218Z,english_998.wav,0,peel,539,23,5,5,français,f,6,0.6,-95.04564508,1.9379163
60fd01d7f7b981fdbe1f1b44,24,0,2024-02-28T17:17:09.218Z,english_998.wav,0,peel,539,23,5,5,français,f,7,0.7,-61.88405175,1.91389769
60fd01d7f7b981fdbe1f1b44,24,0,2024-02-28T17:17:09.218Z,english_998.wav,0,peel,539,23,5,5,français,f,8,0.8,11.43915949,1.08895614
60fd01d7f7b981fdbe1f1b44,24,0,2024-02-28T17:17:09.218Z,english_998.wav,0,peel,539,23,5,5,français,f,9,0.9,79.6365109,1.52042952
60fd01d7f7b981fdbe1f1b44,24,0,2024-02-28T17:17:09.218Z,english_998.wav,0,peel,539,23,5,5,français,f,10,1.0,58.29305302,0.38016323
60fd01d7f7b981fdbe1f1b44,24,0,2024-02-28T17:17:09.218Z,english_998.wav,0,peel,539,23,5,5,français,f,11,1.09391667,44.0288717,1.77799574
60fd01d7f7b981fdbe1f1b44,25,0,2024-02-28T17:17:09.218Z,english_817.wav,0,peel,584,23,5,5,français,f,0,0.0,39.93653704,0.59804512
60fd01d7f7b981fdbe1f1b44,25,0,2024-02-28T17:17:09.218Z,english_817.wav,0,peel,584,23,5,5,français,f,1,0.1,-44.37889142,1.22051814
60fd01d7f7b981fdbe1f1b44,25,0,2024-02-28T17:17:09.218Z,english_817.wav,0,peel,584,23,5,5,français,f,2,0.2,-71.95009912,1.02272202
60fd01d7f7b981fdbe1f1b44,25,0,2024-02-28T17:17:09.218Z,english_817.wav,0,peel,584,23,5,5,français,f,3,0.3,0.10723305,0.82768739
60fd01d7f7b981fdbe1f1b44,25,0,2024-02-28T17:17:09.218Z,english_817.wav,0,peel,584,23,5,5,français,f,4,0.4,32.85070006,0.75023907
60fd01d7f7b981fdbe1f1b44,25,0,2024-02-28T17:17:09.218Z,english_817.wav,0,peel,584,23,5,5,français,f,5,0.5,84.39314217,1.45571946
60fd01d7f7b981fdbe1f1b44,25,0,2024-02-28T17:17:09.218Z,english_817.wav,0,peel,584,23,5,5,français,f,6,0.6,-27.64718927,1.19333558
60fd01d7f7b981fdbe1f1b44,25,0,2024-02-28T17:17:09.218Z,english_817.wav,0,peel,584,23,5,5,français,f,7,0.7,-96.89614882,0.88124366
60fd01d7f7b981fdbe1f1b44,25,0,2024-02-28T17:17:09.218Z,english_817.wav,0,peel,584,23,5,5,français,f,8,0.8,78.14592137,1.40555944
60fd01d7f7b981fdbe1f1b44,25,0,2024-02-28T17:17:09.218Z,english_817.wav,0,peel,584,23,5,5,français,f,9,0.9,-23.71803159,0.40947716
60fd01d7f7b981fdbe1f1b44,25,0,2024-02-28T17:17:09.218Z,english_817.wav,0,peel,584,23,5,5,français,f,10,1.0,-89.09326047,0.89036455
60fd01d7f7b981fdbe1f1b44,25,0,2024-02-28T17:17:09.218Z,english_817.wav,0,peel,584,23,5,5,français,f,11,1.09391667,-7.75099391,1.8115698
60fd01d7f7b981fdbe1f1b44,26,0,2024-02-28T17:17:09.218Z,english_805.wav,0,pill,2457,23,5,5,français,f,0,0.0,19.24000096,0.52175854
60fd01d7f7b981fdbe1f1b44,26,0,2024-02-28T17:17:09.218Z,english_805.wav,0,pill,2457,23,5,5,français,f,1,0.1,-57.56428934,1.45107426
60fd01d7f7b981fdbe1f1b44,26,0,2024-02-28T17:17:09.218Z,english_805.wav,0,pill,2457,23,5,5,français,f,2,0.2,-17.74165003,1.66296684
60fd01d7f7b981fdbe1f1b44,26,0,2024-02-28T17:17:09.218Z,english_805.wav,0,pill,2457,23,5,5,français,f,3,0.3,94.45114709,1.339528
60fd01d7f7b981fdbe1f1b44,26,0,2024-02-28T17:17:09.218Z,english_805.wav,0,pill,2457,23,5,5,français,f,4,0.4,58.80414928,1.45905309
60fd01d7f7b981fdbe1f1b44,26,0,2024-02-28T17:17:09.218Z,english_805.wav,0,pill,2457,23,5,5,français,f,5,0.5,15.95265091,0.95701688
60fd01d7f7b981fdbe1f1b44,26,0,2024-02-28T17:17:09.218Z,english_805.wav,0,pill,2457,23,5,5,français,f,6,0.6,-64.01744173,0.10004415
60fd01d7f7b981fdbe1f1b44,26,0,2024-02-28T17:17:09.218Z,english_805.wav,0,pill,2457,23,5,5,français,f,7,0.7,-39.81720589,1.33408917
60fd01d7f7b981fdbe1f1b44,26,0,2024-02-28T17:17:09.218Z,english_805.wav,0,pill,2457,23,5,5,français,f,8,0.8,48.58222908,0.26158276
60fd01d7f7b981fdbe1f1b44,26,0,2024-02-28T17:17:09.218Z,english_805.wav,0,pill,2457,23,5,5,français,f,9,0.9,79.1348353,0.78316965
60fd01d7f7b981fdbe1f1b44,26,0,2024-02-28T17:17:09.218Z,english_805.wav,0,pill,2457,23,5,5,français,f,10,1.0,66.03274921,0.77046412
60fd01d7f7b981fdbe1f1b44,26,0,2024-02-28T17:17:09.218Z,english_805.wav,0,pill,2457,23,5,5,français,f,11,1.09391667,-37.34721406,0.38567889
60fd01d7f7b981fdbe1f1b44,27,0,2024-02-28T17:17:09.218Z,english_559.wav,0,peel,752,23,5,5,français,f,0,0.0,-22.58359419,0.41474403
60fd01d7f7b981fdbe1f1b44,27,0,2024-02-28T17:17:09.218Z,english_559.wav,0,peel,752,23,5,5,français,f,1,0.1,-30.96921825,0.71205907
60fd01d7f7b981fdbe1f1b44,27,0,2024-02-28T17:17:09.218Z,english_559.wav,0,peel,752,23,5,5,français,f,2,0.2,-86.1378048,1.69519751
60fd01d7f7b981fdbe1f1b44,27,0,2024-02-28T17:17:09.218Z,english_559.wav,0,peel,752,23,5,5,français,f,3,0.3,29.82360498,1.01062692
60fd01d7f7b981fdbe1f1b44,27,0,2024-02-28T17:17:09.218Z,english_559.wav,0,peel,752,23,5,5,français,f,4,0.4,38.1322139,1.05592913
60fd01d7f7b981fdbe1f1b44,27,0,2024-02-28T17:17:09.218Z,english_559.wav,0,peel,752,23,5,5,français,f,5,0.5,58.32762061,0.6684902
60fd01d7f7b981fdbe1f1b44,27,0,2024-02-28T17:17:09.218Z,english_559.wav,0,peel,752,23,5,5,français,f,6,0.6,22.70409536,0.92808907
60fd01d7f7b981fdbe1f1b44,27,0,2024-02-28T17:17:09.218Z,english_559.wav,0,peel,752,23,5,5,français,f,7,0.7,-21.11680564,1.67728702
60fd01d7f7b981fdbe1f1b44,27,0,2024-02-28T17:17:09.218Z,english_559.wav,0,peel,752,23,5,5,français,f,8,0.8,76.91113815,0.99155685
60fd01d7f7b981fdbe1f1b44,27,0,2024-02-28T17:17:09.218Z,english_559.wav,0,peel,752,23,5,5,français,f,9,0.9,-79.88102102,1.28910569
60fd01d7f7b981fdbe1f1b44,27,0,2024-02-28T17:17:09.218Z,english_559.wav,0,peel,752,23,5,5,français,f,10,1.0,83.63275499,1.70810559
60fd01d7f7b981fdbe1f1b44,27,0,2024-02-28T17:17:09.218Z,english_559.wav,0,peel,752,23,5,5,français,f,11,1.09391667,-89.81944345,1.28508404
60fd01d7f7b981fdbe1f1b44,28,0,2024-02-28T17:17:09.218Z,english_250.wav,0,peel,808,23,5,5,français,f,0,0.0,-2.1507045,1.65815165
60fd01d7f7b981fdbe1f1b44,28,0,2024-02-28T17:17:09.218Z,english_250.wav,0,peel,808,23,5,5,français,f,1,0.1,-59.20535761,0.73684424
60fd01d7f7b981fdbe1f1b44,28,0,2024-02-28T17:17:09.218Z,english_250.wav,0,peel,808,23,5,5,français,f,2,0.2,33.81892305,0.78053485
60fd01d7f7b981fdbe1f1b44,28,0,2024-02-28T17:17:09.218Z,english_250.wav,0,peel,808,23,5,5,français,f,3,0.3,43.78107199,1.26996131
60fd01d7f7b981fdbe1f1b44,28,0,2024-02-28T17:17:09.218Z,english_250.wav,0,peel,808,23,5,5,français,f,4,0.4,-58.56253377,1.90489744
60fd01d7f7b981fdbe1f1b44,28,0,2024-02-28T17:17:09.218Z,english_250.wav,0,peel,808,23,5,5,français,f,5,0.5,-73.24110126,0.31125788
60fd01d7f7b981fdbe1f1b44,28,0,2024-02-28T17:17:09.218Z,english_250.wav,0,peel,808,23,5,5,français,f,6,0.6,77.97062328,0.73718841
60fd01d7f7b981fdbe1f1b44,28,0,2024-02-28T17:17:09.218Z,english_250.wav,0,peel,808,23,5,5,français,f,7,0.7,-37.56549364,0.04729413
60fd01d7f7b981fdbe1f1b44,28,0,2024-02-28T17:17:09.218Z,english_250.wav,0,peel,808,23,5,5,français,f,8,0.8,57.43189813,1.70152056
60fd01d7f7b981fdbe1f1b44,28,0,2024-02-28T17:17:09.218Z,english_250.wav,0,peel,808,23,5,5,français,f,9,0.9,46.17345888,0.07204925
60fd01d7f7b981fdbe1f1b44,28,0,2024-02-28T17:17:09.218Z,english_250.wav,0,peel,808,23,5,5,français,f,10,1.0,59.28871843,1.91615732
60fd01d7f7b981fdbe1f1b44,28,0,2024-02-28T17:17:09.218Z,english_250.wav,0,peel,808,23,5,5,français,f,11,1.09391667,54.90140723,1.08139277
60fd01d7f7b981fdbe1f1b44,29,0,2024-02-28T17:17:09.218Z,english_244.wav,0,peel,619,23,5,5,français,f,0,0.0,-16.89000739,1.36645613
60fd01d7f7b981fdbe1f1b44,29,0,2024-02-28T17:17:09.218Z,english_244.wav,0,peel,619,23,5,5,français,f,1,0.1,13.88621899,0.22689892
60fd01d7f7b981fdbe1f1b44,29,0,2024-02-28T17:17:09.218Z,english_244.wav,0,peel,619,23,5,5,français,f,2,0.2,19.5320734,0.7498897
60fd01d7f7b981fdbe1f1b44,29,0,2024-02-28T17:17:09.218Z,english_244.wav,0,peel,619,23,5,5,français,f,3,0.3,77.5555311,0.5439009
60fd01d7f7b981fdbe1f1b44,29,0,2024-02-28T17:17:09.218Z,english_244.wav,0,peel,619,23,5,5,français,f,4,0.4,-1.54182751,1.43453656
60fd01d7f7b981fdbe1f1b44,29,0,2024-02-28T17:17:09.218Z,english_244.wav,0,peel,619,23,5,5,français,f,5,0.5,-50.64945855,1.75844179
60fd01d7f7b981fdbe1f1b44,29,0,2024-02-28T17:17:09.218Z,english_244.wav,0,peel,619,23,5,5,français,f,6,0.6,-35.36321005,1.54599597
60fd01d7f7b981fdbe1f1b44,29,0,2024-02-28T17:17:09.218Z,english_244.wav,0,peel,619,23,5,5,français,f,7,0.7,-43.62157267,0.6923522
60fd01d7f7b981fdbe1f1b44,29,0,2024-02-28T17:17:09.218Z,english_244.wav,0,peel,619,23,5,5,français,f,8,0.8,3.96205992,0.7002794
60fd01d7f7b981fdbe1f1b44,29,0,2024-02-28T17:17:09.218Z,english_244.wav,0,peel,619,23,5,5,français,f,9,0.9,54.24324678,1.06972568
60fd01d7f7b981fdbe1f1b44,29,0,2024-02-28T17:17:09.218Z,english_244.wav,0,peel,619,23,5,5,français,f,10,1.0,76.68152807,1.30720641
60fd01d7f7b981fdbe1f1b44,29,0,2024-02-28T17:17:09.218Z,english_244.wav,0,peel,619,23,5,5,français,f,11,1.09391667,-97.15661366,0.50703606
60fd01d7f7b981fdbe1f1b44,30,0,2024-02-28T17:17:09.218Z,english_986.wav,0,peel,851,23,5,5,français,f,0,0.0,66.66952336,1.97934099
60fd01d7f7b981fdbe1f1b44,30,0,2024-02-28T17:17:09.218Z,english_986.wav,0,peel,851,23,5,5,français,f,1,0.1,96.9530251,1.29460225
60fd01d7f7b981fdbe1f1b44,30,0,2024-02-28T17:17:09.218Z,english_986.wav,0,peel,851,23,5,5,français,f,2,0.2,75.3477354,1.53421825
60fd01d7f7b981fdbe1f1b44,30,0,2024-02-28T17:17:09.218Z,english_986.wav,0,peel,851,23,5,5,français,f,3,0.3,-56.79707668,1.45039514
60fd01d7f7b981fdbe1f1b44,30,0,2024-02-28T17:17:09.218Z,english_986.wav,0,peel,851,23,5,5,français,f,4,0.4,68.50410973,0.98893675
60fd01d7f7b981fdbe1f1b44,30,0,2024-02-28T17:17:09.218Z,english_986.wav,0,peel,851,23,5,5,français,f,5,0.5,5.80156778,1.73927101
60fd01d7f7b981fdbe1f1b44,30,0,2024-02-28T17:17:09.218Z,english_986.wav,0,peel,851,23,5,5,français,f,6,0.6,-59.00857509,1.32684672
60fd01d7f7b981fdbe1f1b44,30,0,2024-02-28T17:17:09.218Z,english_986.wav,0,peel,851,23,5,5,français,f,7,0.7,23.78788766,1.65077043
60fd01d7f7b981fdbe1f1b44,30,0,2024-02-28T17:17:09.218Z,english_986.wav,0,peel,851,23,5,5,français,f,8,0.8,8.31255478,1.05904427
60fd01d7f7b981fdbe1f1b44,30,0,2024-02-28T17:17:09.218Z,english_986.wav,0,peel,851,23,5,5,français,f,9,0.9,-23.40072537,0.79622744
60fd01d7f7b981fdbe1f1b44,30,0,2024-02-28T17:17:09.218Z,english_986.wav,0,peel,851,23,5,5,français,f,10,1.0,36.6022418,1.94329627
60fd01d7f7b981fdbe1f1b44,30,0,2024-02-28T17:17:09.218Z,english_986.wav,0,peel,851,23,5,5,français,f,11,1.09391667,-51.87443186,1.45912014
60fd01d7f7b981fdbe1f1b44,31,0,2024-02-28T17:17:09.218Z,english_706.wav,0,peel,1272,23,5,5,français,f,0,0.0,-18.59828841,1.29674848
60fd01d7f7b981fdbe1f1b44,31,0,2024-02-28T17:17:09.218Z,english_706.wav,0,peel,1272,23,5,5,français,f,1,0.1,17.62467533,1.04037111
60fd01d7f7b981fdbe1f1b44,31,0,2024-02-28T17:17:09.218Z,english_706.wav,0,peel,1272,23,5,5,français,f,2,0.2,-32.04245358,0.06692701
60fd01d7f7b981fdbe1f1b44,31,0,2024-02-28T17:17:09.218Z,english_706.wav,0,peel,1272,23,5,5,français,f,3,0.3,-59.68997275,0.01228106
60fd01d7f7b981fdbe1f1b44,31,0,2024-02-28T17:17:09.218Z,english_706.wav,0,peel,1272,23,5,5,français,f,4,0.4,-88.86740026,1.17857321
60fd01d7f7b981fdbe1f1b44,31,0,2024-02-28T17:17:09.218Z,english_706.wav,0,peel,1272,23,5,5,français,f,5,0.5,20.33601639,0.64258097
60fd01d7f7b981fdbe1f1b44,31,0,2024-02-28T17:17:09.218Z,english_706.wav,0,peel,1272,23,5,5,français,f,6,0.6,88.8364898,0.45138919
60fd01d7f7b981fdbe1f1b44,31,0,2024-02-28T17:17:09.218Z,english_706.wav,0,peel,1272,23,5,5,français,f,7,0.7,-63.14338412,0.65752297
60fd01d7f7b981fdbe1f1b44,31,0,2024-02-28T17:17:09.218Z,english_706.wav,0,peel,1272,23,5,5,français,f,8,0.8,-30.16182588,0.08455698
60fd01d7f7b981fdbe1f1b44,31,0,2024-02-28T17:17:09.218Z,english_706.wav,0,peel,1272,23,5,5,français,f,9,0.9,58.36718538,1.13304912
60fd01d7f7b981fdbe1f1b44,31,0,2024-02-28T17:17:09.218Z,english_706.wav,0,peel,1272,23,5,5,français,f,10,1.0,-51.79248442,1.89686489
60fd01d7f7b981fdbe1f1b44,31,0,2024-02-28T17:17:09.218Z,english_706.wav,0,peel,1272,23,5,5,français,f,11,1.09391667,-57.45505408,1.14298605
60fd01d7f7b981fdbe1f1b44,32,0,2024-02-28T17:17:09.218Z,english_981.wav,0,peel,606,23,5,5,français,f,0,0.0,24.3055989,1.29303253
60fd01d7f7b981fdbe1f1b44,32,0,2024-02-28T17:17:09.218Z,english_981.wav,0,peel,606,23,5,5,français,f,1,0.1,28.97891723,1.06779992
60fd01d7f7b981fdbe1f1b44,32,0,2024-02-28T17:17:09.218Z,english_981.wav,0,peel,606,23,5,5,français,f,2,0.2,51.4418758,1.11588817
60fd01d7f7b981fdbe1f1b44,32,0,2024-02-28T17:17:09.218Z,english_981.wav,0,peel,606,23,5,5,français,f,3,0.3,-41.6425055,1.45059858
60fd01d7f7b981fdbe1f1b44,32,0,2024-02-28T17:17:09.218Z,english_981.wav,0,peel,606,23,5,5,français,f,4,0.4,-6.63622722,0.93926956
60fd01d7f7b981fdbe1f1b44,32,0,2024-02-28T17:17:09.218Z,english_981.wav,0,peel,606,23,5,5,français,f,5,0.5,90.98935315,0.09427917
60fd01d7f7b981fdbe1f1b44,32,0,2024-02-28T17:17:09.218Z,english_981.wav,0,peel,606,23,5,5,français,f,6,0.6,-91.30627378,0.99584654
60fd01d7f7b981fdbe1f1b44,32,0,2024-02-28T17:17:09.218Z,english_981.wav,0,peel,606,23,5,5,français,f,7,0.7,-70.54702949,1.20164622
60fd01d7f7b981fdbe1f1b44,32,0,2024-02-28T17:17:09.218Z,english_981.wav,0,peel,606,23,5,5,français,f,8,0.8,37.31249144,1.37323006
60fd01d7f7b981fdbe1f1b44,32,0,2024-02-28T17:17:09.218Z,english_981.wav,0,peel,606,23,5,5,français,f,9,0.9,44.20519134,0.98395355
60fd01d7f7b981fdbe1f1b44,32,0,2024-02-28T17:17:09.218Z,english_981.wav,0,peel,606,23,5,5,français,f,10,1.0,-85.22636705,0.17020531
60fd01d7f7b981fdbe1f1b44,32,0,2024-02-28T17:17:09.218Z,english_981.wav,0,peel,606,23,5,5,français,f,11,1.09391667,33.48956199,0.83321676
60fd01d7f7b981fdbe1f1b44,33,0,2024-02-28T17:17:09.218Z,english_787.wav,0,peel,510,23,5,5,français,f,0,0.0,75.50983857,0.8452738
60fd01d7f7b981fdbe1f1b44,33,0,2024-02-28T17:17:09.218Z,english_787.wav,0,peel,510,23,5,5,français,f,1,0.1,-1.58249906,0.76339694
60fd01d7f7b981fdbe1f1b44,33,0,2024-02-28T17:17:09.218Z,english_787.wav,0,peel,510,23,5,5,français,f,2,0.2,3.57353021,0.25803741
60fd01d7f7b981fdbe1f1b44,33,0,2024-02-28T17:17:09.218Z,english_787.wav,0,peel,510,23,5,5,français,f,3,0.3,-99.77057176,1.65296212
60fd01d7f7b981fdbe1f1b44,33,0,2024-02-28T17:17:09.218Z,english_787.wav,0,peel,510,23,5,5,français,f,4,0.4,-38.99568239,1.74214563
60fd01d7f7b981fdbe1f1b44,33,0,2024-02-28T17:17:09.218Z,english_787.wav,0,peel,510,23,5,5,français,f,5,0.5,15.30754913,0.91821048
60fd01d7f7b981fdbe1f1b44,33,0,2024-02-28T17:17:09.218Z,english_787.wav,0,peel,510,23,5,5,français,f,6,0.6,-97.41525775,1.20673022
60fd01d7f7b981fdbe1f1b44,33,0,2024-02-28T17:17:09.218Z,english_787.wav,0,peel,510,23,5,5,français,f,7,0.7,39.01293018,1.21324632
60fd01d7f7b981fdbe1f1b44,33,0,2024-02-28T17:17:09.218Z,english_787.wav,0,peel,510,23,5,5,français,f,8,0.8,42.79848726,1.47465653
60fd01d7f7b981fdbe1f1b44,33,0,2024-02-28T17:17:09.218Z,english_787.wav,0,peel,510,23,5,5,français,f,9,0.9,9.93276614,0.97625714
60fd01d7f7b981fdbe1f1b44,33,0,2024-02-28T17:17:09.218Z,english_787.wav,0,peel,510,23,5,5,français,f,10,1.0,-95.01180619,1.17241626
60fd01d7f7b981fdbe1f1b44,33,0,2024-02-28T17:17:09.218Z,english_787.wav,0,peel,510,23,5,5,français,f,11,1.09391667,-15.9004552,0.99284929
60fd01d7f7b981fdbe1f1b44,34,0,2024-02-28T17:17:09.218Z,english_490.wav,0,peel,395,23,5,5,français,f,0,0.0,-25.51056644,0.58140065
60fd01d7f7b981fdbe1f1b44,34,0,2024-02-28T17:17:09.218Z,english_490.wav,0,peel,395,23,5,5,français,f,1,0.1,24.49853402,0.04023283
60fd01d7f7b981fdbe1f1b44,34,0,2024-02-28T17:17:09.218Z,english_490.wav,0,peel,395,23,5,5,français,f,2,0.2,-56.61781422,0.26091541
60fd01d7f7b981fdbe1f1b44,34,0,2024-02-28T17:17:09.218Z,english_490.wav,0,peel,395,23,5,5,français,f,3,0.3,-3.53667819,1.44138465
60fd01d7f7b981fdbe1f1b44,34,0,2024-02-28T17:17:09.218Z,english_490.wav,0,peel,395,23,5,5,français,f,4,0.4,-52.83448461,1.89510699
60fd01d7f7b981fdbe1f1b44,34,0,2024-02-28T17:17:09.218Z,english_490.wav,0,peel,395,23,5,5,français,f,5,0.5,-52.04613243,0.42289317
60fd01d7f7b981fdbe1f1b44,34,0,2024-02-28T17:17:09.218Z,english_490.wav,0,peel,395,23,5,5,français,f,6,0.6,-48.85197311,0.07435824
60fd01d7f7b981fdbe1f1b44,34,0,2024-02-28T17:17:09.218Z,english_490.wav,0,peel,395,23,5,5,français,f,7,0.7,60.10857272,0.40624812
60fd01d7f7b981fdbe1f1b44,34,0,2024-02-28T17:17:09.218Z,english_490.wav,0,peel,395,23,5,5,français,f,8,0.8,21.00041812,0.68841403
60fd01d7f7b981fdbe1f1b44,34,0,2024-02-28T17:17:09.218Z,english_490.wav,0,peel,395,23,5,5,français,f,9,0.9,-82.17328802,1.98707284
60fd01d7f7b981fdbe1f1b44,34,0,2024-02-28T17:17:09.218Z,english_490.wav,0,peel,395,23,5,5,français,f,10,1.0,-22.08282028,1.23402261
60fd01d7f7b981fdbe1f1b44,34,0,2024-02-28T17:17:09.218Z,english_490.wav,0,peel,395,23,5,5,français,f,11,1.09391667,-78.3378291,1.02333517
60fd01d7f7b981fdbe1f1b44,35,0,2024-02-28T17:17:09.218Z,english_366.wav,0,pill,1437,23,5,5,français,f,0,0.0,-51.97670193,0.41387665
60fd01d7f7b981fdbe1f1b44,35,0,2024-02-28T17:17:09.218Z,english_366.wav,0,pill,1437,23,5,5,français,f,1,0.1,-66.3802986,1.82440093
60fd01d7f7b981fdbe1f1b44,35,0,2024-02-28T17:17:09.218Z,english_366.wav,0,pill,1437,23,5,5,français,f,2,0.2,-43.44577517,1.51666721
60fd01d7f7b981fdbe1f1b44,35,0,2024-02-28T17:17:09.218Z,english_366.wav,0,pill,1437,23,5,5,français,f,3,0.3,-27.66745881,0.79221573
60fd01d7f7b981fdbe1f1b44,35,0,2024-02-28T17:17:09.218Z,english_366.wav,0,pill,1437,23,5,5,français,f,4,0.4,-24.71146446,1.07358208
60fd01d7f7b981fdbe1f1b44,35,0,2024-02-28T17:17:09.218Z,english_366.wav,0,pill,1437,23,5,5,français,f,5,0.5,7.18823907,0.88629464
60fd01d7f7b981fdbe1f1b44,35,0,2024-02-28T17:17:09.218Z,english_366.wav,0,pill,1437,23,5,5,français,f,6,0.6,-1.04467208,1.421231
60fd01d7f7b981fdbe1f1b44,35,0,2024-02-28T17:17:09.218Z,english_366.wav,0,pill,1437,23,5,5,français,f,7,0.7,-90.31563808,0.93675223
60fd01d7f7b981fdbe1f1b44,35,0,2024-02-28T17:17:09.218Z,english_366.wav,0,pill,1437,23,5,5,français,f,8,0.8,-10.23526275,1.47759882
60fd01d7f7b981fdbe1f1b44,35,0,2024-02-28T17:17:09.218Z,english_366.wav,0,pill,1437,23,5,5,français,f,9,0.9,47.79218582,1.29623614
60fd01d7f7b981fdbe1f1b44,35,0,2024-02-28T17:17:09.218Z,english_366.wav,0,pill,1437,23,5,5,français,f,10,1.0,3.55736556,1.92903866
60fd01d7f7b981fdbe1f1b44,35,0,2024-02-28T17:17:09.218Z,english_366.wav,0,pill,1437,23,5,5,français,f,11,1.09391667,-83.88061388,1.30968338
60fd01d7f7b981fdbe1f1b44,36,0,2024-02-28T17:17:09.218Z,english_562.wav,0,peel,507,23,5,5,français,f,0,0.0,-66.46118552,0.76561111
60fd01d7f7b981fdbe1f1b44,36,0,2024-02-28T17:17:09.218Z,english_562.wav,0,peel,507,23,5,5,français,f,1,0.1,50.11424094,1.84010469
60fd01d7f7b981fdbe1f1b44,36,0,2024-02-28T17:17:09.218Z,english_562.wav,0,peel,507,23,5,5,français,f,2,0.2,38.4118161,1.52246451
60fd01d7f7b981fdbe1f1b44,36,0,2024-02-28T17:17:09.218Z,english_562.wav,0,peel,507,23,5,5,français,f,3,0.3,55.44168462,0.37876531
60fd01d7f7b981fdbe1f1b44,36,0,2024-02-28T17:17:09.218Z,english_562.wav,0,peel,507,23,5,5,français,f,4,0.4,19.14590229,1.46315217
60fd01d7f7b981fdbe1f1b44,36,0,2024-02-28T17:17:09.218Z,english_562.wav,0,peel,507,23,5,5,français,f,5,0.5,-3.26381008,0.03585566
60fd01d7f7b981fdbe1f1b44,36,0,2024-02-28T17:17:09.218Z,english_562.wav,0,peel,507,23,5,5,français,f,6,0.6,91.90960542,0.70876992
60fd01d7f7b981fdbe1f1b44,36,0,2024-02-28T17:17:09.218Z,english_562.wav,0,peel,507,23,5,5,français,f,7,0.7,62.21453642,1.53596627
60fd01d7f7b981fdbe1f1b44,36,0,2024-02-28T17:17:09.218Z,english_562.wav,0,peel,507,23,5,5,français,f,8,0.8,83.94650253,1.29387044
60fd01d7f7b981fdbe1f1b44,36,0,2024-02-28T17:17:09.218Z,english_562.wav,0,peel,507,23,5,5,français,f,9,0.9,-69.18732996,0.65619247
60fd01d7f7b981fdbe1f1b44,36,0,2024-02-28T17:17:09.218Z,english_562.wav,0,peel,507,23,5,5,français,f,10,1.0,-21.18203071,0.14449541
60fd01d7f7b981fdbe1f1b44,36,0,2024-02-28T17:17:09.218Z,english_562.wav,0,peel,507,23,5,5,français,f,11,1.09391667,12.05175974,1.12518845
60fd01d7f7b981fdbe1f1b44,37,0,2024-02-28T17:17:09.218Z,english_339.wav,0,peel,1435,23,5,5,français,f,0,0.0,60.63219511,0.54338949
60fd01d7f7b981fdbe1f1b44,37,0,2024-02-28T17:17:09.218Z,english_339.wav,0,peel,1435,23,5,5,français,f,1,0.1,-12.18568345,0.21495144
60fd01d7f7b981fdbe1f1b44,37,0,2024-02-28T17:17:09.218Z,english_339.wav,0,peel,1435,23,5,5,français,f,2,0.2,23.58983997,0.44775719
60fd01d7f7b981fdbe1f1b44,37,0,2024-02-28T17:17:09.218Z,english_339.wav,0,peel,1435,23,5,5,français,f,3,0.3,-59.19633042,1.56952392
60fd01d7f7b981fdbe1f1b44,37,0,2024-02-28T17:17:09.218Z,english_339.wav,0,peel,1435,23,5,5,français,f,4,0.4,-43.20945626,0.76217709
60fd01d7f7b981fdbe1f1b44,37,0,2024-02-28T17:17:09.218Z,english_339.wav,0,peel,1435,23,5,5,français,f,5,0.5,-32.55639825,1.99954478
60fd01d7f7b981fdbe1f1b44,37,0,2024-02-28T17:17:09.218Z,english_339.wav,0,peel,1435,23,5,5,français,f,6,0.6,-3.49407884,0.09545273
60fd01d7f7b981fdbe1f1b44,37,0,2024-02-28T17:17:09.218Z,english_339.wav,0,peel,1435,23,5,5,français,f,7,0.7,91.66463762,1.65140919
60fd01d7f7b981fdbe1f1b44,37,0,2024-02-28T17:17:09.218Z,english_339.wav,0,peel,1435,23,5,5,français,f,8,0.8,-80.14131412,1.37862303
60fd01d7f7b981fdbe1f1b44,37,0,2024-02-28T17:17:09.218Z,english_339.wav,0,peel,1435,23,5,5,français,f,9,0.9,86.26968254,1.5118574
60fd01d7f7b981fdbe1f1b44,37,0,2024-02-28T17:17:09.218Z,english_339.wav,0,peel,1435,23,5,5,français,f,10,1.0,-20.69851377,0.21342111
60fd01d7f7b981fdbe1f1b44,37,0,2024-02-28T17:17:09.218Z,english_339.wav,0,peel,1435,23,5,5,français,f,11,1.09391667,-11.06601383,1.19470184
60fd01d7f7b981fdbe1f1b44,38,0,2024-02-28T17:17:09.218Z,english_531.wav,0,peel,398,23,5,5,français,f,0,0.0,64.01741769,1.51547649
60fd01d7f7b981fdbe1f1b44,38,0,2024-02-28T17:17:09.218Z,english_531.wav,0,peel,398,23,5,5,français,f,1,0.1,26.7868786,1.88187252
60fd01d7f7b981fdbe1f1b44,38,0,2024-02-28T17:17:09.218Z,english_531.wav,0,peel,398,23,5,5,français,f,2,0.2,-11.61455466,1.96684575
60fd01d7f7b981fdbe1f1b44,38,0,2024-02-28T17:17:09.218Z,english_531.wav,0,peel,398,23,5,5,français,f,3,0.3,5.98277112,0.79325927
60fd01d7f7b981fdbe1f1b44,38,0,2024-02-28T17:17:09.218Z,english_531.wav,0,peel,398,23,5,5,français,f,4,0.4,-58.29733436,0.88962117
60fd01d7f7b981fdbe1f1b44,38,0,2024-02-28T17:17:09.218Z,english_531.wav,0,peel,398,23,5,5,français,f,5,0.5,-28.52423669,0.54211356
60fd01d7f7b981fdbe1f1b44,38,0,2024-02-28T17:17:09.218Z,english_531.wav,0,peel,398,23,5,5,français,f,6,0.6,-20.08515402,0.71772169
60fd01d7f7b981fdbe1f1b44,38,0,2024-02-28T17:17:09.218Z,english_531.wav,0,peel,398,23,5,5,français,f,7,0.7,56.89013176,1.30220499
60fd01d7f7b981fdbe1f1b44,38,0,2024-02-28T17:17:09.218Z,english_531.wav,0,peel,398,23,5,5,français,f,8,0.8,-1.76253667,0.81496958
60fd01d7f7b981fdbe1f1b44,38,0,2024-02-28T17:17:09.218Z,english_531.wav,0,peel,398,23,5,5,français,f,9,0.9,17.11874088,0.64316233
60fd01d7f7b981fdbe1f1b44,38,0,2024-02-28T17:17:09.218Z,english_531.wav,0,peel,398,23,5,5,français,f,10,1.0,-69.92464743,0.7734262
60fd01d7f7b981fdbe1f1b44,38,0,2024-02-28T17:17:09.218Z,english_531.wav,0,peel,398,23,5,5,français,f,11,1.09391667,16.89803128,0.24670156
60fd01d7f7b981fdbe1f1b44,39,0,2024-02-28T17:17:09.218Z,english_368.wav,0,peel,2431,23,5,5,français,f,0,0.0,-21.74410199,1.11444004
60fd01d7f7b981fdbe1f1b44,39,0,2024-02-28T17:17:09.218Z,english_368.wav,0,peel,2431,23,5,5,français,f,1,0.1,-54.46820056,1.02689489
60fd01d7f7b981fdbe1f1b44,39,0,2024-02-28T17:17:09.218Z,english_368.wav,0,peel,2431,23,5,5,français,f,2,0.2,36.37288824,1.84847876
60fd01d7f7b981fdbe1f1b44,39,0,2024-02-28T17:17:09.218Z,english_368.wav,0,peel,2431,23,5,5,français,f,3,0.3,28.79669065,1.32768322
60fd01d7f7b981fdbe1f1b44,39,0,2024-02-28T17:17:09.218Z,english_368.wav,0,peel,2431,23,5,5,français,f,4,0.4,64.63914759,1.2143292
60fd01d7f7b981fdbe1f1b44,39,0,2024-02-28T17:17:09.218Z,english_368.wav,0,peel,2431,23,5,5,français,f,5,0.5,-47.48725989,1.4175641
60fd01d7f7b981fdbe1f1b44,39,0,2024-02-28T17:17:09.218Z,english_368.wav,0,peel,2431,23,5,5,français,f,6,0.6,-56.63725257,0.26859899
60fd01d7f7b981fdbe1f1b44,39,0,2024-02-28T17:17:09.218Z,english_368.wav,0,peel,2431,23,5,5,français,f,7,0.7,-15.67963737,1.20913194
60fd01d7f7b981fdbe1f1b44,39,0,2024-02-28T17:17:09.218Z,english_368.wav,0,peel,2431,23,5,5,français,f,8,0.8,-67.03077711,0.71725489
60fd01d7f7b981fdbe1f1b44,39,0,2024-02-28T17:17:09.218Z,english_368.wav,0,peel,2431,23,5,5,français,f,9,0.9,-87.98164929,0.61705061
60fd01d7f7b981fdbe1f1b44,39,0,2024-02-28T17:17:09.218Z,english_368.wav,0,peel,2431,23,5,5,français,f,10,1.0,66.360443,1.87423649
60fd01d7f7b981fdbe1f1b44,39,0,2024-02-28T17:17:09.218Z,english_368.wav,0,peel,2431,23,5,5,français,f,11,1.09391667,86.76512067,0.90814369
60fd01d7f7b981fdbe1f1b44,40,0,2024-02-28T17:17:09.218Z,english_210.wav,0,peel,1289,23,5,5,français,f,0,0.0,-22.3598959,0.75499894
60fd01d7f7b981fdbe1f1b44,40,0,2024-02-28T17:17:09.218Z,english_210.wav,0,peel,1289,23,5,5,français,f,1,0.1,82.81767229,1.61294131
60fd01d7f7b981fdbe1f1b44,40,0,2024-02-28T17:17:09.218Z,english_210.wav,0,peel,1289,23,5,5,français,f,2,0.2,64.75592146,0.96857287
60fd01d7f7b981fdbe1f1b44,40,0,2024-02-28T17:17:09.218Z,english_210.wav,0,peel,1289,23,5,5,français,f,3,0.3,38.64105246,1.31710082
60fd01d7f7b981fdbe1f1b44,40,0,2024-02-28T17:17:09.218Z,english_210.wav,0,peel,1289,23,5,5,français,f,4,0.4,-56.81269148,0.48607374
60fd01d7f7b981fdbe1f1b44,40,0,2024-02-28T17:17:09.218Z,english_210.wav,0,peel,1289,23,5,5,français,f,5,0.5,55.50536216,0.56849668
60fd01d7f7b981fdbe1f1b44,40,0,2024-02-28T17:17:09.218Z,english_210.wav,0,peel,1289,23,5,5,français,f,6,0.6,-90.16901587,0.68954785
60fd01d7f7b981fdbe1f1b44,40,0,2024-02-28T17:17:09.218Z,english_210.wav,0,peel,1289,23,5,5,français,f,7,0.7,-5.65019453,1.61518036
60fd01d7f7b981fdbe1f1b44,40,0,2024-02-28T17:17:09.218Z,english_210.wav,0,peel,1289,23,5,5,français,f,8,0.8,-52.20950635,0.58148747
60fd01d7f7b981fdbe1f1b44,40,0,2024-02-28T17:17:09.218Z,english_210.wav,0,peel,1289,23,5,5,français,f,9,0.9,2.11037441,1.45053329
60fd01d7f7b981fdbe1f1b44,40,0,2024-02-28T17:17:09.218Z,english_210.wav,0,peel,1289,23,5,5,français,f,10,1.0,-72.63173863,1.53157276
60fd01d7f7b981fdbe1f1b44,40,0,2024-02-28T17:17:09.218Z,english_210.wav,0,peel,1289,23,5,5,français,f,11,1.09391667,-28.48995406,1.31948045
60fd01d7f7b981fdbe1f1b44,41,0,2024-02-28T17:17:09.218Z,english_626.wav,0,peel,656,23,5,5,français,f,0,0.0,-0.56370029,1.601019
60fd01d7f7b981fdbe1f1b44,41,0,2024-02-28T17:17:09.218Z,english_626.wav,0,peel,656,23,5,5,français,f,1,0.1,-99.91896683,1.02479774
60fd01d7f7b981fdbe1f1b44,41,0,2024-02-28T17:17:09.218Z,english_626.wav,0,peel,656,23,5,5,français,f,2,0.2,71.91666298,1.56428022
60fd01d7f7b981fdbe1f1b44,41,0,2024-02-28T17:17:09.218Z,english_626.wav,0,peel,656,23,5,5,français,f,3,0.3,5.93440056,1.41456241
60fd01d7f7b981fdbe1f1b44,41,0,2024-02-28T17:17:09.218Z,english_626.wav,0,peel,656,23,5,5,français,f,4,0.4,30.6659702,1.90457562
60fd01d7f7b981fdbe1f1b44,41,0,2024-02-28T17:17:09.218Z,english_626.wav,0,peel,656,23,5,5,français,f,5,0.5,50.2345252,1.04545234
60fd01d7f7b981fdbe1f1b44,41,0,2024-02-28T17:17:09.218Z,english_626.wav,0,peel,656,23,5,5,français,f,6,0.6,26.80081253,1.05575336
60fd01d7f7b981fdbe1f1b44,41,0,2024-02-28T17:17:09.218Z,english_626.wav,0,peel,656,23,5,5,français,f,7,0.7,57.01154581,1.40636518
60fd01d7f7b981fdbe1f1b44,41,0,2024-02-28T17:17:09.218Z,english_626.wav,0,peel,656,23,5,5,français,f,8,0.8,-79.56021694,1.56161819
60fd01d7f7b981fdbe1f1b44,41,0,2024-02-28T17:17:09.218Z,english_626.wav,0,peel,656,23,5,5,français,f,9,0.9,19.7734095,0.61190755
60fd01d7f7b981fdbe1f1b44,41,0,2024-02-28T17:17:09.218Z,english_626.wav,0,peel,656,23,5,5,français,f,10,1.0,24.01737707,0.77515613
60fd01d7f7b981fdbe1f1b44,41,0,2024-02-28T17:17:09.218Z,english_626.wav,0,peel,656,23,5,5,français,f,11,1.09391667,-71.48633622,1.93548934
60fd01d7f7b981fdbe1f1b44,42,0,2024-02-28T17:17:09.218Z,english_246.wav,0,peel,1590,23,5,5,français,f,0,0.0,65.19555702,1.04626937
60fd01d7f7b981fdbe1f1b44,42,0,2024-02-28T17:17:09.218Z,english_246.wav,0,peel,1590,23,5,5,français,f,1,0.1,-88.31116696,1.63597079
60fd01d7f7b981fdbe1f1b44,42,0,2024-02-28T17:17:09.218Z,english_246.wav,0,peel,1590,23,5,5,français,f,2,0.2,-87.15645837,1.95419498
60fd01d7f7b981fdbe1f1b44,42,0,2024-02-28T17:17:09.218Z,english_246.wav,0,peel,1590,23,5,5,français,f,3,0.3,57.84934166,0.56872665
60fd01d7f7b981fdbe1f1b44,42,0,2024-02-28T17:17:09.218Z,english_246.wav,0,peel,1590,23,5,5,français,f,4,0.4,-76.45557784,0.40309221
60fd01d7f7b981fdbe1f1b44,42,0,2024-02-28T17:17:09.218Z,english_246.wav,0,peel,1590,23,5,5,français,f,5,0.5,66.32688278,1.93282921
60fd01d7f7b981fdbe1f1b44,42,0,2024-02-28T17:17:09.218Z,english_246.wav,0,peel,1590,23,5,5,français,f,6,0.6,93.44738027,1.28213971
60fd01d7f7b981fdbe1f1b44,42,0,2024-02-28T17:17:09.218Z,english_246.wav,0,peel,1590,23,5,5,français,f,7,0.7,54.7923908,1.70127241
60fd01d7f7b981fdbe1f1b44,42,0,2024-02-28T17:17:09.218Z,english_246.wav,0,peel,1590,23,5,5,français,f,8,0.8,-1.38437059,0.15014799
60fd01d7f7b981fdbe1f1b44,42,0,2024-02-28T17:17:09.218Z,english_246.wav,0,peel,1590,23,5,5,français,f,9,0.9,5.22264847,1.21649106
60fd01d7f7b981fdbe1f1b44,42,0,2024-02-28T17:17:09.218Z,english_246.wav,0,peel,1590,23,5,5,français,f,10,1.0,-11.85909484,1.48942771
60fd01d7f7b981fdbe1f1b44,42,0,2024-02-28T17:17:09.218Z,english_246.wav,0,peel,1590,23,5,5,français,f,11,1.09391667,65.00290812,0.35768018
60fd01d7f7b981fdbe1f1b44,43,0,2024-02-28T17:17:09.218Z,english_574.wav,0,pill,1897,23,5,5,français,f,0,0.0,30.16253717,0.985146
60fd01d7f7b981fdbe1f1b44,43,0,2024-02-28T17:17:09.218Z,english_574.wav,0,pill,1897,23,5,5,français,f,1,0.1,-51.87995618,1.53182158
60fd01d7f7b981fdbe1f1b44,43,0,2024-02-28T17:17:09.218Z,english_574.wav,0,pill,1897,23,5,5,français,f,2,0.2,24.46456732,1.42910062
60fd01d7f7b981fdbe1f1b44,43,0,2024-02-28T17:17:09.218Z,english_574.wav,0,pill,1897,23,5,5,français,f,3,0.3,-94.35752884,0.82906666
60fd01d7f7b981fdbe1f1b44,43,0,2024-02-28T17:17:09.218Z,english_574.wav,0,pill,1897,23,5,5,français,f,4,0.4,64.35841576,1.00783528
60fd01d7f7b981fdbe1f1b44,43,0,2024-02-28T17:17:09.218Z,english_574.wav,0,pill,1897,23,5,5,français,f,5,0.5,-49.28362763,1.2732344
60fd01d7f7b981fdbe1f1b44,43,0,2024-02-28T17:17:09.218Z,english_574.wav,0,pill,1897,23,5,5,français,f,6,0.6,14.18269939,1.27248482
60fd01d7f7b981fdbe1f1b44,43,0,2024-02-28T17:17:09.218Z,english_574.wav,0,pill,1897,23,5,5,français,f,7,0.7,-50.86809752,0.5240718
60fd01d7f7b981fdbe1f1b44,43,0,2024-02-28T17:17:09.218Z,english_574.wav,0,pill,1897,23,5,5,français,f,8,0.8,53.84502892,0.53991613
60fd01d7f7b981fdbe1f1b44,43,0,2024-02-28T17:17:09.218Z,english_574.wav,0,pill,1897,23,5,5,français,f,9,0.9,-66.65469805,0.74966761
60fd01d7f7b981fdbe1f1b44,43,0,2024-02-28T17:17:09.218Z,english_574.wav,0,pill,1897,23,5,5,français,f,10,1.0,-86.96769925,0.29132247
60fd01d7f7b981fdbe1f1b44,43,0,2024-02-28T17:17:09.218Z,english_574.wav,0,pill,1897,23,5,5,français,f,11,1.09391667,-53.07810136,0.5179051
60fd01d7f7b981fdbe1f1b44,44,0,2024-02-28T17:17:09.218Z,english_371.wav,0,peel,285,23,5,5,français,f,0,0.0,99.9242386,0.39669775
60fd01d7f7b981fdbe1f1b44,44,0,2024-02-28T17:17:09.218Z,english_371.wav,0,peel,285,23,5,5,français,f,1,0.1,22.83023049,0.78709847
60fd01d7f7b981fdbe1f1b44,44,0,2024-02-28T17:17:09.218Z,english_371.wav,0,peel,285,23,5,5,français,f,2,0.2,91.55037371,1.18432294
60fd01d7f7b981fdbe1f1b44,44,0,2024-02-28T17:17:09.218Z,english_371.wav,0,peel,285,23,5,5,français,f,3,0.3,5.76311401,0.89768316
60fd01d7f7b981fdbe1f1b44,44,0,2024-02-28T17:17:09.218Z,english_371.wav,0,peel,285,23,5,5,français,f,4,0.4,4.70890445,0.28448655
60fd01d7f7b981fdbe1f1b44,44,0,2024-02-28T17:17:09.218Z,english_371.wav,0,peel,285,23,5,5,français,f,5,0.5,-99.6762273,1.11635531
60fd01d7f7b981fdbe1f1b44,44,0,2024-02-28T17:17:09.218Z,english_371.wav,0,peel,285,23,5,5,français,f,6,0.6,-44.58037386,0.70262912
60fd01d7f7b981fdbe1f1b44,44,0,2024-02-28T17:17:09.218Z,english_371.wav,0,peel,285,23,5,5,français,f,7,0.7,-30.18832908,1.50477642
60fd01d7f7b981fdbe1f1b44,44,0,2024-02-28T17:17:09.218Z,english_371.wav,0,peel,285,23,5,5,français,f,8,0.8,69.47065737,1.93681172
60fd01d7f7b981fdbe1f1b44,44,0,2024-02-28T17:17:09.218Z,english_371.wav,0,peel,285,23,5,5,français,f,9,0.9,-91.54025657,1.02826785
60fd01d7f7b981fdbe1f1b44,44,0,2024-02-28T17:17:09.218Z,english_371.wav,0,peel,285,23,5,5,français,f,10,1.0,20.04839549,1.64700674
60fd01d7f7b981fdbe1f1b44,44,0,2024-02-28T17:17:09.218Z,english_371.wav,0,peel,285,23,5,5,français,f,11,1.09391667,43.26134408,0.44264614
60fd01d7f7b981fdbe1f1b44,45,0,2024-02-28T17:17:09.218Z,english_498.wav,0,peel,648,23,5,5,français,f,0,0.0,43.98055184,1.94722798
60fd01d7f7b981fdbe1f1b44,45,0,2024-02-28T17:17:09.218Z,english_498.wav,0,peel,648,23,5,5,français,f,1,0.1,91.3545984,1.93048351
60fd01d7f7b981fdbe1f1b44,45,0,2024-02-28T17:17:09.218Z,english_498.wav,0,peel,648,23,5,5,français,f,2,0.2,-25.91563113,0.27240706
60fd01d7f7b981fdbe1f1b44,45,0,2024-02-28T17:17:09.218Z,english_498.wav,0,peel,648,23,5,5,français,f,3,0.3,-14.96140851,1.06623965
60fd01d7f7b981fdbe1f1b44,45,0,2024-02-28T17:17:09.218Z,english_498.wav,0,peel,648,23,5,5,français,f,4,0.4,-8.05824247,1.41558656
60fd01d7f7b981fdbe1f1b44,45,0,2024-02-28T17:17:09.218Z,english_498.wav,0,peel,648,23,5,5,français,f,5,0.5,-61.63888891,0.26700347
60fd01d7f7b981fdbe1f1b44,45,0,2024-02-28T17:17:09.218Z,english_498.wav,0,peel,648,23,5,5,français,f,6,0.6,37.86658664,0.54434522
60fd01d7f7b981fdbe1f1b44,45,0,2024-02-28T17:17:09.218Z,english_498.wav,0,peel,648,23,5,5,français,f,7,0.7,-97.52325855,0.79258737
60fd01d7f7b981fdbe1f1b44,45,0,2024-02-28T17:17:09.218Z,english_498.wav,0,peel,648,23,5,5,français,f,8,0.8,-16.03910224,1.13417158
60fd01d7f7b981fdbe1f1b44,45,0,2024-02-28T17:17:09.218Z,english_498.wav,0,peel,648,23,5,5,français,f,9,0.9,83.25609208,0.68565339
60fd01d7f7b981fdbe1f1b44,45,0,2024-02-28T17:17:09.218Z,english_498.wav,0,peel,648,23,5,5,français,f,10,1.0,-65.28300381,0.73020294
60fd01d7f7b981fdbe1f1b44,45,0,2024-02-28T17:17:09.218Z,english_498.wav,0,peel,648,23,5,5,français,f,11,1.09391667,38.04109912,1.48505369
60fd01d7f7b981fdbe1f1b44,46,0,2024-02-28T17:17:09.218Z,english_698.wav,0,peel,355,23,5,5,français,f,0,0.0,-98.49976842,0.43179997
60fd01d7f7b981fdbe1f1b44,46,0,2024-02-28T17:17:09.218Z,english_698.wav,0,peel,355,23,5,5,français,f,1,0.1,97.00885889,1.41337894
60fd01d7f7b981fdbe1f1b44,46,0,2024-02-28T17:17:09.218Z,english_698.wav,0,peel,355,23,5,5,français,f,2,0.2,54.87082892,1.17184634
60fd01d7f7b981fdbe1f1b44,46,0,2024-02-28T17:17:09.218Z,english_698.wav,0,peel,355,23,5,5,français,f,3,0.3,-24.25113459,0.60534302
60fd01d7f7b981fdbe1f1b44,46,0,2024-02-28T17:17:09.218Z,english_698.wav,0,peel,355,23,5,5,français,f,4,0.4,-19.41361559,1.24831976
60fd01d7f7b981fdbe1f1b44,46,0,2024-02-28T17:17:09.218Z,english_698.wav,0,peel,355,23,5,5,français,f,5,0.5,38.63477703,1.39113252
60fd01d7f7b981fdbe1f1b44,46,0,2024-02-28T17:17:09.218Z,english_698.wav,0,peel,355,23,5,5,français,f,6,0.6,-31.74740997,1.28562889
60fd01d7f7b981fdbe1f1b44,46,0,2024-02-28T17:17:09.218Z,english_698.wav,0,peel,355,23,5,5,français,f,7,0.7,75.16156156,1.10433052
60fd01d7f7b981fdbe1f1b44,46,0,2024-02-28T17:17:09.218Z,english_698.wav,0,peel,355,23,5,5,français,f,8,0.8,41.06057046,1.08053659
60fd01d7f7b981fdbe1f1b44,46,0,2024-02-28T17:17:09.218Z,english_698.wav,0,peel,355,23,5,5,français,f,9,0.9,-30.65402234,1.52582563
60fd01d7f7b981fdbe1f1b44,46,0,2024-02-28T17:17:09.218Z,english_698.wav,0,peel,355,23,5,5,français,f,10,1.0,-13.5987644,0.95244876
60fd01d7f7b981fdbe1f1b44,46,0,2024-02-28T17:17:09.218Z,english_698.wav,0,peel,355,23,5,5,français,f,11,1.09391667,-10.25655958,1.39681887
60fd01d7f7b981fdbe1f1b44,47,0,2024-02-28T17:17:09.218Z,english_447.wav,0,peel,1275,23,5,5,français,f,0,0.0,-49.70124271,1.81391456
60fd01d7f7b981fdbe1f1b44,47,0,2024-02-28T17:17:09.218Z,english_447.wav,0,peel,1275,23,5,5,français,f,1,0.1,6.80747638,1.91818371
60fd01d7f7b981fdbe1f1b44,47,0,2024-02-28T17:17:09.218Z,english_447.wav,0,peel,1275,23,5,5,français,f,2,0.2,78.85711307,1.77045116
60fd01d7f7b981fdbe1f1b44,47,0,2024-02-28T17:17:09.218Z,english_447.wav,0,peel,1275,23,5,5,français,f,3,0.3,58.81086859,1.59965973
60fd01d7f7b981fdbe1f1b44,47,0,2024-02-28T17:17:09.218Z,english_447.wav,0,peel,1275,23,5,5,français,f,4,0.4,-4.36201374,1.21262432
60fd01d7f7b981fdbe1f1b44,47,0,2024-02-28T17:17:09.218Z,english_447.wav,0,peel,1275,23,5,5,français,f,5,0.5,-19.70745175,1.80283693
60fd01d7f7b981fdbe1f1b44,47,0,2024-02-28T17:17:09.218Z,english_447.wav,0,peel,1275,23,5,5,français,f,6,0.6,5.54500097,0.57888703
60fd01d7f7b981fdbe1f1b44,47,0,2024-02-28T17:17:09.218Z,english_447.wav,0,peel,1275,23,5,5,français,f,7,0.7,-73.03933833,0.47461482
60fd01d7f7b981fdbe1f1b44,47,0,2024-02-28T17:17:09.218Z,english_447.wav,0,peel,1275,23,5,5,français,f,8,0.8,-20.453142,0.56581151
60fd01d7f7b981fdbe1f1b44,47,0,2024-02-28T17:17:09.218Z,english_447.wav,0,peel,1275,23,5,5,français,f,9,0.9,9.14360097,0.85442376
60fd01d7f7b981fdbe1f1b44,47,0,2024-02-28T17:17:09.218Z,english_447.wav,0,peel,1275,23,5,5,français,f,10,1.0,-42.46591072,0.56057863
60fd01d7f7b981fdbe1f1b44,47,0,2024-02-28T17:17:09.218Z,english_447.wav,0,peel,1275,23,5,5,français,f,11,1.09391667,3.646082,1.46752368
60fd01d7f7b981fdbe1f1b44,48,0,2024-02-28T17:17:09.218Z,english_321.wav,0,peel,317,23,5,5,français,f,0,0.0,-77.41334575,1.30726178
60fd01d7f7b981fdbe1f1b44,48,0,2024-02-28T17:17:09.218Z,english_321.wav,0,peel,317,23,5,5,français,f,1,0.1,-61.98635838,0.09021545
60fd01d7f7b981fdbe1f1b44,48,0,2024-02-28T17:17:09.218Z,english_321.wav,0,peel,317,23,5,5,français,f,2,0.2,63.85195092,1.50183321
60fd01d7f7b981fdbe1f1b44,48,0,2024-02-28T17:17:09.218Z,english_321.wav,0,peel,317,23,5,5,français,f,3,0.3,29.6904451,0.65065228
60fd01d7f7b981fdbe1f1b44,48,0,2024-02-28T17:17:09.218Z,english_321.wav,0,peel,317,23,5,5,français,f,4,0.4,-43.5045078,1.45081069
60fd01d7f7b981fdbe1f1b44,48,0,2024-02-28T17:17:09.218Z,english_321.wav,0,peel,317,23,5,5,français,f,5,0.5,62.57170592,1.7661601
60fd01d7f7b981fdbe1f1b44,48,0,2024-02-28T17:17:09.218Z,english_321.wav,0,peel,317,23,5,5,français,f,6,0.6,28.41559033,0.98052074
60fd01d7f7b981fdbe1f1b44,48,0,2024-02-28T17:17:09.218Z,english_321.wav,0,peel,317,23,5,5,français,f,7,0.7,57.20206106,1.50508218
60fd01d7f7b981fdbe1f1b44,48,0,2024-02-28T17:17:09.218Z,english_321.wav,0,peel,317,23,5,5,français,f,8,0.8,21.76754783,1.92892589
60fd01d7f7b981fdbe1f1b44,48,0,2024-02-28T17:17:09.218Z,english_321.wav,0,peel,317,23,5,5,français,f,9,0.9,-93.37290208,0.5132303
60fd01d7f7b981fdbe1f1b44,48,0,2024-02-28T17:17:09.218Z,english_321.wav,0,peel,317,23,5,5,français,f,10,1.0,-66.78585721,1.33865757
60fd01d7f7b981fdbe1f1b44,48,0,2024-02-28T17:17:09.218Z,english_321.wav,0,peel,317,23,5,5,français,f,11,1.09391667,79.62121497,0.23870746
60fd01d7f7b981fdbe1f1b44,49,0,2024-02-28T17:17:09.218Z,english_172.wav,0,peel,384,23,5,5,français,f,0,0.0,-67.89328127,0.87390127
60fd01d7f7b981fdbe1f1b44,49,0,2024-02-28T17:17:09.218Z,english_172.wav,0,peel,384,23,5,5,français,f,1,0.1,-98.24711177,0.45073311
60fd01d7f7b981fdbe1f1b44,49,0,2024-02-28T17:17:09.218Z,english_172.wav,0,peel,384,23,5,5,français,f,2,0.2,49.39394348,1.74616009
60fd01d7f7b981fdbe1f1b44,49,0,2024-02-28T17:17:09.218Z,english_172.wav,0,peel,384,23,5,5,français,f,3,0.3,76.5993294,0.92964788
60fd01d7f7b981fdbe1f1b44,49,0,2024-02-28T17:17:09.218Z,english_172.wav,0,peel,384,23,5,5,français,f,4,0.4,-22.3707882,0.40511794
60fd01d7f7b981fdbe1f1b44,49,0,2024-02-28T17:17:09.218Z,english_172.wav,0,peel,384,23,5,5,français,f,5,0.5,-81.77647202,1.07981793
60fd01d7f7b981fdbe1f1b44,49,0,2024-02-28T17:17:09.218Z,english_172.wav,0,peel,384,23,5,5,français,f,6,0.6,14.32482273,0.29673002
60fd01d7f7b981fdbe1f1b44,49,0,2024-02-28T17:17:09.218Z,english_172.wav,0,peel,384,23,5,5,français,f,7,0.7,-55.4844165,1.5346781
60fd01d7f7b981fdbe1f1b44,49,0,2024-02-28T17:17:09.218Z,english_172.wav,0,peel,384,23,5,5,français,f,8,0.8,3.0799131,0.29263687
60fd01d7f7b981fdbe1f1b44,49,0,2024-02-28T17:17:09.218Z,english_172.wav,0,peel,384,23,5,5,français,f,9,0.9,-69.51196042,0.8048794
60fd01d7f7b981fdbe1f1b44,49,0,2024-02-28T17:17:09.218Z,english_172.wav,0,peel,384,23,5,5,français,f,10,1.0,75.4726198,0.86167059
60fd01d7f7b981fdbe1f1b44,49,0,2024-02-28T17:17:09.218Z,english_172.wav,0,peel,384,23,5,5,français,f,11,1.09391667,0.51193247,0.22289692
60fd01d7f7b981fdbe1f1b44,50,1,2024-02-28T17:17:09.218Z,english_606.wav,0,peel,760,23,5,5,français,f,0,0.0,72.77252021,1.14271188
60fd01d7f7b981fdbe1f1b44,50,1,2024-02-28T17:17:09.218Z,english_606.wav,0,peel,760,23,5,5,français,f,1,0.1,22.60713343,1.41897374
60fd01d7f7b981fdbe1f1b44,50,1,2024-02-28T17:17:09.218Z,english_606.wav,0,peel,760,23,5,5,français,f,2,0.2,30.91882808,1.73372854
60fd01d7f7b981fdbe1f1b44,50,1,2024-02-28T17:17:09.218Z,english_606.wav,0,peel,760,23,5,5,français,f,3,0.3,-48.84223864,1.07065865
60fd01d7f7b981fdbe1f1b44,50,1,2024-02-28T17:17:09.218Z,english_606.wav,0,peel,760,23,5,5,français,f,4,0.4,-29.82386042,0.5542197
60fd01d7f7b981fdbe1f1b44,50,1,2024-02-28T17:17:09.218Z,english_606.wav,0,peel,760,23,5,5,français,f,5,0.5,82.48397831,0.65978179
60fd01d7f7b981fdbe1f1b44,50,1,2024-02-28T17:17:09.218Z,english_606.wav,0,peel,760,23,5,5,français,f,6,0.6,-18.49396427,0.64487358
60fd01d7f7b981fdbe1f1b44,50,1,2024-02-28T17:17:09.218Z,english_606.wav,0,peel,760,23,5,5,français,f,7,0.7,26.88567381,1.50533402
60fd01d7f7b981fdbe1f1b44,50,1,2024-02-28T17:17:09.218Z,english_606.wav,0,peel,760,23,5,5,français,f,8,0.8,-18.34346668,1.51615031
60fd01d7f7b981fdbe1f1b44,50,1,2024-02-28T17:17:09.218Z,english_606.wav,0,peel,760,23,5,5,français,f,9,0.9,10.06544583,0.11673085
60fd01d7f7b981fdbe1f1b44,50,1,2024-02-28T17:17:09.218Z,english_606.wav,0,peel,760,23,5,5,français,f,10,1.0,-89.88083722,0.60775024
60fd01d7f7b981fdbe1f1b44,50,1,2024-02-28T17:17:09.218Z,english_606.wav,0,peel,760,23,5,5,français,f,11,1.09391667,66.64968825,0.13627416
60fd01d7f7b981fdbe1f1b44,51,1,2024-02-28T17:17:09.218Z,english_127.wav,0,peel,808,23,5,5,français,f,0,0.0,-97.90087244,0.58111051
60fd01d7f7b981fdbe1f1b44,51,1,2024-02-28T17:17:09.218Z,english_127.wav,0,peel,808,23,5,5,français,f,1,0.1,-36.95796642,1.98466344
60fd01d7f7b981fdbe1f1b44,51,1,2024-02-28T17:17:09.218Z,english_127.wav,0,peel,808,23,5,5,français,f,2,0.2,33.65056974,0.66246338
60fd01d7f7b981fdbe1f1b44,51,1,2024-02-28T17:17:09.218Z,english_127.wav,0,peel,808,23,5,5,français,f,3,0.3,-19.85406453,0.15661461
60fd01d7f7b981fdbe1f1b44,51,1,2024-02-28T17:17:09.218Z,english_127.wav,0,peel,808,23,5,5,français,f,4,0.4,-42.6348027,1.74661521
60fd01d7f7b981fdbe1f1b44,51,1,2024-02-28T17:17:09.218Z,english_127.wav,0,peel,808,23,5,5,français,f,5,0.5,-56.79071689,1.58365522
60fd01d7f7b981fdbe1f1b44,51,1,2024-02-28T17:17:09.218Z,english_127.wav,0,peel,808,23,5,5,français,f,6,0.6,-5.36842737,0.14537305
60fd01d7f7b981fdbe1f1b44,51,1,2024-02-28T17:17:09.218Z,english_127.wav,0,peel,808,23,5,5,français,f,7,0.7,-65.17730662,1.46904529
60fd01d7f7b981fdbe1f1b44,51,1,2024-02-28T17:17:09.218Z,english_127.wav,0,peel,808,23,5,5,français,f,8,0.8,55.11157095,1.23944377
60fd01d7f7b981fdbe1f1b44,51,1,2024-02-28T17:17:09.218Z,english_127.wav,0,peel,808,23,5,5,français,f,9,0.9,-6.91901103,1.93001672
60fd01d7f7b981fdbe1f1b44,51,1,2024-02-28T17:17:09.218Z,english_127.wav,0,peel,808,23,5,5,français,f,10,1.0,32.26051644,0.93435528
60fd01d7f7b981fdbe1f1b44,51,1,2024-02-28T17:17:09.218Z,english_127.wav,0,peel,808,23,5,5,français,f,11,1.09391667,51.54181068,1.6531459
60fd01d7f7b981fdbe1f1b44,52,1,2024-02-28T17:17:09.218Z,english_596.wav,0,peel,398,23,5,5,français,f,0,0.0,-42.68859768,1.28071693
60fd01d7f7b981fdbe1f1b44,52,1,2024-02-28T17:17:09.218Z,english_596.wav,0,peel,398,23,5,5,français,f,1,0.1,67.29414518,0.77411838
60fd01d7f7b981fdbe1f1b44,52,1,2024-02-28T17:17:09.218Z,english_596.wav,0,peel,398,23,5,5,français,f,2,0.2,-56.57562289,1.32627092
60fd01d7f7b981fdbe1f1b44,52,1,2024-02-28T17:17:09.218Z,english_596.wav,0,peel,398,23,5,5,français,f,3,0.3,71.30769152,0.49089119
60fd01d7f7b981fdbe1f1b44,52,1,2024-02-28T17:17:09.218Z,english_596.wav,0,peel,398,23,5,5,français,f,4,0.4,95.1886681,0.72473062
60fd01d7f7b981fdbe1f1b44,52,1,2024-02-28T17:17:09.218Z,english_596.wav,0,peel,398,23,5,5,français,f,5,0.5,72.69751936,1.52798236
60fd01d7f7b981fdbe1f1b44,52,1,2024-02-28T17:17:09.218Z,english_596.wav,0,peel,398,23,5,5,français,f,6,0.6,62.43561612,1.79088814
60fd01d7f7b981fdbe1f1b44,52,1,2024-02-28T17:17:09.218Z,english_596.wav,0,peel,398,23,5,5,français,f,7,0.7,-87.58634469,1.96984618
60fd01d7f7b981fdbe1f1b44,52,1,2024-02-28T17:17:09.218Z,english_596.wav,0,peel,398,23,5,5,français,f,8,0.8,-28.77393345,1.38508216
60fd01d7f7b981fdbe1f1b44,52,1,2024-02-28T17:17:09.218Z,english_596.wav,0,peel,398,23,5,5,français,f,9,0.9,-89.27970112,1.05217053
60fd01d7f7b981fdbe1f1b44,52,1,2024-02-28T17:17:09.218Z,english_596.wav,0,peel,398,23,5,5,français,f,10,1.0,-11.13754725,1.15113027
60fd01d7f7b981fdbe1f1b44,52,1,2024-02-28T17:17:09.218Z,english_596.wav,0,peel,398,23,5,5,français,f,11,1.09391667,-71.54799937,0.49767302
60fd01d7f7b981fdbe1f1b44,53,1,2024-02-28T17:17:09.218Z,english_714.wav,0,peel,375,23,5,5,français,f,0,0.0,79.0390651,0.49033963
60fd01d7f7b981fdbe1f1b44,53,1,2024-02-28T17:17:09.218Z,english_714.wav,0,peel,375,23,5,5,français,f,1,0.1,36.23720606,1.92693389
60fd01d7f7b981fdbe1f1b44,53,1,2024-02-28T17:17:09.218Z,english_714.wav,0,peel,375,23,5,5,français,f,2,0.2,59.88505324,0.63464649
60fd01d7f7b981fdbe1f1b44,53,1,2024-02-28T17:17:09.218Z,english_714.wav,0,peel,375,23,5,5,français,f,3,0.3,35.79437608,0.92002545
60fd01d7f7b981fdbe1f1b44,53,1,2024-02-28T17:17:09.218Z,english_714.wav,0,peel,375,23,5,5,français,f,4,0.4,1.83402307,0.7042678
60fd01d7f7b981fdbe1f1b44,53,1,2024-02-28T17:17:09.218Z,english_714.wav,0,peel,375,23,5,5,français,f,5,0.5,73.3370193,0.59965101
60fd01d7f7b981fdbe1f1b44,53,1,2024-02-28T17:17:09.218Z,english_714.wav,0,peel,375,23,5,5,français,f,6,0.6,-82.63220087,0.57753473
60fd01d7f7b981fdbe1f1b44,53,1,2024-02-28T17:17:09.218Z,english_714.wav,0,peel,375,23,5,5,français,f,7,0.7,49.23957633,1.31617156
60fd01d7f7b981fdbe1f1b44,53,1,2024-02-28T17:17:09.218Z,english_714.wav,0,peel,375,23,5,5,français,f,8,0.8,10.5160274,1.11503481
60fd01d7f7b981fdbe1f1b44,53,1,2024-02-28T17:17:09.218Z,english_714.wav,0,peel,375,23,5,5,français,f,9,0.9,-94.9780405,1.71749538
60fd01d7f7b981fdbe1f1b44,53,1,2024-02-28T17:17:09.218Z,english_714.wav,0,peel,375,23,5,5,français,f,10,1.0,20.48401592,0.94991936
60fd01d7f7b981fdbe1f1b44,53,1,2024-02-28T17:17:09.218Z,english_714.wav,0,peel,375,23,5,5,français,f,11,1.09391667,-2.68158482,0.61904564
60fd01d7f7b981fdbe1f1b44,54,1,2024-02-28T17:17:09.218Z,english_629.wav,0,peel,856,23,5,5,français,f,0,0.0,-98.30964243,0.81771725
60fd01d7f7b981fdbe1f1b44,54,1,2024-02-28T17:17:09.218Z,english_629.wav,0,peel,856,23,5,5,français,f,1,0.1,-5.62970232,0.80248144
60fd01d7f7b981fdbe1f1b44,54,1,2024-02-28T17:17:09.218Z,english_629.wav,0,peel,856,23,5,5,français,f,2,0.2,20.69990793,1.65272957
60fd01d7f7b981fdbe1f1b44,54,1,2024-02-28T17:17:09.218Z,english_629.wav,0,peel,856,23,5,5,français,f,3,0.3,-4.68954038,0.79587507
60fd01d7f7b981fdbe1f1b44,54,1,2024-02-28T17:17:09.218Z,english_629.wav,0,peel,856,23,5,5,français,f,4,0.4,-82.80499964,0.51843323
60fd01d7f7b981fdbe1f1b44,54,1,2024-02-28T17:17:09.218Z,english_629.wav,0,peel,856,23,5,5,français,f,5,0.5,68.80297029,1.06630495
60fd01d7f7b981fdbe1f1b44,54,1,2024-02-28T17:17:09.218Z,english_629.wav,0,peel,856,23,5,5,français,f,6,0.6,-24.62615081,0.85921764
60fd01d7f7b981fdbe1f1b44,54,1,2024-02-28T17:17:09.218Z,english_629.wav,0,peel,856,23,5,5,français,f,7,0.7,-86.27878454,1.30572182
60fd01d7f7b981fdbe1f1b44,54,1,2024-02-28T17:17:09.218Z,english_629.wav,0,peel,856,23,5,5,français,f,8,0.8,-88.66663155,0.67243508
60fd01d7f7b981fdbe1f1b44,54,1,2024-02-28T17:17:09.218Z,english_629.wav,0,peel,856,23,5,5,français,f,9,0.9,8.97030431,0.68958588
60fd01d7f7b981fdbe1f1b44,54,1,2024-02-28T17:17:09.218Z,english_629.wav,0,peel,856,23,5,5,français,f,10,1.0,-94.86018334,0.23451131
60fd01d7f7b981fdbe1f1b44,54,1,2024-02-28T17:17:09.218Z,english_629.wav,0,peel,856,23,5,5,français,f,11,1.09391667,10.00961885,1.91010728
60fd01d7f7b981fdbe1f1b44,55,1,2024-02-28T17:17:09.218Z,english_533.wav,0,peel,656,23,5,5,français,f,0,0.0,82.3150146,1.74351328
60fd01d7f7b981fdbe1f1b44,55,1,2024-02-28T17:17:09.218Z,english_533.wav,0,peel,656,23,5,5,français,f,1,0.1,-62.65263441,1.01143167
60fd01d7f7b981fdbe1f1b44,55,1,2024-02-28T17:17:09.218Z,english_533.wav,0,peel,656,23,5,5,français,f,2,0.2,35.24658043,1.89837562
60fd01d7f7b981fdbe1f1b44,55,1,2024-02-28T17:17:09.218Z,english_533.wav,0,peel,656,23,5,5,français,f,3,0.3,-92.25963636,0.63714559
60fd01d7f7b981fdbe1f1b44,55,1,2024-02-28T17:17:09.218Z,english_533.wav,0,peel,656,23,5,5,français,f,4,0.4,55.18355153,1.6894321
60fd01d7f7b981fdbe1f1b44,55,1,2024-02-28T17:17:09.218Z,english_533.wav,0,peel,656,23,5,5,français,f,5,0.5,42.19734794,0.54282928
60fd01d7f7b981fdbe1f1b44,55,1,2024-02-28T17:17:09.218Z,english_533.wav,0,peel,656,23,5,5,français,f,6,0.6,26.84517853,1.89183876
60fd01d7f7b981fdbe1f1b44,55,1,2024-02-28T17:17:09.218Z,english_533.wav,0,peel,656,23,5,5,français,f,7,0.7,-96.44791366,0.53977312
60fd01d7f7b981fdbe1f1b44,55,1,2024-02-28T17:17:09.218Z,english_533.wav,0,peel,656,23,5,5,français,f,8,0.8,-32.52364266,1.51379003
60fd01d7f7b981fdbe1f1b44,55,1,2024-02-28T17:17:09.218Z,english_533.wav,0,peel,656,23,5,5,français,f,9,0.9,72.77745032,1.26846018
60fd01d7f7b981fdbe1f1b44,55,1,2024-02-28T17:17:09.218Z,english_533.wav,0,peel,656,23,5,5,français,f,10,1.0,-8.5096212,0.77810192
60fd01d7f7b981fdbe1f1b44,55,1,2024-02-28T17:17:09.218Z,english_533.wav,0,peel,656,23,5,5,français,f,11,1.09391667,-5.91345178,1.56024291
60fd01d7f7b981fdbe1f1b44,56,1,2024-02-28T17:17:09.218Z,english_486.wav,0,peel,326,23,5,5,français,f,0,0.0,14.09044268,1.6475495
60fd01d7f7b981fdbe1f1b44,56,1,2024-02-28T17:17:09.218Z,english_486.wav,0,peel,326,23,5,5,français,f,1,0.1,28.13825665,1.6255176
60fd01d7f7b981fdbe1f1b44,56,1,2024-02-28T17:17:09.218Z,english_486.wav,0,peel,326,23,5,5,français,f,2,0.2,-40.21559781,1.99682212
60fd01d7f7b981fdbe1f1b44,56,1,2024-02-28T17:17:09.218Z,english_486.wav,0,peel,326,23,5,5,français,f,3,0.3,9.13288013,0.39670369
60fd01d7f7b981fdbe1f1b44,56,1,2024-02-28T17:17:09.218Z,english_486.wav,0,peel,326,23,5,5,français,f,4,0.4,89.32859242,1.34395023
60fd01d7f7b981fdbe1f1b44,56,1,2024-02-28T17:17:09.218Z,english_486.wav,0,peel,326,23,5,5,français,f,5,0.5,-17.87642912,0.55691658
60fd01d7f7b981fdbe1f1b44,56,1,2024-02-28T17:17:09.218Z,english_486.wav,0,peel,326,23,5,5,français,f,6,0.6,80.16824269,1.45409657
60fd01d7f7b981fdbe1f1b44,56,1,2024-02-28T17:17:09.218Z,english_486.wav,0,peel,326,23,5,5,français,f,7,0.7,40.51786148,1.8204099
60fd01d7f7b981fdbe1f1b44,56,1,2024-02-28T17:17:09.218Z,english_486.wav,0,peel,326,23,5,5,français,f,8,0.8,-19.91774538,0.51861004
60fd01d7f7b981fdbe1f1b44,56,1,2024-02-28T17:17:09.218Z,english_486.wav,0,peel,326,23,5,5,français,f,9,0.9,-8.63425979,0.91268117
60fd01d7f7b981fdbe1f1b44,56,1,2024-02-28T17:17:09.218Z,english_486.wav,0,peel,326,23,5,5,français,f,10,1.0,-22.84814304,1.67784611
60fd01d7f7b981fdbe1f1b44,56,1,2024-02-28T17:17:09.218Z,english_486.wav,0,peel,326,23,5,5,français,f,11,1.09391667,36.71518597,0.60064436
60fd01d7f7b981fdbe1f1b44,57,1,2024-02-28T17:17:09.218Z,english_518.wav,0,peel,272,23,5,5,français,f,0,0.0,22.01202895,1.18568215
60fd01d7f7b981fdbe1f1b44,57,1,2024-02-28T17:17:09.218Z,english_518.wav,0,peel,272,23,5,5,français,f,1,0.1,84.85911905,1.27730104
60fd01d7f7b981fdbe1f1b44,57,1,2024-02-28T17:17:09.218Z,english_518.wav,0,peel,272,23,5,5,français,f,2,0.2,6.76803646,1.88343212
60fd01d7f7b981fdbe1f1b44,57,1,2024-02-28T17:17:09.218Z,english_518.wav,0,peel,272,23,5,5,français,f,3,0.3,-12.31334731,1.70516568
60fd01d7f7b981fdbe1f1b44,57,1,2024-02-28T17:17:09.218Z,english_518.wav,0,peel,272,23,5,5,français,f,4,0.4,-5.3812793,1.21188584
60fd01d7f7b981fdbe1f1b44,57,1,2024-02-28T17:17:09.218Z,english_518.wav,0,peel,272,23,5,5,français,f,5,0.5,-39.12372131,1.55365309
60fd01d7f7b981fdbe1f1b44,57,1,2024-02-28T17:17:09.218Z,english_518.wav,0,peel,272,23,5,5,français,f,6,0.6,-19.59187687,1.67380265
60fd01d7f7b981fdbe1f1b44,57,1,2024-02-28T17:17:09.218Z,english_518.wav,0,peel,272,23,5,5,français,f,7,0.7,30.09174406,1.67954719
60fd01d7f7b981fdbe1f1b44,57,1,2024-02-28T17:17:09.218Z,english_518.wav,0,peel,272,23,5,5,français,f,8,0.8,12.21299005,1.45293932
60fd01d7f7b981fdbe1f1b44,57,1,2024-02-28T17:17:09.218Z,english_518.wav,0,peel,272,23,5,5,français,f,9,0.9,-30.98849923,1.42118442
60fd01d7f7b981fdbe1f1b44,57,1,2024-02-28T17:17:09.218Z,english_518.wav,0,peel,272,23,5,5,français,f,10,1.0,-66.88783357,1.84946345
60fd01d7f7b981fdbe1f1b44,57,1,2024-02-28T17:17:09.218Z,english_518.wav,0,peel,272,23,5,5,français,f,11,1.09391667,-47.66173225,1.44146986
60fd01d7f7b981fdbe1f1b44,58,1,2024-02-28T17:17:09.218Z,english_809.wav,0,pill,1067,23,5,5,français,f,0,0.0,-9.12051171,1.24060405
60fd01d7f7b981fdbe1f1b44,58,1,2024-02-28T17:17:09.218Z,english_809.wav,0,pill,1067,23,5,5,français,f,1,0.1,56.83840218,0.92544531
60fd01d7f7b981fdbe1f1b44,58,1,2024-02-28T17:17:09.218Z,english_809.wav,0,pill,1067,23,5,5,français,f,2,0.2,-21.1464042,1.6749497
60fd01d7f7b981fdbe1f1b44,58,1,2024-02-28T17:17:09.218Z,english_809.wav,0,pill,1067,23,5,5,français,f,3,0.3,57.63617788,0.74168877
60fd01d7f7b981fdbe1f1b44,58,1,2024-02-28T17:17:09.218Z,english_809.wav,0,pill,1067,23,5,5,français,f,4,0.4,81.73006696,0.96063823
60fd01d7f7b981fdbe1f1b44,58,1,2024-02-28T17:17:09.218Z,english_809.wav,0,pill,1067,23,5,5,français,f,5,0.5,1.9499243,1.38564295
60fd01d7f7b981fdbe1f1b44,58,1,2024-02-28T17:17:09.218Z,english_809.wav,0,pill,1067,23,5,5,français,f,6,0.6,94.78967393,0.56911063
60fd01d7f7b981fdbe1f1b44,58,1,2024-02-28T17:17:09.218Z,english_809.wav,0,pill,1067,23,5,5,français,f,7,0.7,65.64249462,0.51453492
60fd01d7f7b981fdbe1f1b44,58,1,2024-02-28T17:17:09.218Z,english_809.wav,0,pill,1067,23,5,5,français,f,8,0.8,90.5146219,0.11779349
60fd01d7f7b981fdbe1f1b44,58,1,2024-02-28T17:17:09.218Z,english_809.wav,0,pill,1067,23,5,5,français,f,9,0.9,37.72992996,0.31036913
60fd01d7f7b981fdbe1f1b44,58,1,2024-02-28T17:17:09.218Z,english_809.wav,0,pill,1067,23,5,5,français,f,10,1.0,-3.08128901,0.78583843
60fd01d7f7b981fdbe1f1b44,58,1,2024-02-28T17:17:09.218Z,english_809.wav,0,pill,1067,23,5,5,français,f,11,1.09391667,81.22811773,1.12131059
60fd01d7f7b981fdbe1f1b44,59,1,2024-02-28T17:17:09.218Z,english_98.wav,0,peel,1075,23,5,5,français,f,0,0.0,-38.17071081,1.32171021
60fd01d7f7b981fdbe1f1b44,59,1,2024-02-28T17:17:09.218Z,english_98.wav,0,peel,1075,23,5,5,français,f,1,0.1,3.99117813,0.45941391
60fd01d7f7b981fdbe1f1b44,59,1,2024-02-28T17:17:09.218Z,english_98.wav,0,peel,1075,23,5,5,français,f,2,0.2,76.94779223,1.60836627
60fd01d7f7b981fdbe1f1b44,59,1,2024-02-28T17:17:09.218Z,english_98.wav,0,peel,1075,23,5,5,français,f,3,0.3,-47.40720284,0.02861918
60fd01d7f7b981fdbe1f1b44,59,1,2024-02-28T17:17:09.218Z,english_98.wav,0,peel,1075,23,5,5,français,f,4,0.4,60.49673758,0.62913144
60fd01d7f7b981fdbe1f1b44,59,1,2024-02-28T17:17:09.218Z,english_98.wav,0,peel,1075,23,5,5,français,f,5,0.5,-72.0425771,0.32921161
60fd01d7f7b981fdbe1f1b44,59,1,2024-02-28T17:17:09.218Z,english_98.wav,0,peel,1075,23,5,5,français,f,6,0.6,75.35793907,0.47491973
60fd01d7f7b981fdbe1f1b44,59,1,2024-02-28T17:17:09.218Z,english_98.wav,0,peel,1075,23,5,5,français,f,7,0.7,-37.84878225,1.13024742
60fd01d7f7b981fdbe1f1b44,59,1,2024-02-28T17:17:09.218Z,english_98.wav,0,peel,1075,23,5,5,français,f,8,0.8,-2.2661701,1.3276578
60fd01d7f7b981fdbe1f1b44,59,1,2024-02-28T17:17:09.218Z,english_98.wav,0,peel,1075,23,5,5,français,f,9,0.9,-10.24921113,0.74289268
60fd01d7f7b981fdbe1f1b44,59,1,2024-02-28T17:17:09.218Z,english_98.wav,0,peel,1075,23,5,5,français,f,10,1.0,2.65052449,0.21343851
60fd01d7f7b981fdbe1f1b44,59,1,2024-02-28T17:17:09.218Z,english_98.wav,0,peel,1075,23,5,5,français,f,11,1.09391667,-59.74440562,0.54238322
60fd01d7f7b981fdbe1f1b44,60,1,2024-02-28T17:17:09.218Z,english_118.wav,0,pill,2521,23,5,5,français,f,0,0.0,37.82351895,1.3762948
60fd01d7f7b981fdbe1f1b44,60,1,2024-02-28T17:17:09.218Z,english_118.wav,0,pill,2521,23,5,5,français,f,1,0.1,-67.70818615,0.33841533
60fd01d7f7b981fdbe1f1b44,60,1,2024-02-28T17:17:09.218Z,english_118.wav,0,pill,2521,23,5,5,français,f,2,0.2,68.69944334,0.45852716
60fd01d7f7b981fdbe1f1b44,60,1,2024-02-28T17:17:09.218Z,english_118.wav,0,pill,2521,23,5,5,français,f,3,0.3,52.36371426,1.7289391
60fd01d7f7b981fdbe1f1b44,60,1,2024-02-28T17:17:09.218Z,english_118.wav,0,pill,2521,23,5,5,français,f,4,0.4,75.26535893,1.37893215
60fd01d7f7b981fdbe1f1b44,60,1,2024-02-28T17:17:09.218Z,english_118.wav,0,pill,2521,23,5,5,français,f,5,0.5,-76.41094454,1.61108602
60fd01d7f7b981fdbe1f1b44,60,1,2024-02-28T17:17:09.218Z,english_118.wav,0,pill,2521,23,5,5,français,f,6,0.6,0.45465547,0.84685901
60fd01d7f7b981fdbe1f1b44,60,1,2024-02-28T17:17:09.218Z,english_118.wav,0,pill,2521,23,5,5,français,f,7,0.7,55.44753482,1.08403972
60fd01d7f7b981fdbe1f1b44,60,1,2024-02-28T17:17:09.218Z,english_118.wav,0,pill,2521,23,5,5,français,f,8,0.8,-53.17394643,0.42004792
60fd01d7f7b981fdbe1f1b44,60,1,2024-02-28T17:17:09.218Z,english_118.wav,0,pill,2521,23,5,5,français,f,9,0.9,-98.70911392,0.56823128
60fd01d7f7b981fdbe1f1b44,60,1,2024-02-28T17:17:09.218Z,english_118.wav,0,pill,2521,23,5,5,français,f,10,1.0,-4.73000909,1.43622179
60fd01d7f7b981fdbe1f1b44,60,1,2024-02-28T17:17:09.218Z,english_118.wav,0,pill,2521,23,5,5,français,f,11,1.09391667,-39.29610214,1.0044269
60fd01d7f7b981fdbe1f1b44,61,1,2024-02-28T17:17:09.218Z,english_695.wav,0,pill,928,23,5,5,français,f,0,0.0,-0.40611107,1.26493678
60fd01d7f7b981fdbe1f1b44,61,1,2024-02-28T17:17:09.218Z,english_695.wav,0,pill,928,23,5,5,français,f,1,0.1,-51.44580043,0.30645506
60fd01d7f7b981fdbe1f1b44,61,1,2024-02-28T17:17:09.218Z,english_695.wav,0,pill,928,23,5,5,français,f,2,0.2,99.94982399,0.22891404
60fd01d7f7b981fdbe1f1b44,61,1,2024-02-28T17:17:09.218Z,english_695.wav,0,pill,928,23,5,5,français,f,3,0.3,-89.26755039,0.36431767
60fd01d7f7b981fdbe1f1b44,61,1,2024-02-28T17:17:09.218Z,english_695.wav,0,pill,928,23,5,5,français,f,4,0.4,-5.79922916,1.58087712
60fd01d7f7b981fdbe1f1b44,61,1,2024-02-28T17:17:09.218Z,english_695.wav,0,pill,928,23,5,5,français,f,5,0.5,32.87645526,1.0219227
60fd01d7f7b981fdbe1f1b44,61,1,2024-02-28T17:17:09.218Z,english_695.wav,0,pill,928,23,5,5,français,f,6,0.6,45.01226994,0.87256138
60fd01d7f7b981fdbe1f1b44,61,1,2024-02-28T17:17:09.218Z,english_695.wav,0,pill,928,23,5,5,français,f,7,0.7,-12.9046985,0.08723999
60fd01d7f7b981fdbe1f1b44,61,1,2024-02-28T17:17:09.218Z,english_695.wav,0,pill,928,23,5,5,français,f,8,0.8,-4.01812723,0.25614853
60fd01d7f7b981fdbe1f1b44,61,1,2024-02-28T17:17:09.218Z,english_695.wav,0,pill,928,23,5,5,français,f,9,0.9,-88.04470656,0.82634086
60fd01d7f7b981fdbe1f1b44,61,1,2024-02-28T17:17:09.218Z,english_695.wav,0,pill,928,23,5,5,français,f,10,1.0,-55.25497398,1.44930742
60fd01d7f7b981fdbe1f1b44,61,1,2024-02-28T17:17:09.218Z,english_695.wav,0,pill,928,23,5,5,français,f,11,1.09391667,-57.74686665,1.25560424
60fd01d7f7b981fdbe1f1b44,62,1,2024-02-28T17:17:09.218Z,english_754.wav,0,pill,2623,23,5,5,français,f,0,0.0,-64.18066608,1.31756219
60fd01d7f7b981fdbe1f1b44,62,1,2024-02-28T17:17:09.218Z,english_754.wav,0,pill,2623,23,5,5,français,f,1,0.1,-98.7453181,0.6775935
60fd01d7f7b981fdbe1f1b44,62,1,2024-02-28T17:17:09.218Z,english_754.wav,0,pill,2623,23,5,5,français,f,2,0.2,-52.29987626,0.44453287
60fd01d7f7b981fdbe1f1b44,62,1,2024-02-28T17:17:09.218Z,english_754.wav,0,pill,2623,23,5,5,français,f,3,0.3,-91.6870734,0.79930959
60fd01d7f7b981fdbe1f1b44,62,1,2024-02-28T17:17:09.218Z,english_754.wav,0,pill,2623,23,5,5,français,f,4,0.4,-99.93480519,0.36385227
60fd01d7f7b981fdbe1f1b44,62,1,2024-02-28T17:17:09.218Z,english_754.wav,0,pill,2623,23,5,5,français,f,5,0.5,-2.56117899,1.60724529
60fd01d7f7b981fdbe1f1b44,62,1,2024-02-28T17:17:09.218Z,english_754.wav,0,pill,2623,23,5,5,français,f,6,0.6,-58.25705586,1.54119087
60fd01d7f7b981fdbe1f1b44,62,1,2024-02-28T17:17:09.218Z,english_754.wav,0,pill,2623,23,5,5,français,f,7,0.7,-50.59283721,0.4128908
60fd01d7f7b981fdbe1f1b44,62,1,2024-02-28T17:17:09.218Z,english_754.wav,0,pill,2623,23,5,5,français,f,8,0.8,-3.4865488,0.89168042
60fd01d7f7b981fdbe1f1b44,62,1,2024-02-28T17:17:09.218Z,english_754.wav,0,pill,2623,23,5,5,français,f,9,0.9,11.81028617,0.16017021
60fd01d7f7b981fdbe1f1b44,62,1,2024-02-28T17:17:09.218Z,english_754.wav,0,pill,2623,23,5,5,français,f,10,1.0,27.46545009,1.03192762
60fd01d7f7b981fdbe1f1b44,62,1,2024-02-28T17:17:09.218Z,english_754.wav,0,pill,2623,23,5,5,français,f,11,1.09391667,8.3161915,0.24632806
60fd01d7f7b981fdbe1f1b44,63,1,2024-02-28T17:17:09.218Z,english_679.wav,0,peel,301,23,5,5,français,f,0,0.0,76.35427363,0.61802324
60fd01d7f7b981fdbe1f1b44,63,1,2024-02-28T17:17:09.218Z,english_679.wav,0,peel,301,23,5,5,français,f,1,0.1,-50.0846889,0.37453971
60fd01d7f7b981fdbe1f1b44,63,1,2024-02-28T17:17:09.218Z,english_679.wav,0,peel,301,23,5,5,français,f,2,0.2,79.70250944,0.85876035
60fd01d7f7b981fdbe1f1b44,63,1,2024-02-28T17:17:09.218Z,english_679.wav,0,peel,301,23,5,5,français,f,3,0.3,81.01080403,1.8566793
60fd01d7f7b981fdbe1f1b44,63,1,2024-02-28T17:17:09.218Z,english_679.wav,0,peel,301,23,5,5,français,f,4,0.4,83.79560208,1.28706844
60fd01d7f7b981fdbe1f1b44,63,1,2024-02-28T17:17:09.218Z,english_679.wav,0,peel,301,23,5,5,français,f,5,0.5,50.36804925,1.04354471
60fd01d7f7b981fdbe1f1b44,63,1,2024-02-28T17:17:09.218Z,english_679.wav,0,peel,301,23,5,5,français,f,6,0.6,40.56025904,1.21986253
60fd01d7f7b981fdbe1f1b44,63,1,2024-02-28T17:17:09.218Z,english_679.wav,0,peel,301,23,5,5,français,f,7,0.7,61.04999163,0.6187735
60fd01d7f7b981fdbe1f1b44,63,1,2024-02-28T17:17:09.218Z,english_679.wav,0,peel,301,23,5,5,français,f,8,0.8,30.26013895,1.74062644
60fd01d7f7b981fdbe1f1b44,63,1,2024-02-28T17:17:09.218Z,english_679.wav,0,peel,301,23,5,5,français,f,9,0.9,-2.00132525,0.86694999
60fd01d7f7b981fdbe1f1b44,63,1,2024-02-28T17:17:09.218Z,english_679.wav,0,peel,301,23,5,5,français,f,10,1.0,61.28738914,1.26165824
60fd01d7f7b981fdbe1f1b44,63,1,2024-02-28T17:17:09.218Z,english_679.wav,0,peel,301,23,5,5,français,f,11,1.09391667,-32.08611222,0.66731925
