subj,trial,block,date,stim,stim_order,response,rt,age,english,french,language,sex,param_index,segment,pitch,stretch
5ff865647dfb4303dc56d786,0,0,2024-02-28T15:01:38.555Z,english_778.wav,0,peel,3330,28,4,5,Français,f,0,0.0,82.0288253,1.66099758
5ff865647dfb4303dc56d786,0,0,2024-02-28T15:01:38.555Z,english_778.wav,0,peel,3330,28,4,5,Français,f,1,0.1,-20.3816384,0.6394452
5ff865647dfb4303dc56d786,0,0,2024-02-28T15:01:38.555Z,english_778.wav,0,peel,3330,28,4,5,Français,f,2,0.2,20.1187508,1.73198521
5ff865647dfb4303dc56d786,0,0,2024-02-28T15:01:38.555Z,english_778.wav,0,peel,3330,28,4,5,Français,f,3,0.3,-67.3840406,1.63414449
5ff865647dfb4303dc56d786,0,0,2024-02-28T15:01:38.555Z,english_778.wav,0,peel,3330,28,4,5,Français,f,4,0.4,41.792495,0.91528965
5ff865647dfb4303dc56d786,0,0,2024-02-28T15:01:38.555Z,english_778.wav,0,peel,3330,28,4,5,Français,f,5,0.5,69.2908492,1.84340145
5ff865647dfb4303dc56d786,0,0,2024-02-28T15:01:38.555Z,english_778.wav,0,peel,3330,28,4,5,Français,f,6,0.6,-41.9809295,0.70098427
5ff865647dfb4303dc56d786,0,0,2024-02-28T15:01:38.555Z,english_778.wav,0,peel,3330,28,4,5,Français,f,7,0.7,93.0761369,1.59677801
5ff865647dfb4303dc56d786,0,0,2024-02-28T15:01:38.555Z,english_778.wav,0,peel,3330,28,4,5,Français,f,8,0.8,4.08814008,0.75626513
5ff865647dfb4303dc56d786,0,0,2024-02-28T15:01:38.555Z,english_778.wav,0,peel,3330,28,4,5,Français,f,9,0.9,-0.0375531871,1.05104073
5ff865647dfb4303dc56d786,0,0,2024-02-28T15:01:38.555Z,english_778.wav,0,peel,3330,28,4,5,Français,f,10,1.0,-79.0647822,0.42401001
5ff865647dfb4303dc56d786,0,0,2024-02-28T15:01:38.555Z,english_778.wav,0,peel,3330,28,4,5,Français,f,11,1.09391667,-53.0664028,1.42241932
5ff865647dfb4303dc56d786,1,0,2024-02-28T15:01:38.555Z,english_290.wav,0,pill,1079,28,4,5,Français,f,0,0.0,4.14643055,1.34304487
5ff865647dfb4303dc56d786,1,0,2024-02-28T15:01:38.555Z,english_290.wav,0,pill,1079,28,4,5,Français,f,1,0.1,55.79753149,1.94828155
5ff865647dfb4303dc56d786,1,0,2024-02-28T15:01:38.555Z,english_290.wav,0,pill,1079,28,4,5,Français,f,2,0.2,-63.42272798,1.81846113
5ff865647dfb4303dc56d786,1,0,2024-02-28T15:01:38.555Z,english_290.wav,0,pill,1079,28,4,5,Français,f,3,0.3,-40.60813041,0.06068854
5ff865647dfb4303dc56d786,1,0,2024-02-28T15:01:38.555Z,english_290.wav,0,pill,1079,28,4,5,Français,f,4,0.4,-85.79001431,0.95997788
5ff865647dfb4303dc56d786,1,0,2024-02-28T15:01:38.555Z,english_290.wav,0,pill,1079,28,4,5,Français,f,5,0.5,-31.93461576,0.98743905
5ff865647dfb4303dc56d786,1,0,2024-02-28T15:01:38.555Z,english_290.wav,0,pill,1079,28,4,5,Français,f,6,0.6,-73.76037774,0.49081153
5ff865647dfb4303dc56d786,1,0,2024-02-28T15:01:38.555Z,english_290.wav,0,pill,1079,28,4,5,Français,f,7,0.7,-54.82415725,1.93641378
5ff865647dfb4303dc56d786,1,0,2024-02-28T15:01:38.555Z,english_290.wav,0,pill,1079,28,4,5,Français,f,8,0.8,85.10642222,0.02141652
5ff865647dfb4303dc56d786,1,0,2024-02-28T15:01:38.555Z,english_290.wav,0,pill,1079,28,4,5,Français,f,9,0.9,-54.96930538,1.82619941
5ff865647dfb4303dc56d786,1,0,2024-02-28T15:01:38.555Z,english_290.wav,0,pill,1079,28,4,5,Français,f,10,1.0,41.58093041,0.02158423
5ff865647dfb4303dc56d786,1,0,2024-02-28T15:01:38.555Z,english_290.wav,0,pill,1079,28,4,5,Français,f,11,1.09391667,28.32805855,1.73531275
5ff865647dfb4303dc56d786,2,0,2024-02-28T15:01:38.555Z,english_665.wav,0,peel,781,28,4,5,Français,f,0,0.0,-16.81613766,1.57148085
5ff865647dfb4303dc56d786,2,0,2024-02-28T15:01:38.555Z,english_665.wav,0,peel,781,28,4,5,Français,f,1,0.1,6.45802089,1.67314542
5ff865647dfb4303dc56d786,2,0,2024-02-28T15:01:38.555Z,english_665.wav,0,peel,781,28,4,5,Français,f,2,0.2,-39.14767358,1.64833963
5ff865647dfb4303dc56d786,2,0,2024-02-28T15:01:38.555Z,english_665.wav,0,peel,781,28,4,5,Français,f,3,0.3,-59.56196692,0.04709433
5ff865647dfb4303dc56d786,2,0,2024-02-28T15:01:38.555Z,english_665.wav,0,peel,781,28,4,5,Français,f,4,0.4,-22.80702259,1.1795503
5ff865647dfb4303dc56d786,2,0,2024-02-28T15:01:38.555Z,english_665.wav,0,peel,781,28,4,5,Français,f,5,0.5,48.84600095,1.10369045
5ff865647dfb4303dc56d786,2,0,2024-02-28T15:01:38.555Z,english_665.wav,0,peel,781,28,4,5,Français,f,6,0.6,-22.22311015,1.02368727
5ff865647dfb4303dc56d786,2,0,2024-02-28T15:01:38.555Z,english_665.wav,0,peel,781,28,4,5,Français,f,7,0.7,-21.08263431,1.75922585
5ff865647dfb4303dc56d786,2,0,2024-02-28T15:01:38.555Z,english_665.wav,0,peel,781,28,4,5,Français,f,8,0.8,-18.22407764,1.40227071
5ff865647dfb4303dc56d786,2,0,2024-02-28T15:01:38.555Z,english_665.wav,0,peel,781,28,4,5,Français,f,9,0.9,-61.53900162,1.50722495
5ff865647dfb4303dc56d786,2,0,2024-02-28T15:01:38.555Z,english_665.wav,0,peel,781,28,4,5,Français,f,10,1.0,-19.08536635,0.46597225
5ff865647dfb4303dc56d786,2,0,2024-02-28T15:01:38.555Z,english_665.wav,0,peel,781,28,4,5,Français,f,11,1.09391667,-43.46705032,0.63106716
5ff865647dfb4303dc56d786,3,0,2024-02-28T15:01:38.555Z,english_477.wav,0,peel,2391,28,4,5,Français,f,0,0.0,44.11369928,1.39445147
5ff865647dfb4303dc56d786,3,0,2024-02-28T15:01:38.555Z,english_477.wav,0,peel,2391,28,4,5,Français,f,1,0.1,-49.72421876,1.98393148
5ff865647dfb4303dc56d786,3,0,2024-02-28T15:01:38.555Z,english_477.wav,0,peel,2391,28,4,5,Français,f,2,0.2,37.81687243,1.85807547
5ff865647dfb4303dc56d786,3,0,2024-02-28T15:01:38.555Z,english_477.wav,0,peel,2391,28,4,5,Français,f,3,0.3,-52.5290051,0.71490172
5ff865647dfb4303dc56d786,3,0,2024-02-28T15:01:38.555Z,english_477.wav,0,peel,2391,28,4,5,Français,f,4,0.4,42.12087864,0.37809407
5ff865647dfb4303dc56d786,3,0,2024-02-28T15:01:38.555Z,english_477.wav,0,peel,2391,28,4,5,Français,f,5,0.5,-3.66730799,0.12826759
5ff865647dfb4303dc56d786,3,0,2024-02-28T15:01:38.555Z,english_477.wav,0,peel,2391,28,4,5,Français,f,6,0.6,34.46605835,0.32776618
5ff865647dfb4303dc56d786,3,0,2024-02-28T15:01:38.555Z,english_477.wav,0,peel,2391,28,4,5,Français,f,7,0.7,92.87725089,0.64947081
5ff865647dfb4303dc56d786,3,0,2024-02-28T15:01:38.555Z,english_477.wav,0,peel,2391,28,4,5,Français,f,8,0.8,-80.85076749,1.06355304
5ff865647dfb4303dc56d786,3,0,2024-02-28T15:01:38.555Z,english_477.wav,0,peel,2391,28,4,5,Français,f,9,0.9,-9.36766275,1.32938803
5ff865647dfb4303dc56d786,3,0,2024-02-28T15:01:38.555Z,english_477.wav,0,peel,2391,28,4,5,Français,f,10,1.0,76.24737873,1.22597552
5ff865647dfb4303dc56d786,3,0,2024-02-28T15:01:38.555Z,english_477.wav,0,peel,2391,28,4,5,Français,f,11,1.09391667,-13.80306297,1.00606008
5ff865647dfb4303dc56d786,4,0,2024-02-28T15:01:38.555Z,english_675.wav,0,peel,1092,28,4,5,Français,f,0,0.0,-55.70103266,0.31166963
5ff865647dfb4303dc56d786,4,0,2024-02-28T15:01:38.555Z,english_675.wav,0,peel,1092,28,4,5,Français,f,1,0.1,-28.01284425,0.86348118
5ff865647dfb4303dc56d786,4,0,2024-02-28T15:01:38.555Z,english_675.wav,0,peel,1092,28,4,5,Français,f,2,0.2,7.20629908,0.70830416
5ff865647dfb4303dc56d786,4,0,2024-02-28T15:01:38.555Z,english_675.wav,0,peel,1092,28,4,5,Français,f,3,0.3,-88.65707162,1.06551889
5ff865647dfb4303dc56d786,4,0,2024-02-28T15:01:38.555Z,english_675.wav,0,peel,1092,28,4,5,Français,f,4,0.4,-27.84357002,1.20889774
5ff865647dfb4303dc56d786,4,0,2024-02-28T15:01:38.555Z,english_675.wav,0,peel,1092,28,4,5,Français,f,5,0.5,-20.24546059,1.96243663
5ff865647dfb4303dc56d786,4,0,2024-02-28T15:01:38.555Z,english_675.wav,0,peel,1092,28,4,5,Français,f,6,0.6,20.54719109,0.99424305
5ff865647dfb4303dc56d786,4,0,2024-02-28T15:01:38.555Z,english_675.wav,0,peel,1092,28,4,5,Français,f,7,0.7,-91.70059837,1.67190932
5ff865647dfb4303dc56d786,4,0,2024-02-28T15:01:38.555Z,english_675.wav,0,peel,1092,28,4,5,Français,f,8,0.8,-73.21008585,0.91833311
5ff865647dfb4303dc56d786,4,0,2024-02-28T15:01:38.555Z,english_675.wav,0,peel,1092,28,4,5,Français,f,9,0.9,41.37635308,1.02826617
5ff865647dfb4303dc56d786,4,0,2024-02-28T15:01:38.555Z,english_675.wav,0,peel,1092,28,4,5,Français,f,10,1.0,8.96435743,1.43882248
5ff865647dfb4303dc56d786,4,0,2024-02-28T15:01:38.555Z,english_675.wav,0,peel,1092,28,4,5,Français,f,11,1.09391667,-83.64569899,1.75988721
5ff865647dfb4303dc56d786,5,0,2024-02-28T15:01:38.555Z,english_56.wav,0,peel,919,28,4,5,Français,f,0,0.0,94.56130546,1.78248544
5ff865647dfb4303dc56d786,5,0,2024-02-28T15:01:38.555Z,english_56.wav,0,peel,919,28,4,5,Français,f,1,0.1,98.82920217,0.32774506
5ff865647dfb4303dc56d786,5,0,2024-02-28T15:01:38.555Z,english_56.wav,0,peel,919,28,4,5,Français,f,2,0.2,-30.68243792,0.4010142
5ff865647dfb4303dc56d786,5,0,2024-02-28T15:01:38.555Z,english_56.wav,0,peel,919,28,4,5,Français,f,3,0.3,-48.75978293,0.84475133
5ff865647dfb4303dc56d786,5,0,2024-02-28T15:01:38.555Z,english_56.wav,0,peel,919,28,4,5,Français,f,4,0.4,-79.08505246,1.07558594
5ff865647dfb4303dc56d786,5,0,2024-02-28T15:01:38.555Z,english_56.wav,0,peel,919,28,4,5,Français,f,5,0.5,18.07000914,1.2644329
5ff865647dfb4303dc56d786,5,0,2024-02-28T15:01:38.555Z,english_56.wav,0,peel,919,28,4,5,Français,f,6,0.6,57.19590548,1.63811398
5ff865647dfb4303dc56d786,5,0,2024-02-28T15:01:38.555Z,english_56.wav,0,peel,919,28,4,5,Français,f,7,0.7,6.7178476,1.3488209
5ff865647dfb4303dc56d786,5,0,2024-02-28T15:01:38.555Z,english_56.wav,0,peel,919,28,4,5,Français,f,8,0.8,-59.05070955,0.73862335
5ff865647dfb4303dc56d786,5,0,2024-02-28T15:01:38.555Z,english_56.wav,0,peel,919,28,4,5,Français,f,9,0.9,-76.10802368,0.85331353
5ff865647dfb4303dc56d786,5,0,2024-02-28T15:01:38.555Z,english_56.wav,0,peel,919,28,4,5,Français,f,10,1.0,-28.87948521,1.24951522
5ff865647dfb4303dc56d786,5,0,2024-02-28T15:01:38.555Z,english_56.wav,0,peel,919,28,4,5,Français,f,11,1.09391667,8.04938486,0.68295905
5ff865647dfb4303dc56d786,6,0,2024-02-28T15:01:38.555Z,english_652.wav,0,pill,495,28,4,5,Français,f,0,0.0,-6.47134423,1.78340321
5ff865647dfb4303dc56d786,6,0,2024-02-28T15:01:38.555Z,english_652.wav,0,pill,495,28,4,5,Français,f,1,0.1,15.08810971,1.37348527
5ff865647dfb4303dc56d786,6,0,2024-02-28T15:01:38.555Z,english_652.wav,0,pill,495,28,4,5,Français,f,2,0.2,98.29631383,0.90438715
5ff865647dfb4303dc56d786,6,0,2024-02-28T15:01:38.555Z,english_652.wav,0,pill,495,28,4,5,Français,f,3,0.3,30.58339985,0.90448146
5ff865647dfb4303dc56d786,6,0,2024-02-28T15:01:38.555Z,english_652.wav,0,pill,495,28,4,5,Français,f,4,0.4,-6.30529528,0.6194213
5ff865647dfb4303dc56d786,6,0,2024-02-28T15:01:38.555Z,english_652.wav,0,pill,495,28,4,5,Français,f,5,0.5,-44.5601624,1.03986034
5ff865647dfb4303dc56d786,6,0,2024-02-28T15:01:38.555Z,english_652.wav,0,pill,495,28,4,5,Français,f,6,0.6,4.47931007,0.52762796
5ff865647dfb4303dc56d786,6,0,2024-02-28T15:01:38.555Z,english_652.wav,0,pill,495,28,4,5,Français,f,7,0.7,-52.28319513,0.92865907
5ff865647dfb4303dc56d786,6,0,2024-02-28T15:01:38.555Z,english_652.wav,0,pill,495,28,4,5,Français,f,8,0.8,17.6405793,1.28477406
5ff865647dfb4303dc56d786,6,0,2024-02-28T15:01:38.555Z,english_652.wav,0,pill,495,28,4,5,Français,f,9,0.9,2.7192508,1.34724363
5ff865647dfb4303dc56d786,6,0,2024-02-28T15:01:38.555Z,english_652.wav,0,pill,495,28,4,5,Français,f,10,1.0,-8.76412426,1.76490877
5ff865647dfb4303dc56d786,6,0,2024-02-28T15:01:38.555Z,english_652.wav,0,pill,495,28,4,5,Français,f,11,1.09391667,53.37366327,1.20575877
5ff865647dfb4303dc56d786,7,0,2024-02-28T15:01:38.555Z,english_914.wav,0,pill,506,28,4,5,Français,f,0,0.0,38.978205,0.35912604
5ff865647dfb4303dc56d786,7,0,2024-02-28T15:01:38.555Z,english_914.wav,0,pill,506,28,4,5,Français,f,1,0.1,87.18341185,1.3669236
5ff865647dfb4303dc56d786,7,0,2024-02-28T15:01:38.555Z,english_914.wav,0,pill,506,28,4,5,Français,f,2,0.2,15.47005822,0.84210071
5ff865647dfb4303dc56d786,7,0,2024-02-28T15:01:38.555Z,english_914.wav,0,pill,506,28,4,5,Français,f,3,0.3,29.25641776,0.05134094
5ff865647dfb4303dc56d786,7,0,2024-02-28T15:01:38.555Z,english_914.wav,0,pill,506,28,4,5,Français,f,4,0.4,-96.55134364,1.13395744
5ff865647dfb4303dc56d786,7,0,2024-02-28T15:01:38.555Z,english_914.wav,0,pill,506,28,4,5,Français,f,5,0.5,-89.29155074,0.79197201
5ff865647dfb4303dc56d786,7,0,2024-02-28T15:01:38.555Z,english_914.wav,0,pill,506,28,4,5,Français,f,6,0.6,-61.94858481,0.91379793
5ff865647dfb4303dc56d786,7,0,2024-02-28T15:01:38.555Z,english_914.wav,0,pill,506,28,4,5,Français,f,7,0.7,-73.41037345,1.19795288
5ff865647dfb4303dc56d786,7,0,2024-02-28T15:01:38.555Z,english_914.wav,0,pill,506,28,4,5,Français,f,8,0.8,-99.30720203,1.39899474
5ff865647dfb4303dc56d786,7,0,2024-02-28T15:01:38.555Z,english_914.wav,0,pill,506,28,4,5,Français,f,9,0.9,81.02685233,0.56128817
5ff865647dfb4303dc56d786,7,0,2024-02-28T15:01:38.555Z,english_914.wav,0,pill,506,28,4,5,Français,f,10,1.0,-61.71265148,1.38071697
5ff865647dfb4303dc56d786,7,0,2024-02-28T15:01:38.555Z,english_914.wav,0,pill,506,28,4,5,Français,f,11,1.09391667,-35.17076378,1.53641314
5ff865647dfb4303dc56d786,8,0,2024-02-28T15:01:38.555Z,english_748.wav,0,pill,738,28,4,5,Français,f,0,0.0,-33.83596368,1.91287282
5ff865647dfb4303dc56d786,8,0,2024-02-28T15:01:38.555Z,english_748.wav,0,pill,738,28,4,5,Français,f,1,0.1,-59.15381013,1.28041444
5ff865647dfb4303dc56d786,8,0,2024-02-28T15:01:38.555Z,english_748.wav,0,pill,738,28,4,5,Français,f,2,0.2,-64.86299243,0.04095899
5ff865647dfb4303dc56d786,8,0,2024-02-28T15:01:38.555Z,english_748.wav,0,pill,738,28,4,5,Français,f,3,0.3,-73.6430977,0.41914446
5ff865647dfb4303dc56d786,8,0,2024-02-28T15:01:38.555Z,english_748.wav,0,pill,738,28,4,5,Français,f,4,0.4,-91.05214173,1.08223978
5ff865647dfb4303dc56d786,8,0,2024-02-28T15:01:38.555Z,english_748.wav,0,pill,738,28,4,5,Français,f,5,0.5,-45.40797518,0.2529754
5ff865647dfb4303dc56d786,8,0,2024-02-28T15:01:38.555Z,english_748.wav,0,pill,738,28,4,5,Français,f,6,0.6,13.66964743,1.11197698
5ff865647dfb4303dc56d786,8,0,2024-02-28T15:01:38.555Z,english_748.wav,0,pill,738,28,4,5,Français,f,7,0.7,95.37065991,0.98751557
5ff865647dfb4303dc56d786,8,0,2024-02-28T15:01:38.555Z,english_748.wav,0,pill,738,28,4,5,Français,f,8,0.8,26.41264332,0.20616642
5ff865647dfb4303dc56d786,8,0,2024-02-28T15:01:38.555Z,english_748.wav,0,pill,738,28,4,5,Français,f,9,0.9,48.24832417,0.07234113
5ff865647dfb4303dc56d786,8,0,2024-02-28T15:01:38.555Z,english_748.wav,0,pill,738,28,4,5,Français,f,10,1.0,52.4867675,0.75683712
5ff865647dfb4303dc56d786,8,0,2024-02-28T15:01:38.555Z,english_748.wav,0,pill,738,28,4,5,Français,f,11,1.09391667,-11.31996214,0.73246581
5ff865647dfb4303dc56d786,9,0,2024-02-28T15:01:38.555Z,english_808.wav,0,pill,1409,28,4,5,Français,f,0,0.0,-54.51930087,0.8777304
5ff865647dfb4303dc56d786,9,0,2024-02-28T15:01:38.555Z,english_808.wav,0,pill,1409,28,4,5,Français,f,1,0.1,-81.0495762,1.15782472
5ff865647dfb4303dc56d786,9,0,2024-02-28T15:01:38.555Z,english_808.wav,0,pill,1409,28,4,5,Français,f,2,0.2,4.70470679,1.67617188
5ff865647dfb4303dc56d786,9,0,2024-02-28T15:01:38.555Z,english_808.wav,0,pill,1409,28,4,5,Français,f,3,0.3,56.77475896,0.46785173
5ff865647dfb4303dc56d786,9,0,2024-02-28T15:01:38.555Z,english_808.wav,0,pill,1409,28,4,5,Français,f,4,0.4,-45.19313698,1.34598798
5ff865647dfb4303dc56d786,9,0,2024-02-28T15:01:38.555Z,english_808.wav,0,pill,1409,28,4,5,Français,f,5,0.5,-12.85220206,1.21107636
5ff865647dfb4303dc56d786,9,0,2024-02-28T15:01:38.555Z,english_808.wav,0,pill,1409,28,4,5,Français,f,6,0.6,-3.64494866,0.33957231
5ff865647dfb4303dc56d786,9,0,2024-02-28T15:01:38.555Z,english_808.wav,0,pill,1409,28,4,5,Français,f,7,0.7,-54.59560116,1.78675234
5ff865647dfb4303dc56d786,9,0,2024-02-28T15:01:38.555Z,english_808.wav,0,pill,1409,28,4,5,Français,f,8,0.8,62.80587621,0.41874976
5ff865647dfb4303dc56d786,9,0,2024-02-28T15:01:38.555Z,english_808.wav,0,pill,1409,28,4,5,Français,f,9,0.9,41.76195467,0.58154764
5ff865647dfb4303dc56d786,9,0,2024-02-28T15:01:38.555Z,english_808.wav,0,pill,1409,28,4,5,Français,f,10,1.0,59.57414533,1.87307122
5ff865647dfb4303dc56d786,9,0,2024-02-28T15:01:38.555Z,english_808.wav,0,pill,1409,28,4,5,Français,f,11,1.09391667,-81.82049826,0.91565949
5ff865647dfb4303dc56d786,10,0,2024-02-28T15:01:38.555Z,english_668.wav,0,pill,354,28,4,5,Français,f,0,0.0,24.30500843,1.5693483
5ff865647dfb4303dc56d786,10,0,2024-02-28T15:01:38.555Z,english_668.wav,0,pill,354,28,4,5,Français,f,1,0.1,57.57377678,1.68368473
5ff865647dfb4303dc56d786,10,0,2024-02-28T15:01:38.555Z,english_668.wav,0,pill,354,28,4,5,Français,f,2,0.2,-95.42785245,0.73781789
5ff865647dfb4303dc56d786,10,0,2024-02-28T15:01:38.555Z,english_668.wav,0,pill,354,28,4,5,Français,f,3,0.3,-42.97336145,0.35418693
5ff865647dfb4303dc56d786,10,0,2024-02-28T15:01:38.555Z,english_668.wav,0,pill,354,28,4,5,Français,f,4,0.4,-27.66393175,0.0078487
5ff865647dfb4303dc56d786,10,0,2024-02-28T15:01:38.555Z,english_668.wav,0,pill,354,28,4,5,Français,f,5,0.5,77.20765179,1.54548252
5ff865647dfb4303dc56d786,10,0,2024-02-28T15:01:38.555Z,english_668.wav,0,pill,354,28,4,5,Français,f,6,0.6,83.13326456,1.19620748
5ff865647dfb4303dc56d786,10,0,2024-02-28T15:01:38.555Z,english_668.wav,0,pill,354,28,4,5,Français,f,7,0.7,-32.13348901,1.89254879
5ff865647dfb4303dc56d786,10,0,2024-02-28T15:01:38.555Z,english_668.wav,0,pill,354,28,4,5,Français,f,8,0.8,68.31202494,0.72669061
5ff865647dfb4303dc56d786,10,0,2024-02-28T15:01:38.555Z,english_668.wav,0,pill,354,28,4,5,Français,f,9,0.9,19.90764766,1.22099256
5ff865647dfb4303dc56d786,10,0,2024-02-28T15:01:38.555Z,english_668.wav,0,pill,354,28,4,5,Français,f,10,1.0,67.85742397,1.73789428
5ff865647dfb4303dc56d786,10,0,2024-02-28T15:01:38.555Z,english_668.wav,0,pill,354,28,4,5,Français,f,11,1.09391667,89.08528759,1.66641406
5ff865647dfb4303dc56d786,11,0,2024-02-28T15:01:38.555Z,english_769.wav,0,peel,619,28,4,5,Français,f,0,0.0,-5.59008464,1.9459955
5ff865647dfb4303dc56d786,11,0,2024-02-28T15:01:38.555Z,english_769.wav,0,peel,619,28,4,5,Français,f,1,0.1,23.87135474,1.03760396
5ff865647dfb4303dc56d786,11,0,2024-02-28T15:01:38.555Z,english_769.wav,0,peel,619,28,4,5,Français,f,2,0.2,-59.27059617,0.52841708
5ff865647dfb4303dc56d786,11,0,2024-02-28T15:01:38.555Z,english_769.wav,0,peel,619,28,4,5,Français,f,3,0.3,-3.79644123,1.18808585
5ff865647dfb4303dc56d786,11,0,2024-02-28T15:01:38.555Z,english_769.wav,0,peel,619,28,4,5,Français,f,4,0.4,-24.49258802,1.53084487
5ff865647dfb4303dc56d786,11,0,2024-02-28T15:01:38.555Z,english_769.wav,0,peel,619,28,4,5,Français,f,5,0.5,-9.70740252,1.19743676
5ff865647dfb4303dc56d786,11,0,2024-02-28T15:01:38.555Z,english_769.wav,0,peel,619,28,4,5,Français,f,6,0.6,93.2382904,1.07802649
5ff865647dfb4303dc56d786,11,0,2024-02-28T15:01:38.555Z,english_769.wav,0,peel,619,28,4,5,Français,f,7,0.7,-80.61523432,1.54041051
5ff865647dfb4303dc56d786,11,0,2024-02-28T15:01:38.555Z,english_769.wav,0,peel,619,28,4,5,Français,f,8,0.8,-68.01598802,0.02132601
5ff865647dfb4303dc56d786,11,0,2024-02-28T15:01:38.555Z,english_769.wav,0,peel,619,28,4,5,Français,f,9,0.9,62.98223399,1.71898352
5ff865647dfb4303dc56d786,11,0,2024-02-28T15:01:38.555Z,english_769.wav,0,peel,619,28,4,5,Français,f,10,1.0,-20.64225602,1.35496449
5ff865647dfb4303dc56d786,11,0,2024-02-28T15:01:38.555Z,english_769.wav,0,peel,619,28,4,5,Français,f,11,1.09391667,-61.6915353,1.18680032
5ff865647dfb4303dc56d786,12,0,2024-02-28T15:01:38.555Z,english_195.wav,0,pill,1860,28,4,5,Français,f,0,0.0,-84.31811629,1.00245815
5ff865647dfb4303dc56d786,12,0,2024-02-28T15:01:38.555Z,english_195.wav,0,pill,1860,28,4,5,Français,f,1,0.1,-40.4937686,0.37362225
5ff865647dfb4303dc56d786,12,0,2024-02-28T15:01:38.555Z,english_195.wav,0,pill,1860,28,4,5,Français,f,2,0.2,43.37920818,1.2771314
5ff865647dfb4303dc56d786,12,0,2024-02-28T15:01:38.555Z,english_195.wav,0,pill,1860,28,4,5,Français,f,3,0.3,89.86748729,0.32946516
5ff865647dfb4303dc56d786,12,0,2024-02-28T15:01:38.555Z,english_195.wav,0,pill,1860,28,4,5,Français,f,4,0.4,24.49320863,1.39441943
5ff865647dfb4303dc56d786,12,0,2024-02-28T15:01:38.555Z,english_195.wav,0,pill,1860,28,4,5,Français,f,5,0.5,-46.40835892,1.30540336
5ff865647dfb4303dc56d786,12,0,2024-02-28T15:01:38.555Z,english_195.wav,0,pill,1860,28,4,5,Français,f,6,0.6,35.9505397,0.00236394
5ff865647dfb4303dc56d786,12,0,2024-02-28T15:01:38.555Z,english_195.wav,0,pill,1860,28,4,5,Français,f,7,0.7,62.43082011,1.39191992
5ff865647dfb4303dc56d786,12,0,2024-02-28T15:01:38.555Z,english_195.wav,0,pill,1860,28,4,5,Français,f,8,0.8,85.56276985,0.22399256
5ff865647dfb4303dc56d786,12,0,2024-02-28T15:01:38.555Z,english_195.wav,0,pill,1860,28,4,5,Français,f,9,0.9,52.49119502,0.98445346
5ff865647dfb4303dc56d786,12,0,2024-02-28T15:01:38.555Z,english_195.wav,0,pill,1860,28,4,5,Français,f,10,1.0,-55.346187,1.43930771
5ff865647dfb4303dc56d786,12,0,2024-02-28T15:01:38.555Z,english_195.wav,0,pill,1860,28,4,5,Français,f,11,1.09391667,-71.70758722,1.96006647
5ff865647dfb4303dc56d786,13,0,2024-02-28T15:01:38.555Z,english_651.wav,0,peel,2256,28,4,5,Français,f,0,0.0,-91.34539462,1.93962683
5ff865647dfb4303dc56d786,13,0,2024-02-28T15:01:38.555Z,english_651.wav,0,peel,2256,28,4,5,Français,f,1,0.1,-1.38504973,0.25281252
5ff865647dfb4303dc56d786,13,0,2024-02-28T15:01:38.555Z,english_651.wav,0,peel,2256,28,4,5,Français,f,2,0.2,2.05125073,0.90917451
5ff865647dfb4303dc56d786,13,0,2024-02-28T15:01:38.555Z,english_651.wav,0,peel,2256,28,4,5,Français,f,3,0.3,-5.20837211,0.6157456
5ff865647dfb4303dc56d786,13,0,2024-02-28T15:01:38.555Z,english_651.wav,0,peel,2256,28,4,5,Français,f,4,0.4,30.89438942,0.48487698
5ff865647dfb4303dc56d786,13,0,2024-02-28T15:01:38.555Z,english_651.wav,0,peel,2256,28,4,5,Français,f,5,0.5,-28.36589971,1.14423933
5ff865647dfb4303dc56d786,13,0,2024-02-28T15:01:38.555Z,english_651.wav,0,peel,2256,28,4,5,Français,f,6,0.6,-42.97374851,0.91557091
5ff865647dfb4303dc56d786,13,0,2024-02-28T15:01:38.555Z,english_651.wav,0,peel,2256,28,4,5,Français,f,7,0.7,-56.55365324,1.50856564
5ff865647dfb4303dc56d786,13,0,2024-02-28T15:01:38.555Z,english_651.wav,0,peel,2256,28,4,5,Français,f,8,0.8,3.73861638,0.47177544
5ff865647dfb4303dc56d786,13,0,2024-02-28T15:01:38.555Z,english_651.wav,0,peel,2256,28,4,5,Français,f,9,0.9,-2.43332653,0.09479279
5ff865647dfb4303dc56d786,13,0,2024-02-28T15:01:38.555Z,english_651.wav,0,peel,2256,28,4,5,Français,f,10,1.0,-73.16332477,0.24018528
5ff865647dfb4303dc56d786,13,0,2024-02-28T15:01:38.555Z,english_651.wav,0,peel,2256,28,4,5,Français,f,11,1.09391667,61.30377091,0.24667973
5ff865647dfb4303dc56d786,14,0,2024-02-28T15:01:38.555Z,english_61.wav,0,pill,579,28,4,5,Français,f,0,0.0,-76.31366774,1.15675845
5ff865647dfb4303dc56d786,14,0,2024-02-28T15:01:38.555Z,english_61.wav,0,pill,579,28,4,5,Français,f,1,0.1,-70.32577527,0.79511083
5ff865647dfb4303dc56d786,14,0,2024-02-28T15:01:38.555Z,english_61.wav,0,pill,579,28,4,5,Français,f,2,0.2,5.13466316,0.40451227
5ff865647dfb4303dc56d786,14,0,2024-02-28T15:01:38.555Z,english_61.wav,0,pill,579,28,4,5,Français,f,3,0.3,37.00830294,0.79487484
5ff865647dfb4303dc56d786,14,0,2024-02-28T15:01:38.555Z,english_61.wav,0,pill,579,28,4,5,Français,f,4,0.4,-11.73068973,0.44483697
5ff865647dfb4303dc56d786,14,0,2024-02-28T15:01:38.555Z,english_61.wav,0,pill,579,28,4,5,Français,f,5,0.5,91.45109603,0.84603206
5ff865647dfb4303dc56d786,14,0,2024-02-28T15:01:38.555Z,english_61.wav,0,pill,579,28,4,5,Français,f,6,0.6,11.9601718,0.8090615
5ff865647dfb4303dc56d786,14,0,2024-02-28T15:01:38.555Z,english_61.wav,0,pill,579,28,4,5,Français,f,7,0.7,-66.7573243,1.09438885
5ff865647dfb4303dc56d786,14,0,2024-02-28T15:01:38.555Z,english_61.wav,0,pill,579,28,4,5,Français,f,8,0.8,78.73702917,1.14041124
5ff865647dfb4303dc56d786,14,0,2024-02-28T15:01:38.555Z,english_61.wav,0,pill,579,28,4,5,Français,f,9,0.9,61.80688515,0.39248564
5ff865647dfb4303dc56d786,14,0,2024-02-28T15:01:38.555Z,english_61.wav,0,pill,579,28,4,5,Français,f,10,1.0,-73.85845523,1.77720472
5ff865647dfb4303dc56d786,14,0,2024-02-28T15:01:38.555Z,english_61.wav,0,pill,579,28,4,5,Français,f,11,1.09391667,-24.76259921,1.29259789
5ff865647dfb4303dc56d786,15,0,2024-02-28T15:01:38.555Z,english_154.wav,0,pill,1271,28,4,5,Français,f,0,0.0,50.07590523,1.91490825
5ff865647dfb4303dc56d786,15,0,2024-02-28T15:01:38.555Z,english_154.wav,0,pill,1271,28,4,5,Français,f,1,0.1,54.36539589,1.49511577
5ff865647dfb4303dc56d786,15,0,2024-02-28T15:01:38.555Z,english_154.wav,0,pill,1271,28,4,5,Français,f,2,0.2,-33.00647988,0.88521845
5ff865647dfb4303dc56d786,15,0,2024-02-28T15:01:38.555Z,english_154.wav,0,pill,1271,28,4,5,Français,f,3,0.3,-21.71222975,1.92896632
5ff865647dfb4303dc56d786,15,0,2024-02-28T15:01:38.555Z,english_154.wav,0,pill,1271,28,4,5,Français,f,4,0.4,-59.72627018,1.65018162
5ff865647dfb4303dc56d786,15,0,2024-02-28T15:01:38.555Z,english_154.wav,0,pill,1271,28,4,5,Français,f,5,0.5,-65.27928089,0.16844772
5ff865647dfb4303dc56d786,15,0,2024-02-28T15:01:38.555Z,english_154.wav,0,pill,1271,28,4,5,Français,f,6,0.6,25.37742378,1.26574184
5ff865647dfb4303dc56d786,15,0,2024-02-28T15:01:38.555Z,english_154.wav,0,pill,1271,28,4,5,Français,f,7,0.7,7.20174616,1.59894503
5ff865647dfb4303dc56d786,15,0,2024-02-28T15:01:38.555Z,english_154.wav,0,pill,1271,28,4,5,Français,f,8,0.8,-20.24283456,1.83170987
5ff865647dfb4303dc56d786,15,0,2024-02-28T15:01:38.555Z,english_154.wav,0,pill,1271,28,4,5,Français,f,9,0.9,-23.90559996,1.31030459
5ff865647dfb4303dc56d786,15,0,2024-02-28T15:01:38.555Z,english_154.wav,0,pill,1271,28,4,5,Français,f,10,1.0,71.61106984,0.51427228
5ff865647dfb4303dc56d786,15,0,2024-02-28T15:01:38.555Z,english_154.wav,0,pill,1271,28,4,5,Français,f,11,1.09391667,25.6022542,1.19971073
5ff865647dfb4303dc56d786,16,0,2024-02-28T15:01:38.555Z,english_503.wav,0,pill,2230,28,4,5,Français,f,0,0.0,82.81450313,0.83149822
5ff865647dfb4303dc56d786,16,0,2024-02-28T15:01:38.555Z,english_503.wav,0,pill,2230,28,4,5,Français,f,1,0.1,87.05662754,1.91463783
5ff865647dfb4303dc56d786,16,0,2024-02-28T15:01:38.555Z,english_503.wav,0,pill,2230,28,4,5,Français,f,2,0.2,42.99051807,0.15190796
5ff865647dfb4303dc56d786,16,0,2024-02-28T15:01:38.555Z,english_503.wav,0,pill,2230,28,4,5,Français,f,3,0.3,23.32883613,1.60754129
5ff865647dfb4303dc56d786,16,0,2024-02-28T15:01:38.555Z,english_503.wav,0,pill,2230,28,4,5,Français,f,4,0.4,48.50951883,0.81229928
5ff865647dfb4303dc56d786,16,0,2024-02-28T15:01:38.555Z,english_503.wav,0,pill,2230,28,4,5,Français,f,5,0.5,-47.47339199,1.3748652
5ff865647dfb4303dc56d786,16,0,2024-02-28T15:01:38.555Z,english_503.wav,0,pill,2230,28,4,5,Français,f,6,0.6,-9.99119765,1.71927888
5ff865647dfb4303dc56d786,16,0,2024-02-28T15:01:38.555Z,english_503.wav,0,pill,2230,28,4,5,Français,f,7,0.7,68.86997334,0.8455295
5ff865647dfb4303dc56d786,16,0,2024-02-28T15:01:38.555Z,english_503.wav,0,pill,2230,28,4,5,Français,f,8,0.8,-44.22385081,0.49975448
5ff865647dfb4303dc56d786,16,0,2024-02-28T15:01:38.555Z,english_503.wav,0,pill,2230,28,4,5,Français,f,9,0.9,14.75546466,0.2402037
5ff865647dfb4303dc56d786,16,0,2024-02-28T15:01:38.555Z,english_503.wav,0,pill,2230,28,4,5,Français,f,10,1.0,-47.31135976,1.02101903
5ff865647dfb4303dc56d786,16,0,2024-02-28T15:01:38.555Z,english_503.wav,0,pill,2230,28,4,5,Français,f,11,1.09391667,-18.86254353,1.59376689
5ff865647dfb4303dc56d786,17,0,2024-02-28T15:01:38.555Z,english_583.wav,0,pill,1185,28,4,5,Français,f,0,0.0,-89.46926799,1.93205848
5ff865647dfb4303dc56d786,17,0,2024-02-28T15:01:38.555Z,english_583.wav,0,pill,1185,28,4,5,Français,f,1,0.1,-21.95760647,0.52539253
5ff865647dfb4303dc56d786,17,0,2024-02-28T15:01:38.555Z,english_583.wav,0,pill,1185,28,4,5,Français,f,2,0.2,51.54638902,0.25359823
5ff865647dfb4303dc56d786,17,0,2024-02-28T15:01:38.555Z,english_583.wav,0,pill,1185,28,4,5,Français,f,3,0.3,-19.59460838,0.46642282
5ff865647dfb4303dc56d786,17,0,2024-02-28T15:01:38.555Z,english_583.wav,0,pill,1185,28,4,5,Français,f,4,0.4,-80.65157181,0.25879931
5ff865647dfb4303dc56d786,17,0,2024-02-28T15:01:38.555Z,english_583.wav,0,pill,1185,28,4,5,Français,f,5,0.5,13.46564549,0.54774352
5ff865647dfb4303dc56d786,17,0,2024-02-28T15:01:38.555Z,english_583.wav,0,pill,1185,28,4,5,Français,f,6,0.6,-1.99224774,1.89783447
5ff865647dfb4303dc56d786,17,0,2024-02-28T15:01:38.555Z,english_583.wav,0,pill,1185,28,4,5,Français,f,7,0.7,96.26030273,0.46572744
5ff865647dfb4303dc56d786,17,0,2024-02-28T15:01:38.555Z,english_583.wav,0,pill,1185,28,4,5,Français,f,8,0.8,-75.70856073,0.69184565
5ff865647dfb4303dc56d786,17,0,2024-02-28T15:01:38.555Z,english_583.wav,0,pill,1185,28,4,5,Français,f,9,0.9,40.78035579,1.20488206
5ff865647dfb4303dc56d786,17,0,2024-02-28T15:01:38.555Z,english_583.wav,0,pill,1185,28,4,5,Français,f,10,1.0,3.65984432,1.22997803
5ff865647dfb4303dc56d786,17,0,2024-02-28T15:01:38.555Z,english_583.wav,0,pill,1185,28,4,5,Français,f,11,1.09391667,-26.98513255,1.99403249
5ff865647dfb4303dc56d786,18,0,2024-02-28T15:01:38.555Z,english_379.wav,0,peel,2781,28,4,5,Français,f,0,0.0,49.53215273,0.78528704
5ff865647dfb4303dc56d786,18,0,2024-02-28T15:01:38.555Z,english_379.wav,0,peel,2781,28,4,5,Français,f,1,0.1,9.27522888,1.81748923
5ff865647dfb4303dc56d786,18,0,2024-02-28T15:01:38.555Z,english_379.wav,0,peel,2781,28,4,5,Français,f,2,0.2,37.03122757,0.92030015
5ff865647dfb4303dc56d786,18,0,2024-02-28T15:01:38.555Z,english_379.wav,0,peel,2781,28,4,5,Français,f,3,0.3,99.63155139,1.45290857
5ff865647dfb4303dc56d786,18,0,2024-02-28T15:01:38.555Z,english_379.wav,0,peel,2781,28,4,5,Français,f,4,0.4,33.35011574,1.06621496
5ff865647dfb4303dc56d786,18,0,2024-02-28T15:01:38.555Z,english_379.wav,0,peel,2781,28,4,5,Français,f,5,0.5,-7.70874078,1.14308429
5ff865647dfb4303dc56d786,18,0,2024-02-28T15:01:38.555Z,english_379.wav,0,peel,2781,28,4,5,Français,f,6,0.6,46.33326353,0.43706451
5ff865647dfb4303dc56d786,18,0,2024-02-28T15:01:38.555Z,english_379.wav,0,peel,2781,28,4,5,Français,f,7,0.7,41.12969148,0.56663738
5ff865647dfb4303dc56d786,18,0,2024-02-28T15:01:38.555Z,english_379.wav,0,peel,2781,28,4,5,Français,f,8,0.8,-55.78540597,1.37256697
5ff865647dfb4303dc56d786,18,0,2024-02-28T15:01:38.555Z,english_379.wav,0,peel,2781,28,4,5,Français,f,9,0.9,-84.4527127,0.4510475
5ff865647dfb4303dc56d786,18,0,2024-02-28T15:01:38.555Z,english_379.wav,0,peel,2781,28,4,5,Français,f,10,1.0,13.84600332,1.31801048
5ff865647dfb4303dc56d786,18,0,2024-02-28T15:01:38.555Z,english_379.wav,0,peel,2781,28,4,5,Français,f,11,1.09391667,82.55643163,0.64535043
5ff865647dfb4303dc56d786,19,0,2024-02-28T15:01:38.555Z,english_407.wav,0,peel,634,28,4,5,Français,f,0,0.0,-24.60693705,0.46722995
5ff865647dfb4303dc56d786,19,0,2024-02-28T15:01:38.555Z,english_407.wav,0,peel,634,28,4,5,Français,f,1,0.1,-18.03262929,1.67527194
5ff865647dfb4303dc56d786,19,0,2024-02-28T15:01:38.555Z,english_407.wav,0,peel,634,28,4,5,Français,f,2,0.2,78.43262301,0.46653722
5ff865647dfb4303dc56d786,19,0,2024-02-28T15:01:38.555Z,english_407.wav,0,peel,634,28,4,5,Français,f,3,0.3,-68.3918043,0.93598541
5ff865647dfb4303dc56d786,19,0,2024-02-28T15:01:38.555Z,english_407.wav,0,peel,634,28,4,5,Français,f,4,0.4,-80.30955939,1.16461279
5ff865647dfb4303dc56d786,19,0,2024-02-28T15:01:38.555Z,english_407.wav,0,peel,634,28,4,5,Français,f,5,0.5,85.23652971,0.21312226
5ff865647dfb4303dc56d786,19,0,2024-02-28T15:01:38.555Z,english_407.wav,0,peel,634,28,4,5,Français,f,6,0.6,-34.75897275,0.26523352
5ff865647dfb4303dc56d786,19,0,2024-02-28T15:01:38.555Z,english_407.wav,0,peel,634,28,4,5,Français,f,7,0.7,-13.65493451,0.26712079
5ff865647dfb4303dc56d786,19,0,2024-02-28T15:01:38.555Z,english_407.wav,0,peel,634,28,4,5,Français,f,8,0.8,18.27954458,0.66430326
5ff865647dfb4303dc56d786,19,0,2024-02-28T15:01:38.555Z,english_407.wav,0,peel,634,28,4,5,Français,f,9,0.9,-61.83588329,0.96548424
5ff865647dfb4303dc56d786,19,0,2024-02-28T15:01:38.555Z,english_407.wav,0,peel,634,28,4,5,Français,f,10,1.0,1.46934054,0.70653645
5ff865647dfb4303dc56d786,19,0,2024-02-28T15:01:38.555Z,english_407.wav,0,peel,634,28,4,5,Français,f,11,1.09391667,21.65066183,1.4905418
5ff865647dfb4303dc56d786,20,0,2024-02-28T15:01:38.555Z,english_968.wav,0,peel,1879,28,4,5,Français,f,0,0.0,-60.17022597,0.06507059
5ff865647dfb4303dc56d786,20,0,2024-02-28T15:01:38.555Z,english_968.wav,0,peel,1879,28,4,5,Français,f,1,0.1,2.97803036,0.31588679
5ff865647dfb4303dc56d786,20,0,2024-02-28T15:01:38.555Z,english_968.wav,0,peel,1879,28,4,5,Français,f,2,0.2,-20.37779246,1.0629249
5ff865647dfb4303dc56d786,20,0,2024-02-28T15:01:38.555Z,english_968.wav,0,peel,1879,28,4,5,Français,f,3,0.3,82.14777176,1.23312584
5ff865647dfb4303dc56d786,20,0,2024-02-28T15:01:38.555Z,english_968.wav,0,peel,1879,28,4,5,Français,f,4,0.4,-5.56087833,1.08782287
5ff865647dfb4303dc56d786,20,0,2024-02-28T15:01:38.555Z,english_968.wav,0,peel,1879,28,4,5,Français,f,5,0.5,-35.42121974,1.76874616
5ff865647dfb4303dc56d786,20,0,2024-02-28T15:01:38.555Z,english_968.wav,0,peel,1879,28,4,5,Français,f,6,0.6,6.34490383,1.63852156
5ff865647dfb4303dc56d786,20,0,2024-02-28T15:01:38.555Z,english_968.wav,0,peel,1879,28,4,5,Français,f,7,0.7,37.90454217,0.46920885
5ff865647dfb4303dc56d786,20,0,2024-02-28T15:01:38.555Z,english_968.wav,0,peel,1879,28,4,5,Français,f,8,0.8,-12.88660641,0.63401231
5ff865647dfb4303dc56d786,20,0,2024-02-28T15:01:38.555Z,english_968.wav,0,peel,1879,28,4,5,Français,f,9,0.9,27.25418082,0.6661749
5ff865647dfb4303dc56d786,20,0,2024-02-28T15:01:38.555Z,english_968.wav,0,peel,1879,28,4,5,Français,f,10,1.0,-65.60721299,0.97214272
5ff865647dfb4303dc56d786,20,0,2024-02-28T15:01:38.555Z,english_968.wav,0,peel,1879,28,4,5,Français,f,11,1.09391667,-45.14164788,1.26320592
5ff865647dfb4303dc56d786,21,0,2024-02-28T15:01:38.555Z,english_399.wav,0,pill,2866,28,4,5,Français,f,0,0.0,7.35119233,1.43512774
5ff865647dfb4303dc56d786,21,0,2024-02-28T15:01:38.555Z,english_399.wav,0,pill,2866,28,4,5,Français,f,1,0.1,7.30105906,1.7056904
5ff865647dfb4303dc56d786,21,0,2024-02-28T15:01:38.555Z,english_399.wav,0,pill,2866,28,4,5,Français,f,2,0.2,-55.03587691,1.60882656
5ff865647dfb4303dc56d786,21,0,2024-02-28T15:01:38.555Z,english_399.wav,0,pill,2866,28,4,5,Français,f,3,0.3,63.9361431,1.57397844
5ff865647dfb4303dc56d786,21,0,2024-02-28T15:01:38.555Z,english_399.wav,0,pill,2866,28,4,5,Français,f,4,0.4,44.6049307,0.93377042
5ff865647dfb4303dc56d786,21,0,2024-02-28T15:01:38.555Z,english_399.wav,0,pill,2866,28,4,5,Français,f,5,0.5,68.42668929,1.9481779
5ff865647dfb4303dc56d786,21,0,2024-02-28T15:01:38.555Z,english_399.wav,0,pill,2866,28,4,5,Français,f,6,0.6,54.53895784,1.40688071
5ff865647dfb4303dc56d786,21,0,2024-02-28T15:01:38.555Z,english_399.wav,0,pill,2866,28,4,5,Français,f,7,0.7,87.63954028,0.69376281
5ff865647dfb4303dc56d786,21,0,2024-02-28T15:01:38.555Z,english_399.wav,0,pill,2866,28,4,5,Français,f,8,0.8,-0.41432999,1.28838791
5ff865647dfb4303dc56d786,21,0,2024-02-28T15:01:38.555Z,english_399.wav,0,pill,2866,28,4,5,Français,f,9,0.9,24.60615905,0.52758228
5ff865647dfb4303dc56d786,21,0,2024-02-28T15:01:38.555Z,english_399.wav,0,pill,2866,28,4,5,Français,f,10,1.0,-97.67130798,0.96519431
5ff865647dfb4303dc56d786,21,0,2024-02-28T15:01:38.555Z,english_399.wav,0,pill,2866,28,4,5,Français,f,11,1.09391667,61.44027276,1.05566464
5ff865647dfb4303dc56d786,22,0,2024-02-28T15:01:38.555Z,english_179.wav,0,pill,3094,28,4,5,Français,f,0,0.0,-33.4332198,0.62790478
5ff865647dfb4303dc56d786,22,0,2024-02-28T15:01:38.555Z,english_179.wav,0,pill,3094,28,4,5,Français,f,1,0.1,-18.78825339,1.4036751
5ff865647dfb4303dc56d786,22,0,2024-02-28T15:01:38.555Z,english_179.wav,0,pill,3094,28,4,5,Français,f,2,0.2,20.20417282,0.86896148
5ff865647dfb4303dc56d786,22,0,2024-02-28T15:01:38.555Z,english_179.wav,0,pill,3094,28,4,5,Français,f,3,0.3,-7.9077668,1.06787362
5ff865647dfb4303dc56d786,22,0,2024-02-28T15:01:38.555Z,english_179.wav,0,pill,3094,28,4,5,Français,f,4,0.4,36.31992416,1.90188001
5ff865647dfb4303dc56d786,22,0,2024-02-28T15:01:38.555Z,english_179.wav,0,pill,3094,28,4,5,Français,f,5,0.5,37.81237311,1.25658589
5ff865647dfb4303dc56d786,22,0,2024-02-28T15:01:38.555Z,english_179.wav,0,pill,3094,28,4,5,Français,f,6,0.6,32.61553446,1.46381777
5ff865647dfb4303dc56d786,22,0,2024-02-28T15:01:38.555Z,english_179.wav,0,pill,3094,28,4,5,Français,f,7,0.7,-19.47769131,1.6099544
5ff865647dfb4303dc56d786,22,0,2024-02-28T15:01:38.555Z,english_179.wav,0,pill,3094,28,4,5,Français,f,8,0.8,27.26473458,0.97421346
5ff865647dfb4303dc56d786,22,0,2024-02-28T15:01:38.555Z,english_179.wav,0,pill,3094,28,4,5,Français,f,9,0.9,-27.81368084,1.81429346
5ff865647dfb4303dc56d786,22,0,2024-02-28T15:01:38.555Z,english_179.wav,0,pill,3094,28,4,5,Français,f,10,1.0,-84.08642127,0.55055727
5ff865647dfb4303dc56d786,22,0,2024-02-28T15:01:38.555Z,english_179.wav,0,pill,3094,28,4,5,Français,f,11,1.09391667,-61.91167259,0.88239537
5ff865647dfb4303dc56d786,23,0,2024-02-28T15:01:38.555Z,english_767.wav,0,peel,507,28,4,5,Français,f,0,0.0,-51.82889882,0.85849805
5ff865647dfb4303dc56d786,23,0,2024-02-28T15:01:38.555Z,english_767.wav,0,peel,507,28,4,5,Français,f,1,0.1,51.01701548,0.56470658
5ff865647dfb4303dc56d786,23,0,2024-02-28T15:01:38.555Z,english_767.wav,0,peel,507,28,4,5,Français,f,2,0.2,-33.49871036,1.12840655
5ff865647dfb4303dc56d786,23,0,2024-02-28T15:01:38.555Z,english_767.wav,0,peel,507,28,4,5,Français,f,3,0.3,35.0661797,0.30358847
5ff865647dfb4303dc56d786,23,0,2024-02-28T15:01:38.555Z,english_767.wav,0,peel,507,28,4,5,Français,f,4,0.4,-66.76498728,1.98047846
5ff865647dfb4303dc56d786,23,0,2024-02-28T15:01:38.555Z,english_767.wav,0,peel,507,28,4,5,Français,f,5,0.5,-60.63649878,1.15215796
5ff865647dfb4303dc56d786,23,0,2024-02-28T15:01:38.555Z,english_767.wav,0,peel,507,28,4,5,Français,f,6,0.6,-66.50688625,0.97775859
5ff865647dfb4303dc56d786,23,0,2024-02-28T15:01:38.555Z,english_767.wav,0,peel,507,28,4,5,Français,f,7,0.7,-70.17128926,0.81197732
5ff865647dfb4303dc56d786,23,0,2024-02-28T15:01:38.555Z,english_767.wav,0,peel,507,28,4,5,Français,f,8,0.8,32.8869854,1.74118297
5ff865647dfb4303dc56d786,23,0,2024-02-28T15:01:38.555Z,english_767.wav,0,peel,507,28,4,5,Français,f,9,0.9,21.57035996,1.09937379
5ff865647dfb4303dc56d786,23,0,2024-02-28T15:01:38.555Z,english_767.wav,0,peel,507,28,4,5,Français,f,10,1.0,-36.26911366,1.31196256
5ff865647dfb4303dc56d786,23,0,2024-02-28T15:01:38.555Z,english_767.wav,0,peel,507,28,4,5,Français,f,11,1.09391667,-1.05523753,0.54391414
5ff865647dfb4303dc56d786,24,0,2024-02-28T15:01:38.555Z,english_463.wav,0,peel,854,28,4,5,Français,f,0,0.0,10.50801154,1.17811947
5ff865647dfb4303dc56d786,24,0,2024-02-28T15:01:38.555Z,english_463.wav,0,peel,854,28,4,5,Français,f,1,0.1,53.01075337,0.17767022
5ff865647dfb4303dc56d786,24,0,2024-02-28T15:01:38.555Z,english_463.wav,0,peel,854,28,4,5,Français,f,2,0.2,-45.92576003,0.48691175
5ff865647dfb4303dc56d786,24,0,2024-02-28T15:01:38.555Z,english_463.wav,0,peel,854,28,4,5,Français,f,3,0.3,19.52430908,0.61421231
5ff865647dfb4303dc56d786,24,0,2024-02-28T15:01:38.555Z,english_463.wav,0,peel,854,28,4,5,Français,f,4,0.4,-49.30728031,1.08242916
5ff865647dfb4303dc56d786,24,0,2024-02-28T15:01:38.555Z,english_463.wav,0,peel,854,28,4,5,Français,f,5,0.5,14.12996474,0.36464212
5ff865647dfb4303dc56d786,24,0,2024-02-28T15:01:38.555Z,english_463.wav,0,peel,854,28,4,5,Français,f,6,0.6,-38.56124135,1.11640778
5ff865647dfb4303dc56d786,24,0,2024-02-28T15:01:38.555Z,english_463.wav,0,peel,854,28,4,5,Français,f,7,0.7,60.51994471,0.46617429
5ff865647dfb4303dc56d786,24,0,2024-02-28T15:01:38.555Z,english_463.wav,0,peel,854,28,4,5,Français,f,8,0.8,-80.92150268,1.24207175
5ff865647dfb4303dc56d786,24,0,2024-02-28T15:01:38.555Z,english_463.wav,0,peel,854,28,4,5,Français,f,9,0.9,77.91302957,1.740718
5ff865647dfb4303dc56d786,24,0,2024-02-28T15:01:38.555Z,english_463.wav,0,peel,854,28,4,5,Français,f,10,1.0,-17.96219129,0.97634615
5ff865647dfb4303dc56d786,24,0,2024-02-28T15:01:38.555Z,english_463.wav,0,peel,854,28,4,5,Français,f,11,1.09391667,-4.0549477,0.84642764
5ff865647dfb4303dc56d786,25,0,2024-02-28T15:01:38.555Z,english_916.wav,0,peel,838,28,4,5,Français,f,0,0.0,-75.50139917,0.33116573
5ff865647dfb4303dc56d786,25,0,2024-02-28T15:01:38.555Z,english_916.wav,0,peel,838,28,4,5,Français,f,1,0.1,87.74693423,0.79085074
5ff865647dfb4303dc56d786,25,0,2024-02-28T15:01:38.555Z,english_916.wav,0,peel,838,28,4,5,Français,f,2,0.2,31.07453941,1.46577933
5ff865647dfb4303dc56d786,25,0,2024-02-28T15:01:38.555Z,english_916.wav,0,peel,838,28,4,5,Français,f,3,0.3,-54.74808786,0.46369868
5ff865647dfb4303dc56d786,25,0,2024-02-28T15:01:38.555Z,english_916.wav,0,peel,838,28,4,5,Français,f,4,0.4,22.76610273,1.13985244
5ff865647dfb4303dc56d786,25,0,2024-02-28T15:01:38.555Z,english_916.wav,0,peel,838,28,4,5,Français,f,5,0.5,11.00268218,0.7460079
5ff865647dfb4303dc56d786,25,0,2024-02-28T15:01:38.555Z,english_916.wav,0,peel,838,28,4,5,Français,f,6,0.6,51.91753819,0.81938326
5ff865647dfb4303dc56d786,25,0,2024-02-28T15:01:38.555Z,english_916.wav,0,peel,838,28,4,5,Français,f,7,0.7,14.6363884,1.36585166
5ff865647dfb4303dc56d786,25,0,2024-02-28T15:01:38.555Z,english_916.wav,0,peel,838,28,4,5,Français,f,8,0.8,81.83938772,0.74190137
5ff865647dfb4303dc56d786,25,0,2024-02-28T15:01:38.555Z,english_916.wav,0,peel,838,28,4,5,Français,f,9,0.9,-6.69300519,1.01772596
5ff865647dfb4303dc56d786,25,0,2024-02-28T15:01:38.555Z,english_916.wav,0,peel,838,28,4,5,Français,f,10,1.0,48.70423214,1.52043816
5ff865647dfb4303dc56d786,25,0,2024-02-28T15:01:38.555Z,english_916.wav,0,peel,838,28,4,5,Français,f,11,1.09391667,-75.62542255,1.80998289
5ff865647dfb4303dc56d786,26,0,2024-02-28T15:01:38.555Z,english_781.wav,0,pill,416,28,4,5,Français,f,0,0.0,13.49860993,0.0422445
5ff865647dfb4303dc56d786,26,0,2024-02-28T15:01:38.555Z,english_781.wav,0,pill,416,28,4,5,Français,f,1,0.1,78.16193023,0.76912714
5ff865647dfb4303dc56d786,26,0,2024-02-28T15:01:38.555Z,english_781.wav,0,pill,416,28,4,5,Français,f,2,0.2,43.40540276,1.16484067
5ff865647dfb4303dc56d786,26,0,2024-02-28T15:01:38.555Z,english_781.wav,0,pill,416,28,4,5,Français,f,3,0.3,44.39381188,0.51341231
5ff865647dfb4303dc56d786,26,0,2024-02-28T15:01:38.555Z,english_781.wav,0,pill,416,28,4,5,Français,f,4,0.4,1.19618008,0.61057315
5ff865647dfb4303dc56d786,26,0,2024-02-28T15:01:38.555Z,english_781.wav,0,pill,416,28,4,5,Français,f,5,0.5,97.39796145,1.22595164
5ff865647dfb4303dc56d786,26,0,2024-02-28T15:01:38.555Z,english_781.wav,0,pill,416,28,4,5,Français,f,6,0.6,-80.74515196,0.0959771
5ff865647dfb4303dc56d786,26,0,2024-02-28T15:01:38.555Z,english_781.wav,0,pill,416,28,4,5,Français,f,7,0.7,24.03355654,0.86869214
5ff865647dfb4303dc56d786,26,0,2024-02-28T15:01:38.555Z,english_781.wav,0,pill,416,28,4,5,Français,f,8,0.8,-69.35175607,1.17997392
5ff865647dfb4303dc56d786,26,0,2024-02-28T15:01:38.555Z,english_781.wav,0,pill,416,28,4,5,Français,f,9,0.9,69.20236756,1.93834455
5ff865647dfb4303dc56d786,26,0,2024-02-28T15:01:38.555Z,english_781.wav,0,pill,416,28,4,5,Français,f,10,1.0,35.51398516,0.60620459
5ff865647dfb4303dc56d786,26,0,2024-02-28T15:01:38.555Z,english_781.wav,0,pill,416,28,4,5,Français,f,11,1.09391667,-53.23346631,1.46133915
5ff865647dfb4303dc56d786,27,0,2024-02-28T15:01:38.555Z,english_840.wav,0,pill,570,28,4,5,Français,f,0,0.0,26.56026625,0.58802825
5ff865647dfb4303dc56d786,27,0,2024-02-28T15:01:38.555Z,english_840.wav,0,pill,570,28,4,5,Français,f,1,0.1,-45.76742425,0.34012551
5ff865647dfb4303dc56d786,27,0,2024-02-28T15:01:38.555Z,english_840.wav,0,pill,570,28,4,5,Français,f,2,0.2,58.26038182,1.59409568
5ff865647dfb4303dc56d786,27,0,2024-02-28T15:01:38.555Z,english_840.wav,0,pill,570,28,4,5,Français,f,3,0.3,-41.91368618,1.45145116
5ff865647dfb4303dc56d786,27,0,2024-02-28T15:01:38.555Z,english_840.wav,0,pill,570,28,4,5,Français,f,4,0.4,51.82879955,1.12346348
5ff865647dfb4303dc56d786,27,0,2024-02-28T15:01:38.555Z,english_840.wav,0,pill,570,28,4,5,Français,f,5,0.5,-58.1814991,0.72614378
5ff865647dfb4303dc56d786,27,0,2024-02-28T15:01:38.555Z,english_840.wav,0,pill,570,28,4,5,Français,f,6,0.6,-6.21480863,0.0561304
5ff865647dfb4303dc56d786,27,0,2024-02-28T15:01:38.555Z,english_840.wav,0,pill,570,28,4,5,Français,f,7,0.7,-38.35463557,1.05027211
5ff865647dfb4303dc56d786,27,0,2024-02-28T15:01:38.555Z,english_840.wav,0,pill,570,28,4,5,Français,f,8,0.8,62.53471627,0.63772174
5ff865647dfb4303dc56d786,27,0,2024-02-28T15:01:38.555Z,english_840.wav,0,pill,570,28,4,5,Français,f,9,0.9,-5.88618506,0.79180252
5ff865647dfb4303dc56d786,27,0,2024-02-28T15:01:38.555Z,english_840.wav,0,pill,570,28,4,5,Français,f,10,1.0,-22.96620486,0.08952915
5ff865647dfb4303dc56d786,27,0,2024-02-28T15:01:38.555Z,english_840.wav,0,pill,570,28,4,5,Français,f,11,1.09391667,38.90401131,0.46969462
5ff865647dfb4303dc56d786,28,0,2024-02-28T15:01:38.555Z,english_942.wav,0,pill,327,28,4,5,Français,f,0,0.0,45.49166442,1.20258851
5ff865647dfb4303dc56d786,28,0,2024-02-28T15:01:38.555Z,english_942.wav,0,pill,327,28,4,5,Français,f,1,0.1,-2.30850056,0.03180812
5ff865647dfb4303dc56d786,28,0,2024-02-28T15:01:38.555Z,english_942.wav,0,pill,327,28,4,5,Français,f,2,0.2,43.64947202,1.4076024
5ff865647dfb4303dc56d786,28,0,2024-02-28T15:01:38.555Z,english_942.wav,0,pill,327,28,4,5,Français,f,3,0.3,-52.04143122,0.10204445
5ff865647dfb4303dc56d786,28,0,2024-02-28T15:01:38.555Z,english_942.wav,0,pill,327,28,4,5,Français,f,4,0.4,-8.91644013,1.90553817
5ff865647dfb4303dc56d786,28,0,2024-02-28T15:01:38.555Z,english_942.wav,0,pill,327,28,4,5,Français,f,5,0.5,-27.81632839,0.46641983
5ff865647dfb4303dc56d786,28,0,2024-02-28T15:01:38.555Z,english_942.wav,0,pill,327,28,4,5,Français,f,6,0.6,-9.72818952,0.6494667
5ff865647dfb4303dc56d786,28,0,2024-02-28T15:01:38.555Z,english_942.wav,0,pill,327,28,4,5,Français,f,7,0.7,95.1925327,0.71171086
5ff865647dfb4303dc56d786,28,0,2024-02-28T15:01:38.555Z,english_942.wav,0,pill,327,28,4,5,Français,f,8,0.8,72.04388461,0.45732561
5ff865647dfb4303dc56d786,28,0,2024-02-28T15:01:38.555Z,english_942.wav,0,pill,327,28,4,5,Français,f,9,0.9,23.33853222,1.18338442
5ff865647dfb4303dc56d786,28,0,2024-02-28T15:01:38.555Z,english_942.wav,0,pill,327,28,4,5,Français,f,10,1.0,59.86308522,1.65940409
5ff865647dfb4303dc56d786,28,0,2024-02-28T15:01:38.555Z,english_942.wav,0,pill,327,28,4,5,Français,f,11,1.09391667,13.07645506,1.80591064
5ff865647dfb4303dc56d786,29,0,2024-02-28T15:01:38.555Z,english_944.wav,0,pill,1015,28,4,5,Français,f,0,0.0,15.60693819,1.52023204
5ff865647dfb4303dc56d786,29,0,2024-02-28T15:01:38.555Z,english_944.wav,0,pill,1015,28,4,5,Français,f,1,0.1,-30.17366225,1.91331724
5ff865647dfb4303dc56d786,29,0,2024-02-28T15:01:38.555Z,english_944.wav,0,pill,1015,28,4,5,Français,f,2,0.2,-74.98996265,0.77968244
5ff865647dfb4303dc56d786,29,0,2024-02-28T15:01:38.555Z,english_944.wav,0,pill,1015,28,4,5,Français,f,3,0.3,-21.71143967,0.16568234
5ff865647dfb4303dc56d786,29,0,2024-02-28T15:01:38.555Z,english_944.wav,0,pill,1015,28,4,5,Français,f,4,0.4,-71.17152847,0.05371195
5ff865647dfb4303dc56d786,29,0,2024-02-28T15:01:38.555Z,english_944.wav,0,pill,1015,28,4,5,Français,f,5,0.5,-79.08347918,0.45619097
5ff865647dfb4303dc56d786,29,0,2024-02-28T15:01:38.555Z,english_944.wav,0,pill,1015,28,4,5,Français,f,6,0.6,30.00213426,0.51735739
5ff865647dfb4303dc56d786,29,0,2024-02-28T15:01:38.555Z,english_944.wav,0,pill,1015,28,4,5,Français,f,7,0.7,-95.66333823,1.56234264
5ff865647dfb4303dc56d786,29,0,2024-02-28T15:01:38.555Z,english_944.wav,0,pill,1015,28,4,5,Français,f,8,0.8,-86.13874985,1.61252587
5ff865647dfb4303dc56d786,29,0,2024-02-28T15:01:38.555Z,english_944.wav,0,pill,1015,28,4,5,Français,f,9,0.9,-92.76645644,0.66568015
5ff865647dfb4303dc56d786,29,0,2024-02-28T15:01:38.555Z,english_944.wav,0,pill,1015,28,4,5,Français,f,10,1.0,-60.06542453,1.71575711
5ff865647dfb4303dc56d786,29,0,2024-02-28T15:01:38.555Z,english_944.wav,0,pill,1015,28,4,5,Français,f,11,1.09391667,-49.67322896,1.10728615
5ff865647dfb4303dc56d786,30,0,2024-02-28T15:01:38.555Z,english_521.wav,0,peel,497,28,4,5,Français,f,0,0.0,5.37787975,1.11621025
5ff865647dfb4303dc56d786,30,0,2024-02-28T15:01:38.555Z,english_521.wav,0,peel,497,28,4,5,Français,f,1,0.1,9.32249591,0.69917502
5ff865647dfb4303dc56d786,30,0,2024-02-28T15:01:38.555Z,english_521.wav,0,peel,497,28,4,5,Français,f,2,0.2,4.19745407,0.1199413
5ff865647dfb4303dc56d786,30,0,2024-02-28T15:01:38.555Z,english_521.wav,0,peel,497,28,4,5,Français,f,3,0.3,-75.18613478,1.762579
5ff865647dfb4303dc56d786,30,0,2024-02-28T15:01:38.555Z,english_521.wav,0,peel,497,28,4,5,Français,f,4,0.4,87.02780947,1.43452798
5ff865647dfb4303dc56d786,30,0,2024-02-28T15:01:38.555Z,english_521.wav,0,peel,497,28,4,5,Français,f,5,0.5,-73.26225675,0.23094002
5ff865647dfb4303dc56d786,30,0,2024-02-28T15:01:38.555Z,english_521.wav,0,peel,497,28,4,5,Français,f,6,0.6,66.15406762,1.51181612
5ff865647dfb4303dc56d786,30,0,2024-02-28T15:01:38.555Z,english_521.wav,0,peel,497,28,4,5,Français,f,7,0.7,-9.80579818,1.4155143
5ff865647dfb4303dc56d786,30,0,2024-02-28T15:01:38.555Z,english_521.wav,0,peel,497,28,4,5,Français,f,8,0.8,17.20812603,1.82718341
5ff865647dfb4303dc56d786,30,0,2024-02-28T15:01:38.555Z,english_521.wav,0,peel,497,28,4,5,Français,f,9,0.9,21.88979452,1.93759588
5ff865647dfb4303dc56d786,30,0,2024-02-28T15:01:38.555Z,english_521.wav,0,peel,497,28,4,5,Français,f,10,1.0,-69.39969828,1.70606784
5ff865647dfb4303dc56d786,30,0,2024-02-28T15:01:38.555Z,english_521.wav,0,peel,497,28,4,5,Français,f,11,1.09391667,-64.03153918,0.09885652
5ff865647dfb4303dc56d786,31,0,2024-02-28T15:01:38.555Z,english_184.wav,0,pill,1407,28,4,5,Français,f,0,0.0,-74.14199581,0.56604578
5ff865647dfb4303dc56d786,31,0,2024-02-28T15:01:38.555Z,english_184.wav,0,pill,1407,28,4,5,Français,f,1,0.1,89.94537867,0.76750271
5ff865647dfb4303dc56d786,31,0,2024-02-28T15:01:38.555Z,english_184.wav,0,pill,1407,28,4,5,Français,f,2,0.2,-97.85495654,1.21496016
5ff865647dfb4303dc56d786,31,0,2024-02-28T15:01:38.555Z,english_184.wav,0,pill,1407,28,4,5,Français,f,3,0.3,32.1848514,1.29013374
5ff865647dfb4303dc56d786,31,0,2024-02-28T15:01:38.555Z,english_184.wav,0,pill,1407,28,4,5,Français,f,4,0.4,-18.16351382,0.9359149
5ff865647dfb4303dc56d786,31,0,2024-02-28T15:01:38.555Z,english_184.wav,0,pill,1407,28,4,5,Français,f,5,0.5,45.53126648,0.64815145
5ff865647dfb4303dc56d786,31,0,2024-02-28T15:01:38.555Z,english_184.wav,0,pill,1407,28,4,5,Français,f,6,0.6,-65.36095863,1.94413917
5ff865647dfb4303dc56d786,31,0,2024-02-28T15:01:38.555Z,english_184.wav,0,pill,1407,28,4,5,Français,f,7,0.7,-40.1441705,0.65249887
5ff865647dfb4303dc56d786,31,0,2024-02-28T15:01:38.555Z,english_184.wav,0,pill,1407,28,4,5,Français,f,8,0.8,67.58790179,1.32844944
5ff865647dfb4303dc56d786,31,0,2024-02-28T15:01:38.555Z,english_184.wav,0,pill,1407,28,4,5,Français,f,9,0.9,83.12820885,0.04188573
5ff865647dfb4303dc56d786,31,0,2024-02-28T15:01:38.555Z,english_184.wav,0,pill,1407,28,4,5,Français,f,10,1.0,51.68582171,1.11136781
5ff865647dfb4303dc56d786,31,0,2024-02-28T15:01:38.555Z,english_184.wav,0,pill,1407,28,4,5,Français,f,11,1.09391667,49.78372489,0.42919135
5ff865647dfb4303dc56d786,32,0,2024-02-28T15:01:38.555Z,english_83.wav,0,peel,844,28,4,5,Français,f,0,0.0,-13.2041621,1.43008508
5ff865647dfb4303dc56d786,32,0,2024-02-28T15:01:38.555Z,english_83.wav,0,peel,844,28,4,5,Français,f,1,0.1,72.11694132,0.66721453
5ff865647dfb4303dc56d786,32,0,2024-02-28T15:01:38.555Z,english_83.wav,0,peel,844,28,4,5,Français,f,2,0.2,72.29533823,0.92720226
5ff865647dfb4303dc56d786,32,0,2024-02-28T15:01:38.555Z,english_83.wav,0,peel,844,28,4,5,Français,f,3,0.3,27.12463377,1.5008618
5ff865647dfb4303dc56d786,32,0,2024-02-28T15:01:38.555Z,english_83.wav,0,peel,844,28,4,5,Français,f,4,0.4,-0.51668001,0.92612905
5ff865647dfb4303dc56d786,32,0,2024-02-28T15:01:38.555Z,english_83.wav,0,peel,844,28,4,5,Français,f,5,0.5,95.33803701,1.15889455
5ff865647dfb4303dc56d786,32,0,2024-02-28T15:01:38.555Z,english_83.wav,0,peel,844,28,4,5,Français,f,6,0.6,29.01440832,1.69874537
5ff865647dfb4303dc56d786,32,0,2024-02-28T15:01:38.555Z,english_83.wav,0,peel,844,28,4,5,Français,f,7,0.7,95.49757562,1.82400366
5ff865647dfb4303dc56d786,32,0,2024-02-28T15:01:38.555Z,english_83.wav,0,peel,844,28,4,5,Français,f,8,0.8,73.0572007,0.49276816
5ff865647dfb4303dc56d786,32,0,2024-02-28T15:01:38.555Z,english_83.wav,0,peel,844,28,4,5,Français,f,9,0.9,-51.56555772,1.24642372
5ff865647dfb4303dc56d786,32,0,2024-02-28T15:01:38.555Z,english_83.wav,0,peel,844,28,4,5,Français,f,10,1.0,75.9566984,1.81994123
5ff865647dfb4303dc56d786,32,0,2024-02-28T15:01:38.555Z,english_83.wav,0,peel,844,28,4,5,Français,f,11,1.09391667,-25.09105013,1.274738
5ff865647dfb4303dc56d786,33,0,2024-02-28T15:01:38.555Z,english_413.wav,0,peel,703,28,4,5,Français,f,0,0.0,14.83112151,0.44215223
5ff865647dfb4303dc56d786,33,0,2024-02-28T15:01:38.555Z,english_413.wav,0,peel,703,28,4,5,Français,f,1,0.1,11.76914083,1.16902386
5ff865647dfb4303dc56d786,33,0,2024-02-28T15:01:38.555Z,english_413.wav,0,peel,703,28,4,5,Français,f,2,0.2,56.99835841,1.34778137
5ff865647dfb4303dc56d786,33,0,2024-02-28T15:01:38.555Z,english_413.wav,0,peel,703,28,4,5,Français,f,3,0.3,-91.21705368,1.75286116
5ff865647dfb4303dc56d786,33,0,2024-02-28T15:01:38.555Z,english_413.wav,0,peel,703,28,4,5,Français,f,4,0.4,45.54032704,0.59475232
5ff865647dfb4303dc56d786,33,0,2024-02-28T15:01:38.555Z,english_413.wav,0,peel,703,28,4,5,Français,f,5,0.5,27.79493499,1.56815753
5ff865647dfb4303dc56d786,33,0,2024-02-28T15:01:38.555Z,english_413.wav,0,peel,703,28,4,5,Français,f,6,0.6,-45.92047179,1.45096495
5ff865647dfb4303dc56d786,33,0,2024-02-28T15:01:38.555Z,english_413.wav,0,peel,703,28,4,5,Français,f,7,0.7,30.6901634,1.27145961
5ff865647dfb4303dc56d786,33,0,2024-02-28T15:01:38.555Z,english_413.wav,0,peel,703,28,4,5,Français,f,8,0.8,-6.79166087,1.53710405
5ff865647dfb4303dc56d786,33,0,2024-02-28T15:01:38.555Z,english_413.wav,0,peel,703,28,4,5,Français,f,9,0.9,-73.44231095,1.76487513
5ff865647dfb4303dc56d786,33,0,2024-02-28T15:01:38.555Z,english_413.wav,0,peel,703,28,4,5,Français,f,10,1.0,72.98773842,1.73986125
5ff865647dfb4303dc56d786,33,0,2024-02-28T15:01:38.555Z,english_413.wav,0,peel,703,28,4,5,Français,f,11,1.09391667,-6.1173613,0.92350985
5ff865647dfb4303dc56d786,34,0,2024-02-28T15:01:38.555Z,english_929.wav,0,pill,953,28,4,5,Français,f,0,0.0,-18.74393268,1.03205893
5ff865647dfb4303dc56d786,34,0,2024-02-28T15:01:38.555Z,english_929.wav,0,pill,953,28,4,5,Français,f,1,0.1,33.5098218,1.56324899
5ff865647dfb4303dc56d786,34,0,2024-02-28T15:01:38.555Z,english_929.wav,0,pill,953,28,4,5,Français,f,2,0.2,-29.94782209,1.48903241
5ff865647dfb4303dc56d786,34,0,2024-02-28T15:01:38.555Z,english_929.wav,0,pill,953,28,4,5,Français,f,3,0.3,-33.25977884,0.12654912
5ff865647dfb4303dc56d786,34,0,2024-02-28T15:01:38.555Z,english_929.wav,0,pill,953,28,4,5,Français,f,4,0.4,-9.01985938,0.84484029
5ff865647dfb4303dc56d786,34,0,2024-02-28T15:01:38.555Z,english_929.wav,0,pill,953,28,4,5,Français,f,5,0.5,-82.73987875,0.94715121
5ff865647dfb4303dc56d786,34,0,2024-02-28T15:01:38.555Z,english_929.wav,0,pill,953,28,4,5,Français,f,6,0.6,48.07587241,1.69154368
5ff865647dfb4303dc56d786,34,0,2024-02-28T15:01:38.555Z,english_929.wav,0,pill,953,28,4,5,Français,f,7,0.7,-43.15088987,0.81126675
5ff865647dfb4303dc56d786,34,0,2024-02-28T15:01:38.555Z,english_929.wav,0,pill,953,28,4,5,Français,f,8,0.8,82.92488977,0.36905029
5ff865647dfb4303dc56d786,34,0,2024-02-28T15:01:38.555Z,english_929.wav,0,pill,953,28,4,5,Français,f,9,0.9,-60.38444868,0.50874334
5ff865647dfb4303dc56d786,34,0,2024-02-28T15:01:38.555Z,english_929.wav,0,pill,953,28,4,5,Français,f,10,1.0,27.71416794,0.95284967
5ff865647dfb4303dc56d786,34,0,2024-02-28T15:01:38.555Z,english_929.wav,0,pill,953,28,4,5,Français,f,11,1.09391667,21.92497573,0.65099343
5ff865647dfb4303dc56d786,35,0,2024-02-28T15:01:38.555Z,english_264.wav,0,pill,549,28,4,5,Français,f,0,0.0,-7.97071304,0.52584892
5ff865647dfb4303dc56d786,35,0,2024-02-28T15:01:38.555Z,english_264.wav,0,pill,549,28,4,5,Français,f,1,0.1,5.26810794,0.35098417
5ff865647dfb4303dc56d786,35,0,2024-02-28T15:01:38.555Z,english_264.wav,0,pill,549,28,4,5,Français,f,2,0.2,42.90180093,0.87826506
5ff865647dfb4303dc56d786,35,0,2024-02-28T15:01:38.555Z,english_264.wav,0,pill,549,28,4,5,Français,f,3,0.3,32.54664666,0.85267403
5ff865647dfb4303dc56d786,35,0,2024-02-28T15:01:38.555Z,english_264.wav,0,pill,549,28,4,5,Français,f,4,0.4,-75.33920427,0.05665148
5ff865647dfb4303dc56d786,35,0,2024-02-28T15:01:38.555Z,english_264.wav,0,pill,549,28,4,5,Français,f,5,0.5,-92.87225366,0.902019
5ff865647dfb4303dc56d786,35,0,2024-02-28T15:01:38.555Z,english_264.wav,0,pill,549,28,4,5,Français,f,6,0.6,1.54584209,0.36999328
5ff865647dfb4303dc56d786,35,0,2024-02-28T15:01:38.555Z,english_264.wav,0,pill,549,28,4,5,Français,f,7,0.7,-61.85301996,1.87523396
5ff865647dfb4303dc56d786,35,0,2024-02-28T15:01:38.555Z,english_264.wav,0,pill,549,28,4,5,Français,f,8,0.8,-59.27209487,0.99775271
5ff865647dfb4303dc56d786,35,0,2024-02-28T15:01:38.555Z,english_264.wav,0,pill,549,28,4,5,Français,f,9,0.9,-3.4044868,0.18460265
5ff865647dfb4303dc56d786,35,0,2024-02-28T15:01:38.555Z,english_264.wav,0,pill,549,28,4,5,Français,f,10,1.0,20.29119999,0.05992377
5ff865647dfb4303dc56d786,35,0,2024-02-28T15:01:38.555Z,english_264.wav,0,pill,549,28,4,5,Français,f,11,1.09391667,76.66199878,1.79844018
5ff865647dfb4303dc56d786,36,0,2024-02-28T15:01:38.555Z,english_134.wav,0,peel,1555,28,4,5,Français,f,0,0.0,-24.26834644,1.03045274
5ff865647dfb4303dc56d786,36,0,2024-02-28T15:01:38.555Z,english_134.wav,0,peel,1555,28,4,5,Français,f,1,0.1,0.87898814,1.86888255
5ff865647dfb4303dc56d786,36,0,2024-02-28T15:01:38.555Z,english_134.wav,0,peel,1555,28,4,5,Français,f,2,0.2,29.43994061,1.70405425
5ff865647dfb4303dc56d786,36,0,2024-02-28T15:01:38.555Z,english_134.wav,0,peel,1555,28,4,5,Français,f,3,0.3,21.82945731,1.34767033
5ff865647dfb4303dc56d786,36,0,2024-02-28T15:01:38.555Z,english_134.wav,0,peel,1555,28,4,5,Français,f,4,0.4,49.09743773,0.8443881
5ff865647dfb4303dc56d786,36,0,2024-02-28T15:01:38.555Z,english_134.wav,0,peel,1555,28,4,5,Français,f,5,0.5,-15.97258886,1.38979788
5ff865647dfb4303dc56d786,36,0,2024-02-28T15:01:38.555Z,english_134.wav,0,peel,1555,28,4,5,Français,f,6,0.6,13.73233931,1.1830035
5ff865647dfb4303dc56d786,36,0,2024-02-28T15:01:38.555Z,english_134.wav,0,peel,1555,28,4,5,Français,f,7,0.7,-18.88709324,1.43950556
5ff865647dfb4303dc56d786,36,0,2024-02-28T15:01:38.555Z,english_134.wav,0,peel,1555,28,4,5,Français,f,8,0.8,13.58093601,1.18211722
5ff865647dfb4303dc56d786,36,0,2024-02-28T15:01:38.555Z,english_134.wav,0,peel,1555,28,4,5,Français,f,9,0.9,74.79947006,0.44903969
5ff865647dfb4303dc56d786,36,0,2024-02-28T15:01:38.555Z,english_134.wav,0,peel,1555,28,4,5,Français,f,10,1.0,-49.15519577,0.93357228
5ff865647dfb4303dc56d786,36,0,2024-02-28T15:01:38.555Z,english_134.wav,0,peel,1555,28,4,5,Français,f,11,1.09391667,18.17659257,1.8466086
5ff865647dfb4303dc56d786,37,0,2024-02-28T15:01:38.555Z,english_827.wav,0,peel,1856,28,4,5,Français,f,0,0.0,68.00908508,0.75704727
5ff865647dfb4303dc56d786,37,0,2024-02-28T15:01:38.555Z,english_827.wav,0,peel,1856,28,4,5,Français,f,1,0.1,62.86337393,1.26162294
5ff865647dfb4303dc56d786,37,0,2024-02-28T15:01:38.555Z,english_827.wav,0,peel,1856,28,4,5,Français,f,2,0.2,-78.66229145,0.12232387
5ff865647dfb4303dc56d786,37,0,2024-02-28T15:01:38.555Z,english_827.wav,0,peel,1856,28,4,5,Français,f,3,0.3,22.2543924,1.21737576
5ff865647dfb4303dc56d786,37,0,2024-02-28T15:01:38.555Z,english_827.wav,0,peel,1856,28,4,5,Français,f,4,0.4,-38.38701394,0.91087215
5ff865647dfb4303dc56d786,37,0,2024-02-28T15:01:38.555Z,english_827.wav,0,peel,1856,28,4,5,Français,f,5,0.5,42.22150711,0.43725261
5ff865647dfb4303dc56d786,37,0,2024-02-28T15:01:38.555Z,english_827.wav,0,peel,1856,28,4,5,Français,f,6,0.6,-45.69118252,1.41339021
5ff865647dfb4303dc56d786,37,0,2024-02-28T15:01:38.555Z,english_827.wav,0,peel,1856,28,4,5,Français,f,7,0.7,-2.62995829,0.84435274
5ff865647dfb4303dc56d786,37,0,2024-02-28T15:01:38.555Z,english_827.wav,0,peel,1856,28,4,5,Français,f,8,0.8,-5.53100906,1.45939376
5ff865647dfb4303dc56d786,37,0,2024-02-28T15:01:38.555Z,english_827.wav,0,peel,1856,28,4,5,Français,f,9,0.9,-28.52107901,0.25757528
5ff865647dfb4303dc56d786,37,0,2024-02-28T15:01:38.555Z,english_827.wav,0,peel,1856,28,4,5,Français,f,10,1.0,49.22868474,0.16904312
5ff865647dfb4303dc56d786,37,0,2024-02-28T15:01:38.555Z,english_827.wav,0,peel,1856,28,4,5,Français,f,11,1.09391667,-68.48939537,1.55565222
5ff865647dfb4303dc56d786,38,0,2024-02-28T15:01:38.555Z,english_359.wav,0,pill,2900,28,4,5,Français,f,0,0.0,16.62356483,0.11907426
5ff865647dfb4303dc56d786,38,0,2024-02-28T15:01:38.555Z,english_359.wav,0,pill,2900,28,4,5,Français,f,1,0.1,-64.66657599,1.11022803
5ff865647dfb4303dc56d786,38,0,2024-02-28T15:01:38.555Z,english_359.wav,0,pill,2900,28,4,5,Français,f,2,0.2,20.81574107,1.93552837
5ff865647dfb4303dc56d786,38,0,2024-02-28T15:01:38.555Z,english_359.wav,0,pill,2900,28,4,5,Français,f,3,0.3,62.21324861,0.18628365
5ff865647dfb4303dc56d786,38,0,2024-02-28T15:01:38.555Z,english_359.wav,0,pill,2900,28,4,5,Français,f,4,0.4,-96.92379856,1.68045213
5ff865647dfb4303dc56d786,38,0,2024-02-28T15:01:38.555Z,english_359.wav,0,pill,2900,28,4,5,Français,f,5,0.5,-63.09314604,0.56124054
5ff865647dfb4303dc56d786,38,0,2024-02-28T15:01:38.555Z,english_359.wav,0,pill,2900,28,4,5,Français,f,6,0.6,85.3804948,1.40840471
5ff865647dfb4303dc56d786,38,0,2024-02-28T15:01:38.555Z,english_359.wav,0,pill,2900,28,4,5,Français,f,7,0.7,-5.84073458,0.76045624
5ff865647dfb4303dc56d786,38,0,2024-02-28T15:01:38.555Z,english_359.wav,0,pill,2900,28,4,5,Français,f,8,0.8,1.07766227,0.79738911
5ff865647dfb4303dc56d786,38,0,2024-02-28T15:01:38.555Z,english_359.wav,0,pill,2900,28,4,5,Français,f,9,0.9,-3.48391837,0.78873787
5ff865647dfb4303dc56d786,38,0,2024-02-28T15:01:38.555Z,english_359.wav,0,pill,2900,28,4,5,Français,f,10,1.0,5.39755614,0.96854707
5ff865647dfb4303dc56d786,38,0,2024-02-28T15:01:38.555Z,english_359.wav,0,pill,2900,28,4,5,Français,f,11,1.09391667,59.72301587,0.15927381
5ff865647dfb4303dc56d786,39,0,2024-02-28T15:01:38.555Z,english_833.wav,0,peel,1380,28,4,5,Français,f,0,0.0,-9.82911833,0.41898606
5ff865647dfb4303dc56d786,39,0,2024-02-28T15:01:38.555Z,english_833.wav,0,peel,1380,28,4,5,Français,f,1,0.1,26.84576298,1.36279301
5ff865647dfb4303dc56d786,39,0,2024-02-28T15:01:38.555Z,english_833.wav,0,peel,1380,28,4,5,Français,f,2,0.2,-28.2282446,1.58440298
5ff865647dfb4303dc56d786,39,0,2024-02-28T15:01:38.555Z,english_833.wav,0,peel,1380,28,4,5,Français,f,3,0.3,66.90500865,0.74607222
5ff865647dfb4303dc56d786,39,0,2024-02-28T15:01:38.555Z,english_833.wav,0,peel,1380,28,4,5,Français,f,4,0.4,-49.09073162,0.77124081
5ff865647dfb4303dc56d786,39,0,2024-02-28T15:01:38.555Z,english_833.wav,0,peel,1380,28,4,5,Français,f,5,0.5,-87.4525088,1.83467454
5ff865647dfb4303dc56d786,39,0,2024-02-28T15:01:38.555Z,english_833.wav,0,peel,1380,28,4,5,Français,f,6,0.6,32.13028208,0.88970779
5ff865647dfb4303dc56d786,39,0,2024-02-28T15:01:38.555Z,english_833.wav,0,peel,1380,28,4,5,Français,f,7,0.7,-17.61981843,1.25647355
5ff865647dfb4303dc56d786,39,0,2024-02-28T15:01:38.555Z,english_833.wav,0,peel,1380,28,4,5,Français,f,8,0.8,-38.32230825,1.59512471
5ff865647dfb4303dc56d786,39,0,2024-02-28T15:01:38.555Z,english_833.wav,0,peel,1380,28,4,5,Français,f,9,0.9,65.65277193,0.88454985
5ff865647dfb4303dc56d786,39,0,2024-02-28T15:01:38.555Z,english_833.wav,0,peel,1380,28,4,5,Français,f,10,1.0,-65.08326891,1.48034163
5ff865647dfb4303dc56d786,39,0,2024-02-28T15:01:38.555Z,english_833.wav,0,peel,1380,28,4,5,Français,f,11,1.09391667,73.10934072,1.02393934
5ff865647dfb4303dc56d786,40,0,2024-02-28T15:01:38.555Z,english_742.wav,0,peel,936,28,4,5,Français,f,0,0.0,16.40248558,0.38841716
5ff865647dfb4303dc56d786,40,0,2024-02-28T15:01:38.555Z,english_742.wav,0,peel,936,28,4,5,Français,f,1,0.1,-74.48361089,0.81078957
5ff865647dfb4303dc56d786,40,0,2024-02-28T15:01:38.555Z,english_742.wav,0,peel,936,28,4,5,Français,f,2,0.2,-68.54189756,1.40021639
5ff865647dfb4303dc56d786,40,0,2024-02-28T15:01:38.555Z,english_742.wav,0,peel,936,28,4,5,Français,f,3,0.3,-12.74577912,0.37000306
5ff865647dfb4303dc56d786,40,0,2024-02-28T15:01:38.555Z,english_742.wav,0,peel,936,28,4,5,Français,f,4,0.4,42.91022855,0.86528291
5ff865647dfb4303dc56d786,40,0,2024-02-28T15:01:38.555Z,english_742.wav,0,peel,936,28,4,5,Français,f,5,0.5,61.35454691,0.21278301
5ff865647dfb4303dc56d786,40,0,2024-02-28T15:01:38.555Z,english_742.wav,0,peel,936,28,4,5,Français,f,6,0.6,-74.78284805,1.55046698
5ff865647dfb4303dc56d786,40,0,2024-02-28T15:01:38.555Z,english_742.wav,0,peel,936,28,4,5,Français,f,7,0.7,71.03659878,1.739545
5ff865647dfb4303dc56d786,40,0,2024-02-28T15:01:38.555Z,english_742.wav,0,peel,936,28,4,5,Français,f,8,0.8,51.11475536,1.10810315
5ff865647dfb4303dc56d786,40,0,2024-02-28T15:01:38.555Z,english_742.wav,0,peel,936,28,4,5,Français,f,9,0.9,52.57489365,0.37698393
5ff865647dfb4303dc56d786,40,0,2024-02-28T15:01:38.555Z,english_742.wav,0,peel,936,28,4,5,Français,f,10,1.0,-21.18365938,1.01484038
5ff865647dfb4303dc56d786,40,0,2024-02-28T15:01:38.555Z,english_742.wav,0,peel,936,28,4,5,Français,f,11,1.09391667,62.14901308,0.3479372
5ff865647dfb4303dc56d786,41,0,2024-02-28T15:01:38.555Z,english_693.wav,0,peel,508,28,4,5,Français,f,0,0.0,-75.67975091,0.6706819
5ff865647dfb4303dc56d786,41,0,2024-02-28T15:01:38.555Z,english_693.wav,0,peel,508,28,4,5,Français,f,1,0.1,-0.67488573,0.70747017
5ff865647dfb4303dc56d786,41,0,2024-02-28T15:01:38.555Z,english_693.wav,0,peel,508,28,4,5,Français,f,2,0.2,8.83748606,1.043537
5ff865647dfb4303dc56d786,41,0,2024-02-28T15:01:38.555Z,english_693.wav,0,peel,508,28,4,5,Français,f,3,0.3,46.84016051,1.06639289
5ff865647dfb4303dc56d786,41,0,2024-02-28T15:01:38.555Z,english_693.wav,0,peel,508,28,4,5,Français,f,4,0.4,-13.00761781,1.65543462
5ff865647dfb4303dc56d786,41,0,2024-02-28T15:01:38.555Z,english_693.wav,0,peel,508,28,4,5,Français,f,5,0.5,14.23719318,1.13988087
5ff865647dfb4303dc56d786,41,0,2024-02-28T15:01:38.555Z,english_693.wav,0,peel,508,28,4,5,Français,f,6,0.6,42.52615101,0.88807521
5ff865647dfb4303dc56d786,41,0,2024-02-28T15:01:38.555Z,english_693.wav,0,peel,508,28,4,5,Français,f,7,0.7,65.43388412,1.6314593
5ff865647dfb4303dc56d786,41,0,2024-02-28T15:01:38.555Z,english_693.wav,0,peel,508,28,4,5,Français,f,8,0.8,-9.43344372,1.91739549
5ff865647dfb4303dc56d786,41,0,2024-02-28T15:01:38.555Z,english_693.wav,0,peel,508,28,4,5,Français,f,9,0.9,-30.43290339,1.30579352
5ff865647dfb4303dc56d786,41,0,2024-02-28T15:01:38.555Z,english_693.wav,0,peel,508,28,4,5,Français,f,10,1.0,-71.43466109,1.06179133
5ff865647dfb4303dc56d786,41,0,2024-02-28T15:01:38.555Z,english_693.wav,0,peel,508,28,4,5,Français,f,11,1.09391667,22.00910114,0.90887908
5ff865647dfb4303dc56d786,42,0,2024-02-28T15:01:38.555Z,english_723.wav,0,peel,4298,28,4,5,Français,f,0,0.0,41.38539941,1.7889603
5ff865647dfb4303dc56d786,42,0,2024-02-28T15:01:38.555Z,english_723.wav,0,peel,4298,28,4,5,Français,f,1,0.1,-10.01095303,0.1038592
5ff865647dfb4303dc56d786,42,0,2024-02-28T15:01:38.555Z,english_723.wav,0,peel,4298,28,4,5,Français,f,2,0.2,29.27272113,0.53110076
5ff865647dfb4303dc56d786,42,0,2024-02-28T15:01:38.555Z,english_723.wav,0,peel,4298,28,4,5,Français,f,3,0.3,-49.7176535,0.29760974
5ff865647dfb4303dc56d786,42,0,2024-02-28T15:01:38.555Z,english_723.wav,0,peel,4298,28,4,5,Français,f,4,0.4,-10.52042461,1.31106604
5ff865647dfb4303dc56d786,42,0,2024-02-28T15:01:38.555Z,english_723.wav,0,peel,4298,28,4,5,Français,f,5,0.5,-43.11656662,0.93542765
5ff865647dfb4303dc56d786,42,0,2024-02-28T15:01:38.555Z,english_723.wav,0,peel,4298,28,4,5,Français,f,6,0.6,-24.09481257,1.32967349
5ff865647dfb4303dc56d786,42,0,2024-02-28T15:01:38.555Z,english_723.wav,0,peel,4298,28,4,5,Français,f,7,0.7,61.11286308,1.11219452
5ff865647dfb4303dc56d786,42,0,2024-02-28T15:01:38.555Z,english_723.wav,0,peel,4298,28,4,5,Français,f,8,0.8,-37.09128746,0.4392085
5ff865647dfb4303dc56d786,42,0,2024-02-28T15:01:38.555Z,english_723.wav,0,peel,4298,28,4,5,Français,f,9,0.9,71.58023837,1.93673799
5ff865647dfb4303dc56d786,42,0,2024-02-28T15:01:38.555Z,english_723.wav,0,peel,4298,28,4,5,Français,f,10,1.0,30.56657054,0.01664343
5ff865647dfb4303dc56d786,42,0,2024-02-28T15:01:38.555Z,english_723.wav,0,peel,4298,28,4,5,Français,f,11,1.09391667,-5.36806636,0.22848658
5ff865647dfb4303dc56d786,43,0,2024-02-28T15:01:38.555Z,english_766.wav,0,peel,1272,28,4,5,Français,f,0,0.0,42.94713727,0.47626881
5ff865647dfb4303dc56d786,43,0,2024-02-28T15:01:38.555Z,english_766.wav,0,peel,1272,28,4,5,Français,f,1,0.1,28.30886199,1.1713526
5ff865647dfb4303dc56d786,43,0,2024-02-28T15:01:38.555Z,english_766.wav,0,peel,1272,28,4,5,Français,f,2,0.2,1.2264226,1.74074018
5ff865647dfb4303dc56d786,43,0,2024-02-28T15:01:38.555Z,english_766.wav,0,peel,1272,28,4,5,Français,f,3,0.3,-18.98827785,1.46451689
5ff865647dfb4303dc56d786,43,0,2024-02-28T15:01:38.555Z,english_766.wav,0,peel,1272,28,4,5,Français,f,4,0.4,56.2842172,1.82010581
5ff865647dfb4303dc56d786,43,0,2024-02-28T15:01:38.555Z,english_766.wav,0,peel,1272,28,4,5,Français,f,5,0.5,-36.10050509,0.06402892
5ff865647dfb4303dc56d786,43,0,2024-02-28T15:01:38.555Z,english_766.wav,0,peel,1272,28,4,5,Français,f,6,0.6,-35.32176748,1.19039401
5ff865647dfb4303dc56d786,43,0,2024-02-28T15:01:38.555Z,english_766.wav,0,peel,1272,28,4,5,Français,f,7,0.7,-60.08162155,1.08978002
5ff865647dfb4303dc56d786,43,0,2024-02-28T15:01:38.555Z,english_766.wav,0,peel,1272,28,4,5,Français,f,8,0.8,89.09432849,1.1905248
5ff865647dfb4303dc56d786,43,0,2024-02-28T15:01:38.555Z,english_766.wav,0,peel,1272,28,4,5,Français,f,9,0.9,19.08224966,1.93919958
5ff865647dfb4303dc56d786,43,0,2024-02-28T15:01:38.555Z,english_766.wav,0,peel,1272,28,4,5,Français,f,10,1.0,-35.22352631,1.038365
5ff865647dfb4303dc56d786,43,0,2024-02-28T15:01:38.555Z,english_766.wav,0,peel,1272,28,4,5,Français,f,11,1.09391667,-47.26773358,0.66318898
5ff865647dfb4303dc56d786,44,0,2024-02-28T15:01:38.555Z,english_884.wav,0,peel,1654,28,4,5,Français,f,0,0.0,-26.7986483,0.93358525
5ff865647dfb4303dc56d786,44,0,2024-02-28T15:01:38.555Z,english_884.wav,0,peel,1654,28,4,5,Français,f,1,0.1,-20.57946037,0.61599081
5ff865647dfb4303dc56d786,44,0,2024-02-28T15:01:38.555Z,english_884.wav,0,peel,1654,28,4,5,Français,f,2,0.2,-14.61918651,1.88488325
5ff865647dfb4303dc56d786,44,0,2024-02-28T15:01:38.555Z,english_884.wav,0,peel,1654,28,4,5,Français,f,3,0.3,-54.80261731,0.21075836
5ff865647dfb4303dc56d786,44,0,2024-02-28T15:01:38.555Z,english_884.wav,0,peel,1654,28,4,5,Français,f,4,0.4,32.41231837,0.52073008
5ff865647dfb4303dc56d786,44,0,2024-02-28T15:01:38.555Z,english_884.wav,0,peel,1654,28,4,5,Français,f,5,0.5,22.58711785,1.07474078
5ff865647dfb4303dc56d786,44,0,2024-02-28T15:01:38.555Z,english_884.wav,0,peel,1654,28,4,5,Français,f,6,0.6,-23.74471885,1.54114542
5ff865647dfb4303dc56d786,44,0,2024-02-28T15:01:38.555Z,english_884.wav,0,peel,1654,28,4,5,Français,f,7,0.7,0.47861234,0.96193885
5ff865647dfb4303dc56d786,44,0,2024-02-28T15:01:38.555Z,english_884.wav,0,peel,1654,28,4,5,Français,f,8,0.8,-1.79385185,0.3951249
5ff865647dfb4303dc56d786,44,0,2024-02-28T15:01:38.555Z,english_884.wav,0,peel,1654,28,4,5,Français,f,9,0.9,-17.00071045,1.98003937
5ff865647dfb4303dc56d786,44,0,2024-02-28T15:01:38.555Z,english_884.wav,0,peel,1654,28,4,5,Français,f,10,1.0,12.5163052,0.39843766
5ff865647dfb4303dc56d786,44,0,2024-02-28T15:01:38.555Z,english_884.wav,0,peel,1654,28,4,5,Français,f,11,1.09391667,-96.33383281,1.06218732
5ff865647dfb4303dc56d786,45,0,2024-02-28T15:01:38.555Z,english_943.wav,0,pill,373,28,4,5,Français,f,0,0.0,79.5890822,1.20824936
5ff865647dfb4303dc56d786,45,0,2024-02-28T15:01:38.555Z,english_943.wav,0,pill,373,28,4,5,Français,f,1,0.1,78.55264714,0.88116928
5ff865647dfb4303dc56d786,45,0,2024-02-28T15:01:38.555Z,english_943.wav,0,pill,373,28,4,5,Français,f,2,0.2,44.19658383,1.0423498
5ff865647dfb4303dc56d786,45,0,2024-02-28T15:01:38.555Z,english_943.wav,0,pill,373,28,4,5,Français,f,3,0.3,-16.14605168,1.30491636
5ff865647dfb4303dc56d786,45,0,2024-02-28T15:01:38.555Z,english_943.wav,0,pill,373,28,4,5,Français,f,4,0.4,46.84349784,1.23781924
5ff865647dfb4303dc56d786,45,0,2024-02-28T15:01:38.555Z,english_943.wav,0,pill,373,28,4,5,Français,f,5,0.5,67.29364224,1.19542323
5ff865647dfb4303dc56d786,45,0,2024-02-28T15:01:38.555Z,english_943.wav,0,pill,373,28,4,5,Français,f,6,0.6,62.75940247,1.00041218
5ff865647dfb4303dc56d786,45,0,2024-02-28T15:01:38.555Z,english_943.wav,0,pill,373,28,4,5,Français,f,7,0.7,-42.13911475,1.18889719
5ff865647dfb4303dc56d786,45,0,2024-02-28T15:01:38.555Z,english_943.wav,0,pill,373,28,4,5,Français,f,8,0.8,-19.02728939,0.17654831
5ff865647dfb4303dc56d786,45,0,2024-02-28T15:01:38.555Z,english_943.wav,0,pill,373,28,4,5,Français,f,9,0.9,-16.03900615,0.65298118
5ff865647dfb4303dc56d786,45,0,2024-02-28T15:01:38.555Z,english_943.wav,0,pill,373,28,4,5,Français,f,10,1.0,15.22888591,0.96725626
5ff865647dfb4303dc56d786,45,0,2024-02-28T15:01:38.555Z,english_943.wav,0,pill,373,28,4,5,Français,f,11,1.09391667,60.70409514,1.67455333
5ff865647dfb4303dc56d786,46,0,2024-02-28T15:01:38.555Z,english_213.wav,0,peel,1560,28,4,5,Français,f,0,0.0,-32.76105426,1.09332496
5ff865647dfb4303dc56d786,46,0,2024-02-28T15:01:38.555Z,english_213.wav,0,peel,1560,28,4,5,Français,f,1,0.1,20.82965334,1.62338997
5ff865647dfb4303dc56d786,46,0,2024-02-28T15:01:38.555Z,english_213.wav,0,peel,1560,28,4,5,Français,f,2,0.2,92.37712608,0.62920964
5ff865647dfb4303dc56d786,46,0,2024-02-28T15:01:38.555Z,english_213.wav,0,peel,1560,28,4,5,Français,f,3,0.3,62.5594058,1.24187197
5ff865647dfb4303dc56d786,46,0,2024-02-28T15:01:38.555Z,english_213.wav,0,peel,1560,28,4,5,Français,f,4,0.4,6.21236176,0.66893682
5ff865647dfb4303dc56d786,46,0,2024-02-28T15:01:38.555Z,english_213.wav,0,peel,1560,28,4,5,Français,f,5,0.5,4.78560907,0.46069242
5ff865647dfb4303dc56d786,46,0,2024-02-28T15:01:38.555Z,english_213.wav,0,peel,1560,28,4,5,Français,f,6,0.6,-34.71949358,0.40626587
5ff865647dfb4303dc56d786,46,0,2024-02-28T15:01:38.555Z,english_213.wav,0,peel,1560,28,4,5,Français,f,7,0.7,-10.08230205,1.52821633
5ff865647dfb4303dc56d786,46,0,2024-02-28T15:01:38.555Z,english_213.wav,0,peel,1560,28,4,5,Français,f,8,0.8,33.82806657,1.03411812
5ff865647dfb4303dc56d786,46,0,2024-02-28T15:01:38.555Z,english_213.wav,0,peel,1560,28,4,5,Français,f,9,0.9,-6.48550499,1.40320231
5ff865647dfb4303dc56d786,46,0,2024-02-28T15:01:38.555Z,english_213.wav,0,peel,1560,28,4,5,Français,f,10,1.0,-24.14508238,0.99721534
5ff865647dfb4303dc56d786,46,0,2024-02-28T15:01:38.555Z,english_213.wav,0,peel,1560,28,4,5,Français,f,11,1.09391667,87.95814846,0.20116539
5ff865647dfb4303dc56d786,47,0,2024-02-28T15:01:38.555Z,english_398.wav,0,pill,593,28,4,5,Français,f,0,0.0,58.43536872,0.19891774
5ff865647dfb4303dc56d786,47,0,2024-02-28T15:01:38.555Z,english_398.wav,0,pill,593,28,4,5,Français,f,1,0.1,-82.57908231,0.03529734
5ff865647dfb4303dc56d786,47,0,2024-02-28T15:01:38.555Z,english_398.wav,0,pill,593,28,4,5,Français,f,2,0.2,-3.40439415,1.69592316
5ff865647dfb4303dc56d786,47,0,2024-02-28T15:01:38.555Z,english_398.wav,0,pill,593,28,4,5,Français,f,3,0.3,-83.74176257,0.07086845
5ff865647dfb4303dc56d786,47,0,2024-02-28T15:01:38.555Z,english_398.wav,0,pill,593,28,4,5,Français,f,4,0.4,38.89596711,0.77458748
5ff865647dfb4303dc56d786,47,0,2024-02-28T15:01:38.555Z,english_398.wav,0,pill,593,28,4,5,Français,f,5,0.5,63.49142751,1.25980126
5ff865647dfb4303dc56d786,47,0,2024-02-28T15:01:38.555Z,english_398.wav,0,pill,593,28,4,5,Français,f,6,0.6,64.24765223,1.54445807
5ff865647dfb4303dc56d786,47,0,2024-02-28T15:01:38.555Z,english_398.wav,0,pill,593,28,4,5,Français,f,7,0.7,24.37031282,0.23015685
5ff865647dfb4303dc56d786,47,0,2024-02-28T15:01:38.555Z,english_398.wav,0,pill,593,28,4,5,Français,f,8,0.8,18.2651004,0.80693823
5ff865647dfb4303dc56d786,47,0,2024-02-28T15:01:38.555Z,english_398.wav,0,pill,593,28,4,5,Français,f,9,0.9,-3.768449,0.61010049
5ff865647dfb4303dc56d786,47,0,2024-02-28T15:01:38.555Z,english_398.wav,0,pill,593,28,4,5,Français,f,10,1.0,55.48069175,0.09811637
5ff865647dfb4303dc56d786,47,0,2024-02-28T15:01:38.555Z,english_398.wav,0,pill,593,28,4,5,Français,f,11,1.09391667,-2.34176887,1.22967895
5ff865647dfb4303dc56d786,48,0,2024-02-28T15:01:38.555Z,english_118.wav,0,pill,415,28,4,5,Français,f,0,0.0,37.82351895,1.3762948
5ff865647dfb4303dc56d786,48,0,2024-02-28T15:01:38.555Z,english_118.wav,0,pill,415,28,4,5,Français,f,1,0.1,-67.70818615,0.33841533
5ff865647dfb4303dc56d786,48,0,2024-02-28T15:01:38.555Z,english_118.wav,0,pill,415,28,4,5,Français,f,2,0.2,68.69944334,0.45852716
5ff865647dfb4303dc56d786,48,0,2024-02-28T15:01:38.555Z,english_118.wav,0,pill,415,28,4,5,Français,f,3,0.3,52.36371426,1.7289391
5ff865647dfb4303dc56d786,48,0,2024-02-28T15:01:38.555Z,english_118.wav,0,pill,415,28,4,5,Français,f,4,0.4,75.26535893,1.37893215
5ff865647dfb4303dc56d786,48,0,2024-02-28T15:01:38.555Z,english_118.wav,0,pill,415,28,4,5,Français,f,5,0.5,-76.41094454,1.61108602
5ff865647dfb4303dc56d786,48,0,2024-02-28T15:01:38.555Z,english_118.wav,0,pill,415,28,4,5,Français,f,6,0.6,0.45465547,0.84685901
5ff865647dfb4303dc56d786,48,0,2024-02-28T15:01:38.555Z,english_118.wav,0,pill,415,28,4,5,Français,f,7,0.7,55.44753482,1.08403972
5ff865647dfb4303dc56d786,48,0,2024-02-28T15:01:38.555Z,english_118.wav,0,pill,415,28,4,5,Français,f,8,0.8,-53.17394643,0.42004792
5ff865647dfb4303dc56d786,48,0,2024-02-28T15:01:38.555Z,english_118.wav,0,pill,415,28,4,5,Français,f,9,0.9,-98.70911392,0.56823128
5ff865647dfb4303dc56d786,48,0,2024-02-28T15:01:38.555Z,english_118.wav,0,pill,415,28,4,5,Français,f,10,1.0,-4.73000909,1.43622179
5ff865647dfb4303dc56d786,48,0,2024-02-28T15:01:38.555Z,english_118.wav,0,pill,415,28,4,5,Français,f,11,1.09391667,-39.29610214,1.0044269
5ff865647dfb4303dc56d786,49,0,2024-02-28T15:01:38.555Z,english_543.wav,0,pill,2664,28,4,5,Français,f,0,0.0,-38.60842869,0.01455056
5ff865647dfb4303dc56d786,49,0,2024-02-28T15:01:38.555Z,english_543.wav,0,pill,2664,28,4,5,Français,f,1,0.1,53.1018826,1.33130856
5ff865647dfb4303dc56d786,49,0,2024-02-28T15:01:38.555Z,english_543.wav,0,pill,2664,28,4,5,Français,f,2,0.2,21.93281072,0.07852499
5ff865647dfb4303dc56d786,49,0,2024-02-28T15:01:38.555Z,english_543.wav,0,pill,2664,28,4,5,Français,f,3,0.3,-40.4815272,1.77861337
5ff865647dfb4303dc56d786,49,0,2024-02-28T15:01:38.555Z,english_543.wav,0,pill,2664,28,4,5,Français,f,4,0.4,2.89670018,1.72434721
5ff865647dfb4303dc56d786,49,0,2024-02-28T15:01:38.555Z,english_543.wav,0,pill,2664,28,4,5,Français,f,5,0.5,31.11758458,1.53256383
5ff865647dfb4303dc56d786,49,0,2024-02-28T15:01:38.555Z,english_543.wav,0,pill,2664,28,4,5,Français,f,6,0.6,1.30911675,1.33712035
5ff865647dfb4303dc56d786,49,0,2024-02-28T15:01:38.555Z,english_543.wav,0,pill,2664,28,4,5,Français,f,7,0.7,46.76912586,0.29783205
5ff865647dfb4303dc56d786,49,0,2024-02-28T15:01:38.555Z,english_543.wav,0,pill,2664,28,4,5,Français,f,8,0.8,-75.40535735,1.43997323
5ff865647dfb4303dc56d786,49,0,2024-02-28T15:01:38.555Z,english_543.wav,0,pill,2664,28,4,5,Français,f,9,0.9,57.91130712,0.04561747
5ff865647dfb4303dc56d786,49,0,2024-02-28T15:01:38.555Z,english_543.wav,0,pill,2664,28,4,5,Français,f,10,1.0,-90.16753315,1.78781135
5ff865647dfb4303dc56d786,49,0,2024-02-28T15:01:38.555Z,english_543.wav,0,pill,2664,28,4,5,Français,f,11,1.09391667,-42.19615814,1.03895071
5ff865647dfb4303dc56d786,50,1,2024-02-28T15:01:38.555Z,english_133.wav,0,peel,891,28,4,5,Français,f,0,0.0,10.63343709,0.76476464
5ff865647dfb4303dc56d786,50,1,2024-02-28T15:01:38.555Z,english_133.wav,0,peel,891,28,4,5,Français,f,1,0.1,24.84890696,1.29515793
5ff865647dfb4303dc56d786,50,1,2024-02-28T15:01:38.555Z,english_133.wav,0,peel,891,28,4,5,Français,f,2,0.2,-34.79554397,1.91673142
5ff865647dfb4303dc56d786,50,1,2024-02-28T15:01:38.555Z,english_133.wav,0,peel,891,28,4,5,Français,f,3,0.3,-18.60172977,1.0879203
5ff865647dfb4303dc56d786,50,1,2024-02-28T15:01:38.555Z,english_133.wav,0,peel,891,28,4,5,Français,f,4,0.4,-98.89022724,1.20589026
5ff865647dfb4303dc56d786,50,1,2024-02-28T15:01:38.555Z,english_133.wav,0,peel,891,28,4,5,Français,f,5,0.5,23.30800479,1.56284498
5ff865647dfb4303dc56d786,50,1,2024-02-28T15:01:38.555Z,english_133.wav,0,peel,891,28,4,5,Français,f,6,0.6,30.70048396,0.05267283
5ff865647dfb4303dc56d786,50,1,2024-02-28T15:01:38.555Z,english_133.wav,0,peel,891,28,4,5,Français,f,7,0.7,-76.25426305,1.08371144
5ff865647dfb4303dc56d786,50,1,2024-02-28T15:01:38.555Z,english_133.wav,0,peel,891,28,4,5,Français,f,8,0.8,14.35819181,0.48506717
5ff865647dfb4303dc56d786,50,1,2024-02-28T15:01:38.555Z,english_133.wav,0,peel,891,28,4,5,Français,f,9,0.9,-62.19404817,1.72104901
5ff865647dfb4303dc56d786,50,1,2024-02-28T15:01:38.555Z,english_133.wav,0,peel,891,28,4,5,Français,f,10,1.0,77.39529663,1.20839478
5ff865647dfb4303dc56d786,50,1,2024-02-28T15:01:38.555Z,english_133.wav,0,peel,891,28,4,5,Français,f,11,1.09391667,16.52655074,0.51907939
5ff865647dfb4303dc56d786,51,1,2024-02-28T15:01:38.555Z,english_790.wav,0,peel,431,28,4,5,Français,f,0,0.0,5.47810166,1.26408321
5ff865647dfb4303dc56d786,51,1,2024-02-28T15:01:38.555Z,english_790.wav,0,peel,431,28,4,5,Français,f,1,0.1,-9.2687044,0.26503637
5ff865647dfb4303dc56d786,51,1,2024-02-28T15:01:38.555Z,english_790.wav,0,peel,431,28,4,5,Français,f,2,0.2,71.91302434,0.46926152
5ff865647dfb4303dc56d786,51,1,2024-02-28T15:01:38.555Z,english_790.wav,0,peel,431,28,4,5,Français,f,3,0.3,-95.14086012,0.64840522
5ff865647dfb4303dc56d786,51,1,2024-02-28T15:01:38.555Z,english_790.wav,0,peel,431,28,4,5,Français,f,4,0.4,81.24819191,0.79568814
5ff865647dfb4303dc56d786,51,1,2024-02-28T15:01:38.555Z,english_790.wav,0,peel,431,28,4,5,Français,f,5,0.5,-43.38316414,0.82256958
5ff865647dfb4303dc56d786,51,1,2024-02-28T15:01:38.555Z,english_790.wav,0,peel,431,28,4,5,Français,f,6,0.6,81.5189634,1.36445651
5ff865647dfb4303dc56d786,51,1,2024-02-28T15:01:38.555Z,english_790.wav,0,peel,431,28,4,5,Français,f,7,0.7,36.28483158,0.42135765
5ff865647dfb4303dc56d786,51,1,2024-02-28T15:01:38.555Z,english_790.wav,0,peel,431,28,4,5,Français,f,8,0.8,68.43717388,0.07801016
5ff865647dfb4303dc56d786,51,1,2024-02-28T15:01:38.555Z,english_790.wav,0,peel,431,28,4,5,Français,f,9,0.9,10.19963637,0.70937824
5ff865647dfb4303dc56d786,51,1,2024-02-28T15:01:38.555Z,english_790.wav,0,peel,431,28,4,5,Français,f,10,1.0,-15.25841054,1.62056491
5ff865647dfb4303dc56d786,51,1,2024-02-28T15:01:38.555Z,english_790.wav,0,peel,431,28,4,5,Français,f,11,1.09391667,-62.44422803,1.67467407
5ff865647dfb4303dc56d786,52,1,2024-02-28T15:01:38.555Z,english_655.wav,0,peel,1069,28,4,5,Français,f,0,0.0,-90.05217159,1.15438405
5ff865647dfb4303dc56d786,52,1,2024-02-28T15:01:38.555Z,english_655.wav,0,peel,1069,28,4,5,Français,f,1,0.1,-51.53203878,1.12188764
5ff865647dfb4303dc56d786,52,1,2024-02-28T15:01:38.555Z,english_655.wav,0,peel,1069,28,4,5,Français,f,2,0.2,-18.56413276,0.95676367
5ff865647dfb4303dc56d786,52,1,2024-02-28T15:01:38.555Z,english_655.wav,0,peel,1069,28,4,5,Français,f,3,0.3,-32.31488117,0.61420414
5ff865647dfb4303dc56d786,52,1,2024-02-28T15:01:38.555Z,english_655.wav,0,peel,1069,28,4,5,Français,f,4,0.4,49.43339315,0.76264188
5ff865647dfb4303dc56d786,52,1,2024-02-28T15:01:38.555Z,english_655.wav,0,peel,1069,28,4,5,Français,f,5,0.5,-67.53322914,1.45400352
5ff865647dfb4303dc56d786,52,1,2024-02-28T15:01:38.555Z,english_655.wav,0,peel,1069,28,4,5,Français,f,6,0.6,90.11454302,0.06830652
5ff865647dfb4303dc56d786,52,1,2024-02-28T15:01:38.555Z,english_655.wav,0,peel,1069,28,4,5,Français,f,7,0.7,98.57977716,0.91955523
5ff865647dfb4303dc56d786,52,1,2024-02-28T15:01:38.555Z,english_655.wav,0,peel,1069,28,4,5,Français,f,8,0.8,29.43352269,0.33519017
5ff865647dfb4303dc56d786,52,1,2024-02-28T15:01:38.555Z,english_655.wav,0,peel,1069,28,4,5,Français,f,9,0.9,91.08820104,0.7797243
5ff865647dfb4303dc56d786,52,1,2024-02-28T15:01:38.555Z,english_655.wav,0,peel,1069,28,4,5,Français,f,10,1.0,-3.70059628,1.01878467
5ff865647dfb4303dc56d786,52,1,2024-02-28T15:01:38.555Z,english_655.wav,0,peel,1069,28,4,5,Français,f,11,1.09391667,30.30784512,1.55349389
5ff865647dfb4303dc56d786,53,1,2024-02-28T15:01:38.555Z,english_915.wav,0,peel,564,28,4,5,Français,f,0,0.0,-21.98271396,1.11106838
5ff865647dfb4303dc56d786,53,1,2024-02-28T15:01:38.555Z,english_915.wav,0,peel,564,28,4,5,Français,f,1,0.1,1.0207487,1.44455779
5ff865647dfb4303dc56d786,53,1,2024-02-28T15:01:38.555Z,english_915.wav,0,peel,564,28,4,5,Français,f,2,0.2,23.02274493,1.42587556
5ff865647dfb4303dc56d786,53,1,2024-02-28T15:01:38.555Z,english_915.wav,0,peel,564,28,4,5,Français,f,3,0.3,85.32608832,1.47521249
5ff865647dfb4303dc56d786,53,1,2024-02-28T15:01:38.555Z,english_915.wav,0,peel,564,28,4,5,Français,f,4,0.4,-33.34189035,1.68905856
5ff865647dfb4303dc56d786,53,1,2024-02-28T15:01:38.555Z,english_915.wav,0,peel,564,28,4,5,Français,f,5,0.5,29.21421043,1.40181913
5ff865647dfb4303dc56d786,53,1,2024-02-28T15:01:38.555Z,english_915.wav,0,peel,564,28,4,5,Français,f,6,0.6,56.26543798,1.46869984
5ff865647dfb4303dc56d786,53,1,2024-02-28T15:01:38.555Z,english_915.wav,0,peel,564,28,4,5,Français,f,7,0.7,7.71467122,0.70433786
5ff865647dfb4303dc56d786,53,1,2024-02-28T15:01:38.555Z,english_915.wav,0,peel,564,28,4,5,Français,f,8,0.8,88.21567756,1.11015014
5ff865647dfb4303dc56d786,53,1,2024-02-28T15:01:38.555Z,english_915.wav,0,peel,564,28,4,5,Français,f,9,0.9,-50.54904275,0.72100932
5ff865647dfb4303dc56d786,53,1,2024-02-28T15:01:38.555Z,english_915.wav,0,peel,564,28,4,5,Français,f,10,1.0,-64.3056321,1.02681764
5ff865647dfb4303dc56d786,53,1,2024-02-28T15:01:38.555Z,english_915.wav,0,peel,564,28,4,5,Français,f,11,1.09391667,-64.41259803,0.869897
5ff865647dfb4303dc56d786,54,1,2024-02-28T15:01:38.555Z,english_591.wav,0,peel,669,28,4,5,Français,f,0,0.0,-33.59942656,0.74847219
5ff865647dfb4303dc56d786,54,1,2024-02-28T15:01:38.555Z,english_591.wav,0,peel,669,28,4,5,Français,f,1,0.1,-41.84333916,1.40230026
5ff865647dfb4303dc56d786,54,1,2024-02-28T15:01:38.555Z,english_591.wav,0,peel,669,28,4,5,Français,f,2,0.2,-40.30789258,1.16814049
5ff865647dfb4303dc56d786,54,1,2024-02-28T15:01:38.555Z,english_591.wav,0,peel,669,28,4,5,Français,f,3,0.3,97.61230048,0.39427788
5ff865647dfb4303dc56d786,54,1,2024-02-28T15:01:38.555Z,english_591.wav,0,peel,669,28,4,5,Français,f,4,0.4,-42.50162748,0.29523071
5ff865647dfb4303dc56d786,54,1,2024-02-28T15:01:38.555Z,english_591.wav,0,peel,669,28,4,5,Français,f,5,0.5,-1.77866558,0.85786838
5ff865647dfb4303dc56d786,54,1,2024-02-28T15:01:38.555Z,english_591.wav,0,peel,669,28,4,5,Français,f,6,0.6,0.70986705,1.07664541
5ff865647dfb4303dc56d786,54,1,2024-02-28T15:01:38.555Z,english_591.wav,0,peel,669,28,4,5,Français,f,7,0.7,34.96717961,1.03582874
5ff865647dfb4303dc56d786,54,1,2024-02-28T15:01:38.555Z,english_591.wav,0,peel,669,28,4,5,Français,f,8,0.8,-92.90998765,1.47906255
5ff865647dfb4303dc56d786,54,1,2024-02-28T15:01:38.555Z,english_591.wav,0,peel,669,28,4,5,Français,f,9,0.9,-56.37241834,1.68040409
5ff865647dfb4303dc56d786,54,1,2024-02-28T15:01:38.555Z,english_591.wav,0,peel,669,28,4,5,Français,f,10,1.0,5.28111122,0.00212421
5ff865647dfb4303dc56d786,54,1,2024-02-28T15:01:38.555Z,english_591.wav,0,peel,669,28,4,5,Français,f,11,1.09391667,-12.0144277,0.47626778
5ff865647dfb4303dc56d786,55,1,2024-02-28T15:01:38.555Z,english_610.wav,0,pill,696,28,4,5,Français,f,0,0.0,-92.84300711,0.87509592
5ff865647dfb4303dc56d786,55,1,2024-02-28T15:01:38.555Z,english_610.wav,0,pill,696,28,4,5,Français,f,1,0.1,84.93303095,1.15799642
5ff865647dfb4303dc56d786,55,1,2024-02-28T15:01:38.555Z,english_610.wav,0,pill,696,28,4,5,Français,f,2,0.2,80.17137486,0.35067597
5ff865647dfb4303dc56d786,55,1,2024-02-28T15:01:38.555Z,english_610.wav,0,pill,696,28,4,5,Français,f,3,0.3,-20.18134966,0.73569606
5ff865647dfb4303dc56d786,55,1,2024-02-28T15:01:38.555Z,english_610.wav,0,pill,696,28,4,5,Français,f,4,0.4,-20.20363531,1.23116766
5ff865647dfb4303dc56d786,55,1,2024-02-28T15:01:38.555Z,english_610.wav,0,pill,696,28,4,5,Français,f,5,0.5,-69.79247274,0.29684789
5ff865647dfb4303dc56d786,55,1,2024-02-28T15:01:38.555Z,english_610.wav,0,pill,696,28,4,5,Français,f,6,0.6,33.10957698,0.98948574
5ff865647dfb4303dc56d786,55,1,2024-02-28T15:01:38.555Z,english_610.wav,0,pill,696,28,4,5,Français,f,7,0.7,-20.50322303,0.76787478
5ff865647dfb4303dc56d786,55,1,2024-02-28T15:01:38.555Z,english_610.wav,0,pill,696,28,4,5,Français,f,8,0.8,-72.05825618,0.48117832
5ff865647dfb4303dc56d786,55,1,2024-02-28T15:01:38.555Z,english_610.wav,0,pill,696,28,4,5,Français,f,9,0.9,1.26743028,0.47321928
5ff865647dfb4303dc56d786,55,1,2024-02-28T15:01:38.555Z,english_610.wav,0,pill,696,28,4,5,Français,f,10,1.0,17.12915034,0.17126553
5ff865647dfb4303dc56d786,55,1,2024-02-28T15:01:38.555Z,english_610.wav,0,pill,696,28,4,5,Français,f,11,1.09391667,64.76618694,1.04318183
5ff865647dfb4303dc56d786,56,1,2024-02-28T15:01:38.555Z,english_509.wav,0,peel,516,28,4,5,Français,f,0,0.0,-60.47633283,1.8433091
5ff865647dfb4303dc56d786,56,1,2024-02-28T15:01:38.555Z,english_509.wav,0,peel,516,28,4,5,Français,f,1,0.1,62.43182062,0.67753575
5ff865647dfb4303dc56d786,56,1,2024-02-28T15:01:38.555Z,english_509.wav,0,peel,516,28,4,5,Français,f,2,0.2,-89.10254598,0.6228286
5ff865647dfb4303dc56d786,56,1,2024-02-28T15:01:38.555Z,english_509.wav,0,peel,516,28,4,5,Français,f,3,0.3,-56.00324349,1.20175852
5ff865647dfb4303dc56d786,56,1,2024-02-28T15:01:38.555Z,english_509.wav,0,peel,516,28,4,5,Français,f,4,0.4,-22.97503075,0.68327781
5ff865647dfb4303dc56d786,56,1,2024-02-28T15:01:38.555Z,english_509.wav,0,peel,516,28,4,5,Français,f,5,0.5,-10.58010289,1.6981399
5ff865647dfb4303dc56d786,56,1,2024-02-28T15:01:38.555Z,english_509.wav,0,peel,516,28,4,5,Français,f,6,0.6,41.52809509,1.77808046
5ff865647dfb4303dc56d786,56,1,2024-02-28T15:01:38.555Z,english_509.wav,0,peel,516,28,4,5,Français,f,7,0.7,11.42336317,0.9915964
5ff865647dfb4303dc56d786,56,1,2024-02-28T15:01:38.555Z,english_509.wav,0,peel,516,28,4,5,Français,f,8,0.8,-33.49389875,1.58247003
5ff865647dfb4303dc56d786,56,1,2024-02-28T15:01:38.555Z,english_509.wav,0,peel,516,28,4,5,Français,f,9,0.9,-76.54160855,0.51702523
5ff865647dfb4303dc56d786,56,1,2024-02-28T15:01:38.555Z,english_509.wav,0,peel,516,28,4,5,Français,f,10,1.0,67.53120636,1.67242009
5ff865647dfb4303dc56d786,56,1,2024-02-28T15:01:38.555Z,english_509.wav,0,peel,516,28,4,5,Français,f,11,1.09391667,52.42137891,0.41732509
5ff865647dfb4303dc56d786,57,1,2024-02-28T15:01:38.555Z,english_76.wav,0,peel,2268,28,4,5,Français,f,0,0.0,24.53692124,0.00919351
5ff865647dfb4303dc56d786,57,1,2024-02-28T15:01:38.555Z,english_76.wav,0,peel,2268,28,4,5,Français,f,1,0.1,4.74525032,1.89780668
5ff865647dfb4303dc56d786,57,1,2024-02-28T15:01:38.555Z,english_76.wav,0,peel,2268,28,4,5,Français,f,2,0.2,-11.73085706,1.28424019
5ff865647dfb4303dc56d786,57,1,2024-02-28T15:01:38.555Z,english_76.wav,0,peel,2268,28,4,5,Français,f,3,0.3,-67.51409973,0.97330389
5ff865647dfb4303dc56d786,57,1,2024-02-28T15:01:38.555Z,english_76.wav,0,peel,2268,28,4,5,Français,f,4,0.4,18.72894419,1.57704982
5ff865647dfb4303dc56d786,57,1,2024-02-28T15:01:38.555Z,english_76.wav,0,peel,2268,28,4,5,Français,f,5,0.5,-87.08655703,0.6100989
5ff865647dfb4303dc56d786,57,1,2024-02-28T15:01:38.555Z,english_76.wav,0,peel,2268,28,4,5,Français,f,6,0.6,8.86378377,0.1303689
5ff865647dfb4303dc56d786,57,1,2024-02-28T15:01:38.555Z,english_76.wav,0,peel,2268,28,4,5,Français,f,7,0.7,-88.70159666,1.07980698
5ff865647dfb4303dc56d786,57,1,2024-02-28T15:01:38.555Z,english_76.wav,0,peel,2268,28,4,5,Français,f,8,0.8,-19.63742154,0.36042094
5ff865647dfb4303dc56d786,57,1,2024-02-28T15:01:38.555Z,english_76.wav,0,peel,2268,28,4,5,Français,f,9,0.9,-28.01043875,1.46264173
5ff865647dfb4303dc56d786,57,1,2024-02-28T15:01:38.555Z,english_76.wav,0,peel,2268,28,4,5,Français,f,10,1.0,-30.77636244,0.93716424
5ff865647dfb4303dc56d786,57,1,2024-02-28T15:01:38.555Z,english_76.wav,0,peel,2268,28,4,5,Français,f,11,1.09391667,-23.02477644,0.27656628
5ff865647dfb4303dc56d786,58,1,2024-02-28T15:01:38.555Z,english_185.wav,0,peel,542,28,4,5,Français,f,0,0.0,-23.80747302,1.70362326
5ff865647dfb4303dc56d786,58,1,2024-02-28T15:01:38.555Z,english_185.wav,0,peel,542,28,4,5,Français,f,1,0.1,-67.70846726,1.95632733
5ff865647dfb4303dc56d786,58,1,2024-02-28T15:01:38.555Z,english_185.wav,0,peel,542,28,4,5,Français,f,2,0.2,27.78292916,1.63625516
5ff865647dfb4303dc56d786,58,1,2024-02-28T15:01:38.555Z,english_185.wav,0,peel,542,28,4,5,Français,f,3,0.3,-22.37709268,0.69364986
5ff865647dfb4303dc56d786,58,1,2024-02-28T15:01:38.555Z,english_185.wav,0,peel,542,28,4,5,Français,f,4,0.4,15.61755946,0.15498305
5ff865647dfb4303dc56d786,58,1,2024-02-28T15:01:38.555Z,english_185.wav,0,peel,542,28,4,5,Français,f,5,0.5,-59.82139972,1.72553948
5ff865647dfb4303dc56d786,58,1,2024-02-28T15:01:38.555Z,english_185.wav,0,peel,542,28,4,5,Français,f,6,0.6,-43.59424473,1.78198359
5ff865647dfb4303dc56d786,58,1,2024-02-28T15:01:38.555Z,english_185.wav,0,peel,542,28,4,5,Français,f,7,0.7,74.12043651,1.30006103
5ff865647dfb4303dc56d786,58,1,2024-02-28T15:01:38.555Z,english_185.wav,0,peel,542,28,4,5,Français,f,8,0.8,77.01624641,0.79426106
5ff865647dfb4303dc56d786,58,1,2024-02-28T15:01:38.555Z,english_185.wav,0,peel,542,28,4,5,Français,f,9,0.9,-47.03527172,0.29849321
5ff865647dfb4303dc56d786,58,1,2024-02-28T15:01:38.555Z,english_185.wav,0,peel,542,28,4,5,Français,f,10,1.0,2.38207477,1.71648204
5ff865647dfb4303dc56d786,58,1,2024-02-28T15:01:38.555Z,english_185.wav,0,peel,542,28,4,5,Français,f,11,1.09391667,-48.42317698,0.84883975
5ff865647dfb4303dc56d786,59,1,2024-02-28T15:01:38.555Z,english_579.wav,0,pill,567,28,4,5,Français,f,0,0.0,-6.35392527,1.17195822
5ff865647dfb4303dc56d786,59,1,2024-02-28T15:01:38.555Z,english_579.wav,0,pill,567,28,4,5,Français,f,1,0.1,5.78092652,1.67817047
5ff865647dfb4303dc56d786,59,1,2024-02-28T15:01:38.555Z,english_579.wav,0,pill,567,28,4,5,Français,f,2,0.2,55.74149698,0.96512057
5ff865647dfb4303dc56d786,59,1,2024-02-28T15:01:38.555Z,english_579.wav,0,pill,567,28,4,5,Français,f,3,0.3,64.66054606,0.73760998
5ff865647dfb4303dc56d786,59,1,2024-02-28T15:01:38.555Z,english_579.wav,0,pill,567,28,4,5,Français,f,4,0.4,-20.37343055,0.24043414
5ff865647dfb4303dc56d786,59,1,2024-02-28T15:01:38.555Z,english_579.wav,0,pill,567,28,4,5,Français,f,5,0.5,97.55604333,0.0297902
5ff865647dfb4303dc56d786,59,1,2024-02-28T15:01:38.555Z,english_579.wav,0,pill,567,28,4,5,Français,f,6,0.6,-7.40313463,0.83835869
5ff865647dfb4303dc56d786,59,1,2024-02-28T15:01:38.555Z,english_579.wav,0,pill,567,28,4,5,Français,f,7,0.7,-9.7199121,0.36547932
5ff865647dfb4303dc56d786,59,1,2024-02-28T15:01:38.555Z,english_579.wav,0,pill,567,28,4,5,Français,f,8,0.8,-43.88557754,1.0786992
5ff865647dfb4303dc56d786,59,1,2024-02-28T15:01:38.555Z,english_579.wav,0,pill,567,28,4,5,Français,f,9,0.9,89.28129007,1.76340712
5ff865647dfb4303dc56d786,59,1,2024-02-28T15:01:38.555Z,english_579.wav,0,pill,567,28,4,5,Français,f,10,1.0,21.49927336,0.94339598
5ff865647dfb4303dc56d786,59,1,2024-02-28T15:01:38.555Z,english_579.wav,0,pill,567,28,4,5,Français,f,11,1.09391667,85.53999973,1.1220246
5ff865647dfb4303dc56d786,60,1,2024-02-28T15:01:38.555Z,english_291.wav,0,peel,2266,28,4,5,Français,f,0,0.0,-35.42543517,1.79657699
5ff865647dfb4303dc56d786,60,1,2024-02-28T15:01:38.555Z,english_291.wav,0,peel,2266,28,4,5,Français,f,1,0.1,-58.51846155,0.45193929
5ff865647dfb4303dc56d786,60,1,2024-02-28T15:01:38.555Z,english_291.wav,0,peel,2266,28,4,5,Français,f,2,0.2,-22.76348489,1.43927243
5ff865647dfb4303dc56d786,60,1,2024-02-28T15:01:38.555Z,english_291.wav,0,peel,2266,28,4,5,Français,f,3,0.3,19.21250817,0.51811893
5ff865647dfb4303dc56d786,60,1,2024-02-28T15:01:38.555Z,english_291.wav,0,peel,2266,28,4,5,Français,f,4,0.4,10.39547897,0.67991537
5ff865647dfb4303dc56d786,60,1,2024-02-28T15:01:38.555Z,english_291.wav,0,peel,2266,28,4,5,Français,f,5,0.5,-11.61823126,1.97176362
5ff865647dfb4303dc56d786,60,1,2024-02-28T15:01:38.555Z,english_291.wav,0,peel,2266,28,4,5,Français,f,6,0.6,-78.73745365,1.52786701
5ff865647dfb4303dc56d786,60,1,2024-02-28T15:01:38.555Z,english_291.wav,0,peel,2266,28,4,5,Français,f,7,0.7,-83.41752971,0.24358096
5ff865647dfb4303dc56d786,60,1,2024-02-28T15:01:38.555Z,english_291.wav,0,peel,2266,28,4,5,Français,f,8,0.8,27.65579478,0.76180969
5ff865647dfb4303dc56d786,60,1,2024-02-28T15:01:38.555Z,english_291.wav,0,peel,2266,28,4,5,Français,f,9,0.9,-91.79765348,0.40398826
5ff865647dfb4303dc56d786,60,1,2024-02-28T15:01:38.555Z,english_291.wav,0,peel,2266,28,4,5,Français,f,10,1.0,39.55856781,0.49665503
5ff865647dfb4303dc56d786,60,1,2024-02-28T15:01:38.555Z,english_291.wav,0,peel,2266,28,4,5,Français,f,11,1.09391667,64.357963,1.15353833
5ff865647dfb4303dc56d786,61,1,2024-02-28T15:01:38.555Z,english_66.wav,0,peel,1332,28,4,5,Français,f,0,0.0,73.54239792,1.39962355
5ff865647dfb4303dc56d786,61,1,2024-02-28T15:01:38.555Z,english_66.wav,0,peel,1332,28,4,5,Français,f,1,0.1,-24.02007983,0.40719393
5ff865647dfb4303dc56d786,61,1,2024-02-28T15:01:38.555Z,english_66.wav,0,peel,1332,28,4,5,Français,f,2,0.2,49.15082977,0.56009301
5ff865647dfb4303dc56d786,61,1,2024-02-28T15:01:38.555Z,english_66.wav,0,peel,1332,28,4,5,Français,f,3,0.3,59.25187184,0.88526938
5ff865647dfb4303dc56d786,61,1,2024-02-28T15:01:38.555Z,english_66.wav,0,peel,1332,28,4,5,Français,f,4,0.4,-38.45178026,0.20167751
5ff865647dfb4303dc56d786,61,1,2024-02-28T15:01:38.555Z,english_66.wav,0,peel,1332,28,4,5,Français,f,5,0.5,4.75457438,0.49978963
5ff865647dfb4303dc56d786,61,1,2024-02-28T15:01:38.555Z,english_66.wav,0,peel,1332,28,4,5,Français,f,6,0.6,46.25569394,1.58181975
5ff865647dfb4303dc56d786,61,1,2024-02-28T15:01:38.555Z,english_66.wav,0,peel,1332,28,4,5,Français,f,7,0.7,-60.4256139,0.73201225
5ff865647dfb4303dc56d786,61,1,2024-02-28T15:01:38.555Z,english_66.wav,0,peel,1332,28,4,5,Français,f,8,0.8,67.09047121,0.26938408
5ff865647dfb4303dc56d786,61,1,2024-02-28T15:01:38.555Z,english_66.wav,0,peel,1332,28,4,5,Français,f,9,0.9,88.85676661,1.15195977
5ff865647dfb4303dc56d786,61,1,2024-02-28T15:01:38.555Z,english_66.wav,0,peel,1332,28,4,5,Français,f,10,1.0,69.83029982,1.10937983
5ff865647dfb4303dc56d786,61,1,2024-02-28T15:01:38.555Z,english_66.wav,0,peel,1332,28,4,5,Français,f,11,1.09391667,35.36852194,1.70850229
5ff865647dfb4303dc56d786,62,1,2024-02-28T15:01:38.555Z,english_196.wav,0,peel,874,28,4,5,Français,f,0,0.0,2.02767746,0.52488194
5ff865647dfb4303dc56d786,62,1,2024-02-28T15:01:38.555Z,english_196.wav,0,peel,874,28,4,5,Français,f,1,0.1,-33.8864136,0.07938129
5ff865647dfb4303dc56d786,62,1,2024-02-28T15:01:38.555Z,english_196.wav,0,peel,874,28,4,5,Français,f,2,0.2,22.2108892,1.27880301
5ff865647dfb4303dc56d786,62,1,2024-02-28T15:01:38.555Z,english_196.wav,0,peel,874,28,4,5,Français,f,3,0.3,26.8443858,0.8345871
5ff865647dfb4303dc56d786,62,1,2024-02-28T15:01:38.555Z,english_196.wav,0,peel,874,28,4,5,Français,f,4,0.4,54.5751314,1.20448566
5ff865647dfb4303dc56d786,62,1,2024-02-28T15:01:38.555Z,english_196.wav,0,peel,874,28,4,5,Français,f,5,0.5,17.7209079,1.38294306
5ff865647dfb4303dc56d786,62,1,2024-02-28T15:01:38.555Z,english_196.wav,0,peel,874,28,4,5,Français,f,6,0.6,46.4311721,1.20996935
5ff865647dfb4303dc56d786,62,1,2024-02-28T15:01:38.555Z,english_196.wav,0,peel,874,28,4,5,Français,f,7,0.7,74.3025548,0.87104857
5ff865647dfb4303dc56d786,62,1,2024-02-28T15:01:38.555Z,english_196.wav,0,peel,874,28,4,5,Français,f,8,0.8,24.2178378,0.98676135
5ff865647dfb4303dc56d786,62,1,2024-02-28T15:01:38.555Z,english_196.wav,0,peel,874,28,4,5,Français,f,9,0.9,-0.0117232829,0.71720025
5ff865647dfb4303dc56d786,62,1,2024-02-28T15:01:38.555Z,english_196.wav,0,peel,874,28,4,5,Français,f,10,1.0,-55.3381983,1.3134078
5ff865647dfb4303dc56d786,62,1,2024-02-28T15:01:38.555Z,english_196.wav,0,peel,874,28,4,5,Français,f,11,1.09391667,-51.2005151,0.6531164
5ff865647dfb4303dc56d786,63,1,2024-02-28T15:01:38.555Z,english_925.wav,0,pill,510,28,4,5,Français,f,0,0.0,-84.57233467,1.00848694
5ff865647dfb4303dc56d786,63,1,2024-02-28T15:01:38.555Z,english_925.wav,0,pill,510,28,4,5,Français,f,1,0.1,-44.7314948,0.79986677
5ff865647dfb4303dc56d786,63,1,2024-02-28T15:01:38.555Z,english_925.wav,0,pill,510,28,4,5,Français,f,2,0.2,-21.76001852,1.01395723
5ff865647dfb4303dc56d786,63,1,2024-02-28T15:01:38.555Z,english_925.wav,0,pill,510,28,4,5,Français,f,3,0.3,58.94026315,0.40578686
5ff865647dfb4303dc56d786,63,1,2024-02-28T15:01:38.555Z,english_925.wav,0,pill,510,28,4,5,Français,f,4,0.4,68.109547,1.18343794
5ff865647dfb4303dc56d786,63,1,2024-02-28T15:01:38.555Z,english_925.wav,0,pill,510,28,4,5,Français,f,5,0.5,49.84786379,0.73791716
5ff865647dfb4303dc56d786,63,1,2024-02-28T15:01:38.555Z,english_925.wav,0,pill,510,28,4,5,Français,f,6,0.6,60.87486089,0.58895249
5ff865647dfb4303dc56d786,63,1,2024-02-28T15:01:38.555Z,english_925.wav,0,pill,510,28,4,5,Français,f,7,0.7,50.05197286,0.92214068
5ff865647dfb4303dc56d786,63,1,2024-02-28T15:01:38.555Z,english_925.wav,0,pill,510,28,4,5,Français,f,8,0.8,83.62089831,1.8971644
5ff865647dfb4303dc56d786,63,1,2024-02-28T15:01:38.555Z,english_925.wav,0,pill,510,28,4,5,Français,f,9,0.9,-6.54901241,1.57717007
5ff865647dfb4303dc56d786,63,1,2024-02-28T15:01:38.555Z,english_925.wav,0,pill,510,28,4,5,Français,f,10,1.0,59.32339342,1.06930768
