subj,trial,block,date,stim,stim_order,response,rt,age,english,french,language,sex,param_index,segment,pitch,stretch
5bc8dccd0f10750001d70a1c,0,0,2024-02-28T14:29:02.368Z,english_947.wav,0,pill,832,40,3,5,français,m,0,0.0,30.31601864,1.90953585
5bc8dccd0f10750001d70a1c,0,0,2024-02-28T14:29:02.368Z,english_947.wav,0,pill,832,40,3,5,français,m,1,0.1,-75.95641423,1.97785982
5bc8dccd0f10750001d70a1c,0,0,2024-02-28T14:29:02.368Z,english_947.wav,0,pill,832,40,3,5,français,m,2,0.2,54.94521645,0.82379025
5bc8dccd0f10750001d70a1c,0,0,2024-02-28T14:29:02.368Z,english_947.wav,0,pill,832,40,3,5,français,m,3,0.3,26.24562162,0.15379293
5bc8dccd0f10750001d70a1c,0,0,2024-02-28T14:29:02.368Z,english_947.wav,0,pill,832,40,3,5,français,m,4,0.4,54.40237068,1.01827888
5bc8dccd0f10750001d70a1c,0,0,2024-02-28T14:29:02.368Z,english_947.wav,0,pill,832,40,3,5,français,m,5,0.5,40.82679184,1.47839937
5bc8dccd0f10750001d70a1c,0,0,2024-02-28T14:29:02.368Z,english_947.wav,0,pill,832,40,3,5,français,m,6,0.6,77.31299723,1.20847868
5bc8dccd0f10750001d70a1c,0,0,2024-02-28T14:29:02.368Z,english_947.wav,0,pill,832,40,3,5,français,m,7,0.7,1.15315344,0.14564675
5bc8dccd0f10750001d70a1c,0,0,2024-02-28T14:29:02.368Z,english_947.wav,0,pill,832,40,3,5,français,m,8,0.8,73.19645095,0.87070751
5bc8dccd0f10750001d70a1c,0,0,2024-02-28T14:29:02.368Z,english_947.wav,0,pill,832,40,3,5,français,m,9,0.9,6.20643858,0.13653501
5bc8dccd0f10750001d70a1c,0,0,2024-02-28T14:29:02.368Z,english_947.wav,0,pill,832,40,3,5,français,m,10,1.0,28.66234598,0.34449422
5bc8dccd0f10750001d70a1c,0,0,2024-02-28T14:29:02.368Z,english_947.wav,0,pill,832,40,3,5,français,m,11,1.09391667,7.34981137,1.34190112
5bc8dccd0f10750001d70a1c,1,0,2024-02-28T14:29:02.368Z,english_194.wav,0,pill,110,40,3,5,français,m,0,0.0,56.78701541,1.42004802
5bc8dccd0f10750001d70a1c,1,0,2024-02-28T14:29:02.368Z,english_194.wav,0,pill,110,40,3,5,français,m,1,0.1,-17.75053988,0.01035796
5bc8dccd0f10750001d70a1c,1,0,2024-02-28T14:29:02.368Z,english_194.wav,0,pill,110,40,3,5,français,m,2,0.2,33.25886054,1.01435424
5bc8dccd0f10750001d70a1c,1,0,2024-02-28T14:29:02.368Z,english_194.wav,0,pill,110,40,3,5,français,m,3,0.3,-36.30427417,0.10390295
5bc8dccd0f10750001d70a1c,1,0,2024-02-28T14:29:02.368Z,english_194.wav,0,pill,110,40,3,5,français,m,4,0.4,87.2538064,0.79219746
5bc8dccd0f10750001d70a1c,1,0,2024-02-28T14:29:02.368Z,english_194.wav,0,pill,110,40,3,5,français,m,5,0.5,-35.38798336,0.28919857
5bc8dccd0f10750001d70a1c,1,0,2024-02-28T14:29:02.368Z,english_194.wav,0,pill,110,40,3,5,français,m,6,0.6,-16.86822867,1.14065301
5bc8dccd0f10750001d70a1c,1,0,2024-02-28T14:29:02.368Z,english_194.wav,0,pill,110,40,3,5,français,m,7,0.7,3.74513195,1.55329947
5bc8dccd0f10750001d70a1c,1,0,2024-02-28T14:29:02.368Z,english_194.wav,0,pill,110,40,3,5,français,m,8,0.8,-97.03953589,1.8735666
5bc8dccd0f10750001d70a1c,1,0,2024-02-28T14:29:02.368Z,english_194.wav,0,pill,110,40,3,5,français,m,9,0.9,-34.95000954,1.68004219
5bc8dccd0f10750001d70a1c,1,0,2024-02-28T14:29:02.368Z,english_194.wav,0,pill,110,40,3,5,français,m,10,1.0,41.79469937,0.7970796
5bc8dccd0f10750001d70a1c,1,0,2024-02-28T14:29:02.368Z,english_194.wav,0,pill,110,40,3,5,français,m,11,1.09391667,-99.09961294,1.89727803
5bc8dccd0f10750001d70a1c,2,0,2024-02-28T14:29:02.368Z,english_107.wav,0,pill,68,40,3,5,français,m,0,0.0,14.75106281,1.14538344
5bc8dccd0f10750001d70a1c,2,0,2024-02-28T14:29:02.368Z,english_107.wav,0,pill,68,40,3,5,français,m,1,0.1,61.55616618,1.63691709
5bc8dccd0f10750001d70a1c,2,0,2024-02-28T14:29:02.368Z,english_107.wav,0,pill,68,40,3,5,français,m,2,0.2,-53.67988365,1.34954163
5bc8dccd0f10750001d70a1c,2,0,2024-02-28T14:29:02.368Z,english_107.wav,0,pill,68,40,3,5,français,m,3,0.3,-26.40552644,0.87865188
5bc8dccd0f10750001d70a1c,2,0,2024-02-28T14:29:02.368Z,english_107.wav,0,pill,68,40,3,5,français,m,4,0.4,-39.74978172,0.87105183
5bc8dccd0f10750001d70a1c,2,0,2024-02-28T14:29:02.368Z,english_107.wav,0,pill,68,40,3,5,français,m,5,0.5,59.30152115,0.97837698
5bc8dccd0f10750001d70a1c,2,0,2024-02-28T14:29:02.368Z,english_107.wav,0,pill,68,40,3,5,français,m,6,0.6,47.78500901,0.24331513
5bc8dccd0f10750001d70a1c,2,0,2024-02-28T14:29:02.368Z,english_107.wav,0,pill,68,40,3,5,français,m,7,0.7,-56.28829924,1.31332622
5bc8dccd0f10750001d70a1c,2,0,2024-02-28T14:29:02.368Z,english_107.wav,0,pill,68,40,3,5,français,m,8,0.8,-27.92998764,1.65018095
5bc8dccd0f10750001d70a1c,2,0,2024-02-28T14:29:02.368Z,english_107.wav,0,pill,68,40,3,5,français,m,9,0.9,-79.09348068,0.9374591
5bc8dccd0f10750001d70a1c,2,0,2024-02-28T14:29:02.368Z,english_107.wav,0,pill,68,40,3,5,français,m,10,1.0,-12.41548757,1.20965119
5bc8dccd0f10750001d70a1c,2,0,2024-02-28T14:29:02.368Z,english_107.wav,0,pill,68,40,3,5,français,m,11,1.09391667,52.16057728,1.85980397
5bc8dccd0f10750001d70a1c,3,0,2024-02-28T14:29:02.368Z,english_442.wav,0,pill,105,40,3,5,français,m,0,0.0,-82.79812385,1.11396114
5bc8dccd0f10750001d70a1c,3,0,2024-02-28T14:29:02.368Z,english_442.wav,0,pill,105,40,3,5,français,m,1,0.1,13.26533661,1.75736632
5bc8dccd0f10750001d70a1c,3,0,2024-02-28T14:29:02.368Z,english_442.wav,0,pill,105,40,3,5,français,m,2,0.2,-27.77858548,0.50029201
5bc8dccd0f10750001d70a1c,3,0,2024-02-28T14:29:02.368Z,english_442.wav,0,pill,105,40,3,5,français,m,3,0.3,-8.21179447,0.94281284
5bc8dccd0f10750001d70a1c,3,0,2024-02-28T14:29:02.368Z,english_442.wav,0,pill,105,40,3,5,français,m,4,0.4,42.22985327,0.51943545
5bc8dccd0f10750001d70a1c,3,0,2024-02-28T14:29:02.368Z,english_442.wav,0,pill,105,40,3,5,français,m,5,0.5,28.42887923,1.6869371
5bc8dccd0f10750001d70a1c,3,0,2024-02-28T14:29:02.368Z,english_442.wav,0,pill,105,40,3,5,français,m,6,0.6,80.44970592,0.17301415
5bc8dccd0f10750001d70a1c,3,0,2024-02-28T14:29:02.368Z,english_442.wav,0,pill,105,40,3,5,français,m,7,0.7,21.26225147,1.48852219
5bc8dccd0f10750001d70a1c,3,0,2024-02-28T14:29:02.368Z,english_442.wav,0,pill,105,40,3,5,français,m,8,0.8,-37.93625661,1.01404105
5bc8dccd0f10750001d70a1c,3,0,2024-02-28T14:29:02.368Z,english_442.wav,0,pill,105,40,3,5,français,m,9,0.9,-26.7095537,1.17770211
5bc8dccd0f10750001d70a1c,3,0,2024-02-28T14:29:02.368Z,english_442.wav,0,pill,105,40,3,5,français,m,10,1.0,-21.16506099,1.73105649
5bc8dccd0f10750001d70a1c,3,0,2024-02-28T14:29:02.368Z,english_442.wav,0,pill,105,40,3,5,français,m,11,1.09391667,7.34933703,1.8720967
5bc8dccd0f10750001d70a1c,4,0,2024-02-28T14:29:02.368Z,english_295.wav,0,pill,140,40,3,5,français,m,0,0.0,-21.33588045,0.64007693
5bc8dccd0f10750001d70a1c,4,0,2024-02-28T14:29:02.368Z,english_295.wav,0,pill,140,40,3,5,français,m,1,0.1,28.18111365,0.36210443
5bc8dccd0f10750001d70a1c,4,0,2024-02-28T14:29:02.368Z,english_295.wav,0,pill,140,40,3,5,français,m,2,0.2,-11.21795953,0.97510536
5bc8dccd0f10750001d70a1c,4,0,2024-02-28T14:29:02.368Z,english_295.wav,0,pill,140,40,3,5,français,m,3,0.3,-75.82203472,1.22570619
5bc8dccd0f10750001d70a1c,4,0,2024-02-28T14:29:02.368Z,english_295.wav,0,pill,140,40,3,5,français,m,4,0.4,36.75980824,1.08813481
5bc8dccd0f10750001d70a1c,4,0,2024-02-28T14:29:02.368Z,english_295.wav,0,pill,140,40,3,5,français,m,5,0.5,82.52508149,1.82668288
5bc8dccd0f10750001d70a1c,4,0,2024-02-28T14:29:02.368Z,english_295.wav,0,pill,140,40,3,5,français,m,6,0.6,-2.95672331,0.03453598
5bc8dccd0f10750001d70a1c,4,0,2024-02-28T14:29:02.368Z,english_295.wav,0,pill,140,40,3,5,français,m,7,0.7,78.98755658,1.07945409
5bc8dccd0f10750001d70a1c,4,0,2024-02-28T14:29:02.368Z,english_295.wav,0,pill,140,40,3,5,français,m,8,0.8,34.02541903,0.06380248
5bc8dccd0f10750001d70a1c,4,0,2024-02-28T14:29:02.368Z,english_295.wav,0,pill,140,40,3,5,français,m,9,0.9,40.25185798,0.46673817
5bc8dccd0f10750001d70a1c,4,0,2024-02-28T14:29:02.368Z,english_295.wav,0,pill,140,40,3,5,français,m,10,1.0,-23.49198504,0.55804019
5bc8dccd0f10750001d70a1c,4,0,2024-02-28T14:29:02.368Z,english_295.wav,0,pill,140,40,3,5,français,m,11,1.09391667,43.4619086,0.67911388
5bc8dccd0f10750001d70a1c,5,0,2024-02-28T14:29:02.368Z,english_43.wav,0,peel,78,40,3,5,français,m,0,0.0,35.0853305,0.26027887
5bc8dccd0f10750001d70a1c,5,0,2024-02-28T14:29:02.368Z,english_43.wav,0,peel,78,40,3,5,français,m,1,0.1,-82.31052455,0.68956967
5bc8dccd0f10750001d70a1c,5,0,2024-02-28T14:29:02.368Z,english_43.wav,0,peel,78,40,3,5,français,m,2,0.2,-87.01844832,1.59168544
5bc8dccd0f10750001d70a1c,5,0,2024-02-28T14:29:02.368Z,english_43.wav,0,peel,78,40,3,5,français,m,3,0.3,35.19386066,0.50064201
5bc8dccd0f10750001d70a1c,5,0,2024-02-28T14:29:02.368Z,english_43.wav,0,peel,78,40,3,5,français,m,4,0.4,-6.50663416,1.69386915
5bc8dccd0f10750001d70a1c,5,0,2024-02-28T14:29:02.368Z,english_43.wav,0,peel,78,40,3,5,français,m,5,0.5,-43.93611532,1.13933047
5bc8dccd0f10750001d70a1c,5,0,2024-02-28T14:29:02.368Z,english_43.wav,0,peel,78,40,3,5,français,m,6,0.6,-73.49805581,1.51065435
5bc8dccd0f10750001d70a1c,5,0,2024-02-28T14:29:02.368Z,english_43.wav,0,peel,78,40,3,5,français,m,7,0.7,65.62731204,0.46562499
5bc8dccd0f10750001d70a1c,5,0,2024-02-28T14:29:02.368Z,english_43.wav,0,peel,78,40,3,5,français,m,8,0.8,-40.13292878,1.37756628
5bc8dccd0f10750001d70a1c,5,0,2024-02-28T14:29:02.368Z,english_43.wav,0,peel,78,40,3,5,français,m,9,0.9,-82.04161205,0.8121578
5bc8dccd0f10750001d70a1c,5,0,2024-02-28T14:29:02.368Z,english_43.wav,0,peel,78,40,3,5,français,m,10,1.0,51.94207196,0.36046396
5bc8dccd0f10750001d70a1c,5,0,2024-02-28T14:29:02.368Z,english_43.wav,0,peel,78,40,3,5,français,m,11,1.09391667,-30.06023569,0.31346917
5bc8dccd0f10750001d70a1c,6,0,2024-02-28T14:29:02.368Z,english_701.wav,0,pill,9,40,3,5,français,m,0,0.0,-93.84804117,0.47905205
5bc8dccd0f10750001d70a1c,6,0,2024-02-28T14:29:02.368Z,english_701.wav,0,pill,9,40,3,5,français,m,1,0.1,-77.23912918,0.43335114
5bc8dccd0f10750001d70a1c,6,0,2024-02-28T14:29:02.368Z,english_701.wav,0,pill,9,40,3,5,français,m,2,0.2,-45.57356693,0.98258142
5bc8dccd0f10750001d70a1c,6,0,2024-02-28T14:29:02.368Z,english_701.wav,0,pill,9,40,3,5,français,m,3,0.3,-80.33366172,1.56424934
5bc8dccd0f10750001d70a1c,6,0,2024-02-28T14:29:02.368Z,english_701.wav,0,pill,9,40,3,5,français,m,4,0.4,95.38038132,1.99053476
5bc8dccd0f10750001d70a1c,6,0,2024-02-28T14:29:02.368Z,english_701.wav,0,pill,9,40,3,5,français,m,5,0.5,43.37257018,1.06230172
5bc8dccd0f10750001d70a1c,6,0,2024-02-28T14:29:02.368Z,english_701.wav,0,pill,9,40,3,5,français,m,6,0.6,20.80863296,1.81617496
5bc8dccd0f10750001d70a1c,6,0,2024-02-28T14:29:02.368Z,english_701.wav,0,pill,9,40,3,5,français,m,7,0.7,-74.49587502,0.70378114
5bc8dccd0f10750001d70a1c,6,0,2024-02-28T14:29:02.368Z,english_701.wav,0,pill,9,40,3,5,français,m,8,0.8,53.82285156,1.40362465
5bc8dccd0f10750001d70a1c,6,0,2024-02-28T14:29:02.368Z,english_701.wav,0,pill,9,40,3,5,français,m,9,0.9,86.20229822,0.70617413
5bc8dccd0f10750001d70a1c,6,0,2024-02-28T14:29:02.368Z,english_701.wav,0,pill,9,40,3,5,français,m,10,1.0,-84.46214873,0.74798843
5bc8dccd0f10750001d70a1c,6,0,2024-02-28T14:29:02.368Z,english_701.wav,0,pill,9,40,3,5,français,m,11,1.09391667,1.75691035,0.6850293
5bc8dccd0f10750001d70a1c,7,0,2024-02-28T14:29:02.368Z,english_480.wav,0,pill,73,40,3,5,français,m,0,0.0,9.88794778,0.87231247
5bc8dccd0f10750001d70a1c,7,0,2024-02-28T14:29:02.368Z,english_480.wav,0,pill,73,40,3,5,français,m,1,0.1,-95.33959947,0.98456716
5bc8dccd0f10750001d70a1c,7,0,2024-02-28T14:29:02.368Z,english_480.wav,0,pill,73,40,3,5,français,m,2,0.2,-71.35423478,0.16901934
5bc8dccd0f10750001d70a1c,7,0,2024-02-28T14:29:02.368Z,english_480.wav,0,pill,73,40,3,5,français,m,3,0.3,-83.02465504,0.73359769
5bc8dccd0f10750001d70a1c,7,0,2024-02-28T14:29:02.368Z,english_480.wav,0,pill,73,40,3,5,français,m,4,0.4,44.94534434,1.77352581
5bc8dccd0f10750001d70a1c,7,0,2024-02-28T14:29:02.368Z,english_480.wav,0,pill,73,40,3,5,français,m,5,0.5,90.60802244,0.80191765
5bc8dccd0f10750001d70a1c,7,0,2024-02-28T14:29:02.368Z,english_480.wav,0,pill,73,40,3,5,français,m,6,0.6,-21.26982867,1.98344476
5bc8dccd0f10750001d70a1c,7,0,2024-02-28T14:29:02.368Z,english_480.wav,0,pill,73,40,3,5,français,m,7,0.7,9.71569321,1.54524915
5bc8dccd0f10750001d70a1c,7,0,2024-02-28T14:29:02.368Z,english_480.wav,0,pill,73,40,3,5,français,m,8,0.8,-55.27404123,1.67546329
5bc8dccd0f10750001d70a1c,7,0,2024-02-28T14:29:02.368Z,english_480.wav,0,pill,73,40,3,5,français,m,9,0.9,-2.41346819,1.13666865
5bc8dccd0f10750001d70a1c,7,0,2024-02-28T14:29:02.368Z,english_480.wav,0,pill,73,40,3,5,français,m,10,1.0,56.20871311,1.61861075
5bc8dccd0f10750001d70a1c,7,0,2024-02-28T14:29:02.368Z,english_480.wav,0,pill,73,40,3,5,français,m,11,1.09391667,-52.83193459,1.31490021
5bc8dccd0f10750001d70a1c,8,0,2024-02-28T14:29:02.368Z,english_857.wav,0,pill,167,40,3,5,français,m,0,0.0,-56.93168928,1.92395656
5bc8dccd0f10750001d70a1c,8,0,2024-02-28T14:29:02.368Z,english_857.wav,0,pill,167,40,3,5,français,m,1,0.1,-40.57515649,1.41156549
5bc8dccd0f10750001d70a1c,8,0,2024-02-28T14:29:02.368Z,english_857.wav,0,pill,167,40,3,5,français,m,2,0.2,-26.26283105,0.14185194
5bc8dccd0f10750001d70a1c,8,0,2024-02-28T14:29:02.368Z,english_857.wav,0,pill,167,40,3,5,français,m,3,0.3,-49.62797955,1.1985334
5bc8dccd0f10750001d70a1c,8,0,2024-02-28T14:29:02.368Z,english_857.wav,0,pill,167,40,3,5,français,m,4,0.4,47.07146778,0.83326814
5bc8dccd0f10750001d70a1c,8,0,2024-02-28T14:29:02.368Z,english_857.wav,0,pill,167,40,3,5,français,m,5,0.5,-96.41882062,0.71224123
5bc8dccd0f10750001d70a1c,8,0,2024-02-28T14:29:02.368Z,english_857.wav,0,pill,167,40,3,5,français,m,6,0.6,63.09662026,1.58040322
5bc8dccd0f10750001d70a1c,8,0,2024-02-28T14:29:02.368Z,english_857.wav,0,pill,167,40,3,5,français,m,7,0.7,98.67053018,1.02327595
5bc8dccd0f10750001d70a1c,8,0,2024-02-28T14:29:02.368Z,english_857.wav,0,pill,167,40,3,5,français,m,8,0.8,-56.85749065,1.48703987
5bc8dccd0f10750001d70a1c,8,0,2024-02-28T14:29:02.368Z,english_857.wav,0,pill,167,40,3,5,français,m,9,0.9,-18.03690135,0.70290333
5bc8dccd0f10750001d70a1c,8,0,2024-02-28T14:29:02.368Z,english_857.wav,0,pill,167,40,3,5,français,m,10,1.0,52.13097753,0.53460392
5bc8dccd0f10750001d70a1c,8,0,2024-02-28T14:29:02.368Z,english_857.wav,0,pill,167,40,3,5,français,m,11,1.09391667,52.54650928,1.10851945
5bc8dccd0f10750001d70a1c,9,0,2024-02-28T14:29:02.368Z,english_908.wav,0,peel,75,40,3,5,français,m,0,0.0,79.90322555,1.59871196
5bc8dccd0f10750001d70a1c,9,0,2024-02-28T14:29:02.368Z,english_908.wav,0,peel,75,40,3,5,français,m,1,0.1,-35.21263137,0.28479508
5bc8dccd0f10750001d70a1c,9,0,2024-02-28T14:29:02.368Z,english_908.wav,0,peel,75,40,3,5,français,m,2,0.2,-45.3814443,1.09874794
5bc8dccd0f10750001d70a1c,9,0,2024-02-28T14:29:02.368Z,english_908.wav,0,peel,75,40,3,5,français,m,3,0.3,27.76250809,0.00174433
5bc8dccd0f10750001d70a1c,9,0,2024-02-28T14:29:02.368Z,english_908.wav,0,peel,75,40,3,5,français,m,4,0.4,88.9030614,0.67512833
5bc8dccd0f10750001d70a1c,9,0,2024-02-28T14:29:02.368Z,english_908.wav,0,peel,75,40,3,5,français,m,5,0.5,-61.85553308,0.00194264
5bc8dccd0f10750001d70a1c,9,0,2024-02-28T14:29:02.368Z,english_908.wav,0,peel,75,40,3,5,français,m,6,0.6,-81.1964681,0.8304753
5bc8dccd0f10750001d70a1c,9,0,2024-02-28T14:29:02.368Z,english_908.wav,0,peel,75,40,3,5,français,m,7,0.7,5.34087676,1.28348369
5bc8dccd0f10750001d70a1c,9,0,2024-02-28T14:29:02.368Z,english_908.wav,0,peel,75,40,3,5,français,m,8,0.8,54.78811936,0.55017108
5bc8dccd0f10750001d70a1c,9,0,2024-02-28T14:29:02.368Z,english_908.wav,0,peel,75,40,3,5,français,m,9,0.9,-31.27071111,1.59638521
5bc8dccd0f10750001d70a1c,9,0,2024-02-28T14:29:02.368Z,english_908.wav,0,peel,75,40,3,5,français,m,10,1.0,-53.95963771,1.63592826
5bc8dccd0f10750001d70a1c,9,0,2024-02-28T14:29:02.368Z,english_908.wav,0,peel,75,40,3,5,français,m,11,1.09391667,80.48331988,1.14767612
5bc8dccd0f10750001d70a1c,10,0,2024-02-28T14:29:02.368Z,english_75.wav,0,peel,27,40,3,5,français,m,0,0.0,65.41838677,1.57781759
5bc8dccd0f10750001d70a1c,10,0,2024-02-28T14:29:02.368Z,english_75.wav,0,peel,27,40,3,5,français,m,1,0.1,-26.14209168,0.77148349
5bc8dccd0f10750001d70a1c,10,0,2024-02-28T14:29:02.368Z,english_75.wav,0,peel,27,40,3,5,français,m,2,0.2,-26.49286349,1.21755239
5bc8dccd0f10750001d70a1c,10,0,2024-02-28T14:29:02.368Z,english_75.wav,0,peel,27,40,3,5,français,m,3,0.3,24.3393517,1.81969944
5bc8dccd0f10750001d70a1c,10,0,2024-02-28T14:29:02.368Z,english_75.wav,0,peel,27,40,3,5,français,m,4,0.4,41.72589255,1.02092036
5bc8dccd0f10750001d70a1c,10,0,2024-02-28T14:29:02.368Z,english_75.wav,0,peel,27,40,3,5,français,m,5,0.5,5.99778054,0.99503371
5bc8dccd0f10750001d70a1c,10,0,2024-02-28T14:29:02.368Z,english_75.wav,0,peel,27,40,3,5,français,m,6,0.6,-80.58181045,0.23100369
5bc8dccd0f10750001d70a1c,10,0,2024-02-28T14:29:02.368Z,english_75.wav,0,peel,27,40,3,5,français,m,7,0.7,-99.66211708,0.28893428
5bc8dccd0f10750001d70a1c,10,0,2024-02-28T14:29:02.368Z,english_75.wav,0,peel,27,40,3,5,français,m,8,0.8,55.65408757,1.5775207
5bc8dccd0f10750001d70a1c,10,0,2024-02-28T14:29:02.368Z,english_75.wav,0,peel,27,40,3,5,français,m,9,0.9,95.67727499,1.18557327
5bc8dccd0f10750001d70a1c,10,0,2024-02-28T14:29:02.368Z,english_75.wav,0,peel,27,40,3,5,français,m,10,1.0,-83.58076108,0.49264005
5bc8dccd0f10750001d70a1c,10,0,2024-02-28T14:29:02.368Z,english_75.wav,0,peel,27,40,3,5,français,m,11,1.09391667,-10.73672479,0.18205409
5bc8dccd0f10750001d70a1c,11,0,2024-02-28T14:29:02.368Z,english_293.wav,0,peel,91,40,3,5,français,m,0,0.0,-41.6717185,1.35571263
5bc8dccd0f10750001d70a1c,11,0,2024-02-28T14:29:02.368Z,english_293.wav,0,peel,91,40,3,5,français,m,1,0.1,80.2291893,0.51147984
5bc8dccd0f10750001d70a1c,11,0,2024-02-28T14:29:02.368Z,english_293.wav,0,peel,91,40,3,5,français,m,2,0.2,-71.0140068,0.41951934
5bc8dccd0f10750001d70a1c,11,0,2024-02-28T14:29:02.368Z,english_293.wav,0,peel,91,40,3,5,français,m,3,0.3,-90.64066123,0.6442562
5bc8dccd0f10750001d70a1c,11,0,2024-02-28T14:29:02.368Z,english_293.wav,0,peel,91,40,3,5,français,m,4,0.4,-6.53332233,0.98522539
5bc8dccd0f10750001d70a1c,11,0,2024-02-28T14:29:02.368Z,english_293.wav,0,peel,91,40,3,5,français,m,5,0.5,-9.32979117,0.92132945
5bc8dccd0f10750001d70a1c,11,0,2024-02-28T14:29:02.368Z,english_293.wav,0,peel,91,40,3,5,français,m,6,0.6,53.89735235,1.4753131
5bc8dccd0f10750001d70a1c,11,0,2024-02-28T14:29:02.368Z,english_293.wav,0,peel,91,40,3,5,français,m,7,0.7,-63.4364313,0.11499708
5bc8dccd0f10750001d70a1c,11,0,2024-02-28T14:29:02.368Z,english_293.wav,0,peel,91,40,3,5,français,m,8,0.8,-96.19547901,1.03841664
5bc8dccd0f10750001d70a1c,11,0,2024-02-28T14:29:02.368Z,english_293.wav,0,peel,91,40,3,5,français,m,9,0.9,-36.41686224,1.94583411
5bc8dccd0f10750001d70a1c,11,0,2024-02-28T14:29:02.368Z,english_293.wav,0,peel,91,40,3,5,français,m,10,1.0,99.46412477,0.65545153
5bc8dccd0f10750001d70a1c,11,0,2024-02-28T14:29:02.368Z,english_293.wav,0,peel,91,40,3,5,français,m,11,1.09391667,17.36040502,1.59979165
5bc8dccd0f10750001d70a1c,12,0,2024-02-28T14:29:02.368Z,english_358.wav,0,pill,37,40,3,5,français,m,0,0.0,92.28677649,0.81523353
5bc8dccd0f10750001d70a1c,12,0,2024-02-28T14:29:02.368Z,english_358.wav,0,pill,37,40,3,5,français,m,1,0.1,-12.9582866,0.40862617
5bc8dccd0f10750001d70a1c,12,0,2024-02-28T14:29:02.368Z,english_358.wav,0,pill,37,40,3,5,français,m,2,0.2,-98.82534689,0.64915378
5bc8dccd0f10750001d70a1c,12,0,2024-02-28T14:29:02.368Z,english_358.wav,0,pill,37,40,3,5,français,m,3,0.3,-63.08847482,1.66113288
5bc8dccd0f10750001d70a1c,12,0,2024-02-28T14:29:02.368Z,english_358.wav,0,pill,37,40,3,5,français,m,4,0.4,92.88960715,0.52783471
5bc8dccd0f10750001d70a1c,12,0,2024-02-28T14:29:02.368Z,english_358.wav,0,pill,37,40,3,5,français,m,5,0.5,40.59705886,0.06151942
5bc8dccd0f10750001d70a1c,12,0,2024-02-28T14:29:02.368Z,english_358.wav,0,pill,37,40,3,5,français,m,6,0.6,-76.45051274,0.90334042
5bc8dccd0f10750001d70a1c,12,0,2024-02-28T14:29:02.368Z,english_358.wav,0,pill,37,40,3,5,français,m,7,0.7,-92.98382241,0.974558
5bc8dccd0f10750001d70a1c,12,0,2024-02-28T14:29:02.368Z,english_358.wav,0,pill,37,40,3,5,français,m,8,0.8,-79.17872568,1.86712718
5bc8dccd0f10750001d70a1c,12,0,2024-02-28T14:29:02.368Z,english_358.wav,0,pill,37,40,3,5,français,m,9,0.9,63.6003007,1.75794987
5bc8dccd0f10750001d70a1c,12,0,2024-02-28T14:29:02.368Z,english_358.wav,0,pill,37,40,3,5,français,m,10,1.0,-21.46486279,1.76155667
5bc8dccd0f10750001d70a1c,12,0,2024-02-28T14:29:02.368Z,english_358.wav,0,pill,37,40,3,5,français,m,11,1.09391667,94.02075741,1.61274026
5bc8dccd0f10750001d70a1c,13,0,2024-02-28T14:29:02.368Z,english_925.wav,0,peel,122,40,3,5,français,m,0,0.0,-84.57233467,1.00848694
5bc8dccd0f10750001d70a1c,13,0,2024-02-28T14:29:02.368Z,english_925.wav,0,peel,122,40,3,5,français,m,1,0.1,-44.7314948,0.79986677
5bc8dccd0f10750001d70a1c,13,0,2024-02-28T14:29:02.368Z,english_925.wav,0,peel,122,40,3,5,français,m,2,0.2,-21.76001852,1.01395723
5bc8dccd0f10750001d70a1c,13,0,2024-02-28T14:29:02.368Z,english_925.wav,0,peel,122,40,3,5,français,m,3,0.3,58.94026315,0.40578686
5bc8dccd0f10750001d70a1c,13,0,2024-02-28T14:29:02.368Z,english_925.wav,0,peel,122,40,3,5,français,m,4,0.4,68.109547,1.18343794
5bc8dccd0f10750001d70a1c,13,0,2024-02-28T14:29:02.368Z,english_925.wav,0,peel,122,40,3,5,français,m,5,0.5,49.84786379,0.73791716
5bc8dccd0f10750001d70a1c,13,0,2024-02-28T14:29:02.368Z,english_925.wav,0,peel,122,40,3,5,français,m,6,0.6,60.87486089,0.58895249
5bc8dccd0f10750001d70a1c,13,0,2024-02-28T14:29:02.368Z,english_925.wav,0,peel,122,40,3,5,français,m,7,0.7,50.05197286,0.92214068
5bc8dccd0f10750001d70a1c,13,0,2024-02-28T14:29:02.368Z,english_925.wav,0,peel,122,40,3,5,français,m,8,0.8,83.62089831,1.8971644
5bc8dccd0f10750001d70a1c,13,0,2024-02-28T14:29:02.368Z,english_925.wav,0,peel,122,40,3,5,français,m,9,0.9,-6.54901241,1.57717007
5bc8dccd0f10750001d70a1c,13,0,2024-02-28T14:29:02.368Z,english_925.wav,0,peel,122,40,3,5,français,m,10,1.0,59.32339342,1.06930768
5bc8dccd0f10750001d70a1c,13,0,2024-02-28T14:29:02.368Z,english_925.wav,0,peel,122,40,3,5,français,m,11,1.09391667,-66.08603468,1.74149988
5bc8dccd0f10750001d70a1c,14,0,2024-02-28T14:29:02.368Z,english_481.wav,0,pill,85,40,3,5,français,m,0,0.0,12.53874901,1.58204947
5bc8dccd0f10750001d70a1c,14,0,2024-02-28T14:29:02.368Z,english_481.wav,0,pill,85,40,3,5,français,m,1,0.1,-9.84524601,0.30197463
5bc8dccd0f10750001d70a1c,14,0,2024-02-28T14:29:02.368Z,english_481.wav,0,pill,85,40,3,5,français,m,2,0.2,-28.69081604,1.36929082
5bc8dccd0f10750001d70a1c,14,0,2024-02-28T14:29:02.368Z,english_481.wav,0,pill,85,40,3,5,français,m,3,0.3,-3.98654711,1.57950224
5bc8dccd0f10750001d70a1c,14,0,2024-02-28T14:29:02.368Z,english_481.wav,0,pill,85,40,3,5,français,m,4,0.4,-31.85582808,1.64821008
5bc8dccd0f10750001d70a1c,14,0,2024-02-28T14:29:02.368Z,english_481.wav,0,pill,85,40,3,5,français,m,5,0.5,-60.66158974,1.40708
5bc8dccd0f10750001d70a1c,14,0,2024-02-28T14:29:02.368Z,english_481.wav,0,pill,85,40,3,5,français,m,6,0.6,37.08553698,0.90705567
5bc8dccd0f10750001d70a1c,14,0,2024-02-28T14:29:02.368Z,english_481.wav,0,pill,85,40,3,5,français,m,7,0.7,-55.30747295,0.62618862
5bc8dccd0f10750001d70a1c,14,0,2024-02-28T14:29:02.368Z,english_481.wav,0,pill,85,40,3,5,français,m,8,0.8,79.95944373,0.10659235
5bc8dccd0f10750001d70a1c,14,0,2024-02-28T14:29:02.368Z,english_481.wav,0,pill,85,40,3,5,français,m,9,0.9,16.93049167,0.31824417
5bc8dccd0f10750001d70a1c,14,0,2024-02-28T14:29:02.368Z,english_481.wav,0,pill,85,40,3,5,français,m,10,1.0,2.57902723,0.18714767
5bc8dccd0f10750001d70a1c,14,0,2024-02-28T14:29:02.368Z,english_481.wav,0,pill,85,40,3,5,français,m,11,1.09391667,9.37320396,0.57978015
5bc8dccd0f10750001d70a1c,15,0,2024-02-28T14:29:02.368Z,english_419.wav,0,peel,102,40,3,5,français,m,0,0.0,-43.56677124,1.2135263
5bc8dccd0f10750001d70a1c,15,0,2024-02-28T14:29:02.368Z,english_419.wav,0,peel,102,40,3,5,français,m,1,0.1,-83.21546868,0.41335372
5bc8dccd0f10750001d70a1c,15,0,2024-02-28T14:29:02.368Z,english_419.wav,0,peel,102,40,3,5,français,m,2,0.2,-41.54064667,1.17083651
5bc8dccd0f10750001d70a1c,15,0,2024-02-28T14:29:02.368Z,english_419.wav,0,peel,102,40,3,5,français,m,3,0.3,-35.81330599,0.87264028
5bc8dccd0f10750001d70a1c,15,0,2024-02-28T14:29:02.368Z,english_419.wav,0,peel,102,40,3,5,français,m,4,0.4,-43.55129097,0.34128763
5bc8dccd0f10750001d70a1c,15,0,2024-02-28T14:29:02.368Z,english_419.wav,0,peel,102,40,3,5,français,m,5,0.5,-33.79077662,1.24788402
5bc8dccd0f10750001d70a1c,15,0,2024-02-28T14:29:02.368Z,english_419.wav,0,peel,102,40,3,5,français,m,6,0.6,70.44881048,0.43489623
5bc8dccd0f10750001d70a1c,15,0,2024-02-28T14:29:02.368Z,english_419.wav,0,peel,102,40,3,5,français,m,7,0.7,3.24826562,0.29781148
5bc8dccd0f10750001d70a1c,15,0,2024-02-28T14:29:02.368Z,english_419.wav,0,peel,102,40,3,5,français,m,8,0.8,34.80296655,1.73156921
5bc8dccd0f10750001d70a1c,15,0,2024-02-28T14:29:02.368Z,english_419.wav,0,peel,102,40,3,5,français,m,9,0.9,-7.36062238,1.52997649
5bc8dccd0f10750001d70a1c,15,0,2024-02-28T14:29:02.368Z,english_419.wav,0,peel,102,40,3,5,français,m,10,1.0,41.00092789,0.32887005
5bc8dccd0f10750001d70a1c,15,0,2024-02-28T14:29:02.368Z,english_419.wav,0,peel,102,40,3,5,français,m,11,1.09391667,-17.62948534,0.83665111
5bc8dccd0f10750001d70a1c,16,0,2024-02-28T14:29:02.368Z,english_365.wav,0,pill,80,40,3,5,français,m,0,0.0,-13.81078305,1.74540369
5bc8dccd0f10750001d70a1c,16,0,2024-02-28T14:29:02.368Z,english_365.wav,0,pill,80,40,3,5,français,m,1,0.1,10.90636048,0.64746191
5bc8dccd0f10750001d70a1c,16,0,2024-02-28T14:29:02.368Z,english_365.wav,0,pill,80,40,3,5,français,m,2,0.2,71.51010514,0.6414627
5bc8dccd0f10750001d70a1c,16,0,2024-02-28T14:29:02.368Z,english_365.wav,0,pill,80,40,3,5,français,m,3,0.3,42.52309231,0.02436054
5bc8dccd0f10750001d70a1c,16,0,2024-02-28T14:29:02.368Z,english_365.wav,0,pill,80,40,3,5,français,m,4,0.4,61.30753847,0.53231596
5bc8dccd0f10750001d70a1c,16,0,2024-02-28T14:29:02.368Z,english_365.wav,0,pill,80,40,3,5,français,m,5,0.5,-34.48448602,1.68146763
5bc8dccd0f10750001d70a1c,16,0,2024-02-28T14:29:02.368Z,english_365.wav,0,pill,80,40,3,5,français,m,6,0.6,35.84346113,1.59056588
5bc8dccd0f10750001d70a1c,16,0,2024-02-28T14:29:02.368Z,english_365.wav,0,pill,80,40,3,5,français,m,7,0.7,-56.39981073,1.84748389
5bc8dccd0f10750001d70a1c,16,0,2024-02-28T14:29:02.368Z,english_365.wav,0,pill,80,40,3,5,français,m,8,0.8,-86.58866218,1.51888636
5bc8dccd0f10750001d70a1c,16,0,2024-02-28T14:29:02.368Z,english_365.wav,0,pill,80,40,3,5,français,m,9,0.9,-51.1308372,0.50507437
5bc8dccd0f10750001d70a1c,16,0,2024-02-28T14:29:02.368Z,english_365.wav,0,pill,80,40,3,5,français,m,10,1.0,-44.59979753,1.32144417
5bc8dccd0f10750001d70a1c,16,0,2024-02-28T14:29:02.368Z,english_365.wav,0,pill,80,40,3,5,français,m,11,1.09391667,99.72573964,1.70632081
5bc8dccd0f10750001d70a1c,17,0,2024-02-28T14:29:02.368Z,english_569.wav,0,pill,171,40,3,5,français,m,0,0.0,80.86242067,1.33421849
5bc8dccd0f10750001d70a1c,17,0,2024-02-28T14:29:02.368Z,english_569.wav,0,pill,171,40,3,5,français,m,1,0.1,-36.85440805,1.5057291
5bc8dccd0f10750001d70a1c,17,0,2024-02-28T14:29:02.368Z,english_569.wav,0,pill,171,40,3,5,français,m,2,0.2,55.48604093,1.7838276
5bc8dccd0f10750001d70a1c,17,0,2024-02-28T14:29:02.368Z,english_569.wav,0,pill,171,40,3,5,français,m,3,0.3,-32.48832212,0.34502948
5bc8dccd0f10750001d70a1c,17,0,2024-02-28T14:29:02.368Z,english_569.wav,0,pill,171,40,3,5,français,m,4,0.4,34.47022209,1.33242051
5bc8dccd0f10750001d70a1c,17,0,2024-02-28T14:29:02.368Z,english_569.wav,0,pill,171,40,3,5,français,m,5,0.5,23.79827115,0.68239412
5bc8dccd0f10750001d70a1c,17,0,2024-02-28T14:29:02.368Z,english_569.wav,0,pill,171,40,3,5,français,m,6,0.6,-29.60411728,1.41145095
5bc8dccd0f10750001d70a1c,17,0,2024-02-28T14:29:02.368Z,english_569.wav,0,pill,171,40,3,5,français,m,7,0.7,-3.34902879,0.70703372
5bc8dccd0f10750001d70a1c,17,0,2024-02-28T14:29:02.368Z,english_569.wav,0,pill,171,40,3,5,français,m,8,0.8,-24.14207397,0.57539158
5bc8dccd0f10750001d70a1c,17,0,2024-02-28T14:29:02.368Z,english_569.wav,0,pill,171,40,3,5,français,m,9,0.9,49.40170215,1.31553206
5bc8dccd0f10750001d70a1c,17,0,2024-02-28T14:29:02.368Z,english_569.wav,0,pill,171,40,3,5,français,m,10,1.0,34.30113072,0.57675215
5bc8dccd0f10750001d70a1c,17,0,2024-02-28T14:29:02.368Z,english_569.wav,0,pill,171,40,3,5,français,m,11,1.09391667,-89.06013863,1.91555697
5bc8dccd0f10750001d70a1c,18,0,2024-02-28T14:29:02.368Z,english_532.wav,0,peel,71,40,3,5,français,m,0,0.0,60.85707462,0.2444237
5bc8dccd0f10750001d70a1c,18,0,2024-02-28T14:29:02.368Z,english_532.wav,0,peel,71,40,3,5,français,m,1,0.1,13.03416057,1.53493401
5bc8dccd0f10750001d70a1c,18,0,2024-02-28T14:29:02.368Z,english_532.wav,0,peel,71,40,3,5,français,m,2,0.2,-48.45411351,1.45787945
5bc8dccd0f10750001d70a1c,18,0,2024-02-28T14:29:02.368Z,english_532.wav,0,peel,71,40,3,5,français,m,3,0.3,16.77450497,0.11915761
5bc8dccd0f10750001d70a1c,18,0,2024-02-28T14:29:02.368Z,english_532.wav,0,peel,71,40,3,5,français,m,4,0.4,-7.6707259,0.99575033
5bc8dccd0f10750001d70a1c,18,0,2024-02-28T14:29:02.368Z,english_532.wav,0,peel,71,40,3,5,français,m,5,0.5,-84.48187603,1.34203353
5bc8dccd0f10750001d70a1c,18,0,2024-02-28T14:29:02.368Z,english_532.wav,0,peel,71,40,3,5,français,m,6,0.6,-5.50880589,0.42679286
5bc8dccd0f10750001d70a1c,18,0,2024-02-28T14:29:02.368Z,english_532.wav,0,peel,71,40,3,5,français,m,7,0.7,-53.77002933,1.97733711
5bc8dccd0f10750001d70a1c,18,0,2024-02-28T14:29:02.368Z,english_532.wav,0,peel,71,40,3,5,français,m,8,0.8,11.75325856,0.79534295
5bc8dccd0f10750001d70a1c,18,0,2024-02-28T14:29:02.368Z,english_532.wav,0,peel,71,40,3,5,français,m,9,0.9,41.28277306,0.9990701
5bc8dccd0f10750001d70a1c,18,0,2024-02-28T14:29:02.368Z,english_532.wav,0,peel,71,40,3,5,français,m,10,1.0,14.79272929,1.48802156
5bc8dccd0f10750001d70a1c,18,0,2024-02-28T14:29:02.368Z,english_532.wav,0,peel,71,40,3,5,français,m,11,1.09391667,-15.59183139,0.74270144
5bc8dccd0f10750001d70a1c,19,0,2024-02-28T14:29:02.368Z,english_13.wav,0,peel,34,40,3,5,français,m,0,0.0,64.38962342,1.00112645
5bc8dccd0f10750001d70a1c,19,0,2024-02-28T14:29:02.368Z,english_13.wav,0,peel,34,40,3,5,français,m,1,0.1,-51.8551163,1.06925212
5bc8dccd0f10750001d70a1c,19,0,2024-02-28T14:29:02.368Z,english_13.wav,0,peel,34,40,3,5,français,m,2,0.2,-2.17663011,1.94512736
5bc8dccd0f10750001d70a1c,19,0,2024-02-28T14:29:02.368Z,english_13.wav,0,peel,34,40,3,5,français,m,3,0.3,58.1527086,1.38458927
5bc8dccd0f10750001d70a1c,19,0,2024-02-28T14:29:02.368Z,english_13.wav,0,peel,34,40,3,5,français,m,4,0.4,-46.96650895,1.28889459
5bc8dccd0f10750001d70a1c,19,0,2024-02-28T14:29:02.368Z,english_13.wav,0,peel,34,40,3,5,français,m,5,0.5,-16.57361125,1.54024857
5bc8dccd0f10750001d70a1c,19,0,2024-02-28T14:29:02.368Z,english_13.wav,0,peel,34,40,3,5,français,m,6,0.6,75.93348377,1.09201657
5bc8dccd0f10750001d70a1c,19,0,2024-02-28T14:29:02.368Z,english_13.wav,0,peel,34,40,3,5,français,m,7,0.7,19.1912547,0.41927036
5bc8dccd0f10750001d70a1c,19,0,2024-02-28T14:29:02.368Z,english_13.wav,0,peel,34,40,3,5,français,m,8,0.8,-13.17481254,0.35094068
5bc8dccd0f10750001d70a1c,19,0,2024-02-28T14:29:02.368Z,english_13.wav,0,peel,34,40,3,5,français,m,9,0.9,82.06501342,1.95646908
5bc8dccd0f10750001d70a1c,19,0,2024-02-28T14:29:02.368Z,english_13.wav,0,peel,34,40,3,5,français,m,10,1.0,98.060651,0.64409889
5bc8dccd0f10750001d70a1c,19,0,2024-02-28T14:29:02.368Z,english_13.wav,0,peel,34,40,3,5,français,m,11,1.09391667,-65.93265282,0.45282126
5bc8dccd0f10750001d70a1c,20,0,2024-02-28T14:29:02.368Z,english_368.wav,0,pill,158,40,3,5,français,m,0,0.0,-21.74410199,1.11444004
5bc8dccd0f10750001d70a1c,20,0,2024-02-28T14:29:02.368Z,english_368.wav,0,pill,158,40,3,5,français,m,1,0.1,-54.46820056,1.02689489
5bc8dccd0f10750001d70a1c,20,0,2024-02-28T14:29:02.368Z,english_368.wav,0,pill,158,40,3,5,français,m,2,0.2,36.37288824,1.84847876
5bc8dccd0f10750001d70a1c,20,0,2024-02-28T14:29:02.368Z,english_368.wav,0,pill,158,40,3,5,français,m,3,0.3,28.79669065,1.32768322
5bc8dccd0f10750001d70a1c,20,0,2024-02-28T14:29:02.368Z,english_368.wav,0,pill,158,40,3,5,français,m,4,0.4,64.63914759,1.2143292
5bc8dccd0f10750001d70a1c,20,0,2024-02-28T14:29:02.368Z,english_368.wav,0,pill,158,40,3,5,français,m,5,0.5,-47.48725989,1.4175641
5bc8dccd0f10750001d70a1c,20,0,2024-02-28T14:29:02.368Z,english_368.wav,0,pill,158,40,3,5,français,m,6,0.6,-56.63725257,0.26859899
5bc8dccd0f10750001d70a1c,20,0,2024-02-28T14:29:02.368Z,english_368.wav,0,pill,158,40,3,5,français,m,7,0.7,-15.67963737,1.20913194
5bc8dccd0f10750001d70a1c,20,0,2024-02-28T14:29:02.368Z,english_368.wav,0,pill,158,40,3,5,français,m,8,0.8,-67.03077711,0.71725489
5bc8dccd0f10750001d70a1c,20,0,2024-02-28T14:29:02.368Z,english_368.wav,0,pill,158,40,3,5,français,m,9,0.9,-87.98164929,0.61705061
5bc8dccd0f10750001d70a1c,20,0,2024-02-28T14:29:02.368Z,english_368.wav,0,pill,158,40,3,5,français,m,10,1.0,66.360443,1.87423649
5bc8dccd0f10750001d70a1c,20,0,2024-02-28T14:29:02.368Z,english_368.wav,0,pill,158,40,3,5,français,m,11,1.09391667,86.76512067,0.90814369
5bc8dccd0f10750001d70a1c,21,0,2024-02-28T14:29:02.368Z,english_148.wav,0,peel,53,40,3,5,français,m,0,0.0,85.27624152,0.1092145
5bc8dccd0f10750001d70a1c,21,0,2024-02-28T14:29:02.368Z,english_148.wav,0,peel,53,40,3,5,français,m,1,0.1,58.23579672,0.64980633
5bc8dccd0f10750001d70a1c,21,0,2024-02-28T14:29:02.368Z,english_148.wav,0,peel,53,40,3,5,français,m,2,0.2,-91.05033604,1.83346208
5bc8dccd0f10750001d70a1c,21,0,2024-02-28T14:29:02.368Z,english_148.wav,0,peel,53,40,3,5,français,m,3,0.3,20.11396141,1.16314863
5bc8dccd0f10750001d70a1c,21,0,2024-02-28T14:29:02.368Z,english_148.wav,0,peel,53,40,3,5,français,m,4,0.4,75.44798514,0.3185648
5bc8dccd0f10750001d70a1c,21,0,2024-02-28T14:29:02.368Z,english_148.wav,0,peel,53,40,3,5,français,m,5,0.5,-38.94488744,0.6593156
5bc8dccd0f10750001d70a1c,21,0,2024-02-28T14:29:02.368Z,english_148.wav,0,peel,53,40,3,5,français,m,6,0.6,-29.81274231,1.16710518
5bc8dccd0f10750001d70a1c,21,0,2024-02-28T14:29:02.368Z,english_148.wav,0,peel,53,40,3,5,français,m,7,0.7,75.45743384,1.07936895
5bc8dccd0f10750001d70a1c,21,0,2024-02-28T14:29:02.368Z,english_148.wav,0,peel,53,40,3,5,français,m,8,0.8,-13.70216327,0.75554181
5bc8dccd0f10750001d70a1c,21,0,2024-02-28T14:29:02.368Z,english_148.wav,0,peel,53,40,3,5,français,m,9,0.9,-90.12623186,1.33604039
5bc8dccd0f10750001d70a1c,21,0,2024-02-28T14:29:02.368Z,english_148.wav,0,peel,53,40,3,5,français,m,10,1.0,-27.22744176,1.61217721
5bc8dccd0f10750001d70a1c,21,0,2024-02-28T14:29:02.368Z,english_148.wav,0,peel,53,40,3,5,français,m,11,1.09391667,7.28951287,1.20550087
5bc8dccd0f10750001d70a1c,22,0,2024-02-28T14:29:02.368Z,english_12.wav,0,pill,188,40,3,5,français,m,0,0.0,42.97445599,0.55669558
5bc8dccd0f10750001d70a1c,22,0,2024-02-28T14:29:02.368Z,english_12.wav,0,pill,188,40,3,5,français,m,1,0.1,-13.36169143,0.58156084
5bc8dccd0f10750001d70a1c,22,0,2024-02-28T14:29:02.368Z,english_12.wav,0,pill,188,40,3,5,français,m,2,0.2,95.55347712,1.49895361
5bc8dccd0f10750001d70a1c,22,0,2024-02-28T14:29:02.368Z,english_12.wav,0,pill,188,40,3,5,français,m,3,0.3,25.38194066,1.21133401
5bc8dccd0f10750001d70a1c,22,0,2024-02-28T14:29:02.368Z,english_12.wav,0,pill,188,40,3,5,français,m,4,0.4,7.99263567,1.29255802
5bc8dccd0f10750001d70a1c,22,0,2024-02-28T14:29:02.368Z,english_12.wav,0,pill,188,40,3,5,français,m,5,0.5,-99.22256454,0.60717751
5bc8dccd0f10750001d70a1c,22,0,2024-02-28T14:29:02.368Z,english_12.wav,0,pill,188,40,3,5,français,m,6,0.6,-40.78265899,1.53494704
5bc8dccd0f10750001d70a1c,22,0,2024-02-28T14:29:02.368Z,english_12.wav,0,pill,188,40,3,5,français,m,7,0.7,6.53756305,0.96428077
5bc8dccd0f10750001d70a1c,22,0,2024-02-28T14:29:02.368Z,english_12.wav,0,pill,188,40,3,5,français,m,8,0.8,-20.69460066,0.42904798
5bc8dccd0f10750001d70a1c,22,0,2024-02-28T14:29:02.368Z,english_12.wav,0,pill,188,40,3,5,français,m,9,0.9,-61.55291704,1.90575432
5bc8dccd0f10750001d70a1c,22,0,2024-02-28T14:29:02.368Z,english_12.wav,0,pill,188,40,3,5,français,m,10,1.0,-41.80363085,0.98826975
5bc8dccd0f10750001d70a1c,22,0,2024-02-28T14:29:02.368Z,english_12.wav,0,pill,188,40,3,5,français,m,11,1.09391667,-15.66743162,0.15634055
5bc8dccd0f10750001d70a1c,23,0,2024-02-28T14:29:02.368Z,english_535.wav,0,peel,94,40,3,5,français,m,0,0.0,-4.00375318,0.74823916
5bc8dccd0f10750001d70a1c,23,0,2024-02-28T14:29:02.368Z,english_535.wav,0,peel,94,40,3,5,français,m,1,0.1,-37.57387138,0.9109632
5bc8dccd0f10750001d70a1c,23,0,2024-02-28T14:29:02.368Z,english_535.wav,0,peel,94,40,3,5,français,m,2,0.2,-31.12595353,0.84755902
5bc8dccd0f10750001d70a1c,23,0,2024-02-28T14:29:02.368Z,english_535.wav,0,peel,94,40,3,5,français,m,3,0.3,2.06341331,1.09662022
5bc8dccd0f10750001d70a1c,23,0,2024-02-28T14:29:02.368Z,english_535.wav,0,peel,94,40,3,5,français,m,4,0.4,56.11576492,0.26254995
5bc8dccd0f10750001d70a1c,23,0,2024-02-28T14:29:02.368Z,english_535.wav,0,peel,94,40,3,5,français,m,5,0.5,30.13214978,1.29967994
5bc8dccd0f10750001d70a1c,23,0,2024-02-28T14:29:02.368Z,english_535.wav,0,peel,94,40,3,5,français,m,6,0.6,14.78197265,1.50452532
5bc8dccd0f10750001d70a1c,23,0,2024-02-28T14:29:02.368Z,english_535.wav,0,peel,94,40,3,5,français,m,7,0.7,-18.38930177,1.51808924
5bc8dccd0f10750001d70a1c,23,0,2024-02-28T14:29:02.368Z,english_535.wav,0,peel,94,40,3,5,français,m,8,0.8,-10.54396075,0.34439234
5bc8dccd0f10750001d70a1c,23,0,2024-02-28T14:29:02.368Z,english_535.wav,0,peel,94,40,3,5,français,m,9,0.9,39.09773013,0.86790386
5bc8dccd0f10750001d70a1c,23,0,2024-02-28T14:29:02.368Z,english_535.wav,0,peel,94,40,3,5,français,m,10,1.0,46.13111143,0.86784134
5bc8dccd0f10750001d70a1c,23,0,2024-02-28T14:29:02.368Z,english_535.wav,0,peel,94,40,3,5,français,m,11,1.09391667,-64.44597459,0.57511998
5bc8dccd0f10750001d70a1c,24,0,2024-02-28T14:29:02.368Z,english_338.wav,0,pill,160,40,3,5,français,m,0,0.0,-28.32882855,1.26446903
5bc8dccd0f10750001d70a1c,24,0,2024-02-28T14:29:02.368Z,english_338.wav,0,pill,160,40,3,5,français,m,1,0.1,57.31812169,0.76759877
5bc8dccd0f10750001d70a1c,24,0,2024-02-28T14:29:02.368Z,english_338.wav,0,pill,160,40,3,5,français,m,2,0.2,14.45982208,1.52351901
5bc8dccd0f10750001d70a1c,24,0,2024-02-28T14:29:02.368Z,english_338.wav,0,pill,160,40,3,5,français,m,3,0.3,77.41090692,1.04471398
5bc8dccd0f10750001d70a1c,24,0,2024-02-28T14:29:02.368Z,english_338.wav,0,pill,160,40,3,5,français,m,4,0.4,-1.8867557,0.90426999
5bc8dccd0f10750001d70a1c,24,0,2024-02-28T14:29:02.368Z,english_338.wav,0,pill,160,40,3,5,français,m,5,0.5,-35.85874383,1.69664706
5bc8dccd0f10750001d70a1c,24,0,2024-02-28T14:29:02.368Z,english_338.wav,0,pill,160,40,3,5,français,m,6,0.6,-55.1613605,0.17582058
5bc8dccd0f10750001d70a1c,24,0,2024-02-28T14:29:02.368Z,english_338.wav,0,pill,160,40,3,5,français,m,7,0.7,-70.94430614,0.54140942
5bc8dccd0f10750001d70a1c,24,0,2024-02-28T14:29:02.368Z,english_338.wav,0,pill,160,40,3,5,français,m,8,0.8,5.91952673,0.81798021
5bc8dccd0f10750001d70a1c,24,0,2024-02-28T14:29:02.368Z,english_338.wav,0,pill,160,40,3,5,français,m,9,0.9,-77.52896216,1.90630538
5bc8dccd0f10750001d70a1c,24,0,2024-02-28T14:29:02.368Z,english_338.wav,0,pill,160,40,3,5,français,m,10,1.0,-12.19112467,0.59557422
5bc8dccd0f10750001d70a1c,24,0,2024-02-28T14:29:02.368Z,english_338.wav,0,pill,160,40,3,5,français,m,11,1.09391667,6.6549641,0.42071392
5bc8dccd0f10750001d70a1c,25,0,2024-02-28T14:29:02.368Z,english_685.wav,0,peel,7,40,3,5,français,m,0,0.0,62.22235335,0.91642602
5bc8dccd0f10750001d70a1c,25,0,2024-02-28T14:29:02.368Z,english_685.wav,0,peel,7,40,3,5,français,m,1,0.1,-97.11025465,1.72329218
5bc8dccd0f10750001d70a1c,25,0,2024-02-28T14:29:02.368Z,english_685.wav,0,peel,7,40,3,5,français,m,2,0.2,72.03160739,1.99088782
5bc8dccd0f10750001d70a1c,25,0,2024-02-28T14:29:02.368Z,english_685.wav,0,peel,7,40,3,5,français,m,3,0.3,40.47895004,0.00501952
5bc8dccd0f10750001d70a1c,25,0,2024-02-28T14:29:02.368Z,english_685.wav,0,peel,7,40,3,5,français,m,4,0.4,-75.64985874,1.41330373
5bc8dccd0f10750001d70a1c,25,0,2024-02-28T14:29:02.368Z,english_685.wav,0,peel,7,40,3,5,français,m,5,0.5,-62.21115329,0.58310659
5bc8dccd0f10750001d70a1c,25,0,2024-02-28T14:29:02.368Z,english_685.wav,0,peel,7,40,3,5,français,m,6,0.6,34.38722215,1.5248844
5bc8dccd0f10750001d70a1c,25,0,2024-02-28T14:29:02.368Z,english_685.wav,0,peel,7,40,3,5,français,m,7,0.7,96.86141958,0.15841589
5bc8dccd0f10750001d70a1c,25,0,2024-02-28T14:29:02.368Z,english_685.wav,0,peel,7,40,3,5,français,m,8,0.8,52.32592552,1.39576372
5bc8dccd0f10750001d70a1c,25,0,2024-02-28T14:29:02.368Z,english_685.wav,0,peel,7,40,3,5,français,m,9,0.9,47.74773781,1.97205737
5bc8dccd0f10750001d70a1c,25,0,2024-02-28T14:29:02.368Z,english_685.wav,0,peel,7,40,3,5,français,m,10,1.0,37.75239805,1.24408728
5bc8dccd0f10750001d70a1c,25,0,2024-02-28T14:29:02.368Z,english_685.wav,0,peel,7,40,3,5,français,m,11,1.09391667,-10.16077912,1.54258522
5bc8dccd0f10750001d70a1c,26,0,2024-02-28T14:29:02.368Z,english_498.wav,0,pill,1,40,3,5,français,m,0,0.0,43.98055184,1.94722798
5bc8dccd0f10750001d70a1c,26,0,2024-02-28T14:29:02.368Z,english_498.wav,0,pill,1,40,3,5,français,m,1,0.1,91.3545984,1.93048351
5bc8dccd0f10750001d70a1c,26,0,2024-02-28T14:29:02.368Z,english_498.wav,0,pill,1,40,3,5,français,m,2,0.2,-25.91563113,0.27240706
5bc8dccd0f10750001d70a1c,26,0,2024-02-28T14:29:02.368Z,english_498.wav,0,pill,1,40,3,5,français,m,3,0.3,-14.96140851,1.06623965
5bc8dccd0f10750001d70a1c,26,0,2024-02-28T14:29:02.368Z,english_498.wav,0,pill,1,40,3,5,français,m,4,0.4,-8.05824247,1.41558656
5bc8dccd0f10750001d70a1c,26,0,2024-02-28T14:29:02.368Z,english_498.wav,0,pill,1,40,3,5,français,m,5,0.5,-61.63888891,0.26700347
5bc8dccd0f10750001d70a1c,26,0,2024-02-28T14:29:02.368Z,english_498.wav,0,pill,1,40,3,5,français,m,6,0.6,37.86658664,0.54434522
5bc8dccd0f10750001d70a1c,26,0,2024-02-28T14:29:02.368Z,english_498.wav,0,pill,1,40,3,5,français,m,7,0.7,-97.52325855,0.79258737
5bc8dccd0f10750001d70a1c,26,0,2024-02-28T14:29:02.368Z,english_498.wav,0,pill,1,40,3,5,français,m,8,0.8,-16.03910224,1.13417158
5bc8dccd0f10750001d70a1c,26,0,2024-02-28T14:29:02.368Z,english_498.wav,0,pill,1,40,3,5,français,m,9,0.9,83.25609208,0.68565339
5bc8dccd0f10750001d70a1c,26,0,2024-02-28T14:29:02.368Z,english_498.wav,0,pill,1,40,3,5,français,m,10,1.0,-65.28300381,0.73020294
5bc8dccd0f10750001d70a1c,26,0,2024-02-28T14:29:02.368Z,english_498.wav,0,pill,1,40,3,5,français,m,11,1.09391667,38.04109912,1.48505369
5bc8dccd0f10750001d70a1c,27,0,2024-02-28T14:29:02.368Z,english_609.wav,0,peel,104,40,3,5,français,m,0,0.0,45.1693917,1.16218677
5bc8dccd0f10750001d70a1c,27,0,2024-02-28T14:29:02.368Z,english_609.wav,0,peel,104,40,3,5,français,m,1,0.1,-72.3247495,1.56939275
5bc8dccd0f10750001d70a1c,27,0,2024-02-28T14:29:02.368Z,english_609.wav,0,peel,104,40,3,5,français,m,2,0.2,18.68361548,1.47980491
5bc8dccd0f10750001d70a1c,27,0,2024-02-28T14:29:02.368Z,english_609.wav,0,peel,104,40,3,5,français,m,3,0.3,-27.6682302,1.03639669
5bc8dccd0f10750001d70a1c,27,0,2024-02-28T14:29:02.368Z,english_609.wav,0,peel,104,40,3,5,français,m,4,0.4,3.63671522,0.81396394
5bc8dccd0f10750001d70a1c,27,0,2024-02-28T14:29:02.368Z,english_609.wav,0,peel,104,40,3,5,français,m,5,0.5,21.21340101,1.33770591
5bc8dccd0f10750001d70a1c,27,0,2024-02-28T14:29:02.368Z,english_609.wav,0,peel,104,40,3,5,français,m,6,0.6,15.49381211,1.85408959
5bc8dccd0f10750001d70a1c,27,0,2024-02-28T14:29:02.368Z,english_609.wav,0,peel,104,40,3,5,français,m,7,0.7,1.52669615,0.1270649
5bc8dccd0f10750001d70a1c,27,0,2024-02-28T14:29:02.368Z,english_609.wav,0,peel,104,40,3,5,français,m,8,0.8,25.44993701,0.72088093
5bc8dccd0f10750001d70a1c,27,0,2024-02-28T14:29:02.368Z,english_609.wav,0,peel,104,40,3,5,français,m,9,0.9,-58.9173922,1.10933741
5bc8dccd0f10750001d70a1c,27,0,2024-02-28T14:29:02.368Z,english_609.wav,0,peel,104,40,3,5,français,m,10,1.0,4.8985277,0.9989657
5bc8dccd0f10750001d70a1c,27,0,2024-02-28T14:29:02.368Z,english_609.wav,0,peel,104,40,3,5,français,m,11,1.09391667,-19.12587244,1.15972192
5bc8dccd0f10750001d70a1c,28,0,2024-02-28T14:29:02.368Z,english_913.wav,0,pill,57,40,3,5,français,m,0,0.0,-12.70990623,1.14486928
5bc8dccd0f10750001d70a1c,28,0,2024-02-28T14:29:02.368Z,english_913.wav,0,pill,57,40,3,5,français,m,1,0.1,-17.89686071,0.94187729
5bc8dccd0f10750001d70a1c,28,0,2024-02-28T14:29:02.368Z,english_913.wav,0,pill,57,40,3,5,français,m,2,0.2,58.24027697,0.43978781
5bc8dccd0f10750001d70a1c,28,0,2024-02-28T14:29:02.368Z,english_913.wav,0,pill,57,40,3,5,français,m,3,0.3,71.96751717,0.86816184
5bc8dccd0f10750001d70a1c,28,0,2024-02-28T14:29:02.368Z,english_913.wav,0,pill,57,40,3,5,français,m,4,0.4,22.83880081,0.47286583
5bc8dccd0f10750001d70a1c,28,0,2024-02-28T14:29:02.368Z,english_913.wav,0,pill,57,40,3,5,français,m,5,0.5,74.23310268,0.4719667
5bc8dccd0f10750001d70a1c,28,0,2024-02-28T14:29:02.368Z,english_913.wav,0,pill,57,40,3,5,français,m,6,0.6,23.98451607,1.54190919
5bc8dccd0f10750001d70a1c,28,0,2024-02-28T14:29:02.368Z,english_913.wav,0,pill,57,40,3,5,français,m,7,0.7,-29.568704,1.67539159
5bc8dccd0f10750001d70a1c,28,0,2024-02-28T14:29:02.368Z,english_913.wav,0,pill,57,40,3,5,français,m,8,0.8,19.11592867,1.16448364
5bc8dccd0f10750001d70a1c,28,0,2024-02-28T14:29:02.368Z,english_913.wav,0,pill,57,40,3,5,français,m,9,0.9,54.77477233,1.68418537
5bc8dccd0f10750001d70a1c,28,0,2024-02-28T14:29:02.368Z,english_913.wav,0,pill,57,40,3,5,français,m,10,1.0,9.76021826,1.91621277
5bc8dccd0f10750001d70a1c,28,0,2024-02-28T14:29:02.368Z,english_913.wav,0,pill,57,40,3,5,français,m,11,1.09391667,-30.35128441,1.40243908
5bc8dccd0f10750001d70a1c,29,0,2024-02-28T14:29:02.368Z,english_645.wav,0,peel,18,40,3,5,français,m,0,0.0,74.20759592,0.3722502
5bc8dccd0f10750001d70a1c,29,0,2024-02-28T14:29:02.368Z,english_645.wav,0,peel,18,40,3,5,français,m,1,0.1,-91.348614,0.72135633
5bc8dccd0f10750001d70a1c,29,0,2024-02-28T14:29:02.368Z,english_645.wav,0,peel,18,40,3,5,français,m,2,0.2,-47.07053841,1.09022513
5bc8dccd0f10750001d70a1c,29,0,2024-02-28T14:29:02.368Z,english_645.wav,0,peel,18,40,3,5,français,m,3,0.3,14.8093439,0.23360297
5bc8dccd0f10750001d70a1c,29,0,2024-02-28T14:29:02.368Z,english_645.wav,0,peel,18,40,3,5,français,m,4,0.4,46.9338314,1.81978529
5bc8dccd0f10750001d70a1c,29,0,2024-02-28T14:29:02.368Z,english_645.wav,0,peel,18,40,3,5,français,m,5,0.5,39.7428535,0.50068107
5bc8dccd0f10750001d70a1c,29,0,2024-02-28T14:29:02.368Z,english_645.wav,0,peel,18,40,3,5,français,m,6,0.6,-23.36569069,1.21791048
5bc8dccd0f10750001d70a1c,29,0,2024-02-28T14:29:02.368Z,english_645.wav,0,peel,18,40,3,5,français,m,7,0.7,45.91971916,0.53153165
5bc8dccd0f10750001d70a1c,29,0,2024-02-28T14:29:02.368Z,english_645.wav,0,peel,18,40,3,5,français,m,8,0.8,32.42791759,1.47100285
5bc8dccd0f10750001d70a1c,29,0,2024-02-28T14:29:02.368Z,english_645.wav,0,peel,18,40,3,5,français,m,9,0.9,1.19876254,1.64053241
5bc8dccd0f10750001d70a1c,29,0,2024-02-28T14:29:02.368Z,english_645.wav,0,peel,18,40,3,5,français,m,10,1.0,-40.71182661,1.74926312
5bc8dccd0f10750001d70a1c,29,0,2024-02-28T14:29:02.368Z,english_645.wav,0,peel,18,40,3,5,français,m,11,1.09391667,-1.61863293,1.77861775
5bc8dccd0f10750001d70a1c,30,0,2024-02-28T14:29:02.368Z,english_964.wav,0,peel,10,40,3,5,français,m,0,0.0,53.46570898,1.49731262
5bc8dccd0f10750001d70a1c,30,0,2024-02-28T14:29:02.368Z,english_964.wav,0,peel,10,40,3,5,français,m,1,0.1,-29.34116619,1.91326808
5bc8dccd0f10750001d70a1c,30,0,2024-02-28T14:29:02.368Z,english_964.wav,0,peel,10,40,3,5,français,m,2,0.2,54.99768825,0.76008105
5bc8dccd0f10750001d70a1c,30,0,2024-02-28T14:29:02.368Z,english_964.wav,0,peel,10,40,3,5,français,m,3,0.3,-81.76915679,1.84891579
5bc8dccd0f10750001d70a1c,30,0,2024-02-28T14:29:02.368Z,english_964.wav,0,peel,10,40,3,5,français,m,4,0.4,-62.14603757,0.58371441
5bc8dccd0f10750001d70a1c,30,0,2024-02-28T14:29:02.368Z,english_964.wav,0,peel,10,40,3,5,français,m,5,0.5,-51.83468115,0.22320605
5bc8dccd0f10750001d70a1c,30,0,2024-02-28T14:29:02.368Z,english_964.wav,0,peel,10,40,3,5,français,m,6,0.6,22.82176289,0.86228006
5bc8dccd0f10750001d70a1c,30,0,2024-02-28T14:29:02.368Z,english_964.wav,0,peel,10,40,3,5,français,m,7,0.7,43.03362668,1.2736027
5bc8dccd0f10750001d70a1c,30,0,2024-02-28T14:29:02.368Z,english_964.wav,0,peel,10,40,3,5,français,m,8,0.8,-91.1613604,0.96508229
5bc8dccd0f10750001d70a1c,30,0,2024-02-28T14:29:02.368Z,english_964.wav,0,peel,10,40,3,5,français,m,9,0.9,9.75788821,0.5978171
5bc8dccd0f10750001d70a1c,30,0,2024-02-28T14:29:02.368Z,english_964.wav,0,peel,10,40,3,5,français,m,10,1.0,-2.87390503,0.802961
5bc8dccd0f10750001d70a1c,30,0,2024-02-28T14:29:02.368Z,english_964.wav,0,peel,10,40,3,5,français,m,11,1.09391667,-53.09298444,0.69400331
5bc8dccd0f10750001d70a1c,31,0,2024-02-28T14:29:02.368Z,english_793.wav,0,pill,127,40,3,5,français,m,0,0.0,-39.70617561,0.49970472
5bc8dccd0f10750001d70a1c,31,0,2024-02-28T14:29:02.368Z,english_793.wav,0,pill,127,40,3,5,français,m,1,0.1,-29.28823244,0.64262829
5bc8dccd0f10750001d70a1c,31,0,2024-02-28T14:29:02.368Z,english_793.wav,0,pill,127,40,3,5,français,m,2,0.2,-89.65836103,1.52317209
5bc8dccd0f10750001d70a1c,31,0,2024-02-28T14:29:02.368Z,english_793.wav,0,pill,127,40,3,5,français,m,3,0.3,9.66432805,0.03732268
5bc8dccd0f10750001d70a1c,31,0,2024-02-28T14:29:02.368Z,english_793.wav,0,pill,127,40,3,5,français,m,4,0.4,46.78400104,0.76197013
5bc8dccd0f10750001d70a1c,31,0,2024-02-28T14:29:02.368Z,english_793.wav,0,pill,127,40,3,5,français,m,5,0.5,77.17847788,1.20681543
5bc8dccd0f10750001d70a1c,31,0,2024-02-28T14:29:02.368Z,english_793.wav,0,pill,127,40,3,5,français,m,6,0.6,65.90216738,0.39643945
5bc8dccd0f10750001d70a1c,31,0,2024-02-28T14:29:02.368Z,english_793.wav,0,pill,127,40,3,5,français,m,7,0.7,19.02180402,0.55038392
5bc8dccd0f10750001d70a1c,31,0,2024-02-28T14:29:02.368Z,english_793.wav,0,pill,127,40,3,5,français,m,8,0.8,4.99424524,0.97724905
5bc8dccd0f10750001d70a1c,31,0,2024-02-28T14:29:02.368Z,english_793.wav,0,pill,127,40,3,5,français,m,9,0.9,95.94113908,1.29198989
5bc8dccd0f10750001d70a1c,31,0,2024-02-28T14:29:02.368Z,english_793.wav,0,pill,127,40,3,5,français,m,10,1.0,5.28849012,1.94187371
5bc8dccd0f10750001d70a1c,31,0,2024-02-28T14:29:02.368Z,english_793.wav,0,pill,127,40,3,5,français,m,11,1.09391667,-28.1855206,0.04726533
5bc8dccd0f10750001d70a1c,32,0,2024-02-28T14:29:02.368Z,english_444.wav,0,peel,264,40,3,5,français,m,0,0.0,-22.35255086,1.17037243
5bc8dccd0f10750001d70a1c,32,0,2024-02-28T14:29:02.368Z,english_444.wav,0,peel,264,40,3,5,français,m,1,0.1,-38.39735659,0.80831945
5bc8dccd0f10750001d70a1c,32,0,2024-02-28T14:29:02.368Z,english_444.wav,0,peel,264,40,3,5,français,m,2,0.2,81.84483339,1.07936497
5bc8dccd0f10750001d70a1c,32,0,2024-02-28T14:29:02.368Z,english_444.wav,0,peel,264,40,3,5,français,m,3,0.3,89.66951187,1.80338122
5bc8dccd0f10750001d70a1c,32,0,2024-02-28T14:29:02.368Z,english_444.wav,0,peel,264,40,3,5,français,m,4,0.4,78.72815519,1.1980111
5bc8dccd0f10750001d70a1c,32,0,2024-02-28T14:29:02.368Z,english_444.wav,0,peel,264,40,3,5,français,m,5,0.5,-52.70100407,1.57414757
5bc8dccd0f10750001d70a1c,32,0,2024-02-28T14:29:02.368Z,english_444.wav,0,peel,264,40,3,5,français,m,6,0.6,-16.77558941,1.54546577
5bc8dccd0f10750001d70a1c,32,0,2024-02-28T14:29:02.368Z,english_444.wav,0,peel,264,40,3,5,français,m,7,0.7,74.67924026,0.86646901
5bc8dccd0f10750001d70a1c,32,0,2024-02-28T14:29:02.368Z,english_444.wav,0,peel,264,40,3,5,français,m,8,0.8,58.06859333,1.76340154
5bc8dccd0f10750001d70a1c,32,0,2024-02-28T14:29:02.368Z,english_444.wav,0,peel,264,40,3,5,français,m,9,0.9,62.1778936,1.16134605
5bc8dccd0f10750001d70a1c,32,0,2024-02-28T14:29:02.368Z,english_444.wav,0,peel,264,40,3,5,français,m,10,1.0,-11.97095728,0.83068954
5bc8dccd0f10750001d70a1c,32,0,2024-02-28T14:29:02.368Z,english_444.wav,0,peel,264,40,3,5,français,m,11,1.09391667,61.96058284,1.94365144
5bc8dccd0f10750001d70a1c,33,0,2024-02-28T14:29:02.368Z,english_536.wav,0,pill,75,40,3,5,français,m,0,0.0,12.53985852,0.4318111
5bc8dccd0f10750001d70a1c,33,0,2024-02-28T14:29:02.368Z,english_536.wav,0,pill,75,40,3,5,français,m,1,0.1,21.99103782,1.06422616
5bc8dccd0f10750001d70a1c,33,0,2024-02-28T14:29:02.368Z,english_536.wav,0,pill,75,40,3,5,français,m,2,0.2,62.33634556,1.97390757
5bc8dccd0f10750001d70a1c,33,0,2024-02-28T14:29:02.368Z,english_536.wav,0,pill,75,40,3,5,français,m,3,0.3,-74.90025976,0.26817195
5bc8dccd0f10750001d70a1c,33,0,2024-02-28T14:29:02.368Z,english_536.wav,0,pill,75,40,3,5,français,m,4,0.4,32.85398174,0.16804155
5bc8dccd0f10750001d70a1c,33,0,2024-02-28T14:29:02.368Z,english_536.wav,0,pill,75,40,3,5,français,m,5,0.5,-33.4537755,0.37593725
5bc8dccd0f10750001d70a1c,33,0,2024-02-28T14:29:02.368Z,english_536.wav,0,pill,75,40,3,5,français,m,6,0.6,-42.71623429,1.32070102
5bc8dccd0f10750001d70a1c,33,0,2024-02-28T14:29:02.368Z,english_536.wav,0,pill,75,40,3,5,français,m,7,0.7,-1.00699642,0.04715572
5bc8dccd0f10750001d70a1c,33,0,2024-02-28T14:29:02.368Z,english_536.wav,0,pill,75,40,3,5,français,m,8,0.8,-25.01596186,1.04948049
5bc8dccd0f10750001d70a1c,33,0,2024-02-28T14:29:02.368Z,english_536.wav,0,pill,75,40,3,5,français,m,9,0.9,-49.31989542,0.94782972
5bc8dccd0f10750001d70a1c,33,0,2024-02-28T14:29:02.368Z,english_536.wav,0,pill,75,40,3,5,français,m,10,1.0,38.02707377,1.69951962
5bc8dccd0f10750001d70a1c,33,0,2024-02-28T14:29:02.368Z,english_536.wav,0,pill,75,40,3,5,français,m,11,1.09391667,50.96675347,1.16734118
5bc8dccd0f10750001d70a1c,34,0,2024-02-28T14:29:02.368Z,english_193.wav,0,pill,164,40,3,5,français,m,0,0.0,-79.19298438,1.8278475
5bc8dccd0f10750001d70a1c,34,0,2024-02-28T14:29:02.368Z,english_193.wav,0,pill,164,40,3,5,français,m,1,0.1,83.18398782,1.66141822
5bc8dccd0f10750001d70a1c,34,0,2024-02-28T14:29:02.368Z,english_193.wav,0,pill,164,40,3,5,français,m,2,0.2,41.62817707,0.29384933
5bc8dccd0f10750001d70a1c,34,0,2024-02-28T14:29:02.368Z,english_193.wav,0,pill,164,40,3,5,français,m,3,0.3,-63.57509965,0.14342966
5bc8dccd0f10750001d70a1c,34,0,2024-02-28T14:29:02.368Z,english_193.wav,0,pill,164,40,3,5,français,m,4,0.4,84.76628996,1.0428664
5bc8dccd0f10750001d70a1c,34,0,2024-02-28T14:29:02.368Z,english_193.wav,0,pill,164,40,3,5,français,m,5,0.5,10.12738943,1.69229155
5bc8dccd0f10750001d70a1c,34,0,2024-02-28T14:29:02.368Z,english_193.wav,0,pill,164,40,3,5,français,m,6,0.6,-37.32432508,0.16574738
5bc8dccd0f10750001d70a1c,34,0,2024-02-28T14:29:02.368Z,english_193.wav,0,pill,164,40,3,5,français,m,7,0.7,4.93485207,1.7490427
5bc8dccd0f10750001d70a1c,34,0,2024-02-28T14:29:02.368Z,english_193.wav,0,pill,164,40,3,5,français,m,8,0.8,34.87911105,0.62073431
5bc8dccd0f10750001d70a1c,34,0,2024-02-28T14:29:02.368Z,english_193.wav,0,pill,164,40,3,5,français,m,9,0.9,-39.85363935,0.72815791
5bc8dccd0f10750001d70a1c,34,0,2024-02-28T14:29:02.368Z,english_193.wav,0,pill,164,40,3,5,français,m,10,1.0,34.81523129,1.27219327
5bc8dccd0f10750001d70a1c,34,0,2024-02-28T14:29:02.368Z,english_193.wav,0,pill,164,40,3,5,français,m,11,1.09391667,72.77087749,1.22929628
5bc8dccd0f10750001d70a1c,35,0,2024-02-28T14:29:02.368Z,english_551.wav,0,peel,12,40,3,5,français,m,0,0.0,-6.7580407,1.36908338
5bc8dccd0f10750001d70a1c,35,0,2024-02-28T14:29:02.368Z,english_551.wav,0,peel,12,40,3,5,français,m,1,0.1,35.07051515,1.9104602
5bc8dccd0f10750001d70a1c,35,0,2024-02-28T14:29:02.368Z,english_551.wav,0,peel,12,40,3,5,français,m,2,0.2,-13.38429881,0.46910503
5bc8dccd0f10750001d70a1c,35,0,2024-02-28T14:29:02.368Z,english_551.wav,0,peel,12,40,3,5,français,m,3,0.3,37.09878084,1.97066888
5bc8dccd0f10750001d70a1c,35,0,2024-02-28T14:29:02.368Z,english_551.wav,0,peel,12,40,3,5,français,m,4,0.4,-63.7004989,1.03915964
5bc8dccd0f10750001d70a1c,35,0,2024-02-28T14:29:02.368Z,english_551.wav,0,peel,12,40,3,5,français,m,5,0.5,38.07544061,0.03518646
5bc8dccd0f10750001d70a1c,35,0,2024-02-28T14:29:02.368Z,english_551.wav,0,peel,12,40,3,5,français,m,6,0.6,-3.84658335,0.35806175
5bc8dccd0f10750001d70a1c,35,0,2024-02-28T14:29:02.368Z,english_551.wav,0,peel,12,40,3,5,français,m,7,0.7,-70.82168474,1.2923355
5bc8dccd0f10750001d70a1c,35,0,2024-02-28T14:29:02.368Z,english_551.wav,0,peel,12,40,3,5,français,m,8,0.8,15.89042936,0.94769204
5bc8dccd0f10750001d70a1c,35,0,2024-02-28T14:29:02.368Z,english_551.wav,0,peel,12,40,3,5,français,m,9,0.9,11.36542465,1.13768641
5bc8dccd0f10750001d70a1c,35,0,2024-02-28T14:29:02.368Z,english_551.wav,0,peel,12,40,3,5,français,m,10,1.0,48.05239425,1.46377274
5bc8dccd0f10750001d70a1c,35,0,2024-02-28T14:29:02.368Z,english_551.wav,0,peel,12,40,3,5,français,m,11,1.09391667,-25.45868434,1.28141809
5bc8dccd0f10750001d70a1c,36,0,2024-02-28T14:29:02.368Z,english_223.wav,0,pill,41,40,3,5,français,m,0,0.0,3.75482412,0.48204307
5bc8dccd0f10750001d70a1c,36,0,2024-02-28T14:29:02.368Z,english_223.wav,0,pill,41,40,3,5,français,m,1,0.1,-10.12746206,1.57422829
5bc8dccd0f10750001d70a1c,36,0,2024-02-28T14:29:02.368Z,english_223.wav,0,pill,41,40,3,5,français,m,2,0.2,-71.88310124,1.46180987
5bc8dccd0f10750001d70a1c,36,0,2024-02-28T14:29:02.368Z,english_223.wav,0,pill,41,40,3,5,français,m,3,0.3,57.69353131,0.36455809
5bc8dccd0f10750001d70a1c,36,0,2024-02-28T14:29:02.368Z,english_223.wav,0,pill,41,40,3,5,français,m,4,0.4,-7.46282971,1.50137994
5bc8dccd0f10750001d70a1c,36,0,2024-02-28T14:29:02.368Z,english_223.wav,0,pill,41,40,3,5,français,m,5,0.5,-4.62449416,0.81971787
5bc8dccd0f10750001d70a1c,36,0,2024-02-28T14:29:02.368Z,english_223.wav,0,pill,41,40,3,5,français,m,6,0.6,37.75223181,0.40602656
5bc8dccd0f10750001d70a1c,36,0,2024-02-28T14:29:02.368Z,english_223.wav,0,pill,41,40,3,5,français,m,7,0.7,14.07580733,1.29724475
5bc8dccd0f10750001d70a1c,36,0,2024-02-28T14:29:02.368Z,english_223.wav,0,pill,41,40,3,5,français,m,8,0.8,7.873186,0.55564049
5bc8dccd0f10750001d70a1c,36,0,2024-02-28T14:29:02.368Z,english_223.wav,0,pill,41,40,3,5,français,m,9,0.9,-15.37742922,1.88260367
5bc8dccd0f10750001d70a1c,36,0,2024-02-28T14:29:02.368Z,english_223.wav,0,pill,41,40,3,5,français,m,10,1.0,25.72603899,0.5343602
5bc8dccd0f10750001d70a1c,36,0,2024-02-28T14:29:02.368Z,english_223.wav,0,pill,41,40,3,5,français,m,11,1.09391667,58.91699651,1.60309461
5bc8dccd0f10750001d70a1c,37,0,2024-02-28T14:29:02.368Z,english_4.wav,0,peel,50,40,3,5,français,m,0,0.0,-33.3305161,1.1805291
5bc8dccd0f10750001d70a1c,37,0,2024-02-28T14:29:02.368Z,english_4.wav,0,peel,50,40,3,5,français,m,1,0.1,-23.37326796,0.77631495
5bc8dccd0f10750001d70a1c,37,0,2024-02-28T14:29:02.368Z,english_4.wav,0,peel,50,40,3,5,français,m,2,0.2,-42.80660343,1.23796573
5bc8dccd0f10750001d70a1c,37,0,2024-02-28T14:29:02.368Z,english_4.wav,0,peel,50,40,3,5,français,m,3,0.3,-85.97409915,0.59874379
5bc8dccd0f10750001d70a1c,37,0,2024-02-28T14:29:02.368Z,english_4.wav,0,peel,50,40,3,5,français,m,4,0.4,51.28251826,0.69643725
5bc8dccd0f10750001d70a1c,37,0,2024-02-28T14:29:02.368Z,english_4.wav,0,peel,50,40,3,5,français,m,5,0.5,20.44685701,0.26804311
5bc8dccd0f10750001d70a1c,37,0,2024-02-28T14:29:02.368Z,english_4.wav,0,peel,50,40,3,5,français,m,6,0.6,23.55063394,0.13974856
5bc8dccd0f10750001d70a1c,37,0,2024-02-28T14:29:02.368Z,english_4.wav,0,peel,50,40,3,5,français,m,7,0.7,-22.02944006,0.25652729
5bc8dccd0f10750001d70a1c,37,0,2024-02-28T14:29:02.368Z,english_4.wav,0,peel,50,40,3,5,français,m,8,0.8,55.64002673,0.69877455
5bc8dccd0f10750001d70a1c,37,0,2024-02-28T14:29:02.368Z,english_4.wav,0,peel,50,40,3,5,français,m,9,0.9,43.82412807,0.73036563
5bc8dccd0f10750001d70a1c,37,0,2024-02-28T14:29:02.368Z,english_4.wav,0,peel,50,40,3,5,français,m,10,1.0,96.09742447,1.13065304
5bc8dccd0f10750001d70a1c,37,0,2024-02-28T14:29:02.368Z,english_4.wav,0,peel,50,40,3,5,français,m,11,1.09391667,94.89276626,0.42036746
5bc8dccd0f10750001d70a1c,38,0,2024-02-28T14:29:02.368Z,english_488.wav,0,peel,34,40,3,5,français,m,0,0.0,55.6354899,0.91537893
5bc8dccd0f10750001d70a1c,38,0,2024-02-28T14:29:02.368Z,english_488.wav,0,peel,34,40,3,5,français,m,1,0.1,-10.72836947,1.07736676
5bc8dccd0f10750001d70a1c,38,0,2024-02-28T14:29:02.368Z,english_488.wav,0,peel,34,40,3,5,français,m,2,0.2,-46.3197066,1.00419914
5bc8dccd0f10750001d70a1c,38,0,2024-02-28T14:29:02.368Z,english_488.wav,0,peel,34,40,3,5,français,m,3,0.3,14.14356253,1.03753512
5bc8dccd0f10750001d70a1c,38,0,2024-02-28T14:29:02.368Z,english_488.wav,0,peel,34,40,3,5,français,m,4,0.4,63.48594027,0.37720192
5bc8dccd0f10750001d70a1c,38,0,2024-02-28T14:29:02.368Z,english_488.wav,0,peel,34,40,3,5,français,m,5,0.5,-15.52389471,1.44514108
5bc8dccd0f10750001d70a1c,38,0,2024-02-28T14:29:02.368Z,english_488.wav,0,peel,34,40,3,5,français,m,6,0.6,1.31987166,1.5314543
5bc8dccd0f10750001d70a1c,38,0,2024-02-28T14:29:02.368Z,english_488.wav,0,peel,34,40,3,5,français,m,7,0.7,3.643619,1.0492436
5bc8dccd0f10750001d70a1c,38,0,2024-02-28T14:29:02.368Z,english_488.wav,0,peel,34,40,3,5,français,m,8,0.8,1.08608347,0.46166861
5bc8dccd0f10750001d70a1c,38,0,2024-02-28T14:29:02.368Z,english_488.wav,0,peel,34,40,3,5,français,m,9,0.9,18.4969296,1.40405736
5bc8dccd0f10750001d70a1c,38,0,2024-02-28T14:29:02.368Z,english_488.wav,0,peel,34,40,3,5,français,m,10,1.0,6.83798229,1.0046827
5bc8dccd0f10750001d70a1c,38,0,2024-02-28T14:29:02.368Z,english_488.wav,0,peel,34,40,3,5,français,m,11,1.09391667,65.10535749,0.03299625
5bc8dccd0f10750001d70a1c,39,0,2024-02-28T14:29:02.368Z,english_226.wav,0,peel,162,40,3,5,français,m,0,0.0,98.43255035,0.1861089
5bc8dccd0f10750001d70a1c,39,0,2024-02-28T14:29:02.368Z,english_226.wav,0,peel,162,40,3,5,français,m,1,0.1,23.16871923,1.79682409
5bc8dccd0f10750001d70a1c,39,0,2024-02-28T14:29:02.368Z,english_226.wav,0,peel,162,40,3,5,français,m,2,0.2,-3.17590314,0.62264246
5bc8dccd0f10750001d70a1c,39,0,2024-02-28T14:29:02.368Z,english_226.wav,0,peel,162,40,3,5,français,m,3,0.3,99.80077362,0.77697044
5bc8dccd0f10750001d70a1c,39,0,2024-02-28T14:29:02.368Z,english_226.wav,0,peel,162,40,3,5,français,m,4,0.4,-24.84472991,0.40647993
5bc8dccd0f10750001d70a1c,39,0,2024-02-28T14:29:02.368Z,english_226.wav,0,peel,162,40,3,5,français,m,5,0.5,-71.24957961,0.2976559
5bc8dccd0f10750001d70a1c,39,0,2024-02-28T14:29:02.368Z,english_226.wav,0,peel,162,40,3,5,français,m,6,0.6,65.30269432,1.34176321
5bc8dccd0f10750001d70a1c,39,0,2024-02-28T14:29:02.368Z,english_226.wav,0,peel,162,40,3,5,français,m,7,0.7,72.52720516,1.5087957
5bc8dccd0f10750001d70a1c,39,0,2024-02-28T14:29:02.368Z,english_226.wav,0,peel,162,40,3,5,français,m,8,0.8,-90.19894531,1.69033096
5bc8dccd0f10750001d70a1c,39,0,2024-02-28T14:29:02.368Z,english_226.wav,0,peel,162,40,3,5,français,m,9,0.9,11.74226894,0.35382167
5bc8dccd0f10750001d70a1c,39,0,2024-02-28T14:29:02.368Z,english_226.wav,0,peel,162,40,3,5,français,m,10,1.0,-32.60755552,1.3177586
5bc8dccd0f10750001d70a1c,39,0,2024-02-28T14:29:02.368Z,english_226.wav,0,peel,162,40,3,5,français,m,11,1.09391667,10.41380533,0.38575288
5bc8dccd0f10750001d70a1c,40,0,2024-02-28T14:29:02.368Z,english_744.wav,0,pill,32,40,3,5,français,m,0,0.0,68.01647572,0.92301697
5bc8dccd0f10750001d70a1c,40,0,2024-02-28T14:29:02.368Z,english_744.wav,0,pill,32,40,3,5,français,m,1,0.1,-94.84396495,1.7240092
5bc8dccd0f10750001d70a1c,40,0,2024-02-28T14:29:02.368Z,english_744.wav,0,pill,32,40,3,5,français,m,2,0.2,-7.3752647,0.78395161
5bc8dccd0f10750001d70a1c,40,0,2024-02-28T14:29:02.368Z,english_744.wav,0,pill,32,40,3,5,français,m,3,0.3,-81.08479212,1.15168853
5bc8dccd0f10750001d70a1c,40,0,2024-02-28T14:29:02.368Z,english_744.wav,0,pill,32,40,3,5,français,m,4,0.4,-44.66331389,0.98824464
5bc8dccd0f10750001d70a1c,40,0,2024-02-28T14:29:02.368Z,english_744.wav,0,pill,32,40,3,5,français,m,5,0.5,-77.45989494,1.26560798
5bc8dccd0f10750001d70a1c,40,0,2024-02-28T14:29:02.368Z,english_744.wav,0,pill,32,40,3,5,français,m,6,0.6,19.1026234,0.20042884
5bc8dccd0f10750001d70a1c,40,0,2024-02-28T14:29:02.368Z,english_744.wav,0,pill,32,40,3,5,français,m,7,0.7,-0.63798112,1.76365186
5bc8dccd0f10750001d70a1c,40,0,2024-02-28T14:29:02.368Z,english_744.wav,0,pill,32,40,3,5,français,m,8,0.8,74.86031238,1.68948901
5bc8dccd0f10750001d70a1c,40,0,2024-02-28T14:29:02.368Z,english_744.wav,0,pill,32,40,3,5,français,m,9,0.9,-35.9107796,0.81659748
5bc8dccd0f10750001d70a1c,40,0,2024-02-28T14:29:02.368Z,english_744.wav,0,pill,32,40,3,5,français,m,10,1.0,-6.98299608,1.14393897
5bc8dccd0f10750001d70a1c,40,0,2024-02-28T14:29:02.368Z,english_744.wav,0,pill,32,40,3,5,français,m,11,1.09391667,-12.26999011,0.86480781
5bc8dccd0f10750001d70a1c,41,0,2024-02-28T14:29:02.368Z,english_631.wav,0,pill,77,40,3,5,français,m,0,0.0,-27.81937338,1.32778062
5bc8dccd0f10750001d70a1c,41,0,2024-02-28T14:29:02.368Z,english_631.wav,0,pill,77,40,3,5,français,m,1,0.1,33.35930373,0.48085638
5bc8dccd0f10750001d70a1c,41,0,2024-02-28T14:29:02.368Z,english_631.wav,0,pill,77,40,3,5,français,m,2,0.2,-11.73917174,1.38663751
5bc8dccd0f10750001d70a1c,41,0,2024-02-28T14:29:02.368Z,english_631.wav,0,pill,77,40,3,5,français,m,3,0.3,-1.18589974,1.87480355
5bc8dccd0f10750001d70a1c,41,0,2024-02-28T14:29:02.368Z,english_631.wav,0,pill,77,40,3,5,français,m,4,0.4,27.16828493,0.88998166
5bc8dccd0f10750001d70a1c,41,0,2024-02-28T14:29:02.368Z,english_631.wav,0,pill,77,40,3,5,français,m,5,0.5,53.71281756,0.85037115
5bc8dccd0f10750001d70a1c,41,0,2024-02-28T14:29:02.368Z,english_631.wav,0,pill,77,40,3,5,français,m,6,0.6,81.56085765,0.88131869
5bc8dccd0f10750001d70a1c,41,0,2024-02-28T14:29:02.368Z,english_631.wav,0,pill,77,40,3,5,français,m,7,0.7,89.56289447,1.45107232
5bc8dccd0f10750001d70a1c,41,0,2024-02-28T14:29:02.368Z,english_631.wav,0,pill,77,40,3,5,français,m,8,0.8,-43.2108802,1.60608237
5bc8dccd0f10750001d70a1c,41,0,2024-02-28T14:29:02.368Z,english_631.wav,0,pill,77,40,3,5,français,m,9,0.9,-23.23030719,1.10456267
5bc8dccd0f10750001d70a1c,41,0,2024-02-28T14:29:02.368Z,english_631.wav,0,pill,77,40,3,5,français,m,10,1.0,88.86506339,0.94928651
5bc8dccd0f10750001d70a1c,41,0,2024-02-28T14:29:02.368Z,english_631.wav,0,pill,77,40,3,5,français,m,11,1.09391667,-96.00200772,0.59566853
5bc8dccd0f10750001d70a1c,42,0,2024-02-28T14:29:02.368Z,english_475.wav,0,pill,66,40,3,5,français,m,0,0.0,29.80961577,0.43821818
5bc8dccd0f10750001d70a1c,42,0,2024-02-28T14:29:02.368Z,english_475.wav,0,pill,66,40,3,5,français,m,1,0.1,48.86857013,0.91916023
5bc8dccd0f10750001d70a1c,42,0,2024-02-28T14:29:02.368Z,english_475.wav,0,pill,66,40,3,5,français,m,2,0.2,-75.87963709,1.43870603
5bc8dccd0f10750001d70a1c,42,0,2024-02-28T14:29:02.368Z,english_475.wav,0,pill,66,40,3,5,français,m,3,0.3,30.73642142,0.67232978
5bc8dccd0f10750001d70a1c,42,0,2024-02-28T14:29:02.368Z,english_475.wav,0,pill,66,40,3,5,français,m,4,0.4,-47.77384215,0.927705
5bc8dccd0f10750001d70a1c,42,0,2024-02-28T14:29:02.368Z,english_475.wav,0,pill,66,40,3,5,français,m,5,0.5,95.74069733,0.04190462
5bc8dccd0f10750001d70a1c,42,0,2024-02-28T14:29:02.368Z,english_475.wav,0,pill,66,40,3,5,français,m,6,0.6,49.89153758,1.51758055
5bc8dccd0f10750001d70a1c,42,0,2024-02-28T14:29:02.368Z,english_475.wav,0,pill,66,40,3,5,français,m,7,0.7,-93.96412935,1.81908107
5bc8dccd0f10750001d70a1c,42,0,2024-02-28T14:29:02.368Z,english_475.wav,0,pill,66,40,3,5,français,m,8,0.8,-13.00332235,1.60949708
5bc8dccd0f10750001d70a1c,42,0,2024-02-28T14:29:02.368Z,english_475.wav,0,pill,66,40,3,5,français,m,9,0.9,80.99885276,1.9985333
5bc8dccd0f10750001d70a1c,42,0,2024-02-28T14:29:02.368Z,english_475.wav,0,pill,66,40,3,5,français,m,10,1.0,-12.77273084,1.07792874
5bc8dccd0f10750001d70a1c,42,0,2024-02-28T14:29:02.368Z,english_475.wav,0,pill,66,40,3,5,français,m,11,1.09391667,-3.9803657,1.55358956
5bc8dccd0f10750001d70a1c,43,0,2024-02-28T14:29:02.368Z,english_25.wav,0,peel,29,40,3,5,français,m,0,0.0,-3.04072315,0.82619881
5bc8dccd0f10750001d70a1c,43,0,2024-02-28T14:29:02.368Z,english_25.wav,0,peel,29,40,3,5,français,m,1,0.1,-7.71178933,0.19533878
5bc8dccd0f10750001d70a1c,43,0,2024-02-28T14:29:02.368Z,english_25.wav,0,peel,29,40,3,5,français,m,2,0.2,-42.18636208,1.08277914
5bc8dccd0f10750001d70a1c,43,0,2024-02-28T14:29:02.368Z,english_25.wav,0,peel,29,40,3,5,français,m,3,0.3,-34.45077435,1.14412535
5bc8dccd0f10750001d70a1c,43,0,2024-02-28T14:29:02.368Z,english_25.wav,0,peel,29,40,3,5,français,m,4,0.4,-84.66227969,1.20529311
5bc8dccd0f10750001d70a1c,43,0,2024-02-28T14:29:02.368Z,english_25.wav,0,peel,29,40,3,5,français,m,5,0.5,-92.64439035,1.74650044
5bc8dccd0f10750001d70a1c,43,0,2024-02-28T14:29:02.368Z,english_25.wav,0,peel,29,40,3,5,français,m,6,0.6,-61.14666871,0.43899038
5bc8dccd0f10750001d70a1c,43,0,2024-02-28T14:29:02.368Z,english_25.wav,0,peel,29,40,3,5,français,m,7,0.7,-3.59823801,0.82830315
5bc8dccd0f10750001d70a1c,43,0,2024-02-28T14:29:02.368Z,english_25.wav,0,peel,29,40,3,5,français,m,8,0.8,-55.86599887,0.29447237
5bc8dccd0f10750001d70a1c,43,0,2024-02-28T14:29:02.368Z,english_25.wav,0,peel,29,40,3,5,français,m,9,0.9,70.71897097,0.99577412
5bc8dccd0f10750001d70a1c,43,0,2024-02-28T14:29:02.368Z,english_25.wav,0,peel,29,40,3,5,français,m,10,1.0,-41.59717756,1.79017757
5bc8dccd0f10750001d70a1c,43,0,2024-02-28T14:29:02.368Z,english_25.wav,0,peel,29,40,3,5,français,m,11,1.09391667,45.33564492,1.70871786
5bc8dccd0f10750001d70a1c,44,0,2024-02-28T14:29:02.368Z,english_898.wav,0,pill,116,40,3,5,français,m,0,0.0,-34.72631164,0.55709283
5bc8dccd0f10750001d70a1c,44,0,2024-02-28T14:29:02.368Z,english_898.wav,0,pill,116,40,3,5,français,m,1,0.1,67.7212699,1.5055727
5bc8dccd0f10750001d70a1c,44,0,2024-02-28T14:29:02.368Z,english_898.wav,0,pill,116,40,3,5,français,m,2,0.2,92.06316774,1.25694743
5bc8dccd0f10750001d70a1c,44,0,2024-02-28T14:29:02.368Z,english_898.wav,0,pill,116,40,3,5,français,m,3,0.3,-76.73151606,1.78673408
5bc8dccd0f10750001d70a1c,44,0,2024-02-28T14:29:02.368Z,english_898.wav,0,pill,116,40,3,5,français,m,4,0.4,97.93920214,0.88325681
5bc8dccd0f10750001d70a1c,44,0,2024-02-28T14:29:02.368Z,english_898.wav,0,pill,116,40,3,5,français,m,5,0.5,99.11447245,1.91785586
5bc8dccd0f10750001d70a1c,44,0,2024-02-28T14:29:02.368Z,english_898.wav,0,pill,116,40,3,5,français,m,6,0.6,83.05225532,1.93702091
5bc8dccd0f10750001d70a1c,44,0,2024-02-28T14:29:02.368Z,english_898.wav,0,pill,116,40,3,5,français,m,7,0.7,-27.3520563,1.06642546
5bc8dccd0f10750001d70a1c,44,0,2024-02-28T14:29:02.368Z,english_898.wav,0,pill,116,40,3,5,français,m,8,0.8,40.20374668,1.06201677
5bc8dccd0f10750001d70a1c,44,0,2024-02-28T14:29:02.368Z,english_898.wav,0,pill,116,40,3,5,français,m,9,0.9,-11.73877097,0.68712783
5bc8dccd0f10750001d70a1c,44,0,2024-02-28T14:29:02.368Z,english_898.wav,0,pill,116,40,3,5,français,m,10,1.0,-73.8798446,0.31583941
5bc8dccd0f10750001d70a1c,44,0,2024-02-28T14:29:02.368Z,english_898.wav,0,pill,116,40,3,5,français,m,11,1.09391667,81.33954877,1.03949418
5bc8dccd0f10750001d70a1c,45,0,2024-02-28T14:29:02.368Z,english_756.wav,0,peel,171,40,3,5,français,m,0,0.0,-32.70542045,0.92316539
5bc8dccd0f10750001d70a1c,45,0,2024-02-28T14:29:02.368Z,english_756.wav,0,peel,171,40,3,5,français,m,1,0.1,62.91454888,0.37547917
5bc8dccd0f10750001d70a1c,45,0,2024-02-28T14:29:02.368Z,english_756.wav,0,peel,171,40,3,5,français,m,2,0.2,-9.17678833,1.92598223
5bc8dccd0f10750001d70a1c,45,0,2024-02-28T14:29:02.368Z,english_756.wav,0,peel,171,40,3,5,français,m,3,0.3,16.28624283,0.89010875
5bc8dccd0f10750001d70a1c,45,0,2024-02-28T14:29:02.368Z,english_756.wav,0,peel,171,40,3,5,français,m,4,0.4,-33.51792534,0.38662098
5bc8dccd0f10750001d70a1c,45,0,2024-02-28T14:29:02.368Z,english_756.wav,0,peel,171,40,3,5,français,m,5,0.5,88.01648813,1.17672662
5bc8dccd0f10750001d70a1c,45,0,2024-02-28T14:29:02.368Z,english_756.wav,0,peel,171,40,3,5,français,m,6,0.6,62.37064714,0.21957896
5bc8dccd0f10750001d70a1c,45,0,2024-02-28T14:29:02.368Z,english_756.wav,0,peel,171,40,3,5,français,m,7,0.7,-52.3683359,1.78953747
5bc8dccd0f10750001d70a1c,45,0,2024-02-28T14:29:02.368Z,english_756.wav,0,peel,171,40,3,5,français,m,8,0.8,56.37360277,1.89812903
5bc8dccd0f10750001d70a1c,45,0,2024-02-28T14:29:02.368Z,english_756.wav,0,peel,171,40,3,5,français,m,9,0.9,-54.86484941,1.43873799
5bc8dccd0f10750001d70a1c,45,0,2024-02-28T14:29:02.368Z,english_756.wav,0,peel,171,40,3,5,français,m,10,1.0,91.23924333,1.51351367
5bc8dccd0f10750001d70a1c,45,0,2024-02-28T14:29:02.368Z,english_756.wav,0,peel,171,40,3,5,français,m,11,1.09391667,-26.61223969,1.73327561
5bc8dccd0f10750001d70a1c,46,0,2024-02-28T14:29:02.368Z,english_20.wav,0,pill,106,40,3,5,français,m,0,0.0,63.0600358,0.86275217
5bc8dccd0f10750001d70a1c,46,0,2024-02-28T14:29:02.368Z,english_20.wav,0,pill,106,40,3,5,français,m,1,0.1,-51.01536648,0.66446023
5bc8dccd0f10750001d70a1c,46,0,2024-02-28T14:29:02.368Z,english_20.wav,0,pill,106,40,3,5,français,m,2,0.2,-79.38394235,0.76617276
5bc8dccd0f10750001d70a1c,46,0,2024-02-28T14:29:02.368Z,english_20.wav,0,pill,106,40,3,5,français,m,3,0.3,18.37962799,1.08107646
5bc8dccd0f10750001d70a1c,46,0,2024-02-28T14:29:02.368Z,english_20.wav,0,pill,106,40,3,5,français,m,4,0.4,-93.10550864,0.88129698
5bc8dccd0f10750001d70a1c,46,0,2024-02-28T14:29:02.368Z,english_20.wav,0,pill,106,40,3,5,français,m,5,0.5,-34.41615075,1.16389527
5bc8dccd0f10750001d70a1c,46,0,2024-02-28T14:29:02.368Z,english_20.wav,0,pill,106,40,3,5,français,m,6,0.6,-59.60856077,1.73817265
5bc8dccd0f10750001d70a1c,46,0,2024-02-28T14:29:02.368Z,english_20.wav,0,pill,106,40,3,5,français,m,7,0.7,-5.91904512,1.94089825
5bc8dccd0f10750001d70a1c,46,0,2024-02-28T14:29:02.368Z,english_20.wav,0,pill,106,40,3,5,français,m,8,0.8,-91.08119021,0.88467755
5bc8dccd0f10750001d70a1c,46,0,2024-02-28T14:29:02.368Z,english_20.wav,0,pill,106,40,3,5,français,m,9,0.9,-45.35675883,1.32628719
5bc8dccd0f10750001d70a1c,46,0,2024-02-28T14:29:02.368Z,english_20.wav,0,pill,106,40,3,5,français,m,10,1.0,-19.89168543,0.31006302
5bc8dccd0f10750001d70a1c,46,0,2024-02-28T14:29:02.368Z,english_20.wav,0,pill,106,40,3,5,français,m,11,1.09391667,49.76773146,0.42478041
5bc8dccd0f10750001d70a1c,47,0,2024-02-28T14:29:02.368Z,english_265.wav,0,peel,170,40,3,5,français,m,0,0.0,37.99619851,0.51044294
5bc8dccd0f10750001d70a1c,47,0,2024-02-28T14:29:02.368Z,english_265.wav,0,peel,170,40,3,5,français,m,1,0.1,92.08310578,1.10850201
5bc8dccd0f10750001d70a1c,47,0,2024-02-28T14:29:02.368Z,english_265.wav,0,peel,170,40,3,5,français,m,2,0.2,-93.31608335,1.81697716
5bc8dccd0f10750001d70a1c,47,0,2024-02-28T14:29:02.368Z,english_265.wav,0,peel,170,40,3,5,français,m,3,0.3,-28.1732534,0.4401458
5bc8dccd0f10750001d70a1c,47,0,2024-02-28T14:29:02.368Z,english_265.wav,0,peel,170,40,3,5,français,m,4,0.4,91.25662543,1.00027347
5bc8dccd0f10750001d70a1c,47,0,2024-02-28T14:29:02.368Z,english_265.wav,0,peel,170,40,3,5,français,m,5,0.5,-3.3980371,0.61680146
5bc8dccd0f10750001d70a1c,47,0,2024-02-28T14:29:02.368Z,english_265.wav,0,peel,170,40,3,5,français,m,6,0.6,95.45543469,0.45035358
5bc8dccd0f10750001d70a1c,47,0,2024-02-28T14:29:02.368Z,english_265.wav,0,peel,170,40,3,5,français,m,7,0.7,61.34311925,0.66686517
5bc8dccd0f10750001d70a1c,47,0,2024-02-28T14:29:02.368Z,english_265.wav,0,peel,170,40,3,5,français,m,8,0.8,9.18146154,0.25031529
5bc8dccd0f10750001d70a1c,47,0,2024-02-28T14:29:02.368Z,english_265.wav,0,peel,170,40,3,5,français,m,9,0.9,-39.71464373,1.2364051
5bc8dccd0f10750001d70a1c,47,0,2024-02-28T14:29:02.368Z,english_265.wav,0,peel,170,40,3,5,français,m,10,1.0,67.37466109,0.23430361
5bc8dccd0f10750001d70a1c,47,0,2024-02-28T14:29:02.368Z,english_265.wav,0,peel,170,40,3,5,français,m,11,1.09391667,-37.66383284,1.07797595
5bc8dccd0f10750001d70a1c,48,0,2024-02-28T14:29:02.368Z,english_303.wav,0,peel,96,40,3,5,français,m,0,0.0,0.14016308,1.85835187
5bc8dccd0f10750001d70a1c,48,0,2024-02-28T14:29:02.368Z,english_303.wav,0,peel,96,40,3,5,français,m,1,0.1,-44.5758284,0.39450132
5bc8dccd0f10750001d70a1c,48,0,2024-02-28T14:29:02.368Z,english_303.wav,0,peel,96,40,3,5,français,m,2,0.2,40.18240402,0.24238742
5bc8dccd0f10750001d70a1c,48,0,2024-02-28T14:29:02.368Z,english_303.wav,0,peel,96,40,3,5,français,m,3,0.3,-39.07989996,0.56764068
5bc8dccd0f10750001d70a1c,48,0,2024-02-28T14:29:02.368Z,english_303.wav,0,peel,96,40,3,5,français,m,4,0.4,67.80800806,1.20233096
5bc8dccd0f10750001d70a1c,48,0,2024-02-28T14:29:02.368Z,english_303.wav,0,peel,96,40,3,5,français,m,5,0.5,17.65490848,0.74682504
5bc8dccd0f10750001d70a1c,48,0,2024-02-28T14:29:02.368Z,english_303.wav,0,peel,96,40,3,5,français,m,6,0.6,58.57137806,1.26635068
5bc8dccd0f10750001d70a1c,48,0,2024-02-28T14:29:02.368Z,english_303.wav,0,peel,96,40,3,5,français,m,7,0.7,-9.36157139,0.78955625
5bc8dccd0f10750001d70a1c,48,0,2024-02-28T14:29:02.368Z,english_303.wav,0,peel,96,40,3,5,français,m,8,0.8,-59.59223338,0.64317534
5bc8dccd0f10750001d70a1c,48,0,2024-02-28T14:29:02.368Z,english_303.wav,0,peel,96,40,3,5,français,m,9,0.9,-85.34182112,0.64803316
5bc8dccd0f10750001d70a1c,48,0,2024-02-28T14:29:02.368Z,english_303.wav,0,peel,96,40,3,5,français,m,10,1.0,98.58496987,0.59787494
5bc8dccd0f10750001d70a1c,48,0,2024-02-28T14:29:02.368Z,english_303.wav,0,peel,96,40,3,5,français,m,11,1.09391667,0.30898467,1.47452335
5bc8dccd0f10750001d70a1c,49,0,2024-02-28T14:29:02.368Z,english_283.wav,0,pill,4,40,3,5,français,m,0,0.0,-12.90091121,0.5789399
5bc8dccd0f10750001d70a1c,49,0,2024-02-28T14:29:02.368Z,english_283.wav,0,pill,4,40,3,5,français,m,1,0.1,42.27249946,1.95381107
5bc8dccd0f10750001d70a1c,49,0,2024-02-28T14:29:02.368Z,english_283.wav,0,pill,4,40,3,5,français,m,2,0.2,5.12381798,1.0168321
5bc8dccd0f10750001d70a1c,49,0,2024-02-28T14:29:02.368Z,english_283.wav,0,pill,4,40,3,5,français,m,3,0.3,1.7675065,0.61202955
5bc8dccd0f10750001d70a1c,49,0,2024-02-28T14:29:02.368Z,english_283.wav,0,pill,4,40,3,5,français,m,4,0.4,-21.55461961,0.89680875
5bc8dccd0f10750001d70a1c,49,0,2024-02-28T14:29:02.368Z,english_283.wav,0,pill,4,40,3,5,français,m,5,0.5,-31.65586282,1.15056599
5bc8dccd0f10750001d70a1c,49,0,2024-02-28T14:29:02.368Z,english_283.wav,0,pill,4,40,3,5,français,m,6,0.6,20.15160145,0.34242076
5bc8dccd0f10750001d70a1c,49,0,2024-02-28T14:29:02.368Z,english_283.wav,0,pill,4,40,3,5,français,m,7,0.7,82.41987013,1.76180701
5bc8dccd0f10750001d70a1c,49,0,2024-02-28T14:29:02.368Z,english_283.wav,0,pill,4,40,3,5,français,m,8,0.8,59.09454669,0.95604839
5bc8dccd0f10750001d70a1c,49,0,2024-02-28T14:29:02.368Z,english_283.wav,0,pill,4,40,3,5,français,m,9,0.9,36.30583869,1.86733505
5bc8dccd0f10750001d70a1c,49,0,2024-02-28T14:29:02.368Z,english_283.wav,0,pill,4,40,3,5,français,m,10,1.0,-40.78038553,1.17388738
5bc8dccd0f10750001d70a1c,49,0,2024-02-28T14:29:02.368Z,english_283.wav,0,pill,4,40,3,5,français,m,11,1.09391667,39.65520312,1.73016304
5bc8dccd0f10750001d70a1c,50,1,2024-02-28T14:29:02.368Z,english_484.wav,0,peel,96,40,3,5,français,m,0,0.0,2.0569585,0.34651955
5bc8dccd0f10750001d70a1c,50,1,2024-02-28T14:29:02.368Z,english_484.wav,0,peel,96,40,3,5,français,m,1,0.1,-79.1484241,1.84776357
5bc8dccd0f10750001d70a1c,50,1,2024-02-28T14:29:02.368Z,english_484.wav,0,peel,96,40,3,5,français,m,2,0.2,30.9033229,1.82203066
5bc8dccd0f10750001d70a1c,50,1,2024-02-28T14:29:02.368Z,english_484.wav,0,peel,96,40,3,5,français,m,3,0.3,12.05929197,1.56778111
5bc8dccd0f10750001d70a1c,50,1,2024-02-28T14:29:02.368Z,english_484.wav,0,peel,96,40,3,5,français,m,4,0.4,-72.8204973,1.22252397
5bc8dccd0f10750001d70a1c,50,1,2024-02-28T14:29:02.368Z,english_484.wav,0,peel,96,40,3,5,français,m,5,0.5,-89.96387514,1.78789861
5bc8dccd0f10750001d70a1c,50,1,2024-02-28T14:29:02.368Z,english_484.wav,0,peel,96,40,3,5,français,m,6,0.6,-22.94210609,0.02218534
5bc8dccd0f10750001d70a1c,50,1,2024-02-28T14:29:02.368Z,english_484.wav,0,peel,96,40,3,5,français,m,7,0.7,17.91925192,1.7744569
5bc8dccd0f10750001d70a1c,50,1,2024-02-28T14:29:02.368Z,english_484.wav,0,peel,96,40,3,5,français,m,8,0.8,-62.01555508,1.27917124
5bc8dccd0f10750001d70a1c,50,1,2024-02-28T14:29:02.368Z,english_484.wav,0,peel,96,40,3,5,français,m,9,0.9,-43.27412131,1.76665807
5bc8dccd0f10750001d70a1c,50,1,2024-02-28T14:29:02.368Z,english_484.wav,0,peel,96,40,3,5,français,m,10,1.0,0.91553281,1.1189794
5bc8dccd0f10750001d70a1c,50,1,2024-02-28T14:29:02.368Z,english_484.wav,0,peel,96,40,3,5,français,m,11,1.09391667,-32.68645572,0.68984214
5bc8dccd0f10750001d70a1c,51,1,2024-02-28T14:29:02.368Z,english_120.wav,0,pill,129,40,3,5,français,m,0,0.0,-26.38999682,0.72895048
5bc8dccd0f10750001d70a1c,51,1,2024-02-28T14:29:02.368Z,english_120.wav,0,pill,129,40,3,5,français,m,1,0.1,-22.99967347,1.8926075
5bc8dccd0f10750001d70a1c,51,1,2024-02-28T14:29:02.368Z,english_120.wav,0,pill,129,40,3,5,français,m,2,0.2,3.73325412,0.72613161
5bc8dccd0f10750001d70a1c,51,1,2024-02-28T14:29:02.368Z,english_120.wav,0,pill,129,40,3,5,français,m,3,0.3,4.96616557,1.865488
5bc8dccd0f10750001d70a1c,51,1,2024-02-28T14:29:02.368Z,english_120.wav,0,pill,129,40,3,5,français,m,4,0.4,-29.93221986,1.93166142
5bc8dccd0f10750001d70a1c,51,1,2024-02-28T14:29:02.368Z,english_120.wav,0,pill,129,40,3,5,français,m,5,0.5,37.07787093,0.25664039
5bc8dccd0f10750001d70a1c,51,1,2024-02-28T14:29:02.368Z,english_120.wav,0,pill,129,40,3,5,français,m,6,0.6,-72.11553582,1.70761542
5bc8dccd0f10750001d70a1c,51,1,2024-02-28T14:29:02.368Z,english_120.wav,0,pill,129,40,3,5,français,m,7,0.7,-26.01116497,0.9844932
5bc8dccd0f10750001d70a1c,51,1,2024-02-28T14:29:02.368Z,english_120.wav,0,pill,129,40,3,5,français,m,8,0.8,28.09141519,0.79083126
5bc8dccd0f10750001d70a1c,51,1,2024-02-28T14:29:02.368Z,english_120.wav,0,pill,129,40,3,5,français,m,9,0.9,-12.73315984,0.78849397
5bc8dccd0f10750001d70a1c,51,1,2024-02-28T14:29:02.368Z,english_120.wav,0,pill,129,40,3,5,français,m,10,1.0,-2.02458529,1.83169014
5bc8dccd0f10750001d70a1c,51,1,2024-02-28T14:29:02.368Z,english_120.wav,0,pill,129,40,3,5,français,m,11,1.09391667,-56.16856888,0.88953278
5bc8dccd0f10750001d70a1c,52,1,2024-02-28T14:29:02.368Z,english_504.wav,0,pill,55,40,3,5,français,m,0,0.0,-66.23189197,1.64024725
5bc8dccd0f10750001d70a1c,52,1,2024-02-28T14:29:02.368Z,english_504.wav,0,pill,55,40,3,5,français,m,1,0.1,-7.28081394,1.33861833
5bc8dccd0f10750001d70a1c,52,1,2024-02-28T14:29:02.368Z,english_504.wav,0,pill,55,40,3,5,français,m,2,0.2,-74.05426979,0.21996253
5bc8dccd0f10750001d70a1c,52,1,2024-02-28T14:29:02.368Z,english_504.wav,0,pill,55,40,3,5,français,m,3,0.3,-2.17834407,0.9295354
5bc8dccd0f10750001d70a1c,52,1,2024-02-28T14:29:02.368Z,english_504.wav,0,pill,55,40,3,5,français,m,4,0.4,-44.29553612,0.18867482
5bc8dccd0f10750001d70a1c,52,1,2024-02-28T14:29:02.368Z,english_504.wav,0,pill,55,40,3,5,français,m,5,0.5,-21.93882769,0.17745141
5bc8dccd0f10750001d70a1c,52,1,2024-02-28T14:29:02.368Z,english_504.wav,0,pill,55,40,3,5,français,m,6,0.6,-6.80381408,1.36415298
5bc8dccd0f10750001d70a1c,52,1,2024-02-28T14:29:02.368Z,english_504.wav,0,pill,55,40,3,5,français,m,7,0.7,9.00050206,1.08571676
5bc8dccd0f10750001d70a1c,52,1,2024-02-28T14:29:02.368Z,english_504.wav,0,pill,55,40,3,5,français,m,8,0.8,-19.58321875,1.38544941
5bc8dccd0f10750001d70a1c,52,1,2024-02-28T14:29:02.368Z,english_504.wav,0,pill,55,40,3,5,français,m,9,0.9,-97.27632106,0.33380342
5bc8dccd0f10750001d70a1c,52,1,2024-02-28T14:29:02.368Z,english_504.wav,0,pill,55,40,3,5,français,m,10,1.0,94.36582119,0.16971293
5bc8dccd0f10750001d70a1c,52,1,2024-02-28T14:29:02.368Z,english_504.wav,0,pill,55,40,3,5,français,m,11,1.09391667,-77.55415354,0.89224977
5bc8dccd0f10750001d70a1c,53,1,2024-02-28T14:29:02.368Z,english_81.wav,0,pill,12,40,3,5,français,m,0,0.0,71.09666265,1.09569192
5bc8dccd0f10750001d70a1c,53,1,2024-02-28T14:29:02.368Z,english_81.wav,0,pill,12,40,3,5,français,m,1,0.1,-38.93956525,1.65684188
5bc8dccd0f10750001d70a1c,53,1,2024-02-28T14:29:02.368Z,english_81.wav,0,pill,12,40,3,5,français,m,2,0.2,-48.61950395,0.44216952
5bc8dccd0f10750001d70a1c,53,1,2024-02-28T14:29:02.368Z,english_81.wav,0,pill,12,40,3,5,français,m,3,0.3,33.39514041,1.72758961
5bc8dccd0f10750001d70a1c,53,1,2024-02-28T14:29:02.368Z,english_81.wav,0,pill,12,40,3,5,français,m,4,0.4,18.24180048,1.46257927
5bc8dccd0f10750001d70a1c,53,1,2024-02-28T14:29:02.368Z,english_81.wav,0,pill,12,40,3,5,français,m,5,0.5,-45.85953695,1.53730542
5bc8dccd0f10750001d70a1c,53,1,2024-02-28T14:29:02.368Z,english_81.wav,0,pill,12,40,3,5,français,m,6,0.6,-0.32699599,1.28818555
5bc8dccd0f10750001d70a1c,53,1,2024-02-28T14:29:02.368Z,english_81.wav,0,pill,12,40,3,5,français,m,7,0.7,-32.78716597,1.19414744
5bc8dccd0f10750001d70a1c,53,1,2024-02-28T14:29:02.368Z,english_81.wav,0,pill,12,40,3,5,français,m,8,0.8,-37.9267269,1.01923165
5bc8dccd0f10750001d70a1c,53,1,2024-02-28T14:29:02.368Z,english_81.wav,0,pill,12,40,3,5,français,m,9,0.9,24.21331247,1.67441048
5bc8dccd0f10750001d70a1c,53,1,2024-02-28T14:29:02.368Z,english_81.wav,0,pill,12,40,3,5,français,m,10,1.0,-31.33871225,1.88948336
5bc8dccd0f10750001d70a1c,53,1,2024-02-28T14:29:02.368Z,english_81.wav,0,pill,12,40,3,5,français,m,11,1.09391667,-77.74283174,1.81428343
5bc8dccd0f10750001d70a1c,54,1,2024-02-28T14:29:02.368Z,english_89.wav,0,pill,86,40,3,5,français,m,0,0.0,44.55560521,0.83141016
5bc8dccd0f10750001d70a1c,54,1,2024-02-28T14:29:02.368Z,english_89.wav,0,pill,86,40,3,5,français,m,1,0.1,-38.12575075,0.73728779
5bc8dccd0f10750001d70a1c,54,1,2024-02-28T14:29:02.368Z,english_89.wav,0,pill,86,40,3,5,français,m,2,0.2,-85.08741113,0.76468972
5bc8dccd0f10750001d70a1c,54,1,2024-02-28T14:29:02.368Z,english_89.wav,0,pill,86,40,3,5,français,m,3,0.3,-34.51149373,1.40220205
5bc8dccd0f10750001d70a1c,54,1,2024-02-28T14:29:02.368Z,english_89.wav,0,pill,86,40,3,5,français,m,4,0.4,91.4200198,1.40801955
5bc8dccd0f10750001d70a1c,54,1,2024-02-28T14:29:02.368Z,english_89.wav,0,pill,86,40,3,5,français,m,5,0.5,-88.24762839,0.24508348
5bc8dccd0f10750001d70a1c,54,1,2024-02-28T14:29:02.368Z,english_89.wav,0,pill,86,40,3,5,français,m,6,0.6,-12.15976794,0.73331541
5bc8dccd0f10750001d70a1c,54,1,2024-02-28T14:29:02.368Z,english_89.wav,0,pill,86,40,3,5,français,m,7,0.7,8.11504905,1.14258486
5bc8dccd0f10750001d70a1c,54,1,2024-02-28T14:29:02.368Z,english_89.wav,0,pill,86,40,3,5,français,m,8,0.8,48.7516223,0.28719695
5bc8dccd0f10750001d70a1c,54,1,2024-02-28T14:29:02.368Z,english_89.wav,0,pill,86,40,3,5,français,m,9,0.9,-61.89417078,1.82425172
5bc8dccd0f10750001d70a1c,54,1,2024-02-28T14:29:02.368Z,english_89.wav,0,pill,86,40,3,5,français,m,10,1.0,70.08039029,1.66848997
5bc8dccd0f10750001d70a1c,54,1,2024-02-28T14:29:02.368Z,english_89.wav,0,pill,86,40,3,5,français,m,11,1.09391667,73.1109171,1.25647122
5bc8dccd0f10750001d70a1c,55,1,2024-02-28T14:29:02.368Z,english_58.wav,0,peel,35,40,3,5,français,m,0,0.0,-46.52390323,0.35126105
5bc8dccd0f10750001d70a1c,55,1,2024-02-28T14:29:02.368Z,english_58.wav,0,peel,35,40,3,5,français,m,1,0.1,19.23789521,1.12280932
5bc8dccd0f10750001d70a1c,55,1,2024-02-28T14:29:02.368Z,english_58.wav,0,peel,35,40,3,5,français,m,2,0.2,69.12106093,0.45102457
5bc8dccd0f10750001d70a1c,55,1,2024-02-28T14:29:02.368Z,english_58.wav,0,peel,35,40,3,5,français,m,3,0.3,-43.53874687,1.46305127
5bc8dccd0f10750001d70a1c,55,1,2024-02-28T14:29:02.368Z,english_58.wav,0,peel,35,40,3,5,français,m,4,0.4,-56.35842904,1.909583
5bc8dccd0f10750001d70a1c,55,1,2024-02-28T14:29:02.368Z,english_58.wav,0,peel,35,40,3,5,français,m,5,0.5,7.35134255,1.54363939
5bc8dccd0f10750001d70a1c,55,1,2024-02-28T14:29:02.368Z,english_58.wav,0,peel,35,40,3,5,français,m,6,0.6,-28.20207265,0.80451607
5bc8dccd0f10750001d70a1c,55,1,2024-02-28T14:29:02.368Z,english_58.wav,0,peel,35,40,3,5,français,m,7,0.7,-78.68633359,1.94404618
5bc8dccd0f10750001d70a1c,55,1,2024-02-28T14:29:02.368Z,english_58.wav,0,peel,35,40,3,5,français,m,8,0.8,27.00073493,0.82845057
5bc8dccd0f10750001d70a1c,55,1,2024-02-28T14:29:02.368Z,english_58.wav,0,peel,35,40,3,5,français,m,9,0.9,-36.58564369,1.3978679
5bc8dccd0f10750001d70a1c,55,1,2024-02-28T14:29:02.368Z,english_58.wav,0,peel,35,40,3,5,français,m,10,1.0,4.57816085,1.7044559
5bc8dccd0f10750001d70a1c,55,1,2024-02-28T14:29:02.368Z,english_58.wav,0,peel,35,40,3,5,français,m,11,1.09391667,-5.20378192,0.16192575
5bc8dccd0f10750001d70a1c,56,1,2024-02-28T14:29:02.368Z,english_665.wav,0,pill,1,40,3,5,français,m,0,0.0,-16.81613766,1.57148085
5bc8dccd0f10750001d70a1c,56,1,2024-02-28T14:29:02.368Z,english_665.wav,0,pill,1,40,3,5,français,m,1,0.1,6.45802089,1.67314542
5bc8dccd0f10750001d70a1c,56,1,2024-02-28T14:29:02.368Z,english_665.wav,0,pill,1,40,3,5,français,m,2,0.2,-39.14767358,1.64833963
5bc8dccd0f10750001d70a1c,56,1,2024-02-28T14:29:02.368Z,english_665.wav,0,pill,1,40,3,5,français,m,3,0.3,-59.56196692,0.04709433
5bc8dccd0f10750001d70a1c,56,1,2024-02-28T14:29:02.368Z,english_665.wav,0,pill,1,40,3,5,français,m,4,0.4,-22.80702259,1.1795503
5bc8dccd0f10750001d70a1c,56,1,2024-02-28T14:29:02.368Z,english_665.wav,0,pill,1,40,3,5,français,m,5,0.5,48.84600095,1.10369045
5bc8dccd0f10750001d70a1c,56,1,2024-02-28T14:29:02.368Z,english_665.wav,0,pill,1,40,3,5,français,m,6,0.6,-22.22311015,1.02368727
5bc8dccd0f10750001d70a1c,56,1,2024-02-28T14:29:02.368Z,english_665.wav,0,pill,1,40,3,5,français,m,7,0.7,-21.08263431,1.75922585
5bc8dccd0f10750001d70a1c,56,1,2024-02-28T14:29:02.368Z,english_665.wav,0,pill,1,40,3,5,français,m,8,0.8,-18.22407764,1.40227071
5bc8dccd0f10750001d70a1c,56,1,2024-02-28T14:29:02.368Z,english_665.wav,0,pill,1,40,3,5,français,m,9,0.9,-61.53900162,1.50722495
5bc8dccd0f10750001d70a1c,56,1,2024-02-28T14:29:02.368Z,english_665.wav,0,pill,1,40,3,5,français,m,10,1.0,-19.08536635,0.46597225
5bc8dccd0f10750001d70a1c,56,1,2024-02-28T14:29:02.368Z,english_665.wav,0,pill,1,40,3,5,français,m,11,1.09391667,-43.46705032,0.63106716
5bc8dccd0f10750001d70a1c,57,1,2024-02-28T14:29:02.368Z,english_443.wav,0,pill,151,40,3,5,français,m,0,0.0,81.96165797,0.75557645
5bc8dccd0f10750001d70a1c,57,1,2024-02-28T14:29:02.368Z,english_443.wav,0,pill,151,40,3,5,français,m,1,0.1,-28.05483683,1.24238721
5bc8dccd0f10750001d70a1c,57,1,2024-02-28T14:29:02.368Z,english_443.wav,0,pill,151,40,3,5,français,m,2,0.2,-21.59346314,1.29479034
5bc8dccd0f10750001d70a1c,57,1,2024-02-28T14:29:02.368Z,english_443.wav,0,pill,151,40,3,5,français,m,3,0.3,1.08429848,1.78084003
5bc8dccd0f10750001d70a1c,57,1,2024-02-28T14:29:02.368Z,english_443.wav,0,pill,151,40,3,5,français,m,4,0.4,21.43423257,0.20990132
5bc8dccd0f10750001d70a1c,57,1,2024-02-28T14:29:02.368Z,english_443.wav,0,pill,151,40,3,5,français,m,5,0.5,75.67535371,0.69063729
5bc8dccd0f10750001d70a1c,57,1,2024-02-28T14:29:02.368Z,english_443.wav,0,pill,151,40,3,5,français,m,6,0.6,-12.42326874,1.52523801
5bc8dccd0f10750001d70a1c,57,1,2024-02-28T14:29:02.368Z,english_443.wav,0,pill,151,40,3,5,français,m,7,0.7,-43.03784954,1.69469222
5bc8dccd0f10750001d70a1c,57,1,2024-02-28T14:29:02.368Z,english_443.wav,0,pill,151,40,3,5,français,m,8,0.8,-95.88108409,1.5231422
5bc8dccd0f10750001d70a1c,57,1,2024-02-28T14:29:02.368Z,english_443.wav,0,pill,151,40,3,5,français,m,9,0.9,5.88501358,0.01978813
5bc8dccd0f10750001d70a1c,57,1,2024-02-28T14:29:02.368Z,english_443.wav,0,pill,151,40,3,5,français,m,10,1.0,-74.23415878,0.32318558
5bc8dccd0f10750001d70a1c,57,1,2024-02-28T14:29:02.368Z,english_443.wav,0,pill,151,40,3,5,français,m,11,1.09391667,-13.77398798,1.99092699
5bc8dccd0f10750001d70a1c,58,1,2024-02-28T14:29:02.368Z,english_773.wav,0,pill,32,40,3,5,français,m,0,0.0,25.38598482,0.89232009
5bc8dccd0f10750001d70a1c,58,1,2024-02-28T14:29:02.368Z,english_773.wav,0,pill,32,40,3,5,français,m,1,0.1,-75.4290336,1.89128597
5bc8dccd0f10750001d70a1c,58,1,2024-02-28T14:29:02.368Z,english_773.wav,0,pill,32,40,3,5,français,m,2,0.2,-93.77214736,1.99899889
5bc8dccd0f10750001d70a1c,58,1,2024-02-28T14:29:02.368Z,english_773.wav,0,pill,32,40,3,5,français,m,3,0.3,-11.93109416,0.2472244
5bc8dccd0f10750001d70a1c,58,1,2024-02-28T14:29:02.368Z,english_773.wav,0,pill,32,40,3,5,français,m,4,0.4,-3.2584173,0.14273894
5bc8dccd0f10750001d70a1c,58,1,2024-02-28T14:29:02.368Z,english_773.wav,0,pill,32,40,3,5,français,m,5,0.5,4.3608059,1.21438163
5bc8dccd0f10750001d70a1c,58,1,2024-02-28T14:29:02.368Z,english_773.wav,0,pill,32,40,3,5,français,m,6,0.6,-67.37283883,0.96373014
5bc8dccd0f10750001d70a1c,58,1,2024-02-28T14:29:02.368Z,english_773.wav,0,pill,32,40,3,5,français,m,7,0.7,-45.00567152,1.90932533
5bc8dccd0f10750001d70a1c,58,1,2024-02-28T14:29:02.368Z,english_773.wav,0,pill,32,40,3,5,français,m,8,0.8,35.5097718,1.26347726
5bc8dccd0f10750001d70a1c,58,1,2024-02-28T14:29:02.368Z,english_773.wav,0,pill,32,40,3,5,français,m,9,0.9,43.03996363,1.83989813
5bc8dccd0f10750001d70a1c,58,1,2024-02-28T14:29:02.368Z,english_773.wav,0,pill,32,40,3,5,français,m,10,1.0,65.28264622,0.76004817
5bc8dccd0f10750001d70a1c,58,1,2024-02-28T14:29:02.368Z,english_773.wav,0,pill,32,40,3,5,français,m,11,1.09391667,-37.07012433,0.66989713
5bc8dccd0f10750001d70a1c,59,1,2024-02-28T14:29:02.368Z,english_983.wav,0,peel,78,40,3,5,français,m,0,0.0,-50.22823897,0.88633634
5bc8dccd0f10750001d70a1c,59,1,2024-02-28T14:29:02.368Z,english_983.wav,0,peel,78,40,3,5,français,m,1,0.1,-4.67437073,1.28034271
5bc8dccd0f10750001d70a1c,59,1,2024-02-28T14:29:02.368Z,english_983.wav,0,peel,78,40,3,5,français,m,2,0.2,-31.6094098,0.94172266
5bc8dccd0f10750001d70a1c,59,1,2024-02-28T14:29:02.368Z,english_983.wav,0,peel,78,40,3,5,français,m,3,0.3,25.42275216,0.73344406
5bc8dccd0f10750001d70a1c,59,1,2024-02-28T14:29:02.368Z,english_983.wav,0,peel,78,40,3,5,français,m,4,0.4,79.9624674,1.78223604
5bc8dccd0f10750001d70a1c,59,1,2024-02-28T14:29:02.368Z,english_983.wav,0,peel,78,40,3,5,français,m,5,0.5,11.84827872,1.04715588
5bc8dccd0f10750001d70a1c,59,1,2024-02-28T14:29:02.368Z,english_983.wav,0,peel,78,40,3,5,français,m,6,0.6,-53.41316004,1.93599287
5bc8dccd0f10750001d70a1c,59,1,2024-02-28T14:29:02.368Z,english_983.wav,0,peel,78,40,3,5,français,m,7,0.7,-2.37481813,0.44413806
5bc8dccd0f10750001d70a1c,59,1,2024-02-28T14:29:02.368Z,english_983.wav,0,peel,78,40,3,5,français,m,8,0.8,81.38125647,0.67013669
5bc8dccd0f10750001d70a1c,59,1,2024-02-28T14:29:02.368Z,english_983.wav,0,peel,78,40,3,5,français,m,9,0.9,-62.03068284,1.03528206
5bc8dccd0f10750001d70a1c,59,1,2024-02-28T14:29:02.368Z,english_983.wav,0,peel,78,40,3,5,français,m,10,1.0,-64.21224493,0.12422577
5bc8dccd0f10750001d70a1c,59,1,2024-02-28T14:29:02.368Z,english_983.wav,0,peel,78,40,3,5,français,m,11,1.09391667,38.19793451,1.50859084
5bc8dccd0f10750001d70a1c,60,1,2024-02-28T14:29:02.368Z,english_711.wav,0,peel,45,40,3,5,français,m,0,0.0,5.56697991,1.20296493
5bc8dccd0f10750001d70a1c,60,1,2024-02-28T14:29:02.368Z,english_711.wav,0,peel,45,40,3,5,français,m,1,0.1,-24.51973587,1.05892315
5bc8dccd0f10750001d70a1c,60,1,2024-02-28T14:29:02.368Z,english_711.wav,0,peel,45,40,3,5,français,m,2,0.2,14.74252879,0.52339911
5bc8dccd0f10750001d70a1c,60,1,2024-02-28T14:29:02.368Z,english_711.wav,0,peel,45,40,3,5,français,m,3,0.3,62.90835999,1.255633
5bc8dccd0f10750001d70a1c,60,1,2024-02-28T14:29:02.368Z,english_711.wav,0,peel,45,40,3,5,français,m,4,0.4,-30.148836,1.66876465
5bc8dccd0f10750001d70a1c,60,1,2024-02-28T14:29:02.368Z,english_711.wav,0,peel,45,40,3,5,français,m,5,0.5,-90.0367138,0.2337908
5bc8dccd0f10750001d70a1c,60,1,2024-02-28T14:29:02.368Z,english_711.wav,0,peel,45,40,3,5,français,m,6,0.6,23.29272454,0.4494252
5bc8dccd0f10750001d70a1c,60,1,2024-02-28T14:29:02.368Z,english_711.wav,0,peel,45,40,3,5,français,m,7,0.7,51.00007107,1.6594433
5bc8dccd0f10750001d70a1c,60,1,2024-02-28T14:29:02.368Z,english_711.wav,0,peel,45,40,3,5,français,m,8,0.8,-5.61877019,1.49925628
5bc8dccd0f10750001d70a1c,60,1,2024-02-28T14:29:02.368Z,english_711.wav,0,peel,45,40,3,5,français,m,9,0.9,4.00444287,1.73015634
5bc8dccd0f10750001d70a1c,60,1,2024-02-28T14:29:02.368Z,english_711.wav,0,peel,45,40,3,5,français,m,10,1.0,81.75034051,1.46308192
5bc8dccd0f10750001d70a1c,60,1,2024-02-28T14:29:02.368Z,english_711.wav,0,peel,45,40,3,5,français,m,11,1.09391667,-78.99678836,1.6603821
5bc8dccd0f10750001d70a1c,61,1,2024-02-28T14:29:02.368Z,english_17.wav,0,pill,81,40,3,5,français,m,0,0.0,-41.3657541,0.93042496
5bc8dccd0f10750001d70a1c,61,1,2024-02-28T14:29:02.368Z,english_17.wav,0,pill,81,40,3,5,français,m,1,0.1,18.52407521,0.57556252
5bc8dccd0f10750001d70a1c,61,1,2024-02-28T14:29:02.368Z,english_17.wav,0,pill,81,40,3,5,français,m,2,0.2,28.83660917,1.05825244
5bc8dccd0f10750001d70a1c,61,1,2024-02-28T14:29:02.368Z,english_17.wav,0,pill,81,40,3,5,français,m,3,0.3,-68.73925871,1.61296419
5bc8dccd0f10750001d70a1c,61,1,2024-02-28T14:29:02.368Z,english_17.wav,0,pill,81,40,3,5,français,m,4,0.4,16.38358539,1.88532434
5bc8dccd0f10750001d70a1c,61,1,2024-02-28T14:29:02.368Z,english_17.wav,0,pill,81,40,3,5,français,m,5,0.5,10.80665977,0.93003826
5bc8dccd0f10750001d70a1c,61,1,2024-02-28T14:29:02.368Z,english_17.wav,0,pill,81,40,3,5,français,m,6,0.6,-96.31867509,1.71319597
5bc8dccd0f10750001d70a1c,61,1,2024-02-28T14:29:02.368Z,english_17.wav,0,pill,81,40,3,5,français,m,7,0.7,3.37543051,0.84201525
5bc8dccd0f10750001d70a1c,61,1,2024-02-28T14:29:02.368Z,english_17.wav,0,pill,81,40,3,5,français,m,8,0.8,-54.88657906,0.38884428
5bc8dccd0f10750001d70a1c,61,1,2024-02-28T14:29:02.368Z,english_17.wav,0,pill,81,40,3,5,français,m,9,0.9,-8.55837904,0.28018269
5bc8dccd0f10750001d70a1c,61,1,2024-02-28T14:29:02.368Z,english_17.wav,0,pill,81,40,3,5,français,m,10,1.0,90.97556366,1.36723804
5bc8dccd0f10750001d70a1c,61,1,2024-02-28T14:29:02.368Z,english_17.wav,0,pill,81,40,3,5,français,m,11,1.09391667,-99.26558204,0.42314615
5bc8dccd0f10750001d70a1c,62,1,2024-02-28T14:29:02.368Z,english_153.wav,0,peel,33,40,3,5,français,m,0,0.0,-22.0137653,0.27160884
5bc8dccd0f10750001d70a1c,62,1,2024-02-28T14:29:02.368Z,english_153.wav,0,peel,33,40,3,5,français,m,1,0.1,21.87420495,0.44150389
5bc8dccd0f10750001d70a1c,62,1,2024-02-28T14:29:02.368Z,english_153.wav,0,peel,33,40,3,5,français,m,2,0.2,78.88032694,1.08191418
5bc8dccd0f10750001d70a1c,62,1,2024-02-28T14:29:02.368Z,english_153.wav,0,peel,33,40,3,5,français,m,3,0.3,68.02596654,0.18142841
5bc8dccd0f10750001d70a1c,62,1,2024-02-28T14:29:02.368Z,english_153.wav,0,peel,33,40,3,5,français,m,4,0.4,52.06150723,0.17455202
5bc8dccd0f10750001d70a1c,62,1,2024-02-28T14:29:02.368Z,english_153.wav,0,peel,33,40,3,5,français,m,5,0.5,-15.64198183,1.88425449
5bc8dccd0f10750001d70a1c,62,1,2024-02-28T14:29:02.368Z,english_153.wav,0,peel,33,40,3,5,français,m,6,0.6,-55.92218577,1.64687285
5bc8dccd0f10750001d70a1c,62,1,2024-02-28T14:29:02.368Z,english_153.wav,0,peel,33,40,3,5,français,m,7,0.7,45.74926524,1.52678411
5bc8dccd0f10750001d70a1c,62,1,2024-02-28T14:29:02.368Z,english_153.wav,0,peel,33,40,3,5,français,m,8,0.8,13.43145428,1.81629534
5bc8dccd0f10750001d70a1c,62,1,2024-02-28T14:29:02.368Z,english_153.wav,0,peel,33,40,3,5,français,m,9,0.9,-40.59369693,0.8186826
5bc8dccd0f10750001d70a1c,62,1,2024-02-28T14:29:02.368Z,english_153.wav,0,peel,33,40,3,5,français,m,10,1.0,14.2660924,0.36511419
5bc8dccd0f10750001d70a1c,62,1,2024-02-28T14:29:02.368Z,english_153.wav,0,peel,33,40,3,5,français,m,11,1.09391667,62.05558257,1.38161287
5bc8dccd0f10750001d70a1c,63,1,2024-02-28T14:29:02.368Z,english_445.wav,0,peel,103,40,3,5,français,m,0,0.0,76.42112213,1.57802926
5bc8dccd0f10750001d70a1c,63,1,2024-02-28T14:29:02.368Z,english_445.wav,0,peel,103,40,3,5,français,m,1,0.1,-97.95203426,1.29835175
5bc8dccd0f10750001d70a1c,63,1,2024-02-28T14:29:02.368Z,english_445.wav,0,peel,103,40,3,5,français,m,2,0.2,-59.82746333,0.53636504
5bc8dccd0f10750001d70a1c,63,1,2024-02-28T14:29:02.368Z,english_445.wav,0,peel,103,40,3,5,français,m,3,0.3,-13.48573522,1.2021667
5bc8dccd0f10750001d70a1c,63,1,2024-02-28T14:29:02.368Z,english_445.wav,0,peel,103,40,3,5,français,m,4,0.4,81.29973607,1.41426839
5bc8dccd0f10750001d70a1c,63,1,2024-02-28T14:29:02.368Z,english_445.wav,0,peel,103,40,3,5,français,m,5,0.5,41.3671656,1.60295296
5bc8dccd0f10750001d70a1c,63,1,2024-02-28T14:29:02.368Z,english_445.wav,0,peel,103,40,3,5,français,m,6,0.6,-85.98514438,0.58159358
5bc8dccd0f10750001d70a1c,63,1,2024-02-28T14:29:02.368Z,english_445.wav,0,peel,103,40,3,5,français,m,7,0.7,57.90232239,0.76199649
5bc8dccd0f10750001d70a1c,63,1,2024-02-28T14:29:02.368Z,english_445.wav,0,peel,103,40,3,5,français,m,8,0.8,-95.60547231,0.54097795
5bc8dccd0f10750001d70a1c,63,1,2024-02-28T14:29:02.368Z,english_445.wav,0,peel,103,40,3,5,français,m,9,0.9,17.13362758,0.00538706
5bc8dccd0f10750001d70a1c,63,1,2024-02-28T14:29:02.368Z,english_445.wav,0,peel,103,40,3,5,français,m,10,1.0,46.54539843,0.3060589
5bc8dccd0f10750001d70a1c,63,1,2024-02-28T14:29:02.368Z,english_445.wav,0,peel,103,40,3,5,français,m,11,1.09391667,43.78720367,1.39576853
5bc8dccd0f10750001d70a1c,64,1,2024-02-28T14:29:02.368Z,english_767.wav,0,pill,142,40,3,5,français,m,0,0.0,-51.82889882,0.85849805
5bc8dccd0f10750001d70a1c,64,1,2024-02-28T14:29:02.368Z,english_767.wav,0,pill,142,40,3,5,français,m,1,0.1,51.01701548,0.56470658
5bc8dccd0f10750001d70a1c,64,1,2024-02-28T14:29:02.368Z,english_767.wav,0,pill,142,40,3,5,français,m,2,0.2,-33.49871036,1.12840655
5bc8dccd0f10750001d70a1c,64,1,2024-02-28T14:29:02.368Z,english_767.wav,0,pill,142,40,3,5,français,m,3,0.3,35.0661797,0.30358847
5bc8dccd0f10750001d70a1c,64,1,2024-02-28T14:29:02.368Z,english_767.wav,0,pill,142,40,3,5,français,m,4,0.4,-66.76498728,1.98047846
5bc8dccd0f10750001d70a1c,64,1,2024-02-28T14:29:02.368Z,english_767.wav,0,pill,142,40,3,5,français,m,5,0.5,-60.63649878,1.15215796
5bc8dccd0f10750001d70a1c,64,1,2024-02-28T14:29:02.368Z,english_767.wav,0,pill,142,40,3,5,français,m,6,0.6,-66.50688625,0.97775859
