subj,trial,block,date,stim,stim_order,response,rt,age,english,french,language,sex,param_index,segment,pitch,stretch
6107c89aca9be4d0dd02c4e6,0,0,2024-02-28T14:23:20.408Z,english_294.wav,0,pill,2568,23,5,5,français,ff,0,0.0,-35.26170476,0.76895084
6107c89aca9be4d0dd02c4e6,0,0,2024-02-28T14:23:20.408Z,english_294.wav,0,pill,2568,23,5,5,français,ff,1,0.1,-68.79847515,0.42345848
6107c89aca9be4d0dd02c4e6,0,0,2024-02-28T14:23:20.408Z,english_294.wav,0,pill,2568,23,5,5,français,ff,2,0.2,21.65443345,1.88759315
6107c89aca9be4d0dd02c4e6,0,0,2024-02-28T14:23:20.408Z,english_294.wav,0,pill,2568,23,5,5,français,ff,3,0.3,18.61336719,0.20743541
6107c89aca9be4d0dd02c4e6,0,0,2024-02-28T14:23:20.408Z,english_294.wav,0,pill,2568,23,5,5,français,ff,4,0.4,29.14118392,0.10193981
6107c89aca9be4d0dd02c4e6,0,0,2024-02-28T14:23:20.408Z,english_294.wav,0,pill,2568,23,5,5,français,ff,5,0.5,-0.79474297,0.31438326
6107c89aca9be4d0dd02c4e6,0,0,2024-02-28T14:23:20.408Z,english_294.wav,0,pill,2568,23,5,5,français,ff,6,0.6,-83.10715175,1.2995954
6107c89aca9be4d0dd02c4e6,0,0,2024-02-28T14:23:20.408Z,english_294.wav,0,pill,2568,23,5,5,français,ff,7,0.7,-22.63410673,1.94703728
6107c89aca9be4d0dd02c4e6,0,0,2024-02-28T14:23:20.408Z,english_294.wav,0,pill,2568,23,5,5,français,ff,8,0.8,-21.26415856,0.92366458
6107c89aca9be4d0dd02c4e6,0,0,2024-02-28T14:23:20.408Z,english_294.wav,0,pill,2568,23,5,5,français,ff,9,0.9,47.90727918,1.04223302
6107c89aca9be4d0dd02c4e6,0,0,2024-02-28T14:23:20.408Z,english_294.wav,0,pill,2568,23,5,5,français,ff,10,1.0,-39.88232682,1.01801331
6107c89aca9be4d0dd02c4e6,0,0,2024-02-28T14:23:20.408Z,english_294.wav,0,pill,2568,23,5,5,français,ff,11,1.09391667,-74.09279353,0.911147
6107c89aca9be4d0dd02c4e6,1,0,2024-02-28T14:23:20.408Z,english_481.wav,0,pill,9191,23,5,5,français,ff,0,0.0,12.53874901,1.58204947
6107c89aca9be4d0dd02c4e6,1,0,2024-02-28T14:23:20.408Z,english_481.wav,0,pill,9191,23,5,5,français,ff,1,0.1,-9.84524601,0.30197463
6107c89aca9be4d0dd02c4e6,1,0,2024-02-28T14:23:20.408Z,english_481.wav,0,pill,9191,23,5,5,français,ff,2,0.2,-28.69081604,1.36929082
6107c89aca9be4d0dd02c4e6,1,0,2024-02-28T14:23:20.408Z,english_481.wav,0,pill,9191,23,5,5,français,ff,3,0.3,-3.98654711,1.57950224
6107c89aca9be4d0dd02c4e6,1,0,2024-02-28T14:23:20.408Z,english_481.wav,0,pill,9191,23,5,5,français,ff,4,0.4,-31.85582808,1.64821008
6107c89aca9be4d0dd02c4e6,1,0,2024-02-28T14:23:20.408Z,english_481.wav,0,pill,9191,23,5,5,français,ff,5,0.5,-60.66158974,1.40708
6107c89aca9be4d0dd02c4e6,1,0,2024-02-28T14:23:20.408Z,english_481.wav,0,pill,9191,23,5,5,français,ff,6,0.6,37.08553698,0.90705567
6107c89aca9be4d0dd02c4e6,1,0,2024-02-28T14:23:20.408Z,english_481.wav,0,pill,9191,23,5,5,français,ff,7,0.7,-55.30747295,0.62618862
6107c89aca9be4d0dd02c4e6,1,0,2024-02-28T14:23:20.408Z,english_481.wav,0,pill,9191,23,5,5,français,ff,8,0.8,79.95944373,0.10659235
6107c89aca9be4d0dd02c4e6,1,0,2024-02-28T14:23:20.408Z,english_481.wav,0,pill,9191,23,5,5,français,ff,9,0.9,16.93049167,0.31824417
6107c89aca9be4d0dd02c4e6,1,0,2024-02-28T14:23:20.408Z,english_481.wav,0,pill,9191,23,5,5,français,ff,10,1.0,2.57902723,0.18714767
6107c89aca9be4d0dd02c4e6,1,0,2024-02-28T14:23:20.408Z,english_481.wav,0,pill,9191,23,5,5,français,ff,11,1.09391667,9.37320396,0.57978015
6107c89aca9be4d0dd02c4e6,2,0,2024-02-28T14:23:20.408Z,english_610.wav,0,pill,2053,23,5,5,français,ff,0,0.0,-92.84300711,0.87509592
6107c89aca9be4d0dd02c4e6,2,0,2024-02-28T14:23:20.408Z,english_610.wav,0,pill,2053,23,5,5,français,ff,1,0.1,84.93303095,1.15799642
6107c89aca9be4d0dd02c4e6,2,0,2024-02-28T14:23:20.408Z,english_610.wav,0,pill,2053,23,5,5,français,ff,2,0.2,80.17137486,0.35067597
6107c89aca9be4d0dd02c4e6,2,0,2024-02-28T14:23:20.408Z,english_610.wav,0,pill,2053,23,5,5,français,ff,3,0.3,-20.18134966,0.73569606
6107c89aca9be4d0dd02c4e6,2,0,2024-02-28T14:23:20.408Z,english_610.wav,0,pill,2053,23,5,5,français,ff,4,0.4,-20.20363531,1.23116766
6107c89aca9be4d0dd02c4e6,2,0,2024-02-28T14:23:20.408Z,english_610.wav,0,pill,2053,23,5,5,français,ff,5,0.5,-69.79247274,0.29684789
6107c89aca9be4d0dd02c4e6,2,0,2024-02-28T14:23:20.408Z,english_610.wav,0,pill,2053,23,5,5,français,ff,6,0.6,33.10957698,0.98948574
6107c89aca9be4d0dd02c4e6,2,0,2024-02-28T14:23:20.408Z,english_610.wav,0,pill,2053,23,5,5,français,ff,7,0.7,-20.50322303,0.76787478
6107c89aca9be4d0dd02c4e6,2,0,2024-02-28T14:23:20.408Z,english_610.wav,0,pill,2053,23,5,5,français,ff,8,0.8,-72.05825618,0.48117832
6107c89aca9be4d0dd02c4e6,2,0,2024-02-28T14:23:20.408Z,english_610.wav,0,pill,2053,23,5,5,français,ff,9,0.9,1.26743028,0.47321928
6107c89aca9be4d0dd02c4e6,2,0,2024-02-28T14:23:20.408Z,english_610.wav,0,pill,2053,23,5,5,français,ff,10,1.0,17.12915034,0.17126553
6107c89aca9be4d0dd02c4e6,2,0,2024-02-28T14:23:20.408Z,english_610.wav,0,pill,2053,23,5,5,français,ff,11,1.09391667,64.76618694,1.04318183
6107c89aca9be4d0dd02c4e6,3,0,2024-02-28T14:23:20.408Z,english_457.wav,0,peel,2074,23,5,5,français,ff,0,0.0,84.98139411,1.86732056
6107c89aca9be4d0dd02c4e6,3,0,2024-02-28T14:23:20.408Z,english_457.wav,0,peel,2074,23,5,5,français,ff,1,0.1,17.09678879,0.44857368
6107c89aca9be4d0dd02c4e6,3,0,2024-02-28T14:23:20.408Z,english_457.wav,0,peel,2074,23,5,5,français,ff,2,0.2,57.17804744,1.73229159
6107c89aca9be4d0dd02c4e6,3,0,2024-02-28T14:23:20.408Z,english_457.wav,0,peel,2074,23,5,5,français,ff,3,0.3,14.4816153,0.24838145
6107c89aca9be4d0dd02c4e6,3,0,2024-02-28T14:23:20.408Z,english_457.wav,0,peel,2074,23,5,5,français,ff,4,0.4,-95.87323345,1.53185401
6107c89aca9be4d0dd02c4e6,3,0,2024-02-28T14:23:20.408Z,english_457.wav,0,peel,2074,23,5,5,français,ff,5,0.5,72.05470838,1.59335631
6107c89aca9be4d0dd02c4e6,3,0,2024-02-28T14:23:20.408Z,english_457.wav,0,peel,2074,23,5,5,français,ff,6,0.6,30.06629286,0.96995374
6107c89aca9be4d0dd02c4e6,3,0,2024-02-28T14:23:20.408Z,english_457.wav,0,peel,2074,23,5,5,français,ff,7,0.7,-8.14218992,1.30472387
6107c89aca9be4d0dd02c4e6,3,0,2024-02-28T14:23:20.408Z,english_457.wav,0,peel,2074,23,5,5,français,ff,8,0.8,-4.76706145,1.4318374
6107c89aca9be4d0dd02c4e6,3,0,2024-02-28T14:23:20.408Z,english_457.wav,0,peel,2074,23,5,5,français,ff,9,0.9,60.66734428,0.45428712
6107c89aca9be4d0dd02c4e6,3,0,2024-02-28T14:23:20.408Z,english_457.wav,0,peel,2074,23,5,5,français,ff,10,1.0,-30.19655674,0.92562243
6107c89aca9be4d0dd02c4e6,3,0,2024-02-28T14:23:20.408Z,english_457.wav,0,peel,2074,23,5,5,français,ff,11,1.09391667,-39.41077424,0.45157817
6107c89aca9be4d0dd02c4e6,4,0,2024-02-28T14:23:20.408Z,english_521.wav,0,pill,1153,23,5,5,français,ff,0,0.0,5.37787975,1.11621025
6107c89aca9be4d0dd02c4e6,4,0,2024-02-28T14:23:20.408Z,english_521.wav,0,pill,1153,23,5,5,français,ff,1,0.1,9.32249591,0.69917502
6107c89aca9be4d0dd02c4e6,4,0,2024-02-28T14:23:20.408Z,english_521.wav,0,pill,1153,23,5,5,français,ff,2,0.2,4.19745407,0.1199413
6107c89aca9be4d0dd02c4e6,4,0,2024-02-28T14:23:20.408Z,english_521.wav,0,pill,1153,23,5,5,français,ff,3,0.3,-75.18613478,1.762579
6107c89aca9be4d0dd02c4e6,4,0,2024-02-28T14:23:20.408Z,english_521.wav,0,pill,1153,23,5,5,français,ff,4,0.4,87.02780947,1.43452798
6107c89aca9be4d0dd02c4e6,4,0,2024-02-28T14:23:20.408Z,english_521.wav,0,pill,1153,23,5,5,français,ff,5,0.5,-73.26225675,0.23094002
6107c89aca9be4d0dd02c4e6,4,0,2024-02-28T14:23:20.408Z,english_521.wav,0,pill,1153,23,5,5,français,ff,6,0.6,66.15406762,1.51181612
6107c89aca9be4d0dd02c4e6,4,0,2024-02-28T14:23:20.408Z,english_521.wav,0,pill,1153,23,5,5,français,ff,7,0.7,-9.80579818,1.4155143
6107c89aca9be4d0dd02c4e6,4,0,2024-02-28T14:23:20.408Z,english_521.wav,0,pill,1153,23,5,5,français,ff,8,0.8,17.20812603,1.82718341
6107c89aca9be4d0dd02c4e6,4,0,2024-02-28T14:23:20.408Z,english_521.wav,0,pill,1153,23,5,5,français,ff,9,0.9,21.88979452,1.93759588
6107c89aca9be4d0dd02c4e6,4,0,2024-02-28T14:23:20.408Z,english_521.wav,0,pill,1153,23,5,5,français,ff,10,1.0,-69.39969828,1.70606784
6107c89aca9be4d0dd02c4e6,4,0,2024-02-28T14:23:20.408Z,english_521.wav,0,pill,1153,23,5,5,français,ff,11,1.09391667,-64.03153918,0.09885652
6107c89aca9be4d0dd02c4e6,5,0,2024-02-28T14:23:20.408Z,english_565.wav,0,peel,2564,23,5,5,français,ff,0,0.0,90.76087004,0.64245812
6107c89aca9be4d0dd02c4e6,5,0,2024-02-28T14:23:20.408Z,english_565.wav,0,peel,2564,23,5,5,français,ff,1,0.1,90.93114699,0.32525734
6107c89aca9be4d0dd02c4e6,5,0,2024-02-28T14:23:20.408Z,english_565.wav,0,peel,2564,23,5,5,français,ff,2,0.2,-32.37019607,1.091812
6107c89aca9be4d0dd02c4e6,5,0,2024-02-28T14:23:20.408Z,english_565.wav,0,peel,2564,23,5,5,français,ff,3,0.3,77.30434891,0.92230791
6107c89aca9be4d0dd02c4e6,5,0,2024-02-28T14:23:20.408Z,english_565.wav,0,peel,2564,23,5,5,français,ff,4,0.4,-9.73234267,0.30031599
6107c89aca9be4d0dd02c4e6,5,0,2024-02-28T14:23:20.408Z,english_565.wav,0,peel,2564,23,5,5,français,ff,5,0.5,-83.24650182,0.39093775
6107c89aca9be4d0dd02c4e6,5,0,2024-02-28T14:23:20.408Z,english_565.wav,0,peel,2564,23,5,5,français,ff,6,0.6,21.51683352,0.75549465
6107c89aca9be4d0dd02c4e6,5,0,2024-02-28T14:23:20.408Z,english_565.wav,0,peel,2564,23,5,5,français,ff,7,0.7,88.66647516,1.68865449
6107c89aca9be4d0dd02c4e6,5,0,2024-02-28T14:23:20.408Z,english_565.wav,0,peel,2564,23,5,5,français,ff,8,0.8,21.52943084,0.98033477
6107c89aca9be4d0dd02c4e6,5,0,2024-02-28T14:23:20.408Z,english_565.wav,0,peel,2564,23,5,5,français,ff,9,0.9,0.60796245,1.75979764
6107c89aca9be4d0dd02c4e6,5,0,2024-02-28T14:23:20.408Z,english_565.wav,0,peel,2564,23,5,5,français,ff,10,1.0,9.87605239,1.41337712
6107c89aca9be4d0dd02c4e6,5,0,2024-02-28T14:23:20.408Z,english_565.wav,0,peel,2564,23,5,5,français,ff,11,1.09391667,92.11409348,0.97633592
6107c89aca9be4d0dd02c4e6,6,0,2024-02-28T14:23:20.408Z,english_750.wav,0,peel,928,23,5,5,français,ff,0,0.0,-25.16303224,0.86862278
6107c89aca9be4d0dd02c4e6,6,0,2024-02-28T14:23:20.408Z,english_750.wav,0,peel,928,23,5,5,français,ff,1,0.1,-14.02768866,0.53645709
6107c89aca9be4d0dd02c4e6,6,0,2024-02-28T14:23:20.408Z,english_750.wav,0,peel,928,23,5,5,français,ff,2,0.2,69.31394604,1.09554837
6107c89aca9be4d0dd02c4e6,6,0,2024-02-28T14:23:20.408Z,english_750.wav,0,peel,928,23,5,5,français,ff,3,0.3,90.85453111,0.97960852
6107c89aca9be4d0dd02c4e6,6,0,2024-02-28T14:23:20.408Z,english_750.wav,0,peel,928,23,5,5,français,ff,4,0.4,-11.11189664,1.14883971
6107c89aca9be4d0dd02c4e6,6,0,2024-02-28T14:23:20.408Z,english_750.wav,0,peel,928,23,5,5,français,ff,5,0.5,99.7192225,0.16341609
6107c89aca9be4d0dd02c4e6,6,0,2024-02-28T14:23:20.408Z,english_750.wav,0,peel,928,23,5,5,français,ff,6,0.6,59.23899804,1.34227106
6107c89aca9be4d0dd02c4e6,6,0,2024-02-28T14:23:20.408Z,english_750.wav,0,peel,928,23,5,5,français,ff,7,0.7,61.96409814,1.64659331
6107c89aca9be4d0dd02c4e6,6,0,2024-02-28T14:23:20.408Z,english_750.wav,0,peel,928,23,5,5,français,ff,8,0.8,86.60257641,0.80940412
6107c89aca9be4d0dd02c4e6,6,0,2024-02-28T14:23:20.408Z,english_750.wav,0,peel,928,23,5,5,français,ff,9,0.9,26.97835103,1.55602713
6107c89aca9be4d0dd02c4e6,6,0,2024-02-28T14:23:20.408Z,english_750.wav,0,peel,928,23,5,5,français,ff,10,1.0,-29.13235822,0.0040181
6107c89aca9be4d0dd02c4e6,6,0,2024-02-28T14:23:20.408Z,english_750.wav,0,peel,928,23,5,5,français,ff,11,1.09391667,-49.9357994,1.03656175
6107c89aca9be4d0dd02c4e6,7,0,2024-02-28T14:23:20.408Z,english_409.wav,0,pill,1000,23,5,5,français,ff,0,0.0,-79.1757247,0.87513374
6107c89aca9be4d0dd02c4e6,7,0,2024-02-28T14:23:20.408Z,english_409.wav,0,pill,1000,23,5,5,français,ff,1,0.1,-82.91562438,0.12656435
6107c89aca9be4d0dd02c4e6,7,0,2024-02-28T14:23:20.408Z,english_409.wav,0,pill,1000,23,5,5,français,ff,2,0.2,91.50346008,0.63589246
6107c89aca9be4d0dd02c4e6,7,0,2024-02-28T14:23:20.408Z,english_409.wav,0,pill,1000,23,5,5,français,ff,3,0.3,-40.10375406,1.28419635
6107c89aca9be4d0dd02c4e6,7,0,2024-02-28T14:23:20.408Z,english_409.wav,0,pill,1000,23,5,5,français,ff,4,0.4,90.70869954,0.88499041
6107c89aca9be4d0dd02c4e6,7,0,2024-02-28T14:23:20.408Z,english_409.wav,0,pill,1000,23,5,5,français,ff,5,0.5,-20.97681685,1.10973129
6107c89aca9be4d0dd02c4e6,7,0,2024-02-28T14:23:20.408Z,english_409.wav,0,pill,1000,23,5,5,français,ff,6,0.6,17.21215857,0.84354096
6107c89aca9be4d0dd02c4e6,7,0,2024-02-28T14:23:20.408Z,english_409.wav,0,pill,1000,23,5,5,français,ff,7,0.7,-53.91144795,1.20925869
6107c89aca9be4d0dd02c4e6,7,0,2024-02-28T14:23:20.408Z,english_409.wav,0,pill,1000,23,5,5,français,ff,8,0.8,37.0057153,0.06654022
6107c89aca9be4d0dd02c4e6,7,0,2024-02-28T14:23:20.408Z,english_409.wav,0,pill,1000,23,5,5,français,ff,9,0.9,34.22730219,1.12491035
6107c89aca9be4d0dd02c4e6,7,0,2024-02-28T14:23:20.408Z,english_409.wav,0,pill,1000,23,5,5,français,ff,10,1.0,10.55146488,1.41050889
6107c89aca9be4d0dd02c4e6,7,0,2024-02-28T14:23:20.408Z,english_409.wav,0,pill,1000,23,5,5,français,ff,11,1.09391667,-24.71915283,1.38366211
6107c89aca9be4d0dd02c4e6,8,0,2024-02-28T14:23:20.408Z,english_962.wav,0,pill,588,23,5,5,français,ff,0,0.0,-16.60048673,0.55938727
6107c89aca9be4d0dd02c4e6,8,0,2024-02-28T14:23:20.408Z,english_962.wav,0,pill,588,23,5,5,français,ff,1,0.1,86.97119881,1.40731286
6107c89aca9be4d0dd02c4e6,8,0,2024-02-28T14:23:20.408Z,english_962.wav,0,pill,588,23,5,5,français,ff,2,0.2,60.43507778,0.29415182
6107c89aca9be4d0dd02c4e6,8,0,2024-02-28T14:23:20.408Z,english_962.wav,0,pill,588,23,5,5,français,ff,3,0.3,34.28838618,0.53536257
6107c89aca9be4d0dd02c4e6,8,0,2024-02-28T14:23:20.408Z,english_962.wav,0,pill,588,23,5,5,français,ff,4,0.4,-3.8203387,0.38742579
6107c89aca9be4d0dd02c4e6,8,0,2024-02-28T14:23:20.408Z,english_962.wav,0,pill,588,23,5,5,français,ff,5,0.5,82.49891636,0.91323434
6107c89aca9be4d0dd02c4e6,8,0,2024-02-28T14:23:20.408Z,english_962.wav,0,pill,588,23,5,5,français,ff,6,0.6,22.18578672,0.69102333
6107c89aca9be4d0dd02c4e6,8,0,2024-02-28T14:23:20.408Z,english_962.wav,0,pill,588,23,5,5,français,ff,7,0.7,20.13766391,0.47321431
6107c89aca9be4d0dd02c4e6,8,0,2024-02-28T14:23:20.408Z,english_962.wav,0,pill,588,23,5,5,français,ff,8,0.8,74.50191695,1.91525386
6107c89aca9be4d0dd02c4e6,8,0,2024-02-28T14:23:20.408Z,english_962.wav,0,pill,588,23,5,5,français,ff,9,0.9,68.04596391,0.05569164
6107c89aca9be4d0dd02c4e6,8,0,2024-02-28T14:23:20.408Z,english_962.wav,0,pill,588,23,5,5,français,ff,10,1.0,-41.45827676,1.5038001
6107c89aca9be4d0dd02c4e6,8,0,2024-02-28T14:23:20.408Z,english_962.wav,0,pill,588,23,5,5,français,ff,11,1.09391667,-81.40338911,1.11433977
6107c89aca9be4d0dd02c4e6,9,0,2024-02-28T14:23:20.408Z,english_694.wav,0,peel,501,23,5,5,français,ff,0,0.0,28.89643962,0.23097519
6107c89aca9be4d0dd02c4e6,9,0,2024-02-28T14:23:20.408Z,english_694.wav,0,peel,501,23,5,5,français,ff,1,0.1,-44.49941165,1.12594213
6107c89aca9be4d0dd02c4e6,9,0,2024-02-28T14:23:20.408Z,english_694.wav,0,peel,501,23,5,5,français,ff,2,0.2,60.6754056,1.01502789
6107c89aca9be4d0dd02c4e6,9,0,2024-02-28T14:23:20.408Z,english_694.wav,0,peel,501,23,5,5,français,ff,3,0.3,72.66869222,0.55545347
6107c89aca9be4d0dd02c4e6,9,0,2024-02-28T14:23:20.408Z,english_694.wav,0,peel,501,23,5,5,français,ff,4,0.4,26.91102981,0.313515
6107c89aca9be4d0dd02c4e6,9,0,2024-02-28T14:23:20.408Z,english_694.wav,0,peel,501,23,5,5,français,ff,5,0.5,-19.36398165,0.8133174
6107c89aca9be4d0dd02c4e6,9,0,2024-02-28T14:23:20.408Z,english_694.wav,0,peel,501,23,5,5,français,ff,6,0.6,83.61982614,0.08479119
6107c89aca9be4d0dd02c4e6,9,0,2024-02-28T14:23:20.408Z,english_694.wav,0,peel,501,23,5,5,français,ff,7,0.7,-93.83830037,1.36590055
6107c89aca9be4d0dd02c4e6,9,0,2024-02-28T14:23:20.408Z,english_694.wav,0,peel,501,23,5,5,français,ff,8,0.8,-41.75440855,1.50882856
6107c89aca9be4d0dd02c4e6,9,0,2024-02-28T14:23:20.408Z,english_694.wav,0,peel,501,23,5,5,français,ff,9,0.9,-17.17525064,1.54263899
6107c89aca9be4d0dd02c4e6,9,0,2024-02-28T14:23:20.408Z,english_694.wav,0,peel,501,23,5,5,français,ff,10,1.0,5.88397372,1.28663395
6107c89aca9be4d0dd02c4e6,9,0,2024-02-28T14:23:20.408Z,english_694.wav,0,peel,501,23,5,5,français,ff,11,1.09391667,84.29938157,0.05122723
6107c89aca9be4d0dd02c4e6,10,0,2024-02-28T14:23:20.408Z,english_34.wav,0,peel,372,23,5,5,français,ff,0,0.0,9.71692873,1.51290073
6107c89aca9be4d0dd02c4e6,10,0,2024-02-28T14:23:20.408Z,english_34.wav,0,peel,372,23,5,5,français,ff,1,0.1,-32.4765448,1.69209185
6107c89aca9be4d0dd02c4e6,10,0,2024-02-28T14:23:20.408Z,english_34.wav,0,peel,372,23,5,5,français,ff,2,0.2,15.43761556,1.03006511
6107c89aca9be4d0dd02c4e6,10,0,2024-02-28T14:23:20.408Z,english_34.wav,0,peel,372,23,5,5,français,ff,3,0.3,58.61018381,0.24425739
6107c89aca9be4d0dd02c4e6,10,0,2024-02-28T14:23:20.408Z,english_34.wav,0,peel,372,23,5,5,français,ff,4,0.4,25.83507297,1.41814457
6107c89aca9be4d0dd02c4e6,10,0,2024-02-28T14:23:20.408Z,english_34.wav,0,peel,372,23,5,5,français,ff,5,0.5,-56.32199776,1.04050252
6107c89aca9be4d0dd02c4e6,10,0,2024-02-28T14:23:20.408Z,english_34.wav,0,peel,372,23,5,5,français,ff,6,0.6,-56.68859517,0.2977066
6107c89aca9be4d0dd02c4e6,10,0,2024-02-28T14:23:20.408Z,english_34.wav,0,peel,372,23,5,5,français,ff,7,0.7,-35.23691581,0.84278016
6107c89aca9be4d0dd02c4e6,10,0,2024-02-28T14:23:20.408Z,english_34.wav,0,peel,372,23,5,5,français,ff,8,0.8,-38.05292499,1.02765016
6107c89aca9be4d0dd02c4e6,10,0,2024-02-28T14:23:20.408Z,english_34.wav,0,peel,372,23,5,5,français,ff,9,0.9,-19.80503333,1.82923519
6107c89aca9be4d0dd02c4e6,10,0,2024-02-28T14:23:20.408Z,english_34.wav,0,peel,372,23,5,5,français,ff,10,1.0,18.63515133,1.36188649
6107c89aca9be4d0dd02c4e6,10,0,2024-02-28T14:23:20.408Z,english_34.wav,0,peel,372,23,5,5,français,ff,11,1.09391667,20.3470687,1.04188566
6107c89aca9be4d0dd02c4e6,11,0,2024-02-28T14:23:20.408Z,english_579.wav,0,peel,1368,23,5,5,français,ff,0,0.0,-6.35392527,1.17195822
6107c89aca9be4d0dd02c4e6,11,0,2024-02-28T14:23:20.408Z,english_579.wav,0,peel,1368,23,5,5,français,ff,1,0.1,5.78092652,1.67817047
6107c89aca9be4d0dd02c4e6,11,0,2024-02-28T14:23:20.408Z,english_579.wav,0,peel,1368,23,5,5,français,ff,2,0.2,55.74149698,0.96512057
6107c89aca9be4d0dd02c4e6,11,0,2024-02-28T14:23:20.408Z,english_579.wav,0,peel,1368,23,5,5,français,ff,3,0.3,64.66054606,0.73760998
6107c89aca9be4d0dd02c4e6,11,0,2024-02-28T14:23:20.408Z,english_579.wav,0,peel,1368,23,5,5,français,ff,4,0.4,-20.37343055,0.24043414
6107c89aca9be4d0dd02c4e6,11,0,2024-02-28T14:23:20.408Z,english_579.wav,0,peel,1368,23,5,5,français,ff,5,0.5,97.55604333,0.0297902
6107c89aca9be4d0dd02c4e6,11,0,2024-02-28T14:23:20.408Z,english_579.wav,0,peel,1368,23,5,5,français,ff,6,0.6,-7.40313463,0.83835869
6107c89aca9be4d0dd02c4e6,11,0,2024-02-28T14:23:20.408Z,english_579.wav,0,peel,1368,23,5,5,français,ff,7,0.7,-9.7199121,0.36547932
6107c89aca9be4d0dd02c4e6,11,0,2024-02-28T14:23:20.408Z,english_579.wav,0,peel,1368,23,5,5,français,ff,8,0.8,-43.88557754,1.0786992
6107c89aca9be4d0dd02c4e6,11,0,2024-02-28T14:23:20.408Z,english_579.wav,0,peel,1368,23,5,5,français,ff,9,0.9,89.28129007,1.76340712
6107c89aca9be4d0dd02c4e6,11,0,2024-02-28T14:23:20.408Z,english_579.wav,0,peel,1368,23,5,5,français,ff,10,1.0,21.49927336,0.94339598
6107c89aca9be4d0dd02c4e6,11,0,2024-02-28T14:23:20.408Z,english_579.wav,0,peel,1368,23,5,5,français,ff,11,1.09391667,85.53999973,1.1220246
6107c89aca9be4d0dd02c4e6,12,0,2024-02-28T14:23:20.408Z,english_658.wav,0,pill,521,23,5,5,français,ff,0,0.0,28.12480694,0.12118838
6107c89aca9be4d0dd02c4e6,12,0,2024-02-28T14:23:20.408Z,english_658.wav,0,pill,521,23,5,5,français,ff,1,0.1,17.57040955,1.52191588
6107c89aca9be4d0dd02c4e6,12,0,2024-02-28T14:23:20.408Z,english_658.wav,0,pill,521,23,5,5,français,ff,2,0.2,57.56255577,1.14331833
6107c89aca9be4d0dd02c4e6,12,0,2024-02-28T14:23:20.408Z,english_658.wav,0,pill,521,23,5,5,français,ff,3,0.3,-3.0966162,0.60390633
6107c89aca9be4d0dd02c4e6,12,0,2024-02-28T14:23:20.408Z,english_658.wav,0,pill,521,23,5,5,français,ff,4,0.4,6.39522781,0.27160458
6107c89aca9be4d0dd02c4e6,12,0,2024-02-28T14:23:20.408Z,english_658.wav,0,pill,521,23,5,5,français,ff,5,0.5,16.02438064,0.17957329
6107c89aca9be4d0dd02c4e6,12,0,2024-02-28T14:23:20.408Z,english_658.wav,0,pill,521,23,5,5,français,ff,6,0.6,-1.20192687,0.27771517
6107c89aca9be4d0dd02c4e6,12,0,2024-02-28T14:23:20.408Z,english_658.wav,0,pill,521,23,5,5,français,ff,7,0.7,-8.08463242,0.60605354
6107c89aca9be4d0dd02c4e6,12,0,2024-02-28T14:23:20.408Z,english_658.wav,0,pill,521,23,5,5,français,ff,8,0.8,-12.30429445,1.71812783
6107c89aca9be4d0dd02c4e6,12,0,2024-02-28T14:23:20.408Z,english_658.wav,0,pill,521,23,5,5,français,ff,9,0.9,-0.5409395,0.55654772
6107c89aca9be4d0dd02c4e6,12,0,2024-02-28T14:23:20.408Z,english_658.wav,0,pill,521,23,5,5,français,ff,10,1.0,25.97570406,1.53064605
6107c89aca9be4d0dd02c4e6,12,0,2024-02-28T14:23:20.408Z,english_658.wav,0,pill,521,23,5,5,français,ff,11,1.09391667,75.76475536,1.32831885
6107c89aca9be4d0dd02c4e6,13,0,2024-02-28T14:23:20.408Z,english_432.wav,0,pill,462,23,5,5,français,ff,0,0.0,28.49955807,0.25208372
6107c89aca9be4d0dd02c4e6,13,0,2024-02-28T14:23:20.408Z,english_432.wav,0,pill,462,23,5,5,français,ff,1,0.1,-31.8275444,0.73448825
6107c89aca9be4d0dd02c4e6,13,0,2024-02-28T14:23:20.408Z,english_432.wav,0,pill,462,23,5,5,français,ff,2,0.2,24.24217544,0.75780001
6107c89aca9be4d0dd02c4e6,13,0,2024-02-28T14:23:20.408Z,english_432.wav,0,pill,462,23,5,5,français,ff,3,0.3,-66.09269444,1.1180686
6107c89aca9be4d0dd02c4e6,13,0,2024-02-28T14:23:20.408Z,english_432.wav,0,pill,462,23,5,5,français,ff,4,0.4,-62.15798019,1.06816696
6107c89aca9be4d0dd02c4e6,13,0,2024-02-28T14:23:20.408Z,english_432.wav,0,pill,462,23,5,5,français,ff,5,0.5,-49.72154406,0.60613643
6107c89aca9be4d0dd02c4e6,13,0,2024-02-28T14:23:20.408Z,english_432.wav,0,pill,462,23,5,5,français,ff,6,0.6,-47.69762913,0.58276722
6107c89aca9be4d0dd02c4e6,13,0,2024-02-28T14:23:20.408Z,english_432.wav,0,pill,462,23,5,5,français,ff,7,0.7,77.36626765,1.4653334
6107c89aca9be4d0dd02c4e6,13,0,2024-02-28T14:23:20.408Z,english_432.wav,0,pill,462,23,5,5,français,ff,8,0.8,5.83013874,1.3937813
6107c89aca9be4d0dd02c4e6,13,0,2024-02-28T14:23:20.408Z,english_432.wav,0,pill,462,23,5,5,français,ff,9,0.9,28.26329168,1.50157436
6107c89aca9be4d0dd02c4e6,13,0,2024-02-28T14:23:20.408Z,english_432.wav,0,pill,462,23,5,5,français,ff,10,1.0,-41.71680011,1.14185861
6107c89aca9be4d0dd02c4e6,13,0,2024-02-28T14:23:20.408Z,english_432.wav,0,pill,462,23,5,5,français,ff,11,1.09391667,67.89473062,1.59474316
6107c89aca9be4d0dd02c4e6,14,0,2024-02-28T14:23:20.408Z,english_494.wav,0,peel,1967,23,5,5,français,ff,0,0.0,-0.71105911,1.19698802
6107c89aca9be4d0dd02c4e6,14,0,2024-02-28T14:23:20.408Z,english_494.wav,0,peel,1967,23,5,5,français,ff,1,0.1,-4.76372759,0.64302423
6107c89aca9be4d0dd02c4e6,14,0,2024-02-28T14:23:20.408Z,english_494.wav,0,peel,1967,23,5,5,français,ff,2,0.2,66.89870616,0.88986983
6107c89aca9be4d0dd02c4e6,14,0,2024-02-28T14:23:20.408Z,english_494.wav,0,peel,1967,23,5,5,français,ff,3,0.3,43.91062915,0.33391225
6107c89aca9be4d0dd02c4e6,14,0,2024-02-28T14:23:20.408Z,english_494.wav,0,peel,1967,23,5,5,français,ff,4,0.4,-57.8545691,0.78562285
6107c89aca9be4d0dd02c4e6,14,0,2024-02-28T14:23:20.408Z,english_494.wav,0,peel,1967,23,5,5,français,ff,5,0.5,-82.5179259,1.92178158
6107c89aca9be4d0dd02c4e6,14,0,2024-02-28T14:23:20.408Z,english_494.wav,0,peel,1967,23,5,5,français,ff,6,0.6,80.42837684,0.82903442
6107c89aca9be4d0dd02c4e6,14,0,2024-02-28T14:23:20.408Z,english_494.wav,0,peel,1967,23,5,5,français,ff,7,0.7,96.180933,0.59414127
6107c89aca9be4d0dd02c4e6,14,0,2024-02-28T14:23:20.408Z,english_494.wav,0,peel,1967,23,5,5,français,ff,8,0.8,17.6398549,1.2399684
6107c89aca9be4d0dd02c4e6,14,0,2024-02-28T14:23:20.408Z,english_494.wav,0,peel,1967,23,5,5,français,ff,9,0.9,-72.53927607,0.09321319
6107c89aca9be4d0dd02c4e6,14,0,2024-02-28T14:23:20.408Z,english_494.wav,0,peel,1967,23,5,5,français,ff,10,1.0,-51.27052229,0.68716523
6107c89aca9be4d0dd02c4e6,14,0,2024-02-28T14:23:20.408Z,english_494.wav,0,peel,1967,23,5,5,français,ff,11,1.09391667,16.38241645,1.81410855
6107c89aca9be4d0dd02c4e6,15,0,2024-02-28T14:23:20.408Z,english_954.wav,0,peel,557,23,5,5,français,ff,0,0.0,-5.86860432,0.02682789
6107c89aca9be4d0dd02c4e6,15,0,2024-02-28T14:23:20.408Z,english_954.wav,0,peel,557,23,5,5,français,ff,1,0.1,38.42724969,1.50907573
6107c89aca9be4d0dd02c4e6,15,0,2024-02-28T14:23:20.408Z,english_954.wav,0,peel,557,23,5,5,français,ff,2,0.2,83.51680292,1.17187714
6107c89aca9be4d0dd02c4e6,15,0,2024-02-28T14:23:20.408Z,english_954.wav,0,peel,557,23,5,5,français,ff,3,0.3,-25.06032499,1.88473576
6107c89aca9be4d0dd02c4e6,15,0,2024-02-28T14:23:20.408Z,english_954.wav,0,peel,557,23,5,5,français,ff,4,0.4,-17.48975264,0.3035603
6107c89aca9be4d0dd02c4e6,15,0,2024-02-28T14:23:20.408Z,english_954.wav,0,peel,557,23,5,5,français,ff,5,0.5,95.06102198,1.35082964
6107c89aca9be4d0dd02c4e6,15,0,2024-02-28T14:23:20.408Z,english_954.wav,0,peel,557,23,5,5,français,ff,6,0.6,0.80140457,0.63281948
6107c89aca9be4d0dd02c4e6,15,0,2024-02-28T14:23:20.408Z,english_954.wav,0,peel,557,23,5,5,français,ff,7,0.7,-41.69263262,0.91375779
6107c89aca9be4d0dd02c4e6,15,0,2024-02-28T14:23:20.408Z,english_954.wav,0,peel,557,23,5,5,français,ff,8,0.8,18.46045351,0.80486046
6107c89aca9be4d0dd02c4e6,15,0,2024-02-28T14:23:20.408Z,english_954.wav,0,peel,557,23,5,5,français,ff,9,0.9,-7.88727361,0.18383046
6107c89aca9be4d0dd02c4e6,15,0,2024-02-28T14:23:20.408Z,english_954.wav,0,peel,557,23,5,5,français,ff,10,1.0,-34.36872213,1.25307449
6107c89aca9be4d0dd02c4e6,15,0,2024-02-28T14:23:20.408Z,english_954.wav,0,peel,557,23,5,5,français,ff,11,1.09391667,40.0906943,0.22905501
6107c89aca9be4d0dd02c4e6,16,0,2024-02-28T14:23:20.408Z,english_597.wav,0,peel,1763,23,5,5,français,ff,0,0.0,-67.67099002,1.63271305
6107c89aca9be4d0dd02c4e6,16,0,2024-02-28T14:23:20.408Z,english_597.wav,0,peel,1763,23,5,5,français,ff,1,0.1,-46.13734067,1.53444126
6107c89aca9be4d0dd02c4e6,16,0,2024-02-28T14:23:20.408Z,english_597.wav,0,peel,1763,23,5,5,français,ff,2,0.2,8.53827294,0.45354979
6107c89aca9be4d0dd02c4e6,16,0,2024-02-28T14:23:20.408Z,english_597.wav,0,peel,1763,23,5,5,français,ff,3,0.3,10.29364975,0.94704096
6107c89aca9be4d0dd02c4e6,16,0,2024-02-28T14:23:20.408Z,english_597.wav,0,peel,1763,23,5,5,français,ff,4,0.4,90.70511651,1.59618965
6107c89aca9be4d0dd02c4e6,16,0,2024-02-28T14:23:20.408Z,english_597.wav,0,peel,1763,23,5,5,français,ff,5,0.5,-85.6547255,1.87985709
6107c89aca9be4d0dd02c4e6,16,0,2024-02-28T14:23:20.408Z,english_597.wav,0,peel,1763,23,5,5,français,ff,6,0.6,-55.29379698,1.26591303
6107c89aca9be4d0dd02c4e6,16,0,2024-02-28T14:23:20.408Z,english_597.wav,0,peel,1763,23,5,5,français,ff,7,0.7,-36.34265525,1.16675578
6107c89aca9be4d0dd02c4e6,16,0,2024-02-28T14:23:20.408Z,english_597.wav,0,peel,1763,23,5,5,français,ff,8,0.8,-73.30529238,1.37898637
6107c89aca9be4d0dd02c4e6,16,0,2024-02-28T14:23:20.408Z,english_597.wav,0,peel,1763,23,5,5,français,ff,9,0.9,47.92763573,1.11636219
6107c89aca9be4d0dd02c4e6,16,0,2024-02-28T14:23:20.408Z,english_597.wav,0,peel,1763,23,5,5,français,ff,10,1.0,68.39969631,0.24288005
6107c89aca9be4d0dd02c4e6,16,0,2024-02-28T14:23:20.408Z,english_597.wav,0,peel,1763,23,5,5,français,ff,11,1.09391667,-54.84039666,1.68900271
6107c89aca9be4d0dd02c4e6,17,0,2024-02-28T14:23:20.408Z,english_676.wav,0,peel,1166,23,5,5,français,ff,0,0.0,77.23951032,1.33259474
6107c89aca9be4d0dd02c4e6,17,0,2024-02-28T14:23:20.408Z,english_676.wav,0,peel,1166,23,5,5,français,ff,1,0.1,27.47427545,0.90028372
6107c89aca9be4d0dd02c4e6,17,0,2024-02-28T14:23:20.408Z,english_676.wav,0,peel,1166,23,5,5,français,ff,2,0.2,92.07370265,1.66717955
6107c89aca9be4d0dd02c4e6,17,0,2024-02-28T14:23:20.408Z,english_676.wav,0,peel,1166,23,5,5,français,ff,3,0.3,-39.62602007,0.42158585
6107c89aca9be4d0dd02c4e6,17,0,2024-02-28T14:23:20.408Z,english_676.wav,0,peel,1166,23,5,5,français,ff,4,0.4,-81.22107243,1.7878255
6107c89aca9be4d0dd02c4e6,17,0,2024-02-28T14:23:20.408Z,english_676.wav,0,peel,1166,23,5,5,français,ff,5,0.5,-99.04707649,1.33780608
6107c89aca9be4d0dd02c4e6,17,0,2024-02-28T14:23:20.408Z,english_676.wav,0,peel,1166,23,5,5,français,ff,6,0.6,-64.5180536,0.94548991
6107c89aca9be4d0dd02c4e6,17,0,2024-02-28T14:23:20.408Z,english_676.wav,0,peel,1166,23,5,5,français,ff,7,0.7,91.29392748,1.43207041
6107c89aca9be4d0dd02c4e6,17,0,2024-02-28T14:23:20.408Z,english_676.wav,0,peel,1166,23,5,5,français,ff,8,0.8,97.8635705,1.03085722
6107c89aca9be4d0dd02c4e6,17,0,2024-02-28T14:23:20.408Z,english_676.wav,0,peel,1166,23,5,5,français,ff,9,0.9,-84.2423741,0.34895699
6107c89aca9be4d0dd02c4e6,17,0,2024-02-28T14:23:20.408Z,english_676.wav,0,peel,1166,23,5,5,français,ff,10,1.0,-76.68596269,0.83720355
6107c89aca9be4d0dd02c4e6,17,0,2024-02-28T14:23:20.408Z,english_676.wav,0,peel,1166,23,5,5,français,ff,11,1.09391667,65.10857552,1.31764415
6107c89aca9be4d0dd02c4e6,18,0,2024-02-28T14:23:20.408Z,english_939.wav,0,peel,1518,23,5,5,français,ff,0,0.0,-33.98482441,0.57866671
6107c89aca9be4d0dd02c4e6,18,0,2024-02-28T14:23:20.408Z,english_939.wav,0,peel,1518,23,5,5,français,ff,1,0.1,-89.17430955,0.900261
6107c89aca9be4d0dd02c4e6,18,0,2024-02-28T14:23:20.408Z,english_939.wav,0,peel,1518,23,5,5,français,ff,2,0.2,-37.97345474,1.71108651
6107c89aca9be4d0dd02c4e6,18,0,2024-02-28T14:23:20.408Z,english_939.wav,0,peel,1518,23,5,5,français,ff,3,0.3,79.55409604,0.87209051
6107c89aca9be4d0dd02c4e6,18,0,2024-02-28T14:23:20.408Z,english_939.wav,0,peel,1518,23,5,5,français,ff,4,0.4,80.35845891,1.24315258
6107c89aca9be4d0dd02c4e6,18,0,2024-02-28T14:23:20.408Z,english_939.wav,0,peel,1518,23,5,5,français,ff,5,0.5,57.74967943,1.96157144
6107c89aca9be4d0dd02c4e6,18,0,2024-02-28T14:23:20.408Z,english_939.wav,0,peel,1518,23,5,5,français,ff,6,0.6,95.331824,0.09903489
6107c89aca9be4d0dd02c4e6,18,0,2024-02-28T14:23:20.408Z,english_939.wav,0,peel,1518,23,5,5,français,ff,7,0.7,-67.43467621,1.02492766
6107c89aca9be4d0dd02c4e6,18,0,2024-02-28T14:23:20.408Z,english_939.wav,0,peel,1518,23,5,5,français,ff,8,0.8,77.22109969,0.39705746
6107c89aca9be4d0dd02c4e6,18,0,2024-02-28T14:23:20.408Z,english_939.wav,0,peel,1518,23,5,5,français,ff,9,0.9,-97.02318178,0.35581275
6107c89aca9be4d0dd02c4e6,18,0,2024-02-28T14:23:20.408Z,english_939.wav,0,peel,1518,23,5,5,français,ff,10,1.0,-34.43908678,0.10216324
6107c89aca9be4d0dd02c4e6,18,0,2024-02-28T14:23:20.408Z,english_939.wav,0,peel,1518,23,5,5,français,ff,11,1.09391667,23.56960938,1.85713461
6107c89aca9be4d0dd02c4e6,19,0,2024-02-28T14:23:20.408Z,english_468.wav,0,peel,2282,23,5,5,français,ff,0,0.0,19.31976264,0.66158439
6107c89aca9be4d0dd02c4e6,19,0,2024-02-28T14:23:20.408Z,english_468.wav,0,peel,2282,23,5,5,français,ff,1,0.1,-31.93707888,1.54343798
6107c89aca9be4d0dd02c4e6,19,0,2024-02-28T14:23:20.408Z,english_468.wav,0,peel,2282,23,5,5,français,ff,2,0.2,87.74953583,1.18268033
6107c89aca9be4d0dd02c4e6,19,0,2024-02-28T14:23:20.408Z,english_468.wav,0,peel,2282,23,5,5,français,ff,3,0.3,75.542399,0.92842135
6107c89aca9be4d0dd02c4e6,19,0,2024-02-28T14:23:20.408Z,english_468.wav,0,peel,2282,23,5,5,français,ff,4,0.4,-30.66435396,1.55978724
6107c89aca9be4d0dd02c4e6,19,0,2024-02-28T14:23:20.408Z,english_468.wav,0,peel,2282,23,5,5,français,ff,5,0.5,27.34391208,1.04364147
6107c89aca9be4d0dd02c4e6,19,0,2024-02-28T14:23:20.408Z,english_468.wav,0,peel,2282,23,5,5,français,ff,6,0.6,-88.33380447,1.4617077
6107c89aca9be4d0dd02c4e6,19,0,2024-02-28T14:23:20.408Z,english_468.wav,0,peel,2282,23,5,5,français,ff,7,0.7,22.89610212,1.75173298
6107c89aca9be4d0dd02c4e6,19,0,2024-02-28T14:23:20.408Z,english_468.wav,0,peel,2282,23,5,5,français,ff,8,0.8,-23.39935551,0.43321648
6107c89aca9be4d0dd02c4e6,19,0,2024-02-28T14:23:20.408Z,english_468.wav,0,peel,2282,23,5,5,français,ff,9,0.9,4.99226109,0.70184302
6107c89aca9be4d0dd02c4e6,19,0,2024-02-28T14:23:20.408Z,english_468.wav,0,peel,2282,23,5,5,français,ff,10,1.0,10.7480571,0.01962582
6107c89aca9be4d0dd02c4e6,19,0,2024-02-28T14:23:20.408Z,english_468.wav,0,peel,2282,23,5,5,français,ff,11,1.09391667,16.97403313,1.09642758
6107c89aca9be4d0dd02c4e6,20,0,2024-02-28T14:23:20.408Z,english_969.wav,0,peel,749,23,5,5,français,ff,0,0.0,29.09924348,1.53055803
6107c89aca9be4d0dd02c4e6,20,0,2024-02-28T14:23:20.408Z,english_969.wav,0,peel,749,23,5,5,français,ff,1,0.1,-95.88090252,0.21771883
6107c89aca9be4d0dd02c4e6,20,0,2024-02-28T14:23:20.408Z,english_969.wav,0,peel,749,23,5,5,français,ff,2,0.2,45.5103226,0.6895083
6107c89aca9be4d0dd02c4e6,20,0,2024-02-28T14:23:20.408Z,english_969.wav,0,peel,749,23,5,5,français,ff,3,0.3,22.6688792,1.38165803
6107c89aca9be4d0dd02c4e6,20,0,2024-02-28T14:23:20.408Z,english_969.wav,0,peel,749,23,5,5,français,ff,4,0.4,28.43861777,1.43845422
6107c89aca9be4d0dd02c4e6,20,0,2024-02-28T14:23:20.408Z,english_969.wav,0,peel,749,23,5,5,français,ff,5,0.5,-64.30828006,1.41047112
6107c89aca9be4d0dd02c4e6,20,0,2024-02-28T14:23:20.408Z,english_969.wav,0,peel,749,23,5,5,français,ff,6,0.6,-54.50431648,1.45510114
6107c89aca9be4d0dd02c4e6,20,0,2024-02-28T14:23:20.408Z,english_969.wav,0,peel,749,23,5,5,français,ff,7,0.7,30.42451317,0.72825636
6107c89aca9be4d0dd02c4e6,20,0,2024-02-28T14:23:20.408Z,english_969.wav,0,peel,749,23,5,5,français,ff,8,0.8,-91.90179979,1.35653581
6107c89aca9be4d0dd02c4e6,20,0,2024-02-28T14:23:20.408Z,english_969.wav,0,peel,749,23,5,5,français,ff,9,0.9,4.36119227,1.06956255
6107c89aca9be4d0dd02c4e6,20,0,2024-02-28T14:23:20.408Z,english_969.wav,0,peel,749,23,5,5,français,ff,10,1.0,-67.80457813,1.00621562
6107c89aca9be4d0dd02c4e6,20,0,2024-02-28T14:23:20.408Z,english_969.wav,0,peel,749,23,5,5,français,ff,11,1.09391667,-80.8303423,1.05370229
6107c89aca9be4d0dd02c4e6,21,0,2024-02-28T14:23:20.408Z,english_645.wav,0,peel,1287,23,5,5,français,ff,0,0.0,74.20759592,0.3722502
6107c89aca9be4d0dd02c4e6,21,0,2024-02-28T14:23:20.408Z,english_645.wav,0,peel,1287,23,5,5,français,ff,1,0.1,-91.348614,0.72135633
6107c89aca9be4d0dd02c4e6,21,0,2024-02-28T14:23:20.408Z,english_645.wav,0,peel,1287,23,5,5,français,ff,2,0.2,-47.07053841,1.09022513
6107c89aca9be4d0dd02c4e6,21,0,2024-02-28T14:23:20.408Z,english_645.wav,0,peel,1287,23,5,5,français,ff,3,0.3,14.8093439,0.23360297
6107c89aca9be4d0dd02c4e6,21,0,2024-02-28T14:23:20.408Z,english_645.wav,0,peel,1287,23,5,5,français,ff,4,0.4,46.9338314,1.81978529
6107c89aca9be4d0dd02c4e6,21,0,2024-02-28T14:23:20.408Z,english_645.wav,0,peel,1287,23,5,5,français,ff,5,0.5,39.7428535,0.50068107
6107c89aca9be4d0dd02c4e6,21,0,2024-02-28T14:23:20.408Z,english_645.wav,0,peel,1287,23,5,5,français,ff,6,0.6,-23.36569069,1.21791048
6107c89aca9be4d0dd02c4e6,21,0,2024-02-28T14:23:20.408Z,english_645.wav,0,peel,1287,23,5,5,français,ff,7,0.7,45.91971916,0.53153165
6107c89aca9be4d0dd02c4e6,21,0,2024-02-28T14:23:20.408Z,english_645.wav,0,peel,1287,23,5,5,français,ff,8,0.8,32.42791759,1.47100285
6107c89aca9be4d0dd02c4e6,21,0,2024-02-28T14:23:20.408Z,english_645.wav,0,peel,1287,23,5,5,français,ff,9,0.9,1.19876254,1.64053241
6107c89aca9be4d0dd02c4e6,21,0,2024-02-28T14:23:20.408Z,english_645.wav,0,peel,1287,23,5,5,français,ff,10,1.0,-40.71182661,1.74926312
6107c89aca9be4d0dd02c4e6,21,0,2024-02-28T14:23:20.408Z,english_645.wav,0,peel,1287,23,5,5,français,ff,11,1.09391667,-1.61863293,1.77861775
6107c89aca9be4d0dd02c4e6,22,0,2024-02-28T14:23:20.408Z,english_302.wav,0,peel,1821,23,5,5,français,ff,0,0.0,22.32512828,1.43751276
6107c89aca9be4d0dd02c4e6,22,0,2024-02-28T14:23:20.408Z,english_302.wav,0,peel,1821,23,5,5,français,ff,1,0.1,-34.68493306,1.04855025
6107c89aca9be4d0dd02c4e6,22,0,2024-02-28T14:23:20.408Z,english_302.wav,0,peel,1821,23,5,5,français,ff,2,0.2,-60.33048789,0.11748708
6107c89aca9be4d0dd02c4e6,22,0,2024-02-28T14:23:20.408Z,english_302.wav,0,peel,1821,23,5,5,français,ff,3,0.3,-66.33131812,1.014131
6107c89aca9be4d0dd02c4e6,22,0,2024-02-28T14:23:20.408Z,english_302.wav,0,peel,1821,23,5,5,français,ff,4,0.4,61.16500984,1.52698955
6107c89aca9be4d0dd02c4e6,22,0,2024-02-28T14:23:20.408Z,english_302.wav,0,peel,1821,23,5,5,français,ff,5,0.5,49.23692814,1.28665313
6107c89aca9be4d0dd02c4e6,22,0,2024-02-28T14:23:20.408Z,english_302.wav,0,peel,1821,23,5,5,français,ff,6,0.6,18.80850389,1.64816454
6107c89aca9be4d0dd02c4e6,22,0,2024-02-28T14:23:20.408Z,english_302.wav,0,peel,1821,23,5,5,français,ff,7,0.7,91.26807024,0.26189179
6107c89aca9be4d0dd02c4e6,22,0,2024-02-28T14:23:20.408Z,english_302.wav,0,peel,1821,23,5,5,français,ff,8,0.8,51.0661189,1.3962077
6107c89aca9be4d0dd02c4e6,22,0,2024-02-28T14:23:20.408Z,english_302.wav,0,peel,1821,23,5,5,français,ff,9,0.9,-89.83945555,0.53648677
6107c89aca9be4d0dd02c4e6,22,0,2024-02-28T14:23:20.408Z,english_302.wav,0,peel,1821,23,5,5,français,ff,10,1.0,-75.19546708,1.41713481
6107c89aca9be4d0dd02c4e6,22,0,2024-02-28T14:23:20.408Z,english_302.wav,0,peel,1821,23,5,5,français,ff,11,1.09391667,-66.5337051,0.68271313
6107c89aca9be4d0dd02c4e6,23,0,2024-02-28T14:23:20.408Z,english_618.wav,0,peel,2590,23,5,5,français,ff,0,0.0,-79.9488622,1.91362605
6107c89aca9be4d0dd02c4e6,23,0,2024-02-28T14:23:20.408Z,english_618.wav,0,peel,2590,23,5,5,français,ff,1,0.1,0.24132163,0.6330552
6107c89aca9be4d0dd02c4e6,23,0,2024-02-28T14:23:20.408Z,english_618.wav,0,peel,2590,23,5,5,français,ff,2,0.2,-56.62295111,0.97728614
6107c89aca9be4d0dd02c4e6,23,0,2024-02-28T14:23:20.408Z,english_618.wav,0,peel,2590,23,5,5,français,ff,3,0.3,-72.03937353,0.96298019
6107c89aca9be4d0dd02c4e6,23,0,2024-02-28T14:23:20.408Z,english_618.wav,0,peel,2590,23,5,5,français,ff,4,0.4,-44.72303747,1.81673931
6107c89aca9be4d0dd02c4e6,23,0,2024-02-28T14:23:20.408Z,english_618.wav,0,peel,2590,23,5,5,français,ff,5,0.5,-96.08672425,0.35989287
6107c89aca9be4d0dd02c4e6,23,0,2024-02-28T14:23:20.408Z,english_618.wav,0,peel,2590,23,5,5,français,ff,6,0.6,63.06881346,1.43341205
6107c89aca9be4d0dd02c4e6,23,0,2024-02-28T14:23:20.408Z,english_618.wav,0,peel,2590,23,5,5,français,ff,7,0.7,7.33604436,1.78848637
6107c89aca9be4d0dd02c4e6,23,0,2024-02-28T14:23:20.408Z,english_618.wav,0,peel,2590,23,5,5,français,ff,8,0.8,76.47736911,1.05646412
6107c89aca9be4d0dd02c4e6,23,0,2024-02-28T14:23:20.408Z,english_618.wav,0,peel,2590,23,5,5,français,ff,9,0.9,-52.54898443,0.998868
6107c89aca9be4d0dd02c4e6,23,0,2024-02-28T14:23:20.408Z,english_618.wav,0,peel,2590,23,5,5,français,ff,10,1.0,33.73192618,1.38011588
6107c89aca9be4d0dd02c4e6,23,0,2024-02-28T14:23:20.408Z,english_618.wav,0,peel,2590,23,5,5,français,ff,11,1.09391667,31.05572927,1.5899218
6107c89aca9be4d0dd02c4e6,24,0,2024-02-28T14:23:20.408Z,english_202.wav,0,peel,1500,23,5,5,français,ff,0,0.0,-55.5835629,1.42115323
6107c89aca9be4d0dd02c4e6,24,0,2024-02-28T14:23:20.408Z,english_202.wav,0,peel,1500,23,5,5,français,ff,1,0.1,-74.17222211,1.11230171
6107c89aca9be4d0dd02c4e6,24,0,2024-02-28T14:23:20.408Z,english_202.wav,0,peel,1500,23,5,5,français,ff,2,0.2,32.91988816,1.2604868
6107c89aca9be4d0dd02c4e6,24,0,2024-02-28T14:23:20.408Z,english_202.wav,0,peel,1500,23,5,5,français,ff,3,0.3,-61.08726633,1.38170621
6107c89aca9be4d0dd02c4e6,24,0,2024-02-28T14:23:20.408Z,english_202.wav,0,peel,1500,23,5,5,français,ff,4,0.4,74.28120307,1.19502306
6107c89aca9be4d0dd02c4e6,24,0,2024-02-28T14:23:20.408Z,english_202.wav,0,peel,1500,23,5,5,français,ff,5,0.5,27.15782783,1.3290301
6107c89aca9be4d0dd02c4e6,24,0,2024-02-28T14:23:20.408Z,english_202.wav,0,peel,1500,23,5,5,français,ff,6,0.6,-31.42828759,1.43273837
6107c89aca9be4d0dd02c4e6,24,0,2024-02-28T14:23:20.408Z,english_202.wav,0,peel,1500,23,5,5,français,ff,7,0.7,-85.57803202,0.23505516
6107c89aca9be4d0dd02c4e6,24,0,2024-02-28T14:23:20.408Z,english_202.wav,0,peel,1500,23,5,5,français,ff,8,0.8,-8.83313062,0.8306151
6107c89aca9be4d0dd02c4e6,24,0,2024-02-28T14:23:20.408Z,english_202.wav,0,peel,1500,23,5,5,français,ff,9,0.9,75.88912897,1.14421979
6107c89aca9be4d0dd02c4e6,24,0,2024-02-28T14:23:20.408Z,english_202.wav,0,peel,1500,23,5,5,français,ff,10,1.0,-46.89935533,1.72535261
6107c89aca9be4d0dd02c4e6,24,0,2024-02-28T14:23:20.408Z,english_202.wav,0,peel,1500,23,5,5,français,ff,11,1.09391667,1.73094833,1.37481935
6107c89aca9be4d0dd02c4e6,25,0,2024-02-28T14:23:20.408Z,english_110.wav,0,pill,581,23,5,5,français,ff,0,0.0,45.88171242,1.49952965
6107c89aca9be4d0dd02c4e6,25,0,2024-02-28T14:23:20.408Z,english_110.wav,0,pill,581,23,5,5,français,ff,1,0.1,19.65275358,1.27857126
6107c89aca9be4d0dd02c4e6,25,0,2024-02-28T14:23:20.408Z,english_110.wav,0,pill,581,23,5,5,français,ff,2,0.2,-52.5669285,1.16755208
6107c89aca9be4d0dd02c4e6,25,0,2024-02-28T14:23:20.408Z,english_110.wav,0,pill,581,23,5,5,français,ff,3,0.3,50.69142125,1.53878992
6107c89aca9be4d0dd02c4e6,25,0,2024-02-28T14:23:20.408Z,english_110.wav,0,pill,581,23,5,5,français,ff,4,0.4,62.87836258,1.32526566
6107c89aca9be4d0dd02c4e6,25,0,2024-02-28T14:23:20.408Z,english_110.wav,0,pill,581,23,5,5,français,ff,5,0.5,39.63979386,1.5325195
6107c89aca9be4d0dd02c4e6,25,0,2024-02-28T14:23:20.408Z,english_110.wav,0,pill,581,23,5,5,français,ff,6,0.6,-26.37670891,0.18426731
6107c89aca9be4d0dd02c4e6,25,0,2024-02-28T14:23:20.408Z,english_110.wav,0,pill,581,23,5,5,français,ff,7,0.7,-93.2202358,1.63742876
6107c89aca9be4d0dd02c4e6,25,0,2024-02-28T14:23:20.408Z,english_110.wav,0,pill,581,23,5,5,français,ff,8,0.8,-56.06410486,1.91360144
6107c89aca9be4d0dd02c4e6,25,0,2024-02-28T14:23:20.408Z,english_110.wav,0,pill,581,23,5,5,français,ff,9,0.9,-55.01568925,1.5607569
6107c89aca9be4d0dd02c4e6,25,0,2024-02-28T14:23:20.408Z,english_110.wav,0,pill,581,23,5,5,français,ff,10,1.0,78.10124913,0.22178097
6107c89aca9be4d0dd02c4e6,25,0,2024-02-28T14:23:20.408Z,english_110.wav,0,pill,581,23,5,5,français,ff,11,1.09391667,16.50451183,0.02570083
6107c89aca9be4d0dd02c4e6,26,0,2024-02-28T14:23:20.408Z,english_139.wav,0,peel,598,23,5,5,français,ff,0,0.0,81.69119698,1.27933894
6107c89aca9be4d0dd02c4e6,26,0,2024-02-28T14:23:20.408Z,english_139.wav,0,peel,598,23,5,5,français,ff,1,0.1,42.19378668,0.17402895
6107c89aca9be4d0dd02c4e6,26,0,2024-02-28T14:23:20.408Z,english_139.wav,0,peel,598,23,5,5,français,ff,2,0.2,-40.74285827,0.51201081
6107c89aca9be4d0dd02c4e6,26,0,2024-02-28T14:23:20.408Z,english_139.wav,0,peel,598,23,5,5,français,ff,3,0.3,49.20247594,0.94873681
6107c89aca9be4d0dd02c4e6,26,0,2024-02-28T14:23:20.408Z,english_139.wav,0,peel,598,23,5,5,français,ff,4,0.4,-31.78428617,1.19745534
6107c89aca9be4d0dd02c4e6,26,0,2024-02-28T14:23:20.408Z,english_139.wav,0,peel,598,23,5,5,français,ff,5,0.5,33.76293525,0.67270535
6107c89aca9be4d0dd02c4e6,26,0,2024-02-28T14:23:20.408Z,english_139.wav,0,peel,598,23,5,5,français,ff,6,0.6,7.11439176,1.44433094
6107c89aca9be4d0dd02c4e6,26,0,2024-02-28T14:23:20.408Z,english_139.wav,0,peel,598,23,5,5,français,ff,7,0.7,-18.31872173,0.44605891
6107c89aca9be4d0dd02c4e6,26,0,2024-02-28T14:23:20.408Z,english_139.wav,0,peel,598,23,5,5,français,ff,8,0.8,79.70412409,0.81778602
6107c89aca9be4d0dd02c4e6,26,0,2024-02-28T14:23:20.408Z,english_139.wav,0,peel,598,23,5,5,français,ff,9,0.9,-88.5628162,1.24773735
6107c89aca9be4d0dd02c4e6,26,0,2024-02-28T14:23:20.408Z,english_139.wav,0,peel,598,23,5,5,français,ff,10,1.0,-65.12448171,0.00984113
6107c89aca9be4d0dd02c4e6,26,0,2024-02-28T14:23:20.408Z,english_139.wav,0,peel,598,23,5,5,français,ff,11,1.09391667,11.63103966,1.43403062
6107c89aca9be4d0dd02c4e6,27,0,2024-02-28T14:23:20.408Z,english_695.wav,0,peel,3699,23,5,5,français,ff,0,0.0,-0.40611107,1.26493678
6107c89aca9be4d0dd02c4e6,27,0,2024-02-28T14:23:20.408Z,english_695.wav,0,peel,3699,23,5,5,français,ff,1,0.1,-51.44580043,0.30645506
6107c89aca9be4d0dd02c4e6,27,0,2024-02-28T14:23:20.408Z,english_695.wav,0,peel,3699,23,5,5,français,ff,2,0.2,99.94982399,0.22891404
6107c89aca9be4d0dd02c4e6,27,0,2024-02-28T14:23:20.408Z,english_695.wav,0,peel,3699,23,5,5,français,ff,3,0.3,-89.26755039,0.36431767
6107c89aca9be4d0dd02c4e6,27,0,2024-02-28T14:23:20.408Z,english_695.wav,0,peel,3699,23,5,5,français,ff,4,0.4,-5.79922916,1.58087712
6107c89aca9be4d0dd02c4e6,27,0,2024-02-28T14:23:20.408Z,english_695.wav,0,peel,3699,23,5,5,français,ff,5,0.5,32.87645526,1.0219227
6107c89aca9be4d0dd02c4e6,27,0,2024-02-28T14:23:20.408Z,english_695.wav,0,peel,3699,23,5,5,français,ff,6,0.6,45.01226994,0.87256138
6107c89aca9be4d0dd02c4e6,27,0,2024-02-28T14:23:20.408Z,english_695.wav,0,peel,3699,23,5,5,français,ff,7,0.7,-12.9046985,0.08723999
6107c89aca9be4d0dd02c4e6,27,0,2024-02-28T14:23:20.408Z,english_695.wav,0,peel,3699,23,5,5,français,ff,8,0.8,-4.01812723,0.25614853
6107c89aca9be4d0dd02c4e6,27,0,2024-02-28T14:23:20.408Z,english_695.wav,0,peel,3699,23,5,5,français,ff,9,0.9,-88.04470656,0.82634086
6107c89aca9be4d0dd02c4e6,27,0,2024-02-28T14:23:20.408Z,english_695.wav,0,peel,3699,23,5,5,français,ff,10,1.0,-55.25497398,1.44930742
6107c89aca9be4d0dd02c4e6,27,0,2024-02-28T14:23:20.408Z,english_695.wav,0,peel,3699,23,5,5,français,ff,11,1.09391667,-57.74686665,1.25560424
6107c89aca9be4d0dd02c4e6,28,0,2024-02-28T14:23:20.408Z,english_734.wav,0,peel,1198,23,5,5,français,ff,0,0.0,37.80658654,0.89840931
6107c89aca9be4d0dd02c4e6,28,0,2024-02-28T14:23:20.408Z,english_734.wav,0,peel,1198,23,5,5,français,ff,1,0.1,90.1003789,1.2414915
6107c89aca9be4d0dd02c4e6,28,0,2024-02-28T14:23:20.408Z,english_734.wav,0,peel,1198,23,5,5,français,ff,2,0.2,-17.90602095,1.52855063
6107c89aca9be4d0dd02c4e6,28,0,2024-02-28T14:23:20.408Z,english_734.wav,0,peel,1198,23,5,5,français,ff,3,0.3,-31.44385996,0.60902156
6107c89aca9be4d0dd02c4e6,28,0,2024-02-28T14:23:20.408Z,english_734.wav,0,peel,1198,23,5,5,français,ff,4,0.4,44.9323419,1.0676513
6107c89aca9be4d0dd02c4e6,28,0,2024-02-28T14:23:20.408Z,english_734.wav,0,peel,1198,23,5,5,français,ff,5,0.5,-31.11774155,0.47732506
6107c89aca9be4d0dd02c4e6,28,0,2024-02-28T14:23:20.408Z,english_734.wav,0,peel,1198,23,5,5,français,ff,6,0.6,97.37077349,0.01117227
6107c89aca9be4d0dd02c4e6,28,0,2024-02-28T14:23:20.408Z,english_734.wav,0,peel,1198,23,5,5,français,ff,7,0.7,83.67731812,1.95948527
6107c89aca9be4d0dd02c4e6,28,0,2024-02-28T14:23:20.408Z,english_734.wav,0,peel,1198,23,5,5,français,ff,8,0.8,-92.96209535,1.72730216
6107c89aca9be4d0dd02c4e6,28,0,2024-02-28T14:23:20.408Z,english_734.wav,0,peel,1198,23,5,5,français,ff,9,0.9,-86.38679985,0.10005855
6107c89aca9be4d0dd02c4e6,28,0,2024-02-28T14:23:20.408Z,english_734.wav,0,peel,1198,23,5,5,français,ff,10,1.0,-15.69243899,1.31074677
6107c89aca9be4d0dd02c4e6,28,0,2024-02-28T14:23:20.408Z,english_734.wav,0,peel,1198,23,5,5,français,ff,11,1.09391667,-68.67808483,0.47077758
6107c89aca9be4d0dd02c4e6,29,0,2024-02-28T14:23:20.408Z,english_774.wav,0,pill,1258,23,5,5,français,ff,0,0.0,38.7876064,0.43642058
6107c89aca9be4d0dd02c4e6,29,0,2024-02-28T14:23:20.408Z,english_774.wav,0,pill,1258,23,5,5,français,ff,1,0.1,-21.79427352,1.59194207
6107c89aca9be4d0dd02c4e6,29,0,2024-02-28T14:23:20.408Z,english_774.wav,0,pill,1258,23,5,5,français,ff,2,0.2,-78.67296896,1.92489987
6107c89aca9be4d0dd02c4e6,29,0,2024-02-28T14:23:20.408Z,english_774.wav,0,pill,1258,23,5,5,français,ff,3,0.3,-75.97471041,1.73224365
6107c89aca9be4d0dd02c4e6,29,0,2024-02-28T14:23:20.408Z,english_774.wav,0,pill,1258,23,5,5,français,ff,4,0.4,-9.72862999,0.83130124
6107c89aca9be4d0dd02c4e6,29,0,2024-02-28T14:23:20.408Z,english_774.wav,0,pill,1258,23,5,5,français,ff,5,0.5,-62.72542351,0.05776376
6107c89aca9be4d0dd02c4e6,29,0,2024-02-28T14:23:20.408Z,english_774.wav,0,pill,1258,23,5,5,français,ff,6,0.6,-92.46329741,0.22257067
6107c89aca9be4d0dd02c4e6,29,0,2024-02-28T14:23:20.408Z,english_774.wav,0,pill,1258,23,5,5,français,ff,7,0.7,9.68208163,0.82578939
6107c89aca9be4d0dd02c4e6,29,0,2024-02-28T14:23:20.408Z,english_774.wav,0,pill,1258,23,5,5,français,ff,8,0.8,-31.34266524,1.91233014
6107c89aca9be4d0dd02c4e6,29,0,2024-02-28T14:23:20.408Z,english_774.wav,0,pill,1258,23,5,5,français,ff,9,0.9,-62.50555476,1.41810173
6107c89aca9be4d0dd02c4e6,29,0,2024-02-28T14:23:20.408Z,english_774.wav,0,pill,1258,23,5,5,français,ff,10,1.0,-53.48833614,1.61286395
6107c89aca9be4d0dd02c4e6,29,0,2024-02-28T14:23:20.408Z,english_774.wav,0,pill,1258,23,5,5,français,ff,11,1.09391667,21.65178302,1.48005452
6107c89aca9be4d0dd02c4e6,30,0,2024-02-28T14:23:20.408Z,english_609.wav,0,pill,816,23,5,5,français,ff,0,0.0,45.1693917,1.16218677
6107c89aca9be4d0dd02c4e6,30,0,2024-02-28T14:23:20.408Z,english_609.wav,0,pill,816,23,5,5,français,ff,1,0.1,-72.3247495,1.56939275
6107c89aca9be4d0dd02c4e6,30,0,2024-02-28T14:23:20.408Z,english_609.wav,0,pill,816,23,5,5,français,ff,2,0.2,18.68361548,1.47980491
6107c89aca9be4d0dd02c4e6,30,0,2024-02-28T14:23:20.408Z,english_609.wav,0,pill,816,23,5,5,français,ff,3,0.3,-27.6682302,1.03639669
6107c89aca9be4d0dd02c4e6,30,0,2024-02-28T14:23:20.408Z,english_609.wav,0,pill,816,23,5,5,français,ff,4,0.4,3.63671522,0.81396394
6107c89aca9be4d0dd02c4e6,30,0,2024-02-28T14:23:20.408Z,english_609.wav,0,pill,816,23,5,5,français,ff,5,0.5,21.21340101,1.33770591
6107c89aca9be4d0dd02c4e6,30,0,2024-02-28T14:23:20.408Z,english_609.wav,0,pill,816,23,5,5,français,ff,6,0.6,15.49381211,1.85408959
6107c89aca9be4d0dd02c4e6,30,0,2024-02-28T14:23:20.408Z,english_609.wav,0,pill,816,23,5,5,français,ff,7,0.7,1.52669615,0.1270649
6107c89aca9be4d0dd02c4e6,30,0,2024-02-28T14:23:20.408Z,english_609.wav,0,pill,816,23,5,5,français,ff,8,0.8,25.44993701,0.72088093
6107c89aca9be4d0dd02c4e6,30,0,2024-02-28T14:23:20.408Z,english_609.wav,0,pill,816,23,5,5,français,ff,9,0.9,-58.9173922,1.10933741
6107c89aca9be4d0dd02c4e6,30,0,2024-02-28T14:23:20.408Z,english_609.wav,0,pill,816,23,5,5,français,ff,10,1.0,4.8985277,0.9989657
6107c89aca9be4d0dd02c4e6,30,0,2024-02-28T14:23:20.408Z,english_609.wav,0,pill,816,23,5,5,français,ff,11,1.09391667,-19.12587244,1.15972192
6107c89aca9be4d0dd02c4e6,31,0,2024-02-28T14:23:20.408Z,english_519.wav,0,pill,22397,23,5,5,français,ff,0,0.0,-89.70690317,1.70012146
6107c89aca9be4d0dd02c4e6,31,0,2024-02-28T14:23:20.408Z,english_519.wav,0,pill,22397,23,5,5,français,ff,1,0.1,12.73288581,0.30558637
6107c89aca9be4d0dd02c4e6,31,0,2024-02-28T14:23:20.408Z,english_519.wav,0,pill,22397,23,5,5,français,ff,2,0.2,-28.85796661,1.20634899
6107c89aca9be4d0dd02c4e6,31,0,2024-02-28T14:23:20.408Z,english_519.wav,0,pill,22397,23,5,5,français,ff,3,0.3,26.94929279,0.03671801
6107c89aca9be4d0dd02c4e6,31,0,2024-02-28T14:23:20.408Z,english_519.wav,0,pill,22397,23,5,5,français,ff,4,0.4,88.17509723,1.89470366
6107c89aca9be4d0dd02c4e6,31,0,2024-02-28T14:23:20.408Z,english_519.wav,0,pill,22397,23,5,5,français,ff,5,0.5,-36.4551596,1.56676756
6107c89aca9be4d0dd02c4e6,31,0,2024-02-28T14:23:20.408Z,english_519.wav,0,pill,22397,23,5,5,français,ff,6,0.6,24.45140187,0.94993833
6107c89aca9be4d0dd02c4e6,31,0,2024-02-28T14:23:20.408Z,english_519.wav,0,pill,22397,23,5,5,français,ff,7,0.7,7.63765931,1.07658622
6107c89aca9be4d0dd02c4e6,31,0,2024-02-28T14:23:20.408Z,english_519.wav,0,pill,22397,23,5,5,français,ff,8,0.8,1.30228681,1.81741966
6107c89aca9be4d0dd02c4e6,31,0,2024-02-28T14:23:20.408Z,english_519.wav,0,pill,22397,23,5,5,français,ff,9,0.9,72.18985419,0.56710914
6107c89aca9be4d0dd02c4e6,31,0,2024-02-28T14:23:20.408Z,english_519.wav,0,pill,22397,23,5,5,français,ff,10,1.0,-56.35512761,0.45384515
6107c89aca9be4d0dd02c4e6,31,0,2024-02-28T14:23:20.408Z,english_519.wav,0,pill,22397,23,5,5,français,ff,11,1.09391667,-27.12026306,1.11287687
6107c89aca9be4d0dd02c4e6,32,0,2024-02-28T14:23:20.408Z,english_343.wav,0,peel,1695,23,5,5,français,ff,0,0.0,-88.20355026,1.73516804
6107c89aca9be4d0dd02c4e6,32,0,2024-02-28T14:23:20.408Z,english_343.wav,0,peel,1695,23,5,5,français,ff,1,0.1,-17.76703198,0.86951139
6107c89aca9be4d0dd02c4e6,32,0,2024-02-28T14:23:20.408Z,english_343.wav,0,peel,1695,23,5,5,français,ff,2,0.2,-76.85759336,1.76251065
6107c89aca9be4d0dd02c4e6,32,0,2024-02-28T14:23:20.408Z,english_343.wav,0,peel,1695,23,5,5,français,ff,3,0.3,13.74829966,1.08707394
6107c89aca9be4d0dd02c4e6,32,0,2024-02-28T14:23:20.408Z,english_343.wav,0,peel,1695,23,5,5,français,ff,4,0.4,76.10347036,0.09783198
6107c89aca9be4d0dd02c4e6,32,0,2024-02-28T14:23:20.408Z,english_343.wav,0,peel,1695,23,5,5,français,ff,5,0.5,44.00038612,1.79124537
6107c89aca9be4d0dd02c4e6,32,0,2024-02-28T14:23:20.408Z,english_343.wav,0,peel,1695,23,5,5,français,ff,6,0.6,-40.48158133,0.32245203
6107c89aca9be4d0dd02c4e6,32,0,2024-02-28T14:23:20.408Z,english_343.wav,0,peel,1695,23,5,5,français,ff,7,0.7,-81.80076471,1.83894705
6107c89aca9be4d0dd02c4e6,32,0,2024-02-28T14:23:20.408Z,english_343.wav,0,peel,1695,23,5,5,français,ff,8,0.8,16.92874563,0.75545382
6107c89aca9be4d0dd02c4e6,32,0,2024-02-28T14:23:20.408Z,english_343.wav,0,peel,1695,23,5,5,français,ff,9,0.9,-39.14191482,0.41918914
6107c89aca9be4d0dd02c4e6,32,0,2024-02-28T14:23:20.408Z,english_343.wav,0,peel,1695,23,5,5,français,ff,10,1.0,58.30879913,1.12444687
6107c89aca9be4d0dd02c4e6,32,0,2024-02-28T14:23:20.408Z,english_343.wav,0,peel,1695,23,5,5,français,ff,11,1.09391667,14.49118286,1.87351865
6107c89aca9be4d0dd02c4e6,33,0,2024-02-28T14:23:20.408Z,english_792.wav,0,peel,1110,23,5,5,français,ff,0,0.0,-53.21610879,1.55385175
6107c89aca9be4d0dd02c4e6,33,0,2024-02-28T14:23:20.408Z,english_792.wav,0,peel,1110,23,5,5,français,ff,1,0.1,32.15976894,0.65373426
6107c89aca9be4d0dd02c4e6,33,0,2024-02-28T14:23:20.408Z,english_792.wav,0,peel,1110,23,5,5,français,ff,2,0.2,11.67164647,0.07623644
6107c89aca9be4d0dd02c4e6,33,0,2024-02-28T14:23:20.408Z,english_792.wav,0,peel,1110,23,5,5,français,ff,3,0.3,78.41102069,0.81063335
6107c89aca9be4d0dd02c4e6,33,0,2024-02-28T14:23:20.408Z,english_792.wav,0,peel,1110,23,5,5,français,ff,4,0.4,57.86075133,1.61919716
6107c89aca9be4d0dd02c4e6,33,0,2024-02-28T14:23:20.408Z,english_792.wav,0,peel,1110,23,5,5,français,ff,5,0.5,26.57758322,1.49931194
6107c89aca9be4d0dd02c4e6,33,0,2024-02-28T14:23:20.408Z,english_792.wav,0,peel,1110,23,5,5,français,ff,6,0.6,-19.90648144,0.76960145
6107c89aca9be4d0dd02c4e6,33,0,2024-02-28T14:23:20.408Z,english_792.wav,0,peel,1110,23,5,5,français,ff,7,0.7,-5.80202054,0.41164506
6107c89aca9be4d0dd02c4e6,33,0,2024-02-28T14:23:20.408Z,english_792.wav,0,peel,1110,23,5,5,français,ff,8,0.8,-79.72401374,1.42613076
6107c89aca9be4d0dd02c4e6,33,0,2024-02-28T14:23:20.408Z,english_792.wav,0,peel,1110,23,5,5,français,ff,9,0.9,-39.61261559,0.70792196
6107c89aca9be4d0dd02c4e6,33,0,2024-02-28T14:23:20.408Z,english_792.wav,0,peel,1110,23,5,5,français,ff,10,1.0,87.31929903,1.13611226
6107c89aca9be4d0dd02c4e6,33,0,2024-02-28T14:23:20.408Z,english_792.wav,0,peel,1110,23,5,5,français,ff,11,1.09391667,10.49178802,0.18326108
6107c89aca9be4d0dd02c4e6,34,0,2024-02-28T14:23:20.408Z,english_417.wav,0,peel,2732,23,5,5,français,ff,0,0.0,29.37383655,1.92425936
6107c89aca9be4d0dd02c4e6,34,0,2024-02-28T14:23:20.408Z,english_417.wav,0,peel,2732,23,5,5,français,ff,1,0.1,23.19156398,0.6229039
6107c89aca9be4d0dd02c4e6,34,0,2024-02-28T14:23:20.408Z,english_417.wav,0,peel,2732,23,5,5,français,ff,2,0.2,85.81337763,1.36154183
6107c89aca9be4d0dd02c4e6,34,0,2024-02-28T14:23:20.408Z,english_417.wav,0,peel,2732,23,5,5,français,ff,3,0.3,-29.64908449,0.09031289
6107c89aca9be4d0dd02c4e6,34,0,2024-02-28T14:23:20.408Z,english_417.wav,0,peel,2732,23,5,5,français,ff,4,0.4,8.97904128,0.90960709
6107c89aca9be4d0dd02c4e6,34,0,2024-02-28T14:23:20.408Z,english_417.wav,0,peel,2732,23,5,5,français,ff,5,0.5,39.22706603,1.25920128
6107c89aca9be4d0dd02c4e6,34,0,2024-02-28T14:23:20.408Z,english_417.wav,0,peel,2732,23,5,5,français,ff,6,0.6,61.83715867,1.48525242
6107c89aca9be4d0dd02c4e6,34,0,2024-02-28T14:23:20.408Z,english_417.wav,0,peel,2732,23,5,5,français,ff,7,0.7,-85.41027475,0.60232136
6107c89aca9be4d0dd02c4e6,34,0,2024-02-28T14:23:20.408Z,english_417.wav,0,peel,2732,23,5,5,français,ff,8,0.8,73.95238576,0.50952592
6107c89aca9be4d0dd02c4e6,34,0,2024-02-28T14:23:20.408Z,english_417.wav,0,peel,2732,23,5,5,français,ff,9,0.9,27.80762862,0.22145612
6107c89aca9be4d0dd02c4e6,34,0,2024-02-28T14:23:20.408Z,english_417.wav,0,peel,2732,23,5,5,français,ff,10,1.0,-27.42196196,0.91644458
6107c89aca9be4d0dd02c4e6,34,0,2024-02-28T14:23:20.408Z,english_417.wav,0,peel,2732,23,5,5,français,ff,11,1.09391667,-33.44848628,1.07641807
6107c89aca9be4d0dd02c4e6,35,0,2024-02-28T14:23:20.408Z,english_38.wav,0,pill,1109,23,5,5,français,ff,0,0.0,84.84297862,0.12127835
6107c89aca9be4d0dd02c4e6,35,0,2024-02-28T14:23:20.408Z,english_38.wav,0,pill,1109,23,5,5,français,ff,1,0.1,-41.13766339,0.39553601
6107c89aca9be4d0dd02c4e6,35,0,2024-02-28T14:23:20.408Z,english_38.wav,0,pill,1109,23,5,5,français,ff,2,0.2,31.0243005,1.29400733
6107c89aca9be4d0dd02c4e6,35,0,2024-02-28T14:23:20.408Z,english_38.wav,0,pill,1109,23,5,5,français,ff,3,0.3,51.71643077,0.38578685
6107c89aca9be4d0dd02c4e6,35,0,2024-02-28T14:23:20.408Z,english_38.wav,0,pill,1109,23,5,5,français,ff,4,0.4,-15.52187673,0.67216324
6107c89aca9be4d0dd02c4e6,35,0,2024-02-28T14:23:20.408Z,english_38.wav,0,pill,1109,23,5,5,français,ff,5,0.5,37.47478577,0.61922356
6107c89aca9be4d0dd02c4e6,35,0,2024-02-28T14:23:20.408Z,english_38.wav,0,pill,1109,23,5,5,français,ff,6,0.6,27.01527087,0.0538602
6107c89aca9be4d0dd02c4e6,35,0,2024-02-28T14:23:20.408Z,english_38.wav,0,pill,1109,23,5,5,français,ff,7,0.7,44.60136097,0.56901487
6107c89aca9be4d0dd02c4e6,35,0,2024-02-28T14:23:20.408Z,english_38.wav,0,pill,1109,23,5,5,français,ff,8,0.8,-52.37417606,1.28646438
6107c89aca9be4d0dd02c4e6,35,0,2024-02-28T14:23:20.408Z,english_38.wav,0,pill,1109,23,5,5,français,ff,9,0.9,-48.58777174,0.80149466
6107c89aca9be4d0dd02c4e6,35,0,2024-02-28T14:23:20.408Z,english_38.wav,0,pill,1109,23,5,5,français,ff,10,1.0,7.20305444,1.28981754
6107c89aca9be4d0dd02c4e6,35,0,2024-02-28T14:23:20.408Z,english_38.wav,0,pill,1109,23,5,5,français,ff,11,1.09391667,-74.66052111,0.46742112
6107c89aca9be4d0dd02c4e6,36,0,2024-02-28T14:23:20.408Z,english_603.wav,0,pill,162,23,5,5,français,ff,0,0.0,-92.82127988,0.46202599
6107c89aca9be4d0dd02c4e6,36,0,2024-02-28T14:23:20.408Z,english_603.wav,0,pill,162,23,5,5,français,ff,1,0.1,-10.8879853,0.04069155
6107c89aca9be4d0dd02c4e6,36,0,2024-02-28T14:23:20.408Z,english_603.wav,0,pill,162,23,5,5,français,ff,2,0.2,87.07339117,0.53206278
6107c89aca9be4d0dd02c4e6,36,0,2024-02-28T14:23:20.408Z,english_603.wav,0,pill,162,23,5,5,français,ff,3,0.3,94.16233181,1.44505889
6107c89aca9be4d0dd02c4e6,36,0,2024-02-28T14:23:20.408Z,english_603.wav,0,pill,162,23,5,5,français,ff,4,0.4,41.70993127,1.73804989
6107c89aca9be4d0dd02c4e6,36,0,2024-02-28T14:23:20.408Z,english_603.wav,0,pill,162,23,5,5,français,ff,5,0.5,-9.49662532,0.79060569
6107c89aca9be4d0dd02c4e6,36,0,2024-02-28T14:23:20.408Z,english_603.wav,0,pill,162,23,5,5,français,ff,6,0.6,0.93436069,1.79017292
6107c89aca9be4d0dd02c4e6,36,0,2024-02-28T14:23:20.408Z,english_603.wav,0,pill,162,23,5,5,français,ff,7,0.7,-31.16965002,1.60375186
6107c89aca9be4d0dd02c4e6,36,0,2024-02-28T14:23:20.408Z,english_603.wav,0,pill,162,23,5,5,français,ff,8,0.8,22.515306,1.61763715
6107c89aca9be4d0dd02c4e6,36,0,2024-02-28T14:23:20.408Z,english_603.wav,0,pill,162,23,5,5,français,ff,9,0.9,39.07324,1.44528026
6107c89aca9be4d0dd02c4e6,36,0,2024-02-28T14:23:20.408Z,english_603.wav,0,pill,162,23,5,5,français,ff,10,1.0,-34.19262646,0.82648617
6107c89aca9be4d0dd02c4e6,36,0,2024-02-28T14:23:20.408Z,english_603.wav,0,pill,162,23,5,5,français,ff,11,1.09391667,7.30050377,1.94101738
6107c89aca9be4d0dd02c4e6,37,0,2024-02-28T14:23:20.408Z,english_326.wav,0,peel,458,23,5,5,français,ff,0,0.0,-43.10917618,0.92818159
6107c89aca9be4d0dd02c4e6,37,0,2024-02-28T14:23:20.408Z,english_326.wav,0,peel,458,23,5,5,français,ff,1,0.1,51.71010142,0.32622589
6107c89aca9be4d0dd02c4e6,37,0,2024-02-28T14:23:20.408Z,english_326.wav,0,peel,458,23,5,5,français,ff,2,0.2,-51.98898793,0.25183357
6107c89aca9be4d0dd02c4e6,37,0,2024-02-28T14:23:20.408Z,english_326.wav,0,peel,458,23,5,5,français,ff,3,0.3,-88.25420689,0.15547956
6107c89aca9be4d0dd02c4e6,37,0,2024-02-28T14:23:20.408Z,english_326.wav,0,peel,458,23,5,5,français,ff,4,0.4,-29.81917635,0.54551317
6107c89aca9be4d0dd02c4e6,37,0,2024-02-28T14:23:20.408Z,english_326.wav,0,peel,458,23,5,5,français,ff,5,0.5,-40.02564907,0.579881
6107c89aca9be4d0dd02c4e6,37,0,2024-02-28T14:23:20.408Z,english_326.wav,0,peel,458,23,5,5,français,ff,6,0.6,-80.61031076,0.72251342
6107c89aca9be4d0dd02c4e6,37,0,2024-02-28T14:23:20.408Z,english_326.wav,0,peel,458,23,5,5,français,ff,7,0.7,27.73097561,1.44758164
6107c89aca9be4d0dd02c4e6,37,0,2024-02-28T14:23:20.408Z,english_326.wav,0,peel,458,23,5,5,français,ff,8,0.8,86.25406042,1.07961509
6107c89aca9be4d0dd02c4e6,37,0,2024-02-28T14:23:20.408Z,english_326.wav,0,peel,458,23,5,5,français,ff,9,0.9,-98.97965016,1.11677138
6107c89aca9be4d0dd02c4e6,37,0,2024-02-28T14:23:20.408Z,english_326.wav,0,peel,458,23,5,5,français,ff,10,1.0,-32.16564668,0.90130016
6107c89aca9be4d0dd02c4e6,37,0,2024-02-28T14:23:20.408Z,english_326.wav,0,peel,458,23,5,5,français,ff,11,1.09391667,-99.19861207,0.29135461
6107c89aca9be4d0dd02c4e6,38,0,2024-02-28T14:23:20.408Z,english_233.wav,0,peel,1801,23,5,5,français,ff,0,0.0,-12.45233214,1.31283544
6107c89aca9be4d0dd02c4e6,38,0,2024-02-28T14:23:20.408Z,english_233.wav,0,peel,1801,23,5,5,français,ff,1,0.1,-33.20786902,0.09471032
6107c89aca9be4d0dd02c4e6,38,0,2024-02-28T14:23:20.408Z,english_233.wav,0,peel,1801,23,5,5,français,ff,2,0.2,-3.84628349,1.88233627
6107c89aca9be4d0dd02c4e6,38,0,2024-02-28T14:23:20.408Z,english_233.wav,0,peel,1801,23,5,5,français,ff,3,0.3,52.58812425,1.21028248
6107c89aca9be4d0dd02c4e6,38,0,2024-02-28T14:23:20.408Z,english_233.wav,0,peel,1801,23,5,5,français,ff,4,0.4,-82.78729146,0.9101705
6107c89aca9be4d0dd02c4e6,38,0,2024-02-28T14:23:20.408Z,english_233.wav,0,peel,1801,23,5,5,français,ff,5,0.5,-90.93928836,1.74264946
6107c89aca9be4d0dd02c4e6,38,0,2024-02-28T14:23:20.408Z,english_233.wav,0,peel,1801,23,5,5,français,ff,6,0.6,91.49342166,1.34024886
6107c89aca9be4d0dd02c4e6,38,0,2024-02-28T14:23:20.408Z,english_233.wav,0,peel,1801,23,5,5,français,ff,7,0.7,39.27925393,0.33883292
6107c89aca9be4d0dd02c4e6,38,0,2024-02-28T14:23:20.408Z,english_233.wav,0,peel,1801,23,5,5,français,ff,8,0.8,-0.66571259,1.35075989
6107c89aca9be4d0dd02c4e6,38,0,2024-02-28T14:23:20.408Z,english_233.wav,0,peel,1801,23,5,5,français,ff,9,0.9,50.1456693,1.4470152
6107c89aca9be4d0dd02c4e6,38,0,2024-02-28T14:23:20.408Z,english_233.wav,0,peel,1801,23,5,5,français,ff,10,1.0,-6.64277825,1.15231478
6107c89aca9be4d0dd02c4e6,38,0,2024-02-28T14:23:20.408Z,english_233.wav,0,peel,1801,23,5,5,français,ff,11,1.09391667,8.91074874,1.87164883
6107c89aca9be4d0dd02c4e6,39,0,2024-02-28T14:23:20.408Z,english_960.wav,0,peel,475,23,5,5,français,ff,0,0.0,-2.34292173,0.04592369
6107c89aca9be4d0dd02c4e6,39,0,2024-02-28T14:23:20.408Z,english_960.wav,0,peel,475,23,5,5,français,ff,1,0.1,-14.33809381,1.93256303
6107c89aca9be4d0dd02c4e6,39,0,2024-02-28T14:23:20.408Z,english_960.wav,0,peel,475,23,5,5,français,ff,2,0.2,23.80635185,1.63542615
6107c89aca9be4d0dd02c4e6,39,0,2024-02-28T14:23:20.408Z,english_960.wav,0,peel,475,23,5,5,français,ff,3,0.3,-47.8246654,1.38214449
6107c89aca9be4d0dd02c4e6,39,0,2024-02-28T14:23:20.408Z,english_960.wav,0,peel,475,23,5,5,français,ff,4,0.4,37.72126587,0.23301782
6107c89aca9be4d0dd02c4e6,39,0,2024-02-28T14:23:20.408Z,english_960.wav,0,peel,475,23,5,5,français,ff,5,0.5,52.9199081,0.53692552
6107c89aca9be4d0dd02c4e6,39,0,2024-02-28T14:23:20.408Z,english_960.wav,0,peel,475,23,5,5,français,ff,6,0.6,7.44982422,1.02814311
6107c89aca9be4d0dd02c4e6,39,0,2024-02-28T14:23:20.408Z,english_960.wav,0,peel,475,23,5,5,français,ff,7,0.7,-7.86948203,0.98154622
6107c89aca9be4d0dd02c4e6,39,0,2024-02-28T14:23:20.408Z,english_960.wav,0,peel,475,23,5,5,français,ff,8,0.8,72.23117138,0.31984479
6107c89aca9be4d0dd02c4e6,39,0,2024-02-28T14:23:20.408Z,english_960.wav,0,peel,475,23,5,5,français,ff,9,0.9,44.79944131,1.34408856
6107c89aca9be4d0dd02c4e6,39,0,2024-02-28T14:23:20.408Z,english_960.wav,0,peel,475,23,5,5,français,ff,10,1.0,4.95796587,0.65666074
6107c89aca9be4d0dd02c4e6,39,0,2024-02-28T14:23:20.408Z,english_960.wav,0,peel,475,23,5,5,français,ff,11,1.09391667,60.45608826,0.78367591
6107c89aca9be4d0dd02c4e6,40,0,2024-02-28T14:23:20.408Z,english_963.wav,0,peel,3662,23,5,5,français,ff,0,0.0,12.85572416,1.75469767
6107c89aca9be4d0dd02c4e6,40,0,2024-02-28T14:23:20.408Z,english_963.wav,0,peel,3662,23,5,5,français,ff,1,0.1,-76.17617766,0.88786329
6107c89aca9be4d0dd02c4e6,40,0,2024-02-28T14:23:20.408Z,english_963.wav,0,peel,3662,23,5,5,français,ff,2,0.2,42.35975093,1.03977576
6107c89aca9be4d0dd02c4e6,40,0,2024-02-28T14:23:20.408Z,english_963.wav,0,peel,3662,23,5,5,français,ff,3,0.3,-29.56352697,0.40233076
6107c89aca9be4d0dd02c4e6,40,0,2024-02-28T14:23:20.408Z,english_963.wav,0,peel,3662,23,5,5,français,ff,4,0.4,1.9048802,1.77716713
6107c89aca9be4d0dd02c4e6,40,0,2024-02-28T14:23:20.408Z,english_963.wav,0,peel,3662,23,5,5,français,ff,5,0.5,-59.42176318,1.22252544
6107c89aca9be4d0dd02c4e6,40,0,2024-02-28T14:23:20.408Z,english_963.wav,0,peel,3662,23,5,5,français,ff,6,0.6,-90.23873789,1.36334994
6107c89aca9be4d0dd02c4e6,40,0,2024-02-28T14:23:20.408Z,english_963.wav,0,peel,3662,23,5,5,français,ff,7,0.7,96.0492683,0.19892648
6107c89aca9be4d0dd02c4e6,40,0,2024-02-28T14:23:20.408Z,english_963.wav,0,peel,3662,23,5,5,français,ff,8,0.8,-14.96705396,0.48578079
6107c89aca9be4d0dd02c4e6,40,0,2024-02-28T14:23:20.408Z,english_963.wav,0,peel,3662,23,5,5,français,ff,9,0.9,53.28049668,0.49525144
6107c89aca9be4d0dd02c4e6,40,0,2024-02-28T14:23:20.408Z,english_963.wav,0,peel,3662,23,5,5,français,ff,10,1.0,-50.64061571,1.97867338
6107c89aca9be4d0dd02c4e6,40,0,2024-02-28T14:23:20.408Z,english_963.wav,0,peel,3662,23,5,5,français,ff,11,1.09391667,33.50411271,0.71277393
6107c89aca9be4d0dd02c4e6,41,0,2024-02-28T14:23:20.408Z,english_509.wav,0,pill,300,23,5,5,français,ff,0,0.0,-60.47633283,1.8433091
6107c89aca9be4d0dd02c4e6,41,0,2024-02-28T14:23:20.408Z,english_509.wav,0,pill,300,23,5,5,français,ff,1,0.1,62.43182062,0.67753575
6107c89aca9be4d0dd02c4e6,41,0,2024-02-28T14:23:20.408Z,english_509.wav,0,pill,300,23,5,5,français,ff,2,0.2,-89.10254598,0.6228286
6107c89aca9be4d0dd02c4e6,41,0,2024-02-28T14:23:20.408Z,english_509.wav,0,pill,300,23,5,5,français,ff,3,0.3,-56.00324349,1.20175852
6107c89aca9be4d0dd02c4e6,41,0,2024-02-28T14:23:20.408Z,english_509.wav,0,pill,300,23,5,5,français,ff,4,0.4,-22.97503075,0.68327781
6107c89aca9be4d0dd02c4e6,41,0,2024-02-28T14:23:20.408Z,english_509.wav,0,pill,300,23,5,5,français,ff,5,0.5,-10.58010289,1.6981399
6107c89aca9be4d0dd02c4e6,41,0,2024-02-28T14:23:20.408Z,english_509.wav,0,pill,300,23,5,5,français,ff,6,0.6,41.52809509,1.77808046
6107c89aca9be4d0dd02c4e6,41,0,2024-02-28T14:23:20.408Z,english_509.wav,0,pill,300,23,5,5,français,ff,7,0.7,11.42336317,0.9915964
6107c89aca9be4d0dd02c4e6,41,0,2024-02-28T14:23:20.408Z,english_509.wav,0,pill,300,23,5,5,français,ff,8,0.8,-33.49389875,1.58247003
6107c89aca9be4d0dd02c4e6,41,0,2024-02-28T14:23:20.408Z,english_509.wav,0,pill,300,23,5,5,français,ff,9,0.9,-76.54160855,0.51702523
6107c89aca9be4d0dd02c4e6,41,0,2024-02-28T14:23:20.408Z,english_509.wav,0,pill,300,23,5,5,français,ff,10,1.0,67.53120636,1.67242009
6107c89aca9be4d0dd02c4e6,41,0,2024-02-28T14:23:20.408Z,english_509.wav,0,pill,300,23,5,5,français,ff,11,1.09391667,52.42137891,0.41732509
6107c89aca9be4d0dd02c4e6,42,0,2024-02-28T14:23:20.408Z,english_258.wav,0,pill,343,23,5,5,français,ff,0,0.0,25.58821978,1.29707378
6107c89aca9be4d0dd02c4e6,42,0,2024-02-28T14:23:20.408Z,english_258.wav,0,pill,343,23,5,5,français,ff,1,0.1,7.03087627,0.49566701
6107c89aca9be4d0dd02c4e6,42,0,2024-02-28T14:23:20.408Z,english_258.wav,0,pill,343,23,5,5,français,ff,2,0.2,-15.91116386,0.43385518
6107c89aca9be4d0dd02c4e6,42,0,2024-02-28T14:23:20.408Z,english_258.wav,0,pill,343,23,5,5,français,ff,3,0.3,-10.18288773,0.30166849
6107c89aca9be4d0dd02c4e6,42,0,2024-02-28T14:23:20.408Z,english_258.wav,0,pill,343,23,5,5,français,ff,4,0.4,-1.03622481,0.40418484
6107c89aca9be4d0dd02c4e6,42,0,2024-02-28T14:23:20.408Z,english_258.wav,0,pill,343,23,5,5,français,ff,5,0.5,7.08237834,0.97614875
6107c89aca9be4d0dd02c4e6,42,0,2024-02-28T14:23:20.408Z,english_258.wav,0,pill,343,23,5,5,français,ff,6,0.6,-65.85616389,0.50782257
6107c89aca9be4d0dd02c4e6,42,0,2024-02-28T14:23:20.408Z,english_258.wav,0,pill,343,23,5,5,français,ff,7,0.7,61.11432003,1.26334363
6107c89aca9be4d0dd02c4e6,42,0,2024-02-28T14:23:20.408Z,english_258.wav,0,pill,343,23,5,5,français,ff,8,0.8,62.35570806,1.6928405
6107c89aca9be4d0dd02c4e6,42,0,2024-02-28T14:23:20.408Z,english_258.wav,0,pill,343,23,5,5,français,ff,9,0.9,64.93681849,1.97714506
6107c89aca9be4d0dd02c4e6,42,0,2024-02-28T14:23:20.408Z,english_258.wav,0,pill,343,23,5,5,français,ff,10,1.0,-37.74920533,1.10059348
6107c89aca9be4d0dd02c4e6,42,0,2024-02-28T14:23:20.408Z,english_258.wav,0,pill,343,23,5,5,français,ff,11,1.09391667,-81.90690998,1.23409369
6107c89aca9be4d0dd02c4e6,43,0,2024-02-28T14:23:20.408Z,english_25.wav,0,peel,946,23,5,5,français,ff,0,0.0,-3.04072315,0.82619881
6107c89aca9be4d0dd02c4e6,43,0,2024-02-28T14:23:20.408Z,english_25.wav,0,peel,946,23,5,5,français,ff,1,0.1,-7.71178933,0.19533878
6107c89aca9be4d0dd02c4e6,43,0,2024-02-28T14:23:20.408Z,english_25.wav,0,peel,946,23,5,5,français,ff,2,0.2,-42.18636208,1.08277914
6107c89aca9be4d0dd02c4e6,43,0,2024-02-28T14:23:20.408Z,english_25.wav,0,peel,946,23,5,5,français,ff,3,0.3,-34.45077435,1.14412535
6107c89aca9be4d0dd02c4e6,43,0,2024-02-28T14:23:20.408Z,english_25.wav,0,peel,946,23,5,5,français,ff,4,0.4,-84.66227969,1.20529311
6107c89aca9be4d0dd02c4e6,43,0,2024-02-28T14:23:20.408Z,english_25.wav,0,peel,946,23,5,5,français,ff,5,0.5,-92.64439035,1.74650044
6107c89aca9be4d0dd02c4e6,43,0,2024-02-28T14:23:20.408Z,english_25.wav,0,peel,946,23,5,5,français,ff,6,0.6,-61.14666871,0.43899038
6107c89aca9be4d0dd02c4e6,43,0,2024-02-28T14:23:20.408Z,english_25.wav,0,peel,946,23,5,5,français,ff,7,0.7,-3.59823801,0.82830315
6107c89aca9be4d0dd02c4e6,43,0,2024-02-28T14:23:20.408Z,english_25.wav,0,peel,946,23,5,5,français,ff,8,0.8,-55.86599887,0.29447237
6107c89aca9be4d0dd02c4e6,43,0,2024-02-28T14:23:20.408Z,english_25.wav,0,peel,946,23,5,5,français,ff,9,0.9,70.71897097,0.99577412
6107c89aca9be4d0dd02c4e6,43,0,2024-02-28T14:23:20.408Z,english_25.wav,0,peel,946,23,5,5,français,ff,10,1.0,-41.59717756,1.79017757
6107c89aca9be4d0dd02c4e6,43,0,2024-02-28T14:23:20.408Z,english_25.wav,0,peel,946,23,5,5,français,ff,11,1.09391667,45.33564492,1.70871786
6107c89aca9be4d0dd02c4e6,44,0,2024-02-28T14:23:20.408Z,english_830.wav,0,peel,542,23,5,5,français,ff,0,0.0,-56.43859205,0.48566255
6107c89aca9be4d0dd02c4e6,44,0,2024-02-28T14:23:20.408Z,english_830.wav,0,peel,542,23,5,5,français,ff,1,0.1,-40.42370878,1.80120887
6107c89aca9be4d0dd02c4e6,44,0,2024-02-28T14:23:20.408Z,english_830.wav,0,peel,542,23,5,5,français,ff,2,0.2,57.12298771,0.23081218
6107c89aca9be4d0dd02c4e6,44,0,2024-02-28T14:23:20.408Z,english_830.wav,0,peel,542,23,5,5,français,ff,3,0.3,-17.62232487,1.34466319
6107c89aca9be4d0dd02c4e6,44,0,2024-02-28T14:23:20.408Z,english_830.wav,0,peel,542,23,5,5,français,ff,4,0.4,68.18956177,1.72981242
6107c89aca9be4d0dd02c4e6,44,0,2024-02-28T14:23:20.408Z,english_830.wav,0,peel,542,23,5,5,français,ff,5,0.5,87.82671531,1.56597803
6107c89aca9be4d0dd02c4e6,44,0,2024-02-28T14:23:20.408Z,english_830.wav,0,peel,542,23,5,5,français,ff,6,0.6,47.80958912,0.72011463
6107c89aca9be4d0dd02c4e6,44,0,2024-02-28T14:23:20.408Z,english_830.wav,0,peel,542,23,5,5,français,ff,7,0.7,90.11134252,1.40332871
6107c89aca9be4d0dd02c4e6,44,0,2024-02-28T14:23:20.408Z,english_830.wav,0,peel,542,23,5,5,français,ff,8,0.8,-73.11836968,0.88730082
6107c89aca9be4d0dd02c4e6,44,0,2024-02-28T14:23:20.408Z,english_830.wav,0,peel,542,23,5,5,français,ff,9,0.9,76.91440669,1.45593299
6107c89aca9be4d0dd02c4e6,44,0,2024-02-28T14:23:20.408Z,english_830.wav,0,peel,542,23,5,5,français,ff,10,1.0,0.84638196,1.11832638
6107c89aca9be4d0dd02c4e6,44,0,2024-02-28T14:23:20.408Z,english_830.wav,0,peel,542,23,5,5,français,ff,11,1.09391667,40.94191156,1.24825364
6107c89aca9be4d0dd02c4e6,45,0,2024-02-28T14:23:20.408Z,english_312.wav,0,peel,439,23,5,5,français,ff,0,0.0,-44.20026349,0.70172327
6107c89aca9be4d0dd02c4e6,45,0,2024-02-28T14:23:20.408Z,english_312.wav,0,peel,439,23,5,5,français,ff,1,0.1,37.14552062,1.15664492
6107c89aca9be4d0dd02c4e6,45,0,2024-02-28T14:23:20.408Z,english_312.wav,0,peel,439,23,5,5,français,ff,2,0.2,18.3582365,0.90621855
6107c89aca9be4d0dd02c4e6,45,0,2024-02-28T14:23:20.408Z,english_312.wav,0,peel,439,23,5,5,français,ff,3,0.3,77.7774411,1.08976836
6107c89aca9be4d0dd02c4e6,45,0,2024-02-28T14:23:20.408Z,english_312.wav,0,peel,439,23,5,5,français,ff,4,0.4,-78.31932482,1.02467386
6107c89aca9be4d0dd02c4e6,45,0,2024-02-28T14:23:20.408Z,english_312.wav,0,peel,439,23,5,5,français,ff,5,0.5,-58.95150344,0.3820111
6107c89aca9be4d0dd02c4e6,45,0,2024-02-28T14:23:20.408Z,english_312.wav,0,peel,439,23,5,5,français,ff,6,0.6,89.34504931,1.09647863
6107c89aca9be4d0dd02c4e6,45,0,2024-02-28T14:23:20.408Z,english_312.wav,0,peel,439,23,5,5,français,ff,7,0.7,88.15541314,1.49721146
6107c89aca9be4d0dd02c4e6,45,0,2024-02-28T14:23:20.408Z,english_312.wav,0,peel,439,23,5,5,français,ff,8,0.8,-8.94977512,1.78917626
6107c89aca9be4d0dd02c4e6,45,0,2024-02-28T14:23:20.408Z,english_312.wav,0,peel,439,23,5,5,français,ff,9,0.9,-51.17539316,0.56099976
6107c89aca9be4d0dd02c4e6,45,0,2024-02-28T14:23:20.408Z,english_312.wav,0,peel,439,23,5,5,français,ff,10,1.0,-56.97812864,1.16855683
6107c89aca9be4d0dd02c4e6,45,0,2024-02-28T14:23:20.408Z,english_312.wav,0,peel,439,23,5,5,français,ff,11,1.09391667,78.26932654,0.99548906
6107c89aca9be4d0dd02c4e6,46,0,2024-02-28T14:23:20.408Z,english_922.wav,0,peel,751,23,5,5,français,ff,0,0.0,61.1700044,0.77397562
6107c89aca9be4d0dd02c4e6,46,0,2024-02-28T14:23:20.408Z,english_922.wav,0,peel,751,23,5,5,français,ff,1,0.1,82.06984085,1.14937293
6107c89aca9be4d0dd02c4e6,46,0,2024-02-28T14:23:20.408Z,english_922.wav,0,peel,751,23,5,5,français,ff,2,0.2,-92.27579322,1.03435185
6107c89aca9be4d0dd02c4e6,46,0,2024-02-28T14:23:20.408Z,english_922.wav,0,peel,751,23,5,5,français,ff,3,0.3,89.90024406,0.69514863
6107c89aca9be4d0dd02c4e6,46,0,2024-02-28T14:23:20.408Z,english_922.wav,0,peel,751,23,5,5,français,ff,4,0.4,36.91510644,0.29090795
6107c89aca9be4d0dd02c4e6,46,0,2024-02-28T14:23:20.408Z,english_922.wav,0,peel,751,23,5,5,français,ff,5,0.5,-58.72846655,0.08046627
6107c89aca9be4d0dd02c4e6,46,0,2024-02-28T14:23:20.408Z,english_922.wav,0,peel,751,23,5,5,français,ff,6,0.6,85.21548547,0.39343329
6107c89aca9be4d0dd02c4e6,46,0,2024-02-28T14:23:20.408Z,english_922.wav,0,peel,751,23,5,5,français,ff,7,0.7,32.72450866,0.50557621
6107c89aca9be4d0dd02c4e6,46,0,2024-02-28T14:23:20.408Z,english_922.wav,0,peel,751,23,5,5,français,ff,8,0.8,50.92998004,1.28859728
6107c89aca9be4d0dd02c4e6,46,0,2024-02-28T14:23:20.408Z,english_922.wav,0,peel,751,23,5,5,français,ff,9,0.9,-26.56973856,0.44286158
6107c89aca9be4d0dd02c4e6,46,0,2024-02-28T14:23:20.408Z,english_922.wav,0,peel,751,23,5,5,français,ff,10,1.0,-43.37360145,1.43016745
6107c89aca9be4d0dd02c4e6,46,0,2024-02-28T14:23:20.408Z,english_922.wav,0,peel,751,23,5,5,français,ff,11,1.09391667,-17.2071356,1.42163313
6107c89aca9be4d0dd02c4e6,47,0,2024-02-28T14:23:20.408Z,english_874.wav,0,peel,451,23,5,5,français,ff,0,0.0,-71.39498579,1.26251394
6107c89aca9be4d0dd02c4e6,47,0,2024-02-28T14:23:20.408Z,english_874.wav,0,peel,451,23,5,5,français,ff,1,0.1,62.98858744,1.60813214
6107c89aca9be4d0dd02c4e6,47,0,2024-02-28T14:23:20.408Z,english_874.wav,0,peel,451,23,5,5,français,ff,2,0.2,41.27867713,0.77910004
6107c89aca9be4d0dd02c4e6,47,0,2024-02-28T14:23:20.408Z,english_874.wav,0,peel,451,23,5,5,français,ff,3,0.3,-0.45014309,1.66768461
6107c89aca9be4d0dd02c4e6,47,0,2024-02-28T14:23:20.408Z,english_874.wav,0,peel,451,23,5,5,français,ff,4,0.4,-62.23813069,1.66631965
6107c89aca9be4d0dd02c4e6,47,0,2024-02-28T14:23:20.408Z,english_874.wav,0,peel,451,23,5,5,français,ff,5,0.5,81.69191529,0.96578831
6107c89aca9be4d0dd02c4e6,47,0,2024-02-28T14:23:20.408Z,english_874.wav,0,peel,451,23,5,5,français,ff,6,0.6,-39.52630557,1.50022708
6107c89aca9be4d0dd02c4e6,47,0,2024-02-28T14:23:20.408Z,english_874.wav,0,peel,451,23,5,5,français,ff,7,0.7,6.61232929,0.80807106
6107c89aca9be4d0dd02c4e6,47,0,2024-02-28T14:23:20.408Z,english_874.wav,0,peel,451,23,5,5,français,ff,8,0.8,76.37120083,0.57035077
6107c89aca9be4d0dd02c4e6,47,0,2024-02-28T14:23:20.408Z,english_874.wav,0,peel,451,23,5,5,français,ff,9,0.9,72.14080556,0.35036103
6107c89aca9be4d0dd02c4e6,47,0,2024-02-28T14:23:20.408Z,english_874.wav,0,peel,451,23,5,5,français,ff,10,1.0,56.73337142,0.39594805
6107c89aca9be4d0dd02c4e6,47,0,2024-02-28T14:23:20.408Z,english_874.wav,0,peel,451,23,5,5,français,ff,11,1.09391667,-44.63255829,1.14540291
6107c89aca9be4d0dd02c4e6,48,0,2024-02-28T14:23:20.408Z,english_278.wav,0,peel,303,23,5,5,français,ff,0,0.0,-96.72610313,0.83439052
6107c89aca9be4d0dd02c4e6,48,0,2024-02-28T14:23:20.408Z,english_278.wav,0,peel,303,23,5,5,français,ff,1,0.1,-36.86809982,1.21055498
6107c89aca9be4d0dd02c4e6,48,0,2024-02-28T14:23:20.408Z,english_278.wav,0,peel,303,23,5,5,français,ff,2,0.2,-84.24626192,0.05488492
6107c89aca9be4d0dd02c4e6,48,0,2024-02-28T14:23:20.408Z,english_278.wav,0,peel,303,23,5,5,français,ff,3,0.3,-29.99363641,1.47058347
6107c89aca9be4d0dd02c4e6,48,0,2024-02-28T14:23:20.408Z,english_278.wav,0,peel,303,23,5,5,français,ff,4,0.4,21.41897552,0.68142996
6107c89aca9be4d0dd02c4e6,48,0,2024-02-28T14:23:20.408Z,english_278.wav,0,peel,303,23,5,5,français,ff,5,0.5,-73.7985343,0.65955027
6107c89aca9be4d0dd02c4e6,48,0,2024-02-28T14:23:20.408Z,english_278.wav,0,peel,303,23,5,5,français,ff,6,0.6,-83.05174317,1.54634177
6107c89aca9be4d0dd02c4e6,48,0,2024-02-28T14:23:20.408Z,english_278.wav,0,peel,303,23,5,5,français,ff,7,0.7,-43.48487906,1.03072417
6107c89aca9be4d0dd02c4e6,48,0,2024-02-28T14:23:20.408Z,english_278.wav,0,peel,303,23,5,5,français,ff,8,0.8,-48.22741203,0.15769377
6107c89aca9be4d0dd02c4e6,48,0,2024-02-28T14:23:20.408Z,english_278.wav,0,peel,303,23,5,5,français,ff,9,0.9,-30.73203826,0.79374536
6107c89aca9be4d0dd02c4e6,48,0,2024-02-28T14:23:20.408Z,english_278.wav,0,peel,303,23,5,5,français,ff,10,1.0,22.54361358,0.9877131
6107c89aca9be4d0dd02c4e6,48,0,2024-02-28T14:23:20.408Z,english_278.wav,0,peel,303,23,5,5,français,ff,11,1.09391667,-65.2249662,1.82414956
6107c89aca9be4d0dd02c4e6,49,0,2024-02-28T14:23:20.408Z,english_111.wav,0,peel,683,23,5,5,français,ff,0,0.0,-7.89423459,1.73172447
6107c89aca9be4d0dd02c4e6,49,0,2024-02-28T14:23:20.408Z,english_111.wav,0,peel,683,23,5,5,français,ff,1,0.1,-50.39853442,1.30536321
6107c89aca9be4d0dd02c4e6,49,0,2024-02-28T14:23:20.408Z,english_111.wav,0,peel,683,23,5,5,français,ff,2,0.2,85.22773015,0.28962065
6107c89aca9be4d0dd02c4e6,49,0,2024-02-28T14:23:20.408Z,english_111.wav,0,peel,683,23,5,5,français,ff,3,0.3,-7.88513069,1.6166787
6107c89aca9be4d0dd02c4e6,49,0,2024-02-28T14:23:20.408Z,english_111.wav,0,peel,683,23,5,5,français,ff,4,0.4,-36.68324303,0.55677008
6107c89aca9be4d0dd02c4e6,49,0,2024-02-28T14:23:20.408Z,english_111.wav,0,peel,683,23,5,5,français,ff,5,0.5,-4.8649615,1.31756148
6107c89aca9be4d0dd02c4e6,49,0,2024-02-28T14:23:20.408Z,english_111.wav,0,peel,683,23,5,5,français,ff,6,0.6,-92.19494919,1.4789538
6107c89aca9be4d0dd02c4e6,49,0,2024-02-28T14:23:20.408Z,english_111.wav,0,peel,683,23,5,5,français,ff,7,0.7,-6.11032283,0.53950686
6107c89aca9be4d0dd02c4e6,49,0,2024-02-28T14:23:20.408Z,english_111.wav,0,peel,683,23,5,5,français,ff,8,0.8,41.34470973,0.89868821
6107c89aca9be4d0dd02c4e6,49,0,2024-02-28T14:23:20.408Z,english_111.wav,0,peel,683,23,5,5,français,ff,9,0.9,-73.07088632,0.90401257
6107c89aca9be4d0dd02c4e6,49,0,2024-02-28T14:23:20.408Z,english_111.wav,0,peel,683,23,5,5,français,ff,10,1.0,50.36502587,0.61580764
6107c89aca9be4d0dd02c4e6,49,0,2024-02-28T14:23:20.408Z,english_111.wav,0,peel,683,23,5,5,français,ff,11,1.09391667,-49.90215361,1.87610476
6107c89aca9be4d0dd02c4e6,50,1,2024-02-28T14:28:14.294Z,english_53.wav,0,peel,927,23,5,5,français,ff,0,0.0,-9.98510741,0.74460472
6107c89aca9be4d0dd02c4e6,50,1,2024-02-28T14:28:14.294Z,english_53.wav,0,peel,927,23,5,5,français,ff,1,0.1,90.79697624,1.15408397
6107c89aca9be4d0dd02c4e6,50,1,2024-02-28T14:28:14.294Z,english_53.wav,0,peel,927,23,5,5,français,ff,2,0.2,-13.66139315,1.79328536
6107c89aca9be4d0dd02c4e6,50,1,2024-02-28T14:28:14.294Z,english_53.wav,0,peel,927,23,5,5,français,ff,3,0.3,-58.03832427,1.05093724
6107c89aca9be4d0dd02c4e6,50,1,2024-02-28T14:28:14.294Z,english_53.wav,0,peel,927,23,5,5,français,ff,4,0.4,-14.2879771,0.44247057
6107c89aca9be4d0dd02c4e6,50,1,2024-02-28T14:28:14.294Z,english_53.wav,0,peel,927,23,5,5,français,ff,5,0.5,-9.92334291,0.88826362
6107c89aca9be4d0dd02c4e6,50,1,2024-02-28T14:28:14.294Z,english_53.wav,0,peel,927,23,5,5,français,ff,6,0.6,48.00852586,1.51515328
6107c89aca9be4d0dd02c4e6,50,1,2024-02-28T14:28:14.294Z,english_53.wav,0,peel,927,23,5,5,français,ff,7,0.7,-7.96828411,1.78598668
6107c89aca9be4d0dd02c4e6,50,1,2024-02-28T14:28:14.294Z,english_53.wav,0,peel,927,23,5,5,français,ff,8,0.8,3.91211897,0.80456615
6107c89aca9be4d0dd02c4e6,50,1,2024-02-28T14:28:14.294Z,english_53.wav,0,peel,927,23,5,5,français,ff,9,0.9,9.32007469,0.44108586
6107c89aca9be4d0dd02c4e6,50,1,2024-02-28T14:28:14.294Z,english_53.wav,0,peel,927,23,5,5,français,ff,10,1.0,-65.1483507,1.43639609
6107c89aca9be4d0dd02c4e6,50,1,2024-02-28T14:28:14.294Z,english_53.wav,0,peel,927,23,5,5,français,ff,11,1.09391667,-31.85609608,1.915162
6107c89aca9be4d0dd02c4e6,51,1,2024-02-28T14:28:14.294Z,english_161.wav,0,peel,2080,23,5,5,français,ff,0,0.0,0.2450503,0.47001228
6107c89aca9be4d0dd02c4e6,51,1,2024-02-28T14:28:14.294Z,english_161.wav,0,peel,2080,23,5,5,français,ff,1,0.1,41.86400045,1.24375119
6107c89aca9be4d0dd02c4e6,51,1,2024-02-28T14:28:14.294Z,english_161.wav,0,peel,2080,23,5,5,français,ff,2,0.2,3.22348346,0.98802588
6107c89aca9be4d0dd02c4e6,51,1,2024-02-28T14:28:14.294Z,english_161.wav,0,peel,2080,23,5,5,français,ff,3,0.3,-24.29894103,1.92952194
6107c89aca9be4d0dd02c4e6,51,1,2024-02-28T14:28:14.294Z,english_161.wav,0,peel,2080,23,5,5,français,ff,4,0.4,66.4308336,0.84385332
6107c89aca9be4d0dd02c4e6,51,1,2024-02-28T14:28:14.294Z,english_161.wav,0,peel,2080,23,5,5,français,ff,5,0.5,-79.52202924,0.34569188
6107c89aca9be4d0dd02c4e6,51,1,2024-02-28T14:28:14.294Z,english_161.wav,0,peel,2080,23,5,5,français,ff,6,0.6,-4.00284897,1.46988057
6107c89aca9be4d0dd02c4e6,51,1,2024-02-28T14:28:14.294Z,english_161.wav,0,peel,2080,23,5,5,français,ff,7,0.7,-82.69040612,0.94597317
6107c89aca9be4d0dd02c4e6,51,1,2024-02-28T14:28:14.294Z,english_161.wav,0,peel,2080,23,5,5,français,ff,8,0.8,32.14289288,0.70955806
6107c89aca9be4d0dd02c4e6,51,1,2024-02-28T14:28:14.294Z,english_161.wav,0,peel,2080,23,5,5,français,ff,9,0.9,-94.27188699,1.39207721
6107c89aca9be4d0dd02c4e6,51,1,2024-02-28T14:28:14.294Z,english_161.wav,0,peel,2080,23,5,5,français,ff,10,1.0,-14.10162234,0.79549611
6107c89aca9be4d0dd02c4e6,51,1,2024-02-28T14:28:14.294Z,english_161.wav,0,peel,2080,23,5,5,français,ff,11,1.09391667,27.39748728,1.7090018
6107c89aca9be4d0dd02c4e6,52,1,2024-02-28T14:28:14.294Z,english_552.wav,0,peel,814,23,5,5,français,ff,0,0.0,24.23901763,1.612105
6107c89aca9be4d0dd02c4e6,52,1,2024-02-28T14:28:14.294Z,english_552.wav,0,peel,814,23,5,5,français,ff,1,0.1,-68.29569332,0.23755281
6107c89aca9be4d0dd02c4e6,52,1,2024-02-28T14:28:14.294Z,english_552.wav,0,peel,814,23,5,5,français,ff,2,0.2,-76.60440788,1.12644766
6107c89aca9be4d0dd02c4e6,52,1,2024-02-28T14:28:14.294Z,english_552.wav,0,peel,814,23,5,5,français,ff,3,0.3,-14.28309722,1.6498911
6107c89aca9be4d0dd02c4e6,52,1,2024-02-28T14:28:14.294Z,english_552.wav,0,peel,814,23,5,5,français,ff,4,0.4,7.45259631,1.62705162
6107c89aca9be4d0dd02c4e6,52,1,2024-02-28T14:28:14.294Z,english_552.wav,0,peel,814,23,5,5,français,ff,5,0.5,-96.79412631,0.02108582
6107c89aca9be4d0dd02c4e6,52,1,2024-02-28T14:28:14.294Z,english_552.wav,0,peel,814,23,5,5,français,ff,6,0.6,19.00121721,0.46250888
6107c89aca9be4d0dd02c4e6,52,1,2024-02-28T14:28:14.294Z,english_552.wav,0,peel,814,23,5,5,français,ff,7,0.7,28.47093687,0.61388361
6107c89aca9be4d0dd02c4e6,52,1,2024-02-28T14:28:14.294Z,english_552.wav,0,peel,814,23,5,5,français,ff,8,0.8,-28.36467118,1.42538322
6107c89aca9be4d0dd02c4e6,52,1,2024-02-28T14:28:14.294Z,english_552.wav,0,peel,814,23,5,5,français,ff,9,0.9,27.37810517,1.50029895
6107c89aca9be4d0dd02c4e6,52,1,2024-02-28T14:28:14.294Z,english_552.wav,0,peel,814,23,5,5,français,ff,10,1.0,-1.36668835,0.7956711
6107c89aca9be4d0dd02c4e6,52,1,2024-02-28T14:28:14.294Z,english_552.wav,0,peel,814,23,5,5,français,ff,11,1.09391667,-10.50305513,0.62245048
6107c89aca9be4d0dd02c4e6,53,1,2024-02-28T14:28:14.294Z,english_739.wav,0,peel,569,23,5,5,français,ff,0,0.0,1.66907671,0.87693375
6107c89aca9be4d0dd02c4e6,53,1,2024-02-28T14:28:14.294Z,english_739.wav,0,peel,569,23,5,5,français,ff,1,0.1,32.28194312,0.65337813
6107c89aca9be4d0dd02c4e6,53,1,2024-02-28T14:28:14.294Z,english_739.wav,0,peel,569,23,5,5,français,ff,2,0.2,88.89595153,0.64089741
6107c89aca9be4d0dd02c4e6,53,1,2024-02-28T14:28:14.294Z,english_739.wav,0,peel,569,23,5,5,français,ff,3,0.3,20.95779095,1.8100412
6107c89aca9be4d0dd02c4e6,53,1,2024-02-28T14:28:14.294Z,english_739.wav,0,peel,569,23,5,5,français,ff,4,0.4,75.26857339,1.25976755
6107c89aca9be4d0dd02c4e6,53,1,2024-02-28T14:28:14.294Z,english_739.wav,0,peel,569,23,5,5,français,ff,5,0.5,80.94392955,0.9768095
6107c89aca9be4d0dd02c4e6,53,1,2024-02-28T14:28:14.294Z,english_739.wav,0,peel,569,23,5,5,français,ff,6,0.6,17.54887525,1.56119235
6107c89aca9be4d0dd02c4e6,53,1,2024-02-28T14:28:14.294Z,english_739.wav,0,peel,569,23,5,5,français,ff,7,0.7,25.07377362,0.95993111
6107c89aca9be4d0dd02c4e6,53,1,2024-02-28T14:28:14.294Z,english_739.wav,0,peel,569,23,5,5,français,ff,8,0.8,92.52917298,0.31388654
6107c89aca9be4d0dd02c4e6,53,1,2024-02-28T14:28:14.294Z,english_739.wav,0,peel,569,23,5,5,français,ff,9,0.9,2.73629171,1.55063506
6107c89aca9be4d0dd02c4e6,53,1,2024-02-28T14:28:14.294Z,english_739.wav,0,peel,569,23,5,5,français,ff,10,1.0,-80.00700458,1.57282249
6107c89aca9be4d0dd02c4e6,53,1,2024-02-28T14:28:14.294Z,english_739.wav,0,peel,569,23,5,5,français,ff,11,1.09391667,-87.47656885,1.46307629
6107c89aca9be4d0dd02c4e6,54,1,2024-02-28T14:28:14.294Z,english_986.wav,0,peel,3622,23,5,5,français,ff,0,0.0,66.66952336,1.97934099
6107c89aca9be4d0dd02c4e6,54,1,2024-02-28T14:28:14.294Z,english_986.wav,0,peel,3622,23,5,5,français,ff,1,0.1,96.9530251,1.29460225
6107c89aca9be4d0dd02c4e6,54,1,2024-02-28T14:28:14.294Z,english_986.wav,0,peel,3622,23,5,5,français,ff,2,0.2,75.3477354,1.53421825
6107c89aca9be4d0dd02c4e6,54,1,2024-02-28T14:28:14.294Z,english_986.wav,0,peel,3622,23,5,5,français,ff,3,0.3,-56.79707668,1.45039514
6107c89aca9be4d0dd02c4e6,54,1,2024-02-28T14:28:14.294Z,english_986.wav,0,peel,3622,23,5,5,français,ff,4,0.4,68.50410973,0.98893675
6107c89aca9be4d0dd02c4e6,54,1,2024-02-28T14:28:14.294Z,english_986.wav,0,peel,3622,23,5,5,français,ff,5,0.5,5.80156778,1.73927101
6107c89aca9be4d0dd02c4e6,54,1,2024-02-28T14:28:14.294Z,english_986.wav,0,peel,3622,23,5,5,français,ff,6,0.6,-59.00857509,1.32684672
6107c89aca9be4d0dd02c4e6,54,1,2024-02-28T14:28:14.294Z,english_986.wav,0,peel,3622,23,5,5,français,ff,7,0.7,23.78788766,1.65077043
6107c89aca9be4d0dd02c4e6,54,1,2024-02-28T14:28:14.294Z,english_986.wav,0,peel,3622,23,5,5,français,ff,8,0.8,8.31255478,1.05904427
6107c89aca9be4d0dd02c4e6,54,1,2024-02-28T14:28:14.294Z,english_986.wav,0,peel,3622,23,5,5,français,ff,9,0.9,-23.40072537,0.79622744
6107c89aca9be4d0dd02c4e6,54,1,2024-02-28T14:28:14.294Z,english_986.wav,0,peel,3622,23,5,5,français,ff,10,1.0,36.6022418,1.94329627
6107c89aca9be4d0dd02c4e6,54,1,2024-02-28T14:28:14.294Z,english_986.wav,0,peel,3622,23,5,5,français,ff,11,1.09391667,-51.87443186,1.45912014
6107c89aca9be4d0dd02c4e6,55,1,2024-02-28T14:28:14.294Z,english_406.wav,0,pill,10009,23,5,5,français,ff,0,0.0,16.41054839,1.82011871
6107c89aca9be4d0dd02c4e6,55,1,2024-02-28T14:28:14.294Z,english_406.wav,0,pill,10009,23,5,5,français,ff,1,0.1,-23.44264217,1.5788444
6107c89aca9be4d0dd02c4e6,55,1,2024-02-28T14:28:14.294Z,english_406.wav,0,pill,10009,23,5,5,français,ff,2,0.2,67.00437835,0.98241909
6107c89aca9be4d0dd02c4e6,55,1,2024-02-28T14:28:14.294Z,english_406.wav,0,pill,10009,23,5,5,français,ff,3,0.3,32.24147439,1.73565394
6107c89aca9be4d0dd02c4e6,55,1,2024-02-28T14:28:14.294Z,english_406.wav,0,pill,10009,23,5,5,français,ff,4,0.4,-69.94095423,0.23880913
6107c89aca9be4d0dd02c4e6,55,1,2024-02-28T14:28:14.294Z,english_406.wav,0,pill,10009,23,5,5,français,ff,5,0.5,-75.95608649,1.64825439
6107c89aca9be4d0dd02c4e6,55,1,2024-02-28T14:28:14.294Z,english_406.wav,0,pill,10009,23,5,5,français,ff,6,0.6,26.64856795,1.51416343
6107c89aca9be4d0dd02c4e6,55,1,2024-02-28T14:28:14.294Z,english_406.wav,0,pill,10009,23,5,5,français,ff,7,0.7,28.46707033,0.23765412
6107c89aca9be4d0dd02c4e6,55,1,2024-02-28T14:28:14.294Z,english_406.wav,0,pill,10009,23,5,5,français,ff,8,0.8,8.57252797,0.78664096
6107c89aca9be4d0dd02c4e6,55,1,2024-02-28T14:28:14.294Z,english_406.wav,0,pill,10009,23,5,5,français,ff,9,0.9,-43.42045484,1.03412093
6107c89aca9be4d0dd02c4e6,55,1,2024-02-28T14:28:14.294Z,english_406.wav,0,pill,10009,23,5,5,français,ff,10,1.0,-38.23728815,1.06202892
6107c89aca9be4d0dd02c4e6,55,1,2024-02-28T14:28:14.294Z,english_406.wav,0,pill,10009,23,5,5,français,ff,11,1.09391667,-48.66780803,0.40663901
6107c89aca9be4d0dd02c4e6,56,1,2024-02-28T14:28:14.294Z,english_90.wav,0,peel,344,23,5,5,français,ff,0,0.0,63.54924995,1.34228215
6107c89aca9be4d0dd02c4e6,56,1,2024-02-28T14:28:14.294Z,english_90.wav,0,peel,344,23,5,5,français,ff,1,0.1,-59.21327506,1.34732724
6107c89aca9be4d0dd02c4e6,56,1,2024-02-28T14:28:14.294Z,english_90.wav,0,peel,344,23,5,5,français,ff,2,0.2,34.58495613,1.75147993
6107c89aca9be4d0dd02c4e6,56,1,2024-02-28T14:28:14.294Z,english_90.wav,0,peel,344,23,5,5,français,ff,3,0.3,3.2427236,0.03089284
6107c89aca9be4d0dd02c4e6,56,1,2024-02-28T14:28:14.294Z,english_90.wav,0,peel,344,23,5,5,français,ff,4,0.4,1.17936493,1.52341973
6107c89aca9be4d0dd02c4e6,56,1,2024-02-28T14:28:14.294Z,english_90.wav,0,peel,344,23,5,5,français,ff,5,0.5,50.51297544,0.97925583
6107c89aca9be4d0dd02c4e6,56,1,2024-02-28T14:28:14.294Z,english_90.wav,0,peel,344,23,5,5,français,ff,6,0.6,61.04656064,1.17642538
6107c89aca9be4d0dd02c4e6,56,1,2024-02-28T14:28:14.294Z,english_90.wav,0,peel,344,23,5,5,français,ff,7,0.7,-96.36424089,1.13367306
6107c89aca9be4d0dd02c4e6,56,1,2024-02-28T14:28:14.294Z,english_90.wav,0,peel,344,23,5,5,français,ff,8,0.8,9.94738881,1.45431282
6107c89aca9be4d0dd02c4e6,56,1,2024-02-28T14:28:14.294Z,english_90.wav,0,peel,344,23,5,5,français,ff,9,0.9,-95.56108651,0.56738547
6107c89aca9be4d0dd02c4e6,56,1,2024-02-28T14:28:14.294Z,english_90.wav,0,peel,344,23,5,5,français,ff,10,1.0,-78.91453265,1.10123663
6107c89aca9be4d0dd02c4e6,56,1,2024-02-28T14:28:14.294Z,english_90.wav,0,peel,344,23,5,5,français,ff,11,1.09391667,57.06664979,0.76686745
6107c89aca9be4d0dd02c4e6,57,1,2024-02-28T14:28:14.294Z,english_762.wav,0,peel,340,23,5,5,français,ff,0,0.0,27.33261944,0.57686104
6107c89aca9be4d0dd02c4e6,57,1,2024-02-28T14:28:14.294Z,english_762.wav,0,peel,340,23,5,5,français,ff,1,0.1,29.78644266,1.32227847
6107c89aca9be4d0dd02c4e6,57,1,2024-02-28T14:28:14.294Z,english_762.wav,0,peel,340,23,5,5,français,ff,2,0.2,-12.70237049,1.79912514
6107c89aca9be4d0dd02c4e6,57,1,2024-02-28T14:28:14.294Z,english_762.wav,0,peel,340,23,5,5,français,ff,3,0.3,35.66782523,0.4564538
6107c89aca9be4d0dd02c4e6,57,1,2024-02-28T14:28:14.294Z,english_762.wav,0,peel,340,23,5,5,français,ff,4,0.4,29.74626928,1.02600183
6107c89aca9be4d0dd02c4e6,57,1,2024-02-28T14:28:14.294Z,english_762.wav,0,peel,340,23,5,5,français,ff,5,0.5,5.11664219,0.76890833
6107c89aca9be4d0dd02c4e6,57,1,2024-02-28T14:28:14.294Z,english_762.wav,0,peel,340,23,5,5,français,ff,6,0.6,-48.64269717,1.34014461
6107c89aca9be4d0dd02c4e6,57,1,2024-02-28T14:28:14.294Z,english_762.wav,0,peel,340,23,5,5,français,ff,7,0.7,63.16783742,1.21629987
6107c89aca9be4d0dd02c4e6,57,1,2024-02-28T14:28:14.294Z,english_762.wav,0,peel,340,23,5,5,français,ff,8,0.8,60.29128931,1.77191932
6107c89aca9be4d0dd02c4e6,57,1,2024-02-28T14:28:14.294Z,english_762.wav,0,peel,340,23,5,5,français,ff,9,0.9,23.99980286,0.26778131
6107c89aca9be4d0dd02c4e6,57,1,2024-02-28T14:28:14.294Z,english_762.wav,0,peel,340,23,5,5,français,ff,10,1.0,21.04820857,1.59674642
6107c89aca9be4d0dd02c4e6,57,1,2024-02-28T14:28:14.294Z,english_762.wav,0,peel,340,23,5,5,français,ff,11,1.09391667,-49.011882,0.1994287
6107c89aca9be4d0dd02c4e6,58,1,2024-02-28T14:28:14.294Z,english_443.wav,0,pill,471,23,5,5,français,ff,0,0.0,81.96165797,0.75557645
6107c89aca9be4d0dd02c4e6,58,1,2024-02-28T14:28:14.294Z,english_443.wav,0,pill,471,23,5,5,français,ff,1,0.1,-28.05483683,1.24238721
6107c89aca9be4d0dd02c4e6,58,1,2024-02-28T14:28:14.294Z,english_443.wav,0,pill,471,23,5,5,français,ff,2,0.2,-21.59346314,1.29479034
6107c89aca9be4d0dd02c4e6,58,1,2024-02-28T14:28:14.294Z,english_443.wav,0,pill,471,23,5,5,français,ff,3,0.3,1.08429848,1.78084003
6107c89aca9be4d0dd02c4e6,58,1,2024-02-28T14:28:14.294Z,english_443.wav,0,pill,471,23,5,5,français,ff,4,0.4,21.43423257,0.20990132
6107c89aca9be4d0dd02c4e6,58,1,2024-02-28T14:28:14.294Z,english_443.wav,0,pill,471,23,5,5,français,ff,5,0.5,75.67535371,0.69063729
6107c89aca9be4d0dd02c4e6,58,1,2024-02-28T14:28:14.294Z,english_443.wav,0,pill,471,23,5,5,français,ff,6,0.6,-12.42326874,1.52523801
6107c89aca9be4d0dd02c4e6,58,1,2024-02-28T14:28:14.294Z,english_443.wav,0,pill,471,23,5,5,français,ff,7,0.7,-43.03784954,1.69469222
6107c89aca9be4d0dd02c4e6,58,1,2024-02-28T14:28:14.294Z,english_443.wav,0,pill,471,23,5,5,français,ff,8,0.8,-95.88108409,1.5231422
6107c89aca9be4d0dd02c4e6,58,1,2024-02-28T14:28:14.294Z,english_443.wav,0,pill,471,23,5,5,français,ff,9,0.9,5.88501358,0.01978813
6107c89aca9be4d0dd02c4e6,58,1,2024-02-28T14:28:14.294Z,english_443.wav,0,pill,471,23,5,5,français,ff,10,1.0,-74.23415878,0.32318558
6107c89aca9be4d0dd02c4e6,58,1,2024-02-28T14:28:14.294Z,english_443.wav,0,pill,471,23,5,5,français,ff,11,1.09391667,-13.77398798,1.99092699
6107c89aca9be4d0dd02c4e6,59,1,2024-02-28T14:28:14.294Z,english_498.wav,0,peel,713,23,5,5,français,ff,0,0.0,43.98055184,1.94722798
6107c89aca9be4d0dd02c4e6,59,1,2024-02-28T14:28:14.294Z,english_498.wav,0,peel,713,23,5,5,français,ff,1,0.1,91.3545984,1.93048351
6107c89aca9be4d0dd02c4e6,59,1,2024-02-28T14:28:14.294Z,english_498.wav,0,peel,713,23,5,5,français,ff,2,0.2,-25.91563113,0.27240706
6107c89aca9be4d0dd02c4e6,59,1,2024-02-28T14:28:14.294Z,english_498.wav,0,peel,713,23,5,5,français,ff,3,0.3,-14.96140851,1.06623965
6107c89aca9be4d0dd02c4e6,59,1,2024-02-28T14:28:14.294Z,english_498.wav,0,peel,713,23,5,5,français,ff,4,0.4,-8.05824247,1.41558656
6107c89aca9be4d0dd02c4e6,59,1,2024-02-28T14:28:14.294Z,english_498.wav,0,peel,713,23,5,5,français,ff,5,0.5,-61.63888891,0.26700347
6107c89aca9be4d0dd02c4e6,59,1,2024-02-28T14:28:14.294Z,english_498.wav,0,peel,713,23,5,5,français,ff,6,0.6,37.86658664,0.54434522
6107c89aca9be4d0dd02c4e6,59,1,2024-02-28T14:28:14.294Z,english_498.wav,0,peel,713,23,5,5,français,ff,7,0.7,-97.52325855,0.79258737
6107c89aca9be4d0dd02c4e6,59,1,2024-02-28T14:28:14.294Z,english_498.wav,0,peel,713,23,5,5,français,ff,8,0.8,-16.03910224,1.13417158
6107c89aca9be4d0dd02c4e6,59,1,2024-02-28T14:28:14.294Z,english_498.wav,0,peel,713,23,5,5,français,ff,9,0.9,83.25609208,0.68565339
6107c89aca9be4d0dd02c4e6,59,1,2024-02-28T14:28:14.294Z,english_498.wav,0,peel,713,23,5,5,français,ff,10,1.0,-65.28300381,0.73020294
6107c89aca9be4d0dd02c4e6,59,1,2024-02-28T14:28:14.294Z,english_498.wav,0,peel,713,23,5,5,français,ff,11,1.09391667,38.04109912,1.48505369
6107c89aca9be4d0dd02c4e6,60,1,2024-02-28T14:28:14.294Z,english_675.wav,0,pill,23195,23,5,5,français,ff,0,0.0,-55.70103266,0.31166963
6107c89aca9be4d0dd02c4e6,60,1,2024-02-28T14:28:14.294Z,english_675.wav,0,pill,23195,23,5,5,français,ff,1,0.1,-28.01284425,0.86348118
6107c89aca9be4d0dd02c4e6,60,1,2024-02-28T14:28:14.294Z,english_675.wav,0,pill,23195,23,5,5,français,ff,2,0.2,7.20629908,0.70830416
6107c89aca9be4d0dd02c4e6,60,1,2024-02-28T14:28:14.294Z,english_675.wav,0,pill,23195,23,5,5,français,ff,3,0.3,-88.65707162,1.06551889
6107c89aca9be4d0dd02c4e6,60,1,2024-02-28T14:28:14.294Z,english_675.wav,0,pill,23195,23,5,5,français,ff,4,0.4,-27.84357002,1.20889774
6107c89aca9be4d0dd02c4e6,60,1,2024-02-28T14:28:14.294Z,english_675.wav,0,pill,23195,23,5,5,français,ff,5,0.5,-20.24546059,1.96243663
6107c89aca9be4d0dd02c4e6,60,1,2024-02-28T14:28:14.294Z,english_675.wav,0,pill,23195,23,5,5,français,ff,6,0.6,20.54719109,0.99424305
6107c89aca9be4d0dd02c4e6,60,1,2024-02-28T14:28:14.294Z,english_675.wav,0,pill,23195,23,5,5,français,ff,7,0.7,-91.70059837,1.67190932
6107c89aca9be4d0dd02c4e6,60,1,2024-02-28T14:28:14.294Z,english_675.wav,0,pill,23195,23,5,5,français,ff,8,0.8,-73.21008585,0.91833311
6107c89aca9be4d0dd02c4e6,60,1,2024-02-28T14:28:14.294Z,english_675.wav,0,pill,23195,23,5,5,français,ff,9,0.9,41.37635308,1.02826617
6107c89aca9be4d0dd02c4e6,60,1,2024-02-28T14:28:14.294Z,english_675.wav,0,pill,23195,23,5,5,français,ff,10,1.0,8.96435743,1.43882248
6107c89aca9be4d0dd02c4e6,60,1,2024-02-28T14:28:14.294Z,english_675.wav,0,pill,23195,23,5,5,français,ff,11,1.09391667,-83.64569899,1.75988721
6107c89aca9be4d0dd02c4e6,61,1,2024-02-28T14:28:14.294Z,english_97.wav,0,peel,2290,23,5,5,français,ff,0,0.0,76.37857638,1.79294701
6107c89aca9be4d0dd02c4e6,61,1,2024-02-28T14:28:14.294Z,english_97.wav,0,peel,2290,23,5,5,français,ff,1,0.1,-4.28991847,0.18306204
6107c89aca9be4d0dd02c4e6,61,1,2024-02-28T14:28:14.294Z,english_97.wav,0,peel,2290,23,5,5,français,ff,2,0.2,47.01039737,1.8440549
6107c89aca9be4d0dd02c4e6,61,1,2024-02-28T14:28:14.294Z,english_97.wav,0,peel,2290,23,5,5,français,ff,3,0.3,78.99599817,1.28830428
6107c89aca9be4d0dd02c4e6,61,1,2024-02-28T14:28:14.294Z,english_97.wav,0,peel,2290,23,5,5,français,ff,4,0.4,-74.44800797,0.92549922
6107c89aca9be4d0dd02c4e6,61,1,2024-02-28T14:28:14.294Z,english_97.wav,0,peel,2290,23,5,5,français,ff,5,0.5,-0.92525099,1.98803443
6107c89aca9be4d0dd02c4e6,61,1,2024-02-28T14:28:14.294Z,english_97.wav,0,peel,2290,23,5,5,français,ff,6,0.6,49.24834696,1.73109288
6107c89aca9be4d0dd02c4e6,61,1,2024-02-28T14:28:14.294Z,english_97.wav,0,peel,2290,23,5,5,français,ff,7,0.7,54.51821925,0.57923617
6107c89aca9be4d0dd02c4e6,61,1,2024-02-28T14:28:14.294Z,english_97.wav,0,peel,2290,23,5,5,français,ff,8,0.8,21.55646095,1.43675725
6107c89aca9be4d0dd02c4e6,61,1,2024-02-28T14:28:14.294Z,english_97.wav,0,peel,2290,23,5,5,français,ff,9,0.9,38.61141557,0.35677857
6107c89aca9be4d0dd02c4e6,61,1,2024-02-28T14:28:14.294Z,english_97.wav,0,peel,2290,23,5,5,français,ff,10,1.0,-51.21992239,0.21609993
6107c89aca9be4d0dd02c4e6,61,1,2024-02-28T14:28:14.294Z,english_97.wav,0,peel,2290,23,5,5,français,ff,11,1.09391667,-54.62741944,0.92594918
6107c89aca9be4d0dd02c4e6,62,1,2024-02-28T14:28:14.294Z,english_298.wav,0,pill,1181,23,5,5,français,ff,0,0.0,-6.27155647,1.61849335
6107c89aca9be4d0dd02c4e6,62,1,2024-02-28T14:28:14.294Z,english_298.wav,0,pill,1181,23,5,5,français,ff,1,0.1,48.93550058,0.35596491
6107c89aca9be4d0dd02c4e6,62,1,2024-02-28T14:28:14.294Z,english_298.wav,0,pill,1181,23,5,5,français,ff,2,0.2,13.84285521,0.30396033
6107c89aca9be4d0dd02c4e6,62,1,2024-02-28T14:28:14.294Z,english_298.wav,0,pill,1181,23,5,5,français,ff,3,0.3,97.15977737,1.90931563
6107c89aca9be4d0dd02c4e6,62,1,2024-02-28T14:28:14.294Z,english_298.wav,0,pill,1181,23,5,5,français,ff,4,0.4,79.76715629,0.00976952
6107c89aca9be4d0dd02c4e6,62,1,2024-02-28T14:28:14.294Z,english_298.wav,0,pill,1181,23,5,5,français,ff,5,0.5,-41.84976134,1.7369795
6107c89aca9be4d0dd02c4e6,62,1,2024-02-28T14:28:14.294Z,english_298.wav,0,pill,1181,23,5,5,français,ff,6,0.6,11.37121721,1.54006257
6107c89aca9be4d0dd02c4e6,62,1,2024-02-28T14:28:14.294Z,english_298.wav,0,pill,1181,23,5,5,français,ff,7,0.7,1.57706146,0.39135251
6107c89aca9be4d0dd02c4e6,62,1,2024-02-28T14:28:14.294Z,english_298.wav,0,pill,1181,23,5,5,français,ff,8,0.8,14.4430887,1.45560385
6107c89aca9be4d0dd02c4e6,62,1,2024-02-28T14:28:14.294Z,english_298.wav,0,pill,1181,23,5,5,français,ff,9,0.9,22.32733409,1.43660254
6107c89aca9be4d0dd02c4e6,62,1,2024-02-28T14:28:14.294Z,english_298.wav,0,pill,1181,23,5,5,français,ff,10,1.0,4.8370979,1.96857338
6107c89aca9be4d0dd02c4e6,62,1,2024-02-28T14:28:14.294Z,english_298.wav,0,pill,1181,23,5,5,français,ff,11,1.09391667,33.89493251,1.91654431
6107c89aca9be4d0dd02c4e6,63,1,2024-02-28T14:28:14.294Z,english_206.wav,0,peel,608,23,5,5,français,ff,0,0.0,-99.12855739,1.20636597
6107c89aca9be4d0dd02c4e6,63,1,2024-02-28T14:28:14.294Z,english_206.wav,0,peel,608,23,5,5,français,ff,1,0.1,-89.51576504,0.87803278
6107c89aca9be4d0dd02c4e6,63,1,2024-02-28T14:28:14.294Z,english_206.wav,0,peel,608,23,5,5,français,ff,2,0.2,-90.40464902,1.07282405
6107c89aca9be4d0dd02c4e6,63,1,2024-02-28T14:28:14.294Z,english_206.wav,0,peel,608,23,5,5,français,ff,3,0.3,-70.32755561,1.36131617
6107c89aca9be4d0dd02c4e6,63,1,2024-02-28T14:28:14.294Z,english_206.wav,0,peel,608,23,5,5,français,ff,4,0.4,78.03699917,0.62923097
