subj,trial,block,date,stim,stim_order,response,rt,age,english,french,language,sex,param_index,segment,pitch,stretch
5e29fd5f2bec3b065e9a729e,0,0,2024-02-28T14:43:14.380Z,english_831.wav,0,pill,2827,46,5,5,français,f,0,0.0,-21.16656573,0.86887876
5e29fd5f2bec3b065e9a729e,0,0,2024-02-28T14:43:14.380Z,english_831.wav,0,pill,2827,46,5,5,français,f,1,0.1,29.76214341,1.37629655
5e29fd5f2bec3b065e9a729e,0,0,2024-02-28T14:43:14.380Z,english_831.wav,0,pill,2827,46,5,5,français,f,2,0.2,61.45359844,0.63499907
5e29fd5f2bec3b065e9a729e,0,0,2024-02-28T14:43:14.380Z,english_831.wav,0,pill,2827,46,5,5,français,f,3,0.3,6.67004895,0.11279763
5e29fd5f2bec3b065e9a729e,0,0,2024-02-28T14:43:14.380Z,english_831.wav,0,pill,2827,46,5,5,français,f,4,0.4,26.70370751,0.87092561
5e29fd5f2bec3b065e9a729e,0,0,2024-02-28T14:43:14.380Z,english_831.wav,0,pill,2827,46,5,5,français,f,5,0.5,-40.62935301,1.90700704
5e29fd5f2bec3b065e9a729e,0,0,2024-02-28T14:43:14.380Z,english_831.wav,0,pill,2827,46,5,5,français,f,6,0.6,99.09256776,0.52454597
5e29fd5f2bec3b065e9a729e,0,0,2024-02-28T14:43:14.380Z,english_831.wav,0,pill,2827,46,5,5,français,f,7,0.7,79.82257267,0.72073711
5e29fd5f2bec3b065e9a729e,0,0,2024-02-28T14:43:14.380Z,english_831.wav,0,pill,2827,46,5,5,français,f,8,0.8,42.46181289,0.80064374
5e29fd5f2bec3b065e9a729e,0,0,2024-02-28T14:43:14.380Z,english_831.wav,0,pill,2827,46,5,5,français,f,9,0.9,2.20427108,1.04408214
5e29fd5f2bec3b065e9a729e,0,0,2024-02-28T14:43:14.380Z,english_831.wav,0,pill,2827,46,5,5,français,f,10,1.0,64.59275416,0.45079877
5e29fd5f2bec3b065e9a729e,0,0,2024-02-28T14:43:14.380Z,english_831.wav,0,pill,2827,46,5,5,français,f,11,1.09391667,-21.96543836,1.2652147
5e29fd5f2bec3b065e9a729e,1,0,2024-02-28T14:43:14.380Z,english_774.wav,0,pill,1443,46,5,5,français,f,0,0.0,38.7876064,0.43642058
5e29fd5f2bec3b065e9a729e,1,0,2024-02-28T14:43:14.380Z,english_774.wav,0,pill,1443,46,5,5,français,f,1,0.1,-21.79427352,1.59194207
5e29fd5f2bec3b065e9a729e,1,0,2024-02-28T14:43:14.380Z,english_774.wav,0,pill,1443,46,5,5,français,f,2,0.2,-78.67296896,1.92489987
5e29fd5f2bec3b065e9a729e,1,0,2024-02-28T14:43:14.380Z,english_774.wav,0,pill,1443,46,5,5,français,f,3,0.3,-75.97471041,1.73224365
5e29fd5f2bec3b065e9a729e,1,0,2024-02-28T14:43:14.380Z,english_774.wav,0,pill,1443,46,5,5,français,f,4,0.4,-9.72862999,0.83130124
5e29fd5f2bec3b065e9a729e,1,0,2024-02-28T14:43:14.380Z,english_774.wav,0,pill,1443,46,5,5,français,f,5,0.5,-62.72542351,0.05776376
5e29fd5f2bec3b065e9a729e,1,0,2024-02-28T14:43:14.380Z,english_774.wav,0,pill,1443,46,5,5,français,f,6,0.6,-92.46329741,0.22257067
5e29fd5f2bec3b065e9a729e,1,0,2024-02-28T14:43:14.380Z,english_774.wav,0,pill,1443,46,5,5,français,f,7,0.7,9.68208163,0.82578939
5e29fd5f2bec3b065e9a729e,1,0,2024-02-28T14:43:14.380Z,english_774.wav,0,pill,1443,46,5,5,français,f,8,0.8,-31.34266524,1.91233014
5e29fd5f2bec3b065e9a729e,1,0,2024-02-28T14:43:14.380Z,english_774.wav,0,pill,1443,46,5,5,français,f,9,0.9,-62.50555476,1.41810173
5e29fd5f2bec3b065e9a729e,1,0,2024-02-28T14:43:14.380Z,english_774.wav,0,pill,1443,46,5,5,français,f,10,1.0,-53.48833614,1.61286395
5e29fd5f2bec3b065e9a729e,1,0,2024-02-28T14:43:14.380Z,english_774.wav,0,pill,1443,46,5,5,français,f,11,1.09391667,21.65178302,1.48005452
5e29fd5f2bec3b065e9a729e,2,0,2024-02-28T14:43:14.380Z,english_66.wav,0,pill,1834,46,5,5,français,f,0,0.0,73.54239792,1.39962355
5e29fd5f2bec3b065e9a729e,2,0,2024-02-28T14:43:14.380Z,english_66.wav,0,pill,1834,46,5,5,français,f,1,0.1,-24.02007983,0.40719393
5e29fd5f2bec3b065e9a729e,2,0,2024-02-28T14:43:14.380Z,english_66.wav,0,pill,1834,46,5,5,français,f,2,0.2,49.15082977,0.56009301
5e29fd5f2bec3b065e9a729e,2,0,2024-02-28T14:43:14.380Z,english_66.wav,0,pill,1834,46,5,5,français,f,3,0.3,59.25187184,0.88526938
5e29fd5f2bec3b065e9a729e,2,0,2024-02-28T14:43:14.380Z,english_66.wav,0,pill,1834,46,5,5,français,f,4,0.4,-38.45178026,0.20167751
5e29fd5f2bec3b065e9a729e,2,0,2024-02-28T14:43:14.380Z,english_66.wav,0,pill,1834,46,5,5,français,f,5,0.5,4.75457438,0.49978963
5e29fd5f2bec3b065e9a729e,2,0,2024-02-28T14:43:14.380Z,english_66.wav,0,pill,1834,46,5,5,français,f,6,0.6,46.25569394,1.58181975
5e29fd5f2bec3b065e9a729e,2,0,2024-02-28T14:43:14.380Z,english_66.wav,0,pill,1834,46,5,5,français,f,7,0.7,-60.4256139,0.73201225
5e29fd5f2bec3b065e9a729e,2,0,2024-02-28T14:43:14.380Z,english_66.wav,0,pill,1834,46,5,5,français,f,8,0.8,67.09047121,0.26938408
5e29fd5f2bec3b065e9a729e,2,0,2024-02-28T14:43:14.380Z,english_66.wav,0,pill,1834,46,5,5,français,f,9,0.9,88.85676661,1.15195977
5e29fd5f2bec3b065e9a729e,2,0,2024-02-28T14:43:14.380Z,english_66.wav,0,pill,1834,46,5,5,français,f,10,1.0,69.83029982,1.10937983
5e29fd5f2bec3b065e9a729e,2,0,2024-02-28T14:43:14.380Z,english_66.wav,0,pill,1834,46,5,5,français,f,11,1.09391667,35.36852194,1.70850229
5e29fd5f2bec3b065e9a729e,3,0,2024-02-28T14:43:14.380Z,english_443.wav,0,peel,1491,46,5,5,français,f,0,0.0,81.96165797,0.75557645
5e29fd5f2bec3b065e9a729e,3,0,2024-02-28T14:43:14.380Z,english_443.wav,0,peel,1491,46,5,5,français,f,1,0.1,-28.05483683,1.24238721
5e29fd5f2bec3b065e9a729e,3,0,2024-02-28T14:43:14.380Z,english_443.wav,0,peel,1491,46,5,5,français,f,2,0.2,-21.59346314,1.29479034
5e29fd5f2bec3b065e9a729e,3,0,2024-02-28T14:43:14.380Z,english_443.wav,0,peel,1491,46,5,5,français,f,3,0.3,1.08429848,1.78084003
5e29fd5f2bec3b065e9a729e,3,0,2024-02-28T14:43:14.380Z,english_443.wav,0,peel,1491,46,5,5,français,f,4,0.4,21.43423257,0.20990132
5e29fd5f2bec3b065e9a729e,3,0,2024-02-28T14:43:14.380Z,english_443.wav,0,peel,1491,46,5,5,français,f,5,0.5,75.67535371,0.69063729
5e29fd5f2bec3b065e9a729e,3,0,2024-02-28T14:43:14.380Z,english_443.wav,0,peel,1491,46,5,5,français,f,6,0.6,-12.42326874,1.52523801
5e29fd5f2bec3b065e9a729e,3,0,2024-02-28T14:43:14.380Z,english_443.wav,0,peel,1491,46,5,5,français,f,7,0.7,-43.03784954,1.69469222
5e29fd5f2bec3b065e9a729e,3,0,2024-02-28T14:43:14.380Z,english_443.wav,0,peel,1491,46,5,5,français,f,8,0.8,-95.88108409,1.5231422
5e29fd5f2bec3b065e9a729e,3,0,2024-02-28T14:43:14.380Z,english_443.wav,0,peel,1491,46,5,5,français,f,9,0.9,5.88501358,0.01978813
5e29fd5f2bec3b065e9a729e,3,0,2024-02-28T14:43:14.380Z,english_443.wav,0,peel,1491,46,5,5,français,f,10,1.0,-74.23415878,0.32318558
5e29fd5f2bec3b065e9a729e,3,0,2024-02-28T14:43:14.380Z,english_443.wav,0,peel,1491,46,5,5,français,f,11,1.09391667,-13.77398798,1.99092699
5e29fd5f2bec3b065e9a729e,4,0,2024-02-28T14:43:14.380Z,english_1.wav,0,peel,688,46,5,5,français,f,0,0.0,82.44203382,0.97617089
5e29fd5f2bec3b065e9a729e,4,0,2024-02-28T14:43:14.380Z,english_1.wav,0,peel,688,46,5,5,français,f,1,0.1,-30.17618245,0.62833649
5e29fd5f2bec3b065e9a729e,4,0,2024-02-28T14:43:14.380Z,english_1.wav,0,peel,688,46,5,5,français,f,2,0.2,29.86670871,1.71628267
5e29fd5f2bec3b065e9a729e,4,0,2024-02-28T14:43:14.380Z,english_1.wav,0,peel,688,46,5,5,français,f,3,0.3,-30.59558791,1.57876253
5e29fd5f2bec3b065e9a729e,4,0,2024-02-28T14:43:14.380Z,english_1.wav,0,peel,688,46,5,5,français,f,4,0.4,-47.57675763,0.47000387
5e29fd5f2bec3b065e9a729e,4,0,2024-02-28T14:43:14.380Z,english_1.wav,0,peel,688,46,5,5,français,f,5,0.5,-17.44773817,0.87334438
5e29fd5f2bec3b065e9a729e,4,0,2024-02-28T14:43:14.380Z,english_1.wav,0,peel,688,46,5,5,français,f,6,0.6,-73.86718122,0.40526307
5e29fd5f2bec3b065e9a729e,4,0,2024-02-28T14:43:14.380Z,english_1.wav,0,peel,688,46,5,5,français,f,7,0.7,70.17077277,1.31867186
5e29fd5f2bec3b065e9a729e,4,0,2024-02-28T14:43:14.380Z,english_1.wav,0,peel,688,46,5,5,français,f,8,0.8,-75.98538301,0.46239136
5e29fd5f2bec3b065e9a729e,4,0,2024-02-28T14:43:14.380Z,english_1.wav,0,peel,688,46,5,5,français,f,9,0.9,-57.43154571,0.66642176
5e29fd5f2bec3b065e9a729e,4,0,2024-02-28T14:43:14.380Z,english_1.wav,0,peel,688,46,5,5,français,f,10,1.0,93.54956166,0.4005644
5e29fd5f2bec3b065e9a729e,4,0,2024-02-28T14:43:14.380Z,english_1.wav,0,peel,688,46,5,5,français,f,11,1.09391667,-19.42635274,0.62556241
5e29fd5f2bec3b065e9a729e,5,0,2024-02-28T14:43:14.380Z,english_733.wav,0,peel,1833,46,5,5,français,f,0,0.0,60.12911829,1.17715688
5e29fd5f2bec3b065e9a729e,5,0,2024-02-28T14:43:14.380Z,english_733.wav,0,peel,1833,46,5,5,français,f,1,0.1,-6.07350544,0.73101999
5e29fd5f2bec3b065e9a729e,5,0,2024-02-28T14:43:14.380Z,english_733.wav,0,peel,1833,46,5,5,français,f,2,0.2,-97.34447637,0.23762906
5e29fd5f2bec3b065e9a729e,5,0,2024-02-28T14:43:14.380Z,english_733.wav,0,peel,1833,46,5,5,français,f,3,0.3,13.91289177,0.47801532
5e29fd5f2bec3b065e9a729e,5,0,2024-02-28T14:43:14.380Z,english_733.wav,0,peel,1833,46,5,5,français,f,4,0.4,24.58615212,1.00660929
5e29fd5f2bec3b065e9a729e,5,0,2024-02-28T14:43:14.380Z,english_733.wav,0,peel,1833,46,5,5,français,f,5,0.5,-0.46947401,0.69954151
5e29fd5f2bec3b065e9a729e,5,0,2024-02-28T14:43:14.380Z,english_733.wav,0,peel,1833,46,5,5,français,f,6,0.6,-95.42432467,0.66296436
5e29fd5f2bec3b065e9a729e,5,0,2024-02-28T14:43:14.380Z,english_733.wav,0,peel,1833,46,5,5,français,f,7,0.7,-12.42368325,0.8353001
5e29fd5f2bec3b065e9a729e,5,0,2024-02-28T14:43:14.380Z,english_733.wav,0,peel,1833,46,5,5,français,f,8,0.8,-68.21201108,0.93210743
5e29fd5f2bec3b065e9a729e,5,0,2024-02-28T14:43:14.380Z,english_733.wav,0,peel,1833,46,5,5,français,f,9,0.9,80.23434779,0.7426454
5e29fd5f2bec3b065e9a729e,5,0,2024-02-28T14:43:14.380Z,english_733.wav,0,peel,1833,46,5,5,français,f,10,1.0,37.72859174,1.31979312
5e29fd5f2bec3b065e9a729e,5,0,2024-02-28T14:43:14.380Z,english_733.wav,0,peel,1833,46,5,5,français,f,11,1.09391667,99.34819771,0.72211033
5e29fd5f2bec3b065e9a729e,6,0,2024-02-28T14:43:14.380Z,english_94.wav,0,pill,1451,46,5,5,français,f,0,0.0,-69.13613192,0.71683615
5e29fd5f2bec3b065e9a729e,6,0,2024-02-28T14:43:14.380Z,english_94.wav,0,pill,1451,46,5,5,français,f,1,0.1,-53.91573564,1.64130178
5e29fd5f2bec3b065e9a729e,6,0,2024-02-28T14:43:14.380Z,english_94.wav,0,pill,1451,46,5,5,français,f,2,0.2,88.54569891,1.41561382
5e29fd5f2bec3b065e9a729e,6,0,2024-02-28T14:43:14.380Z,english_94.wav,0,pill,1451,46,5,5,français,f,3,0.3,47.91558238,0.72478091
5e29fd5f2bec3b065e9a729e,6,0,2024-02-28T14:43:14.380Z,english_94.wav,0,pill,1451,46,5,5,français,f,4,0.4,46.13883045,1.21480875
5e29fd5f2bec3b065e9a729e,6,0,2024-02-28T14:43:14.380Z,english_94.wav,0,pill,1451,46,5,5,français,f,5,0.5,0.71209955,0.13058063
5e29fd5f2bec3b065e9a729e,6,0,2024-02-28T14:43:14.380Z,english_94.wav,0,pill,1451,46,5,5,français,f,6,0.6,53.89774049,1.07607775
5e29fd5f2bec3b065e9a729e,6,0,2024-02-28T14:43:14.380Z,english_94.wav,0,pill,1451,46,5,5,français,f,7,0.7,37.22112319,0.10112022
5e29fd5f2bec3b065e9a729e,6,0,2024-02-28T14:43:14.380Z,english_94.wav,0,pill,1451,46,5,5,français,f,8,0.8,8.13348347,0.91343474
5e29fd5f2bec3b065e9a729e,6,0,2024-02-28T14:43:14.380Z,english_94.wav,0,pill,1451,46,5,5,français,f,9,0.9,-10.35793642,0.77751528
5e29fd5f2bec3b065e9a729e,6,0,2024-02-28T14:43:14.380Z,english_94.wav,0,pill,1451,46,5,5,français,f,10,1.0,75.25647247,0.57088528
5e29fd5f2bec3b065e9a729e,6,0,2024-02-28T14:43:14.380Z,english_94.wav,0,pill,1451,46,5,5,français,f,11,1.09391667,-70.34686187,0.98841109
5e29fd5f2bec3b065e9a729e,7,0,2024-02-28T14:43:14.380Z,english_682.wav,0,pill,1297,46,5,5,français,f,0,0.0,-53.22260556,0.39279529
5e29fd5f2bec3b065e9a729e,7,0,2024-02-28T14:43:14.380Z,english_682.wav,0,pill,1297,46,5,5,français,f,1,0.1,86.77650228,0.89629602
5e29fd5f2bec3b065e9a729e,7,0,2024-02-28T14:43:14.380Z,english_682.wav,0,pill,1297,46,5,5,français,f,2,0.2,9.77253821,1.02748966
5e29fd5f2bec3b065e9a729e,7,0,2024-02-28T14:43:14.380Z,english_682.wav,0,pill,1297,46,5,5,français,f,3,0.3,11.03493207,0.21487606
5e29fd5f2bec3b065e9a729e,7,0,2024-02-28T14:43:14.380Z,english_682.wav,0,pill,1297,46,5,5,français,f,4,0.4,-49.40991028,0.85817313
5e29fd5f2bec3b065e9a729e,7,0,2024-02-28T14:43:14.380Z,english_682.wav,0,pill,1297,46,5,5,français,f,5,0.5,40.78961249,0.23854774
5e29fd5f2bec3b065e9a729e,7,0,2024-02-28T14:43:14.380Z,english_682.wav,0,pill,1297,46,5,5,français,f,6,0.6,0.17613347,1.76515504
5e29fd5f2bec3b065e9a729e,7,0,2024-02-28T14:43:14.380Z,english_682.wav,0,pill,1297,46,5,5,français,f,7,0.7,-59.60480948,0.66287763
5e29fd5f2bec3b065e9a729e,7,0,2024-02-28T14:43:14.380Z,english_682.wav,0,pill,1297,46,5,5,français,f,8,0.8,-70.7429322,0.73367901
5e29fd5f2bec3b065e9a729e,7,0,2024-02-28T14:43:14.380Z,english_682.wav,0,pill,1297,46,5,5,français,f,9,0.9,73.80660993,0.47936557
5e29fd5f2bec3b065e9a729e,7,0,2024-02-28T14:43:14.380Z,english_682.wav,0,pill,1297,46,5,5,français,f,10,1.0,20.51556505,1.06722754
5e29fd5f2bec3b065e9a729e,7,0,2024-02-28T14:43:14.380Z,english_682.wav,0,pill,1297,46,5,5,français,f,11,1.09391667,45.26798103,1.8777792
5e29fd5f2bec3b065e9a729e,8,0,2024-02-28T14:43:14.380Z,english_175.wav,0,pill,1119,46,5,5,français,f,0,0.0,38.44646754,1.34207659
5e29fd5f2bec3b065e9a729e,8,0,2024-02-28T14:43:14.380Z,english_175.wav,0,pill,1119,46,5,5,français,f,1,0.1,-23.00340035,1.41404042
5e29fd5f2bec3b065e9a729e,8,0,2024-02-28T14:43:14.380Z,english_175.wav,0,pill,1119,46,5,5,français,f,2,0.2,-30.61543139,1.49080674
5e29fd5f2bec3b065e9a729e,8,0,2024-02-28T14:43:14.380Z,english_175.wav,0,pill,1119,46,5,5,français,f,3,0.3,99.83965835,0.72740359
5e29fd5f2bec3b065e9a729e,8,0,2024-02-28T14:43:14.380Z,english_175.wav,0,pill,1119,46,5,5,français,f,4,0.4,-46.63956487,1.0197188
5e29fd5f2bec3b065e9a729e,8,0,2024-02-28T14:43:14.380Z,english_175.wav,0,pill,1119,46,5,5,français,f,5,0.5,-59.37007197,0.62236458
5e29fd5f2bec3b065e9a729e,8,0,2024-02-28T14:43:14.380Z,english_175.wav,0,pill,1119,46,5,5,français,f,6,0.6,82.40355982,1.36261766
5e29fd5f2bec3b065e9a729e,8,0,2024-02-28T14:43:14.380Z,english_175.wav,0,pill,1119,46,5,5,français,f,7,0.7,-46.17826166,0.8547614
5e29fd5f2bec3b065e9a729e,8,0,2024-02-28T14:43:14.380Z,english_175.wav,0,pill,1119,46,5,5,français,f,8,0.8,9.80730277,0.21399821
5e29fd5f2bec3b065e9a729e,8,0,2024-02-28T14:43:14.380Z,english_175.wav,0,pill,1119,46,5,5,français,f,9,0.9,74.64832737,1.05176786
5e29fd5f2bec3b065e9a729e,8,0,2024-02-28T14:43:14.380Z,english_175.wav,0,pill,1119,46,5,5,français,f,10,1.0,-39.17791416,0.6104539
5e29fd5f2bec3b065e9a729e,8,0,2024-02-28T14:43:14.380Z,english_175.wav,0,pill,1119,46,5,5,français,f,11,1.09391667,-90.85337976,1.60893412
5e29fd5f2bec3b065e9a729e,9,0,2024-02-28T14:43:14.380Z,english_964.wav,0,peel,1193,46,5,5,français,f,0,0.0,53.46570898,1.49731262
5e29fd5f2bec3b065e9a729e,9,0,2024-02-28T14:43:14.380Z,english_964.wav,0,peel,1193,46,5,5,français,f,1,0.1,-29.34116619,1.91326808
5e29fd5f2bec3b065e9a729e,9,0,2024-02-28T14:43:14.380Z,english_964.wav,0,peel,1193,46,5,5,français,f,2,0.2,54.99768825,0.76008105
5e29fd5f2bec3b065e9a729e,9,0,2024-02-28T14:43:14.380Z,english_964.wav,0,peel,1193,46,5,5,français,f,3,0.3,-81.76915679,1.84891579
5e29fd5f2bec3b065e9a729e,9,0,2024-02-28T14:43:14.380Z,english_964.wav,0,peel,1193,46,5,5,français,f,4,0.4,-62.14603757,0.58371441
5e29fd5f2bec3b065e9a729e,9,0,2024-02-28T14:43:14.380Z,english_964.wav,0,peel,1193,46,5,5,français,f,5,0.5,-51.83468115,0.22320605
5e29fd5f2bec3b065e9a729e,9,0,2024-02-28T14:43:14.380Z,english_964.wav,0,peel,1193,46,5,5,français,f,6,0.6,22.82176289,0.86228006
5e29fd5f2bec3b065e9a729e,9,0,2024-02-28T14:43:14.380Z,english_964.wav,0,peel,1193,46,5,5,français,f,7,0.7,43.03362668,1.2736027
5e29fd5f2bec3b065e9a729e,9,0,2024-02-28T14:43:14.380Z,english_964.wav,0,peel,1193,46,5,5,français,f,8,0.8,-91.1613604,0.96508229
5e29fd5f2bec3b065e9a729e,9,0,2024-02-28T14:43:14.380Z,english_964.wav,0,peel,1193,46,5,5,français,f,9,0.9,9.75788821,0.5978171
5e29fd5f2bec3b065e9a729e,9,0,2024-02-28T14:43:14.380Z,english_964.wav,0,peel,1193,46,5,5,français,f,10,1.0,-2.87390503,0.802961
5e29fd5f2bec3b065e9a729e,9,0,2024-02-28T14:43:14.380Z,english_964.wav,0,peel,1193,46,5,5,français,f,11,1.09391667,-53.09298444,0.69400331
5e29fd5f2bec3b065e9a729e,10,0,2024-02-28T14:43:14.380Z,english_534.wav,0,peel,1324,46,5,5,français,f,0,0.0,-15.08523103,1.2576493
5e29fd5f2bec3b065e9a729e,10,0,2024-02-28T14:43:14.380Z,english_534.wav,0,peel,1324,46,5,5,français,f,1,0.1,93.48585898,1.2446308
5e29fd5f2bec3b065e9a729e,10,0,2024-02-28T14:43:14.380Z,english_534.wav,0,peel,1324,46,5,5,français,f,2,0.2,55.87888333,0.65171732
5e29fd5f2bec3b065e9a729e,10,0,2024-02-28T14:43:14.380Z,english_534.wav,0,peel,1324,46,5,5,français,f,3,0.3,-36.19470402,0.89712992
5e29fd5f2bec3b065e9a729e,10,0,2024-02-28T14:43:14.380Z,english_534.wav,0,peel,1324,46,5,5,français,f,4,0.4,-10.66505227,0.55440887
5e29fd5f2bec3b065e9a729e,10,0,2024-02-28T14:43:14.380Z,english_534.wav,0,peel,1324,46,5,5,français,f,5,0.5,-17.59721476,1.08297088
5e29fd5f2bec3b065e9a729e,10,0,2024-02-28T14:43:14.380Z,english_534.wav,0,peel,1324,46,5,5,français,f,6,0.6,0.24135603,0.95799779
5e29fd5f2bec3b065e9a729e,10,0,2024-02-28T14:43:14.380Z,english_534.wav,0,peel,1324,46,5,5,français,f,7,0.7,10.84337222,1.14434093
5e29fd5f2bec3b065e9a729e,10,0,2024-02-28T14:43:14.380Z,english_534.wav,0,peel,1324,46,5,5,français,f,8,0.8,-58.25689659,1.1844466
5e29fd5f2bec3b065e9a729e,10,0,2024-02-28T14:43:14.380Z,english_534.wav,0,peel,1324,46,5,5,français,f,9,0.9,99.17008703,1.42626651
5e29fd5f2bec3b065e9a729e,10,0,2024-02-28T14:43:14.380Z,english_534.wav,0,peel,1324,46,5,5,français,f,10,1.0,-1.84311714,0.25468926
5e29fd5f2bec3b065e9a729e,10,0,2024-02-28T14:43:14.380Z,english_534.wav,0,peel,1324,46,5,5,français,f,11,1.09391667,-27.99556667,1.75255348
5e29fd5f2bec3b065e9a729e,11,0,2024-02-28T14:43:14.380Z,english_904.wav,0,peel,1125,46,5,5,français,f,0,0.0,-74.82582528,1.4013029
5e29fd5f2bec3b065e9a729e,11,0,2024-02-28T14:43:14.380Z,english_904.wav,0,peel,1125,46,5,5,français,f,1,0.1,-96.79575006,0.13633554
5e29fd5f2bec3b065e9a729e,11,0,2024-02-28T14:43:14.380Z,english_904.wav,0,peel,1125,46,5,5,français,f,2,0.2,95.14053513,0.85457449
5e29fd5f2bec3b065e9a729e,11,0,2024-02-28T14:43:14.380Z,english_904.wav,0,peel,1125,46,5,5,français,f,3,0.3,-60.85445871,0.52689268
5e29fd5f2bec3b065e9a729e,11,0,2024-02-28T14:43:14.380Z,english_904.wav,0,peel,1125,46,5,5,français,f,4,0.4,-53.61462939,1.15689505
5e29fd5f2bec3b065e9a729e,11,0,2024-02-28T14:43:14.380Z,english_904.wav,0,peel,1125,46,5,5,français,f,5,0.5,36.4108286,1.15306908
5e29fd5f2bec3b065e9a729e,11,0,2024-02-28T14:43:14.380Z,english_904.wav,0,peel,1125,46,5,5,français,f,6,0.6,-81.73904146,0.53780722
5e29fd5f2bec3b065e9a729e,11,0,2024-02-28T14:43:14.380Z,english_904.wav,0,peel,1125,46,5,5,français,f,7,0.7,67.08505199,1.6251065
5e29fd5f2bec3b065e9a729e,11,0,2024-02-28T14:43:14.380Z,english_904.wav,0,peel,1125,46,5,5,français,f,8,0.8,-51.49043615,0.93791245
5e29fd5f2bec3b065e9a729e,11,0,2024-02-28T14:43:14.380Z,english_904.wav,0,peel,1125,46,5,5,français,f,9,0.9,-56.43319174,0.6672811
5e29fd5f2bec3b065e9a729e,11,0,2024-02-28T14:43:14.380Z,english_904.wav,0,peel,1125,46,5,5,français,f,10,1.0,-26.03996305,0.48044762
5e29fd5f2bec3b065e9a729e,11,0,2024-02-28T14:43:14.380Z,english_904.wav,0,peel,1125,46,5,5,français,f,11,1.09391667,9.12764333,1.83086337
5e29fd5f2bec3b065e9a729e,12,0,2024-02-28T14:43:14.380Z,english_346.wav,0,peel,1567,46,5,5,français,f,0,0.0,24.07666509,0.66537663
5e29fd5f2bec3b065e9a729e,12,0,2024-02-28T14:43:14.380Z,english_346.wav,0,peel,1567,46,5,5,français,f,1,0.1,-87.64157913,1.54123619
5e29fd5f2bec3b065e9a729e,12,0,2024-02-28T14:43:14.380Z,english_346.wav,0,peel,1567,46,5,5,français,f,2,0.2,-51.3970499,0.92348631
5e29fd5f2bec3b065e9a729e,12,0,2024-02-28T14:43:14.380Z,english_346.wav,0,peel,1567,46,5,5,français,f,3,0.3,79.45874018,0.33920207
5e29fd5f2bec3b065e9a729e,12,0,2024-02-28T14:43:14.380Z,english_346.wav,0,peel,1567,46,5,5,français,f,4,0.4,-74.83031912,0.94433533
5e29fd5f2bec3b065e9a729e,12,0,2024-02-28T14:43:14.380Z,english_346.wav,0,peel,1567,46,5,5,français,f,5,0.5,-2.98294823,0.8352321
5e29fd5f2bec3b065e9a729e,12,0,2024-02-28T14:43:14.380Z,english_346.wav,0,peel,1567,46,5,5,français,f,6,0.6,-32.38946294,0.95810053
5e29fd5f2bec3b065e9a729e,12,0,2024-02-28T14:43:14.380Z,english_346.wav,0,peel,1567,46,5,5,français,f,7,0.7,-24.81590652,0.99822629
5e29fd5f2bec3b065e9a729e,12,0,2024-02-28T14:43:14.380Z,english_346.wav,0,peel,1567,46,5,5,français,f,8,0.8,-13.90891955,0.18782062
5e29fd5f2bec3b065e9a729e,12,0,2024-02-28T14:43:14.380Z,english_346.wav,0,peel,1567,46,5,5,français,f,9,0.9,-33.49626836,1.6271571
5e29fd5f2bec3b065e9a729e,12,0,2024-02-28T14:43:14.380Z,english_346.wav,0,peel,1567,46,5,5,français,f,10,1.0,-23.2144111,1.67158741
5e29fd5f2bec3b065e9a729e,12,0,2024-02-28T14:43:14.380Z,english_346.wav,0,peel,1567,46,5,5,français,f,11,1.09391667,-9.66358574,1.16169049
5e29fd5f2bec3b065e9a729e,13,0,2024-02-28T14:43:14.380Z,english_974.wav,0,pill,764,46,5,5,français,f,0,0.0,-93.03864928,0.43845399
5e29fd5f2bec3b065e9a729e,13,0,2024-02-28T14:43:14.380Z,english_974.wav,0,pill,764,46,5,5,français,f,1,0.1,-77.75716604,1.6903579
5e29fd5f2bec3b065e9a729e,13,0,2024-02-28T14:43:14.380Z,english_974.wav,0,pill,764,46,5,5,français,f,2,0.2,0.69139929,1.16063432
5e29fd5f2bec3b065e9a729e,13,0,2024-02-28T14:43:14.380Z,english_974.wav,0,pill,764,46,5,5,français,f,3,0.3,26.0953238,1.86115796
5e29fd5f2bec3b065e9a729e,13,0,2024-02-28T14:43:14.380Z,english_974.wav,0,pill,764,46,5,5,français,f,4,0.4,98.53440651,1.84489406
5e29fd5f2bec3b065e9a729e,13,0,2024-02-28T14:43:14.380Z,english_974.wav,0,pill,764,46,5,5,français,f,5,0.5,92.94553081,1.48551441
5e29fd5f2bec3b065e9a729e,13,0,2024-02-28T14:43:14.380Z,english_974.wav,0,pill,764,46,5,5,français,f,6,0.6,-7.63804917,0.45444214
5e29fd5f2bec3b065e9a729e,13,0,2024-02-28T14:43:14.380Z,english_974.wav,0,pill,764,46,5,5,français,f,7,0.7,9.10874073,0.66005011
5e29fd5f2bec3b065e9a729e,13,0,2024-02-28T14:43:14.380Z,english_974.wav,0,pill,764,46,5,5,français,f,8,0.8,-89.79433239,1.73425962
5e29fd5f2bec3b065e9a729e,13,0,2024-02-28T14:43:14.380Z,english_974.wav,0,pill,764,46,5,5,français,f,9,0.9,-25.22506103,0.5346903
5e29fd5f2bec3b065e9a729e,13,0,2024-02-28T14:43:14.380Z,english_974.wav,0,pill,764,46,5,5,français,f,10,1.0,90.91634132,1.12098349
5e29fd5f2bec3b065e9a729e,13,0,2024-02-28T14:43:14.380Z,english_974.wav,0,pill,764,46,5,5,français,f,11,1.09391667,96.1258414,0.52486182
5e29fd5f2bec3b065e9a729e,14,0,2024-02-28T14:43:14.380Z,english_535.wav,0,pill,1108,46,5,5,français,f,0,0.0,-4.00375318,0.74823916
5e29fd5f2bec3b065e9a729e,14,0,2024-02-28T14:43:14.380Z,english_535.wav,0,pill,1108,46,5,5,français,f,1,0.1,-37.57387138,0.9109632
5e29fd5f2bec3b065e9a729e,14,0,2024-02-28T14:43:14.380Z,english_535.wav,0,pill,1108,46,5,5,français,f,2,0.2,-31.12595353,0.84755902
5e29fd5f2bec3b065e9a729e,14,0,2024-02-28T14:43:14.380Z,english_535.wav,0,pill,1108,46,5,5,français,f,3,0.3,2.06341331,1.09662022
5e29fd5f2bec3b065e9a729e,14,0,2024-02-28T14:43:14.380Z,english_535.wav,0,pill,1108,46,5,5,français,f,4,0.4,56.11576492,0.26254995
5e29fd5f2bec3b065e9a729e,14,0,2024-02-28T14:43:14.380Z,english_535.wav,0,pill,1108,46,5,5,français,f,5,0.5,30.13214978,1.29967994
5e29fd5f2bec3b065e9a729e,14,0,2024-02-28T14:43:14.380Z,english_535.wav,0,pill,1108,46,5,5,français,f,6,0.6,14.78197265,1.50452532
5e29fd5f2bec3b065e9a729e,14,0,2024-02-28T14:43:14.380Z,english_535.wav,0,pill,1108,46,5,5,français,f,7,0.7,-18.38930177,1.51808924
5e29fd5f2bec3b065e9a729e,14,0,2024-02-28T14:43:14.380Z,english_535.wav,0,pill,1108,46,5,5,français,f,8,0.8,-10.54396075,0.34439234
5e29fd5f2bec3b065e9a729e,14,0,2024-02-28T14:43:14.380Z,english_535.wav,0,pill,1108,46,5,5,français,f,9,0.9,39.09773013,0.86790386
5e29fd5f2bec3b065e9a729e,14,0,2024-02-28T14:43:14.380Z,english_535.wav,0,pill,1108,46,5,5,français,f,10,1.0,46.13111143,0.86784134
5e29fd5f2bec3b065e9a729e,14,0,2024-02-28T14:43:14.380Z,english_535.wav,0,pill,1108,46,5,5,français,f,11,1.09391667,-64.44597459,0.57511998
5e29fd5f2bec3b065e9a729e,15,0,2024-02-28T14:43:14.380Z,english_794.wav,0,pill,676,46,5,5,français,f,0,0.0,-94.32956865,0.17232345
5e29fd5f2bec3b065e9a729e,15,0,2024-02-28T14:43:14.380Z,english_794.wav,0,pill,676,46,5,5,français,f,1,0.1,-54.44529308,0.63768668
5e29fd5f2bec3b065e9a729e,15,0,2024-02-28T14:43:14.380Z,english_794.wav,0,pill,676,46,5,5,français,f,2,0.2,41.27752313,0.54334699
5e29fd5f2bec3b065e9a729e,15,0,2024-02-28T14:43:14.380Z,english_794.wav,0,pill,676,46,5,5,français,f,3,0.3,-24.41011935,0.41814183
5e29fd5f2bec3b065e9a729e,15,0,2024-02-28T14:43:14.380Z,english_794.wav,0,pill,676,46,5,5,français,f,4,0.4,-17.86009113,0.83205575
5e29fd5f2bec3b065e9a729e,15,0,2024-02-28T14:43:14.380Z,english_794.wav,0,pill,676,46,5,5,français,f,5,0.5,70.96620098,1.38587001
5e29fd5f2bec3b065e9a729e,15,0,2024-02-28T14:43:14.380Z,english_794.wav,0,pill,676,46,5,5,français,f,6,0.6,-6.92588192,0.50257762
5e29fd5f2bec3b065e9a729e,15,0,2024-02-28T14:43:14.380Z,english_794.wav,0,pill,676,46,5,5,français,f,7,0.7,1.86567935,1.6396819
5e29fd5f2bec3b065e9a729e,15,0,2024-02-28T14:43:14.380Z,english_794.wav,0,pill,676,46,5,5,français,f,8,0.8,85.29780195,1.19491374
5e29fd5f2bec3b065e9a729e,15,0,2024-02-28T14:43:14.380Z,english_794.wav,0,pill,676,46,5,5,français,f,9,0.9,66.99714839,0.22376499
5e29fd5f2bec3b065e9a729e,15,0,2024-02-28T14:43:14.380Z,english_794.wav,0,pill,676,46,5,5,français,f,10,1.0,34.72052642,0.81945326
5e29fd5f2bec3b065e9a729e,15,0,2024-02-28T14:43:14.380Z,english_794.wav,0,pill,676,46,5,5,français,f,11,1.09391667,18.1862992,1.51337696
5e29fd5f2bec3b065e9a729e,16,0,2024-02-28T14:43:14.380Z,english_552.wav,0,peel,858,46,5,5,français,f,0,0.0,24.23901763,1.612105
5e29fd5f2bec3b065e9a729e,16,0,2024-02-28T14:43:14.380Z,english_552.wav,0,peel,858,46,5,5,français,f,1,0.1,-68.29569332,0.23755281
5e29fd5f2bec3b065e9a729e,16,0,2024-02-28T14:43:14.380Z,english_552.wav,0,peel,858,46,5,5,français,f,2,0.2,-76.60440788,1.12644766
5e29fd5f2bec3b065e9a729e,16,0,2024-02-28T14:43:14.380Z,english_552.wav,0,peel,858,46,5,5,français,f,3,0.3,-14.28309722,1.6498911
5e29fd5f2bec3b065e9a729e,16,0,2024-02-28T14:43:14.380Z,english_552.wav,0,peel,858,46,5,5,français,f,4,0.4,7.45259631,1.62705162
5e29fd5f2bec3b065e9a729e,16,0,2024-02-28T14:43:14.380Z,english_552.wav,0,peel,858,46,5,5,français,f,5,0.5,-96.79412631,0.02108582
5e29fd5f2bec3b065e9a729e,16,0,2024-02-28T14:43:14.380Z,english_552.wav,0,peel,858,46,5,5,français,f,6,0.6,19.00121721,0.46250888
5e29fd5f2bec3b065e9a729e,16,0,2024-02-28T14:43:14.380Z,english_552.wav,0,peel,858,46,5,5,français,f,7,0.7,28.47093687,0.61388361
5e29fd5f2bec3b065e9a729e,16,0,2024-02-28T14:43:14.380Z,english_552.wav,0,peel,858,46,5,5,français,f,8,0.8,-28.36467118,1.42538322
5e29fd5f2bec3b065e9a729e,16,0,2024-02-28T14:43:14.380Z,english_552.wav,0,peel,858,46,5,5,français,f,9,0.9,27.37810517,1.50029895
5e29fd5f2bec3b065e9a729e,16,0,2024-02-28T14:43:14.380Z,english_552.wav,0,peel,858,46,5,5,français,f,10,1.0,-1.36668835,0.7956711
5e29fd5f2bec3b065e9a729e,16,0,2024-02-28T14:43:14.380Z,english_552.wav,0,peel,858,46,5,5,français,f,11,1.09391667,-10.50305513,0.62245048
5e29fd5f2bec3b065e9a729e,17,0,2024-02-28T14:43:14.380Z,english_376.wav,0,pill,1266,46,5,5,français,f,0,0.0,-22.52600132,1.13600224
5e29fd5f2bec3b065e9a729e,17,0,2024-02-28T14:43:14.380Z,english_376.wav,0,pill,1266,46,5,5,français,f,1,0.1,29.36992487,0.82385101
5e29fd5f2bec3b065e9a729e,17,0,2024-02-28T14:43:14.380Z,english_376.wav,0,pill,1266,46,5,5,français,f,2,0.2,26.35975313,0.21812262
5e29fd5f2bec3b065e9a729e,17,0,2024-02-28T14:43:14.380Z,english_376.wav,0,pill,1266,46,5,5,français,f,3,0.3,22.46882007,1.22545345
5e29fd5f2bec3b065e9a729e,17,0,2024-02-28T14:43:14.380Z,english_376.wav,0,pill,1266,46,5,5,français,f,4,0.4,-26.33536786,0.68217052
5e29fd5f2bec3b065e9a729e,17,0,2024-02-28T14:43:14.380Z,english_376.wav,0,pill,1266,46,5,5,français,f,5,0.5,-27.32741376,1.80813558
5e29fd5f2bec3b065e9a729e,17,0,2024-02-28T14:43:14.380Z,english_376.wav,0,pill,1266,46,5,5,français,f,6,0.6,4.49813396,0.4048305
5e29fd5f2bec3b065e9a729e,17,0,2024-02-28T14:43:14.380Z,english_376.wav,0,pill,1266,46,5,5,français,f,7,0.7,-47.02321994,1.72982043
5e29fd5f2bec3b065e9a729e,17,0,2024-02-28T14:43:14.380Z,english_376.wav,0,pill,1266,46,5,5,français,f,8,0.8,-61.17584125,0.03977306
5e29fd5f2bec3b065e9a729e,17,0,2024-02-28T14:43:14.380Z,english_376.wav,0,pill,1266,46,5,5,français,f,9,0.9,-52.37587082,0.16832119
5e29fd5f2bec3b065e9a729e,17,0,2024-02-28T14:43:14.380Z,english_376.wav,0,pill,1266,46,5,5,français,f,10,1.0,53.16500273,1.81503166
5e29fd5f2bec3b065e9a729e,17,0,2024-02-28T14:43:14.380Z,english_376.wav,0,pill,1266,46,5,5,français,f,11,1.09391667,31.59148057,0.61812074
5e29fd5f2bec3b065e9a729e,18,0,2024-02-28T14:43:14.380Z,english_88.wav,0,peel,1280,46,5,5,français,f,0,0.0,-71.9844785,0.53660294
5e29fd5f2bec3b065e9a729e,18,0,2024-02-28T14:43:14.380Z,english_88.wav,0,peel,1280,46,5,5,français,f,1,0.1,-49.01939905,1.47642874
5e29fd5f2bec3b065e9a729e,18,0,2024-02-28T14:43:14.380Z,english_88.wav,0,peel,1280,46,5,5,français,f,2,0.2,50.12381506,0.52511459
5e29fd5f2bec3b065e9a729e,18,0,2024-02-28T14:43:14.380Z,english_88.wav,0,peel,1280,46,5,5,français,f,3,0.3,-84.58055822,1.50109779
5e29fd5f2bec3b065e9a729e,18,0,2024-02-28T14:43:14.380Z,english_88.wav,0,peel,1280,46,5,5,français,f,4,0.4,-75.77840035,0.97976024
5e29fd5f2bec3b065e9a729e,18,0,2024-02-28T14:43:14.380Z,english_88.wav,0,peel,1280,46,5,5,français,f,5,0.5,-24.7911267,0.85239994
5e29fd5f2bec3b065e9a729e,18,0,2024-02-28T14:43:14.380Z,english_88.wav,0,peel,1280,46,5,5,français,f,6,0.6,-23.67428976,1.05191942
5e29fd5f2bec3b065e9a729e,18,0,2024-02-28T14:43:14.380Z,english_88.wav,0,peel,1280,46,5,5,français,f,7,0.7,-54.46174988,0.4066024
5e29fd5f2bec3b065e9a729e,18,0,2024-02-28T14:43:14.380Z,english_88.wav,0,peel,1280,46,5,5,français,f,8,0.8,17.41292988,0.004424
5e29fd5f2bec3b065e9a729e,18,0,2024-02-28T14:43:14.380Z,english_88.wav,0,peel,1280,46,5,5,français,f,9,0.9,-76.44908604,1.90836134
5e29fd5f2bec3b065e9a729e,18,0,2024-02-28T14:43:14.380Z,english_88.wav,0,peel,1280,46,5,5,français,f,10,1.0,-2.36913576,1.74184755
5e29fd5f2bec3b065e9a729e,18,0,2024-02-28T14:43:14.380Z,english_88.wav,0,peel,1280,46,5,5,français,f,11,1.09391667,-39.62259758,0.66301055
5e29fd5f2bec3b065e9a729e,19,0,2024-02-28T14:43:14.380Z,english_497.wav,0,peel,621,46,5,5,français,f,0,0.0,80.19747469,0.03666691
5e29fd5f2bec3b065e9a729e,19,0,2024-02-28T14:43:14.380Z,english_497.wav,0,peel,621,46,5,5,français,f,1,0.1,-96.43069026,0.31407974
5e29fd5f2bec3b065e9a729e,19,0,2024-02-28T14:43:14.380Z,english_497.wav,0,peel,621,46,5,5,français,f,2,0.2,6.71798647,0.70160097
5e29fd5f2bec3b065e9a729e,19,0,2024-02-28T14:43:14.380Z,english_497.wav,0,peel,621,46,5,5,français,f,3,0.3,19.69444111,1.30733275
5e29fd5f2bec3b065e9a729e,19,0,2024-02-28T14:43:14.380Z,english_497.wav,0,peel,621,46,5,5,français,f,4,0.4,-18.5018769,1.0770642
5e29fd5f2bec3b065e9a729e,19,0,2024-02-28T14:43:14.380Z,english_497.wav,0,peel,621,46,5,5,français,f,5,0.5,-89.69065854,1.1030143
5e29fd5f2bec3b065e9a729e,19,0,2024-02-28T14:43:14.380Z,english_497.wav,0,peel,621,46,5,5,français,f,6,0.6,18.45091423,0.72184595
5e29fd5f2bec3b065e9a729e,19,0,2024-02-28T14:43:14.380Z,english_497.wav,0,peel,621,46,5,5,français,f,7,0.7,58.14918595,0.59634745
5e29fd5f2bec3b065e9a729e,19,0,2024-02-28T14:43:14.380Z,english_497.wav,0,peel,621,46,5,5,français,f,8,0.8,-12.73126571,0.95783225
5e29fd5f2bec3b065e9a729e,19,0,2024-02-28T14:43:14.380Z,english_497.wav,0,peel,621,46,5,5,français,f,9,0.9,-37.82928272,0.84592096
5e29fd5f2bec3b065e9a729e,19,0,2024-02-28T14:43:14.380Z,english_497.wav,0,peel,621,46,5,5,français,f,10,1.0,-47.82962272,1.86600497
5e29fd5f2bec3b065e9a729e,19,0,2024-02-28T14:43:14.380Z,english_497.wav,0,peel,621,46,5,5,français,f,11,1.09391667,-71.69807159,0.50915901
5e29fd5f2bec3b065e9a729e,20,0,2024-02-28T14:43:14.380Z,english_691.wav,0,pill,668,46,5,5,français,f,0,0.0,53.99142335,1.37901611
5e29fd5f2bec3b065e9a729e,20,0,2024-02-28T14:43:14.380Z,english_691.wav,0,pill,668,46,5,5,français,f,1,0.1,59.99308562,0.48516991
5e29fd5f2bec3b065e9a729e,20,0,2024-02-28T14:43:14.380Z,english_691.wav,0,pill,668,46,5,5,français,f,2,0.2,-83.77980644,1.93939228
5e29fd5f2bec3b065e9a729e,20,0,2024-02-28T14:43:14.380Z,english_691.wav,0,pill,668,46,5,5,français,f,3,0.3,5.55909075,1.80900702
5e29fd5f2bec3b065e9a729e,20,0,2024-02-28T14:43:14.380Z,english_691.wav,0,pill,668,46,5,5,français,f,4,0.4,23.79459539,0.81475575
5e29fd5f2bec3b065e9a729e,20,0,2024-02-28T14:43:14.380Z,english_691.wav,0,pill,668,46,5,5,français,f,5,0.5,-52.64546011,0.95195088
5e29fd5f2bec3b065e9a729e,20,0,2024-02-28T14:43:14.380Z,english_691.wav,0,pill,668,46,5,5,français,f,6,0.6,2.68270455,1.3919478
5e29fd5f2bec3b065e9a729e,20,0,2024-02-28T14:43:14.380Z,english_691.wav,0,pill,668,46,5,5,français,f,7,0.7,-52.61692888,0.70729183
5e29fd5f2bec3b065e9a729e,20,0,2024-02-28T14:43:14.380Z,english_691.wav,0,pill,668,46,5,5,français,f,8,0.8,-36.65533837,1.61794077
5e29fd5f2bec3b065e9a729e,20,0,2024-02-28T14:43:14.380Z,english_691.wav,0,pill,668,46,5,5,français,f,9,0.9,-75.69832194,0.1770134
5e29fd5f2bec3b065e9a729e,20,0,2024-02-28T14:43:14.380Z,english_691.wav,0,pill,668,46,5,5,français,f,10,1.0,1.92131533,0.51863844
5e29fd5f2bec3b065e9a729e,20,0,2024-02-28T14:43:14.380Z,english_691.wav,0,pill,668,46,5,5,français,f,11,1.09391667,-54.35087966,0.34478655
5e29fd5f2bec3b065e9a729e,21,0,2024-02-28T14:43:14.380Z,english_549.wav,0,peel,898,46,5,5,français,f,0,0.0,-35.97957433,1.40923676
5e29fd5f2bec3b065e9a729e,21,0,2024-02-28T14:43:14.380Z,english_549.wav,0,peel,898,46,5,5,français,f,1,0.1,-96.77259812,1.19920438
5e29fd5f2bec3b065e9a729e,21,0,2024-02-28T14:43:14.380Z,english_549.wav,0,peel,898,46,5,5,français,f,2,0.2,-92.07264472,1.05241403
5e29fd5f2bec3b065e9a729e,21,0,2024-02-28T14:43:14.380Z,english_549.wav,0,peel,898,46,5,5,français,f,3,0.3,-16.49421881,0.71571216
5e29fd5f2bec3b065e9a729e,21,0,2024-02-28T14:43:14.380Z,english_549.wav,0,peel,898,46,5,5,français,f,4,0.4,-35.51287809,1.54934791
5e29fd5f2bec3b065e9a729e,21,0,2024-02-28T14:43:14.380Z,english_549.wav,0,peel,898,46,5,5,français,f,5,0.5,40.31804664,1.46509975
5e29fd5f2bec3b065e9a729e,21,0,2024-02-28T14:43:14.380Z,english_549.wav,0,peel,898,46,5,5,français,f,6,0.6,-0.60755502,0.37894541
5e29fd5f2bec3b065e9a729e,21,0,2024-02-28T14:43:14.380Z,english_549.wav,0,peel,898,46,5,5,français,f,7,0.7,-79.63380358,1.07940095
5e29fd5f2bec3b065e9a729e,21,0,2024-02-28T14:43:14.380Z,english_549.wav,0,peel,898,46,5,5,français,f,8,0.8,41.85833645,1.81599169
5e29fd5f2bec3b065e9a729e,21,0,2024-02-28T14:43:14.380Z,english_549.wav,0,peel,898,46,5,5,français,f,9,0.9,47.12305504,1.82911987
5e29fd5f2bec3b065e9a729e,21,0,2024-02-28T14:43:14.380Z,english_549.wav,0,peel,898,46,5,5,français,f,10,1.0,28.29283857,1.58342339
5e29fd5f2bec3b065e9a729e,21,0,2024-02-28T14:43:14.380Z,english_549.wav,0,peel,898,46,5,5,français,f,11,1.09391667,39.2346499,1.63101791
5e29fd5f2bec3b065e9a729e,22,0,2024-02-28T14:43:14.380Z,english_105.wav,0,peel,1538,46,5,5,français,f,0,0.0,-2.78582129,1.58600254
5e29fd5f2bec3b065e9a729e,22,0,2024-02-28T14:43:14.380Z,english_105.wav,0,peel,1538,46,5,5,français,f,1,0.1,-47.38376557,1.11025346
5e29fd5f2bec3b065e9a729e,22,0,2024-02-28T14:43:14.380Z,english_105.wav,0,peel,1538,46,5,5,français,f,2,0.2,-34.39843647,0.10251387
5e29fd5f2bec3b065e9a729e,22,0,2024-02-28T14:43:14.380Z,english_105.wav,0,peel,1538,46,5,5,français,f,3,0.3,46.98736853,1.2200198
5e29fd5f2bec3b065e9a729e,22,0,2024-02-28T14:43:14.380Z,english_105.wav,0,peel,1538,46,5,5,français,f,4,0.4,-49.43003963,1.30093265
5e29fd5f2bec3b065e9a729e,22,0,2024-02-28T14:43:14.380Z,english_105.wav,0,peel,1538,46,5,5,français,f,5,0.5,38.45298993,0.48849845
5e29fd5f2bec3b065e9a729e,22,0,2024-02-28T14:43:14.380Z,english_105.wav,0,peel,1538,46,5,5,français,f,6,0.6,-40.48082685,0.43711301
5e29fd5f2bec3b065e9a729e,22,0,2024-02-28T14:43:14.380Z,english_105.wav,0,peel,1538,46,5,5,français,f,7,0.7,-51.12213105,1.15590429
5e29fd5f2bec3b065e9a729e,22,0,2024-02-28T14:43:14.380Z,english_105.wav,0,peel,1538,46,5,5,français,f,8,0.8,21.68306499,1.91934773
5e29fd5f2bec3b065e9a729e,22,0,2024-02-28T14:43:14.380Z,english_105.wav,0,peel,1538,46,5,5,français,f,9,0.9,47.55235399,0.93806277
5e29fd5f2bec3b065e9a729e,22,0,2024-02-28T14:43:14.380Z,english_105.wav,0,peel,1538,46,5,5,français,f,10,1.0,34.72628387,0.69549788
5e29fd5f2bec3b065e9a729e,22,0,2024-02-28T14:43:14.380Z,english_105.wav,0,peel,1538,46,5,5,français,f,11,1.09391667,-48.05463592,1.35655827
5e29fd5f2bec3b065e9a729e,23,0,2024-02-28T14:43:14.380Z,english_956.wav,0,peel,1203,46,5,5,français,f,0,0.0,-69.56603744,1.25885793
5e29fd5f2bec3b065e9a729e,23,0,2024-02-28T14:43:14.380Z,english_956.wav,0,peel,1203,46,5,5,français,f,1,0.1,-25.37186141,1.06466306
5e29fd5f2bec3b065e9a729e,23,0,2024-02-28T14:43:14.380Z,english_956.wav,0,peel,1203,46,5,5,français,f,2,0.2,27.97650052,0.94194041
5e29fd5f2bec3b065e9a729e,23,0,2024-02-28T14:43:14.380Z,english_956.wav,0,peel,1203,46,5,5,français,f,3,0.3,-27.59550019,1.53569938
5e29fd5f2bec3b065e9a729e,23,0,2024-02-28T14:43:14.380Z,english_956.wav,0,peel,1203,46,5,5,français,f,4,0.4,-92.97950526,1.85243798
5e29fd5f2bec3b065e9a729e,23,0,2024-02-28T14:43:14.380Z,english_956.wav,0,peel,1203,46,5,5,français,f,5,0.5,38.52785923,1.85210152
5e29fd5f2bec3b065e9a729e,23,0,2024-02-28T14:43:14.380Z,english_956.wav,0,peel,1203,46,5,5,français,f,6,0.6,10.83790673,0.63562422
5e29fd5f2bec3b065e9a729e,23,0,2024-02-28T14:43:14.380Z,english_956.wav,0,peel,1203,46,5,5,français,f,7,0.7,-7.44647917,1.69096149
5e29fd5f2bec3b065e9a729e,23,0,2024-02-28T14:43:14.380Z,english_956.wav,0,peel,1203,46,5,5,français,f,8,0.8,21.12716208,0.44450575
5e29fd5f2bec3b065e9a729e,23,0,2024-02-28T14:43:14.380Z,english_956.wav,0,peel,1203,46,5,5,français,f,9,0.9,68.89451613,0.92187191
5e29fd5f2bec3b065e9a729e,23,0,2024-02-28T14:43:14.380Z,english_956.wav,0,peel,1203,46,5,5,français,f,10,1.0,40.53084536,1.63644611
5e29fd5f2bec3b065e9a729e,23,0,2024-02-28T14:43:14.380Z,english_956.wav,0,peel,1203,46,5,5,français,f,11,1.09391667,63.98453991,0.57157091
5e29fd5f2bec3b065e9a729e,24,0,2024-02-28T14:43:14.380Z,english_919.wav,0,pill,565,46,5,5,français,f,0,0.0,-38.5670272,0.46903116
5e29fd5f2bec3b065e9a729e,24,0,2024-02-28T14:43:14.380Z,english_919.wav,0,pill,565,46,5,5,français,f,1,0.1,2.77922896,1.08350321
5e29fd5f2bec3b065e9a729e,24,0,2024-02-28T14:43:14.380Z,english_919.wav,0,pill,565,46,5,5,français,f,2,0.2,49.85197562,1.32793945
5e29fd5f2bec3b065e9a729e,24,0,2024-02-28T14:43:14.380Z,english_919.wav,0,pill,565,46,5,5,français,f,3,0.3,77.76044208,0.31154992
5e29fd5f2bec3b065e9a729e,24,0,2024-02-28T14:43:14.380Z,english_919.wav,0,pill,565,46,5,5,français,f,4,0.4,-29.8394914,0.67118234
5e29fd5f2bec3b065e9a729e,24,0,2024-02-28T14:43:14.380Z,english_919.wav,0,pill,565,46,5,5,français,f,5,0.5,-0.49098681,0.74590894
5e29fd5f2bec3b065e9a729e,24,0,2024-02-28T14:43:14.380Z,english_919.wav,0,pill,565,46,5,5,français,f,6,0.6,-75.25398624,1.99224787
5e29fd5f2bec3b065e9a729e,24,0,2024-02-28T14:43:14.380Z,english_919.wav,0,pill,565,46,5,5,français,f,7,0.7,-69.6637691,0.78909547
5e29fd5f2bec3b065e9a729e,24,0,2024-02-28T14:43:14.380Z,english_919.wav,0,pill,565,46,5,5,français,f,8,0.8,72.91981936,0.46679106
5e29fd5f2bec3b065e9a729e,24,0,2024-02-28T14:43:14.380Z,english_919.wav,0,pill,565,46,5,5,français,f,9,0.9,-53.88815215,0.60556238
5e29fd5f2bec3b065e9a729e,24,0,2024-02-28T14:43:14.380Z,english_919.wav,0,pill,565,46,5,5,français,f,10,1.0,0.89047902,0.47961855
5e29fd5f2bec3b065e9a729e,24,0,2024-02-28T14:43:14.380Z,english_919.wav,0,pill,565,46,5,5,français,f,11,1.09391667,-50.064946,1.09390391
5e29fd5f2bec3b065e9a729e,25,0,2024-02-28T14:43:14.380Z,english_914.wav,0,peel,1313,46,5,5,français,f,0,0.0,38.978205,0.35912604
5e29fd5f2bec3b065e9a729e,25,0,2024-02-28T14:43:14.380Z,english_914.wav,0,peel,1313,46,5,5,français,f,1,0.1,87.18341185,1.3669236
5e29fd5f2bec3b065e9a729e,25,0,2024-02-28T14:43:14.380Z,english_914.wav,0,peel,1313,46,5,5,français,f,2,0.2,15.47005822,0.84210071
5e29fd5f2bec3b065e9a729e,25,0,2024-02-28T14:43:14.380Z,english_914.wav,0,peel,1313,46,5,5,français,f,3,0.3,29.25641776,0.05134094
5e29fd5f2bec3b065e9a729e,25,0,2024-02-28T14:43:14.380Z,english_914.wav,0,peel,1313,46,5,5,français,f,4,0.4,-96.55134364,1.13395744
5e29fd5f2bec3b065e9a729e,25,0,2024-02-28T14:43:14.380Z,english_914.wav,0,peel,1313,46,5,5,français,f,5,0.5,-89.29155074,0.79197201
5e29fd5f2bec3b065e9a729e,25,0,2024-02-28T14:43:14.380Z,english_914.wav,0,peel,1313,46,5,5,français,f,6,0.6,-61.94858481,0.91379793
5e29fd5f2bec3b065e9a729e,25,0,2024-02-28T14:43:14.380Z,english_914.wav,0,peel,1313,46,5,5,français,f,7,0.7,-73.41037345,1.19795288
5e29fd5f2bec3b065e9a729e,25,0,2024-02-28T14:43:14.380Z,english_914.wav,0,peel,1313,46,5,5,français,f,8,0.8,-99.30720203,1.39899474
5e29fd5f2bec3b065e9a729e,25,0,2024-02-28T14:43:14.380Z,english_914.wav,0,peel,1313,46,5,5,français,f,9,0.9,81.02685233,0.56128817
5e29fd5f2bec3b065e9a729e,25,0,2024-02-28T14:43:14.380Z,english_914.wav,0,peel,1313,46,5,5,français,f,10,1.0,-61.71265148,1.38071697
5e29fd5f2bec3b065e9a729e,25,0,2024-02-28T14:43:14.380Z,english_914.wav,0,peel,1313,46,5,5,français,f,11,1.09391667,-35.17076378,1.53641314
5e29fd5f2bec3b065e9a729e,26,0,2024-02-28T14:43:14.380Z,english_431.wav,0,peel,458,46,5,5,français,f,0,0.0,80.69254561,1.28844059
5e29fd5f2bec3b065e9a729e,26,0,2024-02-28T14:43:14.380Z,english_431.wav,0,peel,458,46,5,5,français,f,1,0.1,-59.39729579,0.02904499
5e29fd5f2bec3b065e9a729e,26,0,2024-02-28T14:43:14.380Z,english_431.wav,0,peel,458,46,5,5,français,f,2,0.2,32.8562558,0.95132877
5e29fd5f2bec3b065e9a729e,26,0,2024-02-28T14:43:14.380Z,english_431.wav,0,peel,458,46,5,5,français,f,3,0.3,-22.29744676,1.51616745
5e29fd5f2bec3b065e9a729e,26,0,2024-02-28T14:43:14.380Z,english_431.wav,0,peel,458,46,5,5,français,f,4,0.4,31.71546531,1.13295381
5e29fd5f2bec3b065e9a729e,26,0,2024-02-28T14:43:14.380Z,english_431.wav,0,peel,458,46,5,5,français,f,5,0.5,26.68689131,0.76516543
5e29fd5f2bec3b065e9a729e,26,0,2024-02-28T14:43:14.380Z,english_431.wav,0,peel,458,46,5,5,français,f,6,0.6,-67.6485219,0.83201004
5e29fd5f2bec3b065e9a729e,26,0,2024-02-28T14:43:14.380Z,english_431.wav,0,peel,458,46,5,5,français,f,7,0.7,27.20384073,0.376561
5e29fd5f2bec3b065e9a729e,26,0,2024-02-28T14:43:14.380Z,english_431.wav,0,peel,458,46,5,5,français,f,8,0.8,-89.82269949,1.59621374
5e29fd5f2bec3b065e9a729e,26,0,2024-02-28T14:43:14.380Z,english_431.wav,0,peel,458,46,5,5,français,f,9,0.9,-57.22282633,0.7949968
5e29fd5f2bec3b065e9a729e,26,0,2024-02-28T14:43:14.380Z,english_431.wav,0,peel,458,46,5,5,français,f,10,1.0,66.80474658,1.43069985
5e29fd5f2bec3b065e9a729e,26,0,2024-02-28T14:43:14.380Z,english_431.wav,0,peel,458,46,5,5,français,f,11,1.09391667,-8.50085654,0.47836789
5e29fd5f2bec3b065e9a729e,27,0,2024-02-28T14:43:14.380Z,english_648.wav,0,peel,455,46,5,5,français,f,0,0.0,33.66524903,1.53800397
5e29fd5f2bec3b065e9a729e,27,0,2024-02-28T14:43:14.380Z,english_648.wav,0,peel,455,46,5,5,français,f,1,0.1,97.98351088,1.15872761
5e29fd5f2bec3b065e9a729e,27,0,2024-02-28T14:43:14.380Z,english_648.wav,0,peel,455,46,5,5,français,f,2,0.2,11.9794117,0.81425559
5e29fd5f2bec3b065e9a729e,27,0,2024-02-28T14:43:14.380Z,english_648.wav,0,peel,455,46,5,5,français,f,3,0.3,29.55885348,0.88028101
5e29fd5f2bec3b065e9a729e,27,0,2024-02-28T14:43:14.380Z,english_648.wav,0,peel,455,46,5,5,français,f,4,0.4,24.59728939,1.88326834
5e29fd5f2bec3b065e9a729e,27,0,2024-02-28T14:43:14.380Z,english_648.wav,0,peel,455,46,5,5,français,f,5,0.5,59.2279724,1.09723956
5e29fd5f2bec3b065e9a729e,27,0,2024-02-28T14:43:14.380Z,english_648.wav,0,peel,455,46,5,5,français,f,6,0.6,3.25949038,0.83602582
5e29fd5f2bec3b065e9a729e,27,0,2024-02-28T14:43:14.380Z,english_648.wav,0,peel,455,46,5,5,français,f,7,0.7,-26.79620766,0.3704665
5e29fd5f2bec3b065e9a729e,27,0,2024-02-28T14:43:14.380Z,english_648.wav,0,peel,455,46,5,5,français,f,8,0.8,98.3282455,0.87153578
5e29fd5f2bec3b065e9a729e,27,0,2024-02-28T14:43:14.380Z,english_648.wav,0,peel,455,46,5,5,français,f,9,0.9,-78.7239126,1.50300547
5e29fd5f2bec3b065e9a729e,27,0,2024-02-28T14:43:14.380Z,english_648.wav,0,peel,455,46,5,5,français,f,10,1.0,20.12137035,0.75356499
5e29fd5f2bec3b065e9a729e,27,0,2024-02-28T14:43:14.380Z,english_648.wav,0,peel,455,46,5,5,français,f,11,1.09391667,-43.42156432,1.92538482
5e29fd5f2bec3b065e9a729e,28,0,2024-02-28T14:43:14.380Z,english_47.wav,0,peel,354,46,5,5,français,f,0,0.0,68.198191,0.3166901
5e29fd5f2bec3b065e9a729e,28,0,2024-02-28T14:43:14.380Z,english_47.wav,0,peel,354,46,5,5,français,f,1,0.1,94.43921987,0.04644968
5e29fd5f2bec3b065e9a729e,28,0,2024-02-28T14:43:14.380Z,english_47.wav,0,peel,354,46,5,5,français,f,2,0.2,71.99565581,0.20202276
5e29fd5f2bec3b065e9a729e,28,0,2024-02-28T14:43:14.380Z,english_47.wav,0,peel,354,46,5,5,français,f,3,0.3,-2.50267609,0.13324084
5e29fd5f2bec3b065e9a729e,28,0,2024-02-28T14:43:14.380Z,english_47.wav,0,peel,354,46,5,5,français,f,4,0.4,-27.23226475,1.85081006
5e29fd5f2bec3b065e9a729e,28,0,2024-02-28T14:43:14.380Z,english_47.wav,0,peel,354,46,5,5,français,f,5,0.5,-34.1635894,1.50387921
5e29fd5f2bec3b065e9a729e,28,0,2024-02-28T14:43:14.380Z,english_47.wav,0,peel,354,46,5,5,français,f,6,0.6,-43.16759163,1.62546743
5e29fd5f2bec3b065e9a729e,28,0,2024-02-28T14:43:14.380Z,english_47.wav,0,peel,354,46,5,5,français,f,7,0.7,-66.57434159,1.04862791
5e29fd5f2bec3b065e9a729e,28,0,2024-02-28T14:43:14.380Z,english_47.wav,0,peel,354,46,5,5,français,f,8,0.8,28.48495109,1.96555665
5e29fd5f2bec3b065e9a729e,28,0,2024-02-28T14:43:14.380Z,english_47.wav,0,peel,354,46,5,5,français,f,9,0.9,-2.22339421,1.0927937
5e29fd5f2bec3b065e9a729e,28,0,2024-02-28T14:43:14.380Z,english_47.wav,0,peel,354,46,5,5,français,f,10,1.0,-87.95517187,0.42699379
5e29fd5f2bec3b065e9a729e,28,0,2024-02-28T14:43:14.380Z,english_47.wav,0,peel,354,46,5,5,français,f,11,1.09391667,64.08418893,1.59110451
5e29fd5f2bec3b065e9a729e,29,0,2024-02-28T14:43:14.380Z,english_554.wav,0,peel,303,46,5,5,français,f,0,0.0,68.06713434,1.26196428
5e29fd5f2bec3b065e9a729e,29,0,2024-02-28T14:43:14.380Z,english_554.wav,0,peel,303,46,5,5,français,f,1,0.1,51.53363243,1.49608983
5e29fd5f2bec3b065e9a729e,29,0,2024-02-28T14:43:14.380Z,english_554.wav,0,peel,303,46,5,5,français,f,2,0.2,96.79789275,1.01925431
5e29fd5f2bec3b065e9a729e,29,0,2024-02-28T14:43:14.380Z,english_554.wav,0,peel,303,46,5,5,français,f,3,0.3,-32.97805092,1.27259864
5e29fd5f2bec3b065e9a729e,29,0,2024-02-28T14:43:14.380Z,english_554.wav,0,peel,303,46,5,5,français,f,4,0.4,38.32175517,0.99325409
5e29fd5f2bec3b065e9a729e,29,0,2024-02-28T14:43:14.380Z,english_554.wav,0,peel,303,46,5,5,français,f,5,0.5,-48.79684279,1.83296218
5e29fd5f2bec3b065e9a729e,29,0,2024-02-28T14:43:14.380Z,english_554.wav,0,peel,303,46,5,5,français,f,6,0.6,6.57101052,1.99419824
5e29fd5f2bec3b065e9a729e,29,0,2024-02-28T14:43:14.380Z,english_554.wav,0,peel,303,46,5,5,français,f,7,0.7,30.34426539,1.31395906
5e29fd5f2bec3b065e9a729e,29,0,2024-02-28T14:43:14.380Z,english_554.wav,0,peel,303,46,5,5,français,f,8,0.8,57.10485473,1.83167901
5e29fd5f2bec3b065e9a729e,29,0,2024-02-28T14:43:14.380Z,english_554.wav,0,peel,303,46,5,5,français,f,9,0.9,-93.21826179,1.93422624
5e29fd5f2bec3b065e9a729e,29,0,2024-02-28T14:43:14.380Z,english_554.wav,0,peel,303,46,5,5,français,f,10,1.0,58.97430912,1.62256756
5e29fd5f2bec3b065e9a729e,29,0,2024-02-28T14:43:14.380Z,english_554.wav,0,peel,303,46,5,5,français,f,11,1.09391667,32.65345188,0.90589094
5e29fd5f2bec3b065e9a729e,30,0,2024-02-28T14:43:14.380Z,english_453.wav,0,peel,1032,46,5,5,français,f,0,0.0,-70.25213601,0.36867593
5e29fd5f2bec3b065e9a729e,30,0,2024-02-28T14:43:14.380Z,english_453.wav,0,peel,1032,46,5,5,français,f,1,0.1,89.68329695,1.72886328
5e29fd5f2bec3b065e9a729e,30,0,2024-02-28T14:43:14.380Z,english_453.wav,0,peel,1032,46,5,5,français,f,2,0.2,64.82558172,1.62690503
5e29fd5f2bec3b065e9a729e,30,0,2024-02-28T14:43:14.380Z,english_453.wav,0,peel,1032,46,5,5,français,f,3,0.3,-29.59079509,0.73552932
5e29fd5f2bec3b065e9a729e,30,0,2024-02-28T14:43:14.380Z,english_453.wav,0,peel,1032,46,5,5,français,f,4,0.4,2.86785492,1.15423746
5e29fd5f2bec3b065e9a729e,30,0,2024-02-28T14:43:14.380Z,english_453.wav,0,peel,1032,46,5,5,français,f,5,0.5,29.66798779,0.00604153
5e29fd5f2bec3b065e9a729e,30,0,2024-02-28T14:43:14.380Z,english_453.wav,0,peel,1032,46,5,5,français,f,6,0.6,83.99800943,0.72573154
5e29fd5f2bec3b065e9a729e,30,0,2024-02-28T14:43:14.380Z,english_453.wav,0,peel,1032,46,5,5,français,f,7,0.7,3.87286535,0.64728212
5e29fd5f2bec3b065e9a729e,30,0,2024-02-28T14:43:14.380Z,english_453.wav,0,peel,1032,46,5,5,français,f,8,0.8,-49.24820381,1.80766087
5e29fd5f2bec3b065e9a729e,30,0,2024-02-28T14:43:14.380Z,english_453.wav,0,peel,1032,46,5,5,français,f,9,0.9,77.90929808,1.21653859
5e29fd5f2bec3b065e9a729e,30,0,2024-02-28T14:43:14.380Z,english_453.wav,0,peel,1032,46,5,5,français,f,10,1.0,93.37572535,0.12484757
5e29fd5f2bec3b065e9a729e,30,0,2024-02-28T14:43:14.380Z,english_453.wav,0,peel,1032,46,5,5,français,f,11,1.09391667,1.85400833,0.63167788
5e29fd5f2bec3b065e9a729e,31,0,2024-02-28T14:43:14.380Z,english_64.wav,0,pill,1447,46,5,5,français,f,0,0.0,35.19701481,0.1517014
5e29fd5f2bec3b065e9a729e,31,0,2024-02-28T14:43:14.380Z,english_64.wav,0,pill,1447,46,5,5,français,f,1,0.1,75.83495736,1.3624391
5e29fd5f2bec3b065e9a729e,31,0,2024-02-28T14:43:14.380Z,english_64.wav,0,pill,1447,46,5,5,français,f,2,0.2,-57.84604767,0.35043993
5e29fd5f2bec3b065e9a729e,31,0,2024-02-28T14:43:14.380Z,english_64.wav,0,pill,1447,46,5,5,français,f,3,0.3,18.18328311,1.06032252
5e29fd5f2bec3b065e9a729e,31,0,2024-02-28T14:43:14.380Z,english_64.wav,0,pill,1447,46,5,5,français,f,4,0.4,2.5532884,1.51833669
5e29fd5f2bec3b065e9a729e,31,0,2024-02-28T14:43:14.380Z,english_64.wav,0,pill,1447,46,5,5,français,f,5,0.5,24.93011402,0.65789286
5e29fd5f2bec3b065e9a729e,31,0,2024-02-28T14:43:14.380Z,english_64.wav,0,pill,1447,46,5,5,français,f,6,0.6,-51.99875854,1.38401799
5e29fd5f2bec3b065e9a729e,31,0,2024-02-28T14:43:14.380Z,english_64.wav,0,pill,1447,46,5,5,français,f,7,0.7,52.45873465,1.62873445
5e29fd5f2bec3b065e9a729e,31,0,2024-02-28T14:43:14.380Z,english_64.wav,0,pill,1447,46,5,5,français,f,8,0.8,42.38876358,0.48968984
5e29fd5f2bec3b065e9a729e,31,0,2024-02-28T14:43:14.380Z,english_64.wav,0,pill,1447,46,5,5,français,f,9,0.9,54.33691238,0.64777192
5e29fd5f2bec3b065e9a729e,31,0,2024-02-28T14:43:14.380Z,english_64.wav,0,pill,1447,46,5,5,français,f,10,1.0,27.02485659,0.8399807
5e29fd5f2bec3b065e9a729e,31,0,2024-02-28T14:43:14.380Z,english_64.wav,0,pill,1447,46,5,5,français,f,11,1.09391667,58.99390703,0.25985176
5e29fd5f2bec3b065e9a729e,32,0,2024-02-28T14:43:14.380Z,english_852.wav,0,peel,622,46,5,5,français,f,0,0.0,-72.43588369,0.36787591
5e29fd5f2bec3b065e9a729e,32,0,2024-02-28T14:43:14.380Z,english_852.wav,0,peel,622,46,5,5,français,f,1,0.1,-98.6251287,1.73505489
5e29fd5f2bec3b065e9a729e,32,0,2024-02-28T14:43:14.380Z,english_852.wav,0,peel,622,46,5,5,français,f,2,0.2,-89.42746768,1.62660713
5e29fd5f2bec3b065e9a729e,32,0,2024-02-28T14:43:14.380Z,english_852.wav,0,peel,622,46,5,5,français,f,3,0.3,-34.62530113,0.43311906
5e29fd5f2bec3b065e9a729e,32,0,2024-02-28T14:43:14.380Z,english_852.wav,0,peel,622,46,5,5,français,f,4,0.4,30.41205687,0.44776213
5e29fd5f2bec3b065e9a729e,32,0,2024-02-28T14:43:14.380Z,english_852.wav,0,peel,622,46,5,5,français,f,5,0.5,2.837509,1.35793831
5e29fd5f2bec3b065e9a729e,32,0,2024-02-28T14:43:14.380Z,english_852.wav,0,peel,622,46,5,5,français,f,6,0.6,-71.5278257,0.32605315
5e29fd5f2bec3b065e9a729e,32,0,2024-02-28T14:43:14.380Z,english_852.wav,0,peel,622,46,5,5,français,f,7,0.7,49.48057975,0.34111515
5e29fd5f2bec3b065e9a729e,32,0,2024-02-28T14:43:14.380Z,english_852.wav,0,peel,622,46,5,5,français,f,8,0.8,88.19174023,1.45336533
5e29fd5f2bec3b065e9a729e,32,0,2024-02-28T14:43:14.380Z,english_852.wav,0,peel,622,46,5,5,français,f,9,0.9,20.52660859,1.82703196
5e29fd5f2bec3b065e9a729e,32,0,2024-02-28T14:43:14.380Z,english_852.wav,0,peel,622,46,5,5,français,f,10,1.0,-18.49679028,0.13003363
5e29fd5f2bec3b065e9a729e,32,0,2024-02-28T14:43:14.380Z,english_852.wav,0,peel,622,46,5,5,français,f,11,1.09391667,15.64652165,0.89322684
5e29fd5f2bec3b065e9a729e,33,0,2024-02-28T14:43:14.380Z,english_206.wav,0,peel,956,46,5,5,français,f,0,0.0,-99.12855739,1.20636597
5e29fd5f2bec3b065e9a729e,33,0,2024-02-28T14:43:14.380Z,english_206.wav,0,peel,956,46,5,5,français,f,1,0.1,-89.51576504,0.87803278
5e29fd5f2bec3b065e9a729e,33,0,2024-02-28T14:43:14.380Z,english_206.wav,0,peel,956,46,5,5,français,f,2,0.2,-90.40464902,1.07282405
5e29fd5f2bec3b065e9a729e,33,0,2024-02-28T14:43:14.380Z,english_206.wav,0,peel,956,46,5,5,français,f,3,0.3,-70.32755561,1.36131617
5e29fd5f2bec3b065e9a729e,33,0,2024-02-28T14:43:14.380Z,english_206.wav,0,peel,956,46,5,5,français,f,4,0.4,78.03699917,0.62923097
5e29fd5f2bec3b065e9a729e,33,0,2024-02-28T14:43:14.380Z,english_206.wav,0,peel,956,46,5,5,français,f,5,0.5,8.07565508,1.02359746
5e29fd5f2bec3b065e9a729e,33,0,2024-02-28T14:43:14.380Z,english_206.wav,0,peel,956,46,5,5,français,f,6,0.6,38.18456427,0.86752629
5e29fd5f2bec3b065e9a729e,33,0,2024-02-28T14:43:14.380Z,english_206.wav,0,peel,956,46,5,5,français,f,7,0.7,-75.53493724,1.35404338
5e29fd5f2bec3b065e9a729e,33,0,2024-02-28T14:43:14.380Z,english_206.wav,0,peel,956,46,5,5,français,f,8,0.8,54.10683872,1.4732865
5e29fd5f2bec3b065e9a729e,33,0,2024-02-28T14:43:14.380Z,english_206.wav,0,peel,956,46,5,5,français,f,9,0.9,-40.64897969,0.47250575
5e29fd5f2bec3b065e9a729e,33,0,2024-02-28T14:43:14.380Z,english_206.wav,0,peel,956,46,5,5,français,f,10,1.0,-1.29434589,1.31829488
5e29fd5f2bec3b065e9a729e,33,0,2024-02-28T14:43:14.380Z,english_206.wav,0,peel,956,46,5,5,français,f,11,1.09391667,55.83604692,0.97831941
5e29fd5f2bec3b065e9a729e,34,0,2024-02-28T14:43:14.380Z,english_993.wav,0,peel,324,46,5,5,français,f,0,0.0,-8.65746923,1.97743958
5e29fd5f2bec3b065e9a729e,34,0,2024-02-28T14:43:14.380Z,english_993.wav,0,peel,324,46,5,5,français,f,1,0.1,-27.87522694,0.36006803
5e29fd5f2bec3b065e9a729e,34,0,2024-02-28T14:43:14.380Z,english_993.wav,0,peel,324,46,5,5,français,f,2,0.2,41.79329436,0.06856355
5e29fd5f2bec3b065e9a729e,34,0,2024-02-28T14:43:14.380Z,english_993.wav,0,peel,324,46,5,5,français,f,3,0.3,-23.16935708,0.38955927
5e29fd5f2bec3b065e9a729e,34,0,2024-02-28T14:43:14.380Z,english_993.wav,0,peel,324,46,5,5,français,f,4,0.4,18.8592239,1.25297016
5e29fd5f2bec3b065e9a729e,34,0,2024-02-28T14:43:14.380Z,english_993.wav,0,peel,324,46,5,5,français,f,5,0.5,40.29392848,0.33975417
5e29fd5f2bec3b065e9a729e,34,0,2024-02-28T14:43:14.380Z,english_993.wav,0,peel,324,46,5,5,français,f,6,0.6,77.6038757,1.12200744
5e29fd5f2bec3b065e9a729e,34,0,2024-02-28T14:43:14.380Z,english_993.wav,0,peel,324,46,5,5,français,f,7,0.7,33.5103026,1.75189261
5e29fd5f2bec3b065e9a729e,34,0,2024-02-28T14:43:14.380Z,english_993.wav,0,peel,324,46,5,5,français,f,8,0.8,71.9206852,0.43539509
5e29fd5f2bec3b065e9a729e,34,0,2024-02-28T14:43:14.380Z,english_993.wav,0,peel,324,46,5,5,français,f,9,0.9,-28.91081602,1.78200425
5e29fd5f2bec3b065e9a729e,34,0,2024-02-28T14:43:14.380Z,english_993.wav,0,peel,324,46,5,5,français,f,10,1.0,-66.92854856,0.58801976
5e29fd5f2bec3b065e9a729e,34,0,2024-02-28T14:43:14.380Z,english_993.wav,0,peel,324,46,5,5,français,f,11,1.09391667,-70.4693707,0.997712
5e29fd5f2bec3b065e9a729e,35,0,2024-02-28T14:43:14.380Z,english_687.wav,0,peel,228,46,5,5,français,f,0,0.0,-35.70290508,1.44721002
5e29fd5f2bec3b065e9a729e,35,0,2024-02-28T14:43:14.380Z,english_687.wav,0,peel,228,46,5,5,français,f,1,0.1,96.19930643,1.66446564
5e29fd5f2bec3b065e9a729e,35,0,2024-02-28T14:43:14.380Z,english_687.wav,0,peel,228,46,5,5,français,f,2,0.2,-16.32623685,0.17388823
5e29fd5f2bec3b065e9a729e,35,0,2024-02-28T14:43:14.380Z,english_687.wav,0,peel,228,46,5,5,français,f,3,0.3,69.01262748,0.9756111
5e29fd5f2bec3b065e9a729e,35,0,2024-02-28T14:43:14.380Z,english_687.wav,0,peel,228,46,5,5,français,f,4,0.4,-86.96335793,0.75788852
5e29fd5f2bec3b065e9a729e,35,0,2024-02-28T14:43:14.380Z,english_687.wav,0,peel,228,46,5,5,français,f,5,0.5,-94.81036094,1.04245625
5e29fd5f2bec3b065e9a729e,35,0,2024-02-28T14:43:14.380Z,english_687.wav,0,peel,228,46,5,5,français,f,6,0.6,24.28115893,0.94679533
5e29fd5f2bec3b065e9a729e,35,0,2024-02-28T14:43:14.380Z,english_687.wav,0,peel,228,46,5,5,français,f,7,0.7,-73.50271946,1.98988769
5e29fd5f2bec3b065e9a729e,35,0,2024-02-28T14:43:14.380Z,english_687.wav,0,peel,228,46,5,5,français,f,8,0.8,-67.86786343,1.9531078
5e29fd5f2bec3b065e9a729e,35,0,2024-02-28T14:43:14.380Z,english_687.wav,0,peel,228,46,5,5,français,f,9,0.9,-59.44479717,1.90267124
5e29fd5f2bec3b065e9a729e,35,0,2024-02-28T14:43:14.380Z,english_687.wav,0,peel,228,46,5,5,français,f,10,1.0,0.72231801,1.17236586
5e29fd5f2bec3b065e9a729e,35,0,2024-02-28T14:43:14.380Z,english_687.wav,0,peel,228,46,5,5,français,f,11,1.09391667,-0.70049857,1.47850695
5e29fd5f2bec3b065e9a729e,36,0,2024-02-28T14:43:14.380Z,english_279.wav,0,peel,1142,46,5,5,français,f,0,0.0,-36.23762281,1.55188156
5e29fd5f2bec3b065e9a729e,36,0,2024-02-28T14:43:14.380Z,english_279.wav,0,peel,1142,46,5,5,français,f,1,0.1,-35.59764132,1.09158025
5e29fd5f2bec3b065e9a729e,36,0,2024-02-28T14:43:14.380Z,english_279.wav,0,peel,1142,46,5,5,français,f,2,0.2,-13.82808191,1.04107002
5e29fd5f2bec3b065e9a729e,36,0,2024-02-28T14:43:14.380Z,english_279.wav,0,peel,1142,46,5,5,français,f,3,0.3,66.93896188,1.2362444
5e29fd5f2bec3b065e9a729e,36,0,2024-02-28T14:43:14.380Z,english_279.wav,0,peel,1142,46,5,5,français,f,4,0.4,44.18525499,0.95842363
5e29fd5f2bec3b065e9a729e,36,0,2024-02-28T14:43:14.380Z,english_279.wav,0,peel,1142,46,5,5,français,f,5,0.5,77.32475473,1.88195108
5e29fd5f2bec3b065e9a729e,36,0,2024-02-28T14:43:14.380Z,english_279.wav,0,peel,1142,46,5,5,français,f,6,0.6,48.96526153,0.79599844
5e29fd5f2bec3b065e9a729e,36,0,2024-02-28T14:43:14.380Z,english_279.wav,0,peel,1142,46,5,5,français,f,7,0.7,-92.8605498,1.52048921
5e29fd5f2bec3b065e9a729e,36,0,2024-02-28T14:43:14.380Z,english_279.wav,0,peel,1142,46,5,5,français,f,8,0.8,-72.65791469,0.72907645
5e29fd5f2bec3b065e9a729e,36,0,2024-02-28T14:43:14.380Z,english_279.wav,0,peel,1142,46,5,5,français,f,9,0.9,-40.93814374,0.85560625
5e29fd5f2bec3b065e9a729e,36,0,2024-02-28T14:43:14.380Z,english_279.wav,0,peel,1142,46,5,5,français,f,10,1.0,53.10101084,1.78550088
5e29fd5f2bec3b065e9a729e,36,0,2024-02-28T14:43:14.380Z,english_279.wav,0,peel,1142,46,5,5,français,f,11,1.09391667,-12.52992697,0.47871606
5e29fd5f2bec3b065e9a729e,37,0,2024-02-28T14:43:14.380Z,english_327.wav,0,pill,481,46,5,5,français,f,0,0.0,68.47046609,1.54763433
5e29fd5f2bec3b065e9a729e,37,0,2024-02-28T14:43:14.380Z,english_327.wav,0,pill,481,46,5,5,français,f,1,0.1,85.76832326,1.83635771
5e29fd5f2bec3b065e9a729e,37,0,2024-02-28T14:43:14.380Z,english_327.wav,0,pill,481,46,5,5,français,f,2,0.2,-75.98339762,0.3050113
5e29fd5f2bec3b065e9a729e,37,0,2024-02-28T14:43:14.380Z,english_327.wav,0,pill,481,46,5,5,français,f,3,0.3,74.12796235,0.70474203
5e29fd5f2bec3b065e9a729e,37,0,2024-02-28T14:43:14.380Z,english_327.wav,0,pill,481,46,5,5,français,f,4,0.4,11.46376172,0.8224078
5e29fd5f2bec3b065e9a729e,37,0,2024-02-28T14:43:14.380Z,english_327.wav,0,pill,481,46,5,5,français,f,5,0.5,-5.50560149,0.00526041
5e29fd5f2bec3b065e9a729e,37,0,2024-02-28T14:43:14.380Z,english_327.wav,0,pill,481,46,5,5,français,f,6,0.6,27.1504605,0.35213553
5e29fd5f2bec3b065e9a729e,37,0,2024-02-28T14:43:14.380Z,english_327.wav,0,pill,481,46,5,5,français,f,7,0.7,27.2911911,1.7713752
5e29fd5f2bec3b065e9a729e,37,0,2024-02-28T14:43:14.380Z,english_327.wav,0,pill,481,46,5,5,français,f,8,0.8,-20.36547399,1.08380037
5e29fd5f2bec3b065e9a729e,37,0,2024-02-28T14:43:14.380Z,english_327.wav,0,pill,481,46,5,5,français,f,9,0.9,-51.25849452,0.55113913
5e29fd5f2bec3b065e9a729e,37,0,2024-02-28T14:43:14.380Z,english_327.wav,0,pill,481,46,5,5,français,f,10,1.0,79.11844333,0.59854608
5e29fd5f2bec3b065e9a729e,37,0,2024-02-28T14:43:14.380Z,english_327.wav,0,pill,481,46,5,5,français,f,11,1.09391667,-53.98607147,1.65860026
5e29fd5f2bec3b065e9a729e,38,0,2024-02-28T14:43:14.380Z,english_602.wav,0,peel,148,46,5,5,français,f,0,0.0,68.03651569,0.44361931
5e29fd5f2bec3b065e9a729e,38,0,2024-02-28T14:43:14.380Z,english_602.wav,0,peel,148,46,5,5,français,f,1,0.1,45.80270737,1.54062364
5e29fd5f2bec3b065e9a729e,38,0,2024-02-28T14:43:14.380Z,english_602.wav,0,peel,148,46,5,5,français,f,2,0.2,40.05084495,1.57634207
5e29fd5f2bec3b065e9a729e,38,0,2024-02-28T14:43:14.380Z,english_602.wav,0,peel,148,46,5,5,français,f,3,0.3,48.64089828,0.03645506
5e29fd5f2bec3b065e9a729e,38,0,2024-02-28T14:43:14.380Z,english_602.wav,0,peel,148,46,5,5,français,f,4,0.4,24.15305268,1.06145672
5e29fd5f2bec3b065e9a729e,38,0,2024-02-28T14:43:14.380Z,english_602.wav,0,peel,148,46,5,5,français,f,5,0.5,51.63059478,0.59279659
5e29fd5f2bec3b065e9a729e,38,0,2024-02-28T14:43:14.380Z,english_602.wav,0,peel,148,46,5,5,français,f,6,0.6,84.11339373,1.68063549
5e29fd5f2bec3b065e9a729e,38,0,2024-02-28T14:43:14.380Z,english_602.wav,0,peel,148,46,5,5,français,f,7,0.7,22.39119116,0.09041329
5e29fd5f2bec3b065e9a729e,38,0,2024-02-28T14:43:14.380Z,english_602.wav,0,peel,148,46,5,5,français,f,8,0.8,-41.26651668,1.8261536
5e29fd5f2bec3b065e9a729e,38,0,2024-02-28T14:43:14.380Z,english_602.wav,0,peel,148,46,5,5,français,f,9,0.9,-2.28056387,1.1974799
5e29fd5f2bec3b065e9a729e,38,0,2024-02-28T14:43:14.380Z,english_602.wav,0,peel,148,46,5,5,français,f,10,1.0,-50.54956883,1.84366918
5e29fd5f2bec3b065e9a729e,38,0,2024-02-28T14:43:14.380Z,english_602.wav,0,peel,148,46,5,5,français,f,11,1.09391667,-93.08298628,1.00091384
5e29fd5f2bec3b065e9a729e,39,0,2024-02-28T14:43:14.380Z,english_30.wav,0,pill,554,46,5,5,français,f,0,0.0,7.20305011,0.62248381
5e29fd5f2bec3b065e9a729e,39,0,2024-02-28T14:43:14.380Z,english_30.wav,0,pill,554,46,5,5,français,f,1,0.1,40.54252217,1.3534175
5e29fd5f2bec3b065e9a729e,39,0,2024-02-28T14:43:14.380Z,english_30.wav,0,pill,554,46,5,5,français,f,2,0.2,-27.16756142,1.93672018
5e29fd5f2bec3b065e9a729e,39,0,2024-02-28T14:43:14.380Z,english_30.wav,0,pill,554,46,5,5,français,f,3,0.3,-47.4542684,1.80613869
5e29fd5f2bec3b065e9a729e,39,0,2024-02-28T14:43:14.380Z,english_30.wav,0,pill,554,46,5,5,français,f,4,0.4,16.89492576,1.17778721
5e29fd5f2bec3b065e9a729e,39,0,2024-02-28T14:43:14.380Z,english_30.wav,0,pill,554,46,5,5,français,f,5,0.5,-3.45231142,1.26050698
5e29fd5f2bec3b065e9a729e,39,0,2024-02-28T14:43:14.380Z,english_30.wav,0,pill,554,46,5,5,français,f,6,0.6,-55.37795964,0.40567716
5e29fd5f2bec3b065e9a729e,39,0,2024-02-28T14:43:14.380Z,english_30.wav,0,pill,554,46,5,5,français,f,7,0.7,94.81526788,1.85712714
5e29fd5f2bec3b065e9a729e,39,0,2024-02-28T14:43:14.380Z,english_30.wav,0,pill,554,46,5,5,français,f,8,0.8,4.42136383,0.11089582
5e29fd5f2bec3b065e9a729e,39,0,2024-02-28T14:43:14.380Z,english_30.wav,0,pill,554,46,5,5,français,f,9,0.9,-28.73125868,1.52275562
5e29fd5f2bec3b065e9a729e,39,0,2024-02-28T14:43:14.380Z,english_30.wav,0,pill,554,46,5,5,français,f,10,1.0,-43.27093622,0.4081166
5e29fd5f2bec3b065e9a729e,39,0,2024-02-28T14:43:14.380Z,english_30.wav,0,pill,554,46,5,5,français,f,11,1.09391667,0.63608962,1.00698649
5e29fd5f2bec3b065e9a729e,40,0,2024-02-28T14:43:14.380Z,english_244.wav,0,peel,255,46,5,5,français,f,0,0.0,-16.89000739,1.36645613
5e29fd5f2bec3b065e9a729e,40,0,2024-02-28T14:43:14.380Z,english_244.wav,0,peel,255,46,5,5,français,f,1,0.1,13.88621899,0.22689892
5e29fd5f2bec3b065e9a729e,40,0,2024-02-28T14:43:14.380Z,english_244.wav,0,peel,255,46,5,5,français,f,2,0.2,19.5320734,0.7498897
5e29fd5f2bec3b065e9a729e,40,0,2024-02-28T14:43:14.380Z,english_244.wav,0,peel,255,46,5,5,français,f,3,0.3,77.5555311,0.5439009
5e29fd5f2bec3b065e9a729e,40,0,2024-02-28T14:43:14.380Z,english_244.wav,0,peel,255,46,5,5,français,f,4,0.4,-1.54182751,1.43453656
5e29fd5f2bec3b065e9a729e,40,0,2024-02-28T14:43:14.380Z,english_244.wav,0,peel,255,46,5,5,français,f,5,0.5,-50.64945855,1.75844179
5e29fd5f2bec3b065e9a729e,40,0,2024-02-28T14:43:14.380Z,english_244.wav,0,peel,255,46,5,5,français,f,6,0.6,-35.36321005,1.54599597
5e29fd5f2bec3b065e9a729e,40,0,2024-02-28T14:43:14.380Z,english_244.wav,0,peel,255,46,5,5,français,f,7,0.7,-43.62157267,0.6923522
5e29fd5f2bec3b065e9a729e,40,0,2024-02-28T14:43:14.380Z,english_244.wav,0,peel,255,46,5,5,français,f,8,0.8,3.96205992,0.7002794
5e29fd5f2bec3b065e9a729e,40,0,2024-02-28T14:43:14.380Z,english_244.wav,0,peel,255,46,5,5,français,f,9,0.9,54.24324678,1.06972568
5e29fd5f2bec3b065e9a729e,40,0,2024-02-28T14:43:14.380Z,english_244.wav,0,peel,255,46,5,5,français,f,10,1.0,76.68152807,1.30720641
5e29fd5f2bec3b065e9a729e,40,0,2024-02-28T14:43:14.380Z,english_244.wav,0,peel,255,46,5,5,français,f,11,1.09391667,-97.15661366,0.50703606
5e29fd5f2bec3b065e9a729e,41,0,2024-02-28T14:43:14.380Z,english_46.wav,0,pill,3327,46,5,5,français,f,0,0.0,-14.7704521,0.66460672
5e29fd5f2bec3b065e9a729e,41,0,2024-02-28T14:43:14.380Z,english_46.wav,0,pill,3327,46,5,5,français,f,1,0.1,44.71982886,0.16115308
5e29fd5f2bec3b065e9a729e,41,0,2024-02-28T14:43:14.380Z,english_46.wav,0,pill,3327,46,5,5,français,f,2,0.2,54.31186901,0.69883722
5e29fd5f2bec3b065e9a729e,41,0,2024-02-28T14:43:14.380Z,english_46.wav,0,pill,3327,46,5,5,français,f,3,0.3,49.55617509,0.91276183
5e29fd5f2bec3b065e9a729e,41,0,2024-02-28T14:43:14.380Z,english_46.wav,0,pill,3327,46,5,5,français,f,4,0.4,13.89468732,1.97897865
5e29fd5f2bec3b065e9a729e,41,0,2024-02-28T14:43:14.380Z,english_46.wav,0,pill,3327,46,5,5,français,f,5,0.5,-5.62181735,1.5047395
5e29fd5f2bec3b065e9a729e,41,0,2024-02-28T14:43:14.380Z,english_46.wav,0,pill,3327,46,5,5,français,f,6,0.6,46.1003591,1.97786281
5e29fd5f2bec3b065e9a729e,41,0,2024-02-28T14:43:14.380Z,english_46.wav,0,pill,3327,46,5,5,français,f,7,0.7,44.70422333,1.91807099
5e29fd5f2bec3b065e9a729e,41,0,2024-02-28T14:43:14.380Z,english_46.wav,0,pill,3327,46,5,5,français,f,8,0.8,-14.85596588,0.25212674
5e29fd5f2bec3b065e9a729e,41,0,2024-02-28T14:43:14.380Z,english_46.wav,0,pill,3327,46,5,5,français,f,9,0.9,-30.71855866,1.85861414
5e29fd5f2bec3b065e9a729e,41,0,2024-02-28T14:43:14.380Z,english_46.wav,0,pill,3327,46,5,5,français,f,10,1.0,-75.55345039,0.72903252
5e29fd5f2bec3b065e9a729e,41,0,2024-02-28T14:43:14.380Z,english_46.wav,0,pill,3327,46,5,5,français,f,11,1.09391667,6.43312975,1.80431148
5e29fd5f2bec3b065e9a729e,42,0,2024-02-28T14:43:14.380Z,english_420.wav,0,pill,897,46,5,5,français,f,0,0.0,66.35781632,1.51060149
5e29fd5f2bec3b065e9a729e,42,0,2024-02-28T14:43:14.380Z,english_420.wav,0,pill,897,46,5,5,français,f,1,0.1,-12.06831675,0.86092396
5e29fd5f2bec3b065e9a729e,42,0,2024-02-28T14:43:14.380Z,english_420.wav,0,pill,897,46,5,5,français,f,2,0.2,71.12167329,1.98213421
5e29fd5f2bec3b065e9a729e,42,0,2024-02-28T14:43:14.380Z,english_420.wav,0,pill,897,46,5,5,français,f,3,0.3,-65.08320496,0.15165496
5e29fd5f2bec3b065e9a729e,42,0,2024-02-28T14:43:14.380Z,english_420.wav,0,pill,897,46,5,5,français,f,4,0.4,-82.82301749,1.26926091
5e29fd5f2bec3b065e9a729e,42,0,2024-02-28T14:43:14.380Z,english_420.wav,0,pill,897,46,5,5,français,f,5,0.5,32.31625944,1.00523376
5e29fd5f2bec3b065e9a729e,42,0,2024-02-28T14:43:14.380Z,english_420.wav,0,pill,897,46,5,5,français,f,6,0.6,68.14197427,1.33555594
5e29fd5f2bec3b065e9a729e,42,0,2024-02-28T14:43:14.380Z,english_420.wav,0,pill,897,46,5,5,français,f,7,0.7,69.60296215,1.16834727
5e29fd5f2bec3b065e9a729e,42,0,2024-02-28T14:43:14.380Z,english_420.wav,0,pill,897,46,5,5,français,f,8,0.8,38.87135773,0.07961385
5e29fd5f2bec3b065e9a729e,42,0,2024-02-28T14:43:14.380Z,english_420.wav,0,pill,897,46,5,5,français,f,9,0.9,55.81325805,0.13061417
5e29fd5f2bec3b065e9a729e,42,0,2024-02-28T14:43:14.380Z,english_420.wav,0,pill,897,46,5,5,français,f,10,1.0,91.56317805,1.16603809
5e29fd5f2bec3b065e9a729e,42,0,2024-02-28T14:43:14.380Z,english_420.wav,0,pill,897,46,5,5,français,f,11,1.09391667,58.32530745,1.93332186
5e29fd5f2bec3b065e9a729e,43,0,2024-02-28T14:43:14.380Z,english_36.wav,0,peel,193,46,5,5,français,f,0,0.0,-9.00477988,0.81327237
5e29fd5f2bec3b065e9a729e,43,0,2024-02-28T14:43:14.380Z,english_36.wav,0,peel,193,46,5,5,français,f,1,0.1,-13.45702302,0.45075004
5e29fd5f2bec3b065e9a729e,43,0,2024-02-28T14:43:14.380Z,english_36.wav,0,peel,193,46,5,5,français,f,2,0.2,-2.81727849,0.1663237
5e29fd5f2bec3b065e9a729e,43,0,2024-02-28T14:43:14.380Z,english_36.wav,0,peel,193,46,5,5,français,f,3,0.3,-29.71164893,1.57862109
5e29fd5f2bec3b065e9a729e,43,0,2024-02-28T14:43:14.380Z,english_36.wav,0,peel,193,46,5,5,français,f,4,0.4,95.72220786,1.7254824
5e29fd5f2bec3b065e9a729e,43,0,2024-02-28T14:43:14.380Z,english_36.wav,0,peel,193,46,5,5,français,f,5,0.5,-60.23405317,1.10066579
5e29fd5f2bec3b065e9a729e,43,0,2024-02-28T14:43:14.380Z,english_36.wav,0,peel,193,46,5,5,français,f,6,0.6,-99.2529621,0.59792659
5e29fd5f2bec3b065e9a729e,43,0,2024-02-28T14:43:14.380Z,english_36.wav,0,peel,193,46,5,5,français,f,7,0.7,-7.64791957,1.42084394
5e29fd5f2bec3b065e9a729e,43,0,2024-02-28T14:43:14.380Z,english_36.wav,0,peel,193,46,5,5,français,f,8,0.8,-68.45334788,0.87400001
5e29fd5f2bec3b065e9a729e,43,0,2024-02-28T14:43:14.380Z,english_36.wav,0,peel,193,46,5,5,français,f,9,0.9,91.90753039,1.522223
5e29fd5f2bec3b065e9a729e,43,0,2024-02-28T14:43:14.380Z,english_36.wav,0,peel,193,46,5,5,français,f,10,1.0,93.40110395,0.56951468
5e29fd5f2bec3b065e9a729e,43,0,2024-02-28T14:43:14.380Z,english_36.wav,0,peel,193,46,5,5,français,f,11,1.09391667,-27.95691035,1.01798822
5e29fd5f2bec3b065e9a729e,44,0,2024-02-28T14:43:14.380Z,english_169.wav,0,peel,494,46,5,5,français,f,0,0.0,-47.44631174,0.61482073
5e29fd5f2bec3b065e9a729e,44,0,2024-02-28T14:43:14.380Z,english_169.wav,0,peel,494,46,5,5,français,f,1,0.1,48.43296153,0.65655052
5e29fd5f2bec3b065e9a729e,44,0,2024-02-28T14:43:14.380Z,english_169.wav,0,peel,494,46,5,5,français,f,2,0.2,-16.2993289,1.98022162
5e29fd5f2bec3b065e9a729e,44,0,2024-02-28T14:43:14.380Z,english_169.wav,0,peel,494,46,5,5,français,f,3,0.3,71.12275577,1.32201843
5e29fd5f2bec3b065e9a729e,44,0,2024-02-28T14:43:14.380Z,english_169.wav,0,peel,494,46,5,5,français,f,4,0.4,27.92431259,0.62266418
5e29fd5f2bec3b065e9a729e,44,0,2024-02-28T14:43:14.380Z,english_169.wav,0,peel,494,46,5,5,français,f,5,0.5,-51.53020823,0.36761683
5e29fd5f2bec3b065e9a729e,44,0,2024-02-28T14:43:14.380Z,english_169.wav,0,peel,494,46,5,5,français,f,6,0.6,70.60667651,0.63917639
5e29fd5f2bec3b065e9a729e,44,0,2024-02-28T14:43:14.380Z,english_169.wav,0,peel,494,46,5,5,français,f,7,0.7,19.72897422,0.86553093
5e29fd5f2bec3b065e9a729e,44,0,2024-02-28T14:43:14.380Z,english_169.wav,0,peel,494,46,5,5,français,f,8,0.8,-28.1908113,1.52360694
5e29fd5f2bec3b065e9a729e,44,0,2024-02-28T14:43:14.380Z,english_169.wav,0,peel,494,46,5,5,français,f,9,0.9,42.45712742,1.86801427
5e29fd5f2bec3b065e9a729e,44,0,2024-02-28T14:43:14.380Z,english_169.wav,0,peel,494,46,5,5,français,f,10,1.0,90.49930188,1.6810017
5e29fd5f2bec3b065e9a729e,44,0,2024-02-28T14:43:14.380Z,english_169.wav,0,peel,494,46,5,5,français,f,11,1.09391667,-24.56696621,0.16531637
5e29fd5f2bec3b065e9a729e,45,0,2024-02-28T14:43:14.380Z,english_50.wav,0,pill,750,46,5,5,français,f,0,0.0,-32.36494138,1.37054129
5e29fd5f2bec3b065e9a729e,45,0,2024-02-28T14:43:14.380Z,english_50.wav,0,pill,750,46,5,5,français,f,1,0.1,76.6244439,1.57215181
5e29fd5f2bec3b065e9a729e,45,0,2024-02-28T14:43:14.380Z,english_50.wav,0,pill,750,46,5,5,français,f,2,0.2,-16.62217643,1.07317842
5e29fd5f2bec3b065e9a729e,45,0,2024-02-28T14:43:14.380Z,english_50.wav,0,pill,750,46,5,5,français,f,3,0.3,63.40850527,0.82623857
5e29fd5f2bec3b065e9a729e,45,0,2024-02-28T14:43:14.380Z,english_50.wav,0,pill,750,46,5,5,français,f,4,0.4,68.81783594,0.72038729
5e29fd5f2bec3b065e9a729e,45,0,2024-02-28T14:43:14.380Z,english_50.wav,0,pill,750,46,5,5,français,f,5,0.5,-35.17384088,1.90936147
5e29fd5f2bec3b065e9a729e,45,0,2024-02-28T14:43:14.380Z,english_50.wav,0,pill,750,46,5,5,français,f,6,0.6,42.93688325,0.3744962
5e29fd5f2bec3b065e9a729e,45,0,2024-02-28T14:43:14.380Z,english_50.wav,0,pill,750,46,5,5,français,f,7,0.7,-82.21044816,0.69245834
5e29fd5f2bec3b065e9a729e,45,0,2024-02-28T14:43:14.380Z,english_50.wav,0,pill,750,46,5,5,français,f,8,0.8,-42.73245843,0.60585647
5e29fd5f2bec3b065e9a729e,45,0,2024-02-28T14:43:14.380Z,english_50.wav,0,pill,750,46,5,5,français,f,9,0.9,-3.13393134,1.24840552
5e29fd5f2bec3b065e9a729e,45,0,2024-02-28T14:43:14.380Z,english_50.wav,0,pill,750,46,5,5,français,f,10,1.0,-86.41078269,0.02488175
5e29fd5f2bec3b065e9a729e,45,0,2024-02-28T14:43:14.380Z,english_50.wav,0,pill,750,46,5,5,français,f,11,1.09391667,14.80187439,1.59728167
5e29fd5f2bec3b065e9a729e,46,0,2024-02-28T14:43:14.380Z,english_313.wav,0,peel,194,46,5,5,français,f,0,0.0,-22.0180916,0.52298953
5e29fd5f2bec3b065e9a729e,46,0,2024-02-28T14:43:14.380Z,english_313.wav,0,peel,194,46,5,5,français,f,1,0.1,96.16831441,0.58043298
5e29fd5f2bec3b065e9a729e,46,0,2024-02-28T14:43:14.380Z,english_313.wav,0,peel,194,46,5,5,français,f,2,0.2,-45.33444961,0.43861373
5e29fd5f2bec3b065e9a729e,46,0,2024-02-28T14:43:14.380Z,english_313.wav,0,peel,194,46,5,5,français,f,3,0.3,-30.76295123,0.29063093
5e29fd5f2bec3b065e9a729e,46,0,2024-02-28T14:43:14.380Z,english_313.wav,0,peel,194,46,5,5,français,f,4,0.4,27.42080434,1.23880448
5e29fd5f2bec3b065e9a729e,46,0,2024-02-28T14:43:14.380Z,english_313.wav,0,peel,194,46,5,5,français,f,5,0.5,96.50313713,0.08705859
5e29fd5f2bec3b065e9a729e,46,0,2024-02-28T14:43:14.380Z,english_313.wav,0,peel,194,46,5,5,français,f,6,0.6,-0.94763764,1.32086894
5e29fd5f2bec3b065e9a729e,46,0,2024-02-28T14:43:14.380Z,english_313.wav,0,peel,194,46,5,5,français,f,7,0.7,67.04457313,1.2914561
5e29fd5f2bec3b065e9a729e,46,0,2024-02-28T14:43:14.380Z,english_313.wav,0,peel,194,46,5,5,français,f,8,0.8,2.6862445,0.44865702
5e29fd5f2bec3b065e9a729e,46,0,2024-02-28T14:43:14.380Z,english_313.wav,0,peel,194,46,5,5,français,f,9,0.9,47.07555832,1.89388378
5e29fd5f2bec3b065e9a729e,46,0,2024-02-28T14:43:14.380Z,english_313.wav,0,peel,194,46,5,5,français,f,10,1.0,-32.41079138,1.69735018
5e29fd5f2bec3b065e9a729e,46,0,2024-02-28T14:43:14.380Z,english_313.wav,0,peel,194,46,5,5,français,f,11,1.09391667,11.15794631,1.75721469
5e29fd5f2bec3b065e9a729e,47,0,2024-02-28T14:43:14.380Z,english_268.wav,0,peel,904,46,5,5,français,f,0,0.0,-10.36348141,0.34238631
5e29fd5f2bec3b065e9a729e,47,0,2024-02-28T14:43:14.380Z,english_268.wav,0,peel,904,46,5,5,français,f,1,0.1,83.25825445,0.93968033
5e29fd5f2bec3b065e9a729e,47,0,2024-02-28T14:43:14.380Z,english_268.wav,0,peel,904,46,5,5,français,f,2,0.2,90.11608715,0.03117119
5e29fd5f2bec3b065e9a729e,47,0,2024-02-28T14:43:14.380Z,english_268.wav,0,peel,904,46,5,5,français,f,3,0.3,32.1996215,0.99400779
5e29fd5f2bec3b065e9a729e,47,0,2024-02-28T14:43:14.380Z,english_268.wav,0,peel,904,46,5,5,français,f,4,0.4,8.976783,0.56090086
5e29fd5f2bec3b065e9a729e,47,0,2024-02-28T14:43:14.380Z,english_268.wav,0,peel,904,46,5,5,français,f,5,0.5,-6.95203106,0.18644764
5e29fd5f2bec3b065e9a729e,47,0,2024-02-28T14:43:14.380Z,english_268.wav,0,peel,904,46,5,5,français,f,6,0.6,67.82169398,1.05098713
5e29fd5f2bec3b065e9a729e,47,0,2024-02-28T14:43:14.380Z,english_268.wav,0,peel,904,46,5,5,français,f,7,0.7,50.85858074,0.33151379
5e29fd5f2bec3b065e9a729e,47,0,2024-02-28T14:43:14.380Z,english_268.wav,0,peel,904,46,5,5,français,f,8,0.8,11.07143565,0.1498151
5e29fd5f2bec3b065e9a729e,47,0,2024-02-28T14:43:14.380Z,english_268.wav,0,peel,904,46,5,5,français,f,9,0.9,40.44499652,0.7130759
5e29fd5f2bec3b065e9a729e,47,0,2024-02-28T14:43:14.380Z,english_268.wav,0,peel,904,46,5,5,français,f,10,1.0,87.615801,0.85732073
5e29fd5f2bec3b065e9a729e,47,0,2024-02-28T14:43:14.380Z,english_268.wav,0,peel,904,46,5,5,français,f,11,1.09391667,-54.91088926,1.8995277
5e29fd5f2bec3b065e9a729e,48,0,2024-02-28T14:43:14.380Z,english_300.wav,0,peel,2748,46,5,5,français,f,0,0.0,2.79972232,1.53749115
5e29fd5f2bec3b065e9a729e,48,0,2024-02-28T14:43:14.380Z,english_300.wav,0,peel,2748,46,5,5,français,f,1,0.1,-6.00092765,1.12105385
5e29fd5f2bec3b065e9a729e,48,0,2024-02-28T14:43:14.380Z,english_300.wav,0,peel,2748,46,5,5,français,f,2,0.2,5.93513414,1.21050577
5e29fd5f2bec3b065e9a729e,48,0,2024-02-28T14:43:14.380Z,english_300.wav,0,peel,2748,46,5,5,français,f,3,0.3,65.0106623,1.39038364
5e29fd5f2bec3b065e9a729e,48,0,2024-02-28T14:43:14.380Z,english_300.wav,0,peel,2748,46,5,5,français,f,4,0.4,-35.27715369,0.59533856
5e29fd5f2bec3b065e9a729e,48,0,2024-02-28T14:43:14.380Z,english_300.wav,0,peel,2748,46,5,5,français,f,5,0.5,-49.20910009,0.92189242
5e29fd5f2bec3b065e9a729e,48,0,2024-02-28T14:43:14.380Z,english_300.wav,0,peel,2748,46,5,5,français,f,6,0.6,90.62348649,1.12293969
5e29fd5f2bec3b065e9a729e,48,0,2024-02-28T14:43:14.380Z,english_300.wav,0,peel,2748,46,5,5,français,f,7,0.7,-62.79963136,0.08212217
5e29fd5f2bec3b065e9a729e,48,0,2024-02-28T14:43:14.380Z,english_300.wav,0,peel,2748,46,5,5,français,f,8,0.8,41.66095929,0.24893909
5e29fd5f2bec3b065e9a729e,48,0,2024-02-28T14:43:14.380Z,english_300.wav,0,peel,2748,46,5,5,français,f,9,0.9,-9.40303164,0.97640661
5e29fd5f2bec3b065e9a729e,48,0,2024-02-28T14:43:14.380Z,english_300.wav,0,peel,2748,46,5,5,français,f,10,1.0,-11.98915311,1.76885677
5e29fd5f2bec3b065e9a729e,48,0,2024-02-28T14:43:14.380Z,english_300.wav,0,peel,2748,46,5,5,français,f,11,1.09391667,86.33383712,1.97400425
5e29fd5f2bec3b065e9a729e,49,0,2024-02-28T14:43:14.380Z,english_369.wav,0,pill,768,46,5,5,français,f,0,0.0,-98.51702781,1.05319591
5e29fd5f2bec3b065e9a729e,49,0,2024-02-28T14:43:14.380Z,english_369.wav,0,pill,768,46,5,5,français,f,1,0.1,-77.74164505,0.35563608
5e29fd5f2bec3b065e9a729e,49,0,2024-02-28T14:43:14.380Z,english_369.wav,0,pill,768,46,5,5,français,f,2,0.2,13.86053007,0.74921535
5e29fd5f2bec3b065e9a729e,49,0,2024-02-28T14:43:14.380Z,english_369.wav,0,pill,768,46,5,5,français,f,3,0.3,94.45294859,1.88151113
5e29fd5f2bec3b065e9a729e,49,0,2024-02-28T14:43:14.380Z,english_369.wav,0,pill,768,46,5,5,français,f,4,0.4,-68.44131684,1.38340448
5e29fd5f2bec3b065e9a729e,49,0,2024-02-28T14:43:14.380Z,english_369.wav,0,pill,768,46,5,5,français,f,5,0.5,-11.02159052,1.0971757
5e29fd5f2bec3b065e9a729e,49,0,2024-02-28T14:43:14.380Z,english_369.wav,0,pill,768,46,5,5,français,f,6,0.6,-93.03562761,0.74102815
5e29fd5f2bec3b065e9a729e,49,0,2024-02-28T14:43:14.380Z,english_369.wav,0,pill,768,46,5,5,français,f,7,0.7,92.19991551,0.86578633
5e29fd5f2bec3b065e9a729e,49,0,2024-02-28T14:43:14.380Z,english_369.wav,0,pill,768,46,5,5,français,f,8,0.8,44.28946949,0.42333119
5e29fd5f2bec3b065e9a729e,49,0,2024-02-28T14:43:14.380Z,english_369.wav,0,pill,768,46,5,5,français,f,9,0.9,-36.54704406,1.30148328
5e29fd5f2bec3b065e9a729e,49,0,2024-02-28T14:43:14.380Z,english_369.wav,0,pill,768,46,5,5,français,f,10,1.0,75.92915306,0.13274677
5e29fd5f2bec3b065e9a729e,49,0,2024-02-28T14:43:14.380Z,english_369.wav,0,pill,768,46,5,5,français,f,11,1.09391667,43.6375557,0.3552412
5e29fd5f2bec3b065e9a729e,50,1,2024-02-28T14:43:14.380Z,english_944.wav,0,peel,702,46,5,5,français,f,0,0.0,15.60693819,1.52023204
5e29fd5f2bec3b065e9a729e,50,1,2024-02-28T14:43:14.380Z,english_944.wav,0,peel,702,46,5,5,français,f,1,0.1,-30.17366225,1.91331724
5e29fd5f2bec3b065e9a729e,50,1,2024-02-28T14:43:14.380Z,english_944.wav,0,peel,702,46,5,5,français,f,2,0.2,-74.98996265,0.77968244
5e29fd5f2bec3b065e9a729e,50,1,2024-02-28T14:43:14.380Z,english_944.wav,0,peel,702,46,5,5,français,f,3,0.3,-21.71143967,0.16568234
5e29fd5f2bec3b065e9a729e,50,1,2024-02-28T14:43:14.380Z,english_944.wav,0,peel,702,46,5,5,français,f,4,0.4,-71.17152847,0.05371195
5e29fd5f2bec3b065e9a729e,50,1,2024-02-28T14:43:14.380Z,english_944.wav,0,peel,702,46,5,5,français,f,5,0.5,-79.08347918,0.45619097
5e29fd5f2bec3b065e9a729e,50,1,2024-02-28T14:43:14.380Z,english_944.wav,0,peel,702,46,5,5,français,f,6,0.6,30.00213426,0.51735739
5e29fd5f2bec3b065e9a729e,50,1,2024-02-28T14:43:14.380Z,english_944.wav,0,peel,702,46,5,5,français,f,7,0.7,-95.66333823,1.56234264
5e29fd5f2bec3b065e9a729e,50,1,2024-02-28T14:43:14.380Z,english_944.wav,0,peel,702,46,5,5,français,f,8,0.8,-86.13874985,1.61252587
5e29fd5f2bec3b065e9a729e,50,1,2024-02-28T14:43:14.380Z,english_944.wav,0,peel,702,46,5,5,français,f,9,0.9,-92.76645644,0.66568015
5e29fd5f2bec3b065e9a729e,50,1,2024-02-28T14:43:14.380Z,english_944.wav,0,peel,702,46,5,5,français,f,10,1.0,-60.06542453,1.71575711
5e29fd5f2bec3b065e9a729e,50,1,2024-02-28T14:43:14.380Z,english_944.wav,0,peel,702,46,5,5,français,f,11,1.09391667,-49.67322896,1.10728615
5e29fd5f2bec3b065e9a729e,51,1,2024-02-28T14:43:14.380Z,english_501.wav,0,pill,960,46,5,5,français,f,0,0.0,-77.74446326,0.58310938
5e29fd5f2bec3b065e9a729e,51,1,2024-02-28T14:43:14.380Z,english_501.wav,0,pill,960,46,5,5,français,f,1,0.1,-2.03843579,1.55300385
5e29fd5f2bec3b065e9a729e,51,1,2024-02-28T14:43:14.380Z,english_501.wav,0,pill,960,46,5,5,français,f,2,0.2,-96.88873428,1.96337639
5e29fd5f2bec3b065e9a729e,51,1,2024-02-28T14:43:14.380Z,english_501.wav,0,pill,960,46,5,5,français,f,3,0.3,-65.26537264,1.90170473
5e29fd5f2bec3b065e9a729e,51,1,2024-02-28T14:43:14.380Z,english_501.wav,0,pill,960,46,5,5,français,f,4,0.4,20.10074667,1.92179136
5e29fd5f2bec3b065e9a729e,51,1,2024-02-28T14:43:14.380Z,english_501.wav,0,pill,960,46,5,5,français,f,5,0.5,61.35543997,1.23988027
5e29fd5f2bec3b065e9a729e,51,1,2024-02-28T14:43:14.380Z,english_501.wav,0,pill,960,46,5,5,français,f,6,0.6,65.65951244,0.8779329
5e29fd5f2bec3b065e9a729e,51,1,2024-02-28T14:43:14.380Z,english_501.wav,0,pill,960,46,5,5,français,f,7,0.7,78.35949412,1.06874401
5e29fd5f2bec3b065e9a729e,51,1,2024-02-28T14:43:14.380Z,english_501.wav,0,pill,960,46,5,5,français,f,8,0.8,39.47708972,1.24831936
5e29fd5f2bec3b065e9a729e,51,1,2024-02-28T14:43:14.380Z,english_501.wav,0,pill,960,46,5,5,français,f,9,0.9,-39.43243223,0.13883645
5e29fd5f2bec3b065e9a729e,51,1,2024-02-28T14:43:14.380Z,english_501.wav,0,pill,960,46,5,5,français,f,10,1.0,-6.34452472,0.71986461
5e29fd5f2bec3b065e9a729e,51,1,2024-02-28T14:43:14.380Z,english_501.wav,0,pill,960,46,5,5,français,f,11,1.09391667,-41.95684031,1.1315232
5e29fd5f2bec3b065e9a729e,52,1,2024-02-28T14:43:14.380Z,english_998.wav,0,peel,530,46,5,5,français,f,0,0.0,-83.67346728,1.27391906
5e29fd5f2bec3b065e9a729e,52,1,2024-02-28T14:43:14.380Z,english_998.wav,0,peel,530,46,5,5,français,f,1,0.1,-68.43297462,0.75913393
5e29fd5f2bec3b065e9a729e,52,1,2024-02-28T14:43:14.380Z,english_998.wav,0,peel,530,46,5,5,français,f,2,0.2,47.84560439,1.02363825
5e29fd5f2bec3b065e9a729e,52,1,2024-02-28T14:43:14.380Z,english_998.wav,0,peel,530,46,5,5,français,f,3,0.3,71.43971258,1.78775676
5e29fd5f2bec3b065e9a729e,52,1,2024-02-28T14:43:14.380Z,english_998.wav,0,peel,530,46,5,5,français,f,4,0.4,-30.40941836,0.0961221
5e29fd5f2bec3b065e9a729e,52,1,2024-02-28T14:43:14.380Z,english_998.wav,0,peel,530,46,5,5,français,f,5,0.5,69.31214212,1.18933693
5e29fd5f2bec3b065e9a729e,52,1,2024-02-28T14:43:14.380Z,english_998.wav,0,peel,530,46,5,5,français,f,6,0.6,-95.04564508,1.9379163
5e29fd5f2bec3b065e9a729e,52,1,2024-02-28T14:43:14.380Z,english_998.wav,0,peel,530,46,5,5,français,f,7,0.7,-61.88405175,1.91389769
5e29fd5f2bec3b065e9a729e,52,1,2024-02-28T14:43:14.380Z,english_998.wav,0,peel,530,46,5,5,français,f,8,0.8,11.43915949,1.08895614
5e29fd5f2bec3b065e9a729e,52,1,2024-02-28T14:43:14.380Z,english_998.wav,0,peel,530,46,5,5,français,f,9,0.9,79.6365109,1.52042952
5e29fd5f2bec3b065e9a729e,52,1,2024-02-28T14:43:14.380Z,english_998.wav,0,peel,530,46,5,5,français,f,10,1.0,58.29305302,0.38016323
5e29fd5f2bec3b065e9a729e,52,1,2024-02-28T14:43:14.380Z,english_998.wav,0,peel,530,46,5,5,français,f,11,1.09391667,44.0288717,1.77799574
5e29fd5f2bec3b065e9a729e,53,1,2024-02-28T14:43:14.380Z,english_377.wav,0,peel,877,46,5,5,français,f,0,0.0,73.04653382,1.47836601
5e29fd5f2bec3b065e9a729e,53,1,2024-02-28T14:43:14.380Z,english_377.wav,0,peel,877,46,5,5,français,f,1,0.1,61.01214683,1.01623989
5e29fd5f2bec3b065e9a729e,53,1,2024-02-28T14:43:14.380Z,english_377.wav,0,peel,877,46,5,5,français,f,2,0.2,-82.4479578,1.48528015
5e29fd5f2bec3b065e9a729e,53,1,2024-02-28T14:43:14.380Z,english_377.wav,0,peel,877,46,5,5,français,f,3,0.3,-6.35059144,0.37422398
5e29fd5f2bec3b065e9a729e,53,1,2024-02-28T14:43:14.380Z,english_377.wav,0,peel,877,46,5,5,français,f,4,0.4,58.86113959,0.85864758
5e29fd5f2bec3b065e9a729e,53,1,2024-02-28T14:43:14.380Z,english_377.wav,0,peel,877,46,5,5,français,f,5,0.5,19.19354738,0.94448051
5e29fd5f2bec3b065e9a729e,53,1,2024-02-28T14:43:14.380Z,english_377.wav,0,peel,877,46,5,5,français,f,6,0.6,-31.09076765,1.48225941
5e29fd5f2bec3b065e9a729e,53,1,2024-02-28T14:43:14.380Z,english_377.wav,0,peel,877,46,5,5,français,f,7,0.7,-78.80759367,0.12460905
5e29fd5f2bec3b065e9a729e,53,1,2024-02-28T14:43:14.380Z,english_377.wav,0,peel,877,46,5,5,français,f,8,0.8,40.88540154,0.28155513
5e29fd5f2bec3b065e9a729e,53,1,2024-02-28T14:43:14.380Z,english_377.wav,0,peel,877,46,5,5,français,f,9,0.9,2.78755214,0.51707897
5e29fd5f2bec3b065e9a729e,53,1,2024-02-28T14:43:14.380Z,english_377.wav,0,peel,877,46,5,5,français,f,10,1.0,-65.38807899,0.25575056
5e29fd5f2bec3b065e9a729e,53,1,2024-02-28T14:43:14.380Z,english_377.wav,0,peel,877,46,5,5,français,f,11,1.09391667,58.80108337,0.70835394
5e29fd5f2bec3b065e9a729e,54,1,2024-02-28T14:43:14.380Z,english_970.wav,0,pill,2132,46,5,5,français,f,0,0.0,-54.89447986,0.81951556
5e29fd5f2bec3b065e9a729e,54,1,2024-02-28T14:43:14.380Z,english_970.wav,0,pill,2132,46,5,5,français,f,1,0.1,25.1169893,1.67117432
5e29fd5f2bec3b065e9a729e,54,1,2024-02-28T14:43:14.380Z,english_970.wav,0,pill,2132,46,5,5,français,f,2,0.2,-40.43511265,1.15867829
5e29fd5f2bec3b065e9a729e,54,1,2024-02-28T14:43:14.380Z,english_970.wav,0,pill,2132,46,5,5,français,f,3,0.3,-62.36717191,1.19627059
5e29fd5f2bec3b065e9a729e,54,1,2024-02-28T14:43:14.380Z,english_970.wav,0,pill,2132,46,5,5,français,f,4,0.4,-52.87769156,1.65204518
5e29fd5f2bec3b065e9a729e,54,1,2024-02-28T14:43:14.380Z,english_970.wav,0,pill,2132,46,5,5,français,f,5,0.5,-60.51030312,1.89905296
5e29fd5f2bec3b065e9a729e,54,1,2024-02-28T14:43:14.380Z,english_970.wav,0,pill,2132,46,5,5,français,f,6,0.6,-20.66217752,1.49874094
5e29fd5f2bec3b065e9a729e,54,1,2024-02-28T14:43:14.380Z,english_970.wav,0,pill,2132,46,5,5,français,f,7,0.7,39.3890126,1.49402448
5e29fd5f2bec3b065e9a729e,54,1,2024-02-28T14:43:14.380Z,english_970.wav,0,pill,2132,46,5,5,français,f,8,0.8,-42.20316614,0.52089687
5e29fd5f2bec3b065e9a729e,54,1,2024-02-28T14:43:14.380Z,english_970.wav,0,pill,2132,46,5,5,français,f,9,0.9,-5.07453967,0.54496633
5e29fd5f2bec3b065e9a729e,54,1,2024-02-28T14:43:14.380Z,english_970.wav,0,pill,2132,46,5,5,français,f,10,1.0,63.70783578,0.14699143
5e29fd5f2bec3b065e9a729e,54,1,2024-02-28T14:43:14.380Z,english_970.wav,0,pill,2132,46,5,5,français,f,11,1.09391667,15.89619138,0.8383136
5e29fd5f2bec3b065e9a729e,55,1,2024-02-28T14:43:14.380Z,english_256.wav,0,peel,403,46,5,5,français,f,0,0.0,19.13786367,0.71756401
5e29fd5f2bec3b065e9a729e,55,1,2024-02-28T14:43:14.380Z,english_256.wav,0,peel,403,46,5,5,français,f,1,0.1,78.7613355,1.21129656
5e29fd5f2bec3b065e9a729e,55,1,2024-02-28T14:43:14.380Z,english_256.wav,0,peel,403,46,5,5,français,f,2,0.2,-10.99930376,0.86820307
5e29fd5f2bec3b065e9a729e,55,1,2024-02-28T14:43:14.380Z,english_256.wav,0,peel,403,46,5,5,français,f,3,0.3,-4.24203719,0.23513199
5e29fd5f2bec3b065e9a729e,55,1,2024-02-28T14:43:14.380Z,english_256.wav,0,peel,403,46,5,5,français,f,4,0.4,-18.22969313,1.96127331
5e29fd5f2bec3b065e9a729e,55,1,2024-02-28T14:43:14.380Z,english_256.wav,0,peel,403,46,5,5,français,f,5,0.5,-1.97438764,1.02094295
5e29fd5f2bec3b065e9a729e,55,1,2024-02-28T14:43:14.380Z,english_256.wav,0,peel,403,46,5,5,français,f,6,0.6,58.65018523,0.44586948
5e29fd5f2bec3b065e9a729e,55,1,2024-02-28T14:43:14.380Z,english_256.wav,0,peel,403,46,5,5,français,f,7,0.7,-44.17944685,0.67070074
5e29fd5f2bec3b065e9a729e,55,1,2024-02-28T14:43:14.380Z,english_256.wav,0,peel,403,46,5,5,français,f,8,0.8,-19.76307931,0.92528927
5e29fd5f2bec3b065e9a729e,55,1,2024-02-28T14:43:14.380Z,english_256.wav,0,peel,403,46,5,5,français,f,9,0.9,51.42512852,0.89913532
5e29fd5f2bec3b065e9a729e,55,1,2024-02-28T14:43:14.380Z,english_256.wav,0,peel,403,46,5,5,français,f,10,1.0,29.86121545,1.8576014
5e29fd5f2bec3b065e9a729e,55,1,2024-02-28T14:43:14.380Z,english_256.wav,0,peel,403,46,5,5,français,f,11,1.09391667,94.6134288,1.03800996
5e29fd5f2bec3b065e9a729e,56,1,2024-02-28T14:43:14.380Z,english_216.wav,0,pill,1037,46,5,5,français,f,0,0.0,-40.27379603,1.31885312
5e29fd5f2bec3b065e9a729e,56,1,2024-02-28T14:43:14.380Z,english_216.wav,0,pill,1037,46,5,5,français,f,1,0.1,-9.47472605,1.52413536
5e29fd5f2bec3b065e9a729e,56,1,2024-02-28T14:43:14.380Z,english_216.wav,0,pill,1037,46,5,5,français,f,2,0.2,10.83044308,0.3375517
5e29fd5f2bec3b065e9a729e,56,1,2024-02-28T14:43:14.380Z,english_216.wav,0,pill,1037,46,5,5,français,f,3,0.3,-73.80571365,0.67857864
5e29fd5f2bec3b065e9a729e,56,1,2024-02-28T14:43:14.380Z,english_216.wav,0,pill,1037,46,5,5,français,f,4,0.4,41.89217051,0.9344087
5e29fd5f2bec3b065e9a729e,56,1,2024-02-28T14:43:14.380Z,english_216.wav,0,pill,1037,46,5,5,français,f,5,0.5,-33.36366466,0.89775046
5e29fd5f2bec3b065e9a729e,56,1,2024-02-28T14:43:14.380Z,english_216.wav,0,pill,1037,46,5,5,français,f,6,0.6,-97.24072999,0.74652634
5e29fd5f2bec3b065e9a729e,56,1,2024-02-28T14:43:14.380Z,english_216.wav,0,pill,1037,46,5,5,français,f,7,0.7,-3.36916359,0.00621512
5e29fd5f2bec3b065e9a729e,56,1,2024-02-28T14:43:14.380Z,english_216.wav,0,pill,1037,46,5,5,français,f,8,0.8,-1.27566838,0.72729094
5e29fd5f2bec3b065e9a729e,56,1,2024-02-28T14:43:14.380Z,english_216.wav,0,pill,1037,46,5,5,français,f,9,0.9,29.4346129,1.23180128
5e29fd5f2bec3b065e9a729e,56,1,2024-02-28T14:43:14.380Z,english_216.wav,0,pill,1037,46,5,5,français,f,10,1.0,96.31719875,0.44193416
5e29fd5f2bec3b065e9a729e,56,1,2024-02-28T14:43:14.380Z,english_216.wav,0,pill,1037,46,5,5,français,f,11,1.09391667,90.69441865,0.08230135
5e29fd5f2bec3b065e9a729e,57,1,2024-02-28T14:43:14.380Z,english_218.wav,0,peel,470,46,5,5,français,f,0,0.0,-28.20463256,0.06975638
5e29fd5f2bec3b065e9a729e,57,1,2024-02-28T14:43:14.380Z,english_218.wav,0,peel,470,46,5,5,français,f,1,0.1,-75.86656262,1.24902799
5e29fd5f2bec3b065e9a729e,57,1,2024-02-28T14:43:14.380Z,english_218.wav,0,peel,470,46,5,5,français,f,2,0.2,78.51568347,0.38757705
5e29fd5f2bec3b065e9a729e,57,1,2024-02-28T14:43:14.380Z,english_218.wav,0,peel,470,46,5,5,français,f,3,0.3,-67.19866651,1.18680549
5e29fd5f2bec3b065e9a729e,57,1,2024-02-28T14:43:14.380Z,english_218.wav,0,peel,470,46,5,5,français,f,4,0.4,-11.47483433,1.20454768
5e29fd5f2bec3b065e9a729e,57,1,2024-02-28T14:43:14.380Z,english_218.wav,0,peel,470,46,5,5,français,f,5,0.5,-96.34493339,0.70131962
5e29fd5f2bec3b065e9a729e,57,1,2024-02-28T14:43:14.380Z,english_218.wav,0,peel,470,46,5,5,français,f,6,0.6,71.58709959,0.25791663
5e29fd5f2bec3b065e9a729e,57,1,2024-02-28T14:43:14.380Z,english_218.wav,0,peel,470,46,5,5,français,f,7,0.7,-9.8928997,0.10961417
5e29fd5f2bec3b065e9a729e,57,1,2024-02-28T14:43:14.380Z,english_218.wav,0,peel,470,46,5,5,français,f,8,0.8,-1.71040265,1.17923692
5e29fd5f2bec3b065e9a729e,57,1,2024-02-28T14:43:14.380Z,english_218.wav,0,peel,470,46,5,5,français,f,9,0.9,46.05003014,0.25195767
5e29fd5f2bec3b065e9a729e,57,1,2024-02-28T14:43:14.380Z,english_218.wav,0,peel,470,46,5,5,français,f,10,1.0,-54.51031069,1.75432787
5e29fd5f2bec3b065e9a729e,57,1,2024-02-28T14:43:14.380Z,english_218.wav,0,peel,470,46,5,5,français,f,11,1.09391667,-36.41626056,1.27588471
5e29fd5f2bec3b065e9a729e,58,1,2024-02-28T14:43:14.380Z,english_506.wav,0,peel,281,46,5,5,français,f,0,0.0,-13.3952031,0.85990944
5e29fd5f2bec3b065e9a729e,58,1,2024-02-28T14:43:14.380Z,english_506.wav,0,peel,281,46,5,5,français,f,1,0.1,8.8632007,0.40173642
5e29fd5f2bec3b065e9a729e,58,1,2024-02-28T14:43:14.380Z,english_506.wav,0,peel,281,46,5,5,français,f,2,0.2,-83.95985859,0.03154553
5e29fd5f2bec3b065e9a729e,58,1,2024-02-28T14:43:14.380Z,english_506.wav,0,peel,281,46,5,5,français,f,3,0.3,38.02193565,0.39528278
5e29fd5f2bec3b065e9a729e,58,1,2024-02-28T14:43:14.380Z,english_506.wav,0,peel,281,46,5,5,français,f,4,0.4,29.61638046,0.64999614
5e29fd5f2bec3b065e9a729e,58,1,2024-02-28T14:43:14.380Z,english_506.wav,0,peel,281,46,5,5,français,f,5,0.5,91.08087873,0.76132632
5e29fd5f2bec3b065e9a729e,58,1,2024-02-28T14:43:14.380Z,english_506.wav,0,peel,281,46,5,5,français,f,6,0.6,45.85080553,0.84020916
5e29fd5f2bec3b065e9a729e,58,1,2024-02-28T14:43:14.380Z,english_506.wav,0,peel,281,46,5,5,français,f,7,0.7,15.18618823,1.25961369
5e29fd5f2bec3b065e9a729e,58,1,2024-02-28T14:43:14.380Z,english_506.wav,0,peel,281,46,5,5,français,f,8,0.8,7.43914734,1.02786985
5e29fd5f2bec3b065e9a729e,58,1,2024-02-28T14:43:14.380Z,english_506.wav,0,peel,281,46,5,5,français,f,9,0.9,90.87583829,1.37241819
5e29fd5f2bec3b065e9a729e,58,1,2024-02-28T14:43:14.380Z,english_506.wav,0,peel,281,46,5,5,français,f,10,1.0,-85.58318538,0.76507647
5e29fd5f2bec3b065e9a729e,58,1,2024-02-28T14:43:14.380Z,english_506.wav,0,peel,281,46,5,5,français,f,11,1.09391667,-68.83720883,1.93766079
5e29fd5f2bec3b065e9a729e,59,1,2024-02-28T14:43:14.380Z,english_550.wav,0,peel,770,46,5,5,français,f,0,0.0,85.56762679,1.30256716
5e29fd5f2bec3b065e9a729e,59,1,2024-02-28T14:43:14.380Z,english_550.wav,0,peel,770,46,5,5,français,f,1,0.1,-46.94203093,1.73510164
5e29fd5f2bec3b065e9a729e,59,1,2024-02-28T14:43:14.380Z,english_550.wav,0,peel,770,46,5,5,français,f,2,0.2,10.19407412,0.89036326
5e29fd5f2bec3b065e9a729e,59,1,2024-02-28T14:43:14.380Z,english_550.wav,0,peel,770,46,5,5,français,f,3,0.3,1.47506103,0.09950504
5e29fd5f2bec3b065e9a729e,59,1,2024-02-28T14:43:14.380Z,english_550.wav,0,peel,770,46,5,5,français,f,4,0.4,18.20902046,0.7123978
5e29fd5f2bec3b065e9a729e,59,1,2024-02-28T14:43:14.380Z,english_550.wav,0,peel,770,46,5,5,français,f,5,0.5,-9.07211541,0.78286675
5e29fd5f2bec3b065e9a729e,59,1,2024-02-28T14:43:14.380Z,english_550.wav,0,peel,770,46,5,5,français,f,6,0.6,68.24492246,1.57257447
5e29fd5f2bec3b065e9a729e,59,1,2024-02-28T14:43:14.380Z,english_550.wav,0,peel,770,46,5,5,français,f,7,0.7,-55.39194289,0.50906814
5e29fd5f2bec3b065e9a729e,59,1,2024-02-28T14:43:14.380Z,english_550.wav,0,peel,770,46,5,5,français,f,8,0.8,17.18108307,0.32905773
5e29fd5f2bec3b065e9a729e,59,1,2024-02-28T14:43:14.380Z,english_550.wav,0,peel,770,46,5,5,français,f,9,0.9,23.42877298,1.19492705
5e29fd5f2bec3b065e9a729e,59,1,2024-02-28T14:43:14.380Z,english_550.wav,0,peel,770,46,5,5,français,f,10,1.0,2.91525796,1.53585055
5e29fd5f2bec3b065e9a729e,59,1,2024-02-28T14:43:14.380Z,english_550.wav,0,peel,770,46,5,5,français,f,11,1.09391667,84.75217651,0.16869385
5e29fd5f2bec3b065e9a729e,60,1,2024-02-28T14:43:14.380Z,english_524.wav,0,pill,426,46,5,5,français,f,0,0.0,-30.25985822,0.34793973
5e29fd5f2bec3b065e9a729e,60,1,2024-02-28T14:43:14.380Z,english_524.wav,0,pill,426,46,5,5,français,f,1,0.1,-25.72639464,1.18810863
5e29fd5f2bec3b065e9a729e,60,1,2024-02-28T14:43:14.380Z,english_524.wav,0,pill,426,46,5,5,français,f,2,0.2,-19.31311579,0.08692409
5e29fd5f2bec3b065e9a729e,60,1,2024-02-28T14:43:14.380Z,english_524.wav,0,pill,426,46,5,5,français,f,3,0.3,75.52996736,0.42169144
5e29fd5f2bec3b065e9a729e,60,1,2024-02-28T14:43:14.380Z,english_524.wav,0,pill,426,46,5,5,français,f,4,0.4,95.21234869,0.91790301
5e29fd5f2bec3b065e9a729e,60,1,2024-02-28T14:43:14.380Z,english_524.wav,0,pill,426,46,5,5,français,f,5,0.5,-71.1057772,1.60079155
5e29fd5f2bec3b065e9a729e,60,1,2024-02-28T14:43:14.380Z,english_524.wav,0,pill,426,46,5,5,français,f,6,0.6,-19.64273872,0.41126457
5e29fd5f2bec3b065e9a729e,60,1,2024-02-28T14:43:14.380Z,english_524.wav,0,pill,426,46,5,5,français,f,7,0.7,-1.31214815,0.20209882
5e29fd5f2bec3b065e9a729e,60,1,2024-02-28T14:43:14.380Z,english_524.wav,0,pill,426,46,5,5,français,f,8,0.8,64.64076703,1.03575809
5e29fd5f2bec3b065e9a729e,60,1,2024-02-28T14:43:14.380Z,english_524.wav,0,pill,426,46,5,5,français,f,9,0.9,-18.69724377,0.43486471
5e29fd5f2bec3b065e9a729e,60,1,2024-02-28T14:43:14.380Z,english_524.wav,0,pill,426,46,5,5,français,f,10,1.0,-40.5043492,0.51132712
5e29fd5f2bec3b065e9a729e,60,1,2024-02-28T14:43:14.380Z,english_524.wav,0,pill,426,46,5,5,français,f,11,1.09391667,-72.71091187,0.92380924
5e29fd5f2bec3b065e9a729e,61,1,2024-02-28T14:43:14.380Z,english_275.wav,0,peel,544,46,5,5,français,f,0,0.0,-31.53954932,1.11178535
5e29fd5f2bec3b065e9a729e,61,1,2024-02-28T14:43:14.380Z,english_275.wav,0,peel,544,46,5,5,français,f,1,0.1,67.55550323,1.43872854
5e29fd5f2bec3b065e9a729e,61,1,2024-02-28T14:43:14.380Z,english_275.wav,0,peel,544,46,5,5,français,f,2,0.2,55.26204535,1.00652784
5e29fd5f2bec3b065e9a729e,61,1,2024-02-28T14:43:14.380Z,english_275.wav,0,peel,544,46,5,5,français,f,3,0.3,-80.01639585,1.88859993
5e29fd5f2bec3b065e9a729e,61,1,2024-02-28T14:43:14.380Z,english_275.wav,0,peel,544,46,5,5,français,f,4,0.4,94.9520187,1.11098418
5e29fd5f2bec3b065e9a729e,61,1,2024-02-28T14:43:14.380Z,english_275.wav,0,peel,544,46,5,5,français,f,5,0.5,14.34639333,0.053376
5e29fd5f2bec3b065e9a729e,61,1,2024-02-28T14:43:14.380Z,english_275.wav,0,peel,544,46,5,5,français,f,6,0.6,86.55683539,0.64698711
5e29fd5f2bec3b065e9a729e,61,1,2024-02-28T14:43:14.380Z,english_275.wav,0,peel,544,46,5,5,français,f,7,0.7,-89.78552737,0.30486873
5e29fd5f2bec3b065e9a729e,61,1,2024-02-28T14:43:14.380Z,english_275.wav,0,peel,544,46,5,5,français,f,8,0.8,-1.72373159,1.76121679
5e29fd5f2bec3b065e9a729e,61,1,2024-02-28T14:43:14.380Z,english_275.wav,0,peel,544,46,5,5,français,f,9,0.9,-17.62384296,1.26518318
5e29fd5f2bec3b065e9a729e,61,1,2024-02-28T14:43:14.380Z,english_275.wav,0,peel,544,46,5,5,français,f,10,1.0,-77.59342149,0.9746017
5e29fd5f2bec3b065e9a729e,61,1,2024-02-28T14:43:14.380Z,english_275.wav,0,peel,544,46,5,5,français,f,11,1.09391667,-62.03983535,0.80300486
5e29fd5f2bec3b065e9a729e,62,1,2024-02-28T14:43:14.380Z,english_144.wav,0,pill,514,46,5,5,français,f,0,0.0,31.57285019,1.02092862
5e29fd5f2bec3b065e9a729e,62,1,2024-02-28T14:43:14.380Z,english_144.wav,0,pill,514,46,5,5,français,f,1,0.1,-66.82367858,1.21687454
5e29fd5f2bec3b065e9a729e,62,1,2024-02-28T14:43:14.380Z,english_144.wav,0,pill,514,46,5,5,français,f,2,0.2,25.9026646,0.83451974
5e29fd5f2bec3b065e9a729e,62,1,2024-02-28T14:43:14.380Z,english_144.wav,0,pill,514,46,5,5,français,f,3,0.3,-73.3005143,1.57454957
5e29fd5f2bec3b065e9a729e,62,1,2024-02-28T14:43:14.380Z,english_144.wav,0,pill,514,46,5,5,français,f,4,0.4,44.123678,0.07717076
5e29fd5f2bec3b065e9a729e,62,1,2024-02-28T14:43:14.380Z,english_144.wav,0,pill,514,46,5,5,français,f,5,0.5,49.27770762,0.27181384
5e29fd5f2bec3b065e9a729e,62,1,2024-02-28T14:43:14.380Z,english_144.wav,0,pill,514,46,5,5,français,f,6,0.6,22.38256085,1.7133157
5e29fd5f2bec3b065e9a729e,62,1,2024-02-28T14:43:14.380Z,english_144.wav,0,pill,514,46,5,5,français,f,7,0.7,-9.16605426,1.06775729
5e29fd5f2bec3b065e9a729e,62,1,2024-02-28T14:43:14.380Z,english_144.wav,0,pill,514,46,5,5,français,f,8,0.8,-36.80428778,1.42091993
5e29fd5f2bec3b065e9a729e,62,1,2024-02-28T14:43:14.380Z,english_144.wav,0,pill,514,46,5,5,français,f,9,0.9,-3.57060361,0.01524657
5e29fd5f2bec3b065e9a729e,62,1,2024-02-28T14:43:14.380Z,english_144.wav,0,pill,514,46,5,5,français,f,10,1.0,-56.05458997,0.90246411
5e29fd5f2bec3b065e9a729e,62,1,2024-02-28T14:43:14.380Z,english_144.wav,0,pill,514,46,5,5,français,f,11,1.09391667,-88.6470882,1.74083532
5e29fd5f2bec3b065e9a729e,63,1,2024-02-28T14:43:14.380Z,english_91.wav,0,peel,191,46,5,5,français,f,0,0.0,90.30305792,1.1938068
5e29fd5f2bec3b065e9a729e,63,1,2024-02-28T14:43:14.380Z,english_91.wav,0,peel,191,46,5,5,français,f,1,0.1,56.18894947,1.20808781
5e29fd5f2bec3b065e9a729e,63,1,2024-02-28T14:43:14.380Z,english_91.wav,0,peel,191,46,5,5,français,f,2,0.2,-58.19739478,0.13849828
5e29fd5f2bec3b065e9a729e,63,1,2024-02-28T14:43:14.380Z,english_91.wav,0,peel,191,46,5,5,français,f,3,0.3,79.028897,0.94138732
5e29fd5f2bec3b065e9a729e,63,1,2024-02-28T14:43:14.380Z,english_91.wav,0,peel,191,46,5,5,français,f,4,0.4,7.81343209,0.4665442
5e29fd5f2bec3b065e9a729e,63,1,2024-02-28T14:43:14.380Z,english_91.wav,0,peel,191,46,5,5,français,f,5,0.5,28.60271905,1.77893908
5e29fd5f2bec3b065e9a729e,63,1,2024-02-28T14:43:14.380Z,english_91.wav,0,peel,191,46,5,5,français,f,6,0.6,14.99037293,0.39545287
5e29fd5f2bec3b065e9a729e,63,1,2024-02-28T14:43:14.380Z,english_91.wav,0,peel,191,46,5,5,français,f,7,0.7,-0.25615484,1.77472074
5e29fd5f2bec3b065e9a729e,63,1,2024-02-28T14:43:14.380Z,english_91.wav,0,peel,191,46,5,5,français,f,8,0.8,86.53655438,1.9424725
5e29fd5f2bec3b065e9a729e,63,1,2024-02-28T14:43:14.380Z,english_91.wav,0,peel,191,46,5,5,français,f,9,0.9,-90.65230495,1.79603275
5e29fd5f2bec3b065e9a729e,63,1,2024-02-28T14:43:14.380Z,english_91.wav,0,peel,191,46,5,5,français,f,10,1.0,95.15657265,1.28685544
5e29fd5f2bec3b065e9a729e,63,1,2024-02-28T14:43:14.380Z,english_91.wav,0,peel,191,46,5,5,français,f,11,1.09391667,-56.87677847,0.36998726
