subj,trial,block,date,stim,stim_order,response,rt,age,english,french,language,sex,param_index,segment,pitch,stretch
63541b844de6259dad4ce489,0,0,2024-02-28T14:38:22.874Z,english_908.wav,0,pill,2388,38,5,5,français ,m,0,0.0,79.90322555,1.59871196
63541b844de6259dad4ce489,0,0,2024-02-28T14:38:22.874Z,english_908.wav,0,pill,2388,38,5,5,français ,m,1,0.1,-35.21263137,0.28479508
63541b844de6259dad4ce489,0,0,2024-02-28T14:38:22.874Z,english_908.wav,0,pill,2388,38,5,5,français ,m,2,0.2,-45.3814443,1.09874794
63541b844de6259dad4ce489,0,0,2024-02-28T14:38:22.874Z,english_908.wav,0,pill,2388,38,5,5,français ,m,3,0.3,27.76250809,0.00174433
63541b844de6259dad4ce489,0,0,2024-02-28T14:38:22.874Z,english_908.wav,0,pill,2388,38,5,5,français ,m,4,0.4,88.9030614,0.67512833
63541b844de6259dad4ce489,0,0,2024-02-28T14:38:22.874Z,english_908.wav,0,pill,2388,38,5,5,français ,m,5,0.5,-61.85553308,0.00194264
63541b844de6259dad4ce489,0,0,2024-02-28T14:38:22.874Z,english_908.wav,0,pill,2388,38,5,5,français ,m,6,0.6,-81.1964681,0.8304753
63541b844de6259dad4ce489,0,0,2024-02-28T14:38:22.874Z,english_908.wav,0,pill,2388,38,5,5,français ,m,7,0.7,5.34087676,1.28348369
63541b844de6259dad4ce489,0,0,2024-02-28T14:38:22.874Z,english_908.wav,0,pill,2388,38,5,5,français ,m,8,0.8,54.78811936,0.55017108
63541b844de6259dad4ce489,0,0,2024-02-28T14:38:22.874Z,english_908.wav,0,pill,2388,38,5,5,français ,m,9,0.9,-31.27071111,1.59638521
63541b844de6259dad4ce489,0,0,2024-02-28T14:38:22.874Z,english_908.wav,0,pill,2388,38,5,5,français ,m,10,1.0,-53.95963771,1.63592826
63541b844de6259dad4ce489,0,0,2024-02-28T14:38:22.874Z,english_908.wav,0,pill,2388,38,5,5,français ,m,11,1.09391667,80.48331988,1.14767612
63541b844de6259dad4ce489,1,0,2024-02-28T14:38:22.874Z,english_560.wav,0,peel,2386,38,5,5,français ,m,0,0.0,-58.05020857,1.72720005
63541b844de6259dad4ce489,1,0,2024-02-28T14:38:22.874Z,english_560.wav,0,peel,2386,38,5,5,français ,m,1,0.1,0.75359215,0.87170151
63541b844de6259dad4ce489,1,0,2024-02-28T14:38:22.874Z,english_560.wav,0,peel,2386,38,5,5,français ,m,2,0.2,-63.0427696,1.11137899
63541b844de6259dad4ce489,1,0,2024-02-28T14:38:22.874Z,english_560.wav,0,peel,2386,38,5,5,français ,m,3,0.3,-80.65695741,1.61210877
63541b844de6259dad4ce489,1,0,2024-02-28T14:38:22.874Z,english_560.wav,0,peel,2386,38,5,5,français ,m,4,0.4,30.22073259,0.77402776
63541b844de6259dad4ce489,1,0,2024-02-28T14:38:22.874Z,english_560.wav,0,peel,2386,38,5,5,français ,m,5,0.5,78.65082856,1.41240522
63541b844de6259dad4ce489,1,0,2024-02-28T14:38:22.874Z,english_560.wav,0,peel,2386,38,5,5,français ,m,6,0.6,-21.87019315,1.5310865
63541b844de6259dad4ce489,1,0,2024-02-28T14:38:22.874Z,english_560.wav,0,peel,2386,38,5,5,français ,m,7,0.7,-81.08775569,0.91259008
63541b844de6259dad4ce489,1,0,2024-02-28T14:38:22.874Z,english_560.wav,0,peel,2386,38,5,5,français ,m,8,0.8,-85.95097006,0.61355253
63541b844de6259dad4ce489,1,0,2024-02-28T14:38:22.874Z,english_560.wav,0,peel,2386,38,5,5,français ,m,9,0.9,55.61706947,0.53974683
63541b844de6259dad4ce489,1,0,2024-02-28T14:38:22.874Z,english_560.wav,0,peel,2386,38,5,5,français ,m,10,1.0,78.8186599,1.30815579
63541b844de6259dad4ce489,1,0,2024-02-28T14:38:22.874Z,english_560.wav,0,peel,2386,38,5,5,français ,m,11,1.09391667,-38.99290187,1.62027104
63541b844de6259dad4ce489,2,0,2024-02-28T14:38:22.874Z,english_922.wav,0,peel,4012,38,5,5,français ,m,0,0.0,61.1700044,0.77397562
63541b844de6259dad4ce489,2,0,2024-02-28T14:38:22.874Z,english_922.wav,0,peel,4012,38,5,5,français ,m,1,0.1,82.06984085,1.14937293
63541b844de6259dad4ce489,2,0,2024-02-28T14:38:22.874Z,english_922.wav,0,peel,4012,38,5,5,français ,m,2,0.2,-92.27579322,1.03435185
63541b844de6259dad4ce489,2,0,2024-02-28T14:38:22.874Z,english_922.wav,0,peel,4012,38,5,5,français ,m,3,0.3,89.90024406,0.69514863
63541b844de6259dad4ce489,2,0,2024-02-28T14:38:22.874Z,english_922.wav,0,peel,4012,38,5,5,français ,m,4,0.4,36.91510644,0.29090795
63541b844de6259dad4ce489,2,0,2024-02-28T14:38:22.874Z,english_922.wav,0,peel,4012,38,5,5,français ,m,5,0.5,-58.72846655,0.08046627
63541b844de6259dad4ce489,2,0,2024-02-28T14:38:22.874Z,english_922.wav,0,peel,4012,38,5,5,français ,m,6,0.6,85.21548547,0.39343329
63541b844de6259dad4ce489,2,0,2024-02-28T14:38:22.874Z,english_922.wav,0,peel,4012,38,5,5,français ,m,7,0.7,32.72450866,0.50557621
63541b844de6259dad4ce489,2,0,2024-02-28T14:38:22.874Z,english_922.wav,0,peel,4012,38,5,5,français ,m,8,0.8,50.92998004,1.28859728
63541b844de6259dad4ce489,2,0,2024-02-28T14:38:22.874Z,english_922.wav,0,peel,4012,38,5,5,français ,m,9,0.9,-26.56973856,0.44286158
63541b844de6259dad4ce489,2,0,2024-02-28T14:38:22.874Z,english_922.wav,0,peel,4012,38,5,5,français ,m,10,1.0,-43.37360145,1.43016745
63541b844de6259dad4ce489,2,0,2024-02-28T14:38:22.874Z,english_922.wav,0,peel,4012,38,5,5,français ,m,11,1.09391667,-17.2071356,1.42163313
63541b844de6259dad4ce489,3,0,2024-02-28T14:38:22.874Z,english_378.wav,0,peel,2682,38,5,5,français ,m,0,0.0,-6.75592408,1.57446733
63541b844de6259dad4ce489,3,0,2024-02-28T14:38:22.874Z,english_378.wav,0,peel,2682,38,5,5,français ,m,1,0.1,-33.28558439,0.29285803
63541b844de6259dad4ce489,3,0,2024-02-28T14:38:22.874Z,english_378.wav,0,peel,2682,38,5,5,français ,m,2,0.2,-96.71642688,0.09494473
63541b844de6259dad4ce489,3,0,2024-02-28T14:38:22.874Z,english_378.wav,0,peel,2682,38,5,5,français ,m,3,0.3,70.45646645,0.09114875
63541b844de6259dad4ce489,3,0,2024-02-28T14:38:22.874Z,english_378.wav,0,peel,2682,38,5,5,français ,m,4,0.4,20.01443052,0.12099564
63541b844de6259dad4ce489,3,0,2024-02-28T14:38:22.874Z,english_378.wav,0,peel,2682,38,5,5,français ,m,5,0.5,-69.62604827,0.06996617
63541b844de6259dad4ce489,3,0,2024-02-28T14:38:22.874Z,english_378.wav,0,peel,2682,38,5,5,français ,m,6,0.6,-82.6103386,0.89001983
63541b844de6259dad4ce489,3,0,2024-02-28T14:38:22.874Z,english_378.wav,0,peel,2682,38,5,5,français ,m,7,0.7,-53.90394432,1.80047075
63541b844de6259dad4ce489,3,0,2024-02-28T14:38:22.874Z,english_378.wav,0,peel,2682,38,5,5,français ,m,8,0.8,75.60526061,1.92282567
63541b844de6259dad4ce489,3,0,2024-02-28T14:38:22.874Z,english_378.wav,0,peel,2682,38,5,5,français ,m,9,0.9,-65.71007404,0.07000512
63541b844de6259dad4ce489,3,0,2024-02-28T14:38:22.874Z,english_378.wav,0,peel,2682,38,5,5,français ,m,10,1.0,-82.95728524,0.51793223
63541b844de6259dad4ce489,3,0,2024-02-28T14:38:22.874Z,english_378.wav,0,peel,2682,38,5,5,français ,m,11,1.09391667,40.19708488,1.33854892
63541b844de6259dad4ce489,4,0,2024-02-28T14:38:22.874Z,english_523.wav,0,peel,4902,38,5,5,français ,m,0,0.0,-25.97539799,0.34449626
63541b844de6259dad4ce489,4,0,2024-02-28T14:38:22.874Z,english_523.wav,0,peel,4902,38,5,5,français ,m,1,0.1,-25.11108095,0.18549089
63541b844de6259dad4ce489,4,0,2024-02-28T14:38:22.874Z,english_523.wav,0,peel,4902,38,5,5,français ,m,2,0.2,-67.4070828,1.10257375
63541b844de6259dad4ce489,4,0,2024-02-28T14:38:22.874Z,english_523.wav,0,peel,4902,38,5,5,français ,m,3,0.3,14.34055957,0.39893493
63541b844de6259dad4ce489,4,0,2024-02-28T14:38:22.874Z,english_523.wav,0,peel,4902,38,5,5,français ,m,4,0.4,10.27536217,1.8821087
63541b844de6259dad4ce489,4,0,2024-02-28T14:38:22.874Z,english_523.wav,0,peel,4902,38,5,5,français ,m,5,0.5,2.68899624,1.33802983
63541b844de6259dad4ce489,4,0,2024-02-28T14:38:22.874Z,english_523.wav,0,peel,4902,38,5,5,français ,m,6,0.6,5.43637058,1.93381979
63541b844de6259dad4ce489,4,0,2024-02-28T14:38:22.874Z,english_523.wav,0,peel,4902,38,5,5,français ,m,7,0.7,84.96836729,1.3963609
63541b844de6259dad4ce489,4,0,2024-02-28T14:38:22.874Z,english_523.wav,0,peel,4902,38,5,5,français ,m,8,0.8,0.15377924,0.58447079
63541b844de6259dad4ce489,4,0,2024-02-28T14:38:22.874Z,english_523.wav,0,peel,4902,38,5,5,français ,m,9,0.9,-34.21093103,0.41716989
63541b844de6259dad4ce489,4,0,2024-02-28T14:38:22.874Z,english_523.wav,0,peel,4902,38,5,5,français ,m,10,1.0,-94.05275706,1.25827867
63541b844de6259dad4ce489,4,0,2024-02-28T14:38:22.874Z,english_523.wav,0,peel,4902,38,5,5,français ,m,11,1.09391667,-75.26058007,0.83944497
63541b844de6259dad4ce489,5,0,2024-02-28T14:38:22.874Z,english_333.wav,0,peel,796,38,5,5,français ,m,0,0.0,-77.09264939,1.23191038
63541b844de6259dad4ce489,5,0,2024-02-28T14:38:22.874Z,english_333.wav,0,peel,796,38,5,5,français ,m,1,0.1,-5.78875624,1.45836537
63541b844de6259dad4ce489,5,0,2024-02-28T14:38:22.874Z,english_333.wav,0,peel,796,38,5,5,français ,m,2,0.2,-83.87680905,1.0531546
63541b844de6259dad4ce489,5,0,2024-02-28T14:38:22.874Z,english_333.wav,0,peel,796,38,5,5,français ,m,3,0.3,28.79088839,0.44111738
63541b844de6259dad4ce489,5,0,2024-02-28T14:38:22.874Z,english_333.wav,0,peel,796,38,5,5,français ,m,4,0.4,-8.31834177,1.38984954
63541b844de6259dad4ce489,5,0,2024-02-28T14:38:22.874Z,english_333.wav,0,peel,796,38,5,5,français ,m,5,0.5,-89.41834338,0.9205918
63541b844de6259dad4ce489,5,0,2024-02-28T14:38:22.874Z,english_333.wav,0,peel,796,38,5,5,français ,m,6,0.6,26.9852541,0.41991315
63541b844de6259dad4ce489,5,0,2024-02-28T14:38:22.874Z,english_333.wav,0,peel,796,38,5,5,français ,m,7,0.7,33.61847072,1.33278744
63541b844de6259dad4ce489,5,0,2024-02-28T14:38:22.874Z,english_333.wav,0,peel,796,38,5,5,français ,m,8,0.8,46.07239873,1.39586389
63541b844de6259dad4ce489,5,0,2024-02-28T14:38:22.874Z,english_333.wav,0,peel,796,38,5,5,français ,m,9,0.9,28.18917884,1.14407521
63541b844de6259dad4ce489,5,0,2024-02-28T14:38:22.874Z,english_333.wav,0,peel,796,38,5,5,français ,m,10,1.0,-44.50200932,1.34818546
63541b844de6259dad4ce489,5,0,2024-02-28T14:38:22.874Z,english_333.wav,0,peel,796,38,5,5,français ,m,11,1.09391667,47.37913403,0.31125762
63541b844de6259dad4ce489,6,0,2024-02-28T14:38:22.874Z,english_368.wav,0,peel,2463,38,5,5,français ,m,0,0.0,-21.74410199,1.11444004
63541b844de6259dad4ce489,6,0,2024-02-28T14:38:22.874Z,english_368.wav,0,peel,2463,38,5,5,français ,m,1,0.1,-54.46820056,1.02689489
63541b844de6259dad4ce489,6,0,2024-02-28T14:38:22.874Z,english_368.wav,0,peel,2463,38,5,5,français ,m,2,0.2,36.37288824,1.84847876
63541b844de6259dad4ce489,6,0,2024-02-28T14:38:22.874Z,english_368.wav,0,peel,2463,38,5,5,français ,m,3,0.3,28.79669065,1.32768322
63541b844de6259dad4ce489,6,0,2024-02-28T14:38:22.874Z,english_368.wav,0,peel,2463,38,5,5,français ,m,4,0.4,64.63914759,1.2143292
63541b844de6259dad4ce489,6,0,2024-02-28T14:38:22.874Z,english_368.wav,0,peel,2463,38,5,5,français ,m,5,0.5,-47.48725989,1.4175641
63541b844de6259dad4ce489,6,0,2024-02-28T14:38:22.874Z,english_368.wav,0,peel,2463,38,5,5,français ,m,6,0.6,-56.63725257,0.26859899
63541b844de6259dad4ce489,6,0,2024-02-28T14:38:22.874Z,english_368.wav,0,peel,2463,38,5,5,français ,m,7,0.7,-15.67963737,1.20913194
63541b844de6259dad4ce489,6,0,2024-02-28T14:38:22.874Z,english_368.wav,0,peel,2463,38,5,5,français ,m,8,0.8,-67.03077711,0.71725489
63541b844de6259dad4ce489,6,0,2024-02-28T14:38:22.874Z,english_368.wav,0,peel,2463,38,5,5,français ,m,9,0.9,-87.98164929,0.61705061
63541b844de6259dad4ce489,6,0,2024-02-28T14:38:22.874Z,english_368.wav,0,peel,2463,38,5,5,français ,m,10,1.0,66.360443,1.87423649
63541b844de6259dad4ce489,6,0,2024-02-28T14:38:22.874Z,english_368.wav,0,peel,2463,38,5,5,français ,m,11,1.09391667,86.76512067,0.90814369
63541b844de6259dad4ce489,7,0,2024-02-28T14:38:22.874Z,english_416.wav,0,peel,1243,38,5,5,français ,m,0,0.0,82.43182744,0.48127721
63541b844de6259dad4ce489,7,0,2024-02-28T14:38:22.874Z,english_416.wav,0,peel,1243,38,5,5,français ,m,1,0.1,53.03166004,0.55506125
63541b844de6259dad4ce489,7,0,2024-02-28T14:38:22.874Z,english_416.wav,0,peel,1243,38,5,5,français ,m,2,0.2,97.51798843,1.10002465
63541b844de6259dad4ce489,7,0,2024-02-28T14:38:22.874Z,english_416.wav,0,peel,1243,38,5,5,français ,m,3,0.3,29.41957171,0.46187328
63541b844de6259dad4ce489,7,0,2024-02-28T14:38:22.874Z,english_416.wav,0,peel,1243,38,5,5,français ,m,4,0.4,-25.73379092,1.80124094
63541b844de6259dad4ce489,7,0,2024-02-28T14:38:22.874Z,english_416.wav,0,peel,1243,38,5,5,français ,m,5,0.5,-41.53228359,1.29733702
63541b844de6259dad4ce489,7,0,2024-02-28T14:38:22.874Z,english_416.wav,0,peel,1243,38,5,5,français ,m,6,0.6,-18.26850451,0.88634114
63541b844de6259dad4ce489,7,0,2024-02-28T14:38:22.874Z,english_416.wav,0,peel,1243,38,5,5,français ,m,7,0.7,36.25947798,0.74571926
63541b844de6259dad4ce489,7,0,2024-02-28T14:38:22.874Z,english_416.wav,0,peel,1243,38,5,5,français ,m,8,0.8,3.82481386,0.12319745
63541b844de6259dad4ce489,7,0,2024-02-28T14:38:22.874Z,english_416.wav,0,peel,1243,38,5,5,français ,m,9,0.9,51.45810025,1.56017106
63541b844de6259dad4ce489,7,0,2024-02-28T14:38:22.874Z,english_416.wav,0,peel,1243,38,5,5,français ,m,10,1.0,0.92473006,1.11470687
63541b844de6259dad4ce489,7,0,2024-02-28T14:38:22.874Z,english_416.wav,0,peel,1243,38,5,5,français ,m,11,1.09391667,18.75162815,1.36917422
63541b844de6259dad4ce489,8,0,2024-02-28T14:38:22.874Z,english_852.wav,0,peel,2940,38,5,5,français ,m,0,0.0,-72.43588369,0.36787591
63541b844de6259dad4ce489,8,0,2024-02-28T14:38:22.874Z,english_852.wav,0,peel,2940,38,5,5,français ,m,1,0.1,-98.6251287,1.73505489
63541b844de6259dad4ce489,8,0,2024-02-28T14:38:22.874Z,english_852.wav,0,peel,2940,38,5,5,français ,m,2,0.2,-89.42746768,1.62660713
63541b844de6259dad4ce489,8,0,2024-02-28T14:38:22.874Z,english_852.wav,0,peel,2940,38,5,5,français ,m,3,0.3,-34.62530113,0.43311906
63541b844de6259dad4ce489,8,0,2024-02-28T14:38:22.874Z,english_852.wav,0,peel,2940,38,5,5,français ,m,4,0.4,30.41205687,0.44776213
63541b844de6259dad4ce489,8,0,2024-02-28T14:38:22.874Z,english_852.wav,0,peel,2940,38,5,5,français ,m,5,0.5,2.837509,1.35793831
63541b844de6259dad4ce489,8,0,2024-02-28T14:38:22.874Z,english_852.wav,0,peel,2940,38,5,5,français ,m,6,0.6,-71.5278257,0.32605315
63541b844de6259dad4ce489,8,0,2024-02-28T14:38:22.874Z,english_852.wav,0,peel,2940,38,5,5,français ,m,7,0.7,49.48057975,0.34111515
63541b844de6259dad4ce489,8,0,2024-02-28T14:38:22.874Z,english_852.wav,0,peel,2940,38,5,5,français ,m,8,0.8,88.19174023,1.45336533
63541b844de6259dad4ce489,8,0,2024-02-28T14:38:22.874Z,english_852.wav,0,peel,2940,38,5,5,français ,m,9,0.9,20.52660859,1.82703196
63541b844de6259dad4ce489,8,0,2024-02-28T14:38:22.874Z,english_852.wav,0,peel,2940,38,5,5,français ,m,10,1.0,-18.49679028,0.13003363
63541b844de6259dad4ce489,8,0,2024-02-28T14:38:22.874Z,english_852.wav,0,peel,2940,38,5,5,français ,m,11,1.09391667,15.64652165,0.89322684
63541b844de6259dad4ce489,9,0,2024-02-28T14:38:22.874Z,english_581.wav,0,pill,571,38,5,5,français ,m,0,0.0,73.66932606,1.55016183
63541b844de6259dad4ce489,9,0,2024-02-28T14:38:22.874Z,english_581.wav,0,pill,571,38,5,5,français ,m,1,0.1,-66.94779644,0.89838662
63541b844de6259dad4ce489,9,0,2024-02-28T14:38:22.874Z,english_581.wav,0,pill,571,38,5,5,français ,m,2,0.2,17.54153331,0.42808685
63541b844de6259dad4ce489,9,0,2024-02-28T14:38:22.874Z,english_581.wav,0,pill,571,38,5,5,français ,m,3,0.3,-33.4804178,0.92207517
63541b844de6259dad4ce489,9,0,2024-02-28T14:38:22.874Z,english_581.wav,0,pill,571,38,5,5,français ,m,4,0.4,-75.87348007,0.40201435
63541b844de6259dad4ce489,9,0,2024-02-28T14:38:22.874Z,english_581.wav,0,pill,571,38,5,5,français ,m,5,0.5,-19.3699166,0.78725452
63541b844de6259dad4ce489,9,0,2024-02-28T14:38:22.874Z,english_581.wav,0,pill,571,38,5,5,français ,m,6,0.6,44.64649322,0.99552959
63541b844de6259dad4ce489,9,0,2024-02-28T14:38:22.874Z,english_581.wav,0,pill,571,38,5,5,français ,m,7,0.7,49.72085551,1.64481575
63541b844de6259dad4ce489,9,0,2024-02-28T14:38:22.874Z,english_581.wav,0,pill,571,38,5,5,français ,m,8,0.8,-60.52101801,1.59282789
63541b844de6259dad4ce489,9,0,2024-02-28T14:38:22.874Z,english_581.wav,0,pill,571,38,5,5,français ,m,9,0.9,-63.98249467,0.98679066
63541b844de6259dad4ce489,9,0,2024-02-28T14:38:22.874Z,english_581.wav,0,pill,571,38,5,5,français ,m,10,1.0,-38.32664081,1.29384626
63541b844de6259dad4ce489,9,0,2024-02-28T14:38:22.874Z,english_581.wav,0,pill,571,38,5,5,français ,m,11,1.09391667,93.53202253,1.70769846
63541b844de6259dad4ce489,10,0,2024-02-28T14:38:22.874Z,english_803.wav,0,peel,867,38,5,5,français ,m,0,0.0,-87.73830572,0.85344372
63541b844de6259dad4ce489,10,0,2024-02-28T14:38:22.874Z,english_803.wav,0,peel,867,38,5,5,français ,m,1,0.1,-15.08646711,1.55927117
63541b844de6259dad4ce489,10,0,2024-02-28T14:38:22.874Z,english_803.wav,0,peel,867,38,5,5,français ,m,2,0.2,-93.06982521,1.70131734
63541b844de6259dad4ce489,10,0,2024-02-28T14:38:22.874Z,english_803.wav,0,peel,867,38,5,5,français ,m,3,0.3,-69.48431994,0.94684337
63541b844de6259dad4ce489,10,0,2024-02-28T14:38:22.874Z,english_803.wav,0,peel,867,38,5,5,français ,m,4,0.4,66.11466902,1.98181189
63541b844de6259dad4ce489,10,0,2024-02-28T14:38:22.874Z,english_803.wav,0,peel,867,38,5,5,français ,m,5,0.5,9.32273235,0.71685289
63541b844de6259dad4ce489,10,0,2024-02-28T14:38:22.874Z,english_803.wav,0,peel,867,38,5,5,français ,m,6,0.6,66.48896901,0.68582038
63541b844de6259dad4ce489,10,0,2024-02-28T14:38:22.874Z,english_803.wav,0,peel,867,38,5,5,français ,m,7,0.7,-66.59180882,0.52787947
63541b844de6259dad4ce489,10,0,2024-02-28T14:38:22.874Z,english_803.wav,0,peel,867,38,5,5,français ,m,8,0.8,43.6326205,1.2789965
63541b844de6259dad4ce489,10,0,2024-02-28T14:38:22.874Z,english_803.wav,0,peel,867,38,5,5,français ,m,9,0.9,-52.46264607,1.18929342
63541b844de6259dad4ce489,10,0,2024-02-28T14:38:22.874Z,english_803.wav,0,peel,867,38,5,5,français ,m,10,1.0,47.80537721,1.0745206
63541b844de6259dad4ce489,10,0,2024-02-28T14:38:22.874Z,english_803.wav,0,peel,867,38,5,5,français ,m,11,1.09391667,7.91826016,1.28256899
63541b844de6259dad4ce489,11,0,2024-02-28T14:38:22.874Z,english_465.wav,0,peel,3517,38,5,5,français ,m,0,0.0,32.62808343,1.95674705
63541b844de6259dad4ce489,11,0,2024-02-28T14:38:22.874Z,english_465.wav,0,peel,3517,38,5,5,français ,m,1,0.1,-19.45954063,0.2020369
63541b844de6259dad4ce489,11,0,2024-02-28T14:38:22.874Z,english_465.wav,0,peel,3517,38,5,5,français ,m,2,0.2,31.8583501,0.52421729
63541b844de6259dad4ce489,11,0,2024-02-28T14:38:22.874Z,english_465.wav,0,peel,3517,38,5,5,français ,m,3,0.3,62.10393883,0.65974817
63541b844de6259dad4ce489,11,0,2024-02-28T14:38:22.874Z,english_465.wav,0,peel,3517,38,5,5,français ,m,4,0.4,18.6647785,0.39728546
63541b844de6259dad4ce489,11,0,2024-02-28T14:38:22.874Z,english_465.wav,0,peel,3517,38,5,5,français ,m,5,0.5,60.37095119,0.37134149
63541b844de6259dad4ce489,11,0,2024-02-28T14:38:22.874Z,english_465.wav,0,peel,3517,38,5,5,français ,m,6,0.6,-66.90125798,0.92371442
63541b844de6259dad4ce489,11,0,2024-02-28T14:38:22.874Z,english_465.wav,0,peel,3517,38,5,5,français ,m,7,0.7,-81.40602189,0.31310251
63541b844de6259dad4ce489,11,0,2024-02-28T14:38:22.874Z,english_465.wav,0,peel,3517,38,5,5,français ,m,8,0.8,50.53882687,1.13414137
63541b844de6259dad4ce489,11,0,2024-02-28T14:38:22.874Z,english_465.wav,0,peel,3517,38,5,5,français ,m,9,0.9,-56.46028762,0.34422608
63541b844de6259dad4ce489,11,0,2024-02-28T14:38:22.874Z,english_465.wav,0,peel,3517,38,5,5,français ,m,10,1.0,17.60561432,1.91257156
63541b844de6259dad4ce489,11,0,2024-02-28T14:38:22.874Z,english_465.wav,0,peel,3517,38,5,5,français ,m,11,1.09391667,99.29101089,1.23959362
63541b844de6259dad4ce489,12,0,2024-02-28T14:38:22.874Z,english_114.wav,0,pill,3109,38,5,5,français ,m,0,0.0,-38.33361484,0.25479749
63541b844de6259dad4ce489,12,0,2024-02-28T14:38:22.874Z,english_114.wav,0,pill,3109,38,5,5,français ,m,1,0.1,-12.76602364,1.23857364
63541b844de6259dad4ce489,12,0,2024-02-28T14:38:22.874Z,english_114.wav,0,pill,3109,38,5,5,français ,m,2,0.2,0.32729235,0.44881648
63541b844de6259dad4ce489,12,0,2024-02-28T14:38:22.874Z,english_114.wav,0,pill,3109,38,5,5,français ,m,3,0.3,-29.2958396,1.47628631
63541b844de6259dad4ce489,12,0,2024-02-28T14:38:22.874Z,english_114.wav,0,pill,3109,38,5,5,français ,m,4,0.4,-44.05321795,1.29960212
63541b844de6259dad4ce489,12,0,2024-02-28T14:38:22.874Z,english_114.wav,0,pill,3109,38,5,5,français ,m,5,0.5,77.26891482,0.86625142
63541b844de6259dad4ce489,12,0,2024-02-28T14:38:22.874Z,english_114.wav,0,pill,3109,38,5,5,français ,m,6,0.6,-80.80990528,1.18678323
63541b844de6259dad4ce489,12,0,2024-02-28T14:38:22.874Z,english_114.wav,0,pill,3109,38,5,5,français ,m,7,0.7,-78.02585179,0.40341658
63541b844de6259dad4ce489,12,0,2024-02-28T14:38:22.874Z,english_114.wav,0,pill,3109,38,5,5,français ,m,8,0.8,14.37560873,0.69236485
63541b844de6259dad4ce489,12,0,2024-02-28T14:38:22.874Z,english_114.wav,0,pill,3109,38,5,5,français ,m,9,0.9,-41.68954869,0.99173078
63541b844de6259dad4ce489,12,0,2024-02-28T14:38:22.874Z,english_114.wav,0,pill,3109,38,5,5,français ,m,10,1.0,-51.42719285,0.71091923
63541b844de6259dad4ce489,12,0,2024-02-28T14:38:22.874Z,english_114.wav,0,pill,3109,38,5,5,français ,m,11,1.09391667,29.02505558,1.73837671
63541b844de6259dad4ce489,13,0,2024-02-28T14:38:22.874Z,english_314.wav,0,peel,8211,38,5,5,français ,m,0,0.0,-72.77248659,0.8900907
63541b844de6259dad4ce489,13,0,2024-02-28T14:38:22.874Z,english_314.wav,0,peel,8211,38,5,5,français ,m,1,0.1,-16.3777023,0.59416925
63541b844de6259dad4ce489,13,0,2024-02-28T14:38:22.874Z,english_314.wav,0,peel,8211,38,5,5,français ,m,2,0.2,-54.89367252,1.27689755
63541b844de6259dad4ce489,13,0,2024-02-28T14:38:22.874Z,english_314.wav,0,peel,8211,38,5,5,français ,m,3,0.3,-94.61910998,0.70275331
63541b844de6259dad4ce489,13,0,2024-02-28T14:38:22.874Z,english_314.wav,0,peel,8211,38,5,5,français ,m,4,0.4,-16.43986335,1.42732001
63541b844de6259dad4ce489,13,0,2024-02-28T14:38:22.874Z,english_314.wav,0,peel,8211,38,5,5,français ,m,5,0.5,22.95549902,0.51357734
63541b844de6259dad4ce489,13,0,2024-02-28T14:38:22.874Z,english_314.wav,0,peel,8211,38,5,5,français ,m,6,0.6,-38.50046808,1.78706659
63541b844de6259dad4ce489,13,0,2024-02-28T14:38:22.874Z,english_314.wav,0,peel,8211,38,5,5,français ,m,7,0.7,94.4546569,0.51196802
63541b844de6259dad4ce489,13,0,2024-02-28T14:38:22.874Z,english_314.wav,0,peel,8211,38,5,5,français ,m,8,0.8,-37.64043119,0.29950004
63541b844de6259dad4ce489,13,0,2024-02-28T14:38:22.874Z,english_314.wav,0,peel,8211,38,5,5,français ,m,9,0.9,48.39030237,0.69158189
63541b844de6259dad4ce489,13,0,2024-02-28T14:38:22.874Z,english_314.wav,0,peel,8211,38,5,5,français ,m,10,1.0,-45.26638295,0.28421865
63541b844de6259dad4ce489,13,0,2024-02-28T14:38:22.874Z,english_314.wav,0,peel,8211,38,5,5,français ,m,11,1.09391667,-45.55554074,1.42591163
63541b844de6259dad4ce489,14,0,2024-02-28T14:38:22.874Z,english_164.wav,0,pill,1117,38,5,5,français ,m,0,0.0,25.67612046,1.60368468
63541b844de6259dad4ce489,14,0,2024-02-28T14:38:22.874Z,english_164.wav,0,pill,1117,38,5,5,français ,m,1,0.1,-73.22421847,0.71109799
63541b844de6259dad4ce489,14,0,2024-02-28T14:38:22.874Z,english_164.wav,0,pill,1117,38,5,5,français ,m,2,0.2,45.60415064,0.65921899
63541b844de6259dad4ce489,14,0,2024-02-28T14:38:22.874Z,english_164.wav,0,pill,1117,38,5,5,français ,m,3,0.3,93.27879502,1.59053842
63541b844de6259dad4ce489,14,0,2024-02-28T14:38:22.874Z,english_164.wav,0,pill,1117,38,5,5,français ,m,4,0.4,33.1762566,0.71799916
63541b844de6259dad4ce489,14,0,2024-02-28T14:38:22.874Z,english_164.wav,0,pill,1117,38,5,5,français ,m,5,0.5,47.64320434,1.2187377
63541b844de6259dad4ce489,14,0,2024-02-28T14:38:22.874Z,english_164.wav,0,pill,1117,38,5,5,français ,m,6,0.6,-19.19510789,1.25318934
63541b844de6259dad4ce489,14,0,2024-02-28T14:38:22.874Z,english_164.wav,0,pill,1117,38,5,5,français ,m,7,0.7,-33.42680653,0.56903982
63541b844de6259dad4ce489,14,0,2024-02-28T14:38:22.874Z,english_164.wav,0,pill,1117,38,5,5,français ,m,8,0.8,47.71435933,0.44355463
63541b844de6259dad4ce489,14,0,2024-02-28T14:38:22.874Z,english_164.wav,0,pill,1117,38,5,5,français ,m,9,0.9,5.90681892,1.65481096
63541b844de6259dad4ce489,14,0,2024-02-28T14:38:22.874Z,english_164.wav,0,pill,1117,38,5,5,français ,m,10,1.0,42.52423942,0.56871191
63541b844de6259dad4ce489,14,0,2024-02-28T14:38:22.874Z,english_164.wav,0,pill,1117,38,5,5,français ,m,11,1.09391667,43.22160039,0.29440298
63541b844de6259dad4ce489,15,0,2024-02-28T14:38:22.874Z,english_555.wav,0,pill,1254,38,5,5,français ,m,0,0.0,-34.01174322,1.1718484
63541b844de6259dad4ce489,15,0,2024-02-28T14:38:22.874Z,english_555.wav,0,pill,1254,38,5,5,français ,m,1,0.1,-25.89446117,1.62544238
63541b844de6259dad4ce489,15,0,2024-02-28T14:38:22.874Z,english_555.wav,0,pill,1254,38,5,5,français ,m,2,0.2,75.37641555,1.85861965
63541b844de6259dad4ce489,15,0,2024-02-28T14:38:22.874Z,english_555.wav,0,pill,1254,38,5,5,français ,m,3,0.3,3.6750175,1.93143492
63541b844de6259dad4ce489,15,0,2024-02-28T14:38:22.874Z,english_555.wav,0,pill,1254,38,5,5,français ,m,4,0.4,-77.72739176,0.30173375
63541b844de6259dad4ce489,15,0,2024-02-28T14:38:22.874Z,english_555.wav,0,pill,1254,38,5,5,français ,m,5,0.5,-17.06538868,1.28363733
63541b844de6259dad4ce489,15,0,2024-02-28T14:38:22.874Z,english_555.wav,0,pill,1254,38,5,5,français ,m,6,0.6,-37.567139,0.51060309
63541b844de6259dad4ce489,15,0,2024-02-28T14:38:22.874Z,english_555.wav,0,pill,1254,38,5,5,français ,m,7,0.7,-79.94552452,0.80092252
63541b844de6259dad4ce489,15,0,2024-02-28T14:38:22.874Z,english_555.wav,0,pill,1254,38,5,5,français ,m,8,0.8,29.48505151,1.44732027
63541b844de6259dad4ce489,15,0,2024-02-28T14:38:22.874Z,english_555.wav,0,pill,1254,38,5,5,français ,m,9,0.9,-58.857953,0.65157835
63541b844de6259dad4ce489,15,0,2024-02-28T14:38:22.874Z,english_555.wav,0,pill,1254,38,5,5,français ,m,10,1.0,-46.0054019,1.65986599
63541b844de6259dad4ce489,15,0,2024-02-28T14:38:22.874Z,english_555.wav,0,pill,1254,38,5,5,français ,m,11,1.09391667,-89.97133458,1.34311871
63541b844de6259dad4ce489,16,0,2024-02-28T14:38:22.874Z,english_850.wav,0,peel,1317,38,5,5,français ,m,0,0.0,88.4841053,1.0516167
63541b844de6259dad4ce489,16,0,2024-02-28T14:38:22.874Z,english_850.wav,0,peel,1317,38,5,5,français ,m,1,0.1,44.0356076,0.93870726
63541b844de6259dad4ce489,16,0,2024-02-28T14:38:22.874Z,english_850.wav,0,peel,1317,38,5,5,français ,m,2,0.2,36.7211438,0.35713104
63541b844de6259dad4ce489,16,0,2024-02-28T14:38:22.874Z,english_850.wav,0,peel,1317,38,5,5,français ,m,3,0.3,0.0712842206,0.75335241
63541b844de6259dad4ce489,16,0,2024-02-28T14:38:22.874Z,english_850.wav,0,peel,1317,38,5,5,français ,m,4,0.4,-60.510913,0.4836317
63541b844de6259dad4ce489,16,0,2024-02-28T14:38:22.874Z,english_850.wav,0,peel,1317,38,5,5,français ,m,5,0.5,18.6261702,1.19329581
63541b844de6259dad4ce489,16,0,2024-02-28T14:38:22.874Z,english_850.wav,0,peel,1317,38,5,5,français ,m,6,0.6,28.0848248,0.49505096
63541b844de6259dad4ce489,16,0,2024-02-28T14:38:22.874Z,english_850.wav,0,peel,1317,38,5,5,français ,m,7,0.7,77.0757469,0.01443344
63541b844de6259dad4ce489,16,0,2024-02-28T14:38:22.874Z,english_850.wav,0,peel,1317,38,5,5,français ,m,8,0.8,4.44763904,1.44754501
63541b844de6259dad4ce489,16,0,2024-02-28T14:38:22.874Z,english_850.wav,0,peel,1317,38,5,5,français ,m,9,0.9,-78.5523864,1.7444195
63541b844de6259dad4ce489,16,0,2024-02-28T14:38:22.874Z,english_850.wav,0,peel,1317,38,5,5,français ,m,10,1.0,-47.0846658,1.61305952
63541b844de6259dad4ce489,16,0,2024-02-28T14:38:22.874Z,english_850.wav,0,peel,1317,38,5,5,français ,m,11,1.09391667,98.0288694,0.78368458
63541b844de6259dad4ce489,17,0,2024-02-28T14:38:22.874Z,english_851.wav,0,peel,1322,38,5,5,français ,m,0,0.0,-45.21125718,1.95103615
63541b844de6259dad4ce489,17,0,2024-02-28T14:38:22.874Z,english_851.wav,0,peel,1322,38,5,5,français ,m,1,0.1,-85.75475475,0.03053554
63541b844de6259dad4ce489,17,0,2024-02-28T14:38:22.874Z,english_851.wav,0,peel,1322,38,5,5,français ,m,2,0.2,-73.09455341,0.63850244
63541b844de6259dad4ce489,17,0,2024-02-28T14:38:22.874Z,english_851.wav,0,peel,1322,38,5,5,français ,m,3,0.3,1.17370607,0.96719068
63541b844de6259dad4ce489,17,0,2024-02-28T14:38:22.874Z,english_851.wav,0,peel,1322,38,5,5,français ,m,4,0.4,-11.35992748,0.02484013
63541b844de6259dad4ce489,17,0,2024-02-28T14:38:22.874Z,english_851.wav,0,peel,1322,38,5,5,français ,m,5,0.5,42.80073602,0.41750072
63541b844de6259dad4ce489,17,0,2024-02-28T14:38:22.874Z,english_851.wav,0,peel,1322,38,5,5,français ,m,6,0.6,45.07360169,1.17324743
63541b844de6259dad4ce489,17,0,2024-02-28T14:38:22.874Z,english_851.wav,0,peel,1322,38,5,5,français ,m,7,0.7,-42.16100478,0.99186788
63541b844de6259dad4ce489,17,0,2024-02-28T14:38:22.874Z,english_851.wav,0,peel,1322,38,5,5,français ,m,8,0.8,-19.59764742,1.3258141
63541b844de6259dad4ce489,17,0,2024-02-28T14:38:22.874Z,english_851.wav,0,peel,1322,38,5,5,français ,m,9,0.9,-56.7450747,1.2279363
63541b844de6259dad4ce489,17,0,2024-02-28T14:38:22.874Z,english_851.wav,0,peel,1322,38,5,5,français ,m,10,1.0,78.71604463,1.72539035
63541b844de6259dad4ce489,17,0,2024-02-28T14:38:22.874Z,english_851.wav,0,peel,1322,38,5,5,français ,m,11,1.09391667,96.78573361,1.236894
63541b844de6259dad4ce489,18,0,2024-02-28T14:38:22.874Z,english_782.wav,0,peel,1421,38,5,5,français ,m,0,0.0,-78.57843069,1.03549732
63541b844de6259dad4ce489,18,0,2024-02-28T14:38:22.874Z,english_782.wav,0,peel,1421,38,5,5,français ,m,1,0.1,18.46693427,1.37171195
63541b844de6259dad4ce489,18,0,2024-02-28T14:38:22.874Z,english_782.wav,0,peel,1421,38,5,5,français ,m,2,0.2,97.99884289,0.49308363
63541b844de6259dad4ce489,18,0,2024-02-28T14:38:22.874Z,english_782.wav,0,peel,1421,38,5,5,français ,m,3,0.3,62.25752433,1.45239523
63541b844de6259dad4ce489,18,0,2024-02-28T14:38:22.874Z,english_782.wav,0,peel,1421,38,5,5,français ,m,4,0.4,52.39970151,1.75992902
63541b844de6259dad4ce489,18,0,2024-02-28T14:38:22.874Z,english_782.wav,0,peel,1421,38,5,5,français ,m,5,0.5,-14.50018957,1.61112401
63541b844de6259dad4ce489,18,0,2024-02-28T14:38:22.874Z,english_782.wav,0,peel,1421,38,5,5,français ,m,6,0.6,-27.56562213,0.55174203
63541b844de6259dad4ce489,18,0,2024-02-28T14:38:22.874Z,english_782.wav,0,peel,1421,38,5,5,français ,m,7,0.7,45.71631019,1.83852108
63541b844de6259dad4ce489,18,0,2024-02-28T14:38:22.874Z,english_782.wav,0,peel,1421,38,5,5,français ,m,8,0.8,-34.89121843,1.53242335
63541b844de6259dad4ce489,18,0,2024-02-28T14:38:22.874Z,english_782.wav,0,peel,1421,38,5,5,français ,m,9,0.9,23.54778787,0.19128353
63541b844de6259dad4ce489,18,0,2024-02-28T14:38:22.874Z,english_782.wav,0,peel,1421,38,5,5,français ,m,10,1.0,-69.46242817,0.08422805
63541b844de6259dad4ce489,18,0,2024-02-28T14:38:22.874Z,english_782.wav,0,peel,1421,38,5,5,français ,m,11,1.09391667,95.32757353,0.55022533
63541b844de6259dad4ce489,19,0,2024-02-28T14:38:22.874Z,english_247.wav,0,peel,962,38,5,5,français ,m,0,0.0,25.0451381,1.47539451
63541b844de6259dad4ce489,19,0,2024-02-28T14:38:22.874Z,english_247.wav,0,peel,962,38,5,5,français ,m,1,0.1,-0.42762512,0.00273089
63541b844de6259dad4ce489,19,0,2024-02-28T14:38:22.874Z,english_247.wav,0,peel,962,38,5,5,français ,m,2,0.2,6.28793154,1.08361758
63541b844de6259dad4ce489,19,0,2024-02-28T14:38:22.874Z,english_247.wav,0,peel,962,38,5,5,français ,m,3,0.3,-3.67285953,1.41054103
63541b844de6259dad4ce489,19,0,2024-02-28T14:38:22.874Z,english_247.wav,0,peel,962,38,5,5,français ,m,4,0.4,72.86099671,0.74915888
63541b844de6259dad4ce489,19,0,2024-02-28T14:38:22.874Z,english_247.wav,0,peel,962,38,5,5,français ,m,5,0.5,4.14559404,1.69392232
63541b844de6259dad4ce489,19,0,2024-02-28T14:38:22.874Z,english_247.wav,0,peel,962,38,5,5,français ,m,6,0.6,25.40906202,1.26493683
63541b844de6259dad4ce489,19,0,2024-02-28T14:38:22.874Z,english_247.wav,0,peel,962,38,5,5,français ,m,7,0.7,-4.12042736,0.1138778
63541b844de6259dad4ce489,19,0,2024-02-28T14:38:22.874Z,english_247.wav,0,peel,962,38,5,5,français ,m,8,0.8,34.39220846,1.15663669
63541b844de6259dad4ce489,19,0,2024-02-28T14:38:22.874Z,english_247.wav,0,peel,962,38,5,5,français ,m,9,0.9,-47.96329468,1.48677288
63541b844de6259dad4ce489,19,0,2024-02-28T14:38:22.874Z,english_247.wav,0,peel,962,38,5,5,français ,m,10,1.0,84.41515092,0.39384904
63541b844de6259dad4ce489,19,0,2024-02-28T14:38:22.874Z,english_247.wav,0,peel,962,38,5,5,français ,m,11,1.09391667,76.12511321,0.02417049
63541b844de6259dad4ce489,20,0,2024-02-28T14:38:22.874Z,english_191.wav,0,peel,865,38,5,5,français ,m,0,0.0,-24.02277358,1.0914461
63541b844de6259dad4ce489,20,0,2024-02-28T14:38:22.874Z,english_191.wav,0,peel,865,38,5,5,français ,m,1,0.1,63.4439463,0.33098092
63541b844de6259dad4ce489,20,0,2024-02-28T14:38:22.874Z,english_191.wav,0,peel,865,38,5,5,français ,m,2,0.2,-22.47731103,1.86196051
63541b844de6259dad4ce489,20,0,2024-02-28T14:38:22.874Z,english_191.wav,0,peel,865,38,5,5,français ,m,3,0.3,-9.99025732,0.09450542
63541b844de6259dad4ce489,20,0,2024-02-28T14:38:22.874Z,english_191.wav,0,peel,865,38,5,5,français ,m,4,0.4,58.56180387,1.1158369
63541b844de6259dad4ce489,20,0,2024-02-28T14:38:22.874Z,english_191.wav,0,peel,865,38,5,5,français ,m,5,0.5,62.8001027,0.90347235
63541b844de6259dad4ce489,20,0,2024-02-28T14:38:22.874Z,english_191.wav,0,peel,865,38,5,5,français ,m,6,0.6,15.39253294,1.55895669
63541b844de6259dad4ce489,20,0,2024-02-28T14:38:22.874Z,english_191.wav,0,peel,865,38,5,5,français ,m,7,0.7,56.82172684,1.11486536
63541b844de6259dad4ce489,20,0,2024-02-28T14:38:22.874Z,english_191.wav,0,peel,865,38,5,5,français ,m,8,0.8,-77.92272587,0.70296155
63541b844de6259dad4ce489,20,0,2024-02-28T14:38:22.874Z,english_191.wav,0,peel,865,38,5,5,français ,m,9,0.9,-72.7474465,1.56868029
63541b844de6259dad4ce489,20,0,2024-02-28T14:38:22.874Z,english_191.wav,0,peel,865,38,5,5,français ,m,10,1.0,-73.86130367,1.33347033
63541b844de6259dad4ce489,20,0,2024-02-28T14:38:22.874Z,english_191.wav,0,peel,865,38,5,5,français ,m,11,1.09391667,-78.65780479,1.27370222
63541b844de6259dad4ce489,21,0,2024-02-28T14:38:22.874Z,english_989.wav,0,pill,785,38,5,5,français ,m,0,0.0,82.98869891,0.1174877
63541b844de6259dad4ce489,21,0,2024-02-28T14:38:22.874Z,english_989.wav,0,pill,785,38,5,5,français ,m,1,0.1,24.01311559,0.45178594
63541b844de6259dad4ce489,21,0,2024-02-28T14:38:22.874Z,english_989.wav,0,pill,785,38,5,5,français ,m,2,0.2,71.48528654,1.23946025
63541b844de6259dad4ce489,21,0,2024-02-28T14:38:22.874Z,english_989.wav,0,pill,785,38,5,5,français ,m,3,0.3,82.44483013,1.76656678
63541b844de6259dad4ce489,21,0,2024-02-28T14:38:22.874Z,english_989.wav,0,pill,785,38,5,5,français ,m,4,0.4,98.48869079,0.06101367
63541b844de6259dad4ce489,21,0,2024-02-28T14:38:22.874Z,english_989.wav,0,pill,785,38,5,5,français ,m,5,0.5,52.58496553,0.35631173
63541b844de6259dad4ce489,21,0,2024-02-28T14:38:22.874Z,english_989.wav,0,pill,785,38,5,5,français ,m,6,0.6,-12.54848129,0.41315994
63541b844de6259dad4ce489,21,0,2024-02-28T14:38:22.874Z,english_989.wav,0,pill,785,38,5,5,français ,m,7,0.7,-85.91000404,1.50303793
63541b844de6259dad4ce489,21,0,2024-02-28T14:38:22.874Z,english_989.wav,0,pill,785,38,5,5,français ,m,8,0.8,-71.42298859,0.56943281
63541b844de6259dad4ce489,21,0,2024-02-28T14:38:22.874Z,english_989.wav,0,pill,785,38,5,5,français ,m,9,0.9,25.94025435,1.73902477
63541b844de6259dad4ce489,21,0,2024-02-28T14:38:22.874Z,english_989.wav,0,pill,785,38,5,5,français ,m,10,1.0,87.85887099,1.10677421
63541b844de6259dad4ce489,21,0,2024-02-28T14:38:22.874Z,english_989.wav,0,pill,785,38,5,5,français ,m,11,1.09391667,-0.32541585,1.65366883
63541b844de6259dad4ce489,22,0,2024-02-28T14:38:22.874Z,english_652.wav,0,peel,279,38,5,5,français ,m,0,0.0,-6.47134423,1.78340321
63541b844de6259dad4ce489,22,0,2024-02-28T14:38:22.874Z,english_652.wav,0,peel,279,38,5,5,français ,m,1,0.1,15.08810971,1.37348527
63541b844de6259dad4ce489,22,0,2024-02-28T14:38:22.874Z,english_652.wav,0,peel,279,38,5,5,français ,m,2,0.2,98.29631383,0.90438715
63541b844de6259dad4ce489,22,0,2024-02-28T14:38:22.874Z,english_652.wav,0,peel,279,38,5,5,français ,m,3,0.3,30.58339985,0.90448146
63541b844de6259dad4ce489,22,0,2024-02-28T14:38:22.874Z,english_652.wav,0,peel,279,38,5,5,français ,m,4,0.4,-6.30529528,0.6194213
63541b844de6259dad4ce489,22,0,2024-02-28T14:38:22.874Z,english_652.wav,0,peel,279,38,5,5,français ,m,5,0.5,-44.5601624,1.03986034
63541b844de6259dad4ce489,22,0,2024-02-28T14:38:22.874Z,english_652.wav,0,peel,279,38,5,5,français ,m,6,0.6,4.47931007,0.52762796
63541b844de6259dad4ce489,22,0,2024-02-28T14:38:22.874Z,english_652.wav,0,peel,279,38,5,5,français ,m,7,0.7,-52.28319513,0.92865907
63541b844de6259dad4ce489,22,0,2024-02-28T14:38:22.874Z,english_652.wav,0,peel,279,38,5,5,français ,m,8,0.8,17.6405793,1.28477406
63541b844de6259dad4ce489,22,0,2024-02-28T14:38:22.874Z,english_652.wav,0,peel,279,38,5,5,français ,m,9,0.9,2.7192508,1.34724363
63541b844de6259dad4ce489,22,0,2024-02-28T14:38:22.874Z,english_652.wav,0,peel,279,38,5,5,français ,m,10,1.0,-8.76412426,1.76490877
63541b844de6259dad4ce489,22,0,2024-02-28T14:38:22.874Z,english_652.wav,0,peel,279,38,5,5,français ,m,11,1.09391667,53.37366327,1.20575877
63541b844de6259dad4ce489,23,0,2024-02-28T14:38:22.874Z,english_986.wav,0,pill,791,38,5,5,français ,m,0,0.0,66.66952336,1.97934099
63541b844de6259dad4ce489,23,0,2024-02-28T14:38:22.874Z,english_986.wav,0,pill,791,38,5,5,français ,m,1,0.1,96.9530251,1.29460225
63541b844de6259dad4ce489,23,0,2024-02-28T14:38:22.874Z,english_986.wav,0,pill,791,38,5,5,français ,m,2,0.2,75.3477354,1.53421825
63541b844de6259dad4ce489,23,0,2024-02-28T14:38:22.874Z,english_986.wav,0,pill,791,38,5,5,français ,m,3,0.3,-56.79707668,1.45039514
63541b844de6259dad4ce489,23,0,2024-02-28T14:38:22.874Z,english_986.wav,0,pill,791,38,5,5,français ,m,4,0.4,68.50410973,0.98893675
63541b844de6259dad4ce489,23,0,2024-02-28T14:38:22.874Z,english_986.wav,0,pill,791,38,5,5,français ,m,5,0.5,5.80156778,1.73927101
63541b844de6259dad4ce489,23,0,2024-02-28T14:38:22.874Z,english_986.wav,0,pill,791,38,5,5,français ,m,6,0.6,-59.00857509,1.32684672
63541b844de6259dad4ce489,23,0,2024-02-28T14:38:22.874Z,english_986.wav,0,pill,791,38,5,5,français ,m,7,0.7,23.78788766,1.65077043
63541b844de6259dad4ce489,23,0,2024-02-28T14:38:22.874Z,english_986.wav,0,pill,791,38,5,5,français ,m,8,0.8,8.31255478,1.05904427
63541b844de6259dad4ce489,23,0,2024-02-28T14:38:22.874Z,english_986.wav,0,pill,791,38,5,5,français ,m,9,0.9,-23.40072537,0.79622744
63541b844de6259dad4ce489,23,0,2024-02-28T14:38:22.874Z,english_986.wav,0,pill,791,38,5,5,français ,m,10,1.0,36.6022418,1.94329627
63541b844de6259dad4ce489,23,0,2024-02-28T14:38:22.874Z,english_986.wav,0,pill,791,38,5,5,français ,m,11,1.09391667,-51.87443186,1.45912014
63541b844de6259dad4ce489,24,0,2024-02-28T14:38:22.874Z,english_641.wav,0,pill,814,38,5,5,français ,m,0,0.0,-56.87244415,1.15062728
63541b844de6259dad4ce489,24,0,2024-02-28T14:38:22.874Z,english_641.wav,0,pill,814,38,5,5,français ,m,1,0.1,-25.32063716,1.3865292
63541b844de6259dad4ce489,24,0,2024-02-28T14:38:22.874Z,english_641.wav,0,pill,814,38,5,5,français ,m,2,0.2,-5.88353384,0.86586276
63541b844de6259dad4ce489,24,0,2024-02-28T14:38:22.874Z,english_641.wav,0,pill,814,38,5,5,français ,m,3,0.3,35.0793016,0.52496071
63541b844de6259dad4ce489,24,0,2024-02-28T14:38:22.874Z,english_641.wav,0,pill,814,38,5,5,français ,m,4,0.4,-54.26160262,1.18035907
63541b844de6259dad4ce489,24,0,2024-02-28T14:38:22.874Z,english_641.wav,0,pill,814,38,5,5,français ,m,5,0.5,-96.41482633,0.99701793
63541b844de6259dad4ce489,24,0,2024-02-28T14:38:22.874Z,english_641.wav,0,pill,814,38,5,5,français ,m,6,0.6,34.31473412,1.64172116
63541b844de6259dad4ce489,24,0,2024-02-28T14:38:22.874Z,english_641.wav,0,pill,814,38,5,5,français ,m,7,0.7,51.96003607,0.67765657
63541b844de6259dad4ce489,24,0,2024-02-28T14:38:22.874Z,english_641.wav,0,pill,814,38,5,5,français ,m,8,0.8,-33.45212271,0.80691049
63541b844de6259dad4ce489,24,0,2024-02-28T14:38:22.874Z,english_641.wav,0,pill,814,38,5,5,français ,m,9,0.9,-60.40755471,0.17932902
63541b844de6259dad4ce489,24,0,2024-02-28T14:38:22.874Z,english_641.wav,0,pill,814,38,5,5,français ,m,10,1.0,-61.65050267,0.69415745
63541b844de6259dad4ce489,24,0,2024-02-28T14:38:22.874Z,english_641.wav,0,pill,814,38,5,5,français ,m,11,1.09391667,-31.34713696,0.80800103
63541b844de6259dad4ce489,25,0,2024-02-28T14:38:22.874Z,english_656.wav,0,peel,1209,38,5,5,français ,m,0,0.0,-81.79066312,1.40445152
63541b844de6259dad4ce489,25,0,2024-02-28T14:38:22.874Z,english_656.wav,0,peel,1209,38,5,5,français ,m,1,0.1,82.04093637,1.3245448
63541b844de6259dad4ce489,25,0,2024-02-28T14:38:22.874Z,english_656.wav,0,peel,1209,38,5,5,français ,m,2,0.2,-52.28001609,1.15771434
63541b844de6259dad4ce489,25,0,2024-02-28T14:38:22.874Z,english_656.wav,0,peel,1209,38,5,5,français ,m,3,0.3,67.28232458,1.36671169
63541b844de6259dad4ce489,25,0,2024-02-28T14:38:22.874Z,english_656.wav,0,peel,1209,38,5,5,français ,m,4,0.4,-93.82911819,1.65032622
63541b844de6259dad4ce489,25,0,2024-02-28T14:38:22.874Z,english_656.wav,0,peel,1209,38,5,5,français ,m,5,0.5,-25.69923398,0.37873681
63541b844de6259dad4ce489,25,0,2024-02-28T14:38:22.874Z,english_656.wav,0,peel,1209,38,5,5,français ,m,6,0.6,-22.63880376,0.51917639
63541b844de6259dad4ce489,25,0,2024-02-28T14:38:22.874Z,english_656.wav,0,peel,1209,38,5,5,français ,m,7,0.7,28.9128231,1.1632187
63541b844de6259dad4ce489,25,0,2024-02-28T14:38:22.874Z,english_656.wav,0,peel,1209,38,5,5,français ,m,8,0.8,-87.87621278,0.95022034
63541b844de6259dad4ce489,25,0,2024-02-28T14:38:22.874Z,english_656.wav,0,peel,1209,38,5,5,français ,m,9,0.9,-32.99395829,1.57205129
63541b844de6259dad4ce489,25,0,2024-02-28T14:38:22.874Z,english_656.wav,0,peel,1209,38,5,5,français ,m,10,1.0,67.88283241,0.61260001
63541b844de6259dad4ce489,25,0,2024-02-28T14:38:22.874Z,english_656.wav,0,peel,1209,38,5,5,français ,m,11,1.09391667,-65.62849391,1.24421279
63541b844de6259dad4ce489,26,0,2024-02-28T14:38:22.874Z,english_653.wav,0,pill,486,38,5,5,français ,m,0,0.0,41.8259341,0.17533452
63541b844de6259dad4ce489,26,0,2024-02-28T14:38:22.874Z,english_653.wav,0,pill,486,38,5,5,français ,m,1,0.1,17.38671322,1.08757539
63541b844de6259dad4ce489,26,0,2024-02-28T14:38:22.874Z,english_653.wav,0,pill,486,38,5,5,français ,m,2,0.2,86.12532741,1.96334993
63541b844de6259dad4ce489,26,0,2024-02-28T14:38:22.874Z,english_653.wav,0,pill,486,38,5,5,français ,m,3,0.3,-33.72650973,1.47062591
63541b844de6259dad4ce489,26,0,2024-02-28T14:38:22.874Z,english_653.wav,0,pill,486,38,5,5,français ,m,4,0.4,-40.64508362,1.06368379
63541b844de6259dad4ce489,26,0,2024-02-28T14:38:22.874Z,english_653.wav,0,pill,486,38,5,5,français ,m,5,0.5,29.34700904,1.07766545
63541b844de6259dad4ce489,26,0,2024-02-28T14:38:22.874Z,english_653.wav,0,pill,486,38,5,5,français ,m,6,0.6,-10.62645481,1.32143854
63541b844de6259dad4ce489,26,0,2024-02-28T14:38:22.874Z,english_653.wav,0,pill,486,38,5,5,français ,m,7,0.7,-39.23364733,0.74682372
63541b844de6259dad4ce489,26,0,2024-02-28T14:38:22.874Z,english_653.wav,0,pill,486,38,5,5,français ,m,8,0.8,1.23936202,0.56607345
63541b844de6259dad4ce489,26,0,2024-02-28T14:38:22.874Z,english_653.wav,0,pill,486,38,5,5,français ,m,9,0.9,54.61023708,0.97558446
63541b844de6259dad4ce489,26,0,2024-02-28T14:38:22.874Z,english_653.wav,0,pill,486,38,5,5,français ,m,10,1.0,68.93146106,0.53847025
63541b844de6259dad4ce489,26,0,2024-02-28T14:38:22.874Z,english_653.wav,0,pill,486,38,5,5,français ,m,11,1.09391667,98.0100566,0.14439152
63541b844de6259dad4ce489,27,0,2024-02-28T14:38:22.874Z,english_726.wav,0,pill,612,38,5,5,français ,m,0,0.0,23.35137092,0.15397845
63541b844de6259dad4ce489,27,0,2024-02-28T14:38:22.874Z,english_726.wav,0,pill,612,38,5,5,français ,m,1,0.1,76.34325819,1.80908671
63541b844de6259dad4ce489,27,0,2024-02-28T14:38:22.874Z,english_726.wav,0,pill,612,38,5,5,français ,m,2,0.2,77.87153215,0.91237222
63541b844de6259dad4ce489,27,0,2024-02-28T14:38:22.874Z,english_726.wav,0,pill,612,38,5,5,français ,m,3,0.3,45.89033074,0.3916486
63541b844de6259dad4ce489,27,0,2024-02-28T14:38:22.874Z,english_726.wav,0,pill,612,38,5,5,français ,m,4,0.4,-92.46008591,1.60354114
63541b844de6259dad4ce489,27,0,2024-02-28T14:38:22.874Z,english_726.wav,0,pill,612,38,5,5,français ,m,5,0.5,-89.27810563,0.90173572
63541b844de6259dad4ce489,27,0,2024-02-28T14:38:22.874Z,english_726.wav,0,pill,612,38,5,5,français ,m,6,0.6,61.30206765,1.86939155
63541b844de6259dad4ce489,27,0,2024-02-28T14:38:22.874Z,english_726.wav,0,pill,612,38,5,5,français ,m,7,0.7,68.07705407,0.57523975
63541b844de6259dad4ce489,27,0,2024-02-28T14:38:22.874Z,english_726.wav,0,pill,612,38,5,5,français ,m,8,0.8,47.81218941,0.88835081
63541b844de6259dad4ce489,27,0,2024-02-28T14:38:22.874Z,english_726.wav,0,pill,612,38,5,5,français ,m,9,0.9,85.67647673,0.33175344
63541b844de6259dad4ce489,27,0,2024-02-28T14:38:22.874Z,english_726.wav,0,pill,612,38,5,5,français ,m,10,1.0,69.08166842,0.8335266
63541b844de6259dad4ce489,27,0,2024-02-28T14:38:22.874Z,english_726.wav,0,pill,612,38,5,5,français ,m,11,1.09391667,71.61978118,0.36613886
63541b844de6259dad4ce489,28,0,2024-02-28T14:38:22.874Z,english_991.wav,0,peel,1590,38,5,5,français ,m,0,0.0,-1.1896089,1.11058757
63541b844de6259dad4ce489,28,0,2024-02-28T14:38:22.874Z,english_991.wav,0,peel,1590,38,5,5,français ,m,1,0.1,-96.26402249,0.1672209
63541b844de6259dad4ce489,28,0,2024-02-28T14:38:22.874Z,english_991.wav,0,peel,1590,38,5,5,français ,m,2,0.2,35.13230964,1.95155766
63541b844de6259dad4ce489,28,0,2024-02-28T14:38:22.874Z,english_991.wav,0,peel,1590,38,5,5,français ,m,3,0.3,16.47291022,0.04651437
63541b844de6259dad4ce489,28,0,2024-02-28T14:38:22.874Z,english_991.wav,0,peel,1590,38,5,5,français ,m,4,0.4,-88.97016612,1.74859016
63541b844de6259dad4ce489,28,0,2024-02-28T14:38:22.874Z,english_991.wav,0,peel,1590,38,5,5,français ,m,5,0.5,-18.26917978,1.4122656
63541b844de6259dad4ce489,28,0,2024-02-28T14:38:22.874Z,english_991.wav,0,peel,1590,38,5,5,français ,m,6,0.6,-86.44611587,0.52281086
63541b844de6259dad4ce489,28,0,2024-02-28T14:38:22.874Z,english_991.wav,0,peel,1590,38,5,5,français ,m,7,0.7,-23.18394533,1.29572944
63541b844de6259dad4ce489,28,0,2024-02-28T14:38:22.874Z,english_991.wav,0,peel,1590,38,5,5,français ,m,8,0.8,-34.88810698,1.11115335
63541b844de6259dad4ce489,28,0,2024-02-28T14:38:22.874Z,english_991.wav,0,peel,1590,38,5,5,français ,m,9,0.9,58.2484142,1.29146841
63541b844de6259dad4ce489,28,0,2024-02-28T14:38:22.874Z,english_991.wav,0,peel,1590,38,5,5,français ,m,10,1.0,13.64122516,1.37847477
63541b844de6259dad4ce489,28,0,2024-02-28T14:38:22.874Z,english_991.wav,0,peel,1590,38,5,5,français ,m,11,1.09391667,-13.61979163,0.12249008
63541b844de6259dad4ce489,29,0,2024-02-28T14:38:22.874Z,english_663.wav,0,peel,491,38,5,5,français ,m,0,0.0,25.59053478,1.78737857
63541b844de6259dad4ce489,29,0,2024-02-28T14:38:22.874Z,english_663.wav,0,peel,491,38,5,5,français ,m,1,0.1,-58.99857374,1.42240818
63541b844de6259dad4ce489,29,0,2024-02-28T14:38:22.874Z,english_663.wav,0,peel,491,38,5,5,français ,m,2,0.2,-5.24989333,1.3064588
63541b844de6259dad4ce489,29,0,2024-02-28T14:38:22.874Z,english_663.wav,0,peel,491,38,5,5,français ,m,3,0.3,-69.09303088,0.70237579
63541b844de6259dad4ce489,29,0,2024-02-28T14:38:22.874Z,english_663.wav,0,peel,491,38,5,5,français ,m,4,0.4,-45.4002244,1.46111329
63541b844de6259dad4ce489,29,0,2024-02-28T14:38:22.874Z,english_663.wav,0,peel,491,38,5,5,français ,m,5,0.5,-34.03427643,0.83880831
63541b844de6259dad4ce489,29,0,2024-02-28T14:38:22.874Z,english_663.wav,0,peel,491,38,5,5,français ,m,6,0.6,-19.18804463,1.08172691
63541b844de6259dad4ce489,29,0,2024-02-28T14:38:22.874Z,english_663.wav,0,peel,491,38,5,5,français ,m,7,0.7,-64.51254164,1.55901958
63541b844de6259dad4ce489,29,0,2024-02-28T14:38:22.874Z,english_663.wav,0,peel,491,38,5,5,français ,m,8,0.8,54.38008437,0.76271714
63541b844de6259dad4ce489,29,0,2024-02-28T14:38:22.874Z,english_663.wav,0,peel,491,38,5,5,français ,m,9,0.9,-75.85045717,1.07438518
63541b844de6259dad4ce489,29,0,2024-02-28T14:38:22.874Z,english_663.wav,0,peel,491,38,5,5,français ,m,10,1.0,38.1526186,1.50748802
63541b844de6259dad4ce489,29,0,2024-02-28T14:38:22.874Z,english_663.wav,0,peel,491,38,5,5,français ,m,11,1.09391667,60.1980267,1.3123631
63541b844de6259dad4ce489,30,0,2024-02-28T14:38:22.874Z,english_319.wav,0,peel,835,38,5,5,français ,m,0,0.0,77.16443591,0.7420308
63541b844de6259dad4ce489,30,0,2024-02-28T14:38:22.874Z,english_319.wav,0,peel,835,38,5,5,français ,m,1,0.1,-97.50447801,0.79369359
63541b844de6259dad4ce489,30,0,2024-02-28T14:38:22.874Z,english_319.wav,0,peel,835,38,5,5,français ,m,2,0.2,48.22320359,0.01474693
63541b844de6259dad4ce489,30,0,2024-02-28T14:38:22.874Z,english_319.wav,0,peel,835,38,5,5,français ,m,3,0.3,85.69365628,0.05089627
63541b844de6259dad4ce489,30,0,2024-02-28T14:38:22.874Z,english_319.wav,0,peel,835,38,5,5,français ,m,4,0.4,-99.19363603,1.27499461
63541b844de6259dad4ce489,30,0,2024-02-28T14:38:22.874Z,english_319.wav,0,peel,835,38,5,5,français ,m,5,0.5,-23.7721795,1.87204787
63541b844de6259dad4ce489,30,0,2024-02-28T14:38:22.874Z,english_319.wav,0,peel,835,38,5,5,français ,m,6,0.6,69.35156136,1.81900072
63541b844de6259dad4ce489,30,0,2024-02-28T14:38:22.874Z,english_319.wav,0,peel,835,38,5,5,français ,m,7,0.7,-45.28598517,1.18018
63541b844de6259dad4ce489,30,0,2024-02-28T14:38:22.874Z,english_319.wav,0,peel,835,38,5,5,français ,m,8,0.8,-63.05288391,1.07853439
63541b844de6259dad4ce489,30,0,2024-02-28T14:38:22.874Z,english_319.wav,0,peel,835,38,5,5,français ,m,9,0.9,-37.89893573,1.96522233
63541b844de6259dad4ce489,30,0,2024-02-28T14:38:22.874Z,english_319.wav,0,peel,835,38,5,5,français ,m,10,1.0,-33.85226459,1.95815374
63541b844de6259dad4ce489,30,0,2024-02-28T14:38:22.874Z,english_319.wav,0,peel,835,38,5,5,français ,m,11,1.09391667,-77.07753192,1.86512983
63541b844de6259dad4ce489,31,0,2024-02-28T14:38:22.874Z,english_317.wav,0,pill,758,38,5,5,français ,m,0,0.0,35.80517537,1.51358533
63541b844de6259dad4ce489,31,0,2024-02-28T14:38:22.874Z,english_317.wav,0,pill,758,38,5,5,français ,m,1,0.1,-47.20528256,0.29972078
63541b844de6259dad4ce489,31,0,2024-02-28T14:38:22.874Z,english_317.wav,0,pill,758,38,5,5,français ,m,2,0.2,10.16864163,1.18281069
63541b844de6259dad4ce489,31,0,2024-02-28T14:38:22.874Z,english_317.wav,0,pill,758,38,5,5,français ,m,3,0.3,32.59206289,1.39231518
63541b844de6259dad4ce489,31,0,2024-02-28T14:38:22.874Z,english_317.wav,0,pill,758,38,5,5,français ,m,4,0.4,20.53754814,1.77974686
63541b844de6259dad4ce489,31,0,2024-02-28T14:38:22.874Z,english_317.wav,0,pill,758,38,5,5,français ,m,5,0.5,-78.8593211,1.1695001
63541b844de6259dad4ce489,31,0,2024-02-28T14:38:22.874Z,english_317.wav,0,pill,758,38,5,5,français ,m,6,0.6,-97.96541086,1.77666203
63541b844de6259dad4ce489,31,0,2024-02-28T14:38:22.874Z,english_317.wav,0,pill,758,38,5,5,français ,m,7,0.7,49.60543729,0.8164879
63541b844de6259dad4ce489,31,0,2024-02-28T14:38:22.874Z,english_317.wav,0,pill,758,38,5,5,français ,m,8,0.8,-69.92457952,0.08502592
63541b844de6259dad4ce489,31,0,2024-02-28T14:38:22.874Z,english_317.wav,0,pill,758,38,5,5,français ,m,9,0.9,-3.69767957,1.29069951
63541b844de6259dad4ce489,31,0,2024-02-28T14:38:22.874Z,english_317.wav,0,pill,758,38,5,5,français ,m,10,1.0,-3.35302539,0.64002495
63541b844de6259dad4ce489,31,0,2024-02-28T14:38:22.874Z,english_317.wav,0,pill,758,38,5,5,français ,m,11,1.09391667,29.32411719,1.74584587
63541b844de6259dad4ce489,32,0,2024-02-28T14:38:22.874Z,english_511.wav,0,peel,390,38,5,5,français ,m,0,0.0,-85.91778387,1.81402398
63541b844de6259dad4ce489,32,0,2024-02-28T14:38:22.874Z,english_511.wav,0,peel,390,38,5,5,français ,m,1,0.1,45.98194985,0.85637973
63541b844de6259dad4ce489,32,0,2024-02-28T14:38:22.874Z,english_511.wav,0,peel,390,38,5,5,français ,m,2,0.2,-52.53895344,1.26858723
63541b844de6259dad4ce489,32,0,2024-02-28T14:38:22.874Z,english_511.wav,0,peel,390,38,5,5,français ,m,3,0.3,98.13831198,1.07634076
63541b844de6259dad4ce489,32,0,2024-02-28T14:38:22.874Z,english_511.wav,0,peel,390,38,5,5,français ,m,4,0.4,49.65682047,1.31800961
63541b844de6259dad4ce489,32,0,2024-02-28T14:38:22.874Z,english_511.wav,0,peel,390,38,5,5,français ,m,5,0.5,-29.41075208,1.42436558
63541b844de6259dad4ce489,32,0,2024-02-28T14:38:22.874Z,english_511.wav,0,peel,390,38,5,5,français ,m,6,0.6,-30.04012094,1.22174941
63541b844de6259dad4ce489,32,0,2024-02-28T14:38:22.874Z,english_511.wav,0,peel,390,38,5,5,français ,m,7,0.7,37.41853206,1.40902868
63541b844de6259dad4ce489,32,0,2024-02-28T14:38:22.874Z,english_511.wav,0,peel,390,38,5,5,français ,m,8,0.8,23.33118627,1.14954472
63541b844de6259dad4ce489,32,0,2024-02-28T14:38:22.874Z,english_511.wav,0,peel,390,38,5,5,français ,m,9,0.9,-72.81592551,0.62932842
63541b844de6259dad4ce489,32,0,2024-02-28T14:38:22.874Z,english_511.wav,0,peel,390,38,5,5,français ,m,10,1.0,22.84370031,1.0343403
63541b844de6259dad4ce489,32,0,2024-02-28T14:38:22.874Z,english_511.wav,0,peel,390,38,5,5,français ,m,11,1.09391667,31.18033436,1.81184982
63541b844de6259dad4ce489,33,0,2024-02-28T14:38:22.874Z,english_513.wav,0,peel,774,38,5,5,français ,m,0,0.0,69.69423026,1.14751405
63541b844de6259dad4ce489,33,0,2024-02-28T14:38:22.874Z,english_513.wav,0,peel,774,38,5,5,français ,m,1,0.1,-61.65221054,0.70036193
63541b844de6259dad4ce489,33,0,2024-02-28T14:38:22.874Z,english_513.wav,0,peel,774,38,5,5,français ,m,2,0.2,12.06620713,1.7124885
63541b844de6259dad4ce489,33,0,2024-02-28T14:38:22.874Z,english_513.wav,0,peel,774,38,5,5,français ,m,3,0.3,68.31024972,0.98016869
63541b844de6259dad4ce489,33,0,2024-02-28T14:38:22.874Z,english_513.wav,0,peel,774,38,5,5,français ,m,4,0.4,74.12641094,0.11366006
63541b844de6259dad4ce489,33,0,2024-02-28T14:38:22.874Z,english_513.wav,0,peel,774,38,5,5,français ,m,5,0.5,6.77833978,0.43979592
63541b844de6259dad4ce489,33,0,2024-02-28T14:38:22.874Z,english_513.wav,0,peel,774,38,5,5,français ,m,6,0.6,-4.07072349,1.91776754
63541b844de6259dad4ce489,33,0,2024-02-28T14:38:22.874Z,english_513.wav,0,peel,774,38,5,5,français ,m,7,0.7,-75.18978196,0.49107068
63541b844de6259dad4ce489,33,0,2024-02-28T14:38:22.874Z,english_513.wav,0,peel,774,38,5,5,français ,m,8,0.8,-25.44315508,0.92055325
63541b844de6259dad4ce489,33,0,2024-02-28T14:38:22.874Z,english_513.wav,0,peel,774,38,5,5,français ,m,9,0.9,1.64473536,0.8410121
63541b844de6259dad4ce489,33,0,2024-02-28T14:38:22.874Z,english_513.wav,0,peel,774,38,5,5,français ,m,10,1.0,-82.34234751,0.34671239
63541b844de6259dad4ce489,33,0,2024-02-28T14:38:22.874Z,english_513.wav,0,peel,774,38,5,5,français ,m,11,1.09391667,-17.87879592,1.52659427
63541b844de6259dad4ce489,34,0,2024-02-28T14:38:22.874Z,english_516.wav,0,pill,857,38,5,5,français ,m,0,0.0,65.27468838,0.72548384
63541b844de6259dad4ce489,34,0,2024-02-28T14:38:22.874Z,english_516.wav,0,pill,857,38,5,5,français ,m,1,0.1,28.38678538,1.78002716
63541b844de6259dad4ce489,34,0,2024-02-28T14:38:22.874Z,english_516.wav,0,pill,857,38,5,5,français ,m,2,0.2,-16.29491298,1.52601333
63541b844de6259dad4ce489,34,0,2024-02-28T14:38:22.874Z,english_516.wav,0,pill,857,38,5,5,français ,m,3,0.3,29.01072094,0.22704286
63541b844de6259dad4ce489,34,0,2024-02-28T14:38:22.874Z,english_516.wav,0,pill,857,38,5,5,français ,m,4,0.4,-47.32267929,1.00592853
63541b844de6259dad4ce489,34,0,2024-02-28T14:38:22.874Z,english_516.wav,0,pill,857,38,5,5,français ,m,5,0.5,-47.60418852,0.3740999
63541b844de6259dad4ce489,34,0,2024-02-28T14:38:22.874Z,english_516.wav,0,pill,857,38,5,5,français ,m,6,0.6,19.91194594,1.89933748
63541b844de6259dad4ce489,34,0,2024-02-28T14:38:22.874Z,english_516.wav,0,pill,857,38,5,5,français ,m,7,0.7,-28.9289623,0.62297075
63541b844de6259dad4ce489,34,0,2024-02-28T14:38:22.874Z,english_516.wav,0,pill,857,38,5,5,français ,m,8,0.8,5.6204603,1.26182982
63541b844de6259dad4ce489,34,0,2024-02-28T14:38:22.874Z,english_516.wav,0,pill,857,38,5,5,français ,m,9,0.9,55.47321842,0.11401837
63541b844de6259dad4ce489,34,0,2024-02-28T14:38:22.874Z,english_516.wav,0,pill,857,38,5,5,français ,m,10,1.0,12.03381774,0.27832104
63541b844de6259dad4ce489,34,0,2024-02-28T14:38:22.874Z,english_516.wav,0,pill,857,38,5,5,français ,m,11,1.09391667,-64.39892236,1.09838576
63541b844de6259dad4ce489,35,0,2024-02-28T14:38:22.874Z,english_604.wav,0,peel,541,38,5,5,français ,m,0,0.0,-7.32786977,0.45756233
63541b844de6259dad4ce489,35,0,2024-02-28T14:38:22.874Z,english_604.wav,0,peel,541,38,5,5,français ,m,1,0.1,-57.46968162,0.00297482
63541b844de6259dad4ce489,35,0,2024-02-28T14:38:22.874Z,english_604.wav,0,peel,541,38,5,5,français ,m,2,0.2,-51.48206507,1.19670532
63541b844de6259dad4ce489,35,0,2024-02-28T14:38:22.874Z,english_604.wav,0,peel,541,38,5,5,français ,m,3,0.3,77.63466913,0.65081773
63541b844de6259dad4ce489,35,0,2024-02-28T14:38:22.874Z,english_604.wav,0,peel,541,38,5,5,français ,m,4,0.4,45.22839705,0.22469511
63541b844de6259dad4ce489,35,0,2024-02-28T14:38:22.874Z,english_604.wav,0,peel,541,38,5,5,français ,m,5,0.5,-27.78980975,0.33338284
63541b844de6259dad4ce489,35,0,2024-02-28T14:38:22.874Z,english_604.wav,0,peel,541,38,5,5,français ,m,6,0.6,-14.67402927,1.91381058
63541b844de6259dad4ce489,35,0,2024-02-28T14:38:22.874Z,english_604.wav,0,peel,541,38,5,5,français ,m,7,0.7,66.92200223,0.36993011
63541b844de6259dad4ce489,35,0,2024-02-28T14:38:22.874Z,english_604.wav,0,peel,541,38,5,5,français ,m,8,0.8,44.7359597,1.21459689
63541b844de6259dad4ce489,35,0,2024-02-28T14:38:22.874Z,english_604.wav,0,peel,541,38,5,5,français ,m,9,0.9,87.34456413,1.1126352
63541b844de6259dad4ce489,35,0,2024-02-28T14:38:22.874Z,english_604.wav,0,peel,541,38,5,5,français ,m,10,1.0,37.61860755,1.39772335
63541b844de6259dad4ce489,35,0,2024-02-28T14:38:22.874Z,english_604.wav,0,peel,541,38,5,5,français ,m,11,1.09391667,91.85438616,1.16252792
63541b844de6259dad4ce489,36,0,2024-02-28T14:38:22.874Z,english_363.wav,0,peel,417,38,5,5,français ,m,0,0.0,-5.66534259,1.60513634
63541b844de6259dad4ce489,36,0,2024-02-28T14:38:22.874Z,english_363.wav,0,peel,417,38,5,5,français ,m,1,0.1,96.57780227,0.93762693
63541b844de6259dad4ce489,36,0,2024-02-28T14:38:22.874Z,english_363.wav,0,peel,417,38,5,5,français ,m,2,0.2,8.75498082,1.53396088
63541b844de6259dad4ce489,36,0,2024-02-28T14:38:22.874Z,english_363.wav,0,peel,417,38,5,5,français ,m,3,0.3,-62.00877197,1.61687943
63541b844de6259dad4ce489,36,0,2024-02-28T14:38:22.874Z,english_363.wav,0,peel,417,38,5,5,français ,m,4,0.4,55.64754403,0.81027283
63541b844de6259dad4ce489,36,0,2024-02-28T14:38:22.874Z,english_363.wav,0,peel,417,38,5,5,français ,m,5,0.5,60.40753337,0.96421289
63541b844de6259dad4ce489,36,0,2024-02-28T14:38:22.874Z,english_363.wav,0,peel,417,38,5,5,français ,m,6,0.6,28.13214645,0.44675755
63541b844de6259dad4ce489,36,0,2024-02-28T14:38:22.874Z,english_363.wav,0,peel,417,38,5,5,français ,m,7,0.7,80.12225937,1.7907484
63541b844de6259dad4ce489,36,0,2024-02-28T14:38:22.874Z,english_363.wav,0,peel,417,38,5,5,français ,m,8,0.8,96.25782192,1.63025461
63541b844de6259dad4ce489,36,0,2024-02-28T14:38:22.874Z,english_363.wav,0,peel,417,38,5,5,français ,m,9,0.9,-69.76671387,1.21594348
63541b844de6259dad4ce489,36,0,2024-02-28T14:38:22.874Z,english_363.wav,0,peel,417,38,5,5,français ,m,10,1.0,60.27804949,1.84929312
63541b844de6259dad4ce489,36,0,2024-02-28T14:38:22.874Z,english_363.wav,0,peel,417,38,5,5,français ,m,11,1.09391667,31.6619376,0.74880834
63541b844de6259dad4ce489,37,0,2024-02-28T14:38:22.874Z,english_805.wav,0,pill,2023,38,5,5,français ,m,0,0.0,19.24000096,0.52175854
63541b844de6259dad4ce489,37,0,2024-02-28T14:38:22.874Z,english_805.wav,0,pill,2023,38,5,5,français ,m,1,0.1,-57.56428934,1.45107426
63541b844de6259dad4ce489,37,0,2024-02-28T14:38:22.874Z,english_805.wav,0,pill,2023,38,5,5,français ,m,2,0.2,-17.74165003,1.66296684
63541b844de6259dad4ce489,37,0,2024-02-28T14:38:22.874Z,english_805.wav,0,pill,2023,38,5,5,français ,m,3,0.3,94.45114709,1.339528
63541b844de6259dad4ce489,37,0,2024-02-28T14:38:22.874Z,english_805.wav,0,pill,2023,38,5,5,français ,m,4,0.4,58.80414928,1.45905309
63541b844de6259dad4ce489,37,0,2024-02-28T14:38:22.874Z,english_805.wav,0,pill,2023,38,5,5,français ,m,5,0.5,15.95265091,0.95701688
63541b844de6259dad4ce489,37,0,2024-02-28T14:38:22.874Z,english_805.wav,0,pill,2023,38,5,5,français ,m,6,0.6,-64.01744173,0.10004415
63541b844de6259dad4ce489,37,0,2024-02-28T14:38:22.874Z,english_805.wav,0,pill,2023,38,5,5,français ,m,7,0.7,-39.81720589,1.33408917
63541b844de6259dad4ce489,37,0,2024-02-28T14:38:22.874Z,english_805.wav,0,pill,2023,38,5,5,français ,m,8,0.8,48.58222908,0.26158276
63541b844de6259dad4ce489,37,0,2024-02-28T14:38:22.874Z,english_805.wav,0,pill,2023,38,5,5,français ,m,9,0.9,79.1348353,0.78316965
63541b844de6259dad4ce489,37,0,2024-02-28T14:38:22.874Z,english_805.wav,0,pill,2023,38,5,5,français ,m,10,1.0,66.03274921,0.77046412
63541b844de6259dad4ce489,37,0,2024-02-28T14:38:22.874Z,english_805.wav,0,pill,2023,38,5,5,français ,m,11,1.09391667,-37.34721406,0.38567889
63541b844de6259dad4ce489,38,0,2024-02-28T14:38:22.874Z,english_896.wav,0,pill,636,38,5,5,français ,m,0,0.0,15.15197213,1.10343193
63541b844de6259dad4ce489,38,0,2024-02-28T14:38:22.874Z,english_896.wav,0,pill,636,38,5,5,français ,m,1,0.1,12.09834356,1.24784569
63541b844de6259dad4ce489,38,0,2024-02-28T14:38:22.874Z,english_896.wav,0,pill,636,38,5,5,français ,m,2,0.2,-98.90945178,0.69536812
63541b844de6259dad4ce489,38,0,2024-02-28T14:38:22.874Z,english_896.wav,0,pill,636,38,5,5,français ,m,3,0.3,-7.24132806,1.50082123
63541b844de6259dad4ce489,38,0,2024-02-28T14:38:22.874Z,english_896.wav,0,pill,636,38,5,5,français ,m,4,0.4,-22.04912785,1.78962455
63541b844de6259dad4ce489,38,0,2024-02-28T14:38:22.874Z,english_896.wav,0,pill,636,38,5,5,français ,m,5,0.5,53.27175302,0.59868421
63541b844de6259dad4ce489,38,0,2024-02-28T14:38:22.874Z,english_896.wav,0,pill,636,38,5,5,français ,m,6,0.6,18.92228417,1.36027969
63541b844de6259dad4ce489,38,0,2024-02-28T14:38:22.874Z,english_896.wav,0,pill,636,38,5,5,français ,m,7,0.7,65.4652164,1.44726147
63541b844de6259dad4ce489,38,0,2024-02-28T14:38:22.874Z,english_896.wav,0,pill,636,38,5,5,français ,m,8,0.8,51.91420072,1.08983894
63541b844de6259dad4ce489,38,0,2024-02-28T14:38:22.874Z,english_896.wav,0,pill,636,38,5,5,français ,m,9,0.9,20.23549525,0.07451316
63541b844de6259dad4ce489,38,0,2024-02-28T14:38:22.874Z,english_896.wav,0,pill,636,38,5,5,français ,m,10,1.0,-86.64191921,0.79077881
63541b844de6259dad4ce489,38,0,2024-02-28T14:38:22.874Z,english_896.wav,0,pill,636,38,5,5,français ,m,11,1.09391667,-62.9037571,1.64262615
63541b844de6259dad4ce489,39,0,2024-02-28T14:38:22.874Z,english_890.wav,0,peel,681,38,5,5,français ,m,0,0.0,31.44625075,1.15032127
63541b844de6259dad4ce489,39,0,2024-02-28T14:38:22.874Z,english_890.wav,0,peel,681,38,5,5,français ,m,1,0.1,-90.32825643,0.20043056
63541b844de6259dad4ce489,39,0,2024-02-28T14:38:22.874Z,english_890.wav,0,peel,681,38,5,5,français ,m,2,0.2,-64.7017166,0.4631213
63541b844de6259dad4ce489,39,0,2024-02-28T14:38:22.874Z,english_890.wav,0,peel,681,38,5,5,français ,m,3,0.3,15.62340259,1.29891642
63541b844de6259dad4ce489,39,0,2024-02-28T14:38:22.874Z,english_890.wav,0,peel,681,38,5,5,français ,m,4,0.4,-79.4752192,0.6480645
63541b844de6259dad4ce489,39,0,2024-02-28T14:38:22.874Z,english_890.wav,0,peel,681,38,5,5,français ,m,5,0.5,74.79009283,0.81505597
63541b844de6259dad4ce489,39,0,2024-02-28T14:38:22.874Z,english_890.wav,0,peel,681,38,5,5,français ,m,6,0.6,-57.91380652,1.23579114
63541b844de6259dad4ce489,39,0,2024-02-28T14:38:22.874Z,english_890.wav,0,peel,681,38,5,5,français ,m,7,0.7,92.43048613,0.16251602
63541b844de6259dad4ce489,39,0,2024-02-28T14:38:22.874Z,english_890.wav,0,peel,681,38,5,5,français ,m,8,0.8,-1.35432996,0.74439657
63541b844de6259dad4ce489,39,0,2024-02-28T14:38:22.874Z,english_890.wav,0,peel,681,38,5,5,français ,m,9,0.9,-1.4007117,1.69626999
63541b844de6259dad4ce489,39,0,2024-02-28T14:38:22.874Z,english_890.wav,0,peel,681,38,5,5,français ,m,10,1.0,-22.8275935,0.07593713
63541b844de6259dad4ce489,39,0,2024-02-28T14:38:22.874Z,english_890.wav,0,peel,681,38,5,5,français ,m,11,1.09391667,-34.82288483,0.22950927
63541b844de6259dad4ce489,40,0,2024-02-28T14:38:22.874Z,english_475.wav,0,peel,461,38,5,5,français ,m,0,0.0,29.80961577,0.43821818
63541b844de6259dad4ce489,40,0,2024-02-28T14:38:22.874Z,english_475.wav,0,peel,461,38,5,5,français ,m,1,0.1,48.86857013,0.91916023
63541b844de6259dad4ce489,40,0,2024-02-28T14:38:22.874Z,english_475.wav,0,peel,461,38,5,5,français ,m,2,0.2,-75.87963709,1.43870603
63541b844de6259dad4ce489,40,0,2024-02-28T14:38:22.874Z,english_475.wav,0,peel,461,38,5,5,français ,m,3,0.3,30.73642142,0.67232978
63541b844de6259dad4ce489,40,0,2024-02-28T14:38:22.874Z,english_475.wav,0,peel,461,38,5,5,français ,m,4,0.4,-47.77384215,0.927705
63541b844de6259dad4ce489,40,0,2024-02-28T14:38:22.874Z,english_475.wav,0,peel,461,38,5,5,français ,m,5,0.5,95.74069733,0.04190462
63541b844de6259dad4ce489,40,0,2024-02-28T14:38:22.874Z,english_475.wav,0,peel,461,38,5,5,français ,m,6,0.6,49.89153758,1.51758055
63541b844de6259dad4ce489,40,0,2024-02-28T14:38:22.874Z,english_475.wav,0,peel,461,38,5,5,français ,m,7,0.7,-93.96412935,1.81908107
63541b844de6259dad4ce489,40,0,2024-02-28T14:38:22.874Z,english_475.wav,0,peel,461,38,5,5,français ,m,8,0.8,-13.00332235,1.60949708
63541b844de6259dad4ce489,40,0,2024-02-28T14:38:22.874Z,english_475.wav,0,peel,461,38,5,5,français ,m,9,0.9,80.99885276,1.9985333
63541b844de6259dad4ce489,40,0,2024-02-28T14:38:22.874Z,english_475.wav,0,peel,461,38,5,5,français ,m,10,1.0,-12.77273084,1.07792874
63541b844de6259dad4ce489,40,0,2024-02-28T14:38:22.874Z,english_475.wav,0,peel,461,38,5,5,français ,m,11,1.09391667,-3.9803657,1.55358956
63541b844de6259dad4ce489,41,0,2024-02-28T14:38:22.874Z,english_174.wav,0,pill,555,38,5,5,français ,m,0,0.0,-1.27352161,1.81219165
63541b844de6259dad4ce489,41,0,2024-02-28T14:38:22.874Z,english_174.wav,0,pill,555,38,5,5,français ,m,1,0.1,-67.76486912,0.77028854
63541b844de6259dad4ce489,41,0,2024-02-28T14:38:22.874Z,english_174.wav,0,pill,555,38,5,5,français ,m,2,0.2,38.59821356,0.44136445
63541b844de6259dad4ce489,41,0,2024-02-28T14:38:22.874Z,english_174.wav,0,pill,555,38,5,5,français ,m,3,0.3,-68.30936474,1.01129338
63541b844de6259dad4ce489,41,0,2024-02-28T14:38:22.874Z,english_174.wav,0,pill,555,38,5,5,français ,m,4,0.4,-90.24428589,0.76518489
63541b844de6259dad4ce489,41,0,2024-02-28T14:38:22.874Z,english_174.wav,0,pill,555,38,5,5,français ,m,5,0.5,-78.84758788,1.51905633
63541b844de6259dad4ce489,41,0,2024-02-28T14:38:22.874Z,english_174.wav,0,pill,555,38,5,5,français ,m,6,0.6,82.67516556,0.9260744
63541b844de6259dad4ce489,41,0,2024-02-28T14:38:22.874Z,english_174.wav,0,pill,555,38,5,5,français ,m,7,0.7,27.65744762,1.48661059
63541b844de6259dad4ce489,41,0,2024-02-28T14:38:22.874Z,english_174.wav,0,pill,555,38,5,5,français ,m,8,0.8,82.5621195,0.13101211
63541b844de6259dad4ce489,41,0,2024-02-28T14:38:22.874Z,english_174.wav,0,pill,555,38,5,5,français ,m,9,0.9,22.03109017,0.66605082
63541b844de6259dad4ce489,41,0,2024-02-28T14:38:22.874Z,english_174.wav,0,pill,555,38,5,5,français ,m,10,1.0,97.22651297,0.90549752
63541b844de6259dad4ce489,41,0,2024-02-28T14:38:22.874Z,english_174.wav,0,pill,555,38,5,5,français ,m,11,1.09391667,6.30116613,1.52579229
63541b844de6259dad4ce489,42,0,2024-02-28T14:38:22.874Z,english_929.wav,0,pill,787,38,5,5,français ,m,0,0.0,-18.74393268,1.03205893
63541b844de6259dad4ce489,42,0,2024-02-28T14:38:22.874Z,english_929.wav,0,pill,787,38,5,5,français ,m,1,0.1,33.5098218,1.56324899
63541b844de6259dad4ce489,42,0,2024-02-28T14:38:22.874Z,english_929.wav,0,pill,787,38,5,5,français ,m,2,0.2,-29.94782209,1.48903241
63541b844de6259dad4ce489,42,0,2024-02-28T14:38:22.874Z,english_929.wav,0,pill,787,38,5,5,français ,m,3,0.3,-33.25977884,0.12654912
63541b844de6259dad4ce489,42,0,2024-02-28T14:38:22.874Z,english_929.wav,0,pill,787,38,5,5,français ,m,4,0.4,-9.01985938,0.84484029
63541b844de6259dad4ce489,42,0,2024-02-28T14:38:22.874Z,english_929.wav,0,pill,787,38,5,5,français ,m,5,0.5,-82.73987875,0.94715121
63541b844de6259dad4ce489,42,0,2024-02-28T14:38:22.874Z,english_929.wav,0,pill,787,38,5,5,français ,m,6,0.6,48.07587241,1.69154368
63541b844de6259dad4ce489,42,0,2024-02-28T14:38:22.874Z,english_929.wav,0,pill,787,38,5,5,français ,m,7,0.7,-43.15088987,0.81126675
63541b844de6259dad4ce489,42,0,2024-02-28T14:38:22.874Z,english_929.wav,0,pill,787,38,5,5,français ,m,8,0.8,82.92488977,0.36905029
63541b844de6259dad4ce489,42,0,2024-02-28T14:38:22.874Z,english_929.wav,0,pill,787,38,5,5,français ,m,9,0.9,-60.38444868,0.50874334
63541b844de6259dad4ce489,42,0,2024-02-28T14:38:22.874Z,english_929.wav,0,pill,787,38,5,5,français ,m,10,1.0,27.71416794,0.95284967
63541b844de6259dad4ce489,42,0,2024-02-28T14:38:22.874Z,english_929.wav,0,pill,787,38,5,5,français ,m,11,1.09391667,21.92497573,0.65099343
63541b844de6259dad4ce489,43,0,2024-02-28T14:38:22.874Z,english_942.wav,0,peel,427,38,5,5,français ,m,0,0.0,45.49166442,1.20258851
63541b844de6259dad4ce489,43,0,2024-02-28T14:38:22.874Z,english_942.wav,0,peel,427,38,5,5,français ,m,1,0.1,-2.30850056,0.03180812
63541b844de6259dad4ce489,43,0,2024-02-28T14:38:22.874Z,english_942.wav,0,peel,427,38,5,5,français ,m,2,0.2,43.64947202,1.4076024
63541b844de6259dad4ce489,43,0,2024-02-28T14:38:22.874Z,english_942.wav,0,peel,427,38,5,5,français ,m,3,0.3,-52.04143122,0.10204445
63541b844de6259dad4ce489,43,0,2024-02-28T14:38:22.874Z,english_942.wav,0,peel,427,38,5,5,français ,m,4,0.4,-8.91644013,1.90553817
63541b844de6259dad4ce489,43,0,2024-02-28T14:38:22.874Z,english_942.wav,0,peel,427,38,5,5,français ,m,5,0.5,-27.81632839,0.46641983
63541b844de6259dad4ce489,43,0,2024-02-28T14:38:22.874Z,english_942.wav,0,peel,427,38,5,5,français ,m,6,0.6,-9.72818952,0.6494667
63541b844de6259dad4ce489,43,0,2024-02-28T14:38:22.874Z,english_942.wav,0,peel,427,38,5,5,français ,m,7,0.7,95.1925327,0.71171086
63541b844de6259dad4ce489,43,0,2024-02-28T14:38:22.874Z,english_942.wav,0,peel,427,38,5,5,français ,m,8,0.8,72.04388461,0.45732561
63541b844de6259dad4ce489,43,0,2024-02-28T14:38:22.874Z,english_942.wav,0,peel,427,38,5,5,français ,m,9,0.9,23.33853222,1.18338442
63541b844de6259dad4ce489,43,0,2024-02-28T14:38:22.874Z,english_942.wav,0,peel,427,38,5,5,français ,m,10,1.0,59.86308522,1.65940409
63541b844de6259dad4ce489,43,0,2024-02-28T14:38:22.874Z,english_942.wav,0,peel,427,38,5,5,français ,m,11,1.09391667,13.07645506,1.80591064
63541b844de6259dad4ce489,44,0,2024-02-28T14:38:22.874Z,english_835.wav,0,peel,981,38,5,5,français ,m,0,0.0,-39.02011782,0.39436065
63541b844de6259dad4ce489,44,0,2024-02-28T14:38:22.874Z,english_835.wav,0,peel,981,38,5,5,français ,m,1,0.1,-63.30829774,0.19347001
63541b844de6259dad4ce489,44,0,2024-02-28T14:38:22.874Z,english_835.wav,0,peel,981,38,5,5,français ,m,2,0.2,-49.45230925,1.31632093
63541b844de6259dad4ce489,44,0,2024-02-28T14:38:22.874Z,english_835.wav,0,peel,981,38,5,5,français ,m,3,0.3,-7.37432437,0.74578151
63541b844de6259dad4ce489,44,0,2024-02-28T14:38:22.874Z,english_835.wav,0,peel,981,38,5,5,français ,m,4,0.4,13.5618111,1.17984814
63541b844de6259dad4ce489,44,0,2024-02-28T14:38:22.874Z,english_835.wav,0,peel,981,38,5,5,français ,m,5,0.5,-42.04372358,1.65194144
63541b844de6259dad4ce489,44,0,2024-02-28T14:38:22.874Z,english_835.wav,0,peel,981,38,5,5,français ,m,6,0.6,-23.05427732,1.69640587
63541b844de6259dad4ce489,44,0,2024-02-28T14:38:22.874Z,english_835.wav,0,peel,981,38,5,5,français ,m,7,0.7,-46.66498758,1.48589436
63541b844de6259dad4ce489,44,0,2024-02-28T14:38:22.874Z,english_835.wav,0,peel,981,38,5,5,français ,m,8,0.8,-43.23379064,0.66391529
63541b844de6259dad4ce489,44,0,2024-02-28T14:38:22.874Z,english_835.wav,0,peel,981,38,5,5,français ,m,9,0.9,45.29964787,0.69924952
63541b844de6259dad4ce489,44,0,2024-02-28T14:38:22.874Z,english_835.wav,0,peel,981,38,5,5,français ,m,10,1.0,-13.97031602,0.90104484
63541b844de6259dad4ce489,44,0,2024-02-28T14:38:22.874Z,english_835.wav,0,peel,981,38,5,5,français ,m,11,1.09391667,-69.96512508,0.7026329
63541b844de6259dad4ce489,45,0,2024-02-28T14:38:22.874Z,english_598.wav,0,pill,628,38,5,5,français ,m,0,0.0,66.59254232,1.11503085
63541b844de6259dad4ce489,45,0,2024-02-28T14:38:22.874Z,english_598.wav,0,pill,628,38,5,5,français ,m,1,0.1,-0.16294116,1.29891619
63541b844de6259dad4ce489,45,0,2024-02-28T14:38:22.874Z,english_598.wav,0,pill,628,38,5,5,français ,m,2,0.2,87.91623233,0.04302605
63541b844de6259dad4ce489,45,0,2024-02-28T14:38:22.874Z,english_598.wav,0,pill,628,38,5,5,français ,m,3,0.3,4.78179149,1.90355783
63541b844de6259dad4ce489,45,0,2024-02-28T14:38:22.874Z,english_598.wav,0,pill,628,38,5,5,français ,m,4,0.4,87.27330533,0.66957129
63541b844de6259dad4ce489,45,0,2024-02-28T14:38:22.874Z,english_598.wav,0,pill,628,38,5,5,français ,m,5,0.5,15.94205468,1.28062406
63541b844de6259dad4ce489,45,0,2024-02-28T14:38:22.874Z,english_598.wav,0,pill,628,38,5,5,français ,m,6,0.6,-57.72302194,0.15067731
63541b844de6259dad4ce489,45,0,2024-02-28T14:38:22.874Z,english_598.wav,0,pill,628,38,5,5,français ,m,7,0.7,-11.53545195,0.37044447
63541b844de6259dad4ce489,45,0,2024-02-28T14:38:22.874Z,english_598.wav,0,pill,628,38,5,5,français ,m,8,0.8,-97.23766847,0.00668091
63541b844de6259dad4ce489,45,0,2024-02-28T14:38:22.874Z,english_598.wav,0,pill,628,38,5,5,français ,m,9,0.9,-89.11050407,1.24076678
63541b844de6259dad4ce489,45,0,2024-02-28T14:38:22.874Z,english_598.wav,0,pill,628,38,5,5,français ,m,10,1.0,-7.65193873,0.4751477
63541b844de6259dad4ce489,45,0,2024-02-28T14:38:22.874Z,english_598.wav,0,pill,628,38,5,5,français ,m,11,1.09391667,-0.117565,1.3589293
63541b844de6259dad4ce489,46,0,2024-02-28T14:38:22.874Z,english_878.wav,0,peel,532,38,5,5,français ,m,0,0.0,-93.54916279,0.97267647
63541b844de6259dad4ce489,46,0,2024-02-28T14:38:22.874Z,english_878.wav,0,peel,532,38,5,5,français ,m,1,0.1,34.21390888,0.02715416
63541b844de6259dad4ce489,46,0,2024-02-28T14:38:22.874Z,english_878.wav,0,peel,532,38,5,5,français ,m,2,0.2,-58.82294687,0.28996928
63541b844de6259dad4ce489,46,0,2024-02-28T14:38:22.874Z,english_878.wav,0,peel,532,38,5,5,français ,m,3,0.3,10.18768241,1.11808931
63541b844de6259dad4ce489,46,0,2024-02-28T14:38:22.874Z,english_878.wav,0,peel,532,38,5,5,français ,m,4,0.4,-49.52140337,1.8324871
63541b844de6259dad4ce489,46,0,2024-02-28T14:38:22.874Z,english_878.wav,0,peel,532,38,5,5,français ,m,5,0.5,-71.54422434,1.79950878
63541b844de6259dad4ce489,46,0,2024-02-28T14:38:22.874Z,english_878.wav,0,peel,532,38,5,5,français ,m,6,0.6,58.16145178,1.12806689
63541b844de6259dad4ce489,46,0,2024-02-28T14:38:22.874Z,english_878.wav,0,peel,532,38,5,5,français ,m,7,0.7,-74.84169027,0.34574191
63541b844de6259dad4ce489,46,0,2024-02-28T14:38:22.874Z,english_878.wav,0,peel,532,38,5,5,français ,m,8,0.8,-47.28121675,1.0964165
63541b844de6259dad4ce489,46,0,2024-02-28T14:38:22.874Z,english_878.wav,0,peel,532,38,5,5,français ,m,9,0.9,17.04020125,0.06170949
63541b844de6259dad4ce489,46,0,2024-02-28T14:38:22.874Z,english_878.wav,0,peel,532,38,5,5,français ,m,10,1.0,-15.84668216,1.1582617
63541b844de6259dad4ce489,46,0,2024-02-28T14:38:22.874Z,english_878.wav,0,peel,532,38,5,5,français ,m,11,1.09391667,15.68838881,0.39253234
63541b844de6259dad4ce489,47,0,2024-02-28T14:38:22.874Z,english_168.wav,0,pill,630,38,5,5,français ,m,0,0.0,-2.82851798,0.84695831
63541b844de6259dad4ce489,47,0,2024-02-28T14:38:22.874Z,english_168.wav,0,pill,630,38,5,5,français ,m,1,0.1,47.00857465,0.31778045
63541b844de6259dad4ce489,47,0,2024-02-28T14:38:22.874Z,english_168.wav,0,pill,630,38,5,5,français ,m,2,0.2,-17.58347791,1.27812293
63541b844de6259dad4ce489,47,0,2024-02-28T14:38:22.874Z,english_168.wav,0,pill,630,38,5,5,français ,m,3,0.3,-13.31715429,0.74038461
63541b844de6259dad4ce489,47,0,2024-02-28T14:38:22.874Z,english_168.wav,0,pill,630,38,5,5,français ,m,4,0.4,32.59893477,0.53430653
63541b844de6259dad4ce489,47,0,2024-02-28T14:38:22.874Z,english_168.wav,0,pill,630,38,5,5,français ,m,5,0.5,97.16584938,0.39836338
63541b844de6259dad4ce489,47,0,2024-02-28T14:38:22.874Z,english_168.wav,0,pill,630,38,5,5,français ,m,6,0.6,-13.44636048,1.18595545
63541b844de6259dad4ce489,47,0,2024-02-28T14:38:22.874Z,english_168.wav,0,pill,630,38,5,5,français ,m,7,0.7,9.9504683,1.40244409
63541b844de6259dad4ce489,47,0,2024-02-28T14:38:22.874Z,english_168.wav,0,pill,630,38,5,5,français ,m,8,0.8,45.41604728,0.07499365
63541b844de6259dad4ce489,47,0,2024-02-28T14:38:22.874Z,english_168.wav,0,pill,630,38,5,5,français ,m,9,0.9,-79.49961867,0.73784136
63541b844de6259dad4ce489,47,0,2024-02-28T14:38:22.874Z,english_168.wav,0,pill,630,38,5,5,français ,m,10,1.0,35.96813383,1.37065847
63541b844de6259dad4ce489,47,0,2024-02-28T14:38:22.874Z,english_168.wav,0,pill,630,38,5,5,français ,m,11,1.09391667,-86.51274139,0.67911571
63541b844de6259dad4ce489,48,0,2024-02-28T14:38:22.874Z,english_719.wav,0,peel,1080,38,5,5,français ,m,0,0.0,-74.07322153,0.85431966
63541b844de6259dad4ce489,48,0,2024-02-28T14:38:22.874Z,english_719.wav,0,peel,1080,38,5,5,français ,m,1,0.1,35.75598847,1.01181763
63541b844de6259dad4ce489,48,0,2024-02-28T14:38:22.874Z,english_719.wav,0,peel,1080,38,5,5,français ,m,2,0.2,82.97271333,0.92312945
63541b844de6259dad4ce489,48,0,2024-02-28T14:38:22.874Z,english_719.wav,0,peel,1080,38,5,5,français ,m,3,0.3,17.0497448,0.56497759
63541b844de6259dad4ce489,48,0,2024-02-28T14:38:22.874Z,english_719.wav,0,peel,1080,38,5,5,français ,m,4,0.4,25.23097934,0.45096397
63541b844de6259dad4ce489,48,0,2024-02-28T14:38:22.874Z,english_719.wav,0,peel,1080,38,5,5,français ,m,5,0.5,4.16668302,1.21193737
63541b844de6259dad4ce489,48,0,2024-02-28T14:38:22.874Z,english_719.wav,0,peel,1080,38,5,5,français ,m,6,0.6,-83.53078486,0.96594203
63541b844de6259dad4ce489,48,0,2024-02-28T14:38:22.874Z,english_719.wav,0,peel,1080,38,5,5,français ,m,7,0.7,-81.53905497,0.58708741
63541b844de6259dad4ce489,48,0,2024-02-28T14:38:22.874Z,english_719.wav,0,peel,1080,38,5,5,français ,m,8,0.8,32.10709268,1.06053437
63541b844de6259dad4ce489,48,0,2024-02-28T14:38:22.874Z,english_719.wav,0,peel,1080,38,5,5,français ,m,9,0.9,9.14404491,1.09641521
63541b844de6259dad4ce489,48,0,2024-02-28T14:38:22.874Z,english_719.wav,0,peel,1080,38,5,5,français ,m,10,1.0,56.09727313,1.58822768
63541b844de6259dad4ce489,48,0,2024-02-28T14:38:22.874Z,english_719.wav,0,peel,1080,38,5,5,français ,m,11,1.09391667,-90.02311852,0.88380828
63541b844de6259dad4ce489,49,0,2024-02-28T14:38:22.874Z,english_60.wav,0,peel,692,38,5,5,français ,m,0,0.0,10.59186776,1.18276714
63541b844de6259dad4ce489,49,0,2024-02-28T14:38:22.874Z,english_60.wav,0,peel,692,38,5,5,français ,m,1,0.1,40.50364305,1.35618457
63541b844de6259dad4ce489,49,0,2024-02-28T14:38:22.874Z,english_60.wav,0,peel,692,38,5,5,français ,m,2,0.2,-14.0687602,0.82779989
63541b844de6259dad4ce489,49,0,2024-02-28T14:38:22.874Z,english_60.wav,0,peel,692,38,5,5,français ,m,3,0.3,-65.99656217,0.57077879
63541b844de6259dad4ce489,49,0,2024-02-28T14:38:22.874Z,english_60.wav,0,peel,692,38,5,5,français ,m,4,0.4,15.70320652,0.07108592
63541b844de6259dad4ce489,49,0,2024-02-28T14:38:22.874Z,english_60.wav,0,peel,692,38,5,5,français ,m,5,0.5,-30.42091681,0.69784791
63541b844de6259dad4ce489,49,0,2024-02-28T14:38:22.874Z,english_60.wav,0,peel,692,38,5,5,français ,m,6,0.6,-42.76109802,1.83211062
63541b844de6259dad4ce489,49,0,2024-02-28T14:38:22.874Z,english_60.wav,0,peel,692,38,5,5,français ,m,7,0.7,79.72211157,1.14011333
63541b844de6259dad4ce489,49,0,2024-02-28T14:38:22.874Z,english_60.wav,0,peel,692,38,5,5,français ,m,8,0.8,-76.06160398,1.5550445
63541b844de6259dad4ce489,49,0,2024-02-28T14:38:22.874Z,english_60.wav,0,peel,692,38,5,5,français ,m,9,0.9,-29.21518782,0.72383993
63541b844de6259dad4ce489,49,0,2024-02-28T14:38:22.874Z,english_60.wav,0,peel,692,38,5,5,français ,m,10,1.0,-57.95886313,1.31578319
63541b844de6259dad4ce489,49,0,2024-02-28T14:38:22.874Z,english_60.wav,0,peel,692,38,5,5,français ,m,11,1.09391667,-5.07129897,0.46327009
63541b844de6259dad4ce489,50,1,2024-02-28T14:38:22.874Z,english_205.wav,0,peel,1517,38,5,5,français ,m,0,0.0,56.82976783,1.96536411
63541b844de6259dad4ce489,50,1,2024-02-28T14:38:22.874Z,english_205.wav,0,peel,1517,38,5,5,français ,m,1,0.1,-4.18818005,1.65463192
63541b844de6259dad4ce489,50,1,2024-02-28T14:38:22.874Z,english_205.wav,0,peel,1517,38,5,5,français ,m,2,0.2,38.88249383,1.20705079
63541b844de6259dad4ce489,50,1,2024-02-28T14:38:22.874Z,english_205.wav,0,peel,1517,38,5,5,français ,m,3,0.3,-62.55482064,1.01845998
63541b844de6259dad4ce489,50,1,2024-02-28T14:38:22.874Z,english_205.wav,0,peel,1517,38,5,5,français ,m,4,0.4,-71.1999088,1.21355865
63541b844de6259dad4ce489,50,1,2024-02-28T14:38:22.874Z,english_205.wav,0,peel,1517,38,5,5,français ,m,5,0.5,76.75946394,1.24989356
63541b844de6259dad4ce489,50,1,2024-02-28T14:38:22.874Z,english_205.wav,0,peel,1517,38,5,5,français ,m,6,0.6,-88.17613487,0.92766979
63541b844de6259dad4ce489,50,1,2024-02-28T14:38:22.874Z,english_205.wav,0,peel,1517,38,5,5,français ,m,7,0.7,-47.95022574,0.92420432
63541b844de6259dad4ce489,50,1,2024-02-28T14:38:22.874Z,english_205.wav,0,peel,1517,38,5,5,français ,m,8,0.8,36.49012842,0.521979
63541b844de6259dad4ce489,50,1,2024-02-28T14:38:22.874Z,english_205.wav,0,peel,1517,38,5,5,français ,m,9,0.9,58.14148902,1.99842272
63541b844de6259dad4ce489,50,1,2024-02-28T14:38:22.874Z,english_205.wav,0,peel,1517,38,5,5,français ,m,10,1.0,-54.42029586,0.40180649
63541b844de6259dad4ce489,50,1,2024-02-28T14:38:22.874Z,english_205.wav,0,peel,1517,38,5,5,français ,m,11,1.09391667,23.46713727,0.98322277
63541b844de6259dad4ce489,51,1,2024-02-28T14:38:22.874Z,english_615.wav,0,pill,636,38,5,5,français ,m,0,0.0,-59.46419525,1.45272118
63541b844de6259dad4ce489,51,1,2024-02-28T14:38:22.874Z,english_615.wav,0,pill,636,38,5,5,français ,m,1,0.1,57.8993682,1.05218588
63541b844de6259dad4ce489,51,1,2024-02-28T14:38:22.874Z,english_615.wav,0,pill,636,38,5,5,français ,m,2,0.2,96.50473449,0.16877242
63541b844de6259dad4ce489,51,1,2024-02-28T14:38:22.874Z,english_615.wav,0,pill,636,38,5,5,français ,m,3,0.3,70.35497861,0.80491698
63541b844de6259dad4ce489,51,1,2024-02-28T14:38:22.874Z,english_615.wav,0,pill,636,38,5,5,français ,m,4,0.4,41.87750843,0.90543026
63541b844de6259dad4ce489,51,1,2024-02-28T14:38:22.874Z,english_615.wav,0,pill,636,38,5,5,français ,m,5,0.5,-81.49095224,1.05177913
63541b844de6259dad4ce489,51,1,2024-02-28T14:38:22.874Z,english_615.wav,0,pill,636,38,5,5,français ,m,6,0.6,57.42750946,0.09637859
63541b844de6259dad4ce489,51,1,2024-02-28T14:38:22.874Z,english_615.wav,0,pill,636,38,5,5,français ,m,7,0.7,4.11503666,0.17788962
63541b844de6259dad4ce489,51,1,2024-02-28T14:38:22.874Z,english_615.wav,0,pill,636,38,5,5,français ,m,8,0.8,-69.97079252,0.7335246
63541b844de6259dad4ce489,51,1,2024-02-28T14:38:22.874Z,english_615.wav,0,pill,636,38,5,5,français ,m,9,0.9,35.15344639,1.1040214
63541b844de6259dad4ce489,51,1,2024-02-28T14:38:22.874Z,english_615.wav,0,pill,636,38,5,5,français ,m,10,1.0,-81.03238812,0.9742901
63541b844de6259dad4ce489,51,1,2024-02-28T14:38:22.874Z,english_615.wav,0,pill,636,38,5,5,français ,m,11,1.09391667,-73.59723868,0.84036339
63541b844de6259dad4ce489,52,1,2024-02-28T14:38:22.874Z,english_462.wav,0,peel,3961,38,5,5,français ,m,0,0.0,78.76621738,0.83121963
63541b844de6259dad4ce489,52,1,2024-02-28T14:38:22.874Z,english_462.wav,0,peel,3961,38,5,5,français ,m,1,0.1,31.47495931,1.43506309
63541b844de6259dad4ce489,52,1,2024-02-28T14:38:22.874Z,english_462.wav,0,peel,3961,38,5,5,français ,m,2,0.2,-13.74936046,0.97721307
63541b844de6259dad4ce489,52,1,2024-02-28T14:38:22.874Z,english_462.wav,0,peel,3961,38,5,5,français ,m,3,0.3,-80.17251448,0.92562125
63541b844de6259dad4ce489,52,1,2024-02-28T14:38:22.874Z,english_462.wav,0,peel,3961,38,5,5,français ,m,4,0.4,-78.67939132,0.04016866
63541b844de6259dad4ce489,52,1,2024-02-28T14:38:22.874Z,english_462.wav,0,peel,3961,38,5,5,français ,m,5,0.5,43.51355655,0.46288791
63541b844de6259dad4ce489,52,1,2024-02-28T14:38:22.874Z,english_462.wav,0,peel,3961,38,5,5,français ,m,6,0.6,3.64631971,1.76703425
63541b844de6259dad4ce489,52,1,2024-02-28T14:38:22.874Z,english_462.wav,0,peel,3961,38,5,5,français ,m,7,0.7,-45.69022839,1.40353438
63541b844de6259dad4ce489,52,1,2024-02-28T14:38:22.874Z,english_462.wav,0,peel,3961,38,5,5,français ,m,8,0.8,-12.47954209,0.01443424
63541b844de6259dad4ce489,52,1,2024-02-28T14:38:22.874Z,english_462.wav,0,peel,3961,38,5,5,français ,m,9,0.9,-13.33411056,0.75223744
63541b844de6259dad4ce489,52,1,2024-02-28T14:38:22.874Z,english_462.wav,0,peel,3961,38,5,5,français ,m,10,1.0,14.72637348,0.69611535
63541b844de6259dad4ce489,52,1,2024-02-28T14:38:22.874Z,english_462.wav,0,peel,3961,38,5,5,français ,m,11,1.09391667,-47.88617719,0.81633503
63541b844de6259dad4ce489,53,1,2024-02-28T14:38:22.874Z,english_938.wav,0,peel,2541,38,5,5,français ,m,0,0.0,-53.63878643,0.25625638
63541b844de6259dad4ce489,53,1,2024-02-28T14:38:22.874Z,english_938.wav,0,peel,2541,38,5,5,français ,m,1,0.1,-38.8400944,1.23524187
63541b844de6259dad4ce489,53,1,2024-02-28T14:38:22.874Z,english_938.wav,0,peel,2541,38,5,5,français ,m,2,0.2,-9.87265498,0.81990957
63541b844de6259dad4ce489,53,1,2024-02-28T14:38:22.874Z,english_938.wav,0,peel,2541,38,5,5,français ,m,3,0.3,16.2059687,1.45712995
63541b844de6259dad4ce489,53,1,2024-02-28T14:38:22.874Z,english_938.wav,0,peel,2541,38,5,5,français ,m,4,0.4,-90.53563301,0.4819737
63541b844de6259dad4ce489,53,1,2024-02-28T14:38:22.874Z,english_938.wav,0,peel,2541,38,5,5,français ,m,5,0.5,64.72350929,0.32505179
63541b844de6259dad4ce489,53,1,2024-02-28T14:38:22.874Z,english_938.wav,0,peel,2541,38,5,5,français ,m,6,0.6,-52.05654387,1.44150274
63541b844de6259dad4ce489,53,1,2024-02-28T14:38:22.874Z,english_938.wav,0,peel,2541,38,5,5,français ,m,7,0.7,-42.35049902,1.58605202
63541b844de6259dad4ce489,53,1,2024-02-28T14:38:22.874Z,english_938.wav,0,peel,2541,38,5,5,français ,m,8,0.8,32.88204039,0.48300943
63541b844de6259dad4ce489,53,1,2024-02-28T14:38:22.874Z,english_938.wav,0,peel,2541,38,5,5,français ,m,9,0.9,-86.42075109,1.19049872
63541b844de6259dad4ce489,53,1,2024-02-28T14:38:22.874Z,english_938.wav,0,peel,2541,38,5,5,français ,m,10,1.0,31.2389269,1.85243238
63541b844de6259dad4ce489,53,1,2024-02-28T14:38:22.874Z,english_938.wav,0,peel,2541,38,5,5,français ,m,11,1.09391667,-10.13697021,0.92208217
63541b844de6259dad4ce489,54,1,2024-02-28T14:38:22.874Z,english_822.wav,0,peel,398,38,5,5,français ,m,0,0.0,-57.24532264,1.07162112
63541b844de6259dad4ce489,54,1,2024-02-28T14:38:22.874Z,english_822.wav,0,peel,398,38,5,5,français ,m,1,0.1,-0.6561153,1.88043926
63541b844de6259dad4ce489,54,1,2024-02-28T14:38:22.874Z,english_822.wav,0,peel,398,38,5,5,français ,m,2,0.2,20.41316559,0.90199971
63541b844de6259dad4ce489,54,1,2024-02-28T14:38:22.874Z,english_822.wav,0,peel,398,38,5,5,français ,m,3,0.3,41.70802905,0.26893632
63541b844de6259dad4ce489,54,1,2024-02-28T14:38:22.874Z,english_822.wav,0,peel,398,38,5,5,français ,m,4,0.4,-77.9443686,1.26571685
63541b844de6259dad4ce489,54,1,2024-02-28T14:38:22.874Z,english_822.wav,0,peel,398,38,5,5,français ,m,5,0.5,63.06825284,1.37105199
63541b844de6259dad4ce489,54,1,2024-02-28T14:38:22.874Z,english_822.wav,0,peel,398,38,5,5,français ,m,6,0.6,-26.82945761,1.3296767
63541b844de6259dad4ce489,54,1,2024-02-28T14:38:22.874Z,english_822.wav,0,peel,398,38,5,5,français ,m,7,0.7,-92.61277401,1.89258001
63541b844de6259dad4ce489,54,1,2024-02-28T14:38:22.874Z,english_822.wav,0,peel,398,38,5,5,français ,m,8,0.8,-55.75237854,1.15705119
63541b844de6259dad4ce489,54,1,2024-02-28T14:38:22.874Z,english_822.wav,0,peel,398,38,5,5,français ,m,9,0.9,-53.36958595,0.11001008
63541b844de6259dad4ce489,54,1,2024-02-28T14:38:22.874Z,english_822.wav,0,peel,398,38,5,5,français ,m,10,1.0,65.67162204,0.72053282
63541b844de6259dad4ce489,54,1,2024-02-28T14:38:22.874Z,english_822.wav,0,peel,398,38,5,5,français ,m,11,1.09391667,97.68319671,1.63006682
63541b844de6259dad4ce489,55,1,2024-02-28T14:38:22.874Z,english_684.wav,0,peel,302,38,5,5,français ,m,0,0.0,44.6488214,0.31150518
63541b844de6259dad4ce489,55,1,2024-02-28T14:38:22.874Z,english_684.wav,0,peel,302,38,5,5,français ,m,1,0.1,9.68442182,0.4998365
63541b844de6259dad4ce489,55,1,2024-02-28T14:38:22.874Z,english_684.wav,0,peel,302,38,5,5,français ,m,2,0.2,-45.058789,0.24275602
63541b844de6259dad4ce489,55,1,2024-02-28T14:38:22.874Z,english_684.wav,0,peel,302,38,5,5,français ,m,3,0.3,9.29989294,1.63678411
63541b844de6259dad4ce489,55,1,2024-02-28T14:38:22.874Z,english_684.wav,0,peel,302,38,5,5,français ,m,4,0.4,-93.3818257,1.55347247
63541b844de6259dad4ce489,55,1,2024-02-28T14:38:22.874Z,english_684.wav,0,peel,302,38,5,5,français ,m,5,0.5,-18.6654658,0.93326504
63541b844de6259dad4ce489,55,1,2024-02-28T14:38:22.874Z,english_684.wav,0,peel,302,38,5,5,français ,m,6,0.6,-36.1937511,1.36007358
63541b844de6259dad4ce489,55,1,2024-02-28T14:38:22.874Z,english_684.wav,0,peel,302,38,5,5,français ,m,7,0.7,-0.0227796988,0.52423503
63541b844de6259dad4ce489,55,1,2024-02-28T14:38:22.874Z,english_684.wav,0,peel,302,38,5,5,français ,m,8,0.8,-81.9835579,1.47566928
63541b844de6259dad4ce489,55,1,2024-02-28T14:38:22.874Z,english_684.wav,0,peel,302,38,5,5,français ,m,9,0.9,66.7026535,1.32008624
63541b844de6259dad4ce489,55,1,2024-02-28T14:38:22.874Z,english_684.wav,0,peel,302,38,5,5,français ,m,10,1.0,-28.1669756,1.00236166
63541b844de6259dad4ce489,55,1,2024-02-28T14:38:22.874Z,english_684.wav,0,peel,302,38,5,5,français ,m,11,1.09391667,-31.1571246,1.13724252
63541b844de6259dad4ce489,56,1,2024-02-28T14:38:22.874Z,english_202.wav,0,peel,400,38,5,5,français ,m,0,0.0,-55.5835629,1.42115323
63541b844de6259dad4ce489,56,1,2024-02-28T14:38:22.874Z,english_202.wav,0,peel,400,38,5,5,français ,m,1,0.1,-74.17222211,1.11230171
63541b844de6259dad4ce489,56,1,2024-02-28T14:38:22.874Z,english_202.wav,0,peel,400,38,5,5,français ,m,2,0.2,32.91988816,1.2604868
63541b844de6259dad4ce489,56,1,2024-02-28T14:38:22.874Z,english_202.wav,0,peel,400,38,5,5,français ,m,3,0.3,-61.08726633,1.38170621
63541b844de6259dad4ce489,56,1,2024-02-28T14:38:22.874Z,english_202.wav,0,peel,400,38,5,5,français ,m,4,0.4,74.28120307,1.19502306
63541b844de6259dad4ce489,56,1,2024-02-28T14:38:22.874Z,english_202.wav,0,peel,400,38,5,5,français ,m,5,0.5,27.15782783,1.3290301
63541b844de6259dad4ce489,56,1,2024-02-28T14:38:22.874Z,english_202.wav,0,peel,400,38,5,5,français ,m,6,0.6,-31.42828759,1.43273837
63541b844de6259dad4ce489,56,1,2024-02-28T14:38:22.874Z,english_202.wav,0,peel,400,38,5,5,français ,m,7,0.7,-85.57803202,0.23505516
63541b844de6259dad4ce489,56,1,2024-02-28T14:38:22.874Z,english_202.wav,0,peel,400,38,5,5,français ,m,8,0.8,-8.83313062,0.8306151
63541b844de6259dad4ce489,56,1,2024-02-28T14:38:22.874Z,english_202.wav,0,peel,400,38,5,5,français ,m,9,0.9,75.88912897,1.14421979
63541b844de6259dad4ce489,56,1,2024-02-28T14:38:22.874Z,english_202.wav,0,peel,400,38,5,5,français ,m,10,1.0,-46.89935533,1.72535261
63541b844de6259dad4ce489,56,1,2024-02-28T14:38:22.874Z,english_202.wav,0,peel,400,38,5,5,français ,m,11,1.09391667,1.73094833,1.37481935
63541b844de6259dad4ce489,57,1,2024-02-28T14:38:22.874Z,english_903.wav,0,pill,529,38,5,5,français ,m,0,0.0,74.40610552,1.10397813
63541b844de6259dad4ce489,57,1,2024-02-28T14:38:22.874Z,english_903.wav,0,pill,529,38,5,5,français ,m,1,0.1,-14.0058198,0.67044391
63541b844de6259dad4ce489,57,1,2024-02-28T14:38:22.874Z,english_903.wav,0,pill,529,38,5,5,français ,m,2,0.2,-43.18870249,1.06331023
63541b844de6259dad4ce489,57,1,2024-02-28T14:38:22.874Z,english_903.wav,0,pill,529,38,5,5,français ,m,3,0.3,85.51038869,0.60586728
63541b844de6259dad4ce489,57,1,2024-02-28T14:38:22.874Z,english_903.wav,0,pill,529,38,5,5,français ,m,4,0.4,8.36930428,0.11380816
63541b844de6259dad4ce489,57,1,2024-02-28T14:38:22.874Z,english_903.wav,0,pill,529,38,5,5,français ,m,5,0.5,-11.10468326,1.21530961
63541b844de6259dad4ce489,57,1,2024-02-28T14:38:22.874Z,english_903.wav,0,pill,529,38,5,5,français ,m,6,0.6,0.77760872,1.48658081
63541b844de6259dad4ce489,57,1,2024-02-28T14:38:22.874Z,english_903.wav,0,pill,529,38,5,5,français ,m,7,0.7,61.82804998,1.41412243
63541b844de6259dad4ce489,57,1,2024-02-28T14:38:22.874Z,english_903.wav,0,pill,529,38,5,5,français ,m,8,0.8,-21.718638,0.93606202
63541b844de6259dad4ce489,57,1,2024-02-28T14:38:22.874Z,english_903.wav,0,pill,529,38,5,5,français ,m,9,0.9,-41.58529941,0.40038549
63541b844de6259dad4ce489,57,1,2024-02-28T14:38:22.874Z,english_903.wav,0,pill,529,38,5,5,français ,m,10,1.0,22.99211782,0.6748387
63541b844de6259dad4ce489,57,1,2024-02-28T14:38:22.874Z,english_903.wav,0,pill,529,38,5,5,français ,m,11,1.09391667,-96.82772328,0.72929926
63541b844de6259dad4ce489,58,1,2024-02-28T14:38:22.874Z,english_432.wav,0,peel,230,38,5,5,français ,m,0,0.0,28.49955807,0.25208372
63541b844de6259dad4ce489,58,1,2024-02-28T14:38:22.874Z,english_432.wav,0,peel,230,38,5,5,français ,m,1,0.1,-31.8275444,0.73448825
63541b844de6259dad4ce489,58,1,2024-02-28T14:38:22.874Z,english_432.wav,0,peel,230,38,5,5,français ,m,2,0.2,24.24217544,0.75780001
63541b844de6259dad4ce489,58,1,2024-02-28T14:38:22.874Z,english_432.wav,0,peel,230,38,5,5,français ,m,3,0.3,-66.09269444,1.1180686
63541b844de6259dad4ce489,58,1,2024-02-28T14:38:22.874Z,english_432.wav,0,peel,230,38,5,5,français ,m,4,0.4,-62.15798019,1.06816696
63541b844de6259dad4ce489,58,1,2024-02-28T14:38:22.874Z,english_432.wav,0,peel,230,38,5,5,français ,m,5,0.5,-49.72154406,0.60613643
63541b844de6259dad4ce489,58,1,2024-02-28T14:38:22.874Z,english_432.wav,0,peel,230,38,5,5,français ,m,6,0.6,-47.69762913,0.58276722
63541b844de6259dad4ce489,58,1,2024-02-28T14:38:22.874Z,english_432.wav,0,peel,230,38,5,5,français ,m,7,0.7,77.36626765,1.4653334
63541b844de6259dad4ce489,58,1,2024-02-28T14:38:22.874Z,english_432.wav,0,peel,230,38,5,5,français ,m,8,0.8,5.83013874,1.3937813
63541b844de6259dad4ce489,58,1,2024-02-28T14:38:22.874Z,english_432.wav,0,peel,230,38,5,5,français ,m,9,0.9,28.26329168,1.50157436
63541b844de6259dad4ce489,58,1,2024-02-28T14:38:22.874Z,english_432.wav,0,peel,230,38,5,5,français ,m,10,1.0,-41.71680011,1.14185861
63541b844de6259dad4ce489,58,1,2024-02-28T14:38:22.874Z,english_432.wav,0,peel,230,38,5,5,français ,m,11,1.09391667,67.89473062,1.59474316
63541b844de6259dad4ce489,59,1,2024-02-28T14:38:22.874Z,english_294.wav,0,peel,381,38,5,5,français ,m,0,0.0,-35.26170476,0.76895084
63541b844de6259dad4ce489,59,1,2024-02-28T14:38:22.874Z,english_294.wav,0,peel,381,38,5,5,français ,m,1,0.1,-68.79847515,0.42345848
63541b844de6259dad4ce489,59,1,2024-02-28T14:38:22.874Z,english_294.wav,0,peel,381,38,5,5,français ,m,2,0.2,21.65443345,1.88759315
63541b844de6259dad4ce489,59,1,2024-02-28T14:38:22.874Z,english_294.wav,0,peel,381,38,5,5,français ,m,3,0.3,18.61336719,0.20743541
63541b844de6259dad4ce489,59,1,2024-02-28T14:38:22.874Z,english_294.wav,0,peel,381,38,5,5,français ,m,4,0.4,29.14118392,0.10193981
63541b844de6259dad4ce489,59,1,2024-02-28T14:38:22.874Z,english_294.wav,0,peel,381,38,5,5,français ,m,5,0.5,-0.79474297,0.31438326
63541b844de6259dad4ce489,59,1,2024-02-28T14:38:22.874Z,english_294.wav,0,peel,381,38,5,5,français ,m,6,0.6,-83.10715175,1.2995954
63541b844de6259dad4ce489,59,1,2024-02-28T14:38:22.874Z,english_294.wav,0,peel,381,38,5,5,français ,m,7,0.7,-22.63410673,1.94703728
63541b844de6259dad4ce489,59,1,2024-02-28T14:38:22.874Z,english_294.wav,0,peel,381,38,5,5,français ,m,8,0.8,-21.26415856,0.92366458
63541b844de6259dad4ce489,59,1,2024-02-28T14:38:22.874Z,english_294.wav,0,peel,381,38,5,5,français ,m,9,0.9,47.90727918,1.04223302
63541b844de6259dad4ce489,59,1,2024-02-28T14:38:22.874Z,english_294.wav,0,peel,381,38,5,5,français ,m,10,1.0,-39.88232682,1.01801331
63541b844de6259dad4ce489,59,1,2024-02-28T14:38:22.874Z,english_294.wav,0,peel,381,38,5,5,français ,m,11,1.09391667,-74.09279353,0.911147
63541b844de6259dad4ce489,60,1,2024-02-28T14:38:22.874Z,english_725.wav,0,pill,373,38,5,5,français ,m,0,0.0,-9.03644008,1.33439085
63541b844de6259dad4ce489,60,1,2024-02-28T14:38:22.874Z,english_725.wav,0,pill,373,38,5,5,français ,m,1,0.1,17.25768585,1.14250237
63541b844de6259dad4ce489,60,1,2024-02-28T14:38:22.874Z,english_725.wav,0,pill,373,38,5,5,français ,m,2,0.2,31.80596944,1.31071592
63541b844de6259dad4ce489,60,1,2024-02-28T14:38:22.874Z,english_725.wav,0,pill,373,38,5,5,français ,m,3,0.3,-37.53705258,0.64785465
63541b844de6259dad4ce489,60,1,2024-02-28T14:38:22.874Z,english_725.wav,0,pill,373,38,5,5,français ,m,4,0.4,-72.83315878,1.42686134
63541b844de6259dad4ce489,60,1,2024-02-28T14:38:22.874Z,english_725.wav,0,pill,373,38,5,5,français ,m,5,0.5,-86.89655244,1.9351134
63541b844de6259dad4ce489,60,1,2024-02-28T14:38:22.874Z,english_725.wav,0,pill,373,38,5,5,français ,m,6,0.6,-41.36643193,0.6329639
63541b844de6259dad4ce489,60,1,2024-02-28T14:38:22.874Z,english_725.wav,0,pill,373,38,5,5,français ,m,7,0.7,-24.29547068,1.12609379
63541b844de6259dad4ce489,60,1,2024-02-28T14:38:22.874Z,english_725.wav,0,pill,373,38,5,5,français ,m,8,0.8,-10.26201034,0.4317144
63541b844de6259dad4ce489,60,1,2024-02-28T14:38:22.874Z,english_725.wav,0,pill,373,38,5,5,français ,m,9,0.9,-84.73732243,0.11714111
63541b844de6259dad4ce489,60,1,2024-02-28T14:38:22.874Z,english_725.wav,0,pill,373,38,5,5,français ,m,10,1.0,29.57592595,1.51572797
63541b844de6259dad4ce489,60,1,2024-02-28T14:38:22.874Z,english_725.wav,0,pill,373,38,5,5,français ,m,11,1.09391667,-31.00210879,0.75437121
63541b844de6259dad4ce489,61,1,2024-02-28T14:38:22.874Z,english_254.wav,0,peel,363,38,5,5,français ,m,0,0.0,-79.97486314,0.1587751
63541b844de6259dad4ce489,61,1,2024-02-28T14:38:22.874Z,english_254.wav,0,peel,363,38,5,5,français ,m,1,0.1,4.97939185,1.19895937
63541b844de6259dad4ce489,61,1,2024-02-28T14:38:22.874Z,english_254.wav,0,peel,363,38,5,5,français ,m,2,0.2,-28.78047168,0.42029652
63541b844de6259dad4ce489,61,1,2024-02-28T14:38:22.874Z,english_254.wav,0,peel,363,38,5,5,français ,m,3,0.3,54.84679162,0.35684023
63541b844de6259dad4ce489,61,1,2024-02-28T14:38:22.874Z,english_254.wav,0,peel,363,38,5,5,français ,m,4,0.4,-29.5092506,0.61489906
63541b844de6259dad4ce489,61,1,2024-02-28T14:38:22.874Z,english_254.wav,0,peel,363,38,5,5,français ,m,5,0.5,32.35526616,0.62359164
63541b844de6259dad4ce489,61,1,2024-02-28T14:38:22.874Z,english_254.wav,0,peel,363,38,5,5,français ,m,6,0.6,30.73043206,0.73353012
63541b844de6259dad4ce489,61,1,2024-02-28T14:38:22.874Z,english_254.wav,0,peel,363,38,5,5,français ,m,7,0.7,-63.39934618,1.26915249
63541b844de6259dad4ce489,61,1,2024-02-28T14:38:22.874Z,english_254.wav,0,peel,363,38,5,5,français ,m,8,0.8,41.52768957,1.27281169
63541b844de6259dad4ce489,61,1,2024-02-28T14:38:22.874Z,english_254.wav,0,peel,363,38,5,5,français ,m,9,0.9,-68.73480186,1.34629586
63541b844de6259dad4ce489,61,1,2024-02-28T14:38:22.874Z,english_254.wav,0,peel,363,38,5,5,français ,m,10,1.0,39.94615362,0.72701625
63541b844de6259dad4ce489,61,1,2024-02-28T14:38:22.874Z,english_254.wav,0,peel,363,38,5,5,français ,m,11,1.09391667,-8.67015509,0.66252937
63541b844de6259dad4ce489,62,1,2024-02-28T14:38:22.874Z,english_867.wav,0,peel,327,38,5,5,français ,m,0,0.0,-24.89816024,0.58295981
63541b844de6259dad4ce489,62,1,2024-02-28T14:38:22.874Z,english_867.wav,0,peel,327,38,5,5,français ,m,1,0.1,-5.46882756,0.29098819
63541b844de6259dad4ce489,62,1,2024-02-28T14:38:22.874Z,english_867.wav,0,peel,327,38,5,5,français ,m,2,0.2,20.19834057,1.14395964
63541b844de6259dad4ce489,62,1,2024-02-28T14:38:22.874Z,english_867.wav,0,peel,327,38,5,5,français ,m,3,0.3,-93.32796435,1.65419487
63541b844de6259dad4ce489,62,1,2024-02-28T14:38:22.874Z,english_867.wav,0,peel,327,38,5,5,français ,m,4,0.4,33.67014856,0.61503003
63541b844de6259dad4ce489,62,1,2024-02-28T14:38:22.874Z,english_867.wav,0,peel,327,38,5,5,français ,m,5,0.5,-35.81311347,0.19208338
63541b844de6259dad4ce489,62,1,2024-02-28T14:38:22.874Z,english_867.wav,0,peel,327,38,5,5,français ,m,6,0.6,3.8400964,1.34794824
63541b844de6259dad4ce489,62,1,2024-02-28T14:38:22.874Z,english_867.wav,0,peel,327,38,5,5,français ,m,7,0.7,36.13382858,0.71921044
63541b844de6259dad4ce489,62,1,2024-02-28T14:38:22.874Z,english_867.wav,0,peel,327,38,5,5,français ,m,8,0.8,70.00228028,1.86066536
63541b844de6259dad4ce489,62,1,2024-02-28T14:38:22.874Z,english_867.wav,0,peel,327,38,5,5,français ,m,9,0.9,81.61272395,0.96263601
63541b844de6259dad4ce489,62,1,2024-02-28T14:38:22.874Z,english_867.wav,0,peel,327,38,5,5,français ,m,10,1.0,-46.82426053,1.18263142
63541b844de6259dad4ce489,62,1,2024-02-28T14:38:22.874Z,english_867.wav,0,peel,327,38,5,5,français ,m,11,1.09391667,21.97193379,1.25802514
63541b844de6259dad4ce489,63,1,2024-02-28T14:38:22.874Z,english_126.wav,0,peel,717,38,5,5,français ,m,0,0.0,17.23277349,0.07681875
63541b844de6259dad4ce489,63,1,2024-02-28T14:38:22.874Z,english_126.wav,0,peel,717,38,5,5,français ,m,1,0.1,-82.02564831,1.15308157
63541b844de6259dad4ce489,63,1,2024-02-28T14:38:22.874Z,english_126.wav,0,peel,717,38,5,5,français ,m,2,0.2,-89.77449202,0.24325653
63541b844de6259dad4ce489,63,1,2024-02-28T14:38:22.874Z,english_126.wav,0,peel,717,38,5,5,français ,m,3,0.3,-51.19975639,0.26308615
63541b844de6259dad4ce489,63,1,2024-02-28T14:38:22.874Z,english_126.wav,0,peel,717,38,5,5,français ,m,4,0.4,-15.70542785,1.15666053
