subj,trial,block,date,stim,stim_order,response,rt,age,english,french,language,sex,param_index,segment,pitch,stretch
65a83f5909f0706ac5f33dc0,0,0,2024-02-28T14:47:27.663Z,english_742.wav,0,peel,1624,33,5,5,francais,m,0,0.0,16.40248558,0.38841716
65a83f5909f0706ac5f33dc0,0,0,2024-02-28T14:47:27.663Z,english_742.wav,0,peel,1624,33,5,5,francais,m,1,0.1,-74.48361089,0.81078957
65a83f5909f0706ac5f33dc0,0,0,2024-02-28T14:47:27.663Z,english_742.wav,0,peel,1624,33,5,5,francais,m,2,0.2,-68.54189756,1.40021639
65a83f5909f0706ac5f33dc0,0,0,2024-02-28T14:47:27.663Z,english_742.wav,0,peel,1624,33,5,5,francais,m,3,0.3,-12.74577912,0.37000306
65a83f5909f0706ac5f33dc0,0,0,2024-02-28T14:47:27.663Z,english_742.wav,0,peel,1624,33,5,5,francais,m,4,0.4,42.91022855,0.86528291
65a83f5909f0706ac5f33dc0,0,0,2024-02-28T14:47:27.663Z,english_742.wav,0,peel,1624,33,5,5,francais,m,5,0.5,61.35454691,0.21278301
65a83f5909f0706ac5f33dc0,0,0,2024-02-28T14:47:27.663Z,english_742.wav,0,peel,1624,33,5,5,francais,m,6,0.6,-74.78284805,1.55046698
65a83f5909f0706ac5f33dc0,0,0,2024-02-28T14:47:27.663Z,english_742.wav,0,peel,1624,33,5,5,francais,m,7,0.7,71.03659878,1.739545
65a83f5909f0706ac5f33dc0,0,0,2024-02-28T14:47:27.663Z,english_742.wav,0,peel,1624,33,5,5,francais,m,8,0.8,51.11475536,1.10810315
65a83f5909f0706ac5f33dc0,0,0,2024-02-28T14:47:27.663Z,english_742.wav,0,peel,1624,33,5,5,francais,m,9,0.9,52.57489365,0.37698393
65a83f5909f0706ac5f33dc0,0,0,2024-02-28T14:47:27.663Z,english_742.wav,0,peel,1624,33,5,5,francais,m,10,1.0,-21.18365938,1.01484038
65a83f5909f0706ac5f33dc0,0,0,2024-02-28T14:47:27.663Z,english_742.wav,0,peel,1624,33,5,5,francais,m,11,1.09391667,62.14901308,0.3479372
65a83f5909f0706ac5f33dc0,1,0,2024-02-28T14:47:27.663Z,english_435.wav,0,pill,429,33,5,5,francais,m,0,0.0,-31.13269848,0.87360856
65a83f5909f0706ac5f33dc0,1,0,2024-02-28T14:47:27.663Z,english_435.wav,0,pill,429,33,5,5,francais,m,1,0.1,92.06970246,0.90374027
65a83f5909f0706ac5f33dc0,1,0,2024-02-28T14:47:27.663Z,english_435.wav,0,pill,429,33,5,5,francais,m,2,0.2,-23.49616722,0.13869042
65a83f5909f0706ac5f33dc0,1,0,2024-02-28T14:47:27.663Z,english_435.wav,0,pill,429,33,5,5,francais,m,3,0.3,28.69293566,0.36148201
65a83f5909f0706ac5f33dc0,1,0,2024-02-28T14:47:27.663Z,english_435.wav,0,pill,429,33,5,5,francais,m,4,0.4,91.13017666,1.64954246
65a83f5909f0706ac5f33dc0,1,0,2024-02-28T14:47:27.663Z,english_435.wav,0,pill,429,33,5,5,francais,m,5,0.5,73.01983282,0.8333488
65a83f5909f0706ac5f33dc0,1,0,2024-02-28T14:47:27.663Z,english_435.wav,0,pill,429,33,5,5,francais,m,6,0.6,26.94870672,0.92769237
65a83f5909f0706ac5f33dc0,1,0,2024-02-28T14:47:27.663Z,english_435.wav,0,pill,429,33,5,5,francais,m,7,0.7,-17.86331575,0.23890126
65a83f5909f0706ac5f33dc0,1,0,2024-02-28T14:47:27.663Z,english_435.wav,0,pill,429,33,5,5,francais,m,8,0.8,-12.47586644,0.53709856
65a83f5909f0706ac5f33dc0,1,0,2024-02-28T14:47:27.663Z,english_435.wav,0,pill,429,33,5,5,francais,m,9,0.9,-45.803678,1.33606874
65a83f5909f0706ac5f33dc0,1,0,2024-02-28T14:47:27.663Z,english_435.wav,0,pill,429,33,5,5,francais,m,10,1.0,12.54092013,1.23901183
65a83f5909f0706ac5f33dc0,1,0,2024-02-28T14:47:27.663Z,english_435.wav,0,pill,429,33,5,5,francais,m,11,1.09391667,96.00954818,0.13308527
65a83f5909f0706ac5f33dc0,2,0,2024-02-28T14:47:27.663Z,english_873.wav,0,pill,386,33,5,5,francais,m,0,0.0,-5.34184308,0.18534223
65a83f5909f0706ac5f33dc0,2,0,2024-02-28T14:47:27.663Z,english_873.wav,0,pill,386,33,5,5,francais,m,1,0.1,29.86705528,1.00948066
65a83f5909f0706ac5f33dc0,2,0,2024-02-28T14:47:27.663Z,english_873.wav,0,pill,386,33,5,5,francais,m,2,0.2,-53.62087934,0.93104213
65a83f5909f0706ac5f33dc0,2,0,2024-02-28T14:47:27.663Z,english_873.wav,0,pill,386,33,5,5,francais,m,3,0.3,-59.16709203,1.19025309
65a83f5909f0706ac5f33dc0,2,0,2024-02-28T14:47:27.663Z,english_873.wav,0,pill,386,33,5,5,francais,m,4,0.4,69.60141357,1.48608178
65a83f5909f0706ac5f33dc0,2,0,2024-02-28T14:47:27.663Z,english_873.wav,0,pill,386,33,5,5,francais,m,5,0.5,-44.07046907,0.89447273
65a83f5909f0706ac5f33dc0,2,0,2024-02-28T14:47:27.663Z,english_873.wav,0,pill,386,33,5,5,francais,m,6,0.6,55.781826,0.18822797
65a83f5909f0706ac5f33dc0,2,0,2024-02-28T14:47:27.663Z,english_873.wav,0,pill,386,33,5,5,francais,m,7,0.7,-40.21183655,0.79732375
65a83f5909f0706ac5f33dc0,2,0,2024-02-28T14:47:27.663Z,english_873.wav,0,pill,386,33,5,5,francais,m,8,0.8,9.01550121,0.51650354
65a83f5909f0706ac5f33dc0,2,0,2024-02-28T14:47:27.663Z,english_873.wav,0,pill,386,33,5,5,francais,m,9,0.9,-15.28098321,0.06272522
65a83f5909f0706ac5f33dc0,2,0,2024-02-28T14:47:27.663Z,english_873.wav,0,pill,386,33,5,5,francais,m,10,1.0,-64.77079799,1.63736384
65a83f5909f0706ac5f33dc0,2,0,2024-02-28T14:47:27.663Z,english_873.wav,0,pill,386,33,5,5,francais,m,11,1.09391667,80.68199225,1.95600343
65a83f5909f0706ac5f33dc0,3,0,2024-02-28T14:47:27.663Z,english_975.wav,0,peel,235,33,5,5,francais,m,0,0.0,-53.40155937,0.28931867
65a83f5909f0706ac5f33dc0,3,0,2024-02-28T14:47:27.663Z,english_975.wav,0,peel,235,33,5,5,francais,m,1,0.1,-46.7591449,0.26014098
65a83f5909f0706ac5f33dc0,3,0,2024-02-28T14:47:27.663Z,english_975.wav,0,peel,235,33,5,5,francais,m,2,0.2,-39.94858347,0.60863929
65a83f5909f0706ac5f33dc0,3,0,2024-02-28T14:47:27.663Z,english_975.wav,0,peel,235,33,5,5,francais,m,3,0.3,4.12816175,1.96061536
65a83f5909f0706ac5f33dc0,3,0,2024-02-28T14:47:27.663Z,english_975.wav,0,peel,235,33,5,5,francais,m,4,0.4,83.44282051,0.74428813
65a83f5909f0706ac5f33dc0,3,0,2024-02-28T14:47:27.663Z,english_975.wav,0,peel,235,33,5,5,francais,m,5,0.5,20.33193784,1.01644474
65a83f5909f0706ac5f33dc0,3,0,2024-02-28T14:47:27.663Z,english_975.wav,0,peel,235,33,5,5,francais,m,6,0.6,-92.84690604,0.21290726
65a83f5909f0706ac5f33dc0,3,0,2024-02-28T14:47:27.663Z,english_975.wav,0,peel,235,33,5,5,francais,m,7,0.7,69.62119896,0.78909982
65a83f5909f0706ac5f33dc0,3,0,2024-02-28T14:47:27.663Z,english_975.wav,0,peel,235,33,5,5,francais,m,8,0.8,-27.30637844,1.61436772
65a83f5909f0706ac5f33dc0,3,0,2024-02-28T14:47:27.663Z,english_975.wav,0,peel,235,33,5,5,francais,m,9,0.9,71.11664605,0.92754286
65a83f5909f0706ac5f33dc0,3,0,2024-02-28T14:47:27.663Z,english_975.wav,0,peel,235,33,5,5,francais,m,10,1.0,-25.28708081,1.92956557
65a83f5909f0706ac5f33dc0,3,0,2024-02-28T14:47:27.663Z,english_975.wav,0,peel,235,33,5,5,francais,m,11,1.09391667,-18.06651804,1.66494484
65a83f5909f0706ac5f33dc0,4,0,2024-02-28T14:47:27.663Z,english_437.wav,0,peel,465,33,5,5,francais,m,0,0.0,33.55993848,1.07053388
65a83f5909f0706ac5f33dc0,4,0,2024-02-28T14:47:27.663Z,english_437.wav,0,peel,465,33,5,5,francais,m,1,0.1,99.2710896,1.13266277
65a83f5909f0706ac5f33dc0,4,0,2024-02-28T14:47:27.663Z,english_437.wav,0,peel,465,33,5,5,francais,m,2,0.2,-32.57477065,1.9895336
65a83f5909f0706ac5f33dc0,4,0,2024-02-28T14:47:27.663Z,english_437.wav,0,peel,465,33,5,5,francais,m,3,0.3,-17.79752124,1.49721118
65a83f5909f0706ac5f33dc0,4,0,2024-02-28T14:47:27.663Z,english_437.wav,0,peel,465,33,5,5,francais,m,4,0.4,7.76381485,1.18690415
65a83f5909f0706ac5f33dc0,4,0,2024-02-28T14:47:27.663Z,english_437.wav,0,peel,465,33,5,5,francais,m,5,0.5,-50.05370097,1.89119188
65a83f5909f0706ac5f33dc0,4,0,2024-02-28T14:47:27.663Z,english_437.wav,0,peel,465,33,5,5,francais,m,6,0.6,5.06874502,0.49511118
65a83f5909f0706ac5f33dc0,4,0,2024-02-28T14:47:27.663Z,english_437.wav,0,peel,465,33,5,5,francais,m,7,0.7,1.99558214,1.27007291
65a83f5909f0706ac5f33dc0,4,0,2024-02-28T14:47:27.663Z,english_437.wav,0,peel,465,33,5,5,francais,m,8,0.8,43.8272749,1.66092274
65a83f5909f0706ac5f33dc0,4,0,2024-02-28T14:47:27.663Z,english_437.wav,0,peel,465,33,5,5,francais,m,9,0.9,98.27063476,0.51492766
65a83f5909f0706ac5f33dc0,4,0,2024-02-28T14:47:27.663Z,english_437.wav,0,peel,465,33,5,5,francais,m,10,1.0,18.74881687,0.04140418
65a83f5909f0706ac5f33dc0,4,0,2024-02-28T14:47:27.663Z,english_437.wav,0,peel,465,33,5,5,francais,m,11,1.09391667,-57.70401561,0.6117047
65a83f5909f0706ac5f33dc0,5,0,2024-02-28T14:47:27.663Z,english_891.wav,0,peel,4812,33,5,5,francais,m,0,0.0,-51.94899703,0.42846165
65a83f5909f0706ac5f33dc0,5,0,2024-02-28T14:47:27.663Z,english_891.wav,0,peel,4812,33,5,5,francais,m,1,0.1,-40.85786471,0.93876637
65a83f5909f0706ac5f33dc0,5,0,2024-02-28T14:47:27.663Z,english_891.wav,0,peel,4812,33,5,5,francais,m,2,0.2,-13.56091334,1.78643125
65a83f5909f0706ac5f33dc0,5,0,2024-02-28T14:47:27.663Z,english_891.wav,0,peel,4812,33,5,5,francais,m,3,0.3,13.09065144,1.47761109
65a83f5909f0706ac5f33dc0,5,0,2024-02-28T14:47:27.663Z,english_891.wav,0,peel,4812,33,5,5,francais,m,4,0.4,-0.86453478,1.66653353
65a83f5909f0706ac5f33dc0,5,0,2024-02-28T14:47:27.663Z,english_891.wav,0,peel,4812,33,5,5,francais,m,5,0.5,31.90721085,1.63856449
65a83f5909f0706ac5f33dc0,5,0,2024-02-28T14:47:27.663Z,english_891.wav,0,peel,4812,33,5,5,francais,m,6,0.6,-27.60460343,1.17540335
65a83f5909f0706ac5f33dc0,5,0,2024-02-28T14:47:27.663Z,english_891.wav,0,peel,4812,33,5,5,francais,m,7,0.7,85.79516825,1.60236138
65a83f5909f0706ac5f33dc0,5,0,2024-02-28T14:47:27.663Z,english_891.wav,0,peel,4812,33,5,5,francais,m,8,0.8,83.05957198,0.96737739
65a83f5909f0706ac5f33dc0,5,0,2024-02-28T14:47:27.663Z,english_891.wav,0,peel,4812,33,5,5,francais,m,9,0.9,-61.83196055,1.42758327
65a83f5909f0706ac5f33dc0,5,0,2024-02-28T14:47:27.663Z,english_891.wav,0,peel,4812,33,5,5,francais,m,10,1.0,-69.67221927,0.19704513
65a83f5909f0706ac5f33dc0,5,0,2024-02-28T14:47:27.663Z,english_891.wav,0,peel,4812,33,5,5,francais,m,11,1.09391667,4.62166255,0.91556812
65a83f5909f0706ac5f33dc0,6,0,2024-02-28T14:47:27.663Z,english_491.wav,0,pill,432,33,5,5,francais,m,0,0.0,-86.04728356,0.47614904
65a83f5909f0706ac5f33dc0,6,0,2024-02-28T14:47:27.663Z,english_491.wav,0,pill,432,33,5,5,francais,m,1,0.1,-65.88451303,0.55089812
65a83f5909f0706ac5f33dc0,6,0,2024-02-28T14:47:27.663Z,english_491.wav,0,pill,432,33,5,5,francais,m,2,0.2,-80.48711576,1.1167033
65a83f5909f0706ac5f33dc0,6,0,2024-02-28T14:47:27.663Z,english_491.wav,0,pill,432,33,5,5,francais,m,3,0.3,-14.20773903,1.47203435
65a83f5909f0706ac5f33dc0,6,0,2024-02-28T14:47:27.663Z,english_491.wav,0,pill,432,33,5,5,francais,m,4,0.4,8.14780759,1.34464479
65a83f5909f0706ac5f33dc0,6,0,2024-02-28T14:47:27.663Z,english_491.wav,0,pill,432,33,5,5,francais,m,5,0.5,-64.09571567,1.15432427
65a83f5909f0706ac5f33dc0,6,0,2024-02-28T14:47:27.663Z,english_491.wav,0,pill,432,33,5,5,francais,m,6,0.6,54.51757577,1.10816548
65a83f5909f0706ac5f33dc0,6,0,2024-02-28T14:47:27.663Z,english_491.wav,0,pill,432,33,5,5,francais,m,7,0.7,44.38602798,0.53599429
65a83f5909f0706ac5f33dc0,6,0,2024-02-28T14:47:27.663Z,english_491.wav,0,pill,432,33,5,5,francais,m,8,0.8,-1.2376907,1.13980754
65a83f5909f0706ac5f33dc0,6,0,2024-02-28T14:47:27.663Z,english_491.wav,0,pill,432,33,5,5,francais,m,9,0.9,77.13121924,0.89300384
65a83f5909f0706ac5f33dc0,6,0,2024-02-28T14:47:27.663Z,english_491.wav,0,pill,432,33,5,5,francais,m,10,1.0,-14.590686,0.5502855
65a83f5909f0706ac5f33dc0,6,0,2024-02-28T14:47:27.663Z,english_491.wav,0,pill,432,33,5,5,francais,m,11,1.09391667,68.41813951,1.59909439
65a83f5909f0706ac5f33dc0,7,0,2024-02-28T14:47:27.663Z,english_165.wav,0,peel,188,33,5,5,francais,m,0,0.0,-2.19989306,1.80366268
65a83f5909f0706ac5f33dc0,7,0,2024-02-28T14:47:27.663Z,english_165.wav,0,peel,188,33,5,5,francais,m,1,0.1,-17.54385673,0.63199927
65a83f5909f0706ac5f33dc0,7,0,2024-02-28T14:47:27.663Z,english_165.wav,0,peel,188,33,5,5,francais,m,2,0.2,-35.4480887,1.72021084
65a83f5909f0706ac5f33dc0,7,0,2024-02-28T14:47:27.663Z,english_165.wav,0,peel,188,33,5,5,francais,m,3,0.3,38.42421814,1.85097281
65a83f5909f0706ac5f33dc0,7,0,2024-02-28T14:47:27.663Z,english_165.wav,0,peel,188,33,5,5,francais,m,4,0.4,19.51422171,0.29605958
65a83f5909f0706ac5f33dc0,7,0,2024-02-28T14:47:27.663Z,english_165.wav,0,peel,188,33,5,5,francais,m,5,0.5,-2.86344702,1.04155763
65a83f5909f0706ac5f33dc0,7,0,2024-02-28T14:47:27.663Z,english_165.wav,0,peel,188,33,5,5,francais,m,6,0.6,24.21245357,0.33290829
65a83f5909f0706ac5f33dc0,7,0,2024-02-28T14:47:27.663Z,english_165.wav,0,peel,188,33,5,5,francais,m,7,0.7,-20.07763652,0.77719776
65a83f5909f0706ac5f33dc0,7,0,2024-02-28T14:47:27.663Z,english_165.wav,0,peel,188,33,5,5,francais,m,8,0.8,-4.69526924,1.6690738
65a83f5909f0706ac5f33dc0,7,0,2024-02-28T14:47:27.663Z,english_165.wav,0,peel,188,33,5,5,francais,m,9,0.9,46.92767694,0.76251785
65a83f5909f0706ac5f33dc0,7,0,2024-02-28T14:47:27.663Z,english_165.wav,0,peel,188,33,5,5,francais,m,10,1.0,-4.88253914,1.74728665
65a83f5909f0706ac5f33dc0,7,0,2024-02-28T14:47:27.663Z,english_165.wav,0,peel,188,33,5,5,francais,m,11,1.09391667,23.85195976,0.67244999
65a83f5909f0706ac5f33dc0,8,0,2024-02-28T14:47:27.663Z,english_579.wav,0,pill,402,33,5,5,francais,m,0,0.0,-6.35392527,1.17195822
65a83f5909f0706ac5f33dc0,8,0,2024-02-28T14:47:27.663Z,english_579.wav,0,pill,402,33,5,5,francais,m,1,0.1,5.78092652,1.67817047
65a83f5909f0706ac5f33dc0,8,0,2024-02-28T14:47:27.663Z,english_579.wav,0,pill,402,33,5,5,francais,m,2,0.2,55.74149698,0.96512057
65a83f5909f0706ac5f33dc0,8,0,2024-02-28T14:47:27.663Z,english_579.wav,0,pill,402,33,5,5,francais,m,3,0.3,64.66054606,0.73760998
65a83f5909f0706ac5f33dc0,8,0,2024-02-28T14:47:27.663Z,english_579.wav,0,pill,402,33,5,5,francais,m,4,0.4,-20.37343055,0.24043414
65a83f5909f0706ac5f33dc0,8,0,2024-02-28T14:47:27.663Z,english_579.wav,0,pill,402,33,5,5,francais,m,5,0.5,97.55604333,0.0297902
65a83f5909f0706ac5f33dc0,8,0,2024-02-28T14:47:27.663Z,english_579.wav,0,pill,402,33,5,5,francais,m,6,0.6,-7.40313463,0.83835869
65a83f5909f0706ac5f33dc0,8,0,2024-02-28T14:47:27.663Z,english_579.wav,0,pill,402,33,5,5,francais,m,7,0.7,-9.7199121,0.36547932
65a83f5909f0706ac5f33dc0,8,0,2024-02-28T14:47:27.663Z,english_579.wav,0,pill,402,33,5,5,francais,m,8,0.8,-43.88557754,1.0786992
65a83f5909f0706ac5f33dc0,8,0,2024-02-28T14:47:27.663Z,english_579.wav,0,pill,402,33,5,5,francais,m,9,0.9,89.28129007,1.76340712
65a83f5909f0706ac5f33dc0,8,0,2024-02-28T14:47:27.663Z,english_579.wav,0,pill,402,33,5,5,francais,m,10,1.0,21.49927336,0.94339598
65a83f5909f0706ac5f33dc0,8,0,2024-02-28T14:47:27.663Z,english_579.wav,0,pill,402,33,5,5,francais,m,11,1.09391667,85.53999973,1.1220246
65a83f5909f0706ac5f33dc0,9,0,2024-02-28T14:47:27.663Z,english_421.wav,0,pill,554,33,5,5,francais,m,0,0.0,-77.37875109,0.40906671
65a83f5909f0706ac5f33dc0,9,0,2024-02-28T14:47:27.663Z,english_421.wav,0,pill,554,33,5,5,francais,m,1,0.1,21.68470971,0.10764534
65a83f5909f0706ac5f33dc0,9,0,2024-02-28T14:47:27.663Z,english_421.wav,0,pill,554,33,5,5,francais,m,2,0.2,25.95594031,0.09890733
65a83f5909f0706ac5f33dc0,9,0,2024-02-28T14:47:27.663Z,english_421.wav,0,pill,554,33,5,5,francais,m,3,0.3,-54.56850785,1.06704705
65a83f5909f0706ac5f33dc0,9,0,2024-02-28T14:47:27.663Z,english_421.wav,0,pill,554,33,5,5,francais,m,4,0.4,24.0018444,0.2085299
65a83f5909f0706ac5f33dc0,9,0,2024-02-28T14:47:27.663Z,english_421.wav,0,pill,554,33,5,5,francais,m,5,0.5,-47.82681182,0.29426066
65a83f5909f0706ac5f33dc0,9,0,2024-02-28T14:47:27.663Z,english_421.wav,0,pill,554,33,5,5,francais,m,6,0.6,-46.58707105,1.5200041
65a83f5909f0706ac5f33dc0,9,0,2024-02-28T14:47:27.663Z,english_421.wav,0,pill,554,33,5,5,francais,m,7,0.7,77.25272005,0.50765671
65a83f5909f0706ac5f33dc0,9,0,2024-02-28T14:47:27.663Z,english_421.wav,0,pill,554,33,5,5,francais,m,8,0.8,77.76425926,0.03381604
65a83f5909f0706ac5f33dc0,9,0,2024-02-28T14:47:27.663Z,english_421.wav,0,pill,554,33,5,5,francais,m,9,0.9,25.41801762,1.11402173
65a83f5909f0706ac5f33dc0,9,0,2024-02-28T14:47:27.663Z,english_421.wav,0,pill,554,33,5,5,francais,m,10,1.0,38.43952496,1.16253286
65a83f5909f0706ac5f33dc0,9,0,2024-02-28T14:47:27.663Z,english_421.wav,0,pill,554,33,5,5,francais,m,11,1.09391667,67.75811728,1.4554509
65a83f5909f0706ac5f33dc0,10,0,2024-02-28T14:47:27.663Z,english_204.wav,0,peel,502,33,5,5,francais,m,0,0.0,-54.18548322,0.4935822
65a83f5909f0706ac5f33dc0,10,0,2024-02-28T14:47:27.663Z,english_204.wav,0,peel,502,33,5,5,francais,m,1,0.1,-11.27218157,1.37686427
65a83f5909f0706ac5f33dc0,10,0,2024-02-28T14:47:27.663Z,english_204.wav,0,peel,502,33,5,5,francais,m,2,0.2,57.70913134,1.17627269
65a83f5909f0706ac5f33dc0,10,0,2024-02-28T14:47:27.663Z,english_204.wav,0,peel,502,33,5,5,francais,m,3,0.3,-85.27797026,1.14645494
65a83f5909f0706ac5f33dc0,10,0,2024-02-28T14:47:27.663Z,english_204.wav,0,peel,502,33,5,5,francais,m,4,0.4,28.61054009,1.61303053
65a83f5909f0706ac5f33dc0,10,0,2024-02-28T14:47:27.663Z,english_204.wav,0,peel,502,33,5,5,francais,m,5,0.5,-36.71816677,0.72559221
65a83f5909f0706ac5f33dc0,10,0,2024-02-28T14:47:27.663Z,english_204.wav,0,peel,502,33,5,5,francais,m,6,0.6,-27.72446487,1.95000364
65a83f5909f0706ac5f33dc0,10,0,2024-02-28T14:47:27.663Z,english_204.wav,0,peel,502,33,5,5,francais,m,7,0.7,14.69142801,0.06695508
65a83f5909f0706ac5f33dc0,10,0,2024-02-28T14:47:27.663Z,english_204.wav,0,peel,502,33,5,5,francais,m,8,0.8,9.61746044,1.52094915
65a83f5909f0706ac5f33dc0,10,0,2024-02-28T14:47:27.663Z,english_204.wav,0,peel,502,33,5,5,francais,m,9,0.9,22.67127582,0.41034945
65a83f5909f0706ac5f33dc0,10,0,2024-02-28T14:47:27.663Z,english_204.wav,0,peel,502,33,5,5,francais,m,10,1.0,69.36328148,0.4470276
65a83f5909f0706ac5f33dc0,10,0,2024-02-28T14:47:27.663Z,english_204.wav,0,peel,502,33,5,5,francais,m,11,1.09391667,-44.4283226,1.93225144
65a83f5909f0706ac5f33dc0,11,0,2024-02-28T14:47:27.663Z,english_6.wav,0,pill,437,33,5,5,francais,m,0,0.0,44.864421,1.86077693
65a83f5909f0706ac5f33dc0,11,0,2024-02-28T14:47:27.663Z,english_6.wav,0,pill,437,33,5,5,francais,m,1,0.1,-39.26462371,1.12524403
65a83f5909f0706ac5f33dc0,11,0,2024-02-28T14:47:27.663Z,english_6.wav,0,pill,437,33,5,5,francais,m,2,0.2,28.2122741,1.12796265
65a83f5909f0706ac5f33dc0,11,0,2024-02-28T14:47:27.663Z,english_6.wav,0,pill,437,33,5,5,francais,m,3,0.3,-41.98853637,1.49970504
65a83f5909f0706ac5f33dc0,11,0,2024-02-28T14:47:27.663Z,english_6.wav,0,pill,437,33,5,5,francais,m,4,0.4,60.80708212,1.13312462
65a83f5909f0706ac5f33dc0,11,0,2024-02-28T14:47:27.663Z,english_6.wav,0,pill,437,33,5,5,francais,m,5,0.5,-87.67731195,1.89229122
65a83f5909f0706ac5f33dc0,11,0,2024-02-28T14:47:27.663Z,english_6.wav,0,pill,437,33,5,5,francais,m,6,0.6,16.44282049,1.4551088
65a83f5909f0706ac5f33dc0,11,0,2024-02-28T14:47:27.663Z,english_6.wav,0,pill,437,33,5,5,francais,m,7,0.7,-17.08970644,0.20295498
65a83f5909f0706ac5f33dc0,11,0,2024-02-28T14:47:27.663Z,english_6.wav,0,pill,437,33,5,5,francais,m,8,0.8,-27.18118405,0.3241588
65a83f5909f0706ac5f33dc0,11,0,2024-02-28T14:47:27.663Z,english_6.wav,0,pill,437,33,5,5,francais,m,9,0.9,-79.6171435,1.16747207
65a83f5909f0706ac5f33dc0,11,0,2024-02-28T14:47:27.663Z,english_6.wav,0,pill,437,33,5,5,francais,m,10,1.0,-16.26211535,1.56894598
65a83f5909f0706ac5f33dc0,11,0,2024-02-28T14:47:27.663Z,english_6.wav,0,pill,437,33,5,5,francais,m,11,1.09391667,89.36610691,0.99768517
65a83f5909f0706ac5f33dc0,12,0,2024-02-28T14:47:27.663Z,english_337.wav,0,peel,338,33,5,5,francais,m,0,0.0,63.30955307,1.05146316
65a83f5909f0706ac5f33dc0,12,0,2024-02-28T14:47:27.663Z,english_337.wav,0,peel,338,33,5,5,francais,m,1,0.1,-16.2405627,1.82422784
65a83f5909f0706ac5f33dc0,12,0,2024-02-28T14:47:27.663Z,english_337.wav,0,peel,338,33,5,5,francais,m,2,0.2,-94.40154866,0.58494816
65a83f5909f0706ac5f33dc0,12,0,2024-02-28T14:47:27.663Z,english_337.wav,0,peel,338,33,5,5,francais,m,3,0.3,75.21778114,1.0983984
65a83f5909f0706ac5f33dc0,12,0,2024-02-28T14:47:27.663Z,english_337.wav,0,peel,338,33,5,5,francais,m,4,0.4,25.54945434,0.15013246
65a83f5909f0706ac5f33dc0,12,0,2024-02-28T14:47:27.663Z,english_337.wav,0,peel,338,33,5,5,francais,m,5,0.5,-24.8991059,0.80312612
65a83f5909f0706ac5f33dc0,12,0,2024-02-28T14:47:27.663Z,english_337.wav,0,peel,338,33,5,5,francais,m,6,0.6,41.94064473,0.26635056
65a83f5909f0706ac5f33dc0,12,0,2024-02-28T14:47:27.663Z,english_337.wav,0,peel,338,33,5,5,francais,m,7,0.7,-52.88941207,1.56094221
65a83f5909f0706ac5f33dc0,12,0,2024-02-28T14:47:27.663Z,english_337.wav,0,peel,338,33,5,5,francais,m,8,0.8,34.33759816,1.1585981
65a83f5909f0706ac5f33dc0,12,0,2024-02-28T14:47:27.663Z,english_337.wav,0,peel,338,33,5,5,francais,m,9,0.9,11.89714474,1.8876465
65a83f5909f0706ac5f33dc0,12,0,2024-02-28T14:47:27.663Z,english_337.wav,0,peel,338,33,5,5,francais,m,10,1.0,-68.13632942,1.89794163
65a83f5909f0706ac5f33dc0,12,0,2024-02-28T14:47:27.663Z,english_337.wav,0,peel,338,33,5,5,francais,m,11,1.09391667,47.32266625,0.59037239
65a83f5909f0706ac5f33dc0,13,0,2024-02-28T14:47:27.663Z,english_394.wav,0,peel,755,33,5,5,francais,m,0,0.0,-15.73952497,0.37404547
65a83f5909f0706ac5f33dc0,13,0,2024-02-28T14:47:27.663Z,english_394.wav,0,peel,755,33,5,5,francais,m,1,0.1,-72.53875874,0.74662783
65a83f5909f0706ac5f33dc0,13,0,2024-02-28T14:47:27.663Z,english_394.wav,0,peel,755,33,5,5,francais,m,2,0.2,-2.77448658,0.09869687
65a83f5909f0706ac5f33dc0,13,0,2024-02-28T14:47:27.663Z,english_394.wav,0,peel,755,33,5,5,francais,m,3,0.3,-34.13929652,0.4926167
65a83f5909f0706ac5f33dc0,13,0,2024-02-28T14:47:27.663Z,english_394.wav,0,peel,755,33,5,5,francais,m,4,0.4,98.89455917,0.88094357
65a83f5909f0706ac5f33dc0,13,0,2024-02-28T14:47:27.663Z,english_394.wav,0,peel,755,33,5,5,francais,m,5,0.5,92.17283268,1.74845503
65a83f5909f0706ac5f33dc0,13,0,2024-02-28T14:47:27.663Z,english_394.wav,0,peel,755,33,5,5,francais,m,6,0.6,57.90330337,0.56104095
65a83f5909f0706ac5f33dc0,13,0,2024-02-28T14:47:27.663Z,english_394.wav,0,peel,755,33,5,5,francais,m,7,0.7,42.86143517,1.17773509
65a83f5909f0706ac5f33dc0,13,0,2024-02-28T14:47:27.663Z,english_394.wav,0,peel,755,33,5,5,francais,m,8,0.8,-24.72366611,1.30676371
65a83f5909f0706ac5f33dc0,13,0,2024-02-28T14:47:27.663Z,english_394.wav,0,peel,755,33,5,5,francais,m,9,0.9,1.80991862,0.02013397
65a83f5909f0706ac5f33dc0,13,0,2024-02-28T14:47:27.663Z,english_394.wav,0,peel,755,33,5,5,francais,m,10,1.0,-3.52242486,1.86341361
65a83f5909f0706ac5f33dc0,13,0,2024-02-28T14:47:27.663Z,english_394.wav,0,peel,755,33,5,5,francais,m,11,1.09391667,-17.84344946,0.37928015
65a83f5909f0706ac5f33dc0,14,0,2024-02-28T14:47:27.663Z,english_523.wav,0,pill,565,33,5,5,francais,m,0,0.0,-25.97539799,0.34449626
65a83f5909f0706ac5f33dc0,14,0,2024-02-28T14:47:27.663Z,english_523.wav,0,pill,565,33,5,5,francais,m,1,0.1,-25.11108095,0.18549089
65a83f5909f0706ac5f33dc0,14,0,2024-02-28T14:47:27.663Z,english_523.wav,0,pill,565,33,5,5,francais,m,2,0.2,-67.4070828,1.10257375
65a83f5909f0706ac5f33dc0,14,0,2024-02-28T14:47:27.663Z,english_523.wav,0,pill,565,33,5,5,francais,m,3,0.3,14.34055957,0.39893493
65a83f5909f0706ac5f33dc0,14,0,2024-02-28T14:47:27.663Z,english_523.wav,0,pill,565,33,5,5,francais,m,4,0.4,10.27536217,1.8821087
65a83f5909f0706ac5f33dc0,14,0,2024-02-28T14:47:27.663Z,english_523.wav,0,pill,565,33,5,5,francais,m,5,0.5,2.68899624,1.33802983
65a83f5909f0706ac5f33dc0,14,0,2024-02-28T14:47:27.663Z,english_523.wav,0,pill,565,33,5,5,francais,m,6,0.6,5.43637058,1.93381979
65a83f5909f0706ac5f33dc0,14,0,2024-02-28T14:47:27.663Z,english_523.wav,0,pill,565,33,5,5,francais,m,7,0.7,84.96836729,1.3963609
65a83f5909f0706ac5f33dc0,14,0,2024-02-28T14:47:27.663Z,english_523.wav,0,pill,565,33,5,5,francais,m,8,0.8,0.15377924,0.58447079
65a83f5909f0706ac5f33dc0,14,0,2024-02-28T14:47:27.663Z,english_523.wav,0,pill,565,33,5,5,francais,m,9,0.9,-34.21093103,0.41716989
65a83f5909f0706ac5f33dc0,14,0,2024-02-28T14:47:27.663Z,english_523.wav,0,pill,565,33,5,5,francais,m,10,1.0,-94.05275706,1.25827867
65a83f5909f0706ac5f33dc0,14,0,2024-02-28T14:47:27.663Z,english_523.wav,0,pill,565,33,5,5,francais,m,11,1.09391667,-75.26058007,0.83944497
65a83f5909f0706ac5f33dc0,15,0,2024-02-28T14:47:27.663Z,english_649.wav,0,pill,512,33,5,5,francais,m,0,0.0,54.13337143,0.90685718
65a83f5909f0706ac5f33dc0,15,0,2024-02-28T14:47:27.663Z,english_649.wav,0,pill,512,33,5,5,francais,m,1,0.1,51.13672213,0.97028986
65a83f5909f0706ac5f33dc0,15,0,2024-02-28T14:47:27.663Z,english_649.wav,0,pill,512,33,5,5,francais,m,2,0.2,-46.53747516,0.5338014
65a83f5909f0706ac5f33dc0,15,0,2024-02-28T14:47:27.663Z,english_649.wav,0,pill,512,33,5,5,francais,m,3,0.3,-5.04561857,1.37151822
65a83f5909f0706ac5f33dc0,15,0,2024-02-28T14:47:27.663Z,english_649.wav,0,pill,512,33,5,5,francais,m,4,0.4,-96.10296837,1.19898074
65a83f5909f0706ac5f33dc0,15,0,2024-02-28T14:47:27.663Z,english_649.wav,0,pill,512,33,5,5,francais,m,5,0.5,91.1633791,0.83288569
65a83f5909f0706ac5f33dc0,15,0,2024-02-28T14:47:27.663Z,english_649.wav,0,pill,512,33,5,5,francais,m,6,0.6,40.43734858,1.46195871
65a83f5909f0706ac5f33dc0,15,0,2024-02-28T14:47:27.663Z,english_649.wav,0,pill,512,33,5,5,francais,m,7,0.7,-6.34456649,0.52535218
65a83f5909f0706ac5f33dc0,15,0,2024-02-28T14:47:27.663Z,english_649.wav,0,pill,512,33,5,5,francais,m,8,0.8,-47.75781838,0.56197414
65a83f5909f0706ac5f33dc0,15,0,2024-02-28T14:47:27.663Z,english_649.wav,0,pill,512,33,5,5,francais,m,9,0.9,-30.94847666,1.41697717
65a83f5909f0706ac5f33dc0,15,0,2024-02-28T14:47:27.663Z,english_649.wav,0,pill,512,33,5,5,francais,m,10,1.0,-10.84084503,1.24330897
65a83f5909f0706ac5f33dc0,15,0,2024-02-28T14:47:27.663Z,english_649.wav,0,pill,512,33,5,5,francais,m,11,1.09391667,16.60657514,0.55891177
65a83f5909f0706ac5f33dc0,16,0,2024-02-28T14:47:27.663Z,english_396.wav,0,pill,786,33,5,5,francais,m,0,0.0,84.93727222,0.86172546
65a83f5909f0706ac5f33dc0,16,0,2024-02-28T14:47:27.663Z,english_396.wav,0,pill,786,33,5,5,francais,m,1,0.1,-63.66791866,1.32010306
65a83f5909f0706ac5f33dc0,16,0,2024-02-28T14:47:27.663Z,english_396.wav,0,pill,786,33,5,5,francais,m,2,0.2,14.45946743,1.92977093
65a83f5909f0706ac5f33dc0,16,0,2024-02-28T14:47:27.663Z,english_396.wav,0,pill,786,33,5,5,francais,m,3,0.3,-3.11232885,1.56073736
65a83f5909f0706ac5f33dc0,16,0,2024-02-28T14:47:27.663Z,english_396.wav,0,pill,786,33,5,5,francais,m,4,0.4,-24.43595518,0.53468527
65a83f5909f0706ac5f33dc0,16,0,2024-02-28T14:47:27.663Z,english_396.wav,0,pill,786,33,5,5,francais,m,5,0.5,-51.99030464,1.39813115
65a83f5909f0706ac5f33dc0,16,0,2024-02-28T14:47:27.663Z,english_396.wav,0,pill,786,33,5,5,francais,m,6,0.6,79.76166554,0.18875949
65a83f5909f0706ac5f33dc0,16,0,2024-02-28T14:47:27.663Z,english_396.wav,0,pill,786,33,5,5,francais,m,7,0.7,57.3813763,0.18509546
65a83f5909f0706ac5f33dc0,16,0,2024-02-28T14:47:27.663Z,english_396.wav,0,pill,786,33,5,5,francais,m,8,0.8,31.81531803,0.3363238
65a83f5909f0706ac5f33dc0,16,0,2024-02-28T14:47:27.663Z,english_396.wav,0,pill,786,33,5,5,francais,m,9,0.9,63.48869565,0.50261655
65a83f5909f0706ac5f33dc0,16,0,2024-02-28T14:47:27.663Z,english_396.wav,0,pill,786,33,5,5,francais,m,10,1.0,71.83555581,1.79852856
65a83f5909f0706ac5f33dc0,16,0,2024-02-28T14:47:27.663Z,english_396.wav,0,pill,786,33,5,5,francais,m,11,1.09391667,-2.44249492,0.37213294
65a83f5909f0706ac5f33dc0,17,0,2024-02-28T14:47:27.663Z,english_841.wav,0,peel,270,33,5,5,francais,m,0,0.0,13.47649633,0.2030304
65a83f5909f0706ac5f33dc0,17,0,2024-02-28T14:47:27.663Z,english_841.wav,0,peel,270,33,5,5,francais,m,1,0.1,-4.31438018,1.4654032
65a83f5909f0706ac5f33dc0,17,0,2024-02-28T14:47:27.663Z,english_841.wav,0,peel,270,33,5,5,francais,m,2,0.2,33.0563647,0.99950721
65a83f5909f0706ac5f33dc0,17,0,2024-02-28T14:47:27.663Z,english_841.wav,0,peel,270,33,5,5,francais,m,3,0.3,86.84745786,0.04710196
65a83f5909f0706ac5f33dc0,17,0,2024-02-28T14:47:27.663Z,english_841.wav,0,peel,270,33,5,5,francais,m,4,0.4,-66.40745707,1.47568135
65a83f5909f0706ac5f33dc0,17,0,2024-02-28T14:47:27.663Z,english_841.wav,0,peel,270,33,5,5,francais,m,5,0.5,-45.55484269,1.38964748
65a83f5909f0706ac5f33dc0,17,0,2024-02-28T14:47:27.663Z,english_841.wav,0,peel,270,33,5,5,francais,m,6,0.6,-86.08753099,1.63844318
65a83f5909f0706ac5f33dc0,17,0,2024-02-28T14:47:27.663Z,english_841.wav,0,peel,270,33,5,5,francais,m,7,0.7,-95.45735959,1.01920512
65a83f5909f0706ac5f33dc0,17,0,2024-02-28T14:47:27.663Z,english_841.wav,0,peel,270,33,5,5,francais,m,8,0.8,23.86654109,1.35517017
65a83f5909f0706ac5f33dc0,17,0,2024-02-28T14:47:27.663Z,english_841.wav,0,peel,270,33,5,5,francais,m,9,0.9,-11.20743419,1.07128935
65a83f5909f0706ac5f33dc0,17,0,2024-02-28T14:47:27.663Z,english_841.wav,0,peel,270,33,5,5,francais,m,10,1.0,-48.1272879,1.6005201
65a83f5909f0706ac5f33dc0,17,0,2024-02-28T14:47:27.663Z,english_841.wav,0,peel,270,33,5,5,francais,m,11,1.09391667,65.71403117,1.58502918
65a83f5909f0706ac5f33dc0,18,0,2024-02-28T14:47:27.663Z,english_95.wav,0,peel,413,33,5,5,francais,m,0,0.0,82.38322646,1.52040058
65a83f5909f0706ac5f33dc0,18,0,2024-02-28T14:47:27.663Z,english_95.wav,0,peel,413,33,5,5,francais,m,1,0.1,32.52182657,0.22216464
65a83f5909f0706ac5f33dc0,18,0,2024-02-28T14:47:27.663Z,english_95.wav,0,peel,413,33,5,5,francais,m,2,0.2,30.87511863,0.78160064
65a83f5909f0706ac5f33dc0,18,0,2024-02-28T14:47:27.663Z,english_95.wav,0,peel,413,33,5,5,francais,m,3,0.3,67.9481844,0.58754621
65a83f5909f0706ac5f33dc0,18,0,2024-02-28T14:47:27.663Z,english_95.wav,0,peel,413,33,5,5,francais,m,4,0.4,-57.03879619,1.54090238
65a83f5909f0706ac5f33dc0,18,0,2024-02-28T14:47:27.663Z,english_95.wav,0,peel,413,33,5,5,francais,m,5,0.5,22.48665311,0.52042561
65a83f5909f0706ac5f33dc0,18,0,2024-02-28T14:47:27.663Z,english_95.wav,0,peel,413,33,5,5,francais,m,6,0.6,23.4373467,0.65328484
65a83f5909f0706ac5f33dc0,18,0,2024-02-28T14:47:27.663Z,english_95.wav,0,peel,413,33,5,5,francais,m,7,0.7,-61.78596911,0.2008644
65a83f5909f0706ac5f33dc0,18,0,2024-02-28T14:47:27.663Z,english_95.wav,0,peel,413,33,5,5,francais,m,8,0.8,75.30119174,1.88966983
65a83f5909f0706ac5f33dc0,18,0,2024-02-28T14:47:27.663Z,english_95.wav,0,peel,413,33,5,5,francais,m,9,0.9,6.10236792,1.34355427
65a83f5909f0706ac5f33dc0,18,0,2024-02-28T14:47:27.663Z,english_95.wav,0,peel,413,33,5,5,francais,m,10,1.0,23.20518155,0.09039365
65a83f5909f0706ac5f33dc0,18,0,2024-02-28T14:47:27.663Z,english_95.wav,0,peel,413,33,5,5,francais,m,11,1.09391667,-62.32548974,0.0245473
65a83f5909f0706ac5f33dc0,19,0,2024-02-28T14:47:27.663Z,english_69.wav,0,pill,498,33,5,5,francais,m,0,0.0,-8.22406931,0.7296211
65a83f5909f0706ac5f33dc0,19,0,2024-02-28T14:47:27.663Z,english_69.wav,0,pill,498,33,5,5,francais,m,1,0.1,-46.19784604,1.54205881
65a83f5909f0706ac5f33dc0,19,0,2024-02-28T14:47:27.663Z,english_69.wav,0,pill,498,33,5,5,francais,m,2,0.2,-49.45533056,0.56573239
65a83f5909f0706ac5f33dc0,19,0,2024-02-28T14:47:27.663Z,english_69.wav,0,pill,498,33,5,5,francais,m,3,0.3,69.56374807,1.53704253
65a83f5909f0706ac5f33dc0,19,0,2024-02-28T14:47:27.663Z,english_69.wav,0,pill,498,33,5,5,francais,m,4,0.4,-92.74652317,0.47977854
65a83f5909f0706ac5f33dc0,19,0,2024-02-28T14:47:27.663Z,english_69.wav,0,pill,498,33,5,5,francais,m,5,0.5,52.31402986,0.1278397
65a83f5909f0706ac5f33dc0,19,0,2024-02-28T14:47:27.663Z,english_69.wav,0,pill,498,33,5,5,francais,m,6,0.6,35.98181846,1.442132
65a83f5909f0706ac5f33dc0,19,0,2024-02-28T14:47:27.663Z,english_69.wav,0,pill,498,33,5,5,francais,m,7,0.7,29.79563749,0.12498308
65a83f5909f0706ac5f33dc0,19,0,2024-02-28T14:47:27.663Z,english_69.wav,0,pill,498,33,5,5,francais,m,8,0.8,49.53175238,0.29427441
65a83f5909f0706ac5f33dc0,19,0,2024-02-28T14:47:27.663Z,english_69.wav,0,pill,498,33,5,5,francais,m,9,0.9,-69.91203253,1.27290514
65a83f5909f0706ac5f33dc0,19,0,2024-02-28T14:47:27.663Z,english_69.wav,0,pill,498,33,5,5,francais,m,10,1.0,-91.34062215,0.87034484
65a83f5909f0706ac5f33dc0,19,0,2024-02-28T14:47:27.663Z,english_69.wav,0,pill,498,33,5,5,francais,m,11,1.09391667,39.19432379,1.40202541
65a83f5909f0706ac5f33dc0,20,0,2024-02-28T14:47:27.663Z,english_521.wav,0,peel,312,33,5,5,francais,m,0,0.0,5.37787975,1.11621025
65a83f5909f0706ac5f33dc0,20,0,2024-02-28T14:47:27.663Z,english_521.wav,0,peel,312,33,5,5,francais,m,1,0.1,9.32249591,0.69917502
65a83f5909f0706ac5f33dc0,20,0,2024-02-28T14:47:27.663Z,english_521.wav,0,peel,312,33,5,5,francais,m,2,0.2,4.19745407,0.1199413
65a83f5909f0706ac5f33dc0,20,0,2024-02-28T14:47:27.663Z,english_521.wav,0,peel,312,33,5,5,francais,m,3,0.3,-75.18613478,1.762579
65a83f5909f0706ac5f33dc0,20,0,2024-02-28T14:47:27.663Z,english_521.wav,0,peel,312,33,5,5,francais,m,4,0.4,87.02780947,1.43452798
65a83f5909f0706ac5f33dc0,20,0,2024-02-28T14:47:27.663Z,english_521.wav,0,peel,312,33,5,5,francais,m,5,0.5,-73.26225675,0.23094002
65a83f5909f0706ac5f33dc0,20,0,2024-02-28T14:47:27.663Z,english_521.wav,0,peel,312,33,5,5,francais,m,6,0.6,66.15406762,1.51181612
65a83f5909f0706ac5f33dc0,20,0,2024-02-28T14:47:27.663Z,english_521.wav,0,peel,312,33,5,5,francais,m,7,0.7,-9.80579818,1.4155143
65a83f5909f0706ac5f33dc0,20,0,2024-02-28T14:47:27.663Z,english_521.wav,0,peel,312,33,5,5,francais,m,8,0.8,17.20812603,1.82718341
65a83f5909f0706ac5f33dc0,20,0,2024-02-28T14:47:27.663Z,english_521.wav,0,peel,312,33,5,5,francais,m,9,0.9,21.88979452,1.93759588
65a83f5909f0706ac5f33dc0,20,0,2024-02-28T14:47:27.663Z,english_521.wav,0,peel,312,33,5,5,francais,m,10,1.0,-69.39969828,1.70606784
65a83f5909f0706ac5f33dc0,20,0,2024-02-28T14:47:27.663Z,english_521.wav,0,peel,312,33,5,5,francais,m,11,1.09391667,-64.03153918,0.09885652
65a83f5909f0706ac5f33dc0,21,0,2024-02-28T14:47:27.663Z,english_90.wav,0,peel,702,33,5,5,francais,m,0,0.0,63.54924995,1.34228215
65a83f5909f0706ac5f33dc0,21,0,2024-02-28T14:47:27.663Z,english_90.wav,0,peel,702,33,5,5,francais,m,1,0.1,-59.21327506,1.34732724
65a83f5909f0706ac5f33dc0,21,0,2024-02-28T14:47:27.663Z,english_90.wav,0,peel,702,33,5,5,francais,m,2,0.2,34.58495613,1.75147993
65a83f5909f0706ac5f33dc0,21,0,2024-02-28T14:47:27.663Z,english_90.wav,0,peel,702,33,5,5,francais,m,3,0.3,3.2427236,0.03089284
65a83f5909f0706ac5f33dc0,21,0,2024-02-28T14:47:27.663Z,english_90.wav,0,peel,702,33,5,5,francais,m,4,0.4,1.17936493,1.52341973
65a83f5909f0706ac5f33dc0,21,0,2024-02-28T14:47:27.663Z,english_90.wav,0,peel,702,33,5,5,francais,m,5,0.5,50.51297544,0.97925583
65a83f5909f0706ac5f33dc0,21,0,2024-02-28T14:47:27.663Z,english_90.wav,0,peel,702,33,5,5,francais,m,6,0.6,61.04656064,1.17642538
65a83f5909f0706ac5f33dc0,21,0,2024-02-28T14:47:27.663Z,english_90.wav,0,peel,702,33,5,5,francais,m,7,0.7,-96.36424089,1.13367306
65a83f5909f0706ac5f33dc0,21,0,2024-02-28T14:47:27.663Z,english_90.wav,0,peel,702,33,5,5,francais,m,8,0.8,9.94738881,1.45431282
65a83f5909f0706ac5f33dc0,21,0,2024-02-28T14:47:27.663Z,english_90.wav,0,peel,702,33,5,5,francais,m,9,0.9,-95.56108651,0.56738547
65a83f5909f0706ac5f33dc0,21,0,2024-02-28T14:47:27.663Z,english_90.wav,0,peel,702,33,5,5,francais,m,10,1.0,-78.91453265,1.10123663
65a83f5909f0706ac5f33dc0,21,0,2024-02-28T14:47:27.663Z,english_90.wav,0,peel,702,33,5,5,francais,m,11,1.09391667,57.06664979,0.76686745
65a83f5909f0706ac5f33dc0,22,0,2024-02-28T14:47:27.663Z,english_314.wav,0,peel,485,33,5,5,francais,m,0,0.0,-72.77248659,0.8900907
65a83f5909f0706ac5f33dc0,22,0,2024-02-28T14:47:27.663Z,english_314.wav,0,peel,485,33,5,5,francais,m,1,0.1,-16.3777023,0.59416925
65a83f5909f0706ac5f33dc0,22,0,2024-02-28T14:47:27.663Z,english_314.wav,0,peel,485,33,5,5,francais,m,2,0.2,-54.89367252,1.27689755
65a83f5909f0706ac5f33dc0,22,0,2024-02-28T14:47:27.663Z,english_314.wav,0,peel,485,33,5,5,francais,m,3,0.3,-94.61910998,0.70275331
65a83f5909f0706ac5f33dc0,22,0,2024-02-28T14:47:27.663Z,english_314.wav,0,peel,485,33,5,5,francais,m,4,0.4,-16.43986335,1.42732001
65a83f5909f0706ac5f33dc0,22,0,2024-02-28T14:47:27.663Z,english_314.wav,0,peel,485,33,5,5,francais,m,5,0.5,22.95549902,0.51357734
65a83f5909f0706ac5f33dc0,22,0,2024-02-28T14:47:27.663Z,english_314.wav,0,peel,485,33,5,5,francais,m,6,0.6,-38.50046808,1.78706659
65a83f5909f0706ac5f33dc0,22,0,2024-02-28T14:47:27.663Z,english_314.wav,0,peel,485,33,5,5,francais,m,7,0.7,94.4546569,0.51196802
65a83f5909f0706ac5f33dc0,22,0,2024-02-28T14:47:27.663Z,english_314.wav,0,peel,485,33,5,5,francais,m,8,0.8,-37.64043119,0.29950004
65a83f5909f0706ac5f33dc0,22,0,2024-02-28T14:47:27.663Z,english_314.wav,0,peel,485,33,5,5,francais,m,9,0.9,48.39030237,0.69158189
65a83f5909f0706ac5f33dc0,22,0,2024-02-28T14:47:27.663Z,english_314.wav,0,peel,485,33,5,5,francais,m,10,1.0,-45.26638295,0.28421865
65a83f5909f0706ac5f33dc0,22,0,2024-02-28T14:47:27.663Z,english_314.wav,0,peel,485,33,5,5,francais,m,11,1.09391667,-45.55554074,1.42591163
65a83f5909f0706ac5f33dc0,23,0,2024-02-28T14:47:27.663Z,english_128.wav,0,peel,308,33,5,5,francais,m,0,0.0,-22.61942611,1.66721471
65a83f5909f0706ac5f33dc0,23,0,2024-02-28T14:47:27.663Z,english_128.wav,0,peel,308,33,5,5,francais,m,1,0.1,68.41227715,1.06525369
65a83f5909f0706ac5f33dc0,23,0,2024-02-28T14:47:27.663Z,english_128.wav,0,peel,308,33,5,5,francais,m,2,0.2,-54.10958419,1.55278382
65a83f5909f0706ac5f33dc0,23,0,2024-02-28T14:47:27.663Z,english_128.wav,0,peel,308,33,5,5,francais,m,3,0.3,-34.3976761,1.27447121
65a83f5909f0706ac5f33dc0,23,0,2024-02-28T14:47:27.663Z,english_128.wav,0,peel,308,33,5,5,francais,m,4,0.4,-80.35189368,1.24533025
65a83f5909f0706ac5f33dc0,23,0,2024-02-28T14:47:27.663Z,english_128.wav,0,peel,308,33,5,5,francais,m,5,0.5,-23.21922247,0.40128709
65a83f5909f0706ac5f33dc0,23,0,2024-02-28T14:47:27.663Z,english_128.wav,0,peel,308,33,5,5,francais,m,6,0.6,75.93285278,1.08908342
65a83f5909f0706ac5f33dc0,23,0,2024-02-28T14:47:27.663Z,english_128.wav,0,peel,308,33,5,5,francais,m,7,0.7,-25.01230628,1.52248699
65a83f5909f0706ac5f33dc0,23,0,2024-02-28T14:47:27.663Z,english_128.wav,0,peel,308,33,5,5,francais,m,8,0.8,23.78207095,1.64911831
65a83f5909f0706ac5f33dc0,23,0,2024-02-28T14:47:27.663Z,english_128.wav,0,peel,308,33,5,5,francais,m,9,0.9,-74.87827882,0.03473392
65a83f5909f0706ac5f33dc0,23,0,2024-02-28T14:47:27.663Z,english_128.wav,0,peel,308,33,5,5,francais,m,10,1.0,74.39346852,1.99892406
65a83f5909f0706ac5f33dc0,23,0,2024-02-28T14:47:27.663Z,english_128.wav,0,peel,308,33,5,5,francais,m,11,1.09391667,30.71976897,1.56565298
65a83f5909f0706ac5f33dc0,24,0,2024-02-28T14:47:27.663Z,english_322.wav,0,peel,404,33,5,5,francais,m,0,0.0,76.12419843,0.67214084
65a83f5909f0706ac5f33dc0,24,0,2024-02-28T14:47:27.663Z,english_322.wav,0,peel,404,33,5,5,francais,m,1,0.1,11.00659204,0.20805548
65a83f5909f0706ac5f33dc0,24,0,2024-02-28T14:47:27.663Z,english_322.wav,0,peel,404,33,5,5,francais,m,2,0.2,-52.15522205,1.24717772
65a83f5909f0706ac5f33dc0,24,0,2024-02-28T14:47:27.663Z,english_322.wav,0,peel,404,33,5,5,francais,m,3,0.3,-51.3643268,1.85689227
65a83f5909f0706ac5f33dc0,24,0,2024-02-28T14:47:27.663Z,english_322.wav,0,peel,404,33,5,5,francais,m,4,0.4,24.49300534,0.2839927
65a83f5909f0706ac5f33dc0,24,0,2024-02-28T14:47:27.663Z,english_322.wav,0,peel,404,33,5,5,francais,m,5,0.5,-64.27724172,0.06592342
65a83f5909f0706ac5f33dc0,24,0,2024-02-28T14:47:27.663Z,english_322.wav,0,peel,404,33,5,5,francais,m,6,0.6,83.88593275,0.50660315
65a83f5909f0706ac5f33dc0,24,0,2024-02-28T14:47:27.663Z,english_322.wav,0,peel,404,33,5,5,francais,m,7,0.7,17.09124032,0.19977586
65a83f5909f0706ac5f33dc0,24,0,2024-02-28T14:47:27.663Z,english_322.wav,0,peel,404,33,5,5,francais,m,8,0.8,-4.85917502,0.57396738
65a83f5909f0706ac5f33dc0,24,0,2024-02-28T14:47:27.663Z,english_322.wav,0,peel,404,33,5,5,francais,m,9,0.9,26.21900036,1.25518721
65a83f5909f0706ac5f33dc0,24,0,2024-02-28T14:47:27.663Z,english_322.wav,0,peel,404,33,5,5,francais,m,10,1.0,17.81638138,1.74789318
65a83f5909f0706ac5f33dc0,24,0,2024-02-28T14:47:27.663Z,english_322.wav,0,peel,404,33,5,5,francais,m,11,1.09391667,-21.79933582,1.24760572
65a83f5909f0706ac5f33dc0,25,0,2024-02-28T14:47:27.663Z,english_811.wav,0,pill,478,33,5,5,francais,m,0,0.0,-74.87697924,0.45507787
65a83f5909f0706ac5f33dc0,25,0,2024-02-28T14:47:27.663Z,english_811.wav,0,pill,478,33,5,5,francais,m,1,0.1,96.86117413,1.76793824
65a83f5909f0706ac5f33dc0,25,0,2024-02-28T14:47:27.663Z,english_811.wav,0,pill,478,33,5,5,francais,m,2,0.2,10.72305858,0.84862028
65a83f5909f0706ac5f33dc0,25,0,2024-02-28T14:47:27.663Z,english_811.wav,0,pill,478,33,5,5,francais,m,3,0.3,48.56085209,0.62727309
65a83f5909f0706ac5f33dc0,25,0,2024-02-28T14:47:27.663Z,english_811.wav,0,pill,478,33,5,5,francais,m,4,0.4,-99.82729779,1.03490246
65a83f5909f0706ac5f33dc0,25,0,2024-02-28T14:47:27.663Z,english_811.wav,0,pill,478,33,5,5,francais,m,5,0.5,79.99074979,1.90507478
65a83f5909f0706ac5f33dc0,25,0,2024-02-28T14:47:27.663Z,english_811.wav,0,pill,478,33,5,5,francais,m,6,0.6,-9.67190631,0.06135305
65a83f5909f0706ac5f33dc0,25,0,2024-02-28T14:47:27.663Z,english_811.wav,0,pill,478,33,5,5,francais,m,7,0.7,-89.53034614,0.24955368
65a83f5909f0706ac5f33dc0,25,0,2024-02-28T14:47:27.663Z,english_811.wav,0,pill,478,33,5,5,francais,m,8,0.8,84.53947336,0.72917007
65a83f5909f0706ac5f33dc0,25,0,2024-02-28T14:47:27.663Z,english_811.wav,0,pill,478,33,5,5,francais,m,9,0.9,-76.82386536,1.5042388
65a83f5909f0706ac5f33dc0,25,0,2024-02-28T14:47:27.663Z,english_811.wav,0,pill,478,33,5,5,francais,m,10,1.0,-19.04963958,1.60193394
65a83f5909f0706ac5f33dc0,25,0,2024-02-28T14:47:27.663Z,english_811.wav,0,pill,478,33,5,5,francais,m,11,1.09391667,78.79317252,0.72084905
65a83f5909f0706ac5f33dc0,26,0,2024-02-28T14:47:27.663Z,english_676.wav,0,peel,737,33,5,5,francais,m,0,0.0,77.23951032,1.33259474
65a83f5909f0706ac5f33dc0,26,0,2024-02-28T14:47:27.663Z,english_676.wav,0,peel,737,33,5,5,francais,m,1,0.1,27.47427545,0.90028372
65a83f5909f0706ac5f33dc0,26,0,2024-02-28T14:47:27.663Z,english_676.wav,0,peel,737,33,5,5,francais,m,2,0.2,92.07370265,1.66717955
65a83f5909f0706ac5f33dc0,26,0,2024-02-28T14:47:27.663Z,english_676.wav,0,peel,737,33,5,5,francais,m,3,0.3,-39.62602007,0.42158585
65a83f5909f0706ac5f33dc0,26,0,2024-02-28T14:47:27.663Z,english_676.wav,0,peel,737,33,5,5,francais,m,4,0.4,-81.22107243,1.7878255
65a83f5909f0706ac5f33dc0,26,0,2024-02-28T14:47:27.663Z,english_676.wav,0,peel,737,33,5,5,francais,m,5,0.5,-99.04707649,1.33780608
65a83f5909f0706ac5f33dc0,26,0,2024-02-28T14:47:27.663Z,english_676.wav,0,peel,737,33,5,5,francais,m,6,0.6,-64.5180536,0.94548991
65a83f5909f0706ac5f33dc0,26,0,2024-02-28T14:47:27.663Z,english_676.wav,0,peel,737,33,5,5,francais,m,7,0.7,91.29392748,1.43207041
65a83f5909f0706ac5f33dc0,26,0,2024-02-28T14:47:27.663Z,english_676.wav,0,peel,737,33,5,5,francais,m,8,0.8,97.8635705,1.03085722
65a83f5909f0706ac5f33dc0,26,0,2024-02-28T14:47:27.663Z,english_676.wav,0,peel,737,33,5,5,francais,m,9,0.9,-84.2423741,0.34895699
65a83f5909f0706ac5f33dc0,26,0,2024-02-28T14:47:27.663Z,english_676.wav,0,peel,737,33,5,5,francais,m,10,1.0,-76.68596269,0.83720355
65a83f5909f0706ac5f33dc0,26,0,2024-02-28T14:47:27.663Z,english_676.wav,0,peel,737,33,5,5,francais,m,11,1.09391667,65.10857552,1.31764415
65a83f5909f0706ac5f33dc0,27,0,2024-02-28T14:47:27.663Z,english_93.wav,0,pill,437,33,5,5,francais,m,0,0.0,-5.64044051,0.93985767
65a83f5909f0706ac5f33dc0,27,0,2024-02-28T14:47:27.663Z,english_93.wav,0,pill,437,33,5,5,francais,m,1,0.1,-71.62427253,1.9578989
65a83f5909f0706ac5f33dc0,27,0,2024-02-28T14:47:27.663Z,english_93.wav,0,pill,437,33,5,5,francais,m,2,0.2,44.8568839,1.04309205
65a83f5909f0706ac5f33dc0,27,0,2024-02-28T14:47:27.663Z,english_93.wav,0,pill,437,33,5,5,francais,m,3,0.3,13.73699883,1.22075438
65a83f5909f0706ac5f33dc0,27,0,2024-02-28T14:47:27.663Z,english_93.wav,0,pill,437,33,5,5,francais,m,4,0.4,-9.51130818,1.24468343
65a83f5909f0706ac5f33dc0,27,0,2024-02-28T14:47:27.663Z,english_93.wav,0,pill,437,33,5,5,francais,m,5,0.5,25.73719345,1.1802762
65a83f5909f0706ac5f33dc0,27,0,2024-02-28T14:47:27.663Z,english_93.wav,0,pill,437,33,5,5,francais,m,6,0.6,-9.54816374,1.78615262
65a83f5909f0706ac5f33dc0,27,0,2024-02-28T14:47:27.663Z,english_93.wav,0,pill,437,33,5,5,francais,m,7,0.7,-99.85495199,1.82361192
65a83f5909f0706ac5f33dc0,27,0,2024-02-28T14:47:27.663Z,english_93.wav,0,pill,437,33,5,5,francais,m,8,0.8,26.311999,0.83873706
65a83f5909f0706ac5f33dc0,27,0,2024-02-28T14:47:27.663Z,english_93.wav,0,pill,437,33,5,5,francais,m,9,0.9,37.40170351,1.41980792
65a83f5909f0706ac5f33dc0,27,0,2024-02-28T14:47:27.663Z,english_93.wav,0,pill,437,33,5,5,francais,m,10,1.0,-54.32300287,0.16266534
65a83f5909f0706ac5f33dc0,27,0,2024-02-28T14:47:27.663Z,english_93.wav,0,pill,437,33,5,5,francais,m,11,1.09391667,-13.38941708,1.86742119
65a83f5909f0706ac5f33dc0,28,0,2024-02-28T14:47:27.663Z,english_190.wav,0,pill,580,33,5,5,francais,m,0,0.0,68.06436233,1.70360444
65a83f5909f0706ac5f33dc0,28,0,2024-02-28T14:47:27.663Z,english_190.wav,0,pill,580,33,5,5,francais,m,1,0.1,24.19088811,1.35006329
65a83f5909f0706ac5f33dc0,28,0,2024-02-28T14:47:27.663Z,english_190.wav,0,pill,580,33,5,5,francais,m,2,0.2,-65.11888028,0.62623632
65a83f5909f0706ac5f33dc0,28,0,2024-02-28T14:47:27.663Z,english_190.wav,0,pill,580,33,5,5,francais,m,3,0.3,32.33155843,0.74087673
65a83f5909f0706ac5f33dc0,28,0,2024-02-28T14:47:27.663Z,english_190.wav,0,pill,580,33,5,5,francais,m,4,0.4,-73.69082424,1.65268471
65a83f5909f0706ac5f33dc0,28,0,2024-02-28T14:47:27.663Z,english_190.wav,0,pill,580,33,5,5,francais,m,5,0.5,2.10243169,0.89116286
65a83f5909f0706ac5f33dc0,28,0,2024-02-28T14:47:27.663Z,english_190.wav,0,pill,580,33,5,5,francais,m,6,0.6,28.92667908,1.98709983
65a83f5909f0706ac5f33dc0,28,0,2024-02-28T14:47:27.663Z,english_190.wav,0,pill,580,33,5,5,francais,m,7,0.7,34.75610328,1.82073469
65a83f5909f0706ac5f33dc0,28,0,2024-02-28T14:47:27.663Z,english_190.wav,0,pill,580,33,5,5,francais,m,8,0.8,31.4188322,0.29012773
65a83f5909f0706ac5f33dc0,28,0,2024-02-28T14:47:27.663Z,english_190.wav,0,pill,580,33,5,5,francais,m,9,0.9,-96.94690026,0.16914855
65a83f5909f0706ac5f33dc0,28,0,2024-02-28T14:47:27.663Z,english_190.wav,0,pill,580,33,5,5,francais,m,10,1.0,53.11864997,1.64341156
65a83f5909f0706ac5f33dc0,28,0,2024-02-28T14:47:27.663Z,english_190.wav,0,pill,580,33,5,5,francais,m,11,1.09391667,-92.72540724,1.35295698
65a83f5909f0706ac5f33dc0,29,0,2024-02-28T14:47:27.663Z,english_951.wav,0,peel,293,33,5,5,francais,m,0,0.0,-36.21368885,0.73102916
65a83f5909f0706ac5f33dc0,29,0,2024-02-28T14:47:27.663Z,english_951.wav,0,peel,293,33,5,5,francais,m,1,0.1,-21.58887728,1.91789337
65a83f5909f0706ac5f33dc0,29,0,2024-02-28T14:47:27.663Z,english_951.wav,0,peel,293,33,5,5,francais,m,2,0.2,13.41790132,0.21798818
65a83f5909f0706ac5f33dc0,29,0,2024-02-28T14:47:27.663Z,english_951.wav,0,peel,293,33,5,5,francais,m,3,0.3,54.14984422,1.25250258
65a83f5909f0706ac5f33dc0,29,0,2024-02-28T14:47:27.663Z,english_951.wav,0,peel,293,33,5,5,francais,m,4,0.4,-14.70759229,1.17100168
65a83f5909f0706ac5f33dc0,29,0,2024-02-28T14:47:27.663Z,english_951.wav,0,peel,293,33,5,5,francais,m,5,0.5,-89.28721174,0.37038944
65a83f5909f0706ac5f33dc0,29,0,2024-02-28T14:47:27.663Z,english_951.wav,0,peel,293,33,5,5,francais,m,6,0.6,-44.90139169,0.22313149
65a83f5909f0706ac5f33dc0,29,0,2024-02-28T14:47:27.663Z,english_951.wav,0,peel,293,33,5,5,francais,m,7,0.7,31.96128506,1.88317087
65a83f5909f0706ac5f33dc0,29,0,2024-02-28T14:47:27.663Z,english_951.wav,0,peel,293,33,5,5,francais,m,8,0.8,15.8351581,0.03386618
65a83f5909f0706ac5f33dc0,29,0,2024-02-28T14:47:27.663Z,english_951.wav,0,peel,293,33,5,5,francais,m,9,0.9,-35.27402609,1.29108959
65a83f5909f0706ac5f33dc0,29,0,2024-02-28T14:47:27.663Z,english_951.wav,0,peel,293,33,5,5,francais,m,10,1.0,-2.7577194,0.69196657
65a83f5909f0706ac5f33dc0,29,0,2024-02-28T14:47:27.663Z,english_951.wav,0,peel,293,33,5,5,francais,m,11,1.09391667,-33.63227805,1.7463571
65a83f5909f0706ac5f33dc0,30,0,2024-02-28T14:47:27.663Z,english_682.wav,0,peel,405,33,5,5,francais,m,0,0.0,-53.22260556,0.39279529
65a83f5909f0706ac5f33dc0,30,0,2024-02-28T14:47:27.663Z,english_682.wav,0,peel,405,33,5,5,francais,m,1,0.1,86.77650228,0.89629602
65a83f5909f0706ac5f33dc0,30,0,2024-02-28T14:47:27.663Z,english_682.wav,0,peel,405,33,5,5,francais,m,2,0.2,9.77253821,1.02748966
65a83f5909f0706ac5f33dc0,30,0,2024-02-28T14:47:27.663Z,english_682.wav,0,peel,405,33,5,5,francais,m,3,0.3,11.03493207,0.21487606
65a83f5909f0706ac5f33dc0,30,0,2024-02-28T14:47:27.663Z,english_682.wav,0,peel,405,33,5,5,francais,m,4,0.4,-49.40991028,0.85817313
65a83f5909f0706ac5f33dc0,30,0,2024-02-28T14:47:27.663Z,english_682.wav,0,peel,405,33,5,5,francais,m,5,0.5,40.78961249,0.23854774
65a83f5909f0706ac5f33dc0,30,0,2024-02-28T14:47:27.663Z,english_682.wav,0,peel,405,33,5,5,francais,m,6,0.6,0.17613347,1.76515504
65a83f5909f0706ac5f33dc0,30,0,2024-02-28T14:47:27.663Z,english_682.wav,0,peel,405,33,5,5,francais,m,7,0.7,-59.60480948,0.66287763
65a83f5909f0706ac5f33dc0,30,0,2024-02-28T14:47:27.663Z,english_682.wav,0,peel,405,33,5,5,francais,m,8,0.8,-70.7429322,0.73367901
65a83f5909f0706ac5f33dc0,30,0,2024-02-28T14:47:27.663Z,english_682.wav,0,peel,405,33,5,5,francais,m,9,0.9,73.80660993,0.47936557
65a83f5909f0706ac5f33dc0,30,0,2024-02-28T14:47:27.663Z,english_682.wav,0,peel,405,33,5,5,francais,m,10,1.0,20.51556505,1.06722754
65a83f5909f0706ac5f33dc0,30,0,2024-02-28T14:47:27.663Z,english_682.wav,0,peel,405,33,5,5,francais,m,11,1.09391667,45.26798103,1.8777792
65a83f5909f0706ac5f33dc0,31,0,2024-02-28T14:47:27.663Z,english_77.wav,0,peel,333,33,5,5,francais,m,0,0.0,14.85901356,0.93801636
65a83f5909f0706ac5f33dc0,31,0,2024-02-28T14:47:27.663Z,english_77.wav,0,peel,333,33,5,5,francais,m,1,0.1,-14.38598058,1.78480039
65a83f5909f0706ac5f33dc0,31,0,2024-02-28T14:47:27.663Z,english_77.wav,0,peel,333,33,5,5,francais,m,2,0.2,-43.69728494,1.59819809
65a83f5909f0706ac5f33dc0,31,0,2024-02-28T14:47:27.663Z,english_77.wav,0,peel,333,33,5,5,francais,m,3,0.3,-19.24854373,0.89560743
65a83f5909f0706ac5f33dc0,31,0,2024-02-28T14:47:27.663Z,english_77.wav,0,peel,333,33,5,5,francais,m,4,0.4,4.73942442,0.68128783
65a83f5909f0706ac5f33dc0,31,0,2024-02-28T14:47:27.663Z,english_77.wav,0,peel,333,33,5,5,francais,m,5,0.5,6.08734895,1.19225119
65a83f5909f0706ac5f33dc0,31,0,2024-02-28T14:47:27.663Z,english_77.wav,0,peel,333,33,5,5,francais,m,6,0.6,2.07981921,1.49267812
65a83f5909f0706ac5f33dc0,31,0,2024-02-28T14:47:27.663Z,english_77.wav,0,peel,333,33,5,5,francais,m,7,0.7,-3.22152689,1.83354621
65a83f5909f0706ac5f33dc0,31,0,2024-02-28T14:47:27.663Z,english_77.wav,0,peel,333,33,5,5,francais,m,8,0.8,-81.97912938,0.65715704
65a83f5909f0706ac5f33dc0,31,0,2024-02-28T14:47:27.663Z,english_77.wav,0,peel,333,33,5,5,francais,m,9,0.9,9.14807536,1.29592629
65a83f5909f0706ac5f33dc0,31,0,2024-02-28T14:47:27.663Z,english_77.wav,0,peel,333,33,5,5,francais,m,10,1.0,-30.52937586,1.03409297
65a83f5909f0706ac5f33dc0,31,0,2024-02-28T14:47:27.663Z,english_77.wav,0,peel,333,33,5,5,francais,m,11,1.09391667,17.14336326,1.45456337
65a83f5909f0706ac5f33dc0,32,0,2024-02-28T14:47:27.663Z,english_59.wav,0,peel,868,33,5,5,francais,m,0,0.0,13.6818357,1.39102809
65a83f5909f0706ac5f33dc0,32,0,2024-02-28T14:47:27.663Z,english_59.wav,0,peel,868,33,5,5,francais,m,1,0.1,-62.28772111,1.7641323
65a83f5909f0706ac5f33dc0,32,0,2024-02-28T14:47:27.663Z,english_59.wav,0,peel,868,33,5,5,francais,m,2,0.2,49.12418905,1.93370096
65a83f5909f0706ac5f33dc0,32,0,2024-02-28T14:47:27.663Z,english_59.wav,0,peel,868,33,5,5,francais,m,3,0.3,-11.37021527,1.41546104
65a83f5909f0706ac5f33dc0,32,0,2024-02-28T14:47:27.663Z,english_59.wav,0,peel,868,33,5,5,francais,m,4,0.4,-54.18333873,1.8712645
65a83f5909f0706ac5f33dc0,32,0,2024-02-28T14:47:27.663Z,english_59.wav,0,peel,868,33,5,5,francais,m,5,0.5,89.00177849,1.58142361
65a83f5909f0706ac5f33dc0,32,0,2024-02-28T14:47:27.663Z,english_59.wav,0,peel,868,33,5,5,francais,m,6,0.6,-39.13145847,1.31038649
65a83f5909f0706ac5f33dc0,32,0,2024-02-28T14:47:27.663Z,english_59.wav,0,peel,868,33,5,5,francais,m,7,0.7,-8.40184911,1.79881342
65a83f5909f0706ac5f33dc0,32,0,2024-02-28T14:47:27.663Z,english_59.wav,0,peel,868,33,5,5,francais,m,8,0.8,-34.91016987,0.00761053
65a83f5909f0706ac5f33dc0,32,0,2024-02-28T14:47:27.663Z,english_59.wav,0,peel,868,33,5,5,francais,m,9,0.9,92.47037208,0.77279167
65a83f5909f0706ac5f33dc0,32,0,2024-02-28T14:47:27.663Z,english_59.wav,0,peel,868,33,5,5,francais,m,10,1.0,91.56160698,0.86326769
65a83f5909f0706ac5f33dc0,32,0,2024-02-28T14:47:27.663Z,english_59.wav,0,peel,868,33,5,5,francais,m,11,1.09391667,-64.52293265,1.19458968
65a83f5909f0706ac5f33dc0,33,0,2024-02-28T14:47:27.663Z,english_410.wav,0,peel,335,33,5,5,francais,m,0,0.0,-36.53142902,1.24674602
65a83f5909f0706ac5f33dc0,33,0,2024-02-28T14:47:27.663Z,english_410.wav,0,peel,335,33,5,5,francais,m,1,0.1,-73.10175545,0.8370169
65a83f5909f0706ac5f33dc0,33,0,2024-02-28T14:47:27.663Z,english_410.wav,0,peel,335,33,5,5,francais,m,2,0.2,-61.08145671,0.06968434
65a83f5909f0706ac5f33dc0,33,0,2024-02-28T14:47:27.663Z,english_410.wav,0,peel,335,33,5,5,francais,m,3,0.3,69.19027309,1.30165484
65a83f5909f0706ac5f33dc0,33,0,2024-02-28T14:47:27.663Z,english_410.wav,0,peel,335,33,5,5,francais,m,4,0.4,55.45278414,1.73532031
65a83f5909f0706ac5f33dc0,33,0,2024-02-28T14:47:27.663Z,english_410.wav,0,peel,335,33,5,5,francais,m,5,0.5,-36.69311621,0.17519488
65a83f5909f0706ac5f33dc0,33,0,2024-02-28T14:47:27.663Z,english_410.wav,0,peel,335,33,5,5,francais,m,6,0.6,-29.14988511,1.19817313
65a83f5909f0706ac5f33dc0,33,0,2024-02-28T14:47:27.663Z,english_410.wav,0,peel,335,33,5,5,francais,m,7,0.7,23.18680587,1.29181432
65a83f5909f0706ac5f33dc0,33,0,2024-02-28T14:47:27.663Z,english_410.wav,0,peel,335,33,5,5,francais,m,8,0.8,-48.34223372,0.80606891
65a83f5909f0706ac5f33dc0,33,0,2024-02-28T14:47:27.663Z,english_410.wav,0,peel,335,33,5,5,francais,m,9,0.9,-66.3324226,1.29130062
65a83f5909f0706ac5f33dc0,33,0,2024-02-28T14:47:27.663Z,english_410.wav,0,peel,335,33,5,5,francais,m,10,1.0,-63.55688976,1.82784749
65a83f5909f0706ac5f33dc0,33,0,2024-02-28T14:47:27.663Z,english_410.wav,0,peel,335,33,5,5,francais,m,11,1.09391667,20.87434717,1.37227316
65a83f5909f0706ac5f33dc0,34,0,2024-02-28T14:47:27.663Z,english_376.wav,0,pill,833,33,5,5,francais,m,0,0.0,-22.52600132,1.13600224
65a83f5909f0706ac5f33dc0,34,0,2024-02-28T14:47:27.663Z,english_376.wav,0,pill,833,33,5,5,francais,m,1,0.1,29.36992487,0.82385101
65a83f5909f0706ac5f33dc0,34,0,2024-02-28T14:47:27.663Z,english_376.wav,0,pill,833,33,5,5,francais,m,2,0.2,26.35975313,0.21812262
65a83f5909f0706ac5f33dc0,34,0,2024-02-28T14:47:27.663Z,english_376.wav,0,pill,833,33,5,5,francais,m,3,0.3,22.46882007,1.22545345
65a83f5909f0706ac5f33dc0,34,0,2024-02-28T14:47:27.663Z,english_376.wav,0,pill,833,33,5,5,francais,m,4,0.4,-26.33536786,0.68217052
65a83f5909f0706ac5f33dc0,34,0,2024-02-28T14:47:27.663Z,english_376.wav,0,pill,833,33,5,5,francais,m,5,0.5,-27.32741376,1.80813558
65a83f5909f0706ac5f33dc0,34,0,2024-02-28T14:47:27.663Z,english_376.wav,0,pill,833,33,5,5,francais,m,6,0.6,4.49813396,0.4048305
65a83f5909f0706ac5f33dc0,34,0,2024-02-28T14:47:27.663Z,english_376.wav,0,pill,833,33,5,5,francais,m,7,0.7,-47.02321994,1.72982043
65a83f5909f0706ac5f33dc0,34,0,2024-02-28T14:47:27.663Z,english_376.wav,0,pill,833,33,5,5,francais,m,8,0.8,-61.17584125,0.03977306
65a83f5909f0706ac5f33dc0,34,0,2024-02-28T14:47:27.663Z,english_376.wav,0,pill,833,33,5,5,francais,m,9,0.9,-52.37587082,0.16832119
65a83f5909f0706ac5f33dc0,34,0,2024-02-28T14:47:27.663Z,english_376.wav,0,pill,833,33,5,5,francais,m,10,1.0,53.16500273,1.81503166
65a83f5909f0706ac5f33dc0,34,0,2024-02-28T14:47:27.663Z,english_376.wav,0,pill,833,33,5,5,francais,m,11,1.09391667,31.59148057,0.61812074
65a83f5909f0706ac5f33dc0,35,0,2024-02-28T14:47:27.663Z,english_633.wav,0,pill,651,33,5,5,francais,m,0,0.0,-29.53329055,1.81413682
65a83f5909f0706ac5f33dc0,35,0,2024-02-28T14:47:27.663Z,english_633.wav,0,pill,651,33,5,5,francais,m,1,0.1,-55.17737052,1.23507598
65a83f5909f0706ac5f33dc0,35,0,2024-02-28T14:47:27.663Z,english_633.wav,0,pill,651,33,5,5,francais,m,2,0.2,58.22185342,1.2508175
65a83f5909f0706ac5f33dc0,35,0,2024-02-28T14:47:27.663Z,english_633.wav,0,pill,651,33,5,5,francais,m,3,0.3,-43.06637085,0.42299618
65a83f5909f0706ac5f33dc0,35,0,2024-02-28T14:47:27.663Z,english_633.wav,0,pill,651,33,5,5,francais,m,4,0.4,76.59680907,0.12183449
65a83f5909f0706ac5f33dc0,35,0,2024-02-28T14:47:27.663Z,english_633.wav,0,pill,651,33,5,5,francais,m,5,0.5,52.74440756,0.93446119
65a83f5909f0706ac5f33dc0,35,0,2024-02-28T14:47:27.663Z,english_633.wav,0,pill,651,33,5,5,francais,m,6,0.6,-26.52378851,1.44820206
65a83f5909f0706ac5f33dc0,35,0,2024-02-28T14:47:27.663Z,english_633.wav,0,pill,651,33,5,5,francais,m,7,0.7,-16.86813106,0.73029459
65a83f5909f0706ac5f33dc0,35,0,2024-02-28T14:47:27.663Z,english_633.wav,0,pill,651,33,5,5,francais,m,8,0.8,7.65419617,0.16870505
65a83f5909f0706ac5f33dc0,35,0,2024-02-28T14:47:27.663Z,english_633.wav,0,pill,651,33,5,5,francais,m,9,0.9,2.97223231,1.17828847
65a83f5909f0706ac5f33dc0,35,0,2024-02-28T14:47:27.663Z,english_633.wav,0,pill,651,33,5,5,francais,m,10,1.0,-42.35584202,0.62674429
65a83f5909f0706ac5f33dc0,35,0,2024-02-28T14:47:27.663Z,english_633.wav,0,pill,651,33,5,5,francais,m,11,1.09391667,-84.52233477,0.94849203
65a83f5909f0706ac5f33dc0,36,0,2024-02-28T14:47:27.663Z,english_24.wav,0,pill,732,33,5,5,francais,m,0,0.0,19.80934614,1.72303363
65a83f5909f0706ac5f33dc0,36,0,2024-02-28T14:47:27.663Z,english_24.wav,0,pill,732,33,5,5,francais,m,1,0.1,18.47296287,1.17223446
65a83f5909f0706ac5f33dc0,36,0,2024-02-28T14:47:27.663Z,english_24.wav,0,pill,732,33,5,5,francais,m,2,0.2,-87.44087303,0.32252022
65a83f5909f0706ac5f33dc0,36,0,2024-02-28T14:47:27.663Z,english_24.wav,0,pill,732,33,5,5,francais,m,3,0.3,-24.76838412,1.29113778
65a83f5909f0706ac5f33dc0,36,0,2024-02-28T14:47:27.663Z,english_24.wav,0,pill,732,33,5,5,francais,m,4,0.4,28.54854922,1.23026356
65a83f5909f0706ac5f33dc0,36,0,2024-02-28T14:47:27.663Z,english_24.wav,0,pill,732,33,5,5,francais,m,5,0.5,-93.00925389,1.272094
65a83f5909f0706ac5f33dc0,36,0,2024-02-28T14:47:27.663Z,english_24.wav,0,pill,732,33,5,5,francais,m,6,0.6,43.83851229,1.03857334
65a83f5909f0706ac5f33dc0,36,0,2024-02-28T14:47:27.663Z,english_24.wav,0,pill,732,33,5,5,francais,m,7,0.7,56.50445967,0.04355902
65a83f5909f0706ac5f33dc0,36,0,2024-02-28T14:47:27.663Z,english_24.wav,0,pill,732,33,5,5,francais,m,8,0.8,-34.51680679,1.12262583
65a83f5909f0706ac5f33dc0,36,0,2024-02-28T14:47:27.663Z,english_24.wav,0,pill,732,33,5,5,francais,m,9,0.9,77.91008798,0.83275479
65a83f5909f0706ac5f33dc0,36,0,2024-02-28T14:47:27.663Z,english_24.wav,0,pill,732,33,5,5,francais,m,10,1.0,22.21951013,0.49987962
65a83f5909f0706ac5f33dc0,36,0,2024-02-28T14:47:27.663Z,english_24.wav,0,pill,732,33,5,5,francais,m,11,1.09391667,44.21755505,0.6404637
65a83f5909f0706ac5f33dc0,37,0,2024-02-28T14:47:27.663Z,english_507.wav,0,peel,304,33,5,5,francais,m,0,0.0,-12.02429693,0.63959218
65a83f5909f0706ac5f33dc0,37,0,2024-02-28T14:47:27.663Z,english_507.wav,0,peel,304,33,5,5,francais,m,1,0.1,23.48023528,0.78683895
65a83f5909f0706ac5f33dc0,37,0,2024-02-28T14:47:27.663Z,english_507.wav,0,peel,304,33,5,5,francais,m,2,0.2,75.86591316,1.2814873
65a83f5909f0706ac5f33dc0,37,0,2024-02-28T14:47:27.663Z,english_507.wav,0,peel,304,33,5,5,francais,m,3,0.3,-83.47756384,0.67977555
65a83f5909f0706ac5f33dc0,37,0,2024-02-28T14:47:27.663Z,english_507.wav,0,peel,304,33,5,5,francais,m,4,0.4,81.92852434,0.92992814
65a83f5909f0706ac5f33dc0,37,0,2024-02-28T14:47:27.663Z,english_507.wav,0,peel,304,33,5,5,francais,m,5,0.5,87.67744716,1.13175549
65a83f5909f0706ac5f33dc0,37,0,2024-02-28T14:47:27.663Z,english_507.wav,0,peel,304,33,5,5,francais,m,6,0.6,-16.33781488,0.10459473
65a83f5909f0706ac5f33dc0,37,0,2024-02-28T14:47:27.663Z,english_507.wav,0,peel,304,33,5,5,francais,m,7,0.7,-17.50205237,1.89307031
65a83f5909f0706ac5f33dc0,37,0,2024-02-28T14:47:27.663Z,english_507.wav,0,peel,304,33,5,5,francais,m,8,0.8,45.24056119,1.08894135
65a83f5909f0706ac5f33dc0,37,0,2024-02-28T14:47:27.663Z,english_507.wav,0,peel,304,33,5,5,francais,m,9,0.9,-41.17324019,1.66565612
65a83f5909f0706ac5f33dc0,37,0,2024-02-28T14:47:27.663Z,english_507.wav,0,peel,304,33,5,5,francais,m,10,1.0,-35.51150679,1.23960277
65a83f5909f0706ac5f33dc0,37,0,2024-02-28T14:47:27.663Z,english_507.wav,0,peel,304,33,5,5,francais,m,11,1.09391667,-42.23976402,0.80282923
65a83f5909f0706ac5f33dc0,38,0,2024-02-28T14:47:27.663Z,english_852.wav,0,peel,537,33,5,5,francais,m,0,0.0,-72.43588369,0.36787591
65a83f5909f0706ac5f33dc0,38,0,2024-02-28T14:47:27.663Z,english_852.wav,0,peel,537,33,5,5,francais,m,1,0.1,-98.6251287,1.73505489
65a83f5909f0706ac5f33dc0,38,0,2024-02-28T14:47:27.663Z,english_852.wav,0,peel,537,33,5,5,francais,m,2,0.2,-89.42746768,1.62660713
65a83f5909f0706ac5f33dc0,38,0,2024-02-28T14:47:27.663Z,english_852.wav,0,peel,537,33,5,5,francais,m,3,0.3,-34.62530113,0.43311906
65a83f5909f0706ac5f33dc0,38,0,2024-02-28T14:47:27.663Z,english_852.wav,0,peel,537,33,5,5,francais,m,4,0.4,30.41205687,0.44776213
65a83f5909f0706ac5f33dc0,38,0,2024-02-28T14:47:27.663Z,english_852.wav,0,peel,537,33,5,5,francais,m,5,0.5,2.837509,1.35793831
65a83f5909f0706ac5f33dc0,38,0,2024-02-28T14:47:27.663Z,english_852.wav,0,peel,537,33,5,5,francais,m,6,0.6,-71.5278257,0.32605315
65a83f5909f0706ac5f33dc0,38,0,2024-02-28T14:47:27.663Z,english_852.wav,0,peel,537,33,5,5,francais,m,7,0.7,49.48057975,0.34111515
65a83f5909f0706ac5f33dc0,38,0,2024-02-28T14:47:27.663Z,english_852.wav,0,peel,537,33,5,5,francais,m,8,0.8,88.19174023,1.45336533
65a83f5909f0706ac5f33dc0,38,0,2024-02-28T14:47:27.663Z,english_852.wav,0,peel,537,33,5,5,francais,m,9,0.9,20.52660859,1.82703196
65a83f5909f0706ac5f33dc0,38,0,2024-02-28T14:47:27.663Z,english_852.wav,0,peel,537,33,5,5,francais,m,10,1.0,-18.49679028,0.13003363
65a83f5909f0706ac5f33dc0,38,0,2024-02-28T14:47:27.663Z,english_852.wav,0,peel,537,33,5,5,francais,m,11,1.09391667,15.64652165,0.89322684
65a83f5909f0706ac5f33dc0,39,0,2024-02-28T14:47:27.663Z,english_781.wav,0,pill,559,33,5,5,francais,m,0,0.0,13.49860993,0.0422445
65a83f5909f0706ac5f33dc0,39,0,2024-02-28T14:47:27.663Z,english_781.wav,0,pill,559,33,5,5,francais,m,1,0.1,78.16193023,0.76912714
65a83f5909f0706ac5f33dc0,39,0,2024-02-28T14:47:27.663Z,english_781.wav,0,pill,559,33,5,5,francais,m,2,0.2,43.40540276,1.16484067
65a83f5909f0706ac5f33dc0,39,0,2024-02-28T14:47:27.663Z,english_781.wav,0,pill,559,33,5,5,francais,m,3,0.3,44.39381188,0.51341231
65a83f5909f0706ac5f33dc0,39,0,2024-02-28T14:47:27.663Z,english_781.wav,0,pill,559,33,5,5,francais,m,4,0.4,1.19618008,0.61057315
65a83f5909f0706ac5f33dc0,39,0,2024-02-28T14:47:27.663Z,english_781.wav,0,pill,559,33,5,5,francais,m,5,0.5,97.39796145,1.22595164
65a83f5909f0706ac5f33dc0,39,0,2024-02-28T14:47:27.663Z,english_781.wav,0,pill,559,33,5,5,francais,m,6,0.6,-80.74515196,0.0959771
65a83f5909f0706ac5f33dc0,39,0,2024-02-28T14:47:27.663Z,english_781.wav,0,pill,559,33,5,5,francais,m,7,0.7,24.03355654,0.86869214
65a83f5909f0706ac5f33dc0,39,0,2024-02-28T14:47:27.663Z,english_781.wav,0,pill,559,33,5,5,francais,m,8,0.8,-69.35175607,1.17997392
65a83f5909f0706ac5f33dc0,39,0,2024-02-28T14:47:27.663Z,english_781.wav,0,pill,559,33,5,5,francais,m,9,0.9,69.20236756,1.93834455
65a83f5909f0706ac5f33dc0,39,0,2024-02-28T14:47:27.663Z,english_781.wav,0,pill,559,33,5,5,francais,m,10,1.0,35.51398516,0.60620459
65a83f5909f0706ac5f33dc0,39,0,2024-02-28T14:47:27.663Z,english_781.wav,0,pill,559,33,5,5,francais,m,11,1.09391667,-53.23346631,1.46133915
65a83f5909f0706ac5f33dc0,40,0,2024-02-28T14:47:27.663Z,english_109.wav,0,pill,485,33,5,5,francais,m,0,0.0,-85.35755776,0.86429356
65a83f5909f0706ac5f33dc0,40,0,2024-02-28T14:47:27.663Z,english_109.wav,0,pill,485,33,5,5,francais,m,1,0.1,24.87794389,1.54320329
65a83f5909f0706ac5f33dc0,40,0,2024-02-28T14:47:27.663Z,english_109.wav,0,pill,485,33,5,5,francais,m,2,0.2,88.66282845,0.73186937
65a83f5909f0706ac5f33dc0,40,0,2024-02-28T14:47:27.663Z,english_109.wav,0,pill,485,33,5,5,francais,m,3,0.3,53.91159302,0.759779
65a83f5909f0706ac5f33dc0,40,0,2024-02-28T14:47:27.663Z,english_109.wav,0,pill,485,33,5,5,francais,m,4,0.4,-2.76092074,1.4946261
65a83f5909f0706ac5f33dc0,40,0,2024-02-28T14:47:27.663Z,english_109.wav,0,pill,485,33,5,5,francais,m,5,0.5,79.99538148,1.48350308
65a83f5909f0706ac5f33dc0,40,0,2024-02-28T14:47:27.663Z,english_109.wav,0,pill,485,33,5,5,francais,m,6,0.6,-42.31150981,1.90894472
65a83f5909f0706ac5f33dc0,40,0,2024-02-28T14:47:27.663Z,english_109.wav,0,pill,485,33,5,5,francais,m,7,0.7,-5.15781481,0.02998442
65a83f5909f0706ac5f33dc0,40,0,2024-02-28T14:47:27.663Z,english_109.wav,0,pill,485,33,5,5,francais,m,8,0.8,31.3978044,0.89047781
65a83f5909f0706ac5f33dc0,40,0,2024-02-28T14:47:27.663Z,english_109.wav,0,pill,485,33,5,5,francais,m,9,0.9,46.94636463,1.05504638
65a83f5909f0706ac5f33dc0,40,0,2024-02-28T14:47:27.663Z,english_109.wav,0,pill,485,33,5,5,francais,m,10,1.0,63.69340257,0.96709735
65a83f5909f0706ac5f33dc0,40,0,2024-02-28T14:47:27.663Z,english_109.wav,0,pill,485,33,5,5,francais,m,11,1.09391667,10.97812261,0.43676298
65a83f5909f0706ac5f33dc0,41,0,2024-02-28T14:47:27.663Z,english_298.wav,0,peel,387,33,5,5,francais,m,0,0.0,-6.27155647,1.61849335
65a83f5909f0706ac5f33dc0,41,0,2024-02-28T14:47:27.663Z,english_298.wav,0,peel,387,33,5,5,francais,m,1,0.1,48.93550058,0.35596491
65a83f5909f0706ac5f33dc0,41,0,2024-02-28T14:47:27.663Z,english_298.wav,0,peel,387,33,5,5,francais,m,2,0.2,13.84285521,0.30396033
65a83f5909f0706ac5f33dc0,41,0,2024-02-28T14:47:27.663Z,english_298.wav,0,peel,387,33,5,5,francais,m,3,0.3,97.15977737,1.90931563
65a83f5909f0706ac5f33dc0,41,0,2024-02-28T14:47:27.663Z,english_298.wav,0,peel,387,33,5,5,francais,m,4,0.4,79.76715629,0.00976952
65a83f5909f0706ac5f33dc0,41,0,2024-02-28T14:47:27.663Z,english_298.wav,0,peel,387,33,5,5,francais,m,5,0.5,-41.84976134,1.7369795
65a83f5909f0706ac5f33dc0,41,0,2024-02-28T14:47:27.663Z,english_298.wav,0,peel,387,33,5,5,francais,m,6,0.6,11.37121721,1.54006257
65a83f5909f0706ac5f33dc0,41,0,2024-02-28T14:47:27.663Z,english_298.wav,0,peel,387,33,5,5,francais,m,7,0.7,1.57706146,0.39135251
65a83f5909f0706ac5f33dc0,41,0,2024-02-28T14:47:27.663Z,english_298.wav,0,peel,387,33,5,5,francais,m,8,0.8,14.4430887,1.45560385
65a83f5909f0706ac5f33dc0,41,0,2024-02-28T14:47:27.663Z,english_298.wav,0,peel,387,33,5,5,francais,m,9,0.9,22.32733409,1.43660254
65a83f5909f0706ac5f33dc0,41,0,2024-02-28T14:47:27.663Z,english_298.wav,0,peel,387,33,5,5,francais,m,10,1.0,4.8370979,1.96857338
65a83f5909f0706ac5f33dc0,41,0,2024-02-28T14:47:27.663Z,english_298.wav,0,peel,387,33,5,5,francais,m,11,1.09391667,33.89493251,1.91654431
65a83f5909f0706ac5f33dc0,42,0,2024-02-28T14:47:27.663Z,english_390.wav,0,peel,424,33,5,5,francais,m,0,0.0,-44.27999606,0.47786392
65a83f5909f0706ac5f33dc0,42,0,2024-02-28T14:47:27.663Z,english_390.wav,0,peel,424,33,5,5,francais,m,1,0.1,87.16388753,0.26367192
65a83f5909f0706ac5f33dc0,42,0,2024-02-28T14:47:27.663Z,english_390.wav,0,peel,424,33,5,5,francais,m,2,0.2,51.76447156,0.808543
65a83f5909f0706ac5f33dc0,42,0,2024-02-28T14:47:27.663Z,english_390.wav,0,peel,424,33,5,5,francais,m,3,0.3,4.72890769,1.08355999
65a83f5909f0706ac5f33dc0,42,0,2024-02-28T14:47:27.663Z,english_390.wav,0,peel,424,33,5,5,francais,m,4,0.4,40.54029915,1.05186068
65a83f5909f0706ac5f33dc0,42,0,2024-02-28T14:47:27.663Z,english_390.wav,0,peel,424,33,5,5,francais,m,5,0.5,-2.52273407,0.0330936
65a83f5909f0706ac5f33dc0,42,0,2024-02-28T14:47:27.663Z,english_390.wav,0,peel,424,33,5,5,francais,m,6,0.6,-16.68397449,0.46793247
65a83f5909f0706ac5f33dc0,42,0,2024-02-28T14:47:27.663Z,english_390.wav,0,peel,424,33,5,5,francais,m,7,0.7,61.52515281,1.47386131
65a83f5909f0706ac5f33dc0,42,0,2024-02-28T14:47:27.663Z,english_390.wav,0,peel,424,33,5,5,francais,m,8,0.8,-9.09589247,0.59216285
65a83f5909f0706ac5f33dc0,42,0,2024-02-28T14:47:27.663Z,english_390.wav,0,peel,424,33,5,5,francais,m,9,0.9,-24.40260524,0.27707759
65a83f5909f0706ac5f33dc0,42,0,2024-02-28T14:47:27.663Z,english_390.wav,0,peel,424,33,5,5,francais,m,10,1.0,-74.87237933,1.34831193
65a83f5909f0706ac5f33dc0,42,0,2024-02-28T14:47:27.663Z,english_390.wav,0,peel,424,33,5,5,francais,m,11,1.09391667,-82.02950505,1.5447274
65a83f5909f0706ac5f33dc0,43,0,2024-02-28T14:47:27.663Z,english_281.wav,0,pill,411,33,5,5,francais,m,0,0.0,-6.91929945,1.49696204
65a83f5909f0706ac5f33dc0,43,0,2024-02-28T14:47:27.663Z,english_281.wav,0,pill,411,33,5,5,francais,m,1,0.1,-25.44932046,1.38956204
65a83f5909f0706ac5f33dc0,43,0,2024-02-28T14:47:27.663Z,english_281.wav,0,pill,411,33,5,5,francais,m,2,0.2,-43.70872046,0.8964952
65a83f5909f0706ac5f33dc0,43,0,2024-02-28T14:47:27.663Z,english_281.wav,0,pill,411,33,5,5,francais,m,3,0.3,-18.3101874,0.52852326
65a83f5909f0706ac5f33dc0,43,0,2024-02-28T14:47:27.663Z,english_281.wav,0,pill,411,33,5,5,francais,m,4,0.4,86.16338552,0.8625919
65a83f5909f0706ac5f33dc0,43,0,2024-02-28T14:47:27.663Z,english_281.wav,0,pill,411,33,5,5,francais,m,5,0.5,49.26346324,1.51743083
65a83f5909f0706ac5f33dc0,43,0,2024-02-28T14:47:27.663Z,english_281.wav,0,pill,411,33,5,5,francais,m,6,0.6,79.40576686,0.79009251
65a83f5909f0706ac5f33dc0,43,0,2024-02-28T14:47:27.663Z,english_281.wav,0,pill,411,33,5,5,francais,m,7,0.7,85.96397413,0.18987002
65a83f5909f0706ac5f33dc0,43,0,2024-02-28T14:47:27.663Z,english_281.wav,0,pill,411,33,5,5,francais,m,8,0.8,-82.16790218,1.11136212
65a83f5909f0706ac5f33dc0,43,0,2024-02-28T14:47:27.663Z,english_281.wav,0,pill,411,33,5,5,francais,m,9,0.9,53.88469083,1.69337287
65a83f5909f0706ac5f33dc0,43,0,2024-02-28T14:47:27.663Z,english_281.wav,0,pill,411,33,5,5,francais,m,10,1.0,30.1327539,0.62990301
65a83f5909f0706ac5f33dc0,43,0,2024-02-28T14:47:27.663Z,english_281.wav,0,pill,411,33,5,5,francais,m,11,1.09391667,-24.86364002,1.33770256
65a83f5909f0706ac5f33dc0,44,0,2024-02-28T14:47:27.663Z,english_565.wav,0,peel,318,33,5,5,francais,m,0,0.0,90.76087004,0.64245812
65a83f5909f0706ac5f33dc0,44,0,2024-02-28T14:47:27.663Z,english_565.wav,0,peel,318,33,5,5,francais,m,1,0.1,90.93114699,0.32525734
65a83f5909f0706ac5f33dc0,44,0,2024-02-28T14:47:27.663Z,english_565.wav,0,peel,318,33,5,5,francais,m,2,0.2,-32.37019607,1.091812
65a83f5909f0706ac5f33dc0,44,0,2024-02-28T14:47:27.663Z,english_565.wav,0,peel,318,33,5,5,francais,m,3,0.3,77.30434891,0.92230791
65a83f5909f0706ac5f33dc0,44,0,2024-02-28T14:47:27.663Z,english_565.wav,0,peel,318,33,5,5,francais,m,4,0.4,-9.73234267,0.30031599
65a83f5909f0706ac5f33dc0,44,0,2024-02-28T14:47:27.663Z,english_565.wav,0,peel,318,33,5,5,francais,m,5,0.5,-83.24650182,0.39093775
65a83f5909f0706ac5f33dc0,44,0,2024-02-28T14:47:27.663Z,english_565.wav,0,peel,318,33,5,5,francais,m,6,0.6,21.51683352,0.75549465
65a83f5909f0706ac5f33dc0,44,0,2024-02-28T14:47:27.663Z,english_565.wav,0,peel,318,33,5,5,francais,m,7,0.7,88.66647516,1.68865449
65a83f5909f0706ac5f33dc0,44,0,2024-02-28T14:47:27.663Z,english_565.wav,0,peel,318,33,5,5,francais,m,8,0.8,21.52943084,0.98033477
65a83f5909f0706ac5f33dc0,44,0,2024-02-28T14:47:27.663Z,english_565.wav,0,peel,318,33,5,5,francais,m,9,0.9,0.60796245,1.75979764
65a83f5909f0706ac5f33dc0,44,0,2024-02-28T14:47:27.663Z,english_565.wav,0,peel,318,33,5,5,francais,m,10,1.0,9.87605239,1.41337712
65a83f5909f0706ac5f33dc0,44,0,2024-02-28T14:47:27.663Z,english_565.wav,0,peel,318,33,5,5,francais,m,11,1.09391667,92.11409348,0.97633592
65a83f5909f0706ac5f33dc0,45,0,2024-02-28T14:47:27.663Z,english_88.wav,0,pill,281,33,5,5,francais,m,0,0.0,-71.9844785,0.53660294
65a83f5909f0706ac5f33dc0,45,0,2024-02-28T14:47:27.663Z,english_88.wav,0,pill,281,33,5,5,francais,m,1,0.1,-49.01939905,1.47642874
65a83f5909f0706ac5f33dc0,45,0,2024-02-28T14:47:27.663Z,english_88.wav,0,pill,281,33,5,5,francais,m,2,0.2,50.12381506,0.52511459
65a83f5909f0706ac5f33dc0,45,0,2024-02-28T14:47:27.663Z,english_88.wav,0,pill,281,33,5,5,francais,m,3,0.3,-84.58055822,1.50109779
65a83f5909f0706ac5f33dc0,45,0,2024-02-28T14:47:27.663Z,english_88.wav,0,pill,281,33,5,5,francais,m,4,0.4,-75.77840035,0.97976024
65a83f5909f0706ac5f33dc0,45,0,2024-02-28T14:47:27.663Z,english_88.wav,0,pill,281,33,5,5,francais,m,5,0.5,-24.7911267,0.85239994
65a83f5909f0706ac5f33dc0,45,0,2024-02-28T14:47:27.663Z,english_88.wav,0,pill,281,33,5,5,francais,m,6,0.6,-23.67428976,1.05191942
65a83f5909f0706ac5f33dc0,45,0,2024-02-28T14:47:27.663Z,english_88.wav,0,pill,281,33,5,5,francais,m,7,0.7,-54.46174988,0.4066024
65a83f5909f0706ac5f33dc0,45,0,2024-02-28T14:47:27.663Z,english_88.wav,0,pill,281,33,5,5,francais,m,8,0.8,17.41292988,0.004424
65a83f5909f0706ac5f33dc0,45,0,2024-02-28T14:47:27.663Z,english_88.wav,0,pill,281,33,5,5,francais,m,9,0.9,-76.44908604,1.90836134
65a83f5909f0706ac5f33dc0,45,0,2024-02-28T14:47:27.663Z,english_88.wav,0,pill,281,33,5,5,francais,m,10,1.0,-2.36913576,1.74184755
65a83f5909f0706ac5f33dc0,45,0,2024-02-28T14:47:27.663Z,english_88.wav,0,pill,281,33,5,5,francais,m,11,1.09391667,-39.62259758,0.66301055
65a83f5909f0706ac5f33dc0,46,0,2024-02-28T14:47:27.663Z,english_136.wav,0,peel,379,33,5,5,francais,m,0,0.0,21.82146872,1.16475084
65a83f5909f0706ac5f33dc0,46,0,2024-02-28T14:47:27.663Z,english_136.wav,0,peel,379,33,5,5,francais,m,1,0.1,-41.56573861,0.22540654
65a83f5909f0706ac5f33dc0,46,0,2024-02-28T14:47:27.663Z,english_136.wav,0,peel,379,33,5,5,francais,m,2,0.2,56.74219222,0.7632378
65a83f5909f0706ac5f33dc0,46,0,2024-02-28T14:47:27.663Z,english_136.wav,0,peel,379,33,5,5,francais,m,3,0.3,-17.69017715,1.18330594
65a83f5909f0706ac5f33dc0,46,0,2024-02-28T14:47:27.663Z,english_136.wav,0,peel,379,33,5,5,francais,m,4,0.4,39.04068679,0.42274693
65a83f5909f0706ac5f33dc0,46,0,2024-02-28T14:47:27.663Z,english_136.wav,0,peel,379,33,5,5,francais,m,5,0.5,-57.82412378,0.15408699
65a83f5909f0706ac5f33dc0,46,0,2024-02-28T14:47:27.663Z,english_136.wav,0,peel,379,33,5,5,francais,m,6,0.6,-58.88173028,0.89761294
65a83f5909f0706ac5f33dc0,46,0,2024-02-28T14:47:27.663Z,english_136.wav,0,peel,379,33,5,5,francais,m,7,0.7,-0.85323684,1.46626125
65a83f5909f0706ac5f33dc0,46,0,2024-02-28T14:47:27.663Z,english_136.wav,0,peel,379,33,5,5,francais,m,8,0.8,88.76403384,1.51243191
65a83f5909f0706ac5f33dc0,46,0,2024-02-28T14:47:27.663Z,english_136.wav,0,peel,379,33,5,5,francais,m,9,0.9,-53.53826962,0.60247353
65a83f5909f0706ac5f33dc0,46,0,2024-02-28T14:47:27.663Z,english_136.wav,0,peel,379,33,5,5,francais,m,10,1.0,-6.60701791,1.96374571
65a83f5909f0706ac5f33dc0,46,0,2024-02-28T14:47:27.663Z,english_136.wav,0,peel,379,33,5,5,francais,m,11,1.09391667,78.9552904,1.19972968
65a83f5909f0706ac5f33dc0,47,0,2024-02-28T14:47:27.663Z,english_705.wav,0,pill,469,33,5,5,francais,m,0,0.0,94.0253211,0.90857368
65a83f5909f0706ac5f33dc0,47,0,2024-02-28T14:47:27.663Z,english_705.wav,0,pill,469,33,5,5,francais,m,1,0.1,-84.5444617,1.76203374
65a83f5909f0706ac5f33dc0,47,0,2024-02-28T14:47:27.663Z,english_705.wav,0,pill,469,33,5,5,francais,m,2,0.2,70.19977298,0.0745524
65a83f5909f0706ac5f33dc0,47,0,2024-02-28T14:47:27.663Z,english_705.wav,0,pill,469,33,5,5,francais,m,3,0.3,2.19370509,1.11616576
65a83f5909f0706ac5f33dc0,47,0,2024-02-28T14:47:27.663Z,english_705.wav,0,pill,469,33,5,5,francais,m,4,0.4,-19.63697013,0.64300797
65a83f5909f0706ac5f33dc0,47,0,2024-02-28T14:47:27.663Z,english_705.wav,0,pill,469,33,5,5,francais,m,5,0.5,-84.4931522,1.25671361
65a83f5909f0706ac5f33dc0,47,0,2024-02-28T14:47:27.663Z,english_705.wav,0,pill,469,33,5,5,francais,m,6,0.6,-85.03717111,0.57308662
65a83f5909f0706ac5f33dc0,47,0,2024-02-28T14:47:27.663Z,english_705.wav,0,pill,469,33,5,5,francais,m,7,0.7,-41.91445316,1.15914167
65a83f5909f0706ac5f33dc0,47,0,2024-02-28T14:47:27.663Z,english_705.wav,0,pill,469,33,5,5,francais,m,8,0.8,84.41486289,1.00421815
65a83f5909f0706ac5f33dc0,47,0,2024-02-28T14:47:27.663Z,english_705.wav,0,pill,469,33,5,5,francais,m,9,0.9,18.1621282,0.6158783
65a83f5909f0706ac5f33dc0,47,0,2024-02-28T14:47:27.663Z,english_705.wav,0,pill,469,33,5,5,francais,m,10,1.0,14.92247564,1.53499835
65a83f5909f0706ac5f33dc0,47,0,2024-02-28T14:47:27.663Z,english_705.wav,0,pill,469,33,5,5,francais,m,11,1.09391667,8.36562591,1.78270824
65a83f5909f0706ac5f33dc0,48,0,2024-02-28T14:47:27.663Z,english_791.wav,0,peel,483,33,5,5,francais,m,0,0.0,-46.06630558,1.16002163
65a83f5909f0706ac5f33dc0,48,0,2024-02-28T14:47:27.663Z,english_791.wav,0,peel,483,33,5,5,francais,m,1,0.1,-10.41029295,1.31545425
65a83f5909f0706ac5f33dc0,48,0,2024-02-28T14:47:27.663Z,english_791.wav,0,peel,483,33,5,5,francais,m,2,0.2,46.47346809,0.89173565
65a83f5909f0706ac5f33dc0,48,0,2024-02-28T14:47:27.663Z,english_791.wav,0,peel,483,33,5,5,francais,m,3,0.3,-10.43860287,0.05427007
65a83f5909f0706ac5f33dc0,48,0,2024-02-28T14:47:27.663Z,english_791.wav,0,peel,483,33,5,5,francais,m,4,0.4,-38.16717219,1.4017057
65a83f5909f0706ac5f33dc0,48,0,2024-02-28T14:47:27.663Z,english_791.wav,0,peel,483,33,5,5,francais,m,5,0.5,44.56559314,0.47849772
65a83f5909f0706ac5f33dc0,48,0,2024-02-28T14:47:27.663Z,english_791.wav,0,peel,483,33,5,5,francais,m,6,0.6,43.70696978,1.59729287
65a83f5909f0706ac5f33dc0,48,0,2024-02-28T14:47:27.663Z,english_791.wav,0,peel,483,33,5,5,francais,m,7,0.7,-5.54884815,1.50901191
65a83f5909f0706ac5f33dc0,48,0,2024-02-28T14:47:27.663Z,english_791.wav,0,peel,483,33,5,5,francais,m,8,0.8,89.91059564,0.68083576
65a83f5909f0706ac5f33dc0,48,0,2024-02-28T14:47:27.663Z,english_791.wav,0,peel,483,33,5,5,francais,m,9,0.9,90.72111025,1.62669182
65a83f5909f0706ac5f33dc0,48,0,2024-02-28T14:47:27.663Z,english_791.wav,0,peel,483,33,5,5,francais,m,10,1.0,4.8020349,1.81653342
65a83f5909f0706ac5f33dc0,48,0,2024-02-28T14:47:27.663Z,english_791.wav,0,peel,483,33,5,5,francais,m,11,1.09391667,7.87463746,1.33572141
65a83f5909f0706ac5f33dc0,49,0,2024-02-28T14:47:27.663Z,english_882.wav,0,pill,668,33,5,5,francais,m,0,0.0,-7.05979315,0.25493427
65a83f5909f0706ac5f33dc0,49,0,2024-02-28T14:47:27.663Z,english_882.wav,0,pill,668,33,5,5,francais,m,1,0.1,11.12287517,1.40090196
65a83f5909f0706ac5f33dc0,49,0,2024-02-28T14:47:27.663Z,english_882.wav,0,pill,668,33,5,5,francais,m,2,0.2,28.5672698,0.1131803
65a83f5909f0706ac5f33dc0,49,0,2024-02-28T14:47:27.663Z,english_882.wav,0,pill,668,33,5,5,francais,m,3,0.3,16.48717496,1.17672005
65a83f5909f0706ac5f33dc0,49,0,2024-02-28T14:47:27.663Z,english_882.wav,0,pill,668,33,5,5,francais,m,4,0.4,6.46389904,1.65791719
65a83f5909f0706ac5f33dc0,49,0,2024-02-28T14:47:27.663Z,english_882.wav,0,pill,668,33,5,5,francais,m,5,0.5,-33.62191601,1.48549593
65a83f5909f0706ac5f33dc0,49,0,2024-02-28T14:47:27.663Z,english_882.wav,0,pill,668,33,5,5,francais,m,6,0.6,24.95644847,0.02678123
65a83f5909f0706ac5f33dc0,49,0,2024-02-28T14:47:27.663Z,english_882.wav,0,pill,668,33,5,5,francais,m,7,0.7,-38.16076581,0.84885904
65a83f5909f0706ac5f33dc0,49,0,2024-02-28T14:47:27.663Z,english_882.wav,0,pill,668,33,5,5,francais,m,8,0.8,-79.20201093,0.30029844
65a83f5909f0706ac5f33dc0,49,0,2024-02-28T14:47:27.663Z,english_882.wav,0,pill,668,33,5,5,francais,m,9,0.9,-71.11539398,0.49544308
65a83f5909f0706ac5f33dc0,49,0,2024-02-28T14:47:27.663Z,english_882.wav,0,pill,668,33,5,5,francais,m,10,1.0,-86.32031944,0.41090122
65a83f5909f0706ac5f33dc0,49,0,2024-02-28T14:47:27.663Z,english_882.wav,0,pill,668,33,5,5,francais,m,11,1.09391667,-43.4557724,0.68463909
65a83f5909f0706ac5f33dc0,50,1,2024-02-28T14:47:27.663Z,english_148.wav,0,peel,286,33,5,5,francais,m,0,0.0,85.27624152,0.1092145
65a83f5909f0706ac5f33dc0,50,1,2024-02-28T14:47:27.663Z,english_148.wav,0,peel,286,33,5,5,francais,m,1,0.1,58.23579672,0.64980633
65a83f5909f0706ac5f33dc0,50,1,2024-02-28T14:47:27.663Z,english_148.wav,0,peel,286,33,5,5,francais,m,2,0.2,-91.05033604,1.83346208
65a83f5909f0706ac5f33dc0,50,1,2024-02-28T14:47:27.663Z,english_148.wav,0,peel,286,33,5,5,francais,m,3,0.3,20.11396141,1.16314863
65a83f5909f0706ac5f33dc0,50,1,2024-02-28T14:47:27.663Z,english_148.wav,0,peel,286,33,5,5,francais,m,4,0.4,75.44798514,0.3185648
65a83f5909f0706ac5f33dc0,50,1,2024-02-28T14:47:27.663Z,english_148.wav,0,peel,286,33,5,5,francais,m,5,0.5,-38.94488744,0.6593156
65a83f5909f0706ac5f33dc0,50,1,2024-02-28T14:47:27.663Z,english_148.wav,0,peel,286,33,5,5,francais,m,6,0.6,-29.81274231,1.16710518
65a83f5909f0706ac5f33dc0,50,1,2024-02-28T14:47:27.663Z,english_148.wav,0,peel,286,33,5,5,francais,m,7,0.7,75.45743384,1.07936895
65a83f5909f0706ac5f33dc0,50,1,2024-02-28T14:47:27.663Z,english_148.wav,0,peel,286,33,5,5,francais,m,8,0.8,-13.70216327,0.75554181
65a83f5909f0706ac5f33dc0,50,1,2024-02-28T14:47:27.663Z,english_148.wav,0,peel,286,33,5,5,francais,m,9,0.9,-90.12623186,1.33604039
65a83f5909f0706ac5f33dc0,50,1,2024-02-28T14:47:27.663Z,english_148.wav,0,peel,286,33,5,5,francais,m,10,1.0,-27.22744176,1.61217721
65a83f5909f0706ac5f33dc0,50,1,2024-02-28T14:47:27.663Z,english_148.wav,0,peel,286,33,5,5,francais,m,11,1.09391667,7.28951287,1.20550087
65a83f5909f0706ac5f33dc0,51,1,2024-02-28T14:47:27.663Z,english_35.wav,0,pill,379,33,5,5,francais,m,0,0.0,-33.2471352,0.63198815
65a83f5909f0706ac5f33dc0,51,1,2024-02-28T14:47:27.663Z,english_35.wav,0,pill,379,33,5,5,francais,m,1,0.1,-56.9991421,0.43394686
65a83f5909f0706ac5f33dc0,51,1,2024-02-28T14:47:27.663Z,english_35.wav,0,pill,379,33,5,5,francais,m,2,0.2,-53.141025,1.61809769
65a83f5909f0706ac5f33dc0,51,1,2024-02-28T14:47:27.663Z,english_35.wav,0,pill,379,33,5,5,francais,m,3,0.3,-97.470792,0.75167401
65a83f5909f0706ac5f33dc0,51,1,2024-02-28T14:47:27.663Z,english_35.wav,0,pill,379,33,5,5,francais,m,4,0.4,25.2422215,0.72143441
65a83f5909f0706ac5f33dc0,51,1,2024-02-28T14:47:27.663Z,english_35.wav,0,pill,379,33,5,5,francais,m,5,0.5,-39.0524292,1.49847169
65a83f5909f0706ac5f33dc0,51,1,2024-02-28T14:47:27.663Z,english_35.wav,0,pill,379,33,5,5,francais,m,6,0.6,-99.0462998,0.81761607
65a83f5909f0706ac5f33dc0,51,1,2024-02-28T14:47:27.663Z,english_35.wav,0,pill,379,33,5,5,francais,m,7,0.7,48.0059539,1.11392086
65a83f5909f0706ac5f33dc0,51,1,2024-02-28T14:47:27.663Z,english_35.wav,0,pill,379,33,5,5,francais,m,8,0.8,73.4220257,1.25690952
65a83f5909f0706ac5f33dc0,51,1,2024-02-28T14:47:27.663Z,english_35.wav,0,pill,379,33,5,5,francais,m,9,0.9,-41.814313,1.7324837
65a83f5909f0706ac5f33dc0,51,1,2024-02-28T14:47:27.663Z,english_35.wav,0,pill,379,33,5,5,francais,m,10,1.0,0.040670218,0.64426718
65a83f5909f0706ac5f33dc0,51,1,2024-02-28T14:47:27.663Z,english_35.wav,0,pill,379,33,5,5,francais,m,11,1.09391667,34.2858519,1.0286628
65a83f5909f0706ac5f33dc0,52,1,2024-02-28T14:47:27.663Z,english_195.wav,0,pill,362,33,5,5,francais,m,0,0.0,-84.31811629,1.00245815
65a83f5909f0706ac5f33dc0,52,1,2024-02-28T14:47:27.663Z,english_195.wav,0,pill,362,33,5,5,francais,m,1,0.1,-40.4937686,0.37362225
65a83f5909f0706ac5f33dc0,52,1,2024-02-28T14:47:27.663Z,english_195.wav,0,pill,362,33,5,5,francais,m,2,0.2,43.37920818,1.2771314
65a83f5909f0706ac5f33dc0,52,1,2024-02-28T14:47:27.663Z,english_195.wav,0,pill,362,33,5,5,francais,m,3,0.3,89.86748729,0.32946516
65a83f5909f0706ac5f33dc0,52,1,2024-02-28T14:47:27.663Z,english_195.wav,0,pill,362,33,5,5,francais,m,4,0.4,24.49320863,1.39441943
65a83f5909f0706ac5f33dc0,52,1,2024-02-28T14:47:27.663Z,english_195.wav,0,pill,362,33,5,5,francais,m,5,0.5,-46.40835892,1.30540336
65a83f5909f0706ac5f33dc0,52,1,2024-02-28T14:47:27.663Z,english_195.wav,0,pill,362,33,5,5,francais,m,6,0.6,35.9505397,0.00236394
65a83f5909f0706ac5f33dc0,52,1,2024-02-28T14:47:27.663Z,english_195.wav,0,pill,362,33,5,5,francais,m,7,0.7,62.43082011,1.39191992
65a83f5909f0706ac5f33dc0,52,1,2024-02-28T14:47:27.663Z,english_195.wav,0,pill,362,33,5,5,francais,m,8,0.8,85.56276985,0.22399256
65a83f5909f0706ac5f33dc0,52,1,2024-02-28T14:47:27.663Z,english_195.wav,0,pill,362,33,5,5,francais,m,9,0.9,52.49119502,0.98445346
65a83f5909f0706ac5f33dc0,52,1,2024-02-28T14:47:27.663Z,english_195.wav,0,pill,362,33,5,5,francais,m,10,1.0,-55.346187,1.43930771
65a83f5909f0706ac5f33dc0,52,1,2024-02-28T14:47:27.663Z,english_195.wav,0,pill,362,33,5,5,francais,m,11,1.09391667,-71.70758722,1.96006647
65a83f5909f0706ac5f33dc0,53,1,2024-02-28T14:47:27.663Z,english_386.wav,0,pill,649,33,5,5,francais,m,0,0.0,-19.52342601,1.87136497
65a83f5909f0706ac5f33dc0,53,1,2024-02-28T14:47:27.663Z,english_386.wav,0,pill,649,33,5,5,francais,m,1,0.1,12.51870084,1.2884713
65a83f5909f0706ac5f33dc0,53,1,2024-02-28T14:47:27.663Z,english_386.wav,0,pill,649,33,5,5,francais,m,2,0.2,39.37532447,0.99035372
65a83f5909f0706ac5f33dc0,53,1,2024-02-28T14:47:27.663Z,english_386.wav,0,pill,649,33,5,5,francais,m,3,0.3,-27.49424213,1.4593324
65a83f5909f0706ac5f33dc0,53,1,2024-02-28T14:47:27.663Z,english_386.wav,0,pill,649,33,5,5,francais,m,4,0.4,2.74242911,1.12443884
65a83f5909f0706ac5f33dc0,53,1,2024-02-28T14:47:27.663Z,english_386.wav,0,pill,649,33,5,5,francais,m,5,0.5,15.14964773,0.10576994
65a83f5909f0706ac5f33dc0,53,1,2024-02-28T14:47:27.663Z,english_386.wav,0,pill,649,33,5,5,francais,m,6,0.6,45.71194496,1.21238053
65a83f5909f0706ac5f33dc0,53,1,2024-02-28T14:47:27.663Z,english_386.wav,0,pill,649,33,5,5,francais,m,7,0.7,28.98960809,0.05301684
65a83f5909f0706ac5f33dc0,53,1,2024-02-28T14:47:27.663Z,english_386.wav,0,pill,649,33,5,5,francais,m,8,0.8,-39.83484556,0.73550617
65a83f5909f0706ac5f33dc0,53,1,2024-02-28T14:47:27.663Z,english_386.wav,0,pill,649,33,5,5,francais,m,9,0.9,33.1587893,1.02363056
65a83f5909f0706ac5f33dc0,53,1,2024-02-28T14:47:27.663Z,english_386.wav,0,pill,649,33,5,5,francais,m,10,1.0,24.37786674,0.31570088
65a83f5909f0706ac5f33dc0,53,1,2024-02-28T14:47:27.663Z,english_386.wav,0,pill,649,33,5,5,francais,m,11,1.09391667,-21.81878644,0.61715616
65a83f5909f0706ac5f33dc0,54,1,2024-02-28T14:47:27.663Z,english_505.wav,0,pill,418,33,5,5,francais,m,0,0.0,91.23085556,0.82413934
65a83f5909f0706ac5f33dc0,54,1,2024-02-28T14:47:27.663Z,english_505.wav,0,pill,418,33,5,5,francais,m,1,0.1,-15.55826488,0.35004659
65a83f5909f0706ac5f33dc0,54,1,2024-02-28T14:47:27.663Z,english_505.wav,0,pill,418,33,5,5,francais,m,2,0.2,12.35940028,1.21560266
65a83f5909f0706ac5f33dc0,54,1,2024-02-28T14:47:27.663Z,english_505.wav,0,pill,418,33,5,5,francais,m,3,0.3,-0.93203898,1.75278196
65a83f5909f0706ac5f33dc0,54,1,2024-02-28T14:47:27.663Z,english_505.wav,0,pill,418,33,5,5,francais,m,4,0.4,98.55638555,1.03675584
65a83f5909f0706ac5f33dc0,54,1,2024-02-28T14:47:27.663Z,english_505.wav,0,pill,418,33,5,5,francais,m,5,0.5,89.84667018,1.84604412
65a83f5909f0706ac5f33dc0,54,1,2024-02-28T14:47:27.663Z,english_505.wav,0,pill,418,33,5,5,francais,m,6,0.6,61.88853531,0.6105869
65a83f5909f0706ac5f33dc0,54,1,2024-02-28T14:47:27.663Z,english_505.wav,0,pill,418,33,5,5,francais,m,7,0.7,19.66566337,1.77513514
65a83f5909f0706ac5f33dc0,54,1,2024-02-28T14:47:27.663Z,english_505.wav,0,pill,418,33,5,5,francais,m,8,0.8,-99.77897317,0.3232423
65a83f5909f0706ac5f33dc0,54,1,2024-02-28T14:47:27.663Z,english_505.wav,0,pill,418,33,5,5,francais,m,9,0.9,-24.29755532,0.91185212
65a83f5909f0706ac5f33dc0,54,1,2024-02-28T14:47:27.663Z,english_505.wav,0,pill,418,33,5,5,francais,m,10,1.0,67.47807651,1.75020631
65a83f5909f0706ac5f33dc0,54,1,2024-02-28T14:47:27.663Z,english_505.wav,0,pill,418,33,5,5,francais,m,11,1.09391667,13.49034132,1.09867425
65a83f5909f0706ac5f33dc0,55,1,2024-02-28T14:47:27.663Z,english_45.wav,0,peel,312,33,5,5,francais,m,0,0.0,-55.14721801,0.29299266
65a83f5909f0706ac5f33dc0,55,1,2024-02-28T14:47:27.663Z,english_45.wav,0,peel,312,33,5,5,francais,m,1,0.1,57.09452307,0.9247964
65a83f5909f0706ac5f33dc0,55,1,2024-02-28T14:47:27.663Z,english_45.wav,0,peel,312,33,5,5,francais,m,2,0.2,-1.62499195,1.0494158
65a83f5909f0706ac5f33dc0,55,1,2024-02-28T14:47:27.663Z,english_45.wav,0,peel,312,33,5,5,francais,m,3,0.3,-13.00347301,1.81345336
65a83f5909f0706ac5f33dc0,55,1,2024-02-28T14:47:27.663Z,english_45.wav,0,peel,312,33,5,5,francais,m,4,0.4,13.64765964,1.7292362
65a83f5909f0706ac5f33dc0,55,1,2024-02-28T14:47:27.663Z,english_45.wav,0,peel,312,33,5,5,francais,m,5,0.5,-16.23645369,0.3059786
65a83f5909f0706ac5f33dc0,55,1,2024-02-28T14:47:27.663Z,english_45.wav,0,peel,312,33,5,5,francais,m,6,0.6,12.80202188,1.60566624
65a83f5909f0706ac5f33dc0,55,1,2024-02-28T14:47:27.663Z,english_45.wav,0,peel,312,33,5,5,francais,m,7,0.7,18.490615,1.60640041
65a83f5909f0706ac5f33dc0,55,1,2024-02-28T14:47:27.663Z,english_45.wav,0,peel,312,33,5,5,francais,m,8,0.8,-32.73911513,0.6923723
65a83f5909f0706ac5f33dc0,55,1,2024-02-28T14:47:27.663Z,english_45.wav,0,peel,312,33,5,5,francais,m,9,0.9,72.91810524,1.31031073
65a83f5909f0706ac5f33dc0,55,1,2024-02-28T14:47:27.663Z,english_45.wav,0,peel,312,33,5,5,francais,m,10,1.0,-39.54069726,0.9624361
65a83f5909f0706ac5f33dc0,55,1,2024-02-28T14:47:27.663Z,english_45.wav,0,peel,312,33,5,5,francais,m,11,1.09391667,1.32954538,1.523717
65a83f5909f0706ac5f33dc0,56,1,2024-02-28T14:47:27.663Z,english_646.wav,0,peel,365,33,5,5,francais,m,0,0.0,-72.16367523,1.23252036
65a83f5909f0706ac5f33dc0,56,1,2024-02-28T14:47:27.663Z,english_646.wav,0,peel,365,33,5,5,francais,m,1,0.1,89.23048569,0.41153547
65a83f5909f0706ac5f33dc0,56,1,2024-02-28T14:47:27.663Z,english_646.wav,0,peel,365,33,5,5,francais,m,2,0.2,3.93643173,1.30500866
65a83f5909f0706ac5f33dc0,56,1,2024-02-28T14:47:27.663Z,english_646.wav,0,peel,365,33,5,5,francais,m,3,0.3,32.33211102,0.16779894
65a83f5909f0706ac5f33dc0,56,1,2024-02-28T14:47:27.663Z,english_646.wav,0,peel,365,33,5,5,francais,m,4,0.4,57.94131679,1.44956343
65a83f5909f0706ac5f33dc0,56,1,2024-02-28T14:47:27.663Z,english_646.wav,0,peel,365,33,5,5,francais,m,5,0.5,3.36702109,0.43462
65a83f5909f0706ac5f33dc0,56,1,2024-02-28T14:47:27.663Z,english_646.wav,0,peel,365,33,5,5,francais,m,6,0.6,61.97454592,1.17161273
65a83f5909f0706ac5f33dc0,56,1,2024-02-28T14:47:27.663Z,english_646.wav,0,peel,365,33,5,5,francais,m,7,0.7,-38.94515992,1.33009112
65a83f5909f0706ac5f33dc0,56,1,2024-02-28T14:47:27.663Z,english_646.wav,0,peel,365,33,5,5,francais,m,8,0.8,18.02819855,1.9601355
65a83f5909f0706ac5f33dc0,56,1,2024-02-28T14:47:27.663Z,english_646.wav,0,peel,365,33,5,5,francais,m,9,0.9,-7.01403953,1.16018484
65a83f5909f0706ac5f33dc0,56,1,2024-02-28T14:47:27.663Z,english_646.wav,0,peel,365,33,5,5,francais,m,10,1.0,22.99913436,0.4872476
65a83f5909f0706ac5f33dc0,56,1,2024-02-28T14:47:27.663Z,english_646.wav,0,peel,365,33,5,5,francais,m,11,1.09391667,-15.24744046,0.4931797
65a83f5909f0706ac5f33dc0,57,1,2024-02-28T14:47:27.663Z,english_788.wav,0,pill,305,33,5,5,francais,m,0,0.0,17.89309058,1.04861509
65a83f5909f0706ac5f33dc0,57,1,2024-02-28T14:47:27.663Z,english_788.wav,0,pill,305,33,5,5,francais,m,1,0.1,71.29743237,1.67595733
65a83f5909f0706ac5f33dc0,57,1,2024-02-28T14:47:27.663Z,english_788.wav,0,pill,305,33,5,5,francais,m,2,0.2,-58.86773575,0.86315506
65a83f5909f0706ac5f33dc0,57,1,2024-02-28T14:47:27.663Z,english_788.wav,0,pill,305,33,5,5,francais,m,3,0.3,-79.26718247,0.41984481
65a83f5909f0706ac5f33dc0,57,1,2024-02-28T14:47:27.663Z,english_788.wav,0,pill,305,33,5,5,francais,m,4,0.4,35.72874859,0.95404094
65a83f5909f0706ac5f33dc0,57,1,2024-02-28T14:47:27.663Z,english_788.wav,0,pill,305,33,5,5,francais,m,5,0.5,-14.77309026,0.45544588
65a83f5909f0706ac5f33dc0,57,1,2024-02-28T14:47:27.663Z,english_788.wav,0,pill,305,33,5,5,francais,m,6,0.6,-78.45807111,0.07788433
65a83f5909f0706ac5f33dc0,57,1,2024-02-28T14:47:27.663Z,english_788.wav,0,pill,305,33,5,5,francais,m,7,0.7,40.66379457,0.7267532
65a83f5909f0706ac5f33dc0,57,1,2024-02-28T14:47:27.663Z,english_788.wav,0,pill,305,33,5,5,francais,m,8,0.8,51.99524397,1.61048189
65a83f5909f0706ac5f33dc0,57,1,2024-02-28T14:47:27.663Z,english_788.wav,0,pill,305,33,5,5,francais,m,9,0.9,23.30304068,1.83471325
65a83f5909f0706ac5f33dc0,57,1,2024-02-28T14:47:27.663Z,english_788.wav,0,pill,305,33,5,5,francais,m,10,1.0,87.05916465,1.60214946
65a83f5909f0706ac5f33dc0,57,1,2024-02-28T14:47:27.663Z,english_788.wav,0,pill,305,33,5,5,francais,m,11,1.09391667,-42.18000877,1.51632908
65a83f5909f0706ac5f33dc0,58,1,2024-02-28T14:47:27.663Z,english_938.wav,0,pill,482,33,5,5,francais,m,0,0.0,-53.63878643,0.25625638
65a83f5909f0706ac5f33dc0,58,1,2024-02-28T14:47:27.663Z,english_938.wav,0,pill,482,33,5,5,francais,m,1,0.1,-38.8400944,1.23524187
65a83f5909f0706ac5f33dc0,58,1,2024-02-28T14:47:27.663Z,english_938.wav,0,pill,482,33,5,5,francais,m,2,0.2,-9.87265498,0.81990957
65a83f5909f0706ac5f33dc0,58,1,2024-02-28T14:47:27.663Z,english_938.wav,0,pill,482,33,5,5,francais,m,3,0.3,16.2059687,1.45712995
65a83f5909f0706ac5f33dc0,58,1,2024-02-28T14:47:27.663Z,english_938.wav,0,pill,482,33,5,5,francais,m,4,0.4,-90.53563301,0.4819737
65a83f5909f0706ac5f33dc0,58,1,2024-02-28T14:47:27.663Z,english_938.wav,0,pill,482,33,5,5,francais,m,5,0.5,64.72350929,0.32505179
65a83f5909f0706ac5f33dc0,58,1,2024-02-28T14:47:27.663Z,english_938.wav,0,pill,482,33,5,5,francais,m,6,0.6,-52.05654387,1.44150274
65a83f5909f0706ac5f33dc0,58,1,2024-02-28T14:47:27.663Z,english_938.wav,0,pill,482,33,5,5,francais,m,7,0.7,-42.35049902,1.58605202
65a83f5909f0706ac5f33dc0,58,1,2024-02-28T14:47:27.663Z,english_938.wav,0,pill,482,33,5,5,francais,m,8,0.8,32.88204039,0.48300943
65a83f5909f0706ac5f33dc0,58,1,2024-02-28T14:47:27.663Z,english_938.wav,0,pill,482,33,5,5,francais,m,9,0.9,-86.42075109,1.19049872
65a83f5909f0706ac5f33dc0,58,1,2024-02-28T14:47:27.663Z,english_938.wav,0,pill,482,33,5,5,francais,m,10,1.0,31.2389269,1.85243238
65a83f5909f0706ac5f33dc0,58,1,2024-02-28T14:47:27.663Z,english_938.wav,0,pill,482,33,5,5,francais,m,11,1.09391667,-10.13697021,0.92208217
65a83f5909f0706ac5f33dc0,59,1,2024-02-28T14:47:27.663Z,english_55.wav,0,peel,325,33,5,5,francais,m,0,0.0,55.67307479,0.52782995
65a83f5909f0706ac5f33dc0,59,1,2024-02-28T14:47:27.663Z,english_55.wav,0,peel,325,33,5,5,francais,m,1,0.1,-68.77763233,1.04888997
65a83f5909f0706ac5f33dc0,59,1,2024-02-28T14:47:27.663Z,english_55.wav,0,peel,325,33,5,5,francais,m,2,0.2,-65.56479824,1.48348863
65a83f5909f0706ac5f33dc0,59,1,2024-02-28T14:47:27.663Z,english_55.wav,0,peel,325,33,5,5,francais,m,3,0.3,-28.17507295,0.48831434
65a83f5909f0706ac5f33dc0,59,1,2024-02-28T14:47:27.663Z,english_55.wav,0,peel,325,33,5,5,francais,m,4,0.4,12.71546493,0.57381204
65a83f5909f0706ac5f33dc0,59,1,2024-02-28T14:47:27.663Z,english_55.wav,0,peel,325,33,5,5,francais,m,5,0.5,79.84163838,0.45321787
65a83f5909f0706ac5f33dc0,59,1,2024-02-28T14:47:27.663Z,english_55.wav,0,peel,325,33,5,5,francais,m,6,0.6,-44.12045936,1.63628375
65a83f5909f0706ac5f33dc0,59,1,2024-02-28T14:47:27.663Z,english_55.wav,0,peel,325,33,5,5,francais,m,7,0.7,-80.03895773,1.60012046
65a83f5909f0706ac5f33dc0,59,1,2024-02-28T14:47:27.663Z,english_55.wav,0,peel,325,33,5,5,francais,m,8,0.8,89.560279,1.77258714
65a83f5909f0706ac5f33dc0,59,1,2024-02-28T14:47:27.663Z,english_55.wav,0,peel,325,33,5,5,francais,m,9,0.9,-86.43761931,0.52302607
65a83f5909f0706ac5f33dc0,59,1,2024-02-28T14:47:27.663Z,english_55.wav,0,peel,325,33,5,5,francais,m,10,1.0,26.43928763,1.59376443
65a83f5909f0706ac5f33dc0,59,1,2024-02-28T14:47:27.663Z,english_55.wav,0,peel,325,33,5,5,francais,m,11,1.09391667,35.34186428,1.33420322
65a83f5909f0706ac5f33dc0,60,1,2024-02-28T14:47:27.663Z,english_370.wav,0,pill,503,33,5,5,francais,m,0,0.0,91.45146765,1.23282005
65a83f5909f0706ac5f33dc0,60,1,2024-02-28T14:47:27.663Z,english_370.wav,0,pill,503,33,5,5,francais,m,1,0.1,-35.10409157,0.25999131
65a83f5909f0706ac5f33dc0,60,1,2024-02-28T14:47:27.663Z,english_370.wav,0,pill,503,33,5,5,francais,m,2,0.2,94.76486666,1.34886846
65a83f5909f0706ac5f33dc0,60,1,2024-02-28T14:47:27.663Z,english_370.wav,0,pill,503,33,5,5,francais,m,3,0.3,-53.94210215,0.83234793
65a83f5909f0706ac5f33dc0,60,1,2024-02-28T14:47:27.663Z,english_370.wav,0,pill,503,33,5,5,francais,m,4,0.4,84.25045535,0.3574364
65a83f5909f0706ac5f33dc0,60,1,2024-02-28T14:47:27.663Z,english_370.wav,0,pill,503,33,5,5,francais,m,5,0.5,23.38990659,1.13678853
65a83f5909f0706ac5f33dc0,60,1,2024-02-28T14:47:27.663Z,english_370.wav,0,pill,503,33,5,5,francais,m,6,0.6,-19.20564455,1.71477151
65a83f5909f0706ac5f33dc0,60,1,2024-02-28T14:47:27.663Z,english_370.wav,0,pill,503,33,5,5,francais,m,7,0.7,79.34721748,0.6734852
65a83f5909f0706ac5f33dc0,60,1,2024-02-28T14:47:27.663Z,english_370.wav,0,pill,503,33,5,5,francais,m,8,0.8,-19.93049437,1.07446176
65a83f5909f0706ac5f33dc0,60,1,2024-02-28T14:47:27.663Z,english_370.wav,0,pill,503,33,5,5,francais,m,9,0.9,-60.8441274,1.23242025
65a83f5909f0706ac5f33dc0,60,1,2024-02-28T14:47:27.663Z,english_370.wav,0,pill,503,33,5,5,francais,m,10,1.0,-1.38990897,1.52786138
65a83f5909f0706ac5f33dc0,60,1,2024-02-28T14:47:27.663Z,english_370.wav,0,pill,503,33,5,5,francais,m,11,1.09391667,24.56704264,1.4714842
65a83f5909f0706ac5f33dc0,61,1,2024-02-28T14:47:27.663Z,english_553.wav,0,pill,323,33,5,5,francais,m,0,0.0,-24.88703549,1.59716139
65a83f5909f0706ac5f33dc0,61,1,2024-02-28T14:47:27.663Z,english_553.wav,0,pill,323,33,5,5,francais,m,1,0.1,-32.78735509,1.94339053
65a83f5909f0706ac5f33dc0,61,1,2024-02-28T14:47:27.663Z,english_553.wav,0,pill,323,33,5,5,francais,m,2,0.2,11.78475046,0.07176258
65a83f5909f0706ac5f33dc0,61,1,2024-02-28T14:47:27.663Z,english_553.wav,0,pill,323,33,5,5,francais,m,3,0.3,-49.38675094,1.26590086
65a83f5909f0706ac5f33dc0,61,1,2024-02-28T14:47:27.663Z,english_553.wav,0,pill,323,33,5,5,francais,m,4,0.4,87.03858762,0.74193634
65a83f5909f0706ac5f33dc0,61,1,2024-02-28T14:47:27.663Z,english_553.wav,0,pill,323,33,5,5,francais,m,5,0.5,60.30502824,1.61552542
65a83f5909f0706ac5f33dc0,61,1,2024-02-28T14:47:27.663Z,english_553.wav,0,pill,323,33,5,5,francais,m,6,0.6,10.13311967,0.16579471
65a83f5909f0706ac5f33dc0,61,1,2024-02-28T14:47:27.663Z,english_553.wav,0,pill,323,33,5,5,francais,m,7,0.7,67.86345644,1.42366471
65a83f5909f0706ac5f33dc0,61,1,2024-02-28T14:47:27.663Z,english_553.wav,0,pill,323,33,5,5,francais,m,8,0.8,-60.17677271,1.14167702
65a83f5909f0706ac5f33dc0,61,1,2024-02-28T14:47:27.663Z,english_553.wav,0,pill,323,33,5,5,francais,m,9,0.9,12.98417217,1.59651853
65a83f5909f0706ac5f33dc0,61,1,2024-02-28T14:47:27.663Z,english_553.wav,0,pill,323,33,5,5,francais,m,10,1.0,49.25042129,1.95090435
65a83f5909f0706ac5f33dc0,61,1,2024-02-28T14:47:27.663Z,english_553.wav,0,pill,323,33,5,5,francais,m,11,1.09391667,-82.97566862,0.60671916
65a83f5909f0706ac5f33dc0,62,1,2024-02-28T14:47:27.663Z,english_246.wav,0,pill,551,33,5,5,francais,m,0,0.0,65.19555702,1.04626937
65a83f5909f0706ac5f33dc0,62,1,2024-02-28T14:47:27.663Z,english_246.wav,0,pill,551,33,5,5,francais,m,1,0.1,-88.31116696,1.63597079
65a83f5909f0706ac5f33dc0,62,1,2024-02-28T14:47:27.663Z,english_246.wav,0,pill,551,33,5,5,francais,m,2,0.2,-87.15645837,1.95419498
65a83f5909f0706ac5f33dc0,62,1,2024-02-28T14:47:27.663Z,english_246.wav,0,pill,551,33,5,5,francais,m,3,0.3,57.84934166,0.56872665
65a83f5909f0706ac5f33dc0,62,1,2024-02-28T14:47:27.663Z,english_246.wav,0,pill,551,33,5,5,francais,m,4,0.4,-76.45557784,0.40309221
65a83f5909f0706ac5f33dc0,62,1,2024-02-28T14:47:27.663Z,english_246.wav,0,pill,551,33,5,5,francais,m,5,0.5,66.32688278,1.93282921
65a83f5909f0706ac5f33dc0,62,1,2024-02-28T14:47:27.663Z,english_246.wav,0,pill,551,33,5,5,francais,m,6,0.6,93.44738027,1.28213971
65a83f5909f0706ac5f33dc0,62,1,2024-02-28T14:47:27.663Z,english_246.wav,0,pill,551,33,5,5,francais,m,7,0.7,54.7923908,1.70127241
65a83f5909f0706ac5f33dc0,62,1,2024-02-28T14:47:27.663Z,english_246.wav,0,pill,551,33,5,5,francais,m,8,0.8,-1.38437059,0.15014799
65a83f5909f0706ac5f33dc0,62,1,2024-02-28T14:47:27.663Z,english_246.wav,0,pill,551,33,5,5,francais,m,9,0.9,5.22264847,1.21649106
65a83f5909f0706ac5f33dc0,62,1,2024-02-28T14:47:27.663Z,english_246.wav,0,pill,551,33,5,5,francais,m,10,1.0,-11.85909484,1.48942771
65a83f5909f0706ac5f33dc0,62,1,2024-02-28T14:47:27.663Z,english_246.wav,0,pill,551,33,5,5,francais,m,11,1.09391667,65.00290812,0.35768018
65a83f5909f0706ac5f33dc0,63,1,2024-02-28T14:47:27.663Z,english_933.wav,0,peel,1451,33,5,5,francais,m,0,0.0,-32.55224072,0.19221515
65a83f5909f0706ac5f33dc0,63,1,2024-02-28T14:47:27.663Z,english_933.wav,0,peel,1451,33,5,5,francais,m,1,0.1,59.44257797,1.43025401
65a83f5909f0706ac5f33dc0,63,1,2024-02-28T14:47:27.663Z,english_933.wav,0,peel,1451,33,5,5,francais,m,2,0.2,17.39690353,1.54503316
65a83f5909f0706ac5f33dc0,63,1,2024-02-28T14:47:27.663Z,english_933.wav,0,peel,1451,33,5,5,francais,m,3,0.3,-22.68529576,0.8626505
65a83f5909f0706ac5f33dc0,63,1,2024-02-28T14:47:27.663Z,english_933.wav,0,peel,1451,33,5,5,francais,m,4,0.4,-75.07818399,0.16630427
65a83f5909f0706ac5f33dc0,63,1,2024-02-28T14:47:27.663Z,english_933.wav,0,peel,1451,33,5,5,francais,m,5,0.5,-42.21384225,0.04785165
65a83f5909f0706ac5f33dc0,63,1,2024-02-28T14:47:27.663Z,english_933.wav,0,peel,1451,33,5,5,francais,m,6,0.6,88.28795698,0.15375828
65a83f5909f0706ac5f33dc0,63,1,2024-02-28T14:47:27.663Z,english_933.wav,0,peel,1451,33,5,5,francais,m,7,0.7,-93.76467276,0.19154161
65a83f5909f0706ac5f33dc0,63,1,2024-02-28T14:47:27.663Z,english_933.wav,0,peel,1451,33,5,5,francais,m,8,0.8,-63.09167857,1.95653775
65a83f5909f0706ac5f33dc0,63,1,2024-02-28T14:47:27.663Z,english_933.wav,0,peel,1451,33,5,5,francais,m,9,0.9,42.2087571,0.40020781
65a83f5909f0706ac5f33dc0,63,1,2024-02-28T14:47:27.663Z,english_933.wav,0,peel,1451,33,5,5,francais,m,10,1.0,48.07358396,0.86859993
65a83f5909f0706ac5f33dc0,63,1,2024-02-28T14:47:27.663Z,english_933.wav,0,peel,1451,33,5,5,francais,m,11,1.09391667,62.42851897,1.49244645
65a83f5909f0706ac5f33dc0,64,1,2024-02-28T14:47:27.663Z,english_76.wav,0,pill,1569,33,5,5,francais,m,0,0.0,24.53692124,0.00919351
65a83f5909f0706ac5f33dc0,64,1,2024-02-28T14:47:27.663Z,english_76.wav,0,pill,1569,33,5,5,francais,m,1,0.1,4.74525032,1.89780668
65a83f5909f0706ac5f33dc0,64,1,2024-02-28T14:47:27.663Z,english_76.wav,0,pill,1569,33,5,5,francais,m,2,0.2,-11.73085706,1.28424019
