subj,trial,block,date,stim,stim_order,response,rt,age,english,french,language,sex,param_index,segment,pitch,stretch
5d64f820c94fbf0001addee8,0,0,2024-02-28T14:30:29.474Z,english_982.wav,0,peel,2459,34,5,5,Français,m,0,0.0,69.76944056,0.99276477
5d64f820c94fbf0001addee8,0,0,2024-02-28T14:30:29.474Z,english_982.wav,0,peel,2459,34,5,5,Français,m,1,0.1,-42.93548761,1.13394656
5d64f820c94fbf0001addee8,0,0,2024-02-28T14:30:29.474Z,english_982.wav,0,peel,2459,34,5,5,Français,m,2,0.2,36.82283162,0.8882043
5d64f820c94fbf0001addee8,0,0,2024-02-28T14:30:29.474Z,english_982.wav,0,peel,2459,34,5,5,Français,m,3,0.3,32.72805269,0.48588646
5d64f820c94fbf0001addee8,0,0,2024-02-28T14:30:29.474Z,english_982.wav,0,peel,2459,34,5,5,Français,m,4,0.4,59.91100813,0.19309887
5d64f820c94fbf0001addee8,0,0,2024-02-28T14:30:29.474Z,english_982.wav,0,peel,2459,34,5,5,Français,m,5,0.5,-67.75715394,0.28513591
5d64f820c94fbf0001addee8,0,0,2024-02-28T14:30:29.474Z,english_982.wav,0,peel,2459,34,5,5,Français,m,6,0.6,-89.50145132,0.07898736
5d64f820c94fbf0001addee8,0,0,2024-02-28T14:30:29.474Z,english_982.wav,0,peel,2459,34,5,5,Français,m,7,0.7,-26.70280059,0.13233941
5d64f820c94fbf0001addee8,0,0,2024-02-28T14:30:29.474Z,english_982.wav,0,peel,2459,34,5,5,Français,m,8,0.8,64.77389449,0.72291483
5d64f820c94fbf0001addee8,0,0,2024-02-28T14:30:29.474Z,english_982.wav,0,peel,2459,34,5,5,Français,m,9,0.9,-30.11635891,0.45053492
5d64f820c94fbf0001addee8,0,0,2024-02-28T14:30:29.474Z,english_982.wav,0,peel,2459,34,5,5,Français,m,10,1.0,-16.70024332,0.51435491
5d64f820c94fbf0001addee8,0,0,2024-02-28T14:30:29.474Z,english_982.wav,0,peel,2459,34,5,5,Français,m,11,1.09391667,69.17887886,0.97661721
5d64f820c94fbf0001addee8,1,0,2024-02-28T14:30:29.474Z,english_168.wav,0,peel,1148,34,5,5,Français,m,0,0.0,-2.82851798,0.84695831
5d64f820c94fbf0001addee8,1,0,2024-02-28T14:30:29.474Z,english_168.wav,0,peel,1148,34,5,5,Français,m,1,0.1,47.00857465,0.31778045
5d64f820c94fbf0001addee8,1,0,2024-02-28T14:30:29.474Z,english_168.wav,0,peel,1148,34,5,5,Français,m,2,0.2,-17.58347791,1.27812293
5d64f820c94fbf0001addee8,1,0,2024-02-28T14:30:29.474Z,english_168.wav,0,peel,1148,34,5,5,Français,m,3,0.3,-13.31715429,0.74038461
5d64f820c94fbf0001addee8,1,0,2024-02-28T14:30:29.474Z,english_168.wav,0,peel,1148,34,5,5,Français,m,4,0.4,32.59893477,0.53430653
5d64f820c94fbf0001addee8,1,0,2024-02-28T14:30:29.474Z,english_168.wav,0,peel,1148,34,5,5,Français,m,5,0.5,97.16584938,0.39836338
5d64f820c94fbf0001addee8,1,0,2024-02-28T14:30:29.474Z,english_168.wav,0,peel,1148,34,5,5,Français,m,6,0.6,-13.44636048,1.18595545
5d64f820c94fbf0001addee8,1,0,2024-02-28T14:30:29.474Z,english_168.wav,0,peel,1148,34,5,5,Français,m,7,0.7,9.9504683,1.40244409
5d64f820c94fbf0001addee8,1,0,2024-02-28T14:30:29.474Z,english_168.wav,0,peel,1148,34,5,5,Français,m,8,0.8,45.41604728,0.07499365
5d64f820c94fbf0001addee8,1,0,2024-02-28T14:30:29.474Z,english_168.wav,0,peel,1148,34,5,5,Français,m,9,0.9,-79.49961867,0.73784136
5d64f820c94fbf0001addee8,1,0,2024-02-28T14:30:29.474Z,english_168.wav,0,peel,1148,34,5,5,Français,m,10,1.0,35.96813383,1.37065847
5d64f820c94fbf0001addee8,1,0,2024-02-28T14:30:29.474Z,english_168.wav,0,peel,1148,34,5,5,Français,m,11,1.09391667,-86.51274139,0.67911571
5d64f820c94fbf0001addee8,2,0,2024-02-28T14:30:29.474Z,english_893.wav,0,peel,642,34,5,5,Français,m,0,0.0,-88.27288408,0.46079997
5d64f820c94fbf0001addee8,2,0,2024-02-28T14:30:29.474Z,english_893.wav,0,peel,642,34,5,5,Français,m,1,0.1,65.02931774,1.28353758
5d64f820c94fbf0001addee8,2,0,2024-02-28T14:30:29.474Z,english_893.wav,0,peel,642,34,5,5,Français,m,2,0.2,52.75255946,1.5240413
5d64f820c94fbf0001addee8,2,0,2024-02-28T14:30:29.474Z,english_893.wav,0,peel,642,34,5,5,Français,m,3,0.3,83.63729727,1.67217786
5d64f820c94fbf0001addee8,2,0,2024-02-28T14:30:29.474Z,english_893.wav,0,peel,642,34,5,5,Français,m,4,0.4,-40.64554186,1.32541151
5d64f820c94fbf0001addee8,2,0,2024-02-28T14:30:29.474Z,english_893.wav,0,peel,642,34,5,5,Français,m,5,0.5,-63.5561657,0.97852107
5d64f820c94fbf0001addee8,2,0,2024-02-28T14:30:29.474Z,english_893.wav,0,peel,642,34,5,5,Français,m,6,0.6,86.64180858,0.03458433
5d64f820c94fbf0001addee8,2,0,2024-02-28T14:30:29.474Z,english_893.wav,0,peel,642,34,5,5,Français,m,7,0.7,66.95085035,1.20988187
5d64f820c94fbf0001addee8,2,0,2024-02-28T14:30:29.474Z,english_893.wav,0,peel,642,34,5,5,Français,m,8,0.8,-95.78590216,1.76333765
5d64f820c94fbf0001addee8,2,0,2024-02-28T14:30:29.474Z,english_893.wav,0,peel,642,34,5,5,Français,m,9,0.9,-69.05067698,0.45158105
5d64f820c94fbf0001addee8,2,0,2024-02-28T14:30:29.474Z,english_893.wav,0,peel,642,34,5,5,Français,m,10,1.0,-26.34394451,1.28641333
5d64f820c94fbf0001addee8,2,0,2024-02-28T14:30:29.474Z,english_893.wav,0,peel,642,34,5,5,Français,m,11,1.09391667,46.22858611,0.88140728
5d64f820c94fbf0001addee8,3,0,2024-02-28T14:30:29.474Z,english_485.wav,0,pill,546,34,5,5,Français,m,0,0.0,26.44907742,0.83287187
5d64f820c94fbf0001addee8,3,0,2024-02-28T14:30:29.474Z,english_485.wav,0,pill,546,34,5,5,Français,m,1,0.1,-73.42361147,1.40395819
5d64f820c94fbf0001addee8,3,0,2024-02-28T14:30:29.474Z,english_485.wav,0,pill,546,34,5,5,Français,m,2,0.2,92.83531317,1.51369756
5d64f820c94fbf0001addee8,3,0,2024-02-28T14:30:29.474Z,english_485.wav,0,pill,546,34,5,5,Français,m,3,0.3,82.36619494,0.99682619
5d64f820c94fbf0001addee8,3,0,2024-02-28T14:30:29.474Z,english_485.wav,0,pill,546,34,5,5,Français,m,4,0.4,-17.51087166,0.01124783
5d64f820c94fbf0001addee8,3,0,2024-02-28T14:30:29.474Z,english_485.wav,0,pill,546,34,5,5,Français,m,5,0.5,-26.28495986,0.02757377
5d64f820c94fbf0001addee8,3,0,2024-02-28T14:30:29.474Z,english_485.wav,0,pill,546,34,5,5,Français,m,6,0.6,0.94288036,0.89772739
5d64f820c94fbf0001addee8,3,0,2024-02-28T14:30:29.474Z,english_485.wav,0,pill,546,34,5,5,Français,m,7,0.7,-11.7082274,0.83950196
5d64f820c94fbf0001addee8,3,0,2024-02-28T14:30:29.474Z,english_485.wav,0,pill,546,34,5,5,Français,m,8,0.8,-66.16443059,0.91739043
5d64f820c94fbf0001addee8,3,0,2024-02-28T14:30:29.474Z,english_485.wav,0,pill,546,34,5,5,Français,m,9,0.9,-47.12237025,0.80980959
5d64f820c94fbf0001addee8,3,0,2024-02-28T14:30:29.474Z,english_485.wav,0,pill,546,34,5,5,Français,m,10,1.0,-81.68715,1.03797653
5d64f820c94fbf0001addee8,3,0,2024-02-28T14:30:29.474Z,english_485.wav,0,pill,546,34,5,5,Français,m,11,1.09391667,-22.18807282,0.63071559
5d64f820c94fbf0001addee8,4,0,2024-02-28T14:30:29.474Z,english_70.wav,0,peel,584,34,5,5,Français,m,0,0.0,84.7445928,1.85159723
5d64f820c94fbf0001addee8,4,0,2024-02-28T14:30:29.474Z,english_70.wav,0,peel,584,34,5,5,Français,m,1,0.1,-17.05936153,0.49913073
5d64f820c94fbf0001addee8,4,0,2024-02-28T14:30:29.474Z,english_70.wav,0,peel,584,34,5,5,Français,m,2,0.2,48.77629579,1.2524697
5d64f820c94fbf0001addee8,4,0,2024-02-28T14:30:29.474Z,english_70.wav,0,peel,584,34,5,5,Français,m,3,0.3,-37.18095977,1.90044367
5d64f820c94fbf0001addee8,4,0,2024-02-28T14:30:29.474Z,english_70.wav,0,peel,584,34,5,5,Français,m,4,0.4,49.63064657,0.54300229
5d64f820c94fbf0001addee8,4,0,2024-02-28T14:30:29.474Z,english_70.wav,0,peel,584,34,5,5,Français,m,5,0.5,-62.82111716,1.34279252
5d64f820c94fbf0001addee8,4,0,2024-02-28T14:30:29.474Z,english_70.wav,0,peel,584,34,5,5,Français,m,6,0.6,35.10101602,1.14641918
5d64f820c94fbf0001addee8,4,0,2024-02-28T14:30:29.474Z,english_70.wav,0,peel,584,34,5,5,Français,m,7,0.7,-40.08264695,0.66805918
5d64f820c94fbf0001addee8,4,0,2024-02-28T14:30:29.474Z,english_70.wav,0,peel,584,34,5,5,Français,m,8,0.8,35.78231672,1.02673009
5d64f820c94fbf0001addee8,4,0,2024-02-28T14:30:29.474Z,english_70.wav,0,peel,584,34,5,5,Français,m,9,0.9,-49.57858266,1.60161004
5d64f820c94fbf0001addee8,4,0,2024-02-28T14:30:29.474Z,english_70.wav,0,peel,584,34,5,5,Français,m,10,1.0,-49.37995814,1.69848543
5d64f820c94fbf0001addee8,4,0,2024-02-28T14:30:29.474Z,english_70.wav,0,peel,584,34,5,5,Français,m,11,1.09391667,20.96821744,0.40967928
5d64f820c94fbf0001addee8,5,0,2024-02-28T14:30:29.474Z,english_358.wav,0,peel,370,34,5,5,Français,m,0,0.0,92.28677649,0.81523353
5d64f820c94fbf0001addee8,5,0,2024-02-28T14:30:29.474Z,english_358.wav,0,peel,370,34,5,5,Français,m,1,0.1,-12.9582866,0.40862617
5d64f820c94fbf0001addee8,5,0,2024-02-28T14:30:29.474Z,english_358.wav,0,peel,370,34,5,5,Français,m,2,0.2,-98.82534689,0.64915378
5d64f820c94fbf0001addee8,5,0,2024-02-28T14:30:29.474Z,english_358.wav,0,peel,370,34,5,5,Français,m,3,0.3,-63.08847482,1.66113288
5d64f820c94fbf0001addee8,5,0,2024-02-28T14:30:29.474Z,english_358.wav,0,peel,370,34,5,5,Français,m,4,0.4,92.88960715,0.52783471
5d64f820c94fbf0001addee8,5,0,2024-02-28T14:30:29.474Z,english_358.wav,0,peel,370,34,5,5,Français,m,5,0.5,40.59705886,0.06151942
5d64f820c94fbf0001addee8,5,0,2024-02-28T14:30:29.474Z,english_358.wav,0,peel,370,34,5,5,Français,m,6,0.6,-76.45051274,0.90334042
5d64f820c94fbf0001addee8,5,0,2024-02-28T14:30:29.474Z,english_358.wav,0,peel,370,34,5,5,Français,m,7,0.7,-92.98382241,0.974558
5d64f820c94fbf0001addee8,5,0,2024-02-28T14:30:29.474Z,english_358.wav,0,peel,370,34,5,5,Français,m,8,0.8,-79.17872568,1.86712718
5d64f820c94fbf0001addee8,5,0,2024-02-28T14:30:29.474Z,english_358.wav,0,peel,370,34,5,5,Français,m,9,0.9,63.6003007,1.75794987
5d64f820c94fbf0001addee8,5,0,2024-02-28T14:30:29.474Z,english_358.wav,0,peel,370,34,5,5,Français,m,10,1.0,-21.46486279,1.76155667
5d64f820c94fbf0001addee8,5,0,2024-02-28T14:30:29.474Z,english_358.wav,0,peel,370,34,5,5,Français,m,11,1.09391667,94.02075741,1.61274026
5d64f820c94fbf0001addee8,6,0,2024-02-28T14:30:29.474Z,english_915.wav,0,pill,550,34,5,5,Français,m,0,0.0,-21.98271396,1.11106838
5d64f820c94fbf0001addee8,6,0,2024-02-28T14:30:29.474Z,english_915.wav,0,pill,550,34,5,5,Français,m,1,0.1,1.0207487,1.44455779
5d64f820c94fbf0001addee8,6,0,2024-02-28T14:30:29.474Z,english_915.wav,0,pill,550,34,5,5,Français,m,2,0.2,23.02274493,1.42587556
5d64f820c94fbf0001addee8,6,0,2024-02-28T14:30:29.474Z,english_915.wav,0,pill,550,34,5,5,Français,m,3,0.3,85.32608832,1.47521249
5d64f820c94fbf0001addee8,6,0,2024-02-28T14:30:29.474Z,english_915.wav,0,pill,550,34,5,5,Français,m,4,0.4,-33.34189035,1.68905856
5d64f820c94fbf0001addee8,6,0,2024-02-28T14:30:29.474Z,english_915.wav,0,pill,550,34,5,5,Français,m,5,0.5,29.21421043,1.40181913
5d64f820c94fbf0001addee8,6,0,2024-02-28T14:30:29.474Z,english_915.wav,0,pill,550,34,5,5,Français,m,6,0.6,56.26543798,1.46869984
5d64f820c94fbf0001addee8,6,0,2024-02-28T14:30:29.474Z,english_915.wav,0,pill,550,34,5,5,Français,m,7,0.7,7.71467122,0.70433786
5d64f820c94fbf0001addee8,6,0,2024-02-28T14:30:29.474Z,english_915.wav,0,pill,550,34,5,5,Français,m,8,0.8,88.21567756,1.11015014
5d64f820c94fbf0001addee8,6,0,2024-02-28T14:30:29.474Z,english_915.wav,0,pill,550,34,5,5,Français,m,9,0.9,-50.54904275,0.72100932
5d64f820c94fbf0001addee8,6,0,2024-02-28T14:30:29.474Z,english_915.wav,0,pill,550,34,5,5,Français,m,10,1.0,-64.3056321,1.02681764
5d64f820c94fbf0001addee8,6,0,2024-02-28T14:30:29.474Z,english_915.wav,0,pill,550,34,5,5,Français,m,11,1.09391667,-64.41259803,0.869897
5d64f820c94fbf0001addee8,7,0,2024-02-28T14:30:29.474Z,english_823.wav,0,pill,570,34,5,5,Français,m,0,0.0,-70.10603849,1.91255795
5d64f820c94fbf0001addee8,7,0,2024-02-28T14:30:29.474Z,english_823.wav,0,pill,570,34,5,5,Français,m,1,0.1,-45.04517839,0.74599838
5d64f820c94fbf0001addee8,7,0,2024-02-28T14:30:29.474Z,english_823.wav,0,pill,570,34,5,5,Français,m,2,0.2,-42.2492944,1.31380905
5d64f820c94fbf0001addee8,7,0,2024-02-28T14:30:29.474Z,english_823.wav,0,pill,570,34,5,5,Français,m,3,0.3,-45.84544369,1.72599054
5d64f820c94fbf0001addee8,7,0,2024-02-28T14:30:29.474Z,english_823.wav,0,pill,570,34,5,5,Français,m,4,0.4,-4.98008302,1.26451187
5d64f820c94fbf0001addee8,7,0,2024-02-28T14:30:29.474Z,english_823.wav,0,pill,570,34,5,5,Français,m,5,0.5,20.34475247,1.72804797
5d64f820c94fbf0001addee8,7,0,2024-02-28T14:30:29.474Z,english_823.wav,0,pill,570,34,5,5,Français,m,6,0.6,84.8573305,0.52348254
5d64f820c94fbf0001addee8,7,0,2024-02-28T14:30:29.474Z,english_823.wav,0,pill,570,34,5,5,Français,m,7,0.7,-53.89632844,1.631088
5d64f820c94fbf0001addee8,7,0,2024-02-28T14:30:29.474Z,english_823.wav,0,pill,570,34,5,5,Français,m,8,0.8,-37.28575357,0.82823054
5d64f820c94fbf0001addee8,7,0,2024-02-28T14:30:29.474Z,english_823.wav,0,pill,570,34,5,5,Français,m,9,0.9,13.94407457,0.05356388
5d64f820c94fbf0001addee8,7,0,2024-02-28T14:30:29.474Z,english_823.wav,0,pill,570,34,5,5,Français,m,10,1.0,24.32776485,1.39749703
5d64f820c94fbf0001addee8,7,0,2024-02-28T14:30:29.474Z,english_823.wav,0,pill,570,34,5,5,Français,m,11,1.09391667,93.11083292,0.95992964
5d64f820c94fbf0001addee8,8,0,2024-02-28T14:30:29.474Z,english_10.wav,0,pill,886,34,5,5,Français,m,0,0.0,-15.04153425,1.52083452
5d64f820c94fbf0001addee8,8,0,2024-02-28T14:30:29.474Z,english_10.wav,0,pill,886,34,5,5,Français,m,1,0.1,-57.22263716,1.29896522
5d64f820c94fbf0001addee8,8,0,2024-02-28T14:30:29.474Z,english_10.wav,0,pill,886,34,5,5,Français,m,2,0.2,27.92618044,0.38561389
5d64f820c94fbf0001addee8,8,0,2024-02-28T14:30:29.474Z,english_10.wav,0,pill,886,34,5,5,Français,m,3,0.3,25.5799778,0.99686674
5d64f820c94fbf0001addee8,8,0,2024-02-28T14:30:29.474Z,english_10.wav,0,pill,886,34,5,5,Français,m,4,0.4,30.11064479,0.6118482
5d64f820c94fbf0001addee8,8,0,2024-02-28T14:30:29.474Z,english_10.wav,0,pill,886,34,5,5,Français,m,5,0.5,-7.71764525,1.86037541
5d64f820c94fbf0001addee8,8,0,2024-02-28T14:30:29.474Z,english_10.wav,0,pill,886,34,5,5,Français,m,6,0.6,27.65902171,0.71941397
5d64f820c94fbf0001addee8,8,0,2024-02-28T14:30:29.474Z,english_10.wav,0,pill,886,34,5,5,Français,m,7,0.7,-47.57621095,1.21671158
5d64f820c94fbf0001addee8,8,0,2024-02-28T14:30:29.474Z,english_10.wav,0,pill,886,34,5,5,Français,m,8,0.8,43.99977355,1.36149686
5d64f820c94fbf0001addee8,8,0,2024-02-28T14:30:29.474Z,english_10.wav,0,pill,886,34,5,5,Français,m,9,0.9,-15.79441044,0.57839438
5d64f820c94fbf0001addee8,8,0,2024-02-28T14:30:29.474Z,english_10.wav,0,pill,886,34,5,5,Français,m,10,1.0,-34.81966507,0.86495111
5d64f820c94fbf0001addee8,8,0,2024-02-28T14:30:29.474Z,english_10.wav,0,pill,886,34,5,5,Français,m,11,1.09391667,60.77971601,0.19592518
5d64f820c94fbf0001addee8,9,0,2024-02-28T14:30:29.474Z,english_881.wav,0,peel,1300,34,5,5,Français,m,0,0.0,-6.48543923,0.68458474
5d64f820c94fbf0001addee8,9,0,2024-02-28T14:30:29.474Z,english_881.wav,0,peel,1300,34,5,5,Français,m,1,0.1,52.42470042,1.23345655
5d64f820c94fbf0001addee8,9,0,2024-02-28T14:30:29.474Z,english_881.wav,0,peel,1300,34,5,5,Français,m,2,0.2,27.22865134,1.03441451
5d64f820c94fbf0001addee8,9,0,2024-02-28T14:30:29.474Z,english_881.wav,0,peel,1300,34,5,5,Français,m,3,0.3,-26.12053543,0.51926044
5d64f820c94fbf0001addee8,9,0,2024-02-28T14:30:29.474Z,english_881.wav,0,peel,1300,34,5,5,Français,m,4,0.4,80.9200248,1.84993398
5d64f820c94fbf0001addee8,9,0,2024-02-28T14:30:29.474Z,english_881.wav,0,peel,1300,34,5,5,Français,m,5,0.5,91.13618142,0.2782437
5d64f820c94fbf0001addee8,9,0,2024-02-28T14:30:29.474Z,english_881.wav,0,peel,1300,34,5,5,Français,m,6,0.6,72.82749112,1.43037542
5d64f820c94fbf0001addee8,9,0,2024-02-28T14:30:29.474Z,english_881.wav,0,peel,1300,34,5,5,Français,m,7,0.7,4.61309193,1.82353332
5d64f820c94fbf0001addee8,9,0,2024-02-28T14:30:29.474Z,english_881.wav,0,peel,1300,34,5,5,Français,m,8,0.8,6.14992629,1.39771107
5d64f820c94fbf0001addee8,9,0,2024-02-28T14:30:29.474Z,english_881.wav,0,peel,1300,34,5,5,Français,m,9,0.9,-73.40306534,0.81234613
5d64f820c94fbf0001addee8,9,0,2024-02-28T14:30:29.474Z,english_881.wav,0,peel,1300,34,5,5,Français,m,10,1.0,-18.81910787,0.47215555
5d64f820c94fbf0001addee8,9,0,2024-02-28T14:30:29.474Z,english_881.wav,0,peel,1300,34,5,5,Français,m,11,1.09391667,-70.65652208,1.77841719
5d64f820c94fbf0001addee8,10,0,2024-02-28T14:30:29.474Z,english_342.wav,0,peel,670,34,5,5,Français,m,0,0.0,41.55644967,0.78446862
5d64f820c94fbf0001addee8,10,0,2024-02-28T14:30:29.474Z,english_342.wav,0,peel,670,34,5,5,Français,m,1,0.1,67.8619368,0.85565407
5d64f820c94fbf0001addee8,10,0,2024-02-28T14:30:29.474Z,english_342.wav,0,peel,670,34,5,5,Français,m,2,0.2,-84.54944787,1.8318275
5d64f820c94fbf0001addee8,10,0,2024-02-28T14:30:29.474Z,english_342.wav,0,peel,670,34,5,5,Français,m,3,0.3,-13.40526133,1.61118522
5d64f820c94fbf0001addee8,10,0,2024-02-28T14:30:29.474Z,english_342.wav,0,peel,670,34,5,5,Français,m,4,0.4,84.55980061,0.75274568
5d64f820c94fbf0001addee8,10,0,2024-02-28T14:30:29.474Z,english_342.wav,0,peel,670,34,5,5,Français,m,5,0.5,-73.66695786,0.63423277
5d64f820c94fbf0001addee8,10,0,2024-02-28T14:30:29.474Z,english_342.wav,0,peel,670,34,5,5,Français,m,6,0.6,32.1068808,1.74871382
5d64f820c94fbf0001addee8,10,0,2024-02-28T14:30:29.474Z,english_342.wav,0,peel,670,34,5,5,Français,m,7,0.7,96.14629479,0.40859241
5d64f820c94fbf0001addee8,10,0,2024-02-28T14:30:29.474Z,english_342.wav,0,peel,670,34,5,5,Français,m,8,0.8,55.28291813,1.57798181
5d64f820c94fbf0001addee8,10,0,2024-02-28T14:30:29.474Z,english_342.wav,0,peel,670,34,5,5,Français,m,9,0.9,35.51210396,1.87430569
5d64f820c94fbf0001addee8,10,0,2024-02-28T14:30:29.474Z,english_342.wav,0,peel,670,34,5,5,Français,m,10,1.0,29.41468439,1.15438502
5d64f820c94fbf0001addee8,10,0,2024-02-28T14:30:29.474Z,english_342.wav,0,peel,670,34,5,5,Français,m,11,1.09391667,39.84982535,1.30694685
5d64f820c94fbf0001addee8,11,0,2024-02-28T14:30:29.474Z,english_719.wav,0,pill,538,34,5,5,Français,m,0,0.0,-74.07322153,0.85431966
5d64f820c94fbf0001addee8,11,0,2024-02-28T14:30:29.474Z,english_719.wav,0,pill,538,34,5,5,Français,m,1,0.1,35.75598847,1.01181763
5d64f820c94fbf0001addee8,11,0,2024-02-28T14:30:29.474Z,english_719.wav,0,pill,538,34,5,5,Français,m,2,0.2,82.97271333,0.92312945
5d64f820c94fbf0001addee8,11,0,2024-02-28T14:30:29.474Z,english_719.wav,0,pill,538,34,5,5,Français,m,3,0.3,17.0497448,0.56497759
5d64f820c94fbf0001addee8,11,0,2024-02-28T14:30:29.474Z,english_719.wav,0,pill,538,34,5,5,Français,m,4,0.4,25.23097934,0.45096397
5d64f820c94fbf0001addee8,11,0,2024-02-28T14:30:29.474Z,english_719.wav,0,pill,538,34,5,5,Français,m,5,0.5,4.16668302,1.21193737
5d64f820c94fbf0001addee8,11,0,2024-02-28T14:30:29.474Z,english_719.wav,0,pill,538,34,5,5,Français,m,6,0.6,-83.53078486,0.96594203
5d64f820c94fbf0001addee8,11,0,2024-02-28T14:30:29.474Z,english_719.wav,0,pill,538,34,5,5,Français,m,7,0.7,-81.53905497,0.58708741
5d64f820c94fbf0001addee8,11,0,2024-02-28T14:30:29.474Z,english_719.wav,0,pill,538,34,5,5,Français,m,8,0.8,32.10709268,1.06053437
5d64f820c94fbf0001addee8,11,0,2024-02-28T14:30:29.474Z,english_719.wav,0,pill,538,34,5,5,Français,m,9,0.9,9.14404491,1.09641521
5d64f820c94fbf0001addee8,11,0,2024-02-28T14:30:29.474Z,english_719.wav,0,pill,538,34,5,5,Français,m,10,1.0,56.09727313,1.58822768
5d64f820c94fbf0001addee8,11,0,2024-02-28T14:30:29.474Z,english_719.wav,0,pill,538,34,5,5,Français,m,11,1.09391667,-90.02311852,0.88380828
5d64f820c94fbf0001addee8,12,0,2024-02-28T14:30:29.474Z,english_725.wav,0,pill,668,34,5,5,Français,m,0,0.0,-9.03644008,1.33439085
5d64f820c94fbf0001addee8,12,0,2024-02-28T14:30:29.474Z,english_725.wav,0,pill,668,34,5,5,Français,m,1,0.1,17.25768585,1.14250237
5d64f820c94fbf0001addee8,12,0,2024-02-28T14:30:29.474Z,english_725.wav,0,pill,668,34,5,5,Français,m,2,0.2,31.80596944,1.31071592
5d64f820c94fbf0001addee8,12,0,2024-02-28T14:30:29.474Z,english_725.wav,0,pill,668,34,5,5,Français,m,3,0.3,-37.53705258,0.64785465
5d64f820c94fbf0001addee8,12,0,2024-02-28T14:30:29.474Z,english_725.wav,0,pill,668,34,5,5,Français,m,4,0.4,-72.83315878,1.42686134
5d64f820c94fbf0001addee8,12,0,2024-02-28T14:30:29.474Z,english_725.wav,0,pill,668,34,5,5,Français,m,5,0.5,-86.89655244,1.9351134
5d64f820c94fbf0001addee8,12,0,2024-02-28T14:30:29.474Z,english_725.wav,0,pill,668,34,5,5,Français,m,6,0.6,-41.36643193,0.6329639
5d64f820c94fbf0001addee8,12,0,2024-02-28T14:30:29.474Z,english_725.wav,0,pill,668,34,5,5,Français,m,7,0.7,-24.29547068,1.12609379
5d64f820c94fbf0001addee8,12,0,2024-02-28T14:30:29.474Z,english_725.wav,0,pill,668,34,5,5,Français,m,8,0.8,-10.26201034,0.4317144
5d64f820c94fbf0001addee8,12,0,2024-02-28T14:30:29.474Z,english_725.wav,0,pill,668,34,5,5,Français,m,9,0.9,-84.73732243,0.11714111
5d64f820c94fbf0001addee8,12,0,2024-02-28T14:30:29.474Z,english_725.wav,0,pill,668,34,5,5,Français,m,10,1.0,29.57592595,1.51572797
5d64f820c94fbf0001addee8,12,0,2024-02-28T14:30:29.474Z,english_725.wav,0,pill,668,34,5,5,Français,m,11,1.09391667,-31.00210879,0.75437121
5d64f820c94fbf0001addee8,13,0,2024-02-28T14:30:29.474Z,english_900.wav,0,pill,507,34,5,5,Français,m,0,0.0,-38.9822336,0.73560369
5d64f820c94fbf0001addee8,13,0,2024-02-28T14:30:29.474Z,english_900.wav,0,pill,507,34,5,5,Français,m,1,0.1,-50.03499546,1.14426311
5d64f820c94fbf0001addee8,13,0,2024-02-28T14:30:29.474Z,english_900.wav,0,pill,507,34,5,5,Français,m,2,0.2,-63.75664225,0.04637744
5d64f820c94fbf0001addee8,13,0,2024-02-28T14:30:29.474Z,english_900.wav,0,pill,507,34,5,5,Français,m,3,0.3,20.28138285,1.01450827
5d64f820c94fbf0001addee8,13,0,2024-02-28T14:30:29.474Z,english_900.wav,0,pill,507,34,5,5,Français,m,4,0.4,93.33922424,1.77013863
5d64f820c94fbf0001addee8,13,0,2024-02-28T14:30:29.474Z,english_900.wav,0,pill,507,34,5,5,Français,m,5,0.5,1.26373227,1.59303793
5d64f820c94fbf0001addee8,13,0,2024-02-28T14:30:29.474Z,english_900.wav,0,pill,507,34,5,5,Français,m,6,0.6,19.48332465,1.12600277
5d64f820c94fbf0001addee8,13,0,2024-02-28T14:30:29.474Z,english_900.wav,0,pill,507,34,5,5,Français,m,7,0.7,67.63688751,0.62325076
5d64f820c94fbf0001addee8,13,0,2024-02-28T14:30:29.474Z,english_900.wav,0,pill,507,34,5,5,Français,m,8,0.8,55.68273017,1.46299944
5d64f820c94fbf0001addee8,13,0,2024-02-28T14:30:29.474Z,english_900.wav,0,pill,507,34,5,5,Français,m,9,0.9,-9.55904988,0.28620123
5d64f820c94fbf0001addee8,13,0,2024-02-28T14:30:29.474Z,english_900.wav,0,pill,507,34,5,5,Français,m,10,1.0,75.63174295,0.87688791
5d64f820c94fbf0001addee8,13,0,2024-02-28T14:30:29.474Z,english_900.wav,0,pill,507,34,5,5,Français,m,11,1.09391667,68.02721405,0.93516031
5d64f820c94fbf0001addee8,14,0,2024-02-28T14:30:29.474Z,english_498.wav,0,pill,396,34,5,5,Français,m,0,0.0,43.98055184,1.94722798
5d64f820c94fbf0001addee8,14,0,2024-02-28T14:30:29.474Z,english_498.wav,0,pill,396,34,5,5,Français,m,1,0.1,91.3545984,1.93048351
5d64f820c94fbf0001addee8,14,0,2024-02-28T14:30:29.474Z,english_498.wav,0,pill,396,34,5,5,Français,m,2,0.2,-25.91563113,0.27240706
5d64f820c94fbf0001addee8,14,0,2024-02-28T14:30:29.474Z,english_498.wav,0,pill,396,34,5,5,Français,m,3,0.3,-14.96140851,1.06623965
5d64f820c94fbf0001addee8,14,0,2024-02-28T14:30:29.474Z,english_498.wav,0,pill,396,34,5,5,Français,m,4,0.4,-8.05824247,1.41558656
5d64f820c94fbf0001addee8,14,0,2024-02-28T14:30:29.474Z,english_498.wav,0,pill,396,34,5,5,Français,m,5,0.5,-61.63888891,0.26700347
5d64f820c94fbf0001addee8,14,0,2024-02-28T14:30:29.474Z,english_498.wav,0,pill,396,34,5,5,Français,m,6,0.6,37.86658664,0.54434522
5d64f820c94fbf0001addee8,14,0,2024-02-28T14:30:29.474Z,english_498.wav,0,pill,396,34,5,5,Français,m,7,0.7,-97.52325855,0.79258737
5d64f820c94fbf0001addee8,14,0,2024-02-28T14:30:29.474Z,english_498.wav,0,pill,396,34,5,5,Français,m,8,0.8,-16.03910224,1.13417158
5d64f820c94fbf0001addee8,14,0,2024-02-28T14:30:29.474Z,english_498.wav,0,pill,396,34,5,5,Français,m,9,0.9,83.25609208,0.68565339
5d64f820c94fbf0001addee8,14,0,2024-02-28T14:30:29.474Z,english_498.wav,0,pill,396,34,5,5,Français,m,10,1.0,-65.28300381,0.73020294
5d64f820c94fbf0001addee8,14,0,2024-02-28T14:30:29.474Z,english_498.wav,0,pill,396,34,5,5,Français,m,11,1.09391667,38.04109912,1.48505369
5d64f820c94fbf0001addee8,15,0,2024-02-28T14:30:29.474Z,english_114.wav,0,peel,2002,34,5,5,Français,m,0,0.0,-38.33361484,0.25479749
5d64f820c94fbf0001addee8,15,0,2024-02-28T14:30:29.474Z,english_114.wav,0,peel,2002,34,5,5,Français,m,1,0.1,-12.76602364,1.23857364
5d64f820c94fbf0001addee8,15,0,2024-02-28T14:30:29.474Z,english_114.wav,0,peel,2002,34,5,5,Français,m,2,0.2,0.32729235,0.44881648
5d64f820c94fbf0001addee8,15,0,2024-02-28T14:30:29.474Z,english_114.wav,0,peel,2002,34,5,5,Français,m,3,0.3,-29.2958396,1.47628631
5d64f820c94fbf0001addee8,15,0,2024-02-28T14:30:29.474Z,english_114.wav,0,peel,2002,34,5,5,Français,m,4,0.4,-44.05321795,1.29960212
5d64f820c94fbf0001addee8,15,0,2024-02-28T14:30:29.474Z,english_114.wav,0,peel,2002,34,5,5,Français,m,5,0.5,77.26891482,0.86625142
5d64f820c94fbf0001addee8,15,0,2024-02-28T14:30:29.474Z,english_114.wav,0,peel,2002,34,5,5,Français,m,6,0.6,-80.80990528,1.18678323
5d64f820c94fbf0001addee8,15,0,2024-02-28T14:30:29.474Z,english_114.wav,0,peel,2002,34,5,5,Français,m,7,0.7,-78.02585179,0.40341658
5d64f820c94fbf0001addee8,15,0,2024-02-28T14:30:29.474Z,english_114.wav,0,peel,2002,34,5,5,Français,m,8,0.8,14.37560873,0.69236485
5d64f820c94fbf0001addee8,15,0,2024-02-28T14:30:29.474Z,english_114.wav,0,peel,2002,34,5,5,Français,m,9,0.9,-41.68954869,0.99173078
5d64f820c94fbf0001addee8,15,0,2024-02-28T14:30:29.474Z,english_114.wav,0,peel,2002,34,5,5,Français,m,10,1.0,-51.42719285,0.71091923
5d64f820c94fbf0001addee8,15,0,2024-02-28T14:30:29.474Z,english_114.wav,0,peel,2002,34,5,5,Français,m,11,1.09391667,29.02505558,1.73837671
5d64f820c94fbf0001addee8,16,0,2024-02-28T14:30:29.474Z,english_740.wav,0,peel,426,34,5,5,Français,m,0,0.0,44.23615519,0.18420553
5d64f820c94fbf0001addee8,16,0,2024-02-28T14:30:29.474Z,english_740.wav,0,peel,426,34,5,5,Français,m,1,0.1,98.76848798,0.33702749
5d64f820c94fbf0001addee8,16,0,2024-02-28T14:30:29.474Z,english_740.wav,0,peel,426,34,5,5,Français,m,2,0.2,-87.19170744,1.65487116
5d64f820c94fbf0001addee8,16,0,2024-02-28T14:30:29.474Z,english_740.wav,0,peel,426,34,5,5,Français,m,3,0.3,17.94684961,1.85046367
5d64f820c94fbf0001addee8,16,0,2024-02-28T14:30:29.474Z,english_740.wav,0,peel,426,34,5,5,Français,m,4,0.4,-12.45304931,1.41062797
5d64f820c94fbf0001addee8,16,0,2024-02-28T14:30:29.474Z,english_740.wav,0,peel,426,34,5,5,Français,m,5,0.5,-75.39454761,0.63278533
5d64f820c94fbf0001addee8,16,0,2024-02-28T14:30:29.474Z,english_740.wav,0,peel,426,34,5,5,Français,m,6,0.6,-53.40311478,0.41831459
5d64f820c94fbf0001addee8,16,0,2024-02-28T14:30:29.474Z,english_740.wav,0,peel,426,34,5,5,Français,m,7,0.7,-59.89405571,0.99199332
5d64f820c94fbf0001addee8,16,0,2024-02-28T14:30:29.474Z,english_740.wav,0,peel,426,34,5,5,Français,m,8,0.8,75.23070465,1.19341016
5d64f820c94fbf0001addee8,16,0,2024-02-28T14:30:29.474Z,english_740.wav,0,peel,426,34,5,5,Français,m,9,0.9,-2.56343276,1.12149102
5d64f820c94fbf0001addee8,16,0,2024-02-28T14:30:29.474Z,english_740.wav,0,peel,426,34,5,5,Français,m,10,1.0,-6.86096821,0.55698581
5d64f820c94fbf0001addee8,16,0,2024-02-28T14:30:29.474Z,english_740.wav,0,peel,426,34,5,5,Français,m,11,1.09391667,-15.16975803,1.3020905
5d64f820c94fbf0001addee8,17,0,2024-02-28T14:30:29.474Z,english_730.wav,0,peel,623,34,5,5,Français,m,0,0.0,98.7829688,0.6873965
5d64f820c94fbf0001addee8,17,0,2024-02-28T14:30:29.474Z,english_730.wav,0,peel,623,34,5,5,Français,m,1,0.1,-67.9329994,0.65236597
5d64f820c94fbf0001addee8,17,0,2024-02-28T14:30:29.474Z,english_730.wav,0,peel,623,34,5,5,Français,m,2,0.2,-35.4157721,1.04626144
5d64f820c94fbf0001addee8,17,0,2024-02-28T14:30:29.474Z,english_730.wav,0,peel,623,34,5,5,Français,m,3,0.3,8.75583116,1.65669948
5d64f820c94fbf0001addee8,17,0,2024-02-28T14:30:29.474Z,english_730.wav,0,peel,623,34,5,5,Français,m,4,0.4,-60.72300086,1.8622585
5d64f820c94fbf0001addee8,17,0,2024-02-28T14:30:29.474Z,english_730.wav,0,peel,623,34,5,5,Français,m,5,0.5,-43.53238385,1.86205359
5d64f820c94fbf0001addee8,17,0,2024-02-28T14:30:29.474Z,english_730.wav,0,peel,623,34,5,5,Français,m,6,0.6,7.41942565,1.2731877
5d64f820c94fbf0001addee8,17,0,2024-02-28T14:30:29.474Z,english_730.wav,0,peel,623,34,5,5,Français,m,7,0.7,-30.23988593,0.2835626
5d64f820c94fbf0001addee8,17,0,2024-02-28T14:30:29.474Z,english_730.wav,0,peel,623,34,5,5,Français,m,8,0.8,98.85106115,0.42372638
5d64f820c94fbf0001addee8,17,0,2024-02-28T14:30:29.474Z,english_730.wav,0,peel,623,34,5,5,Français,m,9,0.9,11.8745124,1.35675351
5d64f820c94fbf0001addee8,17,0,2024-02-28T14:30:29.474Z,english_730.wav,0,peel,623,34,5,5,Français,m,10,1.0,-15.67114445,1.03423815
5d64f820c94fbf0001addee8,17,0,2024-02-28T14:30:29.474Z,english_730.wav,0,peel,623,34,5,5,Français,m,11,1.09391667,-67.06238252,0.63701046
5d64f820c94fbf0001addee8,18,0,2024-02-28T14:30:29.474Z,english_885.wav,0,peel,317,34,5,5,Français,m,0,0.0,54.55471531,1.33761042
5d64f820c94fbf0001addee8,18,0,2024-02-28T14:30:29.474Z,english_885.wav,0,peel,317,34,5,5,Français,m,1,0.1,-9.45538995,0.16839263
5d64f820c94fbf0001addee8,18,0,2024-02-28T14:30:29.474Z,english_885.wav,0,peel,317,34,5,5,Français,m,2,0.2,51.71669589,0.15282828
5d64f820c94fbf0001addee8,18,0,2024-02-28T14:30:29.474Z,english_885.wav,0,peel,317,34,5,5,Français,m,3,0.3,35.30778931,0.93528856
5d64f820c94fbf0001addee8,18,0,2024-02-28T14:30:29.474Z,english_885.wav,0,peel,317,34,5,5,Français,m,4,0.4,20.62870104,0.42450529
5d64f820c94fbf0001addee8,18,0,2024-02-28T14:30:29.474Z,english_885.wav,0,peel,317,34,5,5,Français,m,5,0.5,45.97492152,1.13086713
5d64f820c94fbf0001addee8,18,0,2024-02-28T14:30:29.474Z,english_885.wav,0,peel,317,34,5,5,Français,m,6,0.6,57.72908242,1.16302136
5d64f820c94fbf0001addee8,18,0,2024-02-28T14:30:29.474Z,english_885.wav,0,peel,317,34,5,5,Français,m,7,0.7,-7.90762664,1.12991064
5d64f820c94fbf0001addee8,18,0,2024-02-28T14:30:29.474Z,english_885.wav,0,peel,317,34,5,5,Français,m,8,0.8,-27.43803549,0.98725245
5d64f820c94fbf0001addee8,18,0,2024-02-28T14:30:29.474Z,english_885.wav,0,peel,317,34,5,5,Français,m,9,0.9,-45.75999486,0.61152154
5d64f820c94fbf0001addee8,18,0,2024-02-28T14:30:29.474Z,english_885.wav,0,peel,317,34,5,5,Français,m,10,1.0,65.06809526,0.86912983
5d64f820c94fbf0001addee8,18,0,2024-02-28T14:30:29.474Z,english_885.wav,0,peel,317,34,5,5,Français,m,11,1.09391667,85.31433116,0.92468658
5d64f820c94fbf0001addee8,19,0,2024-02-28T14:30:29.474Z,english_343.wav,0,peel,298,34,5,5,Français,m,0,0.0,-88.20355026,1.73516804
5d64f820c94fbf0001addee8,19,0,2024-02-28T14:30:29.474Z,english_343.wav,0,peel,298,34,5,5,Français,m,1,0.1,-17.76703198,0.86951139
5d64f820c94fbf0001addee8,19,0,2024-02-28T14:30:29.474Z,english_343.wav,0,peel,298,34,5,5,Français,m,2,0.2,-76.85759336,1.76251065
5d64f820c94fbf0001addee8,19,0,2024-02-28T14:30:29.474Z,english_343.wav,0,peel,298,34,5,5,Français,m,3,0.3,13.74829966,1.08707394
5d64f820c94fbf0001addee8,19,0,2024-02-28T14:30:29.474Z,english_343.wav,0,peel,298,34,5,5,Français,m,4,0.4,76.10347036,0.09783198
5d64f820c94fbf0001addee8,19,0,2024-02-28T14:30:29.474Z,english_343.wav,0,peel,298,34,5,5,Français,m,5,0.5,44.00038612,1.79124537
5d64f820c94fbf0001addee8,19,0,2024-02-28T14:30:29.474Z,english_343.wav,0,peel,298,34,5,5,Français,m,6,0.6,-40.48158133,0.32245203
5d64f820c94fbf0001addee8,19,0,2024-02-28T14:30:29.474Z,english_343.wav,0,peel,298,34,5,5,Français,m,7,0.7,-81.80076471,1.83894705
5d64f820c94fbf0001addee8,19,0,2024-02-28T14:30:29.474Z,english_343.wav,0,peel,298,34,5,5,Français,m,8,0.8,16.92874563,0.75545382
5d64f820c94fbf0001addee8,19,0,2024-02-28T14:30:29.474Z,english_343.wav,0,peel,298,34,5,5,Français,m,9,0.9,-39.14191482,0.41918914
5d64f820c94fbf0001addee8,19,0,2024-02-28T14:30:29.474Z,english_343.wav,0,peel,298,34,5,5,Français,m,10,1.0,58.30879913,1.12444687
5d64f820c94fbf0001addee8,19,0,2024-02-28T14:30:29.474Z,english_343.wav,0,peel,298,34,5,5,Français,m,11,1.09391667,14.49118286,1.87351865
5d64f820c94fbf0001addee8,20,0,2024-02-28T14:30:29.474Z,english_556.wav,0,peel,460,34,5,5,Français,m,0,0.0,-68.09670747,1.3485974
5d64f820c94fbf0001addee8,20,0,2024-02-28T14:30:29.474Z,english_556.wav,0,peel,460,34,5,5,Français,m,1,0.1,8.96692918,0.84698507
5d64f820c94fbf0001addee8,20,0,2024-02-28T14:30:29.474Z,english_556.wav,0,peel,460,34,5,5,Français,m,2,0.2,-46.83531772,0.06218337
5d64f820c94fbf0001addee8,20,0,2024-02-28T14:30:29.474Z,english_556.wav,0,peel,460,34,5,5,Français,m,3,0.3,-87.32202155,0.66181265
5d64f820c94fbf0001addee8,20,0,2024-02-28T14:30:29.474Z,english_556.wav,0,peel,460,34,5,5,Français,m,4,0.4,49.65406328,1.9600464
5d64f820c94fbf0001addee8,20,0,2024-02-28T14:30:29.474Z,english_556.wav,0,peel,460,34,5,5,Français,m,5,0.5,92.65716025,0.67849191
5d64f820c94fbf0001addee8,20,0,2024-02-28T14:30:29.474Z,english_556.wav,0,peel,460,34,5,5,Français,m,6,0.6,-17.76161657,0.9118753
5d64f820c94fbf0001addee8,20,0,2024-02-28T14:30:29.474Z,english_556.wav,0,peel,460,34,5,5,Français,m,7,0.7,-85.77085821,0.73811047
5d64f820c94fbf0001addee8,20,0,2024-02-28T14:30:29.474Z,english_556.wav,0,peel,460,34,5,5,Français,m,8,0.8,-31.44799715,0.91861979
5d64f820c94fbf0001addee8,20,0,2024-02-28T14:30:29.474Z,english_556.wav,0,peel,460,34,5,5,Français,m,9,0.9,-32.59755967,1.18816365
5d64f820c94fbf0001addee8,20,0,2024-02-28T14:30:29.474Z,english_556.wav,0,peel,460,34,5,5,Français,m,10,1.0,-96.2091504,1.86623217
5d64f820c94fbf0001addee8,20,0,2024-02-28T14:30:29.474Z,english_556.wav,0,peel,460,34,5,5,Français,m,11,1.09391667,-0.57982779,0.61760757
5d64f820c94fbf0001addee8,21,0,2024-02-28T14:30:29.474Z,english_816.wav,0,peel,526,34,5,5,Français,m,0,0.0,-17.35587933,1.80713615
5d64f820c94fbf0001addee8,21,0,2024-02-28T14:30:29.474Z,english_816.wav,0,peel,526,34,5,5,Français,m,1,0.1,0.95768859,0.65818518
5d64f820c94fbf0001addee8,21,0,2024-02-28T14:30:29.474Z,english_816.wav,0,peel,526,34,5,5,Français,m,2,0.2,47.37608494,0.13743933
5d64f820c94fbf0001addee8,21,0,2024-02-28T14:30:29.474Z,english_816.wav,0,peel,526,34,5,5,Français,m,3,0.3,-29.30928245,0.63156649
5d64f820c94fbf0001addee8,21,0,2024-02-28T14:30:29.474Z,english_816.wav,0,peel,526,34,5,5,Français,m,4,0.4,0.3886714,0.74841843
5d64f820c94fbf0001addee8,21,0,2024-02-28T14:30:29.474Z,english_816.wav,0,peel,526,34,5,5,Français,m,5,0.5,11.78751261,1.47868634
5d64f820c94fbf0001addee8,21,0,2024-02-28T14:30:29.474Z,english_816.wav,0,peel,526,34,5,5,Français,m,6,0.6,-3.17696206,1.19861887
5d64f820c94fbf0001addee8,21,0,2024-02-28T14:30:29.474Z,english_816.wav,0,peel,526,34,5,5,Français,m,7,0.7,-19.53944189,0.27488431
5d64f820c94fbf0001addee8,21,0,2024-02-28T14:30:29.474Z,english_816.wav,0,peel,526,34,5,5,Français,m,8,0.8,-7.70582249,0.84423799
5d64f820c94fbf0001addee8,21,0,2024-02-28T14:30:29.474Z,english_816.wav,0,peel,526,34,5,5,Français,m,9,0.9,-20.54964166,0.77450003
5d64f820c94fbf0001addee8,21,0,2024-02-28T14:30:29.474Z,english_816.wav,0,peel,526,34,5,5,Français,m,10,1.0,-60.75740285,1.95248665
5d64f820c94fbf0001addee8,21,0,2024-02-28T14:30:29.474Z,english_816.wav,0,peel,526,34,5,5,Français,m,11,1.09391667,-12.71558958,0.720403
5d64f820c94fbf0001addee8,22,0,2024-02-28T14:30:29.474Z,english_714.wav,0,peel,542,34,5,5,Français,m,0,0.0,79.0390651,0.49033963
5d64f820c94fbf0001addee8,22,0,2024-02-28T14:30:29.474Z,english_714.wav,0,peel,542,34,5,5,Français,m,1,0.1,36.23720606,1.92693389
5d64f820c94fbf0001addee8,22,0,2024-02-28T14:30:29.474Z,english_714.wav,0,peel,542,34,5,5,Français,m,2,0.2,59.88505324,0.63464649
5d64f820c94fbf0001addee8,22,0,2024-02-28T14:30:29.474Z,english_714.wav,0,peel,542,34,5,5,Français,m,3,0.3,35.79437608,0.92002545
5d64f820c94fbf0001addee8,22,0,2024-02-28T14:30:29.474Z,english_714.wav,0,peel,542,34,5,5,Français,m,4,0.4,1.83402307,0.7042678
5d64f820c94fbf0001addee8,22,0,2024-02-28T14:30:29.474Z,english_714.wav,0,peel,542,34,5,5,Français,m,5,0.5,73.3370193,0.59965101
5d64f820c94fbf0001addee8,22,0,2024-02-28T14:30:29.474Z,english_714.wav,0,peel,542,34,5,5,Français,m,6,0.6,-82.63220087,0.57753473
5d64f820c94fbf0001addee8,22,0,2024-02-28T14:30:29.474Z,english_714.wav,0,peel,542,34,5,5,Français,m,7,0.7,49.23957633,1.31617156
5d64f820c94fbf0001addee8,22,0,2024-02-28T14:30:29.474Z,english_714.wav,0,peel,542,34,5,5,Français,m,8,0.8,10.5160274,1.11503481
5d64f820c94fbf0001addee8,22,0,2024-02-28T14:30:29.474Z,english_714.wav,0,peel,542,34,5,5,Français,m,9,0.9,-94.9780405,1.71749538
5d64f820c94fbf0001addee8,22,0,2024-02-28T14:30:29.474Z,english_714.wav,0,peel,542,34,5,5,Français,m,10,1.0,20.48401592,0.94991936
5d64f820c94fbf0001addee8,22,0,2024-02-28T14:30:29.474Z,english_714.wav,0,peel,542,34,5,5,Français,m,11,1.09391667,-2.68158482,0.61904564
5d64f820c94fbf0001addee8,23,0,2024-02-28T14:30:29.474Z,english_534.wav,0,peel,486,34,5,5,Français,m,0,0.0,-15.08523103,1.2576493
5d64f820c94fbf0001addee8,23,0,2024-02-28T14:30:29.474Z,english_534.wav,0,peel,486,34,5,5,Français,m,1,0.1,93.48585898,1.2446308
5d64f820c94fbf0001addee8,23,0,2024-02-28T14:30:29.474Z,english_534.wav,0,peel,486,34,5,5,Français,m,2,0.2,55.87888333,0.65171732
5d64f820c94fbf0001addee8,23,0,2024-02-28T14:30:29.474Z,english_534.wav,0,peel,486,34,5,5,Français,m,3,0.3,-36.19470402,0.89712992
5d64f820c94fbf0001addee8,23,0,2024-02-28T14:30:29.474Z,english_534.wav,0,peel,486,34,5,5,Français,m,4,0.4,-10.66505227,0.55440887
5d64f820c94fbf0001addee8,23,0,2024-02-28T14:30:29.474Z,english_534.wav,0,peel,486,34,5,5,Français,m,5,0.5,-17.59721476,1.08297088
5d64f820c94fbf0001addee8,23,0,2024-02-28T14:30:29.474Z,english_534.wav,0,peel,486,34,5,5,Français,m,6,0.6,0.24135603,0.95799779
5d64f820c94fbf0001addee8,23,0,2024-02-28T14:30:29.474Z,english_534.wav,0,peel,486,34,5,5,Français,m,7,0.7,10.84337222,1.14434093
5d64f820c94fbf0001addee8,23,0,2024-02-28T14:30:29.474Z,english_534.wav,0,peel,486,34,5,5,Français,m,8,0.8,-58.25689659,1.1844466
5d64f820c94fbf0001addee8,23,0,2024-02-28T14:30:29.474Z,english_534.wav,0,peel,486,34,5,5,Français,m,9,0.9,99.17008703,1.42626651
5d64f820c94fbf0001addee8,23,0,2024-02-28T14:30:29.474Z,english_534.wav,0,peel,486,34,5,5,Français,m,10,1.0,-1.84311714,0.25468926
5d64f820c94fbf0001addee8,23,0,2024-02-28T14:30:29.474Z,english_534.wav,0,peel,486,34,5,5,Français,m,11,1.09391667,-27.99556667,1.75255348
5d64f820c94fbf0001addee8,24,0,2024-02-28T14:30:29.474Z,english_539.wav,0,peel,434,34,5,5,Français,m,0,0.0,-94.17846062,0.79705309
5d64f820c94fbf0001addee8,24,0,2024-02-28T14:30:29.474Z,english_539.wav,0,peel,434,34,5,5,Français,m,1,0.1,-5.02019603,0.75034459
5d64f820c94fbf0001addee8,24,0,2024-02-28T14:30:29.474Z,english_539.wav,0,peel,434,34,5,5,Français,m,2,0.2,-69.32919076,1.92009714
5d64f820c94fbf0001addee8,24,0,2024-02-28T14:30:29.474Z,english_539.wav,0,peel,434,34,5,5,Français,m,3,0.3,80.71922828,1.69419261
5d64f820c94fbf0001addee8,24,0,2024-02-28T14:30:29.474Z,english_539.wav,0,peel,434,34,5,5,Français,m,4,0.4,-44.41930109,1.08134057
5d64f820c94fbf0001addee8,24,0,2024-02-28T14:30:29.474Z,english_539.wav,0,peel,434,34,5,5,Français,m,5,0.5,60.55312323,0.26247587
5d64f820c94fbf0001addee8,24,0,2024-02-28T14:30:29.474Z,english_539.wav,0,peel,434,34,5,5,Français,m,6,0.6,-22.38704472,1.40392738
5d64f820c94fbf0001addee8,24,0,2024-02-28T14:30:29.474Z,english_539.wav,0,peel,434,34,5,5,Français,m,7,0.7,42.18310052,0.38201887
5d64f820c94fbf0001addee8,24,0,2024-02-28T14:30:29.474Z,english_539.wav,0,peel,434,34,5,5,Français,m,8,0.8,-3.23406116,1.79513964
5d64f820c94fbf0001addee8,24,0,2024-02-28T14:30:29.474Z,english_539.wav,0,peel,434,34,5,5,Français,m,9,0.9,86.87834775,0.10058598
5d64f820c94fbf0001addee8,24,0,2024-02-28T14:30:29.474Z,english_539.wav,0,peel,434,34,5,5,Français,m,10,1.0,-2.56962664,1.19776684
5d64f820c94fbf0001addee8,24,0,2024-02-28T14:30:29.474Z,english_539.wav,0,peel,434,34,5,5,Français,m,11,1.09391667,13.84279534,1.72675702
5d64f820c94fbf0001addee8,25,0,2024-02-28T14:30:29.474Z,english_874.wav,0,pill,730,34,5,5,Français,m,0,0.0,-71.39498579,1.26251394
5d64f820c94fbf0001addee8,25,0,2024-02-28T14:30:29.474Z,english_874.wav,0,pill,730,34,5,5,Français,m,1,0.1,62.98858744,1.60813214
5d64f820c94fbf0001addee8,25,0,2024-02-28T14:30:29.474Z,english_874.wav,0,pill,730,34,5,5,Français,m,2,0.2,41.27867713,0.77910004
5d64f820c94fbf0001addee8,25,0,2024-02-28T14:30:29.474Z,english_874.wav,0,pill,730,34,5,5,Français,m,3,0.3,-0.45014309,1.66768461
5d64f820c94fbf0001addee8,25,0,2024-02-28T14:30:29.474Z,english_874.wav,0,pill,730,34,5,5,Français,m,4,0.4,-62.23813069,1.66631965
5d64f820c94fbf0001addee8,25,0,2024-02-28T14:30:29.474Z,english_874.wav,0,pill,730,34,5,5,Français,m,5,0.5,81.69191529,0.96578831
5d64f820c94fbf0001addee8,25,0,2024-02-28T14:30:29.474Z,english_874.wav,0,pill,730,34,5,5,Français,m,6,0.6,-39.52630557,1.50022708
5d64f820c94fbf0001addee8,25,0,2024-02-28T14:30:29.474Z,english_874.wav,0,pill,730,34,5,5,Français,m,7,0.7,6.61232929,0.80807106
5d64f820c94fbf0001addee8,25,0,2024-02-28T14:30:29.474Z,english_874.wav,0,pill,730,34,5,5,Français,m,8,0.8,76.37120083,0.57035077
5d64f820c94fbf0001addee8,25,0,2024-02-28T14:30:29.474Z,english_874.wav,0,pill,730,34,5,5,Français,m,9,0.9,72.14080556,0.35036103
5d64f820c94fbf0001addee8,25,0,2024-02-28T14:30:29.474Z,english_874.wav,0,pill,730,34,5,5,Français,m,10,1.0,56.73337142,0.39594805
5d64f820c94fbf0001addee8,25,0,2024-02-28T14:30:29.474Z,english_874.wav,0,pill,730,34,5,5,Français,m,11,1.09391667,-44.63255829,1.14540291
5d64f820c94fbf0001addee8,26,0,2024-02-28T14:30:29.474Z,english_618.wav,0,peel,520,34,5,5,Français,m,0,0.0,-79.9488622,1.91362605
5d64f820c94fbf0001addee8,26,0,2024-02-28T14:30:29.474Z,english_618.wav,0,peel,520,34,5,5,Français,m,1,0.1,0.24132163,0.6330552
5d64f820c94fbf0001addee8,26,0,2024-02-28T14:30:29.474Z,english_618.wav,0,peel,520,34,5,5,Français,m,2,0.2,-56.62295111,0.97728614
5d64f820c94fbf0001addee8,26,0,2024-02-28T14:30:29.474Z,english_618.wav,0,peel,520,34,5,5,Français,m,3,0.3,-72.03937353,0.96298019
5d64f820c94fbf0001addee8,26,0,2024-02-28T14:30:29.474Z,english_618.wav,0,peel,520,34,5,5,Français,m,4,0.4,-44.72303747,1.81673931
5d64f820c94fbf0001addee8,26,0,2024-02-28T14:30:29.474Z,english_618.wav,0,peel,520,34,5,5,Français,m,5,0.5,-96.08672425,0.35989287
5d64f820c94fbf0001addee8,26,0,2024-02-28T14:30:29.474Z,english_618.wav,0,peel,520,34,5,5,Français,m,6,0.6,63.06881346,1.43341205
5d64f820c94fbf0001addee8,26,0,2024-02-28T14:30:29.474Z,english_618.wav,0,peel,520,34,5,5,Français,m,7,0.7,7.33604436,1.78848637
5d64f820c94fbf0001addee8,26,0,2024-02-28T14:30:29.474Z,english_618.wav,0,peel,520,34,5,5,Français,m,8,0.8,76.47736911,1.05646412
5d64f820c94fbf0001addee8,26,0,2024-02-28T14:30:29.474Z,english_618.wav,0,peel,520,34,5,5,Français,m,9,0.9,-52.54898443,0.998868
5d64f820c94fbf0001addee8,26,0,2024-02-28T14:30:29.474Z,english_618.wav,0,peel,520,34,5,5,Français,m,10,1.0,33.73192618,1.38011588
5d64f820c94fbf0001addee8,26,0,2024-02-28T14:30:29.474Z,english_618.wav,0,peel,520,34,5,5,Français,m,11,1.09391667,31.05572927,1.5899218
5d64f820c94fbf0001addee8,27,0,2024-02-28T14:30:29.474Z,english_685.wav,0,peel,616,34,5,5,Français,m,0,0.0,62.22235335,0.91642602
5d64f820c94fbf0001addee8,27,0,2024-02-28T14:30:29.474Z,english_685.wav,0,peel,616,34,5,5,Français,m,1,0.1,-97.11025465,1.72329218
5d64f820c94fbf0001addee8,27,0,2024-02-28T14:30:29.474Z,english_685.wav,0,peel,616,34,5,5,Français,m,2,0.2,72.03160739,1.99088782
5d64f820c94fbf0001addee8,27,0,2024-02-28T14:30:29.474Z,english_685.wav,0,peel,616,34,5,5,Français,m,3,0.3,40.47895004,0.00501952
5d64f820c94fbf0001addee8,27,0,2024-02-28T14:30:29.474Z,english_685.wav,0,peel,616,34,5,5,Français,m,4,0.4,-75.64985874,1.41330373
5d64f820c94fbf0001addee8,27,0,2024-02-28T14:30:29.474Z,english_685.wav,0,peel,616,34,5,5,Français,m,5,0.5,-62.21115329,0.58310659
5d64f820c94fbf0001addee8,27,0,2024-02-28T14:30:29.474Z,english_685.wav,0,peel,616,34,5,5,Français,m,6,0.6,34.38722215,1.5248844
5d64f820c94fbf0001addee8,27,0,2024-02-28T14:30:29.474Z,english_685.wav,0,peel,616,34,5,5,Français,m,7,0.7,96.86141958,0.15841589
5d64f820c94fbf0001addee8,27,0,2024-02-28T14:30:29.474Z,english_685.wav,0,peel,616,34,5,5,Français,m,8,0.8,52.32592552,1.39576372
5d64f820c94fbf0001addee8,27,0,2024-02-28T14:30:29.474Z,english_685.wav,0,peel,616,34,5,5,Français,m,9,0.9,47.74773781,1.97205737
5d64f820c94fbf0001addee8,27,0,2024-02-28T14:30:29.474Z,english_685.wav,0,peel,616,34,5,5,Français,m,10,1.0,37.75239805,1.24408728
5d64f820c94fbf0001addee8,27,0,2024-02-28T14:30:29.474Z,english_685.wav,0,peel,616,34,5,5,Français,m,11,1.09391667,-10.16077912,1.54258522
5d64f820c94fbf0001addee8,28,0,2024-02-28T14:30:29.474Z,english_909.wav,0,peel,398,34,5,5,Français,m,0,0.0,10.71027544,0.31194576
5d64f820c94fbf0001addee8,28,0,2024-02-28T14:30:29.474Z,english_909.wav,0,peel,398,34,5,5,Français,m,1,0.1,-48.99679887,0.75562572
5d64f820c94fbf0001addee8,28,0,2024-02-28T14:30:29.474Z,english_909.wav,0,peel,398,34,5,5,Français,m,2,0.2,0.10936675,1.15361909
5d64f820c94fbf0001addee8,28,0,2024-02-28T14:30:29.474Z,english_909.wav,0,peel,398,34,5,5,Français,m,3,0.3,-9.5972352,1.70848665
5d64f820c94fbf0001addee8,28,0,2024-02-28T14:30:29.474Z,english_909.wav,0,peel,398,34,5,5,Français,m,4,0.4,41.63700809,1.17263968
5d64f820c94fbf0001addee8,28,0,2024-02-28T14:30:29.474Z,english_909.wav,0,peel,398,34,5,5,Français,m,5,0.5,-54.98653808,1.91472761
5d64f820c94fbf0001addee8,28,0,2024-02-28T14:30:29.474Z,english_909.wav,0,peel,398,34,5,5,Français,m,6,0.6,-79.93461055,0.74389201
5d64f820c94fbf0001addee8,28,0,2024-02-28T14:30:29.474Z,english_909.wav,0,peel,398,34,5,5,Français,m,7,0.7,-18.97053935,0.87039019
5d64f820c94fbf0001addee8,28,0,2024-02-28T14:30:29.474Z,english_909.wav,0,peel,398,34,5,5,Français,m,8,0.8,-79.95487678,0.69566776
5d64f820c94fbf0001addee8,28,0,2024-02-28T14:30:29.474Z,english_909.wav,0,peel,398,34,5,5,Français,m,9,0.9,48.57972969,0.96721203
5d64f820c94fbf0001addee8,28,0,2024-02-28T14:30:29.474Z,english_909.wav,0,peel,398,34,5,5,Français,m,10,1.0,81.75147214,1.53411622
5d64f820c94fbf0001addee8,28,0,2024-02-28T14:30:29.474Z,english_909.wav,0,peel,398,34,5,5,Français,m,11,1.09391667,-81.8755088,1.74360808
5d64f820c94fbf0001addee8,29,0,2024-02-28T14:30:29.474Z,english_668.wav,0,peel,248,34,5,5,Français,m,0,0.0,24.30500843,1.5693483
5d64f820c94fbf0001addee8,29,0,2024-02-28T14:30:29.474Z,english_668.wav,0,peel,248,34,5,5,Français,m,1,0.1,57.57377678,1.68368473
5d64f820c94fbf0001addee8,29,0,2024-02-28T14:30:29.474Z,english_668.wav,0,peel,248,34,5,5,Français,m,2,0.2,-95.42785245,0.73781789
5d64f820c94fbf0001addee8,29,0,2024-02-28T14:30:29.474Z,english_668.wav,0,peel,248,34,5,5,Français,m,3,0.3,-42.97336145,0.35418693
5d64f820c94fbf0001addee8,29,0,2024-02-28T14:30:29.474Z,english_668.wav,0,peel,248,34,5,5,Français,m,4,0.4,-27.66393175,0.0078487
5d64f820c94fbf0001addee8,29,0,2024-02-28T14:30:29.474Z,english_668.wav,0,peel,248,34,5,5,Français,m,5,0.5,77.20765179,1.54548252
5d64f820c94fbf0001addee8,29,0,2024-02-28T14:30:29.474Z,english_668.wav,0,peel,248,34,5,5,Français,m,6,0.6,83.13326456,1.19620748
5d64f820c94fbf0001addee8,29,0,2024-02-28T14:30:29.474Z,english_668.wav,0,peel,248,34,5,5,Français,m,7,0.7,-32.13348901,1.89254879
5d64f820c94fbf0001addee8,29,0,2024-02-28T14:30:29.474Z,english_668.wav,0,peel,248,34,5,5,Français,m,8,0.8,68.31202494,0.72669061
5d64f820c94fbf0001addee8,29,0,2024-02-28T14:30:29.474Z,english_668.wav,0,peel,248,34,5,5,Français,m,9,0.9,19.90764766,1.22099256
5d64f820c94fbf0001addee8,29,0,2024-02-28T14:30:29.474Z,english_668.wav,0,peel,248,34,5,5,Français,m,10,1.0,67.85742397,1.73789428
5d64f820c94fbf0001addee8,29,0,2024-02-28T14:30:29.474Z,english_668.wav,0,peel,248,34,5,5,Français,m,11,1.09391667,89.08528759,1.66641406
5d64f820c94fbf0001addee8,30,0,2024-02-28T14:30:29.474Z,english_651.wav,0,pill,574,34,5,5,Français,m,0,0.0,-91.34539462,1.93962683
5d64f820c94fbf0001addee8,30,0,2024-02-28T14:30:29.474Z,english_651.wav,0,pill,574,34,5,5,Français,m,1,0.1,-1.38504973,0.25281252
5d64f820c94fbf0001addee8,30,0,2024-02-28T14:30:29.474Z,english_651.wav,0,pill,574,34,5,5,Français,m,2,0.2,2.05125073,0.90917451
5d64f820c94fbf0001addee8,30,0,2024-02-28T14:30:29.474Z,english_651.wav,0,pill,574,34,5,5,Français,m,3,0.3,-5.20837211,0.6157456
5d64f820c94fbf0001addee8,30,0,2024-02-28T14:30:29.474Z,english_651.wav,0,pill,574,34,5,5,Français,m,4,0.4,30.89438942,0.48487698
5d64f820c94fbf0001addee8,30,0,2024-02-28T14:30:29.474Z,english_651.wav,0,pill,574,34,5,5,Français,m,5,0.5,-28.36589971,1.14423933
5d64f820c94fbf0001addee8,30,0,2024-02-28T14:30:29.474Z,english_651.wav,0,pill,574,34,5,5,Français,m,6,0.6,-42.97374851,0.91557091
5d64f820c94fbf0001addee8,30,0,2024-02-28T14:30:29.474Z,english_651.wav,0,pill,574,34,5,5,Français,m,7,0.7,-56.55365324,1.50856564
5d64f820c94fbf0001addee8,30,0,2024-02-28T14:30:29.474Z,english_651.wav,0,pill,574,34,5,5,Français,m,8,0.8,3.73861638,0.47177544
5d64f820c94fbf0001addee8,30,0,2024-02-28T14:30:29.474Z,english_651.wav,0,pill,574,34,5,5,Français,m,9,0.9,-2.43332653,0.09479279
5d64f820c94fbf0001addee8,30,0,2024-02-28T14:30:29.474Z,english_651.wav,0,pill,574,34,5,5,Français,m,10,1.0,-73.16332477,0.24018528
5d64f820c94fbf0001addee8,30,0,2024-02-28T14:30:29.474Z,english_651.wav,0,pill,574,34,5,5,Français,m,11,1.09391667,61.30377091,0.24667973
5d64f820c94fbf0001addee8,31,0,2024-02-28T14:30:29.474Z,english_803.wav,0,peel,350,34,5,5,Français,m,0,0.0,-87.73830572,0.85344372
5d64f820c94fbf0001addee8,31,0,2024-02-28T14:30:29.474Z,english_803.wav,0,peel,350,34,5,5,Français,m,1,0.1,-15.08646711,1.55927117
5d64f820c94fbf0001addee8,31,0,2024-02-28T14:30:29.474Z,english_803.wav,0,peel,350,34,5,5,Français,m,2,0.2,-93.06982521,1.70131734
5d64f820c94fbf0001addee8,31,0,2024-02-28T14:30:29.474Z,english_803.wav,0,peel,350,34,5,5,Français,m,3,0.3,-69.48431994,0.94684337
5d64f820c94fbf0001addee8,31,0,2024-02-28T14:30:29.474Z,english_803.wav,0,peel,350,34,5,5,Français,m,4,0.4,66.11466902,1.98181189
5d64f820c94fbf0001addee8,31,0,2024-02-28T14:30:29.474Z,english_803.wav,0,peel,350,34,5,5,Français,m,5,0.5,9.32273235,0.71685289
5d64f820c94fbf0001addee8,31,0,2024-02-28T14:30:29.474Z,english_803.wav,0,peel,350,34,5,5,Français,m,6,0.6,66.48896901,0.68582038
5d64f820c94fbf0001addee8,31,0,2024-02-28T14:30:29.474Z,english_803.wav,0,peel,350,34,5,5,Français,m,7,0.7,-66.59180882,0.52787947
5d64f820c94fbf0001addee8,31,0,2024-02-28T14:30:29.474Z,english_803.wav,0,peel,350,34,5,5,Français,m,8,0.8,43.6326205,1.2789965
5d64f820c94fbf0001addee8,31,0,2024-02-28T14:30:29.474Z,english_803.wav,0,peel,350,34,5,5,Français,m,9,0.9,-52.46264607,1.18929342
5d64f820c94fbf0001addee8,31,0,2024-02-28T14:30:29.474Z,english_803.wav,0,peel,350,34,5,5,Français,m,10,1.0,47.80537721,1.0745206
5d64f820c94fbf0001addee8,31,0,2024-02-28T14:30:29.474Z,english_803.wav,0,peel,350,34,5,5,Français,m,11,1.09391667,7.91826016,1.28256899
5d64f820c94fbf0001addee8,32,0,2024-02-28T14:30:29.474Z,english_63.wav,0,peel,928,34,5,5,Français,m,0,0.0,48.80645604,0.56207448
5d64f820c94fbf0001addee8,32,0,2024-02-28T14:30:29.474Z,english_63.wav,0,peel,928,34,5,5,Français,m,1,0.1,3.74871088,0.93485315
5d64f820c94fbf0001addee8,32,0,2024-02-28T14:30:29.474Z,english_63.wav,0,peel,928,34,5,5,Français,m,2,0.2,36.66338235,1.21075073
5d64f820c94fbf0001addee8,32,0,2024-02-28T14:30:29.474Z,english_63.wav,0,peel,928,34,5,5,Français,m,3,0.3,0.45158548,1.91331277
5d64f820c94fbf0001addee8,32,0,2024-02-28T14:30:29.474Z,english_63.wav,0,peel,928,34,5,5,Français,m,4,0.4,-34.50897998,0.52750999
5d64f820c94fbf0001addee8,32,0,2024-02-28T14:30:29.474Z,english_63.wav,0,peel,928,34,5,5,Français,m,5,0.5,21.44979621,1.42707635
5d64f820c94fbf0001addee8,32,0,2024-02-28T14:30:29.474Z,english_63.wav,0,peel,928,34,5,5,Français,m,6,0.6,-13.42489637,1.96742567
5d64f820c94fbf0001addee8,32,0,2024-02-28T14:30:29.474Z,english_63.wav,0,peel,928,34,5,5,Français,m,7,0.7,3.18187359,1.57355325
5d64f820c94fbf0001addee8,32,0,2024-02-28T14:30:29.474Z,english_63.wav,0,peel,928,34,5,5,Français,m,8,0.8,-14.80243304,0.94386171
5d64f820c94fbf0001addee8,32,0,2024-02-28T14:30:29.474Z,english_63.wav,0,peel,928,34,5,5,Français,m,9,0.9,76.25105629,0.6095205
5d64f820c94fbf0001addee8,32,0,2024-02-28T14:30:29.474Z,english_63.wav,0,peel,928,34,5,5,Français,m,10,1.0,-29.02472721,0.97846037
5d64f820c94fbf0001addee8,32,0,2024-02-28T14:30:29.474Z,english_63.wav,0,peel,928,34,5,5,Français,m,11,1.09391667,-75.42163707,1.94412545
5d64f820c94fbf0001addee8,33,0,2024-02-28T14:30:29.474Z,english_339.wav,0,pill,1454,34,5,5,Français,m,0,0.0,60.63219511,0.54338949
5d64f820c94fbf0001addee8,33,0,2024-02-28T14:30:29.474Z,english_339.wav,0,pill,1454,34,5,5,Français,m,1,0.1,-12.18568345,0.21495144
5d64f820c94fbf0001addee8,33,0,2024-02-28T14:30:29.474Z,english_339.wav,0,pill,1454,34,5,5,Français,m,2,0.2,23.58983997,0.44775719
5d64f820c94fbf0001addee8,33,0,2024-02-28T14:30:29.474Z,english_339.wav,0,pill,1454,34,5,5,Français,m,3,0.3,-59.19633042,1.56952392
5d64f820c94fbf0001addee8,33,0,2024-02-28T14:30:29.474Z,english_339.wav,0,pill,1454,34,5,5,Français,m,4,0.4,-43.20945626,0.76217709
5d64f820c94fbf0001addee8,33,0,2024-02-28T14:30:29.474Z,english_339.wav,0,pill,1454,34,5,5,Français,m,5,0.5,-32.55639825,1.99954478
5d64f820c94fbf0001addee8,33,0,2024-02-28T14:30:29.474Z,english_339.wav,0,pill,1454,34,5,5,Français,m,6,0.6,-3.49407884,0.09545273
5d64f820c94fbf0001addee8,33,0,2024-02-28T14:30:29.474Z,english_339.wav,0,pill,1454,34,5,5,Français,m,7,0.7,91.66463762,1.65140919
5d64f820c94fbf0001addee8,33,0,2024-02-28T14:30:29.474Z,english_339.wav,0,pill,1454,34,5,5,Français,m,8,0.8,-80.14131412,1.37862303
5d64f820c94fbf0001addee8,33,0,2024-02-28T14:30:29.474Z,english_339.wav,0,pill,1454,34,5,5,Français,m,9,0.9,86.26968254,1.5118574
5d64f820c94fbf0001addee8,33,0,2024-02-28T14:30:29.474Z,english_339.wav,0,pill,1454,34,5,5,Français,m,10,1.0,-20.69851377,0.21342111
5d64f820c94fbf0001addee8,33,0,2024-02-28T14:30:29.474Z,english_339.wav,0,pill,1454,34,5,5,Français,m,11,1.09391667,-11.06601383,1.19470184
5d64f820c94fbf0001addee8,34,0,2024-02-28T14:30:29.474Z,english_353.wav,0,peel,456,34,5,5,Français,m,0,0.0,-70.67724429,1.06843483
5d64f820c94fbf0001addee8,34,0,2024-02-28T14:30:29.474Z,english_353.wav,0,peel,456,34,5,5,Français,m,1,0.1,-71.688049,0.77169117
5d64f820c94fbf0001addee8,34,0,2024-02-28T14:30:29.474Z,english_353.wav,0,peel,456,34,5,5,Français,m,2,0.2,35.51924952,1.46248358
5d64f820c94fbf0001addee8,34,0,2024-02-28T14:30:29.474Z,english_353.wav,0,peel,456,34,5,5,Français,m,3,0.3,-2.11218413,1.49078151
5d64f820c94fbf0001addee8,34,0,2024-02-28T14:30:29.474Z,english_353.wav,0,peel,456,34,5,5,Français,m,4,0.4,-16.43862389,1.12150818
5d64f820c94fbf0001addee8,34,0,2024-02-28T14:30:29.474Z,english_353.wav,0,peel,456,34,5,5,Français,m,5,0.5,42.52341858,1.51009479
5d64f820c94fbf0001addee8,34,0,2024-02-28T14:30:29.474Z,english_353.wav,0,peel,456,34,5,5,Français,m,6,0.6,-45.01562353,1.56291015
5d64f820c94fbf0001addee8,34,0,2024-02-28T14:30:29.474Z,english_353.wav,0,peel,456,34,5,5,Français,m,7,0.7,41.4367476,1.91892948
5d64f820c94fbf0001addee8,34,0,2024-02-28T14:30:29.474Z,english_353.wav,0,peel,456,34,5,5,Français,m,8,0.8,-7.80846777,1.01197455
5d64f820c94fbf0001addee8,34,0,2024-02-28T14:30:29.474Z,english_353.wav,0,peel,456,34,5,5,Français,m,9,0.9,42.15448352,1.4134273
5d64f820c94fbf0001addee8,34,0,2024-02-28T14:30:29.474Z,english_353.wav,0,peel,456,34,5,5,Français,m,10,1.0,92.0591742,1.42236133
5d64f820c94fbf0001addee8,34,0,2024-02-28T14:30:29.474Z,english_353.wav,0,peel,456,34,5,5,Français,m,11,1.09391667,-12.12221809,0.78816947
5d64f820c94fbf0001addee8,35,0,2024-02-28T14:30:29.474Z,english_349.wav,0,peel,280,34,5,5,Français,m,0,0.0,78.21791369,0.37053366
5d64f820c94fbf0001addee8,35,0,2024-02-28T14:30:29.474Z,english_349.wav,0,peel,280,34,5,5,Français,m,1,0.1,9.4630269,0.06190409
5d64f820c94fbf0001addee8,35,0,2024-02-28T14:30:29.474Z,english_349.wav,0,peel,280,34,5,5,Français,m,2,0.2,-3.29994587,0.20284396
5d64f820c94fbf0001addee8,35,0,2024-02-28T14:30:29.474Z,english_349.wav,0,peel,280,34,5,5,Français,m,3,0.3,13.5324371,0.23510746
5d64f820c94fbf0001addee8,35,0,2024-02-28T14:30:29.474Z,english_349.wav,0,peel,280,34,5,5,Français,m,4,0.4,88.19527441,1.05287262
5d64f820c94fbf0001addee8,35,0,2024-02-28T14:30:29.474Z,english_349.wav,0,peel,280,34,5,5,Français,m,5,0.5,1.7504357,1.51424362
5d64f820c94fbf0001addee8,35,0,2024-02-28T14:30:29.474Z,english_349.wav,0,peel,280,34,5,5,Français,m,6,0.6,-42.50120826,0.74446718
5d64f820c94fbf0001addee8,35,0,2024-02-28T14:30:29.474Z,english_349.wav,0,peel,280,34,5,5,Français,m,7,0.7,-43.9320192,1.35303028
5d64f820c94fbf0001addee8,35,0,2024-02-28T14:30:29.474Z,english_349.wav,0,peel,280,34,5,5,Français,m,8,0.8,-72.26393539,1.8690989
5d64f820c94fbf0001addee8,35,0,2024-02-28T14:30:29.474Z,english_349.wav,0,peel,280,34,5,5,Français,m,9,0.9,-37.61612777,1.42604643
5d64f820c94fbf0001addee8,35,0,2024-02-28T14:30:29.474Z,english_349.wav,0,peel,280,34,5,5,Français,m,10,1.0,9.822435,1.6879771
5d64f820c94fbf0001addee8,35,0,2024-02-28T14:30:29.474Z,english_349.wav,0,peel,280,34,5,5,Français,m,11,1.09391667,-46.39218801,0.80624402
5d64f820c94fbf0001addee8,36,0,2024-02-28T14:30:29.474Z,english_33.wav,0,peel,266,34,5,5,Français,m,0,0.0,-39.58082457,0.53160826
5d64f820c94fbf0001addee8,36,0,2024-02-28T14:30:29.474Z,english_33.wav,0,peel,266,34,5,5,Français,m,1,0.1,30.52342894,0.02130102
5d64f820c94fbf0001addee8,36,0,2024-02-28T14:30:29.474Z,english_33.wav,0,peel,266,34,5,5,Français,m,2,0.2,23.47265499,1.79968549
5d64f820c94fbf0001addee8,36,0,2024-02-28T14:30:29.474Z,english_33.wav,0,peel,266,34,5,5,Français,m,3,0.3,35.06724548,1.77904441
5d64f820c94fbf0001addee8,36,0,2024-02-28T14:30:29.474Z,english_33.wav,0,peel,266,34,5,5,Français,m,4,0.4,68.41384456,0.50678762
5d64f820c94fbf0001addee8,36,0,2024-02-28T14:30:29.474Z,english_33.wav,0,peel,266,34,5,5,Français,m,5,0.5,91.35527089,1.72631603
5d64f820c94fbf0001addee8,36,0,2024-02-28T14:30:29.474Z,english_33.wav,0,peel,266,34,5,5,Français,m,6,0.6,45.24436298,0.90579128
5d64f820c94fbf0001addee8,36,0,2024-02-28T14:30:29.474Z,english_33.wav,0,peel,266,34,5,5,Français,m,7,0.7,-95.9941639,1.42335886
5d64f820c94fbf0001addee8,36,0,2024-02-28T14:30:29.474Z,english_33.wav,0,peel,266,34,5,5,Français,m,8,0.8,52.18884155,1.10708789
5d64f820c94fbf0001addee8,36,0,2024-02-28T14:30:29.474Z,english_33.wav,0,peel,266,34,5,5,Français,m,9,0.9,-59.5821221,1.04407415
5d64f820c94fbf0001addee8,36,0,2024-02-28T14:30:29.474Z,english_33.wav,0,peel,266,34,5,5,Français,m,10,1.0,-35.64274737,1.58844638
5d64f820c94fbf0001addee8,36,0,2024-02-28T14:30:29.474Z,english_33.wav,0,peel,266,34,5,5,Français,m,11,1.09391667,-73.32122587,0.94640907
5d64f820c94fbf0001addee8,37,0,2024-02-28T14:30:29.474Z,english_12.wav,0,peel,400,34,5,5,Français,m,0,0.0,42.97445599,0.55669558
5d64f820c94fbf0001addee8,37,0,2024-02-28T14:30:29.474Z,english_12.wav,0,peel,400,34,5,5,Français,m,1,0.1,-13.36169143,0.58156084
5d64f820c94fbf0001addee8,37,0,2024-02-28T14:30:29.474Z,english_12.wav,0,peel,400,34,5,5,Français,m,2,0.2,95.55347712,1.49895361
5d64f820c94fbf0001addee8,37,0,2024-02-28T14:30:29.474Z,english_12.wav,0,peel,400,34,5,5,Français,m,3,0.3,25.38194066,1.21133401
5d64f820c94fbf0001addee8,37,0,2024-02-28T14:30:29.474Z,english_12.wav,0,peel,400,34,5,5,Français,m,4,0.4,7.99263567,1.29255802
5d64f820c94fbf0001addee8,37,0,2024-02-28T14:30:29.474Z,english_12.wav,0,peel,400,34,5,5,Français,m,5,0.5,-99.22256454,0.60717751
5d64f820c94fbf0001addee8,37,0,2024-02-28T14:30:29.474Z,english_12.wav,0,peel,400,34,5,5,Français,m,6,0.6,-40.78265899,1.53494704
5d64f820c94fbf0001addee8,37,0,2024-02-28T14:30:29.474Z,english_12.wav,0,peel,400,34,5,5,Français,m,7,0.7,6.53756305,0.96428077
5d64f820c94fbf0001addee8,37,0,2024-02-28T14:30:29.474Z,english_12.wav,0,peel,400,34,5,5,Français,m,8,0.8,-20.69460066,0.42904798
5d64f820c94fbf0001addee8,37,0,2024-02-28T14:30:29.474Z,english_12.wav,0,peel,400,34,5,5,Français,m,9,0.9,-61.55291704,1.90575432
5d64f820c94fbf0001addee8,37,0,2024-02-28T14:30:29.474Z,english_12.wav,0,peel,400,34,5,5,Français,m,10,1.0,-41.80363085,0.98826975
5d64f820c94fbf0001addee8,37,0,2024-02-28T14:30:29.474Z,english_12.wav,0,peel,400,34,5,5,Français,m,11,1.09391667,-15.66743162,0.15634055
5d64f820c94fbf0001addee8,38,0,2024-02-28T14:30:29.474Z,english_127.wav,0,peel,250,34,5,5,Français,m,0,0.0,-97.90087244,0.58111051
5d64f820c94fbf0001addee8,38,0,2024-02-28T14:30:29.474Z,english_127.wav,0,peel,250,34,5,5,Français,m,1,0.1,-36.95796642,1.98466344
5d64f820c94fbf0001addee8,38,0,2024-02-28T14:30:29.474Z,english_127.wav,0,peel,250,34,5,5,Français,m,2,0.2,33.65056974,0.66246338
5d64f820c94fbf0001addee8,38,0,2024-02-28T14:30:29.474Z,english_127.wav,0,peel,250,34,5,5,Français,m,3,0.3,-19.85406453,0.15661461
5d64f820c94fbf0001addee8,38,0,2024-02-28T14:30:29.474Z,english_127.wav,0,peel,250,34,5,5,Français,m,4,0.4,-42.6348027,1.74661521
5d64f820c94fbf0001addee8,38,0,2024-02-28T14:30:29.474Z,english_127.wav,0,peel,250,34,5,5,Français,m,5,0.5,-56.79071689,1.58365522
5d64f820c94fbf0001addee8,38,0,2024-02-28T14:30:29.474Z,english_127.wav,0,peel,250,34,5,5,Français,m,6,0.6,-5.36842737,0.14537305
5d64f820c94fbf0001addee8,38,0,2024-02-28T14:30:29.474Z,english_127.wav,0,peel,250,34,5,5,Français,m,7,0.7,-65.17730662,1.46904529
5d64f820c94fbf0001addee8,38,0,2024-02-28T14:30:29.474Z,english_127.wav,0,peel,250,34,5,5,Français,m,8,0.8,55.11157095,1.23944377
5d64f820c94fbf0001addee8,38,0,2024-02-28T14:30:29.474Z,english_127.wav,0,peel,250,34,5,5,Français,m,9,0.9,-6.91901103,1.93001672
5d64f820c94fbf0001addee8,38,0,2024-02-28T14:30:29.474Z,english_127.wav,0,peel,250,34,5,5,Français,m,10,1.0,32.26051644,0.93435528
5d64f820c94fbf0001addee8,38,0,2024-02-28T14:30:29.474Z,english_127.wav,0,peel,250,34,5,5,Français,m,11,1.09391667,51.54181068,1.6531459
5d64f820c94fbf0001addee8,39,0,2024-02-28T14:30:29.474Z,english_467.wav,0,pill,800,34,5,5,Français,m,0,0.0,84.73520447,0.80775308
5d64f820c94fbf0001addee8,39,0,2024-02-28T14:30:29.474Z,english_467.wav,0,pill,800,34,5,5,Français,m,1,0.1,88.96200227,0.60891261
5d64f820c94fbf0001addee8,39,0,2024-02-28T14:30:29.474Z,english_467.wav,0,pill,800,34,5,5,Français,m,2,0.2,72.63675829,1.71596765
5d64f820c94fbf0001addee8,39,0,2024-02-28T14:30:29.474Z,english_467.wav,0,pill,800,34,5,5,Français,m,3,0.3,-11.47164633,0.15084523
5d64f820c94fbf0001addee8,39,0,2024-02-28T14:30:29.474Z,english_467.wav,0,pill,800,34,5,5,Français,m,4,0.4,-15.99279105,1.25287304
5d64f820c94fbf0001addee8,39,0,2024-02-28T14:30:29.474Z,english_467.wav,0,pill,800,34,5,5,Français,m,5,0.5,-43.82437563,1.40086837
5d64f820c94fbf0001addee8,39,0,2024-02-28T14:30:29.474Z,english_467.wav,0,pill,800,34,5,5,Français,m,6,0.6,43.03099958,0.418933
5d64f820c94fbf0001addee8,39,0,2024-02-28T14:30:29.474Z,english_467.wav,0,pill,800,34,5,5,Français,m,7,0.7,-45.22330674,1.80339492
5d64f820c94fbf0001addee8,39,0,2024-02-28T14:30:29.474Z,english_467.wav,0,pill,800,34,5,5,Français,m,8,0.8,76.52363546,0.77008525
5d64f820c94fbf0001addee8,39,0,2024-02-28T14:30:29.474Z,english_467.wav,0,pill,800,34,5,5,Français,m,9,0.9,-64.57143565,1.13088524
5d64f820c94fbf0001addee8,39,0,2024-02-28T14:30:29.474Z,english_467.wav,0,pill,800,34,5,5,Français,m,10,1.0,-23.20829111,0.17124527
5d64f820c94fbf0001addee8,39,0,2024-02-28T14:30:29.474Z,english_467.wav,0,pill,800,34,5,5,Français,m,11,1.09391667,90.56201043,1.41524886
5d64f820c94fbf0001addee8,40,0,2024-02-28T14:30:29.474Z,english_471.wav,0,peel,289,34,5,5,Français,m,0,0.0,-44.33438949,1.24178701
5d64f820c94fbf0001addee8,40,0,2024-02-28T14:30:29.474Z,english_471.wav,0,peel,289,34,5,5,Français,m,1,0.1,16.47774329,1.49559335
5d64f820c94fbf0001addee8,40,0,2024-02-28T14:30:29.474Z,english_471.wav,0,peel,289,34,5,5,Français,m,2,0.2,-22.18014429,1.46207388
5d64f820c94fbf0001addee8,40,0,2024-02-28T14:30:29.474Z,english_471.wav,0,peel,289,34,5,5,Français,m,3,0.3,96.62980594,0.79768684
5d64f820c94fbf0001addee8,40,0,2024-02-28T14:30:29.474Z,english_471.wav,0,peel,289,34,5,5,Français,m,4,0.4,0.22905681,0.93952191
5d64f820c94fbf0001addee8,40,0,2024-02-28T14:30:29.474Z,english_471.wav,0,peel,289,34,5,5,Français,m,5,0.5,25.29876176,1.31580264
5d64f820c94fbf0001addee8,40,0,2024-02-28T14:30:29.474Z,english_471.wav,0,peel,289,34,5,5,Français,m,6,0.6,-1.90422532,0.66385174
5d64f820c94fbf0001addee8,40,0,2024-02-28T14:30:29.474Z,english_471.wav,0,peel,289,34,5,5,Français,m,7,0.7,20.77355212,0.36428101
5d64f820c94fbf0001addee8,40,0,2024-02-28T14:30:29.474Z,english_471.wav,0,peel,289,34,5,5,Français,m,8,0.8,26.61706742,1.49472861
5d64f820c94fbf0001addee8,40,0,2024-02-28T14:30:29.474Z,english_471.wav,0,peel,289,34,5,5,Français,m,9,0.9,-76.46197336,1.78460372
5d64f820c94fbf0001addee8,40,0,2024-02-28T14:30:29.474Z,english_471.wav,0,peel,289,34,5,5,Français,m,10,1.0,74.78681403,1.14119983
5d64f820c94fbf0001addee8,40,0,2024-02-28T14:30:29.474Z,english_471.wav,0,peel,289,34,5,5,Français,m,11,1.09391667,70.35269737,0.45644683
5d64f820c94fbf0001addee8,41,0,2024-02-28T14:30:29.474Z,english_365.wav,0,peel,636,34,5,5,Français,m,0,0.0,-13.81078305,1.74540369
5d64f820c94fbf0001addee8,41,0,2024-02-28T14:30:29.474Z,english_365.wav,0,peel,636,34,5,5,Français,m,1,0.1,10.90636048,0.64746191
5d64f820c94fbf0001addee8,41,0,2024-02-28T14:30:29.474Z,english_365.wav,0,peel,636,34,5,5,Français,m,2,0.2,71.51010514,0.6414627
5d64f820c94fbf0001addee8,41,0,2024-02-28T14:30:29.474Z,english_365.wav,0,peel,636,34,5,5,Français,m,3,0.3,42.52309231,0.02436054
5d64f820c94fbf0001addee8,41,0,2024-02-28T14:30:29.474Z,english_365.wav,0,peel,636,34,5,5,Français,m,4,0.4,61.30753847,0.53231596
5d64f820c94fbf0001addee8,41,0,2024-02-28T14:30:29.474Z,english_365.wav,0,peel,636,34,5,5,Français,m,5,0.5,-34.48448602,1.68146763
5d64f820c94fbf0001addee8,41,0,2024-02-28T14:30:29.474Z,english_365.wav,0,peel,636,34,5,5,Français,m,6,0.6,35.84346113,1.59056588
5d64f820c94fbf0001addee8,41,0,2024-02-28T14:30:29.474Z,english_365.wav,0,peel,636,34,5,5,Français,m,7,0.7,-56.39981073,1.84748389
5d64f820c94fbf0001addee8,41,0,2024-02-28T14:30:29.474Z,english_365.wav,0,peel,636,34,5,5,Français,m,8,0.8,-86.58866218,1.51888636
5d64f820c94fbf0001addee8,41,0,2024-02-28T14:30:29.474Z,english_365.wav,0,peel,636,34,5,5,Français,m,9,0.9,-51.1308372,0.50507437
5d64f820c94fbf0001addee8,41,0,2024-02-28T14:30:29.474Z,english_365.wav,0,peel,636,34,5,5,Français,m,10,1.0,-44.59979753,1.32144417
5d64f820c94fbf0001addee8,41,0,2024-02-28T14:30:29.474Z,english_365.wav,0,peel,636,34,5,5,Français,m,11,1.09391667,99.72573964,1.70632081
5d64f820c94fbf0001addee8,42,0,2024-02-28T14:30:29.474Z,english_266.wav,0,peel,340,34,5,5,Français,m,0,0.0,85.08589672,0.35806768
5d64f820c94fbf0001addee8,42,0,2024-02-28T14:30:29.474Z,english_266.wav,0,peel,340,34,5,5,Français,m,1,0.1,-31.38715876,1.30312729
5d64f820c94fbf0001addee8,42,0,2024-02-28T14:30:29.474Z,english_266.wav,0,peel,340,34,5,5,Français,m,2,0.2,12.76761621,0.13135106
5d64f820c94fbf0001addee8,42,0,2024-02-28T14:30:29.474Z,english_266.wav,0,peel,340,34,5,5,Français,m,3,0.3,-84.09112809,1.10001243
5d64f820c94fbf0001addee8,42,0,2024-02-28T14:30:29.474Z,english_266.wav,0,peel,340,34,5,5,Français,m,4,0.4,-35.65738205,0.09400181
5d64f820c94fbf0001addee8,42,0,2024-02-28T14:30:29.474Z,english_266.wav,0,peel,340,34,5,5,Français,m,5,0.5,-1.3575127,1.62804367
5d64f820c94fbf0001addee8,42,0,2024-02-28T14:30:29.474Z,english_266.wav,0,peel,340,34,5,5,Français,m,6,0.6,28.50579554,0.86420495
5d64f820c94fbf0001addee8,42,0,2024-02-28T14:30:29.474Z,english_266.wav,0,peel,340,34,5,5,Français,m,7,0.7,-64.0196403,0.86051542
5d64f820c94fbf0001addee8,42,0,2024-02-28T14:30:29.474Z,english_266.wav,0,peel,340,34,5,5,Français,m,8,0.8,-12.66471897,1.59602975
5d64f820c94fbf0001addee8,42,0,2024-02-28T14:30:29.474Z,english_266.wav,0,peel,340,34,5,5,Français,m,9,0.9,33.09789324,1.84870637
5d64f820c94fbf0001addee8,42,0,2024-02-28T14:30:29.474Z,english_266.wav,0,peel,340,34,5,5,Français,m,10,1.0,96.55876506,1.74532524
5d64f820c94fbf0001addee8,42,0,2024-02-28T14:30:29.474Z,english_266.wav,0,peel,340,34,5,5,Français,m,11,1.09391667,86.66414538,1.19425471
5d64f820c94fbf0001addee8,43,0,2024-02-28T14:30:29.474Z,english_174.wav,0,pill,366,34,5,5,Français,m,0,0.0,-1.27352161,1.81219165
5d64f820c94fbf0001addee8,43,0,2024-02-28T14:30:29.474Z,english_174.wav,0,pill,366,34,5,5,Français,m,1,0.1,-67.76486912,0.77028854
5d64f820c94fbf0001addee8,43,0,2024-02-28T14:30:29.474Z,english_174.wav,0,pill,366,34,5,5,Français,m,2,0.2,38.59821356,0.44136445
5d64f820c94fbf0001addee8,43,0,2024-02-28T14:30:29.474Z,english_174.wav,0,pill,366,34,5,5,Français,m,3,0.3,-68.30936474,1.01129338
5d64f820c94fbf0001addee8,43,0,2024-02-28T14:30:29.474Z,english_174.wav,0,pill,366,34,5,5,Français,m,4,0.4,-90.24428589,0.76518489
5d64f820c94fbf0001addee8,43,0,2024-02-28T14:30:29.474Z,english_174.wav,0,pill,366,34,5,5,Français,m,5,0.5,-78.84758788,1.51905633
5d64f820c94fbf0001addee8,43,0,2024-02-28T14:30:29.474Z,english_174.wav,0,pill,366,34,5,5,Français,m,6,0.6,82.67516556,0.9260744
5d64f820c94fbf0001addee8,43,0,2024-02-28T14:30:29.474Z,english_174.wav,0,pill,366,34,5,5,Français,m,7,0.7,27.65744762,1.48661059
5d64f820c94fbf0001addee8,43,0,2024-02-28T14:30:29.474Z,english_174.wav,0,pill,366,34,5,5,Français,m,8,0.8,82.5621195,0.13101211
5d64f820c94fbf0001addee8,43,0,2024-02-28T14:30:29.474Z,english_174.wav,0,pill,366,34,5,5,Français,m,9,0.9,22.03109017,0.66605082
5d64f820c94fbf0001addee8,43,0,2024-02-28T14:30:29.474Z,english_174.wav,0,pill,366,34,5,5,Français,m,10,1.0,97.22651297,0.90549752
5d64f820c94fbf0001addee8,43,0,2024-02-28T14:30:29.474Z,english_174.wav,0,pill,366,34,5,5,Français,m,11,1.09391667,6.30116613,1.52579229
5d64f820c94fbf0001addee8,44,0,2024-02-28T14:30:29.474Z,english_676.wav,0,pill,645,34,5,5,Français,m,0,0.0,77.23951032,1.33259474
5d64f820c94fbf0001addee8,44,0,2024-02-28T14:30:29.474Z,english_676.wav,0,pill,645,34,5,5,Français,m,1,0.1,27.47427545,0.90028372
5d64f820c94fbf0001addee8,44,0,2024-02-28T14:30:29.474Z,english_676.wav,0,pill,645,34,5,5,Français,m,2,0.2,92.07370265,1.66717955
5d64f820c94fbf0001addee8,44,0,2024-02-28T14:30:29.474Z,english_676.wav,0,pill,645,34,5,5,Français,m,3,0.3,-39.62602007,0.42158585
5d64f820c94fbf0001addee8,44,0,2024-02-28T14:30:29.474Z,english_676.wav,0,pill,645,34,5,5,Français,m,4,0.4,-81.22107243,1.7878255
5d64f820c94fbf0001addee8,44,0,2024-02-28T14:30:29.474Z,english_676.wav,0,pill,645,34,5,5,Français,m,5,0.5,-99.04707649,1.33780608
5d64f820c94fbf0001addee8,44,0,2024-02-28T14:30:29.474Z,english_676.wav,0,pill,645,34,5,5,Français,m,6,0.6,-64.5180536,0.94548991
5d64f820c94fbf0001addee8,44,0,2024-02-28T14:30:29.474Z,english_676.wav,0,pill,645,34,5,5,Français,m,7,0.7,91.29392748,1.43207041
5d64f820c94fbf0001addee8,44,0,2024-02-28T14:30:29.474Z,english_676.wav,0,pill,645,34,5,5,Français,m,8,0.8,97.8635705,1.03085722
5d64f820c94fbf0001addee8,44,0,2024-02-28T14:30:29.474Z,english_676.wav,0,pill,645,34,5,5,Français,m,9,0.9,-84.2423741,0.34895699
5d64f820c94fbf0001addee8,44,0,2024-02-28T14:30:29.474Z,english_676.wav,0,pill,645,34,5,5,Français,m,10,1.0,-76.68596269,0.83720355
5d64f820c94fbf0001addee8,44,0,2024-02-28T14:30:29.474Z,english_676.wav,0,pill,645,34,5,5,Français,m,11,1.09391667,65.10857552,1.31764415
5d64f820c94fbf0001addee8,45,0,2024-02-28T14:30:29.474Z,english_586.wav,0,pill,1966,34,5,5,Français,m,0,0.0,19.9692207,1.34383916
5d64f820c94fbf0001addee8,45,0,2024-02-28T14:30:29.474Z,english_586.wav,0,pill,1966,34,5,5,Français,m,1,0.1,22.22606315,0.0196847498
5d64f820c94fbf0001addee8,45,0,2024-02-28T14:30:29.474Z,english_586.wav,0,pill,1966,34,5,5,Français,m,2,0.2,44.76083147,1.32604329
5d64f820c94fbf0001addee8,45,0,2024-02-28T14:30:29.474Z,english_586.wav,0,pill,1966,34,5,5,Français,m,3,0.3,30.56518658,0.457164903
5d64f820c94fbf0001addee8,45,0,2024-02-28T14:30:29.474Z,english_586.wav,0,pill,1966,34,5,5,Français,m,4,0.4,70.50807044,0.862218031
5d64f820c94fbf0001addee8,45,0,2024-02-28T14:30:29.474Z,english_586.wav,0,pill,1966,34,5,5,Français,m,5,0.5,-99.40073456,1.19900353
5d64f820c94fbf0001addee8,45,0,2024-02-28T14:30:29.474Z,english_586.wav,0,pill,1966,34,5,5,Français,m,6,0.6,-34.76596453,1.85917609
5d64f820c94fbf0001addee8,45,0,2024-02-28T14:30:29.474Z,english_586.wav,0,pill,1966,34,5,5,Français,m,7,0.7,-7.2574162,0.599282433
5d64f820c94fbf0001addee8,45,0,2024-02-28T14:30:29.474Z,english_586.wav,0,pill,1966,34,5,5,Français,m,8,0.8,-34.51491792,0.420457526
5d64f820c94fbf0001addee8,45,0,2024-02-28T14:30:29.474Z,english_586.wav,0,pill,1966,34,5,5,Français,m,9,0.9,40.55984504,1.44903206
5d64f820c94fbf0001addee8,45,0,2024-02-28T14:30:29.474Z,english_586.wav,0,pill,1966,34,5,5,Français,m,10,1.0,43.92860722,0.00056977348
5d64f820c94fbf0001addee8,45,0,2024-02-28T14:30:29.474Z,english_586.wav,0,pill,1966,34,5,5,Français,m,11,1.09391667,97.81958787,1.67148022
5d64f820c94fbf0001addee8,46,0,2024-02-28T14:30:29.474Z,english_560.wav,0,peel,1342,34,5,5,Français,m,0,0.0,-58.05020857,1.72720005
5d64f820c94fbf0001addee8,46,0,2024-02-28T14:30:29.474Z,english_560.wav,0,peel,1342,34,5,5,Français,m,1,0.1,0.75359215,0.87170151
5d64f820c94fbf0001addee8,46,0,2024-02-28T14:30:29.474Z,english_560.wav,0,peel,1342,34,5,5,Français,m,2,0.2,-63.0427696,1.11137899
5d64f820c94fbf0001addee8,46,0,2024-02-28T14:30:29.474Z,english_560.wav,0,peel,1342,34,5,5,Français,m,3,0.3,-80.65695741,1.61210877
5d64f820c94fbf0001addee8,46,0,2024-02-28T14:30:29.474Z,english_560.wav,0,peel,1342,34,5,5,Français,m,4,0.4,30.22073259,0.77402776
5d64f820c94fbf0001addee8,46,0,2024-02-28T14:30:29.474Z,english_560.wav,0,peel,1342,34,5,5,Français,m,5,0.5,78.65082856,1.41240522
5d64f820c94fbf0001addee8,46,0,2024-02-28T14:30:29.474Z,english_560.wav,0,peel,1342,34,5,5,Français,m,6,0.6,-21.87019315,1.5310865
5d64f820c94fbf0001addee8,46,0,2024-02-28T14:30:29.474Z,english_560.wav,0,peel,1342,34,5,5,Français,m,7,0.7,-81.08775569,0.91259008
5d64f820c94fbf0001addee8,46,0,2024-02-28T14:30:29.474Z,english_560.wav,0,peel,1342,34,5,5,Français,m,8,0.8,-85.95097006,0.61355253
5d64f820c94fbf0001addee8,46,0,2024-02-28T14:30:29.474Z,english_560.wav,0,peel,1342,34,5,5,Français,m,9,0.9,55.61706947,0.53974683
5d64f820c94fbf0001addee8,46,0,2024-02-28T14:30:29.474Z,english_560.wav,0,peel,1342,34,5,5,Français,m,10,1.0,78.8186599,1.30815579
5d64f820c94fbf0001addee8,46,0,2024-02-28T14:30:29.474Z,english_560.wav,0,peel,1342,34,5,5,Français,m,11,1.09391667,-38.99290187,1.62027104
5d64f820c94fbf0001addee8,47,0,2024-02-28T14:30:29.474Z,english_801.wav,0,pill,578,34,5,5,Français,m,0,0.0,-54.47653584,1.90910012
5d64f820c94fbf0001addee8,47,0,2024-02-28T14:30:29.474Z,english_801.wav,0,pill,578,34,5,5,Français,m,1,0.1,-41.28810238,0.95006917
5d64f820c94fbf0001addee8,47,0,2024-02-28T14:30:29.474Z,english_801.wav,0,pill,578,34,5,5,Français,m,2,0.2,91.65690287,0.84100017
5d64f820c94fbf0001addee8,47,0,2024-02-28T14:30:29.474Z,english_801.wav,0,pill,578,34,5,5,Français,m,3,0.3,-9.28605219,0.92695143
5d64f820c94fbf0001addee8,47,0,2024-02-28T14:30:29.474Z,english_801.wav,0,pill,578,34,5,5,Français,m,4,0.4,-68.3172527,0.80239333
5d64f820c94fbf0001addee8,47,0,2024-02-28T14:30:29.474Z,english_801.wav,0,pill,578,34,5,5,Français,m,5,0.5,-20.53863649,1.92743309
5d64f820c94fbf0001addee8,47,0,2024-02-28T14:30:29.474Z,english_801.wav,0,pill,578,34,5,5,Français,m,6,0.6,23.12715477,0.16796328
5d64f820c94fbf0001addee8,47,0,2024-02-28T14:30:29.474Z,english_801.wav,0,pill,578,34,5,5,Français,m,7,0.7,-28.99385244,0.5012895
5d64f820c94fbf0001addee8,47,0,2024-02-28T14:30:29.474Z,english_801.wav,0,pill,578,34,5,5,Français,m,8,0.8,-31.7840881,0.67203268
5d64f820c94fbf0001addee8,47,0,2024-02-28T14:30:29.474Z,english_801.wav,0,pill,578,34,5,5,Français,m,9,0.9,-50.00972714,0.25650815
5d64f820c94fbf0001addee8,47,0,2024-02-28T14:30:29.474Z,english_801.wav,0,pill,578,34,5,5,Français,m,10,1.0,-40.65380245,0.35020128
5d64f820c94fbf0001addee8,47,0,2024-02-28T14:30:29.474Z,english_801.wav,0,pill,578,34,5,5,Français,m,11,1.09391667,5.46992446,1.80995829
5d64f820c94fbf0001addee8,48,0,2024-02-28T14:30:29.474Z,english_48.wav,0,pill,447,34,5,5,Français,m,0,0.0,60.63460718,0.33804588
5d64f820c94fbf0001addee8,48,0,2024-02-28T14:30:29.474Z,english_48.wav,0,pill,447,34,5,5,Français,m,1,0.1,-63.25879977,1.53774441
5d64f820c94fbf0001addee8,48,0,2024-02-28T14:30:29.474Z,english_48.wav,0,pill,447,34,5,5,Français,m,2,0.2,72.16287223,0.96691945
5d64f820c94fbf0001addee8,48,0,2024-02-28T14:30:29.474Z,english_48.wav,0,pill,447,34,5,5,Français,m,3,0.3,56.56802271,1.67994136
5d64f820c94fbf0001addee8,48,0,2024-02-28T14:30:29.474Z,english_48.wav,0,pill,447,34,5,5,Français,m,4,0.4,90.70764649,1.00040305
5d64f820c94fbf0001addee8,48,0,2024-02-28T14:30:29.474Z,english_48.wav,0,pill,447,34,5,5,Français,m,5,0.5,-36.31712893,1.89041629
5d64f820c94fbf0001addee8,48,0,2024-02-28T14:30:29.474Z,english_48.wav,0,pill,447,34,5,5,Français,m,6,0.6,25.72223985,0.11424734
5d64f820c94fbf0001addee8,48,0,2024-02-28T14:30:29.474Z,english_48.wav,0,pill,447,34,5,5,Français,m,7,0.7,-14.91989637,0.3528252
5d64f820c94fbf0001addee8,48,0,2024-02-28T14:30:29.474Z,english_48.wav,0,pill,447,34,5,5,Français,m,8,0.8,-17.95558792,0.85742963
5d64f820c94fbf0001addee8,48,0,2024-02-28T14:30:29.474Z,english_48.wav,0,pill,447,34,5,5,Français,m,9,0.9,-5.44719263,0.59657969
5d64f820c94fbf0001addee8,48,0,2024-02-28T14:30:29.474Z,english_48.wav,0,pill,447,34,5,5,Français,m,10,1.0,-94.92564537,0.30631529
5d64f820c94fbf0001addee8,48,0,2024-02-28T14:30:29.474Z,english_48.wav,0,pill,447,34,5,5,Français,m,11,1.09391667,-13.08808473,1.45053444
5d64f820c94fbf0001addee8,49,0,2024-02-28T14:30:29.474Z,english_936.wav,0,peel,422,34,5,5,Français,m,0,0.0,36.31221715,1.2887877
5d64f820c94fbf0001addee8,49,0,2024-02-28T14:30:29.474Z,english_936.wav,0,peel,422,34,5,5,Français,m,1,0.1,-44.47492587,1.4589685
5d64f820c94fbf0001addee8,49,0,2024-02-28T14:30:29.474Z,english_936.wav,0,peel,422,34,5,5,Français,m,2,0.2,-4.14718789,0.18405876
5d64f820c94fbf0001addee8,49,0,2024-02-28T14:30:29.474Z,english_936.wav,0,peel,422,34,5,5,Français,m,3,0.3,-65.70158372,0.27129686
5d64f820c94fbf0001addee8,49,0,2024-02-28T14:30:29.474Z,english_936.wav,0,peel,422,34,5,5,Français,m,4,0.4,76.09968898,0.60039507
5d64f820c94fbf0001addee8,49,0,2024-02-28T14:30:29.474Z,english_936.wav,0,peel,422,34,5,5,Français,m,5,0.5,52.5413509,0.83949142
5d64f820c94fbf0001addee8,49,0,2024-02-28T14:30:29.474Z,english_936.wav,0,peel,422,34,5,5,Français,m,6,0.6,5.38506085,0.92420877
5d64f820c94fbf0001addee8,49,0,2024-02-28T14:30:29.474Z,english_936.wav,0,peel,422,34,5,5,Français,m,7,0.7,-9.33856544,0.31849757
5d64f820c94fbf0001addee8,49,0,2024-02-28T14:30:29.474Z,english_936.wav,0,peel,422,34,5,5,Français,m,8,0.8,-79.6079489,1.55991954
5d64f820c94fbf0001addee8,49,0,2024-02-28T14:30:29.474Z,english_936.wav,0,peel,422,34,5,5,Français,m,9,0.9,-51.30915368,1.32485451
5d64f820c94fbf0001addee8,49,0,2024-02-28T14:30:29.474Z,english_936.wav,0,peel,422,34,5,5,Français,m,10,1.0,-23.2662762,1.1603689
5d64f820c94fbf0001addee8,49,0,2024-02-28T14:30:29.474Z,english_936.wav,0,peel,422,34,5,5,Français,m,11,1.09391667,10.041916,0.29288231
5d64f820c94fbf0001addee8,50,1,2024-02-28T14:30:29.474Z,english_738.wav,0,pill,641,34,5,5,Français,m,0,0.0,40.29848329,1.14824707
5d64f820c94fbf0001addee8,50,1,2024-02-28T14:30:29.474Z,english_738.wav,0,pill,641,34,5,5,Français,m,1,0.1,66.12105636,1.60387601
5d64f820c94fbf0001addee8,50,1,2024-02-28T14:30:29.474Z,english_738.wav,0,pill,641,34,5,5,Français,m,2,0.2,-12.57692477,1.084542
5d64f820c94fbf0001addee8,50,1,2024-02-28T14:30:29.474Z,english_738.wav,0,pill,641,34,5,5,Français,m,3,0.3,-81.4028628,1.81856642
5d64f820c94fbf0001addee8,50,1,2024-02-28T14:30:29.474Z,english_738.wav,0,pill,641,34,5,5,Français,m,4,0.4,83.16146046,1.62922567
5d64f820c94fbf0001addee8,50,1,2024-02-28T14:30:29.474Z,english_738.wav,0,pill,641,34,5,5,Français,m,5,0.5,59.80662428,0.86427283
5d64f820c94fbf0001addee8,50,1,2024-02-28T14:30:29.474Z,english_738.wav,0,pill,641,34,5,5,Français,m,6,0.6,40.28369402,0.1736944
5d64f820c94fbf0001addee8,50,1,2024-02-28T14:30:29.474Z,english_738.wav,0,pill,641,34,5,5,Français,m,7,0.7,70.16502192,0.66918612
5d64f820c94fbf0001addee8,50,1,2024-02-28T14:30:29.474Z,english_738.wav,0,pill,641,34,5,5,Français,m,8,0.8,33.24952129,1.29313609
5d64f820c94fbf0001addee8,50,1,2024-02-28T14:30:29.474Z,english_738.wav,0,pill,641,34,5,5,Français,m,9,0.9,-77.78198323,0.37962966
5d64f820c94fbf0001addee8,50,1,2024-02-28T14:30:29.474Z,english_738.wav,0,pill,641,34,5,5,Français,m,10,1.0,6.29614131,0.80178577
5d64f820c94fbf0001addee8,50,1,2024-02-28T14:30:29.474Z,english_738.wav,0,pill,641,34,5,5,Français,m,11,1.09391667,60.18727711,0.93492505
5d64f820c94fbf0001addee8,51,1,2024-02-28T14:30:29.474Z,english_30.wav,0,pill,960,34,5,5,Français,m,0,0.0,7.20305011,0.62248381
5d64f820c94fbf0001addee8,51,1,2024-02-28T14:30:29.474Z,english_30.wav,0,pill,960,34,5,5,Français,m,1,0.1,40.54252217,1.3534175
5d64f820c94fbf0001addee8,51,1,2024-02-28T14:30:29.474Z,english_30.wav,0,pill,960,34,5,5,Français,m,2,0.2,-27.16756142,1.93672018
5d64f820c94fbf0001addee8,51,1,2024-02-28T14:30:29.474Z,english_30.wav,0,pill,960,34,5,5,Français,m,3,0.3,-47.4542684,1.80613869
5d64f820c94fbf0001addee8,51,1,2024-02-28T14:30:29.474Z,english_30.wav,0,pill,960,34,5,5,Français,m,4,0.4,16.89492576,1.17778721
5d64f820c94fbf0001addee8,51,1,2024-02-28T14:30:29.474Z,english_30.wav,0,pill,960,34,5,5,Français,m,5,0.5,-3.45231142,1.26050698
5d64f820c94fbf0001addee8,51,1,2024-02-28T14:30:29.474Z,english_30.wav,0,pill,960,34,5,5,Français,m,6,0.6,-55.37795964,0.40567716
5d64f820c94fbf0001addee8,51,1,2024-02-28T14:30:29.474Z,english_30.wav,0,pill,960,34,5,5,Français,m,7,0.7,94.81526788,1.85712714
5d64f820c94fbf0001addee8,51,1,2024-02-28T14:30:29.474Z,english_30.wav,0,pill,960,34,5,5,Français,m,8,0.8,4.42136383,0.11089582
5d64f820c94fbf0001addee8,51,1,2024-02-28T14:30:29.474Z,english_30.wav,0,pill,960,34,5,5,Français,m,9,0.9,-28.73125868,1.52275562
5d64f820c94fbf0001addee8,51,1,2024-02-28T14:30:29.474Z,english_30.wav,0,pill,960,34,5,5,Français,m,10,1.0,-43.27093622,0.4081166
5d64f820c94fbf0001addee8,51,1,2024-02-28T14:30:29.474Z,english_30.wav,0,pill,960,34,5,5,Français,m,11,1.09391667,0.63608962,1.00698649
5d64f820c94fbf0001addee8,52,1,2024-02-28T14:30:29.474Z,english_154.wav,0,pill,1386,34,5,5,Français,m,0,0.0,50.07590523,1.91490825
5d64f820c94fbf0001addee8,52,1,2024-02-28T14:30:29.474Z,english_154.wav,0,pill,1386,34,5,5,Français,m,1,0.1,54.36539589,1.49511577
5d64f820c94fbf0001addee8,52,1,2024-02-28T14:30:29.474Z,english_154.wav,0,pill,1386,34,5,5,Français,m,2,0.2,-33.00647988,0.88521845
5d64f820c94fbf0001addee8,52,1,2024-02-28T14:30:29.474Z,english_154.wav,0,pill,1386,34,5,5,Français,m,3,0.3,-21.71222975,1.92896632
5d64f820c94fbf0001addee8,52,1,2024-02-28T14:30:29.474Z,english_154.wav,0,pill,1386,34,5,5,Français,m,4,0.4,-59.72627018,1.65018162
5d64f820c94fbf0001addee8,52,1,2024-02-28T14:30:29.474Z,english_154.wav,0,pill,1386,34,5,5,Français,m,5,0.5,-65.27928089,0.16844772
5d64f820c94fbf0001addee8,52,1,2024-02-28T14:30:29.474Z,english_154.wav,0,pill,1386,34,5,5,Français,m,6,0.6,25.37742378,1.26574184
5d64f820c94fbf0001addee8,52,1,2024-02-28T14:30:29.474Z,english_154.wav,0,pill,1386,34,5,5,Français,m,7,0.7,7.20174616,1.59894503
5d64f820c94fbf0001addee8,52,1,2024-02-28T14:30:29.474Z,english_154.wav,0,pill,1386,34,5,5,Français,m,8,0.8,-20.24283456,1.83170987
5d64f820c94fbf0001addee8,52,1,2024-02-28T14:30:29.474Z,english_154.wav,0,pill,1386,34,5,5,Français,m,9,0.9,-23.90559996,1.31030459
5d64f820c94fbf0001addee8,52,1,2024-02-28T14:30:29.474Z,english_154.wav,0,pill,1386,34,5,5,Français,m,10,1.0,71.61106984,0.51427228
5d64f820c94fbf0001addee8,52,1,2024-02-28T14:30:29.474Z,english_154.wav,0,pill,1386,34,5,5,Français,m,11,1.09391667,25.6022542,1.19971073
5d64f820c94fbf0001addee8,53,1,2024-02-28T14:30:29.474Z,english_716.wav,0,pill,1108,34,5,5,Français,m,0,0.0,43.74330497,0.97173824
5d64f820c94fbf0001addee8,53,1,2024-02-28T14:30:29.474Z,english_716.wav,0,pill,1108,34,5,5,Français,m,1,0.1,1.01157467,1.13719013
5d64f820c94fbf0001addee8,53,1,2024-02-28T14:30:29.474Z,english_716.wav,0,pill,1108,34,5,5,Français,m,2,0.2,43.31214435,0.97088095
5d64f820c94fbf0001addee8,53,1,2024-02-28T14:30:29.474Z,english_716.wav,0,pill,1108,34,5,5,Français,m,3,0.3,-64.99824003,1.35537493
5d64f820c94fbf0001addee8,53,1,2024-02-28T14:30:29.474Z,english_716.wav,0,pill,1108,34,5,5,Français,m,4,0.4,66.22849696,1.16227483
5d64f820c94fbf0001addee8,53,1,2024-02-28T14:30:29.474Z,english_716.wav,0,pill,1108,34,5,5,Français,m,5,0.5,15.92034767,1.14260693
5d64f820c94fbf0001addee8,53,1,2024-02-28T14:30:29.474Z,english_716.wav,0,pill,1108,34,5,5,Français,m,6,0.6,-84.49981369,1.21216761
5d64f820c94fbf0001addee8,53,1,2024-02-28T14:30:29.474Z,english_716.wav,0,pill,1108,34,5,5,Français,m,7,0.7,-36.42045257,1.78190595
5d64f820c94fbf0001addee8,53,1,2024-02-28T14:30:29.474Z,english_716.wav,0,pill,1108,34,5,5,Français,m,8,0.8,0.56154779,1.16672006
5d64f820c94fbf0001addee8,53,1,2024-02-28T14:30:29.474Z,english_716.wav,0,pill,1108,34,5,5,Français,m,9,0.9,-55.57576832,1.41993199
5d64f820c94fbf0001addee8,53,1,2024-02-28T14:30:29.474Z,english_716.wav,0,pill,1108,34,5,5,Français,m,10,1.0,55.0789401,0.32201877
5d64f820c94fbf0001addee8,53,1,2024-02-28T14:30:29.474Z,english_716.wav,0,pill,1108,34,5,5,Français,m,11,1.09391667,15.84660207,1.26556623
5d64f820c94fbf0001addee8,54,1,2024-02-28T14:30:29.474Z,english_176.wav,0,pill,575,34,5,5,Français,m,0,0.0,-29.79812822,0.43469721
5d64f820c94fbf0001addee8,54,1,2024-02-28T14:30:29.474Z,english_176.wav,0,pill,575,34,5,5,Français,m,1,0.1,-16.19961317,0.8905279
5d64f820c94fbf0001addee8,54,1,2024-02-28T14:30:29.474Z,english_176.wav,0,pill,575,34,5,5,Français,m,2,0.2,13.51202418,1.36195462
5d64f820c94fbf0001addee8,54,1,2024-02-28T14:30:29.474Z,english_176.wav,0,pill,575,34,5,5,Français,m,3,0.3,10.74594974,0.86537329
5d64f820c94fbf0001addee8,54,1,2024-02-28T14:30:29.474Z,english_176.wav,0,pill,575,34,5,5,Français,m,4,0.4,-52.94473426,0.61396379
5d64f820c94fbf0001addee8,54,1,2024-02-28T14:30:29.474Z,english_176.wav,0,pill,575,34,5,5,Français,m,5,0.5,52.13031176,0.71790783
5d64f820c94fbf0001addee8,54,1,2024-02-28T14:30:29.474Z,english_176.wav,0,pill,575,34,5,5,Français,m,6,0.6,75.74839712,1.10097826
5d64f820c94fbf0001addee8,54,1,2024-02-28T14:30:29.474Z,english_176.wav,0,pill,575,34,5,5,Français,m,7,0.7,62.6882876,1.68067326
5d64f820c94fbf0001addee8,54,1,2024-02-28T14:30:29.474Z,english_176.wav,0,pill,575,34,5,5,Français,m,8,0.8,-12.46472889,1.35151853
5d64f820c94fbf0001addee8,54,1,2024-02-28T14:30:29.474Z,english_176.wav,0,pill,575,34,5,5,Français,m,9,0.9,74.66747541,0.28756574
5d64f820c94fbf0001addee8,54,1,2024-02-28T14:30:29.474Z,english_176.wav,0,pill,575,34,5,5,Français,m,10,1.0,-22.48226553,0.36668304
5d64f820c94fbf0001addee8,54,1,2024-02-28T14:30:29.474Z,english_176.wav,0,pill,575,34,5,5,Français,m,11,1.09391667,-36.55733652,1.35894928
5d64f820c94fbf0001addee8,55,1,2024-02-28T14:30:29.474Z,english_986.wav,0,peel,436,34,5,5,Français,m,0,0.0,66.66952336,1.97934099
5d64f820c94fbf0001addee8,55,1,2024-02-28T14:30:29.474Z,english_986.wav,0,peel,436,34,5,5,Français,m,1,0.1,96.9530251,1.29460225
5d64f820c94fbf0001addee8,55,1,2024-02-28T14:30:29.474Z,english_986.wav,0,peel,436,34,5,5,Français,m,2,0.2,75.3477354,1.53421825
5d64f820c94fbf0001addee8,55,1,2024-02-28T14:30:29.474Z,english_986.wav,0,peel,436,34,5,5,Français,m,3,0.3,-56.79707668,1.45039514
5d64f820c94fbf0001addee8,55,1,2024-02-28T14:30:29.474Z,english_986.wav,0,peel,436,34,5,5,Français,m,4,0.4,68.50410973,0.98893675
5d64f820c94fbf0001addee8,55,1,2024-02-28T14:30:29.474Z,english_986.wav,0,peel,436,34,5,5,Français,m,5,0.5,5.80156778,1.73927101
5d64f820c94fbf0001addee8,55,1,2024-02-28T14:30:29.474Z,english_986.wav,0,peel,436,34,5,5,Français,m,6,0.6,-59.00857509,1.32684672
5d64f820c94fbf0001addee8,55,1,2024-02-28T14:30:29.474Z,english_986.wav,0,peel,436,34,5,5,Français,m,7,0.7,23.78788766,1.65077043
5d64f820c94fbf0001addee8,55,1,2024-02-28T14:30:29.474Z,english_986.wav,0,peel,436,34,5,5,Français,m,8,0.8,8.31255478,1.05904427
5d64f820c94fbf0001addee8,55,1,2024-02-28T14:30:29.474Z,english_986.wav,0,peel,436,34,5,5,Français,m,9,0.9,-23.40072537,0.79622744
5d64f820c94fbf0001addee8,55,1,2024-02-28T14:30:29.474Z,english_986.wav,0,peel,436,34,5,5,Français,m,10,1.0,36.6022418,1.94329627
5d64f820c94fbf0001addee8,55,1,2024-02-28T14:30:29.474Z,english_986.wav,0,peel,436,34,5,5,Français,m,11,1.09391667,-51.87443186,1.45912014
5d64f820c94fbf0001addee8,56,1,2024-02-28T14:30:29.474Z,english_292.wav,0,peel,438,34,5,5,Français,m,0,0.0,25.72060653,1.17792554
5d64f820c94fbf0001addee8,56,1,2024-02-28T14:30:29.474Z,english_292.wav,0,peel,438,34,5,5,Français,m,1,0.1,-6.51251487,0.30252559
5d64f820c94fbf0001addee8,56,1,2024-02-28T14:30:29.474Z,english_292.wav,0,peel,438,34,5,5,Français,m,2,0.2,3.32661168,1.09442145
5d64f820c94fbf0001addee8,56,1,2024-02-28T14:30:29.474Z,english_292.wav,0,peel,438,34,5,5,Français,m,3,0.3,89.62386246,1.28448778
5d64f820c94fbf0001addee8,56,1,2024-02-28T14:30:29.474Z,english_292.wav,0,peel,438,34,5,5,Français,m,4,0.4,80.65433919,1.02735441
5d64f820c94fbf0001addee8,56,1,2024-02-28T14:30:29.474Z,english_292.wav,0,peel,438,34,5,5,Français,m,5,0.5,44.84771524,0.62410129
5d64f820c94fbf0001addee8,56,1,2024-02-28T14:30:29.474Z,english_292.wav,0,peel,438,34,5,5,Français,m,6,0.6,25.54437629,1.60418481
5d64f820c94fbf0001addee8,56,1,2024-02-28T14:30:29.474Z,english_292.wav,0,peel,438,34,5,5,Français,m,7,0.7,-12.49512251,0.44189431
5d64f820c94fbf0001addee8,56,1,2024-02-28T14:30:29.474Z,english_292.wav,0,peel,438,34,5,5,Français,m,8,0.8,-42.7769001,1.24863789
5d64f820c94fbf0001addee8,56,1,2024-02-28T14:30:29.474Z,english_292.wav,0,peel,438,34,5,5,Français,m,9,0.9,-50.66960292,1.87159039
5d64f820c94fbf0001addee8,56,1,2024-02-28T14:30:29.474Z,english_292.wav,0,peel,438,34,5,5,Français,m,10,1.0,-26.28928757,1.63743996
5d64f820c94fbf0001addee8,56,1,2024-02-28T14:30:29.474Z,english_292.wav,0,peel,438,34,5,5,Français,m,11,1.09391667,-87.75283225,0.32075193
5d64f820c94fbf0001addee8,57,1,2024-02-28T14:30:29.474Z,english_317.wav,0,pill,798,34,5,5,Français,m,0,0.0,35.80517537,1.51358533
5d64f820c94fbf0001addee8,57,1,2024-02-28T14:30:29.474Z,english_317.wav,0,pill,798,34,5,5,Français,m,1,0.1,-47.20528256,0.29972078
5d64f820c94fbf0001addee8,57,1,2024-02-28T14:30:29.474Z,english_317.wav,0,pill,798,34,5,5,Français,m,2,0.2,10.16864163,1.18281069
5d64f820c94fbf0001addee8,57,1,2024-02-28T14:30:29.474Z,english_317.wav,0,pill,798,34,5,5,Français,m,3,0.3,32.59206289,1.39231518
5d64f820c94fbf0001addee8,57,1,2024-02-28T14:30:29.474Z,english_317.wav,0,pill,798,34,5,5,Français,m,4,0.4,20.53754814,1.77974686
5d64f820c94fbf0001addee8,57,1,2024-02-28T14:30:29.474Z,english_317.wav,0,pill,798,34,5,5,Français,m,5,0.5,-78.8593211,1.1695001
5d64f820c94fbf0001addee8,57,1,2024-02-28T14:30:29.474Z,english_317.wav,0,pill,798,34,5,5,Français,m,6,0.6,-97.96541086,1.77666203
5d64f820c94fbf0001addee8,57,1,2024-02-28T14:30:29.474Z,english_317.wav,0,pill,798,34,5,5,Français,m,7,0.7,49.60543729,0.8164879
5d64f820c94fbf0001addee8,57,1,2024-02-28T14:30:29.474Z,english_317.wav,0,pill,798,34,5,5,Français,m,8,0.8,-69.92457952,0.08502592
5d64f820c94fbf0001addee8,57,1,2024-02-28T14:30:29.474Z,english_317.wav,0,pill,798,34,5,5,Français,m,9,0.9,-3.69767957,1.29069951
5d64f820c94fbf0001addee8,57,1,2024-02-28T14:30:29.474Z,english_317.wav,0,pill,798,34,5,5,Français,m,10,1.0,-3.35302539,0.64002495
5d64f820c94fbf0001addee8,57,1,2024-02-28T14:30:29.474Z,english_317.wav,0,pill,798,34,5,5,Français,m,11,1.09391667,29.32411719,1.74584587
5d64f820c94fbf0001addee8,58,1,2024-02-28T14:30:29.474Z,english_879.wav,0,peel,456,34,5,5,Français,m,0,0.0,-41.71376067,1.10654485
5d64f820c94fbf0001addee8,58,1,2024-02-28T14:30:29.474Z,english_879.wav,0,peel,456,34,5,5,Français,m,1,0.1,5.81272632,1.32832236
5d64f820c94fbf0001addee8,58,1,2024-02-28T14:30:29.474Z,english_879.wav,0,peel,456,34,5,5,Français,m,2,0.2,-22.32054487,1.5555922
5d64f820c94fbf0001addee8,58,1,2024-02-28T14:30:29.474Z,english_879.wav,0,peel,456,34,5,5,Français,m,3,0.3,93.64091385,0.11041486
5d64f820c94fbf0001addee8,58,1,2024-02-28T14:30:29.474Z,english_879.wav,0,peel,456,34,5,5,Français,m,4,0.4,-40.92402167,1.31993608
5d64f820c94fbf0001addee8,58,1,2024-02-28T14:30:29.474Z,english_879.wav,0,peel,456,34,5,5,Français,m,5,0.5,13.45427288,1.7629303
5d64f820c94fbf0001addee8,58,1,2024-02-28T14:30:29.474Z,english_879.wav,0,peel,456,34,5,5,Français,m,6,0.6,-86.15210755,1.83129602
5d64f820c94fbf0001addee8,58,1,2024-02-28T14:30:29.474Z,english_879.wav,0,peel,456,34,5,5,Français,m,7,0.7,-20.9667874,1.42589619
5d64f820c94fbf0001addee8,58,1,2024-02-28T14:30:29.474Z,english_879.wav,0,peel,456,34,5,5,Français,m,8,0.8,-18.58842444,0.74351112
5d64f820c94fbf0001addee8,58,1,2024-02-28T14:30:29.474Z,english_879.wav,0,peel,456,34,5,5,Français,m,9,0.9,-72.1364449,0.32763887
5d64f820c94fbf0001addee8,58,1,2024-02-28T14:30:29.474Z,english_879.wav,0,peel,456,34,5,5,Français,m,10,1.0,-83.06025628,1.7749803
5d64f820c94fbf0001addee8,58,1,2024-02-28T14:30:29.474Z,english_879.wav,0,peel,456,34,5,5,Français,m,11,1.09391667,76.41221389,1.6164567
5d64f820c94fbf0001addee8,59,1,2024-02-28T14:30:29.474Z,english_158.wav,0,pill,454,34,5,5,Français,m,0,0.0,41.17268037,0.12012262
5d64f820c94fbf0001addee8,59,1,2024-02-28T14:30:29.474Z,english_158.wav,0,pill,454,34,5,5,Français,m,1,0.1,39.43055099,1.02753784
5d64f820c94fbf0001addee8,59,1,2024-02-28T14:30:29.474Z,english_158.wav,0,pill,454,34,5,5,Français,m,2,0.2,18.17307199,1.36643436
5d64f820c94fbf0001addee8,59,1,2024-02-28T14:30:29.474Z,english_158.wav,0,pill,454,34,5,5,Français,m,3,0.3,2.1288608,1.78617089
5d64f820c94fbf0001addee8,59,1,2024-02-28T14:30:29.474Z,english_158.wav,0,pill,454,34,5,5,Français,m,4,0.4,14.16848378,0.39713516
5d64f820c94fbf0001addee8,59,1,2024-02-28T14:30:29.474Z,english_158.wav,0,pill,454,34,5,5,Français,m,5,0.5,-31.43837624,1.5313636
5d64f820c94fbf0001addee8,59,1,2024-02-28T14:30:29.474Z,english_158.wav,0,pill,454,34,5,5,Français,m,6,0.6,46.37345031,1.20655285
5d64f820c94fbf0001addee8,59,1,2024-02-28T14:30:29.474Z,english_158.wav,0,pill,454,34,5,5,Français,m,7,0.7,58.75582509,0.16880901
5d64f820c94fbf0001addee8,59,1,2024-02-28T14:30:29.474Z,english_158.wav,0,pill,454,34,5,5,Français,m,8,0.8,23.78862253,0.30409425
5d64f820c94fbf0001addee8,59,1,2024-02-28T14:30:29.474Z,english_158.wav,0,pill,454,34,5,5,Français,m,9,0.9,-4.2911947,1.28329421
5d64f820c94fbf0001addee8,59,1,2024-02-28T14:30:29.474Z,english_158.wav,0,pill,454,34,5,5,Français,m,10,1.0,-43.40891041,0.17704904
5d64f820c94fbf0001addee8,59,1,2024-02-28T14:30:29.474Z,english_158.wav,0,pill,454,34,5,5,Français,m,11,1.09391667,16.25522825,0.66899263
5d64f820c94fbf0001addee8,60,1,2024-02-28T14:30:29.474Z,english_173.wav,0,pill,506,34,5,5,Français,m,0,0.0,34.32682043,0.82312646
5d64f820c94fbf0001addee8,60,1,2024-02-28T14:30:29.474Z,english_173.wav,0,pill,506,34,5,5,Français,m,1,0.1,-35.22347769,0.84965345
5d64f820c94fbf0001addee8,60,1,2024-02-28T14:30:29.474Z,english_173.wav,0,pill,506,34,5,5,Français,m,2,0.2,15.69043139,0.84607348
5d64f820c94fbf0001addee8,60,1,2024-02-28T14:30:29.474Z,english_173.wav,0,pill,506,34,5,5,Français,m,3,0.3,-71.83777825,0.55995079
5d64f820c94fbf0001addee8,60,1,2024-02-28T14:30:29.474Z,english_173.wav,0,pill,506,34,5,5,Français,m,4,0.4,-96.81426106,0.51635348
5d64f820c94fbf0001addee8,60,1,2024-02-28T14:30:29.474Z,english_173.wav,0,pill,506,34,5,5,Français,m,5,0.5,-51.15803827,1.6072313
5d64f820c94fbf0001addee8,60,1,2024-02-28T14:30:29.474Z,english_173.wav,0,pill,506,34,5,5,Français,m,6,0.6,-12.70248505,1.25349503
5d64f820c94fbf0001addee8,60,1,2024-02-28T14:30:29.474Z,english_173.wav,0,pill,506,34,5,5,Français,m,7,0.7,-30.75730157,1.4731344
5d64f820c94fbf0001addee8,60,1,2024-02-28T14:30:29.474Z,english_173.wav,0,pill,506,34,5,5,Français,m,8,0.8,-5.0022938,0.28621328
5d64f820c94fbf0001addee8,60,1,2024-02-28T14:30:29.474Z,english_173.wav,0,pill,506,34,5,5,Français,m,9,0.9,41.07030003,0.95942448
5d64f820c94fbf0001addee8,60,1,2024-02-28T14:30:29.474Z,english_173.wav,0,pill,506,34,5,5,Français,m,10,1.0,-5.319412,0.2847469
5d64f820c94fbf0001addee8,60,1,2024-02-28T14:30:29.474Z,english_173.wav,0,pill,506,34,5,5,Français,m,11,1.09391667,43.01251996,0.4938404
5d64f820c94fbf0001addee8,61,1,2024-02-28T14:30:29.474Z,english_272.wav,0,peel,336,34,5,5,Français,m,0,0.0,-52.99211904,1.4863423
5d64f820c94fbf0001addee8,61,1,2024-02-28T14:30:29.474Z,english_272.wav,0,peel,336,34,5,5,Français,m,1,0.1,-25.71564607,1.69746599
5d64f820c94fbf0001addee8,61,1,2024-02-28T14:30:29.474Z,english_272.wav,0,peel,336,34,5,5,Français,m,2,0.2,-56.58642074,0.8962104
5d64f820c94fbf0001addee8,61,1,2024-02-28T14:30:29.474Z,english_272.wav,0,peel,336,34,5,5,Français,m,3,0.3,-87.92268727,1.48386127
5d64f820c94fbf0001addee8,61,1,2024-02-28T14:30:29.474Z,english_272.wav,0,peel,336,34,5,5,Français,m,4,0.4,-77.06370831,1.12180502
5d64f820c94fbf0001addee8,61,1,2024-02-28T14:30:29.474Z,english_272.wav,0,peel,336,34,5,5,Français,m,5,0.5,85.07000432,1.22395179
5d64f820c94fbf0001addee8,61,1,2024-02-28T14:30:29.474Z,english_272.wav,0,peel,336,34,5,5,Français,m,6,0.6,13.520854,1.22503653
5d64f820c94fbf0001addee8,61,1,2024-02-28T14:30:29.474Z,english_272.wav,0,peel,336,34,5,5,Français,m,7,0.7,85.24542971,0.66217064
5d64f820c94fbf0001addee8,61,1,2024-02-28T14:30:29.474Z,english_272.wav,0,peel,336,34,5,5,Français,m,8,0.8,21.00568548,1.40926924
5d64f820c94fbf0001addee8,61,1,2024-02-28T14:30:29.474Z,english_272.wav,0,peel,336,34,5,5,Français,m,9,0.9,47.91949332,0.42323382
5d64f820c94fbf0001addee8,61,1,2024-02-28T14:30:29.474Z,english_272.wav,0,peel,336,34,5,5,Français,m,10,1.0,-9.98443485,1.68730728
5d64f820c94fbf0001addee8,61,1,2024-02-28T14:30:29.474Z,english_272.wav,0,peel,336,34,5,5,Français,m,11,1.09391667,-3.7192884,1.76864858
5d64f820c94fbf0001addee8,62,1,2024-02-28T14:30:29.474Z,english_889.wav,0,pill,262,34,5,5,Français,m,0,0.0,79.20623471,0.68216584
5d64f820c94fbf0001addee8,62,1,2024-02-28T14:30:29.474Z,english_889.wav,0,pill,262,34,5,5,Français,m,1,0.1,15.95650002,0.42686819
5d64f820c94fbf0001addee8,62,1,2024-02-28T14:30:29.474Z,english_889.wav,0,pill,262,34,5,5,Français,m,2,0.2,-76.24687764,0.02909108
5d64f820c94fbf0001addee8,62,1,2024-02-28T14:30:29.474Z,english_889.wav,0,pill,262,34,5,5,Français,m,3,0.3,-99.60118401,1.3182061
5d64f820c94fbf0001addee8,62,1,2024-02-28T14:30:29.474Z,english_889.wav,0,pill,262,34,5,5,Français,m,4,0.4,78.05893195,0.10574875
5d64f820c94fbf0001addee8,62,1,2024-02-28T14:30:29.474Z,english_889.wav,0,pill,262,34,5,5,Français,m,5,0.5,-14.00699602,0.2853218
5d64f820c94fbf0001addee8,62,1,2024-02-28T14:30:29.474Z,english_889.wav,0,pill,262,34,5,5,Français,m,6,0.6,-89.17552829,1.14496721
5d64f820c94fbf0001addee8,62,1,2024-02-28T14:30:29.474Z,english_889.wav,0,pill,262,34,5,5,Français,m,7,0.7,-14.96184535,1.04613331
5d64f820c94fbf0001addee8,62,1,2024-02-28T14:30:29.474Z,english_889.wav,0,pill,262,34,5,5,Français,m,8,0.8,59.85859642,1.03396969
5d64f820c94fbf0001addee8,62,1,2024-02-28T14:30:29.474Z,english_889.wav,0,pill,262,34,5,5,Français,m,9,0.9,11.94153074,0.35198627
5d64f820c94fbf0001addee8,62,1,2024-02-28T14:30:29.474Z,english_889.wav,0,pill,262,34,5,5,Français,m,10,1.0,-11.03565413,0.4382774
5d64f820c94fbf0001addee8,62,1,2024-02-28T14:30:29.474Z,english_889.wav,0,pill,262,34,5,5,Français,m,11,1.09391667,35.54802425,1.08765543
5d64f820c94fbf0001addee8,63,1,2024-02-28T14:30:29.474Z,english_929.wav,0,pill,426,34,5,5,Français,m,0,0.0,-18.74393268,1.03205893
5d64f820c94fbf0001addee8,63,1,2024-02-28T14:30:29.474Z,english_929.wav,0,pill,426,34,5,5,Français,m,1,0.1,33.5098218,1.56324899
5d64f820c94fbf0001addee8,63,1,2024-02-28T14:30:29.474Z,english_929.wav,0,pill,426,34,5,5,Français,m,2,0.2,-29.94782209,1.48903241
5d64f820c94fbf0001addee8,63,1,2024-02-28T14:30:29.474Z,english_929.wav,0,pill,426,34,5,5,Français,m,3,0.3,-33.25977884,0.12654912
5d64f820c94fbf0001addee8,63,1,2024-02-28T14:30:29.474Z,english_929.wav,0,pill,426,34,5,5,Français,m,4,0.4,-9.01985938,0.84484029
5d64f820c94fbf0001addee8,63,1,2024-02-28T14:30:29.474Z,english_929.wav,0,pill,426,34,5,5,Français,m,5,0.5,-82.73987875,0.94715121
5d64f820c94fbf0001addee8,63,1,2024-02-28T14:30:29.474Z,english_929.wav,0,pill,426,34,5,5,Français,m,6,0.6,48.07587241,1.69154368
5d64f820c94fbf0001addee8,63,1,2024-02-28T14:30:29.474Z,english_929.wav,0,pill,426,34,5,5,Français,m,7,0.7,-43.15088987,0.81126675
5d64f820c94fbf0001addee8,63,1,2024-02-28T14:30:29.474Z,english_929.wav,0,pill,426,34,5,5,Français,m,8,0.8,82.92488977,0.36905029
5d64f820c94fbf0001addee8,63,1,2024-02-28T14:30:29.474Z,english_929.wav,0,pill,426,34,5,5,Français,m,9,0.9,-60.38444868,0.50874334
5d64f820c94fbf0001addee8,63,1,2024-02-28T14:30:29.474Z,english_929.wav,0,pill,426,34,5,5,Français,m,10,1.0,27.71416794,0.95284967
5d64f820c94fbf0001addee8,63,1,2024-02-28T14:30:29.474Z,english_929.wav,0,pill,426,34,5,5,Français,m,11,1.09391667,21.92497573,0.65099343
5d64f820c94fbf0001addee8,64,1,2024-02-28T14:30:29.474Z,english_779.wav,0,pill,510,34,5,5,Français,m,0,0.0,2.5732513,1.647041
