subj,trial,block,date,stim,stim_order,response,rt,age,english,french,language,sex,param_index,segment,pitch,stretch
58a23b2b27c3bb00014e6d9a,0,0,2024-02-28T14:35:59.023Z,english_387.wav,0,pill,3891,40,4,5,français,f,0,0.0,67.80075556,0.00122772109
58a23b2b27c3bb00014e6d9a,0,0,2024-02-28T14:35:59.023Z,english_387.wav,0,pill,3891,40,4,5,français,f,1,0.1,2.91528807,1.63436641
58a23b2b27c3bb00014e6d9a,0,0,2024-02-28T14:35:59.023Z,english_387.wav,0,pill,3891,40,4,5,français,f,2,0.2,-96.71759945,0.942533102
58a23b2b27c3bb00014e6d9a,0,0,2024-02-28T14:35:59.023Z,english_387.wav,0,pill,3891,40,4,5,français,f,3,0.3,0.93195301,0.658001898
58a23b2b27c3bb00014e6d9a,0,0,2024-02-28T14:35:59.023Z,english_387.wav,0,pill,3891,40,4,5,français,f,4,0.4,64.10102677,1.5746929
58a23b2b27c3bb00014e6d9a,0,0,2024-02-28T14:35:59.023Z,english_387.wav,0,pill,3891,40,4,5,français,f,5,0.5,50.38025389,0.711925794
58a23b2b27c3bb00014e6d9a,0,0,2024-02-28T14:35:59.023Z,english_387.wav,0,pill,3891,40,4,5,français,f,6,0.6,73.00593199,1.61187408
58a23b2b27c3bb00014e6d9a,0,0,2024-02-28T14:35:59.023Z,english_387.wav,0,pill,3891,40,4,5,français,f,7,0.7,18.93402178,1.34608703
58a23b2b27c3bb00014e6d9a,0,0,2024-02-28T14:35:59.023Z,english_387.wav,0,pill,3891,40,4,5,français,f,8,0.8,35.76134207,1.4554979
58a23b2b27c3bb00014e6d9a,0,0,2024-02-28T14:35:59.023Z,english_387.wav,0,pill,3891,40,4,5,français,f,9,0.9,32.66910334,0.118157589
58a23b2b27c3bb00014e6d9a,0,0,2024-02-28T14:35:59.023Z,english_387.wav,0,pill,3891,40,4,5,français,f,10,1.0,89.60787906,0.929482496
58a23b2b27c3bb00014e6d9a,0,0,2024-02-28T14:35:59.023Z,english_387.wav,0,pill,3891,40,4,5,français,f,11,1.09391667,4.26061553,1.40897442
58a23b2b27c3bb00014e6d9a,1,0,2024-02-28T14:35:59.023Z,english_335.wav,0,pill,1586,40,4,5,français,f,0,0.0,41.80743468,1.01381682
58a23b2b27c3bb00014e6d9a,1,0,2024-02-28T14:35:59.023Z,english_335.wav,0,pill,1586,40,4,5,français,f,1,0.1,-95.17376615,1.5620604
58a23b2b27c3bb00014e6d9a,1,0,2024-02-28T14:35:59.023Z,english_335.wav,0,pill,1586,40,4,5,français,f,2,0.2,39.98208272,0.19265383
58a23b2b27c3bb00014e6d9a,1,0,2024-02-28T14:35:59.023Z,english_335.wav,0,pill,1586,40,4,5,français,f,3,0.3,-46.35703256,1.42247653
58a23b2b27c3bb00014e6d9a,1,0,2024-02-28T14:35:59.023Z,english_335.wav,0,pill,1586,40,4,5,français,f,4,0.4,24.82145544,0.70328136
58a23b2b27c3bb00014e6d9a,1,0,2024-02-28T14:35:59.023Z,english_335.wav,0,pill,1586,40,4,5,français,f,5,0.5,-31.00133873,1.01966488
58a23b2b27c3bb00014e6d9a,1,0,2024-02-28T14:35:59.023Z,english_335.wav,0,pill,1586,40,4,5,français,f,6,0.6,-26.38344945,1.23451824
58a23b2b27c3bb00014e6d9a,1,0,2024-02-28T14:35:59.023Z,english_335.wav,0,pill,1586,40,4,5,français,f,7,0.7,86.60347,0.55082158
58a23b2b27c3bb00014e6d9a,1,0,2024-02-28T14:35:59.023Z,english_335.wav,0,pill,1586,40,4,5,français,f,8,0.8,-70.37080157,0.451758
58a23b2b27c3bb00014e6d9a,1,0,2024-02-28T14:35:59.023Z,english_335.wav,0,pill,1586,40,4,5,français,f,9,0.9,61.18063824,0.68398752
58a23b2b27c3bb00014e6d9a,1,0,2024-02-28T14:35:59.023Z,english_335.wav,0,pill,1586,40,4,5,français,f,10,1.0,-30.21404124,0.79476381
58a23b2b27c3bb00014e6d9a,1,0,2024-02-28T14:35:59.023Z,english_335.wav,0,pill,1586,40,4,5,français,f,11,1.09391667,-36.90555067,1.69556673
58a23b2b27c3bb00014e6d9a,2,0,2024-02-28T14:35:59.023Z,english_158.wav,0,pill,1810,40,4,5,français,f,0,0.0,41.17268037,0.12012262
58a23b2b27c3bb00014e6d9a,2,0,2024-02-28T14:35:59.023Z,english_158.wav,0,pill,1810,40,4,5,français,f,1,0.1,39.43055099,1.02753784
58a23b2b27c3bb00014e6d9a,2,0,2024-02-28T14:35:59.023Z,english_158.wav,0,pill,1810,40,4,5,français,f,2,0.2,18.17307199,1.36643436
58a23b2b27c3bb00014e6d9a,2,0,2024-02-28T14:35:59.023Z,english_158.wav,0,pill,1810,40,4,5,français,f,3,0.3,2.1288608,1.78617089
58a23b2b27c3bb00014e6d9a,2,0,2024-02-28T14:35:59.023Z,english_158.wav,0,pill,1810,40,4,5,français,f,4,0.4,14.16848378,0.39713516
58a23b2b27c3bb00014e6d9a,2,0,2024-02-28T14:35:59.023Z,english_158.wav,0,pill,1810,40,4,5,français,f,5,0.5,-31.43837624,1.5313636
58a23b2b27c3bb00014e6d9a,2,0,2024-02-28T14:35:59.023Z,english_158.wav,0,pill,1810,40,4,5,français,f,6,0.6,46.37345031,1.20655285
58a23b2b27c3bb00014e6d9a,2,0,2024-02-28T14:35:59.023Z,english_158.wav,0,pill,1810,40,4,5,français,f,7,0.7,58.75582509,0.16880901
58a23b2b27c3bb00014e6d9a,2,0,2024-02-28T14:35:59.023Z,english_158.wav,0,pill,1810,40,4,5,français,f,8,0.8,23.78862253,0.30409425
58a23b2b27c3bb00014e6d9a,2,0,2024-02-28T14:35:59.023Z,english_158.wav,0,pill,1810,40,4,5,français,f,9,0.9,-4.2911947,1.28329421
58a23b2b27c3bb00014e6d9a,2,0,2024-02-28T14:35:59.023Z,english_158.wav,0,pill,1810,40,4,5,français,f,10,1.0,-43.40891041,0.17704904
58a23b2b27c3bb00014e6d9a,2,0,2024-02-28T14:35:59.023Z,english_158.wav,0,pill,1810,40,4,5,français,f,11,1.09391667,16.25522825,0.66899263
58a23b2b27c3bb00014e6d9a,3,0,2024-02-28T14:35:59.023Z,english_413.wav,0,peel,732,40,4,5,français,f,0,0.0,14.83112151,0.44215223
58a23b2b27c3bb00014e6d9a,3,0,2024-02-28T14:35:59.023Z,english_413.wav,0,peel,732,40,4,5,français,f,1,0.1,11.76914083,1.16902386
58a23b2b27c3bb00014e6d9a,3,0,2024-02-28T14:35:59.023Z,english_413.wav,0,peel,732,40,4,5,français,f,2,0.2,56.99835841,1.34778137
58a23b2b27c3bb00014e6d9a,3,0,2024-02-28T14:35:59.023Z,english_413.wav,0,peel,732,40,4,5,français,f,3,0.3,-91.21705368,1.75286116
58a23b2b27c3bb00014e6d9a,3,0,2024-02-28T14:35:59.023Z,english_413.wav,0,peel,732,40,4,5,français,f,4,0.4,45.54032704,0.59475232
58a23b2b27c3bb00014e6d9a,3,0,2024-02-28T14:35:59.023Z,english_413.wav,0,peel,732,40,4,5,français,f,5,0.5,27.79493499,1.56815753
58a23b2b27c3bb00014e6d9a,3,0,2024-02-28T14:35:59.023Z,english_413.wav,0,peel,732,40,4,5,français,f,6,0.6,-45.92047179,1.45096495
58a23b2b27c3bb00014e6d9a,3,0,2024-02-28T14:35:59.023Z,english_413.wav,0,peel,732,40,4,5,français,f,7,0.7,30.6901634,1.27145961
58a23b2b27c3bb00014e6d9a,3,0,2024-02-28T14:35:59.023Z,english_413.wav,0,peel,732,40,4,5,français,f,8,0.8,-6.79166087,1.53710405
58a23b2b27c3bb00014e6d9a,3,0,2024-02-28T14:35:59.023Z,english_413.wav,0,peel,732,40,4,5,français,f,9,0.9,-73.44231095,1.76487513
58a23b2b27c3bb00014e6d9a,3,0,2024-02-28T14:35:59.023Z,english_413.wav,0,peel,732,40,4,5,français,f,10,1.0,72.98773842,1.73986125
58a23b2b27c3bb00014e6d9a,3,0,2024-02-28T14:35:59.023Z,english_413.wav,0,peel,732,40,4,5,français,f,11,1.09391667,-6.1173613,0.92350985
58a23b2b27c3bb00014e6d9a,4,0,2024-02-28T14:35:59.023Z,english_709.wav,0,peel,1363,40,4,5,français,f,0,0.0,54.89445194,0.75029311
58a23b2b27c3bb00014e6d9a,4,0,2024-02-28T14:35:59.023Z,english_709.wav,0,peel,1363,40,4,5,français,f,1,0.1,-13.90675493,1.75887389
58a23b2b27c3bb00014e6d9a,4,0,2024-02-28T14:35:59.023Z,english_709.wav,0,peel,1363,40,4,5,français,f,2,0.2,17.54151592,1.84695168
58a23b2b27c3bb00014e6d9a,4,0,2024-02-28T14:35:59.023Z,english_709.wav,0,peel,1363,40,4,5,français,f,3,0.3,-21.79257769,0.96071145
58a23b2b27c3bb00014e6d9a,4,0,2024-02-28T14:35:59.023Z,english_709.wav,0,peel,1363,40,4,5,français,f,4,0.4,55.10787635,1.22566663
58a23b2b27c3bb00014e6d9a,4,0,2024-02-28T14:35:59.023Z,english_709.wav,0,peel,1363,40,4,5,français,f,5,0.5,-57.13962404,1.94059393
58a23b2b27c3bb00014e6d9a,4,0,2024-02-28T14:35:59.023Z,english_709.wav,0,peel,1363,40,4,5,français,f,6,0.6,-5.37289715,0.52219194
58a23b2b27c3bb00014e6d9a,4,0,2024-02-28T14:35:59.023Z,english_709.wav,0,peel,1363,40,4,5,français,f,7,0.7,27.40236622,0.9142424
58a23b2b27c3bb00014e6d9a,4,0,2024-02-28T14:35:59.023Z,english_709.wav,0,peel,1363,40,4,5,français,f,8,0.8,12.19670027,1.75067757
58a23b2b27c3bb00014e6d9a,4,0,2024-02-28T14:35:59.023Z,english_709.wav,0,peel,1363,40,4,5,français,f,9,0.9,91.20271112,0.7385059
58a23b2b27c3bb00014e6d9a,4,0,2024-02-28T14:35:59.023Z,english_709.wav,0,peel,1363,40,4,5,français,f,10,1.0,89.17036871,1.92412986
58a23b2b27c3bb00014e6d9a,4,0,2024-02-28T14:35:59.023Z,english_709.wav,0,peel,1363,40,4,5,français,f,11,1.09391667,50.36439179,0.79240238
58a23b2b27c3bb00014e6d9a,5,0,2024-02-28T14:35:59.023Z,english_246.wav,0,peel,845,40,4,5,français,f,0,0.0,65.19555702,1.04626937
58a23b2b27c3bb00014e6d9a,5,0,2024-02-28T14:35:59.023Z,english_246.wav,0,peel,845,40,4,5,français,f,1,0.1,-88.31116696,1.63597079
58a23b2b27c3bb00014e6d9a,5,0,2024-02-28T14:35:59.023Z,english_246.wav,0,peel,845,40,4,5,français,f,2,0.2,-87.15645837,1.95419498
58a23b2b27c3bb00014e6d9a,5,0,2024-02-28T14:35:59.023Z,english_246.wav,0,peel,845,40,4,5,français,f,3,0.3,57.84934166,0.56872665
58a23b2b27c3bb00014e6d9a,5,0,2024-02-28T14:35:59.023Z,english_246.wav,0,peel,845,40,4,5,français,f,4,0.4,-76.45557784,0.40309221
58a23b2b27c3bb00014e6d9a,5,0,2024-02-28T14:35:59.023Z,english_246.wav,0,peel,845,40,4,5,français,f,5,0.5,66.32688278,1.93282921
58a23b2b27c3bb00014e6d9a,5,0,2024-02-28T14:35:59.023Z,english_246.wav,0,peel,845,40,4,5,français,f,6,0.6,93.44738027,1.28213971
58a23b2b27c3bb00014e6d9a,5,0,2024-02-28T14:35:59.023Z,english_246.wav,0,peel,845,40,4,5,français,f,7,0.7,54.7923908,1.70127241
58a23b2b27c3bb00014e6d9a,5,0,2024-02-28T14:35:59.023Z,english_246.wav,0,peel,845,40,4,5,français,f,8,0.8,-1.38437059,0.15014799
58a23b2b27c3bb00014e6d9a,5,0,2024-02-28T14:35:59.023Z,english_246.wav,0,peel,845,40,4,5,français,f,9,0.9,5.22264847,1.21649106
58a23b2b27c3bb00014e6d9a,5,0,2024-02-28T14:35:59.023Z,english_246.wav,0,peel,845,40,4,5,français,f,10,1.0,-11.85909484,1.48942771
58a23b2b27c3bb00014e6d9a,5,0,2024-02-28T14:35:59.023Z,english_246.wav,0,peel,845,40,4,5,français,f,11,1.09391667,65.00290812,0.35768018
58a23b2b27c3bb00014e6d9a,6,0,2024-02-28T14:35:59.023Z,english_366.wav,0,peel,428,40,4,5,français,f,0,0.0,-51.97670193,0.41387665
58a23b2b27c3bb00014e6d9a,6,0,2024-02-28T14:35:59.023Z,english_366.wav,0,peel,428,40,4,5,français,f,1,0.1,-66.3802986,1.82440093
58a23b2b27c3bb00014e6d9a,6,0,2024-02-28T14:35:59.023Z,english_366.wav,0,peel,428,40,4,5,français,f,2,0.2,-43.44577517,1.51666721
58a23b2b27c3bb00014e6d9a,6,0,2024-02-28T14:35:59.023Z,english_366.wav,0,peel,428,40,4,5,français,f,3,0.3,-27.66745881,0.79221573
58a23b2b27c3bb00014e6d9a,6,0,2024-02-28T14:35:59.023Z,english_366.wav,0,peel,428,40,4,5,français,f,4,0.4,-24.71146446,1.07358208
58a23b2b27c3bb00014e6d9a,6,0,2024-02-28T14:35:59.023Z,english_366.wav,0,peel,428,40,4,5,français,f,5,0.5,7.18823907,0.88629464
58a23b2b27c3bb00014e6d9a,6,0,2024-02-28T14:35:59.023Z,english_366.wav,0,peel,428,40,4,5,français,f,6,0.6,-1.04467208,1.421231
58a23b2b27c3bb00014e6d9a,6,0,2024-02-28T14:35:59.023Z,english_366.wav,0,peel,428,40,4,5,français,f,7,0.7,-90.31563808,0.93675223
58a23b2b27c3bb00014e6d9a,6,0,2024-02-28T14:35:59.023Z,english_366.wav,0,peel,428,40,4,5,français,f,8,0.8,-10.23526275,1.47759882
58a23b2b27c3bb00014e6d9a,6,0,2024-02-28T14:35:59.023Z,english_366.wav,0,peel,428,40,4,5,français,f,9,0.9,47.79218582,1.29623614
58a23b2b27c3bb00014e6d9a,6,0,2024-02-28T14:35:59.023Z,english_366.wav,0,peel,428,40,4,5,français,f,10,1.0,3.55736556,1.92903866
58a23b2b27c3bb00014e6d9a,6,0,2024-02-28T14:35:59.023Z,english_366.wav,0,peel,428,40,4,5,français,f,11,1.09391667,-83.88061388,1.30968338
58a23b2b27c3bb00014e6d9a,7,0,2024-02-28T14:35:59.023Z,english_608.wav,0,peel,426,40,4,5,français,f,0,0.0,51.7664081,1.51537713
58a23b2b27c3bb00014e6d9a,7,0,2024-02-28T14:35:59.023Z,english_608.wav,0,peel,426,40,4,5,français,f,1,0.1,-80.54246428,0.15028224
58a23b2b27c3bb00014e6d9a,7,0,2024-02-28T14:35:59.023Z,english_608.wav,0,peel,426,40,4,5,français,f,2,0.2,-77.98130797,1.81254149
58a23b2b27c3bb00014e6d9a,7,0,2024-02-28T14:35:59.023Z,english_608.wav,0,peel,426,40,4,5,français,f,3,0.3,25.40612748,1.88904665
58a23b2b27c3bb00014e6d9a,7,0,2024-02-28T14:35:59.023Z,english_608.wav,0,peel,426,40,4,5,français,f,4,0.4,-25.13261416,0.02307613
58a23b2b27c3bb00014e6d9a,7,0,2024-02-28T14:35:59.023Z,english_608.wav,0,peel,426,40,4,5,français,f,5,0.5,-47.23330204,1.59293411
58a23b2b27c3bb00014e6d9a,7,0,2024-02-28T14:35:59.023Z,english_608.wav,0,peel,426,40,4,5,français,f,6,0.6,80.77508225,1.34709582
58a23b2b27c3bb00014e6d9a,7,0,2024-02-28T14:35:59.023Z,english_608.wav,0,peel,426,40,4,5,français,f,7,0.7,-91.19719701,0.43937258
58a23b2b27c3bb00014e6d9a,7,0,2024-02-28T14:35:59.023Z,english_608.wav,0,peel,426,40,4,5,français,f,8,0.8,-56.07696763,1.30698023
58a23b2b27c3bb00014e6d9a,7,0,2024-02-28T14:35:59.023Z,english_608.wav,0,peel,426,40,4,5,français,f,9,0.9,-57.98593589,1.72852212
58a23b2b27c3bb00014e6d9a,7,0,2024-02-28T14:35:59.023Z,english_608.wav,0,peel,426,40,4,5,français,f,10,1.0,87.03595353,1.13440146
58a23b2b27c3bb00014e6d9a,7,0,2024-02-28T14:35:59.023Z,english_608.wav,0,peel,426,40,4,5,français,f,11,1.09391667,-36.96026424,1.09789882
58a23b2b27c3bb00014e6d9a,8,0,2024-02-28T14:35:59.023Z,english_583.wav,0,peel,824,40,4,5,français,f,0,0.0,-89.46926799,1.93205848
58a23b2b27c3bb00014e6d9a,8,0,2024-02-28T14:35:59.023Z,english_583.wav,0,peel,824,40,4,5,français,f,1,0.1,-21.95760647,0.52539253
58a23b2b27c3bb00014e6d9a,8,0,2024-02-28T14:35:59.023Z,english_583.wav,0,peel,824,40,4,5,français,f,2,0.2,51.54638902,0.25359823
58a23b2b27c3bb00014e6d9a,8,0,2024-02-28T14:35:59.023Z,english_583.wav,0,peel,824,40,4,5,français,f,3,0.3,-19.59460838,0.46642282
58a23b2b27c3bb00014e6d9a,8,0,2024-02-28T14:35:59.023Z,english_583.wav,0,peel,824,40,4,5,français,f,4,0.4,-80.65157181,0.25879931
58a23b2b27c3bb00014e6d9a,8,0,2024-02-28T14:35:59.023Z,english_583.wav,0,peel,824,40,4,5,français,f,5,0.5,13.46564549,0.54774352
58a23b2b27c3bb00014e6d9a,8,0,2024-02-28T14:35:59.023Z,english_583.wav,0,peel,824,40,4,5,français,f,6,0.6,-1.99224774,1.89783447
58a23b2b27c3bb00014e6d9a,8,0,2024-02-28T14:35:59.023Z,english_583.wav,0,peel,824,40,4,5,français,f,7,0.7,96.26030273,0.46572744
58a23b2b27c3bb00014e6d9a,8,0,2024-02-28T14:35:59.023Z,english_583.wav,0,peel,824,40,4,5,français,f,8,0.8,-75.70856073,0.69184565
58a23b2b27c3bb00014e6d9a,8,0,2024-02-28T14:35:59.023Z,english_583.wav,0,peel,824,40,4,5,français,f,9,0.9,40.78035579,1.20488206
58a23b2b27c3bb00014e6d9a,8,0,2024-02-28T14:35:59.023Z,english_583.wav,0,peel,824,40,4,5,français,f,10,1.0,3.65984432,1.22997803
58a23b2b27c3bb00014e6d9a,8,0,2024-02-28T14:35:59.023Z,english_583.wav,0,peel,824,40,4,5,français,f,11,1.09391667,-26.98513255,1.99403249
58a23b2b27c3bb00014e6d9a,9,0,2024-02-28T14:35:59.023Z,english_385.wav,0,pill,576,40,4,5,français,f,0,0.0,0.33828369,0.38016584
58a23b2b27c3bb00014e6d9a,9,0,2024-02-28T14:35:59.023Z,english_385.wav,0,pill,576,40,4,5,français,f,1,0.1,2.41058867,1.8714009
58a23b2b27c3bb00014e6d9a,9,0,2024-02-28T14:35:59.023Z,english_385.wav,0,pill,576,40,4,5,français,f,2,0.2,-12.54892467,0.45382881
58a23b2b27c3bb00014e6d9a,9,0,2024-02-28T14:35:59.023Z,english_385.wav,0,pill,576,40,4,5,français,f,3,0.3,-41.7912056,1.31398474
58a23b2b27c3bb00014e6d9a,9,0,2024-02-28T14:35:59.023Z,english_385.wav,0,pill,576,40,4,5,français,f,4,0.4,-44.49264688,1.04402362
58a23b2b27c3bb00014e6d9a,9,0,2024-02-28T14:35:59.023Z,english_385.wav,0,pill,576,40,4,5,français,f,5,0.5,0.14407831,0.57870544
58a23b2b27c3bb00014e6d9a,9,0,2024-02-28T14:35:59.023Z,english_385.wav,0,pill,576,40,4,5,français,f,6,0.6,-25.57843431,1.74841786
58a23b2b27c3bb00014e6d9a,9,0,2024-02-28T14:35:59.023Z,english_385.wav,0,pill,576,40,4,5,français,f,7,0.7,-39.2816597,1.62984391
58a23b2b27c3bb00014e6d9a,9,0,2024-02-28T14:35:59.023Z,english_385.wav,0,pill,576,40,4,5,français,f,8,0.8,-88.59516391,0.16451748
58a23b2b27c3bb00014e6d9a,9,0,2024-02-28T14:35:59.023Z,english_385.wav,0,pill,576,40,4,5,français,f,9,0.9,-28.05531573,0.80459877
58a23b2b27c3bb00014e6d9a,9,0,2024-02-28T14:35:59.023Z,english_385.wav,0,pill,576,40,4,5,français,f,10,1.0,-37.07272381,0.03974207
58a23b2b27c3bb00014e6d9a,9,0,2024-02-28T14:35:59.023Z,english_385.wav,0,pill,576,40,4,5,français,f,11,1.09391667,-61.44238802,1.20121467
58a23b2b27c3bb00014e6d9a,10,0,2024-02-28T14:35:59.023Z,english_112.wav,0,peel,925,40,4,5,français,f,0,0.0,49.45259009,1.41914206
58a23b2b27c3bb00014e6d9a,10,0,2024-02-28T14:35:59.023Z,english_112.wav,0,peel,925,40,4,5,français,f,1,0.1,26.00670844,1.08420532
58a23b2b27c3bb00014e6d9a,10,0,2024-02-28T14:35:59.023Z,english_112.wav,0,peel,925,40,4,5,français,f,2,0.2,-62.78053013,1.90864959
58a23b2b27c3bb00014e6d9a,10,0,2024-02-28T14:35:59.023Z,english_112.wav,0,peel,925,40,4,5,français,f,3,0.3,13.64858628,0.00296714
58a23b2b27c3bb00014e6d9a,10,0,2024-02-28T14:35:59.023Z,english_112.wav,0,peel,925,40,4,5,français,f,4,0.4,-46.53502922,0.2257171
58a23b2b27c3bb00014e6d9a,10,0,2024-02-28T14:35:59.023Z,english_112.wav,0,peel,925,40,4,5,français,f,5,0.5,55.2952107,1.98382605
58a23b2b27c3bb00014e6d9a,10,0,2024-02-28T14:35:59.023Z,english_112.wav,0,peel,925,40,4,5,français,f,6,0.6,-37.49134954,0.39764394
58a23b2b27c3bb00014e6d9a,10,0,2024-02-28T14:35:59.023Z,english_112.wav,0,peel,925,40,4,5,français,f,7,0.7,9.25181319,1.10443659
58a23b2b27c3bb00014e6d9a,10,0,2024-02-28T14:35:59.023Z,english_112.wav,0,peel,925,40,4,5,français,f,8,0.8,52.76907871,0.52917173
58a23b2b27c3bb00014e6d9a,10,0,2024-02-28T14:35:59.023Z,english_112.wav,0,peel,925,40,4,5,français,f,9,0.9,40.19984459,0.39475588
58a23b2b27c3bb00014e6d9a,10,0,2024-02-28T14:35:59.023Z,english_112.wav,0,peel,925,40,4,5,français,f,10,1.0,72.4009261,0.72882938
58a23b2b27c3bb00014e6d9a,10,0,2024-02-28T14:35:59.023Z,english_112.wav,0,peel,925,40,4,5,français,f,11,1.09391667,-65.62688247,0.87807842
58a23b2b27c3bb00014e6d9a,11,0,2024-02-28T14:35:59.023Z,english_646.wav,0,peel,860,40,4,5,français,f,0,0.0,-72.16367523,1.23252036
58a23b2b27c3bb00014e6d9a,11,0,2024-02-28T14:35:59.023Z,english_646.wav,0,peel,860,40,4,5,français,f,1,0.1,89.23048569,0.41153547
58a23b2b27c3bb00014e6d9a,11,0,2024-02-28T14:35:59.023Z,english_646.wav,0,peel,860,40,4,5,français,f,2,0.2,3.93643173,1.30500866
58a23b2b27c3bb00014e6d9a,11,0,2024-02-28T14:35:59.023Z,english_646.wav,0,peel,860,40,4,5,français,f,3,0.3,32.33211102,0.16779894
58a23b2b27c3bb00014e6d9a,11,0,2024-02-28T14:35:59.023Z,english_646.wav,0,peel,860,40,4,5,français,f,4,0.4,57.94131679,1.44956343
58a23b2b27c3bb00014e6d9a,11,0,2024-02-28T14:35:59.023Z,english_646.wav,0,peel,860,40,4,5,français,f,5,0.5,3.36702109,0.43462
58a23b2b27c3bb00014e6d9a,11,0,2024-02-28T14:35:59.023Z,english_646.wav,0,peel,860,40,4,5,français,f,6,0.6,61.97454592,1.17161273
58a23b2b27c3bb00014e6d9a,11,0,2024-02-28T14:35:59.023Z,english_646.wav,0,peel,860,40,4,5,français,f,7,0.7,-38.94515992,1.33009112
58a23b2b27c3bb00014e6d9a,11,0,2024-02-28T14:35:59.023Z,english_646.wav,0,peel,860,40,4,5,français,f,8,0.8,18.02819855,1.9601355
58a23b2b27c3bb00014e6d9a,11,0,2024-02-28T14:35:59.023Z,english_646.wav,0,peel,860,40,4,5,français,f,9,0.9,-7.01403953,1.16018484
58a23b2b27c3bb00014e6d9a,11,0,2024-02-28T14:35:59.023Z,english_646.wav,0,peel,860,40,4,5,français,f,10,1.0,22.99913436,0.4872476
58a23b2b27c3bb00014e6d9a,11,0,2024-02-28T14:35:59.023Z,english_646.wav,0,peel,860,40,4,5,français,f,11,1.09391667,-15.24744046,0.4931797
58a23b2b27c3bb00014e6d9a,12,0,2024-02-28T14:35:59.023Z,english_584.wav,0,peel,672,40,4,5,français,f,0,0.0,50.7358721,1.24615014
58a23b2b27c3bb00014e6d9a,12,0,2024-02-28T14:35:59.023Z,english_584.wav,0,peel,672,40,4,5,français,f,1,0.1,-37.41238679,1.8454839
58a23b2b27c3bb00014e6d9a,12,0,2024-02-28T14:35:59.023Z,english_584.wav,0,peel,672,40,4,5,français,f,2,0.2,-21.91541438,1.76277899
58a23b2b27c3bb00014e6d9a,12,0,2024-02-28T14:35:59.023Z,english_584.wav,0,peel,672,40,4,5,français,f,3,0.3,67.49251718,0.88473448
58a23b2b27c3bb00014e6d9a,12,0,2024-02-28T14:35:59.023Z,english_584.wav,0,peel,672,40,4,5,français,f,4,0.4,36.0609863,0.58271182
58a23b2b27c3bb00014e6d9a,12,0,2024-02-28T14:35:59.023Z,english_584.wav,0,peel,672,40,4,5,français,f,5,0.5,29.68399092,1.46602634
58a23b2b27c3bb00014e6d9a,12,0,2024-02-28T14:35:59.023Z,english_584.wav,0,peel,672,40,4,5,français,f,6,0.6,69.24169566,1.79468998
58a23b2b27c3bb00014e6d9a,12,0,2024-02-28T14:35:59.023Z,english_584.wav,0,peel,672,40,4,5,français,f,7,0.7,2.10305954,1.56143928
58a23b2b27c3bb00014e6d9a,12,0,2024-02-28T14:35:59.023Z,english_584.wav,0,peel,672,40,4,5,français,f,8,0.8,23.93501401,0.46568097
58a23b2b27c3bb00014e6d9a,12,0,2024-02-28T14:35:59.023Z,english_584.wav,0,peel,672,40,4,5,français,f,9,0.9,-17.64282744,0.5808441
58a23b2b27c3bb00014e6d9a,12,0,2024-02-28T14:35:59.023Z,english_584.wav,0,peel,672,40,4,5,français,f,10,1.0,80.89116082,1.80196263
58a23b2b27c3bb00014e6d9a,12,0,2024-02-28T14:35:59.023Z,english_584.wav,0,peel,672,40,4,5,français,f,11,1.09391667,-10.99932322,1.58954467
58a23b2b27c3bb00014e6d9a,13,0,2024-02-28T14:35:59.023Z,english_346.wav,0,peel,641,40,4,5,français,f,0,0.0,24.07666509,0.66537663
58a23b2b27c3bb00014e6d9a,13,0,2024-02-28T14:35:59.023Z,english_346.wav,0,peel,641,40,4,5,français,f,1,0.1,-87.64157913,1.54123619
58a23b2b27c3bb00014e6d9a,13,0,2024-02-28T14:35:59.023Z,english_346.wav,0,peel,641,40,4,5,français,f,2,0.2,-51.3970499,0.92348631
58a23b2b27c3bb00014e6d9a,13,0,2024-02-28T14:35:59.023Z,english_346.wav,0,peel,641,40,4,5,français,f,3,0.3,79.45874018,0.33920207
58a23b2b27c3bb00014e6d9a,13,0,2024-02-28T14:35:59.023Z,english_346.wav,0,peel,641,40,4,5,français,f,4,0.4,-74.83031912,0.94433533
58a23b2b27c3bb00014e6d9a,13,0,2024-02-28T14:35:59.023Z,english_346.wav,0,peel,641,40,4,5,français,f,5,0.5,-2.98294823,0.8352321
58a23b2b27c3bb00014e6d9a,13,0,2024-02-28T14:35:59.023Z,english_346.wav,0,peel,641,40,4,5,français,f,6,0.6,-32.38946294,0.95810053
58a23b2b27c3bb00014e6d9a,13,0,2024-02-28T14:35:59.023Z,english_346.wav,0,peel,641,40,4,5,français,f,7,0.7,-24.81590652,0.99822629
58a23b2b27c3bb00014e6d9a,13,0,2024-02-28T14:35:59.023Z,english_346.wav,0,peel,641,40,4,5,français,f,8,0.8,-13.90891955,0.18782062
58a23b2b27c3bb00014e6d9a,13,0,2024-02-28T14:35:59.023Z,english_346.wav,0,peel,641,40,4,5,français,f,9,0.9,-33.49626836,1.6271571
58a23b2b27c3bb00014e6d9a,13,0,2024-02-28T14:35:59.023Z,english_346.wav,0,peel,641,40,4,5,français,f,10,1.0,-23.2144111,1.67158741
58a23b2b27c3bb00014e6d9a,13,0,2024-02-28T14:35:59.023Z,english_346.wav,0,peel,641,40,4,5,français,f,11,1.09391667,-9.66358574,1.16169049
58a23b2b27c3bb00014e6d9a,14,0,2024-02-28T14:35:59.023Z,english_854.wav,0,peel,589,40,4,5,français,f,0,0.0,41.65293518,0.10243767
58a23b2b27c3bb00014e6d9a,14,0,2024-02-28T14:35:59.023Z,english_854.wav,0,peel,589,40,4,5,français,f,1,0.1,12.19905505,1.22737147
58a23b2b27c3bb00014e6d9a,14,0,2024-02-28T14:35:59.023Z,english_854.wav,0,peel,589,40,4,5,français,f,2,0.2,-17.7367635,0.80405871
58a23b2b27c3bb00014e6d9a,14,0,2024-02-28T14:35:59.023Z,english_854.wav,0,peel,589,40,4,5,français,f,3,0.3,82.5511566,1.55191633
58a23b2b27c3bb00014e6d9a,14,0,2024-02-28T14:35:59.023Z,english_854.wav,0,peel,589,40,4,5,français,f,4,0.4,24.18828857,0.00681269
58a23b2b27c3bb00014e6d9a,14,0,2024-02-28T14:35:59.023Z,english_854.wav,0,peel,589,40,4,5,français,f,5,0.5,-37.78588701,1.47971367
58a23b2b27c3bb00014e6d9a,14,0,2024-02-28T14:35:59.023Z,english_854.wav,0,peel,589,40,4,5,français,f,6,0.6,12.42409681,0.34468947
58a23b2b27c3bb00014e6d9a,14,0,2024-02-28T14:35:59.023Z,english_854.wav,0,peel,589,40,4,5,français,f,7,0.7,-1.0486121,0.87101018
58a23b2b27c3bb00014e6d9a,14,0,2024-02-28T14:35:59.023Z,english_854.wav,0,peel,589,40,4,5,français,f,8,0.8,-50.74764629,1.12590191
58a23b2b27c3bb00014e6d9a,14,0,2024-02-28T14:35:59.023Z,english_854.wav,0,peel,589,40,4,5,français,f,9,0.9,-93.36344031,1.039516
58a23b2b27c3bb00014e6d9a,14,0,2024-02-28T14:35:59.023Z,english_854.wav,0,peel,589,40,4,5,français,f,10,1.0,39.91763763,1.26341771
58a23b2b27c3bb00014e6d9a,14,0,2024-02-28T14:35:59.023Z,english_854.wav,0,peel,589,40,4,5,français,f,11,1.09391667,-16.62780594,1.79941384
58a23b2b27c3bb00014e6d9a,15,0,2024-02-28T14:35:59.023Z,english_921.wav,0,pill,721,40,4,5,français,f,0,0.0,31.46476347,1.40929115
58a23b2b27c3bb00014e6d9a,15,0,2024-02-28T14:35:59.023Z,english_921.wav,0,pill,721,40,4,5,français,f,1,0.1,-97.58408055,0.95578469
58a23b2b27c3bb00014e6d9a,15,0,2024-02-28T14:35:59.023Z,english_921.wav,0,pill,721,40,4,5,français,f,2,0.2,54.67506657,1.08840418
58a23b2b27c3bb00014e6d9a,15,0,2024-02-28T14:35:59.023Z,english_921.wav,0,pill,721,40,4,5,français,f,3,0.3,22.21056557,0.27152021
58a23b2b27c3bb00014e6d9a,15,0,2024-02-28T14:35:59.023Z,english_921.wav,0,pill,721,40,4,5,français,f,4,0.4,0.8393727,1.01175766
58a23b2b27c3bb00014e6d9a,15,0,2024-02-28T14:35:59.023Z,english_921.wav,0,pill,721,40,4,5,français,f,5,0.5,-71.57742702,0.91544212
58a23b2b27c3bb00014e6d9a,15,0,2024-02-28T14:35:59.023Z,english_921.wav,0,pill,721,40,4,5,français,f,6,0.6,-21.98162251,1.03161778
58a23b2b27c3bb00014e6d9a,15,0,2024-02-28T14:35:59.023Z,english_921.wav,0,pill,721,40,4,5,français,f,7,0.7,-45.34354294,1.69417828
58a23b2b27c3bb00014e6d9a,15,0,2024-02-28T14:35:59.023Z,english_921.wav,0,pill,721,40,4,5,français,f,8,0.8,-54.46580015,1.14800845
58a23b2b27c3bb00014e6d9a,15,0,2024-02-28T14:35:59.023Z,english_921.wav,0,pill,721,40,4,5,français,f,9,0.9,-33.00243687,1.17008377
58a23b2b27c3bb00014e6d9a,15,0,2024-02-28T14:35:59.023Z,english_921.wav,0,pill,721,40,4,5,français,f,10,1.0,45.39245913,0.19449602
58a23b2b27c3bb00014e6d9a,15,0,2024-02-28T14:35:59.023Z,english_921.wav,0,pill,721,40,4,5,français,f,11,1.09391667,-24.69054897,1.58975603
58a23b2b27c3bb00014e6d9a,16,0,2024-02-28T14:35:59.023Z,english_970.wav,0,pill,721,40,4,5,français,f,0,0.0,-54.89447986,0.81951556
58a23b2b27c3bb00014e6d9a,16,0,2024-02-28T14:35:59.023Z,english_970.wav,0,pill,721,40,4,5,français,f,1,0.1,25.1169893,1.67117432
58a23b2b27c3bb00014e6d9a,16,0,2024-02-28T14:35:59.023Z,english_970.wav,0,pill,721,40,4,5,français,f,2,0.2,-40.43511265,1.15867829
58a23b2b27c3bb00014e6d9a,16,0,2024-02-28T14:35:59.023Z,english_970.wav,0,pill,721,40,4,5,français,f,3,0.3,-62.36717191,1.19627059
58a23b2b27c3bb00014e6d9a,16,0,2024-02-28T14:35:59.023Z,english_970.wav,0,pill,721,40,4,5,français,f,4,0.4,-52.87769156,1.65204518
58a23b2b27c3bb00014e6d9a,16,0,2024-02-28T14:35:59.023Z,english_970.wav,0,pill,721,40,4,5,français,f,5,0.5,-60.51030312,1.89905296
58a23b2b27c3bb00014e6d9a,16,0,2024-02-28T14:35:59.023Z,english_970.wav,0,pill,721,40,4,5,français,f,6,0.6,-20.66217752,1.49874094
58a23b2b27c3bb00014e6d9a,16,0,2024-02-28T14:35:59.023Z,english_970.wav,0,pill,721,40,4,5,français,f,7,0.7,39.3890126,1.49402448
58a23b2b27c3bb00014e6d9a,16,0,2024-02-28T14:35:59.023Z,english_970.wav,0,pill,721,40,4,5,français,f,8,0.8,-42.20316614,0.52089687
58a23b2b27c3bb00014e6d9a,16,0,2024-02-28T14:35:59.023Z,english_970.wav,0,pill,721,40,4,5,français,f,9,0.9,-5.07453967,0.54496633
58a23b2b27c3bb00014e6d9a,16,0,2024-02-28T14:35:59.023Z,english_970.wav,0,pill,721,40,4,5,français,f,10,1.0,63.70783578,0.14699143
58a23b2b27c3bb00014e6d9a,16,0,2024-02-28T14:35:59.023Z,english_970.wav,0,pill,721,40,4,5,français,f,11,1.09391667,15.89619138,0.8383136
58a23b2b27c3bb00014e6d9a,17,0,2024-02-28T14:35:59.023Z,english_590.wav,0,pill,1500,40,4,5,français,f,0,0.0,24.53986414,1.78897409
58a23b2b27c3bb00014e6d9a,17,0,2024-02-28T14:35:59.023Z,english_590.wav,0,pill,1500,40,4,5,français,f,1,0.1,62.74729121,1.71743114
58a23b2b27c3bb00014e6d9a,17,0,2024-02-28T14:35:59.023Z,english_590.wav,0,pill,1500,40,4,5,français,f,2,0.2,-6.99692864,1.45844579
58a23b2b27c3bb00014e6d9a,17,0,2024-02-28T14:35:59.023Z,english_590.wav,0,pill,1500,40,4,5,français,f,3,0.3,32.91070415,0.05079794
58a23b2b27c3bb00014e6d9a,17,0,2024-02-28T14:35:59.023Z,english_590.wav,0,pill,1500,40,4,5,français,f,4,0.4,54.80975448,1.44685897
58a23b2b27c3bb00014e6d9a,17,0,2024-02-28T14:35:59.023Z,english_590.wav,0,pill,1500,40,4,5,français,f,5,0.5,24.32530029,0.6322235
58a23b2b27c3bb00014e6d9a,17,0,2024-02-28T14:35:59.023Z,english_590.wav,0,pill,1500,40,4,5,français,f,6,0.6,16.29432048,1.01805408
58a23b2b27c3bb00014e6d9a,17,0,2024-02-28T14:35:59.023Z,english_590.wav,0,pill,1500,40,4,5,français,f,7,0.7,-66.06817006,0.32502854
58a23b2b27c3bb00014e6d9a,17,0,2024-02-28T14:35:59.023Z,english_590.wav,0,pill,1500,40,4,5,français,f,8,0.8,-90.96676801,1.20600442
58a23b2b27c3bb00014e6d9a,17,0,2024-02-28T14:35:59.023Z,english_590.wav,0,pill,1500,40,4,5,français,f,9,0.9,-4.67977612,0.69143843
58a23b2b27c3bb00014e6d9a,17,0,2024-02-28T14:35:59.023Z,english_590.wav,0,pill,1500,40,4,5,français,f,10,1.0,-25.79105575,0.12523546
58a23b2b27c3bb00014e6d9a,17,0,2024-02-28T14:35:59.023Z,english_590.wav,0,pill,1500,40,4,5,français,f,11,1.09391667,-43.70584136,1.95537842
58a23b2b27c3bb00014e6d9a,18,0,2024-02-28T14:35:59.023Z,english_469.wav,0,pill,942,40,4,5,français,f,0,0.0,-33.27051151,1.91972156
58a23b2b27c3bb00014e6d9a,18,0,2024-02-28T14:35:59.023Z,english_469.wav,0,pill,942,40,4,5,français,f,1,0.1,-94.55728016,0.89758894
58a23b2b27c3bb00014e6d9a,18,0,2024-02-28T14:35:59.023Z,english_469.wav,0,pill,942,40,4,5,français,f,2,0.2,-24.34554111,0.14767308
58a23b2b27c3bb00014e6d9a,18,0,2024-02-28T14:35:59.023Z,english_469.wav,0,pill,942,40,4,5,français,f,3,0.3,16.33493977,0.88925412
58a23b2b27c3bb00014e6d9a,18,0,2024-02-28T14:35:59.023Z,english_469.wav,0,pill,942,40,4,5,français,f,4,0.4,-66.14325269,0.02970636
58a23b2b27c3bb00014e6d9a,18,0,2024-02-28T14:35:59.023Z,english_469.wav,0,pill,942,40,4,5,français,f,5,0.5,-2.40335162,0.16070031
58a23b2b27c3bb00014e6d9a,18,0,2024-02-28T14:35:59.023Z,english_469.wav,0,pill,942,40,4,5,français,f,6,0.6,-87.80607373,0.0970541
58a23b2b27c3bb00014e6d9a,18,0,2024-02-28T14:35:59.023Z,english_469.wav,0,pill,942,40,4,5,français,f,7,0.7,34.04653441,1.25032873
58a23b2b27c3bb00014e6d9a,18,0,2024-02-28T14:35:59.023Z,english_469.wav,0,pill,942,40,4,5,français,f,8,0.8,53.31501889,1.92087852
58a23b2b27c3bb00014e6d9a,18,0,2024-02-28T14:35:59.023Z,english_469.wav,0,pill,942,40,4,5,français,f,9,0.9,-70.89291525,0.56083362
58a23b2b27c3bb00014e6d9a,18,0,2024-02-28T14:35:59.023Z,english_469.wav,0,pill,942,40,4,5,français,f,10,1.0,35.01344624,0.78804248
58a23b2b27c3bb00014e6d9a,18,0,2024-02-28T14:35:59.023Z,english_469.wav,0,pill,942,40,4,5,français,f,11,1.09391667,15.03691984,0.71632164
58a23b2b27c3bb00014e6d9a,19,0,2024-02-28T14:35:59.023Z,english_140.wav,0,peel,623,40,4,5,français,f,0,0.0,3.17682923,0.87887046
58a23b2b27c3bb00014e6d9a,19,0,2024-02-28T14:35:59.023Z,english_140.wav,0,peel,623,40,4,5,français,f,1,0.1,6.35877152,0.507187
58a23b2b27c3bb00014e6d9a,19,0,2024-02-28T14:35:59.023Z,english_140.wav,0,peel,623,40,4,5,français,f,2,0.2,-9.02165969,0.30654511
58a23b2b27c3bb00014e6d9a,19,0,2024-02-28T14:35:59.023Z,english_140.wav,0,peel,623,40,4,5,français,f,3,0.3,-36.47269085,0.61695793
58a23b2b27c3bb00014e6d9a,19,0,2024-02-28T14:35:59.023Z,english_140.wav,0,peel,623,40,4,5,français,f,4,0.4,-72.32699921,1.67577575
58a23b2b27c3bb00014e6d9a,19,0,2024-02-28T14:35:59.023Z,english_140.wav,0,peel,623,40,4,5,français,f,5,0.5,-28.69942826,0.30689604
58a23b2b27c3bb00014e6d9a,19,0,2024-02-28T14:35:59.023Z,english_140.wav,0,peel,623,40,4,5,français,f,6,0.6,68.422362,1.73923813
58a23b2b27c3bb00014e6d9a,19,0,2024-02-28T14:35:59.023Z,english_140.wav,0,peel,623,40,4,5,français,f,7,0.7,-32.97741766,1.33940979
58a23b2b27c3bb00014e6d9a,19,0,2024-02-28T14:35:59.023Z,english_140.wav,0,peel,623,40,4,5,français,f,8,0.8,-98.50350873,1.86246524
58a23b2b27c3bb00014e6d9a,19,0,2024-02-28T14:35:59.023Z,english_140.wav,0,peel,623,40,4,5,français,f,9,0.9,4.47546112,0.68629119
58a23b2b27c3bb00014e6d9a,19,0,2024-02-28T14:35:59.023Z,english_140.wav,0,peel,623,40,4,5,français,f,10,1.0,-70.93750026,1.82050493
58a23b2b27c3bb00014e6d9a,19,0,2024-02-28T14:35:59.023Z,english_140.wav,0,peel,623,40,4,5,français,f,11,1.09391667,36.42764636,1.04858085
58a23b2b27c3bb00014e6d9a,20,0,2024-02-28T14:35:59.023Z,english_940.wav,0,pill,1936,40,4,5,français,f,0,0.0,-74.78707904,1.32849745
58a23b2b27c3bb00014e6d9a,20,0,2024-02-28T14:35:59.023Z,english_940.wav,0,pill,1936,40,4,5,français,f,1,0.1,-17.41948052,0.12464251
58a23b2b27c3bb00014e6d9a,20,0,2024-02-28T14:35:59.023Z,english_940.wav,0,pill,1936,40,4,5,français,f,2,0.2,18.32757183,1.60919877
58a23b2b27c3bb00014e6d9a,20,0,2024-02-28T14:35:59.023Z,english_940.wav,0,pill,1936,40,4,5,français,f,3,0.3,49.59676146,1.26515186
58a23b2b27c3bb00014e6d9a,20,0,2024-02-28T14:35:59.023Z,english_940.wav,0,pill,1936,40,4,5,français,f,4,0.4,89.11302511,0.36425632
58a23b2b27c3bb00014e6d9a,20,0,2024-02-28T14:35:59.023Z,english_940.wav,0,pill,1936,40,4,5,français,f,5,0.5,-54.90271493,0.18773625
58a23b2b27c3bb00014e6d9a,20,0,2024-02-28T14:35:59.023Z,english_940.wav,0,pill,1936,40,4,5,français,f,6,0.6,5.52128104,1.95544511
58a23b2b27c3bb00014e6d9a,20,0,2024-02-28T14:35:59.023Z,english_940.wav,0,pill,1936,40,4,5,français,f,7,0.7,6.34300122,0.05018426
58a23b2b27c3bb00014e6d9a,20,0,2024-02-28T14:35:59.023Z,english_940.wav,0,pill,1936,40,4,5,français,f,8,0.8,-52.23900499,0.91238744
58a23b2b27c3bb00014e6d9a,20,0,2024-02-28T14:35:59.023Z,english_940.wav,0,pill,1936,40,4,5,français,f,9,0.9,-91.70083374,1.89571163
58a23b2b27c3bb00014e6d9a,20,0,2024-02-28T14:35:59.023Z,english_940.wav,0,pill,1936,40,4,5,français,f,10,1.0,-59.86037194,1.52579837
58a23b2b27c3bb00014e6d9a,20,0,2024-02-28T14:35:59.023Z,english_940.wav,0,pill,1936,40,4,5,français,f,11,1.09391667,44.21269836,0.42550386
58a23b2b27c3bb00014e6d9a,21,0,2024-02-28T14:35:59.023Z,english_988.wav,0,peel,624,40,4,5,français,f,0,0.0,41.01121176,1.79508408
58a23b2b27c3bb00014e6d9a,21,0,2024-02-28T14:35:59.023Z,english_988.wav,0,peel,624,40,4,5,français,f,1,0.1,-57.00509923,0.91683768
58a23b2b27c3bb00014e6d9a,21,0,2024-02-28T14:35:59.023Z,english_988.wav,0,peel,624,40,4,5,français,f,2,0.2,-47.7423933,0.75632301
58a23b2b27c3bb00014e6d9a,21,0,2024-02-28T14:35:59.023Z,english_988.wav,0,peel,624,40,4,5,français,f,3,0.3,-45.09224268,0.50123111
58a23b2b27c3bb00014e6d9a,21,0,2024-02-28T14:35:59.023Z,english_988.wav,0,peel,624,40,4,5,français,f,4,0.4,-86.23747248,1.43218642
58a23b2b27c3bb00014e6d9a,21,0,2024-02-28T14:35:59.023Z,english_988.wav,0,peel,624,40,4,5,français,f,5,0.5,32.23270896,1.02417726
58a23b2b27c3bb00014e6d9a,21,0,2024-02-28T14:35:59.023Z,english_988.wav,0,peel,624,40,4,5,français,f,6,0.6,83.03664367,0.26646991
58a23b2b27c3bb00014e6d9a,21,0,2024-02-28T14:35:59.023Z,english_988.wav,0,peel,624,40,4,5,français,f,7,0.7,23.13228138,0.55372386
58a23b2b27c3bb00014e6d9a,21,0,2024-02-28T14:35:59.023Z,english_988.wav,0,peel,624,40,4,5,français,f,8,0.8,-80.96876175,1.25427564
58a23b2b27c3bb00014e6d9a,21,0,2024-02-28T14:35:59.023Z,english_988.wav,0,peel,624,40,4,5,français,f,9,0.9,85.87163391,1.46901823
58a23b2b27c3bb00014e6d9a,21,0,2024-02-28T14:35:59.023Z,english_988.wav,0,peel,624,40,4,5,français,f,10,1.0,65.98257536,1.62105321
58a23b2b27c3bb00014e6d9a,21,0,2024-02-28T14:35:59.023Z,english_988.wav,0,peel,624,40,4,5,français,f,11,1.09391667,8.92791605,1.15707193
58a23b2b27c3bb00014e6d9a,22,0,2024-02-28T14:35:59.023Z,english_619.wav,0,peel,2406,40,4,5,français,f,0,0.0,-41.0924044,1.71942116
58a23b2b27c3bb00014e6d9a,22,0,2024-02-28T14:35:59.023Z,english_619.wav,0,peel,2406,40,4,5,français,f,1,0.1,-7.96280913,1.03534148
58a23b2b27c3bb00014e6d9a,22,0,2024-02-28T14:35:59.023Z,english_619.wav,0,peel,2406,40,4,5,français,f,2,0.2,-87.23866402,1.90474628
58a23b2b27c3bb00014e6d9a,22,0,2024-02-28T14:35:59.023Z,english_619.wav,0,peel,2406,40,4,5,français,f,3,0.3,-49.33627733,1.25465254
58a23b2b27c3bb00014e6d9a,22,0,2024-02-28T14:35:59.023Z,english_619.wav,0,peel,2406,40,4,5,français,f,4,0.4,-9.049641,0.872658
58a23b2b27c3bb00014e6d9a,22,0,2024-02-28T14:35:59.023Z,english_619.wav,0,peel,2406,40,4,5,français,f,5,0.5,-44.96771142,0.88442624
58a23b2b27c3bb00014e6d9a,22,0,2024-02-28T14:35:59.023Z,english_619.wav,0,peel,2406,40,4,5,français,f,6,0.6,-40.79885207,0.90889779
58a23b2b27c3bb00014e6d9a,22,0,2024-02-28T14:35:59.023Z,english_619.wav,0,peel,2406,40,4,5,français,f,7,0.7,40.82825876,0.65121567
58a23b2b27c3bb00014e6d9a,22,0,2024-02-28T14:35:59.023Z,english_619.wav,0,peel,2406,40,4,5,français,f,8,0.8,-20.59710474,0.05436153
58a23b2b27c3bb00014e6d9a,22,0,2024-02-28T14:35:59.023Z,english_619.wav,0,peel,2406,40,4,5,français,f,9,0.9,39.88878166,1.54961319
58a23b2b27c3bb00014e6d9a,22,0,2024-02-28T14:35:59.023Z,english_619.wav,0,peel,2406,40,4,5,français,f,10,1.0,26.7856421,0.36194851
58a23b2b27c3bb00014e6d9a,22,0,2024-02-28T14:35:59.023Z,english_619.wav,0,peel,2406,40,4,5,français,f,11,1.09391667,40.93095409,0.79464548
58a23b2b27c3bb00014e6d9a,23,0,2024-02-28T14:35:59.023Z,english_177.wav,0,peel,981,40,4,5,français,f,0,0.0,-57.81596748,0.69761869
58a23b2b27c3bb00014e6d9a,23,0,2024-02-28T14:35:59.023Z,english_177.wav,0,peel,981,40,4,5,français,f,1,0.1,-87.62944192,1.53783025
58a23b2b27c3bb00014e6d9a,23,0,2024-02-28T14:35:59.023Z,english_177.wav,0,peel,981,40,4,5,français,f,2,0.2,-12.74583394,0.70741291
58a23b2b27c3bb00014e6d9a,23,0,2024-02-28T14:35:59.023Z,english_177.wav,0,peel,981,40,4,5,français,f,3,0.3,-2.66394442,0.02843329
58a23b2b27c3bb00014e6d9a,23,0,2024-02-28T14:35:59.023Z,english_177.wav,0,peel,981,40,4,5,français,f,4,0.4,28.11680056,0.56005584
58a23b2b27c3bb00014e6d9a,23,0,2024-02-28T14:35:59.023Z,english_177.wav,0,peel,981,40,4,5,français,f,5,0.5,82.07769197,0.13324212
58a23b2b27c3bb00014e6d9a,23,0,2024-02-28T14:35:59.023Z,english_177.wav,0,peel,981,40,4,5,français,f,6,0.6,-8.30720051,0.4590918
58a23b2b27c3bb00014e6d9a,23,0,2024-02-28T14:35:59.023Z,english_177.wav,0,peel,981,40,4,5,français,f,7,0.7,81.97133583,1.98307648
58a23b2b27c3bb00014e6d9a,23,0,2024-02-28T14:35:59.023Z,english_177.wav,0,peel,981,40,4,5,français,f,8,0.8,50.88605448,1.78311129
58a23b2b27c3bb00014e6d9a,23,0,2024-02-28T14:35:59.023Z,english_177.wav,0,peel,981,40,4,5,français,f,9,0.9,19.94892862,0.31041574
58a23b2b27c3bb00014e6d9a,23,0,2024-02-28T14:35:59.023Z,english_177.wav,0,peel,981,40,4,5,français,f,10,1.0,38.05594955,0.36871164
58a23b2b27c3bb00014e6d9a,23,0,2024-02-28T14:35:59.023Z,english_177.wav,0,peel,981,40,4,5,français,f,11,1.09391667,14.05932683,1.41932356
58a23b2b27c3bb00014e6d9a,24,0,2024-02-28T14:35:59.023Z,english_446.wav,0,pill,2851,40,4,5,français,f,0,0.0,-71.72833513,0.37077237
58a23b2b27c3bb00014e6d9a,24,0,2024-02-28T14:35:59.023Z,english_446.wav,0,pill,2851,40,4,5,français,f,1,0.1,-14.74031919,0.56990881
58a23b2b27c3bb00014e6d9a,24,0,2024-02-28T14:35:59.023Z,english_446.wav,0,pill,2851,40,4,5,français,f,2,0.2,-21.83541147,1.59729725
58a23b2b27c3bb00014e6d9a,24,0,2024-02-28T14:35:59.023Z,english_446.wav,0,pill,2851,40,4,5,français,f,3,0.3,-67.51881517,1.97035771
58a23b2b27c3bb00014e6d9a,24,0,2024-02-28T14:35:59.023Z,english_446.wav,0,pill,2851,40,4,5,français,f,4,0.4,-91.38875442,0.52850963
58a23b2b27c3bb00014e6d9a,24,0,2024-02-28T14:35:59.023Z,english_446.wav,0,pill,2851,40,4,5,français,f,5,0.5,6.74447183,1.74112616
58a23b2b27c3bb00014e6d9a,24,0,2024-02-28T14:35:59.023Z,english_446.wav,0,pill,2851,40,4,5,français,f,6,0.6,26.61618155,0.02543003
58a23b2b27c3bb00014e6d9a,24,0,2024-02-28T14:35:59.023Z,english_446.wav,0,pill,2851,40,4,5,français,f,7,0.7,72.29706337,0.19739553
58a23b2b27c3bb00014e6d9a,24,0,2024-02-28T14:35:59.023Z,english_446.wav,0,pill,2851,40,4,5,français,f,8,0.8,58.26898218,0.10712319
58a23b2b27c3bb00014e6d9a,24,0,2024-02-28T14:35:59.023Z,english_446.wav,0,pill,2851,40,4,5,français,f,9,0.9,30.44634512,0.63352141
58a23b2b27c3bb00014e6d9a,24,0,2024-02-28T14:35:59.023Z,english_446.wav,0,pill,2851,40,4,5,français,f,10,1.0,-17.84842899,1.44239476
58a23b2b27c3bb00014e6d9a,24,0,2024-02-28T14:35:59.023Z,english_446.wav,0,pill,2851,40,4,5,français,f,11,1.09391667,-24.00080187,0.76601062
58a23b2b27c3bb00014e6d9a,25,0,2024-02-28T14:35:59.023Z,english_329.wav,0,pill,817,40,4,5,français,f,0,0.0,-73.5267518,0.87153309
58a23b2b27c3bb00014e6d9a,25,0,2024-02-28T14:35:59.023Z,english_329.wav,0,pill,817,40,4,5,français,f,1,0.1,26.40936661,1.24873758
58a23b2b27c3bb00014e6d9a,25,0,2024-02-28T14:35:59.023Z,english_329.wav,0,pill,817,40,4,5,français,f,2,0.2,95.94954551,0.87594124
58a23b2b27c3bb00014e6d9a,25,0,2024-02-28T14:35:59.023Z,english_329.wav,0,pill,817,40,4,5,français,f,3,0.3,-92.18268605,0.88012103
58a23b2b27c3bb00014e6d9a,25,0,2024-02-28T14:35:59.023Z,english_329.wav,0,pill,817,40,4,5,français,f,4,0.4,-98.10910069,1.62824367
58a23b2b27c3bb00014e6d9a,25,0,2024-02-28T14:35:59.023Z,english_329.wav,0,pill,817,40,4,5,français,f,5,0.5,-61.34103681,1.41725229
58a23b2b27c3bb00014e6d9a,25,0,2024-02-28T14:35:59.023Z,english_329.wav,0,pill,817,40,4,5,français,f,6,0.6,34.88723994,1.27607992
58a23b2b27c3bb00014e6d9a,25,0,2024-02-28T14:35:59.023Z,english_329.wav,0,pill,817,40,4,5,français,f,7,0.7,66.83835425,0.30685243
58a23b2b27c3bb00014e6d9a,25,0,2024-02-28T14:35:59.023Z,english_329.wav,0,pill,817,40,4,5,français,f,8,0.8,-67.43059972,0.43279956
58a23b2b27c3bb00014e6d9a,25,0,2024-02-28T14:35:59.023Z,english_329.wav,0,pill,817,40,4,5,français,f,9,0.9,51.12526405,0.74557381
58a23b2b27c3bb00014e6d9a,25,0,2024-02-28T14:35:59.023Z,english_329.wav,0,pill,817,40,4,5,français,f,10,1.0,-25.5134348,0.84179224
58a23b2b27c3bb00014e6d9a,25,0,2024-02-28T14:35:59.023Z,english_329.wav,0,pill,817,40,4,5,français,f,11,1.09391667,-82.24978729,0.84260005
58a23b2b27c3bb00014e6d9a,26,0,2024-02-28T14:35:59.023Z,english_283.wav,0,peel,508,40,4,5,français,f,0,0.0,-12.90091121,0.5789399
58a23b2b27c3bb00014e6d9a,26,0,2024-02-28T14:35:59.023Z,english_283.wav,0,peel,508,40,4,5,français,f,1,0.1,42.27249946,1.95381107
58a23b2b27c3bb00014e6d9a,26,0,2024-02-28T14:35:59.023Z,english_283.wav,0,peel,508,40,4,5,français,f,2,0.2,5.12381798,1.0168321
58a23b2b27c3bb00014e6d9a,26,0,2024-02-28T14:35:59.023Z,english_283.wav,0,peel,508,40,4,5,français,f,3,0.3,1.7675065,0.61202955
58a23b2b27c3bb00014e6d9a,26,0,2024-02-28T14:35:59.023Z,english_283.wav,0,peel,508,40,4,5,français,f,4,0.4,-21.55461961,0.89680875
58a23b2b27c3bb00014e6d9a,26,0,2024-02-28T14:35:59.023Z,english_283.wav,0,peel,508,40,4,5,français,f,5,0.5,-31.65586282,1.15056599
58a23b2b27c3bb00014e6d9a,26,0,2024-02-28T14:35:59.023Z,english_283.wav,0,peel,508,40,4,5,français,f,6,0.6,20.15160145,0.34242076
58a23b2b27c3bb00014e6d9a,26,0,2024-02-28T14:35:59.023Z,english_283.wav,0,peel,508,40,4,5,français,f,7,0.7,82.41987013,1.76180701
58a23b2b27c3bb00014e6d9a,26,0,2024-02-28T14:35:59.023Z,english_283.wav,0,peel,508,40,4,5,français,f,8,0.8,59.09454669,0.95604839
58a23b2b27c3bb00014e6d9a,26,0,2024-02-28T14:35:59.023Z,english_283.wav,0,peel,508,40,4,5,français,f,9,0.9,36.30583869,1.86733505
58a23b2b27c3bb00014e6d9a,26,0,2024-02-28T14:35:59.023Z,english_283.wav,0,peel,508,40,4,5,français,f,10,1.0,-40.78038553,1.17388738
58a23b2b27c3bb00014e6d9a,26,0,2024-02-28T14:35:59.023Z,english_283.wav,0,peel,508,40,4,5,français,f,11,1.09391667,39.65520312,1.73016304
58a23b2b27c3bb00014e6d9a,27,0,2024-02-28T14:35:59.023Z,english_74.wav,0,peel,709,40,4,5,français,f,0,0.0,24.65162801,0.19950325
58a23b2b27c3bb00014e6d9a,27,0,2024-02-28T14:35:59.023Z,english_74.wav,0,peel,709,40,4,5,français,f,1,0.1,-30.39880554,1.43111439
58a23b2b27c3bb00014e6d9a,27,0,2024-02-28T14:35:59.023Z,english_74.wav,0,peel,709,40,4,5,français,f,2,0.2,-41.38450202,0.7414266
58a23b2b27c3bb00014e6d9a,27,0,2024-02-28T14:35:59.023Z,english_74.wav,0,peel,709,40,4,5,français,f,3,0.3,31.11276598,1.07627737
58a23b2b27c3bb00014e6d9a,27,0,2024-02-28T14:35:59.023Z,english_74.wav,0,peel,709,40,4,5,français,f,4,0.4,-57.65294567,1.92323622
58a23b2b27c3bb00014e6d9a,27,0,2024-02-28T14:35:59.023Z,english_74.wav,0,peel,709,40,4,5,français,f,5,0.5,-51.69576528,1.17854767
58a23b2b27c3bb00014e6d9a,27,0,2024-02-28T14:35:59.023Z,english_74.wav,0,peel,709,40,4,5,français,f,6,0.6,24.90932223,0.17974996
58a23b2b27c3bb00014e6d9a,27,0,2024-02-28T14:35:59.023Z,english_74.wav,0,peel,709,40,4,5,français,f,7,0.7,-33.10450871,0.92482308
58a23b2b27c3bb00014e6d9a,27,0,2024-02-28T14:35:59.023Z,english_74.wav,0,peel,709,40,4,5,français,f,8,0.8,-69.97293112,0.31413891
58a23b2b27c3bb00014e6d9a,27,0,2024-02-28T14:35:59.023Z,english_74.wav,0,peel,709,40,4,5,français,f,9,0.9,88.74386832,1.87630938
58a23b2b27c3bb00014e6d9a,27,0,2024-02-28T14:35:59.023Z,english_74.wav,0,peel,709,40,4,5,français,f,10,1.0,-68.30431972,1.39265686
58a23b2b27c3bb00014e6d9a,27,0,2024-02-28T14:35:59.023Z,english_74.wav,0,peel,709,40,4,5,français,f,11,1.09391667,-30.20733398,0.32158433
58a23b2b27c3bb00014e6d9a,28,0,2024-02-28T14:35:59.023Z,english_10.wav,0,peel,798,40,4,5,français,f,0,0.0,-15.04153425,1.52083452
58a23b2b27c3bb00014e6d9a,28,0,2024-02-28T14:35:59.023Z,english_10.wav,0,peel,798,40,4,5,français,f,1,0.1,-57.22263716,1.29896522
58a23b2b27c3bb00014e6d9a,28,0,2024-02-28T14:35:59.023Z,english_10.wav,0,peel,798,40,4,5,français,f,2,0.2,27.92618044,0.38561389
58a23b2b27c3bb00014e6d9a,28,0,2024-02-28T14:35:59.023Z,english_10.wav,0,peel,798,40,4,5,français,f,3,0.3,25.5799778,0.99686674
58a23b2b27c3bb00014e6d9a,28,0,2024-02-28T14:35:59.023Z,english_10.wav,0,peel,798,40,4,5,français,f,4,0.4,30.11064479,0.6118482
58a23b2b27c3bb00014e6d9a,28,0,2024-02-28T14:35:59.023Z,english_10.wav,0,peel,798,40,4,5,français,f,5,0.5,-7.71764525,1.86037541
58a23b2b27c3bb00014e6d9a,28,0,2024-02-28T14:35:59.023Z,english_10.wav,0,peel,798,40,4,5,français,f,6,0.6,27.65902171,0.71941397
58a23b2b27c3bb00014e6d9a,28,0,2024-02-28T14:35:59.023Z,english_10.wav,0,peel,798,40,4,5,français,f,7,0.7,-47.57621095,1.21671158
58a23b2b27c3bb00014e6d9a,28,0,2024-02-28T14:35:59.023Z,english_10.wav,0,peel,798,40,4,5,français,f,8,0.8,43.99977355,1.36149686
58a23b2b27c3bb00014e6d9a,28,0,2024-02-28T14:35:59.023Z,english_10.wav,0,peel,798,40,4,5,français,f,9,0.9,-15.79441044,0.57839438
58a23b2b27c3bb00014e6d9a,28,0,2024-02-28T14:35:59.023Z,english_10.wav,0,peel,798,40,4,5,français,f,10,1.0,-34.81966507,0.86495111
58a23b2b27c3bb00014e6d9a,28,0,2024-02-28T14:35:59.023Z,english_10.wav,0,peel,798,40,4,5,français,f,11,1.09391667,60.77971601,0.19592518
58a23b2b27c3bb00014e6d9a,29,0,2024-02-28T14:35:59.023Z,english_557.wav,0,peel,1684,40,4,5,français,f,0,0.0,-36.00437951,0.86268568
58a23b2b27c3bb00014e6d9a,29,0,2024-02-28T14:35:59.023Z,english_557.wav,0,peel,1684,40,4,5,français,f,1,0.1,-36.18192477,0.78818346
58a23b2b27c3bb00014e6d9a,29,0,2024-02-28T14:35:59.023Z,english_557.wav,0,peel,1684,40,4,5,français,f,2,0.2,-76.46214854,0.88104775
58a23b2b27c3bb00014e6d9a,29,0,2024-02-28T14:35:59.023Z,english_557.wav,0,peel,1684,40,4,5,français,f,3,0.3,-9.78546514,0.51957323
58a23b2b27c3bb00014e6d9a,29,0,2024-02-28T14:35:59.023Z,english_557.wav,0,peel,1684,40,4,5,français,f,4,0.4,-53.27937245,1.84624381
58a23b2b27c3bb00014e6d9a,29,0,2024-02-28T14:35:59.023Z,english_557.wav,0,peel,1684,40,4,5,français,f,5,0.5,14.69737181,0.53524469
58a23b2b27c3bb00014e6d9a,29,0,2024-02-28T14:35:59.023Z,english_557.wav,0,peel,1684,40,4,5,français,f,6,0.6,-76.22217722,0.83895898
58a23b2b27c3bb00014e6d9a,29,0,2024-02-28T14:35:59.023Z,english_557.wav,0,peel,1684,40,4,5,français,f,7,0.7,76.26393568,0.4548877
58a23b2b27c3bb00014e6d9a,29,0,2024-02-28T14:35:59.023Z,english_557.wav,0,peel,1684,40,4,5,français,f,8,0.8,-62.02007028,1.59917341
58a23b2b27c3bb00014e6d9a,29,0,2024-02-28T14:35:59.023Z,english_557.wav,0,peel,1684,40,4,5,français,f,9,0.9,73.18804903,0.63690232
58a23b2b27c3bb00014e6d9a,29,0,2024-02-28T14:35:59.023Z,english_557.wav,0,peel,1684,40,4,5,français,f,10,1.0,75.91755358,1.04600017
58a23b2b27c3bb00014e6d9a,29,0,2024-02-28T14:35:59.023Z,english_557.wav,0,peel,1684,40,4,5,français,f,11,1.09391667,-37.39944408,0.42796411
58a23b2b27c3bb00014e6d9a,30,0,2024-02-28T14:35:59.023Z,english_547.wav,0,peel,607,40,4,5,français,f,0,0.0,-84.56242422,0.88058973
58a23b2b27c3bb00014e6d9a,30,0,2024-02-28T14:35:59.023Z,english_547.wav,0,peel,607,40,4,5,français,f,1,0.1,99.9800097,1.57875619
58a23b2b27c3bb00014e6d9a,30,0,2024-02-28T14:35:59.023Z,english_547.wav,0,peel,607,40,4,5,français,f,2,0.2,-74.27935954,1.10539411
58a23b2b27c3bb00014e6d9a,30,0,2024-02-28T14:35:59.023Z,english_547.wav,0,peel,607,40,4,5,français,f,3,0.3,89.44673422,1.02984743
58a23b2b27c3bb00014e6d9a,30,0,2024-02-28T14:35:59.023Z,english_547.wav,0,peel,607,40,4,5,français,f,4,0.4,-91.74996992,1.38707534
58a23b2b27c3bb00014e6d9a,30,0,2024-02-28T14:35:59.023Z,english_547.wav,0,peel,607,40,4,5,français,f,5,0.5,-18.76785599,1.26965367
58a23b2b27c3bb00014e6d9a,30,0,2024-02-28T14:35:59.023Z,english_547.wav,0,peel,607,40,4,5,français,f,6,0.6,-51.12732076,1.25509145
58a23b2b27c3bb00014e6d9a,30,0,2024-02-28T14:35:59.023Z,english_547.wav,0,peel,607,40,4,5,français,f,7,0.7,14.86623417,1.52290103
58a23b2b27c3bb00014e6d9a,30,0,2024-02-28T14:35:59.023Z,english_547.wav,0,peel,607,40,4,5,français,f,8,0.8,92.41843581,1.30528153
58a23b2b27c3bb00014e6d9a,30,0,2024-02-28T14:35:59.023Z,english_547.wav,0,peel,607,40,4,5,français,f,9,0.9,81.77291175,0.94706354
58a23b2b27c3bb00014e6d9a,30,0,2024-02-28T14:35:59.023Z,english_547.wav,0,peel,607,40,4,5,français,f,10,1.0,63.1035346,1.72712252
58a23b2b27c3bb00014e6d9a,30,0,2024-02-28T14:35:59.023Z,english_547.wav,0,peel,607,40,4,5,français,f,11,1.09391667,48.67701743,1.8227726
58a23b2b27c3bb00014e6d9a,31,0,2024-02-28T14:35:59.023Z,english_404.wav,0,peel,700,40,4,5,français,f,0,0.0,51.0629149,0.92872816
58a23b2b27c3bb00014e6d9a,31,0,2024-02-28T14:35:59.023Z,english_404.wav,0,peel,700,40,4,5,français,f,1,0.1,-20.11660717,1.09197178
58a23b2b27c3bb00014e6d9a,31,0,2024-02-28T14:35:59.023Z,english_404.wav,0,peel,700,40,4,5,français,f,2,0.2,-24.08850376,1.28516423
58a23b2b27c3bb00014e6d9a,31,0,2024-02-28T14:35:59.023Z,english_404.wav,0,peel,700,40,4,5,français,f,3,0.3,-31.42467522,0.67196706
58a23b2b27c3bb00014e6d9a,31,0,2024-02-28T14:35:59.023Z,english_404.wav,0,peel,700,40,4,5,français,f,4,0.4,53.01415625,0.26298551
58a23b2b27c3bb00014e6d9a,31,0,2024-02-28T14:35:59.023Z,english_404.wav,0,peel,700,40,4,5,français,f,5,0.5,-45.18749729,0.832552
58a23b2b27c3bb00014e6d9a,31,0,2024-02-28T14:35:59.023Z,english_404.wav,0,peel,700,40,4,5,français,f,6,0.6,75.22262363,0.94238773
58a23b2b27c3bb00014e6d9a,31,0,2024-02-28T14:35:59.023Z,english_404.wav,0,peel,700,40,4,5,français,f,7,0.7,53.71694776,0.97166455
58a23b2b27c3bb00014e6d9a,31,0,2024-02-28T14:35:59.023Z,english_404.wav,0,peel,700,40,4,5,français,f,8,0.8,-31.94049291,0.24504
58a23b2b27c3bb00014e6d9a,31,0,2024-02-28T14:35:59.023Z,english_404.wav,0,peel,700,40,4,5,français,f,9,0.9,64.49384663,1.54934709
58a23b2b27c3bb00014e6d9a,31,0,2024-02-28T14:35:59.023Z,english_404.wav,0,peel,700,40,4,5,français,f,10,1.0,-87.57862232,0.71675997
58a23b2b27c3bb00014e6d9a,31,0,2024-02-28T14:35:59.023Z,english_404.wav,0,peel,700,40,4,5,français,f,11,1.09391667,-93.26487386,1.21108184
58a23b2b27c3bb00014e6d9a,32,0,2024-02-28T14:35:59.023Z,english_491.wav,0,peel,1502,40,4,5,français,f,0,0.0,-86.04728356,0.47614904
58a23b2b27c3bb00014e6d9a,32,0,2024-02-28T14:35:59.023Z,english_491.wav,0,peel,1502,40,4,5,français,f,1,0.1,-65.88451303,0.55089812
58a23b2b27c3bb00014e6d9a,32,0,2024-02-28T14:35:59.023Z,english_491.wav,0,peel,1502,40,4,5,français,f,2,0.2,-80.48711576,1.1167033
58a23b2b27c3bb00014e6d9a,32,0,2024-02-28T14:35:59.023Z,english_491.wav,0,peel,1502,40,4,5,français,f,3,0.3,-14.20773903,1.47203435
58a23b2b27c3bb00014e6d9a,32,0,2024-02-28T14:35:59.023Z,english_491.wav,0,peel,1502,40,4,5,français,f,4,0.4,8.14780759,1.34464479
58a23b2b27c3bb00014e6d9a,32,0,2024-02-28T14:35:59.023Z,english_491.wav,0,peel,1502,40,4,5,français,f,5,0.5,-64.09571567,1.15432427
58a23b2b27c3bb00014e6d9a,32,0,2024-02-28T14:35:59.023Z,english_491.wav,0,peel,1502,40,4,5,français,f,6,0.6,54.51757577,1.10816548
58a23b2b27c3bb00014e6d9a,32,0,2024-02-28T14:35:59.023Z,english_491.wav,0,peel,1502,40,4,5,français,f,7,0.7,44.38602798,0.53599429
58a23b2b27c3bb00014e6d9a,32,0,2024-02-28T14:35:59.023Z,english_491.wav,0,peel,1502,40,4,5,français,f,8,0.8,-1.2376907,1.13980754
58a23b2b27c3bb00014e6d9a,32,0,2024-02-28T14:35:59.023Z,english_491.wav,0,peel,1502,40,4,5,français,f,9,0.9,77.13121924,0.89300384
58a23b2b27c3bb00014e6d9a,32,0,2024-02-28T14:35:59.023Z,english_491.wav,0,peel,1502,40,4,5,français,f,10,1.0,-14.590686,0.5502855
58a23b2b27c3bb00014e6d9a,32,0,2024-02-28T14:35:59.023Z,english_491.wav,0,peel,1502,40,4,5,français,f,11,1.09391667,68.41813951,1.59909439
58a23b2b27c3bb00014e6d9a,33,0,2024-02-28T14:35:59.023Z,english_162.wav,0,peel,1252,40,4,5,français,f,0,0.0,26.55716136,1.5554451
58a23b2b27c3bb00014e6d9a,33,0,2024-02-28T14:35:59.023Z,english_162.wav,0,peel,1252,40,4,5,français,f,1,0.1,11.82804586,0.73276272
58a23b2b27c3bb00014e6d9a,33,0,2024-02-28T14:35:59.023Z,english_162.wav,0,peel,1252,40,4,5,français,f,2,0.2,-23.9414726,1.80328422
58a23b2b27c3bb00014e6d9a,33,0,2024-02-28T14:35:59.023Z,english_162.wav,0,peel,1252,40,4,5,français,f,3,0.3,-1.71566049,0.92347316
58a23b2b27c3bb00014e6d9a,33,0,2024-02-28T14:35:59.023Z,english_162.wav,0,peel,1252,40,4,5,français,f,4,0.4,-19.44382046,0.80698984
58a23b2b27c3bb00014e6d9a,33,0,2024-02-28T14:35:59.023Z,english_162.wav,0,peel,1252,40,4,5,français,f,5,0.5,-4.89650776,1.82055232
58a23b2b27c3bb00014e6d9a,33,0,2024-02-28T14:35:59.023Z,english_162.wav,0,peel,1252,40,4,5,français,f,6,0.6,-86.90887997,1.9917578
58a23b2b27c3bb00014e6d9a,33,0,2024-02-28T14:35:59.023Z,english_162.wav,0,peel,1252,40,4,5,français,f,7,0.7,-2.56378327,0.80582965
58a23b2b27c3bb00014e6d9a,33,0,2024-02-28T14:35:59.023Z,english_162.wav,0,peel,1252,40,4,5,français,f,8,0.8,6.4232906,1.51404022
58a23b2b27c3bb00014e6d9a,33,0,2024-02-28T14:35:59.023Z,english_162.wav,0,peel,1252,40,4,5,français,f,9,0.9,85.15737342,0.66169756
58a23b2b27c3bb00014e6d9a,33,0,2024-02-28T14:35:59.023Z,english_162.wav,0,peel,1252,40,4,5,français,f,10,1.0,86.70536365,0.35533471
58a23b2b27c3bb00014e6d9a,33,0,2024-02-28T14:35:59.023Z,english_162.wav,0,peel,1252,40,4,5,français,f,11,1.09391667,85.58259912,1.22719758
58a23b2b27c3bb00014e6d9a,34,0,2024-02-28T14:35:59.023Z,english_324.wav,0,peel,702,40,4,5,français,f,0,0.0,17.54140289,0.28643924
58a23b2b27c3bb00014e6d9a,34,0,2024-02-28T14:35:59.023Z,english_324.wav,0,peel,702,40,4,5,français,f,1,0.1,71.06846472,0.89310243
58a23b2b27c3bb00014e6d9a,34,0,2024-02-28T14:35:59.023Z,english_324.wav,0,peel,702,40,4,5,français,f,2,0.2,-58.0756972,0.19434283
58a23b2b27c3bb00014e6d9a,34,0,2024-02-28T14:35:59.023Z,english_324.wav,0,peel,702,40,4,5,français,f,3,0.3,21.96350357,1.40300385
58a23b2b27c3bb00014e6d9a,34,0,2024-02-28T14:35:59.023Z,english_324.wav,0,peel,702,40,4,5,français,f,4,0.4,8.51736718,0.22031138
58a23b2b27c3bb00014e6d9a,34,0,2024-02-28T14:35:59.023Z,english_324.wav,0,peel,702,40,4,5,français,f,5,0.5,54.10034556,1.10087032
58a23b2b27c3bb00014e6d9a,34,0,2024-02-28T14:35:59.023Z,english_324.wav,0,peel,702,40,4,5,français,f,6,0.6,-45.23490782,0.61239123
58a23b2b27c3bb00014e6d9a,34,0,2024-02-28T14:35:59.023Z,english_324.wav,0,peel,702,40,4,5,français,f,7,0.7,-47.50195247,0.50887139
58a23b2b27c3bb00014e6d9a,34,0,2024-02-28T14:35:59.023Z,english_324.wav,0,peel,702,40,4,5,français,f,8,0.8,90.23201078,1.93720132
58a23b2b27c3bb00014e6d9a,34,0,2024-02-28T14:35:59.023Z,english_324.wav,0,peel,702,40,4,5,français,f,9,0.9,-25.79699052,1.9219801
58a23b2b27c3bb00014e6d9a,34,0,2024-02-28T14:35:59.023Z,english_324.wav,0,peel,702,40,4,5,français,f,10,1.0,-46.49971987,0.58550327
58a23b2b27c3bb00014e6d9a,34,0,2024-02-28T14:35:59.023Z,english_324.wav,0,peel,702,40,4,5,français,f,11,1.09391667,53.98083149,0.44963146
58a23b2b27c3bb00014e6d9a,35,0,2024-02-28T14:35:59.023Z,english_859.wav,0,pill,1082,40,4,5,français,f,0,0.0,31.07114651,1.62014662
58a23b2b27c3bb00014e6d9a,35,0,2024-02-28T14:35:59.023Z,english_859.wav,0,pill,1082,40,4,5,français,f,1,0.1,-28.29036268,0.23536516
58a23b2b27c3bb00014e6d9a,35,0,2024-02-28T14:35:59.023Z,english_859.wav,0,pill,1082,40,4,5,français,f,2,0.2,-99.32977332,1.20919843
58a23b2b27c3bb00014e6d9a,35,0,2024-02-28T14:35:59.023Z,english_859.wav,0,pill,1082,40,4,5,français,f,3,0.3,24.56403326,1.87022771
58a23b2b27c3bb00014e6d9a,35,0,2024-02-28T14:35:59.023Z,english_859.wav,0,pill,1082,40,4,5,français,f,4,0.4,13.96924155,1.25340901
58a23b2b27c3bb00014e6d9a,35,0,2024-02-28T14:35:59.023Z,english_859.wav,0,pill,1082,40,4,5,français,f,5,0.5,-7.10648456,1.24145487
58a23b2b27c3bb00014e6d9a,35,0,2024-02-28T14:35:59.023Z,english_859.wav,0,pill,1082,40,4,5,français,f,6,0.6,16.2139947,0.16688969
58a23b2b27c3bb00014e6d9a,35,0,2024-02-28T14:35:59.023Z,english_859.wav,0,pill,1082,40,4,5,français,f,7,0.7,-63.09488954,1.9877967
58a23b2b27c3bb00014e6d9a,35,0,2024-02-28T14:35:59.023Z,english_859.wav,0,pill,1082,40,4,5,français,f,8,0.8,32.97149002,1.05528454
58a23b2b27c3bb00014e6d9a,35,0,2024-02-28T14:35:59.023Z,english_859.wav,0,pill,1082,40,4,5,français,f,9,0.9,73.86440675,1.04254929
58a23b2b27c3bb00014e6d9a,35,0,2024-02-28T14:35:59.023Z,english_859.wav,0,pill,1082,40,4,5,français,f,10,1.0,18.08685772,0.40355025
58a23b2b27c3bb00014e6d9a,35,0,2024-02-28T14:35:59.023Z,english_859.wav,0,pill,1082,40,4,5,français,f,11,1.09391667,63.56526174,1.52495745
58a23b2b27c3bb00014e6d9a,36,0,2024-02-28T14:35:59.023Z,english_841.wav,0,peel,566,40,4,5,français,f,0,0.0,13.47649633,0.2030304
58a23b2b27c3bb00014e6d9a,36,0,2024-02-28T14:35:59.023Z,english_841.wav,0,peel,566,40,4,5,français,f,1,0.1,-4.31438018,1.4654032
58a23b2b27c3bb00014e6d9a,36,0,2024-02-28T14:35:59.023Z,english_841.wav,0,peel,566,40,4,5,français,f,2,0.2,33.0563647,0.99950721
58a23b2b27c3bb00014e6d9a,36,0,2024-02-28T14:35:59.023Z,english_841.wav,0,peel,566,40,4,5,français,f,3,0.3,86.84745786,0.04710196
58a23b2b27c3bb00014e6d9a,36,0,2024-02-28T14:35:59.023Z,english_841.wav,0,peel,566,40,4,5,français,f,4,0.4,-66.40745707,1.47568135
58a23b2b27c3bb00014e6d9a,36,0,2024-02-28T14:35:59.023Z,english_841.wav,0,peel,566,40,4,5,français,f,5,0.5,-45.55484269,1.38964748
58a23b2b27c3bb00014e6d9a,36,0,2024-02-28T14:35:59.023Z,english_841.wav,0,peel,566,40,4,5,français,f,6,0.6,-86.08753099,1.63844318
58a23b2b27c3bb00014e6d9a,36,0,2024-02-28T14:35:59.023Z,english_841.wav,0,peel,566,40,4,5,français,f,7,0.7,-95.45735959,1.01920512
58a23b2b27c3bb00014e6d9a,36,0,2024-02-28T14:35:59.023Z,english_841.wav,0,peel,566,40,4,5,français,f,8,0.8,23.86654109,1.35517017
58a23b2b27c3bb00014e6d9a,36,0,2024-02-28T14:35:59.023Z,english_841.wav,0,peel,566,40,4,5,français,f,9,0.9,-11.20743419,1.07128935
58a23b2b27c3bb00014e6d9a,36,0,2024-02-28T14:35:59.023Z,english_841.wav,0,peel,566,40,4,5,français,f,10,1.0,-48.1272879,1.6005201
58a23b2b27c3bb00014e6d9a,36,0,2024-02-28T14:35:59.023Z,english_841.wav,0,peel,566,40,4,5,français,f,11,1.09391667,65.71403117,1.58502918
58a23b2b27c3bb00014e6d9a,37,0,2024-02-28T14:35:59.023Z,english_493.wav,0,pill,901,40,4,5,français,f,0,0.0,-8.91567992,0.90906845
58a23b2b27c3bb00014e6d9a,37,0,2024-02-28T14:35:59.023Z,english_493.wav,0,pill,901,40,4,5,français,f,1,0.1,-2.81052192,1.82277729
58a23b2b27c3bb00014e6d9a,37,0,2024-02-28T14:35:59.023Z,english_493.wav,0,pill,901,40,4,5,français,f,2,0.2,0.93987988,1.85575617
58a23b2b27c3bb00014e6d9a,37,0,2024-02-28T14:35:59.023Z,english_493.wav,0,pill,901,40,4,5,français,f,3,0.3,-44.0664777,0.198144
58a23b2b27c3bb00014e6d9a,37,0,2024-02-28T14:35:59.023Z,english_493.wav,0,pill,901,40,4,5,français,f,4,0.4,12.64172921,0.31833397
58a23b2b27c3bb00014e6d9a,37,0,2024-02-28T14:35:59.023Z,english_493.wav,0,pill,901,40,4,5,français,f,5,0.5,38.10396852,0.16370317
58a23b2b27c3bb00014e6d9a,37,0,2024-02-28T14:35:59.023Z,english_493.wav,0,pill,901,40,4,5,français,f,6,0.6,51.1275002,0.48830507
58a23b2b27c3bb00014e6d9a,37,0,2024-02-28T14:35:59.023Z,english_493.wav,0,pill,901,40,4,5,français,f,7,0.7,-51.72089694,0.59724282
58a23b2b27c3bb00014e6d9a,37,0,2024-02-28T14:35:59.023Z,english_493.wav,0,pill,901,40,4,5,français,f,8,0.8,-22.89469136,0.45798431
58a23b2b27c3bb00014e6d9a,37,0,2024-02-28T14:35:59.023Z,english_493.wav,0,pill,901,40,4,5,français,f,9,0.9,55.14015253,1.24461858
58a23b2b27c3bb00014e6d9a,37,0,2024-02-28T14:35:59.023Z,english_493.wav,0,pill,901,40,4,5,français,f,10,1.0,69.89984763,1.33195334
58a23b2b27c3bb00014e6d9a,37,0,2024-02-28T14:35:59.023Z,english_493.wav,0,pill,901,40,4,5,français,f,11,1.09391667,7.83521283,1.92068406
58a23b2b27c3bb00014e6d9a,38,0,2024-02-28T14:35:59.023Z,english_727.wav,0,peel,749,40,4,5,français,f,0,0.0,-18.41371041,1.35764892
58a23b2b27c3bb00014e6d9a,38,0,2024-02-28T14:35:59.023Z,english_727.wav,0,peel,749,40,4,5,français,f,1,0.1,-63.10285802,1.30171306
58a23b2b27c3bb00014e6d9a,38,0,2024-02-28T14:35:59.023Z,english_727.wav,0,peel,749,40,4,5,français,f,2,0.2,-11.47868373,1.89832966
58a23b2b27c3bb00014e6d9a,38,0,2024-02-28T14:35:59.023Z,english_727.wav,0,peel,749,40,4,5,français,f,3,0.3,40.37675275,1.96157356
58a23b2b27c3bb00014e6d9a,38,0,2024-02-28T14:35:59.023Z,english_727.wav,0,peel,749,40,4,5,français,f,4,0.4,-77.12859483,0.9069281
58a23b2b27c3bb00014e6d9a,38,0,2024-02-28T14:35:59.023Z,english_727.wav,0,peel,749,40,4,5,français,f,5,0.5,92.73705719,1.12095366
58a23b2b27c3bb00014e6d9a,38,0,2024-02-28T14:35:59.023Z,english_727.wav,0,peel,749,40,4,5,français,f,6,0.6,-55.99534641,1.00983545
58a23b2b27c3bb00014e6d9a,38,0,2024-02-28T14:35:59.023Z,english_727.wav,0,peel,749,40,4,5,français,f,7,0.7,-55.52546335,0.3683737
58a23b2b27c3bb00014e6d9a,38,0,2024-02-28T14:35:59.023Z,english_727.wav,0,peel,749,40,4,5,français,f,8,0.8,6.97078157,1.10707799
58a23b2b27c3bb00014e6d9a,38,0,2024-02-28T14:35:59.023Z,english_727.wav,0,peel,749,40,4,5,français,f,9,0.9,-23.82740681,1.05563912
58a23b2b27c3bb00014e6d9a,38,0,2024-02-28T14:35:59.023Z,english_727.wav,0,peel,749,40,4,5,français,f,10,1.0,16.85010217,1.15538622
58a23b2b27c3bb00014e6d9a,38,0,2024-02-28T14:35:59.023Z,english_727.wav,0,peel,749,40,4,5,français,f,11,1.09391667,12.17774436,0.52815825
58a23b2b27c3bb00014e6d9a,39,0,2024-02-28T14:35:59.023Z,english_492.wav,0,peel,877,40,4,5,français,f,0,0.0,-29.9472328,1.28534899
58a23b2b27c3bb00014e6d9a,39,0,2024-02-28T14:35:59.023Z,english_492.wav,0,peel,877,40,4,5,français,f,1,0.1,35.33010824,1.03908978
58a23b2b27c3bb00014e6d9a,39,0,2024-02-28T14:35:59.023Z,english_492.wav,0,peel,877,40,4,5,français,f,2,0.2,-3.45968041,1.26033893
58a23b2b27c3bb00014e6d9a,39,0,2024-02-28T14:35:59.023Z,english_492.wav,0,peel,877,40,4,5,français,f,3,0.3,59.06456756,0.39463808
58a23b2b27c3bb00014e6d9a,39,0,2024-02-28T14:35:59.023Z,english_492.wav,0,peel,877,40,4,5,français,f,4,0.4,98.23949624,0.21276087
58a23b2b27c3bb00014e6d9a,39,0,2024-02-28T14:35:59.023Z,english_492.wav,0,peel,877,40,4,5,français,f,5,0.5,-1.48270349,0.25205409
58a23b2b27c3bb00014e6d9a,39,0,2024-02-28T14:35:59.023Z,english_492.wav,0,peel,877,40,4,5,français,f,6,0.6,-1.72219507,0.58596557
58a23b2b27c3bb00014e6d9a,39,0,2024-02-28T14:35:59.023Z,english_492.wav,0,peel,877,40,4,5,français,f,7,0.7,12.69106909,1.49088879
58a23b2b27c3bb00014e6d9a,39,0,2024-02-28T14:35:59.023Z,english_492.wav,0,peel,877,40,4,5,français,f,8,0.8,-21.74180351,1.5225112
58a23b2b27c3bb00014e6d9a,39,0,2024-02-28T14:35:59.023Z,english_492.wav,0,peel,877,40,4,5,français,f,9,0.9,-33.92370757,0.13189423
58a23b2b27c3bb00014e6d9a,39,0,2024-02-28T14:35:59.023Z,english_492.wav,0,peel,877,40,4,5,français,f,10,1.0,37.93162517,0.89918189
58a23b2b27c3bb00014e6d9a,39,0,2024-02-28T14:35:59.023Z,english_492.wav,0,peel,877,40,4,5,français,f,11,1.09391667,-90.75179354,1.07142866
58a23b2b27c3bb00014e6d9a,40,0,2024-02-28T14:35:59.023Z,english_755.wav,0,peel,613,40,4,5,français,f,0,0.0,-75.26385552,0.09689384
58a23b2b27c3bb00014e6d9a,40,0,2024-02-28T14:35:59.023Z,english_755.wav,0,peel,613,40,4,5,français,f,1,0.1,-77.54873454,0.88213328
58a23b2b27c3bb00014e6d9a,40,0,2024-02-28T14:35:59.023Z,english_755.wav,0,peel,613,40,4,5,français,f,2,0.2,13.4311812,0.06512801
58a23b2b27c3bb00014e6d9a,40,0,2024-02-28T14:35:59.023Z,english_755.wav,0,peel,613,40,4,5,français,f,3,0.3,7.92656706,1.12427914
58a23b2b27c3bb00014e6d9a,40,0,2024-02-28T14:35:59.023Z,english_755.wav,0,peel,613,40,4,5,français,f,4,0.4,43.04088715,0.73534916
58a23b2b27c3bb00014e6d9a,40,0,2024-02-28T14:35:59.023Z,english_755.wav,0,peel,613,40,4,5,français,f,5,0.5,-52.66329155,0.96891313
58a23b2b27c3bb00014e6d9a,40,0,2024-02-28T14:35:59.023Z,english_755.wav,0,peel,613,40,4,5,français,f,6,0.6,84.44946609,0.99997318
58a23b2b27c3bb00014e6d9a,40,0,2024-02-28T14:35:59.023Z,english_755.wav,0,peel,613,40,4,5,français,f,7,0.7,35.14899848,1.2765527
58a23b2b27c3bb00014e6d9a,40,0,2024-02-28T14:35:59.023Z,english_755.wav,0,peel,613,40,4,5,français,f,8,0.8,-13.90496644,1.38017734
58a23b2b27c3bb00014e6d9a,40,0,2024-02-28T14:35:59.023Z,english_755.wav,0,peel,613,40,4,5,français,f,9,0.9,10.2251388,1.18692736
58a23b2b27c3bb00014e6d9a,40,0,2024-02-28T14:35:59.023Z,english_755.wav,0,peel,613,40,4,5,français,f,10,1.0,-36.70454503,0.69548573
58a23b2b27c3bb00014e6d9a,40,0,2024-02-28T14:35:59.023Z,english_755.wav,0,peel,613,40,4,5,français,f,11,1.09391667,11.3834831,0.72968454
58a23b2b27c3bb00014e6d9a,41,0,2024-02-28T14:35:59.023Z,english_430.wav,0,peel,685,40,4,5,français,f,0,0.0,-88.95761908,1.0411215
58a23b2b27c3bb00014e6d9a,41,0,2024-02-28T14:35:59.023Z,english_430.wav,0,peel,685,40,4,5,français,f,1,0.1,39.34804897,1.73577333
58a23b2b27c3bb00014e6d9a,41,0,2024-02-28T14:35:59.023Z,english_430.wav,0,peel,685,40,4,5,français,f,2,0.2,-21.72599187,0.8754531
58a23b2b27c3bb00014e6d9a,41,0,2024-02-28T14:35:59.023Z,english_430.wav,0,peel,685,40,4,5,français,f,3,0.3,-97.97733292,0.18874451
58a23b2b27c3bb00014e6d9a,41,0,2024-02-28T14:35:59.023Z,english_430.wav,0,peel,685,40,4,5,français,f,4,0.4,98.23201219,1.1142071
58a23b2b27c3bb00014e6d9a,41,0,2024-02-28T14:35:59.023Z,english_430.wav,0,peel,685,40,4,5,français,f,5,0.5,92.79611353,0.3830467
58a23b2b27c3bb00014e6d9a,41,0,2024-02-28T14:35:59.023Z,english_430.wav,0,peel,685,40,4,5,français,f,6,0.6,44.81381594,0.5347185
58a23b2b27c3bb00014e6d9a,41,0,2024-02-28T14:35:59.023Z,english_430.wav,0,peel,685,40,4,5,français,f,7,0.7,-96.67681225,0.4014233
58a23b2b27c3bb00014e6d9a,41,0,2024-02-28T14:35:59.023Z,english_430.wav,0,peel,685,40,4,5,français,f,8,0.8,99.24041947,0.50454446
58a23b2b27c3bb00014e6d9a,41,0,2024-02-28T14:35:59.023Z,english_430.wav,0,peel,685,40,4,5,français,f,9,0.9,33.24344921,0.88496249
58a23b2b27c3bb00014e6d9a,41,0,2024-02-28T14:35:59.023Z,english_430.wav,0,peel,685,40,4,5,français,f,10,1.0,-26.01349309,1.71251412
58a23b2b27c3bb00014e6d9a,41,0,2024-02-28T14:35:59.023Z,english_430.wav,0,peel,685,40,4,5,français,f,11,1.09391667,-84.24925862,1.92006939
58a23b2b27c3bb00014e6d9a,42,0,2024-02-28T14:35:59.023Z,english_178.wav,0,peel,694,40,4,5,français,f,0,0.0,5.42478923,1.01011156
58a23b2b27c3bb00014e6d9a,42,0,2024-02-28T14:35:59.023Z,english_178.wav,0,peel,694,40,4,5,français,f,1,0.1,66.71711881,1.60637441
58a23b2b27c3bb00014e6d9a,42,0,2024-02-28T14:35:59.023Z,english_178.wav,0,peel,694,40,4,5,français,f,2,0.2,25.13944125,0.85795496
58a23b2b27c3bb00014e6d9a,42,0,2024-02-28T14:35:59.023Z,english_178.wav,0,peel,694,40,4,5,français,f,3,0.3,95.56005782,1.35214977
58a23b2b27c3bb00014e6d9a,42,0,2024-02-28T14:35:59.023Z,english_178.wav,0,peel,694,40,4,5,français,f,4,0.4,16.85207382,0.61247399
58a23b2b27c3bb00014e6d9a,42,0,2024-02-28T14:35:59.023Z,english_178.wav,0,peel,694,40,4,5,français,f,5,0.5,-27.28270002,1.45555962
58a23b2b27c3bb00014e6d9a,42,0,2024-02-28T14:35:59.023Z,english_178.wav,0,peel,694,40,4,5,français,f,6,0.6,86.24132907,0.34817024
58a23b2b27c3bb00014e6d9a,42,0,2024-02-28T14:35:59.023Z,english_178.wav,0,peel,694,40,4,5,français,f,7,0.7,-67.08119727,0.78995697
58a23b2b27c3bb00014e6d9a,42,0,2024-02-28T14:35:59.023Z,english_178.wav,0,peel,694,40,4,5,français,f,8,0.8,-0.81610081,1.09427424
58a23b2b27c3bb00014e6d9a,42,0,2024-02-28T14:35:59.023Z,english_178.wav,0,peel,694,40,4,5,français,f,9,0.9,-32.08256077,1.32224293
58a23b2b27c3bb00014e6d9a,42,0,2024-02-28T14:35:59.023Z,english_178.wav,0,peel,694,40,4,5,français,f,10,1.0,33.26765995,1.53013904
58a23b2b27c3bb00014e6d9a,42,0,2024-02-28T14:35:59.023Z,english_178.wav,0,peel,694,40,4,5,français,f,11,1.09391667,50.15163679,1.40313699
58a23b2b27c3bb00014e6d9a,43,0,2024-02-28T14:35:59.023Z,english_831.wav,0,peel,1907,40,4,5,français,f,0,0.0,-21.16656573,0.86887876
58a23b2b27c3bb00014e6d9a,43,0,2024-02-28T14:35:59.023Z,english_831.wav,0,peel,1907,40,4,5,français,f,1,0.1,29.76214341,1.37629655
58a23b2b27c3bb00014e6d9a,43,0,2024-02-28T14:35:59.023Z,english_831.wav,0,peel,1907,40,4,5,français,f,2,0.2,61.45359844,0.63499907
58a23b2b27c3bb00014e6d9a,43,0,2024-02-28T14:35:59.023Z,english_831.wav,0,peel,1907,40,4,5,français,f,3,0.3,6.67004895,0.11279763
58a23b2b27c3bb00014e6d9a,43,0,2024-02-28T14:35:59.023Z,english_831.wav,0,peel,1907,40,4,5,français,f,4,0.4,26.70370751,0.87092561
58a23b2b27c3bb00014e6d9a,43,0,2024-02-28T14:35:59.023Z,english_831.wav,0,peel,1907,40,4,5,français,f,5,0.5,-40.62935301,1.90700704
58a23b2b27c3bb00014e6d9a,43,0,2024-02-28T14:35:59.023Z,english_831.wav,0,peel,1907,40,4,5,français,f,6,0.6,99.09256776,0.52454597
58a23b2b27c3bb00014e6d9a,43,0,2024-02-28T14:35:59.023Z,english_831.wav,0,peel,1907,40,4,5,français,f,7,0.7,79.82257267,0.72073711
58a23b2b27c3bb00014e6d9a,43,0,2024-02-28T14:35:59.023Z,english_831.wav,0,peel,1907,40,4,5,français,f,8,0.8,42.46181289,0.80064374
58a23b2b27c3bb00014e6d9a,43,0,2024-02-28T14:35:59.023Z,english_831.wav,0,peel,1907,40,4,5,français,f,9,0.9,2.20427108,1.04408214
58a23b2b27c3bb00014e6d9a,43,0,2024-02-28T14:35:59.023Z,english_831.wav,0,peel,1907,40,4,5,français,f,10,1.0,64.59275416,0.45079877
58a23b2b27c3bb00014e6d9a,43,0,2024-02-28T14:35:59.023Z,english_831.wav,0,peel,1907,40,4,5,français,f,11,1.09391667,-21.96543836,1.2652147
58a23b2b27c3bb00014e6d9a,44,0,2024-02-28T14:35:59.023Z,english_297.wav,0,peel,631,40,4,5,français,f,0,0.0,11.20692079,0.86492625
58a23b2b27c3bb00014e6d9a,44,0,2024-02-28T14:35:59.023Z,english_297.wav,0,peel,631,40,4,5,français,f,1,0.1,55.75431015,0.88416452
58a23b2b27c3bb00014e6d9a,44,0,2024-02-28T14:35:59.023Z,english_297.wav,0,peel,631,40,4,5,français,f,2,0.2,-86.64282083,0.82005931
58a23b2b27c3bb00014e6d9a,44,0,2024-02-28T14:35:59.023Z,english_297.wav,0,peel,631,40,4,5,français,f,3,0.3,3.92544498,1.68274586
58a23b2b27c3bb00014e6d9a,44,0,2024-02-28T14:35:59.023Z,english_297.wav,0,peel,631,40,4,5,français,f,4,0.4,74.84193622,0.6310151
58a23b2b27c3bb00014e6d9a,44,0,2024-02-28T14:35:59.023Z,english_297.wav,0,peel,631,40,4,5,français,f,5,0.5,98.87033291,1.10285094
58a23b2b27c3bb00014e6d9a,44,0,2024-02-28T14:35:59.023Z,english_297.wav,0,peel,631,40,4,5,français,f,6,0.6,-27.05853929,1.62243403
58a23b2b27c3bb00014e6d9a,44,0,2024-02-28T14:35:59.023Z,english_297.wav,0,peel,631,40,4,5,français,f,7,0.7,28.57762927,0.88003843
58a23b2b27c3bb00014e6d9a,44,0,2024-02-28T14:35:59.023Z,english_297.wav,0,peel,631,40,4,5,français,f,8,0.8,43.21204816,0.80969405
58a23b2b27c3bb00014e6d9a,44,0,2024-02-28T14:35:59.023Z,english_297.wav,0,peel,631,40,4,5,français,f,9,0.9,-15.31404034,1.74854736
58a23b2b27c3bb00014e6d9a,44,0,2024-02-28T14:35:59.023Z,english_297.wav,0,peel,631,40,4,5,français,f,10,1.0,27.27632772,0.34135996
58a23b2b27c3bb00014e6d9a,44,0,2024-02-28T14:35:59.023Z,english_297.wav,0,peel,631,40,4,5,français,f,11,1.09391667,22.16706661,0.77981114
58a23b2b27c3bb00014e6d9a,45,0,2024-02-28T14:35:59.023Z,english_266.wav,0,peel,484,40,4,5,français,f,0,0.0,85.08589672,0.35806768
58a23b2b27c3bb00014e6d9a,45,0,2024-02-28T14:35:59.023Z,english_266.wav,0,peel,484,40,4,5,français,f,1,0.1,-31.38715876,1.30312729
58a23b2b27c3bb00014e6d9a,45,0,2024-02-28T14:35:59.023Z,english_266.wav,0,peel,484,40,4,5,français,f,2,0.2,12.76761621,0.13135106
58a23b2b27c3bb00014e6d9a,45,0,2024-02-28T14:35:59.023Z,english_266.wav,0,peel,484,40,4,5,français,f,3,0.3,-84.09112809,1.10001243
58a23b2b27c3bb00014e6d9a,45,0,2024-02-28T14:35:59.023Z,english_266.wav,0,peel,484,40,4,5,français,f,4,0.4,-35.65738205,0.09400181
58a23b2b27c3bb00014e6d9a,45,0,2024-02-28T14:35:59.023Z,english_266.wav,0,peel,484,40,4,5,français,f,5,0.5,-1.3575127,1.62804367
58a23b2b27c3bb00014e6d9a,45,0,2024-02-28T14:35:59.023Z,english_266.wav,0,peel,484,40,4,5,français,f,6,0.6,28.50579554,0.86420495
58a23b2b27c3bb00014e6d9a,45,0,2024-02-28T14:35:59.023Z,english_266.wav,0,peel,484,40,4,5,français,f,7,0.7,-64.0196403,0.86051542
58a23b2b27c3bb00014e6d9a,45,0,2024-02-28T14:35:59.023Z,english_266.wav,0,peel,484,40,4,5,français,f,8,0.8,-12.66471897,1.59602975
58a23b2b27c3bb00014e6d9a,45,0,2024-02-28T14:35:59.023Z,english_266.wav,0,peel,484,40,4,5,français,f,9,0.9,33.09789324,1.84870637
58a23b2b27c3bb00014e6d9a,45,0,2024-02-28T14:35:59.023Z,english_266.wav,0,peel,484,40,4,5,français,f,10,1.0,96.55876506,1.74532524
58a23b2b27c3bb00014e6d9a,45,0,2024-02-28T14:35:59.023Z,english_266.wav,0,peel,484,40,4,5,français,f,11,1.09391667,86.66414538,1.19425471
58a23b2b27c3bb00014e6d9a,46,0,2024-02-28T14:35:59.023Z,english_259.wav,0,pill,1016,40,4,5,français,f,0,0.0,-96.45723027,1.20447661
58a23b2b27c3bb00014e6d9a,46,0,2024-02-28T14:35:59.023Z,english_259.wav,0,pill,1016,40,4,5,français,f,1,0.1,46.81898893,1.98089962
58a23b2b27c3bb00014e6d9a,46,0,2024-02-28T14:35:59.023Z,english_259.wav,0,pill,1016,40,4,5,français,f,2,0.2,-52.24123134,0.13419359
58a23b2b27c3bb00014e6d9a,46,0,2024-02-28T14:35:59.023Z,english_259.wav,0,pill,1016,40,4,5,français,f,3,0.3,-93.20482306,0.77341906
58a23b2b27c3bb00014e6d9a,46,0,2024-02-28T14:35:59.023Z,english_259.wav,0,pill,1016,40,4,5,français,f,4,0.4,-73.17016095,0.41314705
58a23b2b27c3bb00014e6d9a,46,0,2024-02-28T14:35:59.023Z,english_259.wav,0,pill,1016,40,4,5,français,f,5,0.5,65.38390332,1.70927399
58a23b2b27c3bb00014e6d9a,46,0,2024-02-28T14:35:59.023Z,english_259.wav,0,pill,1016,40,4,5,français,f,6,0.6,-74.48910715,0.82975987
58a23b2b27c3bb00014e6d9a,46,0,2024-02-28T14:35:59.023Z,english_259.wav,0,pill,1016,40,4,5,français,f,7,0.7,18.35767077,1.00284167
58a23b2b27c3bb00014e6d9a,46,0,2024-02-28T14:35:59.023Z,english_259.wav,0,pill,1016,40,4,5,français,f,8,0.8,-83.13603565,0.65136174
58a23b2b27c3bb00014e6d9a,46,0,2024-02-28T14:35:59.023Z,english_259.wav,0,pill,1016,40,4,5,français,f,9,0.9,-60.914408,1.08902536
58a23b2b27c3bb00014e6d9a,46,0,2024-02-28T14:35:59.023Z,english_259.wav,0,pill,1016,40,4,5,français,f,10,1.0,13.76318207,0.29016251
58a23b2b27c3bb00014e6d9a,46,0,2024-02-28T14:35:59.023Z,english_259.wav,0,pill,1016,40,4,5,français,f,11,1.09391667,-74.06068615,0.25284804
58a23b2b27c3bb00014e6d9a,47,0,2024-02-28T14:35:59.023Z,english_730.wav,0,pill,2042,40,4,5,français,f,0,0.0,98.7829688,0.6873965
58a23b2b27c3bb00014e6d9a,47,0,2024-02-28T14:35:59.023Z,english_730.wav,0,pill,2042,40,4,5,français,f,1,0.1,-67.9329994,0.65236597
58a23b2b27c3bb00014e6d9a,47,0,2024-02-28T14:35:59.023Z,english_730.wav,0,pill,2042,40,4,5,français,f,2,0.2,-35.4157721,1.04626144
58a23b2b27c3bb00014e6d9a,47,0,2024-02-28T14:35:59.023Z,english_730.wav,0,pill,2042,40,4,5,français,f,3,0.3,8.75583116,1.65669948
58a23b2b27c3bb00014e6d9a,47,0,2024-02-28T14:35:59.023Z,english_730.wav,0,pill,2042,40,4,5,français,f,4,0.4,-60.72300086,1.8622585
58a23b2b27c3bb00014e6d9a,47,0,2024-02-28T14:35:59.023Z,english_730.wav,0,pill,2042,40,4,5,français,f,5,0.5,-43.53238385,1.86205359
58a23b2b27c3bb00014e6d9a,47,0,2024-02-28T14:35:59.023Z,english_730.wav,0,pill,2042,40,4,5,français,f,6,0.6,7.41942565,1.2731877
58a23b2b27c3bb00014e6d9a,47,0,2024-02-28T14:35:59.023Z,english_730.wav,0,pill,2042,40,4,5,français,f,7,0.7,-30.23988593,0.2835626
58a23b2b27c3bb00014e6d9a,47,0,2024-02-28T14:35:59.023Z,english_730.wav,0,pill,2042,40,4,5,français,f,8,0.8,98.85106115,0.42372638
58a23b2b27c3bb00014e6d9a,47,0,2024-02-28T14:35:59.023Z,english_730.wav,0,pill,2042,40,4,5,français,f,9,0.9,11.8745124,1.35675351
58a23b2b27c3bb00014e6d9a,47,0,2024-02-28T14:35:59.023Z,english_730.wav,0,pill,2042,40,4,5,français,f,10,1.0,-15.67114445,1.03423815
58a23b2b27c3bb00014e6d9a,47,0,2024-02-28T14:35:59.023Z,english_730.wav,0,pill,2042,40,4,5,français,f,11,1.09391667,-67.06238252,0.63701046
58a23b2b27c3bb00014e6d9a,48,0,2024-02-28T14:35:59.023Z,english_272.wav,0,peel,941,40,4,5,français,f,0,0.0,-52.99211904,1.4863423
58a23b2b27c3bb00014e6d9a,48,0,2024-02-28T14:35:59.023Z,english_272.wav,0,peel,941,40,4,5,français,f,1,0.1,-25.71564607,1.69746599
58a23b2b27c3bb00014e6d9a,48,0,2024-02-28T14:35:59.023Z,english_272.wav,0,peel,941,40,4,5,français,f,2,0.2,-56.58642074,0.8962104
58a23b2b27c3bb00014e6d9a,48,0,2024-02-28T14:35:59.023Z,english_272.wav,0,peel,941,40,4,5,français,f,3,0.3,-87.92268727,1.48386127
58a23b2b27c3bb00014e6d9a,48,0,2024-02-28T14:35:59.023Z,english_272.wav,0,peel,941,40,4,5,français,f,4,0.4,-77.06370831,1.12180502
58a23b2b27c3bb00014e6d9a,48,0,2024-02-28T14:35:59.023Z,english_272.wav,0,peel,941,40,4,5,français,f,5,0.5,85.07000432,1.22395179
58a23b2b27c3bb00014e6d9a,48,0,2024-02-28T14:35:59.023Z,english_272.wav,0,peel,941,40,4,5,français,f,6,0.6,13.520854,1.22503653
58a23b2b27c3bb00014e6d9a,48,0,2024-02-28T14:35:59.023Z,english_272.wav,0,peel,941,40,4,5,français,f,7,0.7,85.24542971,0.66217064
58a23b2b27c3bb00014e6d9a,48,0,2024-02-28T14:35:59.023Z,english_272.wav,0,peel,941,40,4,5,français,f,8,0.8,21.00568548,1.40926924
58a23b2b27c3bb00014e6d9a,48,0,2024-02-28T14:35:59.023Z,english_272.wav,0,peel,941,40,4,5,français,f,9,0.9,47.91949332,0.42323382
58a23b2b27c3bb00014e6d9a,48,0,2024-02-28T14:35:59.023Z,english_272.wav,0,peel,941,40,4,5,français,f,10,1.0,-9.98443485,1.68730728
58a23b2b27c3bb00014e6d9a,48,0,2024-02-28T14:35:59.023Z,english_272.wav,0,peel,941,40,4,5,français,f,11,1.09391667,-3.7192884,1.76864858
58a23b2b27c3bb00014e6d9a,49,0,2024-02-28T14:35:59.023Z,english_992.wav,0,pill,1353,40,4,5,français,f,0,0.0,-5.15788791,0.02044401
58a23b2b27c3bb00014e6d9a,49,0,2024-02-28T14:35:59.023Z,english_992.wav,0,pill,1353,40,4,5,français,f,1,0.1,87.86739991,0.14748193
58a23b2b27c3bb00014e6d9a,49,0,2024-02-28T14:35:59.023Z,english_992.wav,0,pill,1353,40,4,5,français,f,2,0.2,-74.96538965,1.08794539
58a23b2b27c3bb00014e6d9a,49,0,2024-02-28T14:35:59.023Z,english_992.wav,0,pill,1353,40,4,5,français,f,3,0.3,51.5508712,1.90839795
58a23b2b27c3bb00014e6d9a,49,0,2024-02-28T14:35:59.023Z,english_992.wav,0,pill,1353,40,4,5,français,f,4,0.4,55.84577921,0.11098659
58a23b2b27c3bb00014e6d9a,49,0,2024-02-28T14:35:59.023Z,english_992.wav,0,pill,1353,40,4,5,français,f,5,0.5,-73.81356171,1.14044774
58a23b2b27c3bb00014e6d9a,49,0,2024-02-28T14:35:59.023Z,english_992.wav,0,pill,1353,40,4,5,français,f,6,0.6,-70.33946252,0.24836029
58a23b2b27c3bb00014e6d9a,49,0,2024-02-28T14:35:59.023Z,english_992.wav,0,pill,1353,40,4,5,français,f,7,0.7,-76.12910815,1.64559676
58a23b2b27c3bb00014e6d9a,49,0,2024-02-28T14:35:59.023Z,english_992.wav,0,pill,1353,40,4,5,français,f,8,0.8,-38.0545779,1.57501427
58a23b2b27c3bb00014e6d9a,49,0,2024-02-28T14:35:59.023Z,english_992.wav,0,pill,1353,40,4,5,français,f,9,0.9,-5.26509044,0.82338834
58a23b2b27c3bb00014e6d9a,49,0,2024-02-28T14:35:59.023Z,english_992.wav,0,pill,1353,40,4,5,français,f,10,1.0,33.43231637,0.44386037
58a23b2b27c3bb00014e6d9a,49,0,2024-02-28T14:35:59.023Z,english_992.wav,0,pill,1353,40,4,5,français,f,11,1.09391667,-37.46452433,0.70783957
58a23b2b27c3bb00014e6d9a,50,1,2024-02-28T14:35:59.023Z,english_341.wav,0,peel,635,40,4,5,français,f,0,0.0,84.90072142,0.12314254
58a23b2b27c3bb00014e6d9a,50,1,2024-02-28T14:35:59.023Z,english_341.wav,0,peel,635,40,4,5,français,f,1,0.1,-41.07989328,1.47173023
58a23b2b27c3bb00014e6d9a,50,1,2024-02-28T14:35:59.023Z,english_341.wav,0,peel,635,40,4,5,français,f,2,0.2,26.53456805,0.93931176
58a23b2b27c3bb00014e6d9a,50,1,2024-02-28T14:35:59.023Z,english_341.wav,0,peel,635,40,4,5,français,f,3,0.3,48.49138907,1.34001736
58a23b2b27c3bb00014e6d9a,50,1,2024-02-28T14:35:59.023Z,english_341.wav,0,peel,635,40,4,5,français,f,4,0.4,86.79887094,1.64463799
58a23b2b27c3bb00014e6d9a,50,1,2024-02-28T14:35:59.023Z,english_341.wav,0,peel,635,40,4,5,français,f,5,0.5,-87.48501221,0.04293941
58a23b2b27c3bb00014e6d9a,50,1,2024-02-28T14:35:59.023Z,english_341.wav,0,peel,635,40,4,5,français,f,6,0.6,83.61398115,1.19650865
58a23b2b27c3bb00014e6d9a,50,1,2024-02-28T14:35:59.023Z,english_341.wav,0,peel,635,40,4,5,français,f,7,0.7,-67.9208707,1.38443351
58a23b2b27c3bb00014e6d9a,50,1,2024-02-28T14:35:59.023Z,english_341.wav,0,peel,635,40,4,5,français,f,8,0.8,65.07099719,0.78972481
58a23b2b27c3bb00014e6d9a,50,1,2024-02-28T14:35:59.023Z,english_341.wav,0,peel,635,40,4,5,français,f,9,0.9,-55.2468851,0.37997082
58a23b2b27c3bb00014e6d9a,50,1,2024-02-28T14:35:59.023Z,english_341.wav,0,peel,635,40,4,5,français,f,10,1.0,49.35589772,1.80858647
58a23b2b27c3bb00014e6d9a,50,1,2024-02-28T14:35:59.023Z,english_341.wav,0,peel,635,40,4,5,français,f,11,1.09391667,-44.5684473,0.47955849
58a23b2b27c3bb00014e6d9a,51,1,2024-02-28T14:35:59.023Z,english_503.wav,0,peel,1331,40,4,5,français,f,0,0.0,82.81450313,0.83149822
58a23b2b27c3bb00014e6d9a,51,1,2024-02-28T14:35:59.023Z,english_503.wav,0,peel,1331,40,4,5,français,f,1,0.1,87.05662754,1.91463783
58a23b2b27c3bb00014e6d9a,51,1,2024-02-28T14:35:59.023Z,english_503.wav,0,peel,1331,40,4,5,français,f,2,0.2,42.99051807,0.15190796
58a23b2b27c3bb00014e6d9a,51,1,2024-02-28T14:35:59.023Z,english_503.wav,0,peel,1331,40,4,5,français,f,3,0.3,23.32883613,1.60754129
58a23b2b27c3bb00014e6d9a,51,1,2024-02-28T14:35:59.023Z,english_503.wav,0,peel,1331,40,4,5,français,f,4,0.4,48.50951883,0.81229928
58a23b2b27c3bb00014e6d9a,51,1,2024-02-28T14:35:59.023Z,english_503.wav,0,peel,1331,40,4,5,français,f,5,0.5,-47.47339199,1.3748652
58a23b2b27c3bb00014e6d9a,51,1,2024-02-28T14:35:59.023Z,english_503.wav,0,peel,1331,40,4,5,français,f,6,0.6,-9.99119765,1.71927888
58a23b2b27c3bb00014e6d9a,51,1,2024-02-28T14:35:59.023Z,english_503.wav,0,peel,1331,40,4,5,français,f,7,0.7,68.86997334,0.8455295
58a23b2b27c3bb00014e6d9a,51,1,2024-02-28T14:35:59.023Z,english_503.wav,0,peel,1331,40,4,5,français,f,8,0.8,-44.22385081,0.49975448
58a23b2b27c3bb00014e6d9a,51,1,2024-02-28T14:35:59.023Z,english_503.wav,0,peel,1331,40,4,5,français,f,9,0.9,14.75546466,0.2402037
58a23b2b27c3bb00014e6d9a,51,1,2024-02-28T14:35:59.023Z,english_503.wav,0,peel,1331,40,4,5,français,f,10,1.0,-47.31135976,1.02101903
58a23b2b27c3bb00014e6d9a,51,1,2024-02-28T14:35:59.023Z,english_503.wav,0,peel,1331,40,4,5,français,f,11,1.09391667,-18.86254353,1.59376689
58a23b2b27c3bb00014e6d9a,52,1,2024-02-28T14:35:59.023Z,english_558.wav,0,pill,1148,40,4,5,français,f,0,0.0,9.45595183,1.13403788
58a23b2b27c3bb00014e6d9a,52,1,2024-02-28T14:35:59.023Z,english_558.wav,0,pill,1148,40,4,5,français,f,1,0.1,-66.91447075,1.18278708
58a23b2b27c3bb00014e6d9a,52,1,2024-02-28T14:35:59.023Z,english_558.wav,0,pill,1148,40,4,5,français,f,2,0.2,5.01642616,1.11112331
58a23b2b27c3bb00014e6d9a,52,1,2024-02-28T14:35:59.023Z,english_558.wav,0,pill,1148,40,4,5,français,f,3,0.3,-82.30049302,0.91283519
58a23b2b27c3bb00014e6d9a,52,1,2024-02-28T14:35:59.023Z,english_558.wav,0,pill,1148,40,4,5,français,f,4,0.4,-10.29129966,0.71678122
58a23b2b27c3bb00014e6d9a,52,1,2024-02-28T14:35:59.023Z,english_558.wav,0,pill,1148,40,4,5,français,f,5,0.5,99.14240741,1.64554748
58a23b2b27c3bb00014e6d9a,52,1,2024-02-28T14:35:59.023Z,english_558.wav,0,pill,1148,40,4,5,français,f,6,0.6,34.85025227,0.99485251
58a23b2b27c3bb00014e6d9a,52,1,2024-02-28T14:35:59.023Z,english_558.wav,0,pill,1148,40,4,5,français,f,7,0.7,43.44441895,0.12536515
58a23b2b27c3bb00014e6d9a,52,1,2024-02-28T14:35:59.023Z,english_558.wav,0,pill,1148,40,4,5,français,f,8,0.8,-97.39694164,0.12044716
58a23b2b27c3bb00014e6d9a,52,1,2024-02-28T14:35:59.023Z,english_558.wav,0,pill,1148,40,4,5,français,f,9,0.9,-31.97632868,0.33780284
58a23b2b27c3bb00014e6d9a,52,1,2024-02-28T14:35:59.023Z,english_558.wav,0,pill,1148,40,4,5,français,f,10,1.0,-74.01115338,0.39284816
58a23b2b27c3bb00014e6d9a,52,1,2024-02-28T14:35:59.023Z,english_558.wav,0,pill,1148,40,4,5,français,f,11,1.09391667,43.18570617,1.38494175
58a23b2b27c3bb00014e6d9a,53,1,2024-02-28T14:35:59.023Z,english_54.wav,0,peel,1205,40,4,5,français,f,0,0.0,-21.96933263,0.48716735
58a23b2b27c3bb00014e6d9a,53,1,2024-02-28T14:35:59.023Z,english_54.wav,0,peel,1205,40,4,5,français,f,1,0.1,21.34738665,1.05776716
58a23b2b27c3bb00014e6d9a,53,1,2024-02-28T14:35:59.023Z,english_54.wav,0,peel,1205,40,4,5,français,f,2,0.2,31.11757961,1.06204204
58a23b2b27c3bb00014e6d9a,53,1,2024-02-28T14:35:59.023Z,english_54.wav,0,peel,1205,40,4,5,français,f,3,0.3,-97.99268721,1.04698992
58a23b2b27c3bb00014e6d9a,53,1,2024-02-28T14:35:59.023Z,english_54.wav,0,peel,1205,40,4,5,français,f,4,0.4,-9.10924424,1.4258698
58a23b2b27c3bb00014e6d9a,53,1,2024-02-28T14:35:59.023Z,english_54.wav,0,peel,1205,40,4,5,français,f,5,0.5,6.54964279,0.044516
58a23b2b27c3bb00014e6d9a,53,1,2024-02-28T14:35:59.023Z,english_54.wav,0,peel,1205,40,4,5,français,f,6,0.6,-88.03304288,1.54012871
58a23b2b27c3bb00014e6d9a,53,1,2024-02-28T14:35:59.023Z,english_54.wav,0,peel,1205,40,4,5,français,f,7,0.7,-43.35008219,0.40475238
58a23b2b27c3bb00014e6d9a,53,1,2024-02-28T14:35:59.023Z,english_54.wav,0,peel,1205,40,4,5,français,f,8,0.8,96.98577024,1.50449696
58a23b2b27c3bb00014e6d9a,53,1,2024-02-28T14:35:59.023Z,english_54.wav,0,peel,1205,40,4,5,français,f,9,0.9,50.71384678,0.29484315
58a23b2b27c3bb00014e6d9a,53,1,2024-02-28T14:35:59.023Z,english_54.wav,0,peel,1205,40,4,5,français,f,10,1.0,-60.40662606,1.60594219
58a23b2b27c3bb00014e6d9a,53,1,2024-02-28T14:35:59.023Z,english_54.wav,0,peel,1205,40,4,5,français,f,11,1.09391667,58.67238149,0.44012247
58a23b2b27c3bb00014e6d9a,54,1,2024-02-28T14:35:59.023Z,english_625.wav,0,peel,576,40,4,5,français,f,0,0.0,75.82886559,1.22123306
58a23b2b27c3bb00014e6d9a,54,1,2024-02-28T14:35:59.023Z,english_625.wav,0,peel,576,40,4,5,français,f,1,0.1,-13.96041742,1.75348863
58a23b2b27c3bb00014e6d9a,54,1,2024-02-28T14:35:59.023Z,english_625.wav,0,peel,576,40,4,5,français,f,2,0.2,-35.92753512,0.4897572
58a23b2b27c3bb00014e6d9a,54,1,2024-02-28T14:35:59.023Z,english_625.wav,0,peel,576,40,4,5,français,f,3,0.3,40.25912686,1.96593999
58a23b2b27c3bb00014e6d9a,54,1,2024-02-28T14:35:59.023Z,english_625.wav,0,peel,576,40,4,5,français,f,4,0.4,50.45257654,1.18887939
58a23b2b27c3bb00014e6d9a,54,1,2024-02-28T14:35:59.023Z,english_625.wav,0,peel,576,40,4,5,français,f,5,0.5,85.69312188,0.25611648
58a23b2b27c3bb00014e6d9a,54,1,2024-02-28T14:35:59.023Z,english_625.wav,0,peel,576,40,4,5,français,f,6,0.6,13.47564488,0.63493032
58a23b2b27c3bb00014e6d9a,54,1,2024-02-28T14:35:59.023Z,english_625.wav,0,peel,576,40,4,5,français,f,7,0.7,-67.08587609,1.56113018
58a23b2b27c3bb00014e6d9a,54,1,2024-02-28T14:35:59.023Z,english_625.wav,0,peel,576,40,4,5,français,f,8,0.8,-13.59943795,0.9635469
58a23b2b27c3bb00014e6d9a,54,1,2024-02-28T14:35:59.023Z,english_625.wav,0,peel,576,40,4,5,français,f,9,0.9,48.64664173,1.37605444
58a23b2b27c3bb00014e6d9a,54,1,2024-02-28T14:35:59.023Z,english_625.wav,0,peel,576,40,4,5,français,f,10,1.0,12.19725268,1.05458302
58a23b2b27c3bb00014e6d9a,54,1,2024-02-28T14:35:59.023Z,english_625.wav,0,peel,576,40,4,5,français,f,11,1.09391667,29.4760152,1.34022417
58a23b2b27c3bb00014e6d9a,55,1,2024-02-28T14:35:59.023Z,english_451.wav,0,pill,718,40,4,5,français,f,0,0.0,-86.97928696,0.12091055
58a23b2b27c3bb00014e6d9a,55,1,2024-02-28T14:35:59.023Z,english_451.wav,0,pill,718,40,4,5,français,f,1,0.1,35.46303065,0.11109609
58a23b2b27c3bb00014e6d9a,55,1,2024-02-28T14:35:59.023Z,english_451.wav,0,pill,718,40,4,5,français,f,2,0.2,-6.55574904,0.96762463
58a23b2b27c3bb00014e6d9a,55,1,2024-02-28T14:35:59.023Z,english_451.wav,0,pill,718,40,4,5,français,f,3,0.3,-70.24481901,0.33361345
58a23b2b27c3bb00014e6d9a,55,1,2024-02-28T14:35:59.023Z,english_451.wav,0,pill,718,40,4,5,français,f,4,0.4,-15.3143791,1.63079661
58a23b2b27c3bb00014e6d9a,55,1,2024-02-28T14:35:59.023Z,english_451.wav,0,pill,718,40,4,5,français,f,5,0.5,-46.78683141,1.71822711
58a23b2b27c3bb00014e6d9a,55,1,2024-02-28T14:35:59.023Z,english_451.wav,0,pill,718,40,4,5,français,f,6,0.6,30.57428638,1.99896141
58a23b2b27c3bb00014e6d9a,55,1,2024-02-28T14:35:59.023Z,english_451.wav,0,pill,718,40,4,5,français,f,7,0.7,-51.27590564,1.31564503
58a23b2b27c3bb00014e6d9a,55,1,2024-02-28T14:35:59.023Z,english_451.wav,0,pill,718,40,4,5,français,f,8,0.8,-57.45214614,0.39748904
58a23b2b27c3bb00014e6d9a,55,1,2024-02-28T14:35:59.023Z,english_451.wav,0,pill,718,40,4,5,français,f,9,0.9,43.47837492,0.70409186
58a23b2b27c3bb00014e6d9a,55,1,2024-02-28T14:35:59.023Z,english_451.wav,0,pill,718,40,4,5,français,f,10,1.0,45.12702561,0.48590378
58a23b2b27c3bb00014e6d9a,55,1,2024-02-28T14:35:59.023Z,english_451.wav,0,pill,718,40,4,5,français,f,11,1.09391667,-26.34948453,1.98999714
58a23b2b27c3bb00014e6d9a,56,1,2024-02-28T14:35:59.023Z,english_996.wav,0,peel,482,40,4,5,français,f,0,0.0,-68.49547406,1.15101027
58a23b2b27c3bb00014e6d9a,56,1,2024-02-28T14:35:59.023Z,english_996.wav,0,peel,482,40,4,5,français,f,1,0.1,-2.33531362,1.76891933
58a23b2b27c3bb00014e6d9a,56,1,2024-02-28T14:35:59.023Z,english_996.wav,0,peel,482,40,4,5,français,f,2,0.2,59.75126116,1.50263503
58a23b2b27c3bb00014e6d9a,56,1,2024-02-28T14:35:59.023Z,english_996.wav,0,peel,482,40,4,5,français,f,3,0.3,91.41529036,0.3014492
58a23b2b27c3bb00014e6d9a,56,1,2024-02-28T14:35:59.023Z,english_996.wav,0,peel,482,40,4,5,français,f,4,0.4,-12.51622254,1.52458018
58a23b2b27c3bb00014e6d9a,56,1,2024-02-28T14:35:59.023Z,english_996.wav,0,peel,482,40,4,5,français,f,5,0.5,5.44058313,1.68949091
58a23b2b27c3bb00014e6d9a,56,1,2024-02-28T14:35:59.023Z,english_996.wav,0,peel,482,40,4,5,français,f,6,0.6,-53.42325035,1.14777942
58a23b2b27c3bb00014e6d9a,56,1,2024-02-28T14:35:59.023Z,english_996.wav,0,peel,482,40,4,5,français,f,7,0.7,9.17325138,1.71935076
58a23b2b27c3bb00014e6d9a,56,1,2024-02-28T14:35:59.023Z,english_996.wav,0,peel,482,40,4,5,français,f,8,0.8,53.92705363,1.57982041
58a23b2b27c3bb00014e6d9a,56,1,2024-02-28T14:35:59.023Z,english_996.wav,0,peel,482,40,4,5,français,f,9,0.9,-51.59047854,0.73704806
58a23b2b27c3bb00014e6d9a,56,1,2024-02-28T14:35:59.023Z,english_996.wav,0,peel,482,40,4,5,français,f,10,1.0,-72.60614794,0.5335164
58a23b2b27c3bb00014e6d9a,56,1,2024-02-28T14:35:59.023Z,english_996.wav,0,peel,482,40,4,5,français,f,11,1.09391667,82.93009071,0.99688365
58a23b2b27c3bb00014e6d9a,57,1,2024-02-28T14:35:59.023Z,english_613.wav,0,peel,655,40,4,5,français,f,0,0.0,56.02417359,1.45969094
58a23b2b27c3bb00014e6d9a,57,1,2024-02-28T14:35:59.023Z,english_613.wav,0,peel,655,40,4,5,français,f,1,0.1,-15.12096295,0.70307333
58a23b2b27c3bb00014e6d9a,57,1,2024-02-28T14:35:59.023Z,english_613.wav,0,peel,655,40,4,5,français,f,2,0.2,24.11599025,1.55595157
58a23b2b27c3bb00014e6d9a,57,1,2024-02-28T14:35:59.023Z,english_613.wav,0,peel,655,40,4,5,français,f,3,0.3,-98.52161237,0.89820675
58a23b2b27c3bb00014e6d9a,57,1,2024-02-28T14:35:59.023Z,english_613.wav,0,peel,655,40,4,5,français,f,4,0.4,-83.03822249,1.36107021
58a23b2b27c3bb00014e6d9a,57,1,2024-02-28T14:35:59.023Z,english_613.wav,0,peel,655,40,4,5,français,f,5,0.5,21.43017138,0.16432707
58a23b2b27c3bb00014e6d9a,57,1,2024-02-28T14:35:59.023Z,english_613.wav,0,peel,655,40,4,5,français,f,6,0.6,63.83169659,0.04833877
58a23b2b27c3bb00014e6d9a,57,1,2024-02-28T14:35:59.023Z,english_613.wav,0,peel,655,40,4,5,français,f,7,0.7,20.52778074,0.40598637
58a23b2b27c3bb00014e6d9a,57,1,2024-02-28T14:35:59.023Z,english_613.wav,0,peel,655,40,4,5,français,f,8,0.8,94.54806404,1.56556559
58a23b2b27c3bb00014e6d9a,57,1,2024-02-28T14:35:59.023Z,english_613.wav,0,peel,655,40,4,5,français,f,9,0.9,22.39216261,0.73835637
58a23b2b27c3bb00014e6d9a,57,1,2024-02-28T14:35:59.023Z,english_613.wav,0,peel,655,40,4,5,français,f,10,1.0,-21.9484098,1.13631796
58a23b2b27c3bb00014e6d9a,57,1,2024-02-28T14:35:59.023Z,english_613.wav,0,peel,655,40,4,5,français,f,11,1.09391667,-64.50590256,0.17382409
58a23b2b27c3bb00014e6d9a,58,1,2024-02-28T14:35:59.023Z,english_534.wav,0,pill,1610,40,4,5,français,f,0,0.0,-15.08523103,1.2576493
58a23b2b27c3bb00014e6d9a,58,1,2024-02-28T14:35:59.023Z,english_534.wav,0,pill,1610,40,4,5,français,f,1,0.1,93.48585898,1.2446308
58a23b2b27c3bb00014e6d9a,58,1,2024-02-28T14:35:59.023Z,english_534.wav,0,pill,1610,40,4,5,français,f,2,0.2,55.87888333,0.65171732
58a23b2b27c3bb00014e6d9a,58,1,2024-02-28T14:35:59.023Z,english_534.wav,0,pill,1610,40,4,5,français,f,3,0.3,-36.19470402,0.89712992
58a23b2b27c3bb00014e6d9a,58,1,2024-02-28T14:35:59.023Z,english_534.wav,0,pill,1610,40,4,5,français,f,4,0.4,-10.66505227,0.55440887
58a23b2b27c3bb00014e6d9a,58,1,2024-02-28T14:35:59.023Z,english_534.wav,0,pill,1610,40,4,5,français,f,5,0.5,-17.59721476,1.08297088
58a23b2b27c3bb00014e6d9a,58,1,2024-02-28T14:35:59.023Z,english_534.wav,0,pill,1610,40,4,5,français,f,6,0.6,0.24135603,0.95799779
58a23b2b27c3bb00014e6d9a,58,1,2024-02-28T14:35:59.023Z,english_534.wav,0,pill,1610,40,4,5,français,f,7,0.7,10.84337222,1.14434093
58a23b2b27c3bb00014e6d9a,58,1,2024-02-28T14:35:59.023Z,english_534.wav,0,pill,1610,40,4,5,français,f,8,0.8,-58.25689659,1.1844466
58a23b2b27c3bb00014e6d9a,58,1,2024-02-28T14:35:59.023Z,english_534.wav,0,pill,1610,40,4,5,français,f,9,0.9,99.17008703,1.42626651
58a23b2b27c3bb00014e6d9a,58,1,2024-02-28T14:35:59.023Z,english_534.wav,0,pill,1610,40,4,5,français,f,10,1.0,-1.84311714,0.25468926
58a23b2b27c3bb00014e6d9a,58,1,2024-02-28T14:35:59.023Z,english_534.wav,0,pill,1610,40,4,5,français,f,11,1.09391667,-27.99556667,1.75255348
58a23b2b27c3bb00014e6d9a,59,1,2024-02-28T14:35:59.023Z,english_23.wav,0,pill,938,40,4,5,français,f,0,0.0,-81.37820874,0.766267
58a23b2b27c3bb00014e6d9a,59,1,2024-02-28T14:35:59.023Z,english_23.wav,0,pill,938,40,4,5,français,f,1,0.1,78.5335862,0.99963617
58a23b2b27c3bb00014e6d9a,59,1,2024-02-28T14:35:59.023Z,english_23.wav,0,pill,938,40,4,5,français,f,2,0.2,2.49490295,0.86356333
58a23b2b27c3bb00014e6d9a,59,1,2024-02-28T14:35:59.023Z,english_23.wav,0,pill,938,40,4,5,français,f,3,0.3,-86.79579175,1.2935249
58a23b2b27c3bb00014e6d9a,59,1,2024-02-28T14:35:59.023Z,english_23.wav,0,pill,938,40,4,5,français,f,4,0.4,67.70163639,1.06200742
58a23b2b27c3bb00014e6d9a,59,1,2024-02-28T14:35:59.023Z,english_23.wav,0,pill,938,40,4,5,français,f,5,0.5,15.95354821,0.35652914
58a23b2b27c3bb00014e6d9a,59,1,2024-02-28T14:35:59.023Z,english_23.wav,0,pill,938,40,4,5,français,f,6,0.6,39.96363373,0.94623028
58a23b2b27c3bb00014e6d9a,59,1,2024-02-28T14:35:59.023Z,english_23.wav,0,pill,938,40,4,5,français,f,7,0.7,26.12658962,1.75391992
58a23b2b27c3bb00014e6d9a,59,1,2024-02-28T14:35:59.023Z,english_23.wav,0,pill,938,40,4,5,français,f,8,0.8,-97.91039736,0.51382587
58a23b2b27c3bb00014e6d9a,59,1,2024-02-28T14:35:59.023Z,english_23.wav,0,pill,938,40,4,5,français,f,9,0.9,-31.02807756,0.42089134
58a23b2b27c3bb00014e6d9a,59,1,2024-02-28T14:35:59.023Z,english_23.wav,0,pill,938,40,4,5,français,f,10,1.0,-20.21947661,0.35251111
58a23b2b27c3bb00014e6d9a,59,1,2024-02-28T14:35:59.023Z,english_23.wav,0,pill,938,40,4,5,français,f,11,1.09391667,-62.16065677,0.28724109
58a23b2b27c3bb00014e6d9a,60,1,2024-02-28T14:35:59.023Z,english_396.wav,0,pill,897,40,4,5,français,f,0,0.0,84.93727222,0.86172546
58a23b2b27c3bb00014e6d9a,60,1,2024-02-28T14:35:59.023Z,english_396.wav,0,pill,897,40,4,5,français,f,1,0.1,-63.66791866,1.32010306
58a23b2b27c3bb00014e6d9a,60,1,2024-02-28T14:35:59.023Z,english_396.wav,0,pill,897,40,4,5,français,f,2,0.2,14.45946743,1.92977093
58a23b2b27c3bb00014e6d9a,60,1,2024-02-28T14:35:59.023Z,english_396.wav,0,pill,897,40,4,5,français,f,3,0.3,-3.11232885,1.56073736
58a23b2b27c3bb00014e6d9a,60,1,2024-02-28T14:35:59.023Z,english_396.wav,0,pill,897,40,4,5,français,f,4,0.4,-24.43595518,0.53468527
58a23b2b27c3bb00014e6d9a,60,1,2024-02-28T14:35:59.023Z,english_396.wav,0,pill,897,40,4,5,français,f,5,0.5,-51.99030464,1.39813115
58a23b2b27c3bb00014e6d9a,60,1,2024-02-28T14:35:59.023Z,english_396.wav,0,pill,897,40,4,5,français,f,6,0.6,79.76166554,0.18875949
58a23b2b27c3bb00014e6d9a,60,1,2024-02-28T14:35:59.023Z,english_396.wav,0,pill,897,40,4,5,français,f,7,0.7,57.3813763,0.18509546
58a23b2b27c3bb00014e6d9a,60,1,2024-02-28T14:35:59.023Z,english_396.wav,0,pill,897,40,4,5,français,f,8,0.8,31.81531803,0.3363238
58a23b2b27c3bb00014e6d9a,60,1,2024-02-28T14:35:59.023Z,english_396.wav,0,pill,897,40,4,5,français,f,9,0.9,63.48869565,0.50261655
58a23b2b27c3bb00014e6d9a,60,1,2024-02-28T14:35:59.023Z,english_396.wav,0,pill,897,40,4,5,français,f,10,1.0,71.83555581,1.79852856
58a23b2b27c3bb00014e6d9a,60,1,2024-02-28T14:35:59.023Z,english_396.wav,0,pill,897,40,4,5,français,f,11,1.09391667,-2.44249492,0.37213294
58a23b2b27c3bb00014e6d9a,61,1,2024-02-28T14:35:59.023Z,english_447.wav,0,pill,713,40,4,5,français,f,0,0.0,-49.70124271,1.81391456
58a23b2b27c3bb00014e6d9a,61,1,2024-02-28T14:35:59.023Z,english_447.wav,0,pill,713,40,4,5,français,f,1,0.1,6.80747638,1.91818371
58a23b2b27c3bb00014e6d9a,61,1,2024-02-28T14:35:59.023Z,english_447.wav,0,pill,713,40,4,5,français,f,2,0.2,78.85711307,1.77045116
58a23b2b27c3bb00014e6d9a,61,1,2024-02-28T14:35:59.023Z,english_447.wav,0,pill,713,40,4,5,français,f,3,0.3,58.81086859,1.59965973
58a23b2b27c3bb00014e6d9a,61,1,2024-02-28T14:35:59.023Z,english_447.wav,0,pill,713,40,4,5,français,f,4,0.4,-4.36201374,1.21262432
58a23b2b27c3bb00014e6d9a,61,1,2024-02-28T14:35:59.023Z,english_447.wav,0,pill,713,40,4,5,français,f,5,0.5,-19.70745175,1.80283693
58a23b2b27c3bb00014e6d9a,61,1,2024-02-28T14:35:59.023Z,english_447.wav,0,pill,713,40,4,5,français,f,6,0.6,5.54500097,0.57888703
58a23b2b27c3bb00014e6d9a,61,1,2024-02-28T14:35:59.023Z,english_447.wav,0,pill,713,40,4,5,français,f,7,0.7,-73.03933833,0.47461482
58a23b2b27c3bb00014e6d9a,61,1,2024-02-28T14:35:59.023Z,english_447.wav,0,pill,713,40,4,5,français,f,8,0.8,-20.453142,0.56581151
58a23b2b27c3bb00014e6d9a,61,1,2024-02-28T14:35:59.023Z,english_447.wav,0,pill,713,40,4,5,français,f,9,0.9,9.14360097,0.85442376
58a23b2b27c3bb00014e6d9a,61,1,2024-02-28T14:35:59.023Z,english_447.wav,0,pill,713,40,4,5,français,f,10,1.0,-42.46591072,0.56057863
58a23b2b27c3bb00014e6d9a,61,1,2024-02-28T14:35:59.023Z,english_447.wav,0,pill,713,40,4,5,français,f,11,1.09391667,3.646082,1.46752368
58a23b2b27c3bb00014e6d9a,62,1,2024-02-28T14:35:59.023Z,english_81.wav,0,peel,421,40,4,5,français,f,0,0.0,71.09666265,1.09569192
58a23b2b27c3bb00014e6d9a,62,1,2024-02-28T14:35:59.023Z,english_81.wav,0,peel,421,40,4,5,français,f,1,0.1,-38.93956525,1.65684188
58a23b2b27c3bb00014e6d9a,62,1,2024-02-28T14:35:59.023Z,english_81.wav,0,peel,421,40,4,5,français,f,2,0.2,-48.61950395,0.44216952
58a23b2b27c3bb00014e6d9a,62,1,2024-02-28T14:35:59.023Z,english_81.wav,0,peel,421,40,4,5,français,f,3,0.3,33.39514041,1.72758961
58a23b2b27c3bb00014e6d9a,62,1,2024-02-28T14:35:59.023Z,english_81.wav,0,peel,421,40,4,5,français,f,4,0.4,18.24180048,1.46257927
58a23b2b27c3bb00014e6d9a,62,1,2024-02-28T14:35:59.023Z,english_81.wav,0,peel,421,40,4,5,français,f,5,0.5,-45.85953695,1.53730542
58a23b2b27c3bb00014e6d9a,62,1,2024-02-28T14:35:59.023Z,english_81.wav,0,peel,421,40,4,5,français,f,6,0.6,-0.32699599,1.28818555
58a23b2b27c3bb00014e6d9a,62,1,2024-02-28T14:35:59.023Z,english_81.wav,0,peel,421,40,4,5,français,f,7,0.7,-32.78716597,1.19414744
58a23b2b27c3bb00014e6d9a,62,1,2024-02-28T14:35:59.023Z,english_81.wav,0,peel,421,40,4,5,français,f,8,0.8,-37.9267269,1.01923165
58a23b2b27c3bb00014e6d9a,62,1,2024-02-28T14:35:59.023Z,english_81.wav,0,peel,421,40,4,5,français,f,9,0.9,24.21331247,1.67441048
58a23b2b27c3bb00014e6d9a,62,1,2024-02-28T14:35:59.023Z,english_81.wav,0,peel,421,40,4,5,français,f,10,1.0,-31.33871225,1.88948336
58a23b2b27c3bb00014e6d9a,62,1,2024-02-28T14:35:59.023Z,english_81.wav,0,peel,421,40,4,5,français,f,11,1.09391667,-77.74283174,1.81428343
58a23b2b27c3bb00014e6d9a,63,1,2024-02-28T14:35:59.023Z,english_296.wav,0,pill,863,40,4,5,français,f,0,0.0,80.48782258,1.56514642
58a23b2b27c3bb00014e6d9a,63,1,2024-02-28T14:35:59.023Z,english_296.wav,0,pill,863,40,4,5,français,f,1,0.1,10.56122862,0.84129395
58a23b2b27c3bb00014e6d9a,63,1,2024-02-28T14:35:59.023Z,english_296.wav,0,pill,863,40,4,5,français,f,2,0.2,-8.93820662,0.06138073
58a23b2b27c3bb00014e6d9a,63,1,2024-02-28T14:35:59.023Z,english_296.wav,0,pill,863,40,4,5,français,f,3,0.3,-54.86681614,0.69727856
58a23b2b27c3bb00014e6d9a,63,1,2024-02-28T14:35:59.023Z,english_296.wav,0,pill,863,40,4,5,français,f,4,0.4,4.93462284,1.5884292
58a23b2b27c3bb00014e6d9a,63,1,2024-02-28T14:35:59.023Z,english_296.wav,0,pill,863,40,4,5,français,f,5,0.5,35.74757504,1.04892583
58a23b2b27c3bb00014e6d9a,63,1,2024-02-28T14:35:59.023Z,english_296.wav,0,pill,863,40,4,5,français,f,6,0.6,68.8469079,1.9689775
58a23b2b27c3bb00014e6d9a,63,1,2024-02-28T14:35:59.023Z,english_296.wav,0,pill,863,40,4,5,français,f,7,0.7,-14.27123589,0.88805601
58a23b2b27c3bb00014e6d9a,63,1,2024-02-28T14:35:59.023Z,english_296.wav,0,pill,863,40,4,5,français,f,8,0.8,-28.29587023,1.96809087
58a23b2b27c3bb00014e6d9a,63,1,2024-02-28T14:35:59.023Z,english_296.wav,0,pill,863,40,4,5,français,f,9,0.9,95.64907093,1.8332122
58a23b2b27c3bb00014e6d9a,63,1,2024-02-28T14:35:59.023Z,english_296.wav,0,pill,863,40,4,5,français,f,10,1.0,-72.41595419,0.12281215
58a23b2b27c3bb00014e6d9a,63,1,2024-02-28T14:35:59.023Z,english_296.wav,0,pill,863,40,4,5,français,f,11,1.09391667,67.53861485,0.22120187
