subj,trial,block,date,stim,stim_order,response,rt,age,english,french,language,sex,param_index,segment,pitch,stretch
5b8fffca220be50001c59858,0,0,2024-02-28T14:47:24.335Z,english_164.wav,0,peel,1742,26,4,5,français,f,0,0.0,25.67612046,1.60368468
5b8fffca220be50001c59858,0,0,2024-02-28T14:47:24.335Z,english_164.wav,0,peel,1742,26,4,5,français,f,1,0.1,-73.22421847,0.71109799
5b8fffca220be50001c59858,0,0,2024-02-28T14:47:24.335Z,english_164.wav,0,peel,1742,26,4,5,français,f,2,0.2,45.60415064,0.65921899
5b8fffca220be50001c59858,0,0,2024-02-28T14:47:24.335Z,english_164.wav,0,peel,1742,26,4,5,français,f,3,0.3,93.27879502,1.59053842
5b8fffca220be50001c59858,0,0,2024-02-28T14:47:24.335Z,english_164.wav,0,peel,1742,26,4,5,français,f,4,0.4,33.1762566,0.71799916
5b8fffca220be50001c59858,0,0,2024-02-28T14:47:24.335Z,english_164.wav,0,peel,1742,26,4,5,français,f,5,0.5,47.64320434,1.2187377
5b8fffca220be50001c59858,0,0,2024-02-28T14:47:24.335Z,english_164.wav,0,peel,1742,26,4,5,français,f,6,0.6,-19.19510789,1.25318934
5b8fffca220be50001c59858,0,0,2024-02-28T14:47:24.335Z,english_164.wav,0,peel,1742,26,4,5,français,f,7,0.7,-33.42680653,0.56903982
5b8fffca220be50001c59858,0,0,2024-02-28T14:47:24.335Z,english_164.wav,0,peel,1742,26,4,5,français,f,8,0.8,47.71435933,0.44355463
5b8fffca220be50001c59858,0,0,2024-02-28T14:47:24.335Z,english_164.wav,0,peel,1742,26,4,5,français,f,9,0.9,5.90681892,1.65481096
5b8fffca220be50001c59858,0,0,2024-02-28T14:47:24.335Z,english_164.wav,0,peel,1742,26,4,5,français,f,10,1.0,42.52423942,0.56871191
5b8fffca220be50001c59858,0,0,2024-02-28T14:47:24.335Z,english_164.wav,0,peel,1742,26,4,5,français,f,11,1.09391667,43.22160039,0.29440298
5b8fffca220be50001c59858,1,0,2024-02-28T14:47:24.335Z,english_299.wav,0,peel,1089,26,4,5,français,f,0,0.0,-74.4174694,1.88606728
5b8fffca220be50001c59858,1,0,2024-02-28T14:47:24.335Z,english_299.wav,0,peel,1089,26,4,5,français,f,1,0.1,67.95279973,1.33791825
5b8fffca220be50001c59858,1,0,2024-02-28T14:47:24.335Z,english_299.wav,0,peel,1089,26,4,5,français,f,2,0.2,-39.20846612,1.49728268
5b8fffca220be50001c59858,1,0,2024-02-28T14:47:24.335Z,english_299.wav,0,peel,1089,26,4,5,français,f,3,0.3,75.10442899,0.10286405
5b8fffca220be50001c59858,1,0,2024-02-28T14:47:24.335Z,english_299.wav,0,peel,1089,26,4,5,français,f,4,0.4,64.17156696,0.88852199
5b8fffca220be50001c59858,1,0,2024-02-28T14:47:24.335Z,english_299.wav,0,peel,1089,26,4,5,français,f,5,0.5,-42.38450544,0.77437708
5b8fffca220be50001c59858,1,0,2024-02-28T14:47:24.335Z,english_299.wav,0,peel,1089,26,4,5,français,f,6,0.6,-86.29317574,1.38211023
5b8fffca220be50001c59858,1,0,2024-02-28T14:47:24.335Z,english_299.wav,0,peel,1089,26,4,5,français,f,7,0.7,11.40905892,1.00427558
5b8fffca220be50001c59858,1,0,2024-02-28T14:47:24.335Z,english_299.wav,0,peel,1089,26,4,5,français,f,8,0.8,13.2984643,1.53256025
5b8fffca220be50001c59858,1,0,2024-02-28T14:47:24.335Z,english_299.wav,0,peel,1089,26,4,5,français,f,9,0.9,-36.56440039,1.00789046
5b8fffca220be50001c59858,1,0,2024-02-28T14:47:24.335Z,english_299.wav,0,peel,1089,26,4,5,français,f,10,1.0,-93.57212319,0.84413966
5b8fffca220be50001c59858,1,0,2024-02-28T14:47:24.335Z,english_299.wav,0,peel,1089,26,4,5,français,f,11,1.09391667,13.37429031,1.54480909
5b8fffca220be50001c59858,2,0,2024-02-28T14:47:24.335Z,english_957.wav,0,pill,773,26,4,5,français,f,0,0.0,0.52999287,1.69063339
5b8fffca220be50001c59858,2,0,2024-02-28T14:47:24.335Z,english_957.wav,0,pill,773,26,4,5,français,f,1,0.1,42.88408516,0.90191616
5b8fffca220be50001c59858,2,0,2024-02-28T14:47:24.335Z,english_957.wav,0,pill,773,26,4,5,français,f,2,0.2,5.2606001,1.66392033
5b8fffca220be50001c59858,2,0,2024-02-28T14:47:24.335Z,english_957.wav,0,pill,773,26,4,5,français,f,3,0.3,69.22866022,0.83925309
5b8fffca220be50001c59858,2,0,2024-02-28T14:47:24.335Z,english_957.wav,0,pill,773,26,4,5,français,f,4,0.4,-59.59002501,0.68526896
5b8fffca220be50001c59858,2,0,2024-02-28T14:47:24.335Z,english_957.wav,0,pill,773,26,4,5,français,f,5,0.5,52.62821971,1.27190364
5b8fffca220be50001c59858,2,0,2024-02-28T14:47:24.335Z,english_957.wav,0,pill,773,26,4,5,français,f,6,0.6,14.01522052,0.49105021
5b8fffca220be50001c59858,2,0,2024-02-28T14:47:24.335Z,english_957.wav,0,pill,773,26,4,5,français,f,7,0.7,90.51709562,1.03233072
5b8fffca220be50001c59858,2,0,2024-02-28T14:47:24.335Z,english_957.wav,0,pill,773,26,4,5,français,f,8,0.8,-27.52109457,1.62340823
5b8fffca220be50001c59858,2,0,2024-02-28T14:47:24.335Z,english_957.wav,0,pill,773,26,4,5,français,f,9,0.9,51.07495461,1.37639553
5b8fffca220be50001c59858,2,0,2024-02-28T14:47:24.335Z,english_957.wav,0,pill,773,26,4,5,français,f,10,1.0,15.68851607,1.23872079
5b8fffca220be50001c59858,2,0,2024-02-28T14:47:24.335Z,english_957.wav,0,pill,773,26,4,5,français,f,11,1.09391667,97.28292288,0.29572749
5b8fffca220be50001c59858,3,0,2024-02-28T14:47:24.335Z,english_472.wav,0,peel,1228,26,4,5,français,f,0,0.0,-23.72821767,0.96911452
5b8fffca220be50001c59858,3,0,2024-02-28T14:47:24.335Z,english_472.wav,0,peel,1228,26,4,5,français,f,1,0.1,7.29471696,0.40121138
5b8fffca220be50001c59858,3,0,2024-02-28T14:47:24.335Z,english_472.wav,0,peel,1228,26,4,5,français,f,2,0.2,-58.55005371,1.15410482
5b8fffca220be50001c59858,3,0,2024-02-28T14:47:24.335Z,english_472.wav,0,peel,1228,26,4,5,français,f,3,0.3,77.0504256,1.91400861
5b8fffca220be50001c59858,3,0,2024-02-28T14:47:24.335Z,english_472.wav,0,peel,1228,26,4,5,français,f,4,0.4,87.29275565,0.05830067
5b8fffca220be50001c59858,3,0,2024-02-28T14:47:24.335Z,english_472.wav,0,peel,1228,26,4,5,français,f,5,0.5,-70.9646192,0.87176087
5b8fffca220be50001c59858,3,0,2024-02-28T14:47:24.335Z,english_472.wav,0,peel,1228,26,4,5,français,f,6,0.6,72.82743185,0.23371631
5b8fffca220be50001c59858,3,0,2024-02-28T14:47:24.335Z,english_472.wav,0,peel,1228,26,4,5,français,f,7,0.7,-40.27439915,1.66198616
5b8fffca220be50001c59858,3,0,2024-02-28T14:47:24.335Z,english_472.wav,0,peel,1228,26,4,5,français,f,8,0.8,-15.91396931,0.22492459
5b8fffca220be50001c59858,3,0,2024-02-28T14:47:24.335Z,english_472.wav,0,peel,1228,26,4,5,français,f,9,0.9,27.40014094,0.55757982
5b8fffca220be50001c59858,3,0,2024-02-28T14:47:24.335Z,english_472.wav,0,peel,1228,26,4,5,français,f,10,1.0,-13.69917785,1.15387827
5b8fffca220be50001c59858,3,0,2024-02-28T14:47:24.335Z,english_472.wav,0,peel,1228,26,4,5,français,f,11,1.09391667,26.78237701,1.85526867
5b8fffca220be50001c59858,4,0,2024-02-28T14:47:24.335Z,english_269.wav,0,pill,565,26,4,5,français,f,0,0.0,-83.93501444,0.85151873
5b8fffca220be50001c59858,4,0,2024-02-28T14:47:24.335Z,english_269.wav,0,pill,565,26,4,5,français,f,1,0.1,88.09879619,0.93284173
5b8fffca220be50001c59858,4,0,2024-02-28T14:47:24.335Z,english_269.wav,0,pill,565,26,4,5,français,f,2,0.2,-88.94573115,0.56585091
5b8fffca220be50001c59858,4,0,2024-02-28T14:47:24.335Z,english_269.wav,0,pill,565,26,4,5,français,f,3,0.3,-19.78587184,1.66708848
5b8fffca220be50001c59858,4,0,2024-02-28T14:47:24.335Z,english_269.wav,0,pill,565,26,4,5,français,f,4,0.4,69.53650184,0.92160414
5b8fffca220be50001c59858,4,0,2024-02-28T14:47:24.335Z,english_269.wav,0,pill,565,26,4,5,français,f,5,0.5,-12.80260332,0.96478354
5b8fffca220be50001c59858,4,0,2024-02-28T14:47:24.335Z,english_269.wav,0,pill,565,26,4,5,français,f,6,0.6,37.86483682,0.12392918
5b8fffca220be50001c59858,4,0,2024-02-28T14:47:24.335Z,english_269.wav,0,pill,565,26,4,5,français,f,7,0.7,20.748183,0.94784748
5b8fffca220be50001c59858,4,0,2024-02-28T14:47:24.335Z,english_269.wav,0,pill,565,26,4,5,français,f,8,0.8,68.31338511,0.83939678
5b8fffca220be50001c59858,4,0,2024-02-28T14:47:24.335Z,english_269.wav,0,pill,565,26,4,5,français,f,9,0.9,-95.26136032,1.67634699
5b8fffca220be50001c59858,4,0,2024-02-28T14:47:24.335Z,english_269.wav,0,pill,565,26,4,5,français,f,10,1.0,60.98745535,1.66934281
5b8fffca220be50001c59858,4,0,2024-02-28T14:47:24.335Z,english_269.wav,0,pill,565,26,4,5,français,f,11,1.09391667,-4.34526385,1.1076262
5b8fffca220be50001c59858,5,0,2024-02-28T14:47:24.335Z,english_235.wav,0,pill,278,26,4,5,français,f,0,0.0,44.65499148,0.45157531
5b8fffca220be50001c59858,5,0,2024-02-28T14:47:24.335Z,english_235.wav,0,pill,278,26,4,5,français,f,1,0.1,77.52873905,0.81502167
5b8fffca220be50001c59858,5,0,2024-02-28T14:47:24.335Z,english_235.wav,0,pill,278,26,4,5,français,f,2,0.2,7.66193616,0.73184795
5b8fffca220be50001c59858,5,0,2024-02-28T14:47:24.335Z,english_235.wav,0,pill,278,26,4,5,français,f,3,0.3,-36.65234069,1.39041991
5b8fffca220be50001c59858,5,0,2024-02-28T14:47:24.335Z,english_235.wav,0,pill,278,26,4,5,français,f,4,0.4,-38.57977077,0.8131102
5b8fffca220be50001c59858,5,0,2024-02-28T14:47:24.335Z,english_235.wav,0,pill,278,26,4,5,français,f,5,0.5,-69.81992681,0.63770546
5b8fffca220be50001c59858,5,0,2024-02-28T14:47:24.335Z,english_235.wav,0,pill,278,26,4,5,français,f,6,0.6,-3.21185942,0.48204551
5b8fffca220be50001c59858,5,0,2024-02-28T14:47:24.335Z,english_235.wav,0,pill,278,26,4,5,français,f,7,0.7,-3.7989625,0.64449527
5b8fffca220be50001c59858,5,0,2024-02-28T14:47:24.335Z,english_235.wav,0,pill,278,26,4,5,français,f,8,0.8,-60.5356981,0.17411585
5b8fffca220be50001c59858,5,0,2024-02-28T14:47:24.335Z,english_235.wav,0,pill,278,26,4,5,français,f,9,0.9,10.60420307,1.43103789
5b8fffca220be50001c59858,5,0,2024-02-28T14:47:24.335Z,english_235.wav,0,pill,278,26,4,5,français,f,10,1.0,73.74029871,1.90034823
5b8fffca220be50001c59858,5,0,2024-02-28T14:47:24.335Z,english_235.wav,0,pill,278,26,4,5,français,f,11,1.09391667,-42.3978276,0.79167247
5b8fffca220be50001c59858,6,0,2024-02-28T14:47:24.335Z,english_558.wav,0,peel,541,26,4,5,français,f,0,0.0,9.45595183,1.13403788
5b8fffca220be50001c59858,6,0,2024-02-28T14:47:24.335Z,english_558.wav,0,peel,541,26,4,5,français,f,1,0.1,-66.91447075,1.18278708
5b8fffca220be50001c59858,6,0,2024-02-28T14:47:24.335Z,english_558.wav,0,peel,541,26,4,5,français,f,2,0.2,5.01642616,1.11112331
5b8fffca220be50001c59858,6,0,2024-02-28T14:47:24.335Z,english_558.wav,0,peel,541,26,4,5,français,f,3,0.3,-82.30049302,0.91283519
5b8fffca220be50001c59858,6,0,2024-02-28T14:47:24.335Z,english_558.wav,0,peel,541,26,4,5,français,f,4,0.4,-10.29129966,0.71678122
5b8fffca220be50001c59858,6,0,2024-02-28T14:47:24.335Z,english_558.wav,0,peel,541,26,4,5,français,f,5,0.5,99.14240741,1.64554748
5b8fffca220be50001c59858,6,0,2024-02-28T14:47:24.335Z,english_558.wav,0,peel,541,26,4,5,français,f,6,0.6,34.85025227,0.99485251
5b8fffca220be50001c59858,6,0,2024-02-28T14:47:24.335Z,english_558.wav,0,peel,541,26,4,5,français,f,7,0.7,43.44441895,0.12536515
5b8fffca220be50001c59858,6,0,2024-02-28T14:47:24.335Z,english_558.wav,0,peel,541,26,4,5,français,f,8,0.8,-97.39694164,0.12044716
5b8fffca220be50001c59858,6,0,2024-02-28T14:47:24.335Z,english_558.wav,0,peel,541,26,4,5,français,f,9,0.9,-31.97632868,0.33780284
5b8fffca220be50001c59858,6,0,2024-02-28T14:47:24.335Z,english_558.wav,0,peel,541,26,4,5,français,f,10,1.0,-74.01115338,0.39284816
5b8fffca220be50001c59858,6,0,2024-02-28T14:47:24.335Z,english_558.wav,0,peel,541,26,4,5,français,f,11,1.09391667,43.18570617,1.38494175
5b8fffca220be50001c59858,7,0,2024-02-28T14:47:24.335Z,english_601.wav,0,peel,286,26,4,5,français,f,0,0.0,-27.72780098,0.09196254
5b8fffca220be50001c59858,7,0,2024-02-28T14:47:24.335Z,english_601.wav,0,peel,286,26,4,5,français,f,1,0.1,51.56349227,1.85324858
5b8fffca220be50001c59858,7,0,2024-02-28T14:47:24.335Z,english_601.wav,0,peel,286,26,4,5,français,f,2,0.2,-30.24590837,0.5611499
5b8fffca220be50001c59858,7,0,2024-02-28T14:47:24.335Z,english_601.wav,0,peel,286,26,4,5,français,f,3,0.3,-73.97880656,0.48638388
5b8fffca220be50001c59858,7,0,2024-02-28T14:47:24.335Z,english_601.wav,0,peel,286,26,4,5,français,f,4,0.4,-2.25523595,0.72682426
5b8fffca220be50001c59858,7,0,2024-02-28T14:47:24.335Z,english_601.wav,0,peel,286,26,4,5,français,f,5,0.5,-30.15739329,0.02882605
5b8fffca220be50001c59858,7,0,2024-02-28T14:47:24.335Z,english_601.wav,0,peel,286,26,4,5,français,f,6,0.6,-26.45428241,0.44853458
5b8fffca220be50001c59858,7,0,2024-02-28T14:47:24.335Z,english_601.wav,0,peel,286,26,4,5,français,f,7,0.7,-98.06133759,1.63868559
5b8fffca220be50001c59858,7,0,2024-02-28T14:47:24.335Z,english_601.wav,0,peel,286,26,4,5,français,f,8,0.8,5.27582611,1.86240344
5b8fffca220be50001c59858,7,0,2024-02-28T14:47:24.335Z,english_601.wav,0,peel,286,26,4,5,français,f,9,0.9,81.45966426,0.90381109
5b8fffca220be50001c59858,7,0,2024-02-28T14:47:24.335Z,english_601.wav,0,peel,286,26,4,5,français,f,10,1.0,21.92696124,1.07749357
5b8fffca220be50001c59858,7,0,2024-02-28T14:47:24.335Z,english_601.wav,0,peel,286,26,4,5,français,f,11,1.09391667,-86.33242355,0.98518899
5b8fffca220be50001c59858,8,0,2024-02-28T14:47:24.335Z,english_925.wav,0,peel,62,26,4,5,français,f,0,0.0,-84.57233467,1.00848694
5b8fffca220be50001c59858,8,0,2024-02-28T14:47:24.335Z,english_925.wav,0,peel,62,26,4,5,français,f,1,0.1,-44.7314948,0.79986677
5b8fffca220be50001c59858,8,0,2024-02-28T14:47:24.335Z,english_925.wav,0,peel,62,26,4,5,français,f,2,0.2,-21.76001852,1.01395723
5b8fffca220be50001c59858,8,0,2024-02-28T14:47:24.335Z,english_925.wav,0,peel,62,26,4,5,français,f,3,0.3,58.94026315,0.40578686
5b8fffca220be50001c59858,8,0,2024-02-28T14:47:24.335Z,english_925.wav,0,peel,62,26,4,5,français,f,4,0.4,68.109547,1.18343794
5b8fffca220be50001c59858,8,0,2024-02-28T14:47:24.335Z,english_925.wav,0,peel,62,26,4,5,français,f,5,0.5,49.84786379,0.73791716
5b8fffca220be50001c59858,8,0,2024-02-28T14:47:24.335Z,english_925.wav,0,peel,62,26,4,5,français,f,6,0.6,60.87486089,0.58895249
5b8fffca220be50001c59858,8,0,2024-02-28T14:47:24.335Z,english_925.wav,0,peel,62,26,4,5,français,f,7,0.7,50.05197286,0.92214068
5b8fffca220be50001c59858,8,0,2024-02-28T14:47:24.335Z,english_925.wav,0,peel,62,26,4,5,français,f,8,0.8,83.62089831,1.8971644
5b8fffca220be50001c59858,8,0,2024-02-28T14:47:24.335Z,english_925.wav,0,peel,62,26,4,5,français,f,9,0.9,-6.54901241,1.57717007
5b8fffca220be50001c59858,8,0,2024-02-28T14:47:24.335Z,english_925.wav,0,peel,62,26,4,5,français,f,10,1.0,59.32339342,1.06930768
5b8fffca220be50001c59858,8,0,2024-02-28T14:47:24.335Z,english_925.wav,0,peel,62,26,4,5,français,f,11,1.09391667,-66.08603468,1.74149988
5b8fffca220be50001c59858,9,0,2024-02-28T14:47:24.335Z,english_4.wav,0,pill,278,26,4,5,français,f,0,0.0,-33.3305161,1.1805291
5b8fffca220be50001c59858,9,0,2024-02-28T14:47:24.335Z,english_4.wav,0,pill,278,26,4,5,français,f,1,0.1,-23.37326796,0.77631495
5b8fffca220be50001c59858,9,0,2024-02-28T14:47:24.335Z,english_4.wav,0,pill,278,26,4,5,français,f,2,0.2,-42.80660343,1.23796573
5b8fffca220be50001c59858,9,0,2024-02-28T14:47:24.335Z,english_4.wav,0,pill,278,26,4,5,français,f,3,0.3,-85.97409915,0.59874379
5b8fffca220be50001c59858,9,0,2024-02-28T14:47:24.335Z,english_4.wav,0,pill,278,26,4,5,français,f,4,0.4,51.28251826,0.69643725
5b8fffca220be50001c59858,9,0,2024-02-28T14:47:24.335Z,english_4.wav,0,pill,278,26,4,5,français,f,5,0.5,20.44685701,0.26804311
5b8fffca220be50001c59858,9,0,2024-02-28T14:47:24.335Z,english_4.wav,0,pill,278,26,4,5,français,f,6,0.6,23.55063394,0.13974856
5b8fffca220be50001c59858,9,0,2024-02-28T14:47:24.335Z,english_4.wav,0,pill,278,26,4,5,français,f,7,0.7,-22.02944006,0.25652729
5b8fffca220be50001c59858,9,0,2024-02-28T14:47:24.335Z,english_4.wav,0,pill,278,26,4,5,français,f,8,0.8,55.64002673,0.69877455
5b8fffca220be50001c59858,9,0,2024-02-28T14:47:24.335Z,english_4.wav,0,pill,278,26,4,5,français,f,9,0.9,43.82412807,0.73036563
5b8fffca220be50001c59858,9,0,2024-02-28T14:47:24.335Z,english_4.wav,0,pill,278,26,4,5,français,f,10,1.0,96.09742447,1.13065304
5b8fffca220be50001c59858,9,0,2024-02-28T14:47:24.335Z,english_4.wav,0,pill,278,26,4,5,français,f,11,1.09391667,94.89276626,0.42036746
5b8fffca220be50001c59858,10,0,2024-02-28T14:47:24.335Z,english_786.wav,0,peel,212,26,4,5,français,f,0,0.0,52.51003342,0.51789452
5b8fffca220be50001c59858,10,0,2024-02-28T14:47:24.335Z,english_786.wav,0,peel,212,26,4,5,français,f,1,0.1,-29.81330981,1.63069417
5b8fffca220be50001c59858,10,0,2024-02-28T14:47:24.335Z,english_786.wav,0,peel,212,26,4,5,français,f,2,0.2,36.37880502,1.03017261
5b8fffca220be50001c59858,10,0,2024-02-28T14:47:24.335Z,english_786.wav,0,peel,212,26,4,5,français,f,3,0.3,-16.44076744,1.50298323
5b8fffca220be50001c59858,10,0,2024-02-28T14:47:24.335Z,english_786.wav,0,peel,212,26,4,5,français,f,4,0.4,88.68796251,1.46107862
5b8fffca220be50001c59858,10,0,2024-02-28T14:47:24.335Z,english_786.wav,0,peel,212,26,4,5,français,f,5,0.5,-14.03385959,0.40535011
5b8fffca220be50001c59858,10,0,2024-02-28T14:47:24.335Z,english_786.wav,0,peel,212,26,4,5,français,f,6,0.6,-91.10946789,0.38567086
5b8fffca220be50001c59858,10,0,2024-02-28T14:47:24.335Z,english_786.wav,0,peel,212,26,4,5,français,f,7,0.7,41.17265494,1.29740328
5b8fffca220be50001c59858,10,0,2024-02-28T14:47:24.335Z,english_786.wav,0,peel,212,26,4,5,français,f,8,0.8,52.01009792,1.80566199
5b8fffca220be50001c59858,10,0,2024-02-28T14:47:24.335Z,english_786.wav,0,peel,212,26,4,5,français,f,9,0.9,51.89297689,0.75401712
5b8fffca220be50001c59858,10,0,2024-02-28T14:47:24.335Z,english_786.wav,0,peel,212,26,4,5,français,f,10,1.0,66.02628762,0.59504851
5b8fffca220be50001c59858,10,0,2024-02-28T14:47:24.335Z,english_786.wav,0,peel,212,26,4,5,français,f,11,1.09391667,-81.25732307,0.27926431
5b8fffca220be50001c59858,11,0,2024-02-28T14:47:24.335Z,english_911.wav,0,peel,83,26,4,5,français,f,0,0.0,97.74431138,1.45295226
5b8fffca220be50001c59858,11,0,2024-02-28T14:47:24.335Z,english_911.wav,0,peel,83,26,4,5,français,f,1,0.1,63.25353714,0.52934156
5b8fffca220be50001c59858,11,0,2024-02-28T14:47:24.335Z,english_911.wav,0,peel,83,26,4,5,français,f,2,0.2,31.76873058,1.12978313
5b8fffca220be50001c59858,11,0,2024-02-28T14:47:24.335Z,english_911.wav,0,peel,83,26,4,5,français,f,3,0.3,-80.65515271,0.46492479
5b8fffca220be50001c59858,11,0,2024-02-28T14:47:24.335Z,english_911.wav,0,peel,83,26,4,5,français,f,4,0.4,87.72308134,1.65576631
5b8fffca220be50001c59858,11,0,2024-02-28T14:47:24.335Z,english_911.wav,0,peel,83,26,4,5,français,f,5,0.5,-43.90030619,0.95301179
5b8fffca220be50001c59858,11,0,2024-02-28T14:47:24.335Z,english_911.wav,0,peel,83,26,4,5,français,f,6,0.6,-96.43392939,1.98033305
5b8fffca220be50001c59858,11,0,2024-02-28T14:47:24.335Z,english_911.wav,0,peel,83,26,4,5,français,f,7,0.7,-95.09691132,0.56650122
5b8fffca220be50001c59858,11,0,2024-02-28T14:47:24.335Z,english_911.wav,0,peel,83,26,4,5,français,f,8,0.8,7.77484736,1.59543029
5b8fffca220be50001c59858,11,0,2024-02-28T14:47:24.335Z,english_911.wav,0,peel,83,26,4,5,français,f,9,0.9,12.16907111,1.97260423
5b8fffca220be50001c59858,11,0,2024-02-28T14:47:24.335Z,english_911.wav,0,peel,83,26,4,5,français,f,10,1.0,33.87787458,1.68149339
5b8fffca220be50001c59858,11,0,2024-02-28T14:47:24.335Z,english_911.wav,0,peel,83,26,4,5,français,f,11,1.09391667,10.13841493,1.03055348
5b8fffca220be50001c59858,12,0,2024-02-28T14:47:24.335Z,english_7.wav,0,peel,575,26,4,5,français,f,0,0.0,6.20403874,1.30974385
5b8fffca220be50001c59858,12,0,2024-02-28T14:47:24.335Z,english_7.wav,0,peel,575,26,4,5,français,f,1,0.1,37.19731147,0.99661129
5b8fffca220be50001c59858,12,0,2024-02-28T14:47:24.335Z,english_7.wav,0,peel,575,26,4,5,français,f,2,0.2,49.31472848,1.03745865
5b8fffca220be50001c59858,12,0,2024-02-28T14:47:24.335Z,english_7.wav,0,peel,575,26,4,5,français,f,3,0.3,-90.70180435,1.78258145
5b8fffca220be50001c59858,12,0,2024-02-28T14:47:24.335Z,english_7.wav,0,peel,575,26,4,5,français,f,4,0.4,27.47473692,0.46239098
5b8fffca220be50001c59858,12,0,2024-02-28T14:47:24.335Z,english_7.wav,0,peel,575,26,4,5,français,f,5,0.5,15.65561706,1.16284284
5b8fffca220be50001c59858,12,0,2024-02-28T14:47:24.335Z,english_7.wav,0,peel,575,26,4,5,français,f,6,0.6,67.99861593,0.54440065
5b8fffca220be50001c59858,12,0,2024-02-28T14:47:24.335Z,english_7.wav,0,peel,575,26,4,5,français,f,7,0.7,-2.80792886,0.65589639
5b8fffca220be50001c59858,12,0,2024-02-28T14:47:24.335Z,english_7.wav,0,peel,575,26,4,5,français,f,8,0.8,-17.20995774,0.81804206
5b8fffca220be50001c59858,12,0,2024-02-28T14:47:24.335Z,english_7.wav,0,peel,575,26,4,5,français,f,9,0.9,38.34852693,0.8839338
5b8fffca220be50001c59858,12,0,2024-02-28T14:47:24.335Z,english_7.wav,0,peel,575,26,4,5,français,f,10,1.0,6.34291962,0.72265374
5b8fffca220be50001c59858,12,0,2024-02-28T14:47:24.335Z,english_7.wav,0,peel,575,26,4,5,français,f,11,1.09391667,-45.85734326,0.75155419
5b8fffca220be50001c59858,13,0,2024-02-28T14:47:24.335Z,english_395.wav,0,pill,379,26,4,5,français,f,0,0.0,39.05735914,1.69654302
5b8fffca220be50001c59858,13,0,2024-02-28T14:47:24.335Z,english_395.wav,0,pill,379,26,4,5,français,f,1,0.1,-30.77266737,0.48886043
5b8fffca220be50001c59858,13,0,2024-02-28T14:47:24.335Z,english_395.wav,0,pill,379,26,4,5,français,f,2,0.2,-0.16224694,0.59241683
5b8fffca220be50001c59858,13,0,2024-02-28T14:47:24.335Z,english_395.wav,0,pill,379,26,4,5,français,f,3,0.3,98.26599176,1.90770156
5b8fffca220be50001c59858,13,0,2024-02-28T14:47:24.335Z,english_395.wav,0,pill,379,26,4,5,français,f,4,0.4,21.09962978,0.86143521
5b8fffca220be50001c59858,13,0,2024-02-28T14:47:24.335Z,english_395.wav,0,pill,379,26,4,5,français,f,5,0.5,26.89873822,1.51049254
5b8fffca220be50001c59858,13,0,2024-02-28T14:47:24.335Z,english_395.wav,0,pill,379,26,4,5,français,f,6,0.6,32.8700083,1.66869176
5b8fffca220be50001c59858,13,0,2024-02-28T14:47:24.335Z,english_395.wav,0,pill,379,26,4,5,français,f,7,0.7,-50.37483781,0.44723996
5b8fffca220be50001c59858,13,0,2024-02-28T14:47:24.335Z,english_395.wav,0,pill,379,26,4,5,français,f,8,0.8,-69.66232076,1.5722879
5b8fffca220be50001c59858,13,0,2024-02-28T14:47:24.335Z,english_395.wav,0,pill,379,26,4,5,français,f,9,0.9,-62.2392655,1.69268341
5b8fffca220be50001c59858,13,0,2024-02-28T14:47:24.335Z,english_395.wav,0,pill,379,26,4,5,français,f,10,1.0,-93.99204506,0.08078728
5b8fffca220be50001c59858,13,0,2024-02-28T14:47:24.335Z,english_395.wav,0,pill,379,26,4,5,français,f,11,1.09391667,46.98946298,0.81015785
5b8fffca220be50001c59858,14,0,2024-02-28T14:47:24.335Z,english_647.wav,0,peel,367,26,4,5,français,f,0,0.0,54.52725229,1.1883546
5b8fffca220be50001c59858,14,0,2024-02-28T14:47:24.335Z,english_647.wav,0,peel,367,26,4,5,français,f,1,0.1,-56.14693886,1.65081997
5b8fffca220be50001c59858,14,0,2024-02-28T14:47:24.335Z,english_647.wav,0,peel,367,26,4,5,français,f,2,0.2,71.63132719,1.02051213
5b8fffca220be50001c59858,14,0,2024-02-28T14:47:24.335Z,english_647.wav,0,peel,367,26,4,5,français,f,3,0.3,-23.02387172,1.7000584
5b8fffca220be50001c59858,14,0,2024-02-28T14:47:24.335Z,english_647.wav,0,peel,367,26,4,5,français,f,4,0.4,-60.51376999,0.62509688
5b8fffca220be50001c59858,14,0,2024-02-28T14:47:24.335Z,english_647.wav,0,peel,367,26,4,5,français,f,5,0.5,-64.57692494,1.60189297
5b8fffca220be50001c59858,14,0,2024-02-28T14:47:24.335Z,english_647.wav,0,peel,367,26,4,5,français,f,6,0.6,46.96365994,1.40209494
5b8fffca220be50001c59858,14,0,2024-02-28T14:47:24.335Z,english_647.wav,0,peel,367,26,4,5,français,f,7,0.7,2.340544,1.32470585
5b8fffca220be50001c59858,14,0,2024-02-28T14:47:24.335Z,english_647.wav,0,peel,367,26,4,5,français,f,8,0.8,-11.6475953,1.16038123
5b8fffca220be50001c59858,14,0,2024-02-28T14:47:24.335Z,english_647.wav,0,peel,367,26,4,5,français,f,9,0.9,62.71297866,0.96037121
5b8fffca220be50001c59858,14,0,2024-02-28T14:47:24.335Z,english_647.wav,0,peel,367,26,4,5,français,f,10,1.0,-48.91159538,0.45954714
5b8fffca220be50001c59858,14,0,2024-02-28T14:47:24.335Z,english_647.wav,0,peel,367,26,4,5,français,f,11,1.09391667,-39.00416387,1.53514393
5b8fffca220be50001c59858,15,0,2024-02-28T14:47:24.335Z,english_251.wav,0,peel,323,26,4,5,français,f,0,0.0,-93.03805102,1.12342723
5b8fffca220be50001c59858,15,0,2024-02-28T14:47:24.335Z,english_251.wav,0,peel,323,26,4,5,français,f,1,0.1,51.2655571,1.9149468
5b8fffca220be50001c59858,15,0,2024-02-28T14:47:24.335Z,english_251.wav,0,peel,323,26,4,5,français,f,2,0.2,37.58283666,1.73876516
5b8fffca220be50001c59858,15,0,2024-02-28T14:47:24.335Z,english_251.wav,0,peel,323,26,4,5,français,f,3,0.3,-55.53133441,1.01047504
5b8fffca220be50001c59858,15,0,2024-02-28T14:47:24.335Z,english_251.wav,0,peel,323,26,4,5,français,f,4,0.4,98.21602679,0.87048418
5b8fffca220be50001c59858,15,0,2024-02-28T14:47:24.335Z,english_251.wav,0,peel,323,26,4,5,français,f,5,0.5,-85.24256095,1.77281536
5b8fffca220be50001c59858,15,0,2024-02-28T14:47:24.335Z,english_251.wav,0,peel,323,26,4,5,français,f,6,0.6,-76.0460332,1.29741372
5b8fffca220be50001c59858,15,0,2024-02-28T14:47:24.335Z,english_251.wav,0,peel,323,26,4,5,français,f,7,0.7,26.51950349,0.41684213
5b8fffca220be50001c59858,15,0,2024-02-28T14:47:24.335Z,english_251.wav,0,peel,323,26,4,5,français,f,8,0.8,-37.24987979,1.13690271
5b8fffca220be50001c59858,15,0,2024-02-28T14:47:24.335Z,english_251.wav,0,peel,323,26,4,5,français,f,9,0.9,-60.42287441,1.00770315
5b8fffca220be50001c59858,15,0,2024-02-28T14:47:24.335Z,english_251.wav,0,peel,323,26,4,5,français,f,10,1.0,31.01216571,0.51077747
5b8fffca220be50001c59858,15,0,2024-02-28T14:47:24.335Z,english_251.wav,0,peel,323,26,4,5,français,f,11,1.09391667,74.35472995,0.89311028
5b8fffca220be50001c59858,16,0,2024-02-28T14:47:24.335Z,english_996.wav,0,pill,252,26,4,5,français,f,0,0.0,-68.49547406,1.15101027
5b8fffca220be50001c59858,16,0,2024-02-28T14:47:24.335Z,english_996.wav,0,pill,252,26,4,5,français,f,1,0.1,-2.33531362,1.76891933
5b8fffca220be50001c59858,16,0,2024-02-28T14:47:24.335Z,english_996.wav,0,pill,252,26,4,5,français,f,2,0.2,59.75126116,1.50263503
5b8fffca220be50001c59858,16,0,2024-02-28T14:47:24.335Z,english_996.wav,0,pill,252,26,4,5,français,f,3,0.3,91.41529036,0.3014492
5b8fffca220be50001c59858,16,0,2024-02-28T14:47:24.335Z,english_996.wav,0,pill,252,26,4,5,français,f,4,0.4,-12.51622254,1.52458018
5b8fffca220be50001c59858,16,0,2024-02-28T14:47:24.335Z,english_996.wav,0,pill,252,26,4,5,français,f,5,0.5,5.44058313,1.68949091
5b8fffca220be50001c59858,16,0,2024-02-28T14:47:24.335Z,english_996.wav,0,pill,252,26,4,5,français,f,6,0.6,-53.42325035,1.14777942
5b8fffca220be50001c59858,16,0,2024-02-28T14:47:24.335Z,english_996.wav,0,pill,252,26,4,5,français,f,7,0.7,9.17325138,1.71935076
5b8fffca220be50001c59858,16,0,2024-02-28T14:47:24.335Z,english_996.wav,0,pill,252,26,4,5,français,f,8,0.8,53.92705363,1.57982041
5b8fffca220be50001c59858,16,0,2024-02-28T14:47:24.335Z,english_996.wav,0,pill,252,26,4,5,français,f,9,0.9,-51.59047854,0.73704806
5b8fffca220be50001c59858,16,0,2024-02-28T14:47:24.335Z,english_996.wav,0,pill,252,26,4,5,français,f,10,1.0,-72.60614794,0.5335164
5b8fffca220be50001c59858,16,0,2024-02-28T14:47:24.335Z,english_996.wav,0,pill,252,26,4,5,français,f,11,1.09391667,82.93009071,0.99688365
5b8fffca220be50001c59858,17,0,2024-02-28T14:47:24.335Z,english_112.wav,0,peel,417,26,4,5,français,f,0,0.0,49.45259009,1.41914206
5b8fffca220be50001c59858,17,0,2024-02-28T14:47:24.335Z,english_112.wav,0,peel,417,26,4,5,français,f,1,0.1,26.00670844,1.08420532
5b8fffca220be50001c59858,17,0,2024-02-28T14:47:24.335Z,english_112.wav,0,peel,417,26,4,5,français,f,2,0.2,-62.78053013,1.90864959
5b8fffca220be50001c59858,17,0,2024-02-28T14:47:24.335Z,english_112.wav,0,peel,417,26,4,5,français,f,3,0.3,13.64858628,0.00296714
5b8fffca220be50001c59858,17,0,2024-02-28T14:47:24.335Z,english_112.wav,0,peel,417,26,4,5,français,f,4,0.4,-46.53502922,0.2257171
5b8fffca220be50001c59858,17,0,2024-02-28T14:47:24.335Z,english_112.wav,0,peel,417,26,4,5,français,f,5,0.5,55.2952107,1.98382605
5b8fffca220be50001c59858,17,0,2024-02-28T14:47:24.335Z,english_112.wav,0,peel,417,26,4,5,français,f,6,0.6,-37.49134954,0.39764394
5b8fffca220be50001c59858,17,0,2024-02-28T14:47:24.335Z,english_112.wav,0,peel,417,26,4,5,français,f,7,0.7,9.25181319,1.10443659
5b8fffca220be50001c59858,17,0,2024-02-28T14:47:24.335Z,english_112.wav,0,peel,417,26,4,5,français,f,8,0.8,52.76907871,0.52917173
5b8fffca220be50001c59858,17,0,2024-02-28T14:47:24.335Z,english_112.wav,0,peel,417,26,4,5,français,f,9,0.9,40.19984459,0.39475588
5b8fffca220be50001c59858,17,0,2024-02-28T14:47:24.335Z,english_112.wav,0,peel,417,26,4,5,français,f,10,1.0,72.4009261,0.72882938
5b8fffca220be50001c59858,17,0,2024-02-28T14:47:24.335Z,english_112.wav,0,peel,417,26,4,5,français,f,11,1.09391667,-65.62688247,0.87807842
5b8fffca220be50001c59858,18,0,2024-02-28T14:47:24.335Z,english_751.wav,0,peel,505,26,4,5,français,f,0,0.0,-66.06272789,0.8938032
5b8fffca220be50001c59858,18,0,2024-02-28T14:47:24.335Z,english_751.wav,0,peel,505,26,4,5,français,f,1,0.1,-35.39424596,0.85096145
5b8fffca220be50001c59858,18,0,2024-02-28T14:47:24.335Z,english_751.wav,0,peel,505,26,4,5,français,f,2,0.2,-5.06217065,0.63682042
5b8fffca220be50001c59858,18,0,2024-02-28T14:47:24.335Z,english_751.wav,0,peel,505,26,4,5,français,f,3,0.3,34.9656481,0.66546542
5b8fffca220be50001c59858,18,0,2024-02-28T14:47:24.335Z,english_751.wav,0,peel,505,26,4,5,français,f,4,0.4,21.23436914,1.36528552
5b8fffca220be50001c59858,18,0,2024-02-28T14:47:24.335Z,english_751.wav,0,peel,505,26,4,5,français,f,5,0.5,82.13600136,1.24494727
5b8fffca220be50001c59858,18,0,2024-02-28T14:47:24.335Z,english_751.wav,0,peel,505,26,4,5,français,f,6,0.6,31.75524198,1.91319775
5b8fffca220be50001c59858,18,0,2024-02-28T14:47:24.335Z,english_751.wav,0,peel,505,26,4,5,français,f,7,0.7,25.74157906,1.46839197
5b8fffca220be50001c59858,18,0,2024-02-28T14:47:24.335Z,english_751.wav,0,peel,505,26,4,5,français,f,8,0.8,0.71739343,1.22847184
5b8fffca220be50001c59858,18,0,2024-02-28T14:47:24.335Z,english_751.wav,0,peel,505,26,4,5,français,f,9,0.9,-48.73723386,1.68139256
5b8fffca220be50001c59858,18,0,2024-02-28T14:47:24.335Z,english_751.wav,0,peel,505,26,4,5,français,f,10,1.0,-45.00388336,0.62568337
5b8fffca220be50001c59858,18,0,2024-02-28T14:47:24.335Z,english_751.wav,0,peel,505,26,4,5,français,f,11,1.09391667,-22.7557427,0.09425642
5b8fffca220be50001c59858,19,0,2024-02-28T14:47:24.335Z,english_417.wav,0,peel,596,26,4,5,français,f,0,0.0,29.37383655,1.92425936
5b8fffca220be50001c59858,19,0,2024-02-28T14:47:24.335Z,english_417.wav,0,peel,596,26,4,5,français,f,1,0.1,23.19156398,0.6229039
5b8fffca220be50001c59858,19,0,2024-02-28T14:47:24.335Z,english_417.wav,0,peel,596,26,4,5,français,f,2,0.2,85.81337763,1.36154183
5b8fffca220be50001c59858,19,0,2024-02-28T14:47:24.335Z,english_417.wav,0,peel,596,26,4,5,français,f,3,0.3,-29.64908449,0.09031289
5b8fffca220be50001c59858,19,0,2024-02-28T14:47:24.335Z,english_417.wav,0,peel,596,26,4,5,français,f,4,0.4,8.97904128,0.90960709
5b8fffca220be50001c59858,19,0,2024-02-28T14:47:24.335Z,english_417.wav,0,peel,596,26,4,5,français,f,5,0.5,39.22706603,1.25920128
5b8fffca220be50001c59858,19,0,2024-02-28T14:47:24.335Z,english_417.wav,0,peel,596,26,4,5,français,f,6,0.6,61.83715867,1.48525242
5b8fffca220be50001c59858,19,0,2024-02-28T14:47:24.335Z,english_417.wav,0,peel,596,26,4,5,français,f,7,0.7,-85.41027475,0.60232136
5b8fffca220be50001c59858,19,0,2024-02-28T14:47:24.335Z,english_417.wav,0,peel,596,26,4,5,français,f,8,0.8,73.95238576,0.50952592
5b8fffca220be50001c59858,19,0,2024-02-28T14:47:24.335Z,english_417.wav,0,peel,596,26,4,5,français,f,9,0.9,27.80762862,0.22145612
5b8fffca220be50001c59858,19,0,2024-02-28T14:47:24.335Z,english_417.wav,0,peel,596,26,4,5,français,f,10,1.0,-27.42196196,0.91644458
5b8fffca220be50001c59858,19,0,2024-02-28T14:47:24.335Z,english_417.wav,0,peel,596,26,4,5,français,f,11,1.09391667,-33.44848628,1.07641807
5b8fffca220be50001c59858,20,0,2024-02-28T14:47:24.335Z,english_319.wav,0,peel,124,26,4,5,français,f,0,0.0,77.16443591,0.7420308
5b8fffca220be50001c59858,20,0,2024-02-28T14:47:24.335Z,english_319.wav,0,peel,124,26,4,5,français,f,1,0.1,-97.50447801,0.79369359
5b8fffca220be50001c59858,20,0,2024-02-28T14:47:24.335Z,english_319.wav,0,peel,124,26,4,5,français,f,2,0.2,48.22320359,0.01474693
5b8fffca220be50001c59858,20,0,2024-02-28T14:47:24.335Z,english_319.wav,0,peel,124,26,4,5,français,f,3,0.3,85.69365628,0.05089627
5b8fffca220be50001c59858,20,0,2024-02-28T14:47:24.335Z,english_319.wav,0,peel,124,26,4,5,français,f,4,0.4,-99.19363603,1.27499461
5b8fffca220be50001c59858,20,0,2024-02-28T14:47:24.335Z,english_319.wav,0,peel,124,26,4,5,français,f,5,0.5,-23.7721795,1.87204787
5b8fffca220be50001c59858,20,0,2024-02-28T14:47:24.335Z,english_319.wav,0,peel,124,26,4,5,français,f,6,0.6,69.35156136,1.81900072
5b8fffca220be50001c59858,20,0,2024-02-28T14:47:24.335Z,english_319.wav,0,peel,124,26,4,5,français,f,7,0.7,-45.28598517,1.18018
5b8fffca220be50001c59858,20,0,2024-02-28T14:47:24.335Z,english_319.wav,0,peel,124,26,4,5,français,f,8,0.8,-63.05288391,1.07853439
5b8fffca220be50001c59858,20,0,2024-02-28T14:47:24.335Z,english_319.wav,0,peel,124,26,4,5,français,f,9,0.9,-37.89893573,1.96522233
5b8fffca220be50001c59858,20,0,2024-02-28T14:47:24.335Z,english_319.wav,0,peel,124,26,4,5,français,f,10,1.0,-33.85226459,1.95815374
5b8fffca220be50001c59858,20,0,2024-02-28T14:47:24.335Z,english_319.wav,0,peel,124,26,4,5,français,f,11,1.09391667,-77.07753192,1.86512983
5b8fffca220be50001c59858,21,0,2024-02-28T14:47:24.335Z,english_217.wav,0,peel,536,26,4,5,français,f,0,0.0,49.03427647,0.32664973
5b8fffca220be50001c59858,21,0,2024-02-28T14:47:24.335Z,english_217.wav,0,peel,536,26,4,5,français,f,1,0.1,55.51339481,1.39032489
5b8fffca220be50001c59858,21,0,2024-02-28T14:47:24.335Z,english_217.wav,0,peel,536,26,4,5,français,f,2,0.2,8.85342812,0.17335256
5b8fffca220be50001c59858,21,0,2024-02-28T14:47:24.335Z,english_217.wav,0,peel,536,26,4,5,français,f,3,0.3,38.54994366,0.12434027
5b8fffca220be50001c59858,21,0,2024-02-28T14:47:24.335Z,english_217.wav,0,peel,536,26,4,5,français,f,4,0.4,-2.70833959,1.97912601
5b8fffca220be50001c59858,21,0,2024-02-28T14:47:24.335Z,english_217.wav,0,peel,536,26,4,5,français,f,5,0.5,70.3938548,0.49508024
5b8fffca220be50001c59858,21,0,2024-02-28T14:47:24.335Z,english_217.wav,0,peel,536,26,4,5,français,f,6,0.6,5.12480722,1.41080808
5b8fffca220be50001c59858,21,0,2024-02-28T14:47:24.335Z,english_217.wav,0,peel,536,26,4,5,français,f,7,0.7,-74.03796069,0.59237566
5b8fffca220be50001c59858,21,0,2024-02-28T14:47:24.335Z,english_217.wav,0,peel,536,26,4,5,français,f,8,0.8,-33.3486243,0.51007366
5b8fffca220be50001c59858,21,0,2024-02-28T14:47:24.335Z,english_217.wav,0,peel,536,26,4,5,français,f,9,0.9,-40.28599149,0.60232464
5b8fffca220be50001c59858,21,0,2024-02-28T14:47:24.335Z,english_217.wav,0,peel,536,26,4,5,français,f,10,1.0,19.2288181,0.62471618
5b8fffca220be50001c59858,21,0,2024-02-28T14:47:24.335Z,english_217.wav,0,peel,536,26,4,5,français,f,11,1.09391667,28.27107092,0.07651966
5b8fffca220be50001c59858,22,0,2024-02-28T14:47:24.335Z,english_515.wav,0,pill,301,26,4,5,français,f,0,0.0,-58.23176372,1.22843541
5b8fffca220be50001c59858,22,0,2024-02-28T14:47:24.335Z,english_515.wav,0,pill,301,26,4,5,français,f,1,0.1,-76.45173976,1.63015901
5b8fffca220be50001c59858,22,0,2024-02-28T14:47:24.335Z,english_515.wav,0,pill,301,26,4,5,français,f,2,0.2,25.49902523,1.20813881
5b8fffca220be50001c59858,22,0,2024-02-28T14:47:24.335Z,english_515.wav,0,pill,301,26,4,5,français,f,3,0.3,5.27103545,0.47612476
5b8fffca220be50001c59858,22,0,2024-02-28T14:47:24.335Z,english_515.wav,0,pill,301,26,4,5,français,f,4,0.4,-41.64983344,0.26545174
5b8fffca220be50001c59858,22,0,2024-02-28T14:47:24.335Z,english_515.wav,0,pill,301,26,4,5,français,f,5,0.5,-51.29888172,1.8557412
5b8fffca220be50001c59858,22,0,2024-02-28T14:47:24.335Z,english_515.wav,0,pill,301,26,4,5,français,f,6,0.6,65.36966432,0.81547092
5b8fffca220be50001c59858,22,0,2024-02-28T14:47:24.335Z,english_515.wav,0,pill,301,26,4,5,français,f,7,0.7,-56.17839976,1.63185656
5b8fffca220be50001c59858,22,0,2024-02-28T14:47:24.335Z,english_515.wav,0,pill,301,26,4,5,français,f,8,0.8,-12.23547481,0.09263004
5b8fffca220be50001c59858,22,0,2024-02-28T14:47:24.335Z,english_515.wav,0,pill,301,26,4,5,français,f,9,0.9,-89.1418522,1.76127396
5b8fffca220be50001c59858,22,0,2024-02-28T14:47:24.335Z,english_515.wav,0,pill,301,26,4,5,français,f,10,1.0,8.96872742,0.57224671
5b8fffca220be50001c59858,22,0,2024-02-28T14:47:24.335Z,english_515.wav,0,pill,301,26,4,5,français,f,11,1.09391667,-18.30503433,1.26155121
5b8fffca220be50001c59858,23,0,2024-02-28T14:47:24.335Z,english_882.wav,0,peel,425,26,4,5,français,f,0,0.0,-7.05979315,0.25493427
5b8fffca220be50001c59858,23,0,2024-02-28T14:47:24.335Z,english_882.wav,0,peel,425,26,4,5,français,f,1,0.1,11.12287517,1.40090196
5b8fffca220be50001c59858,23,0,2024-02-28T14:47:24.335Z,english_882.wav,0,peel,425,26,4,5,français,f,2,0.2,28.5672698,0.1131803
5b8fffca220be50001c59858,23,0,2024-02-28T14:47:24.335Z,english_882.wav,0,peel,425,26,4,5,français,f,3,0.3,16.48717496,1.17672005
5b8fffca220be50001c59858,23,0,2024-02-28T14:47:24.335Z,english_882.wav,0,peel,425,26,4,5,français,f,4,0.4,6.46389904,1.65791719
5b8fffca220be50001c59858,23,0,2024-02-28T14:47:24.335Z,english_882.wav,0,peel,425,26,4,5,français,f,5,0.5,-33.62191601,1.48549593
5b8fffca220be50001c59858,23,0,2024-02-28T14:47:24.335Z,english_882.wav,0,peel,425,26,4,5,français,f,6,0.6,24.95644847,0.02678123
5b8fffca220be50001c59858,23,0,2024-02-28T14:47:24.335Z,english_882.wav,0,peel,425,26,4,5,français,f,7,0.7,-38.16076581,0.84885904
5b8fffca220be50001c59858,23,0,2024-02-28T14:47:24.335Z,english_882.wav,0,peel,425,26,4,5,français,f,8,0.8,-79.20201093,0.30029844
5b8fffca220be50001c59858,23,0,2024-02-28T14:47:24.335Z,english_882.wav,0,peel,425,26,4,5,français,f,9,0.9,-71.11539398,0.49544308
5b8fffca220be50001c59858,23,0,2024-02-28T14:47:24.335Z,english_882.wav,0,peel,425,26,4,5,français,f,10,1.0,-86.32031944,0.41090122
5b8fffca220be50001c59858,23,0,2024-02-28T14:47:24.335Z,english_882.wav,0,peel,425,26,4,5,français,f,11,1.09391667,-43.4557724,0.68463909
5b8fffca220be50001c59858,24,0,2024-02-28T14:47:24.335Z,english_401.wav,0,peel,309,26,4,5,français,f,0,0.0,-36.1059854,1.51802818
5b8fffca220be50001c59858,24,0,2024-02-28T14:47:24.335Z,english_401.wav,0,peel,309,26,4,5,français,f,1,0.1,38.605133,1.15871841
5b8fffca220be50001c59858,24,0,2024-02-28T14:47:24.335Z,english_401.wav,0,peel,309,26,4,5,français,f,2,0.2,6.46138816,1.08082563
5b8fffca220be50001c59858,24,0,2024-02-28T14:47:24.335Z,english_401.wav,0,peel,309,26,4,5,français,f,3,0.3,-76.8629005,0.42984112
5b8fffca220be50001c59858,24,0,2024-02-28T14:47:24.335Z,english_401.wav,0,peel,309,26,4,5,français,f,4,0.4,53.9378868,1.24745689
5b8fffca220be50001c59858,24,0,2024-02-28T14:47:24.335Z,english_401.wav,0,peel,309,26,4,5,français,f,5,0.5,28.3848957,0.52889601
5b8fffca220be50001c59858,24,0,2024-02-28T14:47:24.335Z,english_401.wav,0,peel,309,26,4,5,français,f,6,0.6,49.535102,1.52039951
5b8fffca220be50001c59858,24,0,2024-02-28T14:47:24.335Z,english_401.wav,0,peel,309,26,4,5,français,f,7,0.7,-64.7881021,1.59778592
5b8fffca220be50001c59858,24,0,2024-02-28T14:47:24.335Z,english_401.wav,0,peel,309,26,4,5,français,f,8,0.8,-98.9667189,0.63237027
5b8fffca220be50001c59858,24,0,2024-02-28T14:47:24.335Z,english_401.wav,0,peel,309,26,4,5,français,f,9,0.9,-0.0263257976,0.3603848
5b8fffca220be50001c59858,24,0,2024-02-28T14:47:24.335Z,english_401.wav,0,peel,309,26,4,5,français,f,10,1.0,-0.147031707,0.91165557
5b8fffca220be50001c59858,24,0,2024-02-28T14:47:24.335Z,english_401.wav,0,peel,309,26,4,5,français,f,11,1.09391667,-83.6458716,1.59350312
5b8fffca220be50001c59858,25,0,2024-02-28T14:47:24.335Z,english_740.wav,0,peel,242,26,4,5,français,f,0,0.0,44.23615519,0.18420553
5b8fffca220be50001c59858,25,0,2024-02-28T14:47:24.335Z,english_740.wav,0,peel,242,26,4,5,français,f,1,0.1,98.76848798,0.33702749
5b8fffca220be50001c59858,25,0,2024-02-28T14:47:24.335Z,english_740.wav,0,peel,242,26,4,5,français,f,2,0.2,-87.19170744,1.65487116
5b8fffca220be50001c59858,25,0,2024-02-28T14:47:24.335Z,english_740.wav,0,peel,242,26,4,5,français,f,3,0.3,17.94684961,1.85046367
5b8fffca220be50001c59858,25,0,2024-02-28T14:47:24.335Z,english_740.wav,0,peel,242,26,4,5,français,f,4,0.4,-12.45304931,1.41062797
5b8fffca220be50001c59858,25,0,2024-02-28T14:47:24.335Z,english_740.wav,0,peel,242,26,4,5,français,f,5,0.5,-75.39454761,0.63278533
5b8fffca220be50001c59858,25,0,2024-02-28T14:47:24.335Z,english_740.wav,0,peel,242,26,4,5,français,f,6,0.6,-53.40311478,0.41831459
5b8fffca220be50001c59858,25,0,2024-02-28T14:47:24.335Z,english_740.wav,0,peel,242,26,4,5,français,f,7,0.7,-59.89405571,0.99199332
5b8fffca220be50001c59858,25,0,2024-02-28T14:47:24.335Z,english_740.wav,0,peel,242,26,4,5,français,f,8,0.8,75.23070465,1.19341016
5b8fffca220be50001c59858,25,0,2024-02-28T14:47:24.335Z,english_740.wav,0,peel,242,26,4,5,français,f,9,0.9,-2.56343276,1.12149102
5b8fffca220be50001c59858,25,0,2024-02-28T14:47:24.335Z,english_740.wav,0,peel,242,26,4,5,français,f,10,1.0,-6.86096821,0.55698581
5b8fffca220be50001c59858,25,0,2024-02-28T14:47:24.335Z,english_740.wav,0,peel,242,26,4,5,français,f,11,1.09391667,-15.16975803,1.3020905
5b8fffca220be50001c59858,26,0,2024-02-28T14:47:24.335Z,english_581.wav,0,pill,185,26,4,5,français,f,0,0.0,73.66932606,1.55016183
5b8fffca220be50001c59858,26,0,2024-02-28T14:47:24.335Z,english_581.wav,0,pill,185,26,4,5,français,f,1,0.1,-66.94779644,0.89838662
5b8fffca220be50001c59858,26,0,2024-02-28T14:47:24.335Z,english_581.wav,0,pill,185,26,4,5,français,f,2,0.2,17.54153331,0.42808685
5b8fffca220be50001c59858,26,0,2024-02-28T14:47:24.335Z,english_581.wav,0,pill,185,26,4,5,français,f,3,0.3,-33.4804178,0.92207517
5b8fffca220be50001c59858,26,0,2024-02-28T14:47:24.335Z,english_581.wav,0,pill,185,26,4,5,français,f,4,0.4,-75.87348007,0.40201435
5b8fffca220be50001c59858,26,0,2024-02-28T14:47:24.335Z,english_581.wav,0,pill,185,26,4,5,français,f,5,0.5,-19.3699166,0.78725452
5b8fffca220be50001c59858,26,0,2024-02-28T14:47:24.335Z,english_581.wav,0,pill,185,26,4,5,français,f,6,0.6,44.64649322,0.99552959
5b8fffca220be50001c59858,26,0,2024-02-28T14:47:24.335Z,english_581.wav,0,pill,185,26,4,5,français,f,7,0.7,49.72085551,1.64481575
5b8fffca220be50001c59858,26,0,2024-02-28T14:47:24.335Z,english_581.wav,0,pill,185,26,4,5,français,f,8,0.8,-60.52101801,1.59282789
5b8fffca220be50001c59858,26,0,2024-02-28T14:47:24.335Z,english_581.wav,0,pill,185,26,4,5,français,f,9,0.9,-63.98249467,0.98679066
5b8fffca220be50001c59858,26,0,2024-02-28T14:47:24.335Z,english_581.wav,0,pill,185,26,4,5,français,f,10,1.0,-38.32664081,1.29384626
5b8fffca220be50001c59858,26,0,2024-02-28T14:47:24.335Z,english_581.wav,0,pill,185,26,4,5,français,f,11,1.09391667,93.53202253,1.70769846
5b8fffca220be50001c59858,27,0,2024-02-28T14:47:24.335Z,english_432.wav,0,peel,46,26,4,5,français,f,0,0.0,28.49955807,0.25208372
5b8fffca220be50001c59858,27,0,2024-02-28T14:47:24.335Z,english_432.wav,0,peel,46,26,4,5,français,f,1,0.1,-31.8275444,0.73448825
5b8fffca220be50001c59858,27,0,2024-02-28T14:47:24.335Z,english_432.wav,0,peel,46,26,4,5,français,f,2,0.2,24.24217544,0.75780001
5b8fffca220be50001c59858,27,0,2024-02-28T14:47:24.335Z,english_432.wav,0,peel,46,26,4,5,français,f,3,0.3,-66.09269444,1.1180686
5b8fffca220be50001c59858,27,0,2024-02-28T14:47:24.335Z,english_432.wav,0,peel,46,26,4,5,français,f,4,0.4,-62.15798019,1.06816696
5b8fffca220be50001c59858,27,0,2024-02-28T14:47:24.335Z,english_432.wav,0,peel,46,26,4,5,français,f,5,0.5,-49.72154406,0.60613643
5b8fffca220be50001c59858,27,0,2024-02-28T14:47:24.335Z,english_432.wav,0,peel,46,26,4,5,français,f,6,0.6,-47.69762913,0.58276722
5b8fffca220be50001c59858,27,0,2024-02-28T14:47:24.335Z,english_432.wav,0,peel,46,26,4,5,français,f,7,0.7,77.36626765,1.4653334
5b8fffca220be50001c59858,27,0,2024-02-28T14:47:24.335Z,english_432.wav,0,peel,46,26,4,5,français,f,8,0.8,5.83013874,1.3937813
5b8fffca220be50001c59858,27,0,2024-02-28T14:47:24.335Z,english_432.wav,0,peel,46,26,4,5,français,f,9,0.9,28.26329168,1.50157436
5b8fffca220be50001c59858,27,0,2024-02-28T14:47:24.335Z,english_432.wav,0,peel,46,26,4,5,français,f,10,1.0,-41.71680011,1.14185861
5b8fffca220be50001c59858,27,0,2024-02-28T14:47:24.335Z,english_432.wav,0,peel,46,26,4,5,français,f,11,1.09391667,67.89473062,1.59474316
5b8fffca220be50001c59858,28,0,2024-02-28T14:47:24.335Z,english_356.wav,0,pill,215,26,4,5,français,f,0,0.0,32.76906958,0.08562483
5b8fffca220be50001c59858,28,0,2024-02-28T14:47:24.335Z,english_356.wav,0,pill,215,26,4,5,français,f,1,0.1,-4.50463472,0.71215991
5b8fffca220be50001c59858,28,0,2024-02-28T14:47:24.335Z,english_356.wav,0,pill,215,26,4,5,français,f,2,0.2,-3.50879641,0.27192591
5b8fffca220be50001c59858,28,0,2024-02-28T14:47:24.335Z,english_356.wav,0,pill,215,26,4,5,français,f,3,0.3,-66.50182595,1.84647675
5b8fffca220be50001c59858,28,0,2024-02-28T14:47:24.335Z,english_356.wav,0,pill,215,26,4,5,français,f,4,0.4,-41.87578379,0.94018547
5b8fffca220be50001c59858,28,0,2024-02-28T14:47:24.335Z,english_356.wav,0,pill,215,26,4,5,français,f,5,0.5,15.06829484,0.35538969
5b8fffca220be50001c59858,28,0,2024-02-28T14:47:24.335Z,english_356.wav,0,pill,215,26,4,5,français,f,6,0.6,-0.09178899,0.67852857
5b8fffca220be50001c59858,28,0,2024-02-28T14:47:24.335Z,english_356.wav,0,pill,215,26,4,5,français,f,7,0.7,-46.92797448,1.60890004
5b8fffca220be50001c59858,28,0,2024-02-28T14:47:24.335Z,english_356.wav,0,pill,215,26,4,5,français,f,8,0.8,77.06532678,0.18175686
5b8fffca220be50001c59858,28,0,2024-02-28T14:47:24.335Z,english_356.wav,0,pill,215,26,4,5,français,f,9,0.9,26.9349071,1.60704056
5b8fffca220be50001c59858,28,0,2024-02-28T14:47:24.335Z,english_356.wav,0,pill,215,26,4,5,français,f,10,1.0,1.26347583,0.84129373
5b8fffca220be50001c59858,28,0,2024-02-28T14:47:24.335Z,english_356.wav,0,pill,215,26,4,5,français,f,11,1.09391667,-52.5712343,0.27010089
5b8fffca220be50001c59858,29,0,2024-02-28T14:47:24.335Z,english_764.wav,0,peel,65,26,4,5,français,f,0,0.0,-83.00734362,1.43154352
5b8fffca220be50001c59858,29,0,2024-02-28T14:47:24.335Z,english_764.wav,0,peel,65,26,4,5,français,f,1,0.1,84.10171544,1.56325347
5b8fffca220be50001c59858,29,0,2024-02-28T14:47:24.335Z,english_764.wav,0,peel,65,26,4,5,français,f,2,0.2,49.2008901,1.26543708
5b8fffca220be50001c59858,29,0,2024-02-28T14:47:24.335Z,english_764.wav,0,peel,65,26,4,5,français,f,3,0.3,-10.6841825,0.423798415
5b8fffca220be50001c59858,29,0,2024-02-28T14:47:24.335Z,english_764.wav,0,peel,65,26,4,5,français,f,4,0.4,-4.51825693,1.27376863
5b8fffca220be50001c59858,29,0,2024-02-28T14:47:24.335Z,english_764.wav,0,peel,65,26,4,5,français,f,5,0.5,13.05855171,0.758380694
5b8fffca220be50001c59858,29,0,2024-02-28T14:47:24.335Z,english_764.wav,0,peel,65,26,4,5,français,f,6,0.6,-89.35484482,0.001003512
5b8fffca220be50001c59858,29,0,2024-02-28T14:47:24.335Z,english_764.wav,0,peel,65,26,4,5,français,f,7,0.7,31.98534685,0.899071383
5b8fffca220be50001c59858,29,0,2024-02-28T14:47:24.335Z,english_764.wav,0,peel,65,26,4,5,français,f,8,0.8,-75.69390241,1.10287579
5b8fffca220be50001c59858,29,0,2024-02-28T14:47:24.335Z,english_764.wav,0,peel,65,26,4,5,français,f,9,0.9,27.20832849,1.25133293
5b8fffca220be50001c59858,29,0,2024-02-28T14:47:24.335Z,english_764.wav,0,peel,65,26,4,5,français,f,10,1.0,56.31930051,1.83305733
5b8fffca220be50001c59858,29,0,2024-02-28T14:47:24.335Z,english_764.wav,0,peel,65,26,4,5,français,f,11,1.09391667,-35.91935055,1.51505239
5b8fffca220be50001c59858,30,0,2024-02-28T14:47:24.335Z,english_65.wav,0,peel,212,26,4,5,français,f,0,0.0,-44.08652709,1.3840041
5b8fffca220be50001c59858,30,0,2024-02-28T14:47:24.335Z,english_65.wav,0,peel,212,26,4,5,français,f,1,0.1,3.68023197,1.67820436
5b8fffca220be50001c59858,30,0,2024-02-28T14:47:24.335Z,english_65.wav,0,peel,212,26,4,5,français,f,2,0.2,-19.05866896,1.58939797
5b8fffca220be50001c59858,30,0,2024-02-28T14:47:24.335Z,english_65.wav,0,peel,212,26,4,5,français,f,3,0.3,12.87316772,0.13316714
5b8fffca220be50001c59858,30,0,2024-02-28T14:47:24.335Z,english_65.wav,0,peel,212,26,4,5,français,f,4,0.4,-96.16119339,0.86814229
5b8fffca220be50001c59858,30,0,2024-02-28T14:47:24.335Z,english_65.wav,0,peel,212,26,4,5,français,f,5,0.5,-80.0946771,0.41459676
5b8fffca220be50001c59858,30,0,2024-02-28T14:47:24.335Z,english_65.wav,0,peel,212,26,4,5,français,f,6,0.6,69.71447188,1.482845
5b8fffca220be50001c59858,30,0,2024-02-28T14:47:24.335Z,english_65.wav,0,peel,212,26,4,5,français,f,7,0.7,31.09176238,0.500881
5b8fffca220be50001c59858,30,0,2024-02-28T14:47:24.335Z,english_65.wav,0,peel,212,26,4,5,français,f,8,0.8,5.95151439,1.54890047
5b8fffca220be50001c59858,30,0,2024-02-28T14:47:24.335Z,english_65.wav,0,peel,212,26,4,5,français,f,9,0.9,-95.02350092,0.653854
5b8fffca220be50001c59858,30,0,2024-02-28T14:47:24.335Z,english_65.wav,0,peel,212,26,4,5,français,f,10,1.0,40.23975653,1.48515765
5b8fffca220be50001c59858,30,0,2024-02-28T14:47:24.335Z,english_65.wav,0,peel,212,26,4,5,français,f,11,1.09391667,55.65657795,1.57918375
5b8fffca220be50001c59858,31,0,2024-02-28T14:47:24.335Z,english_999.wav,0,peel,2468,26,4,5,français,f,0,0.0,-8.27619319,0.000148642599
5b8fffca220be50001c59858,31,0,2024-02-28T14:47:24.335Z,english_999.wav,0,peel,2468,26,4,5,français,f,1,0.1,-49.3883822,1.22232627
5b8fffca220be50001c59858,31,0,2024-02-28T14:47:24.335Z,english_999.wav,0,peel,2468,26,4,5,français,f,2,0.2,97.54217101,1.1174933
5b8fffca220be50001c59858,31,0,2024-02-28T14:47:24.335Z,english_999.wav,0,peel,2468,26,4,5,français,f,3,0.3,-49.81406735,1.80111229
5b8fffca220be50001c59858,31,0,2024-02-28T14:47:24.335Z,english_999.wav,0,peel,2468,26,4,5,français,f,4,0.4,46.43683506,0.552807392
5b8fffca220be50001c59858,31,0,2024-02-28T14:47:24.335Z,english_999.wav,0,peel,2468,26,4,5,français,f,5,0.5,89.32784762,1.53319988
5b8fffca220be50001c59858,31,0,2024-02-28T14:47:24.335Z,english_999.wav,0,peel,2468,26,4,5,français,f,6,0.6,-55.73277594,1.7616442
5b8fffca220be50001c59858,31,0,2024-02-28T14:47:24.335Z,english_999.wav,0,peel,2468,26,4,5,français,f,7,0.7,49.38462906,0.0772486607
5b8fffca220be50001c59858,31,0,2024-02-28T14:47:24.335Z,english_999.wav,0,peel,2468,26,4,5,français,f,8,0.8,85.41123264,1.0025863
5b8fffca220be50001c59858,31,0,2024-02-28T14:47:24.335Z,english_999.wav,0,peel,2468,26,4,5,français,f,9,0.9,-58.86557708,0.329932429
5b8fffca220be50001c59858,31,0,2024-02-28T14:47:24.335Z,english_999.wav,0,peel,2468,26,4,5,français,f,10,1.0,99.11766896,1.88826288
5b8fffca220be50001c59858,31,0,2024-02-28T14:47:24.335Z,english_999.wav,0,peel,2468,26,4,5,français,f,11,1.09391667,28.82385918,1.88223689
5b8fffca220be50001c59858,32,0,2024-02-28T14:47:24.335Z,english_442.wav,0,peel,591,26,4,5,français,f,0,0.0,-82.79812385,1.11396114
5b8fffca220be50001c59858,32,0,2024-02-28T14:47:24.335Z,english_442.wav,0,peel,591,26,4,5,français,f,1,0.1,13.26533661,1.75736632
5b8fffca220be50001c59858,32,0,2024-02-28T14:47:24.335Z,english_442.wav,0,peel,591,26,4,5,français,f,2,0.2,-27.77858548,0.50029201
5b8fffca220be50001c59858,32,0,2024-02-28T14:47:24.335Z,english_442.wav,0,peel,591,26,4,5,français,f,3,0.3,-8.21179447,0.94281284
5b8fffca220be50001c59858,32,0,2024-02-28T14:47:24.335Z,english_442.wav,0,peel,591,26,4,5,français,f,4,0.4,42.22985327,0.51943545
5b8fffca220be50001c59858,32,0,2024-02-28T14:47:24.335Z,english_442.wav,0,peel,591,26,4,5,français,f,5,0.5,28.42887923,1.6869371
5b8fffca220be50001c59858,32,0,2024-02-28T14:47:24.335Z,english_442.wav,0,peel,591,26,4,5,français,f,6,0.6,80.44970592,0.17301415
5b8fffca220be50001c59858,32,0,2024-02-28T14:47:24.335Z,english_442.wav,0,peel,591,26,4,5,français,f,7,0.7,21.26225147,1.48852219
5b8fffca220be50001c59858,32,0,2024-02-28T14:47:24.335Z,english_442.wav,0,peel,591,26,4,5,français,f,8,0.8,-37.93625661,1.01404105
5b8fffca220be50001c59858,32,0,2024-02-28T14:47:24.335Z,english_442.wav,0,peel,591,26,4,5,français,f,9,0.9,-26.7095537,1.17770211
5b8fffca220be50001c59858,32,0,2024-02-28T14:47:24.335Z,english_442.wav,0,peel,591,26,4,5,français,f,10,1.0,-21.16506099,1.73105649
5b8fffca220be50001c59858,32,0,2024-02-28T14:47:24.335Z,english_442.wav,0,peel,591,26,4,5,français,f,11,1.09391667,7.34933703,1.8720967
5b8fffca220be50001c59858,33,0,2024-02-28T14:47:24.335Z,english_814.wav,0,peel,1059,26,4,5,français,f,0,0.0,6.17101413,0.43334786
5b8fffca220be50001c59858,33,0,2024-02-28T14:47:24.335Z,english_814.wav,0,peel,1059,26,4,5,français,f,1,0.1,-73.16524248,0.17683142
5b8fffca220be50001c59858,33,0,2024-02-28T14:47:24.335Z,english_814.wav,0,peel,1059,26,4,5,français,f,2,0.2,75.95050712,0.19921398
5b8fffca220be50001c59858,33,0,2024-02-28T14:47:24.335Z,english_814.wav,0,peel,1059,26,4,5,français,f,3,0.3,18.00105888,1.00421484
5b8fffca220be50001c59858,33,0,2024-02-28T14:47:24.335Z,english_814.wav,0,peel,1059,26,4,5,français,f,4,0.4,-9.94456811,1.44070159
5b8fffca220be50001c59858,33,0,2024-02-28T14:47:24.335Z,english_814.wav,0,peel,1059,26,4,5,français,f,5,0.5,-40.2453021,0.92750762
5b8fffca220be50001c59858,33,0,2024-02-28T14:47:24.335Z,english_814.wav,0,peel,1059,26,4,5,français,f,6,0.6,-85.66564926,1.52273218
5b8fffca220be50001c59858,33,0,2024-02-28T14:47:24.335Z,english_814.wav,0,peel,1059,26,4,5,français,f,7,0.7,96.74750881,0.90944184
5b8fffca220be50001c59858,33,0,2024-02-28T14:47:24.335Z,english_814.wav,0,peel,1059,26,4,5,français,f,8,0.8,-81.535142,0.73937443
5b8fffca220be50001c59858,33,0,2024-02-28T14:47:24.335Z,english_814.wav,0,peel,1059,26,4,5,français,f,9,0.9,-37.96849285,0.85755882
5b8fffca220be50001c59858,33,0,2024-02-28T14:47:24.335Z,english_814.wav,0,peel,1059,26,4,5,français,f,10,1.0,-95.58506563,0.57947926
5b8fffca220be50001c59858,33,0,2024-02-28T14:47:24.335Z,english_814.wav,0,peel,1059,26,4,5,français,f,11,1.09391667,-59.97632547,0.18234787
5b8fffca220be50001c59858,34,0,2024-02-28T14:47:24.335Z,english_173.wav,0,pill,1538,26,4,5,français,f,0,0.0,34.32682043,0.82312646
5b8fffca220be50001c59858,34,0,2024-02-28T14:47:24.335Z,english_173.wav,0,pill,1538,26,4,5,français,f,1,0.1,-35.22347769,0.84965345
5b8fffca220be50001c59858,34,0,2024-02-28T14:47:24.335Z,english_173.wav,0,pill,1538,26,4,5,français,f,2,0.2,15.69043139,0.84607348
5b8fffca220be50001c59858,34,0,2024-02-28T14:47:24.335Z,english_173.wav,0,pill,1538,26,4,5,français,f,3,0.3,-71.83777825,0.55995079
5b8fffca220be50001c59858,34,0,2024-02-28T14:47:24.335Z,english_173.wav,0,pill,1538,26,4,5,français,f,4,0.4,-96.81426106,0.51635348
5b8fffca220be50001c59858,34,0,2024-02-28T14:47:24.335Z,english_173.wav,0,pill,1538,26,4,5,français,f,5,0.5,-51.15803827,1.6072313
5b8fffca220be50001c59858,34,0,2024-02-28T14:47:24.335Z,english_173.wav,0,pill,1538,26,4,5,français,f,6,0.6,-12.70248505,1.25349503
5b8fffca220be50001c59858,34,0,2024-02-28T14:47:24.335Z,english_173.wav,0,pill,1538,26,4,5,français,f,7,0.7,-30.75730157,1.4731344
5b8fffca220be50001c59858,34,0,2024-02-28T14:47:24.335Z,english_173.wav,0,pill,1538,26,4,5,français,f,8,0.8,-5.0022938,0.28621328
5b8fffca220be50001c59858,34,0,2024-02-28T14:47:24.335Z,english_173.wav,0,pill,1538,26,4,5,français,f,9,0.9,41.07030003,0.95942448
5b8fffca220be50001c59858,34,0,2024-02-28T14:47:24.335Z,english_173.wav,0,pill,1538,26,4,5,français,f,10,1.0,-5.319412,0.2847469
5b8fffca220be50001c59858,34,0,2024-02-28T14:47:24.335Z,english_173.wav,0,pill,1538,26,4,5,français,f,11,1.09391667,43.01251996,0.4938404
5b8fffca220be50001c59858,35,0,2024-02-28T14:47:24.335Z,english_832.wav,0,peel,485,26,4,5,français,f,0,0.0,-88.58549248,0.22284511
5b8fffca220be50001c59858,35,0,2024-02-28T14:47:24.335Z,english_832.wav,0,peel,485,26,4,5,français,f,1,0.1,8.34347478,1.43554353
5b8fffca220be50001c59858,35,0,2024-02-28T14:47:24.335Z,english_832.wav,0,peel,485,26,4,5,français,f,2,0.2,-33.69240403,1.25168829
5b8fffca220be50001c59858,35,0,2024-02-28T14:47:24.335Z,english_832.wav,0,peel,485,26,4,5,français,f,3,0.3,-38.19874018,1.76549117
5b8fffca220be50001c59858,35,0,2024-02-28T14:47:24.335Z,english_832.wav,0,peel,485,26,4,5,français,f,4,0.4,69.91001741,0.48241117
5b8fffca220be50001c59858,35,0,2024-02-28T14:47:24.335Z,english_832.wav,0,peel,485,26,4,5,français,f,5,0.5,76.9560892,1.98484056
5b8fffca220be50001c59858,35,0,2024-02-28T14:47:24.335Z,english_832.wav,0,peel,485,26,4,5,français,f,6,0.6,32.91071569,0.38621033
5b8fffca220be50001c59858,35,0,2024-02-28T14:47:24.335Z,english_832.wav,0,peel,485,26,4,5,français,f,7,0.7,-13.39927827,0.77915885
5b8fffca220be50001c59858,35,0,2024-02-28T14:47:24.335Z,english_832.wav,0,peel,485,26,4,5,français,f,8,0.8,44.52631215,0.49939301
5b8fffca220be50001c59858,35,0,2024-02-28T14:47:24.335Z,english_832.wav,0,peel,485,26,4,5,français,f,9,0.9,45.29069076,1.70508711
5b8fffca220be50001c59858,35,0,2024-02-28T14:47:24.335Z,english_832.wav,0,peel,485,26,4,5,français,f,10,1.0,-68.4923338,1.07362721
5b8fffca220be50001c59858,35,0,2024-02-28T14:47:24.335Z,english_832.wav,0,peel,485,26,4,5,français,f,11,1.09391667,-25.64660407,1.64737721
5b8fffca220be50001c59858,36,0,2024-02-28T14:47:24.335Z,english_873.wav,0,pill,378,26,4,5,français,f,0,0.0,-5.34184308,0.18534223
5b8fffca220be50001c59858,36,0,2024-02-28T14:47:24.335Z,english_873.wav,0,pill,378,26,4,5,français,f,1,0.1,29.86705528,1.00948066
5b8fffca220be50001c59858,36,0,2024-02-28T14:47:24.335Z,english_873.wav,0,pill,378,26,4,5,français,f,2,0.2,-53.62087934,0.93104213
5b8fffca220be50001c59858,36,0,2024-02-28T14:47:24.335Z,english_873.wav,0,pill,378,26,4,5,français,f,3,0.3,-59.16709203,1.19025309
5b8fffca220be50001c59858,36,0,2024-02-28T14:47:24.335Z,english_873.wav,0,pill,378,26,4,5,français,f,4,0.4,69.60141357,1.48608178
5b8fffca220be50001c59858,36,0,2024-02-28T14:47:24.335Z,english_873.wav,0,pill,378,26,4,5,français,f,5,0.5,-44.07046907,0.89447273
5b8fffca220be50001c59858,36,0,2024-02-28T14:47:24.335Z,english_873.wav,0,pill,378,26,4,5,français,f,6,0.6,55.781826,0.18822797
5b8fffca220be50001c59858,36,0,2024-02-28T14:47:24.335Z,english_873.wav,0,pill,378,26,4,5,français,f,7,0.7,-40.21183655,0.79732375
5b8fffca220be50001c59858,36,0,2024-02-28T14:47:24.335Z,english_873.wav,0,pill,378,26,4,5,français,f,8,0.8,9.01550121,0.51650354
5b8fffca220be50001c59858,36,0,2024-02-28T14:47:24.335Z,english_873.wav,0,pill,378,26,4,5,français,f,9,0.9,-15.28098321,0.06272522
5b8fffca220be50001c59858,36,0,2024-02-28T14:47:24.335Z,english_873.wav,0,pill,378,26,4,5,français,f,10,1.0,-64.77079799,1.63736384
5b8fffca220be50001c59858,36,0,2024-02-28T14:47:24.335Z,english_873.wav,0,pill,378,26,4,5,français,f,11,1.09391667,80.68199225,1.95600343
5b8fffca220be50001c59858,37,0,2024-02-28T14:47:24.335Z,english_153.wav,0,peel,1117,26,4,5,français,f,0,0.0,-22.0137653,0.27160884
5b8fffca220be50001c59858,37,0,2024-02-28T14:47:24.335Z,english_153.wav,0,peel,1117,26,4,5,français,f,1,0.1,21.87420495,0.44150389
5b8fffca220be50001c59858,37,0,2024-02-28T14:47:24.335Z,english_153.wav,0,peel,1117,26,4,5,français,f,2,0.2,78.88032694,1.08191418
5b8fffca220be50001c59858,37,0,2024-02-28T14:47:24.335Z,english_153.wav,0,peel,1117,26,4,5,français,f,3,0.3,68.02596654,0.18142841
5b8fffca220be50001c59858,37,0,2024-02-28T14:47:24.335Z,english_153.wav,0,peel,1117,26,4,5,français,f,4,0.4,52.06150723,0.17455202
5b8fffca220be50001c59858,37,0,2024-02-28T14:47:24.335Z,english_153.wav,0,peel,1117,26,4,5,français,f,5,0.5,-15.64198183,1.88425449
5b8fffca220be50001c59858,37,0,2024-02-28T14:47:24.335Z,english_153.wav,0,peel,1117,26,4,5,français,f,6,0.6,-55.92218577,1.64687285
5b8fffca220be50001c59858,37,0,2024-02-28T14:47:24.335Z,english_153.wav,0,peel,1117,26,4,5,français,f,7,0.7,45.74926524,1.52678411
5b8fffca220be50001c59858,37,0,2024-02-28T14:47:24.335Z,english_153.wav,0,peel,1117,26,4,5,français,f,8,0.8,13.43145428,1.81629534
5b8fffca220be50001c59858,37,0,2024-02-28T14:47:24.335Z,english_153.wav,0,peel,1117,26,4,5,français,f,9,0.9,-40.59369693,0.8186826
5b8fffca220be50001c59858,37,0,2024-02-28T14:47:24.335Z,english_153.wav,0,peel,1117,26,4,5,français,f,10,1.0,14.2660924,0.36511419
5b8fffca220be50001c59858,37,0,2024-02-28T14:47:24.335Z,english_153.wav,0,peel,1117,26,4,5,français,f,11,1.09391667,62.05558257,1.38161287
5b8fffca220be50001c59858,38,0,2024-02-28T14:47:24.335Z,english_370.wav,0,peel,551,26,4,5,français,f,0,0.0,91.45146765,1.23282005
5b8fffca220be50001c59858,38,0,2024-02-28T14:47:24.335Z,english_370.wav,0,peel,551,26,4,5,français,f,1,0.1,-35.10409157,0.25999131
5b8fffca220be50001c59858,38,0,2024-02-28T14:47:24.335Z,english_370.wav,0,peel,551,26,4,5,français,f,2,0.2,94.76486666,1.34886846
5b8fffca220be50001c59858,38,0,2024-02-28T14:47:24.335Z,english_370.wav,0,peel,551,26,4,5,français,f,3,0.3,-53.94210215,0.83234793
5b8fffca220be50001c59858,38,0,2024-02-28T14:47:24.335Z,english_370.wav,0,peel,551,26,4,5,français,f,4,0.4,84.25045535,0.3574364
5b8fffca220be50001c59858,38,0,2024-02-28T14:47:24.335Z,english_370.wav,0,peel,551,26,4,5,français,f,5,0.5,23.38990659,1.13678853
5b8fffca220be50001c59858,38,0,2024-02-28T14:47:24.335Z,english_370.wav,0,peel,551,26,4,5,français,f,6,0.6,-19.20564455,1.71477151
5b8fffca220be50001c59858,38,0,2024-02-28T14:47:24.335Z,english_370.wav,0,peel,551,26,4,5,français,f,7,0.7,79.34721748,0.6734852
5b8fffca220be50001c59858,38,0,2024-02-28T14:47:24.335Z,english_370.wav,0,peel,551,26,4,5,français,f,8,0.8,-19.93049437,1.07446176
5b8fffca220be50001c59858,38,0,2024-02-28T14:47:24.335Z,english_370.wav,0,peel,551,26,4,5,français,f,9,0.9,-60.8441274,1.23242025
5b8fffca220be50001c59858,38,0,2024-02-28T14:47:24.335Z,english_370.wav,0,peel,551,26,4,5,français,f,10,1.0,-1.38990897,1.52786138
5b8fffca220be50001c59858,38,0,2024-02-28T14:47:24.335Z,english_370.wav,0,peel,551,26,4,5,français,f,11,1.09391667,24.56704264,1.4714842
5b8fffca220be50001c59858,39,0,2024-02-28T14:47:24.335Z,english_758.wav,0,peel,435,26,4,5,français,f,0,0.0,44.67997232,1.19309781
5b8fffca220be50001c59858,39,0,2024-02-28T14:47:24.335Z,english_758.wav,0,peel,435,26,4,5,français,f,1,0.1,27.10099403,0.27221696
5b8fffca220be50001c59858,39,0,2024-02-28T14:47:24.335Z,english_758.wav,0,peel,435,26,4,5,français,f,2,0.2,-48.30493583,0.58591156
5b8fffca220be50001c59858,39,0,2024-02-28T14:47:24.335Z,english_758.wav,0,peel,435,26,4,5,français,f,3,0.3,-73.5260898,1.06118241
5b8fffca220be50001c59858,39,0,2024-02-28T14:47:24.335Z,english_758.wav,0,peel,435,26,4,5,français,f,4,0.4,19.32057449,1.53382291
5b8fffca220be50001c59858,39,0,2024-02-28T14:47:24.335Z,english_758.wav,0,peel,435,26,4,5,français,f,5,0.5,-32.65273306,1.10934516
5b8fffca220be50001c59858,39,0,2024-02-28T14:47:24.335Z,english_758.wav,0,peel,435,26,4,5,français,f,6,0.6,-67.58997162,1.53621874
5b8fffca220be50001c59858,39,0,2024-02-28T14:47:24.335Z,english_758.wav,0,peel,435,26,4,5,français,f,7,0.7,-76.10184919,0.32907917
5b8fffca220be50001c59858,39,0,2024-02-28T14:47:24.335Z,english_758.wav,0,peel,435,26,4,5,français,f,8,0.8,55.20632284,0.47500698
5b8fffca220be50001c59858,39,0,2024-02-28T14:47:24.335Z,english_758.wav,0,peel,435,26,4,5,français,f,9,0.9,3.61347388,1.81944253
5b8fffca220be50001c59858,39,0,2024-02-28T14:47:24.335Z,english_758.wav,0,peel,435,26,4,5,français,f,10,1.0,-39.33689268,1.02148435
5b8fffca220be50001c59858,39,0,2024-02-28T14:47:24.335Z,english_758.wav,0,peel,435,26,4,5,français,f,11,1.09391667,44.43004874,0.12347796
5b8fffca220be50001c59858,40,0,2024-02-28T14:47:24.335Z,english_333.wav,0,peel,603,26,4,5,français,f,0,0.0,-77.09264939,1.23191038
5b8fffca220be50001c59858,40,0,2024-02-28T14:47:24.335Z,english_333.wav,0,peel,603,26,4,5,français,f,1,0.1,-5.78875624,1.45836537
5b8fffca220be50001c59858,40,0,2024-02-28T14:47:24.335Z,english_333.wav,0,peel,603,26,4,5,français,f,2,0.2,-83.87680905,1.0531546
5b8fffca220be50001c59858,40,0,2024-02-28T14:47:24.335Z,english_333.wav,0,peel,603,26,4,5,français,f,3,0.3,28.79088839,0.44111738
5b8fffca220be50001c59858,40,0,2024-02-28T14:47:24.335Z,english_333.wav,0,peel,603,26,4,5,français,f,4,0.4,-8.31834177,1.38984954
5b8fffca220be50001c59858,40,0,2024-02-28T14:47:24.335Z,english_333.wav,0,peel,603,26,4,5,français,f,5,0.5,-89.41834338,0.9205918
5b8fffca220be50001c59858,40,0,2024-02-28T14:47:24.335Z,english_333.wav,0,peel,603,26,4,5,français,f,6,0.6,26.9852541,0.41991315
5b8fffca220be50001c59858,40,0,2024-02-28T14:47:24.335Z,english_333.wav,0,peel,603,26,4,5,français,f,7,0.7,33.61847072,1.33278744
5b8fffca220be50001c59858,40,0,2024-02-28T14:47:24.335Z,english_333.wav,0,peel,603,26,4,5,français,f,8,0.8,46.07239873,1.39586389
5b8fffca220be50001c59858,40,0,2024-02-28T14:47:24.335Z,english_333.wav,0,peel,603,26,4,5,français,f,9,0.9,28.18917884,1.14407521
5b8fffca220be50001c59858,40,0,2024-02-28T14:47:24.335Z,english_333.wav,0,peel,603,26,4,5,français,f,10,1.0,-44.50200932,1.34818546
5b8fffca220be50001c59858,40,0,2024-02-28T14:47:24.335Z,english_333.wav,0,peel,603,26,4,5,français,f,11,1.09391667,47.37913403,0.31125762
5b8fffca220be50001c59858,41,0,2024-02-28T14:47:24.335Z,english_468.wav,0,peel,846,26,4,5,français,f,0,0.0,19.31976264,0.66158439
5b8fffca220be50001c59858,41,0,2024-02-28T14:47:24.335Z,english_468.wav,0,peel,846,26,4,5,français,f,1,0.1,-31.93707888,1.54343798
5b8fffca220be50001c59858,41,0,2024-02-28T14:47:24.335Z,english_468.wav,0,peel,846,26,4,5,français,f,2,0.2,87.74953583,1.18268033
5b8fffca220be50001c59858,41,0,2024-02-28T14:47:24.335Z,english_468.wav,0,peel,846,26,4,5,français,f,3,0.3,75.542399,0.92842135
5b8fffca220be50001c59858,41,0,2024-02-28T14:47:24.335Z,english_468.wav,0,peel,846,26,4,5,français,f,4,0.4,-30.66435396,1.55978724
5b8fffca220be50001c59858,41,0,2024-02-28T14:47:24.335Z,english_468.wav,0,peel,846,26,4,5,français,f,5,0.5,27.34391208,1.04364147
5b8fffca220be50001c59858,41,0,2024-02-28T14:47:24.335Z,english_468.wav,0,peel,846,26,4,5,français,f,6,0.6,-88.33380447,1.4617077
5b8fffca220be50001c59858,41,0,2024-02-28T14:47:24.335Z,english_468.wav,0,peel,846,26,4,5,français,f,7,0.7,22.89610212,1.75173298
5b8fffca220be50001c59858,41,0,2024-02-28T14:47:24.335Z,english_468.wav,0,peel,846,26,4,5,français,f,8,0.8,-23.39935551,0.43321648
5b8fffca220be50001c59858,41,0,2024-02-28T14:47:24.335Z,english_468.wav,0,peel,846,26,4,5,français,f,9,0.9,4.99226109,0.70184302
5b8fffca220be50001c59858,41,0,2024-02-28T14:47:24.335Z,english_468.wav,0,peel,846,26,4,5,français,f,10,1.0,10.7480571,0.01962582
5b8fffca220be50001c59858,41,0,2024-02-28T14:47:24.335Z,english_468.wav,0,peel,846,26,4,5,français,f,11,1.09391667,16.97403313,1.09642758
5b8fffca220be50001c59858,42,0,2024-02-28T14:47:24.335Z,english_738.wav,0,pill,269,26,4,5,français,f,0,0.0,40.29848329,1.14824707
5b8fffca220be50001c59858,42,0,2024-02-28T14:47:24.335Z,english_738.wav,0,pill,269,26,4,5,français,f,1,0.1,66.12105636,1.60387601
5b8fffca220be50001c59858,42,0,2024-02-28T14:47:24.335Z,english_738.wav,0,pill,269,26,4,5,français,f,2,0.2,-12.57692477,1.084542
5b8fffca220be50001c59858,42,0,2024-02-28T14:47:24.335Z,english_738.wav,0,pill,269,26,4,5,français,f,3,0.3,-81.4028628,1.81856642
5b8fffca220be50001c59858,42,0,2024-02-28T14:47:24.335Z,english_738.wav,0,pill,269,26,4,5,français,f,4,0.4,83.16146046,1.62922567
5b8fffca220be50001c59858,42,0,2024-02-28T14:47:24.335Z,english_738.wav,0,pill,269,26,4,5,français,f,5,0.5,59.80662428,0.86427283
5b8fffca220be50001c59858,42,0,2024-02-28T14:47:24.335Z,english_738.wav,0,pill,269,26,4,5,français,f,6,0.6,40.28369402,0.1736944
5b8fffca220be50001c59858,42,0,2024-02-28T14:47:24.335Z,english_738.wav,0,pill,269,26,4,5,français,f,7,0.7,70.16502192,0.66918612
5b8fffca220be50001c59858,42,0,2024-02-28T14:47:24.335Z,english_738.wav,0,pill,269,26,4,5,français,f,8,0.8,33.24952129,1.29313609
5b8fffca220be50001c59858,42,0,2024-02-28T14:47:24.335Z,english_738.wav,0,pill,269,26,4,5,français,f,9,0.9,-77.78198323,0.37962966
5b8fffca220be50001c59858,42,0,2024-02-28T14:47:24.335Z,english_738.wav,0,pill,269,26,4,5,français,f,10,1.0,6.29614131,0.80178577
5b8fffca220be50001c59858,42,0,2024-02-28T14:47:24.335Z,english_738.wav,0,pill,269,26,4,5,français,f,11,1.09391667,60.18727711,0.93492505
5b8fffca220be50001c59858,43,0,2024-02-28T14:47:24.335Z,english_358.wav,0,peel,62,26,4,5,français,f,0,0.0,92.28677649,0.81523353
5b8fffca220be50001c59858,43,0,2024-02-28T14:47:24.335Z,english_358.wav,0,peel,62,26,4,5,français,f,1,0.1,-12.9582866,0.40862617
5b8fffca220be50001c59858,43,0,2024-02-28T14:47:24.335Z,english_358.wav,0,peel,62,26,4,5,français,f,2,0.2,-98.82534689,0.64915378
5b8fffca220be50001c59858,43,0,2024-02-28T14:47:24.335Z,english_358.wav,0,peel,62,26,4,5,français,f,3,0.3,-63.08847482,1.66113288
5b8fffca220be50001c59858,43,0,2024-02-28T14:47:24.335Z,english_358.wav,0,peel,62,26,4,5,français,f,4,0.4,92.88960715,0.52783471
5b8fffca220be50001c59858,43,0,2024-02-28T14:47:24.335Z,english_358.wav,0,peel,62,26,4,5,français,f,5,0.5,40.59705886,0.06151942
5b8fffca220be50001c59858,43,0,2024-02-28T14:47:24.335Z,english_358.wav,0,peel,62,26,4,5,français,f,6,0.6,-76.45051274,0.90334042
5b8fffca220be50001c59858,43,0,2024-02-28T14:47:24.335Z,english_358.wav,0,peel,62,26,4,5,français,f,7,0.7,-92.98382241,0.974558
5b8fffca220be50001c59858,43,0,2024-02-28T14:47:24.335Z,english_358.wav,0,peel,62,26,4,5,français,f,8,0.8,-79.17872568,1.86712718
5b8fffca220be50001c59858,43,0,2024-02-28T14:47:24.335Z,english_358.wav,0,peel,62,26,4,5,français,f,9,0.9,63.6003007,1.75794987
5b8fffca220be50001c59858,43,0,2024-02-28T14:47:24.335Z,english_358.wav,0,peel,62,26,4,5,français,f,10,1.0,-21.46486279,1.76155667
5b8fffca220be50001c59858,43,0,2024-02-28T14:47:24.335Z,english_358.wav,0,peel,62,26,4,5,français,f,11,1.09391667,94.02075741,1.61274026
5b8fffca220be50001c59858,44,0,2024-02-28T14:47:24.335Z,english_804.wav,0,peel,280,26,4,5,français,f,0,0.0,12.60054447,1.79447267
5b8fffca220be50001c59858,44,0,2024-02-28T14:47:24.335Z,english_804.wav,0,peel,280,26,4,5,français,f,1,0.1,-24.04730937,0.19342468
5b8fffca220be50001c59858,44,0,2024-02-28T14:47:24.335Z,english_804.wav,0,peel,280,26,4,5,français,f,2,0.2,-96.55390316,1.90657737
5b8fffca220be50001c59858,44,0,2024-02-28T14:47:24.335Z,english_804.wav,0,peel,280,26,4,5,français,f,3,0.3,-0.0991441,0.96962123
5b8fffca220be50001c59858,44,0,2024-02-28T14:47:24.335Z,english_804.wav,0,peel,280,26,4,5,français,f,4,0.4,-4.22567636,1.3580225
5b8fffca220be50001c59858,44,0,2024-02-28T14:47:24.335Z,english_804.wav,0,peel,280,26,4,5,français,f,5,0.5,70.60990728,1.75244202
5b8fffca220be50001c59858,44,0,2024-02-28T14:47:24.335Z,english_804.wav,0,peel,280,26,4,5,français,f,6,0.6,-70.63369163,1.0415074
5b8fffca220be50001c59858,44,0,2024-02-28T14:47:24.335Z,english_804.wav,0,peel,280,26,4,5,français,f,7,0.7,9.74055236,0.51929492
5b8fffca220be50001c59858,44,0,2024-02-28T14:47:24.335Z,english_804.wav,0,peel,280,26,4,5,français,f,8,0.8,30.38077192,0.12110661
5b8fffca220be50001c59858,44,0,2024-02-28T14:47:24.335Z,english_804.wav,0,peel,280,26,4,5,français,f,9,0.9,-59.11296325,0.62938559
5b8fffca220be50001c59858,44,0,2024-02-28T14:47:24.335Z,english_804.wav,0,peel,280,26,4,5,français,f,10,1.0,43.99527933,1.09820629
5b8fffca220be50001c59858,44,0,2024-02-28T14:47:24.335Z,english_804.wav,0,peel,280,26,4,5,français,f,11,1.09391667,50.55732952,0.96550638
5b8fffca220be50001c59858,45,0,2024-02-28T14:47:24.335Z,english_985.wav,0,peel,85,26,4,5,français,f,0,0.0,-83.24919271,0.45698213
5b8fffca220be50001c59858,45,0,2024-02-28T14:47:24.335Z,english_985.wav,0,peel,85,26,4,5,français,f,1,0.1,-61.40218693,1.0383787
5b8fffca220be50001c59858,45,0,2024-02-28T14:47:24.335Z,english_985.wav,0,peel,85,26,4,5,français,f,2,0.2,75.6831096,1.83439409
5b8fffca220be50001c59858,45,0,2024-02-28T14:47:24.335Z,english_985.wav,0,peel,85,26,4,5,français,f,3,0.3,-83.55103169,1.46493433
5b8fffca220be50001c59858,45,0,2024-02-28T14:47:24.335Z,english_985.wav,0,peel,85,26,4,5,français,f,4,0.4,-76.60569971,0.92668276
5b8fffca220be50001c59858,45,0,2024-02-28T14:47:24.335Z,english_985.wav,0,peel,85,26,4,5,français,f,5,0.5,93.43834668,1.27852145
5b8fffca220be50001c59858,45,0,2024-02-28T14:47:24.335Z,english_985.wav,0,peel,85,26,4,5,français,f,6,0.6,46.86841289,1.04356397
5b8fffca220be50001c59858,45,0,2024-02-28T14:47:24.335Z,english_985.wav,0,peel,85,26,4,5,français,f,7,0.7,11.38653049,1.03370788
5b8fffca220be50001c59858,45,0,2024-02-28T14:47:24.335Z,english_985.wav,0,peel,85,26,4,5,français,f,8,0.8,5.98716874,0.43255879
5b8fffca220be50001c59858,45,0,2024-02-28T14:47:24.335Z,english_985.wav,0,peel,85,26,4,5,français,f,9,0.9,6.47503028,0.84647211
5b8fffca220be50001c59858,45,0,2024-02-28T14:47:24.335Z,english_985.wav,0,peel,85,26,4,5,français,f,10,1.0,53.75316558,1.92237121
5b8fffca220be50001c59858,45,0,2024-02-28T14:47:24.335Z,english_985.wav,0,peel,85,26,4,5,français,f,11,1.09391667,-17.57703362,0.19853323
5b8fffca220be50001c59858,46,0,2024-02-28T14:47:24.335Z,english_649.wav,0,pill,97,26,4,5,français,f,0,0.0,54.13337143,0.90685718
5b8fffca220be50001c59858,46,0,2024-02-28T14:47:24.335Z,english_649.wav,0,pill,97,26,4,5,français,f,1,0.1,51.13672213,0.97028986
5b8fffca220be50001c59858,46,0,2024-02-28T14:47:24.335Z,english_649.wav,0,pill,97,26,4,5,français,f,2,0.2,-46.53747516,0.5338014
5b8fffca220be50001c59858,46,0,2024-02-28T14:47:24.335Z,english_649.wav,0,pill,97,26,4,5,français,f,3,0.3,-5.04561857,1.37151822
5b8fffca220be50001c59858,46,0,2024-02-28T14:47:24.335Z,english_649.wav,0,pill,97,26,4,5,français,f,4,0.4,-96.10296837,1.19898074
5b8fffca220be50001c59858,46,0,2024-02-28T14:47:24.335Z,english_649.wav,0,pill,97,26,4,5,français,f,5,0.5,91.1633791,0.83288569
5b8fffca220be50001c59858,46,0,2024-02-28T14:47:24.335Z,english_649.wav,0,pill,97,26,4,5,français,f,6,0.6,40.43734858,1.46195871
5b8fffca220be50001c59858,46,0,2024-02-28T14:47:24.335Z,english_649.wav,0,pill,97,26,4,5,français,f,7,0.7,-6.34456649,0.52535218
5b8fffca220be50001c59858,46,0,2024-02-28T14:47:24.335Z,english_649.wav,0,pill,97,26,4,5,français,f,8,0.8,-47.75781838,0.56197414
5b8fffca220be50001c59858,46,0,2024-02-28T14:47:24.335Z,english_649.wav,0,pill,97,26,4,5,français,f,9,0.9,-30.94847666,1.41697717
5b8fffca220be50001c59858,46,0,2024-02-28T14:47:24.335Z,english_649.wav,0,pill,97,26,4,5,français,f,10,1.0,-10.84084503,1.24330897
5b8fffca220be50001c59858,46,0,2024-02-28T14:47:24.335Z,english_649.wav,0,pill,97,26,4,5,français,f,11,1.09391667,16.60657514,0.55891177
5b8fffca220be50001c59858,47,0,2024-02-28T14:47:24.335Z,english_10.wav,0,peel,120,26,4,5,français,f,0,0.0,-15.04153425,1.52083452
5b8fffca220be50001c59858,47,0,2024-02-28T14:47:24.335Z,english_10.wav,0,peel,120,26,4,5,français,f,1,0.1,-57.22263716,1.29896522
5b8fffca220be50001c59858,47,0,2024-02-28T14:47:24.335Z,english_10.wav,0,peel,120,26,4,5,français,f,2,0.2,27.92618044,0.38561389
5b8fffca220be50001c59858,47,0,2024-02-28T14:47:24.335Z,english_10.wav,0,peel,120,26,4,5,français,f,3,0.3,25.5799778,0.99686674
5b8fffca220be50001c59858,47,0,2024-02-28T14:47:24.335Z,english_10.wav,0,peel,120,26,4,5,français,f,4,0.4,30.11064479,0.6118482
5b8fffca220be50001c59858,47,0,2024-02-28T14:47:24.335Z,english_10.wav,0,peel,120,26,4,5,français,f,5,0.5,-7.71764525,1.86037541
5b8fffca220be50001c59858,47,0,2024-02-28T14:47:24.335Z,english_10.wav,0,peel,120,26,4,5,français,f,6,0.6,27.65902171,0.71941397
5b8fffca220be50001c59858,47,0,2024-02-28T14:47:24.335Z,english_10.wav,0,peel,120,26,4,5,français,f,7,0.7,-47.57621095,1.21671158
5b8fffca220be50001c59858,47,0,2024-02-28T14:47:24.335Z,english_10.wav,0,peel,120,26,4,5,français,f,8,0.8,43.99977355,1.36149686
5b8fffca220be50001c59858,47,0,2024-02-28T14:47:24.335Z,english_10.wav,0,peel,120,26,4,5,français,f,9,0.9,-15.79441044,0.57839438
5b8fffca220be50001c59858,47,0,2024-02-28T14:47:24.335Z,english_10.wav,0,peel,120,26,4,5,français,f,10,1.0,-34.81966507,0.86495111
5b8fffca220be50001c59858,47,0,2024-02-28T14:47:24.335Z,english_10.wav,0,peel,120,26,4,5,français,f,11,1.09391667,60.77971601,0.19592518
5b8fffca220be50001c59858,48,0,2024-02-28T14:47:24.335Z,english_338.wav,0,peel,320,26,4,5,français,f,0,0.0,-28.32882855,1.26446903
5b8fffca220be50001c59858,48,0,2024-02-28T14:47:24.335Z,english_338.wav,0,peel,320,26,4,5,français,f,1,0.1,57.31812169,0.76759877
5b8fffca220be50001c59858,48,0,2024-02-28T14:47:24.335Z,english_338.wav,0,peel,320,26,4,5,français,f,2,0.2,14.45982208,1.52351901
5b8fffca220be50001c59858,48,0,2024-02-28T14:47:24.335Z,english_338.wav,0,peel,320,26,4,5,français,f,3,0.3,77.41090692,1.04471398
5b8fffca220be50001c59858,48,0,2024-02-28T14:47:24.335Z,english_338.wav,0,peel,320,26,4,5,français,f,4,0.4,-1.8867557,0.90426999
5b8fffca220be50001c59858,48,0,2024-02-28T14:47:24.335Z,english_338.wav,0,peel,320,26,4,5,français,f,5,0.5,-35.85874383,1.69664706
5b8fffca220be50001c59858,48,0,2024-02-28T14:47:24.335Z,english_338.wav,0,peel,320,26,4,5,français,f,6,0.6,-55.1613605,0.17582058
5b8fffca220be50001c59858,48,0,2024-02-28T14:47:24.335Z,english_338.wav,0,peel,320,26,4,5,français,f,7,0.7,-70.94430614,0.54140942
5b8fffca220be50001c59858,48,0,2024-02-28T14:47:24.335Z,english_338.wav,0,peel,320,26,4,5,français,f,8,0.8,5.91952673,0.81798021
5b8fffca220be50001c59858,48,0,2024-02-28T14:47:24.335Z,english_338.wav,0,peel,320,26,4,5,français,f,9,0.9,-77.52896216,1.90630538
5b8fffca220be50001c59858,48,0,2024-02-28T14:47:24.335Z,english_338.wav,0,peel,320,26,4,5,français,f,10,1.0,-12.19112467,0.59557422
5b8fffca220be50001c59858,48,0,2024-02-28T14:47:24.335Z,english_338.wav,0,peel,320,26,4,5,français,f,11,1.09391667,6.6549641,0.42071392
5b8fffca220be50001c59858,49,0,2024-02-28T14:47:24.335Z,english_48.wav,0,peel,503,26,4,5,français,f,0,0.0,60.63460718,0.33804588
5b8fffca220be50001c59858,49,0,2024-02-28T14:47:24.335Z,english_48.wav,0,peel,503,26,4,5,français,f,1,0.1,-63.25879977,1.53774441
5b8fffca220be50001c59858,49,0,2024-02-28T14:47:24.335Z,english_48.wav,0,peel,503,26,4,5,français,f,2,0.2,72.16287223,0.96691945
5b8fffca220be50001c59858,49,0,2024-02-28T14:47:24.335Z,english_48.wav,0,peel,503,26,4,5,français,f,3,0.3,56.56802271,1.67994136
5b8fffca220be50001c59858,49,0,2024-02-28T14:47:24.335Z,english_48.wav,0,peel,503,26,4,5,français,f,4,0.4,90.70764649,1.00040305
5b8fffca220be50001c59858,49,0,2024-02-28T14:47:24.335Z,english_48.wav,0,peel,503,26,4,5,français,f,5,0.5,-36.31712893,1.89041629
5b8fffca220be50001c59858,49,0,2024-02-28T14:47:24.335Z,english_48.wav,0,peel,503,26,4,5,français,f,6,0.6,25.72223985,0.11424734
5b8fffca220be50001c59858,49,0,2024-02-28T14:47:24.335Z,english_48.wav,0,peel,503,26,4,5,français,f,7,0.7,-14.91989637,0.3528252
5b8fffca220be50001c59858,49,0,2024-02-28T14:47:24.335Z,english_48.wav,0,peel,503,26,4,5,français,f,8,0.8,-17.95558792,0.85742963
5b8fffca220be50001c59858,49,0,2024-02-28T14:47:24.335Z,english_48.wav,0,peel,503,26,4,5,français,f,9,0.9,-5.44719263,0.59657969
5b8fffca220be50001c59858,49,0,2024-02-28T14:47:24.335Z,english_48.wav,0,peel,503,26,4,5,français,f,10,1.0,-94.92564537,0.30631529
5b8fffca220be50001c59858,49,0,2024-02-28T14:47:24.335Z,english_48.wav,0,peel,503,26,4,5,français,f,11,1.09391667,-13.08808473,1.45053444
5b8fffca220be50001c59858,50,1,2024-02-28T14:49:27.868Z,english_757.wav,0,peel,302,26,4,5,français,f,0,0.0,26.0154679,0.86626914
5b8fffca220be50001c59858,50,1,2024-02-28T14:49:27.868Z,english_757.wav,0,peel,302,26,4,5,français,f,1,0.1,-81.78316815,1.8292062
5b8fffca220be50001c59858,50,1,2024-02-28T14:49:27.868Z,english_757.wav,0,peel,302,26,4,5,français,f,2,0.2,24.8129191,0.11166618
5b8fffca220be50001c59858,50,1,2024-02-28T14:49:27.868Z,english_757.wav,0,peel,302,26,4,5,français,f,3,0.3,-92.40862689,1.6321581
5b8fffca220be50001c59858,50,1,2024-02-28T14:49:27.868Z,english_757.wav,0,peel,302,26,4,5,français,f,4,0.4,75.32531846,1.47340274
5b8fffca220be50001c59858,50,1,2024-02-28T14:49:27.868Z,english_757.wav,0,peel,302,26,4,5,français,f,5,0.5,-66.35281637,0.8022413
5b8fffca220be50001c59858,50,1,2024-02-28T14:49:27.868Z,english_757.wav,0,peel,302,26,4,5,français,f,6,0.6,-7.38230753,0.64841019
5b8fffca220be50001c59858,50,1,2024-02-28T14:49:27.868Z,english_757.wav,0,peel,302,26,4,5,français,f,7,0.7,87.06226271,0.78666377
5b8fffca220be50001c59858,50,1,2024-02-28T14:49:27.868Z,english_757.wav,0,peel,302,26,4,5,français,f,8,0.8,39.69275954,0.73828249
5b8fffca220be50001c59858,50,1,2024-02-28T14:49:27.868Z,english_757.wav,0,peel,302,26,4,5,français,f,9,0.9,-78.28701329,1.08245488
5b8fffca220be50001c59858,50,1,2024-02-28T14:49:27.868Z,english_757.wav,0,peel,302,26,4,5,français,f,10,1.0,-77.31255291,1.44296588
5b8fffca220be50001c59858,50,1,2024-02-28T14:49:27.868Z,english_757.wav,0,peel,302,26,4,5,français,f,11,1.09391667,70.90825389,0.56236939
5b8fffca220be50001c59858,51,1,2024-02-28T14:49:27.868Z,english_331.wav,0,peel,256,26,4,5,français,f,0,0.0,-64.72276527,1.69014175
5b8fffca220be50001c59858,51,1,2024-02-28T14:49:27.868Z,english_331.wav,0,peel,256,26,4,5,français,f,1,0.1,-64.60107944,0.93306192
5b8fffca220be50001c59858,51,1,2024-02-28T14:49:27.868Z,english_331.wav,0,peel,256,26,4,5,français,f,2,0.2,43.10237597,1.51219836
5b8fffca220be50001c59858,51,1,2024-02-28T14:49:27.868Z,english_331.wav,0,peel,256,26,4,5,français,f,3,0.3,3.97944271,1.83280239
5b8fffca220be50001c59858,51,1,2024-02-28T14:49:27.868Z,english_331.wav,0,peel,256,26,4,5,français,f,4,0.4,53.93002911,0.32272679
5b8fffca220be50001c59858,51,1,2024-02-28T14:49:27.868Z,english_331.wav,0,peel,256,26,4,5,français,f,5,0.5,-98.69413197,0.14451959
5b8fffca220be50001c59858,51,1,2024-02-28T14:49:27.868Z,english_331.wav,0,peel,256,26,4,5,français,f,6,0.6,76.42202474,0.4727661
5b8fffca220be50001c59858,51,1,2024-02-28T14:49:27.868Z,english_331.wav,0,peel,256,26,4,5,français,f,7,0.7,-50.14036669,0.90462805
5b8fffca220be50001c59858,51,1,2024-02-28T14:49:27.868Z,english_331.wav,0,peel,256,26,4,5,français,f,8,0.8,61.5779926,1.98401372
5b8fffca220be50001c59858,51,1,2024-02-28T14:49:27.868Z,english_331.wav,0,peel,256,26,4,5,français,f,9,0.9,-56.16895328,0.59081959
5b8fffca220be50001c59858,51,1,2024-02-28T14:49:27.868Z,english_331.wav,0,peel,256,26,4,5,français,f,10,1.0,5.62439148,1.38184498
5b8fffca220be50001c59858,51,1,2024-02-28T14:49:27.868Z,english_331.wav,0,peel,256,26,4,5,français,f,11,1.09391667,-39.06443994,0.44356806
5b8fffca220be50001c59858,52,1,2024-02-28T14:49:27.868Z,english_524.wav,0,peel,462,26,4,5,français,f,0,0.0,-30.25985822,0.34793973
5b8fffca220be50001c59858,52,1,2024-02-28T14:49:27.868Z,english_524.wav,0,peel,462,26,4,5,français,f,1,0.1,-25.72639464,1.18810863
5b8fffca220be50001c59858,52,1,2024-02-28T14:49:27.868Z,english_524.wav,0,peel,462,26,4,5,français,f,2,0.2,-19.31311579,0.08692409
5b8fffca220be50001c59858,52,1,2024-02-28T14:49:27.868Z,english_524.wav,0,peel,462,26,4,5,français,f,3,0.3,75.52996736,0.42169144
5b8fffca220be50001c59858,52,1,2024-02-28T14:49:27.868Z,english_524.wav,0,peel,462,26,4,5,français,f,4,0.4,95.21234869,0.91790301
5b8fffca220be50001c59858,52,1,2024-02-28T14:49:27.868Z,english_524.wav,0,peel,462,26,4,5,français,f,5,0.5,-71.1057772,1.60079155
5b8fffca220be50001c59858,52,1,2024-02-28T14:49:27.868Z,english_524.wav,0,peel,462,26,4,5,français,f,6,0.6,-19.64273872,0.41126457
5b8fffca220be50001c59858,52,1,2024-02-28T14:49:27.868Z,english_524.wav,0,peel,462,26,4,5,français,f,7,0.7,-1.31214815,0.20209882
5b8fffca220be50001c59858,52,1,2024-02-28T14:49:27.868Z,english_524.wav,0,peel,462,26,4,5,français,f,8,0.8,64.64076703,1.03575809
5b8fffca220be50001c59858,52,1,2024-02-28T14:49:27.868Z,english_524.wav,0,peel,462,26,4,5,français,f,9,0.9,-18.69724377,0.43486471
5b8fffca220be50001c59858,52,1,2024-02-28T14:49:27.868Z,english_524.wav,0,peel,462,26,4,5,français,f,10,1.0,-40.5043492,0.51132712
5b8fffca220be50001c59858,52,1,2024-02-28T14:49:27.868Z,english_524.wav,0,peel,462,26,4,5,français,f,11,1.09391667,-72.71091187,0.92380924
5b8fffca220be50001c59858,53,1,2024-02-28T14:49:27.868Z,english_244.wav,0,peel,64,26,4,5,français,f,0,0.0,-16.89000739,1.36645613
5b8fffca220be50001c59858,53,1,2024-02-28T14:49:27.868Z,english_244.wav,0,peel,64,26,4,5,français,f,1,0.1,13.88621899,0.22689892
5b8fffca220be50001c59858,53,1,2024-02-28T14:49:27.868Z,english_244.wav,0,peel,64,26,4,5,français,f,2,0.2,19.5320734,0.7498897
5b8fffca220be50001c59858,53,1,2024-02-28T14:49:27.868Z,english_244.wav,0,peel,64,26,4,5,français,f,3,0.3,77.5555311,0.5439009
5b8fffca220be50001c59858,53,1,2024-02-28T14:49:27.868Z,english_244.wav,0,peel,64,26,4,5,français,f,4,0.4,-1.54182751,1.43453656
5b8fffca220be50001c59858,53,1,2024-02-28T14:49:27.868Z,english_244.wav,0,peel,64,26,4,5,français,f,5,0.5,-50.64945855,1.75844179
5b8fffca220be50001c59858,53,1,2024-02-28T14:49:27.868Z,english_244.wav,0,peel,64,26,4,5,français,f,6,0.6,-35.36321005,1.54599597
5b8fffca220be50001c59858,53,1,2024-02-28T14:49:27.868Z,english_244.wav,0,peel,64,26,4,5,français,f,7,0.7,-43.62157267,0.6923522
5b8fffca220be50001c59858,53,1,2024-02-28T14:49:27.868Z,english_244.wav,0,peel,64,26,4,5,français,f,8,0.8,3.96205992,0.7002794
5b8fffca220be50001c59858,53,1,2024-02-28T14:49:27.868Z,english_244.wav,0,peel,64,26,4,5,français,f,9,0.9,54.24324678,1.06972568
5b8fffca220be50001c59858,53,1,2024-02-28T14:49:27.868Z,english_244.wav,0,peel,64,26,4,5,français,f,10,1.0,76.68152807,1.30720641
5b8fffca220be50001c59858,53,1,2024-02-28T14:49:27.868Z,english_244.wav,0,peel,64,26,4,5,français,f,11,1.09391667,-97.15661366,0.50703606
5b8fffca220be50001c59858,54,1,2024-02-28T14:49:27.868Z,english_630.wav,0,pill,2,26,4,5,français,f,0,0.0,78.75492265,1.14018337
5b8fffca220be50001c59858,54,1,2024-02-28T14:49:27.868Z,english_630.wav,0,pill,2,26,4,5,français,f,1,0.1,-83.58930578,0.42247423
5b8fffca220be50001c59858,54,1,2024-02-28T14:49:27.868Z,english_630.wav,0,pill,2,26,4,5,français,f,2,0.2,-79.71821409,1.15399078
5b8fffca220be50001c59858,54,1,2024-02-28T14:49:27.868Z,english_630.wav,0,pill,2,26,4,5,français,f,3,0.3,-40.02519871,1.63118088
5b8fffca220be50001c59858,54,1,2024-02-28T14:49:27.868Z,english_630.wav,0,pill,2,26,4,5,français,f,4,0.4,28.39164799,0.60995737
5b8fffca220be50001c59858,54,1,2024-02-28T14:49:27.868Z,english_630.wav,0,pill,2,26,4,5,français,f,5,0.5,-22.91010751,1.14933658
5b8fffca220be50001c59858,54,1,2024-02-28T14:49:27.868Z,english_630.wav,0,pill,2,26,4,5,français,f,6,0.6,66.99878234,1.58053618
5b8fffca220be50001c59858,54,1,2024-02-28T14:49:27.868Z,english_630.wav,0,pill,2,26,4,5,français,f,7,0.7,-67.03907611,1.44408005
5b8fffca220be50001c59858,54,1,2024-02-28T14:49:27.868Z,english_630.wav,0,pill,2,26,4,5,français,f,8,0.8,-31.68288064,0.22921488
5b8fffca220be50001c59858,54,1,2024-02-28T14:49:27.868Z,english_630.wav,0,pill,2,26,4,5,français,f,9,0.9,-92.36791787,1.99244959
5b8fffca220be50001c59858,54,1,2024-02-28T14:49:27.868Z,english_630.wav,0,pill,2,26,4,5,français,f,10,1.0,-47.34450832,1.8016164
5b8fffca220be50001c59858,54,1,2024-02-28T14:49:27.868Z,english_630.wav,0,pill,2,26,4,5,français,f,11,1.09391667,-92.12755103,1.49248838
5b8fffca220be50001c59858,55,1,2024-02-28T14:49:27.868Z,english_716.wav,0,peel,179,26,4,5,français,f,0,0.0,43.74330497,0.97173824
5b8fffca220be50001c59858,55,1,2024-02-28T14:49:27.868Z,english_716.wav,0,peel,179,26,4,5,français,f,1,0.1,1.01157467,1.13719013
5b8fffca220be50001c59858,55,1,2024-02-28T14:49:27.868Z,english_716.wav,0,peel,179,26,4,5,français,f,2,0.2,43.31214435,0.97088095
5b8fffca220be50001c59858,55,1,2024-02-28T14:49:27.868Z,english_716.wav,0,peel,179,26,4,5,français,f,3,0.3,-64.99824003,1.35537493
5b8fffca220be50001c59858,55,1,2024-02-28T14:49:27.868Z,english_716.wav,0,peel,179,26,4,5,français,f,4,0.4,66.22849696,1.16227483
5b8fffca220be50001c59858,55,1,2024-02-28T14:49:27.868Z,english_716.wav,0,peel,179,26,4,5,français,f,5,0.5,15.92034767,1.14260693
5b8fffca220be50001c59858,55,1,2024-02-28T14:49:27.868Z,english_716.wav,0,peel,179,26,4,5,français,f,6,0.6,-84.49981369,1.21216761
5b8fffca220be50001c59858,55,1,2024-02-28T14:49:27.868Z,english_716.wav,0,peel,179,26,4,5,français,f,7,0.7,-36.42045257,1.78190595
5b8fffca220be50001c59858,55,1,2024-02-28T14:49:27.868Z,english_716.wav,0,peel,179,26,4,5,français,f,8,0.8,0.56154779,1.16672006
5b8fffca220be50001c59858,55,1,2024-02-28T14:49:27.868Z,english_716.wav,0,peel,179,26,4,5,français,f,9,0.9,-55.57576832,1.41993199
5b8fffca220be50001c59858,55,1,2024-02-28T14:49:27.868Z,english_716.wav,0,peel,179,26,4,5,français,f,10,1.0,55.0789401,0.32201877
5b8fffca220be50001c59858,55,1,2024-02-28T14:49:27.868Z,english_716.wav,0,peel,179,26,4,5,français,f,11,1.09391667,15.84660207,1.26556623
5b8fffca220be50001c59858,56,1,2024-02-28T14:49:27.868Z,english_355.wav,0,peel,163,26,4,5,français,f,0,0.0,-17.98441337,0.63443376
5b8fffca220be50001c59858,56,1,2024-02-28T14:49:27.868Z,english_355.wav,0,peel,163,26,4,5,français,f,1,0.1,-3.7927165,0.81098104
5b8fffca220be50001c59858,56,1,2024-02-28T14:49:27.868Z,english_355.wav,0,peel,163,26,4,5,français,f,2,0.2,49.96307457,0.15990124
5b8fffca220be50001c59858,56,1,2024-02-28T14:49:27.868Z,english_355.wav,0,peel,163,26,4,5,français,f,3,0.3,-15.53125152,1.19729275
5b8fffca220be50001c59858,56,1,2024-02-28T14:49:27.868Z,english_355.wav,0,peel,163,26,4,5,français,f,4,0.4,-84.8102411,1.78081856
5b8fffca220be50001c59858,56,1,2024-02-28T14:49:27.868Z,english_355.wav,0,peel,163,26,4,5,français,f,5,0.5,-28.25718679,0.04344096
5b8fffca220be50001c59858,56,1,2024-02-28T14:49:27.868Z,english_355.wav,0,peel,163,26,4,5,français,f,6,0.6,-58.3999431,1.99949459
5b8fffca220be50001c59858,56,1,2024-02-28T14:49:27.868Z,english_355.wav,0,peel,163,26,4,5,français,f,7,0.7,-22.66304052,0.79420627
5b8fffca220be50001c59858,56,1,2024-02-28T14:49:27.868Z,english_355.wav,0,peel,163,26,4,5,français,f,8,0.8,-95.1511219,0.51429102
5b8fffca220be50001c59858,56,1,2024-02-28T14:49:27.868Z,english_355.wav,0,peel,163,26,4,5,français,f,9,0.9,82.90101198,0.31900629
5b8fffca220be50001c59858,56,1,2024-02-28T14:49:27.868Z,english_355.wav,0,peel,163,26,4,5,français,f,10,1.0,11.18923061,1.55539218
5b8fffca220be50001c59858,56,1,2024-02-28T14:49:27.868Z,english_355.wav,0,peel,163,26,4,5,français,f,11,1.09391667,39.40210676,0.94266916
5b8fffca220be50001c59858,57,1,2024-02-28T14:49:27.868Z,english_2.wav,0,peel,260,26,4,5,français,f,0,0.0,41.22215969,0.59226954
5b8fffca220be50001c59858,57,1,2024-02-28T14:49:27.868Z,english_2.wav,0,peel,260,26,4,5,français,f,1,0.1,63.4325041,1.70689004
5b8fffca220be50001c59858,57,1,2024-02-28T14:49:27.868Z,english_2.wav,0,peel,260,26,4,5,français,f,2,0.2,30.26698033,1.70278764
5b8fffca220be50001c59858,57,1,2024-02-28T14:49:27.868Z,english_2.wav,0,peel,260,26,4,5,français,f,3,0.3,-42.97414703,0.93211278
5b8fffca220be50001c59858,57,1,2024-02-28T14:49:27.868Z,english_2.wav,0,peel,260,26,4,5,français,f,4,0.4,78.73420301,0.75985414
5b8fffca220be50001c59858,57,1,2024-02-28T14:49:27.868Z,english_2.wav,0,peel,260,26,4,5,français,f,5,0.5,98.07294335,1.00279357
5b8fffca220be50001c59858,57,1,2024-02-28T14:49:27.868Z,english_2.wav,0,peel,260,26,4,5,français,f,6,0.6,-11.43066233,1.68044469
5b8fffca220be50001c59858,57,1,2024-02-28T14:49:27.868Z,english_2.wav,0,peel,260,26,4,5,français,f,7,0.7,98.59484661,1.4408376
5b8fffca220be50001c59858,57,1,2024-02-28T14:49:27.868Z,english_2.wav,0,peel,260,26,4,5,français,f,8,0.8,5.98934189,0.34467269
5b8fffca220be50001c59858,57,1,2024-02-28T14:49:27.868Z,english_2.wav,0,peel,260,26,4,5,français,f,9,0.9,12.71998757,0.3933307
5b8fffca220be50001c59858,57,1,2024-02-28T14:49:27.868Z,english_2.wav,0,peel,260,26,4,5,français,f,10,1.0,80.81444137,0.30092676
5b8fffca220be50001c59858,57,1,2024-02-28T14:49:27.868Z,english_2.wav,0,peel,260,26,4,5,français,f,11,1.09391667,-65.72418196,0.87599386
5b8fffca220be50001c59858,58,1,2024-02-28T14:49:27.868Z,english_553.wav,0,pill,163,26,4,5,français,f,0,0.0,-24.88703549,1.59716139
5b8fffca220be50001c59858,58,1,2024-02-28T14:49:27.868Z,english_553.wav,0,pill,163,26,4,5,français,f,1,0.1,-32.78735509,1.94339053
5b8fffca220be50001c59858,58,1,2024-02-28T14:49:27.868Z,english_553.wav,0,pill,163,26,4,5,français,f,2,0.2,11.78475046,0.07176258
5b8fffca220be50001c59858,58,1,2024-02-28T14:49:27.868Z,english_553.wav,0,pill,163,26,4,5,français,f,3,0.3,-49.38675094,1.26590086
5b8fffca220be50001c59858,58,1,2024-02-28T14:49:27.868Z,english_553.wav,0,pill,163,26,4,5,français,f,4,0.4,87.03858762,0.74193634
5b8fffca220be50001c59858,58,1,2024-02-28T14:49:27.868Z,english_553.wav,0,pill,163,26,4,5,français,f,5,0.5,60.30502824,1.61552542
5b8fffca220be50001c59858,58,1,2024-02-28T14:49:27.868Z,english_553.wav,0,pill,163,26,4,5,français,f,6,0.6,10.13311967,0.16579471
5b8fffca220be50001c59858,58,1,2024-02-28T14:49:27.868Z,english_553.wav,0,pill,163,26,4,5,français,f,7,0.7,67.86345644,1.42366471
5b8fffca220be50001c59858,58,1,2024-02-28T14:49:27.868Z,english_553.wav,0,pill,163,26,4,5,français,f,8,0.8,-60.17677271,1.14167702
5b8fffca220be50001c59858,58,1,2024-02-28T14:49:27.868Z,english_553.wav,0,pill,163,26,4,5,français,f,9,0.9,12.98417217,1.59651853
5b8fffca220be50001c59858,58,1,2024-02-28T14:49:27.868Z,english_553.wav,0,pill,163,26,4,5,français,f,10,1.0,49.25042129,1.95090435
5b8fffca220be50001c59858,58,1,2024-02-28T14:49:27.868Z,english_553.wav,0,pill,163,26,4,5,français,f,11,1.09391667,-82.97566862,0.60671916
5b8fffca220be50001c59858,59,1,2024-02-28T14:49:27.868Z,english_263.wav,0,peel,391,26,4,5,français,f,0,0.0,60.54836266,0.88286661
5b8fffca220be50001c59858,59,1,2024-02-28T14:49:27.868Z,english_263.wav,0,peel,391,26,4,5,français,f,1,0.1,-7.25947701,0.15523443
5b8fffca220be50001c59858,59,1,2024-02-28T14:49:27.868Z,english_263.wav,0,peel,391,26,4,5,français,f,2,0.2,57.3147166,0.89947763
5b8fffca220be50001c59858,59,1,2024-02-28T14:49:27.868Z,english_263.wav,0,peel,391,26,4,5,français,f,3,0.3,-54.27216299,1.94594407
5b8fffca220be50001c59858,59,1,2024-02-28T14:49:27.868Z,english_263.wav,0,peel,391,26,4,5,français,f,4,0.4,-55.29215067,0.36252841
5b8fffca220be50001c59858,59,1,2024-02-28T14:49:27.868Z,english_263.wav,0,peel,391,26,4,5,français,f,5,0.5,-35.67260064,0.43064253
5b8fffca220be50001c59858,59,1,2024-02-28T14:49:27.868Z,english_263.wav,0,peel,391,26,4,5,français,f,6,0.6,64.27930659,0.12649613
5b8fffca220be50001c59858,59,1,2024-02-28T14:49:27.868Z,english_263.wav,0,peel,391,26,4,5,français,f,7,0.7,39.11312223,0.99935682
5b8fffca220be50001c59858,59,1,2024-02-28T14:49:27.868Z,english_263.wav,0,peel,391,26,4,5,français,f,8,0.8,-36.26628423,0.98138808
5b8fffca220be50001c59858,59,1,2024-02-28T14:49:27.868Z,english_263.wav,0,peel,391,26,4,5,français,f,9,0.9,24.26738527,1.68351405
5b8fffca220be50001c59858,59,1,2024-02-28T14:49:27.868Z,english_263.wav,0,peel,391,26,4,5,français,f,10,1.0,43.73514677,0.97417267
5b8fffca220be50001c59858,59,1,2024-02-28T14:49:27.868Z,english_263.wav,0,peel,391,26,4,5,français,f,11,1.09391667,-15.47335433,0.42659576
5b8fffca220be50001c59858,60,1,2024-02-28T14:49:27.868Z,english_883.wav,0,peel,439,26,4,5,français,f,0,0.0,-84.46412598,0.36586486
5b8fffca220be50001c59858,60,1,2024-02-28T14:49:27.868Z,english_883.wav,0,peel,439,26,4,5,français,f,1,0.1,-48.29800463,1.2838589
5b8fffca220be50001c59858,60,1,2024-02-28T14:49:27.868Z,english_883.wav,0,peel,439,26,4,5,français,f,2,0.2,-81.14674871,0.35124497
5b8fffca220be50001c59858,60,1,2024-02-28T14:49:27.868Z,english_883.wav,0,peel,439,26,4,5,français,f,3,0.3,-14.72052063,0.55313004
5b8fffca220be50001c59858,60,1,2024-02-28T14:49:27.868Z,english_883.wav,0,peel,439,26,4,5,français,f,4,0.4,84.15645486,1.38696071
5b8fffca220be50001c59858,60,1,2024-02-28T14:49:27.868Z,english_883.wav,0,peel,439,26,4,5,français,f,5,0.5,-46.7306994,0.05285084
5b8fffca220be50001c59858,60,1,2024-02-28T14:49:27.868Z,english_883.wav,0,peel,439,26,4,5,français,f,6,0.6,-55.92753429,0.33437309
5b8fffca220be50001c59858,60,1,2024-02-28T14:49:27.868Z,english_883.wav,0,peel,439,26,4,5,français,f,7,0.7,69.20414462,0.05014106
5b8fffca220be50001c59858,60,1,2024-02-28T14:49:27.868Z,english_883.wav,0,peel,439,26,4,5,français,f,8,0.8,42.35113705,1.1093355
5b8fffca220be50001c59858,60,1,2024-02-28T14:49:27.868Z,english_883.wav,0,peel,439,26,4,5,français,f,9,0.9,68.93741473,1.05755937
5b8fffca220be50001c59858,60,1,2024-02-28T14:49:27.868Z,english_883.wav,0,peel,439,26,4,5,français,f,10,1.0,5.16727893,0.06749628
5b8fffca220be50001c59858,60,1,2024-02-28T14:49:27.868Z,english_883.wav,0,peel,439,26,4,5,français,f,11,1.09391667,-87.05225408,1.22701865
5b8fffca220be50001c59858,61,1,2024-02-28T14:49:27.868Z,english_119.wav,0,peel,289,26,4,5,français,f,0,0.0,98.57605275,0.1031314
5b8fffca220be50001c59858,61,1,2024-02-28T14:49:27.868Z,english_119.wav,0,peel,289,26,4,5,français,f,1,0.1,48.19569196,0.53372727
5b8fffca220be50001c59858,61,1,2024-02-28T14:49:27.868Z,english_119.wav,0,peel,289,26,4,5,français,f,2,0.2,96.20670949,1.31286157
5b8fffca220be50001c59858,61,1,2024-02-28T14:49:27.868Z,english_119.wav,0,peel,289,26,4,5,français,f,3,0.3,-19.19200662,0.99072858
5b8fffca220be50001c59858,61,1,2024-02-28T14:49:27.868Z,english_119.wav,0,peel,289,26,4,5,français,f,4,0.4,52.83768905,0.59990508
5b8fffca220be50001c59858,61,1,2024-02-28T14:49:27.868Z,english_119.wav,0,peel,289,26,4,5,français,f,5,0.5,1.85412636,1.80726182
5b8fffca220be50001c59858,61,1,2024-02-28T14:49:27.868Z,english_119.wav,0,peel,289,26,4,5,français,f,6,0.6,37.01820811,1.09281433
5b8fffca220be50001c59858,61,1,2024-02-28T14:49:27.868Z,english_119.wav,0,peel,289,26,4,5,français,f,7,0.7,29.79521621,0.09331625
5b8fffca220be50001c59858,61,1,2024-02-28T14:49:27.868Z,english_119.wav,0,peel,289,26,4,5,français,f,8,0.8,-57.64713834,0.67056306
5b8fffca220be50001c59858,61,1,2024-02-28T14:49:27.868Z,english_119.wav,0,peel,289,26,4,5,français,f,9,0.9,35.78201522,1.21362775
5b8fffca220be50001c59858,61,1,2024-02-28T14:49:27.868Z,english_119.wav,0,peel,289,26,4,5,français,f,10,1.0,49.99655896,0.49048318
5b8fffca220be50001c59858,61,1,2024-02-28T14:49:27.868Z,english_119.wav,0,peel,289,26,4,5,français,f,11,1.09391667,7.1972062,0.07431613
5b8fffca220be50001c59858,62,1,2024-02-28T14:49:27.868Z,english_508.wav,0,peel,499,26,4,5,français,f,0,0.0,29.95487344,1.28947786
5b8fffca220be50001c59858,62,1,2024-02-28T14:49:27.868Z,english_508.wav,0,peel,499,26,4,5,français,f,1,0.1,-43.56994085,0.45872669
5b8fffca220be50001c59858,62,1,2024-02-28T14:49:27.868Z,english_508.wav,0,peel,499,26,4,5,français,f,2,0.2,95.99440846,1.02864136
5b8fffca220be50001c59858,62,1,2024-02-28T14:49:27.868Z,english_508.wav,0,peel,499,26,4,5,français,f,3,0.3,96.63128694,1.38697031
5b8fffca220be50001c59858,62,1,2024-02-28T14:49:27.868Z,english_508.wav,0,peel,499,26,4,5,français,f,4,0.4,81.88240965,0.48619633
5b8fffca220be50001c59858,62,1,2024-02-28T14:49:27.868Z,english_508.wav,0,peel,499,26,4,5,français,f,5,0.5,-30.32405698,1.35316712
5b8fffca220be50001c59858,62,1,2024-02-28T14:49:27.868Z,english_508.wav,0,peel,499,26,4,5,français,f,6,0.6,-70.6760635,0.61818132
5b8fffca220be50001c59858,62,1,2024-02-28T14:49:27.868Z,english_508.wav,0,peel,499,26,4,5,français,f,7,0.7,-36.19238407,0.31535759
5b8fffca220be50001c59858,62,1,2024-02-28T14:49:27.868Z,english_508.wav,0,peel,499,26,4,5,français,f,8,0.8,18.2315003,1.60240226
5b8fffca220be50001c59858,62,1,2024-02-28T14:49:27.868Z,english_508.wav,0,peel,499,26,4,5,français,f,9,0.9,-71.56865734,1.17638413
5b8fffca220be50001c59858,62,1,2024-02-28T14:49:27.868Z,english_508.wav,0,peel,499,26,4,5,français,f,10,1.0,-72.78274833,0.8457368
5b8fffca220be50001c59858,62,1,2024-02-28T14:49:27.868Z,english_508.wav,0,peel,499,26,4,5,français,f,11,1.09391667,51.72471755,0.31851434
5b8fffca220be50001c59858,63,1,2024-02-28T14:49:27.868Z,english_284.wav,0,peel,216,26,4,5,français,f,0,0.0,-64.32327457,0.91308262
5b8fffca220be50001c59858,63,1,2024-02-28T14:49:27.868Z,english_284.wav,0,peel,216,26,4,5,français,f,1,0.1,-67.89025783,0.76791564
5b8fffca220be50001c59858,63,1,2024-02-28T14:49:27.868Z,english_284.wav,0,peel,216,26,4,5,français,f,2,0.2,63.39804367,0.83095971
5b8fffca220be50001c59858,63,1,2024-02-28T14:49:27.868Z,english_284.wav,0,peel,216,26,4,5,français,f,3,0.3,-47.8895651,1.79742446
5b8fffca220be50001c59858,63,1,2024-02-28T14:49:27.868Z,english_284.wav,0,peel,216,26,4,5,français,f,4,0.4,27.68105964,1.18503846
5b8fffca220be50001c59858,63,1,2024-02-28T14:49:27.868Z,english_284.wav,0,peel,216,26,4,5,français,f,5,0.5,58.35244252,1.29913938
5b8fffca220be50001c59858,63,1,2024-02-28T14:49:27.868Z,english_284.wav,0,peel,216,26,4,5,français,f,6,0.6,-24.74070708,1.72192785
5b8fffca220be50001c59858,63,1,2024-02-28T14:49:27.868Z,english_284.wav,0,peel,216,26,4,5,français,f,7,0.7,-82.19387926,1.7387844
5b8fffca220be50001c59858,63,1,2024-02-28T14:49:27.868Z,english_284.wav,0,peel,216,26,4,5,français,f,8,0.8,-97.32479033,1.05930336
5b8fffca220be50001c59858,63,1,2024-02-28T14:49:27.868Z,english_284.wav,0,peel,216,26,4,5,français,f,9,0.9,99.46728609,0.10150249
5b8fffca220be50001c59858,63,1,2024-02-28T14:49:27.868Z,english_284.wav,0,peel,216,26,4,5,français,f,10,1.0,-92.70862536,0.67687392
5b8fffca220be50001c59858,63,1,2024-02-28T14:49:27.868Z,english_284.wav,0,peel,216,26,4,5,français,f,11,1.09391667,47.98339035,1.83996488
5b8fffca220be50001c59858,64,1,2024-02-28T14:49:27.868Z,english_788.wav,0,pill,531,26,4,5,français,f,0,0.0,17.89309058,1.04861509
5b8fffca220be50001c59858,64,1,2024-02-28T14:49:27.868Z,english_788.wav,0,pill,531,26,4,5,français,f,1,0.1,71.29743237,1.67595733
