subj,trial,block,date,stim,stim_order,response,rt,age,english,french,language,sex,param_index,segment,pitch,stretch
5cfd119645e1a20001883ee6,0,0,2024-02-28T14:35:37.207Z,english_896.wav,0,pill,2147,27,5,5,français,f,0,0.0,15.15197213,1.10343193
5cfd119645e1a20001883ee6,0,0,2024-02-28T14:35:37.207Z,english_896.wav,0,pill,2147,27,5,5,français,f,1,0.1,12.09834356,1.24784569
5cfd119645e1a20001883ee6,0,0,2024-02-28T14:35:37.207Z,english_896.wav,0,pill,2147,27,5,5,français,f,2,0.2,-98.90945178,0.69536812
5cfd119645e1a20001883ee6,0,0,2024-02-28T14:35:37.207Z,english_896.wav,0,pill,2147,27,5,5,français,f,3,0.3,-7.24132806,1.50082123
5cfd119645e1a20001883ee6,0,0,2024-02-28T14:35:37.207Z,english_896.wav,0,pill,2147,27,5,5,français,f,4,0.4,-22.04912785,1.78962455
5cfd119645e1a20001883ee6,0,0,2024-02-28T14:35:37.207Z,english_896.wav,0,pill,2147,27,5,5,français,f,5,0.5,53.27175302,0.59868421
5cfd119645e1a20001883ee6,0,0,2024-02-28T14:35:37.207Z,english_896.wav,0,pill,2147,27,5,5,français,f,6,0.6,18.92228417,1.36027969
5cfd119645e1a20001883ee6,0,0,2024-02-28T14:35:37.207Z,english_896.wav,0,pill,2147,27,5,5,français,f,7,0.7,65.4652164,1.44726147
5cfd119645e1a20001883ee6,0,0,2024-02-28T14:35:37.207Z,english_896.wav,0,pill,2147,27,5,5,français,f,8,0.8,51.91420072,1.08983894
5cfd119645e1a20001883ee6,0,0,2024-02-28T14:35:37.207Z,english_896.wav,0,pill,2147,27,5,5,français,f,9,0.9,20.23549525,0.07451316
5cfd119645e1a20001883ee6,0,0,2024-02-28T14:35:37.207Z,english_896.wav,0,pill,2147,27,5,5,français,f,10,1.0,-86.64191921,0.79077881
5cfd119645e1a20001883ee6,0,0,2024-02-28T14:35:37.207Z,english_896.wav,0,pill,2147,27,5,5,français,f,11,1.09391667,-62.9037571,1.64262615
5cfd119645e1a20001883ee6,1,0,2024-02-28T14:35:37.207Z,english_27.wav,0,peel,657,27,5,5,français,f,0,0.0,79.54091256,1.25862136
5cfd119645e1a20001883ee6,1,0,2024-02-28T14:35:37.207Z,english_27.wav,0,peel,657,27,5,5,français,f,1,0.1,8.12106861,0.9398724
5cfd119645e1a20001883ee6,1,0,2024-02-28T14:35:37.207Z,english_27.wav,0,peel,657,27,5,5,français,f,2,0.2,-86.96528304,1.23485766
5cfd119645e1a20001883ee6,1,0,2024-02-28T14:35:37.207Z,english_27.wav,0,peel,657,27,5,5,français,f,3,0.3,34.39896744,0.94041456
5cfd119645e1a20001883ee6,1,0,2024-02-28T14:35:37.207Z,english_27.wav,0,peel,657,27,5,5,français,f,4,0.4,73.46875222,1.68451502
5cfd119645e1a20001883ee6,1,0,2024-02-28T14:35:37.207Z,english_27.wav,0,peel,657,27,5,5,français,f,5,0.5,-83.8449803,0.54115759
5cfd119645e1a20001883ee6,1,0,2024-02-28T14:35:37.207Z,english_27.wav,0,peel,657,27,5,5,français,f,6,0.6,58.21808767,0.09765006
5cfd119645e1a20001883ee6,1,0,2024-02-28T14:35:37.207Z,english_27.wav,0,peel,657,27,5,5,français,f,7,0.7,-1.02085817,0.91208016
5cfd119645e1a20001883ee6,1,0,2024-02-28T14:35:37.207Z,english_27.wav,0,peel,657,27,5,5,français,f,8,0.8,-33.33574161,1.53320318
5cfd119645e1a20001883ee6,1,0,2024-02-28T14:35:37.207Z,english_27.wav,0,peel,657,27,5,5,français,f,9,0.9,24.41997053,1.39457069
5cfd119645e1a20001883ee6,1,0,2024-02-28T14:35:37.207Z,english_27.wav,0,peel,657,27,5,5,français,f,10,1.0,-54.97722052,0.85736332
5cfd119645e1a20001883ee6,1,0,2024-02-28T14:35:37.207Z,english_27.wav,0,peel,657,27,5,5,français,f,11,1.09391667,-40.91525951,0.73478674
5cfd119645e1a20001883ee6,2,0,2024-02-28T14:35:37.207Z,english_101.wav,0,pill,905,27,5,5,français,f,0,0.0,54.85574333,0.56749545
5cfd119645e1a20001883ee6,2,0,2024-02-28T14:35:37.207Z,english_101.wav,0,pill,905,27,5,5,français,f,1,0.1,0.70808879,1.44378271
5cfd119645e1a20001883ee6,2,0,2024-02-28T14:35:37.207Z,english_101.wav,0,pill,905,27,5,5,français,f,2,0.2,-80.1183649,0.79216525
5cfd119645e1a20001883ee6,2,0,2024-02-28T14:35:37.207Z,english_101.wav,0,pill,905,27,5,5,français,f,3,0.3,41.22016504,0.86392682
5cfd119645e1a20001883ee6,2,0,2024-02-28T14:35:37.207Z,english_101.wav,0,pill,905,27,5,5,français,f,4,0.4,-9.97599034,0.6963626
5cfd119645e1a20001883ee6,2,0,2024-02-28T14:35:37.207Z,english_101.wav,0,pill,905,27,5,5,français,f,5,0.5,90.56668979,0.60530731
5cfd119645e1a20001883ee6,2,0,2024-02-28T14:35:37.207Z,english_101.wav,0,pill,905,27,5,5,français,f,6,0.6,-60.35193263,1.66078928
5cfd119645e1a20001883ee6,2,0,2024-02-28T14:35:37.207Z,english_101.wav,0,pill,905,27,5,5,français,f,7,0.7,61.72690789,1.6801741
5cfd119645e1a20001883ee6,2,0,2024-02-28T14:35:37.207Z,english_101.wav,0,pill,905,27,5,5,français,f,8,0.8,88.15092983,1.39430446
5cfd119645e1a20001883ee6,2,0,2024-02-28T14:35:37.207Z,english_101.wav,0,pill,905,27,5,5,français,f,9,0.9,40.7935106,0.81152744
5cfd119645e1a20001883ee6,2,0,2024-02-28T14:35:37.207Z,english_101.wav,0,pill,905,27,5,5,français,f,10,1.0,84.72598744,0.36950081
5cfd119645e1a20001883ee6,2,0,2024-02-28T14:35:37.207Z,english_101.wav,0,pill,905,27,5,5,français,f,11,1.09391667,-47.25265497,1.44384249
5cfd119645e1a20001883ee6,3,0,2024-02-28T14:35:37.207Z,english_615.wav,0,pill,1090,27,5,5,français,f,0,0.0,-59.46419525,1.45272118
5cfd119645e1a20001883ee6,3,0,2024-02-28T14:35:37.207Z,english_615.wav,0,pill,1090,27,5,5,français,f,1,0.1,57.8993682,1.05218588
5cfd119645e1a20001883ee6,3,0,2024-02-28T14:35:37.207Z,english_615.wav,0,pill,1090,27,5,5,français,f,2,0.2,96.50473449,0.16877242
5cfd119645e1a20001883ee6,3,0,2024-02-28T14:35:37.207Z,english_615.wav,0,pill,1090,27,5,5,français,f,3,0.3,70.35497861,0.80491698
5cfd119645e1a20001883ee6,3,0,2024-02-28T14:35:37.207Z,english_615.wav,0,pill,1090,27,5,5,français,f,4,0.4,41.87750843,0.90543026
5cfd119645e1a20001883ee6,3,0,2024-02-28T14:35:37.207Z,english_615.wav,0,pill,1090,27,5,5,français,f,5,0.5,-81.49095224,1.05177913
5cfd119645e1a20001883ee6,3,0,2024-02-28T14:35:37.207Z,english_615.wav,0,pill,1090,27,5,5,français,f,6,0.6,57.42750946,0.09637859
5cfd119645e1a20001883ee6,3,0,2024-02-28T14:35:37.207Z,english_615.wav,0,pill,1090,27,5,5,français,f,7,0.7,4.11503666,0.17788962
5cfd119645e1a20001883ee6,3,0,2024-02-28T14:35:37.207Z,english_615.wav,0,pill,1090,27,5,5,français,f,8,0.8,-69.97079252,0.7335246
5cfd119645e1a20001883ee6,3,0,2024-02-28T14:35:37.207Z,english_615.wav,0,pill,1090,27,5,5,français,f,9,0.9,35.15344639,1.1040214
5cfd119645e1a20001883ee6,3,0,2024-02-28T14:35:37.207Z,english_615.wav,0,pill,1090,27,5,5,français,f,10,1.0,-81.03238812,0.9742901
5cfd119645e1a20001883ee6,3,0,2024-02-28T14:35:37.207Z,english_615.wav,0,pill,1090,27,5,5,français,f,11,1.09391667,-73.59723868,0.84036339
5cfd119645e1a20001883ee6,4,0,2024-02-28T14:35:37.207Z,english_748.wav,0,pill,1119,27,5,5,français,f,0,0.0,-33.83596368,1.91287282
5cfd119645e1a20001883ee6,4,0,2024-02-28T14:35:37.207Z,english_748.wav,0,pill,1119,27,5,5,français,f,1,0.1,-59.15381013,1.28041444
5cfd119645e1a20001883ee6,4,0,2024-02-28T14:35:37.207Z,english_748.wav,0,pill,1119,27,5,5,français,f,2,0.2,-64.86299243,0.04095899
5cfd119645e1a20001883ee6,4,0,2024-02-28T14:35:37.207Z,english_748.wav,0,pill,1119,27,5,5,français,f,3,0.3,-73.6430977,0.41914446
5cfd119645e1a20001883ee6,4,0,2024-02-28T14:35:37.207Z,english_748.wav,0,pill,1119,27,5,5,français,f,4,0.4,-91.05214173,1.08223978
5cfd119645e1a20001883ee6,4,0,2024-02-28T14:35:37.207Z,english_748.wav,0,pill,1119,27,5,5,français,f,5,0.5,-45.40797518,0.2529754
5cfd119645e1a20001883ee6,4,0,2024-02-28T14:35:37.207Z,english_748.wav,0,pill,1119,27,5,5,français,f,6,0.6,13.66964743,1.11197698
5cfd119645e1a20001883ee6,4,0,2024-02-28T14:35:37.207Z,english_748.wav,0,pill,1119,27,5,5,français,f,7,0.7,95.37065991,0.98751557
5cfd119645e1a20001883ee6,4,0,2024-02-28T14:35:37.207Z,english_748.wav,0,pill,1119,27,5,5,français,f,8,0.8,26.41264332,0.20616642
5cfd119645e1a20001883ee6,4,0,2024-02-28T14:35:37.207Z,english_748.wav,0,pill,1119,27,5,5,français,f,9,0.9,48.24832417,0.07234113
5cfd119645e1a20001883ee6,4,0,2024-02-28T14:35:37.207Z,english_748.wav,0,pill,1119,27,5,5,français,f,10,1.0,52.4867675,0.75683712
5cfd119645e1a20001883ee6,4,0,2024-02-28T14:35:37.207Z,english_748.wav,0,pill,1119,27,5,5,français,f,11,1.09391667,-11.31996214,0.73246581
5cfd119645e1a20001883ee6,5,0,2024-02-28T14:35:37.207Z,english_75.wav,0,peel,513,27,5,5,français,f,0,0.0,65.41838677,1.57781759
5cfd119645e1a20001883ee6,5,0,2024-02-28T14:35:37.207Z,english_75.wav,0,peel,513,27,5,5,français,f,1,0.1,-26.14209168,0.77148349
5cfd119645e1a20001883ee6,5,0,2024-02-28T14:35:37.207Z,english_75.wav,0,peel,513,27,5,5,français,f,2,0.2,-26.49286349,1.21755239
5cfd119645e1a20001883ee6,5,0,2024-02-28T14:35:37.207Z,english_75.wav,0,peel,513,27,5,5,français,f,3,0.3,24.3393517,1.81969944
5cfd119645e1a20001883ee6,5,0,2024-02-28T14:35:37.207Z,english_75.wav,0,peel,513,27,5,5,français,f,4,0.4,41.72589255,1.02092036
5cfd119645e1a20001883ee6,5,0,2024-02-28T14:35:37.207Z,english_75.wav,0,peel,513,27,5,5,français,f,5,0.5,5.99778054,0.99503371
5cfd119645e1a20001883ee6,5,0,2024-02-28T14:35:37.207Z,english_75.wav,0,peel,513,27,5,5,français,f,6,0.6,-80.58181045,0.23100369
5cfd119645e1a20001883ee6,5,0,2024-02-28T14:35:37.207Z,english_75.wav,0,peel,513,27,5,5,français,f,7,0.7,-99.66211708,0.28893428
5cfd119645e1a20001883ee6,5,0,2024-02-28T14:35:37.207Z,english_75.wav,0,peel,513,27,5,5,français,f,8,0.8,55.65408757,1.5775207
5cfd119645e1a20001883ee6,5,0,2024-02-28T14:35:37.207Z,english_75.wav,0,peel,513,27,5,5,français,f,9,0.9,95.67727499,1.18557327
5cfd119645e1a20001883ee6,5,0,2024-02-28T14:35:37.207Z,english_75.wav,0,peel,513,27,5,5,français,f,10,1.0,-83.58076108,0.49264005
5cfd119645e1a20001883ee6,5,0,2024-02-28T14:35:37.207Z,english_75.wav,0,peel,513,27,5,5,français,f,11,1.09391667,-10.73672479,0.18205409
5cfd119645e1a20001883ee6,6,0,2024-02-28T14:35:37.207Z,english_781.wav,0,peel,641,27,5,5,français,f,0,0.0,13.49860993,0.0422445
5cfd119645e1a20001883ee6,6,0,2024-02-28T14:35:37.207Z,english_781.wav,0,peel,641,27,5,5,français,f,1,0.1,78.16193023,0.76912714
5cfd119645e1a20001883ee6,6,0,2024-02-28T14:35:37.207Z,english_781.wav,0,peel,641,27,5,5,français,f,2,0.2,43.40540276,1.16484067
5cfd119645e1a20001883ee6,6,0,2024-02-28T14:35:37.207Z,english_781.wav,0,peel,641,27,5,5,français,f,3,0.3,44.39381188,0.51341231
5cfd119645e1a20001883ee6,6,0,2024-02-28T14:35:37.207Z,english_781.wav,0,peel,641,27,5,5,français,f,4,0.4,1.19618008,0.61057315
5cfd119645e1a20001883ee6,6,0,2024-02-28T14:35:37.207Z,english_781.wav,0,peel,641,27,5,5,français,f,5,0.5,97.39796145,1.22595164
5cfd119645e1a20001883ee6,6,0,2024-02-28T14:35:37.207Z,english_781.wav,0,peel,641,27,5,5,français,f,6,0.6,-80.74515196,0.0959771
5cfd119645e1a20001883ee6,6,0,2024-02-28T14:35:37.207Z,english_781.wav,0,peel,641,27,5,5,français,f,7,0.7,24.03355654,0.86869214
5cfd119645e1a20001883ee6,6,0,2024-02-28T14:35:37.207Z,english_781.wav,0,peel,641,27,5,5,français,f,8,0.8,-69.35175607,1.17997392
5cfd119645e1a20001883ee6,6,0,2024-02-28T14:35:37.207Z,english_781.wav,0,peel,641,27,5,5,français,f,9,0.9,69.20236756,1.93834455
5cfd119645e1a20001883ee6,6,0,2024-02-28T14:35:37.207Z,english_781.wav,0,peel,641,27,5,5,français,f,10,1.0,35.51398516,0.60620459
5cfd119645e1a20001883ee6,6,0,2024-02-28T14:35:37.207Z,english_781.wav,0,peel,641,27,5,5,français,f,11,1.09391667,-53.23346631,1.46133915
5cfd119645e1a20001883ee6,7,0,2024-02-28T14:35:37.207Z,english_876.wav,0,peel,927,27,5,5,français,f,0,0.0,-22.28605272,0.86114571
5cfd119645e1a20001883ee6,7,0,2024-02-28T14:35:37.207Z,english_876.wav,0,peel,927,27,5,5,français,f,1,0.1,88.07210504,1.97575965
5cfd119645e1a20001883ee6,7,0,2024-02-28T14:35:37.207Z,english_876.wav,0,peel,927,27,5,5,français,f,2,0.2,-49.70957844,0.63948783
5cfd119645e1a20001883ee6,7,0,2024-02-28T14:35:37.207Z,english_876.wav,0,peel,927,27,5,5,français,f,3,0.3,-15.12998944,0.79524936
5cfd119645e1a20001883ee6,7,0,2024-02-28T14:35:37.207Z,english_876.wav,0,peel,927,27,5,5,français,f,4,0.4,-15.93875253,1.19082012
5cfd119645e1a20001883ee6,7,0,2024-02-28T14:35:37.207Z,english_876.wav,0,peel,927,27,5,5,français,f,5,0.5,-25.52637737,0.64746998
5cfd119645e1a20001883ee6,7,0,2024-02-28T14:35:37.207Z,english_876.wav,0,peel,927,27,5,5,français,f,6,0.6,-20.7469083,0.40627419
5cfd119645e1a20001883ee6,7,0,2024-02-28T14:35:37.207Z,english_876.wav,0,peel,927,27,5,5,français,f,7,0.7,38.24982305,0.95615642
5cfd119645e1a20001883ee6,7,0,2024-02-28T14:35:37.207Z,english_876.wav,0,peel,927,27,5,5,français,f,8,0.8,85.21823118,1.23938009
5cfd119645e1a20001883ee6,7,0,2024-02-28T14:35:37.207Z,english_876.wav,0,peel,927,27,5,5,français,f,9,0.9,2.48963564,0.97530307
5cfd119645e1a20001883ee6,7,0,2024-02-28T14:35:37.207Z,english_876.wav,0,peel,927,27,5,5,français,f,10,1.0,33.93764026,0.65277391
5cfd119645e1a20001883ee6,7,0,2024-02-28T14:35:37.207Z,english_876.wav,0,peel,927,27,5,5,français,f,11,1.09391667,1.12823357,0.77957787
5cfd119645e1a20001883ee6,8,0,2024-02-28T14:35:37.207Z,english_888.wav,0,peel,612,27,5,5,français,f,0,0.0,-39.7925546,0.13458958
5cfd119645e1a20001883ee6,8,0,2024-02-28T14:35:37.207Z,english_888.wav,0,peel,612,27,5,5,français,f,1,0.1,-49.30113257,1.48324952
5cfd119645e1a20001883ee6,8,0,2024-02-28T14:35:37.207Z,english_888.wav,0,peel,612,27,5,5,français,f,2,0.2,5.97243806,0.77423602
5cfd119645e1a20001883ee6,8,0,2024-02-28T14:35:37.207Z,english_888.wav,0,peel,612,27,5,5,français,f,3,0.3,16.41276851,0.11110742
5cfd119645e1a20001883ee6,8,0,2024-02-28T14:35:37.207Z,english_888.wav,0,peel,612,27,5,5,français,f,4,0.4,72.72751695,0.50050507
5cfd119645e1a20001883ee6,8,0,2024-02-28T14:35:37.207Z,english_888.wav,0,peel,612,27,5,5,français,f,5,0.5,30.43059144,1.62800327
5cfd119645e1a20001883ee6,8,0,2024-02-28T14:35:37.207Z,english_888.wav,0,peel,612,27,5,5,français,f,6,0.6,-50.61460993,0.52150538
5cfd119645e1a20001883ee6,8,0,2024-02-28T14:35:37.207Z,english_888.wav,0,peel,612,27,5,5,français,f,7,0.7,27.35581245,1.33185555
5cfd119645e1a20001883ee6,8,0,2024-02-28T14:35:37.207Z,english_888.wav,0,peel,612,27,5,5,français,f,8,0.8,-42.43293374,1.57744059
5cfd119645e1a20001883ee6,8,0,2024-02-28T14:35:37.207Z,english_888.wav,0,peel,612,27,5,5,français,f,9,0.9,65.78948432,0.93033448
5cfd119645e1a20001883ee6,8,0,2024-02-28T14:35:37.207Z,english_888.wav,0,peel,612,27,5,5,français,f,10,1.0,10.78660964,1.1520653
5cfd119645e1a20001883ee6,8,0,2024-02-28T14:35:37.207Z,english_888.wav,0,peel,612,27,5,5,français,f,11,1.09391667,-21.51817703,1.84815249
5cfd119645e1a20001883ee6,9,0,2024-02-28T14:35:37.207Z,english_732.wav,0,peel,483,27,5,5,français,f,0,0.0,-6.1655518,1.83743041
5cfd119645e1a20001883ee6,9,0,2024-02-28T14:35:37.207Z,english_732.wav,0,peel,483,27,5,5,français,f,1,0.1,-21.68268247,0.45034165
5cfd119645e1a20001883ee6,9,0,2024-02-28T14:35:37.207Z,english_732.wav,0,peel,483,27,5,5,français,f,2,0.2,-44.18505393,1.43977044
5cfd119645e1a20001883ee6,9,0,2024-02-28T14:35:37.207Z,english_732.wav,0,peel,483,27,5,5,français,f,3,0.3,-99.08787178,1.63276402
5cfd119645e1a20001883ee6,9,0,2024-02-28T14:35:37.207Z,english_732.wav,0,peel,483,27,5,5,français,f,4,0.4,52.69419041,1.14410498
5cfd119645e1a20001883ee6,9,0,2024-02-28T14:35:37.207Z,english_732.wav,0,peel,483,27,5,5,français,f,5,0.5,-22.76801282,0.80499942
5cfd119645e1a20001883ee6,9,0,2024-02-28T14:35:37.207Z,english_732.wav,0,peel,483,27,5,5,français,f,6,0.6,-68.37024344,0.00488355
5cfd119645e1a20001883ee6,9,0,2024-02-28T14:35:37.207Z,english_732.wav,0,peel,483,27,5,5,français,f,7,0.7,99.79862575,1.08087267
5cfd119645e1a20001883ee6,9,0,2024-02-28T14:35:37.207Z,english_732.wav,0,peel,483,27,5,5,français,f,8,0.8,-45.96985204,0.60546967
5cfd119645e1a20001883ee6,9,0,2024-02-28T14:35:37.207Z,english_732.wav,0,peel,483,27,5,5,français,f,9,0.9,34.4904792,1.53964006
5cfd119645e1a20001883ee6,9,0,2024-02-28T14:35:37.207Z,english_732.wav,0,peel,483,27,5,5,français,f,10,1.0,-81.20928849,0.59388625
5cfd119645e1a20001883ee6,9,0,2024-02-28T14:35:37.207Z,english_732.wav,0,peel,483,27,5,5,français,f,11,1.09391667,-1.26617119,1.72169188
5cfd119645e1a20001883ee6,10,0,2024-02-28T14:35:37.207Z,english_50.wav,0,pill,715,27,5,5,français,f,0,0.0,-32.36494138,1.37054129
5cfd119645e1a20001883ee6,10,0,2024-02-28T14:35:37.207Z,english_50.wav,0,pill,715,27,5,5,français,f,1,0.1,76.6244439,1.57215181
5cfd119645e1a20001883ee6,10,0,2024-02-28T14:35:37.207Z,english_50.wav,0,pill,715,27,5,5,français,f,2,0.2,-16.62217643,1.07317842
5cfd119645e1a20001883ee6,10,0,2024-02-28T14:35:37.207Z,english_50.wav,0,pill,715,27,5,5,français,f,3,0.3,63.40850527,0.82623857
5cfd119645e1a20001883ee6,10,0,2024-02-28T14:35:37.207Z,english_50.wav,0,pill,715,27,5,5,français,f,4,0.4,68.81783594,0.72038729
5cfd119645e1a20001883ee6,10,0,2024-02-28T14:35:37.207Z,english_50.wav,0,pill,715,27,5,5,français,f,5,0.5,-35.17384088,1.90936147
5cfd119645e1a20001883ee6,10,0,2024-02-28T14:35:37.207Z,english_50.wav,0,pill,715,27,5,5,français,f,6,0.6,42.93688325,0.3744962
5cfd119645e1a20001883ee6,10,0,2024-02-28T14:35:37.207Z,english_50.wav,0,pill,715,27,5,5,français,f,7,0.7,-82.21044816,0.69245834
5cfd119645e1a20001883ee6,10,0,2024-02-28T14:35:37.207Z,english_50.wav,0,pill,715,27,5,5,français,f,8,0.8,-42.73245843,0.60585647
5cfd119645e1a20001883ee6,10,0,2024-02-28T14:35:37.207Z,english_50.wav,0,pill,715,27,5,5,français,f,9,0.9,-3.13393134,1.24840552
5cfd119645e1a20001883ee6,10,0,2024-02-28T14:35:37.207Z,english_50.wav,0,pill,715,27,5,5,français,f,10,1.0,-86.41078269,0.02488175
5cfd119645e1a20001883ee6,10,0,2024-02-28T14:35:37.207Z,english_50.wav,0,pill,715,27,5,5,français,f,11,1.09391667,14.80187439,1.59728167
5cfd119645e1a20001883ee6,11,0,2024-02-28T14:35:37.207Z,english_152.wav,0,peel,665,27,5,5,français,f,0,0.0,-10.34550429,1.84986994
5cfd119645e1a20001883ee6,11,0,2024-02-28T14:35:37.207Z,english_152.wav,0,peel,665,27,5,5,français,f,1,0.1,-43.66558153,0.90615496
5cfd119645e1a20001883ee6,11,0,2024-02-28T14:35:37.207Z,english_152.wav,0,peel,665,27,5,5,français,f,2,0.2,56.2217474,0.59286193
5cfd119645e1a20001883ee6,11,0,2024-02-28T14:35:37.207Z,english_152.wav,0,peel,665,27,5,5,français,f,3,0.3,-27.44048298,0.85505555
5cfd119645e1a20001883ee6,11,0,2024-02-28T14:35:37.207Z,english_152.wav,0,peel,665,27,5,5,français,f,4,0.4,17.92439762,0.56649727
5cfd119645e1a20001883ee6,11,0,2024-02-28T14:35:37.207Z,english_152.wav,0,peel,665,27,5,5,français,f,5,0.5,82.51468432,0.6043893
5cfd119645e1a20001883ee6,11,0,2024-02-28T14:35:37.207Z,english_152.wav,0,peel,665,27,5,5,français,f,6,0.6,8.54715681,1.72413787
5cfd119645e1a20001883ee6,11,0,2024-02-28T14:35:37.207Z,english_152.wav,0,peel,665,27,5,5,français,f,7,0.7,-94.9804546,0.10144569
5cfd119645e1a20001883ee6,11,0,2024-02-28T14:35:37.207Z,english_152.wav,0,peel,665,27,5,5,français,f,8,0.8,43.42849193,1.50321153
5cfd119645e1a20001883ee6,11,0,2024-02-28T14:35:37.207Z,english_152.wav,0,peel,665,27,5,5,français,f,9,0.9,1.5194414,0.78421076
5cfd119645e1a20001883ee6,11,0,2024-02-28T14:35:37.207Z,english_152.wav,0,peel,665,27,5,5,français,f,10,1.0,20.77451489,1.65129885
5cfd119645e1a20001883ee6,11,0,2024-02-28T14:35:37.207Z,english_152.wav,0,peel,665,27,5,5,français,f,11,1.09391667,95.7342738,1.8248214
5cfd119645e1a20001883ee6,12,0,2024-02-28T14:35:37.207Z,english_516.wav,0,peel,471,27,5,5,français,f,0,0.0,65.27468838,0.72548384
5cfd119645e1a20001883ee6,12,0,2024-02-28T14:35:37.207Z,english_516.wav,0,peel,471,27,5,5,français,f,1,0.1,28.38678538,1.78002716
5cfd119645e1a20001883ee6,12,0,2024-02-28T14:35:37.207Z,english_516.wav,0,peel,471,27,5,5,français,f,2,0.2,-16.29491298,1.52601333
5cfd119645e1a20001883ee6,12,0,2024-02-28T14:35:37.207Z,english_516.wav,0,peel,471,27,5,5,français,f,3,0.3,29.01072094,0.22704286
5cfd119645e1a20001883ee6,12,0,2024-02-28T14:35:37.207Z,english_516.wav,0,peel,471,27,5,5,français,f,4,0.4,-47.32267929,1.00592853
5cfd119645e1a20001883ee6,12,0,2024-02-28T14:35:37.207Z,english_516.wav,0,peel,471,27,5,5,français,f,5,0.5,-47.60418852,0.3740999
5cfd119645e1a20001883ee6,12,0,2024-02-28T14:35:37.207Z,english_516.wav,0,peel,471,27,5,5,français,f,6,0.6,19.91194594,1.89933748
5cfd119645e1a20001883ee6,12,0,2024-02-28T14:35:37.207Z,english_516.wav,0,peel,471,27,5,5,français,f,7,0.7,-28.9289623,0.62297075
5cfd119645e1a20001883ee6,12,0,2024-02-28T14:35:37.207Z,english_516.wav,0,peel,471,27,5,5,français,f,8,0.8,5.6204603,1.26182982
5cfd119645e1a20001883ee6,12,0,2024-02-28T14:35:37.207Z,english_516.wav,0,peel,471,27,5,5,français,f,9,0.9,55.47321842,0.11401837
5cfd119645e1a20001883ee6,12,0,2024-02-28T14:35:37.207Z,english_516.wav,0,peel,471,27,5,5,français,f,10,1.0,12.03381774,0.27832104
5cfd119645e1a20001883ee6,12,0,2024-02-28T14:35:37.207Z,english_516.wav,0,peel,471,27,5,5,français,f,11,1.09391667,-64.39892236,1.09838576
5cfd119645e1a20001883ee6,13,0,2024-02-28T14:35:37.207Z,english_401.wav,0,pill,510,27,5,5,français,f,0,0.0,-36.1059854,1.51802818
5cfd119645e1a20001883ee6,13,0,2024-02-28T14:35:37.207Z,english_401.wav,0,pill,510,27,5,5,français,f,1,0.1,38.605133,1.15871841
5cfd119645e1a20001883ee6,13,0,2024-02-28T14:35:37.207Z,english_401.wav,0,pill,510,27,5,5,français,f,2,0.2,6.46138816,1.08082563
5cfd119645e1a20001883ee6,13,0,2024-02-28T14:35:37.207Z,english_401.wav,0,pill,510,27,5,5,français,f,3,0.3,-76.8629005,0.42984112
5cfd119645e1a20001883ee6,13,0,2024-02-28T14:35:37.207Z,english_401.wav,0,pill,510,27,5,5,français,f,4,0.4,53.9378868,1.24745689
5cfd119645e1a20001883ee6,13,0,2024-02-28T14:35:37.207Z,english_401.wav,0,pill,510,27,5,5,français,f,5,0.5,28.3848957,0.52889601
5cfd119645e1a20001883ee6,13,0,2024-02-28T14:35:37.207Z,english_401.wav,0,pill,510,27,5,5,français,f,6,0.6,49.535102,1.52039951
5cfd119645e1a20001883ee6,13,0,2024-02-28T14:35:37.207Z,english_401.wav,0,pill,510,27,5,5,français,f,7,0.7,-64.7881021,1.59778592
5cfd119645e1a20001883ee6,13,0,2024-02-28T14:35:37.207Z,english_401.wav,0,pill,510,27,5,5,français,f,8,0.8,-98.9667189,0.63237027
5cfd119645e1a20001883ee6,13,0,2024-02-28T14:35:37.207Z,english_401.wav,0,pill,510,27,5,5,français,f,9,0.9,-0.0263257976,0.3603848
5cfd119645e1a20001883ee6,13,0,2024-02-28T14:35:37.207Z,english_401.wav,0,pill,510,27,5,5,français,f,10,1.0,-0.147031707,0.91165557
5cfd119645e1a20001883ee6,13,0,2024-02-28T14:35:37.207Z,english_401.wav,0,pill,510,27,5,5,français,f,11,1.09391667,-83.6458716,1.59350312
5cfd119645e1a20001883ee6,14,0,2024-02-28T14:35:37.207Z,english_866.wav,0,pill,357,27,5,5,français,f,0,0.0,32.13948388,0.64921597
5cfd119645e1a20001883ee6,14,0,2024-02-28T14:35:37.207Z,english_866.wav,0,pill,357,27,5,5,français,f,1,0.1,38.60075831,1.48742897
5cfd119645e1a20001883ee6,14,0,2024-02-28T14:35:37.207Z,english_866.wav,0,pill,357,27,5,5,français,f,2,0.2,-79.61982729,0.28495491
5cfd119645e1a20001883ee6,14,0,2024-02-28T14:35:37.207Z,english_866.wav,0,pill,357,27,5,5,français,f,3,0.3,-60.72840424,0.9139307
5cfd119645e1a20001883ee6,14,0,2024-02-28T14:35:37.207Z,english_866.wav,0,pill,357,27,5,5,français,f,4,0.4,-37.10812529,1.2771469
5cfd119645e1a20001883ee6,14,0,2024-02-28T14:35:37.207Z,english_866.wav,0,pill,357,27,5,5,français,f,5,0.5,20.23366157,0.5381413
5cfd119645e1a20001883ee6,14,0,2024-02-28T14:35:37.207Z,english_866.wav,0,pill,357,27,5,5,français,f,6,0.6,-58.420194,0.14669297
5cfd119645e1a20001883ee6,14,0,2024-02-28T14:35:37.207Z,english_866.wav,0,pill,357,27,5,5,français,f,7,0.7,10.40447232,0.11342134
5cfd119645e1a20001883ee6,14,0,2024-02-28T14:35:37.207Z,english_866.wav,0,pill,357,27,5,5,français,f,8,0.8,-52.83849426,1.53208977
5cfd119645e1a20001883ee6,14,0,2024-02-28T14:35:37.207Z,english_866.wav,0,pill,357,27,5,5,français,f,9,0.9,32.83340069,0.84107623
5cfd119645e1a20001883ee6,14,0,2024-02-28T14:35:37.207Z,english_866.wav,0,pill,357,27,5,5,français,f,10,1.0,9.31901299,1.05202157
5cfd119645e1a20001883ee6,14,0,2024-02-28T14:35:37.207Z,english_866.wav,0,pill,357,27,5,5,français,f,11,1.09391667,-17.41907809,1.86418674
5cfd119645e1a20001883ee6,15,0,2024-02-28T14:35:37.207Z,english_897.wav,0,pill,667,27,5,5,français,f,0,0.0,91.54141142,0.1445201
5cfd119645e1a20001883ee6,15,0,2024-02-28T14:35:37.207Z,english_897.wav,0,pill,667,27,5,5,français,f,1,0.1,20.06999674,1.86000345
5cfd119645e1a20001883ee6,15,0,2024-02-28T14:35:37.207Z,english_897.wav,0,pill,667,27,5,5,français,f,2,0.2,-60.17862007,0.67850772
5cfd119645e1a20001883ee6,15,0,2024-02-28T14:35:37.207Z,english_897.wav,0,pill,667,27,5,5,français,f,3,0.3,22.55775305,0.042785
5cfd119645e1a20001883ee6,15,0,2024-02-28T14:35:37.207Z,english_897.wav,0,pill,667,27,5,5,français,f,4,0.4,-29.18349392,0.33792534
5cfd119645e1a20001883ee6,15,0,2024-02-28T14:35:37.207Z,english_897.wav,0,pill,667,27,5,5,français,f,5,0.5,-4.34715828,1.54286554
5cfd119645e1a20001883ee6,15,0,2024-02-28T14:35:37.207Z,english_897.wav,0,pill,667,27,5,5,français,f,6,0.6,3.54639982,1.41726271
5cfd119645e1a20001883ee6,15,0,2024-02-28T14:35:37.207Z,english_897.wav,0,pill,667,27,5,5,français,f,7,0.7,14.95981451,0.22962892
5cfd119645e1a20001883ee6,15,0,2024-02-28T14:35:37.207Z,english_897.wav,0,pill,667,27,5,5,français,f,8,0.8,79.03500803,0.98987379
5cfd119645e1a20001883ee6,15,0,2024-02-28T14:35:37.207Z,english_897.wav,0,pill,667,27,5,5,français,f,9,0.9,89.82097388,0.31366212
5cfd119645e1a20001883ee6,15,0,2024-02-28T14:35:37.207Z,english_897.wav,0,pill,667,27,5,5,français,f,10,1.0,-18.02507746,0.34929613
5cfd119645e1a20001883ee6,15,0,2024-02-28T14:35:37.207Z,english_897.wav,0,pill,667,27,5,5,français,f,11,1.09391667,-21.60386418,1.95291291
5cfd119645e1a20001883ee6,16,0,2024-02-28T14:35:37.207Z,english_452.wav,0,peel,415,27,5,5,français,f,0,0.0,-16.61864147,1.17401117
5cfd119645e1a20001883ee6,16,0,2024-02-28T14:35:37.207Z,english_452.wav,0,peel,415,27,5,5,français,f,1,0.1,-22.13078498,0.56539659
5cfd119645e1a20001883ee6,16,0,2024-02-28T14:35:37.207Z,english_452.wav,0,peel,415,27,5,5,français,f,2,0.2,-16.24569285,0.39679082
5cfd119645e1a20001883ee6,16,0,2024-02-28T14:35:37.207Z,english_452.wav,0,peel,415,27,5,5,français,f,3,0.3,2.20276296,1.32249954
5cfd119645e1a20001883ee6,16,0,2024-02-28T14:35:37.207Z,english_452.wav,0,peel,415,27,5,5,français,f,4,0.4,38.28427002,1.17645405
5cfd119645e1a20001883ee6,16,0,2024-02-28T14:35:37.207Z,english_452.wav,0,peel,415,27,5,5,français,f,5,0.5,-18.79047659,1.63330715
5cfd119645e1a20001883ee6,16,0,2024-02-28T14:35:37.207Z,english_452.wav,0,peel,415,27,5,5,français,f,6,0.6,78.89075327,1.91411401
5cfd119645e1a20001883ee6,16,0,2024-02-28T14:35:37.207Z,english_452.wav,0,peel,415,27,5,5,français,f,7,0.7,92.92821396,1.71360753
5cfd119645e1a20001883ee6,16,0,2024-02-28T14:35:37.207Z,english_452.wav,0,peel,415,27,5,5,français,f,8,0.8,97.94945302,1.56668356
5cfd119645e1a20001883ee6,16,0,2024-02-28T14:35:37.207Z,english_452.wav,0,peel,415,27,5,5,français,f,9,0.9,87.69669084,1.33916848
5cfd119645e1a20001883ee6,16,0,2024-02-28T14:35:37.207Z,english_452.wav,0,peel,415,27,5,5,français,f,10,1.0,59.46975303,0.94959461
5cfd119645e1a20001883ee6,16,0,2024-02-28T14:35:37.207Z,english_452.wav,0,peel,415,27,5,5,français,f,11,1.09391667,33.32060313,0.70317006
5cfd119645e1a20001883ee6,17,0,2024-02-28T14:35:37.207Z,english_378.wav,0,peel,1607,27,5,5,français,f,0,0.0,-6.75592408,1.57446733
5cfd119645e1a20001883ee6,17,0,2024-02-28T14:35:37.207Z,english_378.wav,0,peel,1607,27,5,5,français,f,1,0.1,-33.28558439,0.29285803
5cfd119645e1a20001883ee6,17,0,2024-02-28T14:35:37.207Z,english_378.wav,0,peel,1607,27,5,5,français,f,2,0.2,-96.71642688,0.09494473
5cfd119645e1a20001883ee6,17,0,2024-02-28T14:35:37.207Z,english_378.wav,0,peel,1607,27,5,5,français,f,3,0.3,70.45646645,0.09114875
5cfd119645e1a20001883ee6,17,0,2024-02-28T14:35:37.207Z,english_378.wav,0,peel,1607,27,5,5,français,f,4,0.4,20.01443052,0.12099564
5cfd119645e1a20001883ee6,17,0,2024-02-28T14:35:37.207Z,english_378.wav,0,peel,1607,27,5,5,français,f,5,0.5,-69.62604827,0.06996617
5cfd119645e1a20001883ee6,17,0,2024-02-28T14:35:37.207Z,english_378.wav,0,peel,1607,27,5,5,français,f,6,0.6,-82.6103386,0.89001983
5cfd119645e1a20001883ee6,17,0,2024-02-28T14:35:37.207Z,english_378.wav,0,peel,1607,27,5,5,français,f,7,0.7,-53.90394432,1.80047075
5cfd119645e1a20001883ee6,17,0,2024-02-28T14:35:37.207Z,english_378.wav,0,peel,1607,27,5,5,français,f,8,0.8,75.60526061,1.92282567
5cfd119645e1a20001883ee6,17,0,2024-02-28T14:35:37.207Z,english_378.wav,0,peel,1607,27,5,5,français,f,9,0.9,-65.71007404,0.07000512
5cfd119645e1a20001883ee6,17,0,2024-02-28T14:35:37.207Z,english_378.wav,0,peel,1607,27,5,5,français,f,10,1.0,-82.95728524,0.51793223
5cfd119645e1a20001883ee6,17,0,2024-02-28T14:35:37.207Z,english_378.wav,0,peel,1607,27,5,5,français,f,11,1.09391667,40.19708488,1.33854892
5cfd119645e1a20001883ee6,18,0,2024-02-28T14:35:37.207Z,english_144.wav,0,pill,1749,27,5,5,français,f,0,0.0,31.57285019,1.02092862
5cfd119645e1a20001883ee6,18,0,2024-02-28T14:35:37.207Z,english_144.wav,0,pill,1749,27,5,5,français,f,1,0.1,-66.82367858,1.21687454
5cfd119645e1a20001883ee6,18,0,2024-02-28T14:35:37.207Z,english_144.wav,0,pill,1749,27,5,5,français,f,2,0.2,25.9026646,0.83451974
5cfd119645e1a20001883ee6,18,0,2024-02-28T14:35:37.207Z,english_144.wav,0,pill,1749,27,5,5,français,f,3,0.3,-73.3005143,1.57454957
5cfd119645e1a20001883ee6,18,0,2024-02-28T14:35:37.207Z,english_144.wav,0,pill,1749,27,5,5,français,f,4,0.4,44.123678,0.07717076
5cfd119645e1a20001883ee6,18,0,2024-02-28T14:35:37.207Z,english_144.wav,0,pill,1749,27,5,5,français,f,5,0.5,49.27770762,0.27181384
5cfd119645e1a20001883ee6,18,0,2024-02-28T14:35:37.207Z,english_144.wav,0,pill,1749,27,5,5,français,f,6,0.6,22.38256085,1.7133157
5cfd119645e1a20001883ee6,18,0,2024-02-28T14:35:37.207Z,english_144.wav,0,pill,1749,27,5,5,français,f,7,0.7,-9.16605426,1.06775729
5cfd119645e1a20001883ee6,18,0,2024-02-28T14:35:37.207Z,english_144.wav,0,pill,1749,27,5,5,français,f,8,0.8,-36.80428778,1.42091993
5cfd119645e1a20001883ee6,18,0,2024-02-28T14:35:37.207Z,english_144.wav,0,pill,1749,27,5,5,français,f,9,0.9,-3.57060361,0.01524657
5cfd119645e1a20001883ee6,18,0,2024-02-28T14:35:37.207Z,english_144.wav,0,pill,1749,27,5,5,français,f,10,1.0,-56.05458997,0.90246411
5cfd119645e1a20001883ee6,18,0,2024-02-28T14:35:37.207Z,english_144.wav,0,pill,1749,27,5,5,français,f,11,1.09391667,-88.6470882,1.74083532
5cfd119645e1a20001883ee6,19,0,2024-02-28T14:35:37.207Z,english_200.wav,0,pill,893,27,5,5,français,f,0,0.0,-48.93101302,1.76712635
5cfd119645e1a20001883ee6,19,0,2024-02-28T14:35:37.207Z,english_200.wav,0,pill,893,27,5,5,français,f,1,0.1,29.34121658,1.41196845
5cfd119645e1a20001883ee6,19,0,2024-02-28T14:35:37.207Z,english_200.wav,0,pill,893,27,5,5,français,f,2,0.2,23.36197279,0.60842774
5cfd119645e1a20001883ee6,19,0,2024-02-28T14:35:37.207Z,english_200.wav,0,pill,893,27,5,5,français,f,3,0.3,-1.20403398,1.94277316
5cfd119645e1a20001883ee6,19,0,2024-02-28T14:35:37.207Z,english_200.wav,0,pill,893,27,5,5,français,f,4,0.4,-47.67478064,1.4476438
5cfd119645e1a20001883ee6,19,0,2024-02-28T14:35:37.207Z,english_200.wav,0,pill,893,27,5,5,français,f,5,0.5,18.83507041,1.13791246
5cfd119645e1a20001883ee6,19,0,2024-02-28T14:35:37.207Z,english_200.wav,0,pill,893,27,5,5,français,f,6,0.6,-17.22460439,1.88825133
5cfd119645e1a20001883ee6,19,0,2024-02-28T14:35:37.207Z,english_200.wav,0,pill,893,27,5,5,français,f,7,0.7,95.20697574,1.08026942
5cfd119645e1a20001883ee6,19,0,2024-02-28T14:35:37.207Z,english_200.wav,0,pill,893,27,5,5,français,f,8,0.8,-6.20708562,0.16695357
5cfd119645e1a20001883ee6,19,0,2024-02-28T14:35:37.207Z,english_200.wav,0,pill,893,27,5,5,français,f,9,0.9,-37.25970541,0.7312143
5cfd119645e1a20001883ee6,19,0,2024-02-28T14:35:37.207Z,english_200.wav,0,pill,893,27,5,5,français,f,10,1.0,4.5592837,0.56031965
5cfd119645e1a20001883ee6,19,0,2024-02-28T14:35:37.207Z,english_200.wav,0,pill,893,27,5,5,français,f,11,1.09391667,86.68415923,0.70419729
5cfd119645e1a20001883ee6,20,0,2024-02-28T14:35:37.207Z,english_678.wav,0,pill,3146,27,5,5,français,f,0,0.0,59.60824551,1.62090716
5cfd119645e1a20001883ee6,20,0,2024-02-28T14:35:37.207Z,english_678.wav,0,pill,3146,27,5,5,français,f,1,0.1,-64.11863952,0.62141688
5cfd119645e1a20001883ee6,20,0,2024-02-28T14:35:37.207Z,english_678.wav,0,pill,3146,27,5,5,français,f,2,0.2,-81.41399784,1.62060561
5cfd119645e1a20001883ee6,20,0,2024-02-28T14:35:37.207Z,english_678.wav,0,pill,3146,27,5,5,français,f,3,0.3,41.65235769,1.99163419
5cfd119645e1a20001883ee6,20,0,2024-02-28T14:35:37.207Z,english_678.wav,0,pill,3146,27,5,5,français,f,4,0.4,56.74582586,1.83639677
5cfd119645e1a20001883ee6,20,0,2024-02-28T14:35:37.207Z,english_678.wav,0,pill,3146,27,5,5,français,f,5,0.5,61.1637023,0.52086131
5cfd119645e1a20001883ee6,20,0,2024-02-28T14:35:37.207Z,english_678.wav,0,pill,3146,27,5,5,français,f,6,0.6,26.45659211,0.3344552
5cfd119645e1a20001883ee6,20,0,2024-02-28T14:35:37.207Z,english_678.wav,0,pill,3146,27,5,5,français,f,7,0.7,-23.10007979,0.29977792
5cfd119645e1a20001883ee6,20,0,2024-02-28T14:35:37.207Z,english_678.wav,0,pill,3146,27,5,5,français,f,8,0.8,-45.77209974,0.56704803
5cfd119645e1a20001883ee6,20,0,2024-02-28T14:35:37.207Z,english_678.wav,0,pill,3146,27,5,5,français,f,9,0.9,-42.00411518,0.76989648
5cfd119645e1a20001883ee6,20,0,2024-02-28T14:35:37.207Z,english_678.wav,0,pill,3146,27,5,5,français,f,10,1.0,-9.68567298,1.81845124
5cfd119645e1a20001883ee6,20,0,2024-02-28T14:35:37.207Z,english_678.wav,0,pill,3146,27,5,5,français,f,11,1.09391667,25.45890504,1.77925494
5cfd119645e1a20001883ee6,21,0,2024-02-28T14:35:37.207Z,english_10.wav,0,peel,781,27,5,5,français,f,0,0.0,-15.04153425,1.52083452
5cfd119645e1a20001883ee6,21,0,2024-02-28T14:35:37.207Z,english_10.wav,0,peel,781,27,5,5,français,f,1,0.1,-57.22263716,1.29896522
5cfd119645e1a20001883ee6,21,0,2024-02-28T14:35:37.207Z,english_10.wav,0,peel,781,27,5,5,français,f,2,0.2,27.92618044,0.38561389
5cfd119645e1a20001883ee6,21,0,2024-02-28T14:35:37.207Z,english_10.wav,0,peel,781,27,5,5,français,f,3,0.3,25.5799778,0.99686674
5cfd119645e1a20001883ee6,21,0,2024-02-28T14:35:37.207Z,english_10.wav,0,peel,781,27,5,5,français,f,4,0.4,30.11064479,0.6118482
5cfd119645e1a20001883ee6,21,0,2024-02-28T14:35:37.207Z,english_10.wav,0,peel,781,27,5,5,français,f,5,0.5,-7.71764525,1.86037541
5cfd119645e1a20001883ee6,21,0,2024-02-28T14:35:37.207Z,english_10.wav,0,peel,781,27,5,5,français,f,6,0.6,27.65902171,0.71941397
5cfd119645e1a20001883ee6,21,0,2024-02-28T14:35:37.207Z,english_10.wav,0,peel,781,27,5,5,français,f,7,0.7,-47.57621095,1.21671158
5cfd119645e1a20001883ee6,21,0,2024-02-28T14:35:37.207Z,english_10.wav,0,peel,781,27,5,5,français,f,8,0.8,43.99977355,1.36149686
5cfd119645e1a20001883ee6,21,0,2024-02-28T14:35:37.207Z,english_10.wav,0,peel,781,27,5,5,français,f,9,0.9,-15.79441044,0.57839438
5cfd119645e1a20001883ee6,21,0,2024-02-28T14:35:37.207Z,english_10.wav,0,peel,781,27,5,5,français,f,10,1.0,-34.81966507,0.86495111
5cfd119645e1a20001883ee6,21,0,2024-02-28T14:35:37.207Z,english_10.wav,0,peel,781,27,5,5,français,f,11,1.09391667,60.77971601,0.19592518
5cfd119645e1a20001883ee6,22,0,2024-02-28T14:35:37.207Z,english_2.wav,0,pill,627,27,5,5,français,f,0,0.0,41.22215969,0.59226954
5cfd119645e1a20001883ee6,22,0,2024-02-28T14:35:37.207Z,english_2.wav,0,pill,627,27,5,5,français,f,1,0.1,63.4325041,1.70689004
5cfd119645e1a20001883ee6,22,0,2024-02-28T14:35:37.207Z,english_2.wav,0,pill,627,27,5,5,français,f,2,0.2,30.26698033,1.70278764
5cfd119645e1a20001883ee6,22,0,2024-02-28T14:35:37.207Z,english_2.wav,0,pill,627,27,5,5,français,f,3,0.3,-42.97414703,0.93211278
5cfd119645e1a20001883ee6,22,0,2024-02-28T14:35:37.207Z,english_2.wav,0,pill,627,27,5,5,français,f,4,0.4,78.73420301,0.75985414
5cfd119645e1a20001883ee6,22,0,2024-02-28T14:35:37.207Z,english_2.wav,0,pill,627,27,5,5,français,f,5,0.5,98.07294335,1.00279357
5cfd119645e1a20001883ee6,22,0,2024-02-28T14:35:37.207Z,english_2.wav,0,pill,627,27,5,5,français,f,6,0.6,-11.43066233,1.68044469
5cfd119645e1a20001883ee6,22,0,2024-02-28T14:35:37.207Z,english_2.wav,0,pill,627,27,5,5,français,f,7,0.7,98.59484661,1.4408376
5cfd119645e1a20001883ee6,22,0,2024-02-28T14:35:37.207Z,english_2.wav,0,pill,627,27,5,5,français,f,8,0.8,5.98934189,0.34467269
5cfd119645e1a20001883ee6,22,0,2024-02-28T14:35:37.207Z,english_2.wav,0,pill,627,27,5,5,français,f,9,0.9,12.71998757,0.3933307
5cfd119645e1a20001883ee6,22,0,2024-02-28T14:35:37.207Z,english_2.wav,0,pill,627,27,5,5,français,f,10,1.0,80.81444137,0.30092676
5cfd119645e1a20001883ee6,22,0,2024-02-28T14:35:37.207Z,english_2.wav,0,pill,627,27,5,5,français,f,11,1.09391667,-65.72418196,0.87599386
5cfd119645e1a20001883ee6,23,0,2024-02-28T14:35:37.207Z,english_901.wav,0,pill,520,27,5,5,français,f,0,0.0,-96.81604806,1.46324918
5cfd119645e1a20001883ee6,23,0,2024-02-28T14:35:37.207Z,english_901.wav,0,pill,520,27,5,5,français,f,1,0.1,37.83480038,0.84459601
5cfd119645e1a20001883ee6,23,0,2024-02-28T14:35:37.207Z,english_901.wav,0,pill,520,27,5,5,français,f,2,0.2,-8.61723514,0.1668762
5cfd119645e1a20001883ee6,23,0,2024-02-28T14:35:37.207Z,english_901.wav,0,pill,520,27,5,5,français,f,3,0.3,-84.9926442,0.0760945
5cfd119645e1a20001883ee6,23,0,2024-02-28T14:35:37.207Z,english_901.wav,0,pill,520,27,5,5,français,f,4,0.4,-0.16612884,0.24671579
5cfd119645e1a20001883ee6,23,0,2024-02-28T14:35:37.207Z,english_901.wav,0,pill,520,27,5,5,français,f,5,0.5,15.9690541,1.57602984
5cfd119645e1a20001883ee6,23,0,2024-02-28T14:35:37.207Z,english_901.wav,0,pill,520,27,5,5,français,f,6,0.6,46.64910026,1.29975865
5cfd119645e1a20001883ee6,23,0,2024-02-28T14:35:37.207Z,english_901.wav,0,pill,520,27,5,5,français,f,7,0.7,-78.92875072,1.65637017
5cfd119645e1a20001883ee6,23,0,2024-02-28T14:35:37.207Z,english_901.wav,0,pill,520,27,5,5,français,f,8,0.8,97.27833726,0.50357009
5cfd119645e1a20001883ee6,23,0,2024-02-28T14:35:37.207Z,english_901.wav,0,pill,520,27,5,5,français,f,9,0.9,57.26507245,0.73013763
5cfd119645e1a20001883ee6,23,0,2024-02-28T14:35:37.207Z,english_901.wav,0,pill,520,27,5,5,français,f,10,1.0,87.23640608,0.60658699
5cfd119645e1a20001883ee6,23,0,2024-02-28T14:35:37.207Z,english_901.wav,0,pill,520,27,5,5,français,f,11,1.09391667,9.28772105,1.30909728
5cfd119645e1a20001883ee6,24,0,2024-02-28T14:35:37.207Z,english_740.wav,0,peel,821,27,5,5,français,f,0,0.0,44.23615519,0.18420553
5cfd119645e1a20001883ee6,24,0,2024-02-28T14:35:37.207Z,english_740.wav,0,peel,821,27,5,5,français,f,1,0.1,98.76848798,0.33702749
5cfd119645e1a20001883ee6,24,0,2024-02-28T14:35:37.207Z,english_740.wav,0,peel,821,27,5,5,français,f,2,0.2,-87.19170744,1.65487116
5cfd119645e1a20001883ee6,24,0,2024-02-28T14:35:37.207Z,english_740.wav,0,peel,821,27,5,5,français,f,3,0.3,17.94684961,1.85046367
5cfd119645e1a20001883ee6,24,0,2024-02-28T14:35:37.207Z,english_740.wav,0,peel,821,27,5,5,français,f,4,0.4,-12.45304931,1.41062797
5cfd119645e1a20001883ee6,24,0,2024-02-28T14:35:37.207Z,english_740.wav,0,peel,821,27,5,5,français,f,5,0.5,-75.39454761,0.63278533
5cfd119645e1a20001883ee6,24,0,2024-02-28T14:35:37.207Z,english_740.wav,0,peel,821,27,5,5,français,f,6,0.6,-53.40311478,0.41831459
5cfd119645e1a20001883ee6,24,0,2024-02-28T14:35:37.207Z,english_740.wav,0,peel,821,27,5,5,français,f,7,0.7,-59.89405571,0.99199332
5cfd119645e1a20001883ee6,24,0,2024-02-28T14:35:37.207Z,english_740.wav,0,peel,821,27,5,5,français,f,8,0.8,75.23070465,1.19341016
5cfd119645e1a20001883ee6,24,0,2024-02-28T14:35:37.207Z,english_740.wav,0,peel,821,27,5,5,français,f,9,0.9,-2.56343276,1.12149102
5cfd119645e1a20001883ee6,24,0,2024-02-28T14:35:37.207Z,english_740.wav,0,peel,821,27,5,5,français,f,10,1.0,-6.86096821,0.55698581
5cfd119645e1a20001883ee6,24,0,2024-02-28T14:35:37.207Z,english_740.wav,0,peel,821,27,5,5,français,f,11,1.09391667,-15.16975803,1.3020905
5cfd119645e1a20001883ee6,25,0,2024-02-28T14:35:37.207Z,english_109.wav,0,peel,483,27,5,5,français,f,0,0.0,-85.35755776,0.86429356
5cfd119645e1a20001883ee6,25,0,2024-02-28T14:35:37.207Z,english_109.wav,0,peel,483,27,5,5,français,f,1,0.1,24.87794389,1.54320329
5cfd119645e1a20001883ee6,25,0,2024-02-28T14:35:37.207Z,english_109.wav,0,peel,483,27,5,5,français,f,2,0.2,88.66282845,0.73186937
5cfd119645e1a20001883ee6,25,0,2024-02-28T14:35:37.207Z,english_109.wav,0,peel,483,27,5,5,français,f,3,0.3,53.91159302,0.759779
5cfd119645e1a20001883ee6,25,0,2024-02-28T14:35:37.207Z,english_109.wav,0,peel,483,27,5,5,français,f,4,0.4,-2.76092074,1.4946261
5cfd119645e1a20001883ee6,25,0,2024-02-28T14:35:37.207Z,english_109.wav,0,peel,483,27,5,5,français,f,5,0.5,79.99538148,1.48350308
5cfd119645e1a20001883ee6,25,0,2024-02-28T14:35:37.207Z,english_109.wav,0,peel,483,27,5,5,français,f,6,0.6,-42.31150981,1.90894472
5cfd119645e1a20001883ee6,25,0,2024-02-28T14:35:37.207Z,english_109.wav,0,peel,483,27,5,5,français,f,7,0.7,-5.15781481,0.02998442
5cfd119645e1a20001883ee6,25,0,2024-02-28T14:35:37.207Z,english_109.wav,0,peel,483,27,5,5,français,f,8,0.8,31.3978044,0.89047781
5cfd119645e1a20001883ee6,25,0,2024-02-28T14:35:37.207Z,english_109.wav,0,peel,483,27,5,5,français,f,9,0.9,46.94636463,1.05504638
5cfd119645e1a20001883ee6,25,0,2024-02-28T14:35:37.207Z,english_109.wav,0,peel,483,27,5,5,français,f,10,1.0,63.69340257,0.96709735
5cfd119645e1a20001883ee6,25,0,2024-02-28T14:35:37.207Z,english_109.wav,0,peel,483,27,5,5,français,f,11,1.09391667,10.97812261,0.43676298
5cfd119645e1a20001883ee6,26,0,2024-02-28T14:35:37.207Z,english_999.wav,0,pill,2172,27,5,5,français,f,0,0.0,-8.27619319,0.000148642599
5cfd119645e1a20001883ee6,26,0,2024-02-28T14:35:37.207Z,english_999.wav,0,pill,2172,27,5,5,français,f,1,0.1,-49.3883822,1.22232627
5cfd119645e1a20001883ee6,26,0,2024-02-28T14:35:37.207Z,english_999.wav,0,pill,2172,27,5,5,français,f,2,0.2,97.54217101,1.1174933
5cfd119645e1a20001883ee6,26,0,2024-02-28T14:35:37.207Z,english_999.wav,0,pill,2172,27,5,5,français,f,3,0.3,-49.81406735,1.80111229
5cfd119645e1a20001883ee6,26,0,2024-02-28T14:35:37.207Z,english_999.wav,0,pill,2172,27,5,5,français,f,4,0.4,46.43683506,0.552807392
5cfd119645e1a20001883ee6,26,0,2024-02-28T14:35:37.207Z,english_999.wav,0,pill,2172,27,5,5,français,f,5,0.5,89.32784762,1.53319988
5cfd119645e1a20001883ee6,26,0,2024-02-28T14:35:37.207Z,english_999.wav,0,pill,2172,27,5,5,français,f,6,0.6,-55.73277594,1.7616442
5cfd119645e1a20001883ee6,26,0,2024-02-28T14:35:37.207Z,english_999.wav,0,pill,2172,27,5,5,français,f,7,0.7,49.38462906,0.0772486607
5cfd119645e1a20001883ee6,26,0,2024-02-28T14:35:37.207Z,english_999.wav,0,pill,2172,27,5,5,français,f,8,0.8,85.41123264,1.0025863
5cfd119645e1a20001883ee6,26,0,2024-02-28T14:35:37.207Z,english_999.wav,0,pill,2172,27,5,5,français,f,9,0.9,-58.86557708,0.329932429
5cfd119645e1a20001883ee6,26,0,2024-02-28T14:35:37.207Z,english_999.wav,0,pill,2172,27,5,5,français,f,10,1.0,99.11766896,1.88826288
5cfd119645e1a20001883ee6,26,0,2024-02-28T14:35:37.207Z,english_999.wav,0,pill,2172,27,5,5,français,f,11,1.09391667,28.82385918,1.88223689
5cfd119645e1a20001883ee6,27,0,2024-02-28T14:35:37.207Z,english_551.wav,0,peel,845,27,5,5,français,f,0,0.0,-6.7580407,1.36908338
5cfd119645e1a20001883ee6,27,0,2024-02-28T14:35:37.207Z,english_551.wav,0,peel,845,27,5,5,français,f,1,0.1,35.07051515,1.9104602
5cfd119645e1a20001883ee6,27,0,2024-02-28T14:35:37.207Z,english_551.wav,0,peel,845,27,5,5,français,f,2,0.2,-13.38429881,0.46910503
5cfd119645e1a20001883ee6,27,0,2024-02-28T14:35:37.207Z,english_551.wav,0,peel,845,27,5,5,français,f,3,0.3,37.09878084,1.97066888
5cfd119645e1a20001883ee6,27,0,2024-02-28T14:35:37.207Z,english_551.wav,0,peel,845,27,5,5,français,f,4,0.4,-63.7004989,1.03915964
5cfd119645e1a20001883ee6,27,0,2024-02-28T14:35:37.207Z,english_551.wav,0,peel,845,27,5,5,français,f,5,0.5,38.07544061,0.03518646
5cfd119645e1a20001883ee6,27,0,2024-02-28T14:35:37.207Z,english_551.wav,0,peel,845,27,5,5,français,f,6,0.6,-3.84658335,0.35806175
5cfd119645e1a20001883ee6,27,0,2024-02-28T14:35:37.207Z,english_551.wav,0,peel,845,27,5,5,français,f,7,0.7,-70.82168474,1.2923355
5cfd119645e1a20001883ee6,27,0,2024-02-28T14:35:37.207Z,english_551.wav,0,peel,845,27,5,5,français,f,8,0.8,15.89042936,0.94769204
5cfd119645e1a20001883ee6,27,0,2024-02-28T14:35:37.207Z,english_551.wav,0,peel,845,27,5,5,français,f,9,0.9,11.36542465,1.13768641
5cfd119645e1a20001883ee6,27,0,2024-02-28T14:35:37.207Z,english_551.wav,0,peel,845,27,5,5,français,f,10,1.0,48.05239425,1.46377274
5cfd119645e1a20001883ee6,27,0,2024-02-28T14:35:37.207Z,english_551.wav,0,peel,845,27,5,5,français,f,11,1.09391667,-25.45868434,1.28141809
5cfd119645e1a20001883ee6,28,0,2024-02-28T14:35:37.207Z,english_937.wav,0,pill,925,27,5,5,français,f,0,0.0,48.31161741,0.20999663
5cfd119645e1a20001883ee6,28,0,2024-02-28T14:35:37.207Z,english_937.wav,0,pill,925,27,5,5,français,f,1,0.1,94.31178096,0.73195695
5cfd119645e1a20001883ee6,28,0,2024-02-28T14:35:37.207Z,english_937.wav,0,pill,925,27,5,5,français,f,2,0.2,43.82009927,0.70757327
5cfd119645e1a20001883ee6,28,0,2024-02-28T14:35:37.207Z,english_937.wav,0,pill,925,27,5,5,français,f,3,0.3,34.87322119,0.54050489
5cfd119645e1a20001883ee6,28,0,2024-02-28T14:35:37.207Z,english_937.wav,0,pill,925,27,5,5,français,f,4,0.4,62.02386853,0.53879588
5cfd119645e1a20001883ee6,28,0,2024-02-28T14:35:37.207Z,english_937.wav,0,pill,925,27,5,5,français,f,5,0.5,-76.91099942,0.40459306
5cfd119645e1a20001883ee6,28,0,2024-02-28T14:35:37.207Z,english_937.wav,0,pill,925,27,5,5,français,f,6,0.6,85.65284811,1.92541325
5cfd119645e1a20001883ee6,28,0,2024-02-28T14:35:37.207Z,english_937.wav,0,pill,925,27,5,5,français,f,7,0.7,16.74886634,1.53445282
5cfd119645e1a20001883ee6,28,0,2024-02-28T14:35:37.207Z,english_937.wav,0,pill,925,27,5,5,français,f,8,0.8,-83.35160832,0.38375611
5cfd119645e1a20001883ee6,28,0,2024-02-28T14:35:37.207Z,english_937.wav,0,pill,925,27,5,5,français,f,9,0.9,99.3500254,0.09137971
5cfd119645e1a20001883ee6,28,0,2024-02-28T14:35:37.207Z,english_937.wav,0,pill,925,27,5,5,français,f,10,1.0,-72.7605227,0.90026455
5cfd119645e1a20001883ee6,28,0,2024-02-28T14:35:37.207Z,english_937.wav,0,pill,925,27,5,5,français,f,11,1.09391667,-40.54115445,0.89252671
5cfd119645e1a20001883ee6,29,0,2024-02-28T14:35:37.207Z,english_944.wav,0,peel,455,27,5,5,français,f,0,0.0,15.60693819,1.52023204
5cfd119645e1a20001883ee6,29,0,2024-02-28T14:35:37.207Z,english_944.wav,0,peel,455,27,5,5,français,f,1,0.1,-30.17366225,1.91331724
5cfd119645e1a20001883ee6,29,0,2024-02-28T14:35:37.207Z,english_944.wav,0,peel,455,27,5,5,français,f,2,0.2,-74.98996265,0.77968244
5cfd119645e1a20001883ee6,29,0,2024-02-28T14:35:37.207Z,english_944.wav,0,peel,455,27,5,5,français,f,3,0.3,-21.71143967,0.16568234
5cfd119645e1a20001883ee6,29,0,2024-02-28T14:35:37.207Z,english_944.wav,0,peel,455,27,5,5,français,f,4,0.4,-71.17152847,0.05371195
5cfd119645e1a20001883ee6,29,0,2024-02-28T14:35:37.207Z,english_944.wav,0,peel,455,27,5,5,français,f,5,0.5,-79.08347918,0.45619097
5cfd119645e1a20001883ee6,29,0,2024-02-28T14:35:37.207Z,english_944.wav,0,peel,455,27,5,5,français,f,6,0.6,30.00213426,0.51735739
5cfd119645e1a20001883ee6,29,0,2024-02-28T14:35:37.207Z,english_944.wav,0,peel,455,27,5,5,français,f,7,0.7,-95.66333823,1.56234264
5cfd119645e1a20001883ee6,29,0,2024-02-28T14:35:37.207Z,english_944.wav,0,peel,455,27,5,5,français,f,8,0.8,-86.13874985,1.61252587
5cfd119645e1a20001883ee6,29,0,2024-02-28T14:35:37.207Z,english_944.wav,0,peel,455,27,5,5,français,f,9,0.9,-92.76645644,0.66568015
5cfd119645e1a20001883ee6,29,0,2024-02-28T14:35:37.207Z,english_944.wav,0,peel,455,27,5,5,français,f,10,1.0,-60.06542453,1.71575711
5cfd119645e1a20001883ee6,29,0,2024-02-28T14:35:37.207Z,english_944.wav,0,peel,455,27,5,5,français,f,11,1.09391667,-49.67322896,1.10728615
5cfd119645e1a20001883ee6,30,0,2024-02-28T14:35:37.207Z,english_949.wav,0,peel,869,27,5,5,français,f,0,0.0,54.61462209,1.24439385
5cfd119645e1a20001883ee6,30,0,2024-02-28T14:35:37.207Z,english_949.wav,0,peel,869,27,5,5,français,f,1,0.1,-50.15567249,1.34534032
5cfd119645e1a20001883ee6,30,0,2024-02-28T14:35:37.207Z,english_949.wav,0,peel,869,27,5,5,français,f,2,0.2,-79.16450403,1.77870323
5cfd119645e1a20001883ee6,30,0,2024-02-28T14:35:37.207Z,english_949.wav,0,peel,869,27,5,5,français,f,3,0.3,-44.83948747,0.1999312
5cfd119645e1a20001883ee6,30,0,2024-02-28T14:35:37.207Z,english_949.wav,0,peel,869,27,5,5,français,f,4,0.4,-72.5668355,0.37427324
5cfd119645e1a20001883ee6,30,0,2024-02-28T14:35:37.207Z,english_949.wav,0,peel,869,27,5,5,français,f,5,0.5,23.11693261,0.13497677
5cfd119645e1a20001883ee6,30,0,2024-02-28T14:35:37.207Z,english_949.wav,0,peel,869,27,5,5,français,f,6,0.6,55.55317843,0.61790997
5cfd119645e1a20001883ee6,30,0,2024-02-28T14:35:37.207Z,english_949.wav,0,peel,869,27,5,5,français,f,7,0.7,59.5386341,0.95689705
5cfd119645e1a20001883ee6,30,0,2024-02-28T14:35:37.207Z,english_949.wav,0,peel,869,27,5,5,français,f,8,0.8,67.81612368,0.69621675
5cfd119645e1a20001883ee6,30,0,2024-02-28T14:35:37.207Z,english_949.wav,0,peel,869,27,5,5,français,f,9,0.9,-21.79138996,1.43619216
5cfd119645e1a20001883ee6,30,0,2024-02-28T14:35:37.207Z,english_949.wav,0,peel,869,27,5,5,français,f,10,1.0,-21.61100123,0.99379929
5cfd119645e1a20001883ee6,30,0,2024-02-28T14:35:37.207Z,english_949.wav,0,peel,869,27,5,5,français,f,11,1.09391667,60.1714172,0.04897066
5cfd119645e1a20001883ee6,31,0,2024-02-28T14:35:37.207Z,english_404.wav,0,pill,681,27,5,5,français,f,0,0.0,51.0629149,0.92872816
5cfd119645e1a20001883ee6,31,0,2024-02-28T14:35:37.207Z,english_404.wav,0,pill,681,27,5,5,français,f,1,0.1,-20.11660717,1.09197178
5cfd119645e1a20001883ee6,31,0,2024-02-28T14:35:37.207Z,english_404.wav,0,pill,681,27,5,5,français,f,2,0.2,-24.08850376,1.28516423
5cfd119645e1a20001883ee6,31,0,2024-02-28T14:35:37.207Z,english_404.wav,0,pill,681,27,5,5,français,f,3,0.3,-31.42467522,0.67196706
5cfd119645e1a20001883ee6,31,0,2024-02-28T14:35:37.207Z,english_404.wav,0,pill,681,27,5,5,français,f,4,0.4,53.01415625,0.26298551
5cfd119645e1a20001883ee6,31,0,2024-02-28T14:35:37.207Z,english_404.wav,0,pill,681,27,5,5,français,f,5,0.5,-45.18749729,0.832552
5cfd119645e1a20001883ee6,31,0,2024-02-28T14:35:37.207Z,english_404.wav,0,pill,681,27,5,5,français,f,6,0.6,75.22262363,0.94238773
5cfd119645e1a20001883ee6,31,0,2024-02-28T14:35:37.207Z,english_404.wav,0,pill,681,27,5,5,français,f,7,0.7,53.71694776,0.97166455
5cfd119645e1a20001883ee6,31,0,2024-02-28T14:35:37.207Z,english_404.wav,0,pill,681,27,5,5,français,f,8,0.8,-31.94049291,0.24504
5cfd119645e1a20001883ee6,31,0,2024-02-28T14:35:37.207Z,english_404.wav,0,pill,681,27,5,5,français,f,9,0.9,64.49384663,1.54934709
5cfd119645e1a20001883ee6,31,0,2024-02-28T14:35:37.207Z,english_404.wav,0,pill,681,27,5,5,français,f,10,1.0,-87.57862232,0.71675997
5cfd119645e1a20001883ee6,31,0,2024-02-28T14:35:37.207Z,english_404.wav,0,pill,681,27,5,5,français,f,11,1.09391667,-93.26487386,1.21108184
5cfd119645e1a20001883ee6,32,0,2024-02-28T14:35:37.207Z,english_231.wav,0,peel,683,27,5,5,français,f,0,0.0,-62.2179541,1.81174186
5cfd119645e1a20001883ee6,32,0,2024-02-28T14:35:37.207Z,english_231.wav,0,peel,683,27,5,5,français,f,1,0.1,-68.5873809,1.83025058
5cfd119645e1a20001883ee6,32,0,2024-02-28T14:35:37.207Z,english_231.wav,0,peel,683,27,5,5,français,f,2,0.2,-23.63984274,0.80354138
5cfd119645e1a20001883ee6,32,0,2024-02-28T14:35:37.207Z,english_231.wav,0,peel,683,27,5,5,français,f,3,0.3,-33.31819394,1.41218614
5cfd119645e1a20001883ee6,32,0,2024-02-28T14:35:37.207Z,english_231.wav,0,peel,683,27,5,5,français,f,4,0.4,73.10663902,0.69584773
5cfd119645e1a20001883ee6,32,0,2024-02-28T14:35:37.207Z,english_231.wav,0,peel,683,27,5,5,français,f,5,0.5,-43.5142123,0.95321477
5cfd119645e1a20001883ee6,32,0,2024-02-28T14:35:37.207Z,english_231.wav,0,peel,683,27,5,5,français,f,6,0.6,31.90774571,1.60478776
5cfd119645e1a20001883ee6,32,0,2024-02-28T14:35:37.207Z,english_231.wav,0,peel,683,27,5,5,français,f,7,0.7,86.22472646,0.79586742
5cfd119645e1a20001883ee6,32,0,2024-02-28T14:35:37.207Z,english_231.wav,0,peel,683,27,5,5,français,f,8,0.8,-71.54568586,1.11798483
5cfd119645e1a20001883ee6,32,0,2024-02-28T14:35:37.207Z,english_231.wav,0,peel,683,27,5,5,français,f,9,0.9,72.93187179,1.7522781
5cfd119645e1a20001883ee6,32,0,2024-02-28T14:35:37.207Z,english_231.wav,0,peel,683,27,5,5,français,f,10,1.0,29.12885345,0.47731109
5cfd119645e1a20001883ee6,32,0,2024-02-28T14:35:37.207Z,english_231.wav,0,peel,683,27,5,5,français,f,11,1.09391667,-28.38876841,0.90269173
5cfd119645e1a20001883ee6,33,0,2024-02-28T14:35:37.207Z,english_530.wav,0,peel,494,27,5,5,français,f,0,0.0,-28.7119875,1.05000618
5cfd119645e1a20001883ee6,33,0,2024-02-28T14:35:37.207Z,english_530.wav,0,peel,494,27,5,5,français,f,1,0.1,81.63061579,1.8823678
5cfd119645e1a20001883ee6,33,0,2024-02-28T14:35:37.207Z,english_530.wav,0,peel,494,27,5,5,français,f,2,0.2,-13.39591128,0.84340221
5cfd119645e1a20001883ee6,33,0,2024-02-28T14:35:37.207Z,english_530.wav,0,peel,494,27,5,5,français,f,3,0.3,13.92143377,0.28078116
5cfd119645e1a20001883ee6,33,0,2024-02-28T14:35:37.207Z,english_530.wav,0,peel,494,27,5,5,français,f,4,0.4,40.01462212,0.79575784
5cfd119645e1a20001883ee6,33,0,2024-02-28T14:35:37.207Z,english_530.wav,0,peel,494,27,5,5,français,f,5,0.5,23.69444491,1.14952556
5cfd119645e1a20001883ee6,33,0,2024-02-28T14:35:37.207Z,english_530.wav,0,peel,494,27,5,5,français,f,6,0.6,46.64828823,1.01103968
5cfd119645e1a20001883ee6,33,0,2024-02-28T14:35:37.207Z,english_530.wav,0,peel,494,27,5,5,français,f,7,0.7,26.92480587,1.41983577
5cfd119645e1a20001883ee6,33,0,2024-02-28T14:35:37.207Z,english_530.wav,0,peel,494,27,5,5,français,f,8,0.8,14.68160338,0.81631883
5cfd119645e1a20001883ee6,33,0,2024-02-28T14:35:37.207Z,english_530.wav,0,peel,494,27,5,5,français,f,9,0.9,49.42082928,0.77345056
5cfd119645e1a20001883ee6,33,0,2024-02-28T14:35:37.207Z,english_530.wav,0,peel,494,27,5,5,français,f,10,1.0,-24.27885184,1.60646934
5cfd119645e1a20001883ee6,33,0,2024-02-28T14:35:37.207Z,english_530.wav,0,peel,494,27,5,5,français,f,11,1.09391667,68.97066726,0.9871725
5cfd119645e1a20001883ee6,34,0,2024-02-28T14:35:37.207Z,english_399.wav,0,peel,419,27,5,5,français,f,0,0.0,7.35119233,1.43512774
5cfd119645e1a20001883ee6,34,0,2024-02-28T14:35:37.207Z,english_399.wav,0,peel,419,27,5,5,français,f,1,0.1,7.30105906,1.7056904
5cfd119645e1a20001883ee6,34,0,2024-02-28T14:35:37.207Z,english_399.wav,0,peel,419,27,5,5,français,f,2,0.2,-55.03587691,1.60882656
5cfd119645e1a20001883ee6,34,0,2024-02-28T14:35:37.207Z,english_399.wav,0,peel,419,27,5,5,français,f,3,0.3,63.9361431,1.57397844
5cfd119645e1a20001883ee6,34,0,2024-02-28T14:35:37.207Z,english_399.wav,0,peel,419,27,5,5,français,f,4,0.4,44.6049307,0.93377042
5cfd119645e1a20001883ee6,34,0,2024-02-28T14:35:37.207Z,english_399.wav,0,peel,419,27,5,5,français,f,5,0.5,68.42668929,1.9481779
5cfd119645e1a20001883ee6,34,0,2024-02-28T14:35:37.207Z,english_399.wav,0,peel,419,27,5,5,français,f,6,0.6,54.53895784,1.40688071
5cfd119645e1a20001883ee6,34,0,2024-02-28T14:35:37.207Z,english_399.wav,0,peel,419,27,5,5,français,f,7,0.7,87.63954028,0.69376281
5cfd119645e1a20001883ee6,34,0,2024-02-28T14:35:37.207Z,english_399.wav,0,peel,419,27,5,5,français,f,8,0.8,-0.41432999,1.28838791
5cfd119645e1a20001883ee6,34,0,2024-02-28T14:35:37.207Z,english_399.wav,0,peel,419,27,5,5,français,f,9,0.9,24.60615905,0.52758228
5cfd119645e1a20001883ee6,34,0,2024-02-28T14:35:37.207Z,english_399.wav,0,peel,419,27,5,5,français,f,10,1.0,-97.67130798,0.96519431
5cfd119645e1a20001883ee6,34,0,2024-02-28T14:35:37.207Z,english_399.wav,0,peel,419,27,5,5,français,f,11,1.09391667,61.44027276,1.05566464
5cfd119645e1a20001883ee6,35,0,2024-02-28T14:35:37.207Z,english_427.wav,0,pill,757,27,5,5,français,f,0,0.0,-34.05157895,1.0004529
5cfd119645e1a20001883ee6,35,0,2024-02-28T14:35:37.207Z,english_427.wav,0,pill,757,27,5,5,français,f,1,0.1,58.19153473,1.21096565
5cfd119645e1a20001883ee6,35,0,2024-02-28T14:35:37.207Z,english_427.wav,0,pill,757,27,5,5,français,f,2,0.2,-48.12257975,0.11590133
5cfd119645e1a20001883ee6,35,0,2024-02-28T14:35:37.207Z,english_427.wav,0,pill,757,27,5,5,français,f,3,0.3,49.89061623,1.91629618
5cfd119645e1a20001883ee6,35,0,2024-02-28T14:35:37.207Z,english_427.wav,0,pill,757,27,5,5,français,f,4,0.4,34.36154687,1.2268838
5cfd119645e1a20001883ee6,35,0,2024-02-28T14:35:37.207Z,english_427.wav,0,pill,757,27,5,5,français,f,5,0.5,-5.3172375,1.50953507
5cfd119645e1a20001883ee6,35,0,2024-02-28T14:35:37.207Z,english_427.wav,0,pill,757,27,5,5,français,f,6,0.6,22.96924358,0.88661312
5cfd119645e1a20001883ee6,35,0,2024-02-28T14:35:37.207Z,english_427.wav,0,pill,757,27,5,5,français,f,7,0.7,-97.31174849,0.11078335
5cfd119645e1a20001883ee6,35,0,2024-02-28T14:35:37.207Z,english_427.wav,0,pill,757,27,5,5,français,f,8,0.8,-28.90224272,0.79636785
5cfd119645e1a20001883ee6,35,0,2024-02-28T14:35:37.207Z,english_427.wav,0,pill,757,27,5,5,français,f,9,0.9,-26.24845885,0.27345116
5cfd119645e1a20001883ee6,35,0,2024-02-28T14:35:37.207Z,english_427.wav,0,pill,757,27,5,5,français,f,10,1.0,92.28378811,0.14785478
5cfd119645e1a20001883ee6,35,0,2024-02-28T14:35:37.207Z,english_427.wav,0,pill,757,27,5,5,français,f,11,1.09391667,-48.38945182,0.43629002
5cfd119645e1a20001883ee6,36,0,2024-02-28T14:35:37.207Z,english_863.wav,0,pill,606,27,5,5,français,f,0,0.0,3.14313852,1.16629305
5cfd119645e1a20001883ee6,36,0,2024-02-28T14:35:37.207Z,english_863.wav,0,pill,606,27,5,5,français,f,1,0.1,-23.21665248,0.07060829
5cfd119645e1a20001883ee6,36,0,2024-02-28T14:35:37.207Z,english_863.wav,0,pill,606,27,5,5,français,f,2,0.2,94.57997372,0.73624632
5cfd119645e1a20001883ee6,36,0,2024-02-28T14:35:37.207Z,english_863.wav,0,pill,606,27,5,5,français,f,3,0.3,-70.02674633,1.78608874
5cfd119645e1a20001883ee6,36,0,2024-02-28T14:35:37.207Z,english_863.wav,0,pill,606,27,5,5,français,f,4,0.4,40.94796862,1.19353904
5cfd119645e1a20001883ee6,36,0,2024-02-28T14:35:37.207Z,english_863.wav,0,pill,606,27,5,5,français,f,5,0.5,88.61836916,1.05800258
5cfd119645e1a20001883ee6,36,0,2024-02-28T14:35:37.207Z,english_863.wav,0,pill,606,27,5,5,français,f,6,0.6,69.208784,1.13776513
5cfd119645e1a20001883ee6,36,0,2024-02-28T14:35:37.207Z,english_863.wav,0,pill,606,27,5,5,français,f,7,0.7,77.12421504,0.42226269
5cfd119645e1a20001883ee6,36,0,2024-02-28T14:35:37.207Z,english_863.wav,0,pill,606,27,5,5,français,f,8,0.8,-17.44873358,1.07561455
5cfd119645e1a20001883ee6,36,0,2024-02-28T14:35:37.207Z,english_863.wav,0,pill,606,27,5,5,français,f,9,0.9,-87.01424673,0.7154793
5cfd119645e1a20001883ee6,36,0,2024-02-28T14:35:37.207Z,english_863.wav,0,pill,606,27,5,5,français,f,10,1.0,-56.04990787,0.64178271
5cfd119645e1a20001883ee6,36,0,2024-02-28T14:35:37.207Z,english_863.wav,0,pill,606,27,5,5,français,f,11,1.09391667,-48.10301357,1.63280959
5cfd119645e1a20001883ee6,37,0,2024-02-28T14:35:37.207Z,english_609.wav,0,peel,644,27,5,5,français,f,0,0.0,45.1693917,1.16218677
5cfd119645e1a20001883ee6,37,0,2024-02-28T14:35:37.207Z,english_609.wav,0,peel,644,27,5,5,français,f,1,0.1,-72.3247495,1.56939275
5cfd119645e1a20001883ee6,37,0,2024-02-28T14:35:37.207Z,english_609.wav,0,peel,644,27,5,5,français,f,2,0.2,18.68361548,1.47980491
5cfd119645e1a20001883ee6,37,0,2024-02-28T14:35:37.207Z,english_609.wav,0,peel,644,27,5,5,français,f,3,0.3,-27.6682302,1.03639669
5cfd119645e1a20001883ee6,37,0,2024-02-28T14:35:37.207Z,english_609.wav,0,peel,644,27,5,5,français,f,4,0.4,3.63671522,0.81396394
5cfd119645e1a20001883ee6,37,0,2024-02-28T14:35:37.207Z,english_609.wav,0,peel,644,27,5,5,français,f,5,0.5,21.21340101,1.33770591
5cfd119645e1a20001883ee6,37,0,2024-02-28T14:35:37.207Z,english_609.wav,0,peel,644,27,5,5,français,f,6,0.6,15.49381211,1.85408959
5cfd119645e1a20001883ee6,37,0,2024-02-28T14:35:37.207Z,english_609.wav,0,peel,644,27,5,5,français,f,7,0.7,1.52669615,0.1270649
5cfd119645e1a20001883ee6,37,0,2024-02-28T14:35:37.207Z,english_609.wav,0,peel,644,27,5,5,français,f,8,0.8,25.44993701,0.72088093
5cfd119645e1a20001883ee6,37,0,2024-02-28T14:35:37.207Z,english_609.wav,0,peel,644,27,5,5,français,f,9,0.9,-58.9173922,1.10933741
5cfd119645e1a20001883ee6,37,0,2024-02-28T14:35:37.207Z,english_609.wav,0,peel,644,27,5,5,français,f,10,1.0,4.8985277,0.9989657
5cfd119645e1a20001883ee6,37,0,2024-02-28T14:35:37.207Z,english_609.wav,0,peel,644,27,5,5,français,f,11,1.09391667,-19.12587244,1.15972192
5cfd119645e1a20001883ee6,38,0,2024-02-28T14:35:37.207Z,english_393.wav,0,pill,803,27,5,5,français,f,0,0.0,-58.74313134,0.16237212
5cfd119645e1a20001883ee6,38,0,2024-02-28T14:35:37.207Z,english_393.wav,0,pill,803,27,5,5,français,f,1,0.1,46.38152714,1.56085016
5cfd119645e1a20001883ee6,38,0,2024-02-28T14:35:37.207Z,english_393.wav,0,pill,803,27,5,5,français,f,2,0.2,-5.44961594,0.52643067
5cfd119645e1a20001883ee6,38,0,2024-02-28T14:35:37.207Z,english_393.wav,0,pill,803,27,5,5,français,f,3,0.3,51.05560406,0.88104135
5cfd119645e1a20001883ee6,38,0,2024-02-28T14:35:37.207Z,english_393.wav,0,pill,803,27,5,5,français,f,4,0.4,48.86629046,0.28565075
5cfd119645e1a20001883ee6,38,0,2024-02-28T14:35:37.207Z,english_393.wav,0,pill,803,27,5,5,français,f,5,0.5,-0.66798529,1.31813369
5cfd119645e1a20001883ee6,38,0,2024-02-28T14:35:37.207Z,english_393.wav,0,pill,803,27,5,5,français,f,6,0.6,8.72000336,1.65879699
5cfd119645e1a20001883ee6,38,0,2024-02-28T14:35:37.207Z,english_393.wav,0,pill,803,27,5,5,français,f,7,0.7,67.13946978,1.88209371
5cfd119645e1a20001883ee6,38,0,2024-02-28T14:35:37.207Z,english_393.wav,0,pill,803,27,5,5,français,f,8,0.8,18.17496414,0.89524583
5cfd119645e1a20001883ee6,38,0,2024-02-28T14:35:37.207Z,english_393.wav,0,pill,803,27,5,5,français,f,9,0.9,-78.16206847,0.64742398
5cfd119645e1a20001883ee6,38,0,2024-02-28T14:35:37.207Z,english_393.wav,0,pill,803,27,5,5,français,f,10,1.0,26.35406132,0.57671432
5cfd119645e1a20001883ee6,38,0,2024-02-28T14:35:37.207Z,english_393.wav,0,pill,803,27,5,5,français,f,11,1.09391667,94.49751902,1.24089852
5cfd119645e1a20001883ee6,39,0,2024-02-28T14:35:37.207Z,english_255.wav,0,pill,863,27,5,5,français,f,0,0.0,94.72265592,1.19967406
5cfd119645e1a20001883ee6,39,0,2024-02-28T14:35:37.207Z,english_255.wav,0,pill,863,27,5,5,français,f,1,0.1,1.10845293,1.25035485
5cfd119645e1a20001883ee6,39,0,2024-02-28T14:35:37.207Z,english_255.wav,0,pill,863,27,5,5,français,f,2,0.2,-1.90413972,1.85398204
5cfd119645e1a20001883ee6,39,0,2024-02-28T14:35:37.207Z,english_255.wav,0,pill,863,27,5,5,français,f,3,0.3,-45.9655603,0.56259094
5cfd119645e1a20001883ee6,39,0,2024-02-28T14:35:37.207Z,english_255.wav,0,pill,863,27,5,5,français,f,4,0.4,-6.89013944,1.07948955
5cfd119645e1a20001883ee6,39,0,2024-02-28T14:35:37.207Z,english_255.wav,0,pill,863,27,5,5,français,f,5,0.5,3.45085104,0.7328114
5cfd119645e1a20001883ee6,39,0,2024-02-28T14:35:37.207Z,english_255.wav,0,pill,863,27,5,5,français,f,6,0.6,-68.66949423,0.49197221
5cfd119645e1a20001883ee6,39,0,2024-02-28T14:35:37.207Z,english_255.wav,0,pill,863,27,5,5,français,f,7,0.7,-22.56077648,1.14850602
5cfd119645e1a20001883ee6,39,0,2024-02-28T14:35:37.207Z,english_255.wav,0,pill,863,27,5,5,français,f,8,0.8,-32.1394332,1.46654584
5cfd119645e1a20001883ee6,39,0,2024-02-28T14:35:37.207Z,english_255.wav,0,pill,863,27,5,5,français,f,9,0.9,56.48595448,0.34163334
5cfd119645e1a20001883ee6,39,0,2024-02-28T14:35:37.207Z,english_255.wav,0,pill,863,27,5,5,français,f,10,1.0,-33.08950479,0.52219351
5cfd119645e1a20001883ee6,39,0,2024-02-28T14:35:37.207Z,english_255.wav,0,pill,863,27,5,5,français,f,11,1.09391667,55.58931482,1.18693331
5cfd119645e1a20001883ee6,40,0,2024-02-28T14:35:37.207Z,english_881.wav,0,peel,431,27,5,5,français,f,0,0.0,-6.48543923,0.68458474
5cfd119645e1a20001883ee6,40,0,2024-02-28T14:35:37.207Z,english_881.wav,0,peel,431,27,5,5,français,f,1,0.1,52.42470042,1.23345655
5cfd119645e1a20001883ee6,40,0,2024-02-28T14:35:37.207Z,english_881.wav,0,peel,431,27,5,5,français,f,2,0.2,27.22865134,1.03441451
5cfd119645e1a20001883ee6,40,0,2024-02-28T14:35:37.207Z,english_881.wav,0,peel,431,27,5,5,français,f,3,0.3,-26.12053543,0.51926044
5cfd119645e1a20001883ee6,40,0,2024-02-28T14:35:37.207Z,english_881.wav,0,peel,431,27,5,5,français,f,4,0.4,80.9200248,1.84993398
5cfd119645e1a20001883ee6,40,0,2024-02-28T14:35:37.207Z,english_881.wav,0,peel,431,27,5,5,français,f,5,0.5,91.13618142,0.2782437
5cfd119645e1a20001883ee6,40,0,2024-02-28T14:35:37.207Z,english_881.wav,0,peel,431,27,5,5,français,f,6,0.6,72.82749112,1.43037542
5cfd119645e1a20001883ee6,40,0,2024-02-28T14:35:37.207Z,english_881.wav,0,peel,431,27,5,5,français,f,7,0.7,4.61309193,1.82353332
5cfd119645e1a20001883ee6,40,0,2024-02-28T14:35:37.207Z,english_881.wav,0,peel,431,27,5,5,français,f,8,0.8,6.14992629,1.39771107
5cfd119645e1a20001883ee6,40,0,2024-02-28T14:35:37.207Z,english_881.wav,0,peel,431,27,5,5,français,f,9,0.9,-73.40306534,0.81234613
5cfd119645e1a20001883ee6,40,0,2024-02-28T14:35:37.207Z,english_881.wav,0,peel,431,27,5,5,français,f,10,1.0,-18.81910787,0.47215555
5cfd119645e1a20001883ee6,40,0,2024-02-28T14:35:37.207Z,english_881.wav,0,peel,431,27,5,5,français,f,11,1.09391667,-70.65652208,1.77841719
5cfd119645e1a20001883ee6,41,0,2024-02-28T14:35:37.207Z,english_74.wav,0,peel,549,27,5,5,français,f,0,0.0,24.65162801,0.19950325
5cfd119645e1a20001883ee6,41,0,2024-02-28T14:35:37.207Z,english_74.wav,0,peel,549,27,5,5,français,f,1,0.1,-30.39880554,1.43111439
5cfd119645e1a20001883ee6,41,0,2024-02-28T14:35:37.207Z,english_74.wav,0,peel,549,27,5,5,français,f,2,0.2,-41.38450202,0.7414266
5cfd119645e1a20001883ee6,41,0,2024-02-28T14:35:37.207Z,english_74.wav,0,peel,549,27,5,5,français,f,3,0.3,31.11276598,1.07627737
5cfd119645e1a20001883ee6,41,0,2024-02-28T14:35:37.207Z,english_74.wav,0,peel,549,27,5,5,français,f,4,0.4,-57.65294567,1.92323622
5cfd119645e1a20001883ee6,41,0,2024-02-28T14:35:37.207Z,english_74.wav,0,peel,549,27,5,5,français,f,5,0.5,-51.69576528,1.17854767
5cfd119645e1a20001883ee6,41,0,2024-02-28T14:35:37.207Z,english_74.wav,0,peel,549,27,5,5,français,f,6,0.6,24.90932223,0.17974996
5cfd119645e1a20001883ee6,41,0,2024-02-28T14:35:37.207Z,english_74.wav,0,peel,549,27,5,5,français,f,7,0.7,-33.10450871,0.92482308
5cfd119645e1a20001883ee6,41,0,2024-02-28T14:35:37.207Z,english_74.wav,0,peel,549,27,5,5,français,f,8,0.8,-69.97293112,0.31413891
5cfd119645e1a20001883ee6,41,0,2024-02-28T14:35:37.207Z,english_74.wav,0,peel,549,27,5,5,français,f,9,0.9,88.74386832,1.87630938
5cfd119645e1a20001883ee6,41,0,2024-02-28T14:35:37.207Z,english_74.wav,0,peel,549,27,5,5,français,f,10,1.0,-68.30431972,1.39265686
5cfd119645e1a20001883ee6,41,0,2024-02-28T14:35:37.207Z,english_74.wav,0,peel,549,27,5,5,français,f,11,1.09391667,-30.20733398,0.32158433
5cfd119645e1a20001883ee6,42,0,2024-02-28T14:35:37.207Z,english_545.wav,0,peel,353,27,5,5,français,f,0,0.0,-99.01008517,0.51580829
5cfd119645e1a20001883ee6,42,0,2024-02-28T14:35:37.207Z,english_545.wav,0,peel,353,27,5,5,français,f,1,0.1,65.47335851,0.53489733
5cfd119645e1a20001883ee6,42,0,2024-02-28T14:35:37.207Z,english_545.wav,0,peel,353,27,5,5,français,f,2,0.2,-84.28840174,1.28091178
5cfd119645e1a20001883ee6,42,0,2024-02-28T14:35:37.207Z,english_545.wav,0,peel,353,27,5,5,français,f,3,0.3,-53.2257253,1.83272888
5cfd119645e1a20001883ee6,42,0,2024-02-28T14:35:37.207Z,english_545.wav,0,peel,353,27,5,5,français,f,4,0.4,-67.85056043,0.88291171
5cfd119645e1a20001883ee6,42,0,2024-02-28T14:35:37.207Z,english_545.wav,0,peel,353,27,5,5,français,f,5,0.5,-22.57245088,0.35382027
5cfd119645e1a20001883ee6,42,0,2024-02-28T14:35:37.207Z,english_545.wav,0,peel,353,27,5,5,français,f,6,0.6,-0.78864791,1.57508052
5cfd119645e1a20001883ee6,42,0,2024-02-28T14:35:37.207Z,english_545.wav,0,peel,353,27,5,5,français,f,7,0.7,17.40611159,0.29019895
5cfd119645e1a20001883ee6,42,0,2024-02-28T14:35:37.207Z,english_545.wav,0,peel,353,27,5,5,français,f,8,0.8,62.9168566,1.37661243
5cfd119645e1a20001883ee6,42,0,2024-02-28T14:35:37.207Z,english_545.wav,0,peel,353,27,5,5,français,f,9,0.9,32.36790846,0.94083914
5cfd119645e1a20001883ee6,42,0,2024-02-28T14:35:37.207Z,english_545.wav,0,peel,353,27,5,5,français,f,10,1.0,-91.70599266,1.54827837
5cfd119645e1a20001883ee6,42,0,2024-02-28T14:35:37.207Z,english_545.wav,0,peel,353,27,5,5,français,f,11,1.09391667,50.31108328,0.28023548
5cfd119645e1a20001883ee6,43,0,2024-02-28T14:35:37.207Z,english_618.wav,0,peel,591,27,5,5,français,f,0,0.0,-79.9488622,1.91362605
5cfd119645e1a20001883ee6,43,0,2024-02-28T14:35:37.207Z,english_618.wav,0,peel,591,27,5,5,français,f,1,0.1,0.24132163,0.6330552
5cfd119645e1a20001883ee6,43,0,2024-02-28T14:35:37.207Z,english_618.wav,0,peel,591,27,5,5,français,f,2,0.2,-56.62295111,0.97728614
5cfd119645e1a20001883ee6,43,0,2024-02-28T14:35:37.207Z,english_618.wav,0,peel,591,27,5,5,français,f,3,0.3,-72.03937353,0.96298019
5cfd119645e1a20001883ee6,43,0,2024-02-28T14:35:37.207Z,english_618.wav,0,peel,591,27,5,5,français,f,4,0.4,-44.72303747,1.81673931
5cfd119645e1a20001883ee6,43,0,2024-02-28T14:35:37.207Z,english_618.wav,0,peel,591,27,5,5,français,f,5,0.5,-96.08672425,0.35989287
5cfd119645e1a20001883ee6,43,0,2024-02-28T14:35:37.207Z,english_618.wav,0,peel,591,27,5,5,français,f,6,0.6,63.06881346,1.43341205
5cfd119645e1a20001883ee6,43,0,2024-02-28T14:35:37.207Z,english_618.wav,0,peel,591,27,5,5,français,f,7,0.7,7.33604436,1.78848637
5cfd119645e1a20001883ee6,43,0,2024-02-28T14:35:37.207Z,english_618.wav,0,peel,591,27,5,5,français,f,8,0.8,76.47736911,1.05646412
5cfd119645e1a20001883ee6,43,0,2024-02-28T14:35:37.207Z,english_618.wav,0,peel,591,27,5,5,français,f,9,0.9,-52.54898443,0.998868
5cfd119645e1a20001883ee6,43,0,2024-02-28T14:35:37.207Z,english_618.wav,0,peel,591,27,5,5,français,f,10,1.0,33.73192618,1.38011588
5cfd119645e1a20001883ee6,43,0,2024-02-28T14:35:37.207Z,english_618.wav,0,peel,591,27,5,5,français,f,11,1.09391667,31.05572927,1.5899218
5cfd119645e1a20001883ee6,44,0,2024-02-28T14:35:37.207Z,english_517.wav,0,peel,401,27,5,5,français,f,0,0.0,66.65099922,0.14059347
5cfd119645e1a20001883ee6,44,0,2024-02-28T14:35:37.207Z,english_517.wav,0,peel,401,27,5,5,français,f,1,0.1,-25.70388075,0.04284068
5cfd119645e1a20001883ee6,44,0,2024-02-28T14:35:37.207Z,english_517.wav,0,peel,401,27,5,5,français,f,2,0.2,-22.37896652,0.61477249
5cfd119645e1a20001883ee6,44,0,2024-02-28T14:35:37.207Z,english_517.wav,0,peel,401,27,5,5,français,f,3,0.3,-6.57908025,0.586151
5cfd119645e1a20001883ee6,44,0,2024-02-28T14:35:37.207Z,english_517.wav,0,peel,401,27,5,5,français,f,4,0.4,14.90197081,0.82467301
5cfd119645e1a20001883ee6,44,0,2024-02-28T14:35:37.207Z,english_517.wav,0,peel,401,27,5,5,français,f,5,0.5,28.13310888,1.4846696
5cfd119645e1a20001883ee6,44,0,2024-02-28T14:35:37.207Z,english_517.wav,0,peel,401,27,5,5,français,f,6,0.6,67.72161666,1.87560286
5cfd119645e1a20001883ee6,44,0,2024-02-28T14:35:37.207Z,english_517.wav,0,peel,401,27,5,5,français,f,7,0.7,-79.77738636,0.86888635
5cfd119645e1a20001883ee6,44,0,2024-02-28T14:35:37.207Z,english_517.wav,0,peel,401,27,5,5,français,f,8,0.8,-9.62789869,0.65753642
5cfd119645e1a20001883ee6,44,0,2024-02-28T14:35:37.207Z,english_517.wav,0,peel,401,27,5,5,français,f,9,0.9,-43.36595112,1.72637139
5cfd119645e1a20001883ee6,44,0,2024-02-28T14:35:37.207Z,english_517.wav,0,peel,401,27,5,5,français,f,10,1.0,-65.22090713,0.00479054
5cfd119645e1a20001883ee6,44,0,2024-02-28T14:35:37.207Z,english_517.wav,0,peel,401,27,5,5,français,f,11,1.09391667,93.99451349,1.63350936
5cfd119645e1a20001883ee6,45,0,2024-02-28T14:35:37.207Z,english_450.wav,0,peel,361,27,5,5,français,f,0,0.0,-40.47622517,1.62313454
5cfd119645e1a20001883ee6,45,0,2024-02-28T14:35:37.207Z,english_450.wav,0,peel,361,27,5,5,français,f,1,0.1,32.74162238,1.28157799
5cfd119645e1a20001883ee6,45,0,2024-02-28T14:35:37.207Z,english_450.wav,0,peel,361,27,5,5,français,f,2,0.2,-31.99785117,0.17374894
5cfd119645e1a20001883ee6,45,0,2024-02-28T14:35:37.207Z,english_450.wav,0,peel,361,27,5,5,français,f,3,0.3,26.01051774,1.33840529
5cfd119645e1a20001883ee6,45,0,2024-02-28T14:35:37.207Z,english_450.wav,0,peel,361,27,5,5,français,f,4,0.4,80.55211369,1.99443486
5cfd119645e1a20001883ee6,45,0,2024-02-28T14:35:37.207Z,english_450.wav,0,peel,361,27,5,5,français,f,5,0.5,18.01549087,1.3531925
5cfd119645e1a20001883ee6,45,0,2024-02-28T14:35:37.207Z,english_450.wav,0,peel,361,27,5,5,français,f,6,0.6,52.7809862,1.87514045
5cfd119645e1a20001883ee6,45,0,2024-02-28T14:35:37.207Z,english_450.wav,0,peel,361,27,5,5,français,f,7,0.7,49.03700675,0.88384361
5cfd119645e1a20001883ee6,45,0,2024-02-28T14:35:37.207Z,english_450.wav,0,peel,361,27,5,5,français,f,8,0.8,-27.91135425,1.18722403
5cfd119645e1a20001883ee6,45,0,2024-02-28T14:35:37.207Z,english_450.wav,0,peel,361,27,5,5,français,f,9,0.9,36.58986798,1.83701617
5cfd119645e1a20001883ee6,45,0,2024-02-28T14:35:37.207Z,english_450.wav,0,peel,361,27,5,5,français,f,10,1.0,-73.7373691,1.36559917
5cfd119645e1a20001883ee6,45,0,2024-02-28T14:35:37.207Z,english_450.wav,0,peel,361,27,5,5,français,f,11,1.09391667,98.91564747,0.09127158
5cfd119645e1a20001883ee6,46,0,2024-02-28T14:35:37.207Z,english_321.wav,0,peel,414,27,5,5,français,f,0,0.0,-77.41334575,1.30726178
5cfd119645e1a20001883ee6,46,0,2024-02-28T14:35:37.207Z,english_321.wav,0,peel,414,27,5,5,français,f,1,0.1,-61.98635838,0.09021545
5cfd119645e1a20001883ee6,46,0,2024-02-28T14:35:37.207Z,english_321.wav,0,peel,414,27,5,5,français,f,2,0.2,63.85195092,1.50183321
5cfd119645e1a20001883ee6,46,0,2024-02-28T14:35:37.207Z,english_321.wav,0,peel,414,27,5,5,français,f,3,0.3,29.6904451,0.65065228
5cfd119645e1a20001883ee6,46,0,2024-02-28T14:35:37.207Z,english_321.wav,0,peel,414,27,5,5,français,f,4,0.4,-43.5045078,1.45081069
5cfd119645e1a20001883ee6,46,0,2024-02-28T14:35:37.207Z,english_321.wav,0,peel,414,27,5,5,français,f,5,0.5,62.57170592,1.7661601
5cfd119645e1a20001883ee6,46,0,2024-02-28T14:35:37.207Z,english_321.wav,0,peel,414,27,5,5,français,f,6,0.6,28.41559033,0.98052074
5cfd119645e1a20001883ee6,46,0,2024-02-28T14:35:37.207Z,english_321.wav,0,peel,414,27,5,5,français,f,7,0.7,57.20206106,1.50508218
5cfd119645e1a20001883ee6,46,0,2024-02-28T14:35:37.207Z,english_321.wav,0,peel,414,27,5,5,français,f,8,0.8,21.76754783,1.92892589
5cfd119645e1a20001883ee6,46,0,2024-02-28T14:35:37.207Z,english_321.wav,0,peel,414,27,5,5,français,f,9,0.9,-93.37290208,0.5132303
5cfd119645e1a20001883ee6,46,0,2024-02-28T14:35:37.207Z,english_321.wav,0,peel,414,27,5,5,français,f,10,1.0,-66.78585721,1.33865757
5cfd119645e1a20001883ee6,46,0,2024-02-28T14:35:37.207Z,english_321.wav,0,peel,414,27,5,5,français,f,11,1.09391667,79.62121497,0.23870746
5cfd119645e1a20001883ee6,47,0,2024-02-28T14:35:37.207Z,english_674.wav,0,peel,623,27,5,5,français,f,0,0.0,-98.04630788,1.00959277
5cfd119645e1a20001883ee6,47,0,2024-02-28T14:35:37.207Z,english_674.wav,0,peel,623,27,5,5,français,f,1,0.1,-67.7388386,1.32906917
5cfd119645e1a20001883ee6,47,0,2024-02-28T14:35:37.207Z,english_674.wav,0,peel,623,27,5,5,français,f,2,0.2,42.66102915,0.34524669
5cfd119645e1a20001883ee6,47,0,2024-02-28T14:35:37.207Z,english_674.wav,0,peel,623,27,5,5,français,f,3,0.3,-47.4601568,1.53911224
5cfd119645e1a20001883ee6,47,0,2024-02-28T14:35:37.207Z,english_674.wav,0,peel,623,27,5,5,français,f,4,0.4,19.12628611,0.37006092
5cfd119645e1a20001883ee6,47,0,2024-02-28T14:35:37.207Z,english_674.wav,0,peel,623,27,5,5,français,f,5,0.5,-84.54204909,0.51745569
5cfd119645e1a20001883ee6,47,0,2024-02-28T14:35:37.207Z,english_674.wav,0,peel,623,27,5,5,français,f,6,0.6,-71.85903786,0.24033901
5cfd119645e1a20001883ee6,47,0,2024-02-28T14:35:37.207Z,english_674.wav,0,peel,623,27,5,5,français,f,7,0.7,83.31217322,0.56180337
5cfd119645e1a20001883ee6,47,0,2024-02-28T14:35:37.207Z,english_674.wav,0,peel,623,27,5,5,français,f,8,0.8,-12.56030822,0.37273026
5cfd119645e1a20001883ee6,47,0,2024-02-28T14:35:37.207Z,english_674.wav,0,peel,623,27,5,5,français,f,9,0.9,2.8176003,0.28626573
5cfd119645e1a20001883ee6,47,0,2024-02-28T14:35:37.207Z,english_674.wav,0,peel,623,27,5,5,français,f,10,1.0,36.77486132,1.87627127
5cfd119645e1a20001883ee6,47,0,2024-02-28T14:35:37.207Z,english_674.wav,0,peel,623,27,5,5,français,f,11,1.09391667,32.03385029,1.91315754
5cfd119645e1a20001883ee6,48,0,2024-02-28T14:35:37.207Z,english_305.wav,0,peel,523,27,5,5,français,f,0,0.0,17.49267602,0.00977258
5cfd119645e1a20001883ee6,48,0,2024-02-28T14:35:37.207Z,english_305.wav,0,peel,523,27,5,5,français,f,1,0.1,17.59035292,1.17585195
5cfd119645e1a20001883ee6,48,0,2024-02-28T14:35:37.207Z,english_305.wav,0,peel,523,27,5,5,français,f,2,0.2,83.12376417,1.66932103
5cfd119645e1a20001883ee6,48,0,2024-02-28T14:35:37.207Z,english_305.wav,0,peel,523,27,5,5,français,f,3,0.3,-81.59474703,0.83160233
5cfd119645e1a20001883ee6,48,0,2024-02-28T14:35:37.207Z,english_305.wav,0,peel,523,27,5,5,français,f,4,0.4,-99.63264863,1.05024367
5cfd119645e1a20001883ee6,48,0,2024-02-28T14:35:37.207Z,english_305.wav,0,peel,523,27,5,5,français,f,5,0.5,42.69289025,1.13369845
5cfd119645e1a20001883ee6,48,0,2024-02-28T14:35:37.207Z,english_305.wav,0,peel,523,27,5,5,français,f,6,0.6,82.55548118,0.21867151
5cfd119645e1a20001883ee6,48,0,2024-02-28T14:35:37.207Z,english_305.wav,0,peel,523,27,5,5,français,f,7,0.7,15.87479687,0.32447169
5cfd119645e1a20001883ee6,48,0,2024-02-28T14:35:37.207Z,english_305.wav,0,peel,523,27,5,5,français,f,8,0.8,-15.6323718,1.86350195
5cfd119645e1a20001883ee6,48,0,2024-02-28T14:35:37.207Z,english_305.wav,0,peel,523,27,5,5,français,f,9,0.9,98.18396958,0.82463705
5cfd119645e1a20001883ee6,48,0,2024-02-28T14:35:37.207Z,english_305.wav,0,peel,523,27,5,5,français,f,10,1.0,52.83112054,0.94709308
5cfd119645e1a20001883ee6,48,0,2024-02-28T14:35:37.207Z,english_305.wav,0,peel,523,27,5,5,français,f,11,1.09391667,33.63343534,0.36254065
5cfd119645e1a20001883ee6,49,0,2024-02-28T14:35:37.207Z,english_97.wav,0,pill,567,27,5,5,français,f,0,0.0,76.37857638,1.79294701
5cfd119645e1a20001883ee6,49,0,2024-02-28T14:35:37.207Z,english_97.wav,0,pill,567,27,5,5,français,f,1,0.1,-4.28991847,0.18306204
5cfd119645e1a20001883ee6,49,0,2024-02-28T14:35:37.207Z,english_97.wav,0,pill,567,27,5,5,français,f,2,0.2,47.01039737,1.8440549
5cfd119645e1a20001883ee6,49,0,2024-02-28T14:35:37.207Z,english_97.wav,0,pill,567,27,5,5,français,f,3,0.3,78.99599817,1.28830428
5cfd119645e1a20001883ee6,49,0,2024-02-28T14:35:37.207Z,english_97.wav,0,pill,567,27,5,5,français,f,4,0.4,-74.44800797,0.92549922
5cfd119645e1a20001883ee6,49,0,2024-02-28T14:35:37.207Z,english_97.wav,0,pill,567,27,5,5,français,f,5,0.5,-0.92525099,1.98803443
5cfd119645e1a20001883ee6,49,0,2024-02-28T14:35:37.207Z,english_97.wav,0,pill,567,27,5,5,français,f,6,0.6,49.24834696,1.73109288
5cfd119645e1a20001883ee6,49,0,2024-02-28T14:35:37.207Z,english_97.wav,0,pill,567,27,5,5,français,f,7,0.7,54.51821925,0.57923617
5cfd119645e1a20001883ee6,49,0,2024-02-28T14:35:37.207Z,english_97.wav,0,pill,567,27,5,5,français,f,8,0.8,21.55646095,1.43675725
5cfd119645e1a20001883ee6,49,0,2024-02-28T14:35:37.207Z,english_97.wav,0,pill,567,27,5,5,français,f,9,0.9,38.61141557,0.35677857
5cfd119645e1a20001883ee6,49,0,2024-02-28T14:35:37.207Z,english_97.wav,0,pill,567,27,5,5,français,f,10,1.0,-51.21992239,0.21609993
5cfd119645e1a20001883ee6,49,0,2024-02-28T14:35:37.207Z,english_97.wav,0,pill,567,27,5,5,français,f,11,1.09391667,-54.62741944,0.92594918
5cfd119645e1a20001883ee6,50,1,2024-02-28T14:35:37.207Z,english_25.wav,0,peel,929,27,5,5,français,f,0,0.0,-3.04072315,0.82619881
5cfd119645e1a20001883ee6,50,1,2024-02-28T14:35:37.207Z,english_25.wav,0,peel,929,27,5,5,français,f,1,0.1,-7.71178933,0.19533878
5cfd119645e1a20001883ee6,50,1,2024-02-28T14:35:37.207Z,english_25.wav,0,peel,929,27,5,5,français,f,2,0.2,-42.18636208,1.08277914
5cfd119645e1a20001883ee6,50,1,2024-02-28T14:35:37.207Z,english_25.wav,0,peel,929,27,5,5,français,f,3,0.3,-34.45077435,1.14412535
5cfd119645e1a20001883ee6,50,1,2024-02-28T14:35:37.207Z,english_25.wav,0,peel,929,27,5,5,français,f,4,0.4,-84.66227969,1.20529311
5cfd119645e1a20001883ee6,50,1,2024-02-28T14:35:37.207Z,english_25.wav,0,peel,929,27,5,5,français,f,5,0.5,-92.64439035,1.74650044
5cfd119645e1a20001883ee6,50,1,2024-02-28T14:35:37.207Z,english_25.wav,0,peel,929,27,5,5,français,f,6,0.6,-61.14666871,0.43899038
5cfd119645e1a20001883ee6,50,1,2024-02-28T14:35:37.207Z,english_25.wav,0,peel,929,27,5,5,français,f,7,0.7,-3.59823801,0.82830315
5cfd119645e1a20001883ee6,50,1,2024-02-28T14:35:37.207Z,english_25.wav,0,peel,929,27,5,5,français,f,8,0.8,-55.86599887,0.29447237
5cfd119645e1a20001883ee6,50,1,2024-02-28T14:35:37.207Z,english_25.wav,0,peel,929,27,5,5,français,f,9,0.9,70.71897097,0.99577412
5cfd119645e1a20001883ee6,50,1,2024-02-28T14:35:37.207Z,english_25.wav,0,peel,929,27,5,5,français,f,10,1.0,-41.59717756,1.79017757
5cfd119645e1a20001883ee6,50,1,2024-02-28T14:35:37.207Z,english_25.wav,0,peel,929,27,5,5,français,f,11,1.09391667,45.33564492,1.70871786
5cfd119645e1a20001883ee6,51,1,2024-02-28T14:35:37.207Z,english_121.wav,0,peel,547,27,5,5,français,f,0,0.0,-45.47404613,1.1666534
5cfd119645e1a20001883ee6,51,1,2024-02-28T14:35:37.207Z,english_121.wav,0,peel,547,27,5,5,français,f,1,0.1,-36.49769978,1.03435239
5cfd119645e1a20001883ee6,51,1,2024-02-28T14:35:37.207Z,english_121.wav,0,peel,547,27,5,5,français,f,2,0.2,-66.69646717,1.07224248
5cfd119645e1a20001883ee6,51,1,2024-02-28T14:35:37.207Z,english_121.wav,0,peel,547,27,5,5,français,f,3,0.3,56.76733216,1.62337858
5cfd119645e1a20001883ee6,51,1,2024-02-28T14:35:37.207Z,english_121.wav,0,peel,547,27,5,5,français,f,4,0.4,-69.2204817,1.13623118
5cfd119645e1a20001883ee6,51,1,2024-02-28T14:35:37.207Z,english_121.wav,0,peel,547,27,5,5,français,f,5,0.5,67.71926704,0.1634934
5cfd119645e1a20001883ee6,51,1,2024-02-28T14:35:37.207Z,english_121.wav,0,peel,547,27,5,5,français,f,6,0.6,-20.18031628,1.38272259
5cfd119645e1a20001883ee6,51,1,2024-02-28T14:35:37.207Z,english_121.wav,0,peel,547,27,5,5,français,f,7,0.7,-46.80295657,1.3454344
5cfd119645e1a20001883ee6,51,1,2024-02-28T14:35:37.207Z,english_121.wav,0,peel,547,27,5,5,français,f,8,0.8,-30.65691434,1.73628045
5cfd119645e1a20001883ee6,51,1,2024-02-28T14:35:37.207Z,english_121.wav,0,peel,547,27,5,5,français,f,9,0.9,-30.96173959,0.71303122
5cfd119645e1a20001883ee6,51,1,2024-02-28T14:35:37.207Z,english_121.wav,0,peel,547,27,5,5,français,f,10,1.0,69.71514833,1.56011323
5cfd119645e1a20001883ee6,51,1,2024-02-28T14:35:37.207Z,english_121.wav,0,peel,547,27,5,5,français,f,11,1.09391667,14.56946925,0.62204911
5cfd119645e1a20001883ee6,52,1,2024-02-28T14:35:37.207Z,english_552.wav,0,peel,328,27,5,5,français,f,0,0.0,24.23901763,1.612105
5cfd119645e1a20001883ee6,52,1,2024-02-28T14:35:37.207Z,english_552.wav,0,peel,328,27,5,5,français,f,1,0.1,-68.29569332,0.23755281
5cfd119645e1a20001883ee6,52,1,2024-02-28T14:35:37.207Z,english_552.wav,0,peel,328,27,5,5,français,f,2,0.2,-76.60440788,1.12644766
5cfd119645e1a20001883ee6,52,1,2024-02-28T14:35:37.207Z,english_552.wav,0,peel,328,27,5,5,français,f,3,0.3,-14.28309722,1.6498911
5cfd119645e1a20001883ee6,52,1,2024-02-28T14:35:37.207Z,english_552.wav,0,peel,328,27,5,5,français,f,4,0.4,7.45259631,1.62705162
5cfd119645e1a20001883ee6,52,1,2024-02-28T14:35:37.207Z,english_552.wav,0,peel,328,27,5,5,français,f,5,0.5,-96.79412631,0.02108582
5cfd119645e1a20001883ee6,52,1,2024-02-28T14:35:37.207Z,english_552.wav,0,peel,328,27,5,5,français,f,6,0.6,19.00121721,0.46250888
5cfd119645e1a20001883ee6,52,1,2024-02-28T14:35:37.207Z,english_552.wav,0,peel,328,27,5,5,français,f,7,0.7,28.47093687,0.61388361
5cfd119645e1a20001883ee6,52,1,2024-02-28T14:35:37.207Z,english_552.wav,0,peel,328,27,5,5,français,f,8,0.8,-28.36467118,1.42538322
5cfd119645e1a20001883ee6,52,1,2024-02-28T14:35:37.207Z,english_552.wav,0,peel,328,27,5,5,français,f,9,0.9,27.37810517,1.50029895
5cfd119645e1a20001883ee6,52,1,2024-02-28T14:35:37.207Z,english_552.wav,0,peel,328,27,5,5,français,f,10,1.0,-1.36668835,0.7956711
5cfd119645e1a20001883ee6,52,1,2024-02-28T14:35:37.207Z,english_552.wav,0,peel,328,27,5,5,français,f,11,1.09391667,-10.50305513,0.62245048
5cfd119645e1a20001883ee6,53,1,2024-02-28T14:35:37.207Z,english_864.wav,0,peel,341,27,5,5,français,f,0,0.0,-0.0387960156,1.23414585
5cfd119645e1a20001883ee6,53,1,2024-02-28T14:35:37.207Z,english_864.wav,0,peel,341,27,5,5,français,f,1,0.1,38.1316994,0.9307675
5cfd119645e1a20001883ee6,53,1,2024-02-28T14:35:37.207Z,english_864.wav,0,peel,341,27,5,5,français,f,2,0.2,-27.0649645,0.03913176
5cfd119645e1a20001883ee6,53,1,2024-02-28T14:35:37.207Z,english_864.wav,0,peel,341,27,5,5,français,f,3,0.3,48.6299289,0.1581059
5cfd119645e1a20001883ee6,53,1,2024-02-28T14:35:37.207Z,english_864.wav,0,peel,341,27,5,5,français,f,4,0.4,-73.1690056,1.26848515
5cfd119645e1a20001883ee6,53,1,2024-02-28T14:35:37.207Z,english_864.wav,0,peel,341,27,5,5,français,f,5,0.5,-28.1080401,1.70642176
5cfd119645e1a20001883ee6,53,1,2024-02-28T14:35:37.207Z,english_864.wav,0,peel,341,27,5,5,français,f,6,0.6,47.3805694,1.16045112
5cfd119645e1a20001883ee6,53,1,2024-02-28T14:35:37.207Z,english_864.wav,0,peel,341,27,5,5,français,f,7,0.7,-91.4211748,1.92718933
5cfd119645e1a20001883ee6,53,1,2024-02-28T14:35:37.207Z,english_864.wav,0,peel,341,27,5,5,français,f,8,0.8,5.88699375,0.86462582
5cfd119645e1a20001883ee6,53,1,2024-02-28T14:35:37.207Z,english_864.wav,0,peel,341,27,5,5,français,f,9,0.9,88.3416583,0.91973589
5cfd119645e1a20001883ee6,53,1,2024-02-28T14:35:37.207Z,english_864.wav,0,peel,341,27,5,5,français,f,10,1.0,-36.7945697,0.59650291
5cfd119645e1a20001883ee6,53,1,2024-02-28T14:35:37.207Z,english_864.wav,0,peel,341,27,5,5,français,f,11,1.09391667,-60.7645339,0.61493886
5cfd119645e1a20001883ee6,54,1,2024-02-28T14:35:37.207Z,english_402.wav,0,peel,309,27,5,5,français,f,0,0.0,13.762471,1.51429567
5cfd119645e1a20001883ee6,54,1,2024-02-28T14:35:37.207Z,english_402.wav,0,peel,309,27,5,5,français,f,1,0.1,56.960538,1.68766969
5cfd119645e1a20001883ee6,54,1,2024-02-28T14:35:37.207Z,english_402.wav,0,peel,309,27,5,5,français,f,2,0.2,31.61900178,1.34501255
5cfd119645e1a20001883ee6,54,1,2024-02-28T14:35:37.207Z,english_402.wav,0,peel,309,27,5,5,français,f,3,0.3,-58.12329087,0.78143448
5cfd119645e1a20001883ee6,54,1,2024-02-28T14:35:37.207Z,english_402.wav,0,peel,309,27,5,5,français,f,4,0.4,-92.10904416,0.95522192
5cfd119645e1a20001883ee6,54,1,2024-02-28T14:35:37.207Z,english_402.wav,0,peel,309,27,5,5,français,f,5,0.5,-26.99116943,1.16323619
5cfd119645e1a20001883ee6,54,1,2024-02-28T14:35:37.207Z,english_402.wav,0,peel,309,27,5,5,français,f,6,0.6,2.85267641,0.43497741
5cfd119645e1a20001883ee6,54,1,2024-02-28T14:35:37.207Z,english_402.wav,0,peel,309,27,5,5,français,f,7,0.7,-21.2400385,1.84271931
5cfd119645e1a20001883ee6,54,1,2024-02-28T14:35:37.207Z,english_402.wav,0,peel,309,27,5,5,français,f,8,0.8,47.25195685,1.28114522
5cfd119645e1a20001883ee6,54,1,2024-02-28T14:35:37.207Z,english_402.wav,0,peel,309,27,5,5,français,f,9,0.9,86.30516809,0.9091169
5cfd119645e1a20001883ee6,54,1,2024-02-28T14:35:37.207Z,english_402.wav,0,peel,309,27,5,5,français,f,10,1.0,-9.29622935,1.84546322
5cfd119645e1a20001883ee6,54,1,2024-02-28T14:35:37.207Z,english_402.wav,0,peel,309,27,5,5,français,f,11,1.09391667,3.14612385,0.72114292
5cfd119645e1a20001883ee6,55,1,2024-02-28T14:35:37.207Z,english_831.wav,0,peel,453,27,5,5,français,f,0,0.0,-21.16656573,0.86887876
5cfd119645e1a20001883ee6,55,1,2024-02-28T14:35:37.207Z,english_831.wav,0,peel,453,27,5,5,français,f,1,0.1,29.76214341,1.37629655
5cfd119645e1a20001883ee6,55,1,2024-02-28T14:35:37.207Z,english_831.wav,0,peel,453,27,5,5,français,f,2,0.2,61.45359844,0.63499907
5cfd119645e1a20001883ee6,55,1,2024-02-28T14:35:37.207Z,english_831.wav,0,peel,453,27,5,5,français,f,3,0.3,6.67004895,0.11279763
5cfd119645e1a20001883ee6,55,1,2024-02-28T14:35:37.207Z,english_831.wav,0,peel,453,27,5,5,français,f,4,0.4,26.70370751,0.87092561
5cfd119645e1a20001883ee6,55,1,2024-02-28T14:35:37.207Z,english_831.wav,0,peel,453,27,5,5,français,f,5,0.5,-40.62935301,1.90700704
5cfd119645e1a20001883ee6,55,1,2024-02-28T14:35:37.207Z,english_831.wav,0,peel,453,27,5,5,français,f,6,0.6,99.09256776,0.52454597
5cfd119645e1a20001883ee6,55,1,2024-02-28T14:35:37.207Z,english_831.wav,0,peel,453,27,5,5,français,f,7,0.7,79.82257267,0.72073711
5cfd119645e1a20001883ee6,55,1,2024-02-28T14:35:37.207Z,english_831.wav,0,peel,453,27,5,5,français,f,8,0.8,42.46181289,0.80064374
5cfd119645e1a20001883ee6,55,1,2024-02-28T14:35:37.207Z,english_831.wav,0,peel,453,27,5,5,français,f,9,0.9,2.20427108,1.04408214
5cfd119645e1a20001883ee6,55,1,2024-02-28T14:35:37.207Z,english_831.wav,0,peel,453,27,5,5,français,f,10,1.0,64.59275416,0.45079877
5cfd119645e1a20001883ee6,55,1,2024-02-28T14:35:37.207Z,english_831.wav,0,peel,453,27,5,5,français,f,11,1.09391667,-21.96543836,1.2652147
5cfd119645e1a20001883ee6,56,1,2024-02-28T14:35:37.207Z,english_996.wav,0,peel,205,27,5,5,français,f,0,0.0,-68.49547406,1.15101027
5cfd119645e1a20001883ee6,56,1,2024-02-28T14:35:37.207Z,english_996.wav,0,peel,205,27,5,5,français,f,1,0.1,-2.33531362,1.76891933
5cfd119645e1a20001883ee6,56,1,2024-02-28T14:35:37.207Z,english_996.wav,0,peel,205,27,5,5,français,f,2,0.2,59.75126116,1.50263503
5cfd119645e1a20001883ee6,56,1,2024-02-28T14:35:37.207Z,english_996.wav,0,peel,205,27,5,5,français,f,3,0.3,91.41529036,0.3014492
5cfd119645e1a20001883ee6,56,1,2024-02-28T14:35:37.207Z,english_996.wav,0,peel,205,27,5,5,français,f,4,0.4,-12.51622254,1.52458018
5cfd119645e1a20001883ee6,56,1,2024-02-28T14:35:37.207Z,english_996.wav,0,peel,205,27,5,5,français,f,5,0.5,5.44058313,1.68949091
5cfd119645e1a20001883ee6,56,1,2024-02-28T14:35:37.207Z,english_996.wav,0,peel,205,27,5,5,français,f,6,0.6,-53.42325035,1.14777942
5cfd119645e1a20001883ee6,56,1,2024-02-28T14:35:37.207Z,english_996.wav,0,peel,205,27,5,5,français,f,7,0.7,9.17325138,1.71935076
5cfd119645e1a20001883ee6,56,1,2024-02-28T14:35:37.207Z,english_996.wav,0,peel,205,27,5,5,français,f,8,0.8,53.92705363,1.57982041
5cfd119645e1a20001883ee6,56,1,2024-02-28T14:35:37.207Z,english_996.wav,0,peel,205,27,5,5,français,f,9,0.9,-51.59047854,0.73704806
5cfd119645e1a20001883ee6,56,1,2024-02-28T14:35:37.207Z,english_996.wav,0,peel,205,27,5,5,français,f,10,1.0,-72.60614794,0.5335164
5cfd119645e1a20001883ee6,56,1,2024-02-28T14:35:37.207Z,english_996.wav,0,peel,205,27,5,5,français,f,11,1.09391667,82.93009071,0.99688365
5cfd119645e1a20001883ee6,57,1,2024-02-28T14:35:37.207Z,english_47.wav,0,peel,240,27,5,5,français,f,0,0.0,68.198191,0.3166901
5cfd119645e1a20001883ee6,57,1,2024-02-28T14:35:37.207Z,english_47.wav,0,peel,240,27,5,5,français,f,1,0.1,94.43921987,0.04644968
5cfd119645e1a20001883ee6,57,1,2024-02-28T14:35:37.207Z,english_47.wav,0,peel,240,27,5,5,français,f,2,0.2,71.99565581,0.20202276
5cfd119645e1a20001883ee6,57,1,2024-02-28T14:35:37.207Z,english_47.wav,0,peel,240,27,5,5,français,f,3,0.3,-2.50267609,0.13324084
5cfd119645e1a20001883ee6,57,1,2024-02-28T14:35:37.207Z,english_47.wav,0,peel,240,27,5,5,français,f,4,0.4,-27.23226475,1.85081006
5cfd119645e1a20001883ee6,57,1,2024-02-28T14:35:37.207Z,english_47.wav,0,peel,240,27,5,5,français,f,5,0.5,-34.1635894,1.50387921
5cfd119645e1a20001883ee6,57,1,2024-02-28T14:35:37.207Z,english_47.wav,0,peel,240,27,5,5,français,f,6,0.6,-43.16759163,1.62546743
5cfd119645e1a20001883ee6,57,1,2024-02-28T14:35:37.207Z,english_47.wav,0,peel,240,27,5,5,français,f,7,0.7,-66.57434159,1.04862791
5cfd119645e1a20001883ee6,57,1,2024-02-28T14:35:37.207Z,english_47.wav,0,peel,240,27,5,5,français,f,8,0.8,28.48495109,1.96555665
5cfd119645e1a20001883ee6,57,1,2024-02-28T14:35:37.207Z,english_47.wav,0,peel,240,27,5,5,français,f,9,0.9,-2.22339421,1.0927937
5cfd119645e1a20001883ee6,57,1,2024-02-28T14:35:37.207Z,english_47.wav,0,peel,240,27,5,5,français,f,10,1.0,-87.95517187,0.42699379
5cfd119645e1a20001883ee6,57,1,2024-02-28T14:35:37.207Z,english_47.wav,0,peel,240,27,5,5,français,f,11,1.09391667,64.08418893,1.59110451
5cfd119645e1a20001883ee6,58,1,2024-02-28T14:35:37.207Z,english_360.wav,0,peel,315,27,5,5,français,f,0,0.0,-18.06250331,0.74392756
5cfd119645e1a20001883ee6,58,1,2024-02-28T14:35:37.207Z,english_360.wav,0,peel,315,27,5,5,français,f,1,0.1,-60.78778271,0.33295665
5cfd119645e1a20001883ee6,58,1,2024-02-28T14:35:37.207Z,english_360.wav,0,peel,315,27,5,5,français,f,2,0.2,64.58604958,0.59589568
5cfd119645e1a20001883ee6,58,1,2024-02-28T14:35:37.207Z,english_360.wav,0,peel,315,27,5,5,français,f,3,0.3,15.14883939,1.76245157
5cfd119645e1a20001883ee6,58,1,2024-02-28T14:35:37.207Z,english_360.wav,0,peel,315,27,5,5,français,f,4,0.4,35.32268856,1.62745171
5cfd119645e1a20001883ee6,58,1,2024-02-28T14:35:37.207Z,english_360.wav,0,peel,315,27,5,5,français,f,5,0.5,85.60433583,0.48465
5cfd119645e1a20001883ee6,58,1,2024-02-28T14:35:37.207Z,english_360.wav,0,peel,315,27,5,5,français,f,6,0.6,-60.74616214,0.94927774
5cfd119645e1a20001883ee6,58,1,2024-02-28T14:35:37.207Z,english_360.wav,0,peel,315,27,5,5,français,f,7,0.7,93.69417602,1.65570249
5cfd119645e1a20001883ee6,58,1,2024-02-28T14:35:37.207Z,english_360.wav,0,peel,315,27,5,5,français,f,8,0.8,16.46151858,1.54593081
5cfd119645e1a20001883ee6,58,1,2024-02-28T14:35:37.207Z,english_360.wav,0,peel,315,27,5,5,français,f,9,0.9,58.0175924,0.34320104
5cfd119645e1a20001883ee6,58,1,2024-02-28T14:35:37.207Z,english_360.wav,0,peel,315,27,5,5,français,f,10,1.0,51.01229948,0.20094936
5cfd119645e1a20001883ee6,58,1,2024-02-28T14:35:37.207Z,english_360.wav,0,peel,315,27,5,5,français,f,11,1.09391667,19.14891505,0.69882977
5cfd119645e1a20001883ee6,59,1,2024-02-28T14:35:37.207Z,english_251.wav,0,peel,290,27,5,5,français,f,0,0.0,-93.03805102,1.12342723
5cfd119645e1a20001883ee6,59,1,2024-02-28T14:35:37.207Z,english_251.wav,0,peel,290,27,5,5,français,f,1,0.1,51.2655571,1.9149468
5cfd119645e1a20001883ee6,59,1,2024-02-28T14:35:37.207Z,english_251.wav,0,peel,290,27,5,5,français,f,2,0.2,37.58283666,1.73876516
5cfd119645e1a20001883ee6,59,1,2024-02-28T14:35:37.207Z,english_251.wav,0,peel,290,27,5,5,français,f,3,0.3,-55.53133441,1.01047504
5cfd119645e1a20001883ee6,59,1,2024-02-28T14:35:37.207Z,english_251.wav,0,peel,290,27,5,5,français,f,4,0.4,98.21602679,0.87048418
5cfd119645e1a20001883ee6,59,1,2024-02-28T14:35:37.207Z,english_251.wav,0,peel,290,27,5,5,français,f,5,0.5,-85.24256095,1.77281536
5cfd119645e1a20001883ee6,59,1,2024-02-28T14:35:37.207Z,english_251.wav,0,peel,290,27,5,5,français,f,6,0.6,-76.0460332,1.29741372
5cfd119645e1a20001883ee6,59,1,2024-02-28T14:35:37.207Z,english_251.wav,0,peel,290,27,5,5,français,f,7,0.7,26.51950349,0.41684213
5cfd119645e1a20001883ee6,59,1,2024-02-28T14:35:37.207Z,english_251.wav,0,peel,290,27,5,5,français,f,8,0.8,-37.24987979,1.13690271
5cfd119645e1a20001883ee6,59,1,2024-02-28T14:35:37.207Z,english_251.wav,0,peel,290,27,5,5,français,f,9,0.9,-60.42287441,1.00770315
5cfd119645e1a20001883ee6,59,1,2024-02-28T14:35:37.207Z,english_251.wav,0,peel,290,27,5,5,français,f,10,1.0,31.01216571,0.51077747
5cfd119645e1a20001883ee6,59,1,2024-02-28T14:35:37.207Z,english_251.wav,0,peel,290,27,5,5,français,f,11,1.09391667,74.35472995,0.89311028
5cfd119645e1a20001883ee6,60,1,2024-02-28T14:35:37.207Z,english_113.wav,0,peel,329,27,5,5,français,f,0,0.0,15.28166422,0.55667307
5cfd119645e1a20001883ee6,60,1,2024-02-28T14:35:37.207Z,english_113.wav,0,peel,329,27,5,5,français,f,1,0.1,47.09879561,0.58592964
5cfd119645e1a20001883ee6,60,1,2024-02-28T14:35:37.207Z,english_113.wav,0,peel,329,27,5,5,français,f,2,0.2,30.55065419,1.23790542
5cfd119645e1a20001883ee6,60,1,2024-02-28T14:35:37.207Z,english_113.wav,0,peel,329,27,5,5,français,f,3,0.3,60.74459651,0.97364291
5cfd119645e1a20001883ee6,60,1,2024-02-28T14:35:37.207Z,english_113.wav,0,peel,329,27,5,5,français,f,4,0.4,-80.73338373,0.01252312
5cfd119645e1a20001883ee6,60,1,2024-02-28T14:35:37.207Z,english_113.wav,0,peel,329,27,5,5,français,f,5,0.5,-58.25545597,0.68334247
5cfd119645e1a20001883ee6,60,1,2024-02-28T14:35:37.207Z,english_113.wav,0,peel,329,27,5,5,français,f,6,0.6,82.81118061,0.36908508
5cfd119645e1a20001883ee6,60,1,2024-02-28T14:35:37.207Z,english_113.wav,0,peel,329,27,5,5,français,f,7,0.7,-61.4933419,0.9756346
5cfd119645e1a20001883ee6,60,1,2024-02-28T14:35:37.207Z,english_113.wav,0,peel,329,27,5,5,français,f,8,0.8,15.22379089,1.72445689
5cfd119645e1a20001883ee6,60,1,2024-02-28T14:35:37.207Z,english_113.wav,0,peel,329,27,5,5,français,f,9,0.9,-30.23460484,0.62749292
5cfd119645e1a20001883ee6,60,1,2024-02-28T14:35:37.207Z,english_113.wav,0,peel,329,27,5,5,français,f,10,1.0,29.92994598,0.55530103
5cfd119645e1a20001883ee6,60,1,2024-02-28T14:35:37.207Z,english_113.wav,0,peel,329,27,5,5,français,f,11,1.09391667,22.43308389,0.65235156
5cfd119645e1a20001883ee6,61,1,2024-02-28T14:35:37.207Z,english_956.wav,0,peel,151,27,5,5,français,f,0,0.0,-69.56603744,1.25885793
5cfd119645e1a20001883ee6,61,1,2024-02-28T14:35:37.207Z,english_956.wav,0,peel,151,27,5,5,français,f,1,0.1,-25.37186141,1.06466306
5cfd119645e1a20001883ee6,61,1,2024-02-28T14:35:37.207Z,english_956.wav,0,peel,151,27,5,5,français,f,2,0.2,27.97650052,0.94194041
5cfd119645e1a20001883ee6,61,1,2024-02-28T14:35:37.207Z,english_956.wav,0,peel,151,27,5,5,français,f,3,0.3,-27.59550019,1.53569938
5cfd119645e1a20001883ee6,61,1,2024-02-28T14:35:37.207Z,english_956.wav,0,peel,151,27,5,5,français,f,4,0.4,-92.97950526,1.85243798
5cfd119645e1a20001883ee6,61,1,2024-02-28T14:35:37.207Z,english_956.wav,0,peel,151,27,5,5,français,f,5,0.5,38.52785923,1.85210152
5cfd119645e1a20001883ee6,61,1,2024-02-28T14:35:37.207Z,english_956.wav,0,peel,151,27,5,5,français,f,6,0.6,10.83790673,0.63562422
5cfd119645e1a20001883ee6,61,1,2024-02-28T14:35:37.207Z,english_956.wav,0,peel,151,27,5,5,français,f,7,0.7,-7.44647917,1.69096149
5cfd119645e1a20001883ee6,61,1,2024-02-28T14:35:37.207Z,english_956.wav,0,peel,151,27,5,5,français,f,8,0.8,21.12716208,0.44450575
5cfd119645e1a20001883ee6,61,1,2024-02-28T14:35:37.207Z,english_956.wav,0,peel,151,27,5,5,français,f,9,0.9,68.89451613,0.92187191
5cfd119645e1a20001883ee6,61,1,2024-02-28T14:35:37.207Z,english_956.wav,0,peel,151,27,5,5,français,f,10,1.0,40.53084536,1.63644611
5cfd119645e1a20001883ee6,61,1,2024-02-28T14:35:37.207Z,english_956.wav,0,peel,151,27,5,5,français,f,11,1.09391667,63.98453991,0.57157091
5cfd119645e1a20001883ee6,62,1,2024-02-28T14:35:37.207Z,english_462.wav,0,peel,299,27,5,5,français,f,0,0.0,78.76621738,0.83121963
5cfd119645e1a20001883ee6,62,1,2024-02-28T14:35:37.207Z,english_462.wav,0,peel,299,27,5,5,français,f,1,0.1,31.47495931,1.43506309
5cfd119645e1a20001883ee6,62,1,2024-02-28T14:35:37.207Z,english_462.wav,0,peel,299,27,5,5,français,f,2,0.2,-13.74936046,0.97721307
5cfd119645e1a20001883ee6,62,1,2024-02-28T14:35:37.207Z,english_462.wav,0,peel,299,27,5,5,français,f,3,0.3,-80.17251448,0.92562125
5cfd119645e1a20001883ee6,62,1,2024-02-28T14:35:37.207Z,english_462.wav,0,peel,299,27,5,5,français,f,4,0.4,-78.67939132,0.04016866
5cfd119645e1a20001883ee6,62,1,2024-02-28T14:35:37.207Z,english_462.wav,0,peel,299,27,5,5,français,f,5,0.5,43.51355655,0.46288791
5cfd119645e1a20001883ee6,62,1,2024-02-28T14:35:37.207Z,english_462.wav,0,peel,299,27,5,5,français,f,6,0.6,3.64631971,1.76703425
5cfd119645e1a20001883ee6,62,1,2024-02-28T14:35:37.207Z,english_462.wav,0,peel,299,27,5,5,français,f,7,0.7,-45.69022839,1.40353438
5cfd119645e1a20001883ee6,62,1,2024-02-28T14:35:37.207Z,english_462.wav,0,peel,299,27,5,5,français,f,8,0.8,-12.47954209,0.01443424
5cfd119645e1a20001883ee6,62,1,2024-02-28T14:35:37.207Z,english_462.wav,0,peel,299,27,5,5,français,f,9,0.9,-13.33411056,0.75223744
5cfd119645e1a20001883ee6,62,1,2024-02-28T14:35:37.207Z,english_462.wav,0,peel,299,27,5,5,français,f,10,1.0,14.72637348,0.69611535
5cfd119645e1a20001883ee6,62,1,2024-02-28T14:35:37.207Z,english_462.wav,0,peel,299,27,5,5,français,f,11,1.09391667,-47.88617719,0.81633503
5cfd119645e1a20001883ee6,63,1,2024-02-28T14:35:37.207Z,english_859.wav,0,peel,317,27,5,5,français,f,0,0.0,31.07114651,1.62014662
5cfd119645e1a20001883ee6,63,1,2024-02-28T14:35:37.207Z,english_859.wav,0,peel,317,27,5,5,français,f,1,0.1,-28.29036268,0.23536516
5cfd119645e1a20001883ee6,63,1,2024-02-28T14:35:37.207Z,english_859.wav,0,peel,317,27,5,5,français,f,2,0.2,-99.32977332,1.20919843
5cfd119645e1a20001883ee6,63,1,2024-02-28T14:35:37.207Z,english_859.wav,0,peel,317,27,5,5,français,f,3,0.3,24.56403326,1.87022771
5cfd119645e1a20001883ee6,63,1,2024-02-28T14:35:37.207Z,english_859.wav,0,peel,317,27,5,5,français,f,4,0.4,13.96924155,1.25340901
5cfd119645e1a20001883ee6,63,1,2024-02-28T14:35:37.207Z,english_859.wav,0,peel,317,27,5,5,français,f,5,0.5,-7.10648456,1.24145487
5cfd119645e1a20001883ee6,63,1,2024-02-28T14:35:37.207Z,english_859.wav,0,peel,317,27,5,5,français,f,6,0.6,16.2139947,0.16688969
5cfd119645e1a20001883ee6,63,1,2024-02-28T14:35:37.207Z,english_859.wav,0,peel,317,27,5,5,français,f,7,0.7,-63.09488954,1.9877967
5cfd119645e1a20001883ee6,63,1,2024-02-28T14:35:37.207Z,english_859.wav,0,peel,317,27,5,5,français,f,8,0.8,32.97149002,1.05528454
5cfd119645e1a20001883ee6,63,1,2024-02-28T14:35:37.207Z,english_859.wav,0,peel,317,27,5,5,français,f,9,0.9,73.86440675,1.04254929
5cfd119645e1a20001883ee6,63,1,2024-02-28T14:35:37.207Z,english_859.wav,0,peel,317,27,5,5,français,f,10,1.0,18.08685772,0.40355025
5cfd119645e1a20001883ee6,63,1,2024-02-28T14:35:37.207Z,english_859.wav,0,peel,317,27,5,5,français,f,11,1.09391667,63.56526174,1.52495745
5cfd119645e1a20001883ee6,64,1,2024-02-28T14:35:37.207Z,english_494.wav,0,peel,355,27,5,5,français,f,0,0.0,-0.71105911,1.19698802
5cfd119645e1a20001883ee6,64,1,2024-02-28T14:35:37.207Z,english_494.wav,0,peel,355,27,5,5,français,f,1,0.1,-4.76372759,0.64302423
