subj,sex,age,language,english,french,native_lang,date,practice,block,trial,stim,pitch,stretch,response,rt
8749218289,f,19,french,4,5,french,2024-02-01 10:33:05.924446,True,0,0,sounds\english\audio/english_455.wav,"[[  0.          26.42834913]
 [  0.1         -7.65720218]
 [  0.2        -36.03524122]
 [  0.3         -9.36591816]
 [  0.4         74.01503077]
 [  0.5        -66.92719297]
 [  0.6        -30.7057444 ]
 [  0.7         40.84752834]
 [  0.8         15.65936383]
 [  0.9        -13.21472975]
 [  1.          44.82999828]
 [  1.09391667 -79.02570563]]","[[0.         1.62221941]
 [0.1        1.46036611]
 [0.2        1.24406571]
 [0.3        1.98304613]
 [0.4        0.42616314]
 [0.5        0.24476163]
 [0.6        1.77552442]
 [0.7        1.05242247]
 [0.8        0.70330742]
 [0.9        0.60059781]
 [1.         0.40485906]
 [1.09391667 1.70610938]]",0,4.889
8749218289,f,19,french,4,5,french,2024-02-01 10:33:05.924446,True,0,1,sounds\english\audio/english_641.wav,"[[  0.         -56.87244415]
 [  0.1        -25.32063716]
 [  0.2         -5.88353384]
 [  0.3         35.0793016 ]
 [  0.4        -54.26160262]
 [  0.5        -96.41482633]
 [  0.6         34.31473412]
 [  0.7         51.96003607]
 [  0.8        -33.45212271]
 [  0.9        -60.40755471]
 [  1.         -61.65050267]
 [  1.09391667 -31.34713696]]","[[0.         1.15062728]
 [0.1        1.3865292 ]
 [0.2        0.86586276]
 [0.3        0.52496071]
 [0.4        1.18035907]
 [0.5        0.99701793]
 [0.6        1.64172116]
 [0.7        0.67765657]
 [0.8        0.80691049]
 [0.9        0.17932902]
 [1.         0.69415745]
 [1.09391667 0.80800103]]",1,0.946
8749218289,f,19,french,4,5,french,2024-02-01 10:33:05.924446,True,0,2,sounds\english\audio/english_315.wav,"[[  0.          20.11963367]
 [  0.1        -30.87144334]
 [  0.2         39.10248869]
 [  0.3        -19.08604714]
 [  0.4         90.41461318]
 [  0.5        -82.87118979]
 [  0.6        -12.30252898]
 [  0.7          9.37098005]
 [  0.8        -86.3809894 ]
 [  0.9          2.03064205]
 [  1.          99.30710259]
 [  1.09391667  58.65294367]]","[[0.         1.15782854]
 [0.1        1.37599817]
 [0.2        1.4514196 ]
 [0.3        1.32135016]
 [0.4        1.69132556]
 [0.5        0.65296677]
 [0.6        1.40058812]
 [0.7        0.87815256]
 [0.8        0.15444706]
 [0.9        1.46097728]
 [1.         0.37640447]
 [1.09391667 1.18518174]]",0,0.988
8749218289,f,19,french,4,5,french,2024-02-01 10:33:05.924446,False,1,3,sounds\english\audio/english_159.wav,"[[  0.         -27.71132793]
 [  0.1          5.67043956]
 [  0.2        -56.04116861]
 [  0.3        -60.647669  ]
 [  0.4        -31.28235293]
 [  0.5        -41.95968639]
 [  0.6        -46.83352467]
 [  0.7         -6.87168688]
 [  0.8        -38.22542966]
 [  0.9         29.71030145]
 [  1.         -44.77576274]
 [  1.09391667  46.77490147]]","[[0.         0.45552689]
 [0.1        1.85865221]
 [0.2        1.36292014]
 [0.3        0.8196748 ]
 [0.4        1.14454104]
 [0.5        0.2708192 ]
 [0.6        0.67466027]
 [0.7        0.75914602]
 [0.8        0.8772758 ]
 [0.9        1.24753926]
 [1.         1.52106538]
 [1.09391667 1.15996843]]",1,0.607
8749218289,f,19,french,4,5,french,2024-02-01 10:33:05.924446,False,1,4,sounds\english\audio/english_992.wav,"[[  0.          -5.15788791]
 [  0.1         87.86739991]
 [  0.2        -74.96538965]
 [  0.3         51.5508712 ]
 [  0.4         55.84577921]
 [  0.5        -73.81356171]
 [  0.6        -70.33946252]
 [  0.7        -76.12910815]
 [  0.8        -38.0545779 ]
 [  0.9         -5.26509044]
 [  1.          33.43231637]
 [  1.09391667 -37.46452433]]","[[0.         0.02044401]
 [0.1        0.14748193]
 [0.2        1.08794539]
 [0.3        1.90839795]
 [0.4        0.11098659]
 [0.5        1.14044774]
 [0.6        0.24836029]
 [0.7        1.64559676]
 [0.8        1.57501427]
 [0.9        0.82338834]
 [1.         0.44386037]
 [1.09391667 0.70783957]]",1,0.865
8749218289,f,19,french,4,5,french,2024-02-01 10:33:05.924446,False,1,5,sounds\english\audio/english_602.wav,"[[  0.          68.03651569]
 [  0.1         45.80270737]
 [  0.2         40.05084495]
 [  0.3         48.64089828]
 [  0.4         24.15305268]
 [  0.5         51.63059478]
 [  0.6         84.11339373]
 [  0.7         22.39119116]
 [  0.8        -41.26651668]
 [  0.9         -2.28056387]
 [  1.         -50.54956883]
 [  1.09391667 -93.08298628]]","[[0.         0.44361931]
 [0.1        1.54062364]
 [0.2        1.57634207]
 [0.3        0.03645506]
 [0.4        1.06145672]
 [0.5        0.59279659]
 [0.6        1.68063549]
 [0.7        0.09041329]
 [0.8        1.8261536 ]
 [0.9        1.1974799 ]
 [1.         1.84366918]
 [1.09391667 1.00091384]]",1,0.6
8749218289,f,19,french,4,5,french,2024-02-01 10:33:05.924446,False,1,6,sounds\english\audio/english_443.wav,"[[  0.          81.96165797]
 [  0.1        -28.05483683]
 [  0.2        -21.59346314]
 [  0.3          1.08429848]
 [  0.4         21.43423257]
 [  0.5         75.67535371]
 [  0.6        -12.42326874]
 [  0.7        -43.03784954]
 [  0.8        -95.88108409]
 [  0.9          5.88501358]
 [  1.         -74.23415878]
 [  1.09391667 -13.77398798]]","[[0.         0.75557645]
 [0.1        1.24238721]
 [0.2        1.29479034]
 [0.3        1.78084003]
 [0.4        0.20990132]
 [0.5        0.69063729]
 [0.6        1.52523801]
 [0.7        1.69469222]
 [0.8        1.5231422 ]
 [0.9        0.01978813]
 [1.         0.32318558]
 [1.09391667 1.99092699]]",0,0.684
8749218289,f,19,french,4,5,french,2024-02-01 10:33:05.924446,False,1,7,sounds\english\audio/english_299.wav,"[[  0.         -74.4174694 ]
 [  0.1         67.95279973]
 [  0.2        -39.20846612]
 [  0.3         75.10442899]
 [  0.4         64.17156696]
 [  0.5        -42.38450544]
 [  0.6        -86.29317574]
 [  0.7         11.40905892]
 [  0.8         13.2984643 ]
 [  0.9        -36.56440039]
 [  1.         -93.57212319]
 [  1.09391667  13.37429031]]","[[0.         1.88606728]
 [0.1        1.33791825]
 [0.2        1.49728268]
 [0.3        0.10286405]
 [0.4        0.88852199]
 [0.5        0.77437708]
 [0.6        1.38211023]
 [0.7        1.00427558]
 [0.8        1.53256025]
 [0.9        1.00789046]
 [1.         0.84413966]
 [1.09391667 1.54480909]]",1,1.271
8749218289,f,19,french,4,5,french,2024-02-01 10:33:05.924446,False,1,8,sounds\english\audio/english_459.wav,"[[  0.          18.44381796]
 [  0.1         46.92875809]
 [  0.2         -3.83763253]
 [  0.3        -48.73372346]
 [  0.4        -14.92000294]
 [  0.5         80.1348202 ]
 [  0.6        -86.26167397]
 [  0.7         -1.56579515]
 [  0.8        -19.43568929]
 [  0.9          7.94105636]
 [  1.          85.15006258]
 [  1.09391667 -33.12026838]]","[[0.         0.62620118]
 [0.1        1.02677372]
 [0.2        0.887778  ]
 [0.3        0.9749461 ]
 [0.4        0.21389959]
 [0.5        0.5331643 ]
 [0.6        0.89101651]
 [0.7        1.30262719]
 [0.8        1.62880583]
 [0.9        1.73371658]
 [1.         0.16404372]
 [1.09391667 1.85143865]]",1,0.439
8749218289,f,19,french,4,5,french,2024-02-01 10:33:05.924446,False,1,9,sounds\english\audio/english_150.wav,"[[  0.         -50.54232549]
 [  0.1         34.32153656]
 [  0.2        -10.92395048]
 [  0.3         53.72738624]
 [  0.4         62.41801081]
 [  0.5        -32.60317387]
 [  0.6        -14.80411838]
 [  0.7         55.20966729]
 [  0.8        -74.0684305 ]
 [  0.9         -4.87965611]
 [  1.         -79.50813125]
 [  1.09391667  24.9492826 ]]","[[0.         1.16258998]
 [0.1        0.79689364]
 [0.2        0.16790755]
 [0.3        0.35039588]
 [0.4        0.24836215]
 [0.5        0.38408886]
 [0.6        0.47894499]
 [0.7        1.81942338]
 [0.8        1.36079379]
 [0.9        1.63972786]
 [1.         1.65428446]
 [1.09391667 1.31063675]]",1,1.054
8749218289,f,19,french,4,5,french,2024-02-01 10:33:05.924446,False,1,10,sounds\english\audio/english_787.wav,"[[  0.          75.50983857]
 [  0.1         -1.58249906]
 [  0.2          3.57353021]
 [  0.3        -99.77057176]
 [  0.4        -38.99568239]
 [  0.5         15.30754913]
 [  0.6        -97.41525775]
 [  0.7         39.01293018]
 [  0.8         42.79848726]
 [  0.9          9.93276614]
 [  1.         -95.01180619]
 [  1.09391667 -15.9004552 ]]","[[0.         0.8452738 ]
 [0.1        0.76339694]
 [0.2        0.25803741]
 [0.3        1.65296212]
 [0.4        1.74214563]
 [0.5        0.91821048]
 [0.6        1.20673022]
 [0.7        1.21324632]
 [0.8        1.47465653]
 [0.9        0.97625714]
 [1.         1.17241626]
 [1.09391667 0.99284929]]",0,0.579
8749218289,f,19,french,4,5,french,2024-02-01 10:33:05.924446,False,1,11,sounds\english\audio/english_118.wav,"[[  0.          37.82351895]
 [  0.1        -67.70818615]
 [  0.2         68.69944334]
 [  0.3         52.36371426]
 [  0.4         75.26535893]
 [  0.5        -76.41094454]
 [  0.6          0.45465547]
 [  0.7         55.44753482]
 [  0.8        -53.17394643]
 [  0.9        -98.70911392]
 [  1.          -4.73000909]
 [  1.09391667 -39.29610214]]","[[0.         1.3762948 ]
 [0.1        0.33841533]
 [0.2        0.45852716]
 [0.3        1.7289391 ]
 [0.4        1.37893215]
 [0.5        1.61108602]
 [0.6        0.84685901]
 [0.7        1.08403972]
 [0.8        0.42004792]
 [0.9        0.56823128]
 [1.         1.43622179]
 [1.09391667 1.0044269 ]]",1,0.746
8749218289,f,19,french,4,5,french,2024-02-01 10:33:05.924446,False,1,12,sounds\english\audio/english_53.wav,"[[  0.          -9.98510741]
 [  0.1         90.79697624]
 [  0.2        -13.66139315]
 [  0.3        -58.03832427]
 [  0.4        -14.2879771 ]
 [  0.5         -9.92334291]
 [  0.6         48.00852586]
 [  0.7         -7.96828411]
 [  0.8          3.91211897]
 [  0.9          9.32007469]
 [  1.         -65.1483507 ]
 [  1.09391667 -31.85609608]]","[[0.         0.74460472]
 [0.1        1.15408397]
 [0.2        1.79328536]
 [0.3        1.05093724]
 [0.4        0.44247057]
 [0.5        0.88826362]
 [0.6        1.51515328]
 [0.7        1.78598668]
 [0.8        0.80456615]
 [0.9        0.44108586]
 [1.         1.43639609]
 [1.09391667 1.915162  ]]",1,0.389
8749218289,f,19,french,4,5,french,2024-02-01 10:33:05.924446,False,1,13,sounds\english\audio/english_555.wav,"[[  0.         -34.01174322]
 [  0.1        -25.89446117]
 [  0.2         75.37641555]
 [  0.3          3.6750175 ]
 [  0.4        -77.72739176]
 [  0.5        -17.06538868]
 [  0.6        -37.567139  ]
 [  0.7        -79.94552452]
 [  0.8         29.48505151]
 [  0.9        -58.857953  ]
 [  1.         -46.0054019 ]
 [  1.09391667 -89.97133458]]","[[0.         1.1718484 ]
 [0.1        1.62544238]
 [0.2        1.85861965]
 [0.3        1.93143492]
 [0.4        0.30173375]
 [0.5        1.28363733]
 [0.6        0.51060309]
 [0.7        0.80092252]
 [0.8        1.44732027]
 [0.9        0.65157835]
 [1.         1.65986599]
 [1.09391667 1.34311871]]",1,0.257
8749218289,f,19,french,4,5,french,2024-02-01 10:33:05.924446,False,1,14,sounds\english\audio/english_645.wav,"[[  0.          74.20759592]
 [  0.1        -91.348614  ]
 [  0.2        -47.07053841]
 [  0.3         14.8093439 ]
 [  0.4         46.9338314 ]
 [  0.5         39.7428535 ]
 [  0.6        -23.36569069]
 [  0.7         45.91971916]
 [  0.8         32.42791759]
 [  0.9          1.19876254]
 [  1.         -40.71182661]
 [  1.09391667  -1.61863293]]","[[0.         0.3722502 ]
 [0.1        0.72135633]
 [0.2        1.09022513]
 [0.3        0.23360297]
 [0.4        1.81978529]
 [0.5        0.50068107]
 [0.6        1.21791048]
 [0.7        0.53153165]
 [0.8        1.47100285]
 [0.9        1.64053241]
 [1.         1.74926312]
 [1.09391667 1.77861775]]",1,0.417
8749218289,f,19,french,4,5,french,2024-02-01 10:33:05.924446,False,1,15,sounds\english\audio/english_483.wav,"[[  0.          81.48477159]
 [  0.1        -89.60480044]
 [  0.2         34.01203533]
 [  0.3        -53.73578063]
 [  0.4         84.54249603]
 [  0.5        -37.49389681]
 [  0.6         15.30386948]
 [  0.7        -61.92265371]
 [  0.8         -8.76713856]
 [  0.9        -10.35003035]
 [  1.          30.44811047]
 [  1.09391667  58.404663  ]]","[[0.         0.74240463]
 [0.1        0.55858717]
 [0.2        0.25858635]
 [0.3        0.09361457]
 [0.4        1.33981299]
 [0.5        0.4736205 ]
 [0.6        0.19064795]
 [0.7        0.85022642]
 [0.8        0.89668703]
 [0.9        0.92354333]
 [1.         0.32093747]
 [1.09391667 0.85640019]]",1,0.469
8749218289,f,19,french,4,5,french,2024-02-01 10:33:05.924446,False,1,16,sounds\english\audio/english_865.wav,"[[  0.          86.1163895 ]
 [  0.1         69.95513589]
 [  0.2        -13.94671811]
 [  0.3        -33.10342907]
 [  0.4        -76.59504937]
 [  0.5         -3.51899048]
 [  0.6         30.42015795]
 [  0.7        -55.73707392]
 [  0.8         54.32986928]
 [  0.9        -94.25719672]
 [  1.          52.44088275]
 [  1.09391667 -37.34958779]]","[[0.         0.19420048]
 [0.1        1.46581666]
 [0.2        1.09876795]
 [0.3        0.83580859]
 [0.4        0.7375784 ]
 [0.5        1.73720254]
 [0.6        0.47612768]
 [0.7        0.34287239]
 [0.8        1.39046848]
 [0.9        0.32361365]
 [1.         0.4960331 ]
 [1.09391667 0.90913699]]",1,0.722
8749218289,f,19,french,4,5,french,2024-02-01 10:33:05.924446,False,1,17,sounds\english\audio/english_354.wav,"[[  0.         -28.87420486]
 [  0.1        -23.35112853]
 [  0.2          5.36311679]
 [  0.3         88.42745553]
 [  0.4          2.47520697]
 [  0.5         46.1200008 ]
 [  0.6        -18.78131858]
 [  0.7        -50.4047441 ]
 [  0.8         70.60844452]
 [  0.9        -79.1017332 ]
 [  1.         -66.82350364]
 [  1.09391667 -48.20226443]]","[[0.         0.20754018]
 [0.1        1.88177303]
 [0.2        1.60863404]
 [0.3        0.83478671]
 [0.4        1.51310965]
 [0.5        1.04317866]
 [0.6        0.09474749]
 [0.7        1.6889762 ]
 [0.8        0.35231613]
 [0.9        0.20561504]
 [1.         0.40462269]
 [1.09391667 0.51831425]]",1,0.531
8749218289,f,19,french,4,5,french,2024-02-01 10:33:05.924446,False,1,18,sounds\english\audio/english_735.wav,"[[  0.          45.17443614]
 [  0.1         47.16225486]
 [  0.2         15.3532987 ]
 [  0.3        -43.81061568]
 [  0.4         83.17284614]
 [  0.5         60.7769414 ]
 [  0.6        -66.30411683]
 [  0.7         76.89695455]
 [  0.8         67.53178197]
 [  0.9         52.8137554 ]
 [  1.         -86.58423276]
 [  1.09391667  98.32439456]]","[[0.         1.05701846]
 [0.1        0.44895522]
 [0.2        0.19506386]
 [0.3        0.99480529]
 [0.4        0.46252356]
 [0.5        1.45908064]
 [0.6        0.86428301]
 [0.7        1.14188193]
 [0.8        1.15486393]
 [0.9        1.55511006]
 [1.         0.92101672]
 [1.09391667 1.0777974 ]]",1,0.405
8749218289,f,19,french,4,5,french,2024-02-01 10:33:05.924446,False,1,19,sounds\english\audio/english_444.wav,"[[  0.         -22.35255086]
 [  0.1        -38.39735659]
 [  0.2         81.84483339]
 [  0.3         89.66951187]
 [  0.4         78.72815519]
 [  0.5        -52.70100407]
 [  0.6        -16.77558941]
 [  0.7         74.67924026]
 [  0.8         58.06859333]
 [  0.9         62.1778936 ]
 [  1.         -11.97095728]
 [  1.09391667  61.96058284]]","[[0.         1.17037243]
 [0.1        0.80831945]
 [0.2        1.07936497]
 [0.3        1.80338122]
 [0.4        1.1980111 ]
 [0.5        1.57414757]
 [0.6        1.54546577]
 [0.7        0.86646901]
 [0.8        1.76340154]
 [0.9        1.16134605]
 [1.         0.83068954]
 [1.09391667 1.94365144]]",1,0.825
8749218289,f,19,french,4,5,french,2024-02-01 10:33:05.924446,False,1,20,sounds\english\audio/english_764.wav,"[[  0.         -83.00734362]
 [  0.1         84.10171544]
 [  0.2         49.2008901 ]
 [  0.3        -10.6841825 ]
 [  0.4         -4.51825693]
 [  0.5         13.05855171]
 [  0.6        -89.35484482]
 [  0.7         31.98534685]
 [  0.8        -75.69390241]
 [  0.9         27.20832849]
 [  1.          56.31930051]
 [  1.09391667 -35.91935055]]","[[0.00000000e+00 1.43154352e+00]
 [1.00000000e-01 1.56325347e+00]
 [2.00000000e-01 1.26543708e+00]
 [3.00000000e-01 4.23798415e-01]
 [4.00000000e-01 1.27376863e+00]
 [5.00000000e-01 7.58380694e-01]
 [6.00000000e-01 1.00351200e-03]
 [7.00000000e-01 8.99071383e-01]
 [8.00000000e-01 1.10287579e+00]
 [9.00000000e-01 1.25133293e+00]
 [1.00000000e+00 1.83305733e+00]
 [1.09391667e+00 1.51505239e+00]]",0,0.345
8749218289,f,19,french,4,5,french,2024-02-01 10:33:05.924446,False,1,21,sounds\english\audio/english_1.wav,"[[  0.          82.44203382]
 [  0.1        -30.17618245]
 [  0.2         29.86670871]
 [  0.3        -30.59558791]
 [  0.4        -47.57675763]
 [  0.5        -17.44773817]
 [  0.6        -73.86718122]
 [  0.7         70.17077277]
 [  0.8        -75.98538301]
 [  0.9        -57.43154571]
 [  1.          93.54956166]
 [  1.09391667 -19.42635274]]","[[0.         0.97617089]
 [0.1        0.62833649]
 [0.2        1.71628267]
 [0.3        1.57876253]
 [0.4        0.47000387]
 [0.5        0.87334438]
 [0.6        0.40526307]
 [0.7        1.31867186]
 [0.8        0.46239136]
 [0.9        0.66642176]
 [1.         0.4005644 ]
 [1.09391667 0.62556241]]",1,0.522
8749218289,f,19,french,4,5,french,2024-02-01 10:33:05.924446,False,1,22,sounds\english\audio/english_842.wav,"[[  0.         -81.72100022]
 [  0.1         18.84637506]
 [  0.2        -80.18621681]
 [  0.3         38.99509662]
 [  0.4         24.76840986]
 [  0.5        -19.71585535]
 [  0.6         69.03077802]
 [  0.7         35.91349986]
 [  0.8        -27.17447615]
 [  0.9        -26.64790606]
 [  1.          27.41987323]
 [  1.09391667  30.72990316]]","[[0.         1.05096469]
 [0.1        0.68369723]
 [0.2        1.52749806]
 [0.3        0.81526033]
 [0.4        1.70702662]
 [0.5        1.05576458]
 [0.6        0.15620837]
 [0.7        1.43624924]
 [0.8        0.34293919]
 [0.9        1.32305508]
 [1.         1.04384127]
 [1.09391667 1.55933633]]",1,0.364
8749218289,f,19,french,4,5,french,2024-02-01 10:33:05.924446,False,1,23,sounds\english\audio/english_647.wav,"[[  0.          54.52725229]
 [  0.1        -56.14693886]
 [  0.2         71.63132719]
 [  0.3        -23.02387172]
 [  0.4        -60.51376999]
 [  0.5        -64.57692494]
 [  0.6         46.96365994]
 [  0.7          2.340544  ]
 [  0.8        -11.6475953 ]
 [  0.9         62.71297866]
 [  1.         -48.91159538]
 [  1.09391667 -39.00416387]]","[[0.         1.1883546 ]
 [0.1        1.65081997]
 [0.2        1.02051213]
 [0.3        1.7000584 ]
 [0.4        0.62509688]
 [0.5        1.60189297]
 [0.6        1.40209494]
 [0.7        1.32470585]
 [0.8        1.16038123]
 [0.9        0.96037121]
 [1.         0.45954714]
 [1.09391667 1.53514393]]",1,0.425
8749218289,f,19,french,4,5,french,2024-02-01 10:33:05.924446,False,1,24,sounds\english\audio/english_976.wav,"[[  0.          -7.94823885]
 [  0.1         96.34184584]
 [  0.2        -33.68410723]
 [  0.3         71.00734619]
 [  0.4        -73.42321757]
 [  0.5         68.14494718]
 [  0.6         72.66069131]
 [  0.7        -46.1327141 ]
 [  0.8        -13.93014286]
 [  0.9         53.41967838]
 [  1.         -12.62377888]
 [  1.09391667  -9.46767518]]","[[0.         1.93996979]
 [0.1        0.68967214]
 [0.2        1.52037239]
 [0.3        0.92144072]
 [0.4        1.16805043]
 [0.5        0.75881772]
 [0.6        0.99023479]
 [0.7        1.21750342]
 [0.8        1.7476055 ]
 [0.9        1.87214478]
 [1.         0.1004517 ]
 [1.09391667 1.64660027]]",1,0.399
8749218289,f,19,french,4,5,french,2024-02-01 10:33:05.924446,False,1,25,sounds\english\audio/english_617.wav,"[[  0.          10.93227953]
 [  0.1        -59.2478864 ]
 [  0.2        -60.98157443]
 [  0.3        -98.20098641]
 [  0.4        -27.56878422]
 [  0.5        -16.62879698]
 [  0.6        -85.18504197]
 [  0.7         65.935133  ]
 [  0.8        -49.35852621]
 [  0.9        -79.82823856]
 [  1.         -43.72382152]
 [  1.09391667 -81.76136352]]","[[0.         0.72387338]
 [0.1        1.78831672]
 [0.2        0.6179467 ]
 [0.3        0.63320585]
 [0.4        0.42531965]
 [0.5        1.05036122]
 [0.6        1.22550457]
 [0.7        0.87185678]
 [0.8        1.19822477]
 [0.9        0.11933649]
 [1.         1.37889257]
 [1.09391667 0.25359551]]",1,0.491
8749218289,f,19,french,4,5,french,2024-02-01 10:33:05.924446,False,1,26,sounds\english\audio/english_758.wav,"[[  0.          44.67997232]
 [  0.1         27.10099403]
 [  0.2        -48.30493583]
 [  0.3        -73.5260898 ]
 [  0.4         19.32057449]
 [  0.5        -32.65273306]
 [  0.6        -67.58997162]
 [  0.7        -76.10184919]
 [  0.8         55.20632284]
 [  0.9          3.61347388]
 [  1.         -39.33689268]
 [  1.09391667  44.43004874]]","[[0.         1.19309781]
 [0.1        0.27221696]
 [0.2        0.58591156]
 [0.3        1.06118241]
 [0.4        1.53382291]
 [0.5        1.10934516]
 [0.6        1.53621874]
 [0.7        0.32907917]
 [0.8        0.47500698]
 [0.9        1.81944253]
 [1.         1.02148435]
 [1.09391667 0.12347796]]",0,1.617
8749218289,f,19,french,4,5,french,2024-02-01 10:33:05.924446,False,1,27,sounds\english\audio/english_416.wav,"[[  0.          82.43182744]
 [  0.1         53.03166004]
 [  0.2         97.51798843]
 [  0.3         29.41957171]
 [  0.4        -25.73379092]
 [  0.5        -41.53228359]
 [  0.6        -18.26850451]
 [  0.7         36.25947798]
 [  0.8          3.82481386]
 [  0.9         51.45810025]
 [  1.           0.92473006]
 [  1.09391667  18.75162815]]","[[0.         0.48127721]
 [0.1        0.55506125]
 [0.2        1.10002465]
 [0.3        0.46187328]
 [0.4        1.80124094]
 [0.5        1.29733702]
 [0.6        0.88634114]
 [0.7        0.74571926]
 [0.8        0.12319745]
 [0.9        1.56017106]
 [1.         1.11470687]
 [1.09391667 1.36917422]]",0,0.597
8749218289,f,19,french,4,5,french,2024-02-01 10:33:05.924446,False,1,28,sounds\english\audio/english_364.wav,"[[  0.          83.865778  ]
 [  0.1         63.76779424]
 [  0.2         76.73494008]
 [  0.3         63.04278033]
 [  0.4        -55.03833232]
 [  0.5         57.11242427]
 [  0.6         15.41108418]
 [  0.7          3.11298983]
 [  0.8         15.49246741]
 [  0.9        -76.70109977]
 [  1.          21.21406375]
 [  1.09391667  20.91306008]]","[[0.         0.64688834]
 [0.1        1.36525912]
 [0.2        0.98445588]
 [0.3        1.58126378]
 [0.4        1.2558055 ]
 [0.5        1.01407945]
 [0.6        1.72440997]
 [0.7        1.75247835]
 [0.8        0.306912  ]
 [0.9        1.65351594]
 [1.         0.67540521]
 [1.09391667 0.2382038 ]]",0,1.232
8749218289,f,19,french,4,5,french,2024-02-01 10:33:05.924446,False,1,29,sounds\english\audio/english_852.wav,"[[  0.         -72.43588369]
 [  0.1        -98.6251287 ]
 [  0.2        -89.42746768]
 [  0.3        -34.62530113]
 [  0.4         30.41205687]
 [  0.5          2.837509  ]
 [  0.6        -71.5278257 ]
 [  0.7         49.48057975]
 [  0.8         88.19174023]
 [  0.9         20.52660859]
 [  1.         -18.49679028]
 [  1.09391667  15.64652165]]","[[0.         0.36787591]
 [0.1        1.73505489]
 [0.2        1.62660713]
 [0.3        0.43311906]
 [0.4        0.44776213]
 [0.5        1.35793831]
 [0.6        0.32605315]
 [0.7        0.34111515]
 [0.8        1.45336533]
 [0.9        1.82703196]
 [1.         0.13003363]
 [1.09391667 0.89322684]]",1,0.306
8749218289,f,19,french,4,5,french,2024-02-01 10:33:05.924446,False,1,30,sounds\english\audio/english_223.wav,"[[  0.           3.75482412]
 [  0.1        -10.12746206]
 [  0.2        -71.88310124]
 [  0.3         57.69353131]
 [  0.4         -7.46282971]
 [  0.5         -4.62449416]
 [  0.6         37.75223181]
 [  0.7         14.07580733]
 [  0.8          7.873186  ]
 [  0.9        -15.37742922]
 [  1.          25.72603899]
 [  1.09391667  58.91699651]]","[[0.         0.48204307]
 [0.1        1.57422829]
 [0.2        1.46180987]
 [0.3        0.36455809]
 [0.4        1.50137994]
 [0.5        0.81971787]
 [0.6        0.40602656]
 [0.7        1.29724475]
 [0.8        0.55564049]
 [0.9        1.88260367]
 [1.         0.5343602 ]
 [1.09391667 1.60309461]]",1,0.531
8749218289,f,19,french,4,5,french,2024-02-01 10:33:05.924446,False,1,31,sounds\english\audio/english_59.wav,"[[  0.          13.6818357 ]
 [  0.1        -62.28772111]
 [  0.2         49.12418905]
 [  0.3        -11.37021527]
 [  0.4        -54.18333873]
 [  0.5         89.00177849]
 [  0.6        -39.13145847]
 [  0.7         -8.40184911]
 [  0.8        -34.91016987]
 [  0.9         92.47037208]
 [  1.          91.56160698]
 [  1.09391667 -64.52293265]]","[[0.         1.39102809]
 [0.1        1.7641323 ]
 [0.2        1.93370096]
 [0.3        1.41546104]
 [0.4        1.8712645 ]
 [0.5        1.58142361]
 [0.6        1.31038649]
 [0.7        1.79881342]
 [0.8        0.00761053]
 [0.9        0.77279167]
 [1.         0.86326769]
 [1.09391667 1.19458968]]",1,0.334
8749218289,f,19,french,4,5,french,2024-02-01 10:33:05.924446,False,1,32,sounds\english\audio/english_23.wav,"[[  0.         -81.37820874]
 [  0.1         78.5335862 ]
 [  0.2          2.49490295]
 [  0.3        -86.79579175]
 [  0.4         67.70163639]
 [  0.5         15.95354821]
 [  0.6         39.96363373]
 [  0.7         26.12658962]
 [  0.8        -97.91039736]
 [  0.9        -31.02807756]
 [  1.         -20.21947661]
 [  1.09391667 -62.16065677]]","[[0.         0.766267  ]
 [0.1        0.99963617]
 [0.2        0.86356333]
 [0.3        1.2935249 ]
 [0.4        1.06200742]
 [0.5        0.35652914]
 [0.6        0.94623028]
 [0.7        1.75391992]
 [0.8        0.51382587]
 [0.9        0.42089134]
 [1.         0.35251111]
 [1.09391667 0.28724109]]",0,0.337
8749218289,f,19,french,4,5,french,2024-02-01 10:33:05.924446,False,1,33,sounds\english\audio/english_692.wav,"[[  0.          17.01173199]
 [  0.1        -83.06969334]
 [  0.2        -58.44100575]
 [  0.3        -91.32119293]
 [  0.4        -39.52405727]
 [  0.5        -40.26958375]
 [  0.6         55.4362835 ]
 [  0.7         20.27621399]
 [  0.8        -86.30023131]
 [  0.9          6.83955759]
 [  1.           6.70379303]
 [  1.09391667  92.50690067]]","[[0.         0.47550749]
 [0.1        1.08739119]
 [0.2        1.75941989]
 [0.3        0.308091  ]
 [0.4        0.34371229]
 [0.5        0.85553053]
 [0.6        1.67285815]
 [0.7        1.37569405]
 [0.8        1.97676153]
 [0.9        0.86697186]
 [1.         1.63903464]
 [1.09391667 0.89498599]]",1,0.368
8749218289,f,19,french,4,5,french,2024-02-01 10:33:05.924446,False,1,34,sounds\english\audio/english_604.wav,"[[  0.          -7.32786977]
 [  0.1        -57.46968162]
 [  0.2        -51.48206507]
 [  0.3         77.63466913]
 [  0.4         45.22839705]
 [  0.5        -27.78980975]
 [  0.6        -14.67402927]
 [  0.7         66.92200223]
 [  0.8         44.7359597 ]
 [  0.9         87.34456413]
 [  1.          37.61860755]
 [  1.09391667  91.85438616]]","[[0.         0.45756233]
 [0.1        0.00297482]
 [0.2        1.19670532]
 [0.3        0.65081773]
 [0.4        0.22469511]
 [0.5        0.33338284]
 [0.6        1.91381058]
 [0.7        0.36993011]
 [0.8        1.21459689]
 [0.9        1.1126352 ]
 [1.         1.39772335]
 [1.09391667 1.16252792]]",1,0.324
8749218289,f,19,french,4,5,french,2024-02-01 10:33:05.924446,False,1,35,sounds\english\audio/english_510.wav,"[[  0.         -64.82277941]
 [  0.1         67.50018906]
 [  0.2         83.11599323]
 [  0.3        -40.68058334]
 [  0.4        -20.66274727]
 [  0.5         57.39601347]
 [  0.6         26.65395964]
 [  0.7         -1.22309803]
 [  0.8         91.87113136]
 [  0.9         59.67411659]
 [  1.           9.25675614]
 [  1.09391667 -85.2659012 ]]","[[0.         1.74799884]
 [0.1        1.7328265 ]
 [0.2        1.53243167]
 [0.3        0.93226309]
 [0.4        0.97994595]
 [0.5        1.11050562]
 [0.6        0.07038292]
 [0.7        0.34804353]
 [0.8        1.43252604]
 [0.9        0.49156131]
 [1.         0.83882448]
 [1.09391667 1.33145629]]",1,0.301
8749218289,f,19,french,4,5,french,2024-02-01 10:33:05.924446,False,1,36,sounds\english\audio/english_790.wav,"[[  0.           5.47810166]
 [  0.1         -9.2687044 ]
 [  0.2         71.91302434]
 [  0.3        -95.14086012]
 [  0.4         81.24819191]
 [  0.5        -43.38316414]
 [  0.6         81.5189634 ]
 [  0.7         36.28483158]
 [  0.8         68.43717388]
 [  0.9         10.19963637]
 [  1.         -15.25841054]
 [  1.09391667 -62.44422803]]","[[0.         1.26408321]
 [0.1        0.26503637]
 [0.2        0.46926152]
 [0.3        0.64840522]
 [0.4        0.79568814]
 [0.5        0.82256958]
 [0.6        1.36445651]
 [0.7        0.42135765]
 [0.8        0.07801016]
 [0.9        0.70937824]
 [1.         1.62056491]
 [1.09391667 1.67467407]]",0,0.698
8749218289,f,19,french,4,5,french,2024-02-01 10:33:05.924446,False,1,37,sounds\english\audio/english_891.wav,"[[  0.         -51.94899703]
 [  0.1        -40.85786471]
 [  0.2        -13.56091334]
 [  0.3         13.09065144]
 [  0.4         -0.86453478]
 [  0.5         31.90721085]
 [  0.6        -27.60460343]
 [  0.7         85.79516825]
 [  0.8         83.05957198]
 [  0.9        -61.83196055]
 [  1.         -69.67221927]
 [  1.09391667   4.62166255]]","[[0.         0.42846165]
 [0.1        0.93876637]
 [0.2        1.78643125]
 [0.3        1.47761109]
 [0.4        1.66653353]
 [0.5        1.63856449]
 [0.6        1.17540335]
 [0.7        1.60236138]
 [0.8        0.96737739]
 [0.9        1.42758327]
 [1.         0.19704513]
 [1.09391667 0.91556812]]",1,0.447
8749218289,f,19,french,4,5,french,2024-02-01 10:33:05.924446,False,1,38,sounds\english\audio/english_793.wav,"[[  0.         -39.70617561]
 [  0.1        -29.28823244]
 [  0.2        -89.65836103]
 [  0.3          9.66432805]
 [  0.4         46.78400104]
 [  0.5         77.17847788]
 [  0.6         65.90216738]
 [  0.7         19.02180402]
 [  0.8          4.99424524]
 [  0.9         95.94113908]
 [  1.           5.28849012]
 [  1.09391667 -28.1855206 ]]","[[0.         0.49970472]
 [0.1        0.64262829]
 [0.2        1.52317209]
 [0.3        0.03732268]
 [0.4        0.76197013]
 [0.5        1.20681543]
 [0.6        0.39643945]
 [0.7        0.55038392]
 [0.8        0.97724905]
 [0.9        1.29198989]
 [1.         1.94187371]
 [1.09391667 0.04726533]]",1,0.483
8749218289,f,19,french,4,5,french,2024-02-01 10:33:05.924446,False,1,39,sounds\english\audio/english_277.wav,"[[  0.         -44.33616139]
 [  0.1         44.35260019]
 [  0.2        -49.49233779]
 [  0.3        -85.34810724]
 [  0.4         28.63854814]
 [  0.5         67.28491477]
 [  0.6         56.85897208]
 [  0.7        -23.80647194]
 [  0.8        -34.73638316]
 [  0.9        -44.12670418]
 [  1.         -49.9038669 ]
 [  1.09391667 -45.21232541]]","[[0.         0.73788807]
 [0.1        1.74394891]
 [0.2        0.42488183]
 [0.3        1.67106469]
 [0.4        1.81238123]
 [0.5        1.08162705]
 [0.6        1.34108587]
 [0.7        0.83894526]
 [0.8        0.08057135]
 [0.9        0.78361609]
 [1.         1.89078492]
 [1.09391667 1.1409546 ]]",1,0.683
8749218289,f,19,french,4,5,french,2024-02-01 10:33:05.924446,False,1,40,sounds\english\audio/english_722.wav,"[[  0.         -57.56576196]
 [  0.1        -19.70677764]
 [  0.2         83.71549809]
 [  0.3          0.72860566]
 [  0.4         23.57010212]
 [  0.5        -90.6432868 ]
 [  0.6          3.97952781]
 [  0.7         47.87385022]
 [  0.8        -10.29099789]
 [  0.9        -55.37554035]
 [  1.         -74.87108339]
 [  1.09391667  32.13407254]]","[[0.         0.04722973]
 [0.1        1.09555253]
 [0.2        0.8122888 ]
 [0.3        0.82350502]
 [0.4        0.7141467 ]
 [0.5        0.19918411]
 [0.6        0.04680372]
 [0.7        0.22857445]
 [0.8        1.06043027]
 [0.9        1.28411096]
 [1.         1.38807885]
 [1.09391667 0.54998416]]",1,0.394
8749218289,f,19,french,4,5,french,2024-02-01 10:33:05.924446,False,1,41,sounds\english\audio/english_264.wav,"[[  0.          -7.97071304]
 [  0.1          5.26810794]
 [  0.2         42.90180093]
 [  0.3         32.54664666]
 [  0.4        -75.33920427]
 [  0.5        -92.87225366]
 [  0.6          1.54584209]
 [  0.7        -61.85301996]
 [  0.8        -59.27209487]
 [  0.9         -3.4044868 ]
 [  1.          20.29119999]
 [  1.09391667  76.66199878]]","[[0.         0.52584892]
 [0.1        0.35098417]
 [0.2        0.87826506]
 [0.3        0.85267403]
 [0.4        0.05665148]
 [0.5        0.902019  ]
 [0.6        0.36999328]
 [0.7        1.87523396]
 [0.8        0.99775271]
 [0.9        0.18460265]
 [1.         0.05992377]
 [1.09391667 1.79844018]]",1,0.372
8749218289,f,19,french,4,5,french,2024-02-01 10:33:05.924446,False,1,42,sounds\english\audio/english_365.wav,"[[  0.         -13.81078305]
 [  0.1         10.90636048]
 [  0.2         71.51010514]
 [  0.3         42.52309231]
 [  0.4         61.30753847]
 [  0.5        -34.48448602]
 [  0.6         35.84346113]
 [  0.7        -56.39981073]
 [  0.8        -86.58866218]
 [  0.9        -51.1308372 ]
 [  1.         -44.59979753]
 [  1.09391667  99.72573964]]","[[0.         1.74540369]
 [0.1        0.64746191]
 [0.2        0.6414627 ]
 [0.3        0.02436054]
 [0.4        0.53231596]
 [0.5        1.68146763]
 [0.6        1.59056588]
 [0.7        1.84748389]
 [0.8        1.51888636]
 [0.9        0.50507437]
 [1.         1.32144417]
 [1.09391667 1.70632081]]",1,0.167
8749218289,f,19,french,4,5,french,2024-02-01 10:33:05.924446,False,1,43,sounds\english\audio/english_680.wav,"[[  0.          34.87100104]
 [  0.1        -42.78152033]
 [  0.2         53.30670494]
 [  0.3        -19.15351041]
 [  0.4         81.43981803]
 [  0.5        -40.3529223 ]
 [  0.6        -80.08540334]
 [  0.7        -59.88446673]
 [  0.8         14.21531263]
 [  0.9         39.26105915]
 [  1.         -43.76684188]
 [  1.09391667 -17.50761484]]","[[0.         0.28324866]
 [0.1        0.8126674 ]
 [0.2        0.29371905]
 [0.3        0.35755618]
 [0.4        1.51227527]
 [0.5        1.96868376]
 [0.6        0.83617015]
 [0.7        0.96819403]
 [0.8        0.41039135]
 [0.9        0.45984498]
 [1.         0.60924907]
 [1.09391667 0.18151502]]",0,0.365
8749218289,f,19,french,4,5,french,2024-02-01 10:33:05.924446,False,1,44,sounds\english\audio/english_315.wav,"[[  0.          20.11963367]
 [  0.1        -30.87144334]
 [  0.2         39.10248869]
 [  0.3        -19.08604714]
 [  0.4         90.41461318]
 [  0.5        -82.87118979]
 [  0.6        -12.30252898]
 [  0.7          9.37098005]
 [  0.8        -86.3809894 ]
 [  0.9          2.03064205]
 [  1.          99.30710259]
 [  1.09391667  58.65294367]]","[[0.         1.15782854]
 [0.1        1.37599817]
 [0.2        1.4514196 ]
 [0.3        1.32135016]
 [0.4        1.69132556]
 [0.5        0.65296677]
 [0.6        1.40058812]
 [0.7        0.87815256]
 [0.8        0.15444706]
 [0.9        1.46097728]
 [1.         0.37640447]
 [1.09391667 1.18518174]]",0,0.139
8749218289,f,19,french,4,5,french,2024-02-01 10:33:05.924446,False,1,45,sounds\english\audio/english_661.wav,"[[  0.         -96.27017097]
 [  0.1         -8.23164951]
 [  0.2        -17.16483844]
 [  0.3         51.38438878]
 [  0.4        -46.68819378]
 [  0.5        -48.36150329]
 [  0.6         39.11171658]
 [  0.7         61.02242978]
 [  0.8        -31.59479495]
 [  0.9         29.78054616]
 [  1.          12.03263948]
 [  1.09391667  45.41432931]]","[[0.         0.06095717]
 [0.1        1.37830678]
 [0.2        0.60938429]
 [0.3        1.50755712]
 [0.4        0.78233896]
 [0.5        1.0485375 ]
 [0.6        1.09444979]
 [0.7        0.69142926]
 [0.8        1.58337901]
 [0.9        1.62604078]
 [1.         0.74172624]
 [1.09391667 1.92603435]]",0,0.303
8749218289,f,19,french,4,5,french,2024-02-01 10:33:05.924446,False,1,46,sounds\english\audio/english_193.wav,"[[  0.         -79.19298438]
 [  0.1         83.18398782]
 [  0.2         41.62817707]
 [  0.3        -63.57509965]
 [  0.4         84.76628996]
 [  0.5         10.12738943]
 [  0.6        -37.32432508]
 [  0.7          4.93485207]
 [  0.8         34.87911105]
 [  0.9        -39.85363935]
 [  1.          34.81523129]
 [  1.09391667  72.77087749]]","[[0.         1.8278475 ]
 [0.1        1.66141822]
 [0.2        0.29384933]
 [0.3        0.14342966]
 [0.4        1.0428664 ]
 [0.5        1.69229155]
 [0.6        0.16574738]
 [0.7        1.7490427 ]
 [0.8        0.62073431]
 [0.9        0.72815791]
 [1.         1.27219327]
 [1.09391667 1.22929628]]",1,0.355
8749218289,f,19,french,4,5,french,2024-02-01 10:33:05.924446,False,1,47,sounds\english\audio/english_959.wav,"[[  0.         -72.11702721]
 [  0.1        -40.70802273]
 [  0.2         87.64553822]
 [  0.3        -48.2331893 ]
 [  0.4        -95.5440406 ]
 [  0.5         59.94111347]
 [  0.6         91.02979874]
 [  0.7         19.11555726]
 [  0.8         75.67996803]
 [  0.9         92.01217726]
 [  1.         -10.30028839]
 [  1.09391667 -99.09748483]]","[[0.         0.58402208]
 [0.1        1.62475599]
 [0.2        1.65188883]
 [0.3        0.55484279]
 [0.4        0.6061604 ]
 [0.5        1.49451004]
 [0.6        0.05914992]
 [0.7        1.4845686 ]
 [0.8        1.97323442]
 [0.9        0.84762709]
 [1.         0.74785562]
 [1.09391667 1.91422779]]",1,0.609
8749218289,f,19,french,4,5,french,2024-02-01 10:33:05.924446,False,1,48,sounds\english\audio/english_301.wav,"[[  0.          20.00084454]
 [  0.1        -52.8514029 ]
 [  0.2         18.35573453]
 [  0.3         20.24530443]
 [  0.4        -31.13596974]
 [  0.5        -57.63348461]
 [  0.6        -75.64185581]
 [  0.7         11.75816268]
 [  0.8         94.20607314]
 [  0.9        -85.03664705]
 [  1.         -35.05020918]
 [  1.09391667  79.38839228]]","[[0.         0.51149801]
 [0.1        1.39891418]
 [0.2        1.20064295]
 [0.3        1.16262284]
 [0.4        0.89189618]
 [0.5        0.05591257]
 [0.6        1.65560528]
 [0.7        0.92096294]
 [0.8        0.41490279]
 [0.9        1.73145538]
 [1.         1.60276464]
 [1.09391667 1.26188471]]",1,0.161
8749218289,f,19,french,4,5,french,2024-02-01 10:33:05.924446,False,1,49,sounds\english\audio/english_460.wav,"[[  0.          93.59161919]
 [  0.1        -36.24487207]
 [  0.2         34.29182357]
 [  0.3        -43.77936624]
 [  0.4         69.60343368]
 [  0.5         56.68710737]
 [  0.6        -24.24220062]
 [  0.7        -78.58314977]
 [  0.8        -13.26257127]
 [  0.9         33.19824363]
 [  1.         -40.08512875]
 [  1.09391667  22.89045037]]","[[0.         1.32448893]
 [0.1        0.9079638 ]
 [0.2        1.36589638]
 [0.3        1.17890341]
 [0.4        0.38929886]
 [0.5        0.99526671]
 [0.6        0.46581759]
 [0.7        0.29943683]
 [0.8        1.99375882]
 [0.9        1.82666883]
 [1.         1.5352094 ]
 [1.09391667 1.53552889]]",1,0.521
8749218289,f,19,french,4,5,french,2024-02-01 10:33:05.924446,False,1,50,sounds\english\audio/english_953.wav,"[[  0.          66.99743889]
 [  0.1        -76.84252631]
 [  0.2        -45.49309493]
 [  0.3         55.46461894]
 [  0.4         81.99201124]
 [  0.5          1.34607331]
 [  0.6         50.45029952]
 [  0.7         74.64893983]
 [  0.8         26.00448077]
 [  0.9        -99.39894728]
 [  1.         -16.71063882]
 [  1.09391667  53.60095231]]","[[0.         1.15286604]
 [0.1        1.84100888]
 [0.2        0.29896559]
 [0.3        0.47017465]
 [0.4        0.15248902]
 [0.5        1.13290225]
 [0.6        0.34595451]
 [0.7        0.44244875]
 [0.8        0.8076701 ]
 [0.9        1.93347558]
 [1.         1.69365872]
 [1.09391667 1.16220812]]",1,0.424
8749218289,f,19,french,4,5,french,2024-02-01 10:33:05.924446,False,1,51,sounds\english\audio/english_237.wav,"[[  0.         -24.33351242]
 [  0.1        -30.25700372]
 [  0.2        -30.13382595]
 [  0.3         -9.60246818]
 [  0.4        -40.42162485]
 [  0.5         57.08355263]
 [  0.6         90.25216072]
 [  0.7         85.30493085]
 [  0.8        -32.5073614 ]
 [  0.9         26.39127281]
 [  1.           9.20254691]
 [  1.09391667 -73.51581894]]","[[0.         0.5798894 ]
 [0.1        1.5217244 ]
 [0.2        0.83018836]
 [0.3        0.61732459]
 [0.4        0.04187642]
 [0.5        1.52741907]
 [0.6        0.52793747]
 [0.7        1.06419231]
 [0.8        0.3844952 ]
 [0.9        0.20035849]
 [1.         0.39448392]
 [1.09391667 0.19327596]]",1,1.053
8749218289,f,19,french,4,5,french,2024-02-01 10:33:05.924446,False,1,52,sounds\english\audio/english_523.wav,"[[  0.         -25.97539799]
 [  0.1        -25.11108095]
 [  0.2        -67.4070828 ]
 [  0.3         14.34055957]
 [  0.4         10.27536217]
 [  0.5          2.68899624]
 [  0.6          5.43637058]
 [  0.7         84.96836729]
 [  0.8          0.15377924]
 [  0.9        -34.21093103]
 [  1.         -94.05275706]
 [  1.09391667 -75.26058007]]","[[0.         0.34449626]
 [0.1        0.18549089]
 [0.2        1.10257375]
 [0.3        0.39893493]
 [0.4        1.8821087 ]
 [0.5        1.33802983]
 [0.6        1.93381979]
 [0.7        1.3963609 ]
 [0.8        0.58447079]
 [0.9        0.41716989]
 [1.         1.25827867]
 [1.09391667 0.83944497]]",1,0.526
8749218289,f,19,french,4,5,french,2024-02-01 10:33:05.924446,False,1,53,sounds\english\audio/english_145.wav,"[[  0.          33.46233159]
 [  0.1        -61.60936231]
 [  0.2         77.17787096]
 [  0.3         52.31633647]
 [  0.4         50.97764834]
 [  0.5         94.06594582]
 [  0.6        -40.82786952]
 [  0.7        -67.26734542]
 [  0.8         59.11900107]
 [  0.9        -56.17437001]
 [  1.         -15.19613378]
 [  1.09391667  90.15311402]]","[[0.         0.5633393 ]
 [0.1        1.7411418 ]
 [0.2        1.3932683 ]
 [0.3        0.64008683]
 [0.4        0.69845382]
 [0.5        1.78155535]
 [0.6        0.94197467]
 [0.7        0.64900441]
 [0.8        1.89522637]
 [0.9        0.96282543]
 [1.         0.73054996]
 [1.09391667 0.69896131]]",1,0.525
8749218289,f,19,french,4,5,french,2024-02-01 10:33:05.924446,False,1,54,sounds\english\audio/english_591.wav,"[[  0.         -33.59942656]
 [  0.1        -41.84333916]
 [  0.2        -40.30789258]
 [  0.3         97.61230048]
 [  0.4        -42.50162748]
 [  0.5         -1.77866558]
 [  0.6          0.70986705]
 [  0.7         34.96717961]
 [  0.8        -92.90998765]
 [  0.9        -56.37241834]
 [  1.           5.28111122]
 [  1.09391667 -12.0144277 ]]","[[0.         0.74847219]
 [0.1        1.40230026]
 [0.2        1.16814049]
 [0.3        0.39427788]
 [0.4        0.29523071]
 [0.5        0.85786838]
 [0.6        1.07664541]
 [0.7        1.03582874]
 [0.8        1.47906255]
 [0.9        1.68040409]
 [1.         0.00212421]
 [1.09391667 0.47626778]]",1,0.713
8749218289,f,19,french,4,5,french,2024-02-01 10:33:05.924446,False,1,55,sounds\english\audio/english_741.wav,"[[  0.         -52.58118809]
 [  0.1         12.25497131]
 [  0.2        -66.99465096]
 [  0.3         33.21075969]
 [  0.4        -80.7229313 ]
 [  0.5         33.52953563]
 [  0.6        -70.06014591]
 [  0.7         74.24671254]
 [  0.8        -72.74719072]
 [  0.9         -6.6044487 ]
 [  1.          14.62137165]
 [  1.09391667  -3.50523329]]","[[0.         0.04069066]
 [0.1        1.79280913]
 [0.2        1.62861486]
 [0.3        1.99142518]
 [0.4        0.68846699]
 [0.5        0.95565852]
 [0.6        1.55389223]
 [0.7        0.39415735]
 [0.8        1.19562483]
 [0.9        1.16664034]
 [1.         0.62122377]
 [1.09391667 0.83751938]]",1,0.487
8749218289,f,19,french,4,5,french,2024-02-01 10:33:05.924446,False,1,56,sounds\english\audio/english_773.wav,"[[  0.          25.38598482]
 [  0.1        -75.4290336 ]
 [  0.2        -93.77214736]
 [  0.3        -11.93109416]
 [  0.4         -3.2584173 ]
 [  0.5          4.3608059 ]
 [  0.6        -67.37283883]
 [  0.7        -45.00567152]
 [  0.8         35.5097718 ]
 [  0.9         43.03996363]
 [  1.          65.28264622]
 [  1.09391667 -37.07012433]]","[[0.         0.89232009]
 [0.1        1.89128597]
 [0.2        1.99899889]
 [0.3        0.2472244 ]
 [0.4        0.14273894]
 [0.5        1.21438163]
 [0.6        0.96373014]
 [0.7        1.90932533]
 [0.8        1.26347726]
 [0.9        1.83989813]
 [1.         0.76004817]
 [1.09391667 0.66989713]]",1,0.297
8749218289,f,19,french,4,5,french,2024-02-01 10:33:05.924446,False,1,57,sounds\english\audio/english_753.wav,"[[  0.         -37.70671017]
 [  0.1        -51.92629572]
 [  0.2         93.98068105]
 [  0.3        -51.39932121]
 [  0.4         95.80116655]
 [  0.5         54.2507311 ]
 [  0.6         20.30160244]
 [  0.7         55.46646904]
 [  0.8        -44.46613041]
 [  0.9         32.26226525]
 [  1.          94.05472838]
 [  1.09391667  42.98878145]]","[[0.         1.74884561]
 [0.1        0.91942072]
 [0.2        1.59964549]
 [0.3        1.12825203]
 [0.4        1.21219761]
 [0.5        1.26026343]
 [0.6        1.5757537 ]
 [0.7        0.16664365]
 [0.8        1.11726469]
 [0.9        1.53816652]
 [1.         0.62126972]
 [1.09391667 0.46411799]]",1,0.475
8749218289,f,19,french,4,5,french,2024-02-01 10:33:05.924446,False,1,58,sounds\english\audio/english_547.wav,"[[  0.         -84.56242422]
 [  0.1         99.9800097 ]
 [  0.2        -74.27935954]
 [  0.3         89.44673422]
 [  0.4        -91.74996992]
 [  0.5        -18.76785599]
 [  0.6        -51.12732076]
 [  0.7         14.86623417]
 [  0.8         92.41843581]
 [  0.9         81.77291175]
 [  1.          63.1035346 ]
 [  1.09391667  48.67701743]]","[[0.         0.88058973]
 [0.1        1.57875619]
 [0.2        1.10539411]
 [0.3        1.02984743]
 [0.4        1.38707534]
 [0.5        1.26965367]
 [0.6        1.25509145]
 [0.7        1.52290103]
 [0.8        1.30528153]
 [0.9        0.94706354]
 [1.         1.72712252]
 [1.09391667 1.8227726 ]]",1,0.51
8749218289,f,19,french,4,5,french,2024-02-01 10:33:05.924446,False,1,59,sounds\english\audio/english_813.wav,"[[  0.         -21.47810291]
 [  0.1        -84.13417806]
 [  0.2        -18.57483833]
 [  0.3         85.46223106]
 [  0.4        -47.12255135]
 [  0.5         55.13909294]
 [  0.6        -92.27868598]
 [  0.7        -98.65237277]
 [  0.8        -73.59665384]
 [  0.9         99.75598896]
 [  1.          22.46235737]
 [  1.09391667 -23.97281603]]","[[0.         0.42494113]
 [0.1        0.85563352]
 [0.2        1.62435889]
 [0.3        1.84520067]
 [0.4        0.16630065]
 [0.5        1.66622477]
 [0.6        1.29440347]
 [0.7        1.30366   ]
 [0.8        0.95942882]
 [0.9        0.41648042]
 [1.         0.55260475]
 [1.09391667 0.8655965 ]]",1,0.567
8749218289,f,19,french,4,5,french,2024-02-01 10:33:05.924446,False,1,60,sounds\english\audio/english_146.wav,"[[  0.          56.30698685]
 [  0.1         33.76808102]
 [  0.2          7.3416935 ]
 [  0.3         54.00115317]
 [  0.4         60.50079064]
 [  0.5         93.58064811]
 [  0.6         16.38414301]
 [  0.7         53.45076847]
 [  0.8         57.56482396]
 [  0.9        -28.26782972]
 [  1.          79.66793606]
 [  1.09391667  23.81863578]]","[[0.         0.40218926]
 [0.1        1.30498568]
 [0.2        1.88518083]
 [0.3        0.73939723]
 [0.4        1.18416515]
 [0.5        0.74397262]
 [0.6        1.77833366]
 [0.7        0.98273851]
 [0.8        1.41119053]
 [0.9        0.90766435]
 [1.         0.33691203]
 [1.09391667 1.86488134]]",1,0.361
8749218289,f,19,french,4,5,french,2024-02-01 10:33:05.924446,False,1,61,sounds\english\audio/english_792.wav,"[[  0.         -53.21610879]
 [  0.1         32.15976894]
 [  0.2         11.67164647]
 [  0.3         78.41102069]
 [  0.4         57.86075133]
 [  0.5         26.57758322]
 [  0.6        -19.90648144]
 [  0.7         -5.80202054]
 [  0.8        -79.72401374]
 [  0.9        -39.61261559]
 [  1.          87.31929903]
 [  1.09391667  10.49178802]]","[[0.         1.55385175]
 [0.1        0.65373426]
 [0.2        0.07623644]
 [0.3        0.81063335]
 [0.4        1.61919716]
 [0.5        1.49931194]
 [0.6        0.76960145]
 [0.7        0.41164506]
 [0.8        1.42613076]
 [0.9        0.70792196]
 [1.         1.13611226]
 [1.09391667 0.18326108]]",0,0.636
8749218289,f,19,french,4,5,french,2024-02-01 10:33:05.924446,False,1,62,sounds\english\audio/english_466.wav,"[[  0.          29.78122055]
 [  0.1          1.00212309]
 [  0.2         84.88341441]
 [  0.3         18.0671926 ]
 [  0.4        -63.20091068]
 [  0.5         -1.15346207]
 [  0.6         -1.70645236]
 [  0.7         37.24590025]
 [  0.8        -40.92862731]
 [  0.9        -58.08317272]
 [  1.         -59.75718078]
 [  1.09391667  13.82760032]]","[[0.         0.08614047]
 [0.1        0.60651355]
 [0.2        0.95660543]
 [0.3        0.08485907]
 [0.4        0.78105645]
 [0.5        0.10730209]
 [0.6        1.7980607 ]
 [0.7        1.48241485]
 [0.8        0.1626415 ]
 [0.9        1.43527927]
 [1.         0.97707475]
 [1.09391667 1.6467926 ]]",0,0.586
8749218289,f,19,french,4,5,french,2024-02-01 10:33:05.924446,False,1,63,sounds\english\audio/english_420.wav,"[[  0.          66.35781632]
 [  0.1        -12.06831675]
 [  0.2         71.12167329]
 [  0.3        -65.08320496]
 [  0.4        -82.82301749]
 [  0.5         32.31625944]
 [  0.6         68.14197427]
 [  0.7         69.60296215]
 [  0.8         38.87135773]
 [  0.9         55.81325805]
 [  1.          91.56317805]
 [  1.09391667  58.32530745]]","[[0.         1.51060149]
 [0.1        0.86092396]
 [0.2        1.98213421]
 [0.3        0.15165496]
 [0.4        1.26926091]
 [0.5        1.00523376]
 [0.6        1.33555594]
 [0.7        1.16834727]
 [0.8        0.07961385]
 [0.9        0.13061417]
 [1.         1.16603809]
 [1.09391667 1.93332186]]",0,0.362
8749218289,f,19,french,4,5,french,2024-02-01 10:33:05.924446,False,1,64,sounds\english\audio/english_653.wav,"[[  0.          41.8259341 ]
 [  0.1         17.38671322]
 [  0.2         86.12532741]
 [  0.3        -33.72650973]
 [  0.4        -40.64508362]
 [  0.5         29.34700904]
 [  0.6        -10.62645481]
 [  0.7        -39.23364733]
 [  0.8          1.23936202]
 [  0.9         54.61023708]
 [  1.          68.93146106]
 [  1.09391667  98.0100566 ]]","[[0.         0.17533452]
 [0.1        1.08757539]
 [0.2        1.96334993]
 [0.3        1.47062591]
 [0.4        1.06368379]
 [0.5        1.07766545]
 [0.6        1.32143854]
 [0.7        0.74682372]
 [0.8        0.56607345]
 [0.9        0.97558446]
 [1.         0.53847025]
 [1.09391667 0.14439152]]",0,0.284
8749218289,f,19,french,4,5,french,2024-02-01 10:33:05.924446,False,1,65,sounds\english\audio/english_305.wav,"[[  0.          17.49267602]
 [  0.1         17.59035292]
 [  0.2         83.12376417]
 [  0.3        -81.59474703]
 [  0.4        -99.63264863]
 [  0.5         42.69289025]
 [  0.6         82.55548118]
 [  0.7         15.87479687]
 [  0.8        -15.6323718 ]
 [  0.9         98.18396958]
 [  1.          52.83112054]
 [  1.09391667  33.63343534]]","[[0.         0.00977258]
 [0.1        1.17585195]
 [0.2        1.66932103]
 [0.3        0.83160233]
 [0.4        1.05024367]
 [0.5        1.13369845]
 [0.6        0.21867151]
 [0.7        0.32447169]
 [0.8        1.86350195]
 [0.9        0.82463705]
 [1.         0.94709308]
 [1.09391667 0.36254065]]",0,0.321
8749218289,f,19,french,4,5,french,2024-02-01 10:33:05.924446,False,1,66,sounds\english\audio/english_482.wav,"[[  0.          20.07417146]
 [  0.1        -12.82737333]
 [  0.2         46.60771192]
 [  0.3         92.39920005]
 [  0.4         96.99690807]
 [  0.5         12.60829295]
 [  0.6        -23.92845314]
 [  0.7        -47.3765233 ]
 [  0.8         55.97987906]
 [  0.9         22.28704579]
 [  1.          67.15676761]
 [  1.09391667  46.69344931]]","[[0.         1.35721439]
 [0.1        1.71306389]
 [0.2        0.15096255]
 [0.3        1.17077369]
 [0.4        0.74035243]
 [0.5        1.34523093]
 [0.6        0.96774723]
 [0.7        1.67491069]
 [0.8        1.90247302]
 [0.9        1.31919575]
 [1.         1.48251796]
 [1.09391667 0.85176568]]",1,0.505
8749218289,f,19,french,4,5,french,2024-02-01 10:33:05.924446,False,1,67,sounds\english\audio/english_175.wav,"[[  0.          38.44646754]
 [  0.1        -23.00340035]
 [  0.2        -30.61543139]
 [  0.3         99.83965835]
 [  0.4        -46.63956487]
 [  0.5        -59.37007197]
 [  0.6         82.40355982]
 [  0.7        -46.17826166]
 [  0.8          9.80730277]
 [  0.9         74.64832737]
 [  1.         -39.17791416]
 [  1.09391667 -90.85337976]]","[[0.         1.34207659]
 [0.1        1.41404042]
 [0.2        1.49080674]
 [0.3        0.72740359]
 [0.4        1.0197188 ]
 [0.5        0.62236458]
 [0.6        1.36261766]
 [0.7        0.8547614 ]
 [0.8        0.21399821]
 [0.9        1.05176786]
 [1.         0.6104539 ]
 [1.09391667 1.60893412]]",1,0.331
8749218289,f,19,french,4,5,french,2024-02-01 10:33:05.924446,False,1,68,sounds\english\audio/english_554.wav,"[[  0.          68.06713434]
 [  0.1         51.53363243]
 [  0.2         96.79789275]
 [  0.3        -32.97805092]
 [  0.4         38.32175517]
 [  0.5        -48.79684279]
 [  0.6          6.57101052]
 [  0.7         30.34426539]
 [  0.8         57.10485473]
 [  0.9        -93.21826179]
 [  1.          58.97430912]
 [  1.09391667  32.65345188]]","[[0.         1.26196428]
 [0.1        1.49608983]
 [0.2        1.01925431]
 [0.3        1.27259864]
 [0.4        0.99325409]
 [0.5        1.83296218]
 [0.6        1.99419824]
 [0.7        1.31395906]
 [0.8        1.83167901]
 [0.9        1.93422624]
 [1.         1.62256756]
 [1.09391667 0.90589094]]",0,0.258
8749218289,f,19,french,4,5,french,2024-02-01 10:33:05.924446,False,1,69,sounds\english\audio/english_821.wav,"[[  0.          60.02897282]
 [  0.1        -31.71016541]
 [  0.2         65.3097336 ]
 [  0.3         39.90488009]
 [  0.4         65.66520818]
 [  0.5        -73.56912207]
 [  0.6          0.74999233]
 [  0.7         64.12769535]
 [  0.8        -79.18665898]
 [  0.9        -84.62050136]
 [  1.          99.19624858]
 [  1.09391667  71.58670695]]","[[0.         0.81118736]
 [0.1        1.4887669 ]
 [0.2        0.65578563]
 [0.3        0.99843063]
 [0.4        0.54862628]
 [0.5        0.9620802 ]
 [0.6        1.96570853]
 [0.7        1.86660776]
 [0.8        0.48590566]
 [0.9        1.1315153 ]
 [1.         1.62744853]
 [1.09391667 1.94836872]]",1,0.416
8749218289,f,19,french,4,5,french,2024-02-01 10:33:05.924446,False,1,70,sounds\english\audio/english_618.wav,"[[  0.         -79.9488622 ]
 [  0.1          0.24132163]
 [  0.2        -56.62295111]
 [  0.3        -72.03937353]
 [  0.4        -44.72303747]
 [  0.5        -96.08672425]
 [  0.6         63.06881346]
 [  0.7          7.33604436]
 [  0.8         76.47736911]
 [  0.9        -52.54898443]
 [  1.          33.73192618]
 [  1.09391667  31.05572927]]","[[0.         1.91362605]
 [0.1        0.6330552 ]
 [0.2        0.97728614]
 [0.3        0.96298019]
 [0.4        1.81673931]
 [0.5        0.35989287]
 [0.6        1.43341205]
 [0.7        1.78848637]
 [0.8        1.05646412]
 [0.9        0.998868  ]
 [1.         1.38011588]
 [1.09391667 1.5899218 ]]",0,0.36
8749218289,f,19,french,4,5,french,2024-02-01 10:33:05.924446,False,1,71,sounds\english\audio/english_202.wav,"[[  0.         -55.5835629 ]
 [  0.1        -74.17222211]
 [  0.2         32.91988816]
 [  0.3        -61.08726633]
 [  0.4         74.28120307]
 [  0.5         27.15782783]
 [  0.6        -31.42828759]
 [  0.7        -85.57803202]
 [  0.8         -8.83313062]
 [  0.9         75.88912897]
 [  1.         -46.89935533]
 [  1.09391667   1.73094833]]","[[0.         1.42115323]
 [0.1        1.11230171]
 [0.2        1.2604868 ]
 [0.3        1.38170621]
 [0.4        1.19502306]
 [0.5        1.3290301 ]
 [0.6        1.43273837]
 [0.7        0.23505516]
 [0.8        0.8306151 ]
 [0.9        1.14421979]
 [1.         1.72535261]
 [1.09391667 1.37481935]]",1,0.286
8749218289,f,19,french,4,5,french,2024-02-01 10:33:05.924446,False,1,72,sounds\english\audio/english_172.wav,"[[  0.         -67.89328127]
 [  0.1        -98.24711177]
 [  0.2         49.39394348]
 [  0.3         76.5993294 ]
 [  0.4        -22.3707882 ]
 [  0.5        -81.77647202]
 [  0.6         14.32482273]
 [  0.7        -55.4844165 ]
 [  0.8          3.0799131 ]
 [  0.9        -69.51196042]
 [  1.          75.4726198 ]
 [  1.09391667   0.51193247]]","[[0.         0.87390127]
 [0.1        0.45073311]
 [0.2        1.74616009]
 [0.3        0.92964788]
 [0.4        0.40511794]
 [0.5        1.07981793]
 [0.6        0.29673002]
 [0.7        1.5346781 ]
 [0.8        0.29263687]
 [0.9        0.8048794 ]
 [1.         0.86167059]
 [1.09391667 0.22289692]]",0,0.662
8749218289,f,19,french,4,5,french,2024-02-01 10:33:05.924446,False,1,73,sounds\english\audio/english_697.wav,"[[  0.         -28.25272972]
 [  0.1          9.35350144]
 [  0.2         -7.31902563]
 [  0.3        -28.05711443]
 [  0.4        -24.84079268]
 [  0.5        -11.64681016]
 [  0.6        -31.01161183]
 [  0.7          8.33198828]
 [  0.8          2.96881997]
 [  0.9          1.22757185]
 [  1.          14.4901502 ]
 [  1.09391667 -93.23839425]]","[[0.         0.74562658]
 [0.1        1.65036421]
 [0.2        0.51352458]
 [0.3        1.22091514]
 [0.4        0.19652908]
 [0.5        1.30348786]
 [0.6        0.73369273]
 [0.7        1.45670074]
 [0.8        0.3217924 ]
 [0.9        0.26155094]
 [1.         1.78541804]
 [1.09391667 0.76602212]]",1,0.399
8749218289,f,19,french,4,5,french,2024-02-01 10:33:05.924446,False,1,74,sounds\english\audio/english_673.wav,"[[  0.          90.76839252]
 [  0.1          6.046272  ]
 [  0.2        -87.83071151]
 [  0.3         36.6509823 ]
 [  0.4        -32.18158433]
 [  0.5        -19.24802142]
 [  0.6         48.91730907]
 [  0.7         69.64943754]
 [  0.8         -5.12989182]
 [  0.9         -9.26659316]
 [  1.         -16.89337836]
 [  1.09391667 -23.27882447]]","[[0.         1.23453875]
 [0.1        1.03311149]
 [0.2        1.26397394]
 [0.3        1.9126635 ]
 [0.4        1.72280276]
 [0.5        0.25348074]
 [0.6        1.44743683]
 [0.7        1.155997  ]
 [0.8        0.33674768]
 [0.9        0.68600318]
 [1.         1.11619923]
 [1.09391667 0.1262035 ]]",0,0.567
8749218289,f,19,french,4,5,french,2024-02-01 10:33:05.924446,False,1,75,sounds\english\audio/english_562.wav,"[[  0.         -66.46118552]
 [  0.1         50.11424094]
 [  0.2         38.4118161 ]
 [  0.3         55.44168462]
 [  0.4         19.14590229]
 [  0.5         -3.26381008]
 [  0.6         91.90960542]
 [  0.7         62.21453642]
 [  0.8         83.94650253]
 [  0.9        -69.18732996]
 [  1.         -21.18203071]
 [  1.09391667  12.05175974]]","[[0.         0.76561111]
 [0.1        1.84010469]
 [0.2        1.52246451]
 [0.3        0.37876531]
 [0.4        1.46315217]
 [0.5        0.03585566]
 [0.6        0.70876992]
 [0.7        1.53596627]
 [0.8        1.29387044]
 [0.9        0.65619247]
 [1.         0.14449541]
 [1.09391667 1.12518845]]",1,0.462
8749218289,f,19,french,4,5,french,2024-02-01 10:33:05.924446,False,1,76,sounds\english\audio/english_664.wav,"[[  0.          87.83799753]
 [  0.1         93.07880912]
 [  0.2        -21.43792859]
 [  0.3         54.61607152]
 [  0.4         63.53186125]
 [  0.5         69.57332079]
 [  0.6        -98.283012  ]
 [  0.7          3.96514961]
 [  0.8        -68.49765079]
 [  0.9         22.71561052]
 [  1.          62.92065682]
 [  1.09391667   7.64063367]]","[[0.         0.80622544]
 [0.1        0.71131531]
 [0.2        0.52490717]
 [0.3        0.79105774]
 [0.4        0.74894626]
 [0.5        0.96341942]
 [0.6        0.12490453]
 [0.7        1.772086  ]
 [0.8        1.2138043 ]
 [0.9        1.03968333]
 [1.         1.01702127]
 [1.09391667 1.88905221]]",1,0.706
8749218289,f,19,french,4,5,french,2024-02-01 10:33:05.924446,False,1,77,sounds\english\audio/english_351.wav,"[[  0.         -19.65986015]
 [  0.1         73.58710044]
 [  0.2         74.12275499]
 [  0.3        -24.45683786]
 [  0.4         21.01511918]
 [  0.5         55.7456538 ]
 [  0.6         54.50583955]
 [  0.7         74.68230433]
 [  0.8        -93.39577551]
 [  0.9         89.8823857 ]
 [  1.          82.37960735]
 [  1.09391667  -9.15420485]]","[[0.         1.42460204]
 [0.1        0.00643347]
 [0.2        0.97495265]
 [0.3        0.52137616]
 [0.4        1.11946487]
 [0.5        0.33788576]
 [0.6        1.25361851]
 [0.7        1.43767459]
 [0.8        0.08040705]
 [0.9        0.01025875]
 [1.         0.65117528]
 [1.09391667 0.78690639]]",0,0.425
8749218289,f,19,french,4,5,french,2024-02-01 10:33:05.924446,False,1,78,sounds\english\audio/english_192.wav,"[[  0.         -44.06496916]
 [  0.1         -1.73373059]
 [  0.2        -29.10510113]
 [  0.3         71.54582207]
 [  0.4         47.17920128]
 [  0.5         46.36925649]
 [  0.6         34.98575102]
 [  0.7         51.8668686 ]
 [  0.8        -35.42178409]
 [  0.9        -56.11776415]
 [  1.         -44.79305263]
 [  1.09391667  37.72006641]]","[[0.         1.38059828]
 [0.1        0.79242211]
 [0.2        0.7213484 ]
 [0.3        1.27323666]
 [0.4        0.22557274]
 [0.5        1.52280769]
 [0.6        0.97358447]
 [0.7        0.90127966]
 [0.8        0.86874685]
 [0.9        1.58446024]
 [1.         1.51736237]
 [1.09391667 0.71870831]]",1,1.876
8749218289,f,19,french,4,5,french,2024-02-01 10:33:05.924446,False,1,79,sounds\english\audio/english_648.wav,"[[  0.          33.66524903]
 [  0.1         97.98351088]
 [  0.2         11.9794117 ]
 [  0.3         29.55885348]
 [  0.4         24.59728939]
 [  0.5         59.2279724 ]
 [  0.6          3.25949038]
 [  0.7        -26.79620766]
 [  0.8         98.3282455 ]
 [  0.9        -78.7239126 ]
 [  1.          20.12137035]
 [  1.09391667 -43.42156432]]","[[0.         1.53800397]
 [0.1        1.15872761]
 [0.2        0.81425559]
 [0.3        0.88028101]
 [0.4        1.88326834]
 [0.5        1.09723956]
 [0.6        0.83602582]
 [0.7        0.3704665 ]
 [0.8        0.87153578]
 [0.9        1.50300547]
 [1.         0.75356499]
 [1.09391667 1.92538482]]",0,0.39
8749218289,f,19,french,4,5,french,2024-02-01 10:33:05.924446,False,1,80,sounds\english\audio/english_462.wav,"[[  0.          78.76621738]
 [  0.1         31.47495931]
 [  0.2        -13.74936046]
 [  0.3        -80.17251448]
 [  0.4        -78.67939132]
 [  0.5         43.51355655]
 [  0.6          3.64631971]
 [  0.7        -45.69022839]
 [  0.8        -12.47954209]
 [  0.9        -13.33411056]
 [  1.          14.72637348]
 [  1.09391667 -47.88617719]]","[[0.         0.83121963]
 [0.1        1.43506309]
 [0.2        0.97721307]
 [0.3        0.92562125]
 [0.4        0.04016866]
 [0.5        0.46288791]
 [0.6        1.76703425]
 [0.7        1.40353438]
 [0.8        0.01443424]
 [0.9        0.75223744]
 [1.         0.69611535]
 [1.09391667 0.81633503]]",1,0.386
8749218289,f,19,french,4,5,french,2024-02-01 10:33:05.924446,False,1,81,sounds\english\audio/english_278.wav,"[[  0.         -96.72610313]
 [  0.1        -36.86809982]
 [  0.2        -84.24626192]
 [  0.3        -29.99363641]
 [  0.4         21.41897552]
 [  0.5        -73.7985343 ]
 [  0.6        -83.05174317]
 [  0.7        -43.48487906]
 [  0.8        -48.22741203]
 [  0.9        -30.73203826]
 [  1.          22.54361358]
 [  1.09391667 -65.2249662 ]]","[[0.         0.83439052]
 [0.1        1.21055498]
 [0.2        0.05488492]
 [0.3        1.47058347]
 [0.4        0.68142996]
 [0.5        0.65955027]
 [0.6        1.54634177]
 [0.7        1.03072417]
 [0.8        0.15769377]
 [0.9        0.79374536]
 [1.         0.9877131 ]
 [1.09391667 1.82414956]]",1,0.376
8749218289,f,19,french,4,5,french,2024-02-01 10:33:05.924446,False,1,82,sounds\english\audio/english_352.wav,"[[  0.          84.78119141]
 [  0.1         88.75454048]
 [  0.2         23.94901813]
 [  0.3        -18.90676095]
 [  0.4         60.06070111]
 [  0.5         62.40800149]
 [  0.6          3.12749593]
 [  0.7         56.86714317]
 [  0.8        -52.83270381]
 [  0.9        -40.5099806 ]
 [  1.         -16.36538997]
 [  1.09391667  22.50184759]]","[[0.         1.3229017 ]
 [0.1        0.55829323]
 [0.2        0.0402509 ]
 [0.3        0.61640233]
 [0.4        0.96654272]
 [0.5        0.92098566]
 [0.6        1.84821975]
 [0.7        0.23838951]
 [0.8        0.65493925]
 [0.9        1.28053314]
 [1.         0.87321298]
 [1.09391667 0.74058038]]",1,0.313
8749218289,f,19,french,4,5,french,2024-02-01 10:33:05.924446,False,1,83,sounds\english\audio/english_441.wav,"[[  0.          50.50255474]
 [  0.1        -64.78300632]
 [  0.2        -33.84229425]
 [  0.3         -1.98671345]
 [  0.4         42.73114644]
 [  0.5         42.14553529]
 [  0.6        -44.94303107]
 [  0.7         13.09989783]
 [  0.8        -41.80171469]
 [  0.9         54.31484613]
 [  1.          46.32391657]
 [  1.09391667  35.46886189]]","[[0.         0.8815455 ]
 [0.1        1.25615458]
 [0.2        1.89461417]
 [0.3        0.56042506]
 [0.4        0.74141977]
 [0.5        0.72181114]
 [0.6        0.25334865]
 [0.7        1.76130975]
 [0.8        0.91340104]
 [0.9        1.37487336]
 [1.         1.57808342]
 [1.09391667 1.31817522]]",0,0.225
8749218289,f,19,french,4,5,french,2024-02-01 10:33:05.924446,False,1,84,sounds\english\audio/english_388.wav,"[[  0.         -41.72152619]
 [  0.1         16.10845718]
 [  0.2         56.96293644]
 [  0.3        -95.24889342]
 [  0.4        -92.06058204]
 [  0.5        -66.79451415]
 [  0.6         31.29945158]
 [  0.7         52.76870029]
 [  0.8        -83.90415266]
 [  0.9         16.41554992]
 [  1.          44.20651848]
 [  1.09391667 -53.31309565]]","[[0.         1.04150919]
 [0.1        1.44420011]
 [0.2        1.65872581]
 [0.3        1.66380946]
 [0.4        1.25967223]
 [0.5        1.01005139]
 [0.6        0.59386887]
 [0.7        1.783647  ]
 [0.8        0.30560863]
 [0.9        0.09885056]
 [1.         0.45485887]
 [1.09391667 1.06517725]]",0,0.382
8749218289,f,19,french,4,5,french,2024-02-01 10:33:05.924446,False,1,85,sounds\english\audio/english_819.wav,"[[  0.           6.72623194]
 [  0.1        -24.07867569]
 [  0.2        -75.26306383]
 [  0.3         85.43148154]
 [  0.4        -22.40483415]
 [  0.5          1.97440144]
 [  0.6         75.70782388]
 [  0.7         95.57794207]
 [  0.8         65.41207774]
 [  0.9         20.80814343]
 [  1.          82.13081789]
 [  1.09391667   8.11322976]]","[[0.         0.10273963]
 [0.1        0.80237212]
 [0.2        1.8012582 ]
 [0.3        0.87923376]
 [0.4        1.38500076]
 [0.5        1.100674  ]
 [0.6        0.97376952]
 [0.7        0.98089121]
 [0.8        0.54459863]
 [0.9        0.87801334]
 [1.         1.51334628]
 [1.09391667 1.26475282]]",0,0.035
8749218289,f,19,french,4,5,french,2024-02-01 10:33:05.924446,False,1,86,sounds\english\audio/english_646.wav,"[[  0.         -72.16367523]
 [  0.1         89.23048569]
 [  0.2          3.93643173]
 [  0.3         32.33211102]
 [  0.4         57.94131679]
 [  0.5          3.36702109]
 [  0.6         61.97454592]
 [  0.7        -38.94515992]
 [  0.8         18.02819855]
 [  0.9         -7.01403953]
 [  1.          22.99913436]
 [  1.09391667 -15.24744046]]","[[0.         1.23252036]
 [0.1        0.41153547]
 [0.2        1.30500866]
 [0.3        0.16779894]
 [0.4        1.44956343]
 [0.5        0.43462   ]
 [0.6        1.17161273]
 [0.7        1.33009112]
 [0.8        1.9601355 ]
 [0.9        1.16018484]
 [1.         0.4872476 ]
 [1.09391667 0.4931797 ]]",0,0.156
8749218289,f,19,french,4,5,french,2024-02-01 10:33:05.924446,False,1,87,sounds\english\audio/english_558.wav,"[[  0.           9.45595183]
 [  0.1        -66.91447075]
 [  0.2          5.01642616]
 [  0.3        -82.30049302]
 [  0.4        -10.29129966]
 [  0.5         99.14240741]
 [  0.6         34.85025227]
 [  0.7         43.44441895]
 [  0.8        -97.39694164]
 [  0.9        -31.97632868]
 [  1.         -74.01115338]
 [  1.09391667  43.18570617]]","[[0.         1.13403788]
 [0.1        1.18278708]
 [0.2        1.11112331]
 [0.3        0.91283519]
 [0.4        0.71678122]
 [0.5        1.64554748]
 [0.6        0.99485251]
 [0.7        0.12536515]
 [0.8        0.12044716]
 [0.9        0.33780284]
 [1.         0.39284816]
 [1.09391667 1.38494175]]",0,0.381
8749218289,f,19,french,4,5,french,2024-02-01 10:33:05.924446,False,1,88,sounds\english\audio/english_866.wav,"[[  0.          32.13948388]
 [  0.1         38.60075831]
 [  0.2        -79.61982729]
 [  0.3        -60.72840424]
 [  0.4        -37.10812529]
 [  0.5         20.23366157]
 [  0.6        -58.420194  ]
 [  0.7         10.40447232]
 [  0.8        -52.83849426]
 [  0.9         32.83340069]
 [  1.           9.31901299]
 [  1.09391667 -17.41907809]]","[[0.         0.64921597]
 [0.1        1.48742897]
 [0.2        0.28495491]
 [0.3        0.9139307 ]
 [0.4        1.2771469 ]
 [0.5        0.5381413 ]
 [0.6        0.14669297]
 [0.7        0.11342134]
 [0.8        1.53208977]
 [0.9        0.84107623]
 [1.         1.05202157]
 [1.09391667 1.86418674]]",0,0.223
8749218289,f,19,french,4,5,french,2024-02-01 10:33:05.924446,False,1,89,sounds\english\audio/english_750.wav,"[[  0.         -25.16303224]
 [  0.1        -14.02768866]
 [  0.2         69.31394604]
 [  0.3         90.85453111]
 [  0.4        -11.11189664]
 [  0.5         99.7192225 ]
 [  0.6         59.23899804]
 [  0.7         61.96409814]
 [  0.8         86.60257641]
 [  0.9         26.97835103]
 [  1.         -29.13235822]
 [  1.09391667 -49.9357994 ]]","[[0.         0.86862278]
 [0.1        0.53645709]
 [0.2        1.09554837]
 [0.3        0.97960852]
 [0.4        1.14883971]
 [0.5        0.16341609]
 [0.6        1.34227106]
 [0.7        1.64659331]
 [0.8        0.80940412]
 [0.9        1.55602713]
 [1.         0.0040181 ]
 [1.09391667 1.03656175]]",0,0.844
8749218289,f,19,french,4,5,french,2024-02-01 10:33:05.924446,False,1,90,sounds\english\audio/english_953.wav,"[[  0.          66.99743889]
 [  0.1        -76.84252631]
 [  0.2        -45.49309493]
 [  0.3         55.46461894]
 [  0.4         81.99201124]
 [  0.5          1.34607331]
 [  0.6         50.45029952]
 [  0.7         74.64893983]
 [  0.8         26.00448077]
 [  0.9        -99.39894728]
 [  1.         -16.71063882]
 [  1.09391667  53.60095231]]","[[0.         1.15286604]
 [0.1        1.84100888]
 [0.2        0.29896559]
 [0.3        0.47017465]
 [0.4        0.15248902]
 [0.5        1.13290225]
 [0.6        0.34595451]
 [0.7        0.44244875]
 [0.8        0.8076701 ]
 [0.9        1.93347558]
 [1.         1.69365872]
 [1.09391667 1.16220812]]",1,0.34
8749218289,f,19,french,4,5,french,2024-02-01 10:33:05.924446,False,1,91,sounds\english\audio/english_922.wav,"[[  0.          61.1700044 ]
 [  0.1         82.06984085]
 [  0.2        -92.27579322]
 [  0.3         89.90024406]
 [  0.4         36.91510644]
 [  0.5        -58.72846655]
 [  0.6         85.21548547]
 [  0.7         32.72450866]
 [  0.8         50.92998004]
 [  0.9        -26.56973856]
 [  1.         -43.37360145]
 [  1.09391667 -17.2071356 ]]","[[0.         0.77397562]
 [0.1        1.14937293]
 [0.2        1.03435185]
 [0.3        0.69514863]
 [0.4        0.29090795]
 [0.5        0.08046627]
 [0.6        0.39343329]
 [0.7        0.50557621]
 [0.8        1.28859728]
 [0.9        0.44286158]
 [1.         1.43016745]
 [1.09391667 1.42163313]]",1,0.647
8749218289,f,19,french,4,5,french,2024-02-01 10:33:05.924446,False,1,92,sounds\english\audio/english_983.wav,"[[  0.         -50.22823897]
 [  0.1         -4.67437073]
 [  0.2        -31.6094098 ]
 [  0.3         25.42275216]
 [  0.4         79.9624674 ]
 [  0.5         11.84827872]
 [  0.6        -53.41316004]
 [  0.7         -2.37481813]
 [  0.8         81.38125647]
 [  0.9        -62.03068284]
 [  1.         -64.21224493]
 [  1.09391667  38.19793451]]","[[0.         0.88633634]
 [0.1        1.28034271]
 [0.2        0.94172266]
 [0.3        0.73344406]
 [0.4        1.78223604]
 [0.5        1.04715588]
 [0.6        1.93599287]
 [0.7        0.44413806]
 [0.8        0.67013669]
 [0.9        1.03528206]
 [1.         0.12422577]
 [1.09391667 1.50859084]]",1,0.831
8749218289,f,19,french,4,5,french,2024-02-01 10:33:05.924446,False,1,93,sounds\english\audio/english_384.wav,"[[  0.          25.59746769]
 [  0.1         77.10112132]
 [  0.2        -44.89854527]
 [  0.3        -92.39491606]
 [  0.4         -7.21963548]
 [  0.5        -12.57418593]
 [  0.6        -91.58210139]
 [  0.7        -83.16364251]
 [  0.8        -99.35642135]
 [  0.9         39.42669245]
 [  1.           2.14731946]
 [  1.09391667 -81.26968126]]","[[0.         0.31530466]
 [0.1        1.4723663 ]
 [0.2        0.76042634]
 [0.3        1.26765442]
 [0.4        0.4561299 ]
 [0.5        0.66006902]
 [0.6        0.52858229]
 [0.7        0.95307861]
 [0.8        1.25910316]
 [0.9        1.31614459]
 [1.         0.23757066]
 [1.09391667 1.34705459]]",1,0.494
8749218289,f,19,french,4,5,french,2024-02-01 10:33:05.924446,False,1,94,sounds\english\audio/english_360.wav,"[[  0.         -18.06250331]
 [  0.1        -60.78778271]
 [  0.2         64.58604958]
 [  0.3         15.14883939]
 [  0.4         35.32268856]
 [  0.5         85.60433583]
 [  0.6        -60.74616214]
 [  0.7         93.69417602]
 [  0.8         16.46151858]
 [  0.9         58.0175924 ]
 [  1.          51.01229948]
 [  1.09391667  19.14891505]]","[[0.         0.74392756]
 [0.1        0.33295665]
 [0.2        0.59589568]
 [0.3        1.76245157]
 [0.4        1.62745171]
 [0.5        0.48465   ]
 [0.6        0.94927774]
 [0.7        1.65570249]
 [0.8        1.54593081]
 [0.9        0.34320104]
 [1.         0.20094936]
 [1.09391667 0.69882977]]",1,0.374
8749218289,f,19,french,4,5,french,2024-02-01 10:33:05.924446,False,1,95,sounds\english\audio/english_871.wav,"[[  0.         -17.51935002]
 [  0.1         48.49295959]
 [  0.2         58.25436474]
 [  0.3         19.88257457]
 [  0.4         50.10507231]
 [  0.5        -56.4846044 ]
 [  0.6        -59.75963758]
 [  0.7        -99.92210917]
 [  0.8        -47.06603955]
 [  0.9        -51.36141327]
 [  1.         -80.2024198 ]
 [  1.09391667 -23.03879421]]","[[0.         0.96351457]
 [0.1        1.65140424]
 [0.2        0.10129148]
 [0.3        1.12009066]
 [0.4        1.6763055 ]
 [0.5        1.91634806]
 [0.6        0.79788864]
 [0.7        1.02975972]
 [0.8        0.06596749]
 [0.9        0.92212705]
 [1.         1.99068199]
 [1.09391667 0.00440735]]",1,0.633
8749218289,f,19,french,4,5,french,2024-02-01 10:33:05.924446,False,1,96,sounds\english\audio/english_100.wav,"[[  0.         -24.42637315]
 [  0.1         47.77288594]
 [  0.2        -50.36782497]
 [  0.3          2.2842979 ]
 [  0.4        -15.6809061 ]
 [  0.5         12.92206519]
 [  0.6         58.2816769 ]
 [  0.7         48.23099815]
 [  0.8        -72.65138159]
 [  0.9         22.56578389]
 [  1.           5.8175855 ]
 [  1.09391667  54.85953581]]","[[0.         0.62540921]
 [0.1        1.22625666]
 [0.2        1.26348183]
 [0.3        0.25528387]
 [0.4        0.91288523]
 [0.5        1.75475855]
 [0.6        1.62969237]
 [0.7        0.00541247]
 [0.8        0.94746335]
 [0.9        0.25544392]
 [1.         1.63729526]
 [1.09391667 1.97415754]]",1,0.363
8749218289,f,19,french,4,5,french,2024-02-01 10:33:05.924446,False,1,97,sounds\english\audio/english_157.wav,"[[  0.         -13.52894965]
 [  0.1        -34.99957873]
 [  0.2        -21.40265814]
 [  0.3        -42.34898027]
 [  0.4         -7.21242164]
 [  0.5         17.61734953]
 [  0.6         -1.66241966]
 [  0.7        -36.07690291]
 [  0.8         -3.81325634]
 [  0.9        -34.91223396]
 [  1.         -67.0356687 ]
 [  1.09391667  69.36414719]]","[[0.         0.65332196]
 [0.1        1.87717108]
 [0.2        1.13451342]
 [0.3        1.30632551]
 [0.4        1.3432327 ]
 [0.5        1.54006945]
 [0.6        1.50501088]
 [0.7        1.48209283]
 [0.8        1.76315724]
 [0.9        1.8569822 ]
 [1.         1.47066105]
 [1.09391667 1.7499067 ]]",1,0.621
8749218289,f,19,french,4,5,french,2024-02-01 10:33:05.924446,False,1,98,sounds\english\audio/english_156.wav,"[[  0.          67.80241824]
 [  0.1         29.99846692]
 [  0.2        -57.62339124]
 [  0.3         87.84697028]
 [  0.4         85.25466999]
 [  0.5         21.68559313]
 [  0.6         25.36322325]
 [  0.7        -63.0463062 ]
 [  0.8         55.51522375]
 [  0.9         84.28688223]
 [  1.          75.12562412]
 [  1.09391667   1.86074779]]","[[0.         1.86846381]
 [0.1        0.17784513]
 [0.2        0.792312  ]
 [0.3        1.20922302]
 [0.4        1.15380481]
 [0.5        1.34214235]
 [0.6        0.12119946]
 [0.7        0.90660735]
 [0.8        0.02485499]
 [0.9        1.43158428]
 [1.         1.49951226]
 [1.09391667 1.07671063]]",1,0.41
8749218289,f,19,french,4,5,french,2024-02-01 10:33:05.924446,False,1,99,sounds\english\audio/english_740.wav,"[[  0.          44.23615519]
 [  0.1         98.76848798]
 [  0.2        -87.19170744]
 [  0.3         17.94684961]
 [  0.4        -12.45304931]
 [  0.5        -75.39454761]
 [  0.6        -53.40311478]
 [  0.7        -59.89405571]
 [  0.8         75.23070465]
 [  0.9         -2.56343276]
 [  1.          -6.86096821]
 [  1.09391667 -15.16975803]]","[[0.         0.18420553]
 [0.1        0.33702749]
 [0.2        1.65487116]
 [0.3        1.85046367]
 [0.4        1.41062797]
 [0.5        0.63278533]
 [0.6        0.41831459]
 [0.7        0.99199332]
 [0.8        1.19341016]
 [0.9        1.12149102]
 [1.         0.55698581]
 [1.09391667 1.3020905 ]]",0,0.341
8749218289,f,19,french,4,5,french,2024-02-01 10:33:05.924446,False,1,100,sounds\english\audio/english_219.wav,"[[  0.         -71.22269302]
 [  0.1         81.0106601 ]
 [  0.2         57.89841848]
 [  0.3        -20.90242642]
 [  0.4        -14.30711836]
 [  0.5        -91.16050531]
 [  0.6        -51.25509361]
 [  0.7        -32.58617714]
 [  0.8         -1.65304819]
 [  0.9        -46.25752807]
 [  1.         -57.14980858]
 [  1.09391667  -0.56518547]]","[[0.         0.64229707]
 [0.1        0.83761643]
 [0.2        0.27469413]
 [0.3        1.66128254]
 [0.4        1.11706047]
 [0.5        0.71185951]
 [0.6        0.78321207]
 [0.7        1.3379864 ]
 [0.8        1.4411775 ]
 [0.9        1.25595477]
 [1.         0.30425647]
 [1.09391667 1.82291256]]",0,0.489
8749218289,f,19,french,4,5,french,2024-02-01 10:33:05.924446,False,1,101,sounds\english\audio/english_891.wav,"[[  0.         -51.94899703]
 [  0.1        -40.85786471]
 [  0.2        -13.56091334]
 [  0.3         13.09065144]
 [  0.4         -0.86453478]
 [  0.5         31.90721085]
 [  0.6        -27.60460343]
 [  0.7         85.79516825]
 [  0.8         83.05957198]
 [  0.9        -61.83196055]
 [  1.         -69.67221927]
 [  1.09391667   4.62166255]]","[[0.         0.42846165]
 [0.1        0.93876637]
 [0.2        1.78643125]
 [0.3        1.47761109]
 [0.4        1.66653353]
 [0.5        1.63856449]
 [0.6        1.17540335]
 [0.7        1.60236138]
 [0.8        0.96737739]
 [0.9        1.42758327]
 [1.         0.19704513]
 [1.09391667 0.91556812]]",0,0.421
8749218289,f,19,french,4,5,french,2024-02-01 10:33:05.924446,False,1,102,sounds\english\audio/english_754.wav,"[[  0.         -64.18066608]
 [  0.1        -98.7453181 ]
 [  0.2        -52.29987626]
 [  0.3        -91.6870734 ]
 [  0.4        -99.93480519]
 [  0.5         -2.56117899]
 [  0.6        -58.25705586]
 [  0.7        -50.59283721]
 [  0.8         -3.4865488 ]
 [  0.9         11.81028617]
 [  1.          27.46545009]
 [  1.09391667   8.3161915 ]]","[[0.         1.31756219]
 [0.1        0.6775935 ]
 [0.2        0.44453287]
 [0.3        0.79930959]
 [0.4        0.36385227]
 [0.5        1.60724529]
 [0.6        1.54119087]
 [0.7        0.4128908 ]
 [0.8        0.89168042]
 [0.9        0.16017021]
 [1.         1.03192762]
 [1.09391667 0.24632806]]",1,0.403
8749218289,f,19,french,4,5,french,2024-02-01 10:33:05.924446,False,1,103,sounds\english\audio/english_383.wav,"[[  0.         -63.19284146]
 [  0.1        -11.67623943]
 [  0.2         10.29419774]
 [  0.3         -5.52009964]
 [  0.4         51.48969715]
 [  0.5         36.94617894]
 [  0.6        -43.5176619 ]
 [  0.7         48.24470616]
 [  0.8        -27.34462671]
 [  0.9         77.23299658]
 [  1.         -26.93588993]
 [  1.09391667 -78.64800704]]","[[0.         0.88359619]
 [0.1        0.67885576]
 [0.2        0.79033279]
 [0.3        1.96206588]
 [0.4        1.53913599]
 [0.5        0.70890723]
 [0.6        1.30448928]
 [0.7        0.63214347]
 [0.8        1.26781992]
 [0.9        0.08660782]
 [1.         1.53722143]
 [1.09391667 1.42646009]]",1,0.382
8749218289,f,19,french,4,5,french,2024-02-01 10:33:05.924446,False,1,104,sounds\english\audio/english_515.wav,"[[  0.         -58.23176372]
 [  0.1        -76.45173976]
 [  0.2         25.49902523]
 [  0.3          5.27103545]
 [  0.4        -41.64983344]
 [  0.5        -51.29888172]
 [  0.6         65.36966432]
 [  0.7        -56.17839976]
 [  0.8        -12.23547481]
 [  0.9        -89.1418522 ]
 [  1.           8.96872742]
 [  1.09391667 -18.30503433]]","[[0.         1.22843541]
 [0.1        1.63015901]
 [0.2        1.20813881]
 [0.3        0.47612476]
 [0.4        0.26545174]
 [0.5        1.8557412 ]
 [0.6        0.81547092]
 [0.7        1.63185656]
 [0.8        0.09263004]
 [0.9        1.76127396]
 [1.         0.57224671]
 [1.09391667 1.26155121]]",1,0.379
8749218289,f,19,french,4,5,french,2024-02-01 10:33:05.924446,False,1,105,sounds\english\audio/english_38.wav,"[[  0.          84.84297862]
 [  0.1        -41.13766339]
 [  0.2         31.0243005 ]
 [  0.3         51.71643077]
 [  0.4        -15.52187673]
 [  0.5         37.47478577]
 [  0.6         27.01527087]
 [  0.7         44.60136097]
 [  0.8        -52.37417606]
 [  0.9        -48.58777174]
 [  1.           7.20305444]
 [  1.09391667 -74.66052111]]","[[0.         0.12127835]
 [0.1        0.39553601]
 [0.2        1.29400733]
 [0.3        0.38578685]
 [0.4        0.67216324]
 [0.5        0.61922356]
 [0.6        0.0538602 ]
 [0.7        0.56901487]
 [0.8        1.28646438]
 [0.9        0.80149466]
 [1.         1.28981754]
 [1.09391667 0.46742112]]",1,0.517
8749218289,f,19,french,4,5,french,2024-02-01 10:33:05.924446,False,1,106,sounds\english\audio/english_640.wav,"[[  0.          61.20375749]
 [  0.1        -16.1857947 ]
 [  0.2          6.11258798]
 [  0.3         95.92721012]
 [  0.4         93.14129024]
 [  0.5        -89.55913941]
 [  0.6         57.55264462]
 [  0.7         31.50273718]
 [  0.8         14.91560265]
 [  0.9         73.92386032]
 [  1.          71.81694375]
 [  1.09391667  86.11531977]]","[[0.         0.85142229]
 [0.1        0.85767155]
 [0.2        0.88844778]
 [0.3        1.39275841]
 [0.4        1.52098415]
 [0.5        1.55322116]
 [0.6        0.8538103 ]
 [0.7        0.01301989]
 [0.8        1.48414579]
 [0.9        0.86811695]
 [1.         1.48550262]
 [1.09391667 1.24176268]]",1,0.622
8749218289,f,19,french,4,5,french,2024-02-01 10:33:05.924446,False,1,107,sounds\english\audio/english_533.wav,"[[  0.          82.3150146 ]
 [  0.1        -62.65263441]
 [  0.2         35.24658043]
 [  0.3        -92.25963636]
 [  0.4         55.18355153]
 [  0.5         42.19734794]
 [  0.6         26.84517853]
 [  0.7        -96.44791366]
 [  0.8        -32.52364266]
 [  0.9         72.77745032]
 [  1.          -8.5096212 ]
 [  1.09391667  -5.91345178]]","[[0.         1.74351328]
 [0.1        1.01143167]
 [0.2        1.89837562]
 [0.3        0.63714559]
 [0.4        1.6894321 ]
 [0.5        0.54282928]
 [0.6        1.89183876]
 [0.7        0.53977312]
 [0.8        1.51379003]
 [0.9        1.26846018]
 [1.         0.77810192]
 [1.09391667 1.56024291]]",1,1.34
8749218289,f,19,french,4,5,french,2024-02-01 10:33:05.924446,False,1,108,sounds\english\audio/english_491.wav,"[[  0.         -86.04728356]
 [  0.1        -65.88451303]
 [  0.2        -80.48711576]
 [  0.3        -14.20773903]
 [  0.4          8.14780759]
 [  0.5        -64.09571567]
 [  0.6         54.51757577]
 [  0.7         44.38602798]
 [  0.8         -1.2376907 ]
 [  0.9         77.13121924]
 [  1.         -14.590686  ]
 [  1.09391667  68.41813951]]","[[0.         0.47614904]
 [0.1        0.55089812]
 [0.2        1.1167033 ]
 [0.3        1.47203435]
 [0.4        1.34464479]
 [0.5        1.15432427]
 [0.6        1.10816548]
 [0.7        0.53599429]
 [0.8        1.13980754]
 [0.9        0.89300384]
 [1.         0.5502855 ]
 [1.09391667 1.59909439]]",0,0.551
8749218289,f,19,french,4,5,french,2024-02-01 10:33:05.924446,False,1,109,sounds\english\audio/english_399.wav,"[[  0.           7.35119233]
 [  0.1          7.30105906]
 [  0.2        -55.03587691]
 [  0.3         63.9361431 ]
 [  0.4         44.6049307 ]
 [  0.5         68.42668929]
 [  0.6         54.53895784]
 [  0.7         87.63954028]
 [  0.8         -0.41432999]
 [  0.9         24.60615905]
 [  1.         -97.67130798]
 [  1.09391667  61.44027276]]","[[0.         1.43512774]
 [0.1        1.7056904 ]
 [0.2        1.60882656]
 [0.3        1.57397844]
 [0.4        0.93377042]
 [0.5        1.9481779 ]
 [0.6        1.40688071]
 [0.7        0.69376281]
 [0.8        1.28838791]
 [0.9        0.52758228]
 [1.         0.96519431]
 [1.09391667 1.05566464]]",0,0.311
8749218289,f,19,french,4,5,french,2024-02-01 10:33:05.924446,False,1,110,sounds\english\audio/english_848.wav,"[[  0.          16.27018666]
 [  0.1        -74.75395213]
 [  0.2         55.44859949]
 [  0.3        -32.83945411]
 [  0.4         30.01434436]
 [  0.5         48.58281319]
 [  0.6        -85.68192699]
 [  0.7         27.03943406]
 [  0.8         14.64264022]
 [  0.9        -60.92798451]
 [  1.         -13.82637474]
 [  1.09391667 -65.39894946]]","[[0.         0.42429773]
 [0.1        0.55671169]
 [0.2        0.96508228]
 [0.3        0.7665276 ]
 [0.4        0.96341741]
 [0.5        0.06275252]
 [0.6        0.89297301]
 [0.7        0.16213779]
 [0.8        1.88232235]
 [0.9        1.9298227 ]
 [1.         0.08076178]
 [1.09391667 1.11155621]]",0,0.251
8749218289,f,19,french,4,5,french,2024-02-01 10:33:05.924446,False,1,111,sounds\english\audio/english_991.wav,"[[  0.          -1.1896089 ]
 [  0.1        -96.26402249]
 [  0.2         35.13230964]
 [  0.3         16.47291022]
 [  0.4        -88.97016612]
 [  0.5        -18.26917978]
 [  0.6        -86.44611587]
 [  0.7        -23.18394533]
 [  0.8        -34.88810698]
 [  0.9         58.2484142 ]
 [  1.          13.64122516]
 [  1.09391667 -13.61979163]]","[[0.         1.11058757]
 [0.1        0.1672209 ]
 [0.2        1.95155766]
 [0.3        0.04651437]
 [0.4        1.74859016]
 [0.5        1.4122656 ]
 [0.6        0.52281086]
 [0.7        1.29572944]
 [0.8        1.11115335]
 [0.9        1.29146841]
 [1.         1.37847477]
 [1.09391667 0.12249008]]",0,0.279
8749218289,f,19,french,4,5,french,2024-02-01 10:33:05.924446,False,1,112,sounds\english\audio/english_293.wav,"[[  0.         -41.6717185 ]
 [  0.1         80.2291893 ]
 [  0.2        -71.0140068 ]
 [  0.3        -90.64066123]
 [  0.4         -6.53332233]
 [  0.5         -9.32979117]
 [  0.6         53.89735235]
 [  0.7        -63.4364313 ]
 [  0.8        -96.19547901]
 [  0.9        -36.41686224]
 [  1.          99.46412477]
 [  1.09391667  17.36040502]]","[[0.         1.35571263]
 [0.1        0.51147984]
 [0.2        0.41951934]
 [0.3        0.6442562 ]
 [0.4        0.98522539]
 [0.5        0.92132945]
 [0.6        1.4753131 ]
 [0.7        0.11499708]
 [0.8        1.03841664]
 [0.9        1.94583411]
 [1.         0.65545153]
 [1.09391667 1.59979165]]",0,0.111
8749218289,f,19,french,4,5,french,2024-02-01 10:33:05.924446,False,1,113,sounds\english\audio/english_712.wav,"[[ 0.00000000e+00 -2.31463857e+01]
 [ 1.00000000e-01  2.46800968e+01]
 [ 2.00000000e-01  1.61964332e-02]
 [ 3.00000000e-01 -1.76606804e+01]
 [ 4.00000000e-01  3.66433398e-01]
 [ 5.00000000e-01  9.21731967e+01]
 [ 6.00000000e-01  3.77445609e+01]
 [ 7.00000000e-01  3.61997785e+01]
 [ 8.00000000e-01  6.81982864e+01]
 [ 9.00000000e-01  8.90317309e+01]
 [ 1.00000000e+00 -1.82298461e+01]
 [ 1.09391667e+00  4.18738238e+00]]","[[0.         0.37379236]
 [0.1        1.67699004]
 [0.2        1.79701075]
 [0.3        0.97598087]
 [0.4        0.364202  ]
 [0.5        1.74943947]
 [0.6        0.51022449]
 [0.7        1.89888437]
 [0.8        1.17858578]
 [0.9        0.87832213]
 [1.         1.72214889]
 [1.09391667 0.60066774]]",1,0.269
8749218289,f,19,french,4,5,french,2024-02-01 10:33:05.924446,False,1,114,sounds\english\audio/english_979.wav,"[[  0.          37.48457567]
 [  0.1        -37.02244062]
 [  0.2        -24.69283161]
 [  0.3        -46.06023598]
 [  0.4        -42.84074597]
 [  0.5         74.27862476]
 [  0.6         -8.30998961]
 [  0.7         58.9564601 ]
 [  0.8         -5.32034309]
 [  0.9         26.74044499]
 [  1.         -18.64517926]
 [  1.09391667  58.46936922]]","[[0.         1.4207367 ]
 [0.1        1.31079647]
 [0.2        0.99381913]
 [0.3        1.92885953]
 [0.4        1.90853779]
 [0.5        0.2569717 ]
 [0.6        0.19374483]
 [0.7        1.09057025]
 [0.8        1.33389295]
 [0.9        0.56327367]
 [1.         0.75332902]
 [1.09391667 0.45071064]]",1,0.205
8749218289,f,19,french,4,5,french,2024-02-01 10:33:05.924446,False,1,115,sounds\english\audio/english_9.wav,"[[  0.         -96.61203468]
 [  0.1         27.77418146]
 [  0.2        -42.79973111]
 [  0.3         52.67007286]
 [  0.4        -77.37689486]
 [  0.5         22.33265825]
 [  0.6        -21.53246611]
 [  0.7         11.78226484]
 [  0.8        -45.34236124]
 [  0.9         55.83053399]
 [  1.          -0.17077069]
 [  1.09391667 -99.58545301]]","[[0.         1.48407489]
 [0.1        0.71089129]
 [0.2        1.02276586]
 [0.3        0.94605025]
 [0.4        1.64255066]
 [0.5        1.1767353 ]
 [0.6        1.24238606]
 [0.7        0.92864334]
 [0.8        1.13602565]
 [0.9        1.46898539]
 [1.         1.30855548]
 [1.09391667 1.24881599]]",1,0.083
8749218289,f,19,french,4,5,french,2024-02-01 10:33:05.924446,False,1,116,sounds\english\audio/english_676.wav,"[[  0.          77.23951032]
 [  0.1         27.47427545]
 [  0.2         92.07370265]
 [  0.3        -39.62602007]
 [  0.4        -81.22107243]
 [  0.5        -99.04707649]
 [  0.6        -64.5180536 ]
 [  0.7         91.29392748]
 [  0.8         97.8635705 ]
 [  0.9        -84.2423741 ]
 [  1.         -76.68596269]
 [  1.09391667  65.10857552]]","[[0.         1.33259474]
 [0.1        0.90028372]
 [0.2        1.66717955]
 [0.3        0.42158585]
 [0.4        1.7878255 ]
 [0.5        1.33780608]
 [0.6        0.94548991]
 [0.7        1.43207041]
 [0.8        1.03085722]
 [0.9        0.34895699]
 [1.         0.83720355]
 [1.09391667 1.31764415]]",1,0.23
8749218289,f,19,french,4,5,french,2024-02-01 10:33:05.924446,False,1,117,sounds\english\audio/english_554.wav,"[[  0.          68.06713434]
 [  0.1         51.53363243]
 [  0.2         96.79789275]
 [  0.3        -32.97805092]
 [  0.4         38.32175517]
 [  0.5        -48.79684279]
 [  0.6          6.57101052]
 [  0.7         30.34426539]
 [  0.8         57.10485473]
 [  0.9        -93.21826179]
 [  1.          58.97430912]
 [  1.09391667  32.65345188]]","[[0.         1.26196428]
 [0.1        1.49608983]
 [0.2        1.01925431]
 [0.3        1.27259864]
 [0.4        0.99325409]
 [0.5        1.83296218]
 [0.6        1.99419824]
 [0.7        1.31395906]
 [0.8        1.83167901]
 [0.9        1.93422624]
 [1.         1.62256756]
 [1.09391667 0.90589094]]",1,0.118
8749218289,f,19,french,4,5,french,2024-02-01 10:33:05.924446,False,1,118,sounds\english\audio/english_776.wav,"[[  0.          87.36983695]
 [  0.1         -7.36044234]
 [  0.2        -78.22847681]
 [  0.3        -28.99379036]
 [  0.4         76.19445877]
 [  0.5        -43.33414   ]
 [  0.6        -77.80909366]
 [  0.7        -63.14510086]
 [  0.8         70.29145503]
 [  0.9         46.24407769]
 [  1.         -23.45182889]
 [  1.09391667  72.2860477 ]]","[[0.         0.99012423]
 [0.1        0.99897732]
 [0.2        1.18840119]
 [0.3        1.28345901]
 [0.4        0.93018475]
 [0.5        1.3758077 ]
 [0.6        0.61279661]
 [0.7        1.13295599]
 [0.8        0.21705032]
 [0.9        1.45577739]
 [1.         1.82818043]
 [1.09391667 0.32191232]]",1,0.258
8749218289,f,19,french,4,5,french,2024-02-01 10:33:05.924446,False,1,119,sounds\english\audio/english_369.wav,"[[  0.         -98.51702781]
 [  0.1        -77.74164505]
 [  0.2         13.86053007]
 [  0.3         94.45294859]
 [  0.4        -68.44131684]
 [  0.5        -11.02159052]
 [  0.6        -93.03562761]
 [  0.7         92.19991551]
 [  0.8         44.28946949]
 [  0.9        -36.54704406]
 [  1.          75.92915306]
 [  1.09391667  43.6375557 ]]","[[0.         1.05319591]
 [0.1        0.35563608]
 [0.2        0.74921535]
 [0.3        1.88151113]
 [0.4        1.38340448]
 [0.5        1.0971757 ]
 [0.6        0.74102815]
 [0.7        0.86578633]
 [0.8        0.42333119]
 [0.9        1.30148328]
 [1.         0.13274677]
 [1.09391667 0.3552412 ]]",0,0.178
8749218289,f,19,french,4,5,french,2024-02-01 10:33:05.924446,False,1,120,sounds\english\audio/english_855.wav,"[[  0.         -13.47347562]
 [  0.1        -80.05914573]
 [  0.2        -72.26699248]
 [  0.3        -58.92718016]
 [  0.4        -26.10050626]
 [  0.5         52.49716227]
 [  0.6        -60.2709564 ]
 [  0.7         99.6254906 ]
 [  0.8         96.73720775]
 [  0.9         38.62507801]
 [  1.         -58.05029263]
 [  1.09391667 -97.63647514]]","[[0.         1.00059458]
 [0.1        0.50263337]
 [0.2        0.84336515]
 [0.3        1.88793301]
 [0.4        0.44425999]
 [0.5        1.63024313]
 [0.6        0.11111393]
 [0.7        1.35713378]
 [0.8        0.79488914]
 [0.9        1.22496373]
 [1.         1.90547482]
 [1.09391667 0.01778788]]",0,1.961
8749218289,f,19,french,4,5,french,2024-02-01 10:33:05.924446,False,1,121,sounds\english\audio/english_863.wav,"[[  0.           3.14313852]
 [  0.1        -23.21665248]
 [  0.2         94.57997372]
 [  0.3        -70.02674633]
 [  0.4         40.94796862]
 [  0.5         88.61836916]
 [  0.6         69.208784  ]
 [  0.7         77.12421504]
 [  0.8        -17.44873358]
 [  0.9        -87.01424673]
 [  1.         -56.04990787]
 [  1.09391667 -48.10301357]]","[[0.         1.16629305]
 [0.1        0.07060829]
 [0.2        0.73624632]
 [0.3        1.78608874]
 [0.4        1.19353904]
 [0.5        1.05800258]
 [0.6        1.13776513]
 [0.7        0.42226269]
 [0.8        1.07561455]
 [0.9        0.7154793 ]
 [1.         0.64178271]
 [1.09391667 1.63280959]]",1,0.328
8749218289,f,19,french,4,5,french,2024-02-01 10:33:05.924446,False,1,122,sounds\english\audio/english_38.wav,"[[  0.          84.84297862]
 [  0.1        -41.13766339]
 [  0.2         31.0243005 ]
 [  0.3         51.71643077]
 [  0.4        -15.52187673]
 [  0.5         37.47478577]
 [  0.6         27.01527087]
 [  0.7         44.60136097]
 [  0.8        -52.37417606]
 [  0.9        -48.58777174]
 [  1.           7.20305444]
 [  1.09391667 -74.66052111]]","[[0.         0.12127835]
 [0.1        0.39553601]
 [0.2        1.29400733]
 [0.3        0.38578685]
 [0.4        0.67216324]
 [0.5        0.61922356]
 [0.6        0.0538602 ]
 [0.7        0.56901487]
 [0.8        1.28646438]
 [0.9        0.80149466]
 [1.         1.28981754]
 [1.09391667 0.46742112]]",1,0.328
8749218289,f,19,french,4,5,french,2024-02-01 10:33:05.924446,False,1,123,sounds\english\audio/english_521.wav,"[[  0.           5.37787975]
 [  0.1          9.32249591]
 [  0.2          4.19745407]
 [  0.3        -75.18613478]
 [  0.4         87.02780947]
 [  0.5        -73.26225675]
 [  0.6         66.15406762]
 [  0.7         -9.80579818]
 [  0.8         17.20812603]
 [  0.9         21.88979452]
 [  1.         -69.39969828]
 [  1.09391667 -64.03153918]]","[[0.         1.11621025]
 [0.1        0.69917502]
 [0.2        0.1199413 ]
 [0.3        1.762579  ]
 [0.4        1.43452798]
 [0.5        0.23094002]
 [0.6        1.51181612]
 [0.7        1.4155143 ]
 [0.8        1.82718341]
 [0.9        1.93759588]
 [1.         1.70606784]
 [1.09391667 0.09885652]]",1,0.409
8749218289,f,19,french,4,5,french,2024-02-01 10:33:05.924446,False,1,124,sounds\english\audio/english_590.wav,"[[  0.          24.53986414]
 [  0.1         62.74729121]
 [  0.2         -6.99692864]
 [  0.3         32.91070415]
 [  0.4         54.80975448]
 [  0.5         24.32530029]
 [  0.6         16.29432048]
 [  0.7        -66.06817006]
 [  0.8        -90.96676801]
 [  0.9         -4.67977612]
 [  1.         -25.79105575]
 [  1.09391667 -43.70584136]]","[[0.         1.78897409]
 [0.1        1.71743114]
 [0.2        1.45844579]
 [0.3        0.05079794]
 [0.4        1.44685897]
 [0.5        0.6322235 ]
 [0.6        1.01805408]
 [0.7        0.32502854]
 [0.8        1.20600442]
 [0.9        0.69143843]
 [1.         0.12523546]
 [1.09391667 1.95537842]]",1,0.295
8749218289,f,19,french,4,5,french,2024-02-01 10:33:05.924446,False,1,125,sounds\english\audio/english_155.wav,"[[ 0.00000000e+00  2.16550533e+01]
 [ 1.00000000e-01 -1.67941280e-03]
 [ 2.00000000e-01 -7.75292073e+01]
 [ 3.00000000e-01 -4.49313065e+01]
 [ 4.00000000e-01 -3.37969309e+01]
 [ 5.00000000e-01  4.62285188e+01]
 [ 6.00000000e-01  9.30191022e+01]
 [ 7.00000000e-01  8.06417886e+01]
 [ 8.00000000e-01 -7.64782648e+01]
 [ 9.00000000e-01 -3.59649270e+01]
 [ 1.00000000e+00  9.03757390e+01]
 [ 1.09391667e+00  6.64760030e+01]]","[[0.         0.01570598]
 [0.1        1.76749017]
 [0.2        1.37583653]
 [0.3        0.19365623]
 [0.4        1.34202306]
 [0.5        1.87351349]
 [0.6        1.89118344]
 [0.7        1.25713993]
 [0.8        1.84259347]
 [0.9        0.04007403]
 [1.         1.64837519]
 [1.09391667 1.87071869]]",0,0.677
8749218289,f,19,french,4,5,french,2024-02-01 10:33:05.924446,False,1,126,sounds\english\audio/english_636.wav,"[[  0.          67.71914356]
 [  0.1         73.23750135]
 [  0.2        -94.77637622]
 [  0.3         41.8095849 ]
 [  0.4         44.54848263]
 [  0.5        -87.10854597]
 [  0.6         12.76932042]
 [  0.7        -15.47844842]
 [  0.8        -27.08826091]
 [  0.9         -8.55837042]
 [  1.          62.11399846]
 [  1.09391667   1.57014334]]","[[0.         0.71351394]
 [0.1        0.58810626]
 [0.2        0.12310704]
 [0.3        0.24518537]
 [0.4        1.96939905]
 [0.5        1.82615159]
 [0.6        0.20211228]
 [0.7        0.69598299]
 [0.8        0.43499073]
 [0.9        1.83264506]
 [1.         0.36387194]
 [1.09391667 0.65195864]]",0,0.879
8749218289,f,19,french,4,5,french,2024-02-01 10:33:05.924446,False,1,127,sounds\english\audio/english_718.wav,"[[  0.          61.00269276]
 [  0.1         -4.74934843]
 [  0.2          9.01462899]
 [  0.3         79.23930225]
 [  0.4        -22.0403667 ]
 [  0.5        -60.9220938 ]
 [  0.6         36.91126826]
 [  0.7         23.15113788]
 [  0.8        -72.29830581]
 [  0.9        -56.27843268]
 [  1.         -20.76477327]
 [  1.09391667 -26.98598325]]","[[0.         1.9915537 ]
 [0.1        0.89410112]
 [0.2        1.56072611]
 [0.3        0.98422559]
 [0.4        1.91227381]
 [0.5        1.04807259]
 [0.6        0.76136187]
 [0.7        1.40698191]
 [0.8        0.19509634]
 [0.9        0.95755477]
 [1.         0.32836836]
 [1.09391667 1.63350278]]",1,0.45
8749218289,f,19,french,4,5,french,2024-02-01 10:33:05.924446,False,1,128,sounds\english\audio/english_351.wav,"[[  0.         -19.65986015]
 [  0.1         73.58710044]
 [  0.2         74.12275499]
 [  0.3        -24.45683786]
 [  0.4         21.01511918]
 [  0.5         55.7456538 ]
 [  0.6         54.50583955]
 [  0.7         74.68230433]
 [  0.8        -93.39577551]
 [  0.9         89.8823857 ]
 [  1.          82.37960735]
 [  1.09391667  -9.15420485]]","[[0.         1.42460204]
 [0.1        0.00643347]
 [0.2        0.97495265]
 [0.3        0.52137616]
 [0.4        1.11946487]
 [0.5        0.33788576]
 [0.6        1.25361851]
 [0.7        1.43767459]
 [0.8        0.08040705]
 [0.9        0.01025875]
 [1.         0.65117528]
 [1.09391667 0.78690639]]",1,0.364
8749218289,f,19,french,4,5,french,2024-02-01 10:33:05.924446,False,1,129,sounds\english\audio/english_835.wav,"[[  0.         -39.02011782]
 [  0.1        -63.30829774]
 [  0.2        -49.45230925]
