subj,sex,age,language,english,french,native_lang,date,practice,block,trial,stim,pitch,stretch,response,rt
8817605319,m,22,french,4,5,french,2024-02-07 15:14:50.712299,True,0,0,sounds\english\audio/english_171.wav,"[[  0.          57.16640714]
 [  0.1         74.54839728]
 [  0.2         95.75678202]
 [  0.3         39.99051632]
 [  0.4         -6.66803256]
 [  0.5        -11.42556478]
 [  0.6        -61.08204703]
 [  0.7        -47.00718825]
 [  0.8        -62.88052724]
 [  0.9        -55.43761186]
 [  1.         -25.22707532]
 [  1.09391667  72.94956576]]","[[0.         0.48953769]
 [0.1        1.15474794]
 [0.2        1.06369724]
 [0.3        0.94070076]
 [0.4        0.05995963]
 [0.5        0.94038212]
 [0.6        1.30766084]
 [0.7        1.96472455]
 [0.8        0.35350446]
 [0.9        0.65278216]
 [1.         1.06452254]
 [1.09391667 0.49293676]]",0,7.925
8817605319,m,22,french,4,5,french,2024-02-07 15:14:50.712299,True,0,1,sounds\english\audio/english_542.wav,"[[  0.          77.25836123]
 [  0.1          4.96687677]
 [  0.2        -69.63893361]
 [  0.3         36.13476154]
 [  0.4         29.93419476]
 [  0.5        -71.22267205]
 [  0.6        -30.36103617]
 [  0.7        -14.05066862]
 [  0.8         21.39979207]
 [  0.9          0.74742826]
 [  1.          44.77375782]
 [  1.09391667 -66.5594785 ]]","[[0.         0.87207269]
 [0.1        0.90240888]
 [0.2        0.25644456]
 [0.3        0.86696527]
 [0.4        1.70387716]
 [0.5        1.80144796]
 [0.6        0.29401729]
 [0.7        1.14442321]
 [0.8        1.80586802]
 [0.9        1.77494895]
 [1.         0.36146727]
 [1.09391667 1.85294654]]",1,1.499
8817605319,m,22,french,4,5,french,2024-02-07 15:14:50.712299,True,0,2,sounds\english\audio/english_570.wav,"[[  0.           4.27892196]
 [  0.1        -65.10560908]
 [  0.2        -46.49099881]
 [  0.3         92.02313014]
 [  0.4        -62.36360028]
 [  0.5         -5.7481882 ]
 [  0.6        -29.57103274]
 [  0.7        -12.57991884]
 [  0.8         -0.28533532]
 [  0.9         70.53696138]
 [  1.         -21.79274863]
 [  1.09391667  77.34028184]]","[[0.         1.38341141]
 [0.1        0.63616801]
 [0.2        0.88657916]
 [0.3        1.65534728]
 [0.4        0.58832985]
 [0.5        0.35954779]
 [0.6        0.83826919]
 [0.7        1.34190797]
 [0.8        0.71480272]
 [0.9        1.84273358]
 [1.         1.41836707]
 [1.09391667 1.74855227]]",0,4.888
8817605319,m,22,french,4,5,french,2024-02-07 15:14:50.712299,False,1,3,sounds\english\audio/english_616.wav,"[[  0.         -58.43899918]
 [  0.1         91.54551443]
 [  0.2        -72.76331238]
 [  0.3         98.66983591]
 [  0.4         30.89695447]
 [  0.5         95.21036015]
 [  0.6         38.34251154]
 [  0.7         53.37022057]
 [  0.8         64.27718414]
 [  0.9        -47.15745764]
 [  1.          61.31789033]
 [  1.09391667 -28.29544228]]","[[0.         1.31887323]
 [0.1        1.19326366]
 [0.2        1.15507306]
 [0.3        1.15408068]
 [0.4        1.80966351]
 [0.5        0.8568389 ]
 [0.6        0.52507159]
 [0.7        1.38987598]
 [0.8        1.91003383]
 [0.9        1.62420327]
 [1.         1.95831122]
 [1.09391667 0.95794745]]",1,0.807
8817605319,m,22,french,4,5,french,2024-02-07 15:14:50.712299,False,1,4,sounds\english\audio/english_791.wav,"[[  0.         -46.06630558]
 [  0.1        -10.41029295]
 [  0.2         46.47346809]
 [  0.3        -10.43860287]
 [  0.4        -38.16717219]
 [  0.5         44.56559314]
 [  0.6         43.70696978]
 [  0.7         -5.54884815]
 [  0.8         89.91059564]
 [  0.9         90.72111025]
 [  1.           4.8020349 ]
 [  1.09391667   7.87463746]]","[[0.         1.16002163]
 [0.1        1.31545425]
 [0.2        0.89173565]
 [0.3        0.05427007]
 [0.4        1.4017057 ]
 [0.5        0.47849772]
 [0.6        1.59729287]
 [0.7        1.50901191]
 [0.8        0.68083576]
 [0.9        1.62669182]
 [1.         1.81653342]
 [1.09391667 1.33572141]]",0,4.063
8817605319,m,22,french,4,5,french,2024-02-07 15:14:50.712299,False,1,5,sounds\english\audio/english_584.wav,"[[  0.          50.7358721 ]
 [  0.1        -37.41238679]
 [  0.2        -21.91541438]
 [  0.3         67.49251718]
 [  0.4         36.0609863 ]
 [  0.5         29.68399092]
 [  0.6         69.24169566]
 [  0.7          2.10305954]
 [  0.8         23.93501401]
 [  0.9        -17.64282744]
 [  1.          80.89116082]
 [  1.09391667 -10.99932322]]","[[0.         1.24615014]
 [0.1        1.8454839 ]
 [0.2        1.76277899]
 [0.3        0.88473448]
 [0.4        0.58271182]
 [0.5        1.46602634]
 [0.6        1.79468998]
 [0.7        1.56143928]
 [0.8        0.46568097]
 [0.9        0.5808441 ]
 [1.         1.80196263]
 [1.09391667 1.58954467]]",0,2.886
8817605319,m,22,french,4,5,french,2024-02-07 15:14:50.712299,False,1,6,sounds\english\audio/english_310.wav,"[[ 0.00000000e+00 -7.30364012e+01]
 [ 1.00000000e-01 -2.21461231e+01]
 [ 2.00000000e-01 -6.87915777e+01]
 [ 3.00000000e-01  1.59567541e+01]
 [ 4.00000000e-01  6.90214219e-02]
 [ 5.00000000e-01  1.10751916e+01]
 [ 6.00000000e-01 -4.73549816e+00]
 [ 7.00000000e-01  8.94133264e+01]
 [ 8.00000000e-01  8.59912910e+00]
 [ 9.00000000e-01 -4.29855425e+01]
 [ 1.00000000e+00  2.17690352e+01]
 [ 1.09391667e+00 -6.85633248e+01]]","[[0.         1.20427188]
 [0.1        0.93293509]
 [0.2        0.44843766]
 [0.3        1.947333  ]
 [0.4        0.80984127]
 [0.5        0.49483553]
 [0.6        1.63471819]
 [0.7        0.6439244 ]
 [0.8        1.83711469]
 [0.9        1.01800117]
 [1.         0.59348897]
 [1.09391667 1.68402605]]",1,2.424
8817605319,m,22,french,4,5,french,2024-02-07 15:14:50.712299,False,1,7,sounds\english\audio/english_710.wav,"[[  0.         -39.30636168]
 [  0.1        -97.6674904 ]
 [  0.2         64.09122161]
 [  0.3         75.88571101]
 [  0.4        -88.52762731]
 [  0.5         82.62720899]
 [  0.6        -76.34366579]
 [  0.7         -8.69440278]
 [  0.8        -70.02409217]
 [  0.9         57.25294742]
 [  1.         -12.57900879]
 [  1.09391667  58.69693709]]","[[0.         1.80624949]
 [0.1        0.47182227]
 [0.2        0.70971527]
 [0.3        0.05116828]
 [0.4        1.76085876]
 [0.5        0.52858011]
 [0.6        0.11108823]
 [0.7        1.51710045]
 [0.8        1.27546604]
 [0.9        0.25600017]
 [1.         0.70194387]
 [1.09391667 0.08256398]]",1,4.579
8817605319,m,22,french,4,5,french,2024-02-07 15:14:50.712299,False,1,8,sounds\english\audio/english_508.wav,"[[  0.          29.95487344]
 [  0.1        -43.56994085]
 [  0.2         95.99440846]
 [  0.3         96.63128694]
 [  0.4         81.88240965]
 [  0.5        -30.32405698]
 [  0.6        -70.6760635 ]
 [  0.7        -36.19238407]
 [  0.8         18.2315003 ]
 [  0.9        -71.56865734]
 [  1.         -72.78274833]
 [  1.09391667  51.72471755]]","[[0.         1.28947786]
 [0.1        0.45872669]
 [0.2        1.02864136]
 [0.3        1.38697031]
 [0.4        0.48619633]
 [0.5        1.35316712]
 [0.6        0.61818132]
 [0.7        0.31535759]
 [0.8        1.60240226]
 [0.9        1.17638413]
 [1.         0.8457368 ]
 [1.09391667 0.31851434]]",1,5.528
8817605319,m,22,french,4,5,french,2024-02-07 15:14:50.712299,False,1,9,sounds\english\audio/english_351.wav,"[[  0.         -19.65986015]
 [  0.1         73.58710044]
 [  0.2         74.12275499]
 [  0.3        -24.45683786]
 [  0.4         21.01511918]
 [  0.5         55.7456538 ]
 [  0.6         54.50583955]
 [  0.7         74.68230433]
 [  0.8        -93.39577551]
 [  0.9         89.8823857 ]
 [  1.          82.37960735]
 [  1.09391667  -9.15420485]]","[[0.         1.42460204]
 [0.1        0.00643347]
 [0.2        0.97495265]
 [0.3        0.52137616]
 [0.4        1.11946487]
 [0.5        0.33788576]
 [0.6        1.25361851]
 [0.7        1.43767459]
 [0.8        0.08040705]
 [0.9        0.01025875]
 [1.         0.65117528]
 [1.09391667 0.78690639]]",0,4.27
8817605319,m,22,french,4,5,french,2024-02-07 15:14:50.712299,False,1,10,sounds\english\audio/english_983.wav,"[[  0.         -50.22823897]
 [  0.1         -4.67437073]
 [  0.2        -31.6094098 ]
 [  0.3         25.42275216]
 [  0.4         79.9624674 ]
 [  0.5         11.84827872]
 [  0.6        -53.41316004]
 [  0.7         -2.37481813]
 [  0.8         81.38125647]
 [  0.9        -62.03068284]
 [  1.         -64.21224493]
 [  1.09391667  38.19793451]]","[[0.         0.88633634]
 [0.1        1.28034271]
 [0.2        0.94172266]
 [0.3        0.73344406]
 [0.4        1.78223604]
 [0.5        1.04715588]
 [0.6        1.93599287]
 [0.7        0.44413806]
 [0.8        0.67013669]
 [0.9        1.03528206]
 [1.         0.12422577]
 [1.09391667 1.50859084]]",1,7.555
8817605319,m,22,french,4,5,french,2024-02-07 15:14:50.712299,False,1,11,sounds\english\audio/english_592.wav,"[[  0.          30.98461306]
 [  0.1        -17.79187274]
 [  0.2         33.7453651 ]
 [  0.3        -15.93784107]
 [  0.4         36.34266121]
 [  0.5         -6.45881142]
 [  0.6         38.75009271]
 [  0.7        -18.69448539]
 [  0.8         10.99383987]
 [  0.9        -57.55307603]
 [  1.          68.46340248]
 [  1.09391667 -57.3554082 ]]","[[0.         1.65452317]
 [0.1        0.58176006]
 [0.2        0.51380187]
 [0.3        0.75142438]
 [0.4        1.13924678]
 [0.5        0.73835275]
 [0.6        0.33161747]
 [0.7        0.65193992]
 [0.8        1.64752508]
 [0.9        1.01941164]
 [1.         0.79462289]
 [1.09391667 1.32766904]]",1,4.621
8817605319,m,22,french,4,5,french,2024-02-07 15:14:50.712299,False,1,12,sounds\english\audio/english_541.wav,"[[  0.         -82.81265179]
 [  0.1         18.23831049]
 [  0.2        -76.96396075]
 [  0.3         86.02032489]
 [  0.4         57.7574695 ]
 [  0.5        -18.45048615]
 [  0.6         -3.56295596]
 [  0.7         30.63851894]
 [  0.8        -39.32138092]
 [  0.9         87.82943792]
 [  1.         -83.54766347]
 [  1.09391667 -65.29737413]]","[[0.         1.86592143]
 [0.1        0.0388768 ]
 [0.2        1.09878478]
 [0.3        0.28431894]
 [0.4        0.60530487]
 [0.5        0.68867988]
 [0.6        0.07188907]
 [0.7        1.28694892]
 [0.8        0.37107191]
 [0.9        0.0101762 ]
 [1.         1.03448412]
 [1.09391667 1.0808851 ]]",0,2.133
8817605319,m,22,french,4,5,french,2024-02-07 15:14:50.712299,False,1,13,sounds\english\audio/english_36.wav,"[[  0.          -9.00477988]
 [  0.1        -13.45702302]
 [  0.2         -2.81727849]
 [  0.3        -29.71164893]
 [  0.4         95.72220786]
 [  0.5        -60.23405317]
 [  0.6        -99.2529621 ]
 [  0.7         -7.64791957]
 [  0.8        -68.45334788]
 [  0.9         91.90753039]
 [  1.          93.40110395]
 [  1.09391667 -27.95691035]]","[[0.         0.81327237]
 [0.1        0.45075004]
 [0.2        0.1663237 ]
 [0.3        1.57862109]
 [0.4        1.7254824 ]
 [0.5        1.10066579]
 [0.6        0.59792659]
 [0.7        1.42084394]
 [0.8        0.87400001]
 [0.9        1.522223  ]
 [1.         0.56951468]
 [1.09391667 1.01798822]]",1,1.729
8817605319,m,22,french,4,5,french,2024-02-07 15:14:50.712299,False,1,14,sounds\english\audio/english_188.wav,"[[  0.         -44.78438497]
 [  0.1        -59.64362525]
 [  0.2        -64.08533898]
 [  0.3        -29.1378116 ]
 [  0.4         -4.14868477]
 [  0.5        -61.00737987]
 [  0.6         61.72468412]
 [  0.7         91.61563335]
 [  0.8        -69.21450223]
 [  0.9         55.80681999]
 [  1.         -13.47812759]
 [  1.09391667  47.39616925]]","[[0.         0.94710117]
 [0.1        0.96413905]
 [0.2        0.84840618]
 [0.3        0.37627617]
 [0.4        1.62621942]
 [0.5        0.44747201]
 [0.6        0.51555254]
 [0.7        1.97040932]
 [0.8        0.35468899]
 [0.9        1.42342949]
 [1.         1.23724986]
 [1.09391667 0.05613364]]",1,0.659
8817605319,m,22,french,4,5,french,2024-02-07 15:14:50.712299,False,1,15,sounds\english\audio/english_330.wav,"[[  0.           2.24171654]
 [  0.1        -47.25901686]
 [  0.2        -45.6229367 ]
 [  0.3        -66.26500136]
 [  0.4         13.126007  ]
 [  0.5        -55.3162329 ]
 [  0.6        -44.94887053]
 [  0.7         21.08483531]
 [  0.8        -37.88434209]
 [  0.9          4.20371748]
 [  1.          80.65582765]
 [  1.09391667  87.33082059]]","[[0.         0.54683967]
 [0.1        1.92392168]
 [0.2        0.88546949]
 [0.3        1.41106585]
 [0.4        1.87683818]
 [0.5        1.08870848]
 [0.6        0.98346159]
 [0.7        0.45031197]
 [0.8        1.40044514]
 [0.9        0.75112893]
 [1.         0.77181744]
 [1.09391667 0.38922024]]",0,0.868
8817605319,m,22,french,4,5,french,2024-02-07 15:14:50.712299,False,1,16,sounds\english\audio/english_558.wav,"[[  0.           9.45595183]
 [  0.1        -66.91447075]
 [  0.2          5.01642616]
 [  0.3        -82.30049302]
 [  0.4        -10.29129966]
 [  0.5         99.14240741]
 [  0.6         34.85025227]
 [  0.7         43.44441895]
 [  0.8        -97.39694164]
 [  0.9        -31.97632868]
 [  1.         -74.01115338]
 [  1.09391667  43.18570617]]","[[0.         1.13403788]
 [0.1        1.18278708]
 [0.2        1.11112331]
 [0.3        0.91283519]
 [0.4        0.71678122]
 [0.5        1.64554748]
 [0.6        0.99485251]
 [0.7        0.12536515]
 [0.8        0.12044716]
 [0.9        0.33780284]
 [1.         0.39284816]
 [1.09391667 1.38494175]]",1,5.384
8817605319,m,22,french,4,5,french,2024-02-07 15:14:50.712299,False,1,17,sounds\english\audio/english_73.wav,"[[  0.          38.52625464]
 [  0.1         17.92930882]
 [  0.2        -38.01807157]
 [  0.3         85.72989632]
 [  0.4         64.07938426]
 [  0.5         35.13086045]
 [  0.6        -51.81368524]
 [  0.7         67.25389113]
 [  0.8        -86.27446695]
 [  0.9        -27.14939681]
 [  1.          96.8565589 ]
 [  1.09391667  51.55403573]]","[[0.         1.16533306]
 [0.1        0.44885559]
 [0.2        0.25634763]
 [0.3        0.76435582]
 [0.4        0.66279224]
 [0.5        0.74817845]
 [0.6        1.61498224]
 [0.7        0.87077327]
 [0.8        1.49803977]
 [0.9        1.76361979]
 [1.         0.06686871]
 [1.09391667 1.63588343]]",0,7.97
8817605319,m,22,french,4,5,french,2024-02-07 15:14:50.712299,False,1,18,sounds\english\audio/english_967.wav,"[[  0.         -95.01579597]
 [  0.1        -83.85694312]
 [  0.2        -85.29120752]
 [  0.3         39.64714204]
 [  0.4         57.5109199 ]
 [  0.5         17.84726357]
 [  0.6         72.49898727]
 [  0.7        -49.28489837]
 [  0.8         27.76319329]
 [  0.9         40.88732144]
 [  1.          25.08094833]
 [  1.09391667 -11.2848797 ]]","[[0.         1.84793029]
 [0.1        0.58680999]
 [0.2        1.7718572 ]
 [0.3        1.16952376]
 [0.4        0.26483397]
 [0.5        0.70174807]
 [0.6        1.00653378]
 [0.7        0.37312662]
 [0.8        0.21661179]
 [0.9        1.37557681]
 [1.         0.83851773]
 [1.09391667 1.10196179]]",0,0.856
8817605319,m,22,french,4,5,french,2024-02-07 15:14:50.712299,False,1,19,sounds\english\audio/english_485.wav,"[[  0.          26.44907742]
 [  0.1        -73.42361147]
 [  0.2         92.83531317]
 [  0.3         82.36619494]
 [  0.4        -17.51087166]
 [  0.5        -26.28495986]
 [  0.6          0.94288036]
 [  0.7        -11.7082274 ]
 [  0.8        -66.16443059]
 [  0.9        -47.12237025]
 [  1.         -81.68715   ]
 [  1.09391667 -22.18807282]]","[[0.         0.83287187]
 [0.1        1.40395819]
 [0.2        1.51369756]
 [0.3        0.99682619]
 [0.4        0.01124783]
 [0.5        0.02757377]
 [0.6        0.89772739]
 [0.7        0.83950196]
 [0.8        0.91739043]
 [0.9        0.80980959]
 [1.         1.03797653]
 [1.09391667 0.63071559]]",0,1.125
8817605319,m,22,french,4,5,french,2024-02-07 15:14:50.712299,False,1,20,sounds\english\audio/english_88.wav,"[[  0.         -71.9844785 ]
 [  0.1        -49.01939905]
 [  0.2         50.12381506]
 [  0.3        -84.58055822]
 [  0.4        -75.77840035]
 [  0.5        -24.7911267 ]
 [  0.6        -23.67428976]
 [  0.7        -54.46174988]
 [  0.8         17.41292988]
 [  0.9        -76.44908604]
 [  1.          -2.36913576]
 [  1.09391667 -39.62259758]]","[[0.         0.53660294]
 [0.1        1.47642874]
 [0.2        0.52511459]
 [0.3        1.50109779]
 [0.4        0.97976024]
 [0.5        0.85239994]
 [0.6        1.05191942]
 [0.7        0.4066024 ]
 [0.8        0.004424  ]
 [0.9        1.90836134]
 [1.         1.74184755]
 [1.09391667 0.66301055]]",0,0.653
8817605319,m,22,french,4,5,french,2024-02-07 15:14:50.712299,False,1,21,sounds\english\audio/english_601.wav,"[[  0.         -27.72780098]
 [  0.1         51.56349227]
 [  0.2        -30.24590837]
 [  0.3        -73.97880656]
 [  0.4         -2.25523595]
 [  0.5        -30.15739329]
 [  0.6        -26.45428241]
 [  0.7        -98.06133759]
 [  0.8          5.27582611]
 [  0.9         81.45966426]
 [  1.          21.92696124]
 [  1.09391667 -86.33242355]]","[[0.         0.09196254]
 [0.1        1.85324858]
 [0.2        0.5611499 ]
 [0.3        0.48638388]
 [0.4        0.72682426]
 [0.5        0.02882605]
 [0.6        0.44853458]
 [0.7        1.63868559]
 [0.8        1.86240344]
 [0.9        0.90381109]
 [1.         1.07749357]
 [1.09391667 0.98518899]]",1,0.415
8817605319,m,22,french,4,5,french,2024-02-07 15:14:50.712299,False,1,22,sounds\english\audio/english_962.wav,"[[  0.         -16.60048673]
 [  0.1         86.97119881]
 [  0.2         60.43507778]
 [  0.3         34.28838618]
 [  0.4         -3.8203387 ]
 [  0.5         82.49891636]
 [  0.6         22.18578672]
 [  0.7         20.13766391]
 [  0.8         74.50191695]
 [  0.9         68.04596391]
 [  1.         -41.45827676]
 [  1.09391667 -81.40338911]]","[[0.         0.55938727]
 [0.1        1.40731286]
 [0.2        0.29415182]
 [0.3        0.53536257]
 [0.4        0.38742579]
 [0.5        0.91323434]
 [0.6        0.69102333]
 [0.7        0.47321431]
 [0.8        1.91525386]
 [0.9        0.05569164]
 [1.         1.5038001 ]
 [1.09391667 1.11433977]]",1,1.012
8817605319,m,22,french,4,5,french,2024-02-07 15:14:50.712299,False,1,23,sounds\english\audio/english_461.wav,"[[  0.          20.40366348]
 [  0.1        -22.31307181]
 [  0.2        -89.37114144]
 [  0.3        -62.56780286]
 [  0.4         98.66430914]
 [  0.5         31.54001237]
 [  0.6        -32.39124998]
 [  0.7        -36.51161339]
 [  0.8         53.57144474]
 [  0.9        -58.15364794]
 [  1.          49.37662152]
 [  1.09391667 -58.25142674]]","[[0.         0.56042838]
 [0.1        0.54946445]
 [0.2        1.64772646]
 [0.3        1.49638786]
 [0.4        1.35717302]
 [0.5        1.77354921]
 [0.6        0.30044417]
 [0.7        0.61964528]
 [0.8        1.90165564]
 [0.9        1.196075  ]
 [1.         1.99169905]
 [1.09391667 0.63333461]]",1,0.316
8817605319,m,22,french,4,5,french,2024-02-07 15:14:50.712299,False,1,24,sounds\english\audio/english_202.wav,"[[  0.         -55.5835629 ]
 [  0.1        -74.17222211]
 [  0.2         32.91988816]
 [  0.3        -61.08726633]
 [  0.4         74.28120307]
 [  0.5         27.15782783]
 [  0.6        -31.42828759]
 [  0.7        -85.57803202]
 [  0.8         -8.83313062]
 [  0.9         75.88912897]
 [  1.         -46.89935533]
 [  1.09391667   1.73094833]]","[[0.         1.42115323]
 [0.1        1.11230171]
 [0.2        1.2604868 ]
 [0.3        1.38170621]
 [0.4        1.19502306]
 [0.5        1.3290301 ]
 [0.6        1.43273837]
 [0.7        0.23505516]
 [0.8        0.8306151 ]
 [0.9        1.14421979]
 [1.         1.72535261]
 [1.09391667 1.37481935]]",1,1.432
8817605319,m,22,french,4,5,french,2024-02-07 15:14:50.712299,False,1,25,sounds\english\audio/english_252.wav,"[[  0.          67.33906462]
 [  0.1         74.66193016]
 [  0.2        -41.19192014]
 [  0.3        -28.8859862 ]
 [  0.4         -8.27761938]
 [  0.5        -36.63463382]
 [  0.6         13.77329217]
 [  0.7         63.53825883]
 [  0.8         81.11175046]
 [  0.9         34.9157937 ]
 [  1.         -21.50687119]
 [  1.09391667 -11.3870342 ]]","[[0.         1.2911066 ]
 [0.1        0.58650347]
 [0.2        1.71513386]
 [0.3        1.65328823]
 [0.4        1.612987  ]
 [0.5        1.39627769]
 [0.6        1.48703396]
 [0.7        1.42982838]
 [0.8        1.7469417 ]
 [0.9        0.10855202]
 [1.         1.96484687]
 [1.09391667 0.37279503]]",1,4.257
8817605319,m,22,french,4,5,french,2024-02-07 15:14:50.712299,False,1,26,sounds\english\audio/english_212.wav,"[[  0.           7.28178662]
 [  0.1         53.30309055]
 [  0.2          9.81131056]
 [  0.3        -90.32961485]
 [  0.4         16.20847807]
 [  0.5        -12.76815096]
 [  0.6         93.86097069]
 [  0.7         39.57297318]
 [  0.8        -19.22688735]
 [  0.9        -71.99383643]
 [  1.           5.42324024]
 [  1.09391667 -66.1565739 ]]","[[0.         1.69718484]
 [0.1        0.86840916]
 [0.2        0.62741544]
 [0.3        1.93796864]
 [0.4        1.96151684]
 [0.5        0.98998478]
 [0.6        1.74396039]
 [0.7        1.59359998]
 [0.8        1.3284153 ]
 [0.9        1.90824048]
 [1.         1.38687745]
 [1.09391667 0.48487656]]",1,2.515
8817605319,m,22,french,4,5,french,2024-02-07 15:14:50.712299,False,1,27,sounds\english\audio/english_260.wav,"[[  0.          15.97763116]
 [  0.1        -13.3847134 ]
 [  0.2        -29.63675022]
 [  0.3        -94.12252117]
 [  0.4         37.44404644]
 [  0.5        -13.47562993]
 [  0.6         28.72077468]
 [  0.7        -25.31213713]
 [  0.8         12.33791488]
 [  0.9          1.56732473]
 [  1.         -29.87361041]
 [  1.09391667   9.56042619]]","[[0.         1.94177241]
 [0.1        0.74015027]
 [0.2        0.26772348]
 [0.3        0.24482628]
 [0.4        0.73676391]
 [0.5        0.3869803 ]
 [0.6        0.62582606]
 [0.7        0.50244213]
 [0.8        0.1260874 ]
 [0.9        0.8031848 ]
 [1.         1.5387452 ]
 [1.09391667 0.69389389]]",0,0.715
8817605319,m,22,french,4,5,french,2024-02-07 15:14:50.712299,False,1,28,sounds\english\audio/english_390.wav,"[[  0.         -44.27999606]
 [  0.1         87.16388753]
 [  0.2         51.76447156]
 [  0.3          4.72890769]
 [  0.4         40.54029915]
 [  0.5         -2.52273407]
 [  0.6        -16.68397449]
 [  0.7         61.52515281]
 [  0.8         -9.09589247]
 [  0.9        -24.40260524]
 [  1.         -74.87237933]
 [  1.09391667 -82.02950505]]","[[0.         0.47786392]
 [0.1        0.26367192]
 [0.2        0.808543  ]
 [0.3        1.08355999]
 [0.4        1.05186068]
 [0.5        0.0330936 ]
 [0.6        0.46793247]
 [0.7        1.47386131]
 [0.8        0.59216285]
 [0.9        0.27707759]
 [1.         1.34831193]
 [1.09391667 1.5447274 ]]",1,0.569
8817605319,m,22,french,4,5,french,2024-02-07 15:14:50.712299,False,1,29,sounds\english\audio/english_896.wav,"[[  0.          15.15197213]
 [  0.1         12.09834356]
 [  0.2        -98.90945178]
 [  0.3         -7.24132806]
 [  0.4        -22.04912785]
 [  0.5         53.27175302]
 [  0.6         18.92228417]
 [  0.7         65.4652164 ]
 [  0.8         51.91420072]
 [  0.9         20.23549525]
 [  1.         -86.64191921]
 [  1.09391667 -62.9037571 ]]","[[0.         1.10343193]
 [0.1        1.24784569]
 [0.2        0.69536812]
 [0.3        1.50082123]
 [0.4        1.78962455]
 [0.5        0.59868421]
 [0.6        1.36027969]
 [0.7        1.44726147]
 [0.8        1.08983894]
 [0.9        0.07451316]
 [1.         0.79077881]
 [1.09391667 1.64262615]]",0,0.544
8817605319,m,22,french,4,5,french,2024-02-07 15:14:50.712299,False,1,30,sounds\english\audio/english_936.wav,"[[  0.          36.31221715]
 [  0.1        -44.47492587]
 [  0.2         -4.14718789]
 [  0.3        -65.70158372]
 [  0.4         76.09968898]
 [  0.5         52.5413509 ]
 [  0.6          5.38506085]
 [  0.7         -9.33856544]
 [  0.8        -79.6079489 ]
 [  0.9        -51.30915368]
 [  1.         -23.2662762 ]
 [  1.09391667  10.041916  ]]","[[0.         1.2887877 ]
 [0.1        1.4589685 ]
 [0.2        0.18405876]
 [0.3        0.27129686]
 [0.4        0.60039507]
 [0.5        0.83949142]
 [0.6        0.92420877]
 [0.7        0.31849757]
 [0.8        1.55991954]
 [0.9        1.32485451]
 [1.         1.1603689 ]
 [1.09391667 0.29288231]]",1,1.19
8817605319,m,22,french,4,5,french,2024-02-07 15:14:50.712299,False,1,31,sounds\english\audio/english_349.wav,"[[  0.          78.21791369]
 [  0.1          9.4630269 ]
 [  0.2         -3.29994587]
 [  0.3         13.5324371 ]
 [  0.4         88.19527441]
 [  0.5          1.7504357 ]
 [  0.6        -42.50120826]
 [  0.7        -43.9320192 ]
 [  0.8        -72.26393539]
 [  0.9        -37.61612777]
 [  1.           9.822435  ]
 [  1.09391667 -46.39218801]]","[[0.         0.37053366]
 [0.1        0.06190409]
 [0.2        0.20284396]
 [0.3        0.23510746]
 [0.4        1.05287262]
 [0.5        1.51424362]
 [0.6        0.74446718]
 [0.7        1.35303028]
 [0.8        1.8690989 ]
 [0.9        1.42604643]
 [1.         1.6879771 ]
 [1.09391667 0.80624402]]",1,0.827
8817605319,m,22,french,4,5,french,2024-02-07 15:14:50.712299,False,1,32,sounds\english\audio/english_485.wav,"[[  0.          26.44907742]
 [  0.1        -73.42361147]
 [  0.2         92.83531317]
 [  0.3         82.36619494]
 [  0.4        -17.51087166]
 [  0.5        -26.28495986]
 [  0.6          0.94288036]
 [  0.7        -11.7082274 ]
 [  0.8        -66.16443059]
 [  0.9        -47.12237025]
 [  1.         -81.68715   ]
 [  1.09391667 -22.18807282]]","[[0.         0.83287187]
 [0.1        1.40395819]
 [0.2        1.51369756]
 [0.3        0.99682619]
 [0.4        0.01124783]
 [0.5        0.02757377]
 [0.6        0.89772739]
 [0.7        0.83950196]
 [0.8        0.91739043]
 [0.9        0.80980959]
 [1.         1.03797653]
 [1.09391667 0.63071559]]",1,2.11
8817605319,m,22,french,4,5,french,2024-02-07 15:14:50.712299,False,1,33,sounds\english\audio/english_778.wav,"[[ 0.00000000e+00  8.20288253e+01]
 [ 1.00000000e-01 -2.03816384e+01]
 [ 2.00000000e-01  2.01187508e+01]
 [ 3.00000000e-01 -6.73840406e+01]
 [ 4.00000000e-01  4.17924950e+01]
 [ 5.00000000e-01  6.92908492e+01]
 [ 6.00000000e-01 -4.19809295e+01]
 [ 7.00000000e-01  9.30761369e+01]
 [ 8.00000000e-01  4.08814008e+00]
 [ 9.00000000e-01 -3.75531871e-02]
 [ 1.00000000e+00 -7.90647822e+01]
 [ 1.09391667e+00 -5.30664028e+01]]","[[0.         1.66099758]
 [0.1        0.6394452 ]
 [0.2        1.73198521]
 [0.3        1.63414449]
 [0.4        0.91528965]
 [0.5        1.84340145]
 [0.6        0.70098427]
 [0.7        1.59677801]
 [0.8        0.75626513]
 [0.9        1.05104073]
 [1.         0.42401001]
 [1.09391667 1.42241932]]",0,0.782
8817605319,m,22,french,4,5,french,2024-02-07 15:14:50.712299,False,1,34,sounds\english\audio/english_157.wav,"[[  0.         -13.52894965]
 [  0.1        -34.99957873]
 [  0.2        -21.40265814]
 [  0.3        -42.34898027]
 [  0.4         -7.21242164]
 [  0.5         17.61734953]
 [  0.6         -1.66241966]
 [  0.7        -36.07690291]
 [  0.8         -3.81325634]
 [  0.9        -34.91223396]
 [  1.         -67.0356687 ]
 [  1.09391667  69.36414719]]","[[0.         0.65332196]
 [0.1        1.87717108]
 [0.2        1.13451342]
 [0.3        1.30632551]
 [0.4        1.3432327 ]
 [0.5        1.54006945]
 [0.6        1.50501088]
 [0.7        1.48209283]
 [0.8        1.76315724]
 [0.9        1.8569822 ]
 [1.         1.47066105]
 [1.09391667 1.7499067 ]]",1,0.361
8817605319,m,22,french,4,5,french,2024-02-07 15:14:50.712299,False,1,35,sounds\english\audio/english_879.wav,"[[  0.         -41.71376067]
 [  0.1          5.81272632]
 [  0.2        -22.32054487]
 [  0.3         93.64091385]
 [  0.4        -40.92402167]
 [  0.5         13.45427288]
 [  0.6        -86.15210755]
 [  0.7        -20.9667874 ]
 [  0.8        -18.58842444]
 [  0.9        -72.1364449 ]
 [  1.         -83.06025628]
 [  1.09391667  76.41221389]]","[[0.         1.10654485]
 [0.1        1.32832236]
 [0.2        1.5555922 ]
 [0.3        0.11041486]
 [0.4        1.31993608]
 [0.5        1.7629303 ]
 [0.6        1.83129602]
 [0.7        1.42589619]
 [0.8        0.74351112]
 [0.9        0.32763887]
 [1.         1.7749803 ]
 [1.09391667 1.6164567 ]]",1,1.409
8817605319,m,22,french,4,5,french,2024-02-07 15:14:50.712299,False,1,36,sounds\english\audio/english_970.wav,"[[  0.         -54.89447986]
 [  0.1         25.1169893 ]
 [  0.2        -40.43511265]
 [  0.3        -62.36717191]
 [  0.4        -52.87769156]
 [  0.5        -60.51030312]
 [  0.6        -20.66217752]
 [  0.7         39.3890126 ]
 [  0.8        -42.20316614]
 [  0.9         -5.07453967]
 [  1.          63.70783578]
 [  1.09391667  15.89619138]]","[[0.         0.81951556]
 [0.1        1.67117432]
 [0.2        1.15867829]
 [0.3        1.19627059]
 [0.4        1.65204518]
 [0.5        1.89905296]
 [0.6        1.49874094]
 [0.7        1.49402448]
 [0.8        0.52089687]
 [0.9        0.54496633]
 [1.         0.14699143]
 [1.09391667 0.8383136 ]]",0,0.585
8817605319,m,22,french,4,5,french,2024-02-07 15:14:50.712299,False,1,37,sounds\english\audio/english_830.wav,"[[  0.         -56.43859205]
 [  0.1        -40.42370878]
 [  0.2         57.12298771]
 [  0.3        -17.62232487]
 [  0.4         68.18956177]
 [  0.5         87.82671531]
 [  0.6         47.80958912]
 [  0.7         90.11134252]
 [  0.8        -73.11836968]
 [  0.9         76.91440669]
 [  1.           0.84638196]
 [  1.09391667  40.94191156]]","[[0.         0.48566255]
 [0.1        1.80120887]
 [0.2        0.23081218]
 [0.3        1.34466319]
 [0.4        1.72981242]
 [0.5        1.56597803]
 [0.6        0.72011463]
 [0.7        1.40332871]
 [0.8        0.88730082]
 [0.9        1.45593299]
 [1.         1.11832638]
 [1.09391667 1.24825364]]",0,4.04
8817605319,m,22,french,4,5,french,2024-02-07 15:14:50.712299,False,1,38,sounds\english\audio/english_269.wav,"[[  0.         -83.93501444]
 [  0.1         88.09879619]
 [  0.2        -88.94573115]
 [  0.3        -19.78587184]
 [  0.4         69.53650184]
 [  0.5        -12.80260332]
 [  0.6         37.86483682]
 [  0.7         20.748183  ]
 [  0.8         68.31338511]
 [  0.9        -95.26136032]
 [  1.          60.98745535]
 [  1.09391667  -4.34526385]]","[[0.         0.85151873]
 [0.1        0.93284173]
 [0.2        0.56585091]
 [0.3        1.66708848]
 [0.4        0.92160414]
 [0.5        0.96478354]
 [0.6        0.12392918]
 [0.7        0.94784748]
 [0.8        0.83939678]
 [0.9        1.67634699]
 [1.         1.66934281]
 [1.09391667 1.1076262 ]]",1,1.814
8817605319,m,22,french,4,5,french,2024-02-07 15:14:50.712299,False,1,39,sounds\english\audio/english_938.wav,"[[  0.         -53.63878643]
 [  0.1        -38.8400944 ]
 [  0.2         -9.87265498]
 [  0.3         16.2059687 ]
 [  0.4        -90.53563301]
 [  0.5         64.72350929]
 [  0.6        -52.05654387]
 [  0.7        -42.35049902]
 [  0.8         32.88204039]
 [  0.9        -86.42075109]
 [  1.          31.2389269 ]
 [  1.09391667 -10.13697021]]","[[0.         0.25625638]
 [0.1        1.23524187]
 [0.2        0.81990957]
 [0.3        1.45712995]
 [0.4        0.4819737 ]
 [0.5        0.32505179]
 [0.6        1.44150274]
 [0.7        1.58605202]
 [0.8        0.48300943]
 [0.9        1.19049872]
 [1.         1.85243238]
 [1.09391667 0.92208217]]",1,3.056
8817605319,m,22,french,4,5,french,2024-02-07 15:14:50.712299,False,1,40,sounds\english\audio/english_460.wav,"[[  0.          93.59161919]
 [  0.1        -36.24487207]
 [  0.2         34.29182357]
 [  0.3        -43.77936624]
 [  0.4         69.60343368]
 [  0.5         56.68710737]
 [  0.6        -24.24220062]
 [  0.7        -78.58314977]
 [  0.8        -13.26257127]
 [  0.9         33.19824363]
 [  1.         -40.08512875]
 [  1.09391667  22.89045037]]","[[0.         1.32448893]
 [0.1        0.9079638 ]
 [0.2        1.36589638]
 [0.3        1.17890341]
 [0.4        0.38929886]
 [0.5        0.99526671]
 [0.6        0.46581759]
 [0.7        0.29943683]
 [0.8        1.99375882]
 [0.9        1.82666883]
 [1.         1.5352094 ]
 [1.09391667 1.53552889]]",1,1.277
8817605319,m,22,french,4,5,french,2024-02-07 15:14:50.712299,False,1,41,sounds\english\audio/english_754.wav,"[[  0.         -64.18066608]
 [  0.1        -98.7453181 ]
 [  0.2        -52.29987626]
 [  0.3        -91.6870734 ]
 [  0.4        -99.93480519]
 [  0.5         -2.56117899]
 [  0.6        -58.25705586]
 [  0.7        -50.59283721]
 [  0.8         -3.4865488 ]
 [  0.9         11.81028617]
 [  1.          27.46545009]
 [  1.09391667   8.3161915 ]]","[[0.         1.31756219]
 [0.1        0.6775935 ]
 [0.2        0.44453287]
 [0.3        0.79930959]
 [0.4        0.36385227]
 [0.5        1.60724529]
 [0.6        1.54119087]
 [0.7        0.4128908 ]
 [0.8        0.89168042]
 [0.9        0.16017021]
 [1.         1.03192762]
 [1.09391667 0.24632806]]",0,2.487
8817605319,m,22,french,4,5,french,2024-02-07 15:14:50.712299,False,1,42,sounds\english\audio/english_256.wav,"[[  0.          19.13786367]
 [  0.1         78.7613355 ]
 [  0.2        -10.99930376]
 [  0.3         -4.24203719]
 [  0.4        -18.22969313]
 [  0.5         -1.97438764]
 [  0.6         58.65018523]
 [  0.7        -44.17944685]
 [  0.8        -19.76307931]
 [  0.9         51.42512852]
 [  1.          29.86121545]
 [  1.09391667  94.6134288 ]]","[[0.         0.71756401]
 [0.1        1.21129656]
 [0.2        0.86820307]
 [0.3        0.23513199]
 [0.4        1.96127331]
 [0.5        1.02094295]
 [0.6        0.44586948]
 [0.7        0.67070074]
 [0.8        0.92528927]
 [0.9        0.89913532]
 [1.         1.8576014 ]
 [1.09391667 1.03800996]]",1,11.726
8817605319,m,22,french,4,5,french,2024-02-07 15:14:50.712299,False,1,43,sounds\english\audio/english_524.wav,"[[  0.         -30.25985822]
 [  0.1        -25.72639464]
 [  0.2        -19.31311579]
 [  0.3         75.52996736]
 [  0.4         95.21234869]
 [  0.5        -71.1057772 ]
 [  0.6        -19.64273872]
 [  0.7         -1.31214815]
 [  0.8         64.64076703]
 [  0.9        -18.69724377]
 [  1.         -40.5043492 ]
 [  1.09391667 -72.71091187]]","[[0.         0.34793973]
 [0.1        1.18810863]
 [0.2        0.08692409]
 [0.3        0.42169144]
 [0.4        0.91790301]
 [0.5        1.60079155]
 [0.6        0.41126457]
 [0.7        0.20209882]
 [0.8        1.03575809]
 [0.9        0.43486471]
 [1.         0.51132712]
 [1.09391667 0.92380924]]",0,0.628
8817605319,m,22,french,4,5,french,2024-02-07 15:14:50.712299,False,1,44,sounds\english\audio/english_308.wav,"[[  0.          52.24903485]
 [  0.1        -23.64626196]
 [  0.2        -51.25656168]
 [  0.3         22.90973994]
 [  0.4        -77.18224056]
 [  0.5        -15.74058407]
 [  0.6         68.28336148]
 [  0.7        -68.00125418]
 [  0.8        -28.10684377]
 [  0.9        -21.57286012]
 [  1.         -67.0126828 ]
 [  1.09391667  18.53594423]]","[[0.         1.51474705]
 [0.1        0.52665811]
 [0.2        1.02671755]
 [0.3        1.37852638]
 [0.4        1.59017097]
 [0.5        1.0350591 ]
 [0.6        1.54938004]
 [0.7        1.20956018]
 [0.8        0.88397822]
 [0.9        0.33660763]
 [1.         1.47798938]
 [1.09391667 0.24191373]]",1,1.525
8817605319,m,22,french,4,5,french,2024-02-07 15:14:50.712299,False,1,45,sounds\english\audio/english_414.wav,"[[  0.          -7.03040906]
 [  0.1         -5.82495626]
 [  0.2         -2.66835352]
 [  0.3        -59.72056864]
 [  0.4         44.4623709 ]
 [  0.5        -43.61302568]
 [  0.6         69.2168607 ]
 [  0.7         92.16151545]
 [  0.8         74.54688425]
 [  0.9          3.36775838]
 [  1.         -65.34358207]
 [  1.09391667  36.44921696]]","[[0.         1.53438074]
 [0.1        1.95928517]
 [0.2        1.73189387]
 [0.3        1.8329069 ]
 [0.4        1.79888129]
 [0.5        0.54974626]
 [0.6        1.59944318]
 [0.7        0.63993653]
 [0.8        0.28985998]
 [0.9        0.49016728]
 [1.         1.26877749]
 [1.09391667 1.3437293 ]]",0,0.592
8817605319,m,22,french,4,5,french,2024-02-07 15:14:50.712299,False,1,46,sounds\english\audio/english_27.wav,"[[  0.          79.54091256]
 [  0.1          8.12106861]
 [  0.2        -86.96528304]
 [  0.3         34.39896744]
 [  0.4         73.46875222]
 [  0.5        -83.8449803 ]
 [  0.6         58.21808767]
 [  0.7         -1.02085817]
 [  0.8        -33.33574161]
 [  0.9         24.41997053]
 [  1.         -54.97722052]
 [  1.09391667 -40.91525951]]","[[0.         1.25862136]
 [0.1        0.9398724 ]
 [0.2        1.23485766]
 [0.3        0.94041456]
 [0.4        1.68451502]
 [0.5        0.54115759]
 [0.6        0.09765006]
 [0.7        0.91208016]
 [0.8        1.53320318]
 [0.9        1.39457069]
 [1.         0.85736332]
 [1.09391667 0.73478674]]",0,0.85
8817605319,m,22,french,4,5,french,2024-02-07 15:14:50.712299,False,1,47,sounds\english\audio/english_112.wav,"[[  0.          49.45259009]
 [  0.1         26.00670844]
 [  0.2        -62.78053013]
 [  0.3         13.64858628]
 [  0.4        -46.53502922]
 [  0.5         55.2952107 ]
 [  0.6        -37.49134954]
 [  0.7          9.25181319]
 [  0.8         52.76907871]
 [  0.9         40.19984459]
 [  1.          72.4009261 ]
 [  1.09391667 -65.62688247]]","[[0.         1.41914206]
 [0.1        1.08420532]
 [0.2        1.90864959]
 [0.3        0.00296714]
 [0.4        0.2257171 ]
 [0.5        1.98382605]
 [0.6        0.39764394]
 [0.7        1.10443659]
 [0.8        0.52917173]
 [0.9        0.39475588]
 [1.         0.72882938]
 [1.09391667 0.87807842]]",0,0.649
8817605319,m,22,french,4,5,french,2024-02-07 15:14:50.712299,False,1,48,sounds\english\audio/english_453.wav,"[[  0.         -70.25213601]
 [  0.1         89.68329695]
 [  0.2         64.82558172]
 [  0.3        -29.59079509]
 [  0.4          2.86785492]
 [  0.5         29.66798779]
 [  0.6         83.99800943]
 [  0.7          3.87286535]
 [  0.8        -49.24820381]
 [  0.9         77.90929808]
 [  1.          93.37572535]
 [  1.09391667   1.85400833]]","[[0.         0.36867593]
 [0.1        1.72886328]
 [0.2        1.62690503]
 [0.3        0.73552932]
 [0.4        1.15423746]
 [0.5        0.00604153]
 [0.6        0.72573154]
 [0.7        0.64728212]
 [0.8        1.80766087]
 [0.9        1.21653859]
 [1.         0.12484757]
 [1.09391667 0.63167788]]",1,0.769
8817605319,m,22,french,4,5,french,2024-02-07 15:14:50.712299,False,1,49,sounds\english\audio/english_895.wav,"[[  0.         -68.00198949]
 [  0.1        -51.96003104]
 [  0.2        -27.5678987 ]
 [  0.3          1.37769692]
 [  0.4        -19.54713895]
 [  0.5         32.4870356 ]
 [  0.6         73.95431589]
 [  0.7        -60.0683904 ]
 [  0.8        -32.74215808]
 [  0.9        -18.7791301 ]
 [  1.           4.0520504 ]
 [  1.09391667  54.70777064]]","[[0.         0.4596857 ]
 [0.1        1.9086695 ]
 [0.2        1.58013593]
 [0.3        1.02012083]
 [0.4        0.3764367 ]
 [0.5        0.56957954]
 [0.6        0.55471434]
 [0.7        1.19362941]
 [0.8        1.07008524]
 [0.9        0.94538114]
 [1.         0.21197649]
 [1.09391667 1.70514148]]",1,0.382
8817605319,m,22,french,4,5,french,2024-02-07 15:14:50.712299,False,1,50,sounds\english\audio/english_878.wav,"[[  0.         -93.54916279]
 [  0.1         34.21390888]
 [  0.2        -58.82294687]
 [  0.3         10.18768241]
 [  0.4        -49.52140337]
 [  0.5        -71.54422434]
 [  0.6         58.16145178]
 [  0.7        -74.84169027]
 [  0.8        -47.28121675]
 [  0.9         17.04020125]
 [  1.         -15.84668216]
 [  1.09391667  15.68838881]]","[[0.         0.97267647]
 [0.1        0.02715416]
 [0.2        0.28996928]
 [0.3        1.11808931]
 [0.4        1.8324871 ]
 [0.5        1.79950878]
 [0.6        1.12806689]
 [0.7        0.34574191]
 [0.8        1.0964165 ]
 [0.9        0.06170949]
 [1.         1.1582617 ]
 [1.09391667 0.39253234]]",1,0.957
8817605319,m,22,french,4,5,french,2024-02-07 15:14:50.712299,False,1,51,sounds\english\audio/english_299.wav,"[[  0.         -74.4174694 ]
 [  0.1         67.95279973]
 [  0.2        -39.20846612]
 [  0.3         75.10442899]
 [  0.4         64.17156696]
 [  0.5        -42.38450544]
 [  0.6        -86.29317574]
 [  0.7         11.40905892]
 [  0.8         13.2984643 ]
 [  0.9        -36.56440039]
 [  1.         -93.57212319]
 [  1.09391667  13.37429031]]","[[0.         1.88606728]
 [0.1        1.33791825]
 [0.2        1.49728268]
 [0.3        0.10286405]
 [0.4        0.88852199]
 [0.5        0.77437708]
 [0.6        1.38211023]
 [0.7        1.00427558]
 [0.8        1.53256025]
 [0.9        1.00789046]
 [1.         0.84413966]
 [1.09391667 1.54480909]]",1,0.53
8817605319,m,22,french,4,5,french,2024-02-07 15:14:50.712299,False,1,52,sounds\english\audio/english_699.wav,"[[  0.         -10.64404417]
 [  0.1        -35.40818129]
 [  0.2         83.59292759]
 [  0.3        -40.30907773]
 [  0.4        -61.47705422]
 [  0.5         73.77462927]
 [  0.6        -33.57926845]
 [  0.7          4.64440908]
 [  0.8        -17.22893219]
 [  0.9          7.65230973]
 [  1.          91.77034013]
 [  1.09391667  29.53486649]]","[[0.         0.39733036]
 [0.1        1.17761209]
 [0.2        0.75132377]
 [0.3        0.9903314 ]
 [0.4        1.4462142 ]
 [0.5        1.48079401]
 [0.6        1.0256948 ]
 [0.7        1.03411727]
 [0.8        1.52402725]
 [0.9        0.08305717]
 [1.         1.30692687]
 [1.09391667 1.30233828]]",0,0.495
8817605319,m,22,french,4,5,french,2024-02-07 15:14:50.712299,False,1,53,sounds\english\audio/english_516.wav,"[[  0.          65.27468838]
 [  0.1         28.38678538]
 [  0.2        -16.29491298]
 [  0.3         29.01072094]
 [  0.4        -47.32267929]
 [  0.5        -47.60418852]
 [  0.6         19.91194594]
 [  0.7        -28.9289623 ]
 [  0.8          5.6204603 ]
 [  0.9         55.47321842]
 [  1.          12.03381774]
 [  1.09391667 -64.39892236]]","[[0.         0.72548384]
 [0.1        1.78002716]
 [0.2        1.52601333]
 [0.3        0.22704286]
 [0.4        1.00592853]
 [0.5        0.3740999 ]
 [0.6        1.89933748]
 [0.7        0.62297075]
 [0.8        1.26182982]
 [0.9        0.11401837]
 [1.         0.27832104]
 [1.09391667 1.09838576]]",1,2.548
8817605319,m,22,french,4,5,french,2024-02-07 15:14:50.712299,False,1,54,sounds\english\audio/english_805.wav,"[[  0.          19.24000096]
 [  0.1        -57.56428934]
 [  0.2        -17.74165003]
 [  0.3         94.45114709]
 [  0.4         58.80414928]
 [  0.5         15.95265091]
 [  0.6        -64.01744173]
 [  0.7        -39.81720589]
 [  0.8         48.58222908]
 [  0.9         79.1348353 ]
 [  1.          66.03274921]
 [  1.09391667 -37.34721406]]","[[0.         0.52175854]
 [0.1        1.45107426]
 [0.2        1.66296684]
 [0.3        1.339528  ]
 [0.4        1.45905309]
 [0.5        0.95701688]
 [0.6        0.10004415]
 [0.7        1.33408917]
 [0.8        0.26158276]
 [0.9        0.78316965]
 [1.         0.77046412]
 [1.09391667 0.38567889]]",0,0.661
8817605319,m,22,french,4,5,french,2024-02-07 15:14:50.712299,False,1,55,sounds\english\audio/english_481.wav,"[[  0.          12.53874901]
 [  0.1         -9.84524601]
 [  0.2        -28.69081604]
 [  0.3         -3.98654711]
 [  0.4        -31.85582808]
 [  0.5        -60.66158974]
 [  0.6         37.08553698]
 [  0.7        -55.30747295]
 [  0.8         79.95944373]
 [  0.9         16.93049167]
 [  1.           2.57902723]
 [  1.09391667   9.37320396]]","[[0.         1.58204947]
 [0.1        0.30197463]
 [0.2        1.36929082]
 [0.3        1.57950224]
 [0.4        1.64821008]
 [0.5        1.40708   ]
 [0.6        0.90705567]
 [0.7        0.62618862]
 [0.8        0.10659235]
 [0.9        0.31824417]
 [1.         0.18714767]
 [1.09391667 0.57978015]]",1,2.296
8817605319,m,22,french,4,5,french,2024-02-07 15:14:50.712299,False,1,56,sounds\english\audio/english_973.wav,"[[  0.          86.77777259]
 [  0.1         88.68008012]
 [  0.2         40.87598241]
 [  0.3         -9.9272537 ]
 [  0.4        -53.77098496]
 [  0.5        -25.91846693]
 [  0.6         53.05484082]
 [  0.7         46.24971749]
 [  0.8         50.02749475]
 [  0.9        -19.53463888]
 [  1.         -43.93805989]
 [  1.09391667 -81.85773857]]","[[0.         1.86280309]
 [0.1        0.36705596]
 [0.2        1.32338867]
 [0.3        0.04586245]
 [0.4        1.95113809]
 [0.5        0.12780271]
 [0.6        1.4683855 ]
 [0.7        0.39810348]
 [0.8        0.0385797 ]
 [0.9        0.83824927]
 [1.         1.6446619 ]
 [1.09391667 0.66244145]]",1,1.239
8817605319,m,22,french,4,5,french,2024-02-07 15:14:50.712299,False,1,57,sounds\english\audio/english_840.wav,"[[  0.          26.56026625]
 [  0.1        -45.76742425]
 [  0.2         58.26038182]
 [  0.3        -41.91368618]
 [  0.4         51.82879955]
 [  0.5        -58.1814991 ]
 [  0.6         -6.21480863]
 [  0.7        -38.35463557]
 [  0.8         62.53471627]
 [  0.9         -5.88618506]
 [  1.         -22.96620486]
 [  1.09391667  38.90401131]]","[[0.         0.58802825]
 [0.1        0.34012551]
 [0.2        1.59409568]
 [0.3        1.45145116]
 [0.4        1.12346348]
 [0.5        0.72614378]
 [0.6        0.0561304 ]
 [0.7        1.05027211]
 [0.8        0.63772174]
 [0.9        0.79180252]
 [1.         0.08952915]
 [1.09391667 0.46969462]]",0,0.427
8817605319,m,22,french,4,5,french,2024-02-07 15:14:50.712299,False,1,58,sounds\english\audio/english_11.wav,"[[  0.          54.56080353]
 [  0.1        -83.87228419]
 [  0.2        -61.53925714]
 [  0.3        -23.71141184]
 [  0.4         85.16808592]
 [  0.5         -4.98332447]
 [  0.6         10.34089151]
 [  0.7        -78.53726298]
 [  0.8         50.83234719]
 [  0.9         -4.0093207 ]
 [  1.          -9.65462756]
 [  1.09391667  58.44851678]]","[[0.         0.32515428]
 [0.1        1.52115417]
 [0.2        0.25420302]
 [0.3        0.57547438]
 [0.4        1.45332803]
 [0.5        0.76503735]
 [0.6        0.14014492]
 [0.7        1.07694112]
 [0.8        0.6442665 ]
 [0.9        0.01049254]
 [1.         0.40097789]
 [1.09391667 0.23650396]]",1,2.938
8817605319,m,22,french,4,5,french,2024-02-07 15:14:50.712299,False,1,59,sounds\english\audio/english_82.wav,"[[  0.         -50.65944843]
 [  0.1         -8.30198342]
 [  0.2         28.238309  ]
 [  0.3        -35.80408689]
 [  0.4         80.50699914]
 [  0.5        -99.69979401]
 [  0.6         30.38876845]
 [  0.7         -2.76434691]
 [  0.8        -19.59960586]
 [  0.9        -93.26966696]
 [  1.          64.56379815]
 [  1.09391667 -59.79308705]]","[[0.         0.53695405]
 [0.1        1.68823048]
 [0.2        0.29560695]
 [0.3        0.83443164]
 [0.4        0.87894934]
 [0.5        1.46703122]
 [0.6        0.23248639]
 [0.7        1.71572221]
 [0.8        1.24729907]
 [0.9        0.75753981]
 [1.         1.65214627]
 [1.09391667 0.40383656]]",1,0.344
8817605319,m,22,french,4,5,french,2024-02-07 15:14:50.712299,False,1,60,sounds\english\audio/english_498.wav,"[[  0.          43.98055184]
 [  0.1         91.3545984 ]
 [  0.2        -25.91563113]
 [  0.3        -14.96140851]
 [  0.4         -8.05824247]
 [  0.5        -61.63888891]
 [  0.6         37.86658664]
 [  0.7        -97.52325855]
 [  0.8        -16.03910224]
 [  0.9         83.25609208]
 [  1.         -65.28300381]
 [  1.09391667  38.04109912]]","[[0.         1.94722798]
 [0.1        1.93048351]
 [0.2        0.27240706]
 [0.3        1.06623965]
 [0.4        1.41558656]
 [0.5        0.26700347]
 [0.6        0.54434522]
 [0.7        0.79258737]
 [0.8        1.13417158]
 [0.9        0.68565339]
 [1.         0.73020294]
 [1.09391667 1.48505369]]",1,0.979
8817605319,m,22,french,4,5,french,2024-02-07 15:14:50.712299,False,1,61,sounds\english\audio/english_894.wav,"[[  0.         -80.20723644]
 [  0.1         70.63971402]
 [  0.2        -37.49635732]
 [  0.3        -83.65831032]
 [  0.4        -33.74406965]
 [  0.5         51.66171184]
 [  0.6         19.47391611]
 [  0.7        -13.53975377]
 [  0.8        -20.28527638]
 [  0.9         -1.05192851]
 [  1.         -21.57661458]
 [  1.09391667  -6.12644826]]","[[0.         1.79346893]
 [0.1        0.36641107]
 [0.2        1.22262179]
 [0.3        1.81798895]
 [0.4        0.98569015]
 [0.5        1.39342992]
 [0.6        1.02882877]
 [0.7        0.49108551]
 [0.8        0.73422482]
 [0.9        1.80196554]
 [1.         0.14842719]
 [1.09391667 0.9088618 ]]",0,2.405
8817605319,m,22,french,4,5,french,2024-02-07 15:14:50.712299,False,1,62,sounds\english\audio/english_495.wav,"[[  0.          94.59077128]
 [  0.1        -55.76476968]
 [  0.2         85.25239669]
 [  0.3         70.1736543 ]
 [  0.4         19.94350226]
 [  0.5         54.47178353]
 [  0.6        -87.09076246]
 [  0.7        -72.04241592]
 [  0.8         25.07065193]
 [  0.9         90.72301547]
 [  1.          24.05757485]
 [  1.09391667 -32.87582459]]","[[0.         0.77928027]
 [0.1        0.9821174 ]
 [0.2        1.84587448]
 [0.3        0.98653196]
 [0.4        1.73373308]
 [0.5        1.46449203]
 [0.6        0.51679657]
 [0.7        0.83282116]
 [0.8        0.91008341]
 [0.9        1.90880083]
 [1.         1.11137725]
 [1.09391667 1.50541044]]",1,0.65
8817605319,m,22,french,4,5,french,2024-02-07 15:14:50.712299,False,1,63,sounds\english\audio/english_727.wav,"[[  0.         -18.41371041]
 [  0.1        -63.10285802]
 [  0.2        -11.47868373]
 [  0.3         40.37675275]
 [  0.4        -77.12859483]
 [  0.5         92.73705719]
 [  0.6        -55.99534641]
 [  0.7        -55.52546335]
 [  0.8          6.97078157]
 [  0.9        -23.82740681]
 [  1.          16.85010217]
 [  1.09391667  12.17774436]]","[[0.         1.35764892]
 [0.1        1.30171306]
 [0.2        1.89832966]
 [0.3        1.96157356]
 [0.4        0.9069281 ]
 [0.5        1.12095366]
 [0.6        1.00983545]
 [0.7        0.3683737 ]
 [0.8        1.10707799]
 [0.9        1.05563912]
 [1.         1.15538622]
 [1.09391667 0.52815825]]",0,1.442
8817605319,m,22,french,4,5,french,2024-02-07 15:14:50.712299,False,1,64,sounds\english\audio/english_907.wav,"[[ 0.00000000e+00 -5.33100291e+01]
 [ 1.00000000e-01  4.68553811e+00]
 [ 2.00000000e-01  3.01589282e+01]
 [ 3.00000000e-01  1.17494605e+01]
 [ 4.00000000e-01  1.46843787e+01]
 [ 5.00000000e-01  5.51600348e-02]
 [ 6.00000000e-01  2.18487989e+01]
 [ 7.00000000e-01  8.76146135e-01]
 [ 8.00000000e-01  5.70084802e+01]
 [ 9.00000000e-01  5.30429591e+00]
 [ 1.00000000e+00  1.78166491e+01]
 [ 1.09391667e+00 -2.93939822e+01]]","[[0.         1.09242223]
 [0.1        1.36905488]
 [0.2        0.80069783]
 [0.3        1.02399961]
 [0.4        1.6109915 ]
 [0.5        0.4113542 ]
 [0.6        1.88718243]
 [0.7        1.82050398]
 [0.8        0.47994227]
 [0.9        1.40201797]
 [1.         1.67172578]
 [1.09391667 0.75533172]]",1,2.801
8817605319,m,22,french,4,5,french,2024-02-07 15:14:50.712299,False,1,65,sounds\english\audio/english_338.wav,"[[  0.         -28.32882855]
 [  0.1         57.31812169]
 [  0.2         14.45982208]
 [  0.3         77.41090692]
 [  0.4         -1.8867557 ]
 [  0.5        -35.85874383]
 [  0.6        -55.1613605 ]
 [  0.7        -70.94430614]
 [  0.8          5.91952673]
 [  0.9        -77.52896216]
 [  1.         -12.19112467]
 [  1.09391667   6.6549641 ]]","[[0.         1.26446903]
 [0.1        0.76759877]
 [0.2        1.52351901]
 [0.3        1.04471398]
 [0.4        0.90426999]
 [0.5        1.69664706]
 [0.6        0.17582058]
 [0.7        0.54140942]
 [0.8        0.81798021]
 [0.9        1.90630538]
 [1.         0.59557422]
 [1.09391667 0.42071392]]",1,6.421
8817605319,m,22,french,4,5,french,2024-02-07 15:14:50.712299,False,1,66,sounds\english\audio/english_131.wav,"[[  0.           0.31363537]
 [  0.1         36.71486201]
 [  0.2        -43.77123754]
 [  0.3        -25.02514695]
 [  0.4        -57.33579205]
 [  0.5        -86.86546268]
 [  0.6         34.68309006]
 [  0.7        -54.571254  ]
 [  0.8         15.2602828 ]
 [  0.9         37.40968803]
 [  1.         -75.44923375]
 [  1.09391667  22.36121129]]","[[0.         1.18724551]
 [0.1        1.11707061]
 [0.2        0.00275246]
 [0.3        1.15512468]
 [0.4        1.12677457]
 [0.5        1.05779514]
 [0.6        1.76361287]
 [0.7        1.49422438]
 [0.8        0.77084465]
 [0.9        0.77617306]
 [1.         0.87602882]
 [1.09391667 1.56580011]]",0,0.449
8817605319,m,22,french,4,5,french,2024-02-07 15:14:50.712299,False,1,67,sounds\english\audio/english_377.wav,"[[  0.          73.04653382]
 [  0.1         61.01214683]
 [  0.2        -82.4479578 ]
 [  0.3         -6.35059144]
 [  0.4         58.86113959]
 [  0.5         19.19354738]
 [  0.6        -31.09076765]
 [  0.7        -78.80759367]
 [  0.8         40.88540154]
 [  0.9          2.78755214]
 [  1.         -65.38807899]
 [  1.09391667  58.80108337]]","[[0.         1.47836601]
 [0.1        1.01623989]
 [0.2        1.48528015]
 [0.3        0.37422398]
 [0.4        0.85864758]
 [0.5        0.94448051]
 [0.6        1.48225941]
 [0.7        0.12460905]
 [0.8        0.28155513]
 [0.9        0.51707897]
 [1.         0.25575056]
 [1.09391667 0.70835394]]",0,0.626
8817605319,m,22,french,4,5,french,2024-02-07 15:14:50.712299,False,1,68,sounds\english\audio/english_313.wav,"[[  0.         -22.0180916 ]
 [  0.1         96.16831441]
 [  0.2        -45.33444961]
 [  0.3        -30.76295123]
 [  0.4         27.42080434]
 [  0.5         96.50313713]
 [  0.6         -0.94763764]
 [  0.7         67.04457313]
 [  0.8          2.6862445 ]
 [  0.9         47.07555832]
 [  1.         -32.41079138]
 [  1.09391667  11.15794631]]","[[0.         0.52298953]
 [0.1        0.58043298]
 [0.2        0.43861373]
 [0.3        0.29063093]
 [0.4        1.23880448]
 [0.5        0.08705859]
 [0.6        1.32086894]
 [0.7        1.2914561 ]
 [0.8        0.44865702]
 [0.9        1.89388378]
 [1.         1.69735018]
 [1.09391667 1.75721469]]",0,2.009
8817605319,m,22,french,4,5,french,2024-02-07 15:14:50.712299,False,1,69,sounds\english\audio/english_991.wav,"[[  0.          -1.1896089 ]
 [  0.1        -96.26402249]
 [  0.2         35.13230964]
 [  0.3         16.47291022]
 [  0.4        -88.97016612]
 [  0.5        -18.26917978]
 [  0.6        -86.44611587]
 [  0.7        -23.18394533]
 [  0.8        -34.88810698]
 [  0.9         58.2484142 ]
 [  1.          13.64122516]
 [  1.09391667 -13.61979163]]","[[0.         1.11058757]
 [0.1        0.1672209 ]
 [0.2        1.95155766]
 [0.3        0.04651437]
 [0.4        1.74859016]
 [0.5        1.4122656 ]
 [0.6        0.52281086]
 [0.7        1.29572944]
 [0.8        1.11115335]
 [0.9        1.29146841]
 [1.         1.37847477]
 [1.09391667 0.12249008]]",0,0.846
8817605319,m,22,french,4,5,french,2024-02-07 15:14:50.712299,False,1,70,sounds\english\audio/english_107.wav,"[[  0.          14.75106281]
 [  0.1         61.55616618]
 [  0.2        -53.67988365]
 [  0.3        -26.40552644]
 [  0.4        -39.74978172]
 [  0.5         59.30152115]
 [  0.6         47.78500901]
 [  0.7        -56.28829924]
 [  0.8        -27.92998764]
 [  0.9        -79.09348068]
 [  1.         -12.41548757]
 [  1.09391667  52.16057728]]","[[0.         1.14538344]
 [0.1        1.63691709]
 [0.2        1.34954163]
 [0.3        0.87865188]
 [0.4        0.87105183]
 [0.5        0.97837698]
 [0.6        0.24331513]
 [0.7        1.31332622]
 [0.8        1.65018095]
 [0.9        0.9374591 ]
 [1.         1.20965119]
 [1.09391667 1.85980397]]",1,13.455
8817605319,m,22,french,4,5,french,2024-02-07 15:14:50.712299,False,1,71,sounds\english\audio/english_224.wav,"[[  0.         -78.61506242]
 [  0.1         50.32903383]
 [  0.2         13.41609495]
 [  0.3        -65.62214638]
 [  0.4        -58.93648778]
 [  0.5         72.28111683]
 [  0.6        -46.77069374]
 [  0.7        -90.37193795]
 [  0.8         -0.43339445]
 [  0.9        -45.45823975]
 [  1.         -68.1553756 ]
 [  1.09391667 -50.27313826]]","[[0.         0.96291184]
 [0.1        1.02849412]
 [0.2        1.48046057]
 [0.3        0.95403391]
 [0.4        0.16536285]
 [0.5        1.42811474]
 [0.6        0.74831178]
 [0.7        1.44512366]
 [0.8        1.0370843 ]
 [0.9        0.73747726]
 [1.         0.53686902]
 [1.09391667 1.24590757]]",1,3.679
8817605319,m,22,french,4,5,french,2024-02-07 15:14:50.712299,False,1,72,sounds\english\audio/english_695.wav,"[[  0.          -0.40611107]
 [  0.1        -51.44580043]
 [  0.2         99.94982399]
 [  0.3        -89.26755039]
 [  0.4         -5.79922916]
 [  0.5         32.87645526]
 [  0.6         45.01226994]
 [  0.7        -12.9046985 ]
 [  0.8         -4.01812723]
 [  0.9        -88.04470656]
 [  1.         -55.25497398]
 [  1.09391667 -57.74686665]]","[[0.         1.26493678]
 [0.1        0.30645506]
 [0.2        0.22891404]
 [0.3        0.36431767]
 [0.4        1.58087712]
 [0.5        1.0219227 ]
 [0.6        0.87256138]
 [0.7        0.08723999]
 [0.8        0.25614853]
 [0.9        0.82634086]
 [1.         1.44930742]
 [1.09391667 1.25560424]]",0,1.329
8817605319,m,22,french,4,5,french,2024-02-07 15:14:50.712299,False,1,73,sounds\english\audio/english_279.wav,"[[  0.         -36.23762281]
 [  0.1        -35.59764132]
 [  0.2        -13.82808191]
 [  0.3         66.93896188]
 [  0.4         44.18525499]
 [  0.5         77.32475473]
 [  0.6         48.96526153]
 [  0.7        -92.8605498 ]
 [  0.8        -72.65791469]
 [  0.9        -40.93814374]
 [  1.          53.10101084]
 [  1.09391667 -12.52992697]]","[[0.         1.55188156]
 [0.1        1.09158025]
 [0.2        1.04107002]
 [0.3        1.2362444 ]
 [0.4        0.95842363]
 [0.5        1.88195108]
 [0.6        0.79599844]
 [0.7        1.52048921]
 [0.8        0.72907645]
 [0.9        0.85560625]
 [1.         1.78550088]
 [1.09391667 0.47871606]]",0,1.114
8817605319,m,22,french,4,5,french,2024-02-07 15:14:50.712299,False,1,74,sounds\english\audio/english_210.wav,"[[  0.         -22.3598959 ]
 [  0.1         82.81767229]
 [  0.2         64.75592146]
 [  0.3         38.64105246]
 [  0.4        -56.81269148]
 [  0.5         55.50536216]
 [  0.6        -90.16901587]
 [  0.7         -5.65019453]
 [  0.8        -52.20950635]
 [  0.9          2.11037441]
 [  1.         -72.63173863]
 [  1.09391667 -28.48995406]]","[[0.         0.75499894]
 [0.1        1.61294131]
 [0.2        0.96857287]
 [0.3        1.31710082]
 [0.4        0.48607374]
 [0.5        0.56849668]
 [0.6        0.68954785]
 [0.7        1.61518036]
 [0.8        0.58148747]
 [0.9        1.45053329]
 [1.         1.53157276]
 [1.09391667 1.31948045]]",1,0.421
8817605319,m,22,french,4,5,french,2024-02-07 15:14:50.712299,False,1,75,sounds\english\audio/english_517.wav,"[[  0.          66.65099922]
 [  0.1        -25.70388075]
 [  0.2        -22.37896652]
 [  0.3         -6.57908025]
 [  0.4         14.90197081]
 [  0.5         28.13310888]
 [  0.6         67.72161666]
 [  0.7        -79.77738636]
 [  0.8         -9.62789869]
 [  0.9        -43.36595112]
 [  1.         -65.22090713]
 [  1.09391667  93.99451349]]","[[0.         0.14059347]
 [0.1        0.04284068]
 [0.2        0.61477249]
 [0.3        0.586151  ]
 [0.4        0.82467301]
 [0.5        1.4846696 ]
 [0.6        1.87560286]
 [0.7        0.86888635]
 [0.8        0.65753642]
 [0.9        1.72637139]
 [1.         0.00479054]
 [1.09391667 1.63350936]]",1,2.253
8817605319,m,22,french,4,5,french,2024-02-07 15:14:50.712299,False,1,76,sounds\english\audio/english_620.wav,"[[  0.          70.25249287]
 [  0.1        -54.17403538]
 [  0.2        -24.27909239]
 [  0.3        -72.34505274]
 [  0.4        -84.16228676]
 [  0.5        -50.29822256]
 [  0.6         87.34344189]
 [  0.7        -51.38543443]
 [  0.8         40.7028666 ]
 [  0.9        -95.70979416]
 [  1.          95.25950338]
 [  1.09391667 -68.50782959]]","[[0.         1.60927754]
 [0.1        0.35556605]
 [0.2        1.04145572]
 [0.3        1.98653049]
 [0.4        0.35027861]
 [0.5        1.43135392]
 [0.6        1.2880573 ]
 [0.7        1.68116405]
 [0.8        1.8236964 ]
 [0.9        0.04712506]
 [1.         1.86928379]
 [1.09391667 0.75081121]]",1,0.533
8817605319,m,22,french,4,5,french,2024-02-07 15:14:50.712299,False,1,77,sounds\english\audio/english_18.wav,"[[  0.         -34.26622777]
 [  0.1        -75.64955683]
 [  0.2        -27.92679038]
 [  0.3        -19.62027656]
 [  0.4        -20.32459895]
 [  0.5          0.79905947]
 [  0.6          8.10958223]
 [  0.7        -12.88361986]
 [  0.8         74.6796053 ]
 [  0.9         13.61359807]
 [  1.         -21.69070415]
 [  1.09391667 -57.34652915]]","[[0.         1.34360385]
 [0.1        1.57489552]
 [0.2        0.39363555]
 [0.3        0.89611778]
 [0.4        1.50747647]
 [0.5        0.43558214]
 [0.6        1.91834816]
 [0.7        0.90012517]
 [0.8        0.69419363]
 [0.9        0.27849068]
 [1.         0.10490824]
 [1.09391667 1.33460981]]",0,0.738
8817605319,m,22,french,4,5,french,2024-02-07 15:14:50.712299,False,1,78,sounds\english\audio/english_514.wav,"[[  0.         -59.82766829]
 [  0.1         -4.54284015]
 [  0.2         75.12688257]
 [  0.3         52.77263543]
 [  0.4        -86.38859223]
 [  0.5         22.0573972 ]
 [  0.6        -81.94223644]
 [  0.7         33.46090425]
 [  0.8         10.59703074]
 [  0.9         74.40481447]
 [  1.          35.18551728]
 [  1.09391667 -52.88743611]]","[[0.         1.35471226]
 [0.1        0.81191054]
 [0.2        1.30120799]
 [0.3        1.91982738]
 [0.4        1.85775535]
 [0.5        0.92799532]
 [0.6        0.39882237]
 [0.7        1.85696096]
 [0.8        0.26578536]
 [0.9        1.80594265]
 [1.         0.66929464]
 [1.09391667 1.62933111]]",0,0.707
8817605319,m,22,french,4,5,french,2024-02-07 15:14:50.712299,False,1,79,sounds\english\audio/english_811.wav,"[[  0.         -74.87697924]
 [  0.1         96.86117413]
 [  0.2         10.72305858]
 [  0.3         48.56085209]
 [  0.4        -99.82729779]
 [  0.5         79.99074979]
 [  0.6         -9.67190631]
 [  0.7        -89.53034614]
 [  0.8         84.53947336]
 [  0.9        -76.82386536]
 [  1.         -19.04963958]
 [  1.09391667  78.79317252]]","[[0.         0.45507787]
 [0.1        1.76793824]
 [0.2        0.84862028]
 [0.3        0.62727309]
 [0.4        1.03490246]
 [0.5        1.90507478]
 [0.6        0.06135305]
 [0.7        0.24955368]
 [0.8        0.72917007]
 [0.9        1.5042388 ]
 [1.         1.60193394]
 [1.09391667 0.72084905]]",1,1.045
8817605319,m,22,french,4,5,french,2024-02-07 15:14:50.712299,False,1,80,sounds\english\audio/english_781.wav,"[[  0.          13.49860993]
 [  0.1         78.16193023]
 [  0.2         43.40540276]
 [  0.3         44.39381188]
 [  0.4          1.19618008]
 [  0.5         97.39796145]
 [  0.6        -80.74515196]
 [  0.7         24.03355654]
 [  0.8        -69.35175607]
 [  0.9         69.20236756]
 [  1.          35.51398516]
 [  1.09391667 -53.23346631]]","[[0.         0.0422445 ]
 [0.1        0.76912714]
 [0.2        1.16484067]
 [0.3        0.51341231]
 [0.4        0.61057315]
 [0.5        1.22595164]
 [0.6        0.0959771 ]
 [0.7        0.86869214]
 [0.8        1.17997392]
 [0.9        1.93834455]
 [1.         0.60620459]
 [1.09391667 1.46133915]]",1,0.368
8817605319,m,22,french,4,5,french,2024-02-07 15:14:50.712299,False,1,81,sounds\english\audio/english_20.wav,"[[  0.          63.0600358 ]
 [  0.1        -51.01536648]
 [  0.2        -79.38394235]
 [  0.3         18.37962799]
 [  0.4        -93.10550864]
 [  0.5        -34.41615075]
 [  0.6        -59.60856077]
 [  0.7         -5.91904512]
 [  0.8        -91.08119021]
 [  0.9        -45.35675883]
 [  1.         -19.89168543]
 [  1.09391667  49.76773146]]","[[0.         0.86275217]
 [0.1        0.66446023]
 [0.2        0.76617276]
 [0.3        1.08107646]
 [0.4        0.88129698]
 [0.5        1.16389527]
 [0.6        1.73817265]
 [0.7        1.94089825]
 [0.8        0.88467755]
 [0.9        1.32628719]
 [1.         0.31006302]
 [1.09391667 0.42478041]]",1,0.814
8817605319,m,22,french,4,5,french,2024-02-07 15:14:50.712299,False,1,82,sounds\english\audio/english_858.wav,"[[  0.         -15.37505572]
 [  0.1         47.09921101]
 [  0.2        -76.0790668 ]
 [  0.3        -80.27517843]
 [  0.4        -25.73472899]
 [  0.5         -3.51621139]
 [  0.6        -42.58463449]
 [  0.7        -98.39604525]
 [  0.8         89.96106068]
 [  0.9         77.78135143]
 [  1.         -48.66962061]
 [  1.09391667 -42.55835381]]","[[0.         0.64393049]
 [0.1        1.19859165]
 [0.2        1.93258785]
 [0.3        0.51921333]
 [0.4        0.72976133]
 [0.5        1.3656743 ]
 [0.6        1.33625445]
 [0.7        1.13554824]
 [0.8        1.47590746]
 [0.9        1.4256977 ]
 [1.         0.99815363]
 [1.09391667 1.06699265]]",1,0.356
8817605319,m,22,french,4,5,french,2024-02-07 15:14:50.712299,False,1,83,sounds\english\audio/english_282.wav,"[[  0.          79.51809952]
 [  0.1         55.92109115]
 [  0.2         36.01060515]
 [  0.3          4.60281664]
 [  0.4         35.69966579]
 [  0.5        -79.87721836]
 [  0.6         -3.98252218]
 [  0.7        -78.10052274]
 [  0.8         69.1474283 ]
 [  0.9         58.09261901]
 [  1.          94.50826365]
 [  1.09391667  71.90418642]]","[[0.         1.2792911 ]
 [0.1        0.93344042]
 [0.2        1.94968889]
 [0.3        1.12428424]
 [0.4        0.7610034 ]
 [0.5        0.66186596]
 [0.6        0.57211865]
 [0.7        0.40544896]
 [0.8        0.68156422]
 [0.9        0.87028019]
 [1.         1.91563213]
 [1.09391667 1.01931827]]",1,0.675
8817605319,m,22,french,4,5,french,2024-02-07 15:14:50.712299,False,1,84,sounds\english\audio/english_789.wav,"[[  0.          50.62849976]
 [  0.1         46.39641285]
 [  0.2        -17.70636983]
 [  0.3        -70.54012265]
 [  0.4        -41.61831808]
 [  0.5          6.76921547]
 [  0.6        -23.06076299]
 [  0.7         12.0616888 ]
 [  0.8         -0.46236059]
 [  0.9          1.32265195]
 [  1.         -42.41851316]
 [  1.09391667  16.23009632]]","[[0.         1.65376855]
 [0.1        0.25516595]
 [0.2        1.77379995]
 [0.3        1.01588482]
 [0.4        0.40942594]
 [0.5        0.77453827]
 [0.6        0.48985142]
 [0.7        0.23736517]
 [0.8        1.96173919]
 [0.9        1.17779465]
 [1.         1.11577027]
 [1.09391667 0.26104585]]",1,0.683
8817605319,m,22,french,4,5,french,2024-02-07 15:14:50.712299,False,1,85,sounds\english\audio/english_209.wav,"[[  0.         -69.97643607]
 [  0.1        -88.52393114]
 [  0.2        -92.64381406]
 [  0.3        -12.19607679]
 [  0.4         51.51628924]
 [  0.5         -0.64468501]
 [  0.6         71.59302863]
 [  0.7         -9.81029184]
 [  0.8        -24.63818078]
 [  0.9         -3.20105403]
 [  1.          34.64482647]
 [  1.09391667 -96.73374827]]","[[0.         1.01752059]
 [0.1        0.50741315]
 [0.2        1.61277815]
 [0.3        1.4872908 ]
 [0.4        0.5793757 ]
 [0.5        0.52779709]
 [0.6        0.0231703 ]
 [0.7        1.34840208]
 [0.8        0.66467052]
 [0.9        0.39411628]
 [1.         0.07463584]
 [1.09391667 1.52336413]]",0,0.551
8817605319,m,22,french,4,5,french,2024-02-07 15:14:50.712299,False,1,86,sounds\english\audio/english_995.wav,"[[  0.          97.76656521]
 [  0.1         10.72921102]
 [  0.2        -74.90567645]
 [  0.3         77.17787297]
 [  0.4        -65.98328726]
 [  0.5          3.50056795]
 [  0.6        -48.42786785]
 [  0.7         47.72819133]
 [  0.8         14.30124411]
 [  0.9        -92.38663664]
 [  1.          33.04960477]
 [  1.09391667  16.88553352]]","[[0.         1.90640997]
 [0.1        1.35752142]
 [0.2        0.0677959 ]
 [0.3        0.2303181 ]
 [0.4        1.9496567 ]
 [0.5        1.06158527]
 [0.6        0.86919942]
 [0.7        1.60426058]
 [0.8        1.52102104]
 [0.9        0.17733005]
 [1.         1.36413464]
 [1.09391667 0.78541069]]",1,0.57
8817605319,m,22,french,4,5,french,2024-02-07 15:14:50.712299,False,1,87,sounds\english\audio/english_404.wav,"[[  0.          51.0629149 ]
 [  0.1        -20.11660717]
 [  0.2        -24.08850376]
 [  0.3        -31.42467522]
 [  0.4         53.01415625]
 [  0.5        -45.18749729]
 [  0.6         75.22262363]
 [  0.7         53.71694776]
 [  0.8        -31.94049291]
 [  0.9         64.49384663]
 [  1.         -87.57862232]
 [  1.09391667 -93.26487386]]","[[0.         0.92872816]
 [0.1        1.09197178]
 [0.2        1.28516423]
 [0.3        0.67196706]
 [0.4        0.26298551]
 [0.5        0.832552  ]
 [0.6        0.94238773]
 [0.7        0.97166455]
 [0.8        0.24504   ]
 [0.9        1.54934709]
 [1.         0.71675997]
 [1.09391667 1.21108184]]",0,0.627
8817605319,m,22,french,4,5,french,2024-02-07 15:14:50.712299,False,1,88,sounds\english\audio/english_512.wav,"[[  0.         -23.56559233]
 [  0.1         44.15406219]
 [  0.2         90.2297784 ]
 [  0.3         31.62400251]
 [  0.4        -71.52797272]
 [  0.5        -17.92560707]
 [  0.6         78.14138422]
 [  0.7         -0.55474778]
 [  0.8         -0.96763975]
 [  0.9         18.83454105]
 [  1.           3.09463475]
 [  1.09391667  65.7955852 ]]","[[0.         0.34737706]
 [0.1        1.80415703]
 [0.2        1.77401658]
 [0.3        0.80962243]
 [0.4        0.21525837]
 [0.5        0.09930304]
 [0.6        0.93763429]
 [0.7        0.07747984]
 [0.8        1.28799801]
 [0.9        0.32721238]
 [1.         0.68607536]
 [1.09391667 1.62840549]]",0,0.887
8817605319,m,22,french,4,5,french,2024-02-07 15:14:50.712299,False,1,89,sounds\english\audio/english_70.wav,"[[  0.          84.7445928 ]
 [  0.1        -17.05936153]
 [  0.2         48.77629579]
 [  0.3        -37.18095977]
 [  0.4         49.63064657]
 [  0.5        -62.82111716]
 [  0.6         35.10101602]
 [  0.7        -40.08264695]
 [  0.8         35.78231672]
 [  0.9        -49.57858266]
 [  1.         -49.37995814]
 [  1.09391667  20.96821744]]","[[0.         1.85159723]
 [0.1        0.49913073]
 [0.2        1.2524697 ]
 [0.3        1.90044367]
 [0.4        0.54300229]
 [0.5        1.34279252]
 [0.6        1.14641918]
 [0.7        0.66805918]
 [0.8        1.02673009]
 [0.9        1.60161004]
 [1.         1.69848543]
 [1.09391667 0.40967928]]",0,0.797
8817605319,m,22,french,4,5,french,2024-02-07 15:14:50.712299,False,1,90,sounds\english\audio/english_849.wav,"[[  0.           3.14918828]
 [  0.1        -23.77765777]
 [  0.2         33.06216364]
 [  0.3        -62.11705981]
 [  0.4          7.17201603]
 [  0.5        -75.75571993]
 [  0.6        -11.73418988]
 [  0.7        -67.42384643]
 [  0.8         50.24136352]
 [  0.9        -60.42241677]
 [  1.          70.30658547]
 [  1.09391667  -8.44903954]]","[[0.         0.91646938]
 [0.1        0.05935653]
 [0.2        1.47739407]
 [0.3        0.33072981]
 [0.4        0.11578877]
 [0.5        1.27391033]
 [0.6        0.32212457]
 [0.7        1.51956894]
 [0.8        0.3318501 ]
 [0.9        0.78089197]
 [1.         0.6122717 ]
 [1.09391667 1.08036793]]",0,0.522
8817605319,m,22,french,4,5,french,2024-02-07 15:14:50.712299,False,1,91,sounds\english\audio/english_255.wav,"[[  0.          94.72265592]
 [  0.1          1.10845293]
 [  0.2         -1.90413972]
 [  0.3        -45.9655603 ]
 [  0.4         -6.89013944]
 [  0.5          3.45085104]
 [  0.6        -68.66949423]
 [  0.7        -22.56077648]
 [  0.8        -32.1394332 ]
 [  0.9         56.48595448]
 [  1.         -33.08950479]
 [  1.09391667  55.58931482]]","[[0.         1.19967406]
 [0.1        1.25035485]
 [0.2        1.85398204]
 [0.3        0.56259094]
 [0.4        1.07948955]
 [0.5        0.7328114 ]
 [0.6        0.49197221]
 [0.7        1.14850602]
 [0.8        1.46654584]
 [0.9        0.34163334]
 [1.         0.52219351]
 [1.09391667 1.18693331]]",0,1.135
8817605319,m,22,french,4,5,french,2024-02-07 15:14:50.712299,False,1,92,sounds\english\audio/english_484.wav,"[[  0.           2.0569585 ]
 [  0.1        -79.1484241 ]
 [  0.2         30.9033229 ]
 [  0.3         12.05929197]
 [  0.4        -72.8204973 ]
 [  0.5        -89.96387514]
 [  0.6        -22.94210609]
 [  0.7         17.91925192]
 [  0.8        -62.01555508]
 [  0.9        -43.27412131]
 [  1.           0.91553281]
 [  1.09391667 -32.68645572]]","[[0.         0.34651955]
 [0.1        1.84776357]
 [0.2        1.82203066]
 [0.3        1.56778111]
 [0.4        1.22252397]
 [0.5        1.78789861]
 [0.6        0.02218534]
 [0.7        1.7744569 ]
 [0.8        1.27917124]
 [0.9        1.76665807]
 [1.         1.1189794 ]
 [1.09391667 0.68984214]]",1,1.003
8817605319,m,22,french,4,5,french,2024-02-07 15:14:50.712299,False,1,93,sounds\english\audio/english_710.wav,"[[  0.         -39.30636168]
 [  0.1        -97.6674904 ]
 [  0.2         64.09122161]
 [  0.3         75.88571101]
 [  0.4        -88.52762731]
 [  0.5         82.62720899]
 [  0.6        -76.34366579]
 [  0.7         -8.69440278]
 [  0.8        -70.02409217]
 [  0.9         57.25294742]
 [  1.         -12.57900879]
 [  1.09391667  58.69693709]]","[[0.         1.80624949]
 [0.1        0.47182227]
 [0.2        0.70971527]
 [0.3        0.05116828]
 [0.4        1.76085876]
 [0.5        0.52858011]
 [0.6        0.11108823]
 [0.7        1.51710045]
 [0.8        1.27546604]
 [0.9        0.25600017]
 [1.         0.70194387]
 [1.09391667 0.08256398]]",0,0.921
8817605319,m,22,french,4,5,french,2024-02-07 15:14:50.712299,False,1,94,sounds\english\audio/english_94.wav,"[[  0.         -69.13613192]
 [  0.1        -53.91573564]
 [  0.2         88.54569891]
 [  0.3         47.91558238]
 [  0.4         46.13883045]
 [  0.5          0.71209955]
 [  0.6         53.89774049]
 [  0.7         37.22112319]
 [  0.8          8.13348347]
 [  0.9        -10.35793642]
 [  1.          75.25647247]
 [  1.09391667 -70.34686187]]","[[0.         0.71683615]
 [0.1        1.64130178]
 [0.2        1.41561382]
 [0.3        0.72478091]
 [0.4        1.21480875]
 [0.5        0.13058063]
 [0.6        1.07607775]
 [0.7        0.10112022]
 [0.8        0.91343474]
 [0.9        0.77751528]
 [1.         0.57088528]
 [1.09391667 0.98841109]]",0,0.57
8817605319,m,22,french,4,5,french,2024-02-07 15:14:50.712299,False,1,95,sounds\english\audio/english_999.wav,"[[  0.          -8.27619319]
 [  0.1        -49.3883822 ]
 [  0.2         97.54217101]
 [  0.3        -49.81406735]
 [  0.4         46.43683506]
 [  0.5         89.32784762]
 [  0.6        -55.73277594]
 [  0.7         49.38462906]
 [  0.8         85.41123264]
 [  0.9        -58.86557708]
 [  1.          99.11766896]
 [  1.09391667  28.82385918]]","[[0.00000000e+00 1.48642599e-04]
 [1.00000000e-01 1.22232627e+00]
 [2.00000000e-01 1.11749330e+00]
 [3.00000000e-01 1.80111229e+00]
 [4.00000000e-01 5.52807392e-01]
 [5.00000000e-01 1.53319988e+00]
 [6.00000000e-01 1.76164420e+00]
 [7.00000000e-01 7.72486607e-02]
 [8.00000000e-01 1.00258630e+00]
 [9.00000000e-01 3.29932429e-01]
 [1.00000000e+00 1.88826288e+00]
 [1.09391667e+00 1.88223689e+00]]",0,5.343
8817605319,m,22,french,4,5,french,2024-02-07 15:14:50.712299,False,1,96,sounds\english\audio/english_893.wav,"[[  0.         -88.27288408]
 [  0.1         65.02931774]
 [  0.2         52.75255946]
 [  0.3         83.63729727]
 [  0.4        -40.64554186]
 [  0.5        -63.5561657 ]
 [  0.6         86.64180858]
 [  0.7         66.95085035]
 [  0.8        -95.78590216]
 [  0.9        -69.05067698]
 [  1.         -26.34394451]
 [  1.09391667  46.22858611]]","[[0.         0.46079997]
 [0.1        1.28353758]
 [0.2        1.5240413 ]
 [0.3        1.67217786]
 [0.4        1.32541151]
 [0.5        0.97852107]
 [0.6        0.03458433]
 [0.7        1.20988187]
 [0.8        1.76333765]
 [0.9        0.45158105]
 [1.         1.28641333]
 [1.09391667 0.88140728]]",1,0.292
8817605319,m,22,french,4,5,french,2024-02-07 15:14:50.712299,False,1,97,sounds\english\audio/english_947.wav,"[[  0.          30.31601864]
 [  0.1        -75.95641423]
 [  0.2         54.94521645]
 [  0.3         26.24562162]
 [  0.4         54.40237068]
 [  0.5         40.82679184]
 [  0.6         77.31299723]
 [  0.7          1.15315344]
 [  0.8         73.19645095]
 [  0.9          6.20643858]
 [  1.          28.66234598]
 [  1.09391667   7.34981137]]","[[0.         1.90953585]
 [0.1        1.97785982]
 [0.2        0.82379025]
 [0.3        0.15379293]
 [0.4        1.01827888]
 [0.5        1.47839937]
 [0.6        1.20847868]
 [0.7        0.14564675]
 [0.8        0.87070751]
 [0.9        0.13653501]
 [1.         0.34449422]
 [1.09391667 1.34190112]]",1,1.44
8817605319,m,22,french,4,5,french,2024-02-07 15:14:50.712299,False,1,98,sounds\english\audio/english_432.wav,"[[  0.          28.49955807]
 [  0.1        -31.8275444 ]
 [  0.2         24.24217544]
 [  0.3        -66.09269444]
 [  0.4        -62.15798019]
 [  0.5        -49.72154406]
 [  0.6        -47.69762913]
 [  0.7         77.36626765]
 [  0.8          5.83013874]
 [  0.9         28.26329168]
 [  1.         -41.71680011]
 [  1.09391667  67.89473062]]","[[0.         0.25208372]
 [0.1        0.73448825]
 [0.2        0.75780001]
 [0.3        1.1180686 ]
 [0.4        1.06816696]
 [0.5        0.60613643]
 [0.6        0.58276722]
 [0.7        1.4653334 ]
 [0.8        1.3937813 ]
 [0.9        1.50157436]
 [1.         1.14185861]
 [1.09391667 1.59474316]]",1,1.286
8817605319,m,22,french,4,5,french,2024-02-07 15:14:50.712299,False,1,99,sounds\english\audio/english_502.wav,"[[  0.          57.69639955]
 [  0.1         28.96096349]
 [  0.2         -5.93680221]
 [  0.3         -9.12517159]
 [  0.4         44.04961264]
 [  0.5         84.4955788 ]
 [  0.6         97.09857183]
 [  0.7         99.13853902]
 [  0.8         91.26297662]
 [  0.9         17.95296758]
 [  1.         -98.67508596]
 [  1.09391667 -78.95703283]]","[[0.         1.15234611]
 [0.1        1.67970143]
 [0.2        0.71376986]
 [0.3        0.49125702]
 [0.4        0.39874308]
 [0.5        0.1440426 ]
 [0.6        1.53167879]
 [0.7        1.52730171]
 [0.8        0.65970293]
 [0.9        0.91797137]
 [1.         1.57983796]
 [1.09391667 0.77767597]]",1,2.742
8817605319,m,22,french,4,5,french,2024-02-07 15:14:50.712299,False,1,100,sounds\english\audio/english_430.wav,"[[  0.         -88.95761908]
 [  0.1         39.34804897]
 [  0.2        -21.72599187]
 [  0.3        -97.97733292]
 [  0.4         98.23201219]
 [  0.5         92.79611353]
 [  0.6         44.81381594]
 [  0.7        -96.67681225]
 [  0.8         99.24041947]
 [  0.9         33.24344921]
 [  1.         -26.01349309]
 [  1.09391667 -84.24925862]]","[[0.         1.0411215 ]
 [0.1        1.73577333]
 [0.2        0.8754531 ]
 [0.3        0.18874451]
 [0.4        1.1142071 ]
 [0.5        0.3830467 ]
 [0.6        0.5347185 ]
 [0.7        0.4014233 ]
 [0.8        0.50454446]
 [0.9        0.88496249]
 [1.         1.71251412]
 [1.09391667 1.92006939]]",0,4.372
8817605319,m,22,french,4,5,french,2024-02-07 15:14:50.712299,False,1,101,sounds\english\audio/english_219.wav,"[[  0.         -71.22269302]
 [  0.1         81.0106601 ]
 [  0.2         57.89841848]
 [  0.3        -20.90242642]
 [  0.4        -14.30711836]
 [  0.5        -91.16050531]
 [  0.6        -51.25509361]
 [  0.7        -32.58617714]
 [  0.8         -1.65304819]
 [  0.9        -46.25752807]
 [  1.         -57.14980858]
 [  1.09391667  -0.56518547]]","[[0.         0.64229707]
 [0.1        0.83761643]
 [0.2        0.27469413]
 [0.3        1.66128254]
 [0.4        1.11706047]
 [0.5        0.71185951]
 [0.6        0.78321207]
 [0.7        1.3379864 ]
 [0.8        1.4411775 ]
 [0.9        1.25595477]
 [1.         0.30425647]
 [1.09391667 1.82291256]]",1,13.602
8817605319,m,22,french,4,5,french,2024-02-07 15:14:50.712299,False,1,102,sounds\english\audio/english_769.wav,"[[  0.          -5.59008464]
 [  0.1         23.87135474]
 [  0.2        -59.27059617]
 [  0.3         -3.79644123]
 [  0.4        -24.49258802]
 [  0.5         -9.70740252]
 [  0.6         93.2382904 ]
 [  0.7        -80.61523432]
 [  0.8        -68.01598802]
 [  0.9         62.98223399]
 [  1.         -20.64225602]
 [  1.09391667 -61.6915353 ]]","[[0.         1.9459955 ]
 [0.1        1.03760396]
 [0.2        0.52841708]
 [0.3        1.18808585]
 [0.4        1.53084487]
 [0.5        1.19743676]
 [0.6        1.07802649]
 [0.7        1.54041051]
 [0.8        0.02132601]
 [0.9        1.71898352]
 [1.         1.35496449]
 [1.09391667 1.18680032]]",1,1.347
8817605319,m,22,french,4,5,french,2024-02-07 15:14:50.712299,False,1,103,sounds\english\audio/english_130.wav,"[[  0.          63.22786083]
 [  0.1         87.85722404]
 [  0.2        -11.67996756]
 [  0.3        -61.23287213]
 [  0.4         31.74111168]
 [  0.5         33.84141617]
 [  0.6         19.96692936]
 [  0.7        -37.06015238]
 [  0.8         53.30817693]
 [  0.9         56.319569  ]
 [  1.          38.79278484]
 [  1.09391667  -4.91911249]]","[[0.         1.15410046]
 [0.1        0.37024368]
 [0.2        1.81334   ]
 [0.3        1.04249546]
 [0.4        0.8243923 ]
 [0.5        1.89113742]
 [0.6        0.69337223]
 [0.7        1.01307283]
 [0.8        0.67908163]
 [0.9        0.07541053]
 [1.         1.95325555]
 [1.09391667 0.98387982]]",1,1.904
8817605319,m,22,french,4,5,french,2024-02-07 15:14:50.712299,False,1,104,sounds\english\audio/english_159.wav,"[[  0.         -27.71132793]
 [  0.1          5.67043956]
 [  0.2        -56.04116861]
 [  0.3        -60.647669  ]
 [  0.4        -31.28235293]
 [  0.5        -41.95968639]
 [  0.6        -46.83352467]
 [  0.7         -6.87168688]
 [  0.8        -38.22542966]
 [  0.9         29.71030145]
 [  1.         -44.77576274]
 [  1.09391667  46.77490147]]","[[0.         0.45552689]
 [0.1        1.85865221]
 [0.2        1.36292014]
 [0.3        0.8196748 ]
 [0.4        1.14454104]
 [0.5        0.2708192 ]
 [0.6        0.67466027]
 [0.7        0.75914602]
 [0.8        0.8772758 ]
 [0.9        1.24753926]
 [1.         1.52106538]
 [1.09391667 1.15996843]]",1,3.267
8817605319,m,22,french,4,5,french,2024-02-07 15:14:50.712299,False,1,105,sounds\english\audio/english_599.wav,"[[  0.          68.55754102]
 [  0.1         -7.26037981]
 [  0.2         92.88050494]
 [  0.3        -30.01198602]
 [  0.4        -12.83448782]
 [  0.5         95.18827309]
 [  0.6         76.69886181]
 [  0.7        -88.96581396]
 [  0.8          6.31748227]
 [  0.9        -93.23103284]
 [  1.          52.23538248]
 [  1.09391667  80.6723105 ]]","[[0.         0.43315889]
 [0.1        0.25693118]
 [0.2        0.63718224]
 [0.3        0.72589136]
 [0.4        1.41268703]
 [0.5        1.68026213]
 [0.6        1.35988865]
 [0.7        1.48925284]
 [0.8        0.8159251 ]
 [0.9        0.71703188]
 [1.         0.37366583]
 [1.09391667 0.06283904]]",1,0.599
8817605319,m,22,french,4,5,french,2024-02-07 15:14:50.712299,False,1,106,sounds\english\audio/english_666.wav,"[[  0.          10.55823455]
 [  0.1         60.25625818]
 [  0.2         40.6898343 ]
 [  0.3         58.2306109 ]
 [  0.4          4.0077953 ]
 [  0.5         71.45661873]
 [  0.6         18.87796303]
 [  0.7        -29.5527486 ]
 [  0.8         31.6397638 ]
 [  0.9        -90.13061067]
 [  1.          53.29328049]
 [  1.09391667 -53.47399996]]","[[0.         0.52881458]
 [0.1        1.82589442]
 [0.2        1.01937084]
 [0.3        0.05437581]
 [0.4        1.33142654]
 [0.5        0.21266373]
 [0.6        0.67439472]
 [0.7        1.59641085]
 [0.8        0.05005126]
 [0.9        0.93178906]
 [1.         1.49567277]
 [1.09391667 1.5853139 ]]",1,1.515
8817605319,m,22,french,4,5,french,2024-02-07 15:14:50.712299,False,1,107,sounds\english\audio/english_564.wav,"[[  0.         -34.60753541]
 [  0.1         34.71275865]
 [  0.2        -91.22234158]
 [  0.3        -30.94174796]
 [  0.4         19.1605329 ]
 [  0.5         25.6799548 ]
 [  0.6         47.93259791]
 [  0.7        -92.40390398]
 [  0.8        -11.90261917]
 [  0.9        -40.66911236]
 [  1.         -26.45898955]
 [  1.09391667 -54.09791647]]","[[0.         1.00141785]
 [0.1        0.68250136]
 [0.2        1.72992933]
 [0.3        1.35002318]
 [0.4        0.6468883 ]
 [0.5        0.91261052]
 [0.6        0.25016516]
 [0.7        0.90996222]
 [0.8        0.18937367]
 [0.9        1.89272817]
 [1.         0.47725067]
 [1.09391667 0.84194262]]",1,1.317
8817605319,m,22,french,4,5,french,2024-02-07 15:14:50.712299,False,1,108,sounds\english\audio/english_410.wav,"[[  0.         -36.53142902]
 [  0.1        -73.10175545]
 [  0.2        -61.08145671]
 [  0.3         69.19027309]
 [  0.4         55.45278414]
 [  0.5        -36.69311621]
 [  0.6        -29.14988511]
 [  0.7         23.18680587]
 [  0.8        -48.34223372]
 [  0.9        -66.3324226 ]
 [  1.         -63.55688976]
 [  1.09391667  20.87434717]]","[[0.         1.24674602]
 [0.1        0.8370169 ]
 [0.2        0.06968434]
 [0.3        1.30165484]
 [0.4        1.73532031]
 [0.5        0.17519488]
 [0.6        1.19817313]
 [0.7        1.29181432]
 [0.8        0.80606891]
 [0.9        1.29130062]
 [1.         1.82784749]
 [1.09391667 1.37227316]]",1,0.595
8817605319,m,22,french,4,5,french,2024-02-07 15:14:50.712299,False,1,109,sounds\english\audio/english_532.wav,"[[  0.          60.85707462]
 [  0.1         13.03416057]
 [  0.2        -48.45411351]
 [  0.3         16.77450497]
 [  0.4         -7.6707259 ]
 [  0.5        -84.48187603]
 [  0.6         -5.50880589]
 [  0.7        -53.77002933]
 [  0.8         11.75325856]
 [  0.9         41.28277306]
 [  1.          14.79272929]
 [  1.09391667 -15.59183139]]","[[0.         0.2444237 ]
 [0.1        1.53493401]
 [0.2        1.45787945]
 [0.3        0.11915761]
 [0.4        0.99575033]
 [0.5        1.34203353]
 [0.6        0.42679286]
 [0.7        1.97733711]
 [0.8        0.79534295]
 [0.9        0.9990701 ]
 [1.         1.48802156]
 [1.09391667 0.74270144]]",1,0.578
8817605319,m,22,french,4,5,french,2024-02-07 15:14:50.712299,False,1,110,sounds\english\audio/english_718.wav,"[[  0.          61.00269276]
 [  0.1         -4.74934843]
 [  0.2          9.01462899]
 [  0.3         79.23930225]
 [  0.4        -22.0403667 ]
 [  0.5        -60.9220938 ]
 [  0.6         36.91126826]
 [  0.7         23.15113788]
 [  0.8        -72.29830581]
 [  0.9        -56.27843268]
 [  1.         -20.76477327]
 [  1.09391667 -26.98598325]]","[[0.         1.9915537 ]
 [0.1        0.89410112]
 [0.2        1.56072611]
 [0.3        0.98422559]
 [0.4        1.91227381]
 [0.5        1.04807259]
 [0.6        0.76136187]
 [0.7        1.40698191]
 [0.8        0.19509634]
 [0.9        0.95755477]
 [1.         0.32836836]
 [1.09391667 1.63350278]]",1,7.075
8817605319,m,22,french,4,5,french,2024-02-07 15:14:50.712299,False,1,111,sounds\english\audio/english_350.wav,"[[  0.         -49.74850435]
 [  0.1         68.30317627]
 [  0.2        -65.19955472]
 [  0.3         16.55905503]
 [  0.4        -91.2937095 ]
 [  0.5         15.43319067]
 [  0.6        -45.85963286]
 [  0.7         19.61186346]
 [  0.8        -16.08875957]
 [  0.9         46.96260951]
 [  1.          42.75278918]
 [  1.09391667 -15.03240418]]","[[0.         0.22554434]
 [0.1        1.05889666]
 [0.2        1.66837242]
 [0.3        1.26247407]
 [0.4        1.50505412]
 [0.5        1.94963106]
 [0.6        1.1132199 ]
 [0.7        0.36047723]
 [0.8        0.33369352]
 [0.9        0.35479608]
 [1.         0.24605451]
 [1.09391667 1.96587805]]",0,0.573
8817605319,m,22,french,4,5,french,2024-02-07 15:14:50.712299,False,1,112,sounds\english\audio/english_358.wav,"[[  0.          92.28677649]
 [  0.1        -12.9582866 ]
 [  0.2        -98.82534689]
 [  0.3        -63.08847482]
 [  0.4         92.88960715]
 [  0.5         40.59705886]
 [  0.6        -76.45051274]
 [  0.7        -92.98382241]
 [  0.8        -79.17872568]
 [  0.9         63.6003007 ]
 [  1.         -21.46486279]
 [  1.09391667  94.02075741]]","[[0.         0.81523353]
 [0.1        0.40862617]
 [0.2        0.64915378]
 [0.3        1.66113288]
 [0.4        0.52783471]
 [0.5        0.06151942]
 [0.6        0.90334042]
 [0.7        0.974558  ]
 [0.8        1.86712718]
 [0.9        1.75794987]
 [1.         1.76155667]
 [1.09391667 1.61274026]]",1,0.855
8817605319,m,22,french,4,5,french,2024-02-07 15:14:50.712299,False,1,113,sounds\english\audio/english_517.wav,"[[  0.          66.65099922]
 [  0.1        -25.70388075]
 [  0.2        -22.37896652]
 [  0.3         -6.57908025]
 [  0.4         14.90197081]
 [  0.5         28.13310888]
 [  0.6         67.72161666]
 [  0.7        -79.77738636]
 [  0.8         -9.62789869]
 [  0.9        -43.36595112]
 [  1.         -65.22090713]
 [  1.09391667  93.99451349]]","[[0.         0.14059347]
 [0.1        0.04284068]
 [0.2        0.61477249]
 [0.3        0.586151  ]
 [0.4        0.82467301]
 [0.5        1.4846696 ]
 [0.6        1.87560286]
 [0.7        0.86888635]
 [0.8        0.65753642]
 [0.9        1.72637139]
 [1.         0.00479054]
 [1.09391667 1.63350936]]",1,0.65
8817605319,m,22,french,4,5,french,2024-02-07 15:14:50.712299,False,1,114,sounds\english\audio/english_133.wav,"[[  0.          10.63343709]
 [  0.1         24.84890696]
 [  0.2        -34.79554397]
 [  0.3        -18.60172977]
 [  0.4        -98.89022724]
 [  0.5         23.30800479]
 [  0.6         30.70048396]
 [  0.7        -76.25426305]
 [  0.8         14.35819181]
 [  0.9        -62.19404817]
 [  1.          77.39529663]
 [  1.09391667  16.52655074]]","[[0.         0.76476464]
 [0.1        1.29515793]
 [0.2        1.91673142]
 [0.3        1.0879203 ]
 [0.4        1.20589026]
 [0.5        1.56284498]
 [0.6        0.05267283]
 [0.7        1.08371144]
 [0.8        0.48506717]
 [0.9        1.72104901]
 [1.         1.20839478]
 [1.09391667 0.51907939]]",1,1.539
8817605319,m,22,french,4,5,french,2024-02-07 15:14:50.712299,False,1,115,sounds\english\audio/english_637.wav,"[[  0.         -89.57602713]
 [  0.1        -12.21163012]
 [  0.2         45.69375155]
 [  0.3         47.44411802]
 [  0.4        -64.39909361]
 [  0.5         38.07531124]
 [  0.6        -37.11559242]
 [  0.7         61.76350432]
 [  0.8         87.30183414]
 [  0.9         42.92339498]
 [  1.          99.17764885]
 [  1.09391667  27.2352495 ]]","[[0.         1.01899078]
 [0.1        0.44650383]
 [0.2        0.86051042]
 [0.3        0.62803932]
 [0.4        0.05404575]
 [0.5        0.80477493]
 [0.6        0.4743624 ]
 [0.7        1.24039456]
 [0.8        0.77622698]
 [0.9        1.15579273]
 [1.         1.67569325]
 [1.09391667 0.37956578]]",1,1.438
8817605319,m,22,french,4,5,french,2024-02-07 15:14:50.712299,False,1,116,sounds\english\audio/english_832.wav,"[[  0.         -88.58549248]
 [  0.1          8.34347478]
 [  0.2        -33.69240403]
 [  0.3        -38.19874018]
 [  0.4         69.91001741]
 [  0.5         76.9560892 ]
 [  0.6         32.91071569]
 [  0.7        -13.39927827]
 [  0.8         44.52631215]
 [  0.9         45.29069076]
 [  1.         -68.4923338 ]
 [  1.09391667 -25.64660407]]","[[0.         0.22284511]
 [0.1        1.43554353]
 [0.2        1.25168829]
 [0.3        1.76549117]
 [0.4        0.48241117]
 [0.5        1.98484056]
 [0.6        0.38621033]
 [0.7        0.77915885]
 [0.8        0.49939301]
 [0.9        1.70508711]
 [1.         1.07362721]
 [1.09391667 1.64737721]]",1,1.981
8817605319,m,22,french,4,5,french,2024-02-07 15:14:50.712299,False,1,117,sounds\english\audio/english_773.wav,"[[  0.          25.38598482]
 [  0.1        -75.4290336 ]
 [  0.2        -93.77214736]
 [  0.3        -11.93109416]
 [  0.4         -3.2584173 ]
 [  0.5          4.3608059 ]
 [  0.6        -67.37283883]
 [  0.7        -45.00567152]
 [  0.8         35.5097718 ]
 [  0.9         43.03996363]
 [  1.          65.28264622]
 [  1.09391667 -37.07012433]]","[[0.         0.89232009]
 [0.1        1.89128597]
 [0.2        1.99899889]
 [0.3        0.2472244 ]
 [0.4        0.14273894]
 [0.5        1.21438163]
 [0.6        0.96373014]
 [0.7        1.90932533]
 [0.8        1.26347726]
 [0.9        1.83989813]
 [1.         0.76004817]
 [1.09391667 0.66989713]]",0,0.57
8817605319,m,22,french,4,5,french,2024-02-07 15:14:50.712299,False,1,118,sounds\english\audio/english_67.wav,"[[  0.         -84.65948026]
 [  0.1         84.7606233 ]
 [  0.2         84.84791272]
 [  0.3        -54.63561635]
 [  0.4        -93.28689033]
 [  0.5         15.62357322]
 [  0.6         70.84522179]
 [  0.7         18.01432969]
 [  0.8        -96.46193504]
 [  0.9        -76.01913404]
 [  1.          21.66220953]
 [  1.09391667  58.72019725]]","[[0.         1.62658343]
 [0.1        0.18718182]
 [0.2        1.32224913]
 [0.3        1.26573793]
 [0.4        0.84125882]
 [0.5        0.24401609]
 [0.6        0.63082719]
 [0.7        0.80351313]
 [0.8        0.91980261]
 [0.9        0.79845133]
 [1.         1.38280114]
 [1.09391667 0.4179158 ]]",0,1.383
8817605319,m,22,french,4,5,french,2024-02-07 15:14:50.712299,False,1,119,sounds\english\audio/english_942.wav,"[[  0.          45.49166442]
 [  0.1         -2.30850056]
 [  0.2         43.64947202]
 [  0.3        -52.04143122]
 [  0.4         -8.91644013]
 [  0.5        -27.81632839]
 [  0.6         -9.72818952]
 [  0.7         95.1925327 ]
 [  0.8         72.04388461]
 [  0.9         23.33853222]
 [  1.          59.86308522]
 [  1.09391667  13.07645506]]","[[0.         1.20258851]
 [0.1        0.03180812]
 [0.2        1.4076024 ]
 [0.3        0.10204445]
 [0.4        1.90553817]
 [0.5        0.46641983]
 [0.6        0.6494667 ]
 [0.7        0.71171086]
 [0.8        0.45732561]
 [0.9        1.18338442]
 [1.         1.65940409]
 [1.09391667 1.80591064]]",0,0.915
8817605319,m,22,french,4,5,french,2024-02-07 15:14:50.712299,False,1,120,sounds\english\audio/english_652.wav,"[[  0.          -6.47134423]
 [  0.1         15.08810971]
 [  0.2         98.29631383]
 [  0.3         30.58339985]
 [  0.4         -6.30529528]
 [  0.5        -44.5601624 ]
 [  0.6          4.47931007]
 [  0.7        -52.28319513]
 [  0.8         17.6405793 ]
 [  0.9          2.7192508 ]
 [  1.          -8.76412426]
 [  1.09391667  53.37366327]]","[[0.         1.78340321]
 [0.1        1.37348527]
 [0.2        0.90438715]
 [0.3        0.90448146]
 [0.4        0.6194213 ]
 [0.5        1.03986034]
 [0.6        0.52762796]
 [0.7        0.92865907]
 [0.8        1.28477406]
 [0.9        1.34724363]
 [1.         1.76490877]
 [1.09391667 1.20575877]]",0,0.371
8817605319,m,22,french,4,5,french,2024-02-07 15:14:50.712299,False,1,121,sounds\english\audio/english_505.wav,"[[  0.          91.23085556]
 [  0.1        -15.55826488]
 [  0.2         12.35940028]
 [  0.3         -0.93203898]
 [  0.4         98.55638555]
 [  0.5         89.84667018]
 [  0.6         61.88853531]
 [  0.7         19.66566337]
 [  0.8        -99.77897317]
 [  0.9        -24.29755532]
 [  1.          67.47807651]
 [  1.09391667  13.49034132]]","[[0.         0.82413934]
 [0.1        0.35004659]
 [0.2        1.21560266]
 [0.3        1.75278196]
 [0.4        1.03675584]
 [0.5        1.84604412]
 [0.6        0.6105869 ]
 [0.7        1.77513514]
 [0.8        0.3232423 ]
 [0.9        0.91185212]
 [1.         1.75020631]
 [1.09391667 1.09867425]]",1,6.906
8817605319,m,22,french,4,5,french,2024-02-07 15:14:50.712299,False,1,122,sounds\english\audio/english_227.wav,"[[  0.          87.02540196]
 [  0.1        -87.16855408]
 [  0.2         13.6128173 ]
 [  0.3         25.59592298]
 [  0.4          3.06661623]
 [  0.5         -6.41872275]
 [  0.6        -40.97922684]
 [  0.7        -51.74632522]
 [  0.8        -35.50720635]
 [  0.9        -52.46041148]
 [  1.          -5.55255579]
 [  1.09391667  92.65490635]]","[[0.         1.45120071]
 [0.1        1.99718195]
 [0.2        0.6126104 ]
 [0.3        0.97530447]
 [0.4        1.74861281]
 [0.5        1.95931784]
 [0.6        1.44262054]
 [0.7        0.76385193]
 [0.8        0.83123806]
 [0.9        1.0121191 ]
 [1.         1.39124165]
 [1.09391667 1.37791309]]",0,0.332
8817605319,m,22,french,4,5,french,2024-02-07 15:14:50.712299,False,1,123,sounds\english\audio/english_492.wav,"[[  0.         -29.9472328 ]
 [  0.1         35.33010824]
 [  0.2         -3.45968041]
 [  0.3         59.06456756]
 [  0.4         98.23949624]
 [  0.5         -1.48270349]
 [  0.6         -1.72219507]
 [  0.7         12.69106909]
 [  0.8        -21.74180351]
 [  0.9        -33.92370757]
 [  1.          37.93162517]
 [  1.09391667 -90.75179354]]","[[0.         1.28534899]
 [0.1        1.03908978]
 [0.2        1.26033893]
 [0.3        0.39463808]
 [0.4        0.21276087]
 [0.5        0.25205409]
 [0.6        0.58596557]
 [0.7        1.49088879]
 [0.8        1.5225112 ]
 [0.9        0.13189423]
 [1.         0.89918189]
 [1.09391667 1.07142866]]",0,0.664
8817605319,m,22,french,4,5,french,2024-02-07 15:14:50.712299,False,1,124,sounds\english\audio/english_928.wav,"[[  0.          10.59611368]
 [  0.1        -58.33970814]
 [  0.2         48.21332553]
 [  0.3          8.01473442]
 [  0.4          1.23446692]
 [  0.5         75.4888235 ]
 [  0.6        -71.96113636]
 [  0.7        -73.39552856]
 [  0.8        -33.53378549]
 [  0.9          1.07873632]
 [  1.          58.06405964]
 [  1.09391667  15.92112733]]","[[0.         0.70098124]
 [0.1        0.81482125]
 [0.2        0.85809581]
 [0.3        1.28695487]
 [0.4        0.84694823]
 [0.5        0.86088631]
 [0.6        0.91068844]
 [0.7        1.800813  ]
 [0.8        0.14082097]
 [0.9        0.95279098]
 [1.         0.96841151]
 [1.09391667 0.90966091]]",1,0.757
8817605319,m,22,french,4,5,french,2024-02-07 15:14:50.712299,False,1,125,sounds\english\audio/english_912.wav,"[[  0.          83.45320293]
 [  0.1         47.1123547 ]
 [  0.2        -44.09395349]
 [  0.3         80.4089211 ]
 [  0.4        -65.95886508]
 [  0.5        -25.59965852]
 [  0.6         58.94865135]
 [  0.7        -95.38965028]
 [  0.8         10.68091992]
 [  0.9        -57.68744928]
 [  1.           5.39108627]
 [  1.09391667  37.38622487]]","[[0.         1.30725461]
 [0.1        0.36515134]
 [0.2        0.27834174]
 [0.3        1.38784543]
 [0.4        0.18344109]
 [0.5        0.42703515]
 [0.6        1.85819174]
 [0.7        1.3517083 ]
 [0.8        1.52712698]
 [0.9        1.44811226]
 [1.         1.0038839 ]
 [1.09391667 0.79645394]]",1,0.196
8817605319,m,22,french,4,5,french,2024-02-07 15:14:50.712299,False,1,126,sounds\english\audio/english_705.wav,"[[  0.          94.0253211 ]
 [  0.1        -84.5444617 ]
 [  0.2         70.19977298]
 [  0.3          2.19370509]
 [  0.4        -19.63697013]
 [  0.5        -84.4931522 ]
 [  0.6        -85.03717111]
 [  0.7        -41.91445316]
 [  0.8         84.41486289]
 [  0.9         18.1621282 ]
 [  1.          14.92247564]
 [  1.09391667   8.36562591]]","[[0.         0.90857368]
 [0.1        1.76203374]
 [0.2        0.0745524 ]
 [0.3        1.11616576]
 [0.4        0.64300797]
 [0.5        1.25671361]
 [0.6        0.57308662]
 [0.7        1.15914167]
 [0.8        1.00421815]
 [0.9        0.6158783 ]
 [1.         1.53499835]
 [1.09391667 1.78270824]]",1,2.009
8817605319,m,22,french,4,5,french,2024-02-07 15:14:50.712299,False,1,127,sounds\english\audio/english_365.wav,"[[  0.         -13.81078305]
 [  0.1         10.90636048]
 [  0.2         71.51010514]
 [  0.3         42.52309231]
 [  0.4         61.30753847]
 [  0.5        -34.48448602]
 [  0.6         35.84346113]
 [  0.7        -56.39981073]
 [  0.8        -86.58866218]
 [  0.9        -51.1308372 ]
 [  1.         -44.59979753]
 [  1.09391667  99.72573964]]","[[0.         1.74540369]
 [0.1        0.64746191]
 [0.2        0.6414627 ]
 [0.3        0.02436054]
 [0.4        0.53231596]
 [0.5        1.68146763]
 [0.6        1.59056588]
 [0.7        1.84748389]
 [0.8        1.51888636]
 [0.9        0.50507437]
 [1.         1.32144417]
 [1.09391667 1.70632081]]",0,2.705
8817605319,m,22,french,4,5,french,2024-02-07 15:14:50.712299,False,1,128,sounds\english\audio/english_839.wav,"[[  0.          25.22327534]
 [  0.1         65.97179868]
 [  0.2         36.46298268]
 [  0.3          0.36789595]
 [  0.4         37.25543056]
 [  0.5         13.61304399]
 [  0.6         40.85367399]
 [  0.7         92.87994107]
 [  0.8         40.19777361]
 [  0.9        -27.70209944]
 [  1.         -75.44304357]
 [  1.09391667  15.82899147]]","[[0.         0.79021115]
 [0.1        1.36275453]
 [0.2        0.56940252]
 [0.3        1.38606336]
 [0.4        1.49876521]
 [0.5        1.33513266]
 [0.6        0.34922841]
 [0.7        1.58402098]
 [0.8        0.73275133]
 [0.9        1.05467816]
 [1.         1.81419779]
 [1.09391667 1.89560881]]",1,1.954
