subj,sex,age,language,english,french,native_lang,date,practice,block,trial,stim,pitch,stretch,response,rt
8729829169,f,18,french,3,5,french,2024-01-25 10:34:02.479147,False,2,253,sounds\english\audio/english_432.wav,"[[  0.          28.49955807]
 [  0.1        -31.8275444 ]
 [  0.2         24.24217544]
 [  0.3        -66.09269444]
 [  0.4        -62.15798019]
 [  0.5        -49.72154406]
 [  0.6        -47.69762913]
 [  0.7         77.36626765]
 [  0.8          5.83013874]
 [  0.9         28.26329168]
 [  1.         -41.71680011]
 [  1.09391667  67.89473062]]","[[0.         0.25208372]
 [0.1        0.73448825]
 [0.2        0.75780001]
 [0.3        1.1180686 ]
 [0.4        1.06816696]
 [0.5        0.60613643]
 [0.6        0.58276722]
 [0.7        1.4653334 ]
 [0.8        1.3937813 ]
 [0.9        1.50157436]
 [1.         1.14185861]
 [1.09391667 1.59474316]]",0,4.581
8729829169,f,18,french,3,5,french,2024-01-25 10:34:02.479147,False,2,254,sounds\english\audio/english_800.wav,"[[  0.          35.31456444]
 [  0.1         32.41521545]
 [  0.2        -54.21409297]
 [  0.3        -42.78782363]
 [  0.4         54.56880631]
 [  0.5        -47.76201321]
 [  0.6         21.101395  ]
 [  0.7        -85.00905452]
 [  0.8         89.73188045]
 [  0.9         58.36158131]
 [  1.          82.86297317]
 [  1.09391667  50.19485525]]","[[0.         1.69516606]
 [0.1        0.23308544]
 [0.2        0.95659058]
 [0.3        1.51885901]
 [0.4        1.37866605]
 [0.5        0.13843314]
 [0.6        0.69869138]
 [0.7        1.55469424]
 [0.8        1.19022687]
 [0.9        1.40913395]
 [1.         1.54823015]
 [1.09391667 1.45235784]]",0,1.913
8729829169,f,18,french,3,5,french,2024-01-25 10:34:02.479147,False,2,255,sounds\english\audio/english_499.wav,"[[  0.          -7.75302897]
 [  0.1         23.88086762]
 [  0.2         -0.54854112]
 [  0.3         11.38417001]
 [  0.4         76.48373601]
 [  0.5         34.68075028]
 [  0.6        -14.34298834]
 [  0.7         26.82043511]
 [  0.8         60.32593039]
 [  0.9        -38.40765739]
 [  1.           7.55243951]
 [  1.09391667 -96.29085545]]","[[0.         0.29368166]
 [0.1        1.58141682]
 [0.2        0.68322719]
 [0.3        1.0607803 ]
 [0.4        0.5459371 ]
 [0.5        1.82829661]
 [0.6        1.23009433]
 [0.7        1.38131853]
 [0.8        0.45099226]
 [0.9        1.79672484]
 [1.         0.11050545]
 [1.09391667 0.98124995]]",0,1.396
8729829169,f,18,french,3,5,french,2024-01-25 10:34:02.479147,False,2,256,sounds\english\audio/english_59.wav,"[[  0.          13.6818357 ]
 [  0.1        -62.28772111]
 [  0.2         49.12418905]
 [  0.3        -11.37021527]
 [  0.4        -54.18333873]
 [  0.5         89.00177849]
 [  0.6        -39.13145847]
 [  0.7         -8.40184911]
 [  0.8        -34.91016987]
 [  0.9         92.47037208]
 [  1.          91.56160698]
 [  1.09391667 -64.52293265]]","[[0.         1.39102809]
 [0.1        1.7641323 ]
 [0.2        1.93370096]
 [0.3        1.41546104]
 [0.4        1.8712645 ]
 [0.5        1.58142361]
 [0.6        1.31038649]
 [0.7        1.79881342]
 [0.8        0.00761053]
 [0.9        0.77279167]
 [1.         0.86326769]
 [1.09391667 1.19458968]]",1,1.202
8729829169,f,18,french,3,5,french,2024-01-25 10:34:02.479147,False,2,257,sounds\english\audio/english_445.wav,"[[  0.          76.42112213]
 [  0.1        -97.95203426]
 [  0.2        -59.82746333]
 [  0.3        -13.48573522]
 [  0.4         81.29973607]
 [  0.5         41.3671656 ]
 [  0.6        -85.98514438]
 [  0.7         57.90232239]
 [  0.8        -95.60547231]
 [  0.9         17.13362758]
 [  1.          46.54539843]
 [  1.09391667  43.78720367]]","[[0.         1.57802926]
 [0.1        1.29835175]
 [0.2        0.53636504]
 [0.3        1.2021667 ]
 [0.4        1.41426839]
 [0.5        1.60295296]
 [0.6        0.58159358]
 [0.7        0.76199649]
 [0.8        0.54097795]
 [0.9        0.00538706]
 [1.         0.3060589 ]
 [1.09391667 1.39576853]]",1,0.647
8729829169,f,18,french,3,5,french,2024-01-25 10:34:02.479147,False,2,258,sounds\english\audio/english_91.wav,"[[  0.          90.30305792]
 [  0.1         56.18894947]
 [  0.2        -58.19739478]
 [  0.3         79.028897  ]
 [  0.4          7.81343209]
 [  0.5         28.60271905]
 [  0.6         14.99037293]
 [  0.7         -0.25615484]
 [  0.8         86.53655438]
 [  0.9        -90.65230495]
 [  1.          95.15657265]
 [  1.09391667 -56.87677847]]","[[0.         1.1938068 ]
 [0.1        1.20808781]
 [0.2        0.13849828]
 [0.3        0.94138732]
 [0.4        0.4665442 ]
 [0.5        1.77893908]
 [0.6        0.39545287]
 [0.7        1.77472074]
 [0.8        1.9424725 ]
 [0.9        1.79603275]
 [1.         1.28685544]
 [1.09391667 0.36998726]]",0,0.184
8729829169,f,18,french,3,5,french,2024-01-25 10:34:02.479147,False,2,259,sounds\english\audio/english_855.wav,"[[  0.         -13.47347562]
 [  0.1        -80.05914573]
 [  0.2        -72.26699248]
 [  0.3        -58.92718016]
 [  0.4        -26.10050626]
 [  0.5         52.49716227]
 [  0.6        -60.2709564 ]
 [  0.7         99.6254906 ]
 [  0.8         96.73720775]
 [  0.9         38.62507801]
 [  1.         -58.05029263]
 [  1.09391667 -97.63647514]]","[[0.         1.00059458]
 [0.1        0.50263337]
 [0.2        0.84336515]
 [0.3        1.88793301]
 [0.4        0.44425999]
 [0.5        1.63024313]
 [0.6        0.11111393]
 [0.7        1.35713378]
 [0.8        0.79488914]
 [0.9        1.22496373]
 [1.         1.90547482]
 [1.09391667 0.01778788]]",0,0.797
8729829169,f,18,french,3,5,french,2024-01-25 10:34:02.479147,False,2,260,sounds\english\audio/english_69.wav,"[[  0.          -8.22406931]
 [  0.1        -46.19784604]
 [  0.2        -49.45533056]
 [  0.3         69.56374807]
 [  0.4        -92.74652317]
 [  0.5         52.31402986]
 [  0.6         35.98181846]
 [  0.7         29.79563749]
 [  0.8         49.53175238]
 [  0.9        -69.91203253]
 [  1.         -91.34062215]
 [  1.09391667  39.19432379]]","[[0.         0.7296211 ]
 [0.1        1.54205881]
 [0.2        0.56573239]
 [0.3        1.53704253]
 [0.4        0.47977854]
 [0.5        0.1278397 ]
 [0.6        1.442132  ]
 [0.7        0.12498308]
 [0.8        0.29427441]
 [0.9        1.27290514]
 [1.         0.87034484]
 [1.09391667 1.40202541]]",1,0.281
8729829169,f,18,french,3,5,french,2024-01-25 10:34:02.479147,False,2,261,sounds\english\audio/english_125.wav,"[[  0.          37.27554733]
 [  0.1         24.29830201]
 [  0.2        -43.3040728 ]
 [  0.3         32.63559677]
 [  0.4         65.75819377]
 [  0.5         93.24268126]
 [  0.6        -15.30697981]
 [  0.7         92.42760244]
 [  0.8         43.95412796]
 [  0.9         15.32237433]
 [  1.         -94.44407427]
 [  1.09391667  87.09346239]]","[[0.         0.5612227 ]
 [0.1        1.75747345]
 [0.2        1.33602667]
 [0.3        0.25379983]
 [0.4        0.46765889]
 [0.5        0.0945868 ]
 [0.6        1.31767057]
 [0.7        0.46721292]
 [0.8        1.38944415]
 [0.9        1.70361777]
 [1.         0.93528665]
 [1.09391667 1.20335548]]",0,0.371
8729829169,f,18,french,3,5,french,2024-01-25 10:34:02.479147,False,2,262,sounds\english\audio/english_277.wav,"[[  0.         -44.33616139]
 [  0.1         44.35260019]
 [  0.2        -49.49233779]
 [  0.3        -85.34810724]
 [  0.4         28.63854814]
 [  0.5         67.28491477]
 [  0.6         56.85897208]
 [  0.7        -23.80647194]
 [  0.8        -34.73638316]
 [  0.9        -44.12670418]
 [  1.         -49.9038669 ]
 [  1.09391667 -45.21232541]]","[[0.         0.73788807]
 [0.1        1.74394891]
 [0.2        0.42488183]
 [0.3        1.67106469]
 [0.4        1.81238123]
 [0.5        1.08162705]
 [0.6        1.34108587]
 [0.7        0.83894526]
 [0.8        0.08057135]
 [0.9        0.78361609]
 [1.         1.89078492]
 [1.09391667 1.1409546 ]]",1,0.333
8729829169,f,18,french,3,5,french,2024-01-25 10:34:02.479147,False,2,263,sounds\english\audio/english_731.wav,"[[  0.          -7.36185514]
 [  0.1         90.53877185]
 [  0.2        -41.94407757]
 [  0.3         25.1521842 ]
 [  0.4         68.57946125]
 [  0.5         65.86891495]
 [  0.6        -52.28114947]
 [  0.7         15.16550818]
 [  0.8         25.27999627]
 [  0.9         11.70162838]
 [  1.         -94.01759602]
 [  1.09391667  -3.24792735]]","[[0.         1.393769  ]
 [0.1        0.98238467]
 [0.2        1.23695651]
 [0.3        1.19631379]
 [0.4        0.88911396]
 [0.5        1.98349596]
 [0.6        0.8296111 ]
 [0.7        0.44150217]
 [0.8        1.48173114]
 [0.9        1.09419359]
 [1.         0.20829797]
 [1.09391667 1.32232845]]",0,0.383
8729829169,f,18,french,3,5,french,2024-01-25 10:34:02.479147,False,2,264,sounds\english\audio/english_429.wav,"[[  0.          35.99149225]
 [  0.1        -74.15243919]
 [  0.2        -66.98958389]
 [  0.3        -17.85195751]
 [  0.4        -73.89259621]
 [  0.5         79.15421071]
 [  0.6        -46.04257139]
 [  0.7        -20.15951385]
 [  0.8        -88.88014071]
 [  0.9         85.9209564 ]
 [  1.         -45.56975308]
 [  1.09391667 -32.13799224]]","[[0.         1.15996834]
 [0.1        1.78612781]
 [0.2        1.07132938]
 [0.3        0.01687876]
 [0.4        0.18602523]
 [0.5        1.63202806]
 [0.6        0.71186645]
 [0.7        1.59705108]
 [0.8        0.92556725]
 [0.9        1.19440403]
 [1.         1.44802402]
 [1.09391667 1.37788661]]",0,1.037
8729829169,f,18,french,3,5,french,2024-01-25 10:34:02.479147,False,2,265,sounds\english\audio/english_990.wav,"[[  0.         -41.91954114]
 [  0.1        -81.73689018]
 [  0.2         -8.6439495 ]
 [  0.3        -35.79468829]
 [  0.4        -15.71846635]
 [  0.5         30.29696997]
 [  0.6         58.5778321 ]
 [  0.7        -55.43771635]
 [  0.8         -4.04287403]
 [  0.9         96.7741085 ]
 [  1.          73.27929718]
 [  1.09391667 -50.83652549]]","[[0.         1.07016473]
 [0.1        0.80416299]
 [0.2        1.27361164]
 [0.3        0.8357561 ]
 [0.4        0.68387575]
 [0.5        0.51659091]
 [0.6        0.86090319]
 [0.7        1.86495605]
 [0.8        0.50523281]
 [0.9        0.60576665]
 [1.         1.38942897]
 [1.09391667 0.62697308]]",1,0.116
8729829169,f,18,french,3,5,french,2024-01-25 10:34:02.479147,False,2,266,sounds\english\audio/english_69.wav,"[[  0.          -8.22406931]
 [  0.1        -46.19784604]
 [  0.2        -49.45533056]
 [  0.3         69.56374807]
 [  0.4        -92.74652317]
 [  0.5         52.31402986]
 [  0.6         35.98181846]
 [  0.7         29.79563749]
 [  0.8         49.53175238]
 [  0.9        -69.91203253]
 [  1.         -91.34062215]
 [  1.09391667  39.19432379]]","[[0.         0.7296211 ]
 [0.1        1.54205881]
 [0.2        0.56573239]
 [0.3        1.53704253]
 [0.4        0.47977854]
 [0.5        0.1278397 ]
 [0.6        1.442132  ]
 [0.7        0.12498308]
 [0.8        0.29427441]
 [0.9        1.27290514]
 [1.         0.87034484]
 [1.09391667 1.40202541]]",1,0.478
8729829169,f,18,french,3,5,french,2024-01-25 10:34:02.479147,False,2,267,sounds\english\audio/english_475.wav,"[[  0.          29.80961577]
 [  0.1         48.86857013]
 [  0.2        -75.87963709]
 [  0.3         30.73642142]
 [  0.4        -47.77384215]
 [  0.5         95.74069733]
 [  0.6         49.89153758]
 [  0.7        -93.96412935]
 [  0.8        -13.00332235]
 [  0.9         80.99885276]
 [  1.         -12.77273084]
 [  1.09391667  -3.9803657 ]]","[[0.         0.43821818]
 [0.1        0.91916023]
 [0.2        1.43870603]
 [0.3        0.67232978]
 [0.4        0.927705  ]
 [0.5        0.04190462]
 [0.6        1.51758055]
 [0.7        1.81908107]
 [0.8        1.60949708]
 [0.9        1.9985333 ]
 [1.         1.07792874]
 [1.09391667 1.55358956]]",0,0.4
8729829169,f,18,french,3,5,french,2024-01-25 10:34:02.479147,False,2,268,sounds\english\audio/english_49.wav,"[[  0.          -7.77522682]
 [  0.1        -69.00488143]
 [  0.2         56.47558832]
 [  0.3         47.73828653]
 [  0.4        -58.74936134]
 [  0.5        -16.00930073]
 [  0.6         68.77090309]
 [  0.7         47.28501738]
 [  0.8        -26.83696642]
 [  0.9         16.45883289]
 [  1.         -23.79769264]
 [  1.09391667  62.62161118]]","[[0.         0.84923144]
 [0.1        0.33119372]
 [0.2        1.22070051]
 [0.3        0.09401361]
 [0.4        0.13758585]
 [0.5        1.02104263]
 [0.6        1.27727042]
 [0.7        0.65680798]
 [0.8        1.41824482]
 [0.9        0.73136625]
 [1.         0.31271595]
 [1.09391667 0.15435739]]",0,0.552
8729829169,f,18,french,3,5,french,2024-01-25 10:34:02.479147,False,2,269,sounds\english\audio/english_741.wav,"[[  0.         -52.58118809]
 [  0.1         12.25497131]
 [  0.2        -66.99465096]
 [  0.3         33.21075969]
 [  0.4        -80.7229313 ]
 [  0.5         33.52953563]
 [  0.6        -70.06014591]
 [  0.7         74.24671254]
 [  0.8        -72.74719072]
 [  0.9         -6.6044487 ]
 [  1.          14.62137165]
 [  1.09391667  -3.50523329]]","[[0.         0.04069066]
 [0.1        1.79280913]
 [0.2        1.62861486]
 [0.3        1.99142518]
 [0.4        0.68846699]
 [0.5        0.95565852]
 [0.6        1.55389223]
 [0.7        0.39415735]
 [0.8        1.19562483]
 [0.9        1.16664034]
 [1.         0.62122377]
 [1.09391667 0.83751938]]",1,0.356
8729829169,f,18,french,3,5,french,2024-01-25 10:34:02.479147,False,2,270,sounds\english\audio/english_545.wav,"[[  0.         -99.01008517]
 [  0.1         65.47335851]
 [  0.2        -84.28840174]
 [  0.3        -53.2257253 ]
 [  0.4        -67.85056043]
 [  0.5        -22.57245088]
 [  0.6         -0.78864791]
 [  0.7         17.40611159]
 [  0.8         62.9168566 ]
 [  0.9         32.36790846]
 [  1.         -91.70599266]
 [  1.09391667  50.31108328]]","[[0.         0.51580829]
 [0.1        0.53489733]
 [0.2        1.28091178]
 [0.3        1.83272888]
 [0.4        0.88291171]
 [0.5        0.35382027]
 [0.6        1.57508052]
 [0.7        0.29019895]
 [0.8        1.37661243]
 [0.9        0.94083914]
 [1.         1.54827837]
 [1.09391667 0.28023548]]",0,0.907
8729829169,f,18,french,3,5,french,2024-01-25 10:34:02.479147,False,2,271,sounds\english\audio/english_554.wav,"[[  0.          68.06713434]
 [  0.1         51.53363243]
 [  0.2         96.79789275]
 [  0.3        -32.97805092]
 [  0.4         38.32175517]
 [  0.5        -48.79684279]
 [  0.6          6.57101052]
 [  0.7         30.34426539]
 [  0.8         57.10485473]
 [  0.9        -93.21826179]
 [  1.          58.97430912]
 [  1.09391667  32.65345188]]","[[0.         1.26196428]
 [0.1        1.49608983]
 [0.2        1.01925431]
 [0.3        1.27259864]
 [0.4        0.99325409]
 [0.5        1.83296218]
 [0.6        1.99419824]
 [0.7        1.31395906]
 [0.8        1.83167901]
 [0.9        1.93422624]
 [1.         1.62256756]
 [1.09391667 0.90589094]]",1,0.914
8729829169,f,18,french,3,5,french,2024-01-25 10:34:02.479147,False,2,272,sounds\english\audio/english_934.wav,"[[  0.         -11.34943225]
 [  0.1         65.85322301]
 [  0.2        -85.4605192 ]
 [  0.3         13.55265206]
 [  0.4          0.50969379]
 [  0.5         69.19486286]
 [  0.6        -98.42209139]
 [  0.7        -96.61496438]
 [  0.8        -65.00160108]
 [  0.9         48.73056023]
 [  1.          10.84569579]
 [  1.09391667  97.87119684]]","[[0.         0.24415631]
 [0.1        1.37961224]
 [0.2        1.63298201]
 [0.3        0.01798396]
 [0.4        0.66397169]
 [0.5        0.2241268 ]
 [0.6        1.8505399 ]
 [0.7        1.29472214]
 [0.8        0.83065813]
 [0.9        1.34944931]
 [1.         1.40216081]
 [1.09391667 1.98377201]]",0,0.241
8729829169,f,18,french,3,5,french,2024-01-25 10:34:02.479147,False,2,273,sounds\english\audio/english_893.wav,"[[  0.         -88.27288408]
 [  0.1         65.02931774]
 [  0.2         52.75255946]
 [  0.3         83.63729727]
 [  0.4        -40.64554186]
 [  0.5        -63.5561657 ]
 [  0.6         86.64180858]
 [  0.7         66.95085035]
 [  0.8        -95.78590216]
 [  0.9        -69.05067698]
 [  1.         -26.34394451]
 [  1.09391667  46.22858611]]","[[0.         0.46079997]
 [0.1        1.28353758]
 [0.2        1.5240413 ]
 [0.3        1.67217786]
 [0.4        1.32541151]
 [0.5        0.97852107]
 [0.6        0.03458433]
 [0.7        1.20988187]
 [0.8        1.76333765]
 [0.9        0.45158105]
 [1.         1.28641333]
 [1.09391667 0.88140728]]",0,1.049
8729829169,f,18,french,3,5,french,2024-01-25 10:34:02.479147,False,2,274,sounds\english\audio/english_42.wav,"[[  0.         -12.35235723]
 [  0.1        -31.30593397]
 [  0.2         93.22547931]
 [  0.3          3.55661221]
 [  0.4        -65.82574245]
 [  0.5         29.87364381]
 [  0.6        -76.70361056]
 [  0.7        -29.10356368]
 [  0.8        -52.57981462]
 [  0.9          3.2621499 ]
 [  1.         -86.59512904]
 [  1.09391667  39.23696044]]","[[0.         0.89110064]
 [0.1        0.38934259]
 [0.2        1.45440232]
 [0.3        0.25584691]
 [0.4        1.05295351]
 [0.5        0.59087155]
 [0.6        0.12112438]
 [0.7        0.72116868]
 [0.8        0.07340316]
 [0.9        1.9617885 ]
 [1.         0.50342264]
 [1.09391667 1.24684981]]",1,0.748
8729829169,f,18,french,3,5,french,2024-01-25 10:34:02.479147,False,2,275,sounds\english\audio/english_88.wav,"[[  0.         -71.9844785 ]
 [  0.1        -49.01939905]
 [  0.2         50.12381506]
 [  0.3        -84.58055822]
 [  0.4        -75.77840035]
 [  0.5        -24.7911267 ]
 [  0.6        -23.67428976]
 [  0.7        -54.46174988]
 [  0.8         17.41292988]
 [  0.9        -76.44908604]
 [  1.          -2.36913576]
 [  1.09391667 -39.62259758]]","[[0.         0.53660294]
 [0.1        1.47642874]
 [0.2        0.52511459]
 [0.3        1.50109779]
 [0.4        0.97976024]
 [0.5        0.85239994]
 [0.6        1.05191942]
 [0.7        0.4066024 ]
 [0.8        0.004424  ]
 [0.9        1.90836134]
 [1.         1.74184755]
 [1.09391667 0.66301055]]",1,1.11
8729829169,f,18,french,3,5,french,2024-01-25 10:34:02.479147,False,2,276,sounds\english\audio/english_488.wav,"[[  0.          55.6354899 ]
 [  0.1        -10.72836947]
 [  0.2        -46.3197066 ]
 [  0.3         14.14356253]
 [  0.4         63.48594027]
 [  0.5        -15.52389471]
 [  0.6          1.31987166]
 [  0.7          3.643619  ]
 [  0.8          1.08608347]
 [  0.9         18.4969296 ]
 [  1.           6.83798229]
 [  1.09391667  65.10535749]]","[[0.         0.91537893]
 [0.1        1.07736676]
 [0.2        1.00419914]
 [0.3        1.03753512]
 [0.4        0.37720192]
 [0.5        1.44514108]
 [0.6        1.5314543 ]
 [0.7        1.0492436 ]
 [0.8        0.46166861]
 [0.9        1.40405736]
 [1.         1.0046827 ]
 [1.09391667 0.03299625]]",1,0.415
8729829169,f,18,french,3,5,french,2024-01-25 10:34:02.479147,False,2,277,sounds\english\audio/english_161.wav,"[[  0.           0.2450503 ]
 [  0.1         41.86400045]
 [  0.2          3.22348346]
 [  0.3        -24.29894103]
 [  0.4         66.4308336 ]
 [  0.5        -79.52202924]
 [  0.6         -4.00284897]
 [  0.7        -82.69040612]
 [  0.8         32.14289288]
 [  0.9        -94.27188699]
 [  1.         -14.10162234]
 [  1.09391667  27.39748728]]","[[0.         0.47001228]
 [0.1        1.24375119]
 [0.2        0.98802588]
 [0.3        1.92952194]
 [0.4        0.84385332]
 [0.5        0.34569188]
 [0.6        1.46988057]
 [0.7        0.94597317]
 [0.8        0.70955806]
 [0.9        1.39207721]
 [1.         0.79549611]
 [1.09391667 1.7090018 ]]",0,1.232
8729829169,f,18,french,3,5,french,2024-01-25 10:34:02.479147,False,2,278,sounds\english\audio/english_813.wav,"[[  0.         -21.47810291]
 [  0.1        -84.13417806]
 [  0.2        -18.57483833]
 [  0.3         85.46223106]
 [  0.4        -47.12255135]
 [  0.5         55.13909294]
 [  0.6        -92.27868598]
 [  0.7        -98.65237277]
 [  0.8        -73.59665384]
 [  0.9         99.75598896]
 [  1.          22.46235737]
 [  1.09391667 -23.97281603]]","[[0.         0.42494113]
 [0.1        0.85563352]
 [0.2        1.62435889]
 [0.3        1.84520067]
 [0.4        0.16630065]
 [0.5        1.66622477]
 [0.6        1.29440347]
 [0.7        1.30366   ]
 [0.8        0.95942882]
 [0.9        0.41648042]
 [1.         0.55260475]
 [1.09391667 0.8655965 ]]",0,0.913
8729829169,f,18,french,3,5,french,2024-01-25 10:34:02.479147,False,2,279,sounds\english\audio/english_131.wav,"[[  0.           0.31363537]
 [  0.1         36.71486201]
 [  0.2        -43.77123754]
 [  0.3        -25.02514695]
 [  0.4        -57.33579205]
 [  0.5        -86.86546268]
 [  0.6         34.68309006]
 [  0.7        -54.571254  ]
 [  0.8         15.2602828 ]
 [  0.9         37.40968803]
 [  1.         -75.44923375]
 [  1.09391667  22.36121129]]","[[0.         1.18724551]
 [0.1        1.11707061]
 [0.2        0.00275246]
 [0.3        1.15512468]
 [0.4        1.12677457]
 [0.5        1.05779514]
 [0.6        1.76361287]
 [0.7        1.49422438]
 [0.8        0.77084465]
 [0.9        0.77617306]
 [1.         0.87602882]
 [1.09391667 1.56580011]]",0,0.579
8729829169,f,18,french,3,5,french,2024-01-25 10:34:02.479147,False,2,280,sounds\english\audio/english_383.wav,"[[  0.         -63.19284146]
 [  0.1        -11.67623943]
 [  0.2         10.29419774]
 [  0.3         -5.52009964]
 [  0.4         51.48969715]
 [  0.5         36.94617894]
 [  0.6        -43.5176619 ]
 [  0.7         48.24470616]
 [  0.8        -27.34462671]
 [  0.9         77.23299658]
 [  1.         -26.93588993]
 [  1.09391667 -78.64800704]]","[[0.         0.88359619]
 [0.1        0.67885576]
 [0.2        0.79033279]
 [0.3        1.96206588]
 [0.4        1.53913599]
 [0.5        0.70890723]
 [0.6        1.30448928]
 [0.7        0.63214347]
 [0.8        1.26781992]
 [0.9        0.08660782]
 [1.         1.53722143]
 [1.09391667 1.42646009]]",0,0.569
8729829169,f,18,french,3,5,french,2024-01-25 10:34:02.479147,False,2,281,sounds\english\audio/english_388.wav,"[[  0.         -41.72152619]
 [  0.1         16.10845718]
 [  0.2         56.96293644]
 [  0.3        -95.24889342]
 [  0.4        -92.06058204]
 [  0.5        -66.79451415]
 [  0.6         31.29945158]
 [  0.7         52.76870029]
 [  0.8        -83.90415266]
 [  0.9         16.41554992]
 [  1.          44.20651848]
 [  1.09391667 -53.31309565]]","[[0.         1.04150919]
 [0.1        1.44420011]
 [0.2        1.65872581]
 [0.3        1.66380946]
 [0.4        1.25967223]
 [0.5        1.01005139]
 [0.6        0.59386887]
 [0.7        1.783647  ]
 [0.8        0.30560863]
 [0.9        0.09885056]
 [1.         0.45485887]
 [1.09391667 1.06517725]]",1,0.913
8729829169,f,18,french,3,5,french,2024-01-25 10:34:02.479147,False,2,282,sounds\english\audio/english_180.wav,"[[  0.          42.85478744]
 [  0.1         11.60642133]
 [  0.2        -27.38772625]
 [  0.3         80.41560742]
 [  0.4        -67.11843031]
 [  0.5         25.47679572]
 [  0.6         29.48556379]
 [  0.7        -62.53851543]
 [  0.8        -49.48041885]
 [  0.9         29.80835172]
 [  1.          83.85336689]
 [  1.09391667 -22.17498974]]","[[0.         0.49645543]
 [0.1        1.40377655]
 [0.2        0.70453688]
 [0.3        1.01697082]
 [0.4        0.59692665]
 [0.5        0.43242047]
 [0.6        0.65503898]
 [0.7        1.14916488]
 [0.8        0.12826618]
 [0.9        1.82068044]
 [1.         1.93281092]
 [1.09391667 1.38105191]]",0,0.524
8729829169,f,18,french,3,5,french,2024-01-25 10:34:02.479147,False,2,283,sounds\english\audio/english_988.wav,"[[  0.          41.01121176]
 [  0.1        -57.00509923]
 [  0.2        -47.7423933 ]
 [  0.3        -45.09224268]
 [  0.4        -86.23747248]
 [  0.5         32.23270896]
 [  0.6         83.03664367]
 [  0.7         23.13228138]
 [  0.8        -80.96876175]
 [  0.9         85.87163391]
 [  1.          65.98257536]
 [  1.09391667   8.92791605]]","[[0.         1.79508408]
 [0.1        0.91683768]
 [0.2        0.75632301]
 [0.3        0.50123111]
 [0.4        1.43218642]
 [0.5        1.02417726]
 [0.6        0.26646991]
 [0.7        0.55372386]
 [0.8        1.25427564]
 [0.9        1.46901823]
 [1.         1.62105321]
 [1.09391667 1.15707193]]",0,0.427
8729829169,f,18,french,3,5,french,2024-01-25 10:34:02.479147,False,2,284,sounds\english\audio/english_780.wav,"[[  0.         -87.5022813 ]
 [  0.1         48.02010378]
 [  0.2         83.84572734]
 [  0.3          9.25847543]
 [  0.4         49.97347861]
 [  0.5        -60.69242488]
 [  0.6        -21.82497806]
 [  0.7         13.87798501]
 [  0.8         32.41479889]
 [  0.9         54.1006632 ]
 [  1.         -56.48325956]
 [  1.09391667  96.27244158]]","[[0.         1.98466869]
 [0.1        1.54311759]
 [0.2        0.61016867]
 [0.3        1.29361746]
 [0.4        0.77747475]
 [0.5        1.18422754]
 [0.6        0.82850866]
 [0.7        0.60760734]
 [0.8        0.87727466]
 [0.9        1.39371886]
 [1.         1.23252422]
 [1.09391667 0.39725777]]",0,0.734
8729829169,f,18,french,3,5,french,2024-01-25 10:34:02.479147,False,2,285,sounds\english\audio/english_341.wav,"[[  0.          84.90072142]
 [  0.1        -41.07989328]
 [  0.2         26.53456805]
 [  0.3         48.49138907]
 [  0.4         86.79887094]
 [  0.5        -87.48501221]
 [  0.6         83.61398115]
 [  0.7        -67.9208707 ]
 [  0.8         65.07099719]
 [  0.9        -55.2468851 ]
 [  1.          49.35589772]
 [  1.09391667 -44.5684473 ]]","[[0.         0.12314254]
 [0.1        1.47173023]
 [0.2        0.93931176]
 [0.3        1.34001736]
 [0.4        1.64463799]
 [0.5        0.04293941]
 [0.6        1.19650865]
 [0.7        1.38443351]
 [0.8        0.78972481]
 [0.9        0.37997082]
 [1.         1.80858647]
 [1.09391667 0.47955849]]",0,0.876
8729829169,f,18,french,3,5,french,2024-01-25 10:34:02.479147,False,2,286,sounds\english\audio/english_469.wav,"[[  0.         -33.27051151]
 [  0.1        -94.55728016]
 [  0.2        -24.34554111]
 [  0.3         16.33493977]
 [  0.4        -66.14325269]
 [  0.5         -2.40335162]
 [  0.6        -87.80607373]
 [  0.7         34.04653441]
 [  0.8         53.31501889]
 [  0.9        -70.89291525]
 [  1.          35.01344624]
 [  1.09391667  15.03691984]]","[[0.         1.91972156]
 [0.1        0.89758894]
 [0.2        0.14767308]
 [0.3        0.88925412]
 [0.4        0.02970636]
 [0.5        0.16070031]
 [0.6        0.0970541 ]
 [0.7        1.25032873]
 [0.8        1.92087852]
 [0.9        0.56083362]
 [1.         0.78804248]
 [1.09391667 0.71632164]]",1,0.348
8729829169,f,18,french,3,5,french,2024-01-25 10:34:02.479147,False,2,287,sounds\english\audio/english_748.wav,"[[  0.         -33.83596368]
 [  0.1        -59.15381013]
 [  0.2        -64.86299243]
 [  0.3        -73.6430977 ]
 [  0.4        -91.05214173]
 [  0.5        -45.40797518]
 [  0.6         13.66964743]
 [  0.7         95.37065991]
 [  0.8         26.41264332]
 [  0.9         48.24832417]
 [  1.          52.4867675 ]
 [  1.09391667 -11.31996214]]","[[0.         1.91287282]
 [0.1        1.28041444]
 [0.2        0.04095899]
 [0.3        0.41914446]
 [0.4        1.08223978]
 [0.5        0.2529754 ]
 [0.6        1.11197698]
 [0.7        0.98751557]
 [0.8        0.20616642]
 [0.9        0.07234113]
 [1.         0.75683712]
 [1.09391667 0.73246581]]",1,0.307
8729829169,f,18,french,3,5,french,2024-01-25 10:34:02.479147,False,2,288,sounds\english\audio/english_23.wav,"[[  0.         -81.37820874]
 [  0.1         78.5335862 ]
 [  0.2          2.49490295]
 [  0.3        -86.79579175]
 [  0.4         67.70163639]
 [  0.5         15.95354821]
 [  0.6         39.96363373]
 [  0.7         26.12658962]
 [  0.8        -97.91039736]
 [  0.9        -31.02807756]
 [  1.         -20.21947661]
 [  1.09391667 -62.16065677]]","[[0.         0.766267  ]
 [0.1        0.99963617]
 [0.2        0.86356333]
 [0.3        1.2935249 ]
 [0.4        1.06200742]
 [0.5        0.35652914]
 [0.6        0.94623028]
 [0.7        1.75391992]
 [0.8        0.51382587]
 [0.9        0.42089134]
 [1.         0.35251111]
 [1.09391667 0.28724109]]",1,1.112
8729829169,f,18,french,3,5,french,2024-01-25 10:34:02.479147,False,2,289,sounds\english\audio/english_327.wav,"[[  0.          68.47046609]
 [  0.1         85.76832326]
 [  0.2        -75.98339762]
 [  0.3         74.12796235]
 [  0.4         11.46376172]
 [  0.5         -5.50560149]
 [  0.6         27.1504605 ]
 [  0.7         27.2911911 ]
 [  0.8        -20.36547399]
 [  0.9        -51.25849452]
 [  1.          79.11844333]
 [  1.09391667 -53.98607147]]","[[0.         1.54763433]
 [0.1        1.83635771]
 [0.2        0.3050113 ]
 [0.3        0.70474203]
 [0.4        0.8224078 ]
 [0.5        0.00526041]
 [0.6        0.35213553]
 [0.7        1.7713752 ]
 [0.8        1.08380037]
 [0.9        0.55113913]
 [1.         0.59854608]
 [1.09391667 1.65860026]]",0,2.889
8729829169,f,18,french,3,5,french,2024-01-25 10:34:02.479147,False,2,290,sounds\english\audio/english_935.wav,"[[  0.         -66.017305  ]
 [  0.1        -96.46975552]
 [  0.2         41.01490818]
 [  0.3         -8.07360152]
 [  0.4         43.89693233]
 [  0.5        -91.80623652]
 [  0.6         20.19515947]
 [  0.7        -99.45471076]
 [  0.8         15.46433912]
 [  0.9         29.18172842]
 [  1.          64.82314597]
 [  1.09391667  43.21629408]]","[[0.         0.5568005 ]
 [0.1        0.64067821]
 [0.2        1.2239279 ]
 [0.3        1.1472743 ]
 [0.4        0.40023778]
 [0.5        1.34831364]
 [0.6        1.39566251]
 [0.7        0.66795844]
 [0.8        1.24993732]
 [0.9        0.82560858]
 [1.         1.15031979]
 [1.09391667 1.54604581]]",0,1.311
8729829169,f,18,french,3,5,french,2024-01-25 10:34:02.479147,False,2,291,sounds\english\audio/english_474.wav,"[[  0.          90.33187361]
 [  0.1         -6.84069755]
 [  0.2        -57.72482016]
 [  0.3        -31.39067157]
 [  0.4         81.36101502]
 [  0.5         86.28648359]
 [  0.6         59.24078698]
 [  0.7         83.65694144]
 [  0.8         -5.88526163]
 [  0.9         -0.83528638]
 [  1.          93.70431835]
 [  1.09391667  -9.99550439]]","[[0.         1.64439586]
 [0.1        1.97409516]
 [0.2        1.83394357]
 [0.3        1.91918891]
 [0.4        1.89552465]
 [0.5        1.60591709]
 [0.6        1.87570248]
 [0.7        0.05909507]
 [0.8        0.13266254]
 [0.9        1.2446593 ]
 [1.         0.47044402]
 [1.09391667 1.70719202]]",1,0.475
8729829169,f,18,french,3,5,french,2024-01-25 10:34:02.479147,False,2,292,sounds\english\audio/english_608.wav,"[[  0.          51.7664081 ]
 [  0.1        -80.54246428]
 [  0.2        -77.98130797]
 [  0.3         25.40612748]
 [  0.4        -25.13261416]
 [  0.5        -47.23330204]
 [  0.6         80.77508225]
 [  0.7        -91.19719701]
 [  0.8        -56.07696763]
 [  0.9        -57.98593589]
 [  1.          87.03595353]
 [  1.09391667 -36.96026424]]","[[0.         1.51537713]
 [0.1        0.15028224]
 [0.2        1.81254149]
 [0.3        1.88904665]
 [0.4        0.02307613]
 [0.5        1.59293411]
 [0.6        1.34709582]
 [0.7        0.43937258]
 [0.8        1.30698023]
 [0.9        1.72852212]
 [1.         1.13440146]
 [1.09391667 1.09789882]]",0,0.482
8729829169,f,18,french,3,5,french,2024-01-25 10:34:02.479147,False,2,293,sounds\english\audio/english_920.wav,"[[  0.          65.81399413]
 [  0.1        -82.84324878]
 [  0.2          3.48400674]
 [  0.3         11.91787155]
 [  0.4         94.18344361]
 [  0.5         -3.20307964]
 [  0.6         -5.45427873]
 [  0.7        -91.33620727]
 [  0.8        -75.27995354]
 [  0.9         80.14521989]
 [  1.         -98.13362657]
 [  1.09391667  84.6327673 ]]","[[0.         0.41821629]
 [0.1        1.28225934]
 [0.2        0.64893709]
 [0.3        1.7150145 ]
 [0.4        1.26439351]
 [0.5        0.72207135]
 [0.6        1.12610333]
 [0.7        1.28690966]
 [0.8        1.277223  ]
 [0.9        0.31232678]
 [1.         1.28835438]
 [1.09391667 0.1215282 ]]",1,0.809
8729829169,f,18,french,3,5,french,2024-01-25 10:34:02.479147,False,2,294,sounds\english\audio/english_699.wav,"[[  0.         -10.64404417]
 [  0.1        -35.40818129]
 [  0.2         83.59292759]
 [  0.3        -40.30907773]
 [  0.4        -61.47705422]
 [  0.5         73.77462927]
 [  0.6        -33.57926845]
 [  0.7          4.64440908]
 [  0.8        -17.22893219]
 [  0.9          7.65230973]
 [  1.          91.77034013]
 [  1.09391667  29.53486649]]","[[0.         0.39733036]
 [0.1        1.17761209]
 [0.2        0.75132377]
 [0.3        0.9903314 ]
 [0.4        1.4462142 ]
 [0.5        1.48079401]
 [0.6        1.0256948 ]
 [0.7        1.03411727]
 [0.8        1.52402725]
 [0.9        0.08305717]
 [1.         1.30692687]
 [1.09391667 1.30233828]]",1,0.604
8729829169,f,18,french,3,5,french,2024-01-25 10:34:02.479147,False,2,295,sounds\english\audio/english_216.wav,"[[  0.         -40.27379603]
 [  0.1         -9.47472605]
 [  0.2         10.83044308]
 [  0.3        -73.80571365]
 [  0.4         41.89217051]
 [  0.5        -33.36366466]
 [  0.6        -97.24072999]
 [  0.7         -3.36916359]
 [  0.8         -1.27566838]
 [  0.9         29.4346129 ]
 [  1.          96.31719875]
 [  1.09391667  90.69441865]]","[[0.         1.31885312]
 [0.1        1.52413536]
 [0.2        0.3375517 ]
 [0.3        0.67857864]
 [0.4        0.9344087 ]
 [0.5        0.89775046]
 [0.6        0.74652634]
 [0.7        0.00621512]
 [0.8        0.72729094]
 [0.9        1.23180128]
 [1.         0.44193416]
 [1.09391667 0.08230135]]",0,1.443
8729829169,f,18,french,3,5,french,2024-01-25 10:34:02.479147,False,2,296,sounds\english\audio/english_429.wav,"[[  0.          35.99149225]
 [  0.1        -74.15243919]
 [  0.2        -66.98958389]
 [  0.3        -17.85195751]
 [  0.4        -73.89259621]
 [  0.5         79.15421071]
 [  0.6        -46.04257139]
 [  0.7        -20.15951385]
 [  0.8        -88.88014071]
 [  0.9         85.9209564 ]
 [  1.         -45.56975308]
 [  1.09391667 -32.13799224]]","[[0.         1.15996834]
 [0.1        1.78612781]
 [0.2        1.07132938]
 [0.3        0.01687876]
 [0.4        0.18602523]
 [0.5        1.63202806]
 [0.6        0.71186645]
 [0.7        1.59705108]
 [0.8        0.92556725]
 [0.9        1.19440403]
 [1.         1.44802402]
 [1.09391667 1.37788661]]",0,0.742
8729829169,f,18,french,3,5,french,2024-01-25 10:34:02.479147,False,2,297,sounds\english\audio/english_429.wav,"[[  0.          35.99149225]
 [  0.1        -74.15243919]
 [  0.2        -66.98958389]
 [  0.3        -17.85195751]
 [  0.4        -73.89259621]
 [  0.5         79.15421071]
 [  0.6        -46.04257139]
 [  0.7        -20.15951385]
 [  0.8        -88.88014071]
 [  0.9         85.9209564 ]
 [  1.         -45.56975308]
 [  1.09391667 -32.13799224]]","[[0.         1.15996834]
 [0.1        1.78612781]
 [0.2        1.07132938]
 [0.3        0.01687876]
 [0.4        0.18602523]
 [0.5        1.63202806]
 [0.6        0.71186645]
 [0.7        1.59705108]
 [0.8        0.92556725]
 [0.9        1.19440403]
 [1.         1.44802402]
 [1.09391667 1.37788661]]",0,0.628
8729829169,f,18,french,3,5,french,2024-01-25 10:34:02.479147,False,2,298,sounds\english\audio/english_737.wav,"[[  0.          56.78568271]
 [  0.1        -38.71611428]
 [  0.2        -64.59845133]
 [  0.3          1.39086409]
 [  0.4         26.86370756]
 [  0.5        -27.73552672]
 [  0.6        -81.13907874]
 [  0.7         43.5553465 ]
 [  0.8        -20.1583688 ]
 [  0.9        -25.05937779]
 [  1.          27.91315488]
 [  1.09391667 -84.10219284]]","[[0.         0.30173789]
 [0.1        1.82600994]
 [0.2        0.49162542]
 [0.3        0.66978122]
 [0.4        1.86119765]
 [0.5        0.4187604 ]
 [0.6        0.96095639]
 [0.7        0.3936239 ]
 [0.8        0.49545956]
 [0.9        1.76958981]
 [1.         1.1243255 ]
 [1.09391667 1.22358717]]",1,0.172
8729829169,f,18,french,3,5,french,2024-01-25 10:34:02.479147,False,2,299,sounds\english\audio/english_432.wav,"[[  0.          28.49955807]
 [  0.1        -31.8275444 ]
 [  0.2         24.24217544]
 [  0.3        -66.09269444]
 [  0.4        -62.15798019]
 [  0.5        -49.72154406]
 [  0.6        -47.69762913]
 [  0.7         77.36626765]
 [  0.8          5.83013874]
 [  0.9         28.26329168]
 [  1.         -41.71680011]
 [  1.09391667  67.89473062]]","[[0.         0.25208372]
 [0.1        0.73448825]
 [0.2        0.75780001]
 [0.3        1.1180686 ]
 [0.4        1.06816696]
 [0.5        0.60613643]
 [0.6        0.58276722]
 [0.7        1.4653334 ]
 [0.8        1.3937813 ]
 [0.9        1.50157436]
 [1.         1.14185861]
 [1.09391667 1.59474316]]",0,0.265
8729829169,f,18,french,3,5,french,2024-01-25 10:34:02.479147,False,2,300,sounds\english\audio/english_107.wav,"[[  0.          14.75106281]
 [  0.1         61.55616618]
 [  0.2        -53.67988365]
 [  0.3        -26.40552644]
 [  0.4        -39.74978172]
 [  0.5         59.30152115]
 [  0.6         47.78500901]
 [  0.7        -56.28829924]
 [  0.8        -27.92998764]
 [  0.9        -79.09348068]
 [  1.         -12.41548757]
 [  1.09391667  52.16057728]]","[[0.         1.14538344]
 [0.1        1.63691709]
 [0.2        1.34954163]
 [0.3        0.87865188]
 [0.4        0.87105183]
 [0.5        0.97837698]
 [0.6        0.24331513]
 [0.7        1.31332622]
 [0.8        1.65018095]
 [0.9        0.9374591 ]
 [1.         1.20965119]
 [1.09391667 1.85980397]]",0,1.475
8729829169,f,18,french,3,5,french,2024-01-25 10:34:02.479147,False,2,301,sounds\english\audio/english_943.wav,"[[  0.          79.5890822 ]
 [  0.1         78.55264714]
 [  0.2         44.19658383]
 [  0.3        -16.14605168]
 [  0.4         46.84349784]
 [  0.5         67.29364224]
 [  0.6         62.75940247]
 [  0.7        -42.13911475]
 [  0.8        -19.02728939]
 [  0.9        -16.03900615]
 [  1.          15.22888591]
 [  1.09391667  60.70409514]]","[[0.         1.20824936]
 [0.1        0.88116928]
 [0.2        1.0423498 ]
 [0.3        1.30491636]
 [0.4        1.23781924]
 [0.5        1.19542323]
 [0.6        1.00041218]
 [0.7        1.18889719]
 [0.8        0.17654831]
 [0.9        0.65298118]
 [1.         0.96725626]
 [1.09391667 1.67455333]]",1,0.6
8729829169,f,18,french,3,5,french,2024-01-25 10:34:02.479147,False,2,302,sounds\english\audio/english_230.wav,"[[  0.          33.38389537]
 [  0.1        -34.15374901]
 [  0.2        -17.15972141]
 [  0.3         -8.06213265]
 [  0.4         10.20192226]
 [  0.5        -58.60843687]
 [  0.6         79.76687213]
 [  0.7        -68.85443864]
 [  0.8        -14.23970475]
 [  0.9        -88.80466565]
 [  1.         -64.76676699]
 [  1.09391667 -85.72124736]]","[[0.         1.56748289]
 [0.1        0.35840318]
 [0.2        0.69573927]
 [0.3        1.48062695]
 [0.4        1.80584749]
 [0.5        0.27713833]
 [0.6        0.54911174]
 [0.7        0.47648858]
 [0.8        1.61704234]
 [0.9        1.41921333]
 [1.         0.47778277]
 [1.09391667 0.86213517]]",0,0.784
8729829169,f,18,french,3,5,french,2024-01-25 10:34:02.479147,False,2,303,sounds\english\audio/english_723.wav,"[[  0.          41.38539941]
 [  0.1        -10.01095303]
 [  0.2         29.27272113]
 [  0.3        -49.7176535 ]
 [  0.4        -10.52042461]
 [  0.5        -43.11656662]
 [  0.6        -24.09481257]
 [  0.7         61.11286308]
 [  0.8        -37.09128746]
 [  0.9         71.58023837]
 [  1.          30.56657054]
 [  1.09391667  -5.36806636]]","[[0.         1.7889603 ]
 [0.1        0.1038592 ]
 [0.2        0.53110076]
 [0.3        0.29760974]
 [0.4        1.31106604]
 [0.5        0.93542765]
 [0.6        1.32967349]
 [0.7        1.11219452]
 [0.8        0.4392085 ]
 [0.9        1.93673799]
 [1.         0.01664343]
 [1.09391667 0.22848658]]",1,0.621
8729829169,f,18,french,3,5,french,2024-01-25 10:34:02.479147,False,2,304,sounds\english\audio/english_426.wav,"[[  0.         -67.17987083]
 [  0.1         70.02176421]
 [  0.2         82.2704811 ]
 [  0.3         -4.42560713]
 [  0.4        -22.03224373]
 [  0.5        -71.21536039]
 [  0.6         23.47193627]
 [  0.7        -95.21485964]
 [  0.8         76.54647   ]
 [  0.9         67.43828429]
 [  1.         -41.3478141 ]
 [  1.09391667  -8.81391429]]","[[0.         1.61589393]
 [0.1        1.03467422]
 [0.2        1.69488483]
 [0.3        0.26984678]
 [0.4        1.53427209]
 [0.5        1.44135847]
 [0.6        0.91698709]
 [0.7        0.33548871]
 [0.8        1.77334308]
 [0.9        1.62177199]
 [1.         0.29474728]
 [1.09391667 0.79627592]]",0,0.647
8729829169,f,18,french,3,5,french,2024-01-25 10:34:02.479147,False,2,305,sounds\english\audio/english_906.wav,"[[  0.          64.42168111]
 [  0.1        -75.32695158]
 [  0.2        -55.78357421]
 [  0.3         26.12850677]
 [  0.4         29.10012221]
 [  0.5          7.95357938]
 [  0.6        -42.71112843]
 [  0.7        -60.64092572]
 [  0.8        -45.42100425]
 [  0.9         59.9641991 ]
 [  1.          50.66532668]
 [  1.09391667 -51.29146387]]","[[0.         1.18257449]
 [0.1        0.45696721]
 [0.2        1.62263234]
 [0.3        0.83346952]
 [0.4        0.76465534]
 [0.5        1.66892635]
 [0.6        1.28815297]
 [0.7        1.91632775]
 [0.8        1.00822189]
 [0.9        0.39736855]
 [1.         0.09371369]
 [1.09391667 1.05932382]]",1,0.651
8729829169,f,18,french,3,5,french,2024-01-25 10:34:02.479147,False,2,306,sounds\english\audio/english_763.wav,"[[  0.          -3.64613535]
 [  0.1         86.84394447]
 [  0.2         48.90447279]
 [  0.3         81.52724945]
 [  0.4         38.37028175]
 [  0.5         -1.05640966]
 [  0.6         92.75218552]
 [  0.7         25.6384544 ]
 [  0.8         39.31857394]
 [  0.9        -39.8545052 ]
 [  1.         -46.14237673]
 [  1.09391667   4.92972848]]","[[0.         1.37294904]
 [0.1        1.4753173 ]
 [0.2        1.11933896]
 [0.3        0.74342717]
 [0.4        1.29789975]
 [0.5        0.71005602]
 [0.6        1.1127111 ]
 [0.7        0.88036435]
 [0.8        0.01207507]
 [0.9        1.55647861]
 [1.         1.32252767]
 [1.09391667 1.12126405]]",1,1.25
8729829169,f,18,french,3,5,french,2024-01-25 10:34:02.479147,False,2,307,sounds\english\audio/english_991.wav,"[[  0.          -1.1896089 ]
 [  0.1        -96.26402249]
 [  0.2         35.13230964]
 [  0.3         16.47291022]
 [  0.4        -88.97016612]
 [  0.5        -18.26917978]
 [  0.6        -86.44611587]
 [  0.7        -23.18394533]
 [  0.8        -34.88810698]
 [  0.9         58.2484142 ]
 [  1.          13.64122516]
 [  1.09391667 -13.61979163]]","[[0.         1.11058757]
 [0.1        0.1672209 ]
 [0.2        1.95155766]
 [0.3        0.04651437]
 [0.4        1.74859016]
 [0.5        1.4122656 ]
 [0.6        0.52281086]
 [0.7        1.29572944]
 [0.8        1.11115335]
 [0.9        1.29146841]
 [1.         1.37847477]
 [1.09391667 0.12249008]]",0,0.523
8729829169,f,18,french,3,5,french,2024-01-25 10:34:02.479147,False,2,308,sounds\english\audio/english_728.wav,"[[  0.          86.97428458]
 [  0.1         68.85214371]
 [  0.2        -97.98565906]
 [  0.3         35.07930547]
 [  0.4        -30.18374109]
 [  0.5        -82.66469876]
 [  0.6         23.39578652]
 [  0.7         26.21600665]
 [  0.8         40.56146868]
 [  0.9          8.84190716]
 [  1.          42.34962336]
 [  1.09391667 -32.07226286]]","[[0.         1.28134459]
 [0.1        0.92040862]
 [0.2        0.75536346]
 [0.3        1.26670058]
 [0.4        0.22005976]
 [0.5        1.42168107]
 [0.6        1.49957944]
 [0.7        0.84685957]
 [0.8        0.54890831]
 [0.9        1.06754414]
 [1.         0.96376908]
 [1.09391667 0.10029528]]",0,0.604
8729829169,f,18,french,3,5,french,2024-01-25 10:34:02.479147,False,2,309,sounds\english\audio/english_652.wav,"[[  0.          -6.47134423]
 [  0.1         15.08810971]
 [  0.2         98.29631383]
 [  0.3         30.58339985]
 [  0.4         -6.30529528]
 [  0.5        -44.5601624 ]
 [  0.6          4.47931007]
 [  0.7        -52.28319513]
 [  0.8         17.6405793 ]
 [  0.9          2.7192508 ]
 [  1.          -8.76412426]
 [  1.09391667  53.37366327]]","[[0.         1.78340321]
 [0.1        1.37348527]
 [0.2        0.90438715]
 [0.3        0.90448146]
 [0.4        0.6194213 ]
 [0.5        1.03986034]
 [0.6        0.52762796]
 [0.7        0.92865907]
 [0.8        1.28477406]
 [0.9        1.34724363]
 [1.         1.76490877]
 [1.09391667 1.20575877]]",0,0.289
8729829169,f,18,french,3,5,french,2024-01-25 10:34:02.479147,False,2,310,sounds\english\audio/english_998.wav,"[[  0.         -83.67346728]
 [  0.1        -68.43297462]
 [  0.2         47.84560439]
 [  0.3         71.43971258]
 [  0.4        -30.40941836]
 [  0.5         69.31214212]
 [  0.6        -95.04564508]
 [  0.7        -61.88405175]
 [  0.8         11.43915949]
 [  0.9         79.6365109 ]
 [  1.          58.29305302]
 [  1.09391667  44.0288717 ]]","[[0.         1.27391906]
 [0.1        0.75913393]
 [0.2        1.02363825]
 [0.3        1.78775676]
 [0.4        0.0961221 ]
 [0.5        1.18933693]
 [0.6        1.9379163 ]
 [0.7        1.91389769]
 [0.8        1.08895614]
 [0.9        1.52042952]
 [1.         0.38016323]
 [1.09391667 1.77799574]]",0,0.353
8729829169,f,18,french,3,5,french,2024-01-25 10:34:02.479147,False,2,311,sounds\english\audio/english_279.wav,"[[  0.         -36.23762281]
 [  0.1        -35.59764132]
 [  0.2        -13.82808191]
 [  0.3         66.93896188]
 [  0.4         44.18525499]
 [  0.5         77.32475473]
 [  0.6         48.96526153]
 [  0.7        -92.8605498 ]
 [  0.8        -72.65791469]
 [  0.9        -40.93814374]
 [  1.          53.10101084]
 [  1.09391667 -12.52992697]]","[[0.         1.55188156]
 [0.1        1.09158025]
 [0.2        1.04107002]
 [0.3        1.2362444 ]
 [0.4        0.95842363]
 [0.5        1.88195108]
 [0.6        0.79599844]
 [0.7        1.52048921]
 [0.8        0.72907645]
 [0.9        0.85560625]
 [1.         1.78550088]
 [1.09391667 0.47871606]]",0,0.893
8729829169,f,18,french,3,5,french,2024-01-25 10:34:02.479147,False,2,312,sounds\english\audio/english_219.wav,"[[  0.         -71.22269302]
 [  0.1         81.0106601 ]
 [  0.2         57.89841848]
 [  0.3        -20.90242642]
 [  0.4        -14.30711836]
 [  0.5        -91.16050531]
 [  0.6        -51.25509361]
 [  0.7        -32.58617714]
 [  0.8         -1.65304819]
 [  0.9        -46.25752807]
 [  1.         -57.14980858]
 [  1.09391667  -0.56518547]]","[[0.         0.64229707]
 [0.1        0.83761643]
 [0.2        0.27469413]
 [0.3        1.66128254]
 [0.4        1.11706047]
 [0.5        0.71185951]
 [0.6        0.78321207]
 [0.7        1.3379864 ]
 [0.8        1.4411775 ]
 [0.9        1.25595477]
 [1.         0.30425647]
 [1.09391667 1.82291256]]",0,0.525
8729829169,f,18,french,3,5,french,2024-01-25 10:34:02.479147,False,2,313,sounds\english\audio/english_111.wav,"[[  0.          -7.89423459]
 [  0.1        -50.39853442]
 [  0.2         85.22773015]
 [  0.3         -7.88513069]
 [  0.4        -36.68324303]
 [  0.5         -4.8649615 ]
 [  0.6        -92.19494919]
 [  0.7         -6.11032283]
 [  0.8         41.34470973]
 [  0.9        -73.07088632]
 [  1.          50.36502587]
 [  1.09391667 -49.90215361]]","[[0.         1.73172447]
 [0.1        1.30536321]
 [0.2        0.28962065]
 [0.3        1.6166787 ]
 [0.4        0.55677008]
 [0.5        1.31756148]
 [0.6        1.4789538 ]
 [0.7        0.53950686]
 [0.8        0.89868821]
 [0.9        0.90401257]
 [1.         0.61580764]
 [1.09391667 1.87610476]]",0,1.219
8729829169,f,18,french,3,5,french,2024-01-25 10:34:02.479147,False,2,314,sounds\english\audio/english_719.wav,"[[  0.         -74.07322153]
 [  0.1         35.75598847]
 [  0.2         82.97271333]
 [  0.3         17.0497448 ]
 [  0.4         25.23097934]
 [  0.5          4.16668302]
 [  0.6        -83.53078486]
 [  0.7        -81.53905497]
 [  0.8         32.10709268]
 [  0.9          9.14404491]
 [  1.          56.09727313]
 [  1.09391667 -90.02311852]]","[[0.         0.85431966]
 [0.1        1.01181763]
 [0.2        0.92312945]
 [0.3        0.56497759]
 [0.4        0.45096397]
 [0.5        1.21193737]
 [0.6        0.96594203]
 [0.7        0.58708741]
 [0.8        1.06053437]
 [0.9        1.09641521]
 [1.         1.58822768]
 [1.09391667 0.88380828]]",0,0.934
8729829169,f,18,french,3,5,french,2024-01-25 10:34:02.479147,False,2,315,sounds\english\audio/english_90.wav,"[[  0.          63.54924995]
 [  0.1        -59.21327506]
 [  0.2         34.58495613]
 [  0.3          3.2427236 ]
 [  0.4          1.17936493]
 [  0.5         50.51297544]
 [  0.6         61.04656064]
 [  0.7        -96.36424089]
 [  0.8          9.94738881]
 [  0.9        -95.56108651]
 [  1.         -78.91453265]
 [  1.09391667  57.06664979]]","[[0.         1.34228215]
 [0.1        1.34732724]
 [0.2        1.75147993]
 [0.3        0.03089284]
 [0.4        1.52341973]
 [0.5        0.97925583]
 [0.6        1.17642538]
 [0.7        1.13367306]
 [0.8        1.45431282]
 [0.9        0.56738547]
 [1.         1.10123663]
 [1.09391667 0.76686745]]",1,0.36
8729829169,f,18,french,3,5,french,2024-01-25 10:34:02.479147,False,2,316,sounds\english\audio/english_526.wav,"[[  0.           8.34861985]
 [  0.1          4.68771873]
 [  0.2         53.60731048]
 [  0.3         59.31550311]
 [  0.4         72.50237706]
 [  0.5         35.8849844 ]
 [  0.6         74.11215821]
 [  0.7         55.59683057]
 [  0.8        -27.47924079]
 [  0.9          6.32801867]
 [  1.          17.73622103]
 [  1.09391667  57.44538819]]","[[0.00000000e+00 8.18467978e-01]
 [1.00000000e-01 1.47842566e+00]
 [2.00000000e-01 1.29193120e+00]
 [3.00000000e-01 3.67292410e-06]
 [4.00000000e-01 1.30202935e+00]
 [5.00000000e-01 4.36504023e-01]
 [6.00000000e-01 1.72509944e+00]
 [7.00000000e-01 5.55064149e-01]
 [8.00000000e-01 3.22124551e-01]
 [9.00000000e-01 2.03468589e-01]
 [1.00000000e+00 8.14562372e-01]
 [1.09391667e+00 1.24257204e+00]]",1,1.863
8729829169,f,18,french,3,5,french,2024-01-25 10:34:02.479147,False,2,317,sounds\english\audio/english_704.wav,"[[  0.         -66.86347245]
 [  0.1        -33.45070856]
 [  0.2         98.95748792]
 [  0.3         40.39124026]
 [  0.4         76.62361043]
 [  0.5         61.00109246]
 [  0.6         24.61875858]
 [  0.7         32.51289689]
 [  0.8         93.51972076]
 [  0.9         43.30633586]
 [  1.           5.62352462]
 [  1.09391667  87.81172513]]","[[0.         1.10852805]
 [0.1        1.50534643]
 [0.2        1.36402955]
 [0.3        1.09402875]
 [0.4        0.97410313]
 [0.5        1.19276443]
 [0.6        0.71178311]
 [0.7        1.62027576]
 [0.8        1.01576623]
 [0.9        0.07371268]
 [1.         0.93560494]
 [1.09391667 0.13780059]]",1,0.637
8729829169,f,18,french,3,5,french,2024-01-25 10:34:02.479147,False,2,318,sounds\english\audio/english_554.wav,"[[  0.          68.06713434]
 [  0.1         51.53363243]
 [  0.2         96.79789275]
 [  0.3        -32.97805092]
 [  0.4         38.32175517]
 [  0.5        -48.79684279]
 [  0.6          6.57101052]
 [  0.7         30.34426539]
 [  0.8         57.10485473]
 [  0.9        -93.21826179]
 [  1.          58.97430912]
 [  1.09391667  32.65345188]]","[[0.         1.26196428]
 [0.1        1.49608983]
 [0.2        1.01925431]
 [0.3        1.27259864]
 [0.4        0.99325409]
 [0.5        1.83296218]
 [0.6        1.99419824]
 [0.7        1.31395906]
 [0.8        1.83167901]
 [0.9        1.93422624]
 [1.         1.62256756]
 [1.09391667 0.90589094]]",0,0.184
8729829169,f,18,french,3,5,french,2024-01-25 10:34:02.479147,False,2,319,sounds\english\audio/english_21.wav,"[[  0.         -92.93238975]
 [  0.1         28.88119071]
 [  0.2         26.75659422]
 [  0.3         84.25033289]
 [  0.4        -63.52476529]
 [  0.5         17.24927989]
 [  0.6         51.24429763]
 [  0.7        -49.66599845]
 [  0.8         63.10207102]
 [  0.9         10.69932434]
 [  1.          77.88197251]
 [  1.09391667 -71.28425317]]","[[0.         1.42780018]
 [0.1        1.12059603]
 [0.2        0.11228596]
 [0.3        1.44253616]
 [0.4        0.8833185 ]
 [0.5        1.19555363]
 [0.6        1.82378504]
 [0.7        0.34338191]
 [0.8        1.63020131]
 [0.9        0.5370763 ]
 [1.         1.08980212]
 [1.09391667 0.35221603]]",1,1.7
8729829169,f,18,french,3,5,french,2024-01-25 10:34:02.479147,False,2,320,sounds\english\audio/english_778.wav,"[[ 0.00000000e+00  8.20288253e+01]
 [ 1.00000000e-01 -2.03816384e+01]
 [ 2.00000000e-01  2.01187508e+01]
 [ 3.00000000e-01 -6.73840406e+01]
 [ 4.00000000e-01  4.17924950e+01]
 [ 5.00000000e-01  6.92908492e+01]
 [ 6.00000000e-01 -4.19809295e+01]
 [ 7.00000000e-01  9.30761369e+01]
 [ 8.00000000e-01  4.08814008e+00]
 [ 9.00000000e-01 -3.75531871e-02]
 [ 1.00000000e+00 -7.90647822e+01]
 [ 1.09391667e+00 -5.30664028e+01]]","[[0.         1.66099758]
 [0.1        0.6394452 ]
 [0.2        1.73198521]
 [0.3        1.63414449]
 [0.4        0.91528965]
 [0.5        1.84340145]
 [0.6        0.70098427]
 [0.7        1.59677801]
 [0.8        0.75626513]
 [0.9        1.05104073]
 [1.         0.42401001]
 [1.09391667 1.42241932]]",0,1.029
8729829169,f,18,french,3,5,french,2024-01-25 10:34:02.479147,False,2,321,sounds\english\audio/english_384.wav,"[[  0.          25.59746769]
 [  0.1         77.10112132]
 [  0.2        -44.89854527]
 [  0.3        -92.39491606]
 [  0.4         -7.21963548]
 [  0.5        -12.57418593]
 [  0.6        -91.58210139]
 [  0.7        -83.16364251]
 [  0.8        -99.35642135]
 [  0.9         39.42669245]
 [  1.           2.14731946]
 [  1.09391667 -81.26968126]]","[[0.         0.31530466]
 [0.1        1.4723663 ]
 [0.2        0.76042634]
 [0.3        1.26765442]
 [0.4        0.4561299 ]
 [0.5        0.66006902]
 [0.6        0.52858229]
 [0.7        0.95307861]
 [0.8        1.25910316]
 [0.9        1.31614459]
 [1.         0.23757066]
 [1.09391667 1.34705459]]",0,1.599
8729829169,f,18,french,3,5,french,2024-01-25 10:34:02.479147,False,2,322,sounds\english\audio/english_207.wav,"[[  0.         -47.42878523]
 [  0.1        -30.16645038]
 [  0.2        -86.67371718]
 [  0.3          8.55547349]
 [  0.4        -15.66190927]
 [  0.5        -49.49878386]
 [  0.6         45.53550585]
 [  0.7         40.09709087]
 [  0.8         68.69768753]
 [  0.9        -80.58352636]
 [  1.          11.66542456]
 [  1.09391667  21.41487197]]","[[0.         1.11335627]
 [0.1        1.13740889]
 [0.2        0.31622189]
 [0.3        1.41776127]
 [0.4        0.46326981]
 [0.5        1.61561224]
 [0.6        1.82492297]
 [0.7        1.16604802]
 [0.8        1.08414078]
 [0.9        0.66393703]
 [1.         0.81001911]
 [1.09391667 1.28611979]]",1,0.364
8729829169,f,18,french,3,5,french,2024-01-25 10:34:02.479147,False,2,323,sounds\english\audio/english_551.wav,"[[  0.          -6.7580407 ]
 [  0.1         35.07051515]
 [  0.2        -13.38429881]
 [  0.3         37.09878084]
 [  0.4        -63.7004989 ]
 [  0.5         38.07544061]
 [  0.6         -3.84658335]
 [  0.7        -70.82168474]
 [  0.8         15.89042936]
 [  0.9         11.36542465]
 [  1.          48.05239425]
 [  1.09391667 -25.45868434]]","[[0.         1.36908338]
 [0.1        1.9104602 ]
 [0.2        0.46910503]
 [0.3        1.97066888]
 [0.4        1.03915964]
 [0.5        0.03518646]
 [0.6        0.35806175]
 [0.7        1.2923355 ]
 [0.8        0.94769204]
 [0.9        1.13768641]
 [1.         1.46377274]
 [1.09391667 1.28141809]]",1,0.235
8729829169,f,18,french,3,5,french,2024-01-25 10:34:02.479147,False,2,324,sounds\english\audio/english_658.wav,"[[  0.          28.12480694]
 [  0.1         17.57040955]
 [  0.2         57.56255577]
 [  0.3         -3.0966162 ]
 [  0.4          6.39522781]
 [  0.5         16.02438064]
 [  0.6         -1.20192687]
 [  0.7         -8.08463242]
 [  0.8        -12.30429445]
 [  0.9         -0.5409395 ]
 [  1.          25.97570406]
 [  1.09391667  75.76475536]]","[[0.         0.12118838]
 [0.1        1.52191588]
 [0.2        1.14331833]
 [0.3        0.60390633]
 [0.4        0.27160458]
 [0.5        0.17957329]
 [0.6        0.27771517]
 [0.7        0.60605354]
 [0.8        1.71812783]
 [0.9        0.55654772]
 [1.         1.53064605]
 [1.09391667 1.32831885]]",1,1.663
8729829169,f,18,french,3,5,french,2024-01-25 10:34:02.479147,False,2,325,sounds\english\audio/english_340.wav,"[[  0.          19.74255444]
 [  0.1         25.16855735]
 [  0.2        -45.10982673]
 [  0.3        -94.4237425 ]
 [  0.4         33.61318105]
 [  0.5        -32.11968845]
 [  0.6        -73.96198045]
 [  0.7        -70.65108678]
 [  0.8        -16.68054018]
 [  0.9         17.74464594]
 [  1.         -17.13563894]
 [  1.09391667  85.44426077]]","[[0.         0.3319767 ]
 [0.1        0.61048523]
 [0.2        0.21275179]
 [0.3        0.29825912]
 [0.4        0.68673966]
 [0.5        0.56528685]
 [0.6        1.1523669 ]
 [0.7        1.56179354]
 [0.8        0.7478511 ]
 [0.9        1.06303665]
 [1.         1.69470448]
 [1.09391667 1.53904315]]",1,2.095
8729829169,f,18,french,3,5,french,2024-01-25 10:34:02.479147,False,2,326,sounds\english\audio/english_152.wav,"[[  0.         -10.34550429]
 [  0.1        -43.66558153]
 [  0.2         56.2217474 ]
 [  0.3        -27.44048298]
 [  0.4         17.92439762]
 [  0.5         82.51468432]
 [  0.6          8.54715681]
 [  0.7        -94.9804546 ]
 [  0.8         43.42849193]
 [  0.9          1.5194414 ]
 [  1.          20.77451489]
 [  1.09391667  95.7342738 ]]","[[0.         1.84986994]
 [0.1        0.90615496]
 [0.2        0.59286193]
 [0.3        0.85505555]
 [0.4        0.56649727]
 [0.5        0.6043893 ]
 [0.6        1.72413787]
 [0.7        0.10144569]
 [0.8        1.50321153]
 [0.9        0.78421076]
 [1.         1.65129885]
 [1.09391667 1.8248214 ]]",0,0.545
8729829169,f,18,french,3,5,french,2024-01-25 10:34:02.479147,False,2,327,sounds\english\audio/english_521.wav,"[[  0.           5.37787975]
 [  0.1          9.32249591]
 [  0.2          4.19745407]
 [  0.3        -75.18613478]
 [  0.4         87.02780947]
 [  0.5        -73.26225675]
 [  0.6         66.15406762]
 [  0.7         -9.80579818]
 [  0.8         17.20812603]
 [  0.9         21.88979452]
 [  1.         -69.39969828]
 [  1.09391667 -64.03153918]]","[[0.         1.11621025]
 [0.1        0.69917502]
 [0.2        0.1199413 ]
 [0.3        1.762579  ]
 [0.4        1.43452798]
 [0.5        0.23094002]
 [0.6        1.51181612]
 [0.7        1.4155143 ]
 [0.8        1.82718341]
 [0.9        1.93759588]
 [1.         1.70606784]
 [1.09391667 0.09885652]]",0,0.526
8729829169,f,18,french,3,5,french,2024-01-25 10:34:02.479147,False,2,328,sounds\english\audio/english_822.wav,"[[  0.         -57.24532264]
 [  0.1         -0.6561153 ]
 [  0.2         20.41316559]
 [  0.3         41.70802905]
 [  0.4        -77.9443686 ]
 [  0.5         63.06825284]
 [  0.6        -26.82945761]
 [  0.7        -92.61277401]
 [  0.8        -55.75237854]
 [  0.9        -53.36958595]
 [  1.          65.67162204]
 [  1.09391667  97.68319671]]","[[0.         1.07162112]
 [0.1        1.88043926]
 [0.2        0.90199971]
 [0.3        0.26893632]
 [0.4        1.26571685]
 [0.5        1.37105199]
 [0.6        1.3296767 ]
 [0.7        1.89258001]
 [0.8        1.15705119]
 [0.9        0.11001008]
 [1.         0.72053282]
 [1.09391667 1.63006682]]",1,0.582
8729829169,f,18,french,3,5,french,2024-01-25 10:34:02.479147,False,2,329,sounds\english\audio/english_738.wav,"[[  0.          40.29848329]
 [  0.1         66.12105636]
 [  0.2        -12.57692477]
 [  0.3        -81.4028628 ]
 [  0.4         83.16146046]
 [  0.5         59.80662428]
 [  0.6         40.28369402]
 [  0.7         70.16502192]
 [  0.8         33.24952129]
 [  0.9        -77.78198323]
 [  1.           6.29614131]
 [  1.09391667  60.18727711]]","[[0.         1.14824707]
 [0.1        1.60387601]
 [0.2        1.084542  ]
 [0.3        1.81856642]
 [0.4        1.62922567]
 [0.5        0.86427283]
 [0.6        0.1736944 ]
 [0.7        0.66918612]
 [0.8        1.29313609]
 [0.9        0.37962966]
 [1.         0.80178577]
 [1.09391667 0.93492505]]",1,1.639
8729829169,f,18,french,3,5,french,2024-01-25 10:34:02.479147,False,2,330,sounds\english\audio/english_603.wav,"[[  0.         -92.82127988]
 [  0.1        -10.8879853 ]
 [  0.2         87.07339117]
 [  0.3         94.16233181]
 [  0.4         41.70993127]
 [  0.5         -9.49662532]
 [  0.6          0.93436069]
 [  0.7        -31.16965002]
 [  0.8         22.515306  ]
 [  0.9         39.07324   ]
 [  1.         -34.19262646]
 [  1.09391667   7.30050377]]","[[0.         0.46202599]
 [0.1        0.04069155]
 [0.2        0.53206278]
 [0.3        1.44505889]
 [0.4        1.73804989]
 [0.5        0.79060569]
 [0.6        1.79017292]
 [0.7        1.60375186]
 [0.8        1.61763715]
 [0.9        1.44528026]
 [1.         0.82648617]
 [1.09391667 1.94101738]]",0,0.646
8729829169,f,18,french,3,5,french,2024-01-25 10:34:02.479147,False,2,331,sounds\english\audio/english_528.wav,"[[  0.          89.92931817]
 [  0.1         69.43761356]
 [  0.2        -74.63581074]
 [  0.3         66.94799646]
 [  0.4         93.4667874 ]
 [  0.5        -73.58583841]
 [  0.6         60.58074805]
 [  0.7        -19.51561534]
 [  0.8          1.50674214]
 [  0.9         -4.69145727]
 [  1.         -90.65001005]
 [  1.09391667  80.40130965]]","[[0.         1.55464654]
 [0.1        1.5693867 ]
 [0.2        0.24579909]
 [0.3        0.89003704]
 [0.4        0.02709789]
 [0.5        1.93159194]
 [0.6        1.21534299]
 [0.7        1.54968918]
 [0.8        1.22283315]
 [0.9        0.16463995]
 [1.         0.26004795]
 [1.09391667 0.00778095]]",1,1.204
8729829169,f,18,french,3,5,french,2024-01-25 10:34:02.479147,False,2,332,sounds\english\audio/english_429.wav,"[[  0.          35.99149225]
 [  0.1        -74.15243919]
 [  0.2        -66.98958389]
 [  0.3        -17.85195751]
 [  0.4        -73.89259621]
 [  0.5         79.15421071]
 [  0.6        -46.04257139]
 [  0.7        -20.15951385]
 [  0.8        -88.88014071]
 [  0.9         85.9209564 ]
 [  1.         -45.56975308]
 [  1.09391667 -32.13799224]]","[[0.         1.15996834]
 [0.1        1.78612781]
 [0.2        1.07132938]
 [0.3        0.01687876]
 [0.4        0.18602523]
 [0.5        1.63202806]
 [0.6        0.71186645]
 [0.7        1.59705108]
 [0.8        0.92556725]
 [0.9        1.19440403]
 [1.         1.44802402]
 [1.09391667 1.37788661]]",0,0.422
8729829169,f,18,french,3,5,french,2024-01-25 10:34:02.479147,False,2,333,sounds\english\audio/english_78.wav,"[[  0.          42.39797886]
 [  0.1        -36.07857938]
 [  0.2        -66.49689514]
 [  0.3         52.41013344]
 [  0.4         60.05478812]
 [  0.5         -4.62250103]
 [  0.6        -80.28349147]
 [  0.7         83.57222547]
 [  0.8          7.4922518 ]
 [  0.9        -18.57317231]
 [  1.         -60.66079691]
 [  1.09391667  37.22949989]]","[[0.         1.50616235]
 [0.1        0.54303847]
 [0.2        0.95347503]
 [0.3        1.62003629]
 [0.4        1.61647939]
 [0.5        0.17410512]
 [0.6        0.43268803]
 [0.7        0.08104601]
 [0.8        1.61489209]
 [0.9        0.08012208]
 [1.         0.76901301]
 [1.09391667 1.86046092]]",1,1.413
8729829169,f,18,french,3,5,french,2024-01-25 10:34:02.479147,False,2,334,sounds\english\audio/english_538.wav,"[[  0.          10.61627961]
 [  0.1         -8.0929012 ]
 [  0.2          4.29598946]
 [  0.3        -22.12858968]
 [  0.4        -56.21885188]
 [  0.5         21.93376584]
 [  0.6        -68.32489038]
 [  0.7        -66.29674784]
 [  0.8        -74.72581258]
 [  0.9         14.86779264]
 [  1.          61.56126855]
 [  1.09391667 -58.45933513]]","[[0.         1.15184391]
 [0.1        1.50748819]
 [0.2        0.49576218]
 [0.3        1.003898  ]
 [0.4        1.76624867]
 [0.5        1.27574792]
 [0.6        0.1993111 ]
 [0.7        0.49400206]
 [0.8        0.32135859]
 [0.9        1.63136948]
 [1.         1.32900666]
 [1.09391667 1.2934419 ]]",0,0.697
8729829169,f,18,french,3,5,french,2024-01-25 10:34:02.479147,False,2,335,sounds\english\audio/english_199.wav,"[[  0.          11.88199512]
 [  0.1        -46.96504702]
 [  0.2         91.54002169]
 [  0.3         99.89394598]
 [  0.4        -50.70673656]
 [  0.5          3.76891672]
 [  0.6         96.91424304]
 [  0.7         -8.03082423]
 [  0.8         10.21194857]
 [  0.9         73.92851664]
 [  1.          29.02383929]
 [  1.09391667 -91.13840346]]","[[0.         1.7718025 ]
 [0.1        0.76735149]
 [0.2        1.87614546]
 [0.3        1.34343154]
 [0.4        1.06602126]
 [0.5        0.62776747]
 [0.6        1.16622983]
 [0.7        0.99062008]
 [0.8        0.73939337]
 [0.9        0.60539997]
 [1.         1.28070052]
 [1.09391667 0.2785568 ]]",1,0.792
8729829169,f,18,french,3,5,french,2024-01-25 10:34:02.479147,False,2,336,sounds\english\audio/english_475.wav,"[[  0.          29.80961577]
 [  0.1         48.86857013]
 [  0.2        -75.87963709]
 [  0.3         30.73642142]
 [  0.4        -47.77384215]
 [  0.5         95.74069733]
 [  0.6         49.89153758]
 [  0.7        -93.96412935]
 [  0.8        -13.00332235]
 [  0.9         80.99885276]
 [  1.         -12.77273084]
 [  1.09391667  -3.9803657 ]]","[[0.         0.43821818]
 [0.1        0.91916023]
 [0.2        1.43870603]
 [0.3        0.67232978]
 [0.4        0.927705  ]
 [0.5        0.04190462]
 [0.6        1.51758055]
 [0.7        1.81908107]
 [0.8        1.60949708]
 [0.9        1.9985333 ]
 [1.         1.07792874]
 [1.09391667 1.55358956]]",0,0.517
8729829169,f,18,french,3,5,french,2024-01-25 10:34:02.479147,False,2,337,sounds\english\audio/english_811.wav,"[[  0.         -74.87697924]
 [  0.1         96.86117413]
 [  0.2         10.72305858]
 [  0.3         48.56085209]
 [  0.4        -99.82729779]
 [  0.5         79.99074979]
 [  0.6         -9.67190631]
 [  0.7        -89.53034614]
 [  0.8         84.53947336]
 [  0.9        -76.82386536]
 [  1.         -19.04963958]
 [  1.09391667  78.79317252]]","[[0.         0.45507787]
 [0.1        1.76793824]
 [0.2        0.84862028]
 [0.3        0.62727309]
 [0.4        1.03490246]
 [0.5        1.90507478]
 [0.6        0.06135305]
 [0.7        0.24955368]
 [0.8        0.72917007]
 [0.9        1.5042388 ]
 [1.         1.60193394]
 [1.09391667 0.72084905]]",0,1.058
8729829169,f,18,french,3,5,french,2024-01-25 10:34:02.479147,False,2,338,sounds\english\audio/english_281.wav,"[[  0.          -6.91929945]
 [  0.1        -25.44932046]
 [  0.2        -43.70872046]
 [  0.3        -18.3101874 ]
 [  0.4         86.16338552]
 [  0.5         49.26346324]
 [  0.6         79.40576686]
 [  0.7         85.96397413]
 [  0.8        -82.16790218]
 [  0.9         53.88469083]
 [  1.          30.1327539 ]
 [  1.09391667 -24.86364002]]","[[0.         1.49696204]
 [0.1        1.38956204]
 [0.2        0.8964952 ]
 [0.3        0.52852326]
 [0.4        0.8625919 ]
 [0.5        1.51743083]
 [0.6        0.79009251]
 [0.7        0.18987002]
 [0.8        1.11136212]
 [0.9        1.69337287]
 [1.         0.62990301]
 [1.09391667 1.33770256]]",0,0.172
8729829169,f,18,french,3,5,french,2024-01-25 10:34:02.479147,False,2,339,sounds\english\audio/english_817.wav,"[[  0.          39.93653704]
 [  0.1        -44.37889142]
 [  0.2        -71.95009912]
 [  0.3          0.10723305]
 [  0.4         32.85070006]
 [  0.5         84.39314217]
 [  0.6        -27.64718927]
 [  0.7        -96.89614882]
 [  0.8         78.14592137]
 [  0.9        -23.71803159]
 [  1.         -89.09326047]
 [  1.09391667  -7.75099391]]","[[0.         0.59804512]
 [0.1        1.22051814]
 [0.2        1.02272202]
 [0.3        0.82768739]
 [0.4        0.75023907]
 [0.5        1.45571946]
 [0.6        1.19333558]
 [0.7        0.88124366]
 [0.8        1.40555944]
 [0.9        0.40947716]
 [1.         0.89036455]
 [1.09391667 1.8115698 ]]",1,0.185
8729829169,f,18,french,3,5,french,2024-01-25 10:34:02.479147,False,2,340,sounds\english\audio/english_239.wav,"[[ 0.00000000e+00 -3.05267656e+01]
 [ 1.00000000e-01  8.69253709e+01]
 [ 2.00000000e-01  9.81444663e+01]
 [ 3.00000000e-01  3.73344739e+00]
 [ 4.00000000e-01  9.37963197e+01]
 [ 5.00000000e-01  3.55240778e+00]
 [ 6.00000000e-01  6.80566249e+01]
 [ 7.00000000e-01 -8.62323076e-02]
 [ 8.00000000e-01 -2.03909635e+01]
 [ 9.00000000e-01  1.40711591e+01]
 [ 1.00000000e+00 -8.12414996e+00]
 [ 1.09391667e+00  5.71088195e+01]]","[[0.         1.39175326]
 [0.1        0.20187761]
 [0.2        0.94285365]
 [0.3        0.80472341]
 [0.4        1.04208815]
 [0.5        1.26812124]
 [0.6        0.21560502]
 [0.7        1.00669433]
 [0.8        0.33435282]
 [0.9        1.80648064]
 [1.         0.53666305]
 [1.09391667 0.81763806]]",1,0.882
8729829169,f,18,french,3,5,french,2024-01-25 10:34:02.479147,False,2,341,sounds\english\audio/english_561.wav,"[[  0.         -40.74145274]
 [  0.1         73.1709151 ]
 [  0.2        -76.97322172]
 [  0.3        -33.73958817]
 [  0.4        -60.0926115 ]
 [  0.5         17.46588089]
 [  0.6         74.1182297 ]
 [  0.7         96.50181715]
 [  0.8         72.92112675]
 [  0.9         -4.13482892]
 [  1.          68.85388576]
 [  1.09391667 -59.51051487]]","[[0.         1.68424793]
 [0.1        1.15723577]
 [0.2        0.16061562]
 [0.3        0.71161921]
 [0.4        0.40520901]
 [0.5        1.58164625]
 [0.6        0.61549977]
 [0.7        1.28562209]
 [0.8        0.3725745 ]
 [0.9        0.83114042]
 [1.         1.94100595]
 [1.09391667 0.22020615]]",1,0.912
8729829169,f,18,french,3,5,french,2024-01-25 10:34:02.479147,False,2,342,sounds\english\audio/english_859.wav,"[[  0.          31.07114651]
 [  0.1        -28.29036268]
 [  0.2        -99.32977332]
 [  0.3         24.56403326]
 [  0.4         13.96924155]
 [  0.5         -7.10648456]
 [  0.6         16.2139947 ]
 [  0.7        -63.09488954]
 [  0.8         32.97149002]
 [  0.9         73.86440675]
 [  1.          18.08685772]
 [  1.09391667  63.56526174]]","[[0.         1.62014662]
 [0.1        0.23536516]
 [0.2        1.20919843]
 [0.3        1.87022771]
 [0.4        1.25340901]
 [0.5        1.24145487]
 [0.6        0.16688969]
 [0.7        1.9877967 ]
 [0.8        1.05528454]
 [0.9        1.04254929]
 [1.         0.40355025]
 [1.09391667 1.52495745]]",1,0.923
8729829169,f,18,french,3,5,french,2024-01-25 10:34:02.479147,False,2,343,sounds\english\audio/english_202.wav,"[[  0.         -55.5835629 ]
 [  0.1        -74.17222211]
 [  0.2         32.91988816]
 [  0.3        -61.08726633]
 [  0.4         74.28120307]
 [  0.5         27.15782783]
 [  0.6        -31.42828759]
 [  0.7        -85.57803202]
 [  0.8         -8.83313062]
 [  0.9         75.88912897]
 [  1.         -46.89935533]
 [  1.09391667   1.73094833]]","[[0.         1.42115323]
 [0.1        1.11230171]
 [0.2        1.2604868 ]
 [0.3        1.38170621]
 [0.4        1.19502306]
 [0.5        1.3290301 ]
 [0.6        1.43273837]
 [0.7        0.23505516]
 [0.8        0.8306151 ]
 [0.9        1.14421979]
 [1.         1.72535261]
 [1.09391667 1.37481935]]",1,1.895
8729829169,f,18,french,3,5,french,2024-01-25 10:34:02.479147,False,2,344,sounds\english\audio/english_300.wav,"[[  0.           2.79972232]
 [  0.1         -6.00092765]
 [  0.2          5.93513414]
 [  0.3         65.0106623 ]
 [  0.4        -35.27715369]
 [  0.5        -49.20910009]
 [  0.6         90.62348649]
 [  0.7        -62.79963136]
 [  0.8         41.66095929]
 [  0.9         -9.40303164]
 [  1.         -11.98915311]
 [  1.09391667  86.33383712]]","[[0.         1.53749115]
 [0.1        1.12105385]
 [0.2        1.21050577]
 [0.3        1.39038364]
 [0.4        0.59533856]
 [0.5        0.92189242]
 [0.6        1.12293969]
 [0.7        0.08212217]
 [0.8        0.24893909]
 [0.9        0.97640661]
 [1.         1.76885677]
 [1.09391667 1.97400425]]",0,0.229
8729829169,f,18,french,3,5,french,2024-01-25 10:34:02.479147,False,2,345,sounds\english\audio/english_247.wav,"[[  0.          25.0451381 ]
 [  0.1         -0.42762512]
 [  0.2          6.28793154]
 [  0.3         -3.67285953]
 [  0.4         72.86099671]
 [  0.5          4.14559404]
 [  0.6         25.40906202]
 [  0.7         -4.12042736]
 [  0.8         34.39220846]
 [  0.9        -47.96329468]
 [  1.          84.41515092]
 [  1.09391667  76.12511321]]","[[0.         1.47539451]
 [0.1        0.00273089]
 [0.2        1.08361758]
 [0.3        1.41054103]
 [0.4        0.74915888]
 [0.5        1.69392232]
 [0.6        1.26493683]
 [0.7        0.1138778 ]
 [0.8        1.15663669]
 [0.9        1.48677288]
 [1.         0.39384904]
 [1.09391667 0.02417049]]",1,0.476
8729829169,f,18,french,3,5,french,2024-01-25 10:34:02.479147,False,2,346,sounds\english\audio/english_965.wav,"[[  0.          71.26903742]
 [  0.1        -85.67215002]
 [  0.2         62.40796955]
 [  0.3        -42.43885851]
 [  0.4        -43.47145803]
 [  0.5          0.87364752]
 [  0.6         11.44276141]
 [  0.7         13.05816489]
 [  0.8         36.18570215]
 [  0.9        -15.51832256]
 [  1.         -23.27462527]
 [  1.09391667  27.24750983]]","[[0.         0.78069471]
 [0.1        0.96385913]
 [0.2        1.23622138]
 [0.3        0.08139119]
 [0.4        1.30827212]
 [0.5        0.40087686]
 [0.6        0.69003786]
 [0.7        0.53329387]
 [0.8        0.06218309]
 [0.9        1.41722428]
 [1.         1.1054453 ]
 [1.09391667 1.42098641]]",0,0.435
8729829169,f,18,french,3,5,french,2024-01-25 10:34:02.479147,False,2,347,sounds\english\audio/english_742.wav,"[[  0.          16.40248558]
 [  0.1        -74.48361089]
 [  0.2        -68.54189756]
 [  0.3        -12.74577912]
 [  0.4         42.91022855]
 [  0.5         61.35454691]
 [  0.6        -74.78284805]
 [  0.7         71.03659878]
 [  0.8         51.11475536]
 [  0.9         52.57489365]
 [  1.         -21.18365938]
 [  1.09391667  62.14901308]]","[[0.         0.38841716]
 [0.1        0.81078957]
 [0.2        1.40021639]
 [0.3        0.37000306]
 [0.4        0.86528291]
 [0.5        0.21278301]
 [0.6        1.55046698]
 [0.7        1.739545  ]
 [0.8        1.10810315]
 [0.9        0.37698393]
 [1.         1.01484038]
 [1.09391667 0.3479372 ]]",1,0.522
8729829169,f,18,french,3,5,french,2024-01-25 10:34:02.479147,False,2,348,sounds\english\audio/english_969.wav,"[[  0.          29.09924348]
 [  0.1        -95.88090252]
 [  0.2         45.5103226 ]
 [  0.3         22.6688792 ]
 [  0.4         28.43861777]
 [  0.5        -64.30828006]
 [  0.6        -54.50431648]
 [  0.7         30.42451317]
 [  0.8        -91.90179979]
 [  0.9          4.36119227]
 [  1.         -67.80457813]
 [  1.09391667 -80.8303423 ]]","[[0.         1.53055803]
 [0.1        0.21771883]
 [0.2        0.6895083 ]
 [0.3        1.38165803]
 [0.4        1.43845422]
 [0.5        1.41047112]
 [0.6        1.45510114]
 [0.7        0.72825636]
 [0.8        1.35653581]
 [0.9        1.06956255]
 [1.         1.00621562]
 [1.09391667 1.05370229]]",0,1.238
8729829169,f,18,french,3,5,french,2024-01-25 10:34:02.479147,False,2,349,sounds\english\audio/english_508.wav,"[[  0.          29.95487344]
 [  0.1        -43.56994085]
 [  0.2         95.99440846]
 [  0.3         96.63128694]
 [  0.4         81.88240965]
 [  0.5        -30.32405698]
 [  0.6        -70.6760635 ]
 [  0.7        -36.19238407]
 [  0.8         18.2315003 ]
 [  0.9        -71.56865734]
 [  1.         -72.78274833]
 [  1.09391667  51.72471755]]","[[0.         1.28947786]
 [0.1        0.45872669]
 [0.2        1.02864136]
 [0.3        1.38697031]
 [0.4        0.48619633]
 [0.5        1.35316712]
 [0.6        0.61818132]
 [0.7        0.31535759]
 [0.8        1.60240226]
 [0.9        1.17638413]
 [1.         0.8457368 ]
 [1.09391667 0.31851434]]",0,0.519
8729829169,f,18,french,3,5,french,2024-01-25 10:34:02.479147,False,2,350,sounds\english\audio/english_467.wav,"[[  0.          84.73520447]
 [  0.1         88.96200227]
 [  0.2         72.63675829]
 [  0.3        -11.47164633]
 [  0.4        -15.99279105]
 [  0.5        -43.82437563]
 [  0.6         43.03099958]
 [  0.7        -45.22330674]
 [  0.8         76.52363546]
 [  0.9        -64.57143565]
 [  1.         -23.20829111]
 [  1.09391667  90.56201043]]","[[0.         0.80775308]
 [0.1        0.60891261]
 [0.2        1.71596765]
 [0.3        0.15084523]
 [0.4        1.25287304]
 [0.5        1.40086837]
 [0.6        0.418933  ]
 [0.7        1.80339492]
 [0.8        0.77008525]
 [0.9        1.13088524]
 [1.         0.17124527]
 [1.09391667 1.41524886]]",1,0.532
8729829169,f,18,french,3,5,french,2024-01-25 10:34:02.479147,False,2,351,sounds\english\audio/english_829.wav,"[[  0.          -7.89955856]
 [  0.1        -18.01769042]
 [  0.2         57.48418942]
 [  0.3         41.9687918 ]
 [  0.4        -61.64702177]
 [  0.5        -20.29007911]
 [  0.6         93.24496902]
 [  0.7        -32.99482484]
 [  0.8          6.59233546]
 [  0.9        -90.87646181]
 [  1.           9.72736643]
 [  1.09391667 -11.26207351]]","[[0.         0.852516  ]
 [0.1        0.97788956]
 [0.2        1.32810397]
 [0.3        0.18108064]
 [0.4        0.15705118]
 [0.5        0.66571436]
 [0.6        0.20869504]
 [0.7        1.27621492]
 [0.8        1.10768251]
 [0.9        1.10361444]
 [1.         0.98320382]
 [1.09391667 1.01672444]]",1,0.391
8729829169,f,18,french,3,5,french,2024-01-25 10:34:02.479147,False,2,352,sounds\english\audio/english_544.wav,"[[  0.         -12.83752334]
 [  0.1         18.81551767]
 [  0.2        -29.56712799]
 [  0.3        -88.71669508]
 [  0.4         60.52504719]
 [  0.5        -63.41119431]
 [  0.6          8.79618234]
 [  0.7        -45.10475513]
 [  0.8        -50.11360918]
 [  0.9         24.528145  ]
 [  1.          39.08857689]
 [  1.09391667  16.62790968]]","[[0.         0.26746705]
 [0.1        0.28928579]
 [0.2        1.1529058 ]
 [0.3        0.71030524]
 [0.4        1.2257672 ]
 [0.5        1.58517904]
 [0.6        0.02752012]
 [0.7        0.40266107]
 [0.8        1.24234406]
 [0.9        0.82116457]
 [1.         0.0963448 ]
 [1.09391667 0.38181462]]",1,0.669
8729829169,f,18,french,3,5,french,2024-01-25 10:34:02.479147,False,2,353,sounds\english\audio/english_367.wav,"[[  0.          40.69288354]
 [  0.1        -87.28554983]
 [  0.2        -64.50130746]
 [  0.3         65.0554957 ]
 [  0.4        -34.90387066]
 [  0.5         29.56597753]
 [  0.6         36.50215848]
 [  0.7        -55.69798386]
 [  0.8         12.84757482]
 [  0.9        -23.54866279]
 [  1.         -55.73647309]
 [  1.09391667  79.84600893]]","[[0.         1.09000391]
 [0.1        0.74880644]
 [0.2        0.58255578]
 [0.3        0.66468618]
 [0.4        1.54627645]
 [0.5        0.56660027]
 [0.6        0.69792946]
 [0.7        1.00541299]
 [0.8        0.65534854]
 [0.9        1.89531092]
 [1.         0.87598705]
 [1.09391667 1.75535151]]",0,0.549
8729829169,f,18,french,3,5,french,2024-01-25 10:34:02.479147,False,2,354,sounds\english\audio/english_298.wav,"[[  0.          -6.27155647]
 [  0.1         48.93550058]
 [  0.2         13.84285521]
 [  0.3         97.15977737]
 [  0.4         79.76715629]
 [  0.5        -41.84976134]
 [  0.6         11.37121721]
 [  0.7          1.57706146]
 [  0.8         14.4430887 ]
 [  0.9         22.32733409]
 [  1.           4.8370979 ]
 [  1.09391667  33.89493251]]","[[0.         1.61849335]
 [0.1        0.35596491]
 [0.2        0.30396033]
 [0.3        1.90931563]
 [0.4        0.00976952]
 [0.5        1.7369795 ]
 [0.6        1.54006257]
 [0.7        0.39135251]
 [0.8        1.45560385]
 [0.9        1.43660254]
 [1.         1.96857338]
 [1.09391667 1.91654431]]",0,0.108
8729829169,f,18,french,3,5,french,2024-01-25 10:34:02.479147,False,2,355,sounds\english\audio/english_40.wav,"[[  0.          48.02478729]
 [  0.1        -63.01746301]
 [  0.2         99.88373943]
 [  0.3        -35.62748252]
 [  0.4         22.54548674]
 [  0.5         64.17300345]
 [  0.6        -98.43334374]
 [  0.7        -29.30341943]
 [  0.8        -86.78861614]
 [  0.9        -30.45625268]
 [  1.         -71.34202466]
 [  1.09391667 -99.87345526]]","[[0.         1.95808972]
 [0.1        0.59596382]
 [0.2        1.52240022]
 [0.3        1.96915834]
 [0.4        0.95314863]
 [0.5        0.51463989]
 [0.6        0.71558666]
 [0.7        1.3085379 ]
 [0.8        0.72652205]
 [0.9        0.70559874]
 [1.         1.16093561]
 [1.09391667 1.23446985]]",0,0.592
8729829169,f,18,french,3,5,french,2024-01-25 10:34:02.479147,False,2,356,sounds\english\audio/english_492.wav,"[[  0.         -29.9472328 ]
 [  0.1         35.33010824]
 [  0.2         -3.45968041]
 [  0.3         59.06456756]
 [  0.4         98.23949624]
 [  0.5         -1.48270349]
 [  0.6         -1.72219507]
 [  0.7         12.69106909]
 [  0.8        -21.74180351]
 [  0.9        -33.92370757]
 [  1.          37.93162517]
 [  1.09391667 -90.75179354]]","[[0.         1.28534899]
 [0.1        1.03908978]
 [0.2        1.26033893]
 [0.3        0.39463808]
 [0.4        0.21276087]
 [0.5        0.25205409]
 [0.6        0.58596557]
 [0.7        1.49088879]
 [0.8        1.5225112 ]
 [0.9        0.13189423]
 [1.         0.89918189]
 [1.09391667 1.07142866]]",0,0.742
8729829169,f,18,french,3,5,french,2024-01-25 10:34:02.479147,False,2,357,sounds\english\audio/english_367.wav,"[[  0.          40.69288354]
 [  0.1        -87.28554983]
 [  0.2        -64.50130746]
 [  0.3         65.0554957 ]
 [  0.4        -34.90387066]
 [  0.5         29.56597753]
 [  0.6         36.50215848]
 [  0.7        -55.69798386]
 [  0.8         12.84757482]
 [  0.9        -23.54866279]
 [  1.         -55.73647309]
 [  1.09391667  79.84600893]]","[[0.         1.09000391]
 [0.1        0.74880644]
 [0.2        0.58255578]
 [0.3        0.66468618]
 [0.4        1.54627645]
 [0.5        0.56660027]
 [0.6        0.69792946]
 [0.7        1.00541299]
 [0.8        0.65534854]
 [0.9        1.89531092]
 [1.         0.87598705]
 [1.09391667 1.75535151]]",0,0.319
8729829169,f,18,french,3,5,french,2024-01-25 10:34:02.479147,False,2,358,sounds\english\audio/english_467.wav,"[[  0.          84.73520447]
 [  0.1         88.96200227]
 [  0.2         72.63675829]
 [  0.3        -11.47164633]
 [  0.4        -15.99279105]
 [  0.5        -43.82437563]
 [  0.6         43.03099958]
 [  0.7        -45.22330674]
 [  0.8         76.52363546]
 [  0.9        -64.57143565]
 [  1.         -23.20829111]
 [  1.09391667  90.56201043]]","[[0.         0.80775308]
 [0.1        0.60891261]
 [0.2        1.71596765]
 [0.3        0.15084523]
 [0.4        1.25287304]
 [0.5        1.40086837]
 [0.6        0.418933  ]
 [0.7        1.80339492]
 [0.8        0.77008525]
 [0.9        1.13088524]
 [1.         0.17124527]
 [1.09391667 1.41524886]]",1,0.66
8729829169,f,18,french,3,5,french,2024-01-25 10:34:02.479147,False,2,359,sounds\english\audio/english_254.wav,"[[  0.         -79.97486314]
 [  0.1          4.97939185]
 [  0.2        -28.78047168]
 [  0.3         54.84679162]
 [  0.4        -29.5092506 ]
 [  0.5         32.35526616]
 [  0.6         30.73043206]
 [  0.7        -63.39934618]
 [  0.8         41.52768957]
 [  0.9        -68.73480186]
 [  1.          39.94615362]
 [  1.09391667  -8.67015509]]","[[0.         0.1587751 ]
 [0.1        1.19895937]
 [0.2        0.42029652]
 [0.3        0.35684023]
 [0.4        0.61489906]
 [0.5        0.62359164]
 [0.6        0.73353012]
 [0.7        1.26915249]
 [0.8        1.27281169]
 [0.9        1.34629586]
 [1.         0.72701625]
 [1.09391667 0.66252937]]",1,0.68
8729829169,f,18,french,3,5,french,2024-01-25 10:34:02.479147,False,2,360,sounds\english\audio/english_188.wav,"[[  0.         -44.78438497]
 [  0.1        -59.64362525]
 [  0.2        -64.08533898]
 [  0.3        -29.1378116 ]
 [  0.4         -4.14868477]
 [  0.5        -61.00737987]
 [  0.6         61.72468412]
 [  0.7         91.61563335]
 [  0.8        -69.21450223]
 [  0.9         55.80681999]
 [  1.         -13.47812759]
 [  1.09391667  47.39616925]]","[[0.         0.94710117]
 [0.1        0.96413905]
 [0.2        0.84840618]
 [0.3        0.37627617]
 [0.4        1.62621942]
 [0.5        0.44747201]
 [0.6        0.51555254]
 [0.7        1.97040932]
 [0.8        0.35468899]
 [0.9        1.42342949]
 [1.         1.23724986]
 [1.09391667 0.05613364]]",0,0.586
8729829169,f,18,french,3,5,french,2024-01-25 10:34:02.479147,False,2,361,sounds\english\audio/english_164.wav,"[[  0.          25.67612046]
 [  0.1        -73.22421847]
 [  0.2         45.60415064]
 [  0.3         93.27879502]
 [  0.4         33.1762566 ]
 [  0.5         47.64320434]
 [  0.6        -19.19510789]
 [  0.7        -33.42680653]
 [  0.8         47.71435933]
 [  0.9          5.90681892]
 [  1.          42.52423942]
 [  1.09391667  43.22160039]]","[[0.         1.60368468]
 [0.1        0.71109799]
 [0.2        0.65921899]
 [0.3        1.59053842]
 [0.4        0.71799916]
 [0.5        1.2187377 ]
 [0.6        1.25318934]
 [0.7        0.56903982]
 [0.8        0.44355463]
 [0.9        1.65481096]
 [1.         0.56871191]
 [1.09391667 0.29440298]]",1,0.727
8729829169,f,18,french,3,5,french,2024-01-25 10:34:02.479147,False,2,362,sounds\english\audio/english_307.wav,"[[  0.           4.09277184]
 [  0.1        -55.10651609]
 [  0.2         40.66104674]
 [  0.3         25.01631041]
 [  0.4        -83.19534886]
 [  0.5         50.47121196]
 [  0.6        -23.06520129]
 [  0.7          6.60696351]
 [  0.8         32.78812168]
 [  0.9        -29.8510749 ]
 [  1.         -51.20036712]
 [  1.09391667 -34.31103599]]","[[0.         1.54634017]
 [0.1        1.62042314]
 [0.2        0.53651735]
 [0.3        1.3289867 ]
 [0.4        1.20481488]
 [0.5        0.91135424]
 [0.6        0.34154344]
 [0.7        0.77838965]
 [0.8        1.52188148]
 [0.9        1.3469183 ]
 [1.         0.11286505]
 [1.09391667 1.9894596 ]]",1,0.199
8729829169,f,18,french,3,5,french,2024-01-25 10:34:02.479147,False,2,363,sounds\english\audio/english_403.wav,"[[ 0.00000000e+00  1.55370236e-02]
 [ 1.00000000e-01 -4.64270355e+00]
 [ 2.00000000e-01 -8.67611077e+01]
 [ 3.00000000e-01 -8.66854854e+01]
 [ 4.00000000e-01 -7.43205589e+01]
 [ 5.00000000e-01  5.61207621e+01]
 [ 6.00000000e-01  1.50235235e+01]
 [ 7.00000000e-01  2.58783198e+01]
 [ 8.00000000e-01  2.13726461e+01]
 [ 9.00000000e-01  8.69816794e+01]
 [ 1.00000000e+00 -5.61900631e+01]
 [ 1.09391667e+00  5.92986673e+01]]","[[0.         1.50775741]
 [0.1        1.88632048]
 [0.2        1.79027228]
 [0.3        0.9708058 ]
 [0.4        1.26833926]
 [0.5        0.98662828]
 [0.6        1.65364002]
 [0.7        1.52514764]
 [0.8        1.10599603]
 [0.9        1.01372586]
 [1.         1.1928159 ]
 [1.09391667 0.36234179]]",0,1.056
8729829169,f,18,french,3,5,french,2024-01-25 10:34:02.479147,False,2,364,sounds\english\audio/english_585.wav,"[[  0.         -86.93944466]
 [  0.1        -97.95669785]
 [  0.2         35.19908461]
 [  0.3         66.00378301]
 [  0.4         10.9229126 ]
 [  0.5         72.37678619]
 [  0.6        -57.08192974]
 [  0.7        -77.39915084]
 [  0.8         38.55710496]
 [  0.9        -27.16276528]
 [  1.          46.25769813]
 [  1.09391667 -14.18587881]]","[[0.         0.1588986 ]
 [0.1        0.38183266]
 [0.2        0.20642212]
 [0.3        1.21146119]
 [0.4        0.35502735]
 [0.5        1.56586524]
 [0.6        1.83214489]
 [0.7        0.43697271]
 [0.8        0.35169773]
 [0.9        1.49983702]
 [1.         0.51254386]
 [1.09391667 0.12379544]]",1,0.869
8729829169,f,18,french,3,5,french,2024-01-25 10:34:02.479147,False,2,365,sounds\english\audio/english_455.wav,"[[  0.          26.42834913]
 [  0.1         -7.65720218]
 [  0.2        -36.03524122]
 [  0.3         -9.36591816]
 [  0.4         74.01503077]
 [  0.5        -66.92719297]
 [  0.6        -30.7057444 ]
 [  0.7         40.84752834]
 [  0.8         15.65936383]
 [  0.9        -13.21472975]
 [  1.          44.82999828]
 [  1.09391667 -79.02570563]]","[[0.         1.62221941]
 [0.1        1.46036611]
 [0.2        1.24406571]
 [0.3        1.98304613]
 [0.4        0.42616314]
 [0.5        0.24476163]
 [0.6        1.77552442]
 [0.7        1.05242247]
 [0.8        0.70330742]
 [0.9        0.60059781]
 [1.         0.40485906]
 [1.09391667 1.70610938]]",0,1.0
8729829169,f,18,french,3,5,french,2024-01-25 10:34:02.479147,False,2,366,sounds\english\audio/english_390.wav,"[[  0.         -44.27999606]
 [  0.1         87.16388753]
 [  0.2         51.76447156]
 [  0.3          4.72890769]
 [  0.4         40.54029915]
 [  0.5         -2.52273407]
 [  0.6        -16.68397449]
 [  0.7         61.52515281]
 [  0.8         -9.09589247]
 [  0.9        -24.40260524]
 [  1.         -74.87237933]
 [  1.09391667 -82.02950505]]","[[0.         0.47786392]
 [0.1        0.26367192]
 [0.2        0.808543  ]
 [0.3        1.08355999]
 [0.4        1.05186068]
 [0.5        0.0330936 ]
 [0.6        0.46793247]
 [0.7        1.47386131]
 [0.8        0.59216285]
 [0.9        0.27707759]
 [1.         1.34831193]
 [1.09391667 1.5447274 ]]",1,0.158
8729829169,f,18,french,3,5,french,2024-01-25 10:34:02.479147,False,2,367,sounds\english\audio/english_329.wav,"[[  0.         -73.5267518 ]
 [  0.1         26.40936661]
 [  0.2         95.94954551]
 [  0.3        -92.18268605]
 [  0.4        -98.10910069]
 [  0.5        -61.34103681]
 [  0.6         34.88723994]
 [  0.7         66.83835425]
 [  0.8        -67.43059972]
 [  0.9         51.12526405]
 [  1.         -25.5134348 ]
 [  1.09391667 -82.24978729]]","[[0.         0.87153309]
 [0.1        1.24873758]
 [0.2        0.87594124]
 [0.3        0.88012103]
 [0.4        1.62824367]
 [0.5        1.41725229]
 [0.6        1.27607992]
 [0.7        0.30685243]
 [0.8        0.43279956]
 [0.9        0.74557381]
 [1.         0.84179224]
 [1.09391667 0.84260005]]",1,0.572
8729829169,f,18,french,3,5,french,2024-01-25 10:34:02.479147,False,2,368,sounds\english\audio/english_763.wav,"[[  0.          -3.64613535]
 [  0.1         86.84394447]
 [  0.2         48.90447279]
 [  0.3         81.52724945]
 [  0.4         38.37028175]
 [  0.5         -1.05640966]
 [  0.6         92.75218552]
 [  0.7         25.6384544 ]
 [  0.8         39.31857394]
 [  0.9        -39.8545052 ]
 [  1.         -46.14237673]
 [  1.09391667   4.92972848]]","[[0.         1.37294904]
 [0.1        1.4753173 ]
 [0.2        1.11933896]
 [0.3        0.74342717]
 [0.4        1.29789975]
 [0.5        0.71005602]
 [0.6        1.1127111 ]
 [0.7        0.88036435]
 [0.8        0.01207507]
 [0.9        1.55647861]
 [1.         1.32252767]
 [1.09391667 1.12126405]]",1,2.226
8729829169,f,18,french,3,5,french,2024-01-25 10:34:02.479147,False,2,369,sounds\english\audio/english_945.wav,"[[  0.          -8.90413291]
 [  0.1         14.69079878]
 [  0.2         16.86515392]
 [  0.3         -0.90328453]
 [  0.4        -81.95044393]
 [  0.5         39.38574307]
 [  0.6         48.97516123]
 [  0.7         22.02745292]
 [  0.8        -62.58672275]
 [  0.9         40.96128128]
 [  1.         -87.24049134]
 [  1.09391667 -36.18929768]]","[[0.         0.85973831]
 [0.1        1.50793383]
 [0.2        1.6389584 ]
 [0.3        1.35118399]
 [0.4        0.67347382]
 [0.5        0.90170453]
 [0.6        1.48284903]
 [0.7        0.52532692]
 [0.8        0.42512417]
 [0.9        0.61558677]
 [1.         1.20691188]
 [1.09391667 1.76719884]]",1,0.533
8729829169,f,18,french,3,5,french,2024-01-25 10:34:02.479147,False,2,370,sounds\english\audio/english_66.wav,"[[  0.          73.54239792]
 [  0.1        -24.02007983]
 [  0.2         49.15082977]
 [  0.3         59.25187184]
 [  0.4        -38.45178026]
 [  0.5          4.75457438]
 [  0.6         46.25569394]
 [  0.7        -60.4256139 ]
 [  0.8         67.09047121]
 [  0.9         88.85676661]
 [  1.          69.83029982]
 [  1.09391667  35.36852194]]","[[0.         1.39962355]
 [0.1        0.40719393]
 [0.2        0.56009301]
 [0.3        0.88526938]
 [0.4        0.20167751]
 [0.5        0.49978963]
 [0.6        1.58181975]
 [0.7        0.73201225]
 [0.8        0.26938408]
 [0.9        1.15195977]
 [1.         1.10937983]
 [1.09391667 1.70850229]]",0,1.022
8729829169,f,18,french,3,5,french,2024-01-25 10:34:02.479147,False,2,371,sounds\english\audio/english_469.wav,"[[  0.         -33.27051151]
 [  0.1        -94.55728016]
 [  0.2        -24.34554111]
 [  0.3         16.33493977]
 [  0.4        -66.14325269]
 [  0.5         -2.40335162]
 [  0.6        -87.80607373]
 [  0.7         34.04653441]
 [  0.8         53.31501889]
 [  0.9        -70.89291525]
 [  1.          35.01344624]
 [  1.09391667  15.03691984]]","[[0.         1.91972156]
 [0.1        0.89758894]
 [0.2        0.14767308]
 [0.3        0.88925412]
 [0.4        0.02970636]
 [0.5        0.16070031]
 [0.6        0.0970541 ]
 [0.7        1.25032873]
 [0.8        1.92087852]
 [0.9        0.56083362]
 [1.         0.78804248]
 [1.09391667 0.71632164]]",1,0.974
8729829169,f,18,french,3,5,french,2024-01-25 10:34:02.479147,False,2,372,sounds\english\audio/english_646.wav,"[[  0.         -72.16367523]
 [  0.1         89.23048569]
 [  0.2          3.93643173]
 [  0.3         32.33211102]
 [  0.4         57.94131679]
 [  0.5          3.36702109]
 [  0.6         61.97454592]
 [  0.7        -38.94515992]
 [  0.8         18.02819855]
 [  0.9         -7.01403953]
 [  1.          22.99913436]
 [  1.09391667 -15.24744046]]","[[0.         1.23252036]
 [0.1        0.41153547]
 [0.2        1.30500866]
 [0.3        0.16779894]
 [0.4        1.44956343]
 [0.5        0.43462   ]
 [0.6        1.17161273]
 [0.7        1.33009112]
 [0.8        1.9601355 ]
 [0.9        1.16018484]
 [1.         0.4872476 ]
 [1.09391667 0.4931797 ]]",0,0.545
8729829169,f,18,french,3,5,french,2024-01-25 10:34:02.479147,False,2,373,sounds\english\audio/english_726.wav,"[[  0.          23.35137092]
 [  0.1         76.34325819]
 [  0.2         77.87153215]
 [  0.3         45.89033074]
 [  0.4        -92.46008591]
 [  0.5        -89.27810563]
 [  0.6         61.30206765]
 [  0.7         68.07705407]
 [  0.8         47.81218941]
 [  0.9         85.67647673]
 [  1.          69.08166842]
 [  1.09391667  71.61978118]]","[[0.         0.15397845]
 [0.1        1.80908671]
 [0.2        0.91237222]
 [0.3        0.3916486 ]
 [0.4        1.60354114]
 [0.5        0.90173572]
 [0.6        1.86939155]
 [0.7        0.57523975]
 [0.8        0.88835081]
 [0.9        0.33175344]
 [1.         0.8335266 ]
 [1.09391667 0.36613886]]",1,2.412
8729829169,f,18,french,3,5,french,2024-01-25 10:34:02.479147,False,2,374,sounds\english\audio/english_150.wav,"[[  0.         -50.54232549]
 [  0.1         34.32153656]
 [  0.2        -10.92395048]
 [  0.3         53.72738624]
 [  0.4         62.41801081]
 [  0.5        -32.60317387]
 [  0.6        -14.80411838]
 [  0.7         55.20966729]
 [  0.8        -74.0684305 ]
 [  0.9         -4.87965611]
 [  1.         -79.50813125]
 [  1.09391667  24.9492826 ]]","[[0.         1.16258998]
 [0.1        0.79689364]
 [0.2        0.16790755]
 [0.3        0.35039588]
 [0.4        0.24836215]
 [0.5        0.38408886]
 [0.6        0.47894499]
 [0.7        1.81942338]
 [0.8        1.36079379]
 [0.9        1.63972786]
 [1.         1.65428446]
 [1.09391667 1.31063675]]",0,0.319
8729829169,f,18,french,3,5,french,2024-01-25 10:34:02.479147,False,2,375,sounds\english\audio/english_289.wav,"[[  0.         -74.78655   ]
 [  0.1        -90.25985406]
 [  0.2        -27.93675794]
 [  0.3        -69.8278995 ]
 [  0.4         80.83899325]
 [  0.5         59.60907912]
 [  0.6         -7.23667322]
 [  0.7         40.65599914]
 [  0.8         70.76112858]
 [  0.9         55.20165463]
 [  1.          12.92586279]
 [  1.09391667  79.89951156]]","[[0.         1.54308435]
 [0.1        1.23232394]
 [0.2        0.21652241]
 [0.3        1.88715195]
 [0.4        0.72261078]
 [0.5        1.3658372 ]
 [0.6        0.39334931]
 [0.7        0.15923439]
 [0.8        0.96106175]
 [0.9        1.02832529]
 [1.         1.79645227]
 [1.09391667 0.36571396]]",1,0.256
8729829169,f,18,french,3,5,french,2024-01-25 10:34:02.479147,False,2,376,sounds\english\audio/english_326.wav,"[[  0.         -43.10917618]
 [  0.1         51.71010142]
 [  0.2        -51.98898793]
 [  0.3        -88.25420689]
 [  0.4        -29.81917635]
 [  0.5        -40.02564907]
 [  0.6        -80.61031076]
 [  0.7         27.73097561]
 [  0.8         86.25406042]
 [  0.9        -98.97965016]
 [  1.         -32.16564668]
 [  1.09391667 -99.19861207]]","[[0.         0.92818159]
 [0.1        0.32622589]
 [0.2        0.25183357]
 [0.3        0.15547956]
 [0.4        0.54551317]
 [0.5        0.579881  ]
 [0.6        0.72251342]
 [0.7        1.44758164]
 [0.8        1.07961509]
 [0.9        1.11677138]
 [1.         0.90130016]
 [1.09391667 0.29135461]]",0,0.472
8729829169,f,18,french,3,5,french,2024-01-25 10:34:02.479147,False,2,377,sounds\english\audio/english_246.wav,"[[  0.          65.19555702]
 [  0.1        -88.31116696]
 [  0.2        -87.15645837]
 [  0.3         57.84934166]
 [  0.4        -76.45557784]
 [  0.5         66.32688278]
 [  0.6         93.44738027]
 [  0.7         54.7923908 ]
 [  0.8         -1.38437059]
 [  0.9          5.22264847]
 [  1.         -11.85909484]
 [  1.09391667  65.00290812]]","[[0.         1.04626937]
 [0.1        1.63597079]
 [0.2        1.95419498]
 [0.3        0.56872665]
 [0.4        0.40309221]
 [0.5        1.93282921]
 [0.6        1.28213971]
 [0.7        1.70127241]
 [0.8        0.15014799]
 [0.9        1.21649106]
 [1.         1.48942771]
 [1.09391667 0.35768018]]",0,0.538
8729829169,f,18,french,3,5,french,2024-01-25 10:34:02.479147,False,2,378,sounds\english\audio/english_428.wav,"[[  0.          81.83092524]
 [  0.1        -80.13069751]
 [  0.2        -11.65632902]
 [  0.3        -46.08084266]
 [  0.4          3.29741478]
 [  0.5         38.2144639 ]
 [  0.6        -36.34649143]
 [  0.7        -64.94911042]
 [  0.8         55.28808141]
 [  0.9        -85.65631623]
 [  1.          45.03584187]
 [  1.09391667 -22.28745039]]","[[0.         1.65195738]
 [0.1        1.50342219]
 [0.2        1.06152039]
 [0.3        0.87273268]
 [0.4        1.30041173]
 [0.5        1.27181021]
 [0.6        1.2829939 ]
 [0.7        0.80379216]
 [0.8        0.54976242]
 [0.9        1.4846347 ]
 [1.         0.86531381]
 [1.09391667 0.63375774]]",1,1.205
8729829169,f,18,french,3,5,french,2024-01-25 10:34:02.479147,False,2,379,sounds\english\audio/english_925.wav,"[[  0.         -84.57233467]
 [  0.1        -44.7314948 ]
 [  0.2        -21.76001852]
 [  0.3         58.94026315]
 [  0.4         68.109547  ]
 [  0.5         49.84786379]
 [  0.6         60.87486089]
 [  0.7         50.05197286]
 [  0.8         83.62089831]
 [  0.9         -6.54901241]
 [  1.          59.32339342]
 [  1.09391667 -66.08603468]]","[[0.         1.00848694]
 [0.1        0.79986677]
 [0.2        1.01395723]
 [0.3        0.40578686]
 [0.4        1.18343794]
 [0.5        0.73791716]
 [0.6        0.58895249]
 [0.7        0.92214068]
 [0.8        1.8971644 ]
 [0.9        1.57717007]
 [1.         1.06930768]
 [1.09391667 1.74149988]]",0,0.729
8729829169,f,18,french,3,5,french,2024-01-25 10:34:02.479147,False,2,380,sounds\english\audio/english_933.wav,"[[  0.         -32.55224072]
 [  0.1         59.44257797]
 [  0.2         17.39690353]
 [  0.3        -22.68529576]
 [  0.4        -75.07818399]
 [  0.5        -42.21384225]
 [  0.6         88.28795698]
 [  0.7        -93.76467276]
 [  0.8        -63.09167857]
 [  0.9         42.2087571 ]
 [  1.          48.07358396]
 [  1.09391667  62.42851897]]","[[0.         0.19221515]
 [0.1        1.43025401]
 [0.2        1.54503316]
 [0.3        0.8626505 ]
 [0.4        0.16630427]
 [0.5        0.04785165]
 [0.6        0.15375828]
 [0.7        0.19154161]
 [0.8        1.95653775]
 [0.9        0.40020781]
 [1.         0.86859993]
 [1.09391667 1.49244645]]",1,2.257
8729829169,f,18,french,3,5,french,2024-01-25 10:34:02.479147,False,2,381,sounds\english\audio/english_688.wav,"[[  0.         -29.94010546]
 [  0.1        -41.32005189]
 [  0.2         60.5114301 ]
 [  0.3        -11.57251233]
 [  0.4        -32.48909096]
 [  0.5         70.68045254]
 [  0.6        -93.57410751]
 [  0.7        -35.20217483]
 [  0.8        -56.48380795]
 [  0.9         29.31296217]
 [  1.         -66.64221323]
 [  1.09391667  61.92592934]]","[[0.         0.64779988]
 [0.1        0.86768487]
 [0.2        1.84873786]
 [0.3        1.12374148]
 [0.4        1.48328397]
 [0.5        0.61802845]
 [0.6        0.25217431]
 [0.7        0.64703385]
 [0.8        0.24929174]
 [0.9        0.36133188]
 [1.         0.49659231]
 [1.09391667 0.74443623]]",1,0.639
