subj,sex,age,language,english,french,native_lang,date,practice,block,trial,stim,pitch,stretch,response,rt
3,m,24,french,3,5,french,2024-02-09 11:37:30.674810,True,0,0,sounds\english\audio/english_743.wav,"[[  0.          97.77122609]
 [  0.1         75.39760322]
 [  0.2        -92.56300928]
 [  0.3         73.60734954]
 [  0.4         84.82420222]
 [  0.5        -57.35733587]
 [  0.6         36.05799571]
 [  0.7        -80.10781894]
 [  0.8         79.81818761]
 [  0.9         71.53815245]
 [  1.          39.3075371 ]
 [  1.09391667  85.61049635]]","[[0.         0.40936323]
 [0.1        0.83333714]
 [0.2        1.9299588 ]
 [0.3        0.31044819]
 [0.4        1.11112706]
 [0.5        0.30641345]
 [0.6        1.79191215]
 [0.7        1.43353199]
 [0.8        0.61341243]
 [0.9        1.6920607 ]
 [1.         0.85862509]
 [1.09391667 0.78833379]]",0,8.094
3,m,24,french,3,5,french,2024-02-09 11:37:30.674810,True,0,1,sounds\english\audio/english_311.wav,"[[  0.          64.66080996]
 [  0.1        -69.02575999]
 [  0.2        -67.68739859]
 [  0.3         44.13725608]
 [  0.4         93.17105676]
 [  0.5         84.82973528]
 [  0.6        -34.91706274]
 [  0.7        -93.26420788]
 [  0.8         78.86658017]
 [  0.9        -56.88823021]
 [  1.          16.33779759]
 [  1.09391667  54.14062415]]","[[0.         0.82460416]
 [0.1        0.36483522]
 [0.2        0.7494254 ]
 [0.3        0.5130867 ]
 [0.4        0.37208425]
 [0.5        1.19695655]
 [0.6        0.97358849]
 [0.7        1.42777336]
 [0.8        1.14684196]
 [0.9        0.88829321]
 [1.         0.74783525]
 [1.09391667 1.42501308]]",0,0.599
3,m,24,french,3,5,french,2024-02-09 11:37:30.674810,True,0,2,sounds\english\audio/english_941.wav,"[[  0.          20.77635957]
 [  0.1         84.18412802]
 [  0.2         81.7824789 ]
 [  0.3        -65.01001067]
 [  0.4        -69.73335491]
 [  0.5        -48.20566779]
 [  0.6        -56.64571388]
 [  0.7         87.2772128 ]
 [  0.8         79.54307519]
 [  0.9        -76.46594653]
 [  1.           9.80024824]
 [  1.09391667  72.4068819 ]]","[[0.         0.46109058]
 [0.1        0.36744314]
 [0.2        0.41976503]
 [0.3        1.53863135]
 [0.4        0.40642155]
 [0.5        0.50454488]
 [0.6        1.75271769]
 [0.7        1.86297038]
 [0.8        0.65261885]
 [0.9        0.02035456]
 [1.         0.89946845]
 [1.09391667 0.70615835]]",0,0.718
3,m,24,french,3,5,french,2024-02-09 11:37:30.674810,False,1,3,sounds\english\audio/english_540.wav,"[[  0.          56.3389614 ]
 [  0.1         15.5810044 ]
 [  0.2        -57.00882779]
 [  0.3        -38.51831774]
 [  0.4         -2.48649571]
 [  0.5         47.94489788]
 [  0.6        -25.26992134]
 [  0.7         71.13867004]
 [  0.8        -84.74018584]
 [  0.9         36.45045372]
 [  1.          21.99011702]
 [  1.09391667  81.39151634]]","[[0.         0.35919702]
 [0.1        0.12290397]
 [0.2        0.4388906 ]
 [0.3        1.4101729 ]
 [0.4        1.50441402]
 [0.5        0.12973549]
 [0.6        1.5432215 ]
 [0.7        0.81755123]
 [0.8        1.08085579]
 [0.9        1.434422  ]
 [1.         0.97494001]
 [1.09391667 0.80759169]]",1,1.421
3,m,24,french,3,5,french,2024-02-09 11:37:30.674810,False,1,4,sounds\english\audio/english_791.wav,"[[  0.         -46.06630558]
 [  0.1        -10.41029295]
 [  0.2         46.47346809]
 [  0.3        -10.43860287]
 [  0.4        -38.16717219]
 [  0.5         44.56559314]
 [  0.6         43.70696978]
 [  0.7         -5.54884815]
 [  0.8         89.91059564]
 [  0.9         90.72111025]
 [  1.           4.8020349 ]
 [  1.09391667   7.87463746]]","[[0.         1.16002163]
 [0.1        1.31545425]
 [0.2        0.89173565]
 [0.3        0.05427007]
 [0.4        1.4017057 ]
 [0.5        0.47849772]
 [0.6        1.59729287]
 [0.7        1.50901191]
 [0.8        0.68083576]
 [0.9        1.62669182]
 [1.         1.81653342]
 [1.09391667 1.33572141]]",1,2.629
3,m,24,french,3,5,french,2024-02-09 11:37:30.674810,False,1,5,sounds\english\audio/english_747.wav,"[[  0.          33.9885207 ]
 [  0.1        -71.14283381]
 [  0.2        -52.52906762]
 [  0.3         79.5756924 ]
 [  0.4        -13.30932063]
 [  0.5         25.54535415]
 [  0.6          8.02344494]
 [  0.7        -38.13543806]
 [  0.8         22.33599648]
 [  0.9        -26.77712134]
 [  1.          -6.09351927]
 [  1.09391667  43.23579595]]","[[0.         1.47964533]
 [0.1        1.57695323]
 [0.2        1.13707985]
 [0.3        1.65073603]
 [0.4        0.47172054]
 [0.5        1.37786003]
 [0.6        1.58889604]
 [0.7        1.29683876]
 [0.8        1.65514229]
 [0.9        1.18735968]
 [1.         1.37962036]
 [1.09391667 1.3791581 ]]",0,0.406
3,m,24,french,3,5,french,2024-02-09 11:37:30.674810,False,1,6,sounds\english\audio/english_455.wav,"[[  0.          26.42834913]
 [  0.1         -7.65720218]
 [  0.2        -36.03524122]
 [  0.3         -9.36591816]
 [  0.4         74.01503077]
 [  0.5        -66.92719297]
 [  0.6        -30.7057444 ]
 [  0.7         40.84752834]
 [  0.8         15.65936383]
 [  0.9        -13.21472975]
 [  1.          44.82999828]
 [  1.09391667 -79.02570563]]","[[0.         1.62221941]
 [0.1        1.46036611]
 [0.2        1.24406571]
 [0.3        1.98304613]
 [0.4        0.42616314]
 [0.5        0.24476163]
 [0.6        1.77552442]
 [0.7        1.05242247]
 [0.8        0.70330742]
 [0.9        0.60059781]
 [1.         0.40485906]
 [1.09391667 1.70610938]]",0,0.457
3,m,24,french,3,5,french,2024-02-09 11:37:30.674810,False,1,7,sounds\english\audio/english_204.wav,"[[  0.         -54.18548322]
 [  0.1        -11.27218157]
 [  0.2         57.70913134]
 [  0.3        -85.27797026]
 [  0.4         28.61054009]
 [  0.5        -36.71816677]
 [  0.6        -27.72446487]
 [  0.7         14.69142801]
 [  0.8          9.61746044]
 [  0.9         22.67127582]
 [  1.          69.36328148]
 [  1.09391667 -44.4283226 ]]","[[0.         0.4935822 ]
 [0.1        1.37686427]
 [0.2        1.17627269]
 [0.3        1.14645494]
 [0.4        1.61303053]
 [0.5        0.72559221]
 [0.6        1.95000364]
 [0.7        0.06695508]
 [0.8        1.52094915]
 [0.9        0.41034945]
 [1.         0.4470276 ]
 [1.09391667 1.93225144]]",1,2.229
3,m,24,french,3,5,french,2024-02-09 11:37:30.674810,False,1,8,sounds\english\audio/english_852.wav,"[[  0.         -72.43588369]
 [  0.1        -98.6251287 ]
 [  0.2        -89.42746768]
 [  0.3        -34.62530113]
 [  0.4         30.41205687]
 [  0.5          2.837509  ]
 [  0.6        -71.5278257 ]
 [  0.7         49.48057975]
 [  0.8         88.19174023]
 [  0.9         20.52660859]
 [  1.         -18.49679028]
 [  1.09391667  15.64652165]]","[[0.         0.36787591]
 [0.1        1.73505489]
 [0.2        1.62660713]
 [0.3        0.43311906]
 [0.4        0.44776213]
 [0.5        1.35793831]
 [0.6        0.32605315]
 [0.7        0.34111515]
 [0.8        1.45336533]
 [0.9        1.82703196]
 [1.         0.13003363]
 [1.09391667 0.89322684]]",0,0.201
3,m,24,french,3,5,french,2024-02-09 11:37:30.674810,False,1,9,sounds\english\audio/english_781.wav,"[[  0.          13.49860993]
 [  0.1         78.16193023]
 [  0.2         43.40540276]
 [  0.3         44.39381188]
 [  0.4          1.19618008]
 [  0.5         97.39796145]
 [  0.6        -80.74515196]
 [  0.7         24.03355654]
 [  0.8        -69.35175607]
 [  0.9         69.20236756]
 [  1.          35.51398516]
 [  1.09391667 -53.23346631]]","[[0.         0.0422445 ]
 [0.1        0.76912714]
 [0.2        1.16484067]
 [0.3        0.51341231]
 [0.4        0.61057315]
 [0.5        1.22595164]
 [0.6        0.0959771 ]
 [0.7        0.86869214]
 [0.8        1.17997392]
 [0.9        1.93834455]
 [1.         0.60620459]
 [1.09391667 1.46133915]]",1,0.298
3,m,24,french,3,5,french,2024-02-09 11:37:30.674810,False,1,10,sounds\english\audio/english_600.wav,"[[  0.          54.02401202]
 [  0.1         52.55241108]
 [  0.2        -17.52140944]
 [  0.3        -39.51158997]
 [  0.4        -76.99480414]
 [  0.5        -69.00053843]
 [  0.6         69.67412094]
 [  0.7         42.48437255]
 [  0.8        -15.33622164]
 [  0.9        -55.53099045]
 [  1.         -56.79297969]
 [  1.09391667  25.01258484]]","[[0.         1.74963926]
 [0.1        1.86361288]
 [0.2        1.08718427]
 [0.3        1.33817406]
 [0.4        0.48398336]
 [0.5        0.58536734]
 [0.6        1.17578893]
 [0.7        1.61345559]
 [0.8        1.78194792]
 [0.9        0.88901516]
 [1.         1.65574545]
 [1.09391667 1.81372246]]",0,0.699
3,m,24,french,3,5,french,2024-02-09 11:37:30.674810,False,1,11,sounds\english\audio/english_845.wav,"[[  0.         -61.18892781]
 [  0.1          8.4641668 ]
 [  0.2          0.84088791]
 [  0.3         -9.8412312 ]
 [  0.4        -21.11860301]
 [  0.5         34.07912785]
 [  0.6         64.64422996]
 [  0.7         81.5282496 ]
 [  0.8        -41.49609234]
 [  0.9        -61.24692635]
 [  1.         -26.75626129]
 [  1.09391667 -16.60910859]]","[[0.         1.55957949]
 [0.1        1.05534156]
 [0.2        0.93552033]
 [0.3        0.24777776]
 [0.4        1.606596  ]
 [0.5        0.0797637 ]
 [0.6        1.39069449]
 [0.7        1.71426298]
 [0.8        1.5257375 ]
 [0.9        1.70112136]
 [1.         1.79204809]
 [1.09391667 0.33711634]]",1,0.238
3,m,24,french,3,5,french,2024-02-09 11:37:30.674810,False,1,12,sounds\english\audio/english_879.wav,"[[  0.         -41.71376067]
 [  0.1          5.81272632]
 [  0.2        -22.32054487]
 [  0.3         93.64091385]
 [  0.4        -40.92402167]
 [  0.5         13.45427288]
 [  0.6        -86.15210755]
 [  0.7        -20.9667874 ]
 [  0.8        -18.58842444]
 [  0.9        -72.1364449 ]
 [  1.         -83.06025628]
 [  1.09391667  76.41221389]]","[[0.         1.10654485]
 [0.1        1.32832236]
 [0.2        1.5555922 ]
 [0.3        0.11041486]
 [0.4        1.31993608]
 [0.5        1.7629303 ]
 [0.6        1.83129602]
 [0.7        1.42589619]
 [0.8        0.74351112]
 [0.9        0.32763887]
 [1.         1.7749803 ]
 [1.09391667 1.6164567 ]]",0,0.398
3,m,24,french,3,5,french,2024-02-09 11:37:30.674810,False,1,13,sounds\english\audio/english_580.wav,"[[  0.          13.25816798]
 [  0.1          5.77647533]
 [  0.2         72.78999168]
 [  0.3        -47.92422824]
 [  0.4        -43.47633617]
 [  0.5         77.25010358]
 [  0.6          3.91161984]
 [  0.7         81.00627676]
 [  0.8        -33.28825485]
 [  0.9         -0.84600443]
 [  1.         -76.41274274]
 [  1.09391667 -41.12581414]]","[[0.         1.08575691]
 [0.1        0.54086757]
 [0.2        0.73021835]
 [0.3        1.37147127]
 [0.4        0.74349833]
 [0.5        1.2598917 ]
 [0.6        0.03492262]
 [0.7        1.8293003 ]
 [0.8        0.6502698 ]
 [0.9        1.16525453]
 [1.         1.3130508 ]
 [1.09391667 1.44461782]]",0,0.377
3,m,24,french,3,5,french,2024-02-09 11:37:30.674810,False,1,14,sounds\english\audio/english_570.wav,"[[  0.           4.27892196]
 [  0.1        -65.10560908]
 [  0.2        -46.49099881]
 [  0.3         92.02313014]
 [  0.4        -62.36360028]
 [  0.5         -5.7481882 ]
 [  0.6        -29.57103274]
 [  0.7        -12.57991884]
 [  0.8         -0.28533532]
 [  0.9         70.53696138]
 [  1.         -21.79274863]
 [  1.09391667  77.34028184]]","[[0.         1.38341141]
 [0.1        0.63616801]
 [0.2        0.88657916]
 [0.3        1.65534728]
 [0.4        0.58832985]
 [0.5        0.35954779]
 [0.6        0.83826919]
 [0.7        1.34190797]
 [0.8        0.71480272]
 [0.9        1.84273358]
 [1.         1.41836707]
 [1.09391667 1.74855227]]",1,0.173
3,m,24,french,3,5,french,2024-02-09 11:37:30.674810,False,1,15,sounds\english\audio/english_430.wav,"[[  0.         -88.95761908]
 [  0.1         39.34804897]
 [  0.2        -21.72599187]
 [  0.3        -97.97733292]
 [  0.4         98.23201219]
 [  0.5         92.79611353]
 [  0.6         44.81381594]
 [  0.7        -96.67681225]
 [  0.8         99.24041947]
 [  0.9         33.24344921]
 [  1.         -26.01349309]
 [  1.09391667 -84.24925862]]","[[0.         1.0411215 ]
 [0.1        1.73577333]
 [0.2        0.8754531 ]
 [0.3        0.18874451]
 [0.4        1.1142071 ]
 [0.5        0.3830467 ]
 [0.6        0.5347185 ]
 [0.7        0.4014233 ]
 [0.8        0.50454446]
 [0.9        0.88496249]
 [1.         1.71251412]
 [1.09391667 1.92006939]]",0,0.27
3,m,24,french,3,5,french,2024-02-09 11:37:30.674810,False,1,16,sounds\english\audio/english_728.wav,"[[  0.          86.97428458]
 [  0.1         68.85214371]
 [  0.2        -97.98565906]
 [  0.3         35.07930547]
 [  0.4        -30.18374109]
 [  0.5        -82.66469876]
 [  0.6         23.39578652]
 [  0.7         26.21600665]
 [  0.8         40.56146868]
 [  0.9          8.84190716]
 [  1.          42.34962336]
 [  1.09391667 -32.07226286]]","[[0.         1.28134459]
 [0.1        0.92040862]
 [0.2        0.75536346]
 [0.3        1.26670058]
 [0.4        0.22005976]
 [0.5        1.42168107]
 [0.6        1.49957944]
 [0.7        0.84685957]
 [0.8        0.54890831]
 [0.9        1.06754414]
 [1.         0.96376908]
 [1.09391667 0.10029528]]",0,0.53
3,m,24,french,3,5,french,2024-02-09 11:37:30.674810,False,1,17,sounds\english\audio/english_636.wav,"[[  0.          67.71914356]
 [  0.1         73.23750135]
 [  0.2        -94.77637622]
 [  0.3         41.8095849 ]
 [  0.4         44.54848263]
 [  0.5        -87.10854597]
 [  0.6         12.76932042]
 [  0.7        -15.47844842]
 [  0.8        -27.08826091]
 [  0.9         -8.55837042]
 [  1.          62.11399846]
 [  1.09391667   1.57014334]]","[[0.         0.71351394]
 [0.1        0.58810626]
 [0.2        0.12310704]
 [0.3        0.24518537]
 [0.4        1.96939905]
 [0.5        1.82615159]
 [0.6        0.20211228]
 [0.7        0.69598299]
 [0.8        0.43499073]
 [0.9        1.83264506]
 [1.         0.36387194]
 [1.09391667 0.65195864]]",1,0.775
3,m,24,french,3,5,french,2024-02-09 11:37:30.674810,False,1,18,sounds\english\audio/english_426.wav,"[[  0.         -67.17987083]
 [  0.1         70.02176421]
 [  0.2         82.2704811 ]
 [  0.3         -4.42560713]
 [  0.4        -22.03224373]
 [  0.5        -71.21536039]
 [  0.6         23.47193627]
 [  0.7        -95.21485964]
 [  0.8         76.54647   ]
 [  0.9         67.43828429]
 [  1.         -41.3478141 ]
 [  1.09391667  -8.81391429]]","[[0.         1.61589393]
 [0.1        1.03467422]
 [0.2        1.69488483]
 [0.3        0.26984678]
 [0.4        1.53427209]
 [0.5        1.44135847]
 [0.6        0.91698709]
 [0.7        0.33548871]
 [0.8        1.77334308]
 [0.9        1.62177199]
 [1.         0.29474728]
 [1.09391667 0.79627592]]",0,0.611
3,m,24,french,3,5,french,2024-02-09 11:37:30.674810,False,1,19,sounds\english\audio/english_329.wav,"[[  0.         -73.5267518 ]
 [  0.1         26.40936661]
 [  0.2         95.94954551]
 [  0.3        -92.18268605]
 [  0.4        -98.10910069]
 [  0.5        -61.34103681]
 [  0.6         34.88723994]
 [  0.7         66.83835425]
 [  0.8        -67.43059972]
 [  0.9         51.12526405]
 [  1.         -25.5134348 ]
 [  1.09391667 -82.24978729]]","[[0.         0.87153309]
 [0.1        1.24873758]
 [0.2        0.87594124]
 [0.3        0.88012103]
 [0.4        1.62824367]
 [0.5        1.41725229]
 [0.6        1.27607992]
 [0.7        0.30685243]
 [0.8        0.43279956]
 [0.9        0.74557381]
 [1.         0.84179224]
 [1.09391667 0.84260005]]",0,0.448
3,m,24,french,3,5,french,2024-02-09 11:37:30.674810,False,1,20,sounds\english\audio/english_278.wav,"[[  0.         -96.72610313]
 [  0.1        -36.86809982]
 [  0.2        -84.24626192]
 [  0.3        -29.99363641]
 [  0.4         21.41897552]
 [  0.5        -73.7985343 ]
 [  0.6        -83.05174317]
 [  0.7        -43.48487906]
 [  0.8        -48.22741203]
 [  0.9        -30.73203826]
 [  1.          22.54361358]
 [  1.09391667 -65.2249662 ]]","[[0.         0.83439052]
 [0.1        1.21055498]
 [0.2        0.05488492]
 [0.3        1.47058347]
 [0.4        0.68142996]
 [0.5        0.65955027]
 [0.6        1.54634177]
 [0.7        1.03072417]
 [0.8        0.15769377]
 [0.9        0.79374536]
 [1.         0.9877131 ]
 [1.09391667 1.82414956]]",0,0.84
3,m,24,french,3,5,french,2024-02-09 11:37:30.674810,False,1,21,sounds\english\audio/english_263.wav,"[[  0.          60.54836266]
 [  0.1         -7.25947701]
 [  0.2         57.3147166 ]
 [  0.3        -54.27216299]
 [  0.4        -55.29215067]
 [  0.5        -35.67260064]
 [  0.6         64.27930659]
 [  0.7         39.11312223]
 [  0.8        -36.26628423]
 [  0.9         24.26738527]
 [  1.          43.73514677]
 [  1.09391667 -15.47335433]]","[[0.         0.88286661]
 [0.1        0.15523443]
 [0.2        0.89947763]
 [0.3        1.94594407]
 [0.4        0.36252841]
 [0.5        0.43064253]
 [0.6        0.12649613]
 [0.7        0.99935682]
 [0.8        0.98138808]
 [0.9        1.68351405]
 [1.         0.97417267]
 [1.09391667 0.42659576]]",1,0.412
3,m,24,french,3,5,french,2024-02-09 11:37:30.674810,False,1,22,sounds\english\audio/english_442.wav,"[[  0.         -82.79812385]
 [  0.1         13.26533661]
 [  0.2        -27.77858548]
 [  0.3         -8.21179447]
 [  0.4         42.22985327]
 [  0.5         28.42887923]
 [  0.6         80.44970592]
 [  0.7         21.26225147]
 [  0.8        -37.93625661]
 [  0.9        -26.7095537 ]
 [  1.         -21.16506099]
 [  1.09391667   7.34933703]]","[[0.         1.11396114]
 [0.1        1.75736632]
 [0.2        0.50029201]
 [0.3        0.94281284]
 [0.4        0.51943545]
 [0.5        1.6869371 ]
 [0.6        0.17301415]
 [0.7        1.48852219]
 [0.8        1.01404105]
 [0.9        1.17770211]
 [1.         1.73105649]
 [1.09391667 1.8720967 ]]",1,0.524
3,m,24,french,3,5,french,2024-02-09 11:37:30.674810,False,1,23,sounds\english\audio/english_144.wav,"[[  0.          31.57285019]
 [  0.1        -66.82367858]
 [  0.2         25.9026646 ]
 [  0.3        -73.3005143 ]
 [  0.4         44.123678  ]
 [  0.5         49.27770762]
 [  0.6         22.38256085]
 [  0.7         -9.16605426]
 [  0.8        -36.80428778]
 [  0.9         -3.57060361]
 [  1.         -56.05458997]
 [  1.09391667 -88.6470882 ]]","[[0.         1.02092862]
 [0.1        1.21687454]
 [0.2        0.83451974]
 [0.3        1.57454957]
 [0.4        0.07717076]
 [0.5        0.27181384]
 [0.6        1.7133157 ]
 [0.7        1.06775729]
 [0.8        1.42091993]
 [0.9        0.01524657]
 [1.         0.90246411]
 [1.09391667 1.74083532]]",0,0.229
3,m,24,french,3,5,french,2024-02-09 11:37:30.674810,False,1,24,sounds\english\audio/english_826.wav,"[[  0.         -48.66820204]
 [  0.1         15.87758798]
 [  0.2        -81.06156605]
 [  0.3        -38.67543271]
 [  0.4          8.70050458]
 [  0.5        -12.50279128]
 [  0.6         53.18940921]
 [  0.7         25.51770895]
 [  0.8         -2.14290614]
 [  0.9         59.43969754]
 [  1.          36.73554264]
 [  1.09391667  99.18694211]]","[[0.         0.50881221]
 [0.1        1.7988984 ]
 [0.2        0.35571274]
 [0.3        0.88871824]
 [0.4        0.81611388]
 [0.5        1.15396637]
 [0.6        0.06242761]
 [0.7        0.35293371]
 [0.8        1.13493967]
 [0.9        1.56070885]
 [1.         1.2686095 ]
 [1.09391667 1.14436626]]",1,0.122
3,m,24,french,3,5,french,2024-02-09 11:37:30.674810,False,1,25,sounds\english\audio/english_160.wav,"[[  0.          54.87282188]
 [  0.1         38.39559314]
 [  0.2         45.94024754]
 [  0.3         23.2538411 ]
 [  0.4        -76.36457338]
 [  0.5         -7.52503837]
 [  0.6        -67.2018033 ]
 [  0.7         40.79859053]
 [  0.8        -54.00476677]
 [  0.9        -39.47782367]
 [  1.          13.27455738]
 [  1.09391667  82.72582228]]","[[0.         1.23358014]
 [0.1        0.90117281]
 [0.2        1.29672558]
 [0.3        1.0625388 ]
 [0.4        1.82179424]
 [0.5        0.15771982]
 [0.6        1.20020733]
 [0.7        1.72655744]
 [0.8        1.68926394]
 [0.9        0.81447331]
 [1.         0.52461363]
 [1.09391667 1.24111221]]",0,0.704
3,m,24,french,3,5,french,2024-02-09 11:37:30.674810,False,1,26,sounds\english\audio/english_571.wav,"[[  0.          66.27002453]
 [  0.1         72.56873765]
 [  0.2        -47.18075811]
 [  0.3        -50.2773596 ]
 [  0.4        -37.39995802]
 [  0.5         44.57144772]
 [  0.6        -77.42232626]
 [  0.7        -61.53894289]
 [  0.8         57.25780133]
 [  0.9        -53.9092717 ]
 [  1.          79.641801  ]
 [  1.09391667  81.23373834]]","[[0.         0.70496708]
 [0.1        1.41341806]
 [0.2        1.56676293]
 [0.3        1.96972076]
 [0.4        1.04150982]
 [0.5        0.64987665]
 [0.6        0.50073604]
 [0.7        1.36720733]
 [0.8        0.69150917]
 [0.9        0.1917381 ]
 [1.         1.04532949]
 [1.09391667 0.53527151]]",0,0.68
3,m,24,french,3,5,french,2024-02-09 11:37:30.674810,False,1,27,sounds\english\audio/english_509.wav,"[[  0.         -60.47633283]
 [  0.1         62.43182062]
 [  0.2        -89.10254598]
 [  0.3        -56.00324349]
 [  0.4        -22.97503075]
 [  0.5        -10.58010289]
 [  0.6         41.52809509]
 [  0.7         11.42336317]
 [  0.8        -33.49389875]
 [  0.9        -76.54160855]
 [  1.          67.53120636]
 [  1.09391667  52.42137891]]","[[0.         1.8433091 ]
 [0.1        0.67753575]
 [0.2        0.6228286 ]
 [0.3        1.20175852]
 [0.4        0.68327781]
 [0.5        1.6981399 ]
 [0.6        1.77808046]
 [0.7        0.9915964 ]
 [0.8        1.58247003]
 [0.9        0.51702523]
 [1.         1.67242009]
 [1.09391667 0.41732509]]",1,0.162
3,m,24,french,3,5,french,2024-02-09 11:37:30.674810,False,1,28,sounds\english\audio/english_191.wav,"[[  0.         -24.02277358]
 [  0.1         63.4439463 ]
 [  0.2        -22.47731103]
 [  0.3         -9.99025732]
 [  0.4         58.56180387]
 [  0.5         62.8001027 ]
 [  0.6         15.39253294]
 [  0.7         56.82172684]
 [  0.8        -77.92272587]
 [  0.9        -72.7474465 ]
 [  1.         -73.86130367]
 [  1.09391667 -78.65780479]]","[[0.         1.0914461 ]
 [0.1        0.33098092]
 [0.2        1.86196051]
 [0.3        0.09450542]
 [0.4        1.1158369 ]
 [0.5        0.90347235]
 [0.6        1.55895669]
 [0.7        1.11486536]
 [0.8        0.70296155]
 [0.9        1.56868029]
 [1.         1.33347033]
 [1.09391667 1.27370222]]",1,0.282
3,m,24,french,3,5,french,2024-02-09 11:37:30.674810,False,1,29,sounds\english\audio/english_118.wav,"[[  0.          37.82351895]
 [  0.1        -67.70818615]
 [  0.2         68.69944334]
 [  0.3         52.36371426]
 [  0.4         75.26535893]
 [  0.5        -76.41094454]
 [  0.6          0.45465547]
 [  0.7         55.44753482]
 [  0.8        -53.17394643]
 [  0.9        -98.70911392]
 [  1.          -4.73000909]
 [  1.09391667 -39.29610214]]","[[0.         1.3762948 ]
 [0.1        0.33841533]
 [0.2        0.45852716]
 [0.3        1.7289391 ]
 [0.4        1.37893215]
 [0.5        1.61108602]
 [0.6        0.84685901]
 [0.7        1.08403972]
 [0.8        0.42004792]
 [0.9        0.56823128]
 [1.         1.43622179]
 [1.09391667 1.0044269 ]]",0,0.214
3,m,24,french,3,5,french,2024-02-09 11:37:30.674810,False,1,30,sounds\english\audio/english_839.wav,"[[  0.          25.22327534]
 [  0.1         65.97179868]
 [  0.2         36.46298268]
 [  0.3          0.36789595]
 [  0.4         37.25543056]
 [  0.5         13.61304399]
 [  0.6         40.85367399]
 [  0.7         92.87994107]
 [  0.8         40.19777361]
 [  0.9        -27.70209944]
 [  1.         -75.44304357]
 [  1.09391667  15.82899147]]","[[0.         0.79021115]
 [0.1        1.36275453]
 [0.2        0.56940252]
 [0.3        1.38606336]
 [0.4        1.49876521]
 [0.5        1.33513266]
 [0.6        0.34922841]
 [0.7        1.58402098]
 [0.8        0.73275133]
 [0.9        1.05467816]
 [1.         1.81419779]
 [1.09391667 1.89560881]]",1,0.099
3,m,24,french,3,5,french,2024-02-09 11:37:30.674810,False,1,31,sounds\english\audio/english_72.wav,"[[  0.          25.66196689]
 [  0.1         91.6871729 ]
 [  0.2         20.71991496]
 [  0.3         25.2834681 ]
 [  0.4         58.88880859]
 [  0.5         33.55084541]
 [  0.6         58.54373553]
 [  0.7        -85.40468838]
 [  0.8         27.70213239]
 [  0.9         14.78832573]
 [  1.          43.85438073]
 [  1.09391667 -19.73458621]]","[[0.         1.61992503]
 [0.1        1.16223347]
 [0.2        0.76041055]
 [0.3        1.27583567]
 [0.4        1.53150699]
 [0.5        0.86195905]
 [0.6        0.4732401 ]
 [0.7        1.47524268]
 [0.8        0.5818617 ]
 [0.9        1.26843549]
 [1.         0.6029755 ]
 [1.09391667 0.39538299]]",0,0.149
3,m,24,french,3,5,french,2024-02-09 11:37:30.674810,False,1,32,sounds\english\audio/english_755.wav,"[[  0.         -75.26385552]
 [  0.1        -77.54873454]
 [  0.2         13.4311812 ]
 [  0.3          7.92656706]
 [  0.4         43.04088715]
 [  0.5        -52.66329155]
 [  0.6         84.44946609]
 [  0.7         35.14899848]
 [  0.8        -13.90496644]
 [  0.9         10.2251388 ]
 [  1.         -36.70454503]
 [  1.09391667  11.3834831 ]]","[[0.         0.09689384]
 [0.1        0.88213328]
 [0.2        0.06512801]
 [0.3        1.12427914]
 [0.4        0.73534916]
 [0.5        0.96891313]
 [0.6        0.99997318]
 [0.7        1.2765527 ]
 [0.8        1.38017734]
 [0.9        1.18692736]
 [1.         0.69548573]
 [1.09391667 0.72968454]]",1,0.276
3,m,24,french,3,5,french,2024-02-09 11:37:30.674810,False,1,33,sounds\english\audio/english_206.wav,"[[  0.         -99.12855739]
 [  0.1        -89.51576504]
 [  0.2        -90.40464902]
 [  0.3        -70.32755561]
 [  0.4         78.03699917]
 [  0.5          8.07565508]
 [  0.6         38.18456427]
 [  0.7        -75.53493724]
 [  0.8         54.10683872]
 [  0.9        -40.64897969]
 [  1.          -1.29434589]
 [  1.09391667  55.83604692]]","[[0.         1.20636597]
 [0.1        0.87803278]
 [0.2        1.07282405]
 [0.3        1.36131617]
 [0.4        0.62923097]
 [0.5        1.02359746]
 [0.6        0.86752629]
 [0.7        1.35404338]
 [0.8        1.4732865 ]
 [0.9        0.47250575]
 [1.         1.31829488]
 [1.09391667 0.97831941]]",1,1.231
3,m,24,french,3,5,french,2024-02-09 11:37:30.674810,False,1,34,sounds\english\audio/english_299.wav,"[[  0.         -74.4174694 ]
 [  0.1         67.95279973]
 [  0.2        -39.20846612]
 [  0.3         75.10442899]
 [  0.4         64.17156696]
 [  0.5        -42.38450544]
 [  0.6        -86.29317574]
 [  0.7         11.40905892]
 [  0.8         13.2984643 ]
 [  0.9        -36.56440039]
 [  1.         -93.57212319]
 [  1.09391667  13.37429031]]","[[0.         1.88606728]
 [0.1        1.33791825]
 [0.2        1.49728268]
 [0.3        0.10286405]
 [0.4        0.88852199]
 [0.5        0.77437708]
 [0.6        1.38211023]
 [0.7        1.00427558]
 [0.8        1.53256025]
 [0.9        1.00789046]
 [1.         0.84413966]
 [1.09391667 1.54480909]]",0,0.347
3,m,24,french,3,5,french,2024-02-09 11:37:30.674810,False,1,35,sounds\english\audio/english_103.wav,"[[  0.          48.6835233 ]
 [  0.1         36.55238137]
 [  0.2         48.06121709]
 [  0.3        -53.21418968]
 [  0.4        -84.49986715]
 [  0.5          2.274647  ]
 [  0.6         65.76169241]
 [  0.7        -54.56461338]
 [  0.8         -9.60778265]
 [  0.9         20.85441667]
 [  1.         -75.91935247]
 [  1.09391667 -89.16544197]]","[[0.         0.31659488]
 [0.1        0.91966706]
 [0.2        0.7088313 ]
 [0.3        0.61655079]
 [0.4        0.3504638 ]
 [0.5        0.15173733]
 [0.6        0.65986716]
 [0.7        1.01542857]
 [0.8        0.43719066]
 [0.9        1.38316606]
 [1.         1.2339212 ]
 [1.09391667 1.84830476]]",0,0.755
3,m,24,french,3,5,french,2024-02-09 11:37:30.674810,False,1,36,sounds\english\audio/english_587.wav,"[[  0.         -43.40275294]
 [  0.1        -37.77994111]
 [  0.2         83.99553821]
 [  0.3        -96.01654656]
 [  0.4         -9.71349701]
 [  0.5        -47.87514317]
 [  0.6         12.68053189]
 [  0.7         47.90702589]
 [  0.8        -78.79796743]
 [  0.9         -5.96294959]
 [  1.          11.2587131 ]
 [  1.09391667 -13.10275262]]","[[0.         0.40076924]
 [0.1        1.21668484]
 [0.2        1.2277233 ]
 [0.3        0.71292194]
 [0.4        0.26055353]
 [0.5        1.66513876]
 [0.6        0.2591497 ]
 [0.7        0.90449777]
 [0.8        0.87118045]
 [0.9        1.32264247]
 [1.         1.86277567]
 [1.09391667 0.24936359]]",1,0.17
3,m,24,french,3,5,french,2024-02-09 11:37:30.674810,False,1,37,sounds\english\audio/english_260.wav,"[[  0.          15.97763116]
 [  0.1        -13.3847134 ]
 [  0.2        -29.63675022]
 [  0.3        -94.12252117]
 [  0.4         37.44404644]
 [  0.5        -13.47562993]
 [  0.6         28.72077468]
 [  0.7        -25.31213713]
 [  0.8         12.33791488]
 [  0.9          1.56732473]
 [  1.         -29.87361041]
 [  1.09391667   9.56042619]]","[[0.         1.94177241]
 [0.1        0.74015027]
 [0.2        0.26772348]
 [0.3        0.24482628]
 [0.4        0.73676391]
 [0.5        0.3869803 ]
 [0.6        0.62582606]
 [0.7        0.50244213]
 [0.8        0.1260874 ]
 [0.9        0.8031848 ]
 [1.         1.5387452 ]
 [1.09391667 0.69389389]]",0,0.091
3,m,24,french,3,5,french,2024-02-09 11:37:30.674810,False,1,38,sounds\english\audio/english_734.wav,"[[  0.          37.80658654]
 [  0.1         90.1003789 ]
 [  0.2        -17.90602095]
 [  0.3        -31.44385996]
 [  0.4         44.9323419 ]
 [  0.5        -31.11774155]
 [  0.6         97.37077349]
 [  0.7         83.67731812]
 [  0.8        -92.96209535]
 [  0.9        -86.38679985]
 [  1.         -15.69243899]
 [  1.09391667 -68.67808483]]","[[0.         0.89840931]
 [0.1        1.2414915 ]
 [0.2        1.52855063]
 [0.3        0.60902156]
 [0.4        1.0676513 ]
 [0.5        0.47732506]
 [0.6        0.01117227]
 [0.7        1.95948527]
 [0.8        1.72730216]
 [0.9        0.10005855]
 [1.         1.31074677]
 [1.09391667 0.47077758]]",0,0.537
3,m,24,french,3,5,french,2024-02-09 11:37:30.674810,False,1,39,sounds\english\audio/english_466.wav,"[[  0.          29.78122055]
 [  0.1          1.00212309]
 [  0.2         84.88341441]
 [  0.3         18.0671926 ]
 [  0.4        -63.20091068]
 [  0.5         -1.15346207]
 [  0.6         -1.70645236]
 [  0.7         37.24590025]
 [  0.8        -40.92862731]
 [  0.9        -58.08317272]
 [  1.         -59.75718078]
 [  1.09391667  13.82760032]]","[[0.         0.08614047]
 [0.1        0.60651355]
 [0.2        0.95660543]
 [0.3        0.08485907]
 [0.4        0.78105645]
 [0.5        0.10730209]
 [0.6        1.7980607 ]
 [0.7        1.48241485]
 [0.8        0.1626415 ]
 [0.9        1.43527927]
 [1.         0.97707475]
 [1.09391667 1.6467926 ]]",1,0.178
3,m,24,french,3,5,french,2024-02-09 11:37:30.674810,False,1,40,sounds\english\audio/english_291.wav,"[[  0.         -35.42543517]
 [  0.1        -58.51846155]
 [  0.2        -22.76348489]
 [  0.3         19.21250817]
 [  0.4         10.39547897]
 [  0.5        -11.61823126]
 [  0.6        -78.73745365]
 [  0.7        -83.41752971]
 [  0.8         27.65579478]
 [  0.9        -91.79765348]
 [  1.          39.55856781]
 [  1.09391667  64.357963  ]]","[[0.         1.79657699]
 [0.1        0.45193929]
 [0.2        1.43927243]
 [0.3        0.51811893]
 [0.4        0.67991537]
 [0.5        1.97176362]
 [0.6        1.52786701]
 [0.7        0.24358096]
 [0.8        0.76180969]
 [0.9        0.40398826]
 [1.         0.49665503]
 [1.09391667 1.15353833]]",0,0.192
3,m,24,french,3,5,french,2024-02-09 11:37:30.674810,False,1,41,sounds\english\audio/english_454.wav,"[[  0.         -40.724684  ]
 [  0.1         68.37921334]
 [  0.2        -30.05855576]
 [  0.3        -38.49973025]
 [  0.4         20.79675368]
 [  0.5         97.95643376]
 [  0.6         60.86620442]
 [  0.7         79.81874649]
 [  0.8          3.83765836]
 [  0.9         67.59623448]
 [  1.         -91.57077167]
 [  1.09391667  10.80867564]]","[[0.         1.6228839 ]
 [0.1        0.13004392]
 [0.2        0.71367383]
 [0.3        0.85329946]
 [0.4        1.21776669]
 [0.5        0.59038082]
 [0.6        0.28627533]
 [0.7        1.2119593 ]
 [0.8        0.67514721]
 [0.9        0.51660642]
 [1.         0.97010822]
 [1.09391667 1.23476154]]",1,0.324
3,m,24,french,3,5,french,2024-02-09 11:37:30.674810,False,1,42,sounds\english\audio/english_638.wav,"[[  0.          27.0849984 ]
 [  0.1        -76.77372335]
 [  0.2         -5.6974772 ]
 [  0.3        -27.04640621]
 [  0.4         10.67934685]
 [  0.5        -13.18628206]
 [  0.6         11.34372698]
 [  0.7        -64.2430687 ]
 [  0.8         46.35115049]
 [  0.9         44.69499683]
 [  1.         -11.73136011]
 [  1.09391667 -77.04953993]]","[[0.         1.3280689 ]
 [0.1        0.56896387]
 [0.2        0.56746927]
 [0.3        0.40067671]
 [0.4        1.88228275]
 [0.5        0.52168705]
 [0.6        0.80905376]
 [0.7        1.41810717]
 [0.8        1.8285697 ]
 [0.9        0.3100636 ]
 [1.         1.74790386]
 [1.09391667 1.8348397 ]]",1,0.054
3,m,24,french,3,5,french,2024-02-09 11:37:30.674810,False,1,43,sounds\english\audio/english_235.wav,"[[  0.          44.65499148]
 [  0.1         77.52873905]
 [  0.2          7.66193616]
 [  0.3        -36.65234069]
 [  0.4        -38.57977077]
 [  0.5        -69.81992681]
 [  0.6         -3.21185942]
 [  0.7         -3.7989625 ]
 [  0.8        -60.5356981 ]
 [  0.9         10.60420307]
 [  1.          73.74029871]
 [  1.09391667 -42.3978276 ]]","[[0.         0.45157531]
 [0.1        0.81502167]
 [0.2        0.73184795]
 [0.3        1.39041991]
 [0.4        0.8131102 ]
 [0.5        0.63770546]
 [0.6        0.48204551]
 [0.7        0.64449527]
 [0.8        0.17411585]
 [0.9        1.43103789]
 [1.         1.90034823]
 [1.09391667 0.79167247]]",0,0.077
3,m,24,french,3,5,french,2024-02-09 11:37:30.674810,False,1,44,sounds\english\audio/english_724.wav,"[[  0.         -56.76875747]
 [  0.1        -86.21406354]
 [  0.2         60.18994207]
 [  0.3        -73.18576328]
 [  0.4          9.02898682]
 [  0.5          0.09152752]
 [  0.6        -45.20734969]
 [  0.7         41.14572905]
 [  0.8         -8.90641818]
 [  0.9         16.12067161]
 [  1.          72.53679682]
 [  1.09391667  17.69672556]]","[[0.         1.98134375]
 [0.1        1.3755847 ]
 [0.2        0.59510503]
 [0.3        0.94085573]
 [0.4        1.58537713]
 [0.5        0.37644638]
 [0.6        0.99166811]
 [0.7        0.69217337]
 [0.8        0.6776497 ]
 [0.9        0.10142147]
 [1.         1.80502318]
 [1.09391667 1.15790189]]",0,0.236
3,m,24,french,3,5,french,2024-02-09 11:37:30.674810,False,1,45,sounds\english\audio/english_675.wav,"[[  0.         -55.70103266]
 [  0.1        -28.01284425]
 [  0.2          7.20629908]
 [  0.3        -88.65707162]
 [  0.4        -27.84357002]
 [  0.5        -20.24546059]
 [  0.6         20.54719109]
 [  0.7        -91.70059837]
 [  0.8        -73.21008585]
 [  0.9         41.37635308]
 [  1.           8.96435743]
 [  1.09391667 -83.64569899]]","[[0.         0.31166963]
 [0.1        0.86348118]
 [0.2        0.70830416]
 [0.3        1.06551889]
 [0.4        1.20889774]
 [0.5        1.96243663]
 [0.6        0.99424305]
 [0.7        1.67190932]
 [0.8        0.91833311]
 [0.9        1.02826617]
 [1.         1.43882248]
 [1.09391667 1.75988721]]",1,0.255
3,m,24,french,3,5,french,2024-02-09 11:37:30.674810,False,1,46,sounds\english\audio/english_463.wav,"[[  0.          10.50801154]
 [  0.1         53.01075337]
 [  0.2        -45.92576003]
 [  0.3         19.52430908]
 [  0.4        -49.30728031]
 [  0.5         14.12996474]
 [  0.6        -38.56124135]
 [  0.7         60.51994471]
 [  0.8        -80.92150268]
 [  0.9         77.91302957]
 [  1.         -17.96219129]
 [  1.09391667  -4.0549477 ]]","[[0.         1.17811947]
 [0.1        0.17767022]
 [0.2        0.48691175]
 [0.3        0.61421231]
 [0.4        1.08242916]
 [0.5        0.36464212]
 [0.6        1.11640778]
 [0.7        0.46617429]
 [0.8        1.24207175]
 [0.9        1.740718  ]
 [1.         0.97634615]
 [1.09391667 0.84642764]]",1,0.447
3,m,24,french,3,5,french,2024-02-09 11:37:30.674810,False,1,47,sounds\english\audio/english_274.wav,"[[  0.          90.15852298]
 [  0.1         54.46178194]
 [  0.2         92.29787974]
 [  0.3         56.79856413]
 [  0.4          6.80655331]
 [  0.5         85.98039627]
 [  0.6         79.54748497]
 [  0.7        -50.26158779]
 [  0.8         46.33910856]
 [  0.9        -52.2237302 ]
 [  1.          14.53688649]
 [  1.09391667  26.74527789]]","[[0.         1.09879686]
 [0.1        1.93033732]
 [0.2        1.35119606]
 [0.3        1.49147937]
 [0.4        1.75081802]
 [0.5        0.26277184]
 [0.6        1.06227003]
 [0.7        0.06438964]
 [0.8        0.88741243]
 [0.9        0.12141514]
 [1.         1.07853955]
 [1.09391667 0.24561082]]",0,0.298
3,m,24,french,3,5,french,2024-02-09 11:37:30.674810,False,1,48,sounds\english\audio/english_863.wav,"[[  0.           3.14313852]
 [  0.1        -23.21665248]
 [  0.2         94.57997372]
 [  0.3        -70.02674633]
 [  0.4         40.94796862]
 [  0.5         88.61836916]
 [  0.6         69.208784  ]
 [  0.7         77.12421504]
 [  0.8        -17.44873358]
 [  0.9        -87.01424673]
 [  1.         -56.04990787]
 [  1.09391667 -48.10301357]]","[[0.         1.16629305]
 [0.1        0.07060829]
 [0.2        0.73624632]
 [0.3        1.78608874]
 [0.4        1.19353904]
 [0.5        1.05800258]
 [0.6        1.13776513]
 [0.7        0.42226269]
 [0.8        1.07561455]
 [0.9        0.7154793 ]
 [1.         0.64178271]
 [1.09391667 1.63280959]]",0,1.163
3,m,24,french,3,5,french,2024-02-09 11:37:30.674810,False,1,49,sounds\english\audio/english_471.wav,"[[  0.         -44.33438949]
 [  0.1         16.47774329]
 [  0.2        -22.18014429]
 [  0.3         96.62980594]
 [  0.4          0.22905681]
 [  0.5         25.29876176]
 [  0.6         -1.90422532]
 [  0.7         20.77355212]
 [  0.8         26.61706742]
 [  0.9        -76.46197336]
 [  1.          74.78681403]
 [  1.09391667  70.35269737]]","[[0.         1.24178701]
 [0.1        1.49559335]
 [0.2        1.46207388]
 [0.3        0.79768684]
 [0.4        0.93952191]
 [0.5        1.31580264]
 [0.6        0.66385174]
 [0.7        0.36428101]
 [0.8        1.49472861]
 [0.9        1.78460372]
 [1.         1.14119983]
 [1.09391667 0.45644683]]",0,5.178
3,m,24,french,3,5,french,2024-02-09 11:37:30.674810,False,1,50,sounds\english\audio/english_230.wav,"[[  0.          33.38389537]
 [  0.1        -34.15374901]
 [  0.2        -17.15972141]
 [  0.3         -8.06213265]
 [  0.4         10.20192226]
 [  0.5        -58.60843687]
 [  0.6         79.76687213]
 [  0.7        -68.85443864]
 [  0.8        -14.23970475]
 [  0.9        -88.80466565]
 [  1.         -64.76676699]
 [  1.09391667 -85.72124736]]","[[0.         1.56748289]
 [0.1        0.35840318]
 [0.2        0.69573927]
 [0.3        1.48062695]
 [0.4        1.80584749]
 [0.5        0.27713833]
 [0.6        0.54911174]
 [0.7        0.47648858]
 [0.8        1.61704234]
 [0.9        1.41921333]
 [1.         0.47778277]
 [1.09391667 0.86213517]]",1,0.362
3,m,24,french,3,5,french,2024-02-09 11:37:30.674810,False,1,51,sounds\english\audio/english_934.wav,"[[  0.         -11.34943225]
 [  0.1         65.85322301]
 [  0.2        -85.4605192 ]
 [  0.3         13.55265206]
 [  0.4          0.50969379]
 [  0.5         69.19486286]
 [  0.6        -98.42209139]
 [  0.7        -96.61496438]
 [  0.8        -65.00160108]
 [  0.9         48.73056023]
 [  1.          10.84569579]
 [  1.09391667  97.87119684]]","[[0.         0.24415631]
 [0.1        1.37961224]
 [0.2        1.63298201]
 [0.3        0.01798396]
 [0.4        0.66397169]
 [0.5        0.2241268 ]
 [0.6        1.8505399 ]
 [0.7        1.29472214]
 [0.8        0.83065813]
 [0.9        1.34944931]
 [1.         1.40216081]
 [1.09391667 1.98377201]]",1,0.838
3,m,24,french,3,5,french,2024-02-09 11:37:30.674810,False,1,52,sounds\english\audio/english_291.wav,"[[  0.         -35.42543517]
 [  0.1        -58.51846155]
 [  0.2        -22.76348489]
 [  0.3         19.21250817]
 [  0.4         10.39547897]
 [  0.5        -11.61823126]
 [  0.6        -78.73745365]
 [  0.7        -83.41752971]
 [  0.8         27.65579478]
 [  0.9        -91.79765348]
 [  1.          39.55856781]
 [  1.09391667  64.357963  ]]","[[0.         1.79657699]
 [0.1        0.45193929]
 [0.2        1.43927243]
 [0.3        0.51811893]
 [0.4        0.67991537]
 [0.5        1.97176362]
 [0.6        1.52786701]
 [0.7        0.24358096]
 [0.8        0.76180969]
 [0.9        0.40398826]
 [1.         0.49665503]
 [1.09391667 1.15353833]]",0,0.429
3,m,24,french,3,5,french,2024-02-09 11:37:30.674810,False,1,53,sounds\english\audio/english_434.wav,"[[  0.          50.47761392]
 [  0.1        -33.38487677]
 [  0.2         -6.35895817]
 [  0.3         58.81206484]
 [  0.4          2.00815972]
 [  0.5        -28.96305016]
 [  0.6        -44.65800209]
 [  0.7         -3.89112712]
 [  0.8        -49.09619099]
 [  0.9        -79.81092904]
 [  1.          72.91556136]
 [  1.09391667  -8.48383865]]","[[0.         1.72511711]
 [0.1        0.67409863]
 [0.2        0.85225266]
 [0.3        1.03084546]
 [0.4        0.30841411]
 [0.5        0.11116274]
 [0.6        0.82038961]
 [0.7        1.79901884]
 [0.8        1.01461121]
 [0.9        1.16161114]
 [1.         1.34038877]
 [1.09391667 1.19926856]]",1,0.343
3,m,24,french,3,5,french,2024-02-09 11:37:30.674810,False,1,54,sounds\english\audio/english_764.wav,"[[  0.         -83.00734362]
 [  0.1         84.10171544]
 [  0.2         49.2008901 ]
 [  0.3        -10.6841825 ]
 [  0.4         -4.51825693]
 [  0.5         13.05855171]
 [  0.6        -89.35484482]
 [  0.7         31.98534685]
 [  0.8        -75.69390241]
 [  0.9         27.20832849]
 [  1.          56.31930051]
 [  1.09391667 -35.91935055]]","[[0.00000000e+00 1.43154352e+00]
 [1.00000000e-01 1.56325347e+00]
 [2.00000000e-01 1.26543708e+00]
 [3.00000000e-01 4.23798415e-01]
 [4.00000000e-01 1.27376863e+00]
 [5.00000000e-01 7.58380694e-01]
 [6.00000000e-01 1.00351200e-03]
 [7.00000000e-01 8.99071383e-01]
 [8.00000000e-01 1.10287579e+00]
 [9.00000000e-01 1.25133293e+00]
 [1.00000000e+00 1.83305733e+00]
 [1.09391667e+00 1.51505239e+00]]",1,1.19
3,m,24,french,3,5,french,2024-02-09 11:37:30.674810,False,1,55,sounds\english\audio/english_871.wav,"[[  0.         -17.51935002]
 [  0.1         48.49295959]
 [  0.2         58.25436474]
 [  0.3         19.88257457]
 [  0.4         50.10507231]
 [  0.5        -56.4846044 ]
 [  0.6        -59.75963758]
 [  0.7        -99.92210917]
 [  0.8        -47.06603955]
 [  0.9        -51.36141327]
 [  1.         -80.2024198 ]
 [  1.09391667 -23.03879421]]","[[0.         0.96351457]
 [0.1        1.65140424]
 [0.2        0.10129148]
 [0.3        1.12009066]
 [0.4        1.6763055 ]
 [0.5        1.91634806]
 [0.6        0.79788864]
 [0.7        1.02975972]
 [0.8        0.06596749]
 [0.9        0.92212705]
 [1.         1.99068199]
 [1.09391667 0.00440735]]",0,0.326
3,m,24,french,3,5,french,2024-02-09 11:37:30.674810,False,1,56,sounds\english\audio/english_821.wav,"[[  0.          60.02897282]
 [  0.1        -31.71016541]
 [  0.2         65.3097336 ]
 [  0.3         39.90488009]
 [  0.4         65.66520818]
 [  0.5        -73.56912207]
 [  0.6          0.74999233]
 [  0.7         64.12769535]
 [  0.8        -79.18665898]
 [  0.9        -84.62050136]
 [  1.          99.19624858]
 [  1.09391667  71.58670695]]","[[0.         0.81118736]
 [0.1        1.4887669 ]
 [0.2        0.65578563]
 [0.3        0.99843063]
 [0.4        0.54862628]
 [0.5        0.9620802 ]
 [0.6        1.96570853]
 [0.7        1.86660776]
 [0.8        0.48590566]
 [0.9        1.1315153 ]
 [1.         1.62744853]
 [1.09391667 1.94836872]]",1,0.247
3,m,24,french,3,5,french,2024-02-09 11:37:30.674810,False,1,57,sounds\english\audio/english_19.wav,"[[  0.          34.83932387]
 [  0.1        -48.03564672]
 [  0.2        -39.79994301]
 [  0.3         55.51204031]
 [  0.4        -31.38608709]
 [  0.5         14.87165635]
 [  0.6         17.74253656]
 [  0.7         73.83891975]
 [  0.8         17.68085004]
 [  0.9        -24.1862435 ]
 [  1.         -54.03404818]
 [  1.09391667  28.67386017]]","[[0.         0.39991481]
 [0.1        0.42708011]
 [0.2        1.66102439]
 [0.3        0.51091135]
 [0.4        1.29385953]
 [0.5        0.69347698]
 [0.6        0.8818624 ]
 [0.7        1.31039877]
 [0.8        0.1856431 ]
 [0.9        0.16878638]
 [1.         0.18582405]
 [1.09391667 0.29170194]]",0,0.356
3,m,24,french,3,5,french,2024-02-09 11:37:30.674810,False,1,58,sounds\english\audio/english_827.wav,"[[  0.          68.00908508]
 [  0.1         62.86337393]
 [  0.2        -78.66229145]
 [  0.3         22.2543924 ]
 [  0.4        -38.38701394]
 [  0.5         42.22150711]
 [  0.6        -45.69118252]
 [  0.7         -2.62995829]
 [  0.8         -5.53100906]
 [  0.9        -28.52107901]
 [  1.          49.22868474]
 [  1.09391667 -68.48939537]]","[[0.         0.75704727]
 [0.1        1.26162294]
 [0.2        0.12232387]
 [0.3        1.21737576]
 [0.4        0.91087215]
 [0.5        0.43725261]
 [0.6        1.41339021]
 [0.7        0.84435274]
 [0.8        1.45939376]
 [0.9        0.25757528]
 [1.         0.16904312]
 [1.09391667 1.55565222]]",0,0.548
3,m,24,french,3,5,french,2024-02-09 11:37:30.674810,False,1,59,sounds\english\audio/english_646.wav,"[[  0.         -72.16367523]
 [  0.1         89.23048569]
 [  0.2          3.93643173]
 [  0.3         32.33211102]
 [  0.4         57.94131679]
 [  0.5          3.36702109]
 [  0.6         61.97454592]
 [  0.7        -38.94515992]
 [  0.8         18.02819855]
 [  0.9         -7.01403953]
 [  1.          22.99913436]
 [  1.09391667 -15.24744046]]","[[0.         1.23252036]
 [0.1        0.41153547]
 [0.2        1.30500866]
 [0.3        0.16779894]
 [0.4        1.44956343]
 [0.5        0.43462   ]
 [0.6        1.17161273]
 [0.7        1.33009112]
 [0.8        1.9601355 ]
 [0.9        1.16018484]
 [1.         0.4872476 ]
 [1.09391667 0.4931797 ]]",1,0.305
3,m,24,french,3,5,french,2024-02-09 11:37:30.674810,False,1,60,sounds\english\audio/english_482.wav,"[[  0.          20.07417146]
 [  0.1        -12.82737333]
 [  0.2         46.60771192]
 [  0.3         92.39920005]
 [  0.4         96.99690807]
 [  0.5         12.60829295]
 [  0.6        -23.92845314]
 [  0.7        -47.3765233 ]
 [  0.8         55.97987906]
 [  0.9         22.28704579]
 [  1.          67.15676761]
 [  1.09391667  46.69344931]]","[[0.         1.35721439]
 [0.1        1.71306389]
 [0.2        0.15096255]
 [0.3        1.17077369]
 [0.4        0.74035243]
 [0.5        1.34523093]
 [0.6        0.96774723]
 [0.7        1.67491069]
 [0.8        1.90247302]
 [0.9        1.31919575]
 [1.         1.48251796]
 [1.09391667 0.85176568]]",1,0.452
3,m,24,french,3,5,french,2024-02-09 11:37:30.674810,False,1,61,sounds\english\audio/english_651.wav,"[[  0.         -91.34539462]
 [  0.1         -1.38504973]
 [  0.2          2.05125073]
 [  0.3         -5.20837211]
 [  0.4         30.89438942]
 [  0.5        -28.36589971]
 [  0.6        -42.97374851]
 [  0.7        -56.55365324]
 [  0.8          3.73861638]
 [  0.9         -2.43332653]
 [  1.         -73.16332477]
 [  1.09391667  61.30377091]]","[[0.         1.93962683]
 [0.1        0.25281252]
 [0.2        0.90917451]
 [0.3        0.6157456 ]
 [0.4        0.48487698]
 [0.5        1.14423933]
 [0.6        0.91557091]
 [0.7        1.50856564]
 [0.8        0.47177544]
 [0.9        0.09479279]
 [1.         0.24018528]
 [1.09391667 0.24667973]]",0,0.562
3,m,24,french,3,5,french,2024-02-09 11:37:30.674810,False,1,62,sounds\english\audio/english_874.wav,"[[  0.         -71.39498579]
 [  0.1         62.98858744]
 [  0.2         41.27867713]
 [  0.3         -0.45014309]
 [  0.4        -62.23813069]
 [  0.5         81.69191529]
 [  0.6        -39.52630557]
 [  0.7          6.61232929]
 [  0.8         76.37120083]
 [  0.9         72.14080556]
 [  1.          56.73337142]
 [  1.09391667 -44.63255829]]","[[0.         1.26251394]
 [0.1        1.60813214]
 [0.2        0.77910004]
 [0.3        1.66768461]
 [0.4        1.66631965]
 [0.5        0.96578831]
 [0.6        1.50022708]
 [0.7        0.80807106]
 [0.8        0.57035077]
 [0.9        0.35036103]
 [1.         0.39594805]
 [1.09391667 1.14540291]]",0,0.272
3,m,24,french,3,5,french,2024-02-09 11:37:30.674810,False,1,63,sounds\english\audio/english_417.wav,"[[  0.          29.37383655]
 [  0.1         23.19156398]
 [  0.2         85.81337763]
 [  0.3        -29.64908449]
 [  0.4          8.97904128]
 [  0.5         39.22706603]
 [  0.6         61.83715867]
 [  0.7        -85.41027475]
 [  0.8         73.95238576]
 [  0.9         27.80762862]
 [  1.         -27.42196196]
 [  1.09391667 -33.44848628]]","[[0.         1.92425936]
 [0.1        0.6229039 ]
 [0.2        1.36154183]
 [0.3        0.09031289]
 [0.4        0.90960709]
 [0.5        1.25920128]
 [0.6        1.48525242]
 [0.7        0.60232136]
 [0.8        0.50952592]
 [0.9        0.22145612]
 [1.         0.91644458]
 [1.09391667 1.07641807]]",0,0.441
3,m,24,french,3,5,french,2024-02-09 11:37:30.674810,False,1,64,sounds\english\audio/english_133.wav,"[[  0.          10.63343709]
 [  0.1         24.84890696]
 [  0.2        -34.79554397]
 [  0.3        -18.60172977]
 [  0.4        -98.89022724]
 [  0.5         23.30800479]
 [  0.6         30.70048396]
 [  0.7        -76.25426305]
 [  0.8         14.35819181]
 [  0.9        -62.19404817]
 [  1.          77.39529663]
 [  1.09391667  16.52655074]]","[[0.         0.76476464]
 [0.1        1.29515793]
 [0.2        1.91673142]
 [0.3        1.0879203 ]
 [0.4        1.20589026]
 [0.5        1.56284498]
 [0.6        0.05267283]
 [0.7        1.08371144]
 [0.8        0.48506717]
 [0.9        1.72104901]
 [1.         1.20839478]
 [1.09391667 0.51907939]]",1,0.42
3,m,24,french,3,5,french,2024-02-09 11:37:30.674810,False,1,65,sounds\english\audio/english_871.wav,"[[  0.         -17.51935002]
 [  0.1         48.49295959]
 [  0.2         58.25436474]
 [  0.3         19.88257457]
 [  0.4         50.10507231]
 [  0.5        -56.4846044 ]
 [  0.6        -59.75963758]
 [  0.7        -99.92210917]
 [  0.8        -47.06603955]
 [  0.9        -51.36141327]
 [  1.         -80.2024198 ]
 [  1.09391667 -23.03879421]]","[[0.         0.96351457]
 [0.1        1.65140424]
 [0.2        0.10129148]
 [0.3        1.12009066]
 [0.4        1.6763055 ]
 [0.5        1.91634806]
 [0.6        0.79788864]
 [0.7        1.02975972]
 [0.8        0.06596749]
 [0.9        0.92212705]
 [1.         1.99068199]
 [1.09391667 0.00440735]]",1,2.004
3,m,24,french,3,5,french,2024-02-09 11:37:30.674810,False,1,66,sounds\english\audio/english_405.wav,"[[  0.         -78.42073653]
 [  0.1        -24.61205512]
 [  0.2        -11.84314917]
 [  0.3        -70.6403769 ]
 [  0.4        -46.85191634]
 [  0.5        -71.06093943]
 [  0.6         30.63391912]
 [  0.7        -74.22566174]
 [  0.8          7.48787405]
 [  0.9        -46.20513682]
 [  1.          49.04599402]
 [  1.09391667  -4.00470975]]","[[0.         1.26555168]
 [0.1        0.89640123]
 [0.2        0.55951574]
 [0.3        0.41074213]
 [0.4        0.16739124]
 [0.5        0.840879  ]
 [0.6        1.64487685]
 [0.7        0.4477739 ]
 [0.8        0.39629761]
 [0.9        1.07902243]
 [1.         1.30068101]
 [1.09391667 1.72481408]]",1,0.626
3,m,24,french,3,5,french,2024-02-09 11:37:30.674810,False,1,67,sounds\english\audio/english_700.wav,"[[  0.          68.07429642]
 [  0.1        -37.49377634]
 [  0.2        -23.04099004]
 [  0.3         29.04143541]
 [  0.4         20.45754453]
 [  0.5         37.24109952]
 [  0.6         39.64018777]
 [  0.7         51.86520487]
 [  0.8         48.29334393]
 [  0.9         69.44263224]
 [  1.         -89.62778161]
 [  1.09391667 -27.88856176]]","[[0.         0.65814928]
 [0.1        0.17735138]
 [0.2        0.86512997]
 [0.3        1.58435568]
 [0.4        1.51654074]
 [0.5        1.28756254]
 [0.6        0.60860264]
 [0.7        1.44468929]
 [0.8        1.11255223]
 [0.9        0.2005319 ]
 [1.         1.42301772]
 [1.09391667 1.42118254]]",1,0.81
3,m,24,french,3,5,french,2024-02-09 11:37:30.674810,False,1,68,sounds\english\audio/english_9.wav,"[[  0.         -96.61203468]
 [  0.1         27.77418146]
 [  0.2        -42.79973111]
 [  0.3         52.67007286]
 [  0.4        -77.37689486]
 [  0.5         22.33265825]
 [  0.6        -21.53246611]
 [  0.7         11.78226484]
 [  0.8        -45.34236124]
 [  0.9         55.83053399]
 [  1.          -0.17077069]
 [  1.09391667 -99.58545301]]","[[0.         1.48407489]
 [0.1        0.71089129]
 [0.2        1.02276586]
 [0.3        0.94605025]
 [0.4        1.64255066]
 [0.5        1.1767353 ]
 [0.6        1.24238606]
 [0.7        0.92864334]
 [0.8        1.13602565]
 [0.9        1.46898539]
 [1.         1.30855548]
 [1.09391667 1.24881599]]",1,1.683
3,m,24,french,3,5,french,2024-02-09 11:37:30.674810,False,1,69,sounds\english\audio/english_138.wav,"[[  0.          84.66208912]
 [  0.1        -96.9061077 ]
 [  0.2         56.17770157]
 [  0.3        -78.07946429]
 [  0.4         91.20181194]
 [  0.5        -30.87660198]
 [  0.6         27.3117693 ]
 [  0.7        -99.12692265]
 [  0.8        -51.46520236]
 [  0.9         -3.34321361]
 [  1.          -7.25861447]
 [  1.09391667  -2.49487658]]","[[0.         1.51830246]
 [0.1        0.02156416]
 [0.2        1.9703834 ]
 [0.3        1.25545273]
 [0.4        0.91568969]
 [0.5        1.83228794]
 [0.6        1.04000857]
 [0.7        1.75318047]
 [0.8        0.69204702]
 [0.9        0.65368484]
 [1.         0.00684889]
 [1.09391667 0.43470638]]",0,0.474
3,m,24,french,3,5,french,2024-02-09 11:37:30.674810,False,1,70,sounds\english\audio/english_627.wav,"[[  0.          61.61292799]
 [  0.1         56.33641902]
 [  0.2        -89.79026277]
 [  0.3        -79.74264658]
 [  0.4         23.07538857]
 [  0.5        -10.76343706]
 [  0.6         -5.69473489]
 [  0.7         -7.26950502]
 [  0.8         15.57475433]
 [  0.9          3.14852465]
 [  1.          33.23262787]
 [  1.09391667 -88.39615435]]","[[0.         1.38806705]
 [0.1        0.72797241]
 [0.2        1.31326188]
 [0.3        1.97676424]
 [0.4        1.13729178]
 [0.5        0.13245486]
 [0.6        0.69323738]
 [0.7        1.4848786 ]
 [0.8        1.9356485 ]
 [0.9        1.60625319]
 [1.         0.88492326]
 [1.09391667 1.31394344]]",1,0.422
3,m,24,french,3,5,french,2024-02-09 11:37:30.674810,False,1,71,sounds\english\audio/english_462.wav,"[[  0.          78.76621738]
 [  0.1         31.47495931]
 [  0.2        -13.74936046]
 [  0.3        -80.17251448]
 [  0.4        -78.67939132]
 [  0.5         43.51355655]
 [  0.6          3.64631971]
 [  0.7        -45.69022839]
 [  0.8        -12.47954209]
 [  0.9        -13.33411056]
 [  1.          14.72637348]
 [  1.09391667 -47.88617719]]","[[0.         0.83121963]
 [0.1        1.43506309]
 [0.2        0.97721307]
 [0.3        0.92562125]
 [0.4        0.04016866]
 [0.5        0.46288791]
 [0.6        1.76703425]
 [0.7        1.40353438]
 [0.8        0.01443424]
 [0.9        0.75223744]
 [1.         0.69611535]
 [1.09391667 0.81633503]]",0,0.349
3,m,24,french,3,5,french,2024-02-09 11:37:30.674810,False,1,72,sounds\english\audio/english_918.wav,"[[  0.           7.81141633]
 [  0.1         82.72316881]
 [  0.2         30.05807571]
 [  0.3        -70.58941721]
 [  0.4        -65.52419577]
 [  0.5         -8.01629029]
 [  0.6         16.78163005]
 [  0.7         72.93916831]
 [  0.8         -2.28760557]
 [  0.9        -18.70975913]
 [  1.           1.09551631]
 [  1.09391667  -2.64797824]]","[[0.         1.24491342]
 [0.1        0.03757961]
 [0.2        1.14238595]
 [0.3        0.04886902]
 [0.4        0.89349405]
 [0.5        0.46427507]
 [0.6        1.22953669]
 [0.7        1.878364  ]
 [0.8        0.42759123]
 [0.9        0.20519841]
 [1.         1.09007735]
 [1.09391667 0.32770208]]",0,0.484
3,m,24,french,3,5,french,2024-02-09 11:37:30.674810,False,1,73,sounds\english\audio/english_868.wav,"[[  0.           8.81168197]
 [  0.1         28.82624603]
 [  0.2        -13.41860503]
 [  0.3         -3.78239355]
 [  0.4        -99.28888376]
 [  0.5         97.17399406]
 [  0.6         -7.91387191]
 [  0.7         60.9049728 ]
 [  0.8        -11.98639675]
 [  0.9         -1.38257528]
 [  1.          25.89344048]
 [  1.09391667 -40.04347975]]","[[0.         0.91928245]
 [0.1        1.1322176 ]
 [0.2        0.903902  ]
 [0.3        0.85237712]
 [0.4        0.30528578]
 [0.5        0.73312891]
 [0.6        1.49247212]
 [0.7        1.20652206]
 [0.8        1.13523652]
 [0.9        0.60296342]
 [1.         0.75702193]
 [1.09391667 0.87917509]]",1,0.793
3,m,24,french,3,5,french,2024-02-09 11:37:30.674810,False,1,74,sounds\english\audio/english_235.wav,"[[  0.          44.65499148]
 [  0.1         77.52873905]
 [  0.2          7.66193616]
 [  0.3        -36.65234069]
 [  0.4        -38.57977077]
 [  0.5        -69.81992681]
 [  0.6         -3.21185942]
 [  0.7         -3.7989625 ]
 [  0.8        -60.5356981 ]
 [  0.9         10.60420307]
 [  1.          73.74029871]
 [  1.09391667 -42.3978276 ]]","[[0.         0.45157531]
 [0.1        0.81502167]
 [0.2        0.73184795]
 [0.3        1.39041991]
 [0.4        0.8131102 ]
 [0.5        0.63770546]
 [0.6        0.48204551]
 [0.7        0.64449527]
 [0.8        0.17411585]
 [0.9        1.43103789]
 [1.         1.90034823]
 [1.09391667 0.79167247]]",1,0.725
3,m,24,french,3,5,french,2024-02-09 11:37:30.674810,False,1,75,sounds\english\audio/english_462.wav,"[[  0.          78.76621738]
 [  0.1         31.47495931]
 [  0.2        -13.74936046]
 [  0.3        -80.17251448]
 [  0.4        -78.67939132]
 [  0.5         43.51355655]
 [  0.6          3.64631971]
 [  0.7        -45.69022839]
 [  0.8        -12.47954209]
 [  0.9        -13.33411056]
 [  1.          14.72637348]
 [  1.09391667 -47.88617719]]","[[0.         0.83121963]
 [0.1        1.43506309]
 [0.2        0.97721307]
 [0.3        0.92562125]
 [0.4        0.04016866]
 [0.5        0.46288791]
 [0.6        1.76703425]
 [0.7        1.40353438]
 [0.8        0.01443424]
 [0.9        0.75223744]
 [1.         0.69611535]
 [1.09391667 0.81633503]]",0,0.343
3,m,24,french,3,5,french,2024-02-09 11:37:30.674810,False,1,76,sounds\english\audio/english_161.wav,"[[  0.           0.2450503 ]
 [  0.1         41.86400045]
 [  0.2          3.22348346]
 [  0.3        -24.29894103]
 [  0.4         66.4308336 ]
 [  0.5        -79.52202924]
 [  0.6         -4.00284897]
 [  0.7        -82.69040612]
 [  0.8         32.14289288]
 [  0.9        -94.27188699]
 [  1.         -14.10162234]
 [  1.09391667  27.39748728]]","[[0.         0.47001228]
 [0.1        1.24375119]
 [0.2        0.98802588]
 [0.3        1.92952194]
 [0.4        0.84385332]
 [0.5        0.34569188]
 [0.6        1.46988057]
 [0.7        0.94597317]
 [0.8        0.70955806]
 [0.9        1.39207721]
 [1.         0.79549611]
 [1.09391667 1.7090018 ]]",1,0.172
3,m,24,french,3,5,french,2024-02-09 11:37:30.674810,False,1,77,sounds\english\audio/english_993.wav,"[[  0.          -8.65746923]
 [  0.1        -27.87522694]
 [  0.2         41.79329436]
 [  0.3        -23.16935708]
 [  0.4         18.8592239 ]
 [  0.5         40.29392848]
 [  0.6         77.6038757 ]
 [  0.7         33.5103026 ]
 [  0.8         71.9206852 ]
 [  0.9        -28.91081602]
 [  1.         -66.92854856]
 [  1.09391667 -70.4693707 ]]","[[0.         1.97743958]
 [0.1        0.36006803]
 [0.2        0.06856355]
 [0.3        0.38955927]
 [0.4        1.25297016]
 [0.5        0.33975417]
 [0.6        1.12200744]
 [0.7        1.75189261]
 [0.8        0.43539509]
 [0.9        1.78200425]
 [1.         0.58801976]
 [1.09391667 0.997712  ]]",1,0.445
3,m,24,french,3,5,french,2024-02-09 11:37:30.674810,False,1,78,sounds\english\audio/english_915.wav,"[[  0.         -21.98271396]
 [  0.1          1.0207487 ]
 [  0.2         23.02274493]
 [  0.3         85.32608832]
 [  0.4        -33.34189035]
 [  0.5         29.21421043]
 [  0.6         56.26543798]
 [  0.7          7.71467122]
 [  0.8         88.21567756]
 [  0.9        -50.54904275]
 [  1.         -64.3056321 ]
 [  1.09391667 -64.41259803]]","[[0.         1.11106838]
 [0.1        1.44455779]
 [0.2        1.42587556]
 [0.3        1.47521249]
 [0.4        1.68905856]
 [0.5        1.40181913]
 [0.6        1.46869984]
 [0.7        0.70433786]
 [0.8        1.11015014]
 [0.9        0.72100932]
 [1.         1.02681764]
 [1.09391667 0.869897  ]]",0,0.839
3,m,24,french,3,5,french,2024-02-09 11:37:30.674810,False,1,79,sounds\english\audio/english_337.wav,"[[  0.          63.30955307]
 [  0.1        -16.2405627 ]
 [  0.2        -94.40154866]
 [  0.3         75.21778114]
 [  0.4         25.54945434]
 [  0.5        -24.8991059 ]
 [  0.6         41.94064473]
 [  0.7        -52.88941207]
 [  0.8         34.33759816]
 [  0.9         11.89714474]
 [  1.         -68.13632942]
 [  1.09391667  47.32266625]]","[[0.         1.05146316]
 [0.1        1.82422784]
 [0.2        0.58494816]
 [0.3        1.0983984 ]
 [0.4        0.15013246]
 [0.5        0.80312612]
 [0.6        0.26635056]
 [0.7        1.56094221]
 [0.8        1.1585981 ]
 [0.9        1.8876465 ]
 [1.         1.89794163]
 [1.09391667 0.59037239]]",1,0.207
3,m,24,french,3,5,french,2024-02-09 11:37:30.674810,False,1,80,sounds\english\audio/english_738.wav,"[[  0.          40.29848329]
 [  0.1         66.12105636]
 [  0.2        -12.57692477]
 [  0.3        -81.4028628 ]
 [  0.4         83.16146046]
 [  0.5         59.80662428]
 [  0.6         40.28369402]
 [  0.7         70.16502192]
 [  0.8         33.24952129]
 [  0.9        -77.78198323]
 [  1.           6.29614131]
 [  1.09391667  60.18727711]]","[[0.         1.14824707]
 [0.1        1.60387601]
 [0.2        1.084542  ]
 [0.3        1.81856642]
 [0.4        1.62922567]
 [0.5        0.86427283]
 [0.6        0.1736944 ]
 [0.7        0.66918612]
 [0.8        1.29313609]
 [0.9        0.37962966]
 [1.         0.80178577]
 [1.09391667 0.93492505]]",0,0.159
3,m,24,french,3,5,french,2024-02-09 11:37:30.674810,False,1,81,sounds\english\audio/english_840.wav,"[[  0.          26.56026625]
 [  0.1        -45.76742425]
 [  0.2         58.26038182]
 [  0.3        -41.91368618]
 [  0.4         51.82879955]
 [  0.5        -58.1814991 ]
 [  0.6         -6.21480863]
 [  0.7        -38.35463557]
 [  0.8         62.53471627]
 [  0.9         -5.88618506]
 [  1.         -22.96620486]
 [  1.09391667  38.90401131]]","[[0.         0.58802825]
 [0.1        0.34012551]
 [0.2        1.59409568]
 [0.3        1.45145116]
 [0.4        1.12346348]
 [0.5        0.72614378]
 [0.6        0.0561304 ]
 [0.7        1.05027211]
 [0.8        0.63772174]
 [0.9        0.79180252]
 [1.         0.08952915]
 [1.09391667 0.46969462]]",0,0.278
3,m,24,french,3,5,french,2024-02-09 11:37:30.674810,False,1,82,sounds\english\audio/english_250.wav,"[[  0.          -2.1507045 ]
 [  0.1        -59.20535761]
 [  0.2         33.81892305]
 [  0.3         43.78107199]
 [  0.4        -58.56253377]
 [  0.5        -73.24110126]
 [  0.6         77.97062328]
 [  0.7        -37.56549364]
 [  0.8         57.43189813]
 [  0.9         46.17345888]
 [  1.          59.28871843]
 [  1.09391667  54.90140723]]","[[0.         1.65815165]
 [0.1        0.73684424]
 [0.2        0.78053485]
 [0.3        1.26996131]
 [0.4        1.90489744]
 [0.5        0.31125788]
 [0.6        0.73718841]
 [0.7        0.04729413]
 [0.8        1.70152056]
 [0.9        0.07204925]
 [1.         1.91615732]
 [1.09391667 1.08139277]]",1,0.517
3,m,24,french,3,5,french,2024-02-09 11:37:30.674810,False,1,83,sounds\english\audio/english_105.wav,"[[  0.          -2.78582129]
 [  0.1        -47.38376557]
 [  0.2        -34.39843647]
 [  0.3         46.98736853]
 [  0.4        -49.43003963]
 [  0.5         38.45298993]
 [  0.6        -40.48082685]
 [  0.7        -51.12213105]
 [  0.8         21.68306499]
 [  0.9         47.55235399]
 [  1.          34.72628387]
 [  1.09391667 -48.05463592]]","[[0.         1.58600254]
 [0.1        1.11025346]
 [0.2        0.10251387]
 [0.3        1.2200198 ]
 [0.4        1.30093265]
 [0.5        0.48849845]
 [0.6        0.43711301]
 [0.7        1.15590429]
 [0.8        1.91934773]
 [0.9        0.93806277]
 [1.         0.69549788]
 [1.09391667 1.35655827]]",1,0.53
3,m,24,french,3,5,french,2024-02-09 11:37:30.674810,False,1,84,sounds\english\audio/english_565.wav,"[[  0.          90.76087004]
 [  0.1         90.93114699]
 [  0.2        -32.37019607]
 [  0.3         77.30434891]
 [  0.4         -9.73234267]
 [  0.5        -83.24650182]
 [  0.6         21.51683352]
 [  0.7         88.66647516]
 [  0.8         21.52943084]
 [  0.9          0.60796245]
 [  1.           9.87605239]
 [  1.09391667  92.11409348]]","[[0.         0.64245812]
 [0.1        0.32525734]
 [0.2        1.091812  ]
 [0.3        0.92230791]
 [0.4        0.30031599]
 [0.5        0.39093775]
 [0.6        0.75549465]
 [0.7        1.68865449]
 [0.8        0.98033477]
 [0.9        1.75979764]
 [1.         1.41337712]
 [1.09391667 0.97633592]]",1,0.102
3,m,24,french,3,5,french,2024-02-09 11:37:30.674810,False,1,85,sounds\english\audio/english_117.wav,"[[  0.         -28.38275439]
 [  0.1         98.42008379]
 [  0.2         41.31206558]
 [  0.3        -83.83183678]
 [  0.4         98.21463791]
 [  0.5         -2.48578352]
 [  0.6         -4.17640124]
 [  0.7         96.23712421]
 [  0.8         58.96351824]
 [  0.9         45.91477825]
 [  1.         -11.19499605]
 [  1.09391667 -21.37390064]]","[[0.         0.21519039]
 [0.1        0.51040987]
 [0.2        0.4102792 ]
 [0.3        1.46073806]
 [0.4        0.64884847]
 [0.5        0.03709947]
 [0.6        1.54490713]
 [0.7        1.91280324]
 [0.8        1.06675457]
 [0.9        1.30412923]
 [1.         1.45368514]
 [1.09391667 0.12058037]]",1,0.341
3,m,24,french,3,5,french,2024-02-09 11:37:30.674810,False,1,86,sounds\english\audio/english_78.wav,"[[  0.          42.39797886]
 [  0.1        -36.07857938]
 [  0.2        -66.49689514]
 [  0.3         52.41013344]
 [  0.4         60.05478812]
 [  0.5         -4.62250103]
 [  0.6        -80.28349147]
 [  0.7         83.57222547]
 [  0.8          7.4922518 ]
 [  0.9        -18.57317231]
 [  1.         -60.66079691]
 [  1.09391667  37.22949989]]","[[0.         1.50616235]
 [0.1        0.54303847]
 [0.2        0.95347503]
 [0.3        1.62003629]
 [0.4        1.61647939]
 [0.5        0.17410512]
 [0.6        0.43268803]
 [0.7        0.08104601]
 [0.8        1.61489209]
 [0.9        0.08012208]
 [1.         0.76901301]
 [1.09391667 1.86046092]]",0,0.16
3,m,24,french,3,5,french,2024-02-09 11:37:30.674810,False,1,87,sounds\english\audio/english_964.wav,"[[  0.          53.46570898]
 [  0.1        -29.34116619]
 [  0.2         54.99768825]
 [  0.3        -81.76915679]
 [  0.4        -62.14603757]
 [  0.5        -51.83468115]
 [  0.6         22.82176289]
 [  0.7         43.03362668]
 [  0.8        -91.1613604 ]
 [  0.9          9.75788821]
 [  1.          -2.87390503]
 [  1.09391667 -53.09298444]]","[[0.         1.49731262]
 [0.1        1.91326808]
 [0.2        0.76008105]
 [0.3        1.84891579]
 [0.4        0.58371441]
 [0.5        0.22320605]
 [0.6        0.86228006]
 [0.7        1.2736027 ]
 [0.8        0.96508229]
 [0.9        0.5978171 ]
 [1.         0.802961  ]
 [1.09391667 0.69400331]]",1,0.655
3,m,24,french,3,5,french,2024-02-09 11:37:30.674810,False,1,88,sounds\english\audio/english_811.wav,"[[  0.         -74.87697924]
 [  0.1         96.86117413]
 [  0.2         10.72305858]
 [  0.3         48.56085209]
 [  0.4        -99.82729779]
 [  0.5         79.99074979]
 [  0.6         -9.67190631]
 [  0.7        -89.53034614]
 [  0.8         84.53947336]
 [  0.9        -76.82386536]
 [  1.         -19.04963958]
 [  1.09391667  78.79317252]]","[[0.         0.45507787]
 [0.1        1.76793824]
 [0.2        0.84862028]
 [0.3        0.62727309]
 [0.4        1.03490246]
 [0.5        1.90507478]
 [0.6        0.06135305]
 [0.7        0.24955368]
 [0.8        0.72917007]
 [0.9        1.5042388 ]
 [1.         1.60193394]
 [1.09391667 0.72084905]]",1,0.507
3,m,24,french,3,5,french,2024-02-09 11:37:30.674810,False,1,89,sounds\english\audio/english_563.wav,"[[  0.          97.71228094]
 [  0.1        -46.61979444]
 [  0.2          2.79591849]
 [  0.3        -24.69974698]
 [  0.4        -33.21670204]
 [  0.5        -22.29161776]
 [  0.6         -9.78409371]
 [  0.7         22.41186375]
 [  0.8        -16.19600926]
 [  0.9         96.89254029]
 [  1.          -8.68448167]
 [  1.09391667  22.23097911]]","[[0.         1.26204961]
 [0.1        1.17265915]
 [0.2        0.73553811]
 [0.3        1.75222103]
 [0.4        1.16360082]
 [0.5        0.78496451]
 [0.6        0.25812971]
 [0.7        1.68001513]
 [0.8        1.88614824]
 [0.9        0.22022692]
 [1.         0.44747932]
 [1.09391667 1.70220981]]",0,0.337
3,m,24,french,3,5,french,2024-02-09 11:37:30.674810,False,1,90,sounds\english\audio/english_777.wav,"[[  0.          77.7553974 ]
 [  0.1         88.6430253 ]
 [  0.2          5.54652951]
 [  0.3         11.99584501]
 [  0.4        -44.68936207]
 [  0.5        -18.49311275]
 [  0.6        -54.40171159]
 [  0.7        -57.33128005]
 [  0.8         14.03341313]
 [  0.9         18.82152763]
 [  1.          22.39033388]
 [  1.09391667  52.67090174]]","[[0.         0.31196703]
 [0.1        0.69611643]
 [0.2        0.87210572]
 [0.3        1.73935874]
 [0.4        0.75260602]
 [0.5        0.63970678]
 [0.6        1.12530391]
 [0.7        1.17239371]
 [0.8        0.53671495]
 [0.9        1.4475438 ]
 [1.         1.78069419]
 [1.09391667 0.83009886]]",1,0.172
3,m,24,french,3,5,french,2024-02-09 11:37:30.674810,False,1,91,sounds\english\audio/english_460.wav,"[[  0.          93.59161919]
 [  0.1        -36.24487207]
 [  0.2         34.29182357]
 [  0.3        -43.77936624]
 [  0.4         69.60343368]
 [  0.5         56.68710737]
 [  0.6        -24.24220062]
 [  0.7        -78.58314977]
 [  0.8        -13.26257127]
 [  0.9         33.19824363]
 [  1.         -40.08512875]
 [  1.09391667  22.89045037]]","[[0.         1.32448893]
 [0.1        0.9079638 ]
 [0.2        1.36589638]
 [0.3        1.17890341]
 [0.4        0.38929886]
 [0.5        0.99526671]
 [0.6        0.46581759]
 [0.7        0.29943683]
 [0.8        1.99375882]
 [0.9        1.82666883]
 [1.         1.5352094 ]
 [1.09391667 1.53552889]]",1,0.317
3,m,24,french,3,5,french,2024-02-09 11:37:30.674810,False,1,92,sounds\english\audio/english_201.wav,"[[  0.          38.80737773]
 [  0.1        -19.59989916]
 [  0.2         66.60738163]
 [  0.3        -56.04483053]
 [  0.4         70.74519799]
 [  0.5        -47.08782515]
 [  0.6        -82.17312899]
 [  0.7          4.63557835]
 [  0.8         13.50311248]
 [  0.9         50.05274214]
 [  1.         -76.13616328]
 [  1.09391667   8.54722281]]","[[0.         0.9006916 ]
 [0.1        0.40577957]
 [0.2        0.32844259]
 [0.3        1.02628552]
 [0.4        1.24548515]
 [0.5        0.07505998]
 [0.6        0.1226459 ]
 [0.7        1.79532837]
 [0.8        1.69109423]
 [0.9        0.91883167]
 [1.         0.81807561]
 [1.09391667 1.88316121]]",1,0.39
3,m,24,french,3,5,french,2024-02-09 11:37:30.674810,False,1,93,sounds\english\audio/english_247.wav,"[[  0.          25.0451381 ]
 [  0.1         -0.42762512]
 [  0.2          6.28793154]
 [  0.3         -3.67285953]
 [  0.4         72.86099671]
 [  0.5          4.14559404]
 [  0.6         25.40906202]
 [  0.7         -4.12042736]
 [  0.8         34.39220846]
 [  0.9        -47.96329468]
 [  1.          84.41515092]
 [  1.09391667  76.12511321]]","[[0.         1.47539451]
 [0.1        0.00273089]
 [0.2        1.08361758]
 [0.3        1.41054103]
 [0.4        0.74915888]
 [0.5        1.69392232]
 [0.6        1.26493683]
 [0.7        0.1138778 ]
 [0.8        1.15663669]
 [0.9        1.48677288]
 [1.         0.39384904]
 [1.09391667 0.02417049]]",1,0.478
3,m,24,french,3,5,french,2024-02-09 11:37:30.674810,False,1,94,sounds\english\audio/english_124.wav,"[[  0.           5.35510852]
 [  0.1         82.22763866]
 [  0.2         78.44526729]
 [  0.3         -3.07690156]
 [  0.4        -26.87127611]
 [  0.5         -1.1256219 ]
 [  0.6        -86.86575837]
 [  0.7         73.06997556]
 [  0.8         48.90999268]
 [  0.9         52.65203742]
 [  1.         -49.74668146]
 [  1.09391667 -71.87075445]]","[[0.         0.99413203]
 [0.1        0.35886786]
 [0.2        0.68901736]
 [0.3        1.32582542]
 [0.4        1.93650033]
 [0.5        1.64621245]
 [0.6        1.68793936]
 [0.7        1.14468764]
 [0.8        1.13594555]
 [0.9        0.473778  ]
 [1.         1.84215607]
 [1.09391667 0.96391319]]",0,0.241
3,m,24,french,3,5,french,2024-02-09 11:37:30.674810,False,1,95,sounds\english\audio/english_646.wav,"[[  0.         -72.16367523]
 [  0.1         89.23048569]
 [  0.2          3.93643173]
 [  0.3         32.33211102]
 [  0.4         57.94131679]
 [  0.5          3.36702109]
 [  0.6         61.97454592]
 [  0.7        -38.94515992]
 [  0.8         18.02819855]
 [  0.9         -7.01403953]
 [  1.          22.99913436]
 [  1.09391667 -15.24744046]]","[[0.         1.23252036]
 [0.1        0.41153547]
 [0.2        1.30500866]
 [0.3        0.16779894]
 [0.4        1.44956343]
 [0.5        0.43462   ]
 [0.6        1.17161273]
 [0.7        1.33009112]
 [0.8        1.9601355 ]
 [0.9        1.16018484]
 [1.         0.4872476 ]
 [1.09391667 0.4931797 ]]",1,0.732
3,m,24,french,3,5,french,2024-02-09 11:37:30.674810,False,1,96,sounds\english\audio/english_808.wav,"[[  0.         -54.51930087]
 [  0.1        -81.0495762 ]
 [  0.2          4.70470679]
 [  0.3         56.77475896]
 [  0.4        -45.19313698]
 [  0.5        -12.85220206]
 [  0.6         -3.64494866]
 [  0.7        -54.59560116]
 [  0.8         62.80587621]
 [  0.9         41.76195467]
 [  1.          59.57414533]
 [  1.09391667 -81.82049826]]","[[0.         0.8777304 ]
 [0.1        1.15782472]
 [0.2        1.67617188]
 [0.3        0.46785173]
 [0.4        1.34598798]
 [0.5        1.21107636]
 [0.6        0.33957231]
 [0.7        1.78675234]
 [0.8        0.41874976]
 [0.9        0.58154764]
 [1.         1.87307122]
 [1.09391667 0.91565949]]",0,4.243
3,m,24,french,3,5,french,2024-02-09 11:37:30.674810,False,1,97,sounds\english\audio/english_506.wav,"[[  0.         -13.3952031 ]
 [  0.1          8.8632007 ]
 [  0.2        -83.95985859]
 [  0.3         38.02193565]
 [  0.4         29.61638046]
 [  0.5         91.08087873]
 [  0.6         45.85080553]
 [  0.7         15.18618823]
 [  0.8          7.43914734]
 [  0.9         90.87583829]
 [  1.         -85.58318538]
 [  1.09391667 -68.83720883]]","[[0.         0.85990944]
 [0.1        0.40173642]
 [0.2        0.03154553]
 [0.3        0.39528278]
 [0.4        0.64999614]
 [0.5        0.76132632]
 [0.6        0.84020916]
 [0.7        1.25961369]
 [0.8        1.02786985]
 [0.9        1.37241819]
 [1.         0.76507647]
 [1.09391667 1.93766079]]",0,0.96
3,m,24,french,3,5,french,2024-02-09 11:37:30.674810,False,1,98,sounds\english\audio/english_582.wav,"[[  0.         -92.78340469]
 [  0.1         42.51344298]
 [  0.2        -42.63495555]
 [  0.3         52.58085474]
 [  0.4        -78.11848263]
 [  0.5        -34.20952238]
 [  0.6        -86.64412457]
 [  0.7         26.30632387]
 [  0.8        -34.45754989]
 [  0.9        -45.78416277]
 [  1.         -16.65162857]
 [  1.09391667   7.21919156]]","[[0.         1.00518837]
 [0.1        1.30114299]
 [0.2        1.27031636]
 [0.3        1.12025144]
 [0.4        0.79798268]
 [0.5        0.6293022 ]
 [0.6        1.95773952]
 [0.7        0.97092523]
 [0.8        1.38286632]
 [0.9        1.31952832]
 [1.         1.84309931]
 [1.09391667 1.34013439]]",1,1.841
3,m,24,french,3,5,french,2024-02-09 11:37:30.674810,False,1,99,sounds\english\audio/english_323.wav,"[[  0.          40.39415448]
 [  0.1         -3.9805302 ]
 [  0.2         -8.81191145]
 [  0.3         -8.61923754]
 [  0.4         25.51817053]
 [  0.5         37.95982404]
 [  0.6        -53.30444221]
 [  0.7         54.85383866]
 [  0.8         -9.4086646 ]
 [  0.9          8.91034325]
 [  1.         -45.44598831]
 [  1.09391667 -71.60554132]]","[[0.         1.89273291]
 [0.1        1.81857991]
 [0.2        0.58180431]
 [0.3        0.82209232]
 [0.4        1.26116311]
 [0.5        1.9312982 ]
 [0.6        0.90792138]
 [0.7        0.90655742]
 [0.8        0.85964648]
 [0.9        0.3422022 ]
 [1.         1.16277549]
 [1.09391667 1.39313179]]",0,0.387
3,m,24,french,3,5,french,2024-02-09 11:37:30.674810,False,1,100,sounds\english\audio/english_386.wav,"[[  0.         -19.52342601]
 [  0.1         12.51870084]
 [  0.2         39.37532447]
 [  0.3        -27.49424213]
 [  0.4          2.74242911]
 [  0.5         15.14964773]
 [  0.6         45.71194496]
 [  0.7         28.98960809]
 [  0.8        -39.83484556]
 [  0.9         33.1587893 ]
 [  1.          24.37786674]
 [  1.09391667 -21.81878644]]","[[0.         1.87136497]
 [0.1        1.2884713 ]
 [0.2        0.99035372]
 [0.3        1.4593324 ]
 [0.4        1.12443884]
 [0.5        0.10576994]
 [0.6        1.21238053]
 [0.7        0.05301684]
 [0.8        0.73550617]
 [0.9        1.02363056]
 [1.         0.31570088]
 [1.09391667 0.61715616]]",0,1.336
3,m,24,french,3,5,french,2024-02-09 11:37:30.674810,False,1,101,sounds\english\audio/english_549.wav,"[[  0.         -35.97957433]
 [  0.1        -96.77259812]
 [  0.2        -92.07264472]
 [  0.3        -16.49421881]
 [  0.4        -35.51287809]
 [  0.5         40.31804664]
 [  0.6         -0.60755502]
 [  0.7        -79.63380358]
 [  0.8         41.85833645]
 [  0.9         47.12305504]
 [  1.          28.29283857]
 [  1.09391667  39.2346499 ]]","[[0.         1.40923676]
 [0.1        1.19920438]
 [0.2        1.05241403]
 [0.3        0.71571216]
 [0.4        1.54934791]
 [0.5        1.46509975]
 [0.6        0.37894541]
 [0.7        1.07940095]
 [0.8        1.81599169]
 [0.9        1.82911987]
 [1.         1.58342339]
 [1.09391667 1.63101791]]",1,1.551
3,m,24,french,3,5,french,2024-02-09 11:37:30.674810,False,1,102,sounds\english\audio/english_754.wav,"[[  0.         -64.18066608]
 [  0.1        -98.7453181 ]
 [  0.2        -52.29987626]
 [  0.3        -91.6870734 ]
 [  0.4        -99.93480519]
 [  0.5         -2.56117899]
 [  0.6        -58.25705586]
 [  0.7        -50.59283721]
 [  0.8         -3.4865488 ]
 [  0.9         11.81028617]
 [  1.          27.46545009]
 [  1.09391667   8.3161915 ]]","[[0.         1.31756219]
 [0.1        0.6775935 ]
 [0.2        0.44453287]
 [0.3        0.79930959]
 [0.4        0.36385227]
 [0.5        1.60724529]
 [0.6        1.54119087]
 [0.7        0.4128908 ]
 [0.8        0.89168042]
 [0.9        0.16017021]
 [1.         1.03192762]
 [1.09391667 0.24632806]]",0,1.374
3,m,24,french,3,5,french,2024-02-09 11:37:30.674810,False,1,103,sounds\english\audio/english_231.wav,"[[  0.         -62.2179541 ]
 [  0.1        -68.5873809 ]
 [  0.2        -23.63984274]
 [  0.3        -33.31819394]
 [  0.4         73.10663902]
 [  0.5        -43.5142123 ]
 [  0.6         31.90774571]
 [  0.7         86.22472646]
 [  0.8        -71.54568586]
 [  0.9         72.93187179]
 [  1.          29.12885345]
 [  1.09391667 -28.38876841]]","[[0.         1.81174186]
 [0.1        1.83025058]
 [0.2        0.80354138]
 [0.3        1.41218614]
 [0.4        0.69584773]
 [0.5        0.95321477]
 [0.6        1.60478776]
 [0.7        0.79586742]
 [0.8        1.11798483]
 [0.9        1.7522781 ]
 [1.         0.47731109]
 [1.09391667 0.90269173]]",1,1.234
3,m,24,french,3,5,french,2024-02-09 11:37:30.674810,False,1,104,sounds\english\audio/english_987.wav,"[[  0.          22.80679167]
 [  0.1         17.54007411]
 [  0.2        -52.11811518]
 [  0.3        -23.82315646]
 [  0.4         44.18787645]
 [  0.5        -72.90084178]
 [  0.6        -17.62123308]
 [  0.7         95.73852472]
 [  0.8         10.89860126]
 [  0.9        -72.84217249]
 [  1.         -57.31215702]
 [  1.09391667 -16.22203203]]","[[0.         0.70061045]
 [0.1        1.60053813]
 [0.2        0.58462844]
 [0.3        0.24368019]
 [0.4        0.52233595]
 [0.5        0.85287542]
 [0.6        1.54280419]
 [0.7        0.69341266]
 [0.8        0.63948037]
 [0.9        0.23195922]
 [1.         1.27646479]
 [1.09391667 1.15579809]]",0,0.615
3,m,24,french,3,5,french,2024-02-09 11:37:30.674810,False,1,105,sounds\english\audio/english_950.wav,"[[  0.         -86.87554151]
 [  0.1        -72.53946924]
 [  0.2        -93.26314945]
 [  0.3         -1.26261121]
 [  0.4         31.78397293]
 [  0.5         93.59900189]
 [  0.6        -32.85922571]
 [  0.7         18.10300476]
 [  0.8         52.92250064]
 [  0.9        -34.91247692]
 [  1.         -31.45567731]
 [  1.09391667  88.77151431]]","[[0.         0.57113527]
 [0.1        0.14563677]
 [0.2        1.26514388]
 [0.3        0.38436166]
 [0.4        0.69830078]
 [0.5        1.31794619]
 [0.6        0.31066599]
 [0.7        1.23311227]
 [0.8        0.77437242]
 [0.9        0.74996015]
 [1.         0.3691409 ]
 [1.09391667 1.91617341]]",0,0.819
3,m,24,french,3,5,french,2024-02-09 11:37:30.674810,False,1,106,sounds\english\audio/english_492.wav,"[[  0.         -29.9472328 ]
 [  0.1         35.33010824]
 [  0.2         -3.45968041]
 [  0.3         59.06456756]
 [  0.4         98.23949624]
 [  0.5         -1.48270349]
 [  0.6         -1.72219507]
 [  0.7         12.69106909]
 [  0.8        -21.74180351]
 [  0.9        -33.92370757]
 [  1.          37.93162517]
 [  1.09391667 -90.75179354]]","[[0.         1.28534899]
 [0.1        1.03908978]
 [0.2        1.26033893]
 [0.3        0.39463808]
 [0.4        0.21276087]
 [0.5        0.25205409]
 [0.6        0.58596557]
 [0.7        1.49088879]
 [0.8        1.5225112 ]
 [0.9        0.13189423]
 [1.         0.89918189]
 [1.09391667 1.07142866]]",0,1.632
3,m,24,french,3,5,french,2024-02-09 11:37:30.674810,False,1,107,sounds\english\audio/english_304.wav,"[[  0.          96.43315713]
 [  0.1         95.93138412]
 [  0.2         65.83383482]
 [  0.3         84.09537744]
 [  0.4        -66.2474925 ]
 [  0.5         93.4095627 ]
 [  0.6         -1.11643   ]
 [  0.7         -9.86041812]
 [  0.8        -26.38054207]
 [  0.9          9.25483922]
 [  1.         -76.37569973]
 [  1.09391667 -10.54226117]]","[[0.         1.4273089 ]
 [0.1        1.40169358]
 [0.2        1.37134036]
 [0.3        0.09577365]
 [0.4        1.82897854]
 [0.5        0.08231512]
 [0.6        0.16260787]
 [0.7        1.3997004 ]
 [0.8        0.11489059]
 [0.9        1.90722294]
 [1.         1.30374267]
 [1.09391667 1.55839178]]",1,0.395
3,m,24,french,3,5,french,2024-02-09 11:37:30.674810,False,1,108,sounds\english\audio/english_535.wav,"[[  0.          -4.00375318]
 [  0.1        -37.57387138]
 [  0.2        -31.12595353]
 [  0.3          2.06341331]
 [  0.4         56.11576492]
 [  0.5         30.13214978]
 [  0.6         14.78197265]
 [  0.7        -18.38930177]
 [  0.8        -10.54396075]
 [  0.9         39.09773013]
 [  1.          46.13111143]
 [  1.09391667 -64.44597459]]","[[0.         0.74823916]
 [0.1        0.9109632 ]
 [0.2        0.84755902]
 [0.3        1.09662022]
 [0.4        0.26254995]
 [0.5        1.29967994]
 [0.6        1.50452532]
 [0.7        1.51808924]
 [0.8        0.34439234]
 [0.9        0.86790386]
 [1.         0.86784134]
 [1.09391667 0.57511998]]",0,0.807
3,m,24,french,3,5,french,2024-02-09 11:37:30.674810,False,1,109,sounds\english\audio/english_44.wav,"[[  0.           4.31802361]
 [  0.1         47.0728406 ]
 [  0.2        -14.77115386]
 [  0.3         48.30959917]
 [  0.4        -48.39525922]
 [  0.5        -15.20190814]
 [  0.6         -7.79536513]
 [  0.7        -57.36737228]
 [  0.8         -4.58128381]
 [  0.9        -46.69208344]
 [  1.         -83.85792586]
 [  1.09391667  -0.53505125]]","[[0.         1.29887764]
 [0.1        1.11913745]
 [0.2        1.22583552]
 [0.3        1.94992967]
 [0.4        1.60078026]
 [0.5        1.61096713]
 [0.6        0.91293866]
 [0.7        1.91414895]
 [0.8        0.38490234]
 [0.9        1.07535839]
 [1.         1.14300315]
 [1.09391667 0.87829704]]",1,0.74
3,m,24,french,3,5,french,2024-02-09 11:37:30.674810,False,1,110,sounds\english\audio/english_892.wav,"[[  0.         -38.86767844]
 [  0.1         29.31331075]
 [  0.2         37.64120423]
 [  0.3         25.96997634]
 [  0.4         25.06772021]
 [  0.5         19.15395825]
 [  0.6         96.7473058 ]
 [  0.7        -43.25342834]
 [  0.8        -30.92807771]
 [  0.9        -18.81814059]
 [  1.          21.2135068 ]
 [  1.09391667  36.95597597]]","[[0.         1.06552273]
 [0.1        1.21891825]
 [0.2        0.29574975]
 [0.3        0.59708479]
 [0.4        1.90102073]
 [0.5        0.08656429]
 [0.6        1.91022134]
 [0.7        0.18523015]
 [0.8        0.17424813]
 [0.9        1.10584125]
 [1.         1.16786025]
 [1.09391667 1.53062308]]",1,1.102
3,m,24,french,3,5,french,2024-02-09 11:37:30.674810,False,1,111,sounds\english\audio/english_129.wav,"[[  0.         -44.56015923]
 [  0.1        -58.7339049 ]
 [  0.2          4.64427176]
 [  0.3         36.13533526]
 [  0.4         49.60525777]
 [  0.5         66.06381969]
 [  0.6        -22.87129592]
 [  0.7         88.56170171]
 [  0.8         17.84118116]
 [  0.9        -28.77319114]
 [  1.          86.03376827]
 [  1.09391667  39.56098905]]","[[0.         0.4294496 ]
 [0.1        1.17691203]
 [0.2        0.00792795]
 [0.3        1.62066926]
 [0.4        0.46131477]
 [0.5        0.9562515 ]
 [0.6        0.58790942]
 [0.7        0.99020247]
 [0.8        0.9945804 ]
 [0.9        1.36695424]
 [1.         0.72564016]
 [1.09391667 1.15202696]]",0,0.242
3,m,24,french,3,5,french,2024-02-09 11:37:30.674810,False,1,112,sounds\english\audio/english_707.wav,"[[  0.           7.00891716]
 [  0.1         74.96034683]
 [  0.2        -68.0333814 ]
 [  0.3         58.29848436]
 [  0.4        -84.31982667]
 [  0.5         35.8298309 ]
 [  0.6        -38.90477455]
 [  0.7         82.66036962]
 [  0.8        -14.24432163]
 [  0.9         25.44052546]
 [  1.         -83.90842928]
 [  1.09391667 -32.29890156]]","[[0.         0.72720076]
 [0.1        1.51197727]
 [0.2        0.14777377]
 [0.3        0.12739287]
 [0.4        0.76569704]
 [0.5        0.136889  ]
 [0.6        1.7747503 ]
 [0.7        1.07544151]
 [0.8        1.02550143]
 [0.9        1.01640219]
 [1.         0.78720721]
 [1.09391667 1.33640167]]",1,1.319
3,m,24,french,3,5,french,2024-02-09 11:37:30.674810,False,1,113,sounds\english\audio/english_682.wav,"[[  0.         -53.22260556]
 [  0.1         86.77650228]
 [  0.2          9.77253821]
 [  0.3         11.03493207]
 [  0.4        -49.40991028]
 [  0.5         40.78961249]
 [  0.6          0.17613347]
 [  0.7        -59.60480948]
 [  0.8        -70.7429322 ]
 [  0.9         73.80660993]
 [  1.          20.51556505]
 [  1.09391667  45.26798103]]","[[0.         0.39279529]
 [0.1        0.89629602]
 [0.2        1.02748966]
 [0.3        0.21487606]
 [0.4        0.85817313]
 [0.5        0.23854774]
 [0.6        1.76515504]
 [0.7        0.66287763]
 [0.8        0.73367901]
 [0.9        0.47936557]
 [1.         1.06722754]
 [1.09391667 1.8777792 ]]",0,2.899
3,m,24,french,3,5,french,2024-02-09 11:37:30.674810,False,1,114,sounds\english\audio/english_230.wav,"[[  0.          33.38389537]
 [  0.1        -34.15374901]
 [  0.2        -17.15972141]
 [  0.3         -8.06213265]
 [  0.4         10.20192226]
 [  0.5        -58.60843687]
 [  0.6         79.76687213]
 [  0.7        -68.85443864]
 [  0.8        -14.23970475]
 [  0.9        -88.80466565]
 [  1.         -64.76676699]
 [  1.09391667 -85.72124736]]","[[0.         1.56748289]
 [0.1        0.35840318]
 [0.2        0.69573927]
 [0.3        1.48062695]
 [0.4        1.80584749]
 [0.5        0.27713833]
 [0.6        0.54911174]
 [0.7        0.47648858]
 [0.8        1.61704234]
 [0.9        1.41921333]
 [1.         0.47778277]
 [1.09391667 0.86213517]]",1,0.671
3,m,24,french,3,5,french,2024-02-09 11:37:30.674810,False,1,115,sounds\english\audio/english_490.wav,"[[  0.         -25.51056644]
 [  0.1         24.49853402]
 [  0.2        -56.61781422]
 [  0.3         -3.53667819]
 [  0.4        -52.83448461]
 [  0.5        -52.04613243]
 [  0.6        -48.85197311]
 [  0.7         60.10857272]
 [  0.8         21.00041812]
 [  0.9        -82.17328802]
 [  1.         -22.08282028]
 [  1.09391667 -78.3378291 ]]","[[0.         0.58140065]
 [0.1        0.04023283]
 [0.2        0.26091541]
 [0.3        1.44138465]
 [0.4        1.89510699]
 [0.5        0.42289317]
 [0.6        0.07435824]
 [0.7        0.40624812]
 [0.8        0.68841403]
 [0.9        1.98707284]
 [1.         1.23402261]
 [1.09391667 1.02333517]]",0,0.146
3,m,24,french,3,5,french,2024-02-09 11:37:30.674810,False,1,116,sounds\english\audio/english_737.wav,"[[  0.          56.78568271]
 [  0.1        -38.71611428]
 [  0.2        -64.59845133]
 [  0.3          1.39086409]
 [  0.4         26.86370756]
 [  0.5        -27.73552672]
 [  0.6        -81.13907874]
 [  0.7         43.5553465 ]
 [  0.8        -20.1583688 ]
 [  0.9        -25.05937779]
 [  1.          27.91315488]
 [  1.09391667 -84.10219284]]","[[0.         0.30173789]
 [0.1        1.82600994]
 [0.2        0.49162542]
 [0.3        0.66978122]
 [0.4        1.86119765]
 [0.5        0.4187604 ]
 [0.6        0.96095639]
 [0.7        0.3936239 ]
 [0.8        0.49545956]
 [0.9        1.76958981]
 [1.         1.1243255 ]
 [1.09391667 1.22358717]]",0,0.428
3,m,24,french,3,5,french,2024-02-09 11:37:30.674810,False,1,117,sounds\english\audio/english_549.wav,"[[  0.         -35.97957433]
 [  0.1        -96.77259812]
 [  0.2        -92.07264472]
 [  0.3        -16.49421881]
 [  0.4        -35.51287809]
 [  0.5         40.31804664]
 [  0.6         -0.60755502]
 [  0.7        -79.63380358]
 [  0.8         41.85833645]
 [  0.9         47.12305504]
 [  1.          28.29283857]
 [  1.09391667  39.2346499 ]]","[[0.         1.40923676]
 [0.1        1.19920438]
 [0.2        1.05241403]
 [0.3        0.71571216]
 [0.4        1.54934791]
 [0.5        1.46509975]
 [0.6        0.37894541]
 [0.7        1.07940095]
 [0.8        1.81599169]
 [0.9        1.82911987]
 [1.         1.58342339]
 [1.09391667 1.63101791]]",1,0.178
3,m,24,french,3,5,french,2024-02-09 11:37:30.674810,False,1,118,sounds\english\audio/english_64.wav,"[[  0.          35.19701481]
 [  0.1         75.83495736]
 [  0.2        -57.84604767]
 [  0.3         18.18328311]
 [  0.4          2.5532884 ]
 [  0.5         24.93011402]
 [  0.6        -51.99875854]
 [  0.7         52.45873465]
 [  0.8         42.38876358]
 [  0.9         54.33691238]
 [  1.          27.02485659]
 [  1.09391667  58.99390703]]","[[0.         0.1517014 ]
 [0.1        1.3624391 ]
 [0.2        0.35043993]
 [0.3        1.06032252]
 [0.4        1.51833669]
 [0.5        0.65789286]
 [0.6        1.38401799]
 [0.7        1.62873445]
 [0.8        0.48968984]
 [0.9        0.64777192]
 [1.         0.8399807 ]
 [1.09391667 0.25985176]]",0,0.434
3,m,24,french,3,5,french,2024-02-09 11:37:30.674810,False,1,119,sounds\english\audio/english_955.wav,"[[  0.          38.31421616]
 [  0.1         -0.24395343]
 [  0.2        -30.85408012]
 [  0.3         73.34311783]
 [  0.4        -91.5837752 ]
 [  0.5         57.97712299]
 [  0.6          6.73272041]
 [  0.7         -3.5280389 ]
 [  0.8        -53.89604604]
 [  0.9         42.44442799]
 [  1.         -51.31943535]
 [  1.09391667 -10.15737525]]","[[0.         0.40317625]
 [0.1        1.41770308]
 [0.2        0.82154239]
 [0.3        1.53285595]
 [0.4        0.89318017]
 [0.5        1.16313419]
 [0.6        0.62969855]
 [0.7        1.12563056]
 [0.8        0.39704544]
 [0.9        0.50354627]
 [1.         0.66246368]
 [1.09391667 0.25441039]]",0,0.31
3,m,24,french,3,5,french,2024-02-09 11:37:30.674810,False,1,120,sounds\english\audio/english_277.wav,"[[  0.         -44.33616139]
 [  0.1         44.35260019]
 [  0.2        -49.49233779]
 [  0.3        -85.34810724]
 [  0.4         28.63854814]
 [  0.5         67.28491477]
 [  0.6         56.85897208]
 [  0.7        -23.80647194]
 [  0.8        -34.73638316]
 [  0.9        -44.12670418]
 [  1.         -49.9038669 ]
 [  1.09391667 -45.21232541]]","[[0.         0.73788807]
 [0.1        1.74394891]
 [0.2        0.42488183]
 [0.3        1.67106469]
 [0.4        1.81238123]
 [0.5        1.08162705]
 [0.6        1.34108587]
 [0.7        0.83894526]
 [0.8        0.08057135]
 [0.9        0.78361609]
 [1.         1.89078492]
 [1.09391667 1.1409546 ]]",1,0.59
3,m,24,french,3,5,french,2024-02-09 11:37:30.674810,False,1,121,sounds\english\audio/english_531.wav,"[[  0.          64.01741769]
 [  0.1         26.7868786 ]
 [  0.2        -11.61455466]
 [  0.3          5.98277112]
 [  0.4        -58.29733436]
 [  0.5        -28.52423669]
 [  0.6        -20.08515402]
 [  0.7         56.89013176]
 [  0.8         -1.76253667]
 [  0.9         17.11874088]
 [  1.         -69.92464743]
 [  1.09391667  16.89803128]]","[[0.         1.51547649]
 [0.1        1.88187252]
 [0.2        1.96684575]
 [0.3        0.79325927]
 [0.4        0.88962117]
 [0.5        0.54211356]
 [0.6        0.71772169]
 [0.7        1.30220499]
 [0.8        0.81496958]
 [0.9        0.64316233]
 [1.         0.7734262 ]
 [1.09391667 0.24670156]]",0,0.297
3,m,24,french,3,5,french,2024-02-09 11:37:30.674810,False,1,122,sounds\english\audio/english_597.wav,"[[  0.         -67.67099002]
 [  0.1        -46.13734067]
 [  0.2          8.53827294]
 [  0.3         10.29364975]
 [  0.4         90.70511651]
 [  0.5        -85.6547255 ]
 [  0.6        -55.29379698]
 [  0.7        -36.34265525]
 [  0.8        -73.30529238]
 [  0.9         47.92763573]
 [  1.          68.39969631]
 [  1.09391667 -54.84039666]]","[[0.         1.63271305]
 [0.1        1.53444126]
 [0.2        0.45354979]
 [0.3        0.94704096]
 [0.4        1.59618965]
 [0.5        1.87985709]
 [0.6        1.26591303]
 [0.7        1.16675578]
 [0.8        1.37898637]
 [0.9        1.11636219]
 [1.         0.24288005]
 [1.09391667 1.68900271]]",0,0.228
3,m,24,french,3,5,french,2024-02-09 11:37:30.674810,False,1,123,sounds\english\audio/english_485.wav,"[[  0.          26.44907742]
 [  0.1        -73.42361147]
 [  0.2         92.83531317]
 [  0.3         82.36619494]
 [  0.4        -17.51087166]
 [  0.5        -26.28495986]
 [  0.6          0.94288036]
 [  0.7        -11.7082274 ]
 [  0.8        -66.16443059]
 [  0.9        -47.12237025]
 [  1.         -81.68715   ]
 [  1.09391667 -22.18807282]]","[[0.         0.83287187]
 [0.1        1.40395819]
 [0.2        1.51369756]
 [0.3        0.99682619]
 [0.4        0.01124783]
 [0.5        0.02757377]
 [0.6        0.89772739]
 [0.7        0.83950196]
 [0.8        0.91739043]
 [0.9        0.80980959]
 [1.         1.03797653]
 [1.09391667 0.63071559]]",1,1.274
3,m,24,french,3,5,french,2024-02-09 11:37:30.674810,False,1,124,sounds\english\audio/english_965.wav,"[[  0.          71.26903742]
 [  0.1        -85.67215002]
 [  0.2         62.40796955]
 [  0.3        -42.43885851]
 [  0.4        -43.47145803]
 [  0.5          0.87364752]
 [  0.6         11.44276141]
 [  0.7         13.05816489]
 [  0.8         36.18570215]
 [  0.9        -15.51832256]
 [  1.         -23.27462527]
 [  1.09391667  27.24750983]]","[[0.         0.78069471]
 [0.1        0.96385913]
 [0.2        1.23622138]
 [0.3        0.08139119]
 [0.4        1.30827212]
 [0.5        0.40087686]
 [0.6        0.69003786]
 [0.7        0.53329387]
 [0.8        0.06218309]
 [0.9        1.41722428]
 [1.         1.1054453 ]
 [1.09391667 1.42098641]]",1,0.55
3,m,24,french,3,5,french,2024-02-09 11:37:30.674810,False,1,125,sounds\english\audio/english_712.wav,"[[ 0.00000000e+00 -2.31463857e+01]
 [ 1.00000000e-01  2.46800968e+01]
 [ 2.00000000e-01  1.61964332e-02]
 [ 3.00000000e-01 -1.76606804e+01]
 [ 4.00000000e-01  3.66433398e-01]
 [ 5.00000000e-01  9.21731967e+01]
 [ 6.00000000e-01  3.77445609e+01]
 [ 7.00000000e-01  3.61997785e+01]
 [ 8.00000000e-01  6.81982864e+01]
 [ 9.00000000e-01  8.90317309e+01]
 [ 1.00000000e+00 -1.82298461e+01]
 [ 1.09391667e+00  4.18738238e+00]]","[[0.         0.37379236]
 [0.1        1.67699004]
 [0.2        1.79701075]
 [0.3        0.97598087]
 [0.4        0.364202  ]
 [0.5        1.74943947]
 [0.6        0.51022449]
 [0.7        1.89888437]
 [0.8        1.17858578]
 [0.9        0.87832213]
 [1.         1.72214889]
 [1.09391667 0.60066774]]",1,0.196
3,m,24,french,3,5,french,2024-02-09 11:37:30.674810,False,1,126,sounds\english\audio/english_308.wav,"[[  0.          52.24903485]
 [  0.1        -23.64626196]
 [  0.2        -51.25656168]
 [  0.3         22.90973994]
 [  0.4        -77.18224056]
 [  0.5        -15.74058407]
 [  0.6         68.28336148]
 [  0.7        -68.00125418]
 [  0.8        -28.10684377]
 [  0.9        -21.57286012]
 [  1.         -67.0126828 ]
 [  1.09391667  18.53594423]]","[[0.         1.51474705]
 [0.1        0.52665811]
 [0.2        1.02671755]
 [0.3        1.37852638]
 [0.4        1.59017097]
 [0.5        1.0350591 ]
 [0.6        1.54938004]
 [0.7        1.20956018]
 [0.8        0.88397822]
 [0.9        0.33660763]
 [1.         1.47798938]
 [1.09391667 0.24191373]]",1,0.662
3,m,24,french,3,5,french,2024-02-09 11:37:30.674810,False,1,127,sounds\english\audio/english_45.wav,"[[  0.         -55.14721801]
 [  0.1         57.09452307]
 [  0.2         -1.62499195]
 [  0.3        -13.00347301]
 [  0.4         13.64765964]
 [  0.5        -16.23645369]
 [  0.6         12.80202188]
 [  0.7         18.490615  ]
 [  0.8        -32.73911513]
 [  0.9         72.91810524]
 [  1.         -39.54069726]
 [  1.09391667   1.32954538]]","[[0.         0.29299266]
 [0.1        0.9247964 ]
 [0.2        1.0494158 ]
 [0.3        1.81345336]
 [0.4        1.7292362 ]
 [0.5        0.3059786 ]
 [0.6        1.60566624]
 [0.7        1.60640041]
 [0.8        0.6923723 ]
 [0.9        1.31031073]
 [1.         0.9624361 ]
 [1.09391667 1.523717  ]]",1,0.34
3,m,24,french,3,5,french,2024-02-09 11:37:30.674810,False,1,128,sounds\english\audio/english_574.wav,"[[  0.          30.16253717]
 [  0.1        -51.87995618]
 [  0.2         24.46456732]
 [  0.3        -94.35752884]
 [  0.4         64.35841576]
 [  0.5        -49.28362763]
 [  0.6         14.18269939]
 [  0.7        -50.86809752]
 [  0.8         53.84502892]
 [  0.9        -66.65469805]
 [  1.         -86.96769925]
 [  1.09391667 -53.07810136]]","[[0.         0.985146  ]
 [0.1        1.53182158]
 [0.2        1.42910062]
 [0.3        0.82906666]
 [0.4        1.00783528]
 [0.5        1.2732344 ]
 [0.6        1.27248482]
 [0.7        0.5240718 ]
 [0.8        0.53991613]
 [0.9        0.74966761]
 [1.         0.29132247]
 [1.09391667 0.5179051 ]]",0,0.333
3,m,24,french,3,5,french,2024-02-09 11:37:30.674810,False,1,129,sounds\english\audio/english_332.wav,"[[  0.          53.78872747]
 [  0.1        -31.30231847]
 [  0.2        -95.20758858]
 [  0.3        -77.87616394]
 [  0.4          4.48979234]
 [  0.5        -76.42784497]
 [  0.6          6.07718634]
 [  0.7        -41.20247157]
 [  0.8        -17.3481238 ]
 [  0.9        -17.17913846]
 [  1.          18.70166714]
 [  1.09391667  50.68092334]]","[[0.         0.07590352]
 [0.1        0.7087577 ]
 [0.2        1.45218303]
 [0.3        0.80997209]
 [0.4        1.75678136]
 [0.5        1.99645024]
 [0.6        1.82588157]
 [0.7        0.2120908 ]
 [0.8        0.72760948]
 [0.9        0.31892552]
 [1.         0.40752537]
 [1.09391667 0.76645959]]",0,0.466
3,m,24,french,3,5,french,2024-02-09 11:37:30.674810,False,1,130,sounds\english\audio/english_984.wav,"[[  0.          37.06586667]
 [  0.1         50.7395804 ]
 [  0.2        -33.05935168]
 [  0.3        -68.36129611]
 [  0.4         97.30192   ]
 [  0.5         69.61380095]
 [  0.6         69.64301942]
 [  0.7         38.81811493]
 [  0.8          9.12823389]
 [  0.9        -90.77472933]
 [  1.         -60.21880391]
 [  1.09391667  58.74577388]]","[[0.         0.38877409]
 [0.1        1.41531624]
 [0.2        1.73475513]
 [0.3        0.46912413]
 [0.4        0.39793421]
 [0.5        0.96500121]
 [0.6        1.49151778]
 [0.7        0.60244076]
