subj,sex,age,language,english,french,native_lang,date,practice,block,trial,stim,pitch,stretch,response,rt
8723415159,f,25,english,4,5,french,2024-01-25 10:40:17.232188,False,2,253,sounds\english\audio/english_701.wav,"[[  0.         -93.84804117]
 [  0.1        -77.23912918]
 [  0.2        -45.57356693]
 [  0.3        -80.33366172]
 [  0.4         95.38038132]
 [  0.5         43.37257018]
 [  0.6         20.80863296]
 [  0.7        -74.49587502]
 [  0.8         53.82285156]
 [  0.9         86.20229822]
 [  1.         -84.46214873]
 [  1.09391667   1.75691035]]","[[0.         0.47905205]
 [0.1        0.43335114]
 [0.2        0.98258142]
 [0.3        1.56424934]
 [0.4        1.99053476]
 [0.5        1.06230172]
 [0.6        1.81617496]
 [0.7        0.70378114]
 [0.8        1.40362465]
 [0.9        0.70617413]
 [1.         0.74798843]
 [1.09391667 0.6850293 ]]",1,2.333
8723415159,f,25,english,4,5,french,2024-01-25 10:40:17.232188,False,2,254,sounds\english\audio/english_232.wav,"[[  0.         -26.51940276]
 [  0.1         80.97161113]
 [  0.2        -59.14883297]
 [  0.3         25.03200804]
 [  0.4         20.05380764]
 [  0.5         56.28196281]
 [  0.6         50.47197961]
 [  0.7         52.11037309]
 [  0.8         88.23327143]
 [  0.9         37.32869559]
 [  1.         -23.53745861]
 [  1.09391667  93.83220457]]","[[0.         0.21059611]
 [0.1        0.68519171]
 [0.2        1.41170079]
 [0.3        1.73443495]
 [0.4        0.29201417]
 [0.5        0.54790335]
 [0.6        1.77444553]
 [0.7        1.99008741]
 [0.8        0.74569824]
 [0.9        0.18993344]
 [1.         0.72085595]
 [1.09391667 1.92388819]]",0,2.55
8723415159,f,25,english,4,5,french,2024-01-25 10:40:17.232188,False,2,255,sounds\english\audio/english_12.wav,"[[  0.          42.97445599]
 [  0.1        -13.36169143]
 [  0.2         95.55347712]
 [  0.3         25.38194066]
 [  0.4          7.99263567]
 [  0.5        -99.22256454]
 [  0.6        -40.78265899]
 [  0.7          6.53756305]
 [  0.8        -20.69460066]
 [  0.9        -61.55291704]
 [  1.         -41.80363085]
 [  1.09391667 -15.66743162]]","[[0.         0.55669558]
 [0.1        0.58156084]
 [0.2        1.49895361]
 [0.3        1.21133401]
 [0.4        1.29255802]
 [0.5        0.60717751]
 [0.6        1.53494704]
 [0.7        0.96428077]
 [0.8        0.42904798]
 [0.9        1.90575432]
 [1.         0.98826975]
 [1.09391667 0.15634055]]",0,0.756
8723415159,f,25,english,4,5,french,2024-01-25 10:40:17.232188,False,2,256,sounds\english\audio/english_14.wav,"[[  0.          -5.69961552]
 [  0.1        -17.69328861]
 [  0.2        -45.6905252 ]
 [  0.3        -40.89378138]
 [  0.4        -36.19831956]
 [  0.5         13.76556606]
 [  0.6         51.91139139]
 [  0.7         22.36023261]
 [  0.8         -6.30606285]
 [  0.9         44.07295662]
 [  1.          49.08865221]
 [  1.09391667 -15.23758706]]","[[0.         1.552338  ]
 [0.1        0.71654176]
 [0.2        1.07785173]
 [0.3        1.31161341]
 [0.4        0.28947894]
 [0.5        0.6738955 ]
 [0.6        1.18134596]
 [0.7        0.36193456]
 [0.8        1.01055915]
 [0.9        1.51598154]
 [1.         1.55420583]
 [1.09391667 0.88497418]]",1,0.517
8723415159,f,25,english,4,5,french,2024-01-25 10:40:17.232188,False,2,257,sounds\english\audio/english_246.wav,"[[  0.          65.19555702]
 [  0.1        -88.31116696]
 [  0.2        -87.15645837]
 [  0.3         57.84934166]
 [  0.4        -76.45557784]
 [  0.5         66.32688278]
 [  0.6         93.44738027]
 [  0.7         54.7923908 ]
 [  0.8         -1.38437059]
 [  0.9          5.22264847]
 [  1.         -11.85909484]
 [  1.09391667  65.00290812]]","[[0.         1.04626937]
 [0.1        1.63597079]
 [0.2        1.95419498]
 [0.3        0.56872665]
 [0.4        0.40309221]
 [0.5        1.93282921]
 [0.6        1.28213971]
 [0.7        1.70127241]
 [0.8        0.15014799]
 [0.9        1.21649106]
 [1.         1.48942771]
 [1.09391667 0.35768018]]",1,0.891
8723415159,f,25,english,4,5,french,2024-01-25 10:40:17.232188,False,2,258,sounds\english\audio/english_664.wav,"[[  0.          87.83799753]
 [  0.1         93.07880912]
 [  0.2        -21.43792859]
 [  0.3         54.61607152]
 [  0.4         63.53186125]
 [  0.5         69.57332079]
 [  0.6        -98.283012  ]
 [  0.7          3.96514961]
 [  0.8        -68.49765079]
 [  0.9         22.71561052]
 [  1.          62.92065682]
 [  1.09391667   7.64063367]]","[[0.         0.80622544]
 [0.1        0.71131531]
 [0.2        0.52490717]
 [0.3        0.79105774]
 [0.4        0.74894626]
 [0.5        0.96341942]
 [0.6        0.12490453]
 [0.7        1.772086  ]
 [0.8        1.2138043 ]
 [0.9        1.03968333]
 [1.         1.01702127]
 [1.09391667 1.88905221]]",0,0.602
8723415159,f,25,english,4,5,french,2024-01-25 10:40:17.232188,False,2,259,sounds\english\audio/english_692.wav,"[[  0.          17.01173199]
 [  0.1        -83.06969334]
 [  0.2        -58.44100575]
 [  0.3        -91.32119293]
 [  0.4        -39.52405727]
 [  0.5        -40.26958375]
 [  0.6         55.4362835 ]
 [  0.7         20.27621399]
 [  0.8        -86.30023131]
 [  0.9          6.83955759]
 [  1.           6.70379303]
 [  1.09391667  92.50690067]]","[[0.         0.47550749]
 [0.1        1.08739119]
 [0.2        1.75941989]
 [0.3        0.308091  ]
 [0.4        0.34371229]
 [0.5        0.85553053]
 [0.6        1.67285815]
 [0.7        1.37569405]
 [0.8        1.97676153]
 [0.9        0.86697186]
 [1.         1.63903464]
 [1.09391667 0.89498599]]",0,0.358
8723415159,f,25,english,4,5,french,2024-01-25 10:40:17.232188,False,2,260,sounds\english\audio/english_278.wav,"[[  0.         -96.72610313]
 [  0.1        -36.86809982]
 [  0.2        -84.24626192]
 [  0.3        -29.99363641]
 [  0.4         21.41897552]
 [  0.5        -73.7985343 ]
 [  0.6        -83.05174317]
 [  0.7        -43.48487906]
 [  0.8        -48.22741203]
 [  0.9        -30.73203826]
 [  1.          22.54361358]
 [  1.09391667 -65.2249662 ]]","[[0.         0.83439052]
 [0.1        1.21055498]
 [0.2        0.05488492]
 [0.3        1.47058347]
 [0.4        0.68142996]
 [0.5        0.65955027]
 [0.6        1.54634177]
 [0.7        1.03072417]
 [0.8        0.15769377]
 [0.9        0.79374536]
 [1.         0.9877131 ]
 [1.09391667 1.82414956]]",1,0.44
8723415159,f,25,english,4,5,french,2024-01-25 10:40:17.232188,False,2,261,sounds\english\audio/english_313.wav,"[[  0.         -22.0180916 ]
 [  0.1         96.16831441]
 [  0.2        -45.33444961]
 [  0.3        -30.76295123]
 [  0.4         27.42080434]
 [  0.5         96.50313713]
 [  0.6         -0.94763764]
 [  0.7         67.04457313]
 [  0.8          2.6862445 ]
 [  0.9         47.07555832]
 [  1.         -32.41079138]
 [  1.09391667  11.15794631]]","[[0.         0.52298953]
 [0.1        0.58043298]
 [0.2        0.43861373]
 [0.3        0.29063093]
 [0.4        1.23880448]
 [0.5        0.08705859]
 [0.6        1.32086894]
 [0.7        1.2914561 ]
 [0.8        0.44865702]
 [0.9        1.89388378]
 [1.         1.69735018]
 [1.09391667 1.75721469]]",0,0.277
8723415159,f,25,english,4,5,french,2024-01-25 10:40:17.232188,False,2,262,sounds\english\audio/english_863.wav,"[[  0.           3.14313852]
 [  0.1        -23.21665248]
 [  0.2         94.57997372]
 [  0.3        -70.02674633]
 [  0.4         40.94796862]
 [  0.5         88.61836916]
 [  0.6         69.208784  ]
 [  0.7         77.12421504]
 [  0.8        -17.44873358]
 [  0.9        -87.01424673]
 [  1.         -56.04990787]
 [  1.09391667 -48.10301357]]","[[0.         1.16629305]
 [0.1        0.07060829]
 [0.2        0.73624632]
 [0.3        1.78608874]
 [0.4        1.19353904]
 [0.5        1.05800258]
 [0.6        1.13776513]
 [0.7        0.42226269]
 [0.8        1.07561455]
 [0.9        0.7154793 ]
 [1.         0.64178271]
 [1.09391667 1.63280959]]",1,0.717
8723415159,f,25,english,4,5,french,2024-01-25 10:40:17.232188,False,2,263,sounds\english\audio/english_957.wav,"[[  0.           0.52999287]
 [  0.1         42.88408516]
 [  0.2          5.2606001 ]
 [  0.3         69.22866022]
 [  0.4        -59.59002501]
 [  0.5         52.62821971]
 [  0.6         14.01522052]
 [  0.7         90.51709562]
 [  0.8        -27.52109457]
 [  0.9         51.07495461]
 [  1.          15.68851607]
 [  1.09391667  97.28292288]]","[[0.         1.69063339]
 [0.1        0.90191616]
 [0.2        1.66392033]
 [0.3        0.83925309]
 [0.4        0.68526896]
 [0.5        1.27190364]
 [0.6        0.49105021]
 [0.7        1.03233072]
 [0.8        1.62340823]
 [0.9        1.37639553]
 [1.         1.23872079]
 [1.09391667 0.29572749]]",0,0.403
8723415159,f,25,english,4,5,french,2024-01-25 10:40:17.232188,False,2,264,sounds\english\audio/english_742.wav,"[[  0.          16.40248558]
 [  0.1        -74.48361089]
 [  0.2        -68.54189756]
 [  0.3        -12.74577912]
 [  0.4         42.91022855]
 [  0.5         61.35454691]
 [  0.6        -74.78284805]
 [  0.7         71.03659878]
 [  0.8         51.11475536]
 [  0.9         52.57489365]
 [  1.         -21.18365938]
 [  1.09391667  62.14901308]]","[[0.         0.38841716]
 [0.1        0.81078957]
 [0.2        1.40021639]
 [0.3        0.37000306]
 [0.4        0.86528291]
 [0.5        0.21278301]
 [0.6        1.55046698]
 [0.7        1.739545  ]
 [0.8        1.10810315]
 [0.9        0.37698393]
 [1.         1.01484038]
 [1.09391667 0.3479372 ]]",1,1.379
8723415159,f,25,english,4,5,french,2024-01-25 10:40:17.232188,False,2,265,sounds\english\audio/english_238.wav,"[[  0.         -25.3614735 ]
 [  0.1         13.63610574]
 [  0.2         47.68455174]
 [  0.3        -45.84662584]
 [  0.4        -24.72789326]
 [  0.5         64.94752312]
 [  0.6         91.26767563]
 [  0.7         39.1185383 ]
 [  0.8        -79.79663189]
 [  0.9         82.76131323]
 [  1.         -67.84724973]
 [  1.09391667  10.72336038]]","[[0.         1.74975572]
 [0.1        0.46955084]
 [0.2        0.90849847]
 [0.3        1.75842807]
 [0.4        0.8348983 ]
 [0.5        0.09811013]
 [0.6        0.01897595]
 [0.7        1.47798962]
 [0.8        0.10732885]
 [0.9        1.36210441]
 [1.         1.46345611]
 [1.09391667 1.19403649]]",1,0.371
8723415159,f,25,english,4,5,french,2024-01-25 10:40:17.232188,False,2,266,sounds\english\audio/english_60.wav,"[[  0.          10.59186776]
 [  0.1         40.50364305]
 [  0.2        -14.0687602 ]
 [  0.3        -65.99656217]
 [  0.4         15.70320652]
 [  0.5        -30.42091681]
 [  0.6        -42.76109802]
 [  0.7         79.72211157]
 [  0.8        -76.06160398]
 [  0.9        -29.21518782]
 [  1.         -57.95886313]
 [  1.09391667  -5.07129897]]","[[0.         1.18276714]
 [0.1        1.35618457]
 [0.2        0.82779989]
 [0.3        0.57077879]
 [0.4        0.07108592]
 [0.5        0.69784791]
 [0.6        1.83211062]
 [0.7        1.14011333]
 [0.8        1.5550445 ]
 [0.9        0.72383993]
 [1.         1.31578319]
 [1.09391667 0.46327009]]",0,0.746
8723415159,f,25,english,4,5,french,2024-01-25 10:40:17.232188,False,2,267,sounds\english\audio/english_841.wav,"[[  0.          13.47649633]
 [  0.1         -4.31438018]
 [  0.2         33.0563647 ]
 [  0.3         86.84745786]
 [  0.4        -66.40745707]
 [  0.5        -45.55484269]
 [  0.6        -86.08753099]
 [  0.7        -95.45735959]
 [  0.8         23.86654109]
 [  0.9        -11.20743419]
 [  1.         -48.1272879 ]
 [  1.09391667  65.71403117]]","[[0.         0.2030304 ]
 [0.1        1.4654032 ]
 [0.2        0.99950721]
 [0.3        0.04710196]
 [0.4        1.47568135]
 [0.5        1.38964748]
 [0.6        1.63844318]
 [0.7        1.01920512]
 [0.8        1.35517017]
 [0.9        1.07128935]
 [1.         1.6005201 ]
 [1.09391667 1.58502918]]",0,0.341
8723415159,f,25,english,4,5,french,2024-01-25 10:40:17.232188,False,2,268,sounds\english\audio/english_905.wav,"[[  0.         -38.82719082]
 [  0.1         91.73556094]
 [  0.2        -44.32627421]
 [  0.3        -65.11156064]
 [  0.4        -48.38956406]
 [  0.5        -66.93781594]
 [  0.6        -31.37264091]
 [  0.7        -76.42119949]
 [  0.8         90.55453052]
 [  0.9        -13.8538154 ]
 [  1.          10.60108282]
 [  1.09391667 -16.89815331]]","[[0.         0.64550094]
 [0.1        1.31053491]
 [0.2        0.47707545]
 [0.3        0.49456239]
 [0.4        0.97248604]
 [0.5        0.82967407]
 [0.6        0.41334293]
 [0.7        0.8386705 ]
 [0.8        0.29898441]
 [0.9        0.28325918]
 [1.         0.58400342]
 [1.09391667 0.41677525]]",1,0.378
8723415159,f,25,english,4,5,french,2024-01-25 10:40:17.232188,False,2,269,sounds\english\audio/english_78.wav,"[[  0.          42.39797886]
 [  0.1        -36.07857938]
 [  0.2        -66.49689514]
 [  0.3         52.41013344]
 [  0.4         60.05478812]
 [  0.5         -4.62250103]
 [  0.6        -80.28349147]
 [  0.7         83.57222547]
 [  0.8          7.4922518 ]
 [  0.9        -18.57317231]
 [  1.         -60.66079691]
 [  1.09391667  37.22949989]]","[[0.         1.50616235]
 [0.1        0.54303847]
 [0.2        0.95347503]
 [0.3        1.62003629]
 [0.4        1.61647939]
 [0.5        0.17410512]
 [0.6        0.43268803]
 [0.7        0.08104601]
 [0.8        1.61489209]
 [0.9        0.08012208]
 [1.         0.76901301]
 [1.09391667 1.86046092]]",0,1.198
8723415159,f,25,english,4,5,french,2024-01-25 10:40:17.232188,False,2,270,sounds\english\audio/english_282.wav,"[[  0.          79.51809952]
 [  0.1         55.92109115]
 [  0.2         36.01060515]
 [  0.3          4.60281664]
 [  0.4         35.69966579]
 [  0.5        -79.87721836]
 [  0.6         -3.98252218]
 [  0.7        -78.10052274]
 [  0.8         69.1474283 ]
 [  0.9         58.09261901]
 [  1.          94.50826365]
 [  1.09391667  71.90418642]]","[[0.         1.2792911 ]
 [0.1        0.93344042]
 [0.2        1.94968889]
 [0.3        1.12428424]
 [0.4        0.7610034 ]
 [0.5        0.66186596]
 [0.6        0.57211865]
 [0.7        0.40544896]
 [0.8        0.68156422]
 [0.9        0.87028019]
 [1.         1.91563213]
 [1.09391667 1.01931827]]",1,3.104
8723415159,f,25,english,4,5,french,2024-01-25 10:40:17.232188,False,2,271,sounds\english\audio/english_278.wav,"[[  0.         -96.72610313]
 [  0.1        -36.86809982]
 [  0.2        -84.24626192]
 [  0.3        -29.99363641]
 [  0.4         21.41897552]
 [  0.5        -73.7985343 ]
 [  0.6        -83.05174317]
 [  0.7        -43.48487906]
 [  0.8        -48.22741203]
 [  0.9        -30.73203826]
 [  1.          22.54361358]
 [  1.09391667 -65.2249662 ]]","[[0.         0.83439052]
 [0.1        1.21055498]
 [0.2        0.05488492]
 [0.3        1.47058347]
 [0.4        0.68142996]
 [0.5        0.65955027]
 [0.6        1.54634177]
 [0.7        1.03072417]
 [0.8        0.15769377]
 [0.9        0.79374536]
 [1.         0.9877131 ]
 [1.09391667 1.82414956]]",1,0.838
8723415159,f,25,english,4,5,french,2024-01-25 10:40:17.232188,False,2,272,sounds\english\audio/english_772.wav,"[[  0.         -98.58408334]
 [  0.1        -61.87034705]
 [  0.2        -18.09819366]
 [  0.3         12.3782964 ]
 [  0.4        -22.02938965]
 [  0.5         59.95527001]
 [  0.6        -20.50157966]
 [  0.7        -21.89990222]
 [  0.8         25.10186839]
 [  0.9         -9.02191032]
 [  1.         -16.49784397]
 [  1.09391667 -42.94184761]]","[[0.         0.99511883]
 [0.1        1.73357078]
 [0.2        0.0586696 ]
 [0.3        0.06385699]
 [0.4        1.69798328]
 [0.5        1.42811841]
 [0.6        1.57518039]
 [0.7        1.02318801]
 [0.8        0.72889481]
 [0.9        0.61952628]
 [1.         1.31221342]
 [1.09391667 1.78690458]]",0,0.368
8723415159,f,25,english,4,5,french,2024-01-25 10:40:17.232188,False,2,273,sounds\english\audio/english_954.wav,"[[  0.          -5.86860432]
 [  0.1         38.42724969]
 [  0.2         83.51680292]
 [  0.3        -25.06032499]
 [  0.4        -17.48975264]
 [  0.5         95.06102198]
 [  0.6          0.80140457]
 [  0.7        -41.69263262]
 [  0.8         18.46045351]
 [  0.9         -7.88727361]
 [  1.         -34.36872213]
 [  1.09391667  40.0906943 ]]","[[0.         0.02682789]
 [0.1        1.50907573]
 [0.2        1.17187714]
 [0.3        1.88473576]
 [0.4        0.3035603 ]
 [0.5        1.35082964]
 [0.6        0.63281948]
 [0.7        0.91375779]
 [0.8        0.80486046]
 [0.9        0.18383046]
 [1.         1.25307449]
 [1.09391667 0.22905501]]",1,0.441
8723415159,f,25,english,4,5,french,2024-01-25 10:40:17.232188,False,2,274,sounds\english\audio/english_685.wav,"[[  0.          62.22235335]
 [  0.1        -97.11025465]
 [  0.2         72.03160739]
 [  0.3         40.47895004]
 [  0.4        -75.64985874]
 [  0.5        -62.21115329]
 [  0.6         34.38722215]
 [  0.7         96.86141958]
 [  0.8         52.32592552]
 [  0.9         47.74773781]
 [  1.          37.75239805]
 [  1.09391667 -10.16077912]]","[[0.         0.91642602]
 [0.1        1.72329218]
 [0.2        1.99088782]
 [0.3        0.00501952]
 [0.4        1.41330373]
 [0.5        0.58310659]
 [0.6        1.5248844 ]
 [0.7        0.15841589]
 [0.8        1.39576372]
 [0.9        1.97205737]
 [1.         1.24408728]
 [1.09391667 1.54258522]]",0,0.193
8723415159,f,25,english,4,5,french,2024-01-25 10:40:17.232188,False,2,275,sounds\english\audio/english_752.wav,"[[  0.          52.61686216]
 [  0.1        -18.45204241]
 [  0.2         -6.44553856]
 [  0.3         54.48685686]
 [  0.4        -14.12902415]
 [  0.5        -68.0514313 ]
 [  0.6        -35.48747748]
 [  0.7        -40.39140323]
 [  0.8        -44.26325446]
 [  0.9         18.34874791]
 [  1.         -42.03859304]
 [  1.09391667  68.7756392 ]]","[[0.         1.6341758 ]
 [0.1        0.5397069 ]
 [0.2        1.4905668 ]
 [0.3        0.49055919]
 [0.4        1.50348136]
 [0.5        0.53453917]
 [0.6        1.00064578]
 [0.7        0.9078798 ]
 [0.8        1.8374475 ]
 [0.9        0.61675218]
 [1.         0.24596276]
 [1.09391667 0.85105991]]",0,0.42
8723415159,f,25,english,4,5,french,2024-01-25 10:40:17.232188,False,2,276,sounds\english\audio/english_592.wav,"[[  0.          30.98461306]
 [  0.1        -17.79187274]
 [  0.2         33.7453651 ]
 [  0.3        -15.93784107]
 [  0.4         36.34266121]
 [  0.5         -6.45881142]
 [  0.6         38.75009271]
 [  0.7        -18.69448539]
 [  0.8         10.99383987]
 [  0.9        -57.55307603]
 [  1.          68.46340248]
 [  1.09391667 -57.3554082 ]]","[[0.         1.65452317]
 [0.1        0.58176006]
 [0.2        0.51380187]
 [0.3        0.75142438]
 [0.4        1.13924678]
 [0.5        0.73835275]
 [0.6        0.33161747]
 [0.7        0.65193992]
 [0.8        1.64752508]
 [0.9        1.01941164]
 [1.         0.79462289]
 [1.09391667 1.32766904]]",0,1.794
8723415159,f,25,english,4,5,french,2024-01-25 10:40:17.232188,False,2,277,sounds\english\audio/english_144.wav,"[[  0.          31.57285019]
 [  0.1        -66.82367858]
 [  0.2         25.9026646 ]
 [  0.3        -73.3005143 ]
 [  0.4         44.123678  ]
 [  0.5         49.27770762]
 [  0.6         22.38256085]
 [  0.7         -9.16605426]
 [  0.8        -36.80428778]
 [  0.9         -3.57060361]
 [  1.         -56.05458997]
 [  1.09391667 -88.6470882 ]]","[[0.         1.02092862]
 [0.1        1.21687454]
 [0.2        0.83451974]
 [0.3        1.57454957]
 [0.4        0.07717076]
 [0.5        0.27181384]
 [0.6        1.7133157 ]
 [0.7        1.06775729]
 [0.8        1.42091993]
 [0.9        0.01524657]
 [1.         0.90246411]
 [1.09391667 1.74083532]]",0,1.66
8723415159,f,25,english,4,5,french,2024-01-25 10:40:17.232188,False,2,278,sounds\english\audio/english_489.wav,"[[  0.          34.87513384]
 [  0.1        -56.49709653]
 [  0.2        -69.32456338]
 [  0.3         53.20706346]
 [  0.4         66.8977185 ]
 [  0.5         47.95425842]
 [  0.6         18.45634507]
 [  0.7        -35.00488862]
 [  0.8         41.56892466]
 [  0.9         -9.61579481]
 [  1.         -77.26438838]
 [  1.09391667 -34.81016687]]","[[0.         0.04879029]
 [0.1        0.42206675]
 [0.2        1.77329015]
 [0.3        0.48934341]
 [0.4        1.53841919]
 [0.5        1.90609151]
 [0.6        1.04648426]
 [0.7        0.7592551 ]
 [0.8        1.06956744]
 [0.9        0.57636466]
 [1.         0.72315176]
 [1.09391667 0.99781533]]",1,3.009
8723415159,f,25,english,4,5,french,2024-01-25 10:40:17.232188,False,2,279,sounds\english\audio/english_63.wav,"[[  0.          48.80645604]
 [  0.1          3.74871088]
 [  0.2         36.66338235]
 [  0.3          0.45158548]
 [  0.4        -34.50897998]
 [  0.5         21.44979621]
 [  0.6        -13.42489637]
 [  0.7          3.18187359]
 [  0.8        -14.80243304]
 [  0.9         76.25105629]
 [  1.         -29.02472721]
 [  1.09391667 -75.42163707]]","[[0.         0.56207448]
 [0.1        0.93485315]
 [0.2        1.21075073]
 [0.3        1.91331277]
 [0.4        0.52750999]
 [0.5        1.42707635]
 [0.6        1.96742567]
 [0.7        1.57355325]
 [0.8        0.94386171]
 [0.9        0.6095205 ]
 [1.         0.97846037]
 [1.09391667 1.94412545]]",0,1.546
8723415159,f,25,english,4,5,french,2024-01-25 10:40:17.232188,False,2,280,sounds\english\audio/english_338.wav,"[[  0.         -28.32882855]
 [  0.1         57.31812169]
 [  0.2         14.45982208]
 [  0.3         77.41090692]
 [  0.4         -1.8867557 ]
 [  0.5        -35.85874383]
 [  0.6        -55.1613605 ]
 [  0.7        -70.94430614]
 [  0.8          5.91952673]
 [  0.9        -77.52896216]
 [  1.         -12.19112467]
 [  1.09391667   6.6549641 ]]","[[0.         1.26446903]
 [0.1        0.76759877]
 [0.2        1.52351901]
 [0.3        1.04471398]
 [0.4        0.90426999]
 [0.5        1.69664706]
 [0.6        0.17582058]
 [0.7        0.54140942]
 [0.8        0.81798021]
 [0.9        1.90630538]
 [1.         0.59557422]
 [1.09391667 0.42071392]]",0,1.42
8723415159,f,25,english,4,5,french,2024-01-25 10:40:17.232188,False,2,281,sounds\english\audio/english_368.wav,"[[  0.         -21.74410199]
 [  0.1        -54.46820056]
 [  0.2         36.37288824]
 [  0.3         28.79669065]
 [  0.4         64.63914759]
 [  0.5        -47.48725989]
 [  0.6        -56.63725257]
 [  0.7        -15.67963737]
 [  0.8        -67.03077711]
 [  0.9        -87.98164929]
 [  1.          66.360443  ]
 [  1.09391667  86.76512067]]","[[0.         1.11444004]
 [0.1        1.02689489]
 [0.2        1.84847876]
 [0.3        1.32768322]
 [0.4        1.2143292 ]
 [0.5        1.4175641 ]
 [0.6        0.26859899]
 [0.7        1.20913194]
 [0.8        0.71725489]
 [0.9        0.61705061]
 [1.         1.87423649]
 [1.09391667 0.90814369]]",0,0.249
8723415159,f,25,english,4,5,french,2024-01-25 10:40:17.232188,False,2,282,sounds\english\audio/english_910.wav,"[[  0.          93.46024718]
 [  0.1        -38.0106705 ]
 [  0.2        -30.70791106]
 [  0.3        -49.1070975 ]
 [  0.4         91.46247689]
 [  0.5         78.82386136]
 [  0.6         -6.45155929]
 [  0.7        -83.2103546 ]
 [  0.8        -83.88050829]
 [  0.9        -99.45548406]
 [  1.          66.97768693]
 [  1.09391667  38.56846955]]","[[0.         0.69074333]
 [0.1        0.32933862]
 [0.2        1.76708997]
 [0.3        0.49648564]
 [0.4        1.45285745]
 [0.5        1.00544929]
 [0.6        1.307348  ]
 [0.7        0.52979989]
 [0.8        1.11439341]
 [0.9        1.95169189]
 [1.         1.74620984]
 [1.09391667 0.09671244]]",0,0.258
8723415159,f,25,english,4,5,french,2024-01-25 10:40:17.232188,False,2,283,sounds\english\audio/english_301.wav,"[[  0.          20.00084454]
 [  0.1        -52.8514029 ]
 [  0.2         18.35573453]
 [  0.3         20.24530443]
 [  0.4        -31.13596974]
 [  0.5        -57.63348461]
 [  0.6        -75.64185581]
 [  0.7         11.75816268]
 [  0.8         94.20607314]
 [  0.9        -85.03664705]
 [  1.         -35.05020918]
 [  1.09391667  79.38839228]]","[[0.         0.51149801]
 [0.1        1.39891418]
 [0.2        1.20064295]
 [0.3        1.16262284]
 [0.4        0.89189618]
 [0.5        0.05591257]
 [0.6        1.65560528]
 [0.7        0.92096294]
 [0.8        0.41490279]
 [0.9        1.73145538]
 [1.         1.60276464]
 [1.09391667 1.26188471]]",0,1.469
8723415159,f,25,english,4,5,french,2024-01-25 10:40:17.232188,False,2,284,sounds\english\audio/english_606.wav,"[[  0.          72.77252021]
 [  0.1         22.60713343]
 [  0.2         30.91882808]
 [  0.3        -48.84223864]
 [  0.4        -29.82386042]
 [  0.5         82.48397831]
 [  0.6        -18.49396427]
 [  0.7         26.88567381]
 [  0.8        -18.34346668]
 [  0.9         10.06544583]
 [  1.         -89.88083722]
 [  1.09391667  66.64968825]]","[[0.         1.14271188]
 [0.1        1.41897374]
 [0.2        1.73372854]
 [0.3        1.07065865]
 [0.4        0.5542197 ]
 [0.5        0.65978179]
 [0.6        0.64487358]
 [0.7        1.50533402]
 [0.8        1.51615031]
 [0.9        0.11673085]
 [1.         0.60775024]
 [1.09391667 0.13627416]]",1,0.311
8723415159,f,25,english,4,5,french,2024-01-25 10:40:17.232188,False,2,285,sounds\english\audio/english_508.wav,"[[  0.          29.95487344]
 [  0.1        -43.56994085]
 [  0.2         95.99440846]
 [  0.3         96.63128694]
 [  0.4         81.88240965]
 [  0.5        -30.32405698]
 [  0.6        -70.6760635 ]
 [  0.7        -36.19238407]
 [  0.8         18.2315003 ]
 [  0.9        -71.56865734]
 [  1.         -72.78274833]
 [  1.09391667  51.72471755]]","[[0.         1.28947786]
 [0.1        0.45872669]
 [0.2        1.02864136]
 [0.3        1.38697031]
 [0.4        0.48619633]
 [0.5        1.35316712]
 [0.6        0.61818132]
 [0.7        0.31535759]
 [0.8        1.60240226]
 [0.9        1.17638413]
 [1.         0.8457368 ]
 [1.09391667 0.31851434]]",0,0.712
8723415159,f,25,english,4,5,french,2024-01-25 10:40:17.232188,False,2,286,sounds\english\audio/english_915.wav,"[[  0.         -21.98271396]
 [  0.1          1.0207487 ]
 [  0.2         23.02274493]
 [  0.3         85.32608832]
 [  0.4        -33.34189035]
 [  0.5         29.21421043]
 [  0.6         56.26543798]
 [  0.7          7.71467122]
 [  0.8         88.21567756]
 [  0.9        -50.54904275]
 [  1.         -64.3056321 ]
 [  1.09391667 -64.41259803]]","[[0.         1.11106838]
 [0.1        1.44455779]
 [0.2        1.42587556]
 [0.3        1.47521249]
 [0.4        1.68905856]
 [0.5        1.40181913]
 [0.6        1.46869984]
 [0.7        0.70433786]
 [0.8        1.11015014]
 [0.9        0.72100932]
 [1.         1.02681764]
 [1.09391667 0.869897  ]]",0,0.473
8723415159,f,25,english,4,5,french,2024-01-25 10:40:17.232188,False,2,287,sounds\english\audio/english_26.wav,"[[  0.         -47.00443728]
 [  0.1        -34.82629788]
 [  0.2         24.7004615 ]
 [  0.3         58.84625328]
 [  0.4         35.91387632]
 [  0.5        -49.42977929]
 [  0.6         63.62799551]
 [  0.7        -20.10119494]
 [  0.8        -32.9417882 ]
 [  0.9        -76.94114545]
 [  1.          55.52160425]
 [  1.09391667 -26.0703889 ]]","[[0.         0.76495966]
 [0.1        0.39579578]
 [0.2        0.94110956]
 [0.3        1.03122295]
 [0.4        0.44153341]
 [0.5        0.19802805]
 [0.6        0.5127439 ]
 [0.7        1.41060294]
 [0.8        0.36769689]
 [0.9        0.44844399]
 [1.         0.43574826]
 [1.09391667 0.40615906]]",1,0.388
8723415159,f,25,english,4,5,french,2024-01-25 10:40:17.232188,False,2,288,sounds\english\audio/english_664.wav,"[[  0.          87.83799753]
 [  0.1         93.07880912]
 [  0.2        -21.43792859]
 [  0.3         54.61607152]
 [  0.4         63.53186125]
 [  0.5         69.57332079]
 [  0.6        -98.283012  ]
 [  0.7          3.96514961]
 [  0.8        -68.49765079]
 [  0.9         22.71561052]
 [  1.          62.92065682]
 [  1.09391667   7.64063367]]","[[0.         0.80622544]
 [0.1        0.71131531]
 [0.2        0.52490717]
 [0.3        0.79105774]
 [0.4        0.74894626]
 [0.5        0.96341942]
 [0.6        0.12490453]
 [0.7        1.772086  ]
 [0.8        1.2138043 ]
 [0.9        1.03968333]
 [1.         1.01702127]
 [1.09391667 1.88905221]]",0,0.244
8723415159,f,25,english,4,5,french,2024-01-25 10:40:17.232188,False,2,289,sounds\english\audio/english_230.wav,"[[  0.          33.38389537]
 [  0.1        -34.15374901]
 [  0.2        -17.15972141]
 [  0.3         -8.06213265]
 [  0.4         10.20192226]
 [  0.5        -58.60843687]
 [  0.6         79.76687213]
 [  0.7        -68.85443864]
 [  0.8        -14.23970475]
 [  0.9        -88.80466565]
 [  1.         -64.76676699]
 [  1.09391667 -85.72124736]]","[[0.         1.56748289]
 [0.1        0.35840318]
 [0.2        0.69573927]
 [0.3        1.48062695]
 [0.4        1.80584749]
 [0.5        0.27713833]
 [0.6        0.54911174]
 [0.7        0.47648858]
 [0.8        1.61704234]
 [0.9        1.41921333]
 [1.         0.47778277]
 [1.09391667 0.86213517]]",0,0.262
8723415159,f,25,english,4,5,french,2024-01-25 10:40:17.232188,False,2,290,sounds\english\audio/english_852.wav,"[[  0.         -72.43588369]
 [  0.1        -98.6251287 ]
 [  0.2        -89.42746768]
 [  0.3        -34.62530113]
 [  0.4         30.41205687]
 [  0.5          2.837509  ]
 [  0.6        -71.5278257 ]
 [  0.7         49.48057975]
 [  0.8         88.19174023]
 [  0.9         20.52660859]
 [  1.         -18.49679028]
 [  1.09391667  15.64652165]]","[[0.         0.36787591]
 [0.1        1.73505489]
 [0.2        1.62660713]
 [0.3        0.43311906]
 [0.4        0.44776213]
 [0.5        1.35793831]
 [0.6        0.32605315]
 [0.7        0.34111515]
 [0.8        1.45336533]
 [0.9        1.82703196]
 [1.         0.13003363]
 [1.09391667 0.89322684]]",0,0.396
8723415159,f,25,english,4,5,french,2024-01-25 10:40:17.232188,False,2,291,sounds\english\audio/english_5.wav,"[[  0.         -71.05887053]
 [  0.1        -36.04846502]
 [  0.2         68.09307416]
 [  0.3        -71.61609357]
 [  0.4        -14.92970524]
 [  0.5         36.04461977]
 [  0.6         61.01603353]
 [  0.7         22.04787058]
 [  0.8        -76.70141108]
 [  0.9         72.36411847]
 [  1.          -2.42248121]
 [  1.09391667 -45.78406478]]","[[0.         0.69305634]
 [0.1        1.95331705]
 [0.2        0.24939242]
 [0.3        1.30786136]
 [0.4        0.35721873]
 [0.5        1.66367269]
 [0.6        1.49043319]
 [0.7        1.08702194]
 [0.8        0.32363826]
 [0.9        0.22271442]
 [1.         1.0907403 ]
 [1.09391667 0.00462457]]",0,2.295
8723415159,f,25,english,4,5,french,2024-01-25 10:40:17.232188,False,2,292,sounds\english\audio/english_328.wav,"[[  0.         -34.15226182]
 [  0.1         46.58879641]
 [  0.2          7.44753162]
 [  0.3        -92.44554452]
 [  0.4          3.63383719]
 [  0.5         -2.02722829]
 [  0.6        -82.23630384]
 [  0.7        -69.01372747]
 [  0.8        -25.63899755]
 [  0.9         -0.50353538]
 [  1.         -86.64513647]
 [  1.09391667 -24.00524896]]","[[0.         1.97940755]
 [0.1        1.19087686]
 [0.2        0.43566007]
 [0.3        0.76183496]
 [0.4        0.8818405 ]
 [0.5        1.27876528]
 [0.6        1.49520956]
 [0.7        1.75978666]
 [0.8        1.56278657]
 [0.9        0.58848955]
 [1.         1.05304823]
 [1.09391667 1.60265091]]",0,0.157
8723415159,f,25,english,4,5,french,2024-01-25 10:40:17.232188,False,2,293,sounds\english\audio/english_68.wav,"[[  0.          26.58837816]
 [  0.1        -30.26201774]
 [  0.2        -90.31994669]
 [  0.3        -80.73820175]
 [  0.4        -81.40390329]
 [  0.5        -53.94630637]
 [  0.6         54.33124478]
 [  0.7        -19.04235486]
 [  0.8        -60.29150312]
 [  0.9        -10.04711988]
 [  1.          14.48015304]
 [  1.09391667 -61.29871008]]","[[0.         1.41652886]
 [0.1        1.6821225 ]
 [0.2        0.24298021]
 [0.3        0.67959509]
 [0.4        1.6191627 ]
 [0.5        0.53489657]
 [0.6        1.08896417]
 [0.7        1.94234514]
 [0.8        1.53460069]
 [0.9        1.76859618]
 [1.         0.93905077]
 [1.09391667 1.70593474]]",0,0.098
8723415159,f,25,english,4,5,french,2024-01-25 10:40:17.232188,False,2,294,sounds\english\audio/english_14.wav,"[[  0.          -5.69961552]
 [  0.1        -17.69328861]
 [  0.2        -45.6905252 ]
 [  0.3        -40.89378138]
 [  0.4        -36.19831956]
 [  0.5         13.76556606]
 [  0.6         51.91139139]
 [  0.7         22.36023261]
 [  0.8         -6.30606285]
 [  0.9         44.07295662]
 [  1.          49.08865221]
 [  1.09391667 -15.23758706]]","[[0.         1.552338  ]
 [0.1        0.71654176]
 [0.2        1.07785173]
 [0.3        1.31161341]
 [0.4        0.28947894]
 [0.5        0.6738955 ]
 [0.6        1.18134596]
 [0.7        0.36193456]
 [0.8        1.01055915]
 [0.9        1.51598154]
 [1.         1.55420583]
 [1.09391667 0.88497418]]",0,0.17
8723415159,f,25,english,4,5,french,2024-01-25 10:40:17.232188,False,2,295,sounds\english\audio/english_8.wav,"[[  0.         -40.69746503]
 [  0.1         -2.63283103]
 [  0.2          5.50551206]
 [  0.3         17.73685221]
 [  0.4         -9.16902595]
 [  0.5        -34.7445518 ]
 [  0.6        -48.45099415]
 [  0.7         77.2460415 ]
 [  0.8        -58.60489112]
 [  0.9        -48.13629471]
 [  1.          56.51883775]
 [  1.09391667 -41.21742626]]","[[0.         1.91325818]
 [0.1        0.20995582]
 [0.2        1.37536133]
 [0.3        1.26994408]
 [0.4        1.33651222]
 [0.5        1.4592859 ]
 [0.6        0.38968971]
 [0.7        0.19810868]
 [0.8        0.97081537]
 [0.9        0.35861069]
 [1.         1.51205719]
 [1.09391667 0.71101002]]",0,1.608
8723415159,f,25,english,4,5,french,2024-01-25 10:40:17.232188,False,2,296,sounds\english\audio/english_618.wav,"[[  0.         -79.9488622 ]
 [  0.1          0.24132163]
 [  0.2        -56.62295111]
 [  0.3        -72.03937353]
 [  0.4        -44.72303747]
 [  0.5        -96.08672425]
 [  0.6         63.06881346]
 [  0.7          7.33604436]
 [  0.8         76.47736911]
 [  0.9        -52.54898443]
 [  1.          33.73192618]
 [  1.09391667  31.05572927]]","[[0.         1.91362605]
 [0.1        0.6330552 ]
 [0.2        0.97728614]
 [0.3        0.96298019]
 [0.4        1.81673931]
 [0.5        0.35989287]
 [0.6        1.43341205]
 [0.7        1.78848637]
 [0.8        1.05646412]
 [0.9        0.998868  ]
 [1.         1.38011588]
 [1.09391667 1.5899218 ]]",0,0.177
8723415159,f,25,english,4,5,french,2024-01-25 10:40:17.232188,False,2,297,sounds\english\audio/english_266.wav,"[[  0.          85.08589672]
 [  0.1        -31.38715876]
 [  0.2         12.76761621]
 [  0.3        -84.09112809]
 [  0.4        -35.65738205]
 [  0.5         -1.3575127 ]
 [  0.6         28.50579554]
 [  0.7        -64.0196403 ]
 [  0.8        -12.66471897]
 [  0.9         33.09789324]
 [  1.          96.55876506]
 [  1.09391667  86.66414538]]","[[0.         0.35806768]
 [0.1        1.30312729]
 [0.2        0.13135106]
 [0.3        1.10001243]
 [0.4        0.09400181]
 [0.5        1.62804367]
 [0.6        0.86420495]
 [0.7        0.86051542]
 [0.8        1.59602975]
 [0.9        1.84870637]
 [1.         1.74532524]
 [1.09391667 1.19425471]]",0,0.208
8723415159,f,25,english,4,5,french,2024-01-25 10:40:17.232188,False,2,298,sounds\english\audio/english_462.wav,"[[  0.          78.76621738]
 [  0.1         31.47495931]
 [  0.2        -13.74936046]
 [  0.3        -80.17251448]
 [  0.4        -78.67939132]
 [  0.5         43.51355655]
 [  0.6          3.64631971]
 [  0.7        -45.69022839]
 [  0.8        -12.47954209]
 [  0.9        -13.33411056]
 [  1.          14.72637348]
 [  1.09391667 -47.88617719]]","[[0.         0.83121963]
 [0.1        1.43506309]
 [0.2        0.97721307]
 [0.3        0.92562125]
 [0.4        0.04016866]
 [0.5        0.46288791]
 [0.6        1.76703425]
 [0.7        1.40353438]
 [0.8        0.01443424]
 [0.9        0.75223744]
 [1.         0.69611535]
 [1.09391667 0.81633503]]",1,0.608
8723415159,f,25,english,4,5,french,2024-01-25 10:40:17.232188,False,2,299,sounds\english\audio/english_267.wav,"[[  0.         -20.34373052]
 [  0.1         -8.01422086]
 [  0.2         93.04230665]
 [  0.3         41.74649662]
 [  0.4        -13.67169735]
 [  0.5         42.92753135]
 [  0.6        -31.66614436]
 [  0.7        -46.69110061]
 [  0.8         96.69640531]
 [  0.9        -51.1349073 ]
 [  1.         -31.48458059]
 [  1.09391667  82.51520959]]","[[0.         1.22339913]
 [0.1        0.37157124]
 [0.2        0.88881734]
 [0.3        0.98806935]
 [0.4        1.63374899]
 [0.5        1.27803897]
 [0.6        0.65843477]
 [0.7        1.12503577]
 [0.8        1.26069156]
 [0.9        0.35873403]
 [1.         1.24202174]
 [1.09391667 1.58881388]]",0,0.826
8723415159,f,25,english,4,5,french,2024-01-25 10:40:17.232188,False,2,300,sounds\english\audio/english_999.wav,"[[  0.          -8.27619319]
 [  0.1        -49.3883822 ]
 [  0.2         97.54217101]
 [  0.3        -49.81406735]
 [  0.4         46.43683506]
 [  0.5         89.32784762]
 [  0.6        -55.73277594]
 [  0.7         49.38462906]
 [  0.8         85.41123264]
 [  0.9        -58.86557708]
 [  1.          99.11766896]
 [  1.09391667  28.82385918]]","[[0.00000000e+00 1.48642599e-04]
 [1.00000000e-01 1.22232627e+00]
 [2.00000000e-01 1.11749330e+00]
 [3.00000000e-01 1.80111229e+00]
 [4.00000000e-01 5.52807392e-01]
 [5.00000000e-01 1.53319988e+00]
 [6.00000000e-01 1.76164420e+00]
 [7.00000000e-01 7.72486607e-02]
 [8.00000000e-01 1.00258630e+00]
 [9.00000000e-01 3.29932429e-01]
 [1.00000000e+00 1.88826288e+00]
 [1.09391667e+00 1.88223689e+00]]",1,1.84
8723415159,f,25,english,4,5,french,2024-01-25 10:40:17.232188,False,2,301,sounds\english\audio/english_618.wav,"[[  0.         -79.9488622 ]
 [  0.1          0.24132163]
 [  0.2        -56.62295111]
 [  0.3        -72.03937353]
 [  0.4        -44.72303747]
 [  0.5        -96.08672425]
 [  0.6         63.06881346]
 [  0.7          7.33604436]
 [  0.8         76.47736911]
 [  0.9        -52.54898443]
 [  1.          33.73192618]
 [  1.09391667  31.05572927]]","[[0.         1.91362605]
 [0.1        0.6330552 ]
 [0.2        0.97728614]
 [0.3        0.96298019]
 [0.4        1.81673931]
 [0.5        0.35989287]
 [0.6        1.43341205]
 [0.7        1.78848637]
 [0.8        1.05646412]
 [0.9        0.998868  ]
 [1.         1.38011588]
 [1.09391667 1.5899218 ]]",0,0.551
8723415159,f,25,english,4,5,french,2024-01-25 10:40:17.232188,False,2,302,sounds\english\audio/english_197.wav,"[[  0.          -0.52164664]
 [  0.1        -87.40194418]
 [  0.2        -52.79027246]
 [  0.3        -48.86802506]
 [  0.4         81.82701326]
 [  0.5        -49.36038243]
 [  0.6         60.40718162]
 [  0.7         23.14241749]
 [  0.8          6.00272562]
 [  0.9        -33.15203134]
 [  1.          87.44378179]
 [  1.09391667 -36.11997575]]","[[0.         0.76048058]
 [0.1        1.46601293]
 [0.2        1.17311431]
 [0.3        0.52190861]
 [0.4        0.75360033]
 [0.5        0.57280926]
 [0.6        1.08660509]
 [0.7        1.00122778]
 [0.8        0.93136252]
 [0.9        1.24898943]
 [1.         1.94648397]
 [1.09391667 0.88926449]]",0,0.239
8723415159,f,25,english,4,5,french,2024-01-25 10:40:17.232188,False,2,303,sounds\english\audio/english_145.wav,"[[  0.          33.46233159]
 [  0.1        -61.60936231]
 [  0.2         77.17787096]
 [  0.3         52.31633647]
 [  0.4         50.97764834]
 [  0.5         94.06594582]
 [  0.6        -40.82786952]
 [  0.7        -67.26734542]
 [  0.8         59.11900107]
 [  0.9        -56.17437001]
 [  1.         -15.19613378]
 [  1.09391667  90.15311402]]","[[0.         0.5633393 ]
 [0.1        1.7411418 ]
 [0.2        1.3932683 ]
 [0.3        0.64008683]
 [0.4        0.69845382]
 [0.5        1.78155535]
 [0.6        0.94197467]
 [0.7        0.64900441]
 [0.8        1.89522637]
 [0.9        0.96282543]
 [1.         0.73054996]
 [1.09391667 0.69896131]]",0,0.437
8723415159,f,25,english,4,5,french,2024-01-25 10:40:17.232188,False,2,304,sounds\english\audio/english_514.wav,"[[  0.         -59.82766829]
 [  0.1         -4.54284015]
 [  0.2         75.12688257]
 [  0.3         52.77263543]
 [  0.4        -86.38859223]
 [  0.5         22.0573972 ]
 [  0.6        -81.94223644]
 [  0.7         33.46090425]
 [  0.8         10.59703074]
 [  0.9         74.40481447]
 [  1.          35.18551728]
 [  1.09391667 -52.88743611]]","[[0.         1.35471226]
 [0.1        0.81191054]
 [0.2        1.30120799]
 [0.3        1.91982738]
 [0.4        1.85775535]
 [0.5        0.92799532]
 [0.6        0.39882237]
 [0.7        1.85696096]
 [0.8        0.26578536]
 [0.9        1.80594265]
 [1.         0.66929464]
 [1.09391667 1.62933111]]",0,2.222
8723415159,f,25,english,4,5,french,2024-01-25 10:40:17.232188,False,2,305,sounds\english\audio/english_91.wav,"[[  0.          90.30305792]
 [  0.1         56.18894947]
 [  0.2        -58.19739478]
 [  0.3         79.028897  ]
 [  0.4          7.81343209]
 [  0.5         28.60271905]
 [  0.6         14.99037293]
 [  0.7         -0.25615484]
 [  0.8         86.53655438]
 [  0.9        -90.65230495]
 [  1.          95.15657265]
 [  1.09391667 -56.87677847]]","[[0.         1.1938068 ]
 [0.1        1.20808781]
 [0.2        0.13849828]
 [0.3        0.94138732]
 [0.4        0.4665442 ]
 [0.5        1.77893908]
 [0.6        0.39545287]
 [0.7        1.77472074]
 [0.8        1.9424725 ]
 [0.9        1.79603275]
 [1.         1.28685544]
 [1.09391667 0.36998726]]",0,0.326
8723415159,f,25,english,4,5,french,2024-01-25 10:40:17.232188,False,2,306,sounds\english\audio/english_689.wav,"[[  0.          83.12133252]
 [  0.1        -80.97372196]
 [  0.2        -28.26528551]
 [  0.3         42.6688421 ]
 [  0.4          6.31951717]
 [  0.5         65.13167849]
 [  0.6        -21.58547915]
 [  0.7        -38.42350837]
 [  0.8         72.27336224]
 [  0.9        -22.08116071]
 [  1.          -2.34337227]
 [  1.09391667  32.05995553]]","[[0.         1.04214093]
 [0.1        0.40468985]
 [0.2        1.50877389]
 [0.3        1.67206734]
 [0.4        1.24892229]
 [0.5        0.38767445]
 [0.6        1.45702475]
 [0.7        0.16690889]
 [0.8        1.13554192]
 [0.9        0.21927817]
 [1.         0.41094591]
 [1.09391667 0.34398042]]",1,2.071
8723415159,f,25,english,4,5,french,2024-01-25 10:40:17.232188,False,2,307,sounds\english\audio/english_604.wav,"[[  0.          -7.32786977]
 [  0.1        -57.46968162]
 [  0.2        -51.48206507]
 [  0.3         77.63466913]
 [  0.4         45.22839705]
 [  0.5        -27.78980975]
 [  0.6        -14.67402927]
 [  0.7         66.92200223]
 [  0.8         44.7359597 ]
 [  0.9         87.34456413]
 [  1.          37.61860755]
 [  1.09391667  91.85438616]]","[[0.         0.45756233]
 [0.1        0.00297482]
 [0.2        1.19670532]
 [0.3        0.65081773]
 [0.4        0.22469511]
 [0.5        0.33338284]
 [0.6        1.91381058]
 [0.7        0.36993011]
 [0.8        1.21459689]
 [0.9        1.1126352 ]
 [1.         1.39772335]
 [1.09391667 1.16252792]]",0,0.268
8723415159,f,25,english,4,5,french,2024-01-25 10:40:17.232188,False,2,308,sounds\english\audio/english_255.wav,"[[  0.          94.72265592]
 [  0.1          1.10845293]
 [  0.2         -1.90413972]
 [  0.3        -45.9655603 ]
 [  0.4         -6.89013944]
 [  0.5          3.45085104]
 [  0.6        -68.66949423]
 [  0.7        -22.56077648]
 [  0.8        -32.1394332 ]
 [  0.9         56.48595448]
 [  1.         -33.08950479]
 [  1.09391667  55.58931482]]","[[0.         1.19967406]
 [0.1        1.25035485]
 [0.2        1.85398204]
 [0.3        0.56259094]
 [0.4        1.07948955]
 [0.5        0.7328114 ]
 [0.6        0.49197221]
 [0.7        1.14850602]
 [0.8        1.46654584]
 [0.9        0.34163334]
 [1.         0.52219351]
 [1.09391667 1.18693331]]",0,0.391
8723415159,f,25,english,4,5,french,2024-01-25 10:40:17.232188,False,2,309,sounds\english\audio/english_640.wav,"[[  0.          61.20375749]
 [  0.1        -16.1857947 ]
 [  0.2          6.11258798]
 [  0.3         95.92721012]
 [  0.4         93.14129024]
 [  0.5        -89.55913941]
 [  0.6         57.55264462]
 [  0.7         31.50273718]
 [  0.8         14.91560265]
 [  0.9         73.92386032]
 [  1.          71.81694375]
 [  1.09391667  86.11531977]]","[[0.         0.85142229]
 [0.1        0.85767155]
 [0.2        0.88844778]
 [0.3        1.39275841]
 [0.4        1.52098415]
 [0.5        1.55322116]
 [0.6        0.8538103 ]
 [0.7        0.01301989]
 [0.8        1.48414579]
 [0.9        0.86811695]
 [1.         1.48550262]
 [1.09391667 1.24176268]]",0,0.295
8723415159,f,25,english,4,5,french,2024-01-25 10:40:17.232188,False,2,310,sounds\english\audio/english_676.wav,"[[  0.          77.23951032]
 [  0.1         27.47427545]
 [  0.2         92.07370265]
 [  0.3        -39.62602007]
 [  0.4        -81.22107243]
 [  0.5        -99.04707649]
 [  0.6        -64.5180536 ]
 [  0.7         91.29392748]
 [  0.8         97.8635705 ]
 [  0.9        -84.2423741 ]
 [  1.         -76.68596269]
 [  1.09391667  65.10857552]]","[[0.         1.33259474]
 [0.1        0.90028372]
 [0.2        1.66717955]
 [0.3        0.42158585]
 [0.4        1.7878255 ]
 [0.5        1.33780608]
 [0.6        0.94548991]
 [0.7        1.43207041]
 [0.8        1.03085722]
 [0.9        0.34895699]
 [1.         0.83720355]
 [1.09391667 1.31764415]]",0,3.25
8723415159,f,25,english,4,5,french,2024-01-25 10:40:17.232188,False,2,311,sounds\english\audio/english_539.wav,"[[  0.         -94.17846062]
 [  0.1         -5.02019603]
 [  0.2        -69.32919076]
 [  0.3         80.71922828]
 [  0.4        -44.41930109]
 [  0.5         60.55312323]
 [  0.6        -22.38704472]
 [  0.7         42.18310052]
 [  0.8         -3.23406116]
 [  0.9         86.87834775]
 [  1.          -2.56962664]
 [  1.09391667  13.84279534]]","[[0.         0.79705309]
 [0.1        0.75034459]
 [0.2        1.92009714]
 [0.3        1.69419261]
 [0.4        1.08134057]
 [0.5        0.26247587]
 [0.6        1.40392738]
 [0.7        0.38201887]
 [0.8        1.79513964]
 [0.9        0.10058598]
 [1.         1.19776684]
 [1.09391667 1.72675702]]",0,1.397
8723415159,f,25,english,4,5,french,2024-01-25 10:40:17.232188,False,2,312,sounds\english\audio/english_215.wav,"[[  0.         -99.5332925 ]
 [  0.1          1.45242975]
 [  0.2        -64.33425221]
 [  0.3         94.32501829]
 [  0.4        -24.96285319]
 [  0.5         24.44115024]
 [  0.6         88.75353775]
 [  0.7         84.15272448]
 [  0.8         64.6545326 ]
 [  0.9        -74.06978327]
 [  1.         -77.05086555]
 [  1.09391667  82.12012488]]","[[0.         0.28465119]
 [0.1        1.8088146 ]
 [0.2        1.50664885]
 [0.3        1.24738647]
 [0.4        1.99674836]
 [0.5        1.0963611 ]
 [0.6        1.91027181]
 [0.7        1.87676127]
 [0.8        1.65561874]
 [0.9        1.63896442]
 [1.         0.85126523]
 [1.09391667 1.4630733 ]]",0,0.261
8723415159,f,25,english,4,5,french,2024-01-25 10:40:17.232188,False,2,313,sounds\english\audio/english_412.wav,"[[  0.          26.80121406]
 [  0.1         42.5524274 ]
 [  0.2         38.73121894]
 [  0.3         55.35824973]
 [  0.4        -87.34208499]
 [  0.5         91.77879658]
 [  0.6        -99.58264321]
 [  0.7         89.55239913]
 [  0.8        -28.13161571]
 [  0.9         19.27007549]
 [  1.          60.0301485 ]
 [  1.09391667  67.95145907]]","[[0.         1.83350646]
 [0.1        0.85761925]
 [0.2        0.81318793]
 [0.3        1.83972978]
 [0.4        0.56193469]
 [0.5        1.27086462]
 [0.6        1.22553346]
 [0.7        0.34439159]
 [0.8        1.78223109]
 [0.9        1.75477532]
 [1.         0.33667923]
 [1.09391667 1.7966079 ]]",0,0.194
8723415159,f,25,english,4,5,french,2024-01-25 10:40:17.232188,False,2,314,sounds\english\audio/english_401.wav,"[[ 0.00000000e+00 -3.61059854e+01]
 [ 1.00000000e-01  3.86051330e+01]
 [ 2.00000000e-01  6.46138816e+00]
 [ 3.00000000e-01 -7.68629005e+01]
 [ 4.00000000e-01  5.39378868e+01]
 [ 5.00000000e-01  2.83848957e+01]
 [ 6.00000000e-01  4.95351020e+01]
 [ 7.00000000e-01 -6.47881021e+01]
 [ 8.00000000e-01 -9.89667189e+01]
 [ 9.00000000e-01 -2.63257976e-02]
 [ 1.00000000e+00 -1.47031707e-01]
 [ 1.09391667e+00 -8.36458716e+01]]","[[0.         1.51802818]
 [0.1        1.15871841]
 [0.2        1.08082563]
 [0.3        0.42984112]
 [0.4        1.24745689]
 [0.5        0.52889601]
 [0.6        1.52039951]
 [0.7        1.59778592]
 [0.8        0.63237027]
 [0.9        0.3603848 ]
 [1.         0.91165557]
 [1.09391667 1.59350312]]",0,0.764
8723415159,f,25,english,4,5,french,2024-01-25 10:40:17.232188,False,2,315,sounds\english\audio/english_988.wav,"[[  0.          41.01121176]
 [  0.1        -57.00509923]
 [  0.2        -47.7423933 ]
 [  0.3        -45.09224268]
 [  0.4        -86.23747248]
 [  0.5         32.23270896]
 [  0.6         83.03664367]
 [  0.7         23.13228138]
 [  0.8        -80.96876175]
 [  0.9         85.87163391]
 [  1.          65.98257536]
 [  1.09391667   8.92791605]]","[[0.         1.79508408]
 [0.1        0.91683768]
 [0.2        0.75632301]
 [0.3        0.50123111]
 [0.4        1.43218642]
 [0.5        1.02417726]
 [0.6        0.26646991]
 [0.7        0.55372386]
 [0.8        1.25427564]
 [0.9        1.46901823]
 [1.         1.62105321]
 [1.09391667 1.15707193]]",0,0.204
8723415159,f,25,english,4,5,french,2024-01-25 10:40:17.232188,False,2,316,sounds\english\audio/english_530.wav,"[[  0.         -28.7119875 ]
 [  0.1         81.63061579]
 [  0.2        -13.39591128]
 [  0.3         13.92143377]
 [  0.4         40.01462212]
 [  0.5         23.69444491]
 [  0.6         46.64828823]
 [  0.7         26.92480587]
 [  0.8         14.68160338]
 [  0.9         49.42082928]
 [  1.         -24.27885184]
 [  1.09391667  68.97066726]]","[[0.         1.05000618]
 [0.1        1.8823678 ]
 [0.2        0.84340221]
 [0.3        0.28078116]
 [0.4        0.79575784]
 [0.5        1.14952556]
 [0.6        1.01103968]
 [0.7        1.41983577]
 [0.8        0.81631883]
 [0.9        0.77345056]
 [1.         1.60646934]
 [1.09391667 0.9871725 ]]",0,0.188
8723415159,f,25,english,4,5,french,2024-01-25 10:40:17.232188,False,2,317,sounds\english\audio/english_667.wav,"[[  0.         -40.55421882]
 [  0.1         -4.36791553]
 [  0.2        -47.28306179]
 [  0.3          4.54742829]
 [  0.4         56.02469614]
 [  0.5         -1.96932384]
 [  0.6          5.19539512]
 [  0.7        -58.89384288]
 [  0.8        -23.79810438]
 [  0.9         98.84523473]
 [  1.           7.14220046]
 [  1.09391667 -53.41190767]]","[[0.         0.65900383]
 [0.1        1.32668807]
 [0.2        1.36801295]
 [0.3        1.31909989]
 [0.4        1.3880932 ]
 [0.5        1.04427425]
 [0.6        1.75340959]
 [0.7        0.51778984]
 [0.8        1.0404646 ]
 [0.9        0.97755594]
 [1.         0.3681696 ]
 [1.09391667 1.51620439]]",0,0.973
8723415159,f,25,english,4,5,french,2024-01-25 10:40:17.232188,False,2,318,sounds\english\audio/english_606.wav,"[[  0.          72.77252021]
 [  0.1         22.60713343]
 [  0.2         30.91882808]
 [  0.3        -48.84223864]
 [  0.4        -29.82386042]
 [  0.5         82.48397831]
 [  0.6        -18.49396427]
 [  0.7         26.88567381]
 [  0.8        -18.34346668]
 [  0.9         10.06544583]
 [  1.         -89.88083722]
 [  1.09391667  66.64968825]]","[[0.         1.14271188]
 [0.1        1.41897374]
 [0.2        1.73372854]
 [0.3        1.07065865]
 [0.4        0.5542197 ]
 [0.5        0.65978179]
 [0.6        0.64487358]
 [0.7        1.50533402]
 [0.8        1.51615031]
 [0.9        0.11673085]
 [1.         0.60775024]
 [1.09391667 0.13627416]]",0,1.302
8723415159,f,25,english,4,5,french,2024-01-25 10:40:17.232188,False,2,319,sounds\english\audio/english_295.wav,"[[  0.         -21.33588045]
 [  0.1         28.18111365]
 [  0.2        -11.21795953]
 [  0.3        -75.82203472]
 [  0.4         36.75980824]
 [  0.5         82.52508149]
 [  0.6         -2.95672331]
 [  0.7         78.98755658]
 [  0.8         34.02541903]
 [  0.9         40.25185798]
 [  1.         -23.49198504]
 [  1.09391667  43.4619086 ]]","[[0.         0.64007693]
 [0.1        0.36210443]
 [0.2        0.97510536]
 [0.3        1.22570619]
 [0.4        1.08813481]
 [0.5        1.82668288]
 [0.6        0.03453598]
 [0.7        1.07945409]
 [0.8        0.06380248]
 [0.9        0.46673817]
 [1.         0.55804019]
 [1.09391667 0.67911388]]",1,0.623
8723415159,f,25,english,4,5,french,2024-01-25 10:40:17.232188,False,2,320,sounds\english\audio/english_310.wav,"[[ 0.00000000e+00 -7.30364012e+01]
 [ 1.00000000e-01 -2.21461231e+01]
 [ 2.00000000e-01 -6.87915777e+01]
 [ 3.00000000e-01  1.59567541e+01]
 [ 4.00000000e-01  6.90214219e-02]
 [ 5.00000000e-01  1.10751916e+01]
 [ 6.00000000e-01 -4.73549816e+00]
 [ 7.00000000e-01  8.94133264e+01]
 [ 8.00000000e-01  8.59912910e+00]
 [ 9.00000000e-01 -4.29855425e+01]
 [ 1.00000000e+00  2.17690352e+01]
 [ 1.09391667e+00 -6.85633248e+01]]","[[0.         1.20427188]
 [0.1        0.93293509]
 [0.2        0.44843766]
 [0.3        1.947333  ]
 [0.4        0.80984127]
 [0.5        0.49483553]
 [0.6        1.63471819]
 [0.7        0.6439244 ]
 [0.8        1.83711469]
 [0.9        1.01800117]
 [1.         0.59348897]
 [1.09391667 1.68402605]]",0,0.18
8723415159,f,25,english,4,5,french,2024-01-25 10:40:17.232188,False,2,321,sounds\english\audio/english_384.wav,"[[  0.          25.59746769]
 [  0.1         77.10112132]
 [  0.2        -44.89854527]
 [  0.3        -92.39491606]
 [  0.4         -7.21963548]
 [  0.5        -12.57418593]
 [  0.6        -91.58210139]
 [  0.7        -83.16364251]
 [  0.8        -99.35642135]
 [  0.9         39.42669245]
 [  1.           2.14731946]
 [  1.09391667 -81.26968126]]","[[0.         0.31530466]
 [0.1        1.4723663 ]
 [0.2        0.76042634]
 [0.3        1.26765442]
 [0.4        0.4561299 ]
 [0.5        0.66006902]
 [0.6        0.52858229]
 [0.7        0.95307861]
 [0.8        1.25910316]
 [0.9        1.31614459]
 [1.         0.23757066]
 [1.09391667 1.34705459]]",0,0.927
8723415159,f,25,english,4,5,french,2024-01-25 10:40:17.232188,False,2,322,sounds\english\audio/english_624.wav,"[[  0.          34.76400378]
 [  0.1        -36.42076645]
 [  0.2        -52.38985079]
 [  0.3         98.14853718]
 [  0.4         97.5674754 ]
 [  0.5        -80.04687885]
 [  0.6         -8.81047571]
 [  0.7        -78.45129318]
 [  0.8         39.54454361]
 [  0.9         32.62160332]
 [  1.         -98.98158135]
 [  1.09391667  19.08613563]]","[[0.         1.78994994]
 [0.1        1.4795907 ]
 [0.2        1.80721514]
 [0.3        1.70059719]
 [0.4        0.69719837]
 [0.5        1.37290399]
 [0.6        1.53741575]
 [0.7        1.54350611]
 [0.8        0.49170725]
 [0.9        1.04663897]
 [1.         0.63020253]
 [1.09391667 0.96318783]]",0,1.188
8723415159,f,25,english,4,5,french,2024-01-25 10:40:17.232188,False,2,323,sounds\english\audio/english_954.wav,"[[  0.          -5.86860432]
 [  0.1         38.42724969]
 [  0.2         83.51680292]
 [  0.3        -25.06032499]
 [  0.4        -17.48975264]
 [  0.5         95.06102198]
 [  0.6          0.80140457]
 [  0.7        -41.69263262]
 [  0.8         18.46045351]
 [  0.9         -7.88727361]
 [  1.         -34.36872213]
 [  1.09391667  40.0906943 ]]","[[0.         0.02682789]
 [0.1        1.50907573]
 [0.2        1.17187714]
 [0.3        1.88473576]
 [0.4        0.3035603 ]
 [0.5        1.35082964]
 [0.6        0.63281948]
 [0.7        0.91375779]
 [0.8        0.80486046]
 [0.9        0.18383046]
 [1.         1.25307449]
 [1.09391667 0.22905501]]",1,0.443
8723415159,f,25,english,4,5,french,2024-01-25 10:40:17.232188,False,2,324,sounds\english\audio/english_272.wav,"[[  0.         -52.99211904]
 [  0.1        -25.71564607]
 [  0.2        -56.58642074]
 [  0.3        -87.92268727]
 [  0.4        -77.06370831]
 [  0.5         85.07000432]
 [  0.6         13.520854  ]
 [  0.7         85.24542971]
 [  0.8         21.00568548]
 [  0.9         47.91949332]
 [  1.          -9.98443485]
 [  1.09391667  -3.7192884 ]]","[[0.         1.4863423 ]
 [0.1        1.69746599]
 [0.2        0.8962104 ]
 [0.3        1.48386127]
 [0.4        1.12180502]
 [0.5        1.22395179]
 [0.6        1.22503653]
 [0.7        0.66217064]
 [0.8        1.40926924]
 [0.9        0.42323382]
 [1.         1.68730728]
 [1.09391667 1.76864858]]",0,1.422
8723415159,f,25,english,4,5,french,2024-01-25 10:40:17.232188,False,2,325,sounds\english\audio/english_223.wav,"[[  0.           3.75482412]
 [  0.1        -10.12746206]
 [  0.2        -71.88310124]
 [  0.3         57.69353131]
 [  0.4         -7.46282971]
 [  0.5         -4.62449416]
 [  0.6         37.75223181]
 [  0.7         14.07580733]
 [  0.8          7.873186  ]
 [  0.9        -15.37742922]
 [  1.          25.72603899]
 [  1.09391667  58.91699651]]","[[0.         0.48204307]
 [0.1        1.57422829]
 [0.2        1.46180987]
 [0.3        0.36455809]
 [0.4        1.50137994]
 [0.5        0.81971787]
 [0.6        0.40602656]
 [0.7        1.29724475]
 [0.8        0.55564049]
 [0.9        1.88260367]
 [1.         0.5343602 ]
 [1.09391667 1.60309461]]",0,1.186
8723415159,f,25,english,4,5,french,2024-01-25 10:40:17.232188,False,2,326,sounds\english\audio/english_214.wav,"[[  0.          77.66249847]
 [  0.1        -66.26077856]
 [  0.2        -51.4922282 ]
 [  0.3         14.18659261]
 [  0.4        -48.84743407]
 [  0.5         19.47798934]
 [  0.6         30.92446632]
 [  0.7        -20.72955743]
 [  0.8        -84.03788896]
 [  0.9          1.19993411]
 [  1.         -10.67189742]
 [  1.09391667  76.51495677]]","[[0.         1.66443393]
 [0.1        1.37654428]
 [0.2        1.40712663]
 [0.3        0.14412451]
 [0.4        0.91551293]
 [0.5        0.32690142]
 [0.6        1.55465622]
 [0.7        0.81533764]
 [0.8        1.36872512]
 [0.9        0.61257248]
 [1.         1.2492197 ]
 [1.09391667 1.13872638]]",0,0.554
8723415159,f,25,english,4,5,french,2024-01-25 10:40:17.232188,False,2,327,sounds\english\audio/english_344.wav,"[[  0.         -58.25322537]
 [  0.1         78.85302542]
 [  0.2        -34.72652084]
 [  0.3         27.94681387]
 [  0.4        -20.54628146]
 [  0.5         84.36565837]
 [  0.6         34.72058422]
 [  0.7         43.31881815]
 [  0.8        -55.24586089]
 [  0.9         96.49661174]
 [  1.          97.53384237]
 [  1.09391667  71.25534923]]","[[0.         0.93148221]
 [0.1        0.39116105]
 [0.2        0.5483104 ]
 [0.3        1.60079305]
 [0.4        1.44239005]
 [0.5        0.93643089]
 [0.6        1.03853354]
 [0.7        0.23530343]
 [0.8        1.00130191]
 [0.9        0.39975591]
 [1.         1.53835418]
 [1.09391667 1.77827836]]",1,0.19
8723415159,f,25,english,4,5,french,2024-01-25 10:40:17.232188,False,2,328,sounds\english\audio/english_830.wav,"[[  0.         -56.43859205]
 [  0.1        -40.42370878]
 [  0.2         57.12298771]
 [  0.3        -17.62232487]
 [  0.4         68.18956177]
 [  0.5         87.82671531]
 [  0.6         47.80958912]
 [  0.7         90.11134252]
 [  0.8        -73.11836968]
 [  0.9         76.91440669]
 [  1.           0.84638196]
 [  1.09391667  40.94191156]]","[[0.         0.48566255]
 [0.1        1.80120887]
 [0.2        0.23081218]
 [0.3        1.34466319]
 [0.4        1.72981242]
 [0.5        1.56597803]
 [0.6        0.72011463]
 [0.7        1.40332871]
 [0.8        0.88730082]
 [0.9        1.45593299]
 [1.         1.11832638]
 [1.09391667 1.24825364]]",1,1.551
8723415159,f,25,english,4,5,french,2024-01-25 10:40:17.232188,False,2,329,sounds\english\audio/english_142.wav,"[[  0.          31.11671536]
 [  0.1         14.00827892]
 [  0.2         90.23748413]
 [  0.3         82.30944071]
 [  0.4         -1.47145923]
 [  0.5         55.17460753]
 [  0.6         26.61999518]
 [  0.7         -9.70687044]
 [  0.8         45.29559585]
 [  0.9        -14.38709872]
 [  1.         -22.51804374]
 [  1.09391667  56.35505814]]","[[0.         1.24679721]
 [0.1        0.65366655]
 [0.2        1.20113331]
 [0.3        1.60444487]
 [0.4        1.29279254]
 [0.5        0.91831488]
 [0.6        0.78219664]
 [0.7        0.08870339]
 [0.8        1.29591766]
 [0.9        0.90292953]
 [1.         0.84738987]
 [1.09391667 0.22793797]]",0,0.333
8723415159,f,25,english,4,5,french,2024-01-25 10:40:17.232188,False,2,330,sounds\english\audio/english_445.wav,"[[  0.          76.42112213]
 [  0.1        -97.95203426]
 [  0.2        -59.82746333]
 [  0.3        -13.48573522]
 [  0.4         81.29973607]
 [  0.5         41.3671656 ]
 [  0.6        -85.98514438]
 [  0.7         57.90232239]
 [  0.8        -95.60547231]
 [  0.9         17.13362758]
 [  1.          46.54539843]
 [  1.09391667  43.78720367]]","[[0.         1.57802926]
 [0.1        1.29835175]
 [0.2        0.53636504]
 [0.3        1.2021667 ]
 [0.4        1.41426839]
 [0.5        1.60295296]
 [0.6        0.58159358]
 [0.7        0.76199649]
 [0.8        0.54097795]
 [0.9        0.00538706]
 [1.         0.3060589 ]
 [1.09391667 1.39576853]]",1,0.691
8723415159,f,25,english,4,5,french,2024-01-25 10:40:17.232188,False,2,331,sounds\english\audio/english_773.wav,"[[  0.          25.38598482]
 [  0.1        -75.4290336 ]
 [  0.2        -93.77214736]
 [  0.3        -11.93109416]
 [  0.4         -3.2584173 ]
 [  0.5          4.3608059 ]
 [  0.6        -67.37283883]
 [  0.7        -45.00567152]
 [  0.8         35.5097718 ]
 [  0.9         43.03996363]
 [  1.          65.28264622]
 [  1.09391667 -37.07012433]]","[[0.         0.89232009]
 [0.1        1.89128597]
 [0.2        1.99899889]
 [0.3        0.2472244 ]
 [0.4        0.14273894]
 [0.5        1.21438163]
 [0.6        0.96373014]
 [0.7        1.90932533]
 [0.8        1.26347726]
 [0.9        1.83989813]
 [1.         0.76004817]
 [1.09391667 0.66989713]]",0,0.235
8723415159,f,25,english,4,5,french,2024-01-25 10:40:17.232188,False,2,332,sounds\english\audio/english_745.wav,"[[  0.         -47.9537983 ]
 [  0.1         10.59664377]
 [  0.2          3.22121318]
 [  0.3         66.38489409]
 [  0.4        -85.62638025]
 [  0.5         53.0870989 ]
 [  0.6         37.88737288]
 [  0.7        -50.87104403]
 [  0.8        -30.17524051]
 [  0.9         42.29036925]
 [  1.           6.95263715]
 [  1.09391667  -3.81320325]]","[[0.         1.262874  ]
 [0.1        0.45595153]
 [0.2        1.90154411]
 [0.3        1.18935698]
 [0.4        0.53454894]
 [0.5        0.07115633]
 [0.6        0.91558947]
 [0.7        0.71993263]
 [0.8        0.93591694]
 [0.9        0.99723137]
 [1.         0.85978939]
 [1.09391667 0.69941736]]",1,0.34
8723415159,f,25,english,4,5,french,2024-01-25 10:40:17.232188,False,2,333,sounds\english\audio/english_354.wav,"[[  0.         -28.87420486]
 [  0.1        -23.35112853]
 [  0.2          5.36311679]
 [  0.3         88.42745553]
 [  0.4          2.47520697]
 [  0.5         46.1200008 ]
 [  0.6        -18.78131858]
 [  0.7        -50.4047441 ]
 [  0.8         70.60844452]
 [  0.9        -79.1017332 ]
 [  1.         -66.82350364]
 [  1.09391667 -48.20226443]]","[[0.         0.20754018]
 [0.1        1.88177303]
 [0.2        1.60863404]
 [0.3        0.83478671]
 [0.4        1.51310965]
 [0.5        1.04317866]
 [0.6        0.09474749]
 [0.7        1.6889762 ]
 [0.8        0.35231613]
 [0.9        0.20561504]
 [1.         0.40462269]
 [1.09391667 0.51831425]]",1,0.479
8723415159,f,25,english,4,5,french,2024-01-25 10:40:17.232188,False,2,334,sounds\english\audio/english_449.wav,"[[  0.         -44.55388373]
 [  0.1         -6.72313799]
 [  0.2         79.06263513]
 [  0.3        -55.67409496]
 [  0.4        -98.00845055]
 [  0.5         11.95490186]
 [  0.6         61.24554038]
 [  0.7         22.84997393]
 [  0.8        -43.41021729]
 [  0.9         -0.66438627]
 [  1.          97.92538247]
 [  1.09391667 -73.561514  ]]","[[0.         1.29710548]
 [0.1        1.06558485]
 [0.2        1.64594706]
 [0.3        0.52101608]
 [0.4        1.47445199]
 [0.5        0.94544277]
 [0.6        1.90306494]
 [0.7        1.15810732]
 [0.8        0.26889852]
 [0.9        1.02983536]
 [1.         1.13790703]
 [1.09391667 0.97073961]]",1,1.345
8723415159,f,25,english,4,5,french,2024-01-25 10:40:17.232188,False,2,335,sounds\english\audio/english_879.wav,"[[  0.         -41.71376067]
 [  0.1          5.81272632]
 [  0.2        -22.32054487]
 [  0.3         93.64091385]
 [  0.4        -40.92402167]
 [  0.5         13.45427288]
 [  0.6        -86.15210755]
 [  0.7        -20.9667874 ]
 [  0.8        -18.58842444]
 [  0.9        -72.1364449 ]
 [  1.         -83.06025628]
 [  1.09391667  76.41221389]]","[[0.         1.10654485]
 [0.1        1.32832236]
 [0.2        1.5555922 ]
 [0.3        0.11041486]
 [0.4        1.31993608]
 [0.5        1.7629303 ]
 [0.6        1.83129602]
 [0.7        1.42589619]
 [0.8        0.74351112]
 [0.9        0.32763887]
 [1.         1.7749803 ]
 [1.09391667 1.6164567 ]]",0,0.279
8723415159,f,25,english,4,5,french,2024-01-25 10:40:17.232188,False,2,336,sounds\english\audio/english_382.wav,"[[  0.          51.10840748]
 [  0.1        -91.92289356]
 [  0.2        -79.84820622]
 [  0.3         77.1343998 ]
 [  0.4        -28.37542717]
 [  0.5        -45.23452982]
 [  0.6        -99.13090952]
 [  0.7         78.74968094]
 [  0.8        -29.18128543]
 [  0.9          2.6821327 ]
 [  1.          72.60334223]
 [  1.09391667 -39.78930979]]","[[0.         1.50482446]
 [0.1        1.64118974]
 [0.2        1.27294553]
 [0.3        1.68382972]
 [0.4        0.77725399]
 [0.5        0.19931522]
 [0.6        1.54066958]
 [0.7        1.92796372]
 [0.8        1.53197117]
 [0.9        0.33786537]
 [1.         0.41937099]
 [1.09391667 0.9246019 ]]",0,3.017
8723415159,f,25,english,4,5,french,2024-01-25 10:40:17.232188,False,2,337,sounds\english\audio/english_650.wav,"[[  0.          84.72208984]
 [  0.1        -25.46570276]
 [  0.2        -14.49877792]
 [  0.3         92.39693734]
 [  0.4        -32.47071196]
 [  0.5         57.90191837]
 [  0.6        -80.89557153]
 [  0.7        -42.41945014]
 [  0.8        -93.95714217]
 [  0.9         72.90615392]
 [  1.          69.05005157]
 [  1.09391667  82.64627583]]","[[0.         1.44671944]
 [0.1        0.96213955]
 [0.2        0.60880641]
 [0.3        0.82954369]
 [0.4        0.31003161]
 [0.5        1.04774221]
 [0.6        1.35433017]
 [0.7        0.91007785]
 [0.8        1.66906144]
 [0.9        0.82431   ]
 [1.         0.70002504]
 [1.09391667 0.57122533]]",0,0.42
8723415159,f,25,english,4,5,french,2024-01-25 10:40:17.232188,False,2,338,sounds\english\audio/english_882.wav,"[[  0.          -7.05979315]
 [  0.1         11.12287517]
 [  0.2         28.5672698 ]
 [  0.3         16.48717496]
 [  0.4          6.46389904]
 [  0.5        -33.62191601]
 [  0.6         24.95644847]
 [  0.7        -38.16076581]
 [  0.8        -79.20201093]
 [  0.9        -71.11539398]
 [  1.         -86.32031944]
 [  1.09391667 -43.4557724 ]]","[[0.         0.25493427]
 [0.1        1.40090196]
 [0.2        0.1131803 ]
 [0.3        1.17672005]
 [0.4        1.65791719]
 [0.5        1.48549593]
 [0.6        0.02678123]
 [0.7        0.84885904]
 [0.8        0.30029844]
 [0.9        0.49544308]
 [1.         0.41090122]
 [1.09391667 0.68463909]]",1,0.864
8723415159,f,25,english,4,5,french,2024-01-25 10:40:17.232188,False,2,339,sounds\english\audio/english_872.wav,"[[  0.          -4.42672904]
 [  0.1        -45.54953548]
 [  0.2         61.94236328]
 [  0.3         -6.76881519]
 [  0.4         70.60925321]
 [  0.5         61.83462206]
 [  0.6         80.97898291]
 [  0.7         85.22540412]
 [  0.8          0.99054443]
 [  0.9          4.65362218]
 [  1.         -50.74375514]
 [  1.09391667 -72.71002663]]","[[0.         1.38946162]
 [0.1        1.85362479]
 [0.2        1.40120351]
 [0.3        0.73681545]
 [0.4        1.34579028]
 [0.5        0.03433947]
 [0.6        0.00901878]
 [0.7        0.90232531]
 [0.8        1.1650967 ]
 [0.9        1.94757047]
 [1.         1.11012852]
 [1.09391667 1.91238116]]",0,0.747
8723415159,f,25,english,4,5,french,2024-01-25 10:40:17.232188,False,2,340,sounds\english\audio/english_147.wav,"[[  0.          13.5835913 ]
 [  0.1        -12.78269311]
 [  0.2        -68.15160011]
 [  0.3        -22.06196162]
 [  0.4        -52.80599893]
 [  0.5        -19.06204323]
 [  0.6         99.53651939]
 [  0.7        -28.8369824 ]
 [  0.8         74.70483883]
 [  0.9         42.275031  ]
 [  1.         -85.9360484 ]
 [  1.09391667  70.70596031]]","[[0.         1.55424913]
 [0.1        1.36751472]
 [0.2        0.0989476 ]
 [0.3        1.09942606]
 [0.4        0.66767386]
 [0.5        1.22234283]
 [0.6        1.18173491]
 [0.7        1.33756281]
 [0.8        0.81214456]
 [0.9        0.37062199]
 [1.         1.6700327 ]
 [1.09391667 1.62026459]]",1,0.283
8723415159,f,25,english,4,5,french,2024-01-25 10:40:17.232188,False,2,341,sounds\english\audio/english_894.wav,"[[  0.         -80.20723644]
 [  0.1         70.63971402]
 [  0.2        -37.49635732]
 [  0.3        -83.65831032]
 [  0.4        -33.74406965]
 [  0.5         51.66171184]
 [  0.6         19.47391611]
 [  0.7        -13.53975377]
 [  0.8        -20.28527638]
 [  0.9         -1.05192851]
 [  1.         -21.57661458]
 [  1.09391667  -6.12644826]]","[[0.         1.79346893]
 [0.1        0.36641107]
 [0.2        1.22262179]
 [0.3        1.81798895]
 [0.4        0.98569015]
 [0.5        1.39342992]
 [0.6        1.02882877]
 [0.7        0.49108551]
 [0.8        0.73422482]
 [0.9        1.80196554]
 [1.         0.14842719]
 [1.09391667 0.9088618 ]]",0,0.705
8723415159,f,25,english,4,5,french,2024-01-25 10:40:17.232188,False,2,342,sounds\english\audio/english_181.wav,"[[  0.          -0.97272984]
 [  0.1        -77.78814802]
 [  0.2         30.93073149]
 [  0.3        -15.42483918]
 [  0.4         25.76707037]
 [  0.5        -29.04038637]
 [  0.6         13.2566372 ]
 [  0.7         83.86524807]
 [  0.8         13.33685446]
 [  0.9         15.31267769]
 [  1.         -61.51651878]
 [  1.09391667  11.45529288]]","[[0.         0.61376697]
 [0.1        0.85355331]
 [0.2        1.49426592]
 [0.3        1.18212422]
 [0.4        1.41051316]
 [0.5        0.72870407]
 [0.6        0.94615724]
 [0.7        0.24258424]
 [0.8        1.00008676]
 [0.9        0.92341919]
 [1.         0.15563028]
 [1.09391667 0.83237058]]",0,0.776
8723415159,f,25,english,4,5,french,2024-01-25 10:40:17.232188,False,2,343,sounds\english\audio/english_753.wav,"[[  0.         -37.70671017]
 [  0.1        -51.92629572]
 [  0.2         93.98068105]
 [  0.3        -51.39932121]
 [  0.4         95.80116655]
 [  0.5         54.2507311 ]
 [  0.6         20.30160244]
 [  0.7         55.46646904]
 [  0.8        -44.46613041]
 [  0.9         32.26226525]
 [  1.          94.05472838]
 [  1.09391667  42.98878145]]","[[0.         1.74884561]
 [0.1        0.91942072]
 [0.2        1.59964549]
 [0.3        1.12825203]
 [0.4        1.21219761]
 [0.5        1.26026343]
 [0.6        1.5757537 ]
 [0.7        0.16664365]
 [0.8        1.11726469]
 [0.9        1.53816652]
 [1.         0.62126972]
 [1.09391667 0.46411799]]",0,0.477
8723415159,f,25,english,4,5,french,2024-01-25 10:40:17.232188,False,2,344,sounds\english\audio/english_699.wav,"[[  0.         -10.64404417]
 [  0.1        -35.40818129]
 [  0.2         83.59292759]
 [  0.3        -40.30907773]
 [  0.4        -61.47705422]
 [  0.5         73.77462927]
 [  0.6        -33.57926845]
 [  0.7          4.64440908]
 [  0.8        -17.22893219]
 [  0.9          7.65230973]
 [  1.          91.77034013]
 [  1.09391667  29.53486649]]","[[0.         0.39733036]
 [0.1        1.17761209]
 [0.2        0.75132377]
 [0.3        0.9903314 ]
 [0.4        1.4462142 ]
 [0.5        1.48079401]
 [0.6        1.0256948 ]
 [0.7        1.03411727]
 [0.8        1.52402725]
 [0.9        0.08305717]
 [1.         1.30692687]
 [1.09391667 1.30233828]]",0,2.27
8723415159,f,25,english,4,5,french,2024-01-25 10:40:17.232188,False,2,345,sounds\english\audio/english_874.wav,"[[  0.         -71.39498579]
 [  0.1         62.98858744]
 [  0.2         41.27867713]
 [  0.3         -0.45014309]
 [  0.4        -62.23813069]
 [  0.5         81.69191529]
 [  0.6        -39.52630557]
 [  0.7          6.61232929]
 [  0.8         76.37120083]
 [  0.9         72.14080556]
 [  1.          56.73337142]
 [  1.09391667 -44.63255829]]","[[0.         1.26251394]
 [0.1        1.60813214]
 [0.2        0.77910004]
 [0.3        1.66768461]
 [0.4        1.66631965]
 [0.5        0.96578831]
 [0.6        1.50022708]
 [0.7        0.80807106]
 [0.8        0.57035077]
 [0.9        0.35036103]
 [1.         0.39594805]
 [1.09391667 1.14540291]]",1,0.481
8723415159,f,25,english,4,5,french,2024-01-25 10:40:17.232188,False,2,346,sounds\english\audio/english_171.wav,"[[  0.          57.16640714]
 [  0.1         74.54839728]
 [  0.2         95.75678202]
 [  0.3         39.99051632]
 [  0.4         -6.66803256]
 [  0.5        -11.42556478]
 [  0.6        -61.08204703]
 [  0.7        -47.00718825]
 [  0.8        -62.88052724]
 [  0.9        -55.43761186]
 [  1.         -25.22707532]
 [  1.09391667  72.94956576]]","[[0.         0.48953769]
 [0.1        1.15474794]
 [0.2        1.06369724]
 [0.3        0.94070076]
 [0.4        0.05995963]
 [0.5        0.94038212]
 [0.6        1.30766084]
 [0.7        1.96472455]
 [0.8        0.35350446]
 [0.9        0.65278216]
 [1.         1.06452254]
 [1.09391667 0.49293676]]",1,0.266
8723415159,f,25,english,4,5,french,2024-01-25 10:40:17.232188,False,2,347,sounds\english\audio/english_254.wav,"[[  0.         -79.97486314]
 [  0.1          4.97939185]
 [  0.2        -28.78047168]
 [  0.3         54.84679162]
 [  0.4        -29.5092506 ]
 [  0.5         32.35526616]
 [  0.6         30.73043206]
 [  0.7        -63.39934618]
 [  0.8         41.52768957]
 [  0.9        -68.73480186]
 [  1.          39.94615362]
 [  1.09391667  -8.67015509]]","[[0.         0.1587751 ]
 [0.1        1.19895937]
 [0.2        0.42029652]
 [0.3        0.35684023]
 [0.4        0.61489906]
 [0.5        0.62359164]
 [0.6        0.73353012]
 [0.7        1.26915249]
 [0.8        1.27281169]
 [0.9        1.34629586]
 [1.         0.72701625]
 [1.09391667 0.66252937]]",0,0.627
8723415159,f,25,english,4,5,french,2024-01-25 10:40:17.232188,False,2,348,sounds\english\audio/english_931.wav,"[[  0.         -48.18620988]
 [  0.1         93.34540741]
 [  0.2        -88.99120058]
 [  0.3         67.25284663]
 [  0.4        -10.35682297]
 [  0.5        -25.57246183]
 [  0.6        -89.21725543]
 [  0.7         48.14137998]
 [  0.8         15.08583038]
 [  0.9        -21.24642179]
 [  1.         -61.3036155 ]
 [  1.09391667  -1.60302041]]","[[0.         1.69837389]
 [0.1        1.28970497]
 [0.2        1.49371187]
 [0.3        0.85799596]
 [0.4        1.16281473]
 [0.5        1.03469104]
 [0.6        1.18976364]
 [0.7        0.15613957]
 [0.8        0.89546931]
 [0.9        1.04801932]
 [1.         0.54320379]
 [1.09391667 1.57083838]]",0,0.522
8723415159,f,25,english,4,5,french,2024-01-25 10:40:17.232188,False,2,349,sounds\english\audio/english_206.wav,"[[  0.         -99.12855739]
 [  0.1        -89.51576504]
 [  0.2        -90.40464902]
 [  0.3        -70.32755561]
 [  0.4         78.03699917]
 [  0.5          8.07565508]
 [  0.6         38.18456427]
 [  0.7        -75.53493724]
 [  0.8         54.10683872]
 [  0.9        -40.64897969]
 [  1.          -1.29434589]
 [  1.09391667  55.83604692]]","[[0.         1.20636597]
 [0.1        0.87803278]
 [0.2        1.07282405]
 [0.3        1.36131617]
 [0.4        0.62923097]
 [0.5        1.02359746]
 [0.6        0.86752629]
 [0.7        1.35404338]
 [0.8        1.4732865 ]
 [0.9        0.47250575]
 [1.         1.31829488]
 [1.09391667 0.97831941]]",0,0.426
8723415159,f,25,english,4,5,french,2024-01-25 10:40:17.232188,False,2,350,sounds\english\audio/english_563.wav,"[[  0.          97.71228094]
 [  0.1        -46.61979444]
 [  0.2          2.79591849]
 [  0.3        -24.69974698]
 [  0.4        -33.21670204]
 [  0.5        -22.29161776]
 [  0.6         -9.78409371]
 [  0.7         22.41186375]
 [  0.8        -16.19600926]
 [  0.9         96.89254029]
 [  1.          -8.68448167]
 [  1.09391667  22.23097911]]","[[0.         1.26204961]
 [0.1        1.17265915]
 [0.2        0.73553811]
 [0.3        1.75222103]
 [0.4        1.16360082]
 [0.5        0.78496451]
 [0.6        0.25812971]
 [0.7        1.68001513]
 [0.8        1.88614824]
 [0.9        0.22022692]
 [1.         0.44747932]
 [1.09391667 1.70220981]]",1,0.241
8723415159,f,25,english,4,5,french,2024-01-25 10:40:17.232188,False,2,351,sounds\english\audio/english_386.wav,"[[  0.         -19.52342601]
 [  0.1         12.51870084]
 [  0.2         39.37532447]
 [  0.3        -27.49424213]
 [  0.4          2.74242911]
 [  0.5         15.14964773]
 [  0.6         45.71194496]
 [  0.7         28.98960809]
 [  0.8        -39.83484556]
 [  0.9         33.1587893 ]
 [  1.          24.37786674]
 [  1.09391667 -21.81878644]]","[[0.         1.87136497]
 [0.1        1.2884713 ]
 [0.2        0.99035372]
 [0.3        1.4593324 ]
 [0.4        1.12443884]
 [0.5        0.10576994]
 [0.6        1.21238053]
 [0.7        0.05301684]
 [0.8        0.73550617]
 [0.9        1.02363056]
 [1.         0.31570088]
 [1.09391667 0.61715616]]",0,2.198
8723415159,f,25,english,4,5,french,2024-01-25 10:40:17.232188,False,2,352,sounds\english\audio/english_201.wav,"[[  0.          38.80737773]
 [  0.1        -19.59989916]
 [  0.2         66.60738163]
 [  0.3        -56.04483053]
 [  0.4         70.74519799]
 [  0.5        -47.08782515]
 [  0.6        -82.17312899]
 [  0.7          4.63557835]
 [  0.8         13.50311248]
 [  0.9         50.05274214]
 [  1.         -76.13616328]
 [  1.09391667   8.54722281]]","[[0.         0.9006916 ]
 [0.1        0.40577957]
 [0.2        0.32844259]
 [0.3        1.02628552]
 [0.4        1.24548515]
 [0.5        0.07505998]
 [0.6        0.1226459 ]
 [0.7        1.79532837]
 [0.8        1.69109423]
 [0.9        0.91883167]
 [1.         0.81807561]
 [1.09391667 1.88316121]]",0,0.738
8723415159,f,25,english,4,5,french,2024-01-25 10:40:17.232188,False,2,353,sounds\english\audio/english_685.wav,"[[  0.          62.22235335]
 [  0.1        -97.11025465]
 [  0.2         72.03160739]
 [  0.3         40.47895004]
 [  0.4        -75.64985874]
 [  0.5        -62.21115329]
 [  0.6         34.38722215]
 [  0.7         96.86141958]
 [  0.8         52.32592552]
 [  0.9         47.74773781]
 [  1.          37.75239805]
 [  1.09391667 -10.16077912]]","[[0.         0.91642602]
 [0.1        1.72329218]
 [0.2        1.99088782]
 [0.3        0.00501952]
 [0.4        1.41330373]
 [0.5        0.58310659]
 [0.6        1.5248844 ]
 [0.7        0.15841589]
 [0.8        1.39576372]
 [0.9        1.97205737]
 [1.         1.24408728]
 [1.09391667 1.54258522]]",0,0.381
8723415159,f,25,english,4,5,french,2024-01-25 10:40:17.232188,False,2,354,sounds\english\audio/english_690.wav,"[[  0.          17.55747423]
 [  0.1         23.93305712]
 [  0.2         64.00076059]
 [  0.3        -94.30848537]
 [  0.4          6.99210774]
 [  0.5         85.90585052]
 [  0.6         87.05779363]
 [  0.7        -33.56142867]
 [  0.8          3.23139144]
 [  0.9        -81.40386669]
 [  1.         -73.94182177]
 [  1.09391667  93.27821127]]","[[0.         0.76835561]
 [0.1        0.92260391]
 [0.2        1.35078007]
 [0.3        0.66724341]
 [0.4        0.90703794]
 [0.5        0.64408178]
 [0.6        0.93697695]
 [0.7        1.7663892 ]
 [0.8        0.87547527]
 [0.9        1.67132801]
 [1.         1.67691306]
 [1.09391667 1.90511297]]",0,0.1
8723415159,f,25,english,4,5,french,2024-01-25 10:40:17.232188,False,2,355,sounds\english\audio/english_829.wav,"[[  0.          -7.89955856]
 [  0.1        -18.01769042]
 [  0.2         57.48418942]
 [  0.3         41.9687918 ]
 [  0.4        -61.64702177]
 [  0.5        -20.29007911]
 [  0.6         93.24496902]
 [  0.7        -32.99482484]
 [  0.8          6.59233546]
 [  0.9        -90.87646181]
 [  1.           9.72736643]
 [  1.09391667 -11.26207351]]","[[0.         0.852516  ]
 [0.1        0.97788956]
 [0.2        1.32810397]
 [0.3        0.18108064]
 [0.4        0.15705118]
 [0.5        0.66571436]
 [0.6        0.20869504]
 [0.7        1.27621492]
 [0.8        1.10768251]
 [0.9        1.10361444]
 [1.         0.98320382]
 [1.09391667 1.01672444]]",0,0.445
8723415159,f,25,english,4,5,french,2024-01-25 10:40:17.232188,False,2,356,sounds\english\audio/english_907.wav,"[[ 0.00000000e+00 -5.33100291e+01]
 [ 1.00000000e-01  4.68553811e+00]
 [ 2.00000000e-01  3.01589282e+01]
 [ 3.00000000e-01  1.17494605e+01]
 [ 4.00000000e-01  1.46843787e+01]
 [ 5.00000000e-01  5.51600348e-02]
 [ 6.00000000e-01  2.18487989e+01]
 [ 7.00000000e-01  8.76146135e-01]
 [ 8.00000000e-01  5.70084802e+01]
 [ 9.00000000e-01  5.30429591e+00]
 [ 1.00000000e+00  1.78166491e+01]
 [ 1.09391667e+00 -2.93939822e+01]]","[[0.         1.09242223]
 [0.1        1.36905488]
 [0.2        0.80069783]
 [0.3        1.02399961]
 [0.4        1.6109915 ]
 [0.5        0.4113542 ]
 [0.6        1.88718243]
 [0.7        1.82050398]
 [0.8        0.47994227]
 [0.9        1.40201797]
 [1.         1.67172578]
 [1.09391667 0.75533172]]",0,0.676
8723415159,f,25,english,4,5,french,2024-01-25 10:40:17.232188,False,2,357,sounds\english\audio/english_355.wav,"[[  0.         -17.98441337]
 [  0.1         -3.7927165 ]
 [  0.2         49.96307457]
 [  0.3        -15.53125152]
 [  0.4        -84.8102411 ]
 [  0.5        -28.25718679]
 [  0.6        -58.3999431 ]
 [  0.7        -22.66304052]
 [  0.8        -95.1511219 ]
 [  0.9         82.90101198]
 [  1.          11.18923061]
 [  1.09391667  39.40210676]]","[[0.         0.63443376]
 [0.1        0.81098104]
 [0.2        0.15990124]
 [0.3        1.19729275]
 [0.4        1.78081856]
 [0.5        0.04344096]
 [0.6        1.99949459]
 [0.7        0.79420627]
 [0.8        0.51429102]
 [0.9        0.31900629]
 [1.         1.55539218]
 [1.09391667 0.94266916]]",1,1.119
8723415159,f,25,english,4,5,french,2024-01-25 10:40:17.232188,False,2,358,sounds\english\audio/english_500.wav,"[[  0.          66.22088329]
 [  0.1         -5.13412803]
 [  0.2         -6.11874153]
 [  0.3        -90.40360626]
 [  0.4         32.06545372]
 [  0.5        -65.0306572 ]
 [  0.6         -6.23225895]
 [  0.7        -23.5823243 ]
 [  0.8         77.81337781]
 [  0.9        -20.41987669]
 [  1.          21.49612229]
 [  1.09391667   9.32174873]]","[[0.         0.53820699]
 [0.1        0.50417448]
 [0.2        1.24224985]
 [0.3        1.39300909]
 [0.4        1.26037646]
 [0.5        1.07818355]
 [0.6        1.23543803]
 [0.7        1.80782898]
 [0.8        0.94957733]
 [0.9        0.60641079]
 [1.         1.83181528]
 [1.09391667 0.67500242]]",0,0.275
8723415159,f,25,english,4,5,french,2024-01-25 10:40:17.232188,False,2,359,sounds\english\audio/english_673.wav,"[[  0.          90.76839252]
 [  0.1          6.046272  ]
 [  0.2        -87.83071151]
 [  0.3         36.6509823 ]
 [  0.4        -32.18158433]
 [  0.5        -19.24802142]
 [  0.6         48.91730907]
 [  0.7         69.64943754]
 [  0.8         -5.12989182]
 [  0.9         -9.26659316]
 [  1.         -16.89337836]
 [  1.09391667 -23.27882447]]","[[0.         1.23453875]
 [0.1        1.03311149]
 [0.2        1.26397394]
 [0.3        1.9126635 ]
 [0.4        1.72280276]
 [0.5        0.25348074]
 [0.6        1.44743683]
 [0.7        1.155997  ]
 [0.8        0.33674768]
 [0.9        0.68600318]
 [1.         1.11619923]
 [1.09391667 0.1262035 ]]",1,1.115
8723415159,f,25,english,4,5,french,2024-01-25 10:40:17.232188,False,2,360,sounds\english\audio/english_631.wav,"[[  0.         -27.81937338]
 [  0.1         33.35930373]
 [  0.2        -11.73917174]
 [  0.3         -1.18589974]
 [  0.4         27.16828493]
 [  0.5         53.71281756]
 [  0.6         81.56085765]
 [  0.7         89.56289447]
 [  0.8        -43.2108802 ]
 [  0.9        -23.23030719]
 [  1.          88.86506339]
 [  1.09391667 -96.00200772]]","[[0.         1.32778062]
 [0.1        0.48085638]
 [0.2        1.38663751]
 [0.3        1.87480355]
 [0.4        0.88998166]
 [0.5        0.85037115]
 [0.6        0.88131869]
 [0.7        1.45107232]
 [0.8        1.60608237]
 [0.9        1.10456267]
 [1.         0.94928651]
 [1.09391667 0.59566853]]",1,0.212
8723415159,f,25,english,4,5,french,2024-01-25 10:40:17.232188,False,2,361,sounds\english\audio/english_942.wav,"[[  0.          45.49166442]
 [  0.1         -2.30850056]
 [  0.2         43.64947202]
 [  0.3        -52.04143122]
 [  0.4         -8.91644013]
 [  0.5        -27.81632839]
 [  0.6         -9.72818952]
 [  0.7         95.1925327 ]
 [  0.8         72.04388461]
 [  0.9         23.33853222]
 [  1.          59.86308522]
 [  1.09391667  13.07645506]]","[[0.         1.20258851]
 [0.1        0.03180812]
 [0.2        1.4076024 ]
 [0.3        0.10204445]
 [0.4        1.90553817]
 [0.5        0.46641983]
 [0.6        0.6494667 ]
 [0.7        0.71171086]
 [0.8        0.45732561]
 [0.9        1.18338442]
 [1.         1.65940409]
 [1.09391667 1.80591064]]",1,2.504
8723415159,f,25,english,4,5,french,2024-01-25 10:40:17.232188,False,2,362,sounds\english\audio/english_533.wav,"[[  0.          82.3150146 ]
 [  0.1        -62.65263441]
 [  0.2         35.24658043]
 [  0.3        -92.25963636]
 [  0.4         55.18355153]
 [  0.5         42.19734794]
 [  0.6         26.84517853]
 [  0.7        -96.44791366]
 [  0.8        -32.52364266]
 [  0.9         72.77745032]
 [  1.          -8.5096212 ]
 [  1.09391667  -5.91345178]]","[[0.         1.74351328]
 [0.1        1.01143167]
 [0.2        1.89837562]
 [0.3        0.63714559]
 [0.4        1.6894321 ]
 [0.5        0.54282928]
 [0.6        1.89183876]
 [0.7        0.53977312]
 [0.8        1.51379003]
 [0.9        1.26846018]
 [1.         0.77810192]
 [1.09391667 1.56024291]]",0,0.655
8723415159,f,25,english,4,5,french,2024-01-25 10:40:17.232188,False,2,363,sounds\english\audio/english_897.wav,"[[  0.          91.54141142]
 [  0.1         20.06999674]
 [  0.2        -60.17862007]
 [  0.3         22.55775305]
 [  0.4        -29.18349392]
 [  0.5         -4.34715828]
 [  0.6          3.54639982]
 [  0.7         14.95981451]
 [  0.8         79.03500803]
 [  0.9         89.82097388]
 [  1.         -18.02507746]
 [  1.09391667 -21.60386418]]","[[0.         0.1445201 ]
 [0.1        1.86000345]
 [0.2        0.67850772]
 [0.3        0.042785  ]
 [0.4        0.33792534]
 [0.5        1.54286554]
 [0.6        1.41726271]
 [0.7        0.22962892]
 [0.8        0.98987379]
 [0.9        0.31366212]
 [1.         0.34929613]
 [1.09391667 1.95291291]]",0,4.1
8723415159,f,25,english,4,5,french,2024-01-25 10:40:17.232188,False,2,364,sounds\english\audio/english_82.wav,"[[  0.         -50.65944843]
 [  0.1         -8.30198342]
 [  0.2         28.238309  ]
 [  0.3        -35.80408689]
 [  0.4         80.50699914]
 [  0.5        -99.69979401]
 [  0.6         30.38876845]
 [  0.7         -2.76434691]
 [  0.8        -19.59960586]
 [  0.9        -93.26966696]
 [  1.          64.56379815]
 [  1.09391667 -59.79308705]]","[[0.         0.53695405]
 [0.1        1.68823048]
 [0.2        0.29560695]
 [0.3        0.83443164]
 [0.4        0.87894934]
 [0.5        1.46703122]
 [0.6        0.23248639]
 [0.7        1.71572221]
 [0.8        1.24729907]
 [0.9        0.75753981]
 [1.         1.65214627]
 [1.09391667 0.40383656]]",0,0.386
8723415159,f,25,english,4,5,french,2024-01-25 10:40:17.232188,False,2,365,sounds\english\audio/english_995.wav,"[[  0.          97.76656521]
 [  0.1         10.72921102]
 [  0.2        -74.90567645]
 [  0.3         77.17787297]
 [  0.4        -65.98328726]
 [  0.5          3.50056795]
 [  0.6        -48.42786785]
 [  0.7         47.72819133]
 [  0.8         14.30124411]
 [  0.9        -92.38663664]
 [  1.          33.04960477]
 [  1.09391667  16.88553352]]","[[0.         1.90640997]
 [0.1        1.35752142]
 [0.2        0.0677959 ]
 [0.3        0.2303181 ]
 [0.4        1.9496567 ]
 [0.5        1.06158527]
 [0.6        0.86919942]
 [0.7        1.60426058]
 [0.8        1.52102104]
 [0.9        0.17733005]
 [1.         1.36413464]
 [1.09391667 0.78541069]]",0,1.137
8723415159,f,25,english,4,5,french,2024-01-25 10:40:17.232188,False,2,366,sounds\english\audio/english_428.wav,"[[  0.          81.83092524]
 [  0.1        -80.13069751]
 [  0.2        -11.65632902]
 [  0.3        -46.08084266]
 [  0.4          3.29741478]
 [  0.5         38.2144639 ]
 [  0.6        -36.34649143]
 [  0.7        -64.94911042]
 [  0.8         55.28808141]
 [  0.9        -85.65631623]
 [  1.          45.03584187]
 [  1.09391667 -22.28745039]]","[[0.         1.65195738]
 [0.1        1.50342219]
 [0.2        1.06152039]
 [0.3        0.87273268]
 [0.4        1.30041173]
 [0.5        1.27181021]
 [0.6        1.2829939 ]
 [0.7        0.80379216]
 [0.8        0.54976242]
 [0.9        1.4846347 ]
 [1.         0.86531381]
 [1.09391667 0.63375774]]",0,0.221
8723415159,f,25,english,4,5,french,2024-01-25 10:40:17.232188,False,2,367,sounds\english\audio/english_860.wav,"[[  0.         -75.11512177]
 [  0.1        -76.73255409]
 [  0.2        -22.8093588 ]
 [  0.3         52.97738113]
 [  0.4        -48.45234216]
 [  0.5        -73.13735188]
 [  0.6        -46.97684059]
 [  0.7        -71.08749695]
 [  0.8         63.11648415]
 [  0.9         33.70639775]
 [  1.          39.70734852]
 [  1.09391667 -93.86026271]]","[[0.         0.5802678 ]
 [0.1        0.63510207]
 [0.2        1.68265606]
 [0.3        1.3480606 ]
 [0.4        1.82238625]
 [0.5        1.51063726]
 [0.6        1.0243353 ]
 [0.7        1.81300466]
 [0.8        1.10665048]
 [0.9        0.26575263]
 [1.         1.65404894]
 [1.09391667 1.66618104]]",0,0.29
8723415159,f,25,english,4,5,french,2024-01-25 10:40:17.232188,False,2,368,sounds\english\audio/english_837.wav,"[[  0.         -19.55907837]
 [  0.1         81.5519268 ]
 [  0.2         51.06726568]
 [  0.3         11.56573734]
 [  0.4          3.9548588 ]
 [  0.5        -33.36822777]
 [  0.6         36.7691739 ]
 [  0.7        -18.61244812]
 [  0.8         16.54769658]
 [  0.9        -37.16394557]
 [  1.          10.95001842]
 [  1.09391667  34.38345354]]","[[0.         0.36214908]
 [0.1        1.07178346]
 [0.2        0.32034272]
 [0.3        0.28433719]
 [0.4        0.83672743]
 [0.5        0.19314145]
 [0.6        0.96322299]
 [0.7        1.32224338]
 [0.8        1.87041814]
 [0.9        0.06067537]
 [1.         0.49261583]
 [1.09391667 1.54886366]]",0,0.213
8723415159,f,25,english,4,5,french,2024-01-25 10:40:17.232188,False,2,369,sounds\english\audio/english_166.wav,"[[  0.         -22.47224396]
 [  0.1          8.34418228]
 [  0.2        -26.80375044]
 [  0.3        -25.22426401]
 [  0.4        -44.17860095]
 [  0.5         -7.8395137 ]
 [  0.6         42.03338864]
 [  0.7         50.48936268]
 [  0.8        -79.33283531]
 [  0.9         57.67304972]
 [  1.          75.92662412]
 [  1.09391667  -5.06556073]]","[[0.         0.79935629]
 [0.1        1.08766258]
 [0.2        0.88793969]
 [0.3        1.85581966]
 [0.4        1.74261815]
 [0.5        0.67828824]
 [0.6        0.30993225]
 [0.7        1.83209491]
 [0.8        1.96795539]
 [0.9        0.73278394]
 [1.         1.69577801]
 [1.09391667 0.31756742]]",0,0.074
8723415159,f,25,english,4,5,french,2024-01-25 10:40:17.232188,False,2,370,sounds\english\audio/english_972.wav,"[[  0.         -23.39425143]
 [  0.1         35.85055319]
 [  0.2         67.19735569]
 [  0.3        -48.3142237 ]
 [  0.4         98.37530376]
 [  0.5         49.57162288]
 [  0.6         57.60699349]
 [  0.7        -63.06687642]
 [  0.8         66.62148397]
 [  0.9         25.13322135]
 [  1.         -29.0922144 ]
 [  1.09391667 -22.18125143]]","[[0.         1.25085973]
 [0.1        1.0698884 ]
 [0.2        1.90990051]
 [0.3        1.50553478]
 [0.4        1.59397111]
 [0.5        0.74863955]
 [0.6        0.82823128]
 [0.7        0.17780137]
 [0.8        0.09555814]
 [0.9        1.59117444]
 [1.         1.44799229]
 [1.09391667 1.21058423]]",1,0.29
8723415159,f,25,english,4,5,french,2024-01-25 10:40:17.232188,False,2,371,sounds\english\audio/english_152.wav,"[[  0.         -10.34550429]
 [  0.1        -43.66558153]
 [  0.2         56.2217474 ]
 [  0.3        -27.44048298]
 [  0.4         17.92439762]
 [  0.5         82.51468432]
 [  0.6          8.54715681]
 [  0.7        -94.9804546 ]
 [  0.8         43.42849193]
 [  0.9          1.5194414 ]
 [  1.          20.77451489]
 [  1.09391667  95.7342738 ]]","[[0.         1.84986994]
 [0.1        0.90615496]
 [0.2        0.59286193]
 [0.3        0.85505555]
 [0.4        0.56649727]
 [0.5        0.6043893 ]
 [0.6        1.72413787]
 [0.7        0.10144569]
 [0.8        1.50321153]
 [0.9        0.78421076]
 [1.         1.65129885]
 [1.09391667 1.8248214 ]]",0,0.981
8723415159,f,25,english,4,5,french,2024-01-25 10:40:17.232188,False,2,372,sounds\english\audio/english_638.wav,"[[  0.          27.0849984 ]
 [  0.1        -76.77372335]
 [  0.2         -5.6974772 ]
 [  0.3        -27.04640621]
 [  0.4         10.67934685]
 [  0.5        -13.18628206]
 [  0.6         11.34372698]
 [  0.7        -64.2430687 ]
 [  0.8         46.35115049]
 [  0.9         44.69499683]
 [  1.         -11.73136011]
 [  1.09391667 -77.04953993]]","[[0.         1.3280689 ]
 [0.1        0.56896387]
 [0.2        0.56746927]
 [0.3        0.40067671]
 [0.4        1.88228275]
 [0.5        0.52168705]
 [0.6        0.80905376]
 [0.7        1.41810717]
 [0.8        1.8285697 ]
 [0.9        0.3100636 ]
 [1.         1.74790386]
 [1.09391667 1.8348397 ]]",0,1.101
8723415159,f,25,english,4,5,french,2024-01-25 10:40:17.232188,False,2,373,sounds\english\audio/english_686.wav,"[[  0.         -67.05425971]
 [  0.1        -39.97086024]
 [  0.2        -95.68334926]
 [  0.3         95.25173903]
 [  0.4        -32.8311948 ]
 [  0.5        -48.95766653]
 [  0.6          1.46673541]
 [  0.7          2.82521342]
 [  0.8        -50.40490355]
 [  0.9        -13.31081272]
 [  1.          86.45331077]
 [  1.09391667  27.45785802]]","[[0.         1.70124543]
 [0.1        0.46826984]
 [0.2        0.38007699]
 [0.3        1.75748907]
 [0.4        0.73728226]
 [0.5        0.66391126]
 [0.6        0.49234924]
 [0.7        1.58569933]
 [0.8        0.73602174]
 [0.9        0.69160948]
 [1.         1.60918627]
 [1.09391667 0.82158227]]",0,0.153
8723415159,f,25,english,4,5,french,2024-01-25 10:40:17.232188,False,2,374,sounds\english\audio/english_176.wav,"[[  0.         -29.79812822]
 [  0.1        -16.19961317]
 [  0.2         13.51202418]
 [  0.3         10.74594974]
 [  0.4        -52.94473426]
 [  0.5         52.13031176]
 [  0.6         75.74839712]
 [  0.7         62.6882876 ]
 [  0.8        -12.46472889]
 [  0.9         74.66747541]
 [  1.         -22.48226553]
 [  1.09391667 -36.55733652]]","[[0.         0.43469721]
 [0.1        0.8905279 ]
 [0.2        1.36195462]
 [0.3        0.86537329]
 [0.4        0.61396379]
 [0.5        0.71790783]
 [0.6        1.10097826]
 [0.7        1.68067326]
 [0.8        1.35151853]
 [0.9        0.28756574]
 [1.         0.36668304]
 [1.09391667 1.35894928]]",0,0.234
8723415159,f,25,english,4,5,french,2024-01-25 10:40:17.232188,False,2,375,sounds\english\audio/english_269.wav,"[[  0.         -83.93501444]
 [  0.1         88.09879619]
 [  0.2        -88.94573115]
 [  0.3        -19.78587184]
 [  0.4         69.53650184]
 [  0.5        -12.80260332]
 [  0.6         37.86483682]
 [  0.7         20.748183  ]
 [  0.8         68.31338511]
 [  0.9        -95.26136032]
 [  1.          60.98745535]
 [  1.09391667  -4.34526385]]","[[0.         0.85151873]
 [0.1        0.93284173]
 [0.2        0.56585091]
 [0.3        1.66708848]
 [0.4        0.92160414]
 [0.5        0.96478354]
 [0.6        0.12392918]
 [0.7        0.94784748]
 [0.8        0.83939678]
 [0.9        1.67634699]
 [1.         1.66934281]
 [1.09391667 1.1076262 ]]",0,1.023
8723415159,f,25,english,4,5,french,2024-01-25 10:40:17.232188,False,2,376,sounds\english\audio/english_15.wav,"[[  0.          62.7654015 ]
 [  0.1         72.90081021]
 [  0.2        -27.13813981]
 [  0.3         46.15025154]
 [  0.4         82.82691944]
 [  0.5        -11.77094526]
 [  0.6          7.10565833]
 [  0.7         95.94707331]
 [  0.8         45.63799677]
 [  0.9        -92.00814549]
 [  1.          63.89035204]
 [  1.09391667   2.5390803 ]]","[[0.         0.64461989]
 [0.1        0.87486851]
 [0.2        0.76068215]
 [0.3        1.07697628]
 [0.4        1.41242613]
 [0.5        0.34527471]
 [0.6        1.49976623]
 [0.7        0.60499577]
 [0.8        1.54166411]
 [0.9        0.43181907]
 [1.         1.01946416]
 [1.09391667 1.42183406]]",1,0.094
8723415159,f,25,english,4,5,french,2024-01-25 10:40:17.232188,False,2,377,sounds\english\audio/english_747.wav,"[[  0.          33.9885207 ]
 [  0.1        -71.14283381]
 [  0.2        -52.52906762]
 [  0.3         79.5756924 ]
 [  0.4        -13.30932063]
 [  0.5         25.54535415]
 [  0.6          8.02344494]
 [  0.7        -38.13543806]
 [  0.8         22.33599648]
 [  0.9        -26.77712134]
 [  1.          -6.09351927]
 [  1.09391667  43.23579595]]","[[0.         1.47964533]
 [0.1        1.57695323]
 [0.2        1.13707985]
 [0.3        1.65073603]
 [0.4        0.47172054]
 [0.5        1.37786003]
 [0.6        1.58889604]
 [0.7        1.29683876]
 [0.8        1.65514229]
 [0.9        1.18735968]
 [1.         1.37962036]
 [1.09391667 1.3791581 ]]",0,0.168
8723415159,f,25,english,4,5,french,2024-01-25 10:40:17.232188,False,2,378,sounds\english\audio/english_41.wav,"[[  0.          94.86935215]
 [  0.1         -7.05168928]
 [  0.2         83.29541273]
 [  0.3         -1.78314142]
 [  0.4         48.9333274 ]
 [  0.5        -37.7603382 ]
 [  0.6        -73.18439231]
 [  0.7         14.0804343 ]
 [  0.8        -63.54643631]
 [  0.9         15.76603415]
 [  1.           6.93433941]
 [  1.09391667 -37.21216737]]","[[0.         0.27348518]
 [0.1        1.18971652]
 [0.2        1.0683571 ]
 [0.3        1.37978433]
 [0.4        0.66104529]
 [0.5        1.58723319]
 [0.6        0.96658357]
 [0.7        1.12331941]
 [0.8        1.41064232]
 [0.9        0.93302581]
 [1.         0.83854769]
 [1.09391667 1.07714606]]",0,0.123
8723415159,f,25,english,4,5,french,2024-01-25 10:40:17.232188,False,2,379,sounds\english\audio/english_467.wav,"[[  0.          84.73520447]
 [  0.1         88.96200227]
 [  0.2         72.63675829]
 [  0.3        -11.47164633]
 [  0.4        -15.99279105]
 [  0.5        -43.82437563]
 [  0.6         43.03099958]
 [  0.7        -45.22330674]
 [  0.8         76.52363546]
 [  0.9        -64.57143565]
 [  1.         -23.20829111]
 [  1.09391667  90.56201043]]","[[0.         0.80775308]
 [0.1        0.60891261]
 [0.2        1.71596765]
 [0.3        0.15084523]
 [0.4        1.25287304]
 [0.5        1.40086837]
 [0.6        0.418933  ]
 [0.7        1.80339492]
 [0.8        0.77008525]
 [0.9        1.13088524]
 [1.         0.17124527]
 [1.09391667 1.41524886]]",0,0.152
8723415159,f,25,english,4,5,french,2024-01-25 10:40:17.232188,False,2,380,sounds\english\audio/english_165.wav,"[[  0.          -2.19989306]
 [  0.1        -17.54385673]
 [  0.2        -35.4480887 ]
 [  0.3         38.42421814]
 [  0.4         19.51422171]
 [  0.5         -2.86344702]
 [  0.6         24.21245357]
 [  0.7        -20.07763652]
 [  0.8         -4.69526924]
 [  0.9         46.92767694]
 [  1.          -4.88253914]
 [  1.09391667  23.85195976]]","[[0.         1.80366268]
 [0.1        0.63199927]
 [0.2        1.72021084]
 [0.3        1.85097281]
 [0.4        0.29605958]
 [0.5        1.04155763]
 [0.6        0.33290829]
 [0.7        0.77719776]
 [0.8        1.6690738 ]
 [0.9        0.76251785]
 [1.         1.74728665]
 [1.09391667 0.67244999]]",1,0.09
8723415159,f,25,english,4,5,french,2024-01-25 10:40:17.232188,False,2,381,sounds\english\audio/english_53.wav,"[[  0.          -9.98510741]
 [  0.1         90.79697624]
 [  0.2        -13.66139315]
 [  0.3        -58.03832427]
 [  0.4        -14.2879771 ]
 [  0.5         -9.92334291]
 [  0.6         48.00852586]
 [  0.7         -7.96828411]
 [  0.8          3.91211897]
 [  0.9          9.32007469]
 [  1.         -65.1483507 ]
 [  1.09391667 -31.85609608]]","[[0.         0.74460472]
 [0.1        1.15408397]
 [0.2        1.79328536]
 [0.3        1.05093724]
 [0.4        0.44247057]
 [0.5        0.88826362]
 [0.6        1.51515328]
 [0.7        1.78598668]
