subj,trial,block,date,stim,stim_order,response,rt,age,english,french,language,sex,param_index,segment,pitch,stretch
65a97c769f2db2c7f246e5b5,0,0,2024-02-28T14:39:09.422Z,english_744.wav,0,peel,25231,31,5,4,English,f,0,0.0,68.01647572,0.92301697
65a97c769f2db2c7f246e5b5,0,0,2024-02-28T14:39:09.422Z,english_744.wav,0,peel,25231,31,5,4,English,f,1,0.1,-94.84396495,1.7240092
65a97c769f2db2c7f246e5b5,0,0,2024-02-28T14:39:09.422Z,english_744.wav,0,peel,25231,31,5,4,English,f,2,0.2,-7.3752647,0.78395161
65a97c769f2db2c7f246e5b5,0,0,2024-02-28T14:39:09.422Z,english_744.wav,0,peel,25231,31,5,4,English,f,3,0.3,-81.08479212,1.15168853
65a97c769f2db2c7f246e5b5,0,0,2024-02-28T14:39:09.422Z,english_744.wav,0,peel,25231,31,5,4,English,f,4,0.4,-44.66331389,0.98824464
65a97c769f2db2c7f246e5b5,0,0,2024-02-28T14:39:09.422Z,english_744.wav,0,peel,25231,31,5,4,English,f,5,0.5,-77.45989494,1.26560798
65a97c769f2db2c7f246e5b5,0,0,2024-02-28T14:39:09.422Z,english_744.wav,0,peel,25231,31,5,4,English,f,6,0.6,19.1026234,0.20042884
65a97c769f2db2c7f246e5b5,0,0,2024-02-28T14:39:09.422Z,english_744.wav,0,peel,25231,31,5,4,English,f,7,0.7,-0.63798112,1.76365186
65a97c769f2db2c7f246e5b5,0,0,2024-02-28T14:39:09.422Z,english_744.wav,0,peel,25231,31,5,4,English,f,8,0.8,74.86031238,1.68948901
65a97c769f2db2c7f246e5b5,0,0,2024-02-28T14:39:09.422Z,english_744.wav,0,peel,25231,31,5,4,English,f,9,0.9,-35.9107796,0.81659748
65a97c769f2db2c7f246e5b5,0,0,2024-02-28T14:39:09.422Z,english_744.wav,0,peel,25231,31,5,4,English,f,10,1.0,-6.98299608,1.14393897
65a97c769f2db2c7f246e5b5,0,0,2024-02-28T14:39:09.422Z,english_744.wav,0,peel,25231,31,5,4,English,f,11,1.09391667,-12.26999011,0.86480781
65a97c769f2db2c7f246e5b5,1,0,2024-02-28T14:39:09.422Z,english_79.wav,0,peel,1521,31,5,4,English,f,0,0.0,27.97817784,0.84571494
65a97c769f2db2c7f246e5b5,1,0,2024-02-28T14:39:09.422Z,english_79.wav,0,peel,1521,31,5,4,English,f,1,0.1,71.46944993,1.27709221
65a97c769f2db2c7f246e5b5,1,0,2024-02-28T14:39:09.422Z,english_79.wav,0,peel,1521,31,5,4,English,f,2,0.2,89.05489336,1.27075812
65a97c769f2db2c7f246e5b5,1,0,2024-02-28T14:39:09.422Z,english_79.wav,0,peel,1521,31,5,4,English,f,3,0.3,-19.05433113,1.99746898
65a97c769f2db2c7f246e5b5,1,0,2024-02-28T14:39:09.422Z,english_79.wav,0,peel,1521,31,5,4,English,f,4,0.4,-69.45960299,0.86632135
65a97c769f2db2c7f246e5b5,1,0,2024-02-28T14:39:09.422Z,english_79.wav,0,peel,1521,31,5,4,English,f,5,0.5,73.78187689,1.18439274
65a97c769f2db2c7f246e5b5,1,0,2024-02-28T14:39:09.422Z,english_79.wav,0,peel,1521,31,5,4,English,f,6,0.6,45.30424973,0.05743494
65a97c769f2db2c7f246e5b5,1,0,2024-02-28T14:39:09.422Z,english_79.wav,0,peel,1521,31,5,4,English,f,7,0.7,-12.3964906,1.88609771
65a97c769f2db2c7f246e5b5,1,0,2024-02-28T14:39:09.422Z,english_79.wav,0,peel,1521,31,5,4,English,f,8,0.8,-6.65615849,1.07546111
65a97c769f2db2c7f246e5b5,1,0,2024-02-28T14:39:09.422Z,english_79.wav,0,peel,1521,31,5,4,English,f,9,0.9,20.78943027,0.97034818
65a97c769f2db2c7f246e5b5,1,0,2024-02-28T14:39:09.422Z,english_79.wav,0,peel,1521,31,5,4,English,f,10,1.0,-67.05166292,0.94663039
65a97c769f2db2c7f246e5b5,1,0,2024-02-28T14:39:09.422Z,english_79.wav,0,peel,1521,31,5,4,English,f,11,1.09391667,-53.62396235,0.1925317
65a97c769f2db2c7f246e5b5,2,0,2024-02-28T14:39:09.422Z,english_578.wav,0,peel,3127,31,5,4,English,f,0,0.0,-75.00897619,0.74810011
65a97c769f2db2c7f246e5b5,2,0,2024-02-28T14:39:09.422Z,english_578.wav,0,peel,3127,31,5,4,English,f,1,0.1,-99.92599168,1.6653295
65a97c769f2db2c7f246e5b5,2,0,2024-02-28T14:39:09.422Z,english_578.wav,0,peel,3127,31,5,4,English,f,2,0.2,-41.97852884,0.86958953
65a97c769f2db2c7f246e5b5,2,0,2024-02-28T14:39:09.422Z,english_578.wav,0,peel,3127,31,5,4,English,f,3,0.3,-44.5286304,1.82114948
65a97c769f2db2c7f246e5b5,2,0,2024-02-28T14:39:09.422Z,english_578.wav,0,peel,3127,31,5,4,English,f,4,0.4,33.7471246,1.20682151
65a97c769f2db2c7f246e5b5,2,0,2024-02-28T14:39:09.422Z,english_578.wav,0,peel,3127,31,5,4,English,f,5,0.5,-20.55369632,0.95346463
65a97c769f2db2c7f246e5b5,2,0,2024-02-28T14:39:09.422Z,english_578.wav,0,peel,3127,31,5,4,English,f,6,0.6,80.47589593,1.35013789
65a97c769f2db2c7f246e5b5,2,0,2024-02-28T14:39:09.422Z,english_578.wav,0,peel,3127,31,5,4,English,f,7,0.7,-14.97727246,1.4182331
65a97c769f2db2c7f246e5b5,2,0,2024-02-28T14:39:09.422Z,english_578.wav,0,peel,3127,31,5,4,English,f,8,0.8,-21.44814327,1.48872207
65a97c769f2db2c7f246e5b5,2,0,2024-02-28T14:39:09.422Z,english_578.wav,0,peel,3127,31,5,4,English,f,9,0.9,-62.07774638,0.52217737
65a97c769f2db2c7f246e5b5,2,0,2024-02-28T14:39:09.422Z,english_578.wav,0,peel,3127,31,5,4,English,f,10,1.0,-99.81693505,1.9830309
65a97c769f2db2c7f246e5b5,2,0,2024-02-28T14:39:09.422Z,english_578.wav,0,peel,3127,31,5,4,English,f,11,1.09391667,-93.56727968,1.11565266
65a97c769f2db2c7f246e5b5,3,0,2024-02-28T14:39:09.422Z,english_587.wav,0,pill,1203,31,5,4,English,f,0,0.0,-43.40275294,0.40076924
65a97c769f2db2c7f246e5b5,3,0,2024-02-28T14:39:09.422Z,english_587.wav,0,pill,1203,31,5,4,English,f,1,0.1,-37.77994111,1.21668484
65a97c769f2db2c7f246e5b5,3,0,2024-02-28T14:39:09.422Z,english_587.wav,0,pill,1203,31,5,4,English,f,2,0.2,83.99553821,1.2277233
65a97c769f2db2c7f246e5b5,3,0,2024-02-28T14:39:09.422Z,english_587.wav,0,pill,1203,31,5,4,English,f,3,0.3,-96.01654656,0.71292194
65a97c769f2db2c7f246e5b5,3,0,2024-02-28T14:39:09.422Z,english_587.wav,0,pill,1203,31,5,4,English,f,4,0.4,-9.71349701,0.26055353
65a97c769f2db2c7f246e5b5,3,0,2024-02-28T14:39:09.422Z,english_587.wav,0,pill,1203,31,5,4,English,f,5,0.5,-47.87514317,1.66513876
65a97c769f2db2c7f246e5b5,3,0,2024-02-28T14:39:09.422Z,english_587.wav,0,pill,1203,31,5,4,English,f,6,0.6,12.68053189,0.2591497
65a97c769f2db2c7f246e5b5,3,0,2024-02-28T14:39:09.422Z,english_587.wav,0,pill,1203,31,5,4,English,f,7,0.7,47.90702589,0.90449777
65a97c769f2db2c7f246e5b5,3,0,2024-02-28T14:39:09.422Z,english_587.wav,0,pill,1203,31,5,4,English,f,8,0.8,-78.79796743,0.87118045
65a97c769f2db2c7f246e5b5,3,0,2024-02-28T14:39:09.422Z,english_587.wav,0,pill,1203,31,5,4,English,f,9,0.9,-5.96294959,1.32264247
65a97c769f2db2c7f246e5b5,3,0,2024-02-28T14:39:09.422Z,english_587.wav,0,pill,1203,31,5,4,English,f,10,1.0,11.2587131,1.86277567
65a97c769f2db2c7f246e5b5,3,0,2024-02-28T14:39:09.422Z,english_587.wav,0,pill,1203,31,5,4,English,f,11,1.09391667,-13.10275262,0.24936359
65a97c769f2db2c7f246e5b5,4,0,2024-02-28T14:39:09.422Z,english_575.wav,0,peel,2106,31,5,4,English,f,0,0.0,-28.55246959,0.34827421
65a97c769f2db2c7f246e5b5,4,0,2024-02-28T14:39:09.422Z,english_575.wav,0,peel,2106,31,5,4,English,f,1,0.1,-59.77879939,1.97158185
65a97c769f2db2c7f246e5b5,4,0,2024-02-28T14:39:09.422Z,english_575.wav,0,peel,2106,31,5,4,English,f,2,0.2,2.26003832,1.72673863
65a97c769f2db2c7f246e5b5,4,0,2024-02-28T14:39:09.422Z,english_575.wav,0,peel,2106,31,5,4,English,f,3,0.3,-92.4918711,1.89863573
65a97c769f2db2c7f246e5b5,4,0,2024-02-28T14:39:09.422Z,english_575.wav,0,peel,2106,31,5,4,English,f,4,0.4,9.61640334,0.88005593
65a97c769f2db2c7f246e5b5,4,0,2024-02-28T14:39:09.422Z,english_575.wav,0,peel,2106,31,5,4,English,f,5,0.5,41.99109137,0.43110597
65a97c769f2db2c7f246e5b5,4,0,2024-02-28T14:39:09.422Z,english_575.wav,0,peel,2106,31,5,4,English,f,6,0.6,-61.89931175,0.53238875
65a97c769f2db2c7f246e5b5,4,0,2024-02-28T14:39:09.422Z,english_575.wav,0,peel,2106,31,5,4,English,f,7,0.7,-44.26761436,1.80705755
65a97c769f2db2c7f246e5b5,4,0,2024-02-28T14:39:09.422Z,english_575.wav,0,peel,2106,31,5,4,English,f,8,0.8,64.04805114,0.17311477
65a97c769f2db2c7f246e5b5,4,0,2024-02-28T14:39:09.422Z,english_575.wav,0,peel,2106,31,5,4,English,f,9,0.9,-1.378942,0.39040882
65a97c769f2db2c7f246e5b5,4,0,2024-02-28T14:39:09.422Z,english_575.wav,0,peel,2106,31,5,4,English,f,10,1.0,15.99079472,1.45544499
65a97c769f2db2c7f246e5b5,4,0,2024-02-28T14:39:09.422Z,english_575.wav,0,peel,2106,31,5,4,English,f,11,1.09391667,-36.72459502,0.54722728
65a97c769f2db2c7f246e5b5,5,0,2024-02-28T14:39:09.422Z,english_247.wav,0,pill,1055,31,5,4,English,f,0,0.0,25.0451381,1.47539451
65a97c769f2db2c7f246e5b5,5,0,2024-02-28T14:39:09.422Z,english_247.wav,0,pill,1055,31,5,4,English,f,1,0.1,-0.42762512,0.00273089
65a97c769f2db2c7f246e5b5,5,0,2024-02-28T14:39:09.422Z,english_247.wav,0,pill,1055,31,5,4,English,f,2,0.2,6.28793154,1.08361758
65a97c769f2db2c7f246e5b5,5,0,2024-02-28T14:39:09.422Z,english_247.wav,0,pill,1055,31,5,4,English,f,3,0.3,-3.67285953,1.41054103
65a97c769f2db2c7f246e5b5,5,0,2024-02-28T14:39:09.422Z,english_247.wav,0,pill,1055,31,5,4,English,f,4,0.4,72.86099671,0.74915888
65a97c769f2db2c7f246e5b5,5,0,2024-02-28T14:39:09.422Z,english_247.wav,0,pill,1055,31,5,4,English,f,5,0.5,4.14559404,1.69392232
65a97c769f2db2c7f246e5b5,5,0,2024-02-28T14:39:09.422Z,english_247.wav,0,pill,1055,31,5,4,English,f,6,0.6,25.40906202,1.26493683
65a97c769f2db2c7f246e5b5,5,0,2024-02-28T14:39:09.422Z,english_247.wav,0,pill,1055,31,5,4,English,f,7,0.7,-4.12042736,0.1138778
65a97c769f2db2c7f246e5b5,5,0,2024-02-28T14:39:09.422Z,english_247.wav,0,pill,1055,31,5,4,English,f,8,0.8,34.39220846,1.15663669
65a97c769f2db2c7f246e5b5,5,0,2024-02-28T14:39:09.422Z,english_247.wav,0,pill,1055,31,5,4,English,f,9,0.9,-47.96329468,1.48677288
65a97c769f2db2c7f246e5b5,5,0,2024-02-28T14:39:09.422Z,english_247.wav,0,pill,1055,31,5,4,English,f,10,1.0,84.41515092,0.39384904
65a97c769f2db2c7f246e5b5,5,0,2024-02-28T14:39:09.422Z,english_247.wav,0,pill,1055,31,5,4,English,f,11,1.09391667,76.12511321,0.02417049
65a97c769f2db2c7f246e5b5,6,0,2024-02-28T14:39:09.422Z,english_178.wav,0,peel,723,31,5,4,English,f,0,0.0,5.42478923,1.01011156
65a97c769f2db2c7f246e5b5,6,0,2024-02-28T14:39:09.422Z,english_178.wav,0,peel,723,31,5,4,English,f,1,0.1,66.71711881,1.60637441
65a97c769f2db2c7f246e5b5,6,0,2024-02-28T14:39:09.422Z,english_178.wav,0,peel,723,31,5,4,English,f,2,0.2,25.13944125,0.85795496
65a97c769f2db2c7f246e5b5,6,0,2024-02-28T14:39:09.422Z,english_178.wav,0,peel,723,31,5,4,English,f,3,0.3,95.56005782,1.35214977
65a97c769f2db2c7f246e5b5,6,0,2024-02-28T14:39:09.422Z,english_178.wav,0,peel,723,31,5,4,English,f,4,0.4,16.85207382,0.61247399
65a97c769f2db2c7f246e5b5,6,0,2024-02-28T14:39:09.422Z,english_178.wav,0,peel,723,31,5,4,English,f,5,0.5,-27.28270002,1.45555962
65a97c769f2db2c7f246e5b5,6,0,2024-02-28T14:39:09.422Z,english_178.wav,0,peel,723,31,5,4,English,f,6,0.6,86.24132907,0.34817024
65a97c769f2db2c7f246e5b5,6,0,2024-02-28T14:39:09.422Z,english_178.wav,0,peel,723,31,5,4,English,f,7,0.7,-67.08119727,0.78995697
65a97c769f2db2c7f246e5b5,6,0,2024-02-28T14:39:09.422Z,english_178.wav,0,peel,723,31,5,4,English,f,8,0.8,-0.81610081,1.09427424
65a97c769f2db2c7f246e5b5,6,0,2024-02-28T14:39:09.422Z,english_178.wav,0,peel,723,31,5,4,English,f,9,0.9,-32.08256077,1.32224293
65a97c769f2db2c7f246e5b5,6,0,2024-02-28T14:39:09.422Z,english_178.wav,0,peel,723,31,5,4,English,f,10,1.0,33.26765995,1.53013904
65a97c769f2db2c7f246e5b5,6,0,2024-02-28T14:39:09.422Z,english_178.wav,0,peel,723,31,5,4,English,f,11,1.09391667,50.15163679,1.40313699
65a97c769f2db2c7f246e5b5,7,0,2024-02-28T14:39:09.422Z,english_64.wav,0,peel,1438,31,5,4,English,f,0,0.0,35.19701481,0.1517014
65a97c769f2db2c7f246e5b5,7,0,2024-02-28T14:39:09.422Z,english_64.wav,0,peel,1438,31,5,4,English,f,1,0.1,75.83495736,1.3624391
65a97c769f2db2c7f246e5b5,7,0,2024-02-28T14:39:09.422Z,english_64.wav,0,peel,1438,31,5,4,English,f,2,0.2,-57.84604767,0.35043993
65a97c769f2db2c7f246e5b5,7,0,2024-02-28T14:39:09.422Z,english_64.wav,0,peel,1438,31,5,4,English,f,3,0.3,18.18328311,1.06032252
65a97c769f2db2c7f246e5b5,7,0,2024-02-28T14:39:09.422Z,english_64.wav,0,peel,1438,31,5,4,English,f,4,0.4,2.5532884,1.51833669
65a97c769f2db2c7f246e5b5,7,0,2024-02-28T14:39:09.422Z,english_64.wav,0,peel,1438,31,5,4,English,f,5,0.5,24.93011402,0.65789286
65a97c769f2db2c7f246e5b5,7,0,2024-02-28T14:39:09.422Z,english_64.wav,0,peel,1438,31,5,4,English,f,6,0.6,-51.99875854,1.38401799
65a97c769f2db2c7f246e5b5,7,0,2024-02-28T14:39:09.422Z,english_64.wav,0,peel,1438,31,5,4,English,f,7,0.7,52.45873465,1.62873445
65a97c769f2db2c7f246e5b5,7,0,2024-02-28T14:39:09.422Z,english_64.wav,0,peel,1438,31,5,4,English,f,8,0.8,42.38876358,0.48968984
65a97c769f2db2c7f246e5b5,7,0,2024-02-28T14:39:09.422Z,english_64.wav,0,peel,1438,31,5,4,English,f,9,0.9,54.33691238,0.64777192
65a97c769f2db2c7f246e5b5,7,0,2024-02-28T14:39:09.422Z,english_64.wav,0,peel,1438,31,5,4,English,f,10,1.0,27.02485659,0.8399807
65a97c769f2db2c7f246e5b5,7,0,2024-02-28T14:39:09.422Z,english_64.wav,0,peel,1438,31,5,4,English,f,11,1.09391667,58.99390703,0.25985176
65a97c769f2db2c7f246e5b5,8,0,2024-02-28T14:39:09.422Z,english_749.wav,0,peel,1204,31,5,4,English,f,0,0.0,-98.755033,1.96334233
65a97c769f2db2c7f246e5b5,8,0,2024-02-28T14:39:09.422Z,english_749.wav,0,peel,1204,31,5,4,English,f,1,0.1,42.65363822,1.48975569
65a97c769f2db2c7f246e5b5,8,0,2024-02-28T14:39:09.422Z,english_749.wav,0,peel,1204,31,5,4,English,f,2,0.2,26.16294791,0.57355189
65a97c769f2db2c7f246e5b5,8,0,2024-02-28T14:39:09.422Z,english_749.wav,0,peel,1204,31,5,4,English,f,3,0.3,-49.82375857,1.77057057
65a97c769f2db2c7f246e5b5,8,0,2024-02-28T14:39:09.422Z,english_749.wav,0,peel,1204,31,5,4,English,f,4,0.4,-23.36229669,0.88660826
65a97c769f2db2c7f246e5b5,8,0,2024-02-28T14:39:09.422Z,english_749.wav,0,peel,1204,31,5,4,English,f,5,0.5,35.77035363,1.64369118
65a97c769f2db2c7f246e5b5,8,0,2024-02-28T14:39:09.422Z,english_749.wav,0,peel,1204,31,5,4,English,f,6,0.6,7.03000202,1.42265123
65a97c769f2db2c7f246e5b5,8,0,2024-02-28T14:39:09.422Z,english_749.wav,0,peel,1204,31,5,4,English,f,7,0.7,35.98122364,1.36887772
65a97c769f2db2c7f246e5b5,8,0,2024-02-28T14:39:09.422Z,english_749.wav,0,peel,1204,31,5,4,English,f,8,0.8,28.50180833,0.73095149
65a97c769f2db2c7f246e5b5,8,0,2024-02-28T14:39:09.422Z,english_749.wav,0,peel,1204,31,5,4,English,f,9,0.9,7.93583133,1.72699402
65a97c769f2db2c7f246e5b5,8,0,2024-02-28T14:39:09.422Z,english_749.wav,0,peel,1204,31,5,4,English,f,10,1.0,35.65640922,1.24379364
65a97c769f2db2c7f246e5b5,8,0,2024-02-28T14:39:09.422Z,english_749.wav,0,peel,1204,31,5,4,English,f,11,1.09391667,51.80769378,0.86036236
65a97c769f2db2c7f246e5b5,9,0,2024-02-28T14:39:09.422Z,english_538.wav,0,pill,1184,31,5,4,English,f,0,0.0,10.61627961,1.15184391
65a97c769f2db2c7f246e5b5,9,0,2024-02-28T14:39:09.422Z,english_538.wav,0,pill,1184,31,5,4,English,f,1,0.1,-8.0929012,1.50748819
65a97c769f2db2c7f246e5b5,9,0,2024-02-28T14:39:09.422Z,english_538.wav,0,pill,1184,31,5,4,English,f,2,0.2,4.29598946,0.49576218
65a97c769f2db2c7f246e5b5,9,0,2024-02-28T14:39:09.422Z,english_538.wav,0,pill,1184,31,5,4,English,f,3,0.3,-22.12858968,1.003898
65a97c769f2db2c7f246e5b5,9,0,2024-02-28T14:39:09.422Z,english_538.wav,0,pill,1184,31,5,4,English,f,4,0.4,-56.21885188,1.76624867
65a97c769f2db2c7f246e5b5,9,0,2024-02-28T14:39:09.422Z,english_538.wav,0,pill,1184,31,5,4,English,f,5,0.5,21.93376584,1.27574792
65a97c769f2db2c7f246e5b5,9,0,2024-02-28T14:39:09.422Z,english_538.wav,0,pill,1184,31,5,4,English,f,6,0.6,-68.32489038,0.1993111
65a97c769f2db2c7f246e5b5,9,0,2024-02-28T14:39:09.422Z,english_538.wav,0,pill,1184,31,5,4,English,f,7,0.7,-66.29674784,0.49400206
65a97c769f2db2c7f246e5b5,9,0,2024-02-28T14:39:09.422Z,english_538.wav,0,pill,1184,31,5,4,English,f,8,0.8,-74.72581258,0.32135859
65a97c769f2db2c7f246e5b5,9,0,2024-02-28T14:39:09.422Z,english_538.wav,0,pill,1184,31,5,4,English,f,9,0.9,14.86779264,1.63136948
65a97c769f2db2c7f246e5b5,9,0,2024-02-28T14:39:09.422Z,english_538.wav,0,pill,1184,31,5,4,English,f,10,1.0,61.56126855,1.32900666
65a97c769f2db2c7f246e5b5,9,0,2024-02-28T14:39:09.422Z,english_538.wav,0,pill,1184,31,5,4,English,f,11,1.09391667,-58.45933513,1.2934419
65a97c769f2db2c7f246e5b5,10,0,2024-02-28T14:39:09.422Z,english_702.wav,0,peel,1381,31,5,4,English,f,0,0.0,-2.41900738,1.81607637
65a97c769f2db2c7f246e5b5,10,0,2024-02-28T14:39:09.422Z,english_702.wav,0,peel,1381,31,5,4,English,f,1,0.1,-65.10936104,1.79791742
65a97c769f2db2c7f246e5b5,10,0,2024-02-28T14:39:09.422Z,english_702.wav,0,peel,1381,31,5,4,English,f,2,0.2,-27.82316235,1.28936134
65a97c769f2db2c7f246e5b5,10,0,2024-02-28T14:39:09.422Z,english_702.wav,0,peel,1381,31,5,4,English,f,3,0.3,41.61212407,1.13263155
65a97c769f2db2c7f246e5b5,10,0,2024-02-28T14:39:09.422Z,english_702.wav,0,peel,1381,31,5,4,English,f,4,0.4,-37.59716444,0.61084433
65a97c769f2db2c7f246e5b5,10,0,2024-02-28T14:39:09.422Z,english_702.wav,0,peel,1381,31,5,4,English,f,5,0.5,84.73262552,1.50612828
65a97c769f2db2c7f246e5b5,10,0,2024-02-28T14:39:09.422Z,english_702.wav,0,peel,1381,31,5,4,English,f,6,0.6,34.73400205,1.99649644
65a97c769f2db2c7f246e5b5,10,0,2024-02-28T14:39:09.422Z,english_702.wav,0,peel,1381,31,5,4,English,f,7,0.7,-30.1082561,0.56234564
65a97c769f2db2c7f246e5b5,10,0,2024-02-28T14:39:09.422Z,english_702.wav,0,peel,1381,31,5,4,English,f,8,0.8,-63.0729989,0.4625337
65a97c769f2db2c7f246e5b5,10,0,2024-02-28T14:39:09.422Z,english_702.wav,0,peel,1381,31,5,4,English,f,9,0.9,-90.77732933,0.98197063
65a97c769f2db2c7f246e5b5,10,0,2024-02-28T14:39:09.422Z,english_702.wav,0,peel,1381,31,5,4,English,f,10,1.0,-4.9487879,0.31924939
65a97c769f2db2c7f246e5b5,10,0,2024-02-28T14:39:09.422Z,english_702.wav,0,peel,1381,31,5,4,English,f,11,1.09391667,-47.54503703,0.55890029
65a97c769f2db2c7f246e5b5,11,0,2024-02-28T14:39:09.422Z,english_90.wav,0,peel,404,31,5,4,English,f,0,0.0,63.54924995,1.34228215
65a97c769f2db2c7f246e5b5,11,0,2024-02-28T14:39:09.422Z,english_90.wav,0,peel,404,31,5,4,English,f,1,0.1,-59.21327506,1.34732724
65a97c769f2db2c7f246e5b5,11,0,2024-02-28T14:39:09.422Z,english_90.wav,0,peel,404,31,5,4,English,f,2,0.2,34.58495613,1.75147993
65a97c769f2db2c7f246e5b5,11,0,2024-02-28T14:39:09.422Z,english_90.wav,0,peel,404,31,5,4,English,f,3,0.3,3.2427236,0.03089284
65a97c769f2db2c7f246e5b5,11,0,2024-02-28T14:39:09.422Z,english_90.wav,0,peel,404,31,5,4,English,f,4,0.4,1.17936493,1.52341973
65a97c769f2db2c7f246e5b5,11,0,2024-02-28T14:39:09.422Z,english_90.wav,0,peel,404,31,5,4,English,f,5,0.5,50.51297544,0.97925583
65a97c769f2db2c7f246e5b5,11,0,2024-02-28T14:39:09.422Z,english_90.wav,0,peel,404,31,5,4,English,f,6,0.6,61.04656064,1.17642538
65a97c769f2db2c7f246e5b5,11,0,2024-02-28T14:39:09.422Z,english_90.wav,0,peel,404,31,5,4,English,f,7,0.7,-96.36424089,1.13367306
65a97c769f2db2c7f246e5b5,11,0,2024-02-28T14:39:09.422Z,english_90.wav,0,peel,404,31,5,4,English,f,8,0.8,9.94738881,1.45431282
65a97c769f2db2c7f246e5b5,11,0,2024-02-28T14:39:09.422Z,english_90.wav,0,peel,404,31,5,4,English,f,9,0.9,-95.56108651,0.56738547
65a97c769f2db2c7f246e5b5,11,0,2024-02-28T14:39:09.422Z,english_90.wav,0,peel,404,31,5,4,English,f,10,1.0,-78.91453265,1.10123663
65a97c769f2db2c7f246e5b5,11,0,2024-02-28T14:39:09.422Z,english_90.wav,0,peel,404,31,5,4,English,f,11,1.09391667,57.06664979,0.76686745
65a97c769f2db2c7f246e5b5,12,0,2024-02-28T14:39:09.422Z,english_159.wav,0,peel,483,31,5,4,English,f,0,0.0,-27.71132793,0.45552689
65a97c769f2db2c7f246e5b5,12,0,2024-02-28T14:39:09.422Z,english_159.wav,0,peel,483,31,5,4,English,f,1,0.1,5.67043956,1.85865221
65a97c769f2db2c7f246e5b5,12,0,2024-02-28T14:39:09.422Z,english_159.wav,0,peel,483,31,5,4,English,f,2,0.2,-56.04116861,1.36292014
65a97c769f2db2c7f246e5b5,12,0,2024-02-28T14:39:09.422Z,english_159.wav,0,peel,483,31,5,4,English,f,3,0.3,-60.647669,0.8196748
65a97c769f2db2c7f246e5b5,12,0,2024-02-28T14:39:09.422Z,english_159.wav,0,peel,483,31,5,4,English,f,4,0.4,-31.28235293,1.14454104
65a97c769f2db2c7f246e5b5,12,0,2024-02-28T14:39:09.422Z,english_159.wav,0,peel,483,31,5,4,English,f,5,0.5,-41.95968639,0.2708192
65a97c769f2db2c7f246e5b5,12,0,2024-02-28T14:39:09.422Z,english_159.wav,0,peel,483,31,5,4,English,f,6,0.6,-46.83352467,0.67466027
65a97c769f2db2c7f246e5b5,12,0,2024-02-28T14:39:09.422Z,english_159.wav,0,peel,483,31,5,4,English,f,7,0.7,-6.87168688,0.75914602
65a97c769f2db2c7f246e5b5,12,0,2024-02-28T14:39:09.422Z,english_159.wav,0,peel,483,31,5,4,English,f,8,0.8,-38.22542966,0.8772758
65a97c769f2db2c7f246e5b5,12,0,2024-02-28T14:39:09.422Z,english_159.wav,0,peel,483,31,5,4,English,f,9,0.9,29.71030145,1.24753926
65a97c769f2db2c7f246e5b5,12,0,2024-02-28T14:39:09.422Z,english_159.wav,0,peel,483,31,5,4,English,f,10,1.0,-44.77576274,1.52106538
65a97c769f2db2c7f246e5b5,12,0,2024-02-28T14:39:09.422Z,english_159.wav,0,peel,483,31,5,4,English,f,11,1.09391667,46.77490147,1.15996843
65a97c769f2db2c7f246e5b5,13,0,2024-02-28T14:39:09.422Z,english_467.wav,0,peel,387,31,5,4,English,f,0,0.0,84.73520447,0.80775308
65a97c769f2db2c7f246e5b5,13,0,2024-02-28T14:39:09.422Z,english_467.wav,0,peel,387,31,5,4,English,f,1,0.1,88.96200227,0.60891261
65a97c769f2db2c7f246e5b5,13,0,2024-02-28T14:39:09.422Z,english_467.wav,0,peel,387,31,5,4,English,f,2,0.2,72.63675829,1.71596765
65a97c769f2db2c7f246e5b5,13,0,2024-02-28T14:39:09.422Z,english_467.wav,0,peel,387,31,5,4,English,f,3,0.3,-11.47164633,0.15084523
65a97c769f2db2c7f246e5b5,13,0,2024-02-28T14:39:09.422Z,english_467.wav,0,peel,387,31,5,4,English,f,4,0.4,-15.99279105,1.25287304
65a97c769f2db2c7f246e5b5,13,0,2024-02-28T14:39:09.422Z,english_467.wav,0,peel,387,31,5,4,English,f,5,0.5,-43.82437563,1.40086837
65a97c769f2db2c7f246e5b5,13,0,2024-02-28T14:39:09.422Z,english_467.wav,0,peel,387,31,5,4,English,f,6,0.6,43.03099958,0.418933
65a97c769f2db2c7f246e5b5,13,0,2024-02-28T14:39:09.422Z,english_467.wav,0,peel,387,31,5,4,English,f,7,0.7,-45.22330674,1.80339492
65a97c769f2db2c7f246e5b5,13,0,2024-02-28T14:39:09.422Z,english_467.wav,0,peel,387,31,5,4,English,f,8,0.8,76.52363546,0.77008525
65a97c769f2db2c7f246e5b5,13,0,2024-02-28T14:39:09.422Z,english_467.wav,0,peel,387,31,5,4,English,f,9,0.9,-64.57143565,1.13088524
65a97c769f2db2c7f246e5b5,13,0,2024-02-28T14:39:09.422Z,english_467.wav,0,peel,387,31,5,4,English,f,10,1.0,-23.20829111,0.17124527
65a97c769f2db2c7f246e5b5,13,0,2024-02-28T14:39:09.422Z,english_467.wav,0,peel,387,31,5,4,English,f,11,1.09391667,90.56201043,1.41524886
65a97c769f2db2c7f246e5b5,14,0,2024-02-28T14:39:09.422Z,english_966.wav,0,pill,311,31,5,4,English,f,0,0.0,-96.91789055,1.23686614
65a97c769f2db2c7f246e5b5,14,0,2024-02-28T14:39:09.422Z,english_966.wav,0,pill,311,31,5,4,English,f,1,0.1,-64.86850103,0.67188965
65a97c769f2db2c7f246e5b5,14,0,2024-02-28T14:39:09.422Z,english_966.wav,0,pill,311,31,5,4,English,f,2,0.2,-43.92628472,0.33271907
65a97c769f2db2c7f246e5b5,14,0,2024-02-28T14:39:09.422Z,english_966.wav,0,pill,311,31,5,4,English,f,3,0.3,-93.7136214,1.62713329
65a97c769f2db2c7f246e5b5,14,0,2024-02-28T14:39:09.422Z,english_966.wav,0,pill,311,31,5,4,English,f,4,0.4,-57.14902712,1.49154652
65a97c769f2db2c7f246e5b5,14,0,2024-02-28T14:39:09.422Z,english_966.wav,0,pill,311,31,5,4,English,f,5,0.5,-12.68506719,1.31520623
65a97c769f2db2c7f246e5b5,14,0,2024-02-28T14:39:09.422Z,english_966.wav,0,pill,311,31,5,4,English,f,6,0.6,-15.43922669,0.20724492
65a97c769f2db2c7f246e5b5,14,0,2024-02-28T14:39:09.422Z,english_966.wav,0,pill,311,31,5,4,English,f,7,0.7,24.10386484,0.13137995
65a97c769f2db2c7f246e5b5,14,0,2024-02-28T14:39:09.422Z,english_966.wav,0,pill,311,31,5,4,English,f,8,0.8,3.35646026,1.15134967
65a97c769f2db2c7f246e5b5,14,0,2024-02-28T14:39:09.422Z,english_966.wav,0,pill,311,31,5,4,English,f,9,0.9,88.24028536,0.75921019
65a97c769f2db2c7f246e5b5,14,0,2024-02-28T14:39:09.422Z,english_966.wav,0,pill,311,31,5,4,English,f,10,1.0,-32.39213993,0.67670762
65a97c769f2db2c7f246e5b5,14,0,2024-02-28T14:39:09.422Z,english_966.wav,0,pill,311,31,5,4,English,f,11,1.09391667,-1.72411588,1.22586656
65a97c769f2db2c7f246e5b5,15,0,2024-02-28T14:39:09.422Z,english_48.wav,0,peel,472,31,5,4,English,f,0,0.0,60.63460718,0.33804588
65a97c769f2db2c7f246e5b5,15,0,2024-02-28T14:39:09.422Z,english_48.wav,0,peel,472,31,5,4,English,f,1,0.1,-63.25879977,1.53774441
65a97c769f2db2c7f246e5b5,15,0,2024-02-28T14:39:09.422Z,english_48.wav,0,peel,472,31,5,4,English,f,2,0.2,72.16287223,0.96691945
65a97c769f2db2c7f246e5b5,15,0,2024-02-28T14:39:09.422Z,english_48.wav,0,peel,472,31,5,4,English,f,3,0.3,56.56802271,1.67994136
65a97c769f2db2c7f246e5b5,15,0,2024-02-28T14:39:09.422Z,english_48.wav,0,peel,472,31,5,4,English,f,4,0.4,90.70764649,1.00040305
65a97c769f2db2c7f246e5b5,15,0,2024-02-28T14:39:09.422Z,english_48.wav,0,peel,472,31,5,4,English,f,5,0.5,-36.31712893,1.89041629
65a97c769f2db2c7f246e5b5,15,0,2024-02-28T14:39:09.422Z,english_48.wav,0,peel,472,31,5,4,English,f,6,0.6,25.72223985,0.11424734
65a97c769f2db2c7f246e5b5,15,0,2024-02-28T14:39:09.422Z,english_48.wav,0,peel,472,31,5,4,English,f,7,0.7,-14.91989637,0.3528252
65a97c769f2db2c7f246e5b5,15,0,2024-02-28T14:39:09.422Z,english_48.wav,0,peel,472,31,5,4,English,f,8,0.8,-17.95558792,0.85742963
65a97c769f2db2c7f246e5b5,15,0,2024-02-28T14:39:09.422Z,english_48.wav,0,peel,472,31,5,4,English,f,9,0.9,-5.44719263,0.59657969
65a97c769f2db2c7f246e5b5,15,0,2024-02-28T14:39:09.422Z,english_48.wav,0,peel,472,31,5,4,English,f,10,1.0,-94.92564537,0.30631529
65a97c769f2db2c7f246e5b5,15,0,2024-02-28T14:39:09.422Z,english_48.wav,0,peel,472,31,5,4,English,f,11,1.09391667,-13.08808473,1.45053444
65a97c769f2db2c7f246e5b5,16,0,2024-02-28T14:39:09.422Z,english_121.wav,0,peel,311,31,5,4,English,f,0,0.0,-45.47404613,1.1666534
65a97c769f2db2c7f246e5b5,16,0,2024-02-28T14:39:09.422Z,english_121.wav,0,peel,311,31,5,4,English,f,1,0.1,-36.49769978,1.03435239
65a97c769f2db2c7f246e5b5,16,0,2024-02-28T14:39:09.422Z,english_121.wav,0,peel,311,31,5,4,English,f,2,0.2,-66.69646717,1.07224248
65a97c769f2db2c7f246e5b5,16,0,2024-02-28T14:39:09.422Z,english_121.wav,0,peel,311,31,5,4,English,f,3,0.3,56.76733216,1.62337858
65a97c769f2db2c7f246e5b5,16,0,2024-02-28T14:39:09.422Z,english_121.wav,0,peel,311,31,5,4,English,f,4,0.4,-69.2204817,1.13623118
65a97c769f2db2c7f246e5b5,16,0,2024-02-28T14:39:09.422Z,english_121.wav,0,peel,311,31,5,4,English,f,5,0.5,67.71926704,0.1634934
65a97c769f2db2c7f246e5b5,16,0,2024-02-28T14:39:09.422Z,english_121.wav,0,peel,311,31,5,4,English,f,6,0.6,-20.18031628,1.38272259
65a97c769f2db2c7f246e5b5,16,0,2024-02-28T14:39:09.422Z,english_121.wav,0,peel,311,31,5,4,English,f,7,0.7,-46.80295657,1.3454344
65a97c769f2db2c7f246e5b5,16,0,2024-02-28T14:39:09.422Z,english_121.wav,0,peel,311,31,5,4,English,f,8,0.8,-30.65691434,1.73628045
65a97c769f2db2c7f246e5b5,16,0,2024-02-28T14:39:09.422Z,english_121.wav,0,peel,311,31,5,4,English,f,9,0.9,-30.96173959,0.71303122
65a97c769f2db2c7f246e5b5,16,0,2024-02-28T14:39:09.422Z,english_121.wav,0,peel,311,31,5,4,English,f,10,1.0,69.71514833,1.56011323
65a97c769f2db2c7f246e5b5,16,0,2024-02-28T14:39:09.422Z,english_121.wav,0,peel,311,31,5,4,English,f,11,1.09391667,14.56946925,0.62204911
65a97c769f2db2c7f246e5b5,17,0,2024-02-28T14:39:09.422Z,english_100.wav,0,pill,274,31,5,4,English,f,0,0.0,-24.42637315,0.62540921
65a97c769f2db2c7f246e5b5,17,0,2024-02-28T14:39:09.422Z,english_100.wav,0,pill,274,31,5,4,English,f,1,0.1,47.77288594,1.22625666
65a97c769f2db2c7f246e5b5,17,0,2024-02-28T14:39:09.422Z,english_100.wav,0,pill,274,31,5,4,English,f,2,0.2,-50.36782497,1.26348183
65a97c769f2db2c7f246e5b5,17,0,2024-02-28T14:39:09.422Z,english_100.wav,0,pill,274,31,5,4,English,f,3,0.3,2.2842979,0.25528387
65a97c769f2db2c7f246e5b5,17,0,2024-02-28T14:39:09.422Z,english_100.wav,0,pill,274,31,5,4,English,f,4,0.4,-15.6809061,0.91288523
65a97c769f2db2c7f246e5b5,17,0,2024-02-28T14:39:09.422Z,english_100.wav,0,pill,274,31,5,4,English,f,5,0.5,12.92206519,1.75475855
65a97c769f2db2c7f246e5b5,17,0,2024-02-28T14:39:09.422Z,english_100.wav,0,pill,274,31,5,4,English,f,6,0.6,58.2816769,1.62969237
65a97c769f2db2c7f246e5b5,17,0,2024-02-28T14:39:09.422Z,english_100.wav,0,pill,274,31,5,4,English,f,7,0.7,48.23099815,0.00541247
65a97c769f2db2c7f246e5b5,17,0,2024-02-28T14:39:09.422Z,english_100.wav,0,pill,274,31,5,4,English,f,8,0.8,-72.65138159,0.94746335
65a97c769f2db2c7f246e5b5,17,0,2024-02-28T14:39:09.422Z,english_100.wav,0,pill,274,31,5,4,English,f,9,0.9,22.56578389,0.25544392
65a97c769f2db2c7f246e5b5,17,0,2024-02-28T14:39:09.422Z,english_100.wav,0,pill,274,31,5,4,English,f,10,1.0,5.8175855,1.63729526
65a97c769f2db2c7f246e5b5,17,0,2024-02-28T14:39:09.422Z,english_100.wav,0,pill,274,31,5,4,English,f,11,1.09391667,54.85953581,1.97415754
65a97c769f2db2c7f246e5b5,18,0,2024-02-28T14:39:09.422Z,english_912.wav,0,peel,449,31,5,4,English,f,0,0.0,83.45320293,1.30725461
65a97c769f2db2c7f246e5b5,18,0,2024-02-28T14:39:09.422Z,english_912.wav,0,peel,449,31,5,4,English,f,1,0.1,47.1123547,0.36515134
65a97c769f2db2c7f246e5b5,18,0,2024-02-28T14:39:09.422Z,english_912.wav,0,peel,449,31,5,4,English,f,2,0.2,-44.09395349,0.27834174
65a97c769f2db2c7f246e5b5,18,0,2024-02-28T14:39:09.422Z,english_912.wav,0,peel,449,31,5,4,English,f,3,0.3,80.4089211,1.38784543
65a97c769f2db2c7f246e5b5,18,0,2024-02-28T14:39:09.422Z,english_912.wav,0,peel,449,31,5,4,English,f,4,0.4,-65.95886508,0.18344109
65a97c769f2db2c7f246e5b5,18,0,2024-02-28T14:39:09.422Z,english_912.wav,0,peel,449,31,5,4,English,f,5,0.5,-25.59965852,0.42703515
65a97c769f2db2c7f246e5b5,18,0,2024-02-28T14:39:09.422Z,english_912.wav,0,peel,449,31,5,4,English,f,6,0.6,58.94865135,1.85819174
65a97c769f2db2c7f246e5b5,18,0,2024-02-28T14:39:09.422Z,english_912.wav,0,peel,449,31,5,4,English,f,7,0.7,-95.38965028,1.3517083
65a97c769f2db2c7f246e5b5,18,0,2024-02-28T14:39:09.422Z,english_912.wav,0,peel,449,31,5,4,English,f,8,0.8,10.68091992,1.52712698
65a97c769f2db2c7f246e5b5,18,0,2024-02-28T14:39:09.422Z,english_912.wav,0,peel,449,31,5,4,English,f,9,0.9,-57.68744928,1.44811226
65a97c769f2db2c7f246e5b5,18,0,2024-02-28T14:39:09.422Z,english_912.wav,0,peel,449,31,5,4,English,f,10,1.0,5.39108627,1.0038839
65a97c769f2db2c7f246e5b5,18,0,2024-02-28T14:39:09.422Z,english_912.wav,0,peel,449,31,5,4,English,f,11,1.09391667,37.38622487,0.79645394
65a97c769f2db2c7f246e5b5,19,0,2024-02-28T14:39:09.422Z,english_503.wav,0,pill,494,31,5,4,English,f,0,0.0,82.81450313,0.83149822
65a97c769f2db2c7f246e5b5,19,0,2024-02-28T14:39:09.422Z,english_503.wav,0,pill,494,31,5,4,English,f,1,0.1,87.05662754,1.91463783
65a97c769f2db2c7f246e5b5,19,0,2024-02-28T14:39:09.422Z,english_503.wav,0,pill,494,31,5,4,English,f,2,0.2,42.99051807,0.15190796
65a97c769f2db2c7f246e5b5,19,0,2024-02-28T14:39:09.422Z,english_503.wav,0,pill,494,31,5,4,English,f,3,0.3,23.32883613,1.60754129
65a97c769f2db2c7f246e5b5,19,0,2024-02-28T14:39:09.422Z,english_503.wav,0,pill,494,31,5,4,English,f,4,0.4,48.50951883,0.81229928
65a97c769f2db2c7f246e5b5,19,0,2024-02-28T14:39:09.422Z,english_503.wav,0,pill,494,31,5,4,English,f,5,0.5,-47.47339199,1.3748652
65a97c769f2db2c7f246e5b5,19,0,2024-02-28T14:39:09.422Z,english_503.wav,0,pill,494,31,5,4,English,f,6,0.6,-9.99119765,1.71927888
65a97c769f2db2c7f246e5b5,19,0,2024-02-28T14:39:09.422Z,english_503.wav,0,pill,494,31,5,4,English,f,7,0.7,68.86997334,0.8455295
65a97c769f2db2c7f246e5b5,19,0,2024-02-28T14:39:09.422Z,english_503.wav,0,pill,494,31,5,4,English,f,8,0.8,-44.22385081,0.49975448
65a97c769f2db2c7f246e5b5,19,0,2024-02-28T14:39:09.422Z,english_503.wav,0,pill,494,31,5,4,English,f,9,0.9,14.75546466,0.2402037
65a97c769f2db2c7f246e5b5,19,0,2024-02-28T14:39:09.422Z,english_503.wav,0,pill,494,31,5,4,English,f,10,1.0,-47.31135976,1.02101903
65a97c769f2db2c7f246e5b5,19,0,2024-02-28T14:39:09.422Z,english_503.wav,0,pill,494,31,5,4,English,f,11,1.09391667,-18.86254353,1.59376689
65a97c769f2db2c7f246e5b5,20,0,2024-02-28T14:39:09.422Z,english_777.wav,0,peel,345,31,5,4,English,f,0,0.0,77.7553974,0.31196703
65a97c769f2db2c7f246e5b5,20,0,2024-02-28T14:39:09.422Z,english_777.wav,0,peel,345,31,5,4,English,f,1,0.1,88.6430253,0.69611643
65a97c769f2db2c7f246e5b5,20,0,2024-02-28T14:39:09.422Z,english_777.wav,0,peel,345,31,5,4,English,f,2,0.2,5.54652951,0.87210572
65a97c769f2db2c7f246e5b5,20,0,2024-02-28T14:39:09.422Z,english_777.wav,0,peel,345,31,5,4,English,f,3,0.3,11.99584501,1.73935874
65a97c769f2db2c7f246e5b5,20,0,2024-02-28T14:39:09.422Z,english_777.wav,0,peel,345,31,5,4,English,f,4,0.4,-44.68936207,0.75260602
65a97c769f2db2c7f246e5b5,20,0,2024-02-28T14:39:09.422Z,english_777.wav,0,peel,345,31,5,4,English,f,5,0.5,-18.49311275,0.63970678
65a97c769f2db2c7f246e5b5,20,0,2024-02-28T14:39:09.422Z,english_777.wav,0,peel,345,31,5,4,English,f,6,0.6,-54.40171159,1.12530391
65a97c769f2db2c7f246e5b5,20,0,2024-02-28T14:39:09.422Z,english_777.wav,0,peel,345,31,5,4,English,f,7,0.7,-57.33128005,1.17239371
65a97c769f2db2c7f246e5b5,20,0,2024-02-28T14:39:09.422Z,english_777.wav,0,peel,345,31,5,4,English,f,8,0.8,14.03341313,0.53671495
65a97c769f2db2c7f246e5b5,20,0,2024-02-28T14:39:09.422Z,english_777.wav,0,peel,345,31,5,4,English,f,9,0.9,18.82152763,1.4475438
65a97c769f2db2c7f246e5b5,20,0,2024-02-28T14:39:09.422Z,english_777.wav,0,peel,345,31,5,4,English,f,10,1.0,22.39033388,1.78069419
65a97c769f2db2c7f246e5b5,20,0,2024-02-28T14:39:09.422Z,english_777.wav,0,peel,345,31,5,4,English,f,11,1.09391667,52.67090174,0.83009886
65a97c769f2db2c7f246e5b5,21,0,2024-02-28T14:39:09.422Z,english_756.wav,0,peel,250,31,5,4,English,f,0,0.0,-32.70542045,0.92316539
65a97c769f2db2c7f246e5b5,21,0,2024-02-28T14:39:09.422Z,english_756.wav,0,peel,250,31,5,4,English,f,1,0.1,62.91454888,0.37547917
65a97c769f2db2c7f246e5b5,21,0,2024-02-28T14:39:09.422Z,english_756.wav,0,peel,250,31,5,4,English,f,2,0.2,-9.17678833,1.92598223
65a97c769f2db2c7f246e5b5,21,0,2024-02-28T14:39:09.422Z,english_756.wav,0,peel,250,31,5,4,English,f,3,0.3,16.28624283,0.89010875
65a97c769f2db2c7f246e5b5,21,0,2024-02-28T14:39:09.422Z,english_756.wav,0,peel,250,31,5,4,English,f,4,0.4,-33.51792534,0.38662098
65a97c769f2db2c7f246e5b5,21,0,2024-02-28T14:39:09.422Z,english_756.wav,0,peel,250,31,5,4,English,f,5,0.5,88.01648813,1.17672662
65a97c769f2db2c7f246e5b5,21,0,2024-02-28T14:39:09.422Z,english_756.wav,0,peel,250,31,5,4,English,f,6,0.6,62.37064714,0.21957896
65a97c769f2db2c7f246e5b5,21,0,2024-02-28T14:39:09.422Z,english_756.wav,0,peel,250,31,5,4,English,f,7,0.7,-52.3683359,1.78953747
65a97c769f2db2c7f246e5b5,21,0,2024-02-28T14:39:09.422Z,english_756.wav,0,peel,250,31,5,4,English,f,8,0.8,56.37360277,1.89812903
65a97c769f2db2c7f246e5b5,21,0,2024-02-28T14:39:09.422Z,english_756.wav,0,peel,250,31,5,4,English,f,9,0.9,-54.86484941,1.43873799
65a97c769f2db2c7f246e5b5,21,0,2024-02-28T14:39:09.422Z,english_756.wav,0,peel,250,31,5,4,English,f,10,1.0,91.23924333,1.51351367
65a97c769f2db2c7f246e5b5,21,0,2024-02-28T14:39:09.422Z,english_756.wav,0,peel,250,31,5,4,English,f,11,1.09391667,-26.61223969,1.73327561
65a97c769f2db2c7f246e5b5,22,0,2024-02-28T14:39:09.422Z,english_401.wav,0,peel,530,31,5,4,English,f,0,0.0,-36.1059854,1.51802818
65a97c769f2db2c7f246e5b5,22,0,2024-02-28T14:39:09.422Z,english_401.wav,0,peel,530,31,5,4,English,f,1,0.1,38.605133,1.15871841
65a97c769f2db2c7f246e5b5,22,0,2024-02-28T14:39:09.422Z,english_401.wav,0,peel,530,31,5,4,English,f,2,0.2,6.46138816,1.08082563
65a97c769f2db2c7f246e5b5,22,0,2024-02-28T14:39:09.422Z,english_401.wav,0,peel,530,31,5,4,English,f,3,0.3,-76.8629005,0.42984112
65a97c769f2db2c7f246e5b5,22,0,2024-02-28T14:39:09.422Z,english_401.wav,0,peel,530,31,5,4,English,f,4,0.4,53.9378868,1.24745689
65a97c769f2db2c7f246e5b5,22,0,2024-02-28T14:39:09.422Z,english_401.wav,0,peel,530,31,5,4,English,f,5,0.5,28.3848957,0.52889601
65a97c769f2db2c7f246e5b5,22,0,2024-02-28T14:39:09.422Z,english_401.wav,0,peel,530,31,5,4,English,f,6,0.6,49.535102,1.52039951
65a97c769f2db2c7f246e5b5,22,0,2024-02-28T14:39:09.422Z,english_401.wav,0,peel,530,31,5,4,English,f,7,0.7,-64.7881021,1.59778592
65a97c769f2db2c7f246e5b5,22,0,2024-02-28T14:39:09.422Z,english_401.wav,0,peel,530,31,5,4,English,f,8,0.8,-98.9667189,0.63237027
65a97c769f2db2c7f246e5b5,22,0,2024-02-28T14:39:09.422Z,english_401.wav,0,peel,530,31,5,4,English,f,9,0.9,-0.0263257976,0.3603848
65a97c769f2db2c7f246e5b5,22,0,2024-02-28T14:39:09.422Z,english_401.wav,0,peel,530,31,5,4,English,f,10,1.0,-0.147031707,0.91165557
65a97c769f2db2c7f246e5b5,22,0,2024-02-28T14:39:09.422Z,english_401.wav,0,peel,530,31,5,4,English,f,11,1.09391667,-83.6458716,1.59350312
65a97c769f2db2c7f246e5b5,23,0,2024-02-28T14:39:09.422Z,english_302.wav,0,peel,339,31,5,4,English,f,0,0.0,22.32512828,1.43751276
65a97c769f2db2c7f246e5b5,23,0,2024-02-28T14:39:09.422Z,english_302.wav,0,peel,339,31,5,4,English,f,1,0.1,-34.68493306,1.04855025
65a97c769f2db2c7f246e5b5,23,0,2024-02-28T14:39:09.422Z,english_302.wav,0,peel,339,31,5,4,English,f,2,0.2,-60.33048789,0.11748708
65a97c769f2db2c7f246e5b5,23,0,2024-02-28T14:39:09.422Z,english_302.wav,0,peel,339,31,5,4,English,f,3,0.3,-66.33131812,1.014131
65a97c769f2db2c7f246e5b5,23,0,2024-02-28T14:39:09.422Z,english_302.wav,0,peel,339,31,5,4,English,f,4,0.4,61.16500984,1.52698955
65a97c769f2db2c7f246e5b5,23,0,2024-02-28T14:39:09.422Z,english_302.wav,0,peel,339,31,5,4,English,f,5,0.5,49.23692814,1.28665313
65a97c769f2db2c7f246e5b5,23,0,2024-02-28T14:39:09.422Z,english_302.wav,0,peel,339,31,5,4,English,f,6,0.6,18.80850389,1.64816454
65a97c769f2db2c7f246e5b5,23,0,2024-02-28T14:39:09.422Z,english_302.wav,0,peel,339,31,5,4,English,f,7,0.7,91.26807024,0.26189179
65a97c769f2db2c7f246e5b5,23,0,2024-02-28T14:39:09.422Z,english_302.wav,0,peel,339,31,5,4,English,f,8,0.8,51.0661189,1.3962077
65a97c769f2db2c7f246e5b5,23,0,2024-02-28T14:39:09.422Z,english_302.wav,0,peel,339,31,5,4,English,f,9,0.9,-89.83945555,0.53648677
65a97c769f2db2c7f246e5b5,23,0,2024-02-28T14:39:09.422Z,english_302.wav,0,peel,339,31,5,4,English,f,10,1.0,-75.19546708,1.41713481
65a97c769f2db2c7f246e5b5,23,0,2024-02-28T14:39:09.422Z,english_302.wav,0,peel,339,31,5,4,English,f,11,1.09391667,-66.5337051,0.68271313
65a97c769f2db2c7f246e5b5,24,0,2024-02-28T14:39:09.422Z,english_606.wav,0,peel,330,31,5,4,English,f,0,0.0,72.77252021,1.14271188
65a97c769f2db2c7f246e5b5,24,0,2024-02-28T14:39:09.422Z,english_606.wav,0,peel,330,31,5,4,English,f,1,0.1,22.60713343,1.41897374
65a97c769f2db2c7f246e5b5,24,0,2024-02-28T14:39:09.422Z,english_606.wav,0,peel,330,31,5,4,English,f,2,0.2,30.91882808,1.73372854
65a97c769f2db2c7f246e5b5,24,0,2024-02-28T14:39:09.422Z,english_606.wav,0,peel,330,31,5,4,English,f,3,0.3,-48.84223864,1.07065865
65a97c769f2db2c7f246e5b5,24,0,2024-02-28T14:39:09.422Z,english_606.wav,0,peel,330,31,5,4,English,f,4,0.4,-29.82386042,0.5542197
65a97c769f2db2c7f246e5b5,24,0,2024-02-28T14:39:09.422Z,english_606.wav,0,peel,330,31,5,4,English,f,5,0.5,82.48397831,0.65978179
65a97c769f2db2c7f246e5b5,24,0,2024-02-28T14:39:09.422Z,english_606.wav,0,peel,330,31,5,4,English,f,6,0.6,-18.49396427,0.64487358
65a97c769f2db2c7f246e5b5,24,0,2024-02-28T14:39:09.422Z,english_606.wav,0,peel,330,31,5,4,English,f,7,0.7,26.88567381,1.50533402
65a97c769f2db2c7f246e5b5,24,0,2024-02-28T14:39:09.422Z,english_606.wav,0,peel,330,31,5,4,English,f,8,0.8,-18.34346668,1.51615031
65a97c769f2db2c7f246e5b5,24,0,2024-02-28T14:39:09.422Z,english_606.wav,0,peel,330,31,5,4,English,f,9,0.9,10.06544583,0.11673085
65a97c769f2db2c7f246e5b5,24,0,2024-02-28T14:39:09.422Z,english_606.wav,0,peel,330,31,5,4,English,f,10,1.0,-89.88083722,0.60775024
65a97c769f2db2c7f246e5b5,24,0,2024-02-28T14:39:09.422Z,english_606.wav,0,peel,330,31,5,4,English,f,11,1.09391667,66.64968825,0.13627416
65a97c769f2db2c7f246e5b5,25,0,2024-02-28T14:39:09.422Z,english_889.wav,0,peel,517,31,5,4,English,f,0,0.0,79.20623471,0.68216584
65a97c769f2db2c7f246e5b5,25,0,2024-02-28T14:39:09.422Z,english_889.wav,0,peel,517,31,5,4,English,f,1,0.1,15.95650002,0.42686819
65a97c769f2db2c7f246e5b5,25,0,2024-02-28T14:39:09.422Z,english_889.wav,0,peel,517,31,5,4,English,f,2,0.2,-76.24687764,0.02909108
65a97c769f2db2c7f246e5b5,25,0,2024-02-28T14:39:09.422Z,english_889.wav,0,peel,517,31,5,4,English,f,3,0.3,-99.60118401,1.3182061
65a97c769f2db2c7f246e5b5,25,0,2024-02-28T14:39:09.422Z,english_889.wav,0,peel,517,31,5,4,English,f,4,0.4,78.05893195,0.10574875
65a97c769f2db2c7f246e5b5,25,0,2024-02-28T14:39:09.422Z,english_889.wav,0,peel,517,31,5,4,English,f,5,0.5,-14.00699602,0.2853218
65a97c769f2db2c7f246e5b5,25,0,2024-02-28T14:39:09.422Z,english_889.wav,0,peel,517,31,5,4,English,f,6,0.6,-89.17552829,1.14496721
65a97c769f2db2c7f246e5b5,25,0,2024-02-28T14:39:09.422Z,english_889.wav,0,peel,517,31,5,4,English,f,7,0.7,-14.96184535,1.04613331
65a97c769f2db2c7f246e5b5,25,0,2024-02-28T14:39:09.422Z,english_889.wav,0,peel,517,31,5,4,English,f,8,0.8,59.85859642,1.03396969
65a97c769f2db2c7f246e5b5,25,0,2024-02-28T14:39:09.422Z,english_889.wav,0,peel,517,31,5,4,English,f,9,0.9,11.94153074,0.35198627
65a97c769f2db2c7f246e5b5,25,0,2024-02-28T14:39:09.422Z,english_889.wav,0,peel,517,31,5,4,English,f,10,1.0,-11.03565413,0.4382774
65a97c769f2db2c7f246e5b5,25,0,2024-02-28T14:39:09.422Z,english_889.wav,0,peel,517,31,5,4,English,f,11,1.09391667,35.54802425,1.08765543
65a97c769f2db2c7f246e5b5,26,0,2024-02-28T14:39:09.422Z,english_614.wav,0,peel,323,31,5,4,English,f,0,0.0,-82.48035623,0.71590115
65a97c769f2db2c7f246e5b5,26,0,2024-02-28T14:39:09.422Z,english_614.wav,0,peel,323,31,5,4,English,f,1,0.1,79.46307131,0.88553055
65a97c769f2db2c7f246e5b5,26,0,2024-02-28T14:39:09.422Z,english_614.wav,0,peel,323,31,5,4,English,f,2,0.2,-34.63501936,0.6127243
65a97c769f2db2c7f246e5b5,26,0,2024-02-28T14:39:09.422Z,english_614.wav,0,peel,323,31,5,4,English,f,3,0.3,-36.11573217,1.30048752
65a97c769f2db2c7f246e5b5,26,0,2024-02-28T14:39:09.422Z,english_614.wav,0,peel,323,31,5,4,English,f,4,0.4,28.60715933,0.96267967
65a97c769f2db2c7f246e5b5,26,0,2024-02-28T14:39:09.422Z,english_614.wav,0,peel,323,31,5,4,English,f,5,0.5,-48.6136036,0.63406811
65a97c769f2db2c7f246e5b5,26,0,2024-02-28T14:39:09.422Z,english_614.wav,0,peel,323,31,5,4,English,f,6,0.6,-7.2226969,1.30483529
65a97c769f2db2c7f246e5b5,26,0,2024-02-28T14:39:09.422Z,english_614.wav,0,peel,323,31,5,4,English,f,7,0.7,-29.94263831,0.38784821
65a97c769f2db2c7f246e5b5,26,0,2024-02-28T14:39:09.422Z,english_614.wav,0,peel,323,31,5,4,English,f,8,0.8,-84.37614436,0.63559187
65a97c769f2db2c7f246e5b5,26,0,2024-02-28T14:39:09.422Z,english_614.wav,0,peel,323,31,5,4,English,f,9,0.9,6.08502503,0.26922563
65a97c769f2db2c7f246e5b5,26,0,2024-02-28T14:39:09.422Z,english_614.wav,0,peel,323,31,5,4,English,f,10,1.0,89.45930015,0.19525475
65a97c769f2db2c7f246e5b5,26,0,2024-02-28T14:39:09.422Z,english_614.wav,0,peel,323,31,5,4,English,f,11,1.09391667,-99.05808014,1.74947328
65a97c769f2db2c7f246e5b5,27,0,2024-02-28T14:39:09.422Z,english_408.wav,0,peel,241,31,5,4,English,f,0,0.0,-0.56649463,0.16918067
65a97c769f2db2c7f246e5b5,27,0,2024-02-28T14:39:09.422Z,english_408.wav,0,peel,241,31,5,4,English,f,1,0.1,13.00923979,0.56010747
65a97c769f2db2c7f246e5b5,27,0,2024-02-28T14:39:09.422Z,english_408.wav,0,peel,241,31,5,4,English,f,2,0.2,-71.83469139,0.19245092
65a97c769f2db2c7f246e5b5,27,0,2024-02-28T14:39:09.422Z,english_408.wav,0,peel,241,31,5,4,English,f,3,0.3,-46.43306622,1.1181282
65a97c769f2db2c7f246e5b5,27,0,2024-02-28T14:39:09.422Z,english_408.wav,0,peel,241,31,5,4,English,f,4,0.4,57.51005943,1.74879815
65a97c769f2db2c7f246e5b5,27,0,2024-02-28T14:39:09.422Z,english_408.wav,0,peel,241,31,5,4,English,f,5,0.5,-16.94006388,1.22782003
65a97c769f2db2c7f246e5b5,27,0,2024-02-28T14:39:09.422Z,english_408.wav,0,peel,241,31,5,4,English,f,6,0.6,81.03561566,0.47006698
65a97c769f2db2c7f246e5b5,27,0,2024-02-28T14:39:09.422Z,english_408.wav,0,peel,241,31,5,4,English,f,7,0.7,-97.26947589,0.46279929
65a97c769f2db2c7f246e5b5,27,0,2024-02-28T14:39:09.422Z,english_408.wav,0,peel,241,31,5,4,English,f,8,0.8,-59.24275724,1.0844665
65a97c769f2db2c7f246e5b5,27,0,2024-02-28T14:39:09.422Z,english_408.wav,0,peel,241,31,5,4,English,f,9,0.9,83.02020542,0.29234844
65a97c769f2db2c7f246e5b5,27,0,2024-02-28T14:39:09.422Z,english_408.wav,0,peel,241,31,5,4,English,f,10,1.0,-24.61759246,0.88583526
65a97c769f2db2c7f246e5b5,27,0,2024-02-28T14:39:09.422Z,english_408.wav,0,peel,241,31,5,4,English,f,11,1.09391667,26.07197114,1.9319493
65a97c769f2db2c7f246e5b5,28,0,2024-02-28T14:39:09.422Z,english_857.wav,0,peel,275,31,5,4,English,f,0,0.0,-56.93168928,1.92395656
65a97c769f2db2c7f246e5b5,28,0,2024-02-28T14:39:09.422Z,english_857.wav,0,peel,275,31,5,4,English,f,1,0.1,-40.57515649,1.41156549
65a97c769f2db2c7f246e5b5,28,0,2024-02-28T14:39:09.422Z,english_857.wav,0,peel,275,31,5,4,English,f,2,0.2,-26.26283105,0.14185194
65a97c769f2db2c7f246e5b5,28,0,2024-02-28T14:39:09.422Z,english_857.wav,0,peel,275,31,5,4,English,f,3,0.3,-49.62797955,1.1985334
65a97c769f2db2c7f246e5b5,28,0,2024-02-28T14:39:09.422Z,english_857.wav,0,peel,275,31,5,4,English,f,4,0.4,47.07146778,0.83326814
65a97c769f2db2c7f246e5b5,28,0,2024-02-28T14:39:09.422Z,english_857.wav,0,peel,275,31,5,4,English,f,5,0.5,-96.41882062,0.71224123
65a97c769f2db2c7f246e5b5,28,0,2024-02-28T14:39:09.422Z,english_857.wav,0,peel,275,31,5,4,English,f,6,0.6,63.09662026,1.58040322
65a97c769f2db2c7f246e5b5,28,0,2024-02-28T14:39:09.422Z,english_857.wav,0,peel,275,31,5,4,English,f,7,0.7,98.67053018,1.02327595
65a97c769f2db2c7f246e5b5,28,0,2024-02-28T14:39:09.422Z,english_857.wav,0,peel,275,31,5,4,English,f,8,0.8,-56.85749065,1.48703987
65a97c769f2db2c7f246e5b5,28,0,2024-02-28T14:39:09.422Z,english_857.wav,0,peel,275,31,5,4,English,f,9,0.9,-18.03690135,0.70290333
65a97c769f2db2c7f246e5b5,28,0,2024-02-28T14:39:09.422Z,english_857.wav,0,peel,275,31,5,4,English,f,10,1.0,52.13097753,0.53460392
65a97c769f2db2c7f246e5b5,28,0,2024-02-28T14:39:09.422Z,english_857.wav,0,peel,275,31,5,4,English,f,11,1.09391667,52.54650928,1.10851945
65a97c769f2db2c7f246e5b5,29,0,2024-02-28T14:39:09.422Z,english_778.wav,0,peel,361,31,5,4,English,f,0,0.0,82.0288253,1.66099758
65a97c769f2db2c7f246e5b5,29,0,2024-02-28T14:39:09.422Z,english_778.wav,0,peel,361,31,5,4,English,f,1,0.1,-20.3816384,0.6394452
65a97c769f2db2c7f246e5b5,29,0,2024-02-28T14:39:09.422Z,english_778.wav,0,peel,361,31,5,4,English,f,2,0.2,20.1187508,1.73198521
65a97c769f2db2c7f246e5b5,29,0,2024-02-28T14:39:09.422Z,english_778.wav,0,peel,361,31,5,4,English,f,3,0.3,-67.3840406,1.63414449
65a97c769f2db2c7f246e5b5,29,0,2024-02-28T14:39:09.422Z,english_778.wav,0,peel,361,31,5,4,English,f,4,0.4,41.792495,0.91528965
65a97c769f2db2c7f246e5b5,29,0,2024-02-28T14:39:09.422Z,english_778.wav,0,peel,361,31,5,4,English,f,5,0.5,69.2908492,1.84340145
65a97c769f2db2c7f246e5b5,29,0,2024-02-28T14:39:09.422Z,english_778.wav,0,peel,361,31,5,4,English,f,6,0.6,-41.9809295,0.70098427
65a97c769f2db2c7f246e5b5,29,0,2024-02-28T14:39:09.422Z,english_778.wav,0,peel,361,31,5,4,English,f,7,0.7,93.0761369,1.59677801
65a97c769f2db2c7f246e5b5,29,0,2024-02-28T14:39:09.422Z,english_778.wav,0,peel,361,31,5,4,English,f,8,0.8,4.08814008,0.75626513
65a97c769f2db2c7f246e5b5,29,0,2024-02-28T14:39:09.422Z,english_778.wav,0,peel,361,31,5,4,English,f,9,0.9,-0.0375531871,1.05104073
65a97c769f2db2c7f246e5b5,29,0,2024-02-28T14:39:09.422Z,english_778.wav,0,peel,361,31,5,4,English,f,10,1.0,-79.0647822,0.42401001
65a97c769f2db2c7f246e5b5,29,0,2024-02-28T14:39:09.422Z,english_778.wav,0,peel,361,31,5,4,English,f,11,1.09391667,-53.0664028,1.42241932
65a97c769f2db2c7f246e5b5,30,0,2024-02-28T14:39:09.422Z,english_285.wav,0,pill,736,31,5,4,English,f,0,0.0,48.62119612,1.78431697
65a97c769f2db2c7f246e5b5,30,0,2024-02-28T14:39:09.422Z,english_285.wav,0,pill,736,31,5,4,English,f,1,0.1,-77.49487419,0.21017115
65a97c769f2db2c7f246e5b5,30,0,2024-02-28T14:39:09.422Z,english_285.wav,0,pill,736,31,5,4,English,f,2,0.2,-92.74855632,0.90754364
65a97c769f2db2c7f246e5b5,30,0,2024-02-28T14:39:09.422Z,english_285.wav,0,pill,736,31,5,4,English,f,3,0.3,-5.04409868,0.79299305
65a97c769f2db2c7f246e5b5,30,0,2024-02-28T14:39:09.422Z,english_285.wav,0,pill,736,31,5,4,English,f,4,0.4,-37.04184738,0.73704045
65a97c769f2db2c7f246e5b5,30,0,2024-02-28T14:39:09.422Z,english_285.wav,0,pill,736,31,5,4,English,f,5,0.5,93.82836291,1.49438795
65a97c769f2db2c7f246e5b5,30,0,2024-02-28T14:39:09.422Z,english_285.wav,0,pill,736,31,5,4,English,f,6,0.6,46.80360504,1.8666859
65a97c769f2db2c7f246e5b5,30,0,2024-02-28T14:39:09.422Z,english_285.wav,0,pill,736,31,5,4,English,f,7,0.7,99.71187558,1.28156013
65a97c769f2db2c7f246e5b5,30,0,2024-02-28T14:39:09.422Z,english_285.wav,0,pill,736,31,5,4,English,f,8,0.8,70.29725425,0.27278766
65a97c769f2db2c7f246e5b5,30,0,2024-02-28T14:39:09.422Z,english_285.wav,0,pill,736,31,5,4,English,f,9,0.9,2.68384344,1.64624
65a97c769f2db2c7f246e5b5,30,0,2024-02-28T14:39:09.422Z,english_285.wav,0,pill,736,31,5,4,English,f,10,1.0,33.86757162,0.38779205
65a97c769f2db2c7f246e5b5,30,0,2024-02-28T14:39:09.422Z,english_285.wav,0,pill,736,31,5,4,English,f,11,1.09391667,28.22402765,0.9971565
65a97c769f2db2c7f246e5b5,31,0,2024-02-28T14:39:09.422Z,english_495.wav,0,pill,275,31,5,4,English,f,0,0.0,94.59077128,0.77928027
65a97c769f2db2c7f246e5b5,31,0,2024-02-28T14:39:09.422Z,english_495.wav,0,pill,275,31,5,4,English,f,1,0.1,-55.76476968,0.9821174
65a97c769f2db2c7f246e5b5,31,0,2024-02-28T14:39:09.422Z,english_495.wav,0,pill,275,31,5,4,English,f,2,0.2,85.25239669,1.84587448
65a97c769f2db2c7f246e5b5,31,0,2024-02-28T14:39:09.422Z,english_495.wav,0,pill,275,31,5,4,English,f,3,0.3,70.1736543,0.98653196
65a97c769f2db2c7f246e5b5,31,0,2024-02-28T14:39:09.422Z,english_495.wav,0,pill,275,31,5,4,English,f,4,0.4,19.94350226,1.73373308
65a97c769f2db2c7f246e5b5,31,0,2024-02-28T14:39:09.422Z,english_495.wav,0,pill,275,31,5,4,English,f,5,0.5,54.47178353,1.46449203
65a97c769f2db2c7f246e5b5,31,0,2024-02-28T14:39:09.422Z,english_495.wav,0,pill,275,31,5,4,English,f,6,0.6,-87.09076246,0.51679657
65a97c769f2db2c7f246e5b5,31,0,2024-02-28T14:39:09.422Z,english_495.wav,0,pill,275,31,5,4,English,f,7,0.7,-72.04241592,0.83282116
65a97c769f2db2c7f246e5b5,31,0,2024-02-28T14:39:09.422Z,english_495.wav,0,pill,275,31,5,4,English,f,8,0.8,25.07065193,0.91008341
65a97c769f2db2c7f246e5b5,31,0,2024-02-28T14:39:09.422Z,english_495.wav,0,pill,275,31,5,4,English,f,9,0.9,90.72301547,1.90880083
65a97c769f2db2c7f246e5b5,31,0,2024-02-28T14:39:09.422Z,english_495.wav,0,pill,275,31,5,4,English,f,10,1.0,24.05757485,1.11137725
65a97c769f2db2c7f246e5b5,31,0,2024-02-28T14:39:09.422Z,english_495.wav,0,pill,275,31,5,4,English,f,11,1.09391667,-32.87582459,1.50541044
65a97c769f2db2c7f246e5b5,32,0,2024-02-28T14:39:09.422Z,english_841.wav,0,peel,447,31,5,4,English,f,0,0.0,13.47649633,0.2030304
65a97c769f2db2c7f246e5b5,32,0,2024-02-28T14:39:09.422Z,english_841.wav,0,peel,447,31,5,4,English,f,1,0.1,-4.31438018,1.4654032
65a97c769f2db2c7f246e5b5,32,0,2024-02-28T14:39:09.422Z,english_841.wav,0,peel,447,31,5,4,English,f,2,0.2,33.0563647,0.99950721
65a97c769f2db2c7f246e5b5,32,0,2024-02-28T14:39:09.422Z,english_841.wav,0,peel,447,31,5,4,English,f,3,0.3,86.84745786,0.04710196
65a97c769f2db2c7f246e5b5,32,0,2024-02-28T14:39:09.422Z,english_841.wav,0,peel,447,31,5,4,English,f,4,0.4,-66.40745707,1.47568135
65a97c769f2db2c7f246e5b5,32,0,2024-02-28T14:39:09.422Z,english_841.wav,0,peel,447,31,5,4,English,f,5,0.5,-45.55484269,1.38964748
65a97c769f2db2c7f246e5b5,32,0,2024-02-28T14:39:09.422Z,english_841.wav,0,peel,447,31,5,4,English,f,6,0.6,-86.08753099,1.63844318
65a97c769f2db2c7f246e5b5,32,0,2024-02-28T14:39:09.422Z,english_841.wav,0,peel,447,31,5,4,English,f,7,0.7,-95.45735959,1.01920512
65a97c769f2db2c7f246e5b5,32,0,2024-02-28T14:39:09.422Z,english_841.wav,0,peel,447,31,5,4,English,f,8,0.8,23.86654109,1.35517017
65a97c769f2db2c7f246e5b5,32,0,2024-02-28T14:39:09.422Z,english_841.wav,0,peel,447,31,5,4,English,f,9,0.9,-11.20743419,1.07128935
65a97c769f2db2c7f246e5b5,32,0,2024-02-28T14:39:09.422Z,english_841.wav,0,peel,447,31,5,4,English,f,10,1.0,-48.1272879,1.6005201
65a97c769f2db2c7f246e5b5,32,0,2024-02-28T14:39:09.422Z,english_841.wav,0,peel,447,31,5,4,English,f,11,1.09391667,65.71403117,1.58502918
65a97c769f2db2c7f246e5b5,33,0,2024-02-28T14:39:09.422Z,english_317.wav,0,pill,341,31,5,4,English,f,0,0.0,35.80517537,1.51358533
65a97c769f2db2c7f246e5b5,33,0,2024-02-28T14:39:09.422Z,english_317.wav,0,pill,341,31,5,4,English,f,1,0.1,-47.20528256,0.29972078
65a97c769f2db2c7f246e5b5,33,0,2024-02-28T14:39:09.422Z,english_317.wav,0,pill,341,31,5,4,English,f,2,0.2,10.16864163,1.18281069
65a97c769f2db2c7f246e5b5,33,0,2024-02-28T14:39:09.422Z,english_317.wav,0,pill,341,31,5,4,English,f,3,0.3,32.59206289,1.39231518
65a97c769f2db2c7f246e5b5,33,0,2024-02-28T14:39:09.422Z,english_317.wav,0,pill,341,31,5,4,English,f,4,0.4,20.53754814,1.77974686
65a97c769f2db2c7f246e5b5,33,0,2024-02-28T14:39:09.422Z,english_317.wav,0,pill,341,31,5,4,English,f,5,0.5,-78.8593211,1.1695001
65a97c769f2db2c7f246e5b5,33,0,2024-02-28T14:39:09.422Z,english_317.wav,0,pill,341,31,5,4,English,f,6,0.6,-97.96541086,1.77666203
65a97c769f2db2c7f246e5b5,33,0,2024-02-28T14:39:09.422Z,english_317.wav,0,pill,341,31,5,4,English,f,7,0.7,49.60543729,0.8164879
65a97c769f2db2c7f246e5b5,33,0,2024-02-28T14:39:09.422Z,english_317.wav,0,pill,341,31,5,4,English,f,8,0.8,-69.92457952,0.08502592
65a97c769f2db2c7f246e5b5,33,0,2024-02-28T14:39:09.422Z,english_317.wav,0,pill,341,31,5,4,English,f,9,0.9,-3.69767957,1.29069951
65a97c769f2db2c7f246e5b5,33,0,2024-02-28T14:39:09.422Z,english_317.wav,0,pill,341,31,5,4,English,f,10,1.0,-3.35302539,0.64002495
65a97c769f2db2c7f246e5b5,33,0,2024-02-28T14:39:09.422Z,english_317.wav,0,pill,341,31,5,4,English,f,11,1.09391667,29.32411719,1.74584587
65a97c769f2db2c7f246e5b5,34,0,2024-02-28T14:39:09.422Z,english_370.wav,0,peel,380,31,5,4,English,f,0,0.0,91.45146765,1.23282005
65a97c769f2db2c7f246e5b5,34,0,2024-02-28T14:39:09.422Z,english_370.wav,0,peel,380,31,5,4,English,f,1,0.1,-35.10409157,0.25999131
65a97c769f2db2c7f246e5b5,34,0,2024-02-28T14:39:09.422Z,english_370.wav,0,peel,380,31,5,4,English,f,2,0.2,94.76486666,1.34886846
65a97c769f2db2c7f246e5b5,34,0,2024-02-28T14:39:09.422Z,english_370.wav,0,peel,380,31,5,4,English,f,3,0.3,-53.94210215,0.83234793
65a97c769f2db2c7f246e5b5,34,0,2024-02-28T14:39:09.422Z,english_370.wav,0,peel,380,31,5,4,English,f,4,0.4,84.25045535,0.3574364
65a97c769f2db2c7f246e5b5,34,0,2024-02-28T14:39:09.422Z,english_370.wav,0,peel,380,31,5,4,English,f,5,0.5,23.38990659,1.13678853
65a97c769f2db2c7f246e5b5,34,0,2024-02-28T14:39:09.422Z,english_370.wav,0,peel,380,31,5,4,English,f,6,0.6,-19.20564455,1.71477151
65a97c769f2db2c7f246e5b5,34,0,2024-02-28T14:39:09.422Z,english_370.wav,0,peel,380,31,5,4,English,f,7,0.7,79.34721748,0.6734852
65a97c769f2db2c7f246e5b5,34,0,2024-02-28T14:39:09.422Z,english_370.wav,0,peel,380,31,5,4,English,f,8,0.8,-19.93049437,1.07446176
65a97c769f2db2c7f246e5b5,34,0,2024-02-28T14:39:09.422Z,english_370.wav,0,peel,380,31,5,4,English,f,9,0.9,-60.8441274,1.23242025
65a97c769f2db2c7f246e5b5,34,0,2024-02-28T14:39:09.422Z,english_370.wav,0,peel,380,31,5,4,English,f,10,1.0,-1.38990897,1.52786138
65a97c769f2db2c7f246e5b5,34,0,2024-02-28T14:39:09.422Z,english_370.wav,0,peel,380,31,5,4,English,f,11,1.09391667,24.56704264,1.4714842
65a97c769f2db2c7f246e5b5,35,0,2024-02-28T14:39:09.422Z,english_42.wav,0,pill,439,31,5,4,English,f,0,0.0,-12.35235723,0.89110064
65a97c769f2db2c7f246e5b5,35,0,2024-02-28T14:39:09.422Z,english_42.wav,0,pill,439,31,5,4,English,f,1,0.1,-31.30593397,0.38934259
65a97c769f2db2c7f246e5b5,35,0,2024-02-28T14:39:09.422Z,english_42.wav,0,pill,439,31,5,4,English,f,2,0.2,93.22547931,1.45440232
65a97c769f2db2c7f246e5b5,35,0,2024-02-28T14:39:09.422Z,english_42.wav,0,pill,439,31,5,4,English,f,3,0.3,3.55661221,0.25584691
65a97c769f2db2c7f246e5b5,35,0,2024-02-28T14:39:09.422Z,english_42.wav,0,pill,439,31,5,4,English,f,4,0.4,-65.82574245,1.05295351
65a97c769f2db2c7f246e5b5,35,0,2024-02-28T14:39:09.422Z,english_42.wav,0,pill,439,31,5,4,English,f,5,0.5,29.87364381,0.59087155
65a97c769f2db2c7f246e5b5,35,0,2024-02-28T14:39:09.422Z,english_42.wav,0,pill,439,31,5,4,English,f,6,0.6,-76.70361056,0.12112438
65a97c769f2db2c7f246e5b5,35,0,2024-02-28T14:39:09.422Z,english_42.wav,0,pill,439,31,5,4,English,f,7,0.7,-29.10356368,0.72116868
65a97c769f2db2c7f246e5b5,35,0,2024-02-28T14:39:09.422Z,english_42.wav,0,pill,439,31,5,4,English,f,8,0.8,-52.57981462,0.07340316
65a97c769f2db2c7f246e5b5,35,0,2024-02-28T14:39:09.422Z,english_42.wav,0,pill,439,31,5,4,English,f,9,0.9,3.2621499,1.9617885
65a97c769f2db2c7f246e5b5,35,0,2024-02-28T14:39:09.422Z,english_42.wav,0,pill,439,31,5,4,English,f,10,1.0,-86.59512904,0.50342264
65a97c769f2db2c7f246e5b5,35,0,2024-02-28T14:39:09.422Z,english_42.wav,0,pill,439,31,5,4,English,f,11,1.09391667,39.23696044,1.24684981
65a97c769f2db2c7f246e5b5,36,0,2024-02-28T14:39:09.422Z,english_238.wav,0,peel,382,31,5,4,English,f,0,0.0,-25.3614735,1.74975572
65a97c769f2db2c7f246e5b5,36,0,2024-02-28T14:39:09.422Z,english_238.wav,0,peel,382,31,5,4,English,f,1,0.1,13.63610574,0.46955084
65a97c769f2db2c7f246e5b5,36,0,2024-02-28T14:39:09.422Z,english_238.wav,0,peel,382,31,5,4,English,f,2,0.2,47.68455174,0.90849847
65a97c769f2db2c7f246e5b5,36,0,2024-02-28T14:39:09.422Z,english_238.wav,0,peel,382,31,5,4,English,f,3,0.3,-45.84662584,1.75842807
65a97c769f2db2c7f246e5b5,36,0,2024-02-28T14:39:09.422Z,english_238.wav,0,peel,382,31,5,4,English,f,4,0.4,-24.72789326,0.8348983
65a97c769f2db2c7f246e5b5,36,0,2024-02-28T14:39:09.422Z,english_238.wav,0,peel,382,31,5,4,English,f,5,0.5,64.94752312,0.09811013
65a97c769f2db2c7f246e5b5,36,0,2024-02-28T14:39:09.422Z,english_238.wav,0,peel,382,31,5,4,English,f,6,0.6,91.26767563,0.01897595
65a97c769f2db2c7f246e5b5,36,0,2024-02-28T14:39:09.422Z,english_238.wav,0,peel,382,31,5,4,English,f,7,0.7,39.1185383,1.47798962
65a97c769f2db2c7f246e5b5,36,0,2024-02-28T14:39:09.422Z,english_238.wav,0,peel,382,31,5,4,English,f,8,0.8,-79.79663189,0.10732885
65a97c769f2db2c7f246e5b5,36,0,2024-02-28T14:39:09.422Z,english_238.wav,0,peel,382,31,5,4,English,f,9,0.9,82.76131323,1.36210441
65a97c769f2db2c7f246e5b5,36,0,2024-02-28T14:39:09.422Z,english_238.wav,0,peel,382,31,5,4,English,f,10,1.0,-67.84724973,1.46345611
65a97c769f2db2c7f246e5b5,36,0,2024-02-28T14:39:09.422Z,english_238.wav,0,peel,382,31,5,4,English,f,11,1.09391667,10.72336038,1.19403649
65a97c769f2db2c7f246e5b5,37,0,2024-02-28T14:39:09.422Z,english_915.wav,0,peel,523,31,5,4,English,f,0,0.0,-21.98271396,1.11106838
65a97c769f2db2c7f246e5b5,37,0,2024-02-28T14:39:09.422Z,english_915.wav,0,peel,523,31,5,4,English,f,1,0.1,1.0207487,1.44455779
65a97c769f2db2c7f246e5b5,37,0,2024-02-28T14:39:09.422Z,english_915.wav,0,peel,523,31,5,4,English,f,2,0.2,23.02274493,1.42587556
65a97c769f2db2c7f246e5b5,37,0,2024-02-28T14:39:09.422Z,english_915.wav,0,peel,523,31,5,4,English,f,3,0.3,85.32608832,1.47521249
65a97c769f2db2c7f246e5b5,37,0,2024-02-28T14:39:09.422Z,english_915.wav,0,peel,523,31,5,4,English,f,4,0.4,-33.34189035,1.68905856
65a97c769f2db2c7f246e5b5,37,0,2024-02-28T14:39:09.422Z,english_915.wav,0,peel,523,31,5,4,English,f,5,0.5,29.21421043,1.40181913
65a97c769f2db2c7f246e5b5,37,0,2024-02-28T14:39:09.422Z,english_915.wav,0,peel,523,31,5,4,English,f,6,0.6,56.26543798,1.46869984
65a97c769f2db2c7f246e5b5,37,0,2024-02-28T14:39:09.422Z,english_915.wav,0,peel,523,31,5,4,English,f,7,0.7,7.71467122,0.70433786
65a97c769f2db2c7f246e5b5,37,0,2024-02-28T14:39:09.422Z,english_915.wav,0,peel,523,31,5,4,English,f,8,0.8,88.21567756,1.11015014
65a97c769f2db2c7f246e5b5,37,0,2024-02-28T14:39:09.422Z,english_915.wav,0,peel,523,31,5,4,English,f,9,0.9,-50.54904275,0.72100932
65a97c769f2db2c7f246e5b5,37,0,2024-02-28T14:39:09.422Z,english_915.wav,0,peel,523,31,5,4,English,f,10,1.0,-64.3056321,1.02681764
65a97c769f2db2c7f246e5b5,37,0,2024-02-28T14:39:09.422Z,english_915.wav,0,peel,523,31,5,4,English,f,11,1.09391667,-64.41259803,0.869897
65a97c769f2db2c7f246e5b5,38,0,2024-02-28T14:39:09.422Z,english_518.wav,0,peel,384,31,5,4,English,f,0,0.0,22.01202895,1.18568215
65a97c769f2db2c7f246e5b5,38,0,2024-02-28T14:39:09.422Z,english_518.wav,0,peel,384,31,5,4,English,f,1,0.1,84.85911905,1.27730104
65a97c769f2db2c7f246e5b5,38,0,2024-02-28T14:39:09.422Z,english_518.wav,0,peel,384,31,5,4,English,f,2,0.2,6.76803646,1.88343212
65a97c769f2db2c7f246e5b5,38,0,2024-02-28T14:39:09.422Z,english_518.wav,0,peel,384,31,5,4,English,f,3,0.3,-12.31334731,1.70516568
65a97c769f2db2c7f246e5b5,38,0,2024-02-28T14:39:09.422Z,english_518.wav,0,peel,384,31,5,4,English,f,4,0.4,-5.3812793,1.21188584
65a97c769f2db2c7f246e5b5,38,0,2024-02-28T14:39:09.422Z,english_518.wav,0,peel,384,31,5,4,English,f,5,0.5,-39.12372131,1.55365309
65a97c769f2db2c7f246e5b5,38,0,2024-02-28T14:39:09.422Z,english_518.wav,0,peel,384,31,5,4,English,f,6,0.6,-19.59187687,1.67380265
65a97c769f2db2c7f246e5b5,38,0,2024-02-28T14:39:09.422Z,english_518.wav,0,peel,384,31,5,4,English,f,7,0.7,30.09174406,1.67954719
65a97c769f2db2c7f246e5b5,38,0,2024-02-28T14:39:09.422Z,english_518.wav,0,peel,384,31,5,4,English,f,8,0.8,12.21299005,1.45293932
65a97c769f2db2c7f246e5b5,38,0,2024-02-28T14:39:09.422Z,english_518.wav,0,peel,384,31,5,4,English,f,9,0.9,-30.98849923,1.42118442
65a97c769f2db2c7f246e5b5,38,0,2024-02-28T14:39:09.422Z,english_518.wav,0,peel,384,31,5,4,English,f,10,1.0,-66.88783357,1.84946345
65a97c769f2db2c7f246e5b5,38,0,2024-02-28T14:39:09.422Z,english_518.wav,0,peel,384,31,5,4,English,f,11,1.09391667,-47.66173225,1.44146986
65a97c769f2db2c7f246e5b5,39,0,2024-02-28T14:39:09.422Z,english_894.wav,0,pill,750,31,5,4,English,f,0,0.0,-80.20723644,1.79346893
65a97c769f2db2c7f246e5b5,39,0,2024-02-28T14:39:09.422Z,english_894.wav,0,pill,750,31,5,4,English,f,1,0.1,70.63971402,0.36641107
65a97c769f2db2c7f246e5b5,39,0,2024-02-28T14:39:09.422Z,english_894.wav,0,pill,750,31,5,4,English,f,2,0.2,-37.49635732,1.22262179
65a97c769f2db2c7f246e5b5,39,0,2024-02-28T14:39:09.422Z,english_894.wav,0,pill,750,31,5,4,English,f,3,0.3,-83.65831032,1.81798895
65a97c769f2db2c7f246e5b5,39,0,2024-02-28T14:39:09.422Z,english_894.wav,0,pill,750,31,5,4,English,f,4,0.4,-33.74406965,0.98569015
65a97c769f2db2c7f246e5b5,39,0,2024-02-28T14:39:09.422Z,english_894.wav,0,pill,750,31,5,4,English,f,5,0.5,51.66171184,1.39342992
65a97c769f2db2c7f246e5b5,39,0,2024-02-28T14:39:09.422Z,english_894.wav,0,pill,750,31,5,4,English,f,6,0.6,19.47391611,1.02882877
65a97c769f2db2c7f246e5b5,39,0,2024-02-28T14:39:09.422Z,english_894.wav,0,pill,750,31,5,4,English,f,7,0.7,-13.53975377,0.49108551
65a97c769f2db2c7f246e5b5,39,0,2024-02-28T14:39:09.422Z,english_894.wav,0,pill,750,31,5,4,English,f,8,0.8,-20.28527638,0.73422482
65a97c769f2db2c7f246e5b5,39,0,2024-02-28T14:39:09.422Z,english_894.wav,0,pill,750,31,5,4,English,f,9,0.9,-1.05192851,1.80196554
65a97c769f2db2c7f246e5b5,39,0,2024-02-28T14:39:09.422Z,english_894.wav,0,pill,750,31,5,4,English,f,10,1.0,-21.57661458,0.14842719
65a97c769f2db2c7f246e5b5,39,0,2024-02-28T14:39:09.422Z,english_894.wav,0,pill,750,31,5,4,English,f,11,1.09391667,-6.12644826,0.9088618
65a97c769f2db2c7f246e5b5,40,0,2024-02-28T14:39:09.422Z,english_532.wav,0,peel,357,31,5,4,English,f,0,0.0,60.85707462,0.2444237
65a97c769f2db2c7f246e5b5,40,0,2024-02-28T14:39:09.422Z,english_532.wav,0,peel,357,31,5,4,English,f,1,0.1,13.03416057,1.53493401
65a97c769f2db2c7f246e5b5,40,0,2024-02-28T14:39:09.422Z,english_532.wav,0,peel,357,31,5,4,English,f,2,0.2,-48.45411351,1.45787945
65a97c769f2db2c7f246e5b5,40,0,2024-02-28T14:39:09.422Z,english_532.wav,0,peel,357,31,5,4,English,f,3,0.3,16.77450497,0.11915761
65a97c769f2db2c7f246e5b5,40,0,2024-02-28T14:39:09.422Z,english_532.wav,0,peel,357,31,5,4,English,f,4,0.4,-7.6707259,0.99575033
65a97c769f2db2c7f246e5b5,40,0,2024-02-28T14:39:09.422Z,english_532.wav,0,peel,357,31,5,4,English,f,5,0.5,-84.48187603,1.34203353
65a97c769f2db2c7f246e5b5,40,0,2024-02-28T14:39:09.422Z,english_532.wav,0,peel,357,31,5,4,English,f,6,0.6,-5.50880589,0.42679286
65a97c769f2db2c7f246e5b5,40,0,2024-02-28T14:39:09.422Z,english_532.wav,0,peel,357,31,5,4,English,f,7,0.7,-53.77002933,1.97733711
65a97c769f2db2c7f246e5b5,40,0,2024-02-28T14:39:09.422Z,english_532.wav,0,peel,357,31,5,4,English,f,8,0.8,11.75325856,0.79534295
65a97c769f2db2c7f246e5b5,40,0,2024-02-28T14:39:09.422Z,english_532.wav,0,peel,357,31,5,4,English,f,9,0.9,41.28277306,0.9990701
65a97c769f2db2c7f246e5b5,40,0,2024-02-28T14:39:09.422Z,english_532.wav,0,peel,357,31,5,4,English,f,10,1.0,14.79272929,1.48802156
65a97c769f2db2c7f246e5b5,40,0,2024-02-28T14:39:09.422Z,english_532.wav,0,peel,357,31,5,4,English,f,11,1.09391667,-15.59183139,0.74270144
65a97c769f2db2c7f246e5b5,41,0,2024-02-28T14:39:09.422Z,english_454.wav,0,peel,399,31,5,4,English,f,0,0.0,-40.724684,1.6228839
65a97c769f2db2c7f246e5b5,41,0,2024-02-28T14:39:09.422Z,english_454.wav,0,peel,399,31,5,4,English,f,1,0.1,68.37921334,0.13004392
65a97c769f2db2c7f246e5b5,41,0,2024-02-28T14:39:09.422Z,english_454.wav,0,peel,399,31,5,4,English,f,2,0.2,-30.05855576,0.71367383
65a97c769f2db2c7f246e5b5,41,0,2024-02-28T14:39:09.422Z,english_454.wav,0,peel,399,31,5,4,English,f,3,0.3,-38.49973025,0.85329946
65a97c769f2db2c7f246e5b5,41,0,2024-02-28T14:39:09.422Z,english_454.wav,0,peel,399,31,5,4,English,f,4,0.4,20.79675368,1.21776669
65a97c769f2db2c7f246e5b5,41,0,2024-02-28T14:39:09.422Z,english_454.wav,0,peel,399,31,5,4,English,f,5,0.5,97.95643376,0.59038082
65a97c769f2db2c7f246e5b5,41,0,2024-02-28T14:39:09.422Z,english_454.wav,0,peel,399,31,5,4,English,f,6,0.6,60.86620442,0.28627533
65a97c769f2db2c7f246e5b5,41,0,2024-02-28T14:39:09.422Z,english_454.wav,0,peel,399,31,5,4,English,f,7,0.7,79.81874649,1.2119593
65a97c769f2db2c7f246e5b5,41,0,2024-02-28T14:39:09.422Z,english_454.wav,0,peel,399,31,5,4,English,f,8,0.8,3.83765836,0.67514721
65a97c769f2db2c7f246e5b5,41,0,2024-02-28T14:39:09.422Z,english_454.wav,0,peel,399,31,5,4,English,f,9,0.9,67.59623448,0.51660642
65a97c769f2db2c7f246e5b5,41,0,2024-02-28T14:39:09.422Z,english_454.wav,0,peel,399,31,5,4,English,f,10,1.0,-91.57077167,0.97010822
65a97c769f2db2c7f246e5b5,41,0,2024-02-28T14:39:09.422Z,english_454.wav,0,peel,399,31,5,4,English,f,11,1.09391667,10.80867564,1.23476154
65a97c769f2db2c7f246e5b5,42,0,2024-02-28T14:39:09.422Z,english_84.wav,0,peel,162,31,5,4,English,f,0,0.0,-30.2467566,1.10932486
65a97c769f2db2c7f246e5b5,42,0,2024-02-28T14:39:09.422Z,english_84.wav,0,peel,162,31,5,4,English,f,1,0.1,-18.60045113,1.9206934
65a97c769f2db2c7f246e5b5,42,0,2024-02-28T14:39:09.422Z,english_84.wav,0,peel,162,31,5,4,English,f,2,0.2,-90.34616495,1.24300923
65a97c769f2db2c7f246e5b5,42,0,2024-02-28T14:39:09.422Z,english_84.wav,0,peel,162,31,5,4,English,f,3,0.3,65.05422695,0.26827652
65a97c769f2db2c7f246e5b5,42,0,2024-02-28T14:39:09.422Z,english_84.wav,0,peel,162,31,5,4,English,f,4,0.4,-97.4748037,1.06073
65a97c769f2db2c7f246e5b5,42,0,2024-02-28T14:39:09.422Z,english_84.wav,0,peel,162,31,5,4,English,f,5,0.5,81.08722465,0.77191048
65a97c769f2db2c7f246e5b5,42,0,2024-02-28T14:39:09.422Z,english_84.wav,0,peel,162,31,5,4,English,f,6,0.6,-60.33963886,0.47362595
65a97c769f2db2c7f246e5b5,42,0,2024-02-28T14:39:09.422Z,english_84.wav,0,peel,162,31,5,4,English,f,7,0.7,89.16319597,0.81063727
65a97c769f2db2c7f246e5b5,42,0,2024-02-28T14:39:09.422Z,english_84.wav,0,peel,162,31,5,4,English,f,8,0.8,-62.96470457,0.77403196
65a97c769f2db2c7f246e5b5,42,0,2024-02-28T14:39:09.422Z,english_84.wav,0,peel,162,31,5,4,English,f,9,0.9,-1.62845555,1.97344779
65a97c769f2db2c7f246e5b5,42,0,2024-02-28T14:39:09.422Z,english_84.wav,0,peel,162,31,5,4,English,f,10,1.0,-78.52699488,1.64085803
65a97c769f2db2c7f246e5b5,42,0,2024-02-28T14:39:09.422Z,english_84.wav,0,peel,162,31,5,4,English,f,11,1.09391667,30.74269215,1.83432164
65a97c769f2db2c7f246e5b5,43,0,2024-02-28T14:39:09.422Z,english_329.wav,0,peel,372,31,5,4,English,f,0,0.0,-73.5267518,0.87153309
65a97c769f2db2c7f246e5b5,43,0,2024-02-28T14:39:09.422Z,english_329.wav,0,peel,372,31,5,4,English,f,1,0.1,26.40936661,1.24873758
65a97c769f2db2c7f246e5b5,43,0,2024-02-28T14:39:09.422Z,english_329.wav,0,peel,372,31,5,4,English,f,2,0.2,95.94954551,0.87594124
65a97c769f2db2c7f246e5b5,43,0,2024-02-28T14:39:09.422Z,english_329.wav,0,peel,372,31,5,4,English,f,3,0.3,-92.18268605,0.88012103
65a97c769f2db2c7f246e5b5,43,0,2024-02-28T14:39:09.422Z,english_329.wav,0,peel,372,31,5,4,English,f,4,0.4,-98.10910069,1.62824367
65a97c769f2db2c7f246e5b5,43,0,2024-02-28T14:39:09.422Z,english_329.wav,0,peel,372,31,5,4,English,f,5,0.5,-61.34103681,1.41725229
65a97c769f2db2c7f246e5b5,43,0,2024-02-28T14:39:09.422Z,english_329.wav,0,peel,372,31,5,4,English,f,6,0.6,34.88723994,1.27607992
65a97c769f2db2c7f246e5b5,43,0,2024-02-28T14:39:09.422Z,english_329.wav,0,peel,372,31,5,4,English,f,7,0.7,66.83835425,0.30685243
65a97c769f2db2c7f246e5b5,43,0,2024-02-28T14:39:09.422Z,english_329.wav,0,peel,372,31,5,4,English,f,8,0.8,-67.43059972,0.43279956
65a97c769f2db2c7f246e5b5,43,0,2024-02-28T14:39:09.422Z,english_329.wav,0,peel,372,31,5,4,English,f,9,0.9,51.12526405,0.74557381
65a97c769f2db2c7f246e5b5,43,0,2024-02-28T14:39:09.422Z,english_329.wav,0,peel,372,31,5,4,English,f,10,1.0,-25.5134348,0.84179224
65a97c769f2db2c7f246e5b5,43,0,2024-02-28T14:39:09.422Z,english_329.wav,0,peel,372,31,5,4,English,f,11,1.09391667,-82.24978729,0.84260005
65a97c769f2db2c7f246e5b5,44,0,2024-02-28T14:39:09.422Z,english_305.wav,0,peel,1113,31,5,4,English,f,0,0.0,17.49267602,0.00977258
65a97c769f2db2c7f246e5b5,44,0,2024-02-28T14:39:09.422Z,english_305.wav,0,peel,1113,31,5,4,English,f,1,0.1,17.59035292,1.17585195
65a97c769f2db2c7f246e5b5,44,0,2024-02-28T14:39:09.422Z,english_305.wav,0,peel,1113,31,5,4,English,f,2,0.2,83.12376417,1.66932103
65a97c769f2db2c7f246e5b5,44,0,2024-02-28T14:39:09.422Z,english_305.wav,0,peel,1113,31,5,4,English,f,3,0.3,-81.59474703,0.83160233
65a97c769f2db2c7f246e5b5,44,0,2024-02-28T14:39:09.422Z,english_305.wav,0,peel,1113,31,5,4,English,f,4,0.4,-99.63264863,1.05024367
65a97c769f2db2c7f246e5b5,44,0,2024-02-28T14:39:09.422Z,english_305.wav,0,peel,1113,31,5,4,English,f,5,0.5,42.69289025,1.13369845
65a97c769f2db2c7f246e5b5,44,0,2024-02-28T14:39:09.422Z,english_305.wav,0,peel,1113,31,5,4,English,f,6,0.6,82.55548118,0.21867151
65a97c769f2db2c7f246e5b5,44,0,2024-02-28T14:39:09.422Z,english_305.wav,0,peel,1113,31,5,4,English,f,7,0.7,15.87479687,0.32447169
65a97c769f2db2c7f246e5b5,44,0,2024-02-28T14:39:09.422Z,english_305.wav,0,peel,1113,31,5,4,English,f,8,0.8,-15.6323718,1.86350195
65a97c769f2db2c7f246e5b5,44,0,2024-02-28T14:39:09.422Z,english_305.wav,0,peel,1113,31,5,4,English,f,9,0.9,98.18396958,0.82463705
65a97c769f2db2c7f246e5b5,44,0,2024-02-28T14:39:09.422Z,english_305.wav,0,peel,1113,31,5,4,English,f,10,1.0,52.83112054,0.94709308
65a97c769f2db2c7f246e5b5,44,0,2024-02-28T14:39:09.422Z,english_305.wav,0,peel,1113,31,5,4,English,f,11,1.09391667,33.63343534,0.36254065
65a97c769f2db2c7f246e5b5,45,0,2024-02-28T14:39:09.422Z,english_617.wav,0,peel,290,31,5,4,English,f,0,0.0,10.93227953,0.72387338
65a97c769f2db2c7f246e5b5,45,0,2024-02-28T14:39:09.422Z,english_617.wav,0,peel,290,31,5,4,English,f,1,0.1,-59.2478864,1.78831672
65a97c769f2db2c7f246e5b5,45,0,2024-02-28T14:39:09.422Z,english_617.wav,0,peel,290,31,5,4,English,f,2,0.2,-60.98157443,0.6179467
65a97c769f2db2c7f246e5b5,45,0,2024-02-28T14:39:09.422Z,english_617.wav,0,peel,290,31,5,4,English,f,3,0.3,-98.20098641,0.63320585
65a97c769f2db2c7f246e5b5,45,0,2024-02-28T14:39:09.422Z,english_617.wav,0,peel,290,31,5,4,English,f,4,0.4,-27.56878422,0.42531965
65a97c769f2db2c7f246e5b5,45,0,2024-02-28T14:39:09.422Z,english_617.wav,0,peel,290,31,5,4,English,f,5,0.5,-16.62879698,1.05036122
65a97c769f2db2c7f246e5b5,45,0,2024-02-28T14:39:09.422Z,english_617.wav,0,peel,290,31,5,4,English,f,6,0.6,-85.18504197,1.22550457
65a97c769f2db2c7f246e5b5,45,0,2024-02-28T14:39:09.422Z,english_617.wav,0,peel,290,31,5,4,English,f,7,0.7,65.935133,0.87185678
65a97c769f2db2c7f246e5b5,45,0,2024-02-28T14:39:09.422Z,english_617.wav,0,peel,290,31,5,4,English,f,8,0.8,-49.35852621,1.19822477
65a97c769f2db2c7f246e5b5,45,0,2024-02-28T14:39:09.422Z,english_617.wav,0,peel,290,31,5,4,English,f,9,0.9,-79.82823856,0.11933649
65a97c769f2db2c7f246e5b5,45,0,2024-02-28T14:39:09.422Z,english_617.wav,0,peel,290,31,5,4,English,f,10,1.0,-43.72382152,1.37889257
65a97c769f2db2c7f246e5b5,45,0,2024-02-28T14:39:09.422Z,english_617.wav,0,peel,290,31,5,4,English,f,11,1.09391667,-81.76136352,0.25359551
65a97c769f2db2c7f246e5b5,46,0,2024-02-28T14:39:09.422Z,english_821.wav,0,peel,103,31,5,4,English,f,0,0.0,60.02897282,0.81118736
65a97c769f2db2c7f246e5b5,46,0,2024-02-28T14:39:09.422Z,english_821.wav,0,peel,103,31,5,4,English,f,1,0.1,-31.71016541,1.4887669
65a97c769f2db2c7f246e5b5,46,0,2024-02-28T14:39:09.422Z,english_821.wav,0,peel,103,31,5,4,English,f,2,0.2,65.3097336,0.65578563
65a97c769f2db2c7f246e5b5,46,0,2024-02-28T14:39:09.422Z,english_821.wav,0,peel,103,31,5,4,English,f,3,0.3,39.90488009,0.99843063
65a97c769f2db2c7f246e5b5,46,0,2024-02-28T14:39:09.422Z,english_821.wav,0,peel,103,31,5,4,English,f,4,0.4,65.66520818,0.54862628
65a97c769f2db2c7f246e5b5,46,0,2024-02-28T14:39:09.422Z,english_821.wav,0,peel,103,31,5,4,English,f,5,0.5,-73.56912207,0.9620802
65a97c769f2db2c7f246e5b5,46,0,2024-02-28T14:39:09.422Z,english_821.wav,0,peel,103,31,5,4,English,f,6,0.6,0.74999233,1.96570853
65a97c769f2db2c7f246e5b5,46,0,2024-02-28T14:39:09.422Z,english_821.wav,0,peel,103,31,5,4,English,f,7,0.7,64.12769535,1.86660776
65a97c769f2db2c7f246e5b5,46,0,2024-02-28T14:39:09.422Z,english_821.wav,0,peel,103,31,5,4,English,f,8,0.8,-79.18665898,0.48590566
65a97c769f2db2c7f246e5b5,46,0,2024-02-28T14:39:09.422Z,english_821.wav,0,peel,103,31,5,4,English,f,9,0.9,-84.62050136,1.1315153
65a97c769f2db2c7f246e5b5,46,0,2024-02-28T14:39:09.422Z,english_821.wav,0,peel,103,31,5,4,English,f,10,1.0,99.19624858,1.62744853
65a97c769f2db2c7f246e5b5,46,0,2024-02-28T14:39:09.422Z,english_821.wav,0,peel,103,31,5,4,English,f,11,1.09391667,71.58670695,1.94836872
65a97c769f2db2c7f246e5b5,47,0,2024-02-28T14:39:09.422Z,english_22.wav,0,peel,319,31,5,4,English,f,0,0.0,70.18292814,0.28551441
65a97c769f2db2c7f246e5b5,47,0,2024-02-28T14:39:09.422Z,english_22.wav,0,peel,319,31,5,4,English,f,1,0.1,-80.96999494,0.4027703
65a97c769f2db2c7f246e5b5,47,0,2024-02-28T14:39:09.422Z,english_22.wav,0,peel,319,31,5,4,English,f,2,0.2,-35.97807487,0.92085021
65a97c769f2db2c7f246e5b5,47,0,2024-02-28T14:39:09.422Z,english_22.wav,0,peel,319,31,5,4,English,f,3,0.3,-50.77912628,0.28132548
65a97c769f2db2c7f246e5b5,47,0,2024-02-28T14:39:09.422Z,english_22.wav,0,peel,319,31,5,4,English,f,4,0.4,45.67027718,1.60569992
65a97c769f2db2c7f246e5b5,47,0,2024-02-28T14:39:09.422Z,english_22.wav,0,peel,319,31,5,4,English,f,5,0.5,93.75980346,1.16285663
65a97c769f2db2c7f246e5b5,47,0,2024-02-28T14:39:09.422Z,english_22.wav,0,peel,319,31,5,4,English,f,6,0.6,-60.5710335,1.00744398
65a97c769f2db2c7f246e5b5,47,0,2024-02-28T14:39:09.422Z,english_22.wav,0,peel,319,31,5,4,English,f,7,0.7,-35.42669747,0.58521518
65a97c769f2db2c7f246e5b5,47,0,2024-02-28T14:39:09.422Z,english_22.wav,0,peel,319,31,5,4,English,f,8,0.8,84.37918603,0.90086295
65a97c769f2db2c7f246e5b5,47,0,2024-02-28T14:39:09.422Z,english_22.wav,0,peel,319,31,5,4,English,f,9,0.9,-3.38291766,0.69217241
65a97c769f2db2c7f246e5b5,47,0,2024-02-28T14:39:09.422Z,english_22.wav,0,peel,319,31,5,4,English,f,10,1.0,-36.07509244,1.456266
65a97c769f2db2c7f246e5b5,47,0,2024-02-28T14:39:09.422Z,english_22.wav,0,peel,319,31,5,4,English,f,11,1.09391667,-43.05429972,0.26376925
65a97c769f2db2c7f246e5b5,48,0,2024-02-28T14:39:09.422Z,english_699.wav,0,peel,292,31,5,4,English,f,0,0.0,-10.64404417,0.39733036
65a97c769f2db2c7f246e5b5,48,0,2024-02-28T14:39:09.422Z,english_699.wav,0,peel,292,31,5,4,English,f,1,0.1,-35.40818129,1.17761209
65a97c769f2db2c7f246e5b5,48,0,2024-02-28T14:39:09.422Z,english_699.wav,0,peel,292,31,5,4,English,f,2,0.2,83.59292759,0.75132377
65a97c769f2db2c7f246e5b5,48,0,2024-02-28T14:39:09.422Z,english_699.wav,0,peel,292,31,5,4,English,f,3,0.3,-40.30907773,0.9903314
65a97c769f2db2c7f246e5b5,48,0,2024-02-28T14:39:09.422Z,english_699.wav,0,peel,292,31,5,4,English,f,4,0.4,-61.47705422,1.4462142
65a97c769f2db2c7f246e5b5,48,0,2024-02-28T14:39:09.422Z,english_699.wav,0,peel,292,31,5,4,English,f,5,0.5,73.77462927,1.48079401
65a97c769f2db2c7f246e5b5,48,0,2024-02-28T14:39:09.422Z,english_699.wav,0,peel,292,31,5,4,English,f,6,0.6,-33.57926845,1.0256948
65a97c769f2db2c7f246e5b5,48,0,2024-02-28T14:39:09.422Z,english_699.wav,0,peel,292,31,5,4,English,f,7,0.7,4.64440908,1.03411727
65a97c769f2db2c7f246e5b5,48,0,2024-02-28T14:39:09.422Z,english_699.wav,0,peel,292,31,5,4,English,f,8,0.8,-17.22893219,1.52402725
65a97c769f2db2c7f246e5b5,48,0,2024-02-28T14:39:09.422Z,english_699.wav,0,peel,292,31,5,4,English,f,9,0.9,7.65230973,0.08305717
65a97c769f2db2c7f246e5b5,48,0,2024-02-28T14:39:09.422Z,english_699.wav,0,peel,292,31,5,4,English,f,10,1.0,91.77034013,1.30692687
65a97c769f2db2c7f246e5b5,48,0,2024-02-28T14:39:09.422Z,english_699.wav,0,peel,292,31,5,4,English,f,11,1.09391667,29.53486649,1.30233828
65a97c769f2db2c7f246e5b5,49,0,2024-02-28T14:39:09.422Z,english_241.wav,0,peel,264,31,5,4,English,f,0,0.0,-97.22432216,1.35478851
65a97c769f2db2c7f246e5b5,49,0,2024-02-28T14:39:09.422Z,english_241.wav,0,peel,264,31,5,4,English,f,1,0.1,-28.14905208,0.42795765
65a97c769f2db2c7f246e5b5,49,0,2024-02-28T14:39:09.422Z,english_241.wav,0,peel,264,31,5,4,English,f,2,0.2,47.39910383,0.77593108
65a97c769f2db2c7f246e5b5,49,0,2024-02-28T14:39:09.422Z,english_241.wav,0,peel,264,31,5,4,English,f,3,0.3,62.74698337,1.52084491
65a97c769f2db2c7f246e5b5,49,0,2024-02-28T14:39:09.422Z,english_241.wav,0,peel,264,31,5,4,English,f,4,0.4,42.69629452,1.0423858
65a97c769f2db2c7f246e5b5,49,0,2024-02-28T14:39:09.422Z,english_241.wav,0,peel,264,31,5,4,English,f,5,0.5,-28.86057988,0.26192027
65a97c769f2db2c7f246e5b5,49,0,2024-02-28T14:39:09.422Z,english_241.wav,0,peel,264,31,5,4,English,f,6,0.6,47.37469517,1.65360196
65a97c769f2db2c7f246e5b5,49,0,2024-02-28T14:39:09.422Z,english_241.wav,0,peel,264,31,5,4,English,f,7,0.7,19.60148675,1.3989631
65a97c769f2db2c7f246e5b5,49,0,2024-02-28T14:39:09.422Z,english_241.wav,0,peel,264,31,5,4,English,f,8,0.8,25.28127543,0.94780347
65a97c769f2db2c7f246e5b5,49,0,2024-02-28T14:39:09.422Z,english_241.wav,0,peel,264,31,5,4,English,f,9,0.9,-90.65530928,1.1797356
65a97c769f2db2c7f246e5b5,49,0,2024-02-28T14:39:09.422Z,english_241.wav,0,peel,264,31,5,4,English,f,10,1.0,58.14244463,1.19530939
65a97c769f2db2c7f246e5b5,49,0,2024-02-28T14:39:09.422Z,english_241.wav,0,peel,264,31,5,4,English,f,11,1.09391667,33.70088271,0.5415955
65a97c769f2db2c7f246e5b5,50,1,2024-02-28T14:39:09.422Z,english_533.wav,0,peel,137,31,5,4,English,f,0,0.0,82.3150146,1.74351328
65a97c769f2db2c7f246e5b5,50,1,2024-02-28T14:39:09.422Z,english_533.wav,0,peel,137,31,5,4,English,f,1,0.1,-62.65263441,1.01143167
65a97c769f2db2c7f246e5b5,50,1,2024-02-28T14:39:09.422Z,english_533.wav,0,peel,137,31,5,4,English,f,2,0.2,35.24658043,1.89837562
65a97c769f2db2c7f246e5b5,50,1,2024-02-28T14:39:09.422Z,english_533.wav,0,peel,137,31,5,4,English,f,3,0.3,-92.25963636,0.63714559
65a97c769f2db2c7f246e5b5,50,1,2024-02-28T14:39:09.422Z,english_533.wav,0,peel,137,31,5,4,English,f,4,0.4,55.18355153,1.6894321
65a97c769f2db2c7f246e5b5,50,1,2024-02-28T14:39:09.422Z,english_533.wav,0,peel,137,31,5,4,English,f,5,0.5,42.19734794,0.54282928
65a97c769f2db2c7f246e5b5,50,1,2024-02-28T14:39:09.422Z,english_533.wav,0,peel,137,31,5,4,English,f,6,0.6,26.84517853,1.89183876
65a97c769f2db2c7f246e5b5,50,1,2024-02-28T14:39:09.422Z,english_533.wav,0,peel,137,31,5,4,English,f,7,0.7,-96.44791366,0.53977312
65a97c769f2db2c7f246e5b5,50,1,2024-02-28T14:39:09.422Z,english_533.wav,0,peel,137,31,5,4,English,f,8,0.8,-32.52364266,1.51379003
65a97c769f2db2c7f246e5b5,50,1,2024-02-28T14:39:09.422Z,english_533.wav,0,peel,137,31,5,4,English,f,9,0.9,72.77745032,1.26846018
65a97c769f2db2c7f246e5b5,50,1,2024-02-28T14:39:09.422Z,english_533.wav,0,peel,137,31,5,4,English,f,10,1.0,-8.5096212,0.77810192
65a97c769f2db2c7f246e5b5,50,1,2024-02-28T14:39:09.422Z,english_533.wav,0,peel,137,31,5,4,English,f,11,1.09391667,-5.91345178,1.56024291
65a97c769f2db2c7f246e5b5,51,1,2024-02-28T14:39:09.422Z,english_585.wav,0,pill,275,31,5,4,English,f,0,0.0,-86.93944466,0.1588986
65a97c769f2db2c7f246e5b5,51,1,2024-02-28T14:39:09.422Z,english_585.wav,0,pill,275,31,5,4,English,f,1,0.1,-97.95669785,0.38183266
65a97c769f2db2c7f246e5b5,51,1,2024-02-28T14:39:09.422Z,english_585.wav,0,pill,275,31,5,4,English,f,2,0.2,35.19908461,0.20642212
65a97c769f2db2c7f246e5b5,51,1,2024-02-28T14:39:09.422Z,english_585.wav,0,pill,275,31,5,4,English,f,3,0.3,66.00378301,1.21146119
65a97c769f2db2c7f246e5b5,51,1,2024-02-28T14:39:09.422Z,english_585.wav,0,pill,275,31,5,4,English,f,4,0.4,10.9229126,0.35502735
65a97c769f2db2c7f246e5b5,51,1,2024-02-28T14:39:09.422Z,english_585.wav,0,pill,275,31,5,4,English,f,5,0.5,72.37678619,1.56586524
65a97c769f2db2c7f246e5b5,51,1,2024-02-28T14:39:09.422Z,english_585.wav,0,pill,275,31,5,4,English,f,6,0.6,-57.08192974,1.83214489
65a97c769f2db2c7f246e5b5,51,1,2024-02-28T14:39:09.422Z,english_585.wav,0,pill,275,31,5,4,English,f,7,0.7,-77.39915084,0.43697271
65a97c769f2db2c7f246e5b5,51,1,2024-02-28T14:39:09.422Z,english_585.wav,0,pill,275,31,5,4,English,f,8,0.8,38.55710496,0.35169773
65a97c769f2db2c7f246e5b5,51,1,2024-02-28T14:39:09.422Z,english_585.wav,0,pill,275,31,5,4,English,f,9,0.9,-27.16276528,1.49983702
65a97c769f2db2c7f246e5b5,51,1,2024-02-28T14:39:09.422Z,english_585.wav,0,pill,275,31,5,4,English,f,10,1.0,46.25769813,0.51254386
65a97c769f2db2c7f246e5b5,51,1,2024-02-28T14:39:09.422Z,english_585.wav,0,pill,275,31,5,4,English,f,11,1.09391667,-14.18587881,0.12379544
65a97c769f2db2c7f246e5b5,52,1,2024-02-28T14:39:09.422Z,english_547.wav,0,peel,45,31,5,4,English,f,0,0.0,-84.56242422,0.88058973
65a97c769f2db2c7f246e5b5,52,1,2024-02-28T14:39:09.422Z,english_547.wav,0,peel,45,31,5,4,English,f,1,0.1,99.9800097,1.57875619
65a97c769f2db2c7f246e5b5,52,1,2024-02-28T14:39:09.422Z,english_547.wav,0,peel,45,31,5,4,English,f,2,0.2,-74.27935954,1.10539411
65a97c769f2db2c7f246e5b5,52,1,2024-02-28T14:39:09.422Z,english_547.wav,0,peel,45,31,5,4,English,f,3,0.3,89.44673422,1.02984743
65a97c769f2db2c7f246e5b5,52,1,2024-02-28T14:39:09.422Z,english_547.wav,0,peel,45,31,5,4,English,f,4,0.4,-91.74996992,1.38707534
65a97c769f2db2c7f246e5b5,52,1,2024-02-28T14:39:09.422Z,english_547.wav,0,peel,45,31,5,4,English,f,5,0.5,-18.76785599,1.26965367
65a97c769f2db2c7f246e5b5,52,1,2024-02-28T14:39:09.422Z,english_547.wav,0,peel,45,31,5,4,English,f,6,0.6,-51.12732076,1.25509145
65a97c769f2db2c7f246e5b5,52,1,2024-02-28T14:39:09.422Z,english_547.wav,0,peel,45,31,5,4,English,f,7,0.7,14.86623417,1.52290103
65a97c769f2db2c7f246e5b5,52,1,2024-02-28T14:39:09.422Z,english_547.wav,0,peel,45,31,5,4,English,f,8,0.8,92.41843581,1.30528153
65a97c769f2db2c7f246e5b5,52,1,2024-02-28T14:39:09.422Z,english_547.wav,0,peel,45,31,5,4,English,f,9,0.9,81.77291175,0.94706354
65a97c769f2db2c7f246e5b5,52,1,2024-02-28T14:39:09.422Z,english_547.wav,0,peel,45,31,5,4,English,f,10,1.0,63.1035346,1.72712252
65a97c769f2db2c7f246e5b5,52,1,2024-02-28T14:39:09.422Z,english_547.wav,0,peel,45,31,5,4,English,f,11,1.09391667,48.67701743,1.8227726
65a97c769f2db2c7f246e5b5,53,1,2024-02-28T14:39:09.422Z,english_259.wav,0,peel,329,31,5,4,English,f,0,0.0,-96.45723027,1.20447661
65a97c769f2db2c7f246e5b5,53,1,2024-02-28T14:39:09.422Z,english_259.wav,0,peel,329,31,5,4,English,f,1,0.1,46.81898893,1.98089962
65a97c769f2db2c7f246e5b5,53,1,2024-02-28T14:39:09.422Z,english_259.wav,0,peel,329,31,5,4,English,f,2,0.2,-52.24123134,0.13419359
65a97c769f2db2c7f246e5b5,53,1,2024-02-28T14:39:09.422Z,english_259.wav,0,peel,329,31,5,4,English,f,3,0.3,-93.20482306,0.77341906
65a97c769f2db2c7f246e5b5,53,1,2024-02-28T14:39:09.422Z,english_259.wav,0,peel,329,31,5,4,English,f,4,0.4,-73.17016095,0.41314705
65a97c769f2db2c7f246e5b5,53,1,2024-02-28T14:39:09.422Z,english_259.wav,0,peel,329,31,5,4,English,f,5,0.5,65.38390332,1.70927399
65a97c769f2db2c7f246e5b5,53,1,2024-02-28T14:39:09.422Z,english_259.wav,0,peel,329,31,5,4,English,f,6,0.6,-74.48910715,0.82975987
65a97c769f2db2c7f246e5b5,53,1,2024-02-28T14:39:09.422Z,english_259.wav,0,peel,329,31,5,4,English,f,7,0.7,18.35767077,1.00284167
65a97c769f2db2c7f246e5b5,53,1,2024-02-28T14:39:09.422Z,english_259.wav,0,peel,329,31,5,4,English,f,8,0.8,-83.13603565,0.65136174
65a97c769f2db2c7f246e5b5,53,1,2024-02-28T14:39:09.422Z,english_259.wav,0,peel,329,31,5,4,English,f,9,0.9,-60.914408,1.08902536
65a97c769f2db2c7f246e5b5,53,1,2024-02-28T14:39:09.422Z,english_259.wav,0,peel,329,31,5,4,English,f,10,1.0,13.76318207,0.29016251
65a97c769f2db2c7f246e5b5,53,1,2024-02-28T14:39:09.422Z,english_259.wav,0,peel,329,31,5,4,English,f,11,1.09391667,-74.06068615,0.25284804
65a97c769f2db2c7f246e5b5,54,1,2024-02-28T14:39:09.422Z,english_230.wav,0,peel,271,31,5,4,English,f,0,0.0,33.38389537,1.56748289
65a97c769f2db2c7f246e5b5,54,1,2024-02-28T14:39:09.422Z,english_230.wav,0,peel,271,31,5,4,English,f,1,0.1,-34.15374901,0.35840318
65a97c769f2db2c7f246e5b5,54,1,2024-02-28T14:39:09.422Z,english_230.wav,0,peel,271,31,5,4,English,f,2,0.2,-17.15972141,0.69573927
65a97c769f2db2c7f246e5b5,54,1,2024-02-28T14:39:09.422Z,english_230.wav,0,peel,271,31,5,4,English,f,3,0.3,-8.06213265,1.48062695
65a97c769f2db2c7f246e5b5,54,1,2024-02-28T14:39:09.422Z,english_230.wav,0,peel,271,31,5,4,English,f,4,0.4,10.20192226,1.80584749
65a97c769f2db2c7f246e5b5,54,1,2024-02-28T14:39:09.422Z,english_230.wav,0,peel,271,31,5,4,English,f,5,0.5,-58.60843687,0.27713833
65a97c769f2db2c7f246e5b5,54,1,2024-02-28T14:39:09.422Z,english_230.wav,0,peel,271,31,5,4,English,f,6,0.6,79.76687213,0.54911174
65a97c769f2db2c7f246e5b5,54,1,2024-02-28T14:39:09.422Z,english_230.wav,0,peel,271,31,5,4,English,f,7,0.7,-68.85443864,0.47648858
65a97c769f2db2c7f246e5b5,54,1,2024-02-28T14:39:09.422Z,english_230.wav,0,peel,271,31,5,4,English,f,8,0.8,-14.23970475,1.61704234
65a97c769f2db2c7f246e5b5,54,1,2024-02-28T14:39:09.422Z,english_230.wav,0,peel,271,31,5,4,English,f,9,0.9,-88.80466565,1.41921333
65a97c769f2db2c7f246e5b5,54,1,2024-02-28T14:39:09.422Z,english_230.wav,0,peel,271,31,5,4,English,f,10,1.0,-64.76676699,0.47778277
65a97c769f2db2c7f246e5b5,54,1,2024-02-28T14:39:09.422Z,english_230.wav,0,peel,271,31,5,4,English,f,11,1.09391667,-85.72124736,0.86213517
65a97c769f2db2c7f246e5b5,55,1,2024-02-28T14:39:09.422Z,english_524.wav,0,peel,796,31,5,4,English,f,0,0.0,-30.25985822,0.34793973
65a97c769f2db2c7f246e5b5,55,1,2024-02-28T14:39:09.422Z,english_524.wav,0,peel,796,31,5,4,English,f,1,0.1,-25.72639464,1.18810863
65a97c769f2db2c7f246e5b5,55,1,2024-02-28T14:39:09.422Z,english_524.wav,0,peel,796,31,5,4,English,f,2,0.2,-19.31311579,0.08692409
65a97c769f2db2c7f246e5b5,55,1,2024-02-28T14:39:09.422Z,english_524.wav,0,peel,796,31,5,4,English,f,3,0.3,75.52996736,0.42169144
65a97c769f2db2c7f246e5b5,55,1,2024-02-28T14:39:09.422Z,english_524.wav,0,peel,796,31,5,4,English,f,4,0.4,95.21234869,0.91790301
65a97c769f2db2c7f246e5b5,55,1,2024-02-28T14:39:09.422Z,english_524.wav,0,peel,796,31,5,4,English,f,5,0.5,-71.1057772,1.60079155
65a97c769f2db2c7f246e5b5,55,1,2024-02-28T14:39:09.422Z,english_524.wav,0,peel,796,31,5,4,English,f,6,0.6,-19.64273872,0.41126457
65a97c769f2db2c7f246e5b5,55,1,2024-02-28T14:39:09.422Z,english_524.wav,0,peel,796,31,5,4,English,f,7,0.7,-1.31214815,0.20209882
65a97c769f2db2c7f246e5b5,55,1,2024-02-28T14:39:09.422Z,english_524.wav,0,peel,796,31,5,4,English,f,8,0.8,64.64076703,1.03575809
65a97c769f2db2c7f246e5b5,55,1,2024-02-28T14:39:09.422Z,english_524.wav,0,peel,796,31,5,4,English,f,9,0.9,-18.69724377,0.43486471
65a97c769f2db2c7f246e5b5,55,1,2024-02-28T14:39:09.422Z,english_524.wav,0,peel,796,31,5,4,English,f,10,1.0,-40.5043492,0.51132712
65a97c769f2db2c7f246e5b5,55,1,2024-02-28T14:39:09.422Z,english_524.wav,0,peel,796,31,5,4,English,f,11,1.09391667,-72.71091187,0.92380924
65a97c769f2db2c7f246e5b5,56,1,2024-02-28T14:39:09.422Z,english_934.wav,0,peel,341,31,5,4,English,f,0,0.0,-11.34943225,0.24415631
65a97c769f2db2c7f246e5b5,56,1,2024-02-28T14:39:09.422Z,english_934.wav,0,peel,341,31,5,4,English,f,1,0.1,65.85322301,1.37961224
65a97c769f2db2c7f246e5b5,56,1,2024-02-28T14:39:09.422Z,english_934.wav,0,peel,341,31,5,4,English,f,2,0.2,-85.4605192,1.63298201
65a97c769f2db2c7f246e5b5,56,1,2024-02-28T14:39:09.422Z,english_934.wav,0,peel,341,31,5,4,English,f,3,0.3,13.55265206,0.01798396
65a97c769f2db2c7f246e5b5,56,1,2024-02-28T14:39:09.422Z,english_934.wav,0,peel,341,31,5,4,English,f,4,0.4,0.50969379,0.66397169
65a97c769f2db2c7f246e5b5,56,1,2024-02-28T14:39:09.422Z,english_934.wav,0,peel,341,31,5,4,English,f,5,0.5,69.19486286,0.2241268
65a97c769f2db2c7f246e5b5,56,1,2024-02-28T14:39:09.422Z,english_934.wav,0,peel,341,31,5,4,English,f,6,0.6,-98.42209139,1.8505399
65a97c769f2db2c7f246e5b5,56,1,2024-02-28T14:39:09.422Z,english_934.wav,0,peel,341,31,5,4,English,f,7,0.7,-96.61496438,1.29472214
65a97c769f2db2c7f246e5b5,56,1,2024-02-28T14:39:09.422Z,english_934.wav,0,peel,341,31,5,4,English,f,8,0.8,-65.00160108,0.83065813
65a97c769f2db2c7f246e5b5,56,1,2024-02-28T14:39:09.422Z,english_934.wav,0,peel,341,31,5,4,English,f,9,0.9,48.73056023,1.34944931
65a97c769f2db2c7f246e5b5,56,1,2024-02-28T14:39:09.422Z,english_934.wav,0,peel,341,31,5,4,English,f,10,1.0,10.84569579,1.40216081
65a97c769f2db2c7f246e5b5,56,1,2024-02-28T14:39:09.422Z,english_934.wav,0,peel,341,31,5,4,English,f,11,1.09391667,97.87119684,1.98377201
65a97c769f2db2c7f246e5b5,57,1,2024-02-28T14:39:09.422Z,english_377.wav,0,pill,617,31,5,4,English,f,0,0.0,73.04653382,1.47836601
65a97c769f2db2c7f246e5b5,57,1,2024-02-28T14:39:09.422Z,english_377.wav,0,pill,617,31,5,4,English,f,1,0.1,61.01214683,1.01623989
65a97c769f2db2c7f246e5b5,57,1,2024-02-28T14:39:09.422Z,english_377.wav,0,pill,617,31,5,4,English,f,2,0.2,-82.4479578,1.48528015
65a97c769f2db2c7f246e5b5,57,1,2024-02-28T14:39:09.422Z,english_377.wav,0,pill,617,31,5,4,English,f,3,0.3,-6.35059144,0.37422398
65a97c769f2db2c7f246e5b5,57,1,2024-02-28T14:39:09.422Z,english_377.wav,0,pill,617,31,5,4,English,f,4,0.4,58.86113959,0.85864758
65a97c769f2db2c7f246e5b5,57,1,2024-02-28T14:39:09.422Z,english_377.wav,0,pill,617,31,5,4,English,f,5,0.5,19.19354738,0.94448051
65a97c769f2db2c7f246e5b5,57,1,2024-02-28T14:39:09.422Z,english_377.wav,0,pill,617,31,5,4,English,f,6,0.6,-31.09076765,1.48225941
65a97c769f2db2c7f246e5b5,57,1,2024-02-28T14:39:09.422Z,english_377.wav,0,pill,617,31,5,4,English,f,7,0.7,-78.80759367,0.12460905
65a97c769f2db2c7f246e5b5,57,1,2024-02-28T14:39:09.422Z,english_377.wav,0,pill,617,31,5,4,English,f,8,0.8,40.88540154,0.28155513
65a97c769f2db2c7f246e5b5,57,1,2024-02-28T14:39:09.422Z,english_377.wav,0,pill,617,31,5,4,English,f,9,0.9,2.78755214,0.51707897
65a97c769f2db2c7f246e5b5,57,1,2024-02-28T14:39:09.422Z,english_377.wav,0,pill,617,31,5,4,English,f,10,1.0,-65.38807899,0.25575056
65a97c769f2db2c7f246e5b5,57,1,2024-02-28T14:39:09.422Z,english_377.wav,0,pill,617,31,5,4,English,f,11,1.09391667,58.80108337,0.70835394
65a97c769f2db2c7f246e5b5,58,1,2024-02-28T14:39:09.422Z,english_950.wav,0,peel,505,31,5,4,English,f,0,0.0,-86.87554151,0.57113527
65a97c769f2db2c7f246e5b5,58,1,2024-02-28T14:39:09.422Z,english_950.wav,0,peel,505,31,5,4,English,f,1,0.1,-72.53946924,0.14563677
65a97c769f2db2c7f246e5b5,58,1,2024-02-28T14:39:09.422Z,english_950.wav,0,peel,505,31,5,4,English,f,2,0.2,-93.26314945,1.26514388
65a97c769f2db2c7f246e5b5,58,1,2024-02-28T14:39:09.422Z,english_950.wav,0,peel,505,31,5,4,English,f,3,0.3,-1.26261121,0.38436166
65a97c769f2db2c7f246e5b5,58,1,2024-02-28T14:39:09.422Z,english_950.wav,0,peel,505,31,5,4,English,f,4,0.4,31.78397293,0.69830078
65a97c769f2db2c7f246e5b5,58,1,2024-02-28T14:39:09.422Z,english_950.wav,0,peel,505,31,5,4,English,f,5,0.5,93.59900189,1.31794619
65a97c769f2db2c7f246e5b5,58,1,2024-02-28T14:39:09.422Z,english_950.wav,0,peel,505,31,5,4,English,f,6,0.6,-32.85922571,0.31066599
65a97c769f2db2c7f246e5b5,58,1,2024-02-28T14:39:09.422Z,english_950.wav,0,peel,505,31,5,4,English,f,7,0.7,18.10300476,1.23311227
65a97c769f2db2c7f246e5b5,58,1,2024-02-28T14:39:09.422Z,english_950.wav,0,peel,505,31,5,4,English,f,8,0.8,52.92250064,0.77437242
65a97c769f2db2c7f246e5b5,58,1,2024-02-28T14:39:09.422Z,english_950.wav,0,peel,505,31,5,4,English,f,9,0.9,-34.91247692,0.74996015
65a97c769f2db2c7f246e5b5,58,1,2024-02-28T14:39:09.422Z,english_950.wav,0,peel,505,31,5,4,English,f,10,1.0,-31.45567731,0.3691409
65a97c769f2db2c7f246e5b5,58,1,2024-02-28T14:39:09.422Z,english_950.wav,0,peel,505,31,5,4,English,f,11,1.09391667,88.77151431,1.91617341
65a97c769f2db2c7f246e5b5,59,1,2024-02-28T14:39:09.422Z,english_27.wav,0,peel,276,31,5,4,English,f,0,0.0,79.54091256,1.25862136
65a97c769f2db2c7f246e5b5,59,1,2024-02-28T14:39:09.422Z,english_27.wav,0,peel,276,31,5,4,English,f,1,0.1,8.12106861,0.9398724
65a97c769f2db2c7f246e5b5,59,1,2024-02-28T14:39:09.422Z,english_27.wav,0,peel,276,31,5,4,English,f,2,0.2,-86.96528304,1.23485766
65a97c769f2db2c7f246e5b5,59,1,2024-02-28T14:39:09.422Z,english_27.wav,0,peel,276,31,5,4,English,f,3,0.3,34.39896744,0.94041456
65a97c769f2db2c7f246e5b5,59,1,2024-02-28T14:39:09.422Z,english_27.wav,0,peel,276,31,5,4,English,f,4,0.4,73.46875222,1.68451502
65a97c769f2db2c7f246e5b5,59,1,2024-02-28T14:39:09.422Z,english_27.wav,0,peel,276,31,5,4,English,f,5,0.5,-83.8449803,0.54115759
65a97c769f2db2c7f246e5b5,59,1,2024-02-28T14:39:09.422Z,english_27.wav,0,peel,276,31,5,4,English,f,6,0.6,58.21808767,0.09765006
65a97c769f2db2c7f246e5b5,59,1,2024-02-28T14:39:09.422Z,english_27.wav,0,peel,276,31,5,4,English,f,7,0.7,-1.02085817,0.91208016
65a97c769f2db2c7f246e5b5,59,1,2024-02-28T14:39:09.422Z,english_27.wav,0,peel,276,31,5,4,English,f,8,0.8,-33.33574161,1.53320318
65a97c769f2db2c7f246e5b5,59,1,2024-02-28T14:39:09.422Z,english_27.wav,0,peel,276,31,5,4,English,f,9,0.9,24.41997053,1.39457069
65a97c769f2db2c7f246e5b5,59,1,2024-02-28T14:39:09.422Z,english_27.wav,0,peel,276,31,5,4,English,f,10,1.0,-54.97722052,0.85736332
65a97c769f2db2c7f246e5b5,59,1,2024-02-28T14:39:09.422Z,english_27.wav,0,peel,276,31,5,4,English,f,11,1.09391667,-40.91525951,0.73478674
65a97c769f2db2c7f246e5b5,60,1,2024-02-28T14:39:09.422Z,english_461.wav,0,peel,533,31,5,4,English,f,0,0.0,20.40366348,0.56042838
65a97c769f2db2c7f246e5b5,60,1,2024-02-28T14:39:09.422Z,english_461.wav,0,peel,533,31,5,4,English,f,1,0.1,-22.31307181,0.54946445
65a97c769f2db2c7f246e5b5,60,1,2024-02-28T14:39:09.422Z,english_461.wav,0,peel,533,31,5,4,English,f,2,0.2,-89.37114144,1.64772646
65a97c769f2db2c7f246e5b5,60,1,2024-02-28T14:39:09.422Z,english_461.wav,0,peel,533,31,5,4,English,f,3,0.3,-62.56780286,1.49638786
65a97c769f2db2c7f246e5b5,60,1,2024-02-28T14:39:09.422Z,english_461.wav,0,peel,533,31,5,4,English,f,4,0.4,98.66430914,1.35717302
65a97c769f2db2c7f246e5b5,60,1,2024-02-28T14:39:09.422Z,english_461.wav,0,peel,533,31,5,4,English,f,5,0.5,31.54001237,1.77354921
65a97c769f2db2c7f246e5b5,60,1,2024-02-28T14:39:09.422Z,english_461.wav,0,peel,533,31,5,4,English,f,6,0.6,-32.39124998,0.30044417
65a97c769f2db2c7f246e5b5,60,1,2024-02-28T14:39:09.422Z,english_461.wav,0,peel,533,31,5,4,English,f,7,0.7,-36.51161339,0.61964528
65a97c769f2db2c7f246e5b5,60,1,2024-02-28T14:39:09.422Z,english_461.wav,0,peel,533,31,5,4,English,f,8,0.8,53.57144474,1.90165564
65a97c769f2db2c7f246e5b5,60,1,2024-02-28T14:39:09.422Z,english_461.wav,0,peel,533,31,5,4,English,f,9,0.9,-58.15364794,1.196075
65a97c769f2db2c7f246e5b5,60,1,2024-02-28T14:39:09.422Z,english_461.wav,0,peel,533,31,5,4,English,f,10,1.0,49.37662152,1.99169905
65a97c769f2db2c7f246e5b5,60,1,2024-02-28T14:39:09.422Z,english_461.wav,0,peel,533,31,5,4,English,f,11,1.09391667,-58.25142674,0.63333461
65a97c769f2db2c7f246e5b5,61,1,2024-02-28T14:39:09.422Z,english_968.wav,0,peel,437,31,5,4,English,f,0,0.0,-60.17022597,0.06507059
65a97c769f2db2c7f246e5b5,61,1,2024-02-28T14:39:09.422Z,english_968.wav,0,peel,437,31,5,4,English,f,1,0.1,2.97803036,0.31588679
65a97c769f2db2c7f246e5b5,61,1,2024-02-28T14:39:09.422Z,english_968.wav,0,peel,437,31,5,4,English,f,2,0.2,-20.37779246,1.0629249
65a97c769f2db2c7f246e5b5,61,1,2024-02-28T14:39:09.422Z,english_968.wav,0,peel,437,31,5,4,English,f,3,0.3,82.14777176,1.23312584
65a97c769f2db2c7f246e5b5,61,1,2024-02-28T14:39:09.422Z,english_968.wav,0,peel,437,31,5,4,English,f,4,0.4,-5.56087833,1.08782287
65a97c769f2db2c7f246e5b5,61,1,2024-02-28T14:39:09.422Z,english_968.wav,0,peel,437,31,5,4,English,f,5,0.5,-35.42121974,1.76874616
65a97c769f2db2c7f246e5b5,61,1,2024-02-28T14:39:09.422Z,english_968.wav,0,peel,437,31,5,4,English,f,6,0.6,6.34490383,1.63852156
65a97c769f2db2c7f246e5b5,61,1,2024-02-28T14:39:09.422Z,english_968.wav,0,peel,437,31,5,4,English,f,7,0.7,37.90454217,0.46920885
65a97c769f2db2c7f246e5b5,61,1,2024-02-28T14:39:09.422Z,english_968.wav,0,peel,437,31,5,4,English,f,8,0.8,-12.88660641,0.63401231
65a97c769f2db2c7f246e5b5,61,1,2024-02-28T14:39:09.422Z,english_968.wav,0,peel,437,31,5,4,English,f,9,0.9,27.25418082,0.6661749
65a97c769f2db2c7f246e5b5,61,1,2024-02-28T14:39:09.422Z,english_968.wav,0,peel,437,31,5,4,English,f,10,1.0,-65.60721299,0.97214272
65a97c769f2db2c7f246e5b5,61,1,2024-02-28T14:39:09.422Z,english_968.wav,0,peel,437,31,5,4,English,f,11,1.09391667,-45.14164788,1.26320592
65a97c769f2db2c7f246e5b5,62,1,2024-02-28T14:39:09.422Z,english_110.wav,0,peel,284,31,5,4,English,f,0,0.0,45.88171242,1.49952965
65a97c769f2db2c7f246e5b5,62,1,2024-02-28T14:39:09.422Z,english_110.wav,0,peel,284,31,5,4,English,f,1,0.1,19.65275358,1.27857126
65a97c769f2db2c7f246e5b5,62,1,2024-02-28T14:39:09.422Z,english_110.wav,0,peel,284,31,5,4,English,f,2,0.2,-52.5669285,1.16755208
65a97c769f2db2c7f246e5b5,62,1,2024-02-28T14:39:09.422Z,english_110.wav,0,peel,284,31,5,4,English,f,3,0.3,50.69142125,1.53878992
65a97c769f2db2c7f246e5b5,62,1,2024-02-28T14:39:09.422Z,english_110.wav,0,peel,284,31,5,4,English,f,4,0.4,62.87836258,1.32526566
65a97c769f2db2c7f246e5b5,62,1,2024-02-28T14:39:09.422Z,english_110.wav,0,peel,284,31,5,4,English,f,5,0.5,39.63979386,1.5325195
65a97c769f2db2c7f246e5b5,62,1,2024-02-28T14:39:09.422Z,english_110.wav,0,peel,284,31,5,4,English,f,6,0.6,-26.37670891,0.18426731
65a97c769f2db2c7f246e5b5,62,1,2024-02-28T14:39:09.422Z,english_110.wav,0,peel,284,31,5,4,English,f,7,0.7,-93.2202358,1.63742876
65a97c769f2db2c7f246e5b5,62,1,2024-02-28T14:39:09.422Z,english_110.wav,0,peel,284,31,5,4,English,f,8,0.8,-56.06410486,1.91360144
65a97c769f2db2c7f246e5b5,62,1,2024-02-28T14:39:09.422Z,english_110.wav,0,peel,284,31,5,4,English,f,9,0.9,-55.01568925,1.5607569
65a97c769f2db2c7f246e5b5,62,1,2024-02-28T14:39:09.422Z,english_110.wav,0,peel,284,31,5,4,English,f,10,1.0,78.10124913,0.22178097
65a97c769f2db2c7f246e5b5,62,1,2024-02-28T14:39:09.422Z,english_110.wav,0,peel,284,31,5,4,English,f,11,1.09391667,16.50451183,0.02570083
65a97c769f2db2c7f246e5b5,63,1,2024-02-28T14:39:09.422Z,english_476.wav,0,pill,1223,31,5,4,English,f,0,0.0,44.69659717,1.41297837
65a97c769f2db2c7f246e5b5,63,1,2024-02-28T14:39:09.422Z,english_476.wav,0,pill,1223,31,5,4,English,f,1,0.1,-34.716814,1.05145195
65a97c769f2db2c7f246e5b5,63,1,2024-02-28T14:39:09.422Z,english_476.wav,0,pill,1223,31,5,4,English,f,2,0.2,-37.83043351,0.94681533
65a97c769f2db2c7f246e5b5,63,1,2024-02-28T14:39:09.422Z,english_476.wav,0,pill,1223,31,5,4,English,f,3,0.3,-62.93772859,1.38886049
65a97c769f2db2c7f246e5b5,63,1,2024-02-28T14:39:09.422Z,english_476.wav,0,pill,1223,31,5,4,English,f,4,0.4,29.80105548,0.50983073
65a97c769f2db2c7f246e5b5,63,1,2024-02-28T14:39:09.422Z,english_476.wav,0,pill,1223,31,5,4,English,f,5,0.5,-19.93397346,0.87963627
65a97c769f2db2c7f246e5b5,63,1,2024-02-28T14:39:09.422Z,english_476.wav,0,pill,1223,31,5,4,English,f,6,0.6,-81.51838574,0.37083783
65a97c769f2db2c7f246e5b5,63,1,2024-02-28T14:39:09.422Z,english_476.wav,0,pill,1223,31,5,4,English,f,7,0.7,-13.12417842,1.60201274
65a97c769f2db2c7f246e5b5,63,1,2024-02-28T14:39:09.422Z,english_476.wav,0,pill,1223,31,5,4,English,f,8,0.8,-49.11622946,0.02246419
65a97c769f2db2c7f246e5b5,63,1,2024-02-28T14:39:09.422Z,english_476.wav,0,pill,1223,31,5,4,English,f,9,0.9,-40.62215118,1.35146298
65a97c769f2db2c7f246e5b5,63,1,2024-02-28T14:39:09.422Z,english_476.wav,0,pill,1223,31,5,4,English,f,10,1.0,-29.85989769,1.39707139
65a97c769f2db2c7f246e5b5,63,1,2024-02-28T14:39:09.422Z,english_476.wav,0,pill,1223,31,5,4,English,f,11,1.09391667,-46.8973955,0.19828042
65a97c769f2db2c7f246e5b5,64,1,2024-02-28T14:39:09.422Z,english_213.wav,0,peel,530,31,5,4,English,f,0,0.0,-32.76105426,1.09332496
65a97c769f2db2c7f246e5b5,64,1,2024-02-28T14:39:09.422Z,english_213.wav,0,peel,530,31,5,4,English,f,1,0.1,20.82965334,1.62338997
65a97c769f2db2c7f246e5b5,64,1,2024-02-28T14:39:09.422Z,english_213.wav,0,peel,530,31,5,4,English,f,2,0.2,92.37712608,0.62920964
65a97c769f2db2c7f246e5b5,64,1,2024-02-28T14:39:09.422Z,english_213.wav,0,peel,530,31,5,4,English,f,3,0.3,62.5594058,1.24187197
65a97c769f2db2c7f246e5b5,64,1,2024-02-28T14:39:09.422Z,english_213.wav,0,peel,530,31,5,4,English,f,4,0.4,6.21236176,0.66893682
65a97c769f2db2c7f246e5b5,64,1,2024-02-28T14:39:09.422Z,english_213.wav,0,peel,530,31,5,4,English,f,5,0.5,4.78560907,0.46069242
65a97c769f2db2c7f246e5b5,64,1,2024-02-28T14:39:09.422Z,english_213.wav,0,peel,530,31,5,4,English,f,6,0.6,-34.71949358,0.40626587
