subj,trial,block,date,stim,stim_order,response,rt,age,english,french,language,sex,param_index,segment,pitch,stretch
600235988c6b062314984ac0,0,0,2024-02-28T14:41:23.018Z,english_55.wav,0,peel,574,30,5,4,FRENCH,M,0,0.0,55.67307479,0.52782995
600235988c6b062314984ac0,0,0,2024-02-28T14:41:23.018Z,english_55.wav,0,peel,574,30,5,4,FRENCH,M,1,0.1,-68.77763233,1.04888997
600235988c6b062314984ac0,0,0,2024-02-28T14:41:23.018Z,english_55.wav,0,peel,574,30,5,4,FRENCH,M,2,0.2,-65.56479824,1.48348863
600235988c6b062314984ac0,0,0,2024-02-28T14:41:23.018Z,english_55.wav,0,peel,574,30,5,4,FRENCH,M,3,0.3,-28.17507295,0.48831434
600235988c6b062314984ac0,0,0,2024-02-28T14:41:23.018Z,english_55.wav,0,peel,574,30,5,4,FRENCH,M,4,0.4,12.71546493,0.57381204
600235988c6b062314984ac0,0,0,2024-02-28T14:41:23.018Z,english_55.wav,0,peel,574,30,5,4,FRENCH,M,5,0.5,79.84163838,0.45321787
600235988c6b062314984ac0,0,0,2024-02-28T14:41:23.018Z,english_55.wav,0,peel,574,30,5,4,FRENCH,M,6,0.6,-44.12045936,1.63628375
600235988c6b062314984ac0,0,0,2024-02-28T14:41:23.018Z,english_55.wav,0,peel,574,30,5,4,FRENCH,M,7,0.7,-80.03895773,1.60012046
600235988c6b062314984ac0,0,0,2024-02-28T14:41:23.018Z,english_55.wav,0,peel,574,30,5,4,FRENCH,M,8,0.8,89.560279,1.77258714
600235988c6b062314984ac0,0,0,2024-02-28T14:41:23.018Z,english_55.wav,0,peel,574,30,5,4,FRENCH,M,9,0.9,-86.43761931,0.52302607
600235988c6b062314984ac0,0,0,2024-02-28T14:41:23.018Z,english_55.wav,0,peel,574,30,5,4,FRENCH,M,10,1.0,26.43928763,1.59376443
600235988c6b062314984ac0,0,0,2024-02-28T14:41:23.018Z,english_55.wav,0,peel,574,30,5,4,FRENCH,M,11,1.09391667,35.34186428,1.33420322
600235988c6b062314984ac0,1,0,2024-02-28T14:41:23.018Z,english_773.wav,0,pill,156,30,5,4,FRENCH,M,0,0.0,25.38598482,0.89232009
600235988c6b062314984ac0,1,0,2024-02-28T14:41:23.018Z,english_773.wav,0,pill,156,30,5,4,FRENCH,M,1,0.1,-75.4290336,1.89128597
600235988c6b062314984ac0,1,0,2024-02-28T14:41:23.018Z,english_773.wav,0,pill,156,30,5,4,FRENCH,M,2,0.2,-93.77214736,1.99899889
600235988c6b062314984ac0,1,0,2024-02-28T14:41:23.018Z,english_773.wav,0,pill,156,30,5,4,FRENCH,M,3,0.3,-11.93109416,0.2472244
600235988c6b062314984ac0,1,0,2024-02-28T14:41:23.018Z,english_773.wav,0,pill,156,30,5,4,FRENCH,M,4,0.4,-3.2584173,0.14273894
600235988c6b062314984ac0,1,0,2024-02-28T14:41:23.018Z,english_773.wav,0,pill,156,30,5,4,FRENCH,M,5,0.5,4.3608059,1.21438163
600235988c6b062314984ac0,1,0,2024-02-28T14:41:23.018Z,english_773.wav,0,pill,156,30,5,4,FRENCH,M,6,0.6,-67.37283883,0.96373014
600235988c6b062314984ac0,1,0,2024-02-28T14:41:23.018Z,english_773.wav,0,pill,156,30,5,4,FRENCH,M,7,0.7,-45.00567152,1.90932533
600235988c6b062314984ac0,1,0,2024-02-28T14:41:23.018Z,english_773.wav,0,pill,156,30,5,4,FRENCH,M,8,0.8,35.5097718,1.26347726
600235988c6b062314984ac0,1,0,2024-02-28T14:41:23.018Z,english_773.wav,0,pill,156,30,5,4,FRENCH,M,9,0.9,43.03996363,1.83989813
600235988c6b062314984ac0,1,0,2024-02-28T14:41:23.018Z,english_773.wav,0,pill,156,30,5,4,FRENCH,M,10,1.0,65.28264622,0.76004817
600235988c6b062314984ac0,1,0,2024-02-28T14:41:23.018Z,english_773.wav,0,pill,156,30,5,4,FRENCH,M,11,1.09391667,-37.07012433,0.66989713
600235988c6b062314984ac0,2,0,2024-02-28T14:41:23.018Z,english_1.wav,0,pill,496,30,5,4,FRENCH,M,0,0.0,82.44203382,0.97617089
600235988c6b062314984ac0,2,0,2024-02-28T14:41:23.018Z,english_1.wav,0,pill,496,30,5,4,FRENCH,M,1,0.1,-30.17618245,0.62833649
600235988c6b062314984ac0,2,0,2024-02-28T14:41:23.018Z,english_1.wav,0,pill,496,30,5,4,FRENCH,M,2,0.2,29.86670871,1.71628267
600235988c6b062314984ac0,2,0,2024-02-28T14:41:23.018Z,english_1.wav,0,pill,496,30,5,4,FRENCH,M,3,0.3,-30.59558791,1.57876253
600235988c6b062314984ac0,2,0,2024-02-28T14:41:23.018Z,english_1.wav,0,pill,496,30,5,4,FRENCH,M,4,0.4,-47.57675763,0.47000387
600235988c6b062314984ac0,2,0,2024-02-28T14:41:23.018Z,english_1.wav,0,pill,496,30,5,4,FRENCH,M,5,0.5,-17.44773817,0.87334438
600235988c6b062314984ac0,2,0,2024-02-28T14:41:23.018Z,english_1.wav,0,pill,496,30,5,4,FRENCH,M,6,0.6,-73.86718122,0.40526307
600235988c6b062314984ac0,2,0,2024-02-28T14:41:23.018Z,english_1.wav,0,pill,496,30,5,4,FRENCH,M,7,0.7,70.17077277,1.31867186
600235988c6b062314984ac0,2,0,2024-02-28T14:41:23.018Z,english_1.wav,0,pill,496,30,5,4,FRENCH,M,8,0.8,-75.98538301,0.46239136
600235988c6b062314984ac0,2,0,2024-02-28T14:41:23.018Z,english_1.wav,0,pill,496,30,5,4,FRENCH,M,9,0.9,-57.43154571,0.66642176
600235988c6b062314984ac0,2,0,2024-02-28T14:41:23.018Z,english_1.wav,0,pill,496,30,5,4,FRENCH,M,10,1.0,93.54956166,0.4005644
600235988c6b062314984ac0,2,0,2024-02-28T14:41:23.018Z,english_1.wav,0,pill,496,30,5,4,FRENCH,M,11,1.09391667,-19.42635274,0.62556241
600235988c6b062314984ac0,3,0,2024-02-28T14:41:23.018Z,english_925.wav,0,pill,401,30,5,4,FRENCH,M,0,0.0,-84.57233467,1.00848694
600235988c6b062314984ac0,3,0,2024-02-28T14:41:23.018Z,english_925.wav,0,pill,401,30,5,4,FRENCH,M,1,0.1,-44.7314948,0.79986677
600235988c6b062314984ac0,3,0,2024-02-28T14:41:23.018Z,english_925.wav,0,pill,401,30,5,4,FRENCH,M,2,0.2,-21.76001852,1.01395723
600235988c6b062314984ac0,3,0,2024-02-28T14:41:23.018Z,english_925.wav,0,pill,401,30,5,4,FRENCH,M,3,0.3,58.94026315,0.40578686
600235988c6b062314984ac0,3,0,2024-02-28T14:41:23.018Z,english_925.wav,0,pill,401,30,5,4,FRENCH,M,4,0.4,68.109547,1.18343794
600235988c6b062314984ac0,3,0,2024-02-28T14:41:23.018Z,english_925.wav,0,pill,401,30,5,4,FRENCH,M,5,0.5,49.84786379,0.73791716
600235988c6b062314984ac0,3,0,2024-02-28T14:41:23.018Z,english_925.wav,0,pill,401,30,5,4,FRENCH,M,6,0.6,60.87486089,0.58895249
600235988c6b062314984ac0,3,0,2024-02-28T14:41:23.018Z,english_925.wav,0,pill,401,30,5,4,FRENCH,M,7,0.7,50.05197286,0.92214068
600235988c6b062314984ac0,3,0,2024-02-28T14:41:23.018Z,english_925.wav,0,pill,401,30,5,4,FRENCH,M,8,0.8,83.62089831,1.8971644
600235988c6b062314984ac0,3,0,2024-02-28T14:41:23.018Z,english_925.wav,0,pill,401,30,5,4,FRENCH,M,9,0.9,-6.54901241,1.57717007
600235988c6b062314984ac0,3,0,2024-02-28T14:41:23.018Z,english_925.wav,0,pill,401,30,5,4,FRENCH,M,10,1.0,59.32339342,1.06930768
600235988c6b062314984ac0,3,0,2024-02-28T14:41:23.018Z,english_925.wav,0,pill,401,30,5,4,FRENCH,M,11,1.09391667,-66.08603468,1.74149988
600235988c6b062314984ac0,4,0,2024-02-28T14:41:23.018Z,english_404.wav,0,peel,156,30,5,4,FRENCH,M,0,0.0,51.0629149,0.92872816
600235988c6b062314984ac0,4,0,2024-02-28T14:41:23.018Z,english_404.wav,0,peel,156,30,5,4,FRENCH,M,1,0.1,-20.11660717,1.09197178
600235988c6b062314984ac0,4,0,2024-02-28T14:41:23.018Z,english_404.wav,0,peel,156,30,5,4,FRENCH,M,2,0.2,-24.08850376,1.28516423
600235988c6b062314984ac0,4,0,2024-02-28T14:41:23.018Z,english_404.wav,0,peel,156,30,5,4,FRENCH,M,3,0.3,-31.42467522,0.67196706
600235988c6b062314984ac0,4,0,2024-02-28T14:41:23.018Z,english_404.wav,0,peel,156,30,5,4,FRENCH,M,4,0.4,53.01415625,0.26298551
600235988c6b062314984ac0,4,0,2024-02-28T14:41:23.018Z,english_404.wav,0,peel,156,30,5,4,FRENCH,M,5,0.5,-45.18749729,0.832552
600235988c6b062314984ac0,4,0,2024-02-28T14:41:23.018Z,english_404.wav,0,peel,156,30,5,4,FRENCH,M,6,0.6,75.22262363,0.94238773
600235988c6b062314984ac0,4,0,2024-02-28T14:41:23.018Z,english_404.wav,0,peel,156,30,5,4,FRENCH,M,7,0.7,53.71694776,0.97166455
600235988c6b062314984ac0,4,0,2024-02-28T14:41:23.018Z,english_404.wav,0,peel,156,30,5,4,FRENCH,M,8,0.8,-31.94049291,0.24504
600235988c6b062314984ac0,4,0,2024-02-28T14:41:23.018Z,english_404.wav,0,peel,156,30,5,4,FRENCH,M,9,0.9,64.49384663,1.54934709
600235988c6b062314984ac0,4,0,2024-02-28T14:41:23.018Z,english_404.wav,0,peel,156,30,5,4,FRENCH,M,10,1.0,-87.57862232,0.71675997
600235988c6b062314984ac0,4,0,2024-02-28T14:41:23.018Z,english_404.wav,0,peel,156,30,5,4,FRENCH,M,11,1.09391667,-93.26487386,1.21108184
600235988c6b062314984ac0,5,0,2024-02-28T14:41:23.018Z,english_65.wav,0,pill,86,30,5,4,FRENCH,M,0,0.0,-44.08652709,1.3840041
600235988c6b062314984ac0,5,0,2024-02-28T14:41:23.018Z,english_65.wav,0,pill,86,30,5,4,FRENCH,M,1,0.1,3.68023197,1.67820436
600235988c6b062314984ac0,5,0,2024-02-28T14:41:23.018Z,english_65.wav,0,pill,86,30,5,4,FRENCH,M,2,0.2,-19.05866896,1.58939797
600235988c6b062314984ac0,5,0,2024-02-28T14:41:23.018Z,english_65.wav,0,pill,86,30,5,4,FRENCH,M,3,0.3,12.87316772,0.13316714
600235988c6b062314984ac0,5,0,2024-02-28T14:41:23.018Z,english_65.wav,0,pill,86,30,5,4,FRENCH,M,4,0.4,-96.16119339,0.86814229
600235988c6b062314984ac0,5,0,2024-02-28T14:41:23.018Z,english_65.wav,0,pill,86,30,5,4,FRENCH,M,5,0.5,-80.0946771,0.41459676
600235988c6b062314984ac0,5,0,2024-02-28T14:41:23.018Z,english_65.wav,0,pill,86,30,5,4,FRENCH,M,6,0.6,69.71447188,1.482845
600235988c6b062314984ac0,5,0,2024-02-28T14:41:23.018Z,english_65.wav,0,pill,86,30,5,4,FRENCH,M,7,0.7,31.09176238,0.500881
600235988c6b062314984ac0,5,0,2024-02-28T14:41:23.018Z,english_65.wav,0,pill,86,30,5,4,FRENCH,M,8,0.8,5.95151439,1.54890047
600235988c6b062314984ac0,5,0,2024-02-28T14:41:23.018Z,english_65.wav,0,pill,86,30,5,4,FRENCH,M,9,0.9,-95.02350092,0.653854
600235988c6b062314984ac0,5,0,2024-02-28T14:41:23.018Z,english_65.wav,0,pill,86,30,5,4,FRENCH,M,10,1.0,40.23975653,1.48515765
600235988c6b062314984ac0,5,0,2024-02-28T14:41:23.018Z,english_65.wav,0,pill,86,30,5,4,FRENCH,M,11,1.09391667,55.65657795,1.57918375
600235988c6b062314984ac0,6,0,2024-02-28T14:41:23.018Z,english_717.wav,0,pill,255,30,5,4,FRENCH,M,0,0.0,80.79953087,1.86526645
600235988c6b062314984ac0,6,0,2024-02-28T14:41:23.018Z,english_717.wav,0,pill,255,30,5,4,FRENCH,M,1,0.1,-1.75275742,1.92589165
600235988c6b062314984ac0,6,0,2024-02-28T14:41:23.018Z,english_717.wav,0,pill,255,30,5,4,FRENCH,M,2,0.2,12.73700345,1.47472052
600235988c6b062314984ac0,6,0,2024-02-28T14:41:23.018Z,english_717.wav,0,pill,255,30,5,4,FRENCH,M,3,0.3,-58.06023579,1.92992484
600235988c6b062314984ac0,6,0,2024-02-28T14:41:23.018Z,english_717.wav,0,pill,255,30,5,4,FRENCH,M,4,0.4,-93.68141032,1.20356957
600235988c6b062314984ac0,6,0,2024-02-28T14:41:23.018Z,english_717.wav,0,pill,255,30,5,4,FRENCH,M,5,0.5,-35.69500064,0.92496825
600235988c6b062314984ac0,6,0,2024-02-28T14:41:23.018Z,english_717.wav,0,pill,255,30,5,4,FRENCH,M,6,0.6,23.08040277,1.84550356
600235988c6b062314984ac0,6,0,2024-02-28T14:41:23.018Z,english_717.wav,0,pill,255,30,5,4,FRENCH,M,7,0.7,-73.54652945,0.83429079
600235988c6b062314984ac0,6,0,2024-02-28T14:41:23.018Z,english_717.wav,0,pill,255,30,5,4,FRENCH,M,8,0.8,43.65281286,0.04489088
600235988c6b062314984ac0,6,0,2024-02-28T14:41:23.018Z,english_717.wav,0,pill,255,30,5,4,FRENCH,M,9,0.9,99.54987208,1.24125202
600235988c6b062314984ac0,6,0,2024-02-28T14:41:23.018Z,english_717.wav,0,pill,255,30,5,4,FRENCH,M,10,1.0,85.80896401,1.39190792
600235988c6b062314984ac0,6,0,2024-02-28T14:41:23.018Z,english_717.wav,0,pill,255,30,5,4,FRENCH,M,11,1.09391667,7.78107645,0.20374713
600235988c6b062314984ac0,7,0,2024-02-28T14:41:23.018Z,english_317.wav,0,pill,198,30,5,4,FRENCH,M,0,0.0,35.80517537,1.51358533
600235988c6b062314984ac0,7,0,2024-02-28T14:41:23.018Z,english_317.wav,0,pill,198,30,5,4,FRENCH,M,1,0.1,-47.20528256,0.29972078
600235988c6b062314984ac0,7,0,2024-02-28T14:41:23.018Z,english_317.wav,0,pill,198,30,5,4,FRENCH,M,2,0.2,10.16864163,1.18281069
600235988c6b062314984ac0,7,0,2024-02-28T14:41:23.018Z,english_317.wav,0,pill,198,30,5,4,FRENCH,M,3,0.3,32.59206289,1.39231518
600235988c6b062314984ac0,7,0,2024-02-28T14:41:23.018Z,english_317.wav,0,pill,198,30,5,4,FRENCH,M,4,0.4,20.53754814,1.77974686
600235988c6b062314984ac0,7,0,2024-02-28T14:41:23.018Z,english_317.wav,0,pill,198,30,5,4,FRENCH,M,5,0.5,-78.8593211,1.1695001
600235988c6b062314984ac0,7,0,2024-02-28T14:41:23.018Z,english_317.wav,0,pill,198,30,5,4,FRENCH,M,6,0.6,-97.96541086,1.77666203
600235988c6b062314984ac0,7,0,2024-02-28T14:41:23.018Z,english_317.wav,0,pill,198,30,5,4,FRENCH,M,7,0.7,49.60543729,0.8164879
600235988c6b062314984ac0,7,0,2024-02-28T14:41:23.018Z,english_317.wav,0,pill,198,30,5,4,FRENCH,M,8,0.8,-69.92457952,0.08502592
600235988c6b062314984ac0,7,0,2024-02-28T14:41:23.018Z,english_317.wav,0,pill,198,30,5,4,FRENCH,M,9,0.9,-3.69767957,1.29069951
600235988c6b062314984ac0,7,0,2024-02-28T14:41:23.018Z,english_317.wav,0,pill,198,30,5,4,FRENCH,M,10,1.0,-3.35302539,0.64002495
600235988c6b062314984ac0,7,0,2024-02-28T14:41:23.018Z,english_317.wav,0,pill,198,30,5,4,FRENCH,M,11,1.09391667,29.32411719,1.74584587
600235988c6b062314984ac0,8,0,2024-02-28T14:41:23.018Z,english_293.wav,0,pill,1820,30,5,4,FRENCH,M,0,0.0,-41.6717185,1.35571263
600235988c6b062314984ac0,8,0,2024-02-28T14:41:23.018Z,english_293.wav,0,pill,1820,30,5,4,FRENCH,M,1,0.1,80.2291893,0.51147984
600235988c6b062314984ac0,8,0,2024-02-28T14:41:23.018Z,english_293.wav,0,pill,1820,30,5,4,FRENCH,M,2,0.2,-71.0140068,0.41951934
600235988c6b062314984ac0,8,0,2024-02-28T14:41:23.018Z,english_293.wav,0,pill,1820,30,5,4,FRENCH,M,3,0.3,-90.64066123,0.6442562
600235988c6b062314984ac0,8,0,2024-02-28T14:41:23.018Z,english_293.wav,0,pill,1820,30,5,4,FRENCH,M,4,0.4,-6.53332233,0.98522539
600235988c6b062314984ac0,8,0,2024-02-28T14:41:23.018Z,english_293.wav,0,pill,1820,30,5,4,FRENCH,M,5,0.5,-9.32979117,0.92132945
600235988c6b062314984ac0,8,0,2024-02-28T14:41:23.018Z,english_293.wav,0,pill,1820,30,5,4,FRENCH,M,6,0.6,53.89735235,1.4753131
600235988c6b062314984ac0,8,0,2024-02-28T14:41:23.018Z,english_293.wav,0,pill,1820,30,5,4,FRENCH,M,7,0.7,-63.4364313,0.11499708
600235988c6b062314984ac0,8,0,2024-02-28T14:41:23.018Z,english_293.wav,0,pill,1820,30,5,4,FRENCH,M,8,0.8,-96.19547901,1.03841664
600235988c6b062314984ac0,8,0,2024-02-28T14:41:23.018Z,english_293.wav,0,pill,1820,30,5,4,FRENCH,M,9,0.9,-36.41686224,1.94583411
600235988c6b062314984ac0,8,0,2024-02-28T14:41:23.018Z,english_293.wav,0,pill,1820,30,5,4,FRENCH,M,10,1.0,99.46412477,0.65545153
600235988c6b062314984ac0,8,0,2024-02-28T14:41:23.018Z,english_293.wav,0,pill,1820,30,5,4,FRENCH,M,11,1.09391667,17.36040502,1.59979165
600235988c6b062314984ac0,9,0,2024-02-28T14:41:23.018Z,english_145.wav,0,pill,228,30,5,4,FRENCH,M,0,0.0,33.46233159,0.5633393
600235988c6b062314984ac0,9,0,2024-02-28T14:41:23.018Z,english_145.wav,0,pill,228,30,5,4,FRENCH,M,1,0.1,-61.60936231,1.7411418
600235988c6b062314984ac0,9,0,2024-02-28T14:41:23.018Z,english_145.wav,0,pill,228,30,5,4,FRENCH,M,2,0.2,77.17787096,1.3932683
600235988c6b062314984ac0,9,0,2024-02-28T14:41:23.018Z,english_145.wav,0,pill,228,30,5,4,FRENCH,M,3,0.3,52.31633647,0.64008683
600235988c6b062314984ac0,9,0,2024-02-28T14:41:23.018Z,english_145.wav,0,pill,228,30,5,4,FRENCH,M,4,0.4,50.97764834,0.69845382
600235988c6b062314984ac0,9,0,2024-02-28T14:41:23.018Z,english_145.wav,0,pill,228,30,5,4,FRENCH,M,5,0.5,94.06594582,1.78155535
600235988c6b062314984ac0,9,0,2024-02-28T14:41:23.018Z,english_145.wav,0,pill,228,30,5,4,FRENCH,M,6,0.6,-40.82786952,0.94197467
600235988c6b062314984ac0,9,0,2024-02-28T14:41:23.018Z,english_145.wav,0,pill,228,30,5,4,FRENCH,M,7,0.7,-67.26734542,0.64900441
600235988c6b062314984ac0,9,0,2024-02-28T14:41:23.018Z,english_145.wav,0,pill,228,30,5,4,FRENCH,M,8,0.8,59.11900107,1.89522637
600235988c6b062314984ac0,9,0,2024-02-28T14:41:23.018Z,english_145.wav,0,pill,228,30,5,4,FRENCH,M,9,0.9,-56.17437001,0.96282543
600235988c6b062314984ac0,9,0,2024-02-28T14:41:23.018Z,english_145.wav,0,pill,228,30,5,4,FRENCH,M,10,1.0,-15.19613378,0.73054996
600235988c6b062314984ac0,9,0,2024-02-28T14:41:23.018Z,english_145.wav,0,pill,228,30,5,4,FRENCH,M,11,1.09391667,90.15311402,0.69896131
600235988c6b062314984ac0,10,0,2024-02-28T14:41:23.018Z,english_847.wav,0,pill,2527,30,5,4,FRENCH,M,0,0.0,-73.89717539,1.8490528
600235988c6b062314984ac0,10,0,2024-02-28T14:41:23.018Z,english_847.wav,0,pill,2527,30,5,4,FRENCH,M,1,0.1,58.2279035,0.78071375
600235988c6b062314984ac0,10,0,2024-02-28T14:41:23.018Z,english_847.wav,0,pill,2527,30,5,4,FRENCH,M,2,0.2,-6.95336522,0.52277753
600235988c6b062314984ac0,10,0,2024-02-28T14:41:23.018Z,english_847.wav,0,pill,2527,30,5,4,FRENCH,M,3,0.3,-22.95480777,0.58053559
600235988c6b062314984ac0,10,0,2024-02-28T14:41:23.018Z,english_847.wav,0,pill,2527,30,5,4,FRENCH,M,4,0.4,52.90135008,1.88784757
600235988c6b062314984ac0,10,0,2024-02-28T14:41:23.018Z,english_847.wav,0,pill,2527,30,5,4,FRENCH,M,5,0.5,-46.75765643,0.24672534
600235988c6b062314984ac0,10,0,2024-02-28T14:41:23.018Z,english_847.wav,0,pill,2527,30,5,4,FRENCH,M,6,0.6,30.49472427,0.03480907
600235988c6b062314984ac0,10,0,2024-02-28T14:41:23.018Z,english_847.wav,0,pill,2527,30,5,4,FRENCH,M,7,0.7,-69.71037967,1.27028129
600235988c6b062314984ac0,10,0,2024-02-28T14:41:23.018Z,english_847.wav,0,pill,2527,30,5,4,FRENCH,M,8,0.8,-58.62690345,0.5771855
600235988c6b062314984ac0,10,0,2024-02-28T14:41:23.018Z,english_847.wav,0,pill,2527,30,5,4,FRENCH,M,9,0.9,-33.68489601,1.71334453
600235988c6b062314984ac0,10,0,2024-02-28T14:41:23.018Z,english_847.wav,0,pill,2527,30,5,4,FRENCH,M,10,1.0,-73.6486263,0.92032767
600235988c6b062314984ac0,10,0,2024-02-28T14:41:23.018Z,english_847.wav,0,pill,2527,30,5,4,FRENCH,M,11,1.09391667,-82.9712864,0.36606921
600235988c6b062314984ac0,11,0,2024-02-28T14:41:23.018Z,english_648.wav,0,peel,2197,30,5,4,FRENCH,M,0,0.0,33.66524903,1.53800397
600235988c6b062314984ac0,11,0,2024-02-28T14:41:23.018Z,english_648.wav,0,peel,2197,30,5,4,FRENCH,M,1,0.1,97.98351088,1.15872761
600235988c6b062314984ac0,11,0,2024-02-28T14:41:23.018Z,english_648.wav,0,peel,2197,30,5,4,FRENCH,M,2,0.2,11.9794117,0.81425559
600235988c6b062314984ac0,11,0,2024-02-28T14:41:23.018Z,english_648.wav,0,peel,2197,30,5,4,FRENCH,M,3,0.3,29.55885348,0.88028101
600235988c6b062314984ac0,11,0,2024-02-28T14:41:23.018Z,english_648.wav,0,peel,2197,30,5,4,FRENCH,M,4,0.4,24.59728939,1.88326834
600235988c6b062314984ac0,11,0,2024-02-28T14:41:23.018Z,english_648.wav,0,peel,2197,30,5,4,FRENCH,M,5,0.5,59.2279724,1.09723956
600235988c6b062314984ac0,11,0,2024-02-28T14:41:23.018Z,english_648.wav,0,peel,2197,30,5,4,FRENCH,M,6,0.6,3.25949038,0.83602582
600235988c6b062314984ac0,11,0,2024-02-28T14:41:23.018Z,english_648.wav,0,peel,2197,30,5,4,FRENCH,M,7,0.7,-26.79620766,0.3704665
600235988c6b062314984ac0,11,0,2024-02-28T14:41:23.018Z,english_648.wav,0,peel,2197,30,5,4,FRENCH,M,8,0.8,98.3282455,0.87153578
600235988c6b062314984ac0,11,0,2024-02-28T14:41:23.018Z,english_648.wav,0,peel,2197,30,5,4,FRENCH,M,9,0.9,-78.7239126,1.50300547
600235988c6b062314984ac0,11,0,2024-02-28T14:41:23.018Z,english_648.wav,0,peel,2197,30,5,4,FRENCH,M,10,1.0,20.12137035,0.75356499
600235988c6b062314984ac0,11,0,2024-02-28T14:41:23.018Z,english_648.wav,0,peel,2197,30,5,4,FRENCH,M,11,1.09391667,-43.42156432,1.92538482
600235988c6b062314984ac0,12,0,2024-02-28T14:41:23.018Z,english_528.wav,0,pill,620,30,5,4,FRENCH,M,0,0.0,89.92931817,1.55464654
600235988c6b062314984ac0,12,0,2024-02-28T14:41:23.018Z,english_528.wav,0,pill,620,30,5,4,FRENCH,M,1,0.1,69.43761356,1.5693867
600235988c6b062314984ac0,12,0,2024-02-28T14:41:23.018Z,english_528.wav,0,pill,620,30,5,4,FRENCH,M,2,0.2,-74.63581074,0.24579909
600235988c6b062314984ac0,12,0,2024-02-28T14:41:23.018Z,english_528.wav,0,pill,620,30,5,4,FRENCH,M,3,0.3,66.94799646,0.89003704
600235988c6b062314984ac0,12,0,2024-02-28T14:41:23.018Z,english_528.wav,0,pill,620,30,5,4,FRENCH,M,4,0.4,93.4667874,0.02709789
600235988c6b062314984ac0,12,0,2024-02-28T14:41:23.018Z,english_528.wav,0,pill,620,30,5,4,FRENCH,M,5,0.5,-73.58583841,1.93159194
600235988c6b062314984ac0,12,0,2024-02-28T14:41:23.018Z,english_528.wav,0,pill,620,30,5,4,FRENCH,M,6,0.6,60.58074805,1.21534299
600235988c6b062314984ac0,12,0,2024-02-28T14:41:23.018Z,english_528.wav,0,pill,620,30,5,4,FRENCH,M,7,0.7,-19.51561534,1.54968918
600235988c6b062314984ac0,12,0,2024-02-28T14:41:23.018Z,english_528.wav,0,pill,620,30,5,4,FRENCH,M,8,0.8,1.50674214,1.22283315
600235988c6b062314984ac0,12,0,2024-02-28T14:41:23.018Z,english_528.wav,0,pill,620,30,5,4,FRENCH,M,9,0.9,-4.69145727,0.16463995
600235988c6b062314984ac0,12,0,2024-02-28T14:41:23.018Z,english_528.wav,0,pill,620,30,5,4,FRENCH,M,10,1.0,-90.65001005,0.26004795
600235988c6b062314984ac0,12,0,2024-02-28T14:41:23.018Z,english_528.wav,0,pill,620,30,5,4,FRENCH,M,11,1.09391667,80.40130965,0.00778095
600235988c6b062314984ac0,13,0,2024-02-28T14:41:23.018Z,english_566.wav,0,peel,280,30,5,4,FRENCH,M,0,0.0,-62.56630806,1.86832625
600235988c6b062314984ac0,13,0,2024-02-28T14:41:23.018Z,english_566.wav,0,peel,280,30,5,4,FRENCH,M,1,0.1,-47.88948562,0.16089863
600235988c6b062314984ac0,13,0,2024-02-28T14:41:23.018Z,english_566.wav,0,peel,280,30,5,4,FRENCH,M,2,0.2,32.64151801,0.0444821
600235988c6b062314984ac0,13,0,2024-02-28T14:41:23.018Z,english_566.wav,0,peel,280,30,5,4,FRENCH,M,3,0.3,-32.06511913,1.57257602
600235988c6b062314984ac0,13,0,2024-02-28T14:41:23.018Z,english_566.wav,0,peel,280,30,5,4,FRENCH,M,4,0.4,93.60270043,1.42885531
600235988c6b062314984ac0,13,0,2024-02-28T14:41:23.018Z,english_566.wav,0,peel,280,30,5,4,FRENCH,M,5,0.5,26.08771786,1.38538324
600235988c6b062314984ac0,13,0,2024-02-28T14:41:23.018Z,english_566.wav,0,peel,280,30,5,4,FRENCH,M,6,0.6,-3.7007295,1.01058653
600235988c6b062314984ac0,13,0,2024-02-28T14:41:23.018Z,english_566.wav,0,peel,280,30,5,4,FRENCH,M,7,0.7,58.86956752,0.52217054
600235988c6b062314984ac0,13,0,2024-02-28T14:41:23.018Z,english_566.wav,0,peel,280,30,5,4,FRENCH,M,8,0.8,-75.73304048,1.32659726
600235988c6b062314984ac0,13,0,2024-02-28T14:41:23.018Z,english_566.wav,0,peel,280,30,5,4,FRENCH,M,9,0.9,-35.43253665,0.88864926
600235988c6b062314984ac0,13,0,2024-02-28T14:41:23.018Z,english_566.wav,0,peel,280,30,5,4,FRENCH,M,10,1.0,-21.03744822,1.19784945
600235988c6b062314984ac0,13,0,2024-02-28T14:41:23.018Z,english_566.wav,0,peel,280,30,5,4,FRENCH,M,11,1.09391667,-19.58423429,0.92748285
600235988c6b062314984ac0,14,0,2024-02-28T14:41:23.018Z,english_151.wav,0,pill,16,30,5,4,FRENCH,M,0,0.0,-96.58356516,1.19663116
600235988c6b062314984ac0,14,0,2024-02-28T14:41:23.018Z,english_151.wav,0,pill,16,30,5,4,FRENCH,M,1,0.1,53.33507439,0.02049529
600235988c6b062314984ac0,14,0,2024-02-28T14:41:23.018Z,english_151.wav,0,pill,16,30,5,4,FRENCH,M,2,0.2,23.26881474,0.86701839
600235988c6b062314984ac0,14,0,2024-02-28T14:41:23.018Z,english_151.wav,0,pill,16,30,5,4,FRENCH,M,3,0.3,89.03249778,0.68926078
600235988c6b062314984ac0,14,0,2024-02-28T14:41:23.018Z,english_151.wav,0,pill,16,30,5,4,FRENCH,M,4,0.4,-38.82793041,0.60287098
600235988c6b062314984ac0,14,0,2024-02-28T14:41:23.018Z,english_151.wav,0,pill,16,30,5,4,FRENCH,M,5,0.5,-36.66004779,1.21623164
600235988c6b062314984ac0,14,0,2024-02-28T14:41:23.018Z,english_151.wav,0,pill,16,30,5,4,FRENCH,M,6,0.6,67.28889671,0.80619928
600235988c6b062314984ac0,14,0,2024-02-28T14:41:23.018Z,english_151.wav,0,pill,16,30,5,4,FRENCH,M,7,0.7,-0.40239481,0.32656555
600235988c6b062314984ac0,14,0,2024-02-28T14:41:23.018Z,english_151.wav,0,pill,16,30,5,4,FRENCH,M,8,0.8,-91.46427785,1.24233336
600235988c6b062314984ac0,14,0,2024-02-28T14:41:23.018Z,english_151.wav,0,pill,16,30,5,4,FRENCH,M,9,0.9,42.06624713,0.88095947
600235988c6b062314984ac0,14,0,2024-02-28T14:41:23.018Z,english_151.wav,0,pill,16,30,5,4,FRENCH,M,10,1.0,-44.58654352,1.51580141
600235988c6b062314984ac0,14,0,2024-02-28T14:41:23.018Z,english_151.wav,0,pill,16,30,5,4,FRENCH,M,11,1.09391667,65.09222406,0.37134413
600235988c6b062314984ac0,15,0,2024-02-28T14:41:23.018Z,english_664.wav,0,peel,380,30,5,4,FRENCH,M,0,0.0,87.83799753,0.80622544
600235988c6b062314984ac0,15,0,2024-02-28T14:41:23.018Z,english_664.wav,0,peel,380,30,5,4,FRENCH,M,1,0.1,93.07880912,0.71131531
600235988c6b062314984ac0,15,0,2024-02-28T14:41:23.018Z,english_664.wav,0,peel,380,30,5,4,FRENCH,M,2,0.2,-21.43792859,0.52490717
600235988c6b062314984ac0,15,0,2024-02-28T14:41:23.018Z,english_664.wav,0,peel,380,30,5,4,FRENCH,M,3,0.3,54.61607152,0.79105774
600235988c6b062314984ac0,15,0,2024-02-28T14:41:23.018Z,english_664.wav,0,peel,380,30,5,4,FRENCH,M,4,0.4,63.53186125,0.74894626
600235988c6b062314984ac0,15,0,2024-02-28T14:41:23.018Z,english_664.wav,0,peel,380,30,5,4,FRENCH,M,5,0.5,69.57332079,0.96341942
600235988c6b062314984ac0,15,0,2024-02-28T14:41:23.018Z,english_664.wav,0,peel,380,30,5,4,FRENCH,M,6,0.6,-98.283012,0.12490453
600235988c6b062314984ac0,15,0,2024-02-28T14:41:23.018Z,english_664.wav,0,peel,380,30,5,4,FRENCH,M,7,0.7,3.96514961,1.772086
600235988c6b062314984ac0,15,0,2024-02-28T14:41:23.018Z,english_664.wav,0,peel,380,30,5,4,FRENCH,M,8,0.8,-68.49765079,1.2138043
600235988c6b062314984ac0,15,0,2024-02-28T14:41:23.018Z,english_664.wav,0,peel,380,30,5,4,FRENCH,M,9,0.9,22.71561052,1.03968333
600235988c6b062314984ac0,15,0,2024-02-28T14:41:23.018Z,english_664.wav,0,peel,380,30,5,4,FRENCH,M,10,1.0,62.92065682,1.01702127
600235988c6b062314984ac0,15,0,2024-02-28T14:41:23.018Z,english_664.wav,0,peel,380,30,5,4,FRENCH,M,11,1.09391667,7.64063367,1.88905221
600235988c6b062314984ac0,16,0,2024-02-28T14:41:23.018Z,english_857.wav,0,pill,319,30,5,4,FRENCH,M,0,0.0,-56.93168928,1.92395656
600235988c6b062314984ac0,16,0,2024-02-28T14:41:23.018Z,english_857.wav,0,pill,319,30,5,4,FRENCH,M,1,0.1,-40.57515649,1.41156549
600235988c6b062314984ac0,16,0,2024-02-28T14:41:23.018Z,english_857.wav,0,pill,319,30,5,4,FRENCH,M,2,0.2,-26.26283105,0.14185194
600235988c6b062314984ac0,16,0,2024-02-28T14:41:23.018Z,english_857.wav,0,pill,319,30,5,4,FRENCH,M,3,0.3,-49.62797955,1.1985334
600235988c6b062314984ac0,16,0,2024-02-28T14:41:23.018Z,english_857.wav,0,pill,319,30,5,4,FRENCH,M,4,0.4,47.07146778,0.83326814
600235988c6b062314984ac0,16,0,2024-02-28T14:41:23.018Z,english_857.wav,0,pill,319,30,5,4,FRENCH,M,5,0.5,-96.41882062,0.71224123
600235988c6b062314984ac0,16,0,2024-02-28T14:41:23.018Z,english_857.wav,0,pill,319,30,5,4,FRENCH,M,6,0.6,63.09662026,1.58040322
600235988c6b062314984ac0,16,0,2024-02-28T14:41:23.018Z,english_857.wav,0,pill,319,30,5,4,FRENCH,M,7,0.7,98.67053018,1.02327595
600235988c6b062314984ac0,16,0,2024-02-28T14:41:23.018Z,english_857.wav,0,pill,319,30,5,4,FRENCH,M,8,0.8,-56.85749065,1.48703987
600235988c6b062314984ac0,16,0,2024-02-28T14:41:23.018Z,english_857.wav,0,pill,319,30,5,4,FRENCH,M,9,0.9,-18.03690135,0.70290333
600235988c6b062314984ac0,16,0,2024-02-28T14:41:23.018Z,english_857.wav,0,pill,319,30,5,4,FRENCH,M,10,1.0,52.13097753,0.53460392
600235988c6b062314984ac0,16,0,2024-02-28T14:41:23.018Z,english_857.wav,0,pill,319,30,5,4,FRENCH,M,11,1.09391667,52.54650928,1.10851945
600235988c6b062314984ac0,17,0,2024-02-28T14:41:23.018Z,english_58.wav,0,peel,39,30,5,4,FRENCH,M,0,0.0,-46.52390323,0.35126105
600235988c6b062314984ac0,17,0,2024-02-28T14:41:23.018Z,english_58.wav,0,peel,39,30,5,4,FRENCH,M,1,0.1,19.23789521,1.12280932
600235988c6b062314984ac0,17,0,2024-02-28T14:41:23.018Z,english_58.wav,0,peel,39,30,5,4,FRENCH,M,2,0.2,69.12106093,0.45102457
600235988c6b062314984ac0,17,0,2024-02-28T14:41:23.018Z,english_58.wav,0,peel,39,30,5,4,FRENCH,M,3,0.3,-43.53874687,1.46305127
600235988c6b062314984ac0,17,0,2024-02-28T14:41:23.018Z,english_58.wav,0,peel,39,30,5,4,FRENCH,M,4,0.4,-56.35842904,1.909583
600235988c6b062314984ac0,17,0,2024-02-28T14:41:23.018Z,english_58.wav,0,peel,39,30,5,4,FRENCH,M,5,0.5,7.35134255,1.54363939
600235988c6b062314984ac0,17,0,2024-02-28T14:41:23.018Z,english_58.wav,0,peel,39,30,5,4,FRENCH,M,6,0.6,-28.20207265,0.80451607
600235988c6b062314984ac0,17,0,2024-02-28T14:41:23.018Z,english_58.wav,0,peel,39,30,5,4,FRENCH,M,7,0.7,-78.68633359,1.94404618
600235988c6b062314984ac0,17,0,2024-02-28T14:41:23.018Z,english_58.wav,0,peel,39,30,5,4,FRENCH,M,8,0.8,27.00073493,0.82845057
600235988c6b062314984ac0,17,0,2024-02-28T14:41:23.018Z,english_58.wav,0,peel,39,30,5,4,FRENCH,M,9,0.9,-36.58564369,1.3978679
600235988c6b062314984ac0,17,0,2024-02-28T14:41:23.018Z,english_58.wav,0,peel,39,30,5,4,FRENCH,M,10,1.0,4.57816085,1.7044559
600235988c6b062314984ac0,17,0,2024-02-28T14:41:23.018Z,english_58.wav,0,peel,39,30,5,4,FRENCH,M,11,1.09391667,-5.20378192,0.16192575
600235988c6b062314984ac0,18,0,2024-02-28T14:41:23.018Z,english_633.wav,0,pill,131,30,5,4,FRENCH,M,0,0.0,-29.53329055,1.81413682
600235988c6b062314984ac0,18,0,2024-02-28T14:41:23.018Z,english_633.wav,0,pill,131,30,5,4,FRENCH,M,1,0.1,-55.17737052,1.23507598
600235988c6b062314984ac0,18,0,2024-02-28T14:41:23.018Z,english_633.wav,0,pill,131,30,5,4,FRENCH,M,2,0.2,58.22185342,1.2508175
600235988c6b062314984ac0,18,0,2024-02-28T14:41:23.018Z,english_633.wav,0,pill,131,30,5,4,FRENCH,M,3,0.3,-43.06637085,0.42299618
600235988c6b062314984ac0,18,0,2024-02-28T14:41:23.018Z,english_633.wav,0,pill,131,30,5,4,FRENCH,M,4,0.4,76.59680907,0.12183449
600235988c6b062314984ac0,18,0,2024-02-28T14:41:23.018Z,english_633.wav,0,pill,131,30,5,4,FRENCH,M,5,0.5,52.74440756,0.93446119
600235988c6b062314984ac0,18,0,2024-02-28T14:41:23.018Z,english_633.wav,0,pill,131,30,5,4,FRENCH,M,6,0.6,-26.52378851,1.44820206
600235988c6b062314984ac0,18,0,2024-02-28T14:41:23.018Z,english_633.wav,0,pill,131,30,5,4,FRENCH,M,7,0.7,-16.86813106,0.73029459
600235988c6b062314984ac0,18,0,2024-02-28T14:41:23.018Z,english_633.wav,0,pill,131,30,5,4,FRENCH,M,8,0.8,7.65419617,0.16870505
600235988c6b062314984ac0,18,0,2024-02-28T14:41:23.018Z,english_633.wav,0,pill,131,30,5,4,FRENCH,M,9,0.9,2.97223231,1.17828847
600235988c6b062314984ac0,18,0,2024-02-28T14:41:23.018Z,english_633.wav,0,pill,131,30,5,4,FRENCH,M,10,1.0,-42.35584202,0.62674429
600235988c6b062314984ac0,18,0,2024-02-28T14:41:23.018Z,english_633.wav,0,pill,131,30,5,4,FRENCH,M,11,1.09391667,-84.52233477,0.94849203
600235988c6b062314984ac0,19,0,2024-02-28T14:41:23.018Z,english_245.wav,0,peel,160,30,5,4,FRENCH,M,0,0.0,-3.94489453,1.87262136
600235988c6b062314984ac0,19,0,2024-02-28T14:41:23.018Z,english_245.wav,0,peel,160,30,5,4,FRENCH,M,1,0.1,93.78845114,1.5911659
600235988c6b062314984ac0,19,0,2024-02-28T14:41:23.018Z,english_245.wav,0,peel,160,30,5,4,FRENCH,M,2,0.2,-15.4175353,0.77224849
600235988c6b062314984ac0,19,0,2024-02-28T14:41:23.018Z,english_245.wav,0,peel,160,30,5,4,FRENCH,M,3,0.3,69.96206512,1.66276975
600235988c6b062314984ac0,19,0,2024-02-28T14:41:23.018Z,english_245.wav,0,peel,160,30,5,4,FRENCH,M,4,0.4,-2.81275051,0.59757366
600235988c6b062314984ac0,19,0,2024-02-28T14:41:23.018Z,english_245.wav,0,peel,160,30,5,4,FRENCH,M,5,0.5,-99.06344561,1.2271396
600235988c6b062314984ac0,19,0,2024-02-28T14:41:23.018Z,english_245.wav,0,peel,160,30,5,4,FRENCH,M,6,0.6,93.3644365,0.27105927
600235988c6b062314984ac0,19,0,2024-02-28T14:41:23.018Z,english_245.wav,0,peel,160,30,5,4,FRENCH,M,7,0.7,38.15823311,1.13207073
600235988c6b062314984ac0,19,0,2024-02-28T14:41:23.018Z,english_245.wav,0,peel,160,30,5,4,FRENCH,M,8,0.8,51.44383365,0.42497597
600235988c6b062314984ac0,19,0,2024-02-28T14:41:23.018Z,english_245.wav,0,peel,160,30,5,4,FRENCH,M,9,0.9,19.95795113,0.54403667
600235988c6b062314984ac0,19,0,2024-02-28T14:41:23.018Z,english_245.wav,0,peel,160,30,5,4,FRENCH,M,10,1.0,-68.88770698,0.3131135
600235988c6b062314984ac0,19,0,2024-02-28T14:41:23.018Z,english_245.wav,0,peel,160,30,5,4,FRENCH,M,11,1.09391667,99.45926262,1.0229568
600235988c6b062314984ac0,20,0,2024-02-28T14:41:23.018Z,english_523.wav,0,pill,113,30,5,4,FRENCH,M,0,0.0,-25.97539799,0.34449626
600235988c6b062314984ac0,20,0,2024-02-28T14:41:23.018Z,english_523.wav,0,pill,113,30,5,4,FRENCH,M,1,0.1,-25.11108095,0.18549089
600235988c6b062314984ac0,20,0,2024-02-28T14:41:23.018Z,english_523.wav,0,pill,113,30,5,4,FRENCH,M,2,0.2,-67.4070828,1.10257375
600235988c6b062314984ac0,20,0,2024-02-28T14:41:23.018Z,english_523.wav,0,pill,113,30,5,4,FRENCH,M,3,0.3,14.34055957,0.39893493
600235988c6b062314984ac0,20,0,2024-02-28T14:41:23.018Z,english_523.wav,0,pill,113,30,5,4,FRENCH,M,4,0.4,10.27536217,1.8821087
600235988c6b062314984ac0,20,0,2024-02-28T14:41:23.018Z,english_523.wav,0,pill,113,30,5,4,FRENCH,M,5,0.5,2.68899624,1.33802983
600235988c6b062314984ac0,20,0,2024-02-28T14:41:23.018Z,english_523.wav,0,pill,113,30,5,4,FRENCH,M,6,0.6,5.43637058,1.93381979
600235988c6b062314984ac0,20,0,2024-02-28T14:41:23.018Z,english_523.wav,0,pill,113,30,5,4,FRENCH,M,7,0.7,84.96836729,1.3963609
600235988c6b062314984ac0,20,0,2024-02-28T14:41:23.018Z,english_523.wav,0,pill,113,30,5,4,FRENCH,M,8,0.8,0.15377924,0.58447079
600235988c6b062314984ac0,20,0,2024-02-28T14:41:23.018Z,english_523.wav,0,pill,113,30,5,4,FRENCH,M,9,0.9,-34.21093103,0.41716989
600235988c6b062314984ac0,20,0,2024-02-28T14:41:23.018Z,english_523.wav,0,pill,113,30,5,4,FRENCH,M,10,1.0,-94.05275706,1.25827867
600235988c6b062314984ac0,20,0,2024-02-28T14:41:23.018Z,english_523.wav,0,pill,113,30,5,4,FRENCH,M,11,1.09391667,-75.26058007,0.83944497
600235988c6b062314984ac0,21,0,2024-02-28T14:41:23.018Z,english_720.wav,0,peel,32,30,5,4,FRENCH,M,0,0.0,46.77057766,0.94113564
600235988c6b062314984ac0,21,0,2024-02-28T14:41:23.018Z,english_720.wav,0,peel,32,30,5,4,FRENCH,M,1,0.1,6.53423564,0.426958
600235988c6b062314984ac0,21,0,2024-02-28T14:41:23.018Z,english_720.wav,0,peel,32,30,5,4,FRENCH,M,2,0.2,87.60072251,0.98755995
600235988c6b062314984ac0,21,0,2024-02-28T14:41:23.018Z,english_720.wav,0,peel,32,30,5,4,FRENCH,M,3,0.3,96.80442869,1.5976329
600235988c6b062314984ac0,21,0,2024-02-28T14:41:23.018Z,english_720.wav,0,peel,32,30,5,4,FRENCH,M,4,0.4,-66.64150433,0.77306227
600235988c6b062314984ac0,21,0,2024-02-28T14:41:23.018Z,english_720.wav,0,peel,32,30,5,4,FRENCH,M,5,0.5,-65.5107245,0.84513323
600235988c6b062314984ac0,21,0,2024-02-28T14:41:23.018Z,english_720.wav,0,peel,32,30,5,4,FRENCH,M,6,0.6,-89.05316387,1.55668389
600235988c6b062314984ac0,21,0,2024-02-28T14:41:23.018Z,english_720.wav,0,peel,32,30,5,4,FRENCH,M,7,0.7,-94.07157603,0.13811629
600235988c6b062314984ac0,21,0,2024-02-28T14:41:23.018Z,english_720.wav,0,peel,32,30,5,4,FRENCH,M,8,0.8,-1.26954852,1.01089963
600235988c6b062314984ac0,21,0,2024-02-28T14:41:23.018Z,english_720.wav,0,peel,32,30,5,4,FRENCH,M,9,0.9,-25.92154029,1.10803593
600235988c6b062314984ac0,21,0,2024-02-28T14:41:23.018Z,english_720.wav,0,peel,32,30,5,4,FRENCH,M,10,1.0,24.94515678,1.26621877
600235988c6b062314984ac0,21,0,2024-02-28T14:41:23.018Z,english_720.wav,0,peel,32,30,5,4,FRENCH,M,11,1.09391667,-38.69158076,0.96623921
600235988c6b062314984ac0,22,0,2024-02-28T14:41:23.018Z,english_507.wav,0,pill,158,30,5,4,FRENCH,M,0,0.0,-12.02429693,0.63959218
600235988c6b062314984ac0,22,0,2024-02-28T14:41:23.018Z,english_507.wav,0,pill,158,30,5,4,FRENCH,M,1,0.1,23.48023528,0.78683895
600235988c6b062314984ac0,22,0,2024-02-28T14:41:23.018Z,english_507.wav,0,pill,158,30,5,4,FRENCH,M,2,0.2,75.86591316,1.2814873
600235988c6b062314984ac0,22,0,2024-02-28T14:41:23.018Z,english_507.wav,0,pill,158,30,5,4,FRENCH,M,3,0.3,-83.47756384,0.67977555
600235988c6b062314984ac0,22,0,2024-02-28T14:41:23.018Z,english_507.wav,0,pill,158,30,5,4,FRENCH,M,4,0.4,81.92852434,0.92992814
600235988c6b062314984ac0,22,0,2024-02-28T14:41:23.018Z,english_507.wav,0,pill,158,30,5,4,FRENCH,M,5,0.5,87.67744716,1.13175549
600235988c6b062314984ac0,22,0,2024-02-28T14:41:23.018Z,english_507.wav,0,pill,158,30,5,4,FRENCH,M,6,0.6,-16.33781488,0.10459473
600235988c6b062314984ac0,22,0,2024-02-28T14:41:23.018Z,english_507.wav,0,pill,158,30,5,4,FRENCH,M,7,0.7,-17.50205237,1.89307031
600235988c6b062314984ac0,22,0,2024-02-28T14:41:23.018Z,english_507.wav,0,pill,158,30,5,4,FRENCH,M,8,0.8,45.24056119,1.08894135
600235988c6b062314984ac0,22,0,2024-02-28T14:41:23.018Z,english_507.wav,0,pill,158,30,5,4,FRENCH,M,9,0.9,-41.17324019,1.66565612
600235988c6b062314984ac0,22,0,2024-02-28T14:41:23.018Z,english_507.wav,0,pill,158,30,5,4,FRENCH,M,10,1.0,-35.51150679,1.23960277
600235988c6b062314984ac0,22,0,2024-02-28T14:41:23.018Z,english_507.wav,0,pill,158,30,5,4,FRENCH,M,11,1.09391667,-42.23976402,0.80282923
600235988c6b062314984ac0,23,0,2024-02-28T14:41:23.018Z,english_723.wav,0,peel,407,30,5,4,FRENCH,M,0,0.0,41.38539941,1.7889603
600235988c6b062314984ac0,23,0,2024-02-28T14:41:23.018Z,english_723.wav,0,peel,407,30,5,4,FRENCH,M,1,0.1,-10.01095303,0.1038592
600235988c6b062314984ac0,23,0,2024-02-28T14:41:23.018Z,english_723.wav,0,peel,407,30,5,4,FRENCH,M,2,0.2,29.27272113,0.53110076
600235988c6b062314984ac0,23,0,2024-02-28T14:41:23.018Z,english_723.wav,0,peel,407,30,5,4,FRENCH,M,3,0.3,-49.7176535,0.29760974
600235988c6b062314984ac0,23,0,2024-02-28T14:41:23.018Z,english_723.wav,0,peel,407,30,5,4,FRENCH,M,4,0.4,-10.52042461,1.31106604
600235988c6b062314984ac0,23,0,2024-02-28T14:41:23.018Z,english_723.wav,0,peel,407,30,5,4,FRENCH,M,5,0.5,-43.11656662,0.93542765
600235988c6b062314984ac0,23,0,2024-02-28T14:41:23.018Z,english_723.wav,0,peel,407,30,5,4,FRENCH,M,6,0.6,-24.09481257,1.32967349
600235988c6b062314984ac0,23,0,2024-02-28T14:41:23.018Z,english_723.wav,0,peel,407,30,5,4,FRENCH,M,7,0.7,61.11286308,1.11219452
600235988c6b062314984ac0,23,0,2024-02-28T14:41:23.018Z,english_723.wav,0,peel,407,30,5,4,FRENCH,M,8,0.8,-37.09128746,0.4392085
600235988c6b062314984ac0,23,0,2024-02-28T14:41:23.018Z,english_723.wav,0,peel,407,30,5,4,FRENCH,M,9,0.9,71.58023837,1.93673799
600235988c6b062314984ac0,23,0,2024-02-28T14:41:23.018Z,english_723.wav,0,peel,407,30,5,4,FRENCH,M,10,1.0,30.56657054,0.01664343
600235988c6b062314984ac0,23,0,2024-02-28T14:41:23.018Z,english_723.wav,0,peel,407,30,5,4,FRENCH,M,11,1.09391667,-5.36806636,0.22848658
600235988c6b062314984ac0,24,0,2024-02-28T14:41:23.018Z,english_535.wav,0,pill,579,30,5,4,FRENCH,M,0,0.0,-4.00375318,0.74823916
600235988c6b062314984ac0,24,0,2024-02-28T14:41:23.018Z,english_535.wav,0,pill,579,30,5,4,FRENCH,M,1,0.1,-37.57387138,0.9109632
600235988c6b062314984ac0,24,0,2024-02-28T14:41:23.018Z,english_535.wav,0,pill,579,30,5,4,FRENCH,M,2,0.2,-31.12595353,0.84755902
600235988c6b062314984ac0,24,0,2024-02-28T14:41:23.018Z,english_535.wav,0,pill,579,30,5,4,FRENCH,M,3,0.3,2.06341331,1.09662022
600235988c6b062314984ac0,24,0,2024-02-28T14:41:23.018Z,english_535.wav,0,pill,579,30,5,4,FRENCH,M,4,0.4,56.11576492,0.26254995
600235988c6b062314984ac0,24,0,2024-02-28T14:41:23.018Z,english_535.wav,0,pill,579,30,5,4,FRENCH,M,5,0.5,30.13214978,1.29967994
600235988c6b062314984ac0,24,0,2024-02-28T14:41:23.018Z,english_535.wav,0,pill,579,30,5,4,FRENCH,M,6,0.6,14.78197265,1.50452532
600235988c6b062314984ac0,24,0,2024-02-28T14:41:23.018Z,english_535.wav,0,pill,579,30,5,4,FRENCH,M,7,0.7,-18.38930177,1.51808924
600235988c6b062314984ac0,24,0,2024-02-28T14:41:23.018Z,english_535.wav,0,pill,579,30,5,4,FRENCH,M,8,0.8,-10.54396075,0.34439234
600235988c6b062314984ac0,24,0,2024-02-28T14:41:23.018Z,english_535.wav,0,pill,579,30,5,4,FRENCH,M,9,0.9,39.09773013,0.86790386
600235988c6b062314984ac0,24,0,2024-02-28T14:41:23.018Z,english_535.wav,0,pill,579,30,5,4,FRENCH,M,10,1.0,46.13111143,0.86784134
600235988c6b062314984ac0,24,0,2024-02-28T14:41:23.018Z,english_535.wav,0,pill,579,30,5,4,FRENCH,M,11,1.09391667,-64.44597459,0.57511998
600235988c6b062314984ac0,25,0,2024-02-28T14:41:23.018Z,english_697.wav,0,peel,388,30,5,4,FRENCH,M,0,0.0,-28.25272972,0.74562658
600235988c6b062314984ac0,25,0,2024-02-28T14:41:23.018Z,english_697.wav,0,peel,388,30,5,4,FRENCH,M,1,0.1,9.35350144,1.65036421
600235988c6b062314984ac0,25,0,2024-02-28T14:41:23.018Z,english_697.wav,0,peel,388,30,5,4,FRENCH,M,2,0.2,-7.31902563,0.51352458
600235988c6b062314984ac0,25,0,2024-02-28T14:41:23.018Z,english_697.wav,0,peel,388,30,5,4,FRENCH,M,3,0.3,-28.05711443,1.22091514
600235988c6b062314984ac0,25,0,2024-02-28T14:41:23.018Z,english_697.wav,0,peel,388,30,5,4,FRENCH,M,4,0.4,-24.84079268,0.19652908
600235988c6b062314984ac0,25,0,2024-02-28T14:41:23.018Z,english_697.wav,0,peel,388,30,5,4,FRENCH,M,5,0.5,-11.64681016,1.30348786
600235988c6b062314984ac0,25,0,2024-02-28T14:41:23.018Z,english_697.wav,0,peel,388,30,5,4,FRENCH,M,6,0.6,-31.01161183,0.73369273
600235988c6b062314984ac0,25,0,2024-02-28T14:41:23.018Z,english_697.wav,0,peel,388,30,5,4,FRENCH,M,7,0.7,8.33198828,1.45670074
600235988c6b062314984ac0,25,0,2024-02-28T14:41:23.018Z,english_697.wav,0,peel,388,30,5,4,FRENCH,M,8,0.8,2.96881997,0.3217924
600235988c6b062314984ac0,25,0,2024-02-28T14:41:23.018Z,english_697.wav,0,peel,388,30,5,4,FRENCH,M,9,0.9,1.22757185,0.26155094
600235988c6b062314984ac0,25,0,2024-02-28T14:41:23.018Z,english_697.wav,0,peel,388,30,5,4,FRENCH,M,10,1.0,14.4901502,1.78541804
600235988c6b062314984ac0,25,0,2024-02-28T14:41:23.018Z,english_697.wav,0,peel,388,30,5,4,FRENCH,M,11,1.09391667,-93.23839425,0.76602212
600235988c6b062314984ac0,26,0,2024-02-28T14:41:23.018Z,english_5.wav,0,pill,102,30,5,4,FRENCH,M,0,0.0,-71.05887053,0.69305634
600235988c6b062314984ac0,26,0,2024-02-28T14:41:23.018Z,english_5.wav,0,pill,102,30,5,4,FRENCH,M,1,0.1,-36.04846502,1.95331705
600235988c6b062314984ac0,26,0,2024-02-28T14:41:23.018Z,english_5.wav,0,pill,102,30,5,4,FRENCH,M,2,0.2,68.09307416,0.24939242
600235988c6b062314984ac0,26,0,2024-02-28T14:41:23.018Z,english_5.wav,0,pill,102,30,5,4,FRENCH,M,3,0.3,-71.61609357,1.30786136
600235988c6b062314984ac0,26,0,2024-02-28T14:41:23.018Z,english_5.wav,0,pill,102,30,5,4,FRENCH,M,4,0.4,-14.92970524,0.35721873
600235988c6b062314984ac0,26,0,2024-02-28T14:41:23.018Z,english_5.wav,0,pill,102,30,5,4,FRENCH,M,5,0.5,36.04461977,1.66367269
600235988c6b062314984ac0,26,0,2024-02-28T14:41:23.018Z,english_5.wav,0,pill,102,30,5,4,FRENCH,M,6,0.6,61.01603353,1.49043319
600235988c6b062314984ac0,26,0,2024-02-28T14:41:23.018Z,english_5.wav,0,pill,102,30,5,4,FRENCH,M,7,0.7,22.04787058,1.08702194
600235988c6b062314984ac0,26,0,2024-02-28T14:41:23.018Z,english_5.wav,0,pill,102,30,5,4,FRENCH,M,8,0.8,-76.70141108,0.32363826
600235988c6b062314984ac0,26,0,2024-02-28T14:41:23.018Z,english_5.wav,0,pill,102,30,5,4,FRENCH,M,9,0.9,72.36411847,0.22271442
600235988c6b062314984ac0,26,0,2024-02-28T14:41:23.018Z,english_5.wav,0,pill,102,30,5,4,FRENCH,M,10,1.0,-2.42248121,1.0907403
600235988c6b062314984ac0,26,0,2024-02-28T14:41:23.018Z,english_5.wav,0,pill,102,30,5,4,FRENCH,M,11,1.09391667,-45.78406478,0.00462457
600235988c6b062314984ac0,27,0,2024-02-28T14:41:23.018Z,english_640.wav,0,pill,108,30,5,4,FRENCH,M,0,0.0,61.20375749,0.85142229
600235988c6b062314984ac0,27,0,2024-02-28T14:41:23.018Z,english_640.wav,0,pill,108,30,5,4,FRENCH,M,1,0.1,-16.1857947,0.85767155
600235988c6b062314984ac0,27,0,2024-02-28T14:41:23.018Z,english_640.wav,0,pill,108,30,5,4,FRENCH,M,2,0.2,6.11258798,0.88844778
600235988c6b062314984ac0,27,0,2024-02-28T14:41:23.018Z,english_640.wav,0,pill,108,30,5,4,FRENCH,M,3,0.3,95.92721012,1.39275841
600235988c6b062314984ac0,27,0,2024-02-28T14:41:23.018Z,english_640.wav,0,pill,108,30,5,4,FRENCH,M,4,0.4,93.14129024,1.52098415
600235988c6b062314984ac0,27,0,2024-02-28T14:41:23.018Z,english_640.wav,0,pill,108,30,5,4,FRENCH,M,5,0.5,-89.55913941,1.55322116
600235988c6b062314984ac0,27,0,2024-02-28T14:41:23.018Z,english_640.wav,0,pill,108,30,5,4,FRENCH,M,6,0.6,57.55264462,0.8538103
600235988c6b062314984ac0,27,0,2024-02-28T14:41:23.018Z,english_640.wav,0,pill,108,30,5,4,FRENCH,M,7,0.7,31.50273718,0.01301989
600235988c6b062314984ac0,27,0,2024-02-28T14:41:23.018Z,english_640.wav,0,pill,108,30,5,4,FRENCH,M,8,0.8,14.91560265,1.48414579
600235988c6b062314984ac0,27,0,2024-02-28T14:41:23.018Z,english_640.wav,0,pill,108,30,5,4,FRENCH,M,9,0.9,73.92386032,0.86811695
600235988c6b062314984ac0,27,0,2024-02-28T14:41:23.018Z,english_640.wav,0,pill,108,30,5,4,FRENCH,M,10,1.0,71.81694375,1.48550262
600235988c6b062314984ac0,27,0,2024-02-28T14:41:23.018Z,english_640.wav,0,pill,108,30,5,4,FRENCH,M,11,1.09391667,86.11531977,1.24176268
600235988c6b062314984ac0,28,0,2024-02-28T14:41:23.018Z,english_108.wav,0,pill,82,30,5,4,FRENCH,M,0,0.0,-72.12984017,0.26945128
600235988c6b062314984ac0,28,0,2024-02-28T14:41:23.018Z,english_108.wav,0,pill,82,30,5,4,FRENCH,M,1,0.1,8.19812644,1.01925784
600235988c6b062314984ac0,28,0,2024-02-28T14:41:23.018Z,english_108.wav,0,pill,82,30,5,4,FRENCH,M,2,0.2,78.6546888,1.32918217
600235988c6b062314984ac0,28,0,2024-02-28T14:41:23.018Z,english_108.wav,0,pill,82,30,5,4,FRENCH,M,3,0.3,-30.04278384,0.63536527
600235988c6b062314984ac0,28,0,2024-02-28T14:41:23.018Z,english_108.wav,0,pill,82,30,5,4,FRENCH,M,4,0.4,-12.36369755,1.19436668
600235988c6b062314984ac0,28,0,2024-02-28T14:41:23.018Z,english_108.wav,0,pill,82,30,5,4,FRENCH,M,5,0.5,70.67382026,0.3289366
600235988c6b062314984ac0,28,0,2024-02-28T14:41:23.018Z,english_108.wav,0,pill,82,30,5,4,FRENCH,M,6,0.6,-56.34929952,1.40732185
600235988c6b062314984ac0,28,0,2024-02-28T14:41:23.018Z,english_108.wav,0,pill,82,30,5,4,FRENCH,M,7,0.7,-58.84895788,0.91014899
600235988c6b062314984ac0,28,0,2024-02-28T14:41:23.018Z,english_108.wav,0,pill,82,30,5,4,FRENCH,M,8,0.8,-57.8473435,0.89824174
600235988c6b062314984ac0,28,0,2024-02-28T14:41:23.018Z,english_108.wav,0,pill,82,30,5,4,FRENCH,M,9,0.9,74.00200547,0.75928312
600235988c6b062314984ac0,28,0,2024-02-28T14:41:23.018Z,english_108.wav,0,pill,82,30,5,4,FRENCH,M,10,1.0,14.31080133,1.3591553
600235988c6b062314984ac0,28,0,2024-02-28T14:41:23.018Z,english_108.wav,0,pill,82,30,5,4,FRENCH,M,11,1.09391667,52.36561827,1.12113776
600235988c6b062314984ac0,29,0,2024-02-28T14:41:23.018Z,english_248.wav,0,peel,184,30,5,4,FRENCH,M,0,0.0,-77.65935665,1.91143756
600235988c6b062314984ac0,29,0,2024-02-28T14:41:23.018Z,english_248.wav,0,peel,184,30,5,4,FRENCH,M,1,0.1,13.01307899,0.95656899
600235988c6b062314984ac0,29,0,2024-02-28T14:41:23.018Z,english_248.wav,0,peel,184,30,5,4,FRENCH,M,2,0.2,-6.27197977,0.05318577
600235988c6b062314984ac0,29,0,2024-02-28T14:41:23.018Z,english_248.wav,0,peel,184,30,5,4,FRENCH,M,3,0.3,99.77801709,1.67121165
600235988c6b062314984ac0,29,0,2024-02-28T14:41:23.018Z,english_248.wav,0,peel,184,30,5,4,FRENCH,M,4,0.4,-3.73096601,0.67240869
600235988c6b062314984ac0,29,0,2024-02-28T14:41:23.018Z,english_248.wav,0,peel,184,30,5,4,FRENCH,M,5,0.5,48.17717711,1.00234822
600235988c6b062314984ac0,29,0,2024-02-28T14:41:23.018Z,english_248.wav,0,peel,184,30,5,4,FRENCH,M,6,0.6,-36.84313939,0.30376957
600235988c6b062314984ac0,29,0,2024-02-28T14:41:23.018Z,english_248.wav,0,peel,184,30,5,4,FRENCH,M,7,0.7,-61.99766544,1.01064126
600235988c6b062314984ac0,29,0,2024-02-28T14:41:23.018Z,english_248.wav,0,peel,184,30,5,4,FRENCH,M,8,0.8,-76.82864618,1.57737707
600235988c6b062314984ac0,29,0,2024-02-28T14:41:23.018Z,english_248.wav,0,peel,184,30,5,4,FRENCH,M,9,0.9,-38.01252631,0.84763517
600235988c6b062314984ac0,29,0,2024-02-28T14:41:23.018Z,english_248.wav,0,peel,184,30,5,4,FRENCH,M,10,1.0,85.29761704,1.67346182
600235988c6b062314984ac0,29,0,2024-02-28T14:41:23.018Z,english_248.wav,0,peel,184,30,5,4,FRENCH,M,11,1.09391667,46.87388229,0.28083573
600235988c6b062314984ac0,30,0,2024-02-28T14:41:23.018Z,english_509.wav,0,peel,212,30,5,4,FRENCH,M,0,0.0,-60.47633283,1.8433091
600235988c6b062314984ac0,30,0,2024-02-28T14:41:23.018Z,english_509.wav,0,peel,212,30,5,4,FRENCH,M,1,0.1,62.43182062,0.67753575
600235988c6b062314984ac0,30,0,2024-02-28T14:41:23.018Z,english_509.wav,0,peel,212,30,5,4,FRENCH,M,2,0.2,-89.10254598,0.6228286
600235988c6b062314984ac0,30,0,2024-02-28T14:41:23.018Z,english_509.wav,0,peel,212,30,5,4,FRENCH,M,3,0.3,-56.00324349,1.20175852
600235988c6b062314984ac0,30,0,2024-02-28T14:41:23.018Z,english_509.wav,0,peel,212,30,5,4,FRENCH,M,4,0.4,-22.97503075,0.68327781
600235988c6b062314984ac0,30,0,2024-02-28T14:41:23.018Z,english_509.wav,0,peel,212,30,5,4,FRENCH,M,5,0.5,-10.58010289,1.6981399
600235988c6b062314984ac0,30,0,2024-02-28T14:41:23.018Z,english_509.wav,0,peel,212,30,5,4,FRENCH,M,6,0.6,41.52809509,1.77808046
600235988c6b062314984ac0,30,0,2024-02-28T14:41:23.018Z,english_509.wav,0,peel,212,30,5,4,FRENCH,M,7,0.7,11.42336317,0.9915964
600235988c6b062314984ac0,30,0,2024-02-28T14:41:23.018Z,english_509.wav,0,peel,212,30,5,4,FRENCH,M,8,0.8,-33.49389875,1.58247003
600235988c6b062314984ac0,30,0,2024-02-28T14:41:23.018Z,english_509.wav,0,peel,212,30,5,4,FRENCH,M,9,0.9,-76.54160855,0.51702523
600235988c6b062314984ac0,30,0,2024-02-28T14:41:23.018Z,english_509.wav,0,peel,212,30,5,4,FRENCH,M,10,1.0,67.53120636,1.67242009
600235988c6b062314984ac0,30,0,2024-02-28T14:41:23.018Z,english_509.wav,0,peel,212,30,5,4,FRENCH,M,11,1.09391667,52.42137891,0.41732509
600235988c6b062314984ac0,31,0,2024-02-28T14:41:23.018Z,english_255.wav,0,pill,117,30,5,4,FRENCH,M,0,0.0,94.72265592,1.19967406
600235988c6b062314984ac0,31,0,2024-02-28T14:41:23.018Z,english_255.wav,0,pill,117,30,5,4,FRENCH,M,1,0.1,1.10845293,1.25035485
600235988c6b062314984ac0,31,0,2024-02-28T14:41:23.018Z,english_255.wav,0,pill,117,30,5,4,FRENCH,M,2,0.2,-1.90413972,1.85398204
600235988c6b062314984ac0,31,0,2024-02-28T14:41:23.018Z,english_255.wav,0,pill,117,30,5,4,FRENCH,M,3,0.3,-45.9655603,0.56259094
600235988c6b062314984ac0,31,0,2024-02-28T14:41:23.018Z,english_255.wav,0,pill,117,30,5,4,FRENCH,M,4,0.4,-6.89013944,1.07948955
600235988c6b062314984ac0,31,0,2024-02-28T14:41:23.018Z,english_255.wav,0,pill,117,30,5,4,FRENCH,M,5,0.5,3.45085104,0.7328114
600235988c6b062314984ac0,31,0,2024-02-28T14:41:23.018Z,english_255.wav,0,pill,117,30,5,4,FRENCH,M,6,0.6,-68.66949423,0.49197221
600235988c6b062314984ac0,31,0,2024-02-28T14:41:23.018Z,english_255.wav,0,pill,117,30,5,4,FRENCH,M,7,0.7,-22.56077648,1.14850602
600235988c6b062314984ac0,31,0,2024-02-28T14:41:23.018Z,english_255.wav,0,pill,117,30,5,4,FRENCH,M,8,0.8,-32.1394332,1.46654584
600235988c6b062314984ac0,31,0,2024-02-28T14:41:23.018Z,english_255.wav,0,pill,117,30,5,4,FRENCH,M,9,0.9,56.48595448,0.34163334
600235988c6b062314984ac0,31,0,2024-02-28T14:41:23.018Z,english_255.wav,0,pill,117,30,5,4,FRENCH,M,10,1.0,-33.08950479,0.52219351
600235988c6b062314984ac0,31,0,2024-02-28T14:41:23.018Z,english_255.wav,0,pill,117,30,5,4,FRENCH,M,11,1.09391667,55.58931482,1.18693331
600235988c6b062314984ac0,32,0,2024-02-28T14:41:23.018Z,english_240.wav,0,peel,369,30,5,4,FRENCH,M,0,0.0,94.92487397,1.16173124
600235988c6b062314984ac0,32,0,2024-02-28T14:41:23.018Z,english_240.wav,0,peel,369,30,5,4,FRENCH,M,1,0.1,46.60086456,0.28146868
600235988c6b062314984ac0,32,0,2024-02-28T14:41:23.018Z,english_240.wav,0,peel,369,30,5,4,FRENCH,M,2,0.2,-85.09682287,1.34805144
600235988c6b062314984ac0,32,0,2024-02-28T14:41:23.018Z,english_240.wav,0,peel,369,30,5,4,FRENCH,M,3,0.3,61.23591388,0.20054267
600235988c6b062314984ac0,32,0,2024-02-28T14:41:23.018Z,english_240.wav,0,peel,369,30,5,4,FRENCH,M,4,0.4,-87.76590316,1.28124808
600235988c6b062314984ac0,32,0,2024-02-28T14:41:23.018Z,english_240.wav,0,peel,369,30,5,4,FRENCH,M,5,0.5,-26.78505593,0.75335144
600235988c6b062314984ac0,32,0,2024-02-28T14:41:23.018Z,english_240.wav,0,peel,369,30,5,4,FRENCH,M,6,0.6,79.97771783,0.06187073
600235988c6b062314984ac0,32,0,2024-02-28T14:41:23.018Z,english_240.wav,0,peel,369,30,5,4,FRENCH,M,7,0.7,-52.5823066,0.9449402
600235988c6b062314984ac0,32,0,2024-02-28T14:41:23.018Z,english_240.wav,0,peel,369,30,5,4,FRENCH,M,8,0.8,-50.02012697,0.10878198
600235988c6b062314984ac0,32,0,2024-02-28T14:41:23.018Z,english_240.wav,0,peel,369,30,5,4,FRENCH,M,9,0.9,92.54545653,1.66426768
600235988c6b062314984ac0,32,0,2024-02-28T14:41:23.018Z,english_240.wav,0,peel,369,30,5,4,FRENCH,M,10,1.0,-31.99180963,1.44792205
600235988c6b062314984ac0,32,0,2024-02-28T14:41:23.018Z,english_240.wav,0,peel,369,30,5,4,FRENCH,M,11,1.09391667,16.04001658,0.58420497
600235988c6b062314984ac0,33,0,2024-02-28T14:41:23.018Z,english_946.wav,0,pill,195,30,5,4,FRENCH,M,0,0.0,64.77326428,1.10052187
600235988c6b062314984ac0,33,0,2024-02-28T14:41:23.018Z,english_946.wav,0,pill,195,30,5,4,FRENCH,M,1,0.1,83.01050603,1.05470968
600235988c6b062314984ac0,33,0,2024-02-28T14:41:23.018Z,english_946.wav,0,pill,195,30,5,4,FRENCH,M,2,0.2,-18.1066925,0.88696068
600235988c6b062314984ac0,33,0,2024-02-28T14:41:23.018Z,english_946.wav,0,pill,195,30,5,4,FRENCH,M,3,0.3,-62.75831505,1.38728313
600235988c6b062314984ac0,33,0,2024-02-28T14:41:23.018Z,english_946.wav,0,pill,195,30,5,4,FRENCH,M,4,0.4,9.04734604,0.6245758
600235988c6b062314984ac0,33,0,2024-02-28T14:41:23.018Z,english_946.wav,0,pill,195,30,5,4,FRENCH,M,5,0.5,-25.58838755,0.89042851
600235988c6b062314984ac0,33,0,2024-02-28T14:41:23.018Z,english_946.wav,0,pill,195,30,5,4,FRENCH,M,6,0.6,-72.0222926,1.00619957
600235988c6b062314984ac0,33,0,2024-02-28T14:41:23.018Z,english_946.wav,0,pill,195,30,5,4,FRENCH,M,7,0.7,-19.61477429,0.8429427
600235988c6b062314984ac0,33,0,2024-02-28T14:41:23.018Z,english_946.wav,0,pill,195,30,5,4,FRENCH,M,8,0.8,1.83164611,0.85928866
600235988c6b062314984ac0,33,0,2024-02-28T14:41:23.018Z,english_946.wav,0,pill,195,30,5,4,FRENCH,M,9,0.9,-34.17634966,1.55488052
600235988c6b062314984ac0,33,0,2024-02-28T14:41:23.018Z,english_946.wav,0,pill,195,30,5,4,FRENCH,M,10,1.0,30.56107889,1.59418996
600235988c6b062314984ac0,33,0,2024-02-28T14:41:23.018Z,english_946.wav,0,pill,195,30,5,4,FRENCH,M,11,1.09391667,-39.05107126,1.69142345
600235988c6b062314984ac0,34,0,2024-02-28T14:41:23.018Z,english_754.wav,0,peel,317,30,5,4,FRENCH,M,0,0.0,-64.18066608,1.31756219
600235988c6b062314984ac0,34,0,2024-02-28T14:41:23.018Z,english_754.wav,0,peel,317,30,5,4,FRENCH,M,1,0.1,-98.7453181,0.6775935
600235988c6b062314984ac0,34,0,2024-02-28T14:41:23.018Z,english_754.wav,0,peel,317,30,5,4,FRENCH,M,2,0.2,-52.29987626,0.44453287
600235988c6b062314984ac0,34,0,2024-02-28T14:41:23.018Z,english_754.wav,0,peel,317,30,5,4,FRENCH,M,3,0.3,-91.6870734,0.79930959
600235988c6b062314984ac0,34,0,2024-02-28T14:41:23.018Z,english_754.wav,0,peel,317,30,5,4,FRENCH,M,4,0.4,-99.93480519,0.36385227
600235988c6b062314984ac0,34,0,2024-02-28T14:41:23.018Z,english_754.wav,0,peel,317,30,5,4,FRENCH,M,5,0.5,-2.56117899,1.60724529
600235988c6b062314984ac0,34,0,2024-02-28T14:41:23.018Z,english_754.wav,0,peel,317,30,5,4,FRENCH,M,6,0.6,-58.25705586,1.54119087
600235988c6b062314984ac0,34,0,2024-02-28T14:41:23.018Z,english_754.wav,0,peel,317,30,5,4,FRENCH,M,7,0.7,-50.59283721,0.4128908
600235988c6b062314984ac0,34,0,2024-02-28T14:41:23.018Z,english_754.wav,0,peel,317,30,5,4,FRENCH,M,8,0.8,-3.4865488,0.89168042
600235988c6b062314984ac0,34,0,2024-02-28T14:41:23.018Z,english_754.wav,0,peel,317,30,5,4,FRENCH,M,9,0.9,11.81028617,0.16017021
600235988c6b062314984ac0,34,0,2024-02-28T14:41:23.018Z,english_754.wav,0,peel,317,30,5,4,FRENCH,M,10,1.0,27.46545009,1.03192762
600235988c6b062314984ac0,34,0,2024-02-28T14:41:23.018Z,english_754.wav,0,peel,317,30,5,4,FRENCH,M,11,1.09391667,8.3161915,0.24632806
600235988c6b062314984ac0,35,0,2024-02-28T14:41:23.018Z,english_436.wav,0,pill,1479,30,5,4,FRENCH,M,0,0.0,-5.79676766,0.51982844
600235988c6b062314984ac0,35,0,2024-02-28T14:41:23.018Z,english_436.wav,0,pill,1479,30,5,4,FRENCH,M,1,0.1,-7.88979016,1.6050725
600235988c6b062314984ac0,35,0,2024-02-28T14:41:23.018Z,english_436.wav,0,pill,1479,30,5,4,FRENCH,M,2,0.2,-30.02673636,1.59647027
600235988c6b062314984ac0,35,0,2024-02-28T14:41:23.018Z,english_436.wav,0,pill,1479,30,5,4,FRENCH,M,3,0.3,10.91379363,1.97742112
600235988c6b062314984ac0,35,0,2024-02-28T14:41:23.018Z,english_436.wav,0,pill,1479,30,5,4,FRENCH,M,4,0.4,1.79762369,1.85601804
600235988c6b062314984ac0,35,0,2024-02-28T14:41:23.018Z,english_436.wav,0,pill,1479,30,5,4,FRENCH,M,5,0.5,73.94991314,1.38993988
600235988c6b062314984ac0,35,0,2024-02-28T14:41:23.018Z,english_436.wav,0,pill,1479,30,5,4,FRENCH,M,6,0.6,77.03109361,1.43065154
600235988c6b062314984ac0,35,0,2024-02-28T14:41:23.018Z,english_436.wav,0,pill,1479,30,5,4,FRENCH,M,7,0.7,-48.27841607,0.14937688
600235988c6b062314984ac0,35,0,2024-02-28T14:41:23.018Z,english_436.wav,0,pill,1479,30,5,4,FRENCH,M,8,0.8,57.26579501,1.65528817
600235988c6b062314984ac0,35,0,2024-02-28T14:41:23.018Z,english_436.wav,0,pill,1479,30,5,4,FRENCH,M,9,0.9,-80.56784579,1.0202375
600235988c6b062314984ac0,35,0,2024-02-28T14:41:23.018Z,english_436.wav,0,pill,1479,30,5,4,FRENCH,M,10,1.0,64.74546515,1.82414723
600235988c6b062314984ac0,35,0,2024-02-28T14:41:23.018Z,english_436.wav,0,pill,1479,30,5,4,FRENCH,M,11,1.09391667,5.24901362,1.00971458
600235988c6b062314984ac0,36,0,2024-02-28T14:41:23.018Z,english_251.wav,0,peel,356,30,5,4,FRENCH,M,0,0.0,-93.03805102,1.12342723
600235988c6b062314984ac0,36,0,2024-02-28T14:41:23.018Z,english_251.wav,0,peel,356,30,5,4,FRENCH,M,1,0.1,51.2655571,1.9149468
600235988c6b062314984ac0,36,0,2024-02-28T14:41:23.018Z,english_251.wav,0,peel,356,30,5,4,FRENCH,M,2,0.2,37.58283666,1.73876516
600235988c6b062314984ac0,36,0,2024-02-28T14:41:23.018Z,english_251.wav,0,peel,356,30,5,4,FRENCH,M,3,0.3,-55.53133441,1.01047504
600235988c6b062314984ac0,36,0,2024-02-28T14:41:23.018Z,english_251.wav,0,peel,356,30,5,4,FRENCH,M,4,0.4,98.21602679,0.87048418
600235988c6b062314984ac0,36,0,2024-02-28T14:41:23.018Z,english_251.wav,0,peel,356,30,5,4,FRENCH,M,5,0.5,-85.24256095,1.77281536
600235988c6b062314984ac0,36,0,2024-02-28T14:41:23.018Z,english_251.wav,0,peel,356,30,5,4,FRENCH,M,6,0.6,-76.0460332,1.29741372
600235988c6b062314984ac0,36,0,2024-02-28T14:41:23.018Z,english_251.wav,0,peel,356,30,5,4,FRENCH,M,7,0.7,26.51950349,0.41684213
600235988c6b062314984ac0,36,0,2024-02-28T14:41:23.018Z,english_251.wav,0,peel,356,30,5,4,FRENCH,M,8,0.8,-37.24987979,1.13690271
600235988c6b062314984ac0,36,0,2024-02-28T14:41:23.018Z,english_251.wav,0,peel,356,30,5,4,FRENCH,M,9,0.9,-60.42287441,1.00770315
600235988c6b062314984ac0,36,0,2024-02-28T14:41:23.018Z,english_251.wav,0,peel,356,30,5,4,FRENCH,M,10,1.0,31.01216571,0.51077747
600235988c6b062314984ac0,36,0,2024-02-28T14:41:23.018Z,english_251.wav,0,peel,356,30,5,4,FRENCH,M,11,1.09391667,74.35472995,0.89311028
600235988c6b062314984ac0,37,0,2024-02-28T14:41:23.018Z,english_502.wav,0,pill,557,30,5,4,FRENCH,M,0,0.0,57.69639955,1.15234611
600235988c6b062314984ac0,37,0,2024-02-28T14:41:23.018Z,english_502.wav,0,pill,557,30,5,4,FRENCH,M,1,0.1,28.96096349,1.67970143
600235988c6b062314984ac0,37,0,2024-02-28T14:41:23.018Z,english_502.wav,0,pill,557,30,5,4,FRENCH,M,2,0.2,-5.93680221,0.71376986
600235988c6b062314984ac0,37,0,2024-02-28T14:41:23.018Z,english_502.wav,0,pill,557,30,5,4,FRENCH,M,3,0.3,-9.12517159,0.49125702
600235988c6b062314984ac0,37,0,2024-02-28T14:41:23.018Z,english_502.wav,0,pill,557,30,5,4,FRENCH,M,4,0.4,44.04961264,0.39874308
600235988c6b062314984ac0,37,0,2024-02-28T14:41:23.018Z,english_502.wav,0,pill,557,30,5,4,FRENCH,M,5,0.5,84.4955788,0.1440426
600235988c6b062314984ac0,37,0,2024-02-28T14:41:23.018Z,english_502.wav,0,pill,557,30,5,4,FRENCH,M,6,0.6,97.09857183,1.53167879
600235988c6b062314984ac0,37,0,2024-02-28T14:41:23.018Z,english_502.wav,0,pill,557,30,5,4,FRENCH,M,7,0.7,99.13853902,1.52730171
600235988c6b062314984ac0,37,0,2024-02-28T14:41:23.018Z,english_502.wav,0,pill,557,30,5,4,FRENCH,M,8,0.8,91.26297662,0.65970293
600235988c6b062314984ac0,37,0,2024-02-28T14:41:23.018Z,english_502.wav,0,pill,557,30,5,4,FRENCH,M,9,0.9,17.95296758,0.91797137
600235988c6b062314984ac0,37,0,2024-02-28T14:41:23.018Z,english_502.wav,0,pill,557,30,5,4,FRENCH,M,10,1.0,-98.67508596,1.57983796
600235988c6b062314984ac0,37,0,2024-02-28T14:41:23.018Z,english_502.wav,0,pill,557,30,5,4,FRENCH,M,11,1.09391667,-78.95703283,0.77767597
600235988c6b062314984ac0,38,0,2024-02-28T14:41:23.018Z,english_334.wav,0,peel,968,30,5,4,FRENCH,M,0,0.0,96.16486857,1.13651221
600235988c6b062314984ac0,38,0,2024-02-28T14:41:23.018Z,english_334.wav,0,peel,968,30,5,4,FRENCH,M,1,0.1,-86.51500024,1.49269335
600235988c6b062314984ac0,38,0,2024-02-28T14:41:23.018Z,english_334.wav,0,peel,968,30,5,4,FRENCH,M,2,0.2,-9.37257187,0.61460927
600235988c6b062314984ac0,38,0,2024-02-28T14:41:23.018Z,english_334.wav,0,peel,968,30,5,4,FRENCH,M,3,0.3,72.06266942,0.5407499
600235988c6b062314984ac0,38,0,2024-02-28T14:41:23.018Z,english_334.wav,0,peel,968,30,5,4,FRENCH,M,4,0.4,11.10798007,1.09788414
600235988c6b062314984ac0,38,0,2024-02-28T14:41:23.018Z,english_334.wav,0,peel,968,30,5,4,FRENCH,M,5,0.5,-81.04621106,1.18897069
600235988c6b062314984ac0,38,0,2024-02-28T14:41:23.018Z,english_334.wav,0,peel,968,30,5,4,FRENCH,M,6,0.6,-50.80034191,1.05502288
600235988c6b062314984ac0,38,0,2024-02-28T14:41:23.018Z,english_334.wav,0,peel,968,30,5,4,FRENCH,M,7,0.7,40.96771285,1.84226931
600235988c6b062314984ac0,38,0,2024-02-28T14:41:23.018Z,english_334.wav,0,peel,968,30,5,4,FRENCH,M,8,0.8,92.51105292,0.15122728
600235988c6b062314984ac0,38,0,2024-02-28T14:41:23.018Z,english_334.wav,0,peel,968,30,5,4,FRENCH,M,9,0.9,6.87694398,1.31717853
600235988c6b062314984ac0,38,0,2024-02-28T14:41:23.018Z,english_334.wav,0,peel,968,30,5,4,FRENCH,M,10,1.0,8.2337815,0.71137381
600235988c6b062314984ac0,38,0,2024-02-28T14:41:23.018Z,english_334.wav,0,peel,968,30,5,4,FRENCH,M,11,1.09391667,-26.51950547,0.47666491
600235988c6b062314984ac0,39,0,2024-02-28T14:41:23.018Z,english_274.wav,0,pill,1030,30,5,4,FRENCH,M,0,0.0,90.15852298,1.09879686
600235988c6b062314984ac0,39,0,2024-02-28T14:41:23.018Z,english_274.wav,0,pill,1030,30,5,4,FRENCH,M,1,0.1,54.46178194,1.93033732
600235988c6b062314984ac0,39,0,2024-02-28T14:41:23.018Z,english_274.wav,0,pill,1030,30,5,4,FRENCH,M,2,0.2,92.29787974,1.35119606
600235988c6b062314984ac0,39,0,2024-02-28T14:41:23.018Z,english_274.wav,0,pill,1030,30,5,4,FRENCH,M,3,0.3,56.79856413,1.49147937
600235988c6b062314984ac0,39,0,2024-02-28T14:41:23.018Z,english_274.wav,0,pill,1030,30,5,4,FRENCH,M,4,0.4,6.80655331,1.75081802
600235988c6b062314984ac0,39,0,2024-02-28T14:41:23.018Z,english_274.wav,0,pill,1030,30,5,4,FRENCH,M,5,0.5,85.98039627,0.26277184
600235988c6b062314984ac0,39,0,2024-02-28T14:41:23.018Z,english_274.wav,0,pill,1030,30,5,4,FRENCH,M,6,0.6,79.54748497,1.06227003
600235988c6b062314984ac0,39,0,2024-02-28T14:41:23.018Z,english_274.wav,0,pill,1030,30,5,4,FRENCH,M,7,0.7,-50.26158779,0.06438964
600235988c6b062314984ac0,39,0,2024-02-28T14:41:23.018Z,english_274.wav,0,pill,1030,30,5,4,FRENCH,M,8,0.8,46.33910856,0.88741243
600235988c6b062314984ac0,39,0,2024-02-28T14:41:23.018Z,english_274.wav,0,pill,1030,30,5,4,FRENCH,M,9,0.9,-52.2237302,0.12141514
600235988c6b062314984ac0,39,0,2024-02-28T14:41:23.018Z,english_274.wav,0,pill,1030,30,5,4,FRENCH,M,10,1.0,14.53688649,1.07853955
600235988c6b062314984ac0,39,0,2024-02-28T14:41:23.018Z,english_274.wav,0,pill,1030,30,5,4,FRENCH,M,11,1.09391667,26.74527789,0.24561082
600235988c6b062314984ac0,40,0,2024-02-28T14:41:23.018Z,english_454.wav,0,peel,268,30,5,4,FRENCH,M,0,0.0,-40.724684,1.6228839
600235988c6b062314984ac0,40,0,2024-02-28T14:41:23.018Z,english_454.wav,0,peel,268,30,5,4,FRENCH,M,1,0.1,68.37921334,0.13004392
600235988c6b062314984ac0,40,0,2024-02-28T14:41:23.018Z,english_454.wav,0,peel,268,30,5,4,FRENCH,M,2,0.2,-30.05855576,0.71367383
600235988c6b062314984ac0,40,0,2024-02-28T14:41:23.018Z,english_454.wav,0,peel,268,30,5,4,FRENCH,M,3,0.3,-38.49973025,0.85329946
600235988c6b062314984ac0,40,0,2024-02-28T14:41:23.018Z,english_454.wav,0,peel,268,30,5,4,FRENCH,M,4,0.4,20.79675368,1.21776669
600235988c6b062314984ac0,40,0,2024-02-28T14:41:23.018Z,english_454.wav,0,peel,268,30,5,4,FRENCH,M,5,0.5,97.95643376,0.59038082
600235988c6b062314984ac0,40,0,2024-02-28T14:41:23.018Z,english_454.wav,0,peel,268,30,5,4,FRENCH,M,6,0.6,60.86620442,0.28627533
600235988c6b062314984ac0,40,0,2024-02-28T14:41:23.018Z,english_454.wav,0,peel,268,30,5,4,FRENCH,M,7,0.7,79.81874649,1.2119593
600235988c6b062314984ac0,40,0,2024-02-28T14:41:23.018Z,english_454.wav,0,peel,268,30,5,4,FRENCH,M,8,0.8,3.83765836,0.67514721
600235988c6b062314984ac0,40,0,2024-02-28T14:41:23.018Z,english_454.wav,0,peel,268,30,5,4,FRENCH,M,9,0.9,67.59623448,0.51660642
600235988c6b062314984ac0,40,0,2024-02-28T14:41:23.018Z,english_454.wav,0,peel,268,30,5,4,FRENCH,M,10,1.0,-91.57077167,0.97010822
600235988c6b062314984ac0,40,0,2024-02-28T14:41:23.018Z,english_454.wav,0,peel,268,30,5,4,FRENCH,M,11,1.09391667,10.80867564,1.23476154
600235988c6b062314984ac0,41,0,2024-02-28T14:41:23.018Z,english_390.wav,0,pill,316,30,5,4,FRENCH,M,0,0.0,-44.27999606,0.47786392
600235988c6b062314984ac0,41,0,2024-02-28T14:41:23.018Z,english_390.wav,0,pill,316,30,5,4,FRENCH,M,1,0.1,87.16388753,0.26367192
600235988c6b062314984ac0,41,0,2024-02-28T14:41:23.018Z,english_390.wav,0,pill,316,30,5,4,FRENCH,M,2,0.2,51.76447156,0.808543
600235988c6b062314984ac0,41,0,2024-02-28T14:41:23.018Z,english_390.wav,0,pill,316,30,5,4,FRENCH,M,3,0.3,4.72890769,1.08355999
600235988c6b062314984ac0,41,0,2024-02-28T14:41:23.018Z,english_390.wav,0,pill,316,30,5,4,FRENCH,M,4,0.4,40.54029915,1.05186068
600235988c6b062314984ac0,41,0,2024-02-28T14:41:23.018Z,english_390.wav,0,pill,316,30,5,4,FRENCH,M,5,0.5,-2.52273407,0.0330936
600235988c6b062314984ac0,41,0,2024-02-28T14:41:23.018Z,english_390.wav,0,pill,316,30,5,4,FRENCH,M,6,0.6,-16.68397449,0.46793247
600235988c6b062314984ac0,41,0,2024-02-28T14:41:23.018Z,english_390.wav,0,pill,316,30,5,4,FRENCH,M,7,0.7,61.52515281,1.47386131
600235988c6b062314984ac0,41,0,2024-02-28T14:41:23.018Z,english_390.wav,0,pill,316,30,5,4,FRENCH,M,8,0.8,-9.09589247,0.59216285
600235988c6b062314984ac0,41,0,2024-02-28T14:41:23.018Z,english_390.wav,0,pill,316,30,5,4,FRENCH,M,9,0.9,-24.40260524,0.27707759
600235988c6b062314984ac0,41,0,2024-02-28T14:41:23.018Z,english_390.wav,0,pill,316,30,5,4,FRENCH,M,10,1.0,-74.87237933,1.34831193
600235988c6b062314984ac0,41,0,2024-02-28T14:41:23.018Z,english_390.wav,0,pill,316,30,5,4,FRENCH,M,11,1.09391667,-82.02950505,1.5447274
600235988c6b062314984ac0,42,0,2024-02-28T14:41:23.018Z,english_849.wav,0,pill,363,30,5,4,FRENCH,M,0,0.0,3.14918828,0.91646938
600235988c6b062314984ac0,42,0,2024-02-28T14:41:23.018Z,english_849.wav,0,pill,363,30,5,4,FRENCH,M,1,0.1,-23.77765777,0.05935653
600235988c6b062314984ac0,42,0,2024-02-28T14:41:23.018Z,english_849.wav,0,pill,363,30,5,4,FRENCH,M,2,0.2,33.06216364,1.47739407
600235988c6b062314984ac0,42,0,2024-02-28T14:41:23.018Z,english_849.wav,0,pill,363,30,5,4,FRENCH,M,3,0.3,-62.11705981,0.33072981
600235988c6b062314984ac0,42,0,2024-02-28T14:41:23.018Z,english_849.wav,0,pill,363,30,5,4,FRENCH,M,4,0.4,7.17201603,0.11578877
600235988c6b062314984ac0,42,0,2024-02-28T14:41:23.018Z,english_849.wav,0,pill,363,30,5,4,FRENCH,M,5,0.5,-75.75571993,1.27391033
600235988c6b062314984ac0,42,0,2024-02-28T14:41:23.018Z,english_849.wav,0,pill,363,30,5,4,FRENCH,M,6,0.6,-11.73418988,0.32212457
600235988c6b062314984ac0,42,0,2024-02-28T14:41:23.018Z,english_849.wav,0,pill,363,30,5,4,FRENCH,M,7,0.7,-67.42384643,1.51956894
600235988c6b062314984ac0,42,0,2024-02-28T14:41:23.018Z,english_849.wav,0,pill,363,30,5,4,FRENCH,M,8,0.8,50.24136352,0.3318501
600235988c6b062314984ac0,42,0,2024-02-28T14:41:23.018Z,english_849.wav,0,pill,363,30,5,4,FRENCH,M,9,0.9,-60.42241677,0.78089197
600235988c6b062314984ac0,42,0,2024-02-28T14:41:23.018Z,english_849.wav,0,pill,363,30,5,4,FRENCH,M,10,1.0,70.30658547,0.6122717
600235988c6b062314984ac0,42,0,2024-02-28T14:41:23.018Z,english_849.wav,0,pill,363,30,5,4,FRENCH,M,11,1.09391667,-8.44903954,1.08036793
600235988c6b062314984ac0,43,0,2024-02-28T14:41:23.018Z,english_985.wav,0,peel,504,30,5,4,FRENCH,M,0,0.0,-83.24919271,0.45698213
600235988c6b062314984ac0,43,0,2024-02-28T14:41:23.018Z,english_985.wav,0,peel,504,30,5,4,FRENCH,M,1,0.1,-61.40218693,1.0383787
600235988c6b062314984ac0,43,0,2024-02-28T14:41:23.018Z,english_985.wav,0,peel,504,30,5,4,FRENCH,M,2,0.2,75.6831096,1.83439409
600235988c6b062314984ac0,43,0,2024-02-28T14:41:23.018Z,english_985.wav,0,peel,504,30,5,4,FRENCH,M,3,0.3,-83.55103169,1.46493433
600235988c6b062314984ac0,43,0,2024-02-28T14:41:23.018Z,english_985.wav,0,peel,504,30,5,4,FRENCH,M,4,0.4,-76.60569971,0.92668276
600235988c6b062314984ac0,43,0,2024-02-28T14:41:23.018Z,english_985.wav,0,peel,504,30,5,4,FRENCH,M,5,0.5,93.43834668,1.27852145
600235988c6b062314984ac0,43,0,2024-02-28T14:41:23.018Z,english_985.wav,0,peel,504,30,5,4,FRENCH,M,6,0.6,46.86841289,1.04356397
600235988c6b062314984ac0,43,0,2024-02-28T14:41:23.018Z,english_985.wav,0,peel,504,30,5,4,FRENCH,M,7,0.7,11.38653049,1.03370788
600235988c6b062314984ac0,43,0,2024-02-28T14:41:23.018Z,english_985.wav,0,peel,504,30,5,4,FRENCH,M,8,0.8,5.98716874,0.43255879
600235988c6b062314984ac0,43,0,2024-02-28T14:41:23.018Z,english_985.wav,0,peel,504,30,5,4,FRENCH,M,9,0.9,6.47503028,0.84647211
600235988c6b062314984ac0,43,0,2024-02-28T14:41:23.018Z,english_985.wav,0,peel,504,30,5,4,FRENCH,M,10,1.0,53.75316558,1.92237121
600235988c6b062314984ac0,43,0,2024-02-28T14:41:23.018Z,english_985.wav,0,peel,504,30,5,4,FRENCH,M,11,1.09391667,-17.57703362,0.19853323
600235988c6b062314984ac0,44,0,2024-02-28T14:41:23.018Z,english_360.wav,0,pill,599,30,5,4,FRENCH,M,0,0.0,-18.06250331,0.74392756
600235988c6b062314984ac0,44,0,2024-02-28T14:41:23.018Z,english_360.wav,0,pill,599,30,5,4,FRENCH,M,1,0.1,-60.78778271,0.33295665
600235988c6b062314984ac0,44,0,2024-02-28T14:41:23.018Z,english_360.wav,0,pill,599,30,5,4,FRENCH,M,2,0.2,64.58604958,0.59589568
600235988c6b062314984ac0,44,0,2024-02-28T14:41:23.018Z,english_360.wav,0,pill,599,30,5,4,FRENCH,M,3,0.3,15.14883939,1.76245157
600235988c6b062314984ac0,44,0,2024-02-28T14:41:23.018Z,english_360.wav,0,pill,599,30,5,4,FRENCH,M,4,0.4,35.32268856,1.62745171
600235988c6b062314984ac0,44,0,2024-02-28T14:41:23.018Z,english_360.wav,0,pill,599,30,5,4,FRENCH,M,5,0.5,85.60433583,0.48465
600235988c6b062314984ac0,44,0,2024-02-28T14:41:23.018Z,english_360.wav,0,pill,599,30,5,4,FRENCH,M,6,0.6,-60.74616214,0.94927774
600235988c6b062314984ac0,44,0,2024-02-28T14:41:23.018Z,english_360.wav,0,pill,599,30,5,4,FRENCH,M,7,0.7,93.69417602,1.65570249
600235988c6b062314984ac0,44,0,2024-02-28T14:41:23.018Z,english_360.wav,0,pill,599,30,5,4,FRENCH,M,8,0.8,16.46151858,1.54593081
600235988c6b062314984ac0,44,0,2024-02-28T14:41:23.018Z,english_360.wav,0,pill,599,30,5,4,FRENCH,M,9,0.9,58.0175924,0.34320104
600235988c6b062314984ac0,44,0,2024-02-28T14:41:23.018Z,english_360.wav,0,pill,599,30,5,4,FRENCH,M,10,1.0,51.01229948,0.20094936
600235988c6b062314984ac0,44,0,2024-02-28T14:41:23.018Z,english_360.wav,0,pill,599,30,5,4,FRENCH,M,11,1.09391667,19.14891505,0.69882977
600235988c6b062314984ac0,45,0,2024-02-28T14:41:23.018Z,english_353.wav,0,peel,394,30,5,4,FRENCH,M,0,0.0,-70.67724429,1.06843483
600235988c6b062314984ac0,45,0,2024-02-28T14:41:23.018Z,english_353.wav,0,peel,394,30,5,4,FRENCH,M,1,0.1,-71.688049,0.77169117
600235988c6b062314984ac0,45,0,2024-02-28T14:41:23.018Z,english_353.wav,0,peel,394,30,5,4,FRENCH,M,2,0.2,35.51924952,1.46248358
600235988c6b062314984ac0,45,0,2024-02-28T14:41:23.018Z,english_353.wav,0,peel,394,30,5,4,FRENCH,M,3,0.3,-2.11218413,1.49078151
600235988c6b062314984ac0,45,0,2024-02-28T14:41:23.018Z,english_353.wav,0,peel,394,30,5,4,FRENCH,M,4,0.4,-16.43862389,1.12150818
600235988c6b062314984ac0,45,0,2024-02-28T14:41:23.018Z,english_353.wav,0,peel,394,30,5,4,FRENCH,M,5,0.5,42.52341858,1.51009479
600235988c6b062314984ac0,45,0,2024-02-28T14:41:23.018Z,english_353.wav,0,peel,394,30,5,4,FRENCH,M,6,0.6,-45.01562353,1.56291015
600235988c6b062314984ac0,45,0,2024-02-28T14:41:23.018Z,english_353.wav,0,peel,394,30,5,4,FRENCH,M,7,0.7,41.4367476,1.91892948
600235988c6b062314984ac0,45,0,2024-02-28T14:41:23.018Z,english_353.wav,0,peel,394,30,5,4,FRENCH,M,8,0.8,-7.80846777,1.01197455
600235988c6b062314984ac0,45,0,2024-02-28T14:41:23.018Z,english_353.wav,0,peel,394,30,5,4,FRENCH,M,9,0.9,42.15448352,1.4134273
600235988c6b062314984ac0,45,0,2024-02-28T14:41:23.018Z,english_353.wav,0,peel,394,30,5,4,FRENCH,M,10,1.0,92.0591742,1.42236133
600235988c6b062314984ac0,45,0,2024-02-28T14:41:23.018Z,english_353.wav,0,peel,394,30,5,4,FRENCH,M,11,1.09391667,-12.12221809,0.78816947
600235988c6b062314984ac0,46,0,2024-02-28T14:41:23.018Z,english_527.wav,0,pill,346,30,5,4,FRENCH,M,0,0.0,-1.3381573,0.84142087
600235988c6b062314984ac0,46,0,2024-02-28T14:41:23.018Z,english_527.wav,0,pill,346,30,5,4,FRENCH,M,1,0.1,58.15701777,0.45178491
600235988c6b062314984ac0,46,0,2024-02-28T14:41:23.018Z,english_527.wav,0,pill,346,30,5,4,FRENCH,M,2,0.2,8.11788849,1.20075359
600235988c6b062314984ac0,46,0,2024-02-28T14:41:23.018Z,english_527.wav,0,pill,346,30,5,4,FRENCH,M,3,0.3,44.39731413,0.65328865
600235988c6b062314984ac0,46,0,2024-02-28T14:41:23.018Z,english_527.wav,0,pill,346,30,5,4,FRENCH,M,4,0.4,-87.54788147,0.96835908
600235988c6b062314984ac0,46,0,2024-02-28T14:41:23.018Z,english_527.wav,0,pill,346,30,5,4,FRENCH,M,5,0.5,-93.25195843,0.53512631
600235988c6b062314984ac0,46,0,2024-02-28T14:41:23.018Z,english_527.wav,0,pill,346,30,5,4,FRENCH,M,6,0.6,93.45473079,1.66257619
600235988c6b062314984ac0,46,0,2024-02-28T14:41:23.018Z,english_527.wav,0,pill,346,30,5,4,FRENCH,M,7,0.7,47.10175622,1.10602602
600235988c6b062314984ac0,46,0,2024-02-28T14:41:23.018Z,english_527.wav,0,pill,346,30,5,4,FRENCH,M,8,0.8,40.24548325,0.88440787
600235988c6b062314984ac0,46,0,2024-02-28T14:41:23.018Z,english_527.wav,0,pill,346,30,5,4,FRENCH,M,9,0.9,26.99431972,1.16792169
600235988c6b062314984ac0,46,0,2024-02-28T14:41:23.018Z,english_527.wav,0,pill,346,30,5,4,FRENCH,M,10,1.0,23.18417948,1.44045273
600235988c6b062314984ac0,46,0,2024-02-28T14:41:23.018Z,english_527.wav,0,pill,346,30,5,4,FRENCH,M,11,1.09391667,1.05655255,0.83626501
600235988c6b062314984ac0,47,0,2024-02-28T14:41:23.018Z,english_186.wav,0,pill,2243,30,5,4,FRENCH,M,0,0.0,34.67628328,1.75816844
600235988c6b062314984ac0,47,0,2024-02-28T14:41:23.018Z,english_186.wav,0,pill,2243,30,5,4,FRENCH,M,1,0.1,-19.53122367,1.94712822
600235988c6b062314984ac0,47,0,2024-02-28T14:41:23.018Z,english_186.wav,0,pill,2243,30,5,4,FRENCH,M,2,0.2,31.036007,0.76716396
600235988c6b062314984ac0,47,0,2024-02-28T14:41:23.018Z,english_186.wav,0,pill,2243,30,5,4,FRENCH,M,3,0.3,-94.39309916,1.39701873
600235988c6b062314984ac0,47,0,2024-02-28T14:41:23.018Z,english_186.wav,0,pill,2243,30,5,4,FRENCH,M,4,0.4,2.96716774,1.30823473
600235988c6b062314984ac0,47,0,2024-02-28T14:41:23.018Z,english_186.wav,0,pill,2243,30,5,4,FRENCH,M,5,0.5,44.13973284,0.38912271
600235988c6b062314984ac0,47,0,2024-02-28T14:41:23.018Z,english_186.wav,0,pill,2243,30,5,4,FRENCH,M,6,0.6,41.34226894,0.09265328
600235988c6b062314984ac0,47,0,2024-02-28T14:41:23.018Z,english_186.wav,0,pill,2243,30,5,4,FRENCH,M,7,0.7,89.79294986,1.13224893
600235988c6b062314984ac0,47,0,2024-02-28T14:41:23.018Z,english_186.wav,0,pill,2243,30,5,4,FRENCH,M,8,0.8,5.87570889,0.32682785
600235988c6b062314984ac0,47,0,2024-02-28T14:41:23.018Z,english_186.wav,0,pill,2243,30,5,4,FRENCH,M,9,0.9,-94.07260309,0.08299448
600235988c6b062314984ac0,47,0,2024-02-28T14:41:23.018Z,english_186.wav,0,pill,2243,30,5,4,FRENCH,M,10,1.0,56.55218839,0.76365709
600235988c6b062314984ac0,47,0,2024-02-28T14:41:23.018Z,english_186.wav,0,pill,2243,30,5,4,FRENCH,M,11,1.09391667,-18.95393722,1.25330528
600235988c6b062314984ac0,48,0,2024-02-28T14:41:23.018Z,english_819.wav,0,peel,2572,30,5,4,FRENCH,M,0,0.0,6.72623194,0.10273963
600235988c6b062314984ac0,48,0,2024-02-28T14:41:23.018Z,english_819.wav,0,peel,2572,30,5,4,FRENCH,M,1,0.1,-24.07867569,0.80237212
600235988c6b062314984ac0,48,0,2024-02-28T14:41:23.018Z,english_819.wav,0,peel,2572,30,5,4,FRENCH,M,2,0.2,-75.26306383,1.8012582
600235988c6b062314984ac0,48,0,2024-02-28T14:41:23.018Z,english_819.wav,0,peel,2572,30,5,4,FRENCH,M,3,0.3,85.43148154,0.87923376
600235988c6b062314984ac0,48,0,2024-02-28T14:41:23.018Z,english_819.wav,0,peel,2572,30,5,4,FRENCH,M,4,0.4,-22.40483415,1.38500076
600235988c6b062314984ac0,48,0,2024-02-28T14:41:23.018Z,english_819.wav,0,peel,2572,30,5,4,FRENCH,M,5,0.5,1.97440144,1.100674
600235988c6b062314984ac0,48,0,2024-02-28T14:41:23.018Z,english_819.wav,0,peel,2572,30,5,4,FRENCH,M,6,0.6,75.70782388,0.97376952
600235988c6b062314984ac0,48,0,2024-02-28T14:41:23.018Z,english_819.wav,0,peel,2572,30,5,4,FRENCH,M,7,0.7,95.57794207,0.98089121
600235988c6b062314984ac0,48,0,2024-02-28T14:41:23.018Z,english_819.wav,0,peel,2572,30,5,4,FRENCH,M,8,0.8,65.41207774,0.54459863
600235988c6b062314984ac0,48,0,2024-02-28T14:41:23.018Z,english_819.wav,0,peel,2572,30,5,4,FRENCH,M,9,0.9,20.80814343,0.87801334
600235988c6b062314984ac0,48,0,2024-02-28T14:41:23.018Z,english_819.wav,0,peel,2572,30,5,4,FRENCH,M,10,1.0,82.13081789,1.51334628
600235988c6b062314984ac0,48,0,2024-02-28T14:41:23.018Z,english_819.wav,0,peel,2572,30,5,4,FRENCH,M,11,1.09391667,8.11322976,1.26475282
600235988c6b062314984ac0,49,0,2024-02-28T14:41:23.018Z,english_684.wav,0,pill,1738,30,5,4,FRENCH,M,0,0.0,44.6488214,0.31150518
600235988c6b062314984ac0,49,0,2024-02-28T14:41:23.018Z,english_684.wav,0,pill,1738,30,5,4,FRENCH,M,1,0.1,9.68442182,0.4998365
600235988c6b062314984ac0,49,0,2024-02-28T14:41:23.018Z,english_684.wav,0,pill,1738,30,5,4,FRENCH,M,2,0.2,-45.058789,0.24275602
600235988c6b062314984ac0,49,0,2024-02-28T14:41:23.018Z,english_684.wav,0,pill,1738,30,5,4,FRENCH,M,3,0.3,9.29989294,1.63678411
600235988c6b062314984ac0,49,0,2024-02-28T14:41:23.018Z,english_684.wav,0,pill,1738,30,5,4,FRENCH,M,4,0.4,-93.3818257,1.55347247
600235988c6b062314984ac0,49,0,2024-02-28T14:41:23.018Z,english_684.wav,0,pill,1738,30,5,4,FRENCH,M,5,0.5,-18.6654658,0.93326504
600235988c6b062314984ac0,49,0,2024-02-28T14:41:23.018Z,english_684.wav,0,pill,1738,30,5,4,FRENCH,M,6,0.6,-36.1937511,1.36007358
600235988c6b062314984ac0,49,0,2024-02-28T14:41:23.018Z,english_684.wav,0,pill,1738,30,5,4,FRENCH,M,7,0.7,-0.0227796988,0.52423503
600235988c6b062314984ac0,49,0,2024-02-28T14:41:23.018Z,english_684.wav,0,pill,1738,30,5,4,FRENCH,M,8,0.8,-81.9835579,1.47566928
600235988c6b062314984ac0,49,0,2024-02-28T14:41:23.018Z,english_684.wav,0,pill,1738,30,5,4,FRENCH,M,9,0.9,66.7026535,1.32008624
600235988c6b062314984ac0,49,0,2024-02-28T14:41:23.018Z,english_684.wav,0,pill,1738,30,5,4,FRENCH,M,10,1.0,-28.1669756,1.00236166
600235988c6b062314984ac0,49,0,2024-02-28T14:41:23.018Z,english_684.wav,0,pill,1738,30,5,4,FRENCH,M,11,1.09391667,-31.1571246,1.13724252
600235988c6b062314984ac0,50,1,2024-02-28T14:44:53.090Z,english_771.wav,0,pill,222,30,5,4,FRENCH,M,0,0.0,-36.50619676,0.84712365
600235988c6b062314984ac0,50,1,2024-02-28T14:44:53.090Z,english_771.wav,0,pill,222,30,5,4,FRENCH,M,1,0.1,14.7541205,1.2125626
600235988c6b062314984ac0,50,1,2024-02-28T14:44:53.090Z,english_771.wav,0,pill,222,30,5,4,FRENCH,M,2,0.2,-52.38540711,1.26925878
600235988c6b062314984ac0,50,1,2024-02-28T14:44:53.090Z,english_771.wav,0,pill,222,30,5,4,FRENCH,M,3,0.3,-44.85491202,0.42277432
600235988c6b062314984ac0,50,1,2024-02-28T14:44:53.090Z,english_771.wav,0,pill,222,30,5,4,FRENCH,M,4,0.4,-95.75173067,1.76146367
600235988c6b062314984ac0,50,1,2024-02-28T14:44:53.090Z,english_771.wav,0,pill,222,30,5,4,FRENCH,M,5,0.5,80.62781484,1.97802023
600235988c6b062314984ac0,50,1,2024-02-28T14:44:53.090Z,english_771.wav,0,pill,222,30,5,4,FRENCH,M,6,0.6,73.74351295,1.00927999
600235988c6b062314984ac0,50,1,2024-02-28T14:44:53.090Z,english_771.wav,0,pill,222,30,5,4,FRENCH,M,7,0.7,-36.03140148,0.74378616
600235988c6b062314984ac0,50,1,2024-02-28T14:44:53.090Z,english_771.wav,0,pill,222,30,5,4,FRENCH,M,8,0.8,-29.08842157,1.61654752
600235988c6b062314984ac0,50,1,2024-02-28T14:44:53.090Z,english_771.wav,0,pill,222,30,5,4,FRENCH,M,9,0.9,81.37771219,0.74494496
600235988c6b062314984ac0,50,1,2024-02-28T14:44:53.090Z,english_771.wav,0,pill,222,30,5,4,FRENCH,M,10,1.0,2.32979024,0.15244903
600235988c6b062314984ac0,50,1,2024-02-28T14:44:53.090Z,english_771.wav,0,pill,222,30,5,4,FRENCH,M,11,1.09391667,-15.5068463,0.47232317
600235988c6b062314984ac0,51,1,2024-02-28T14:44:53.090Z,english_540.wav,0,pill,152,30,5,4,FRENCH,M,0,0.0,56.3389614,0.35919702
600235988c6b062314984ac0,51,1,2024-02-28T14:44:53.090Z,english_540.wav,0,pill,152,30,5,4,FRENCH,M,1,0.1,15.5810044,0.12290397
600235988c6b062314984ac0,51,1,2024-02-28T14:44:53.090Z,english_540.wav,0,pill,152,30,5,4,FRENCH,M,2,0.2,-57.00882779,0.4388906
600235988c6b062314984ac0,51,1,2024-02-28T14:44:53.090Z,english_540.wav,0,pill,152,30,5,4,FRENCH,M,3,0.3,-38.51831774,1.4101729
600235988c6b062314984ac0,51,1,2024-02-28T14:44:53.090Z,english_540.wav,0,pill,152,30,5,4,FRENCH,M,4,0.4,-2.48649571,1.50441402
600235988c6b062314984ac0,51,1,2024-02-28T14:44:53.090Z,english_540.wav,0,pill,152,30,5,4,FRENCH,M,5,0.5,47.94489788,0.12973549
600235988c6b062314984ac0,51,1,2024-02-28T14:44:53.090Z,english_540.wav,0,pill,152,30,5,4,FRENCH,M,6,0.6,-25.26992134,1.5432215
600235988c6b062314984ac0,51,1,2024-02-28T14:44:53.090Z,english_540.wav,0,pill,152,30,5,4,FRENCH,M,7,0.7,71.13867004,0.81755123
600235988c6b062314984ac0,51,1,2024-02-28T14:44:53.090Z,english_540.wav,0,pill,152,30,5,4,FRENCH,M,8,0.8,-84.74018584,1.08085579
600235988c6b062314984ac0,51,1,2024-02-28T14:44:53.090Z,english_540.wav,0,pill,152,30,5,4,FRENCH,M,9,0.9,36.45045372,1.434422
600235988c6b062314984ac0,51,1,2024-02-28T14:44:53.090Z,english_540.wav,0,pill,152,30,5,4,FRENCH,M,10,1.0,21.99011702,0.97494001
600235988c6b062314984ac0,51,1,2024-02-28T14:44:53.090Z,english_540.wav,0,pill,152,30,5,4,FRENCH,M,11,1.09391667,81.39151634,0.80759169
600235988c6b062314984ac0,52,1,2024-02-28T14:44:53.090Z,english_197.wav,0,pill,264,30,5,4,FRENCH,M,0,0.0,-0.52164664,0.76048058
600235988c6b062314984ac0,52,1,2024-02-28T14:44:53.090Z,english_197.wav,0,pill,264,30,5,4,FRENCH,M,1,0.1,-87.40194418,1.46601293
600235988c6b062314984ac0,52,1,2024-02-28T14:44:53.090Z,english_197.wav,0,pill,264,30,5,4,FRENCH,M,2,0.2,-52.79027246,1.17311431
600235988c6b062314984ac0,52,1,2024-02-28T14:44:53.090Z,english_197.wav,0,pill,264,30,5,4,FRENCH,M,3,0.3,-48.86802506,0.52190861
600235988c6b062314984ac0,52,1,2024-02-28T14:44:53.090Z,english_197.wav,0,pill,264,30,5,4,FRENCH,M,4,0.4,81.82701326,0.75360033
600235988c6b062314984ac0,52,1,2024-02-28T14:44:53.090Z,english_197.wav,0,pill,264,30,5,4,FRENCH,M,5,0.5,-49.36038243,0.57280926
600235988c6b062314984ac0,52,1,2024-02-28T14:44:53.090Z,english_197.wav,0,pill,264,30,5,4,FRENCH,M,6,0.6,60.40718162,1.08660509
600235988c6b062314984ac0,52,1,2024-02-28T14:44:53.090Z,english_197.wav,0,pill,264,30,5,4,FRENCH,M,7,0.7,23.14241749,1.00122778
600235988c6b062314984ac0,52,1,2024-02-28T14:44:53.090Z,english_197.wav,0,pill,264,30,5,4,FRENCH,M,8,0.8,6.00272562,0.93136252
600235988c6b062314984ac0,52,1,2024-02-28T14:44:53.090Z,english_197.wav,0,pill,264,30,5,4,FRENCH,M,9,0.9,-33.15203134,1.24898943
600235988c6b062314984ac0,52,1,2024-02-28T14:44:53.090Z,english_197.wav,0,pill,264,30,5,4,FRENCH,M,10,1.0,87.44378179,1.94648397
600235988c6b062314984ac0,52,1,2024-02-28T14:44:53.090Z,english_197.wav,0,pill,264,30,5,4,FRENCH,M,11,1.09391667,-36.11997575,0.88926449
600235988c6b062314984ac0,53,1,2024-02-28T14:44:53.090Z,english_391.wav,0,peel,799,30,5,4,FRENCH,M,0,0.0,48.72029915,1.46381994
600235988c6b062314984ac0,53,1,2024-02-28T14:44:53.090Z,english_391.wav,0,peel,799,30,5,4,FRENCH,M,1,0.1,3.36267099,1.74177862
600235988c6b062314984ac0,53,1,2024-02-28T14:44:53.090Z,english_391.wav,0,peel,799,30,5,4,FRENCH,M,2,0.2,-54.73892797,0.37153285
600235988c6b062314984ac0,53,1,2024-02-28T14:44:53.090Z,english_391.wav,0,peel,799,30,5,4,FRENCH,M,3,0.3,-4.43599027,1.37930547
600235988c6b062314984ac0,53,1,2024-02-28T14:44:53.090Z,english_391.wav,0,peel,799,30,5,4,FRENCH,M,4,0.4,-4.38697431,1.2025528
600235988c6b062314984ac0,53,1,2024-02-28T14:44:53.090Z,english_391.wav,0,peel,799,30,5,4,FRENCH,M,5,0.5,12.32416895,1.41669348
600235988c6b062314984ac0,53,1,2024-02-28T14:44:53.090Z,english_391.wav,0,peel,799,30,5,4,FRENCH,M,6,0.6,-35.16299901,1.90409923
600235988c6b062314984ac0,53,1,2024-02-28T14:44:53.090Z,english_391.wav,0,peel,799,30,5,4,FRENCH,M,7,0.7,-18.71198536,0.35955458
600235988c6b062314984ac0,53,1,2024-02-28T14:44:53.090Z,english_391.wav,0,peel,799,30,5,4,FRENCH,M,8,0.8,50.45333825,0.73524
600235988c6b062314984ac0,53,1,2024-02-28T14:44:53.090Z,english_391.wav,0,peel,799,30,5,4,FRENCH,M,9,0.9,24.10808682,1.22465208
600235988c6b062314984ac0,53,1,2024-02-28T14:44:53.090Z,english_391.wav,0,peel,799,30,5,4,FRENCH,M,10,1.0,-10.46564493,1.61244098
600235988c6b062314984ac0,53,1,2024-02-28T14:44:53.090Z,english_391.wav,0,peel,799,30,5,4,FRENCH,M,11,1.09391667,6.45782967,1.66867903
600235988c6b062314984ac0,54,1,2024-02-28T14:44:53.090Z,english_312.wav,0,pill,674,30,5,4,FRENCH,M,0,0.0,-44.20026349,0.70172327
600235988c6b062314984ac0,54,1,2024-02-28T14:44:53.090Z,english_312.wav,0,pill,674,30,5,4,FRENCH,M,1,0.1,37.14552062,1.15664492
600235988c6b062314984ac0,54,1,2024-02-28T14:44:53.090Z,english_312.wav,0,pill,674,30,5,4,FRENCH,M,2,0.2,18.3582365,0.90621855
600235988c6b062314984ac0,54,1,2024-02-28T14:44:53.090Z,english_312.wav,0,pill,674,30,5,4,FRENCH,M,3,0.3,77.7774411,1.08976836
600235988c6b062314984ac0,54,1,2024-02-28T14:44:53.090Z,english_312.wav,0,pill,674,30,5,4,FRENCH,M,4,0.4,-78.31932482,1.02467386
600235988c6b062314984ac0,54,1,2024-02-28T14:44:53.090Z,english_312.wav,0,pill,674,30,5,4,FRENCH,M,5,0.5,-58.95150344,0.3820111
600235988c6b062314984ac0,54,1,2024-02-28T14:44:53.090Z,english_312.wav,0,pill,674,30,5,4,FRENCH,M,6,0.6,89.34504931,1.09647863
600235988c6b062314984ac0,54,1,2024-02-28T14:44:53.090Z,english_312.wav,0,pill,674,30,5,4,FRENCH,M,7,0.7,88.15541314,1.49721146
600235988c6b062314984ac0,54,1,2024-02-28T14:44:53.090Z,english_312.wav,0,pill,674,30,5,4,FRENCH,M,8,0.8,-8.94977512,1.78917626
600235988c6b062314984ac0,54,1,2024-02-28T14:44:53.090Z,english_312.wav,0,pill,674,30,5,4,FRENCH,M,9,0.9,-51.17539316,0.56099976
600235988c6b062314984ac0,54,1,2024-02-28T14:44:53.090Z,english_312.wav,0,pill,674,30,5,4,FRENCH,M,10,1.0,-56.97812864,1.16855683
600235988c6b062314984ac0,54,1,2024-02-28T14:44:53.090Z,english_312.wav,0,pill,674,30,5,4,FRENCH,M,11,1.09391667,78.26932654,0.99548906
600235988c6b062314984ac0,55,1,2024-02-28T14:44:53.090Z,english_399.wav,0,peel,321,30,5,4,FRENCH,M,0,0.0,7.35119233,1.43512774
600235988c6b062314984ac0,55,1,2024-02-28T14:44:53.090Z,english_399.wav,0,peel,321,30,5,4,FRENCH,M,1,0.1,7.30105906,1.7056904
600235988c6b062314984ac0,55,1,2024-02-28T14:44:53.090Z,english_399.wav,0,peel,321,30,5,4,FRENCH,M,2,0.2,-55.03587691,1.60882656
600235988c6b062314984ac0,55,1,2024-02-28T14:44:53.090Z,english_399.wav,0,peel,321,30,5,4,FRENCH,M,3,0.3,63.9361431,1.57397844
600235988c6b062314984ac0,55,1,2024-02-28T14:44:53.090Z,english_399.wav,0,peel,321,30,5,4,FRENCH,M,4,0.4,44.6049307,0.93377042
600235988c6b062314984ac0,55,1,2024-02-28T14:44:53.090Z,english_399.wav,0,peel,321,30,5,4,FRENCH,M,5,0.5,68.42668929,1.9481779
600235988c6b062314984ac0,55,1,2024-02-28T14:44:53.090Z,english_399.wav,0,peel,321,30,5,4,FRENCH,M,6,0.6,54.53895784,1.40688071
600235988c6b062314984ac0,55,1,2024-02-28T14:44:53.090Z,english_399.wav,0,peel,321,30,5,4,FRENCH,M,7,0.7,87.63954028,0.69376281
600235988c6b062314984ac0,55,1,2024-02-28T14:44:53.090Z,english_399.wav,0,peel,321,30,5,4,FRENCH,M,8,0.8,-0.41432999,1.28838791
600235988c6b062314984ac0,55,1,2024-02-28T14:44:53.090Z,english_399.wav,0,peel,321,30,5,4,FRENCH,M,9,0.9,24.60615905,0.52758228
600235988c6b062314984ac0,55,1,2024-02-28T14:44:53.090Z,english_399.wav,0,peel,321,30,5,4,FRENCH,M,10,1.0,-97.67130798,0.96519431
600235988c6b062314984ac0,55,1,2024-02-28T14:44:53.090Z,english_399.wav,0,peel,321,30,5,4,FRENCH,M,11,1.09391667,61.44027276,1.05566464
600235988c6b062314984ac0,56,1,2024-02-28T14:44:53.090Z,english_828.wav,0,pill,232,30,5,4,FRENCH,M,0,0.0,44.40736288,0.6854481
600235988c6b062314984ac0,56,1,2024-02-28T14:44:53.090Z,english_828.wav,0,pill,232,30,5,4,FRENCH,M,1,0.1,-42.04416601,0.68064333
600235988c6b062314984ac0,56,1,2024-02-28T14:44:53.090Z,english_828.wav,0,pill,232,30,5,4,FRENCH,M,2,0.2,-20.29293086,0.81685259
600235988c6b062314984ac0,56,1,2024-02-28T14:44:53.090Z,english_828.wav,0,pill,232,30,5,4,FRENCH,M,3,0.3,92.4837764,1.64535042
600235988c6b062314984ac0,56,1,2024-02-28T14:44:53.090Z,english_828.wav,0,pill,232,30,5,4,FRENCH,M,4,0.4,-9.06614004,1.05789966
600235988c6b062314984ac0,56,1,2024-02-28T14:44:53.090Z,english_828.wav,0,pill,232,30,5,4,FRENCH,M,5,0.5,-13.57134894,0.50783684
600235988c6b062314984ac0,56,1,2024-02-28T14:44:53.090Z,english_828.wav,0,pill,232,30,5,4,FRENCH,M,6,0.6,-35.94091013,0.44879888
600235988c6b062314984ac0,56,1,2024-02-28T14:44:53.090Z,english_828.wav,0,pill,232,30,5,4,FRENCH,M,7,0.7,-16.77232099,1.56814335
600235988c6b062314984ac0,56,1,2024-02-28T14:44:53.090Z,english_828.wav,0,pill,232,30,5,4,FRENCH,M,8,0.8,-37.97296566,1.89886882
600235988c6b062314984ac0,56,1,2024-02-28T14:44:53.090Z,english_828.wav,0,pill,232,30,5,4,FRENCH,M,9,0.9,-82.27097072,0.04070617
600235988c6b062314984ac0,56,1,2024-02-28T14:44:53.090Z,english_828.wav,0,pill,232,30,5,4,FRENCH,M,10,1.0,58.44690016,0.64400746
600235988c6b062314984ac0,56,1,2024-02-28T14:44:53.090Z,english_828.wav,0,pill,232,30,5,4,FRENCH,M,11,1.09391667,80.21996359,0.77415838
600235988c6b062314984ac0,57,1,2024-02-28T14:44:53.090Z,english_493.wav,0,pill,9908,30,5,4,FRENCH,M,0,0.0,-8.91567992,0.90906845
600235988c6b062314984ac0,57,1,2024-02-28T14:44:53.090Z,english_493.wav,0,pill,9908,30,5,4,FRENCH,M,1,0.1,-2.81052192,1.82277729
600235988c6b062314984ac0,57,1,2024-02-28T14:44:53.090Z,english_493.wav,0,pill,9908,30,5,4,FRENCH,M,2,0.2,0.93987988,1.85575617
600235988c6b062314984ac0,57,1,2024-02-28T14:44:53.090Z,english_493.wav,0,pill,9908,30,5,4,FRENCH,M,3,0.3,-44.0664777,0.198144
600235988c6b062314984ac0,57,1,2024-02-28T14:44:53.090Z,english_493.wav,0,pill,9908,30,5,4,FRENCH,M,4,0.4,12.64172921,0.31833397
600235988c6b062314984ac0,57,1,2024-02-28T14:44:53.090Z,english_493.wav,0,pill,9908,30,5,4,FRENCH,M,5,0.5,38.10396852,0.16370317
600235988c6b062314984ac0,57,1,2024-02-28T14:44:53.090Z,english_493.wav,0,pill,9908,30,5,4,FRENCH,M,6,0.6,51.1275002,0.48830507
600235988c6b062314984ac0,57,1,2024-02-28T14:44:53.090Z,english_493.wav,0,pill,9908,30,5,4,FRENCH,M,7,0.7,-51.72089694,0.59724282
600235988c6b062314984ac0,57,1,2024-02-28T14:44:53.090Z,english_493.wav,0,pill,9908,30,5,4,FRENCH,M,8,0.8,-22.89469136,0.45798431
600235988c6b062314984ac0,57,1,2024-02-28T14:44:53.090Z,english_493.wav,0,pill,9908,30,5,4,FRENCH,M,9,0.9,55.14015253,1.24461858
600235988c6b062314984ac0,57,1,2024-02-28T14:44:53.090Z,english_493.wav,0,pill,9908,30,5,4,FRENCH,M,10,1.0,69.89984763,1.33195334
600235988c6b062314984ac0,57,1,2024-02-28T14:44:53.090Z,english_493.wav,0,pill,9908,30,5,4,FRENCH,M,11,1.09391667,7.83521283,1.92068406
600235988c6b062314984ac0,58,1,2024-02-28T14:44:53.090Z,english_421.wav,0,peel,291,30,5,4,FRENCH,M,0,0.0,-77.37875109,0.40906671
600235988c6b062314984ac0,58,1,2024-02-28T14:44:53.090Z,english_421.wav,0,peel,291,30,5,4,FRENCH,M,1,0.1,21.68470971,0.10764534
600235988c6b062314984ac0,58,1,2024-02-28T14:44:53.090Z,english_421.wav,0,peel,291,30,5,4,FRENCH,M,2,0.2,25.95594031,0.09890733
600235988c6b062314984ac0,58,1,2024-02-28T14:44:53.090Z,english_421.wav,0,peel,291,30,5,4,FRENCH,M,3,0.3,-54.56850785,1.06704705
600235988c6b062314984ac0,58,1,2024-02-28T14:44:53.090Z,english_421.wav,0,peel,291,30,5,4,FRENCH,M,4,0.4,24.0018444,0.2085299
600235988c6b062314984ac0,58,1,2024-02-28T14:44:53.090Z,english_421.wav,0,peel,291,30,5,4,FRENCH,M,5,0.5,-47.82681182,0.29426066
600235988c6b062314984ac0,58,1,2024-02-28T14:44:53.090Z,english_421.wav,0,peel,291,30,5,4,FRENCH,M,6,0.6,-46.58707105,1.5200041
600235988c6b062314984ac0,58,1,2024-02-28T14:44:53.090Z,english_421.wav,0,peel,291,30,5,4,FRENCH,M,7,0.7,77.25272005,0.50765671
600235988c6b062314984ac0,58,1,2024-02-28T14:44:53.090Z,english_421.wav,0,peel,291,30,5,4,FRENCH,M,8,0.8,77.76425926,0.03381604
600235988c6b062314984ac0,58,1,2024-02-28T14:44:53.090Z,english_421.wav,0,peel,291,30,5,4,FRENCH,M,9,0.9,25.41801762,1.11402173
600235988c6b062314984ac0,58,1,2024-02-28T14:44:53.090Z,english_421.wav,0,peel,291,30,5,4,FRENCH,M,10,1.0,38.43952496,1.16253286
600235988c6b062314984ac0,58,1,2024-02-28T14:44:53.090Z,english_421.wav,0,peel,291,30,5,4,FRENCH,M,11,1.09391667,67.75811728,1.4554509
600235988c6b062314984ac0,59,1,2024-02-28T14:44:53.090Z,english_368.wav,0,peel,195,30,5,4,FRENCH,M,0,0.0,-21.74410199,1.11444004
600235988c6b062314984ac0,59,1,2024-02-28T14:44:53.090Z,english_368.wav,0,peel,195,30,5,4,FRENCH,M,1,0.1,-54.46820056,1.02689489
600235988c6b062314984ac0,59,1,2024-02-28T14:44:53.090Z,english_368.wav,0,peel,195,30,5,4,FRENCH,M,2,0.2,36.37288824,1.84847876
600235988c6b062314984ac0,59,1,2024-02-28T14:44:53.090Z,english_368.wav,0,peel,195,30,5,4,FRENCH,M,3,0.3,28.79669065,1.32768322
600235988c6b062314984ac0,59,1,2024-02-28T14:44:53.090Z,english_368.wav,0,peel,195,30,5,4,FRENCH,M,4,0.4,64.63914759,1.2143292
600235988c6b062314984ac0,59,1,2024-02-28T14:44:53.090Z,english_368.wav,0,peel,195,30,5,4,FRENCH,M,5,0.5,-47.48725989,1.4175641
600235988c6b062314984ac0,59,1,2024-02-28T14:44:53.090Z,english_368.wav,0,peel,195,30,5,4,FRENCH,M,6,0.6,-56.63725257,0.26859899
600235988c6b062314984ac0,59,1,2024-02-28T14:44:53.090Z,english_368.wav,0,peel,195,30,5,4,FRENCH,M,7,0.7,-15.67963737,1.20913194
600235988c6b062314984ac0,59,1,2024-02-28T14:44:53.090Z,english_368.wav,0,peel,195,30,5,4,FRENCH,M,8,0.8,-67.03077711,0.71725489
600235988c6b062314984ac0,59,1,2024-02-28T14:44:53.090Z,english_368.wav,0,peel,195,30,5,4,FRENCH,M,9,0.9,-87.98164929,0.61705061
600235988c6b062314984ac0,59,1,2024-02-28T14:44:53.090Z,english_368.wav,0,peel,195,30,5,4,FRENCH,M,10,1.0,66.360443,1.87423649
600235988c6b062314984ac0,59,1,2024-02-28T14:44:53.090Z,english_368.wav,0,peel,195,30,5,4,FRENCH,M,11,1.09391667,86.76512067,0.90814369
600235988c6b062314984ac0,60,1,2024-02-28T14:44:53.090Z,english_594.wav,0,pill,132,30,5,4,FRENCH,M,0,0.0,-6.10063938,0.03940385
600235988c6b062314984ac0,60,1,2024-02-28T14:44:53.090Z,english_594.wav,0,pill,132,30,5,4,FRENCH,M,1,0.1,-56.51028651,0.67979763
600235988c6b062314984ac0,60,1,2024-02-28T14:44:53.090Z,english_594.wav,0,pill,132,30,5,4,FRENCH,M,2,0.2,-40.09571675,0.90921071
600235988c6b062314984ac0,60,1,2024-02-28T14:44:53.090Z,english_594.wav,0,pill,132,30,5,4,FRENCH,M,3,0.3,61.97563687,0.53210088
600235988c6b062314984ac0,60,1,2024-02-28T14:44:53.090Z,english_594.wav,0,pill,132,30,5,4,FRENCH,M,4,0.4,-85.53288451,0.284195
600235988c6b062314984ac0,60,1,2024-02-28T14:44:53.090Z,english_594.wav,0,pill,132,30,5,4,FRENCH,M,5,0.5,6.67279942,0.75512393
600235988c6b062314984ac0,60,1,2024-02-28T14:44:53.090Z,english_594.wav,0,pill,132,30,5,4,FRENCH,M,6,0.6,48.92783255,0.67826493
600235988c6b062314984ac0,60,1,2024-02-28T14:44:53.090Z,english_594.wav,0,pill,132,30,5,4,FRENCH,M,7,0.7,-71.33031091,0.91947698
600235988c6b062314984ac0,60,1,2024-02-28T14:44:53.090Z,english_594.wav,0,pill,132,30,5,4,FRENCH,M,8,0.8,8.29148897,0.21678931
600235988c6b062314984ac0,60,1,2024-02-28T14:44:53.090Z,english_594.wav,0,pill,132,30,5,4,FRENCH,M,9,0.9,42.69425852,1.1378317
600235988c6b062314984ac0,60,1,2024-02-28T14:44:53.090Z,english_594.wav,0,pill,132,30,5,4,FRENCH,M,10,1.0,-32.82046223,1.58275183
600235988c6b062314984ac0,60,1,2024-02-28T14:44:53.090Z,english_594.wav,0,pill,132,30,5,4,FRENCH,M,11,1.09391667,-55.40353935,1.87399103
600235988c6b062314984ac0,61,1,2024-02-28T14:44:53.090Z,english_513.wav,0,peel,189,30,5,4,FRENCH,M,0,0.0,69.69423026,1.14751405
600235988c6b062314984ac0,61,1,2024-02-28T14:44:53.090Z,english_513.wav,0,peel,189,30,5,4,FRENCH,M,1,0.1,-61.65221054,0.70036193
600235988c6b062314984ac0,61,1,2024-02-28T14:44:53.090Z,english_513.wav,0,peel,189,30,5,4,FRENCH,M,2,0.2,12.06620713,1.7124885
600235988c6b062314984ac0,61,1,2024-02-28T14:44:53.090Z,english_513.wav,0,peel,189,30,5,4,FRENCH,M,3,0.3,68.31024972,0.98016869
600235988c6b062314984ac0,61,1,2024-02-28T14:44:53.090Z,english_513.wav,0,peel,189,30,5,4,FRENCH,M,4,0.4,74.12641094,0.11366006
600235988c6b062314984ac0,61,1,2024-02-28T14:44:53.090Z,english_513.wav,0,peel,189,30,5,4,FRENCH,M,5,0.5,6.77833978,0.43979592
600235988c6b062314984ac0,61,1,2024-02-28T14:44:53.090Z,english_513.wav,0,peel,189,30,5,4,FRENCH,M,6,0.6,-4.07072349,1.91776754
600235988c6b062314984ac0,61,1,2024-02-28T14:44:53.090Z,english_513.wav,0,peel,189,30,5,4,FRENCH,M,7,0.7,-75.18978196,0.49107068
600235988c6b062314984ac0,61,1,2024-02-28T14:44:53.090Z,english_513.wav,0,peel,189,30,5,4,FRENCH,M,8,0.8,-25.44315508,0.92055325
600235988c6b062314984ac0,61,1,2024-02-28T14:44:53.090Z,english_513.wav,0,peel,189,30,5,4,FRENCH,M,9,0.9,1.64473536,0.8410121
600235988c6b062314984ac0,61,1,2024-02-28T14:44:53.090Z,english_513.wav,0,peel,189,30,5,4,FRENCH,M,10,1.0,-82.34234751,0.34671239
600235988c6b062314984ac0,61,1,2024-02-28T14:44:53.090Z,english_513.wav,0,peel,189,30,5,4,FRENCH,M,11,1.09391667,-17.87879592,1.52659427
600235988c6b062314984ac0,62,1,2024-02-28T14:44:53.090Z,english_734.wav,0,peel,748,30,5,4,FRENCH,M,0,0.0,37.80658654,0.89840931
600235988c6b062314984ac0,62,1,2024-02-28T14:44:53.090Z,english_734.wav,0,peel,748,30,5,4,FRENCH,M,1,0.1,90.1003789,1.2414915
600235988c6b062314984ac0,62,1,2024-02-28T14:44:53.090Z,english_734.wav,0,peel,748,30,5,4,FRENCH,M,2,0.2,-17.90602095,1.52855063
600235988c6b062314984ac0,62,1,2024-02-28T14:44:53.090Z,english_734.wav,0,peel,748,30,5,4,FRENCH,M,3,0.3,-31.44385996,0.60902156
600235988c6b062314984ac0,62,1,2024-02-28T14:44:53.090Z,english_734.wav,0,peel,748,30,5,4,FRENCH,M,4,0.4,44.9323419,1.0676513
600235988c6b062314984ac0,62,1,2024-02-28T14:44:53.090Z,english_734.wav,0,peel,748,30,5,4,FRENCH,M,5,0.5,-31.11774155,0.47732506
600235988c6b062314984ac0,62,1,2024-02-28T14:44:53.090Z,english_734.wav,0,peel,748,30,5,4,FRENCH,M,6,0.6,97.37077349,0.01117227
600235988c6b062314984ac0,62,1,2024-02-28T14:44:53.090Z,english_734.wav,0,peel,748,30,5,4,FRENCH,M,7,0.7,83.67731812,1.95948527
600235988c6b062314984ac0,62,1,2024-02-28T14:44:53.090Z,english_734.wav,0,peel,748,30,5,4,FRENCH,M,8,0.8,-92.96209535,1.72730216
600235988c6b062314984ac0,62,1,2024-02-28T14:44:53.090Z,english_734.wav,0,peel,748,30,5,4,FRENCH,M,9,0.9,-86.38679985,0.10005855
600235988c6b062314984ac0,62,1,2024-02-28T14:44:53.090Z,english_734.wav,0,peel,748,30,5,4,FRENCH,M,10,1.0,-15.69243899,1.31074677
600235988c6b062314984ac0,62,1,2024-02-28T14:44:53.090Z,english_734.wav,0,peel,748,30,5,4,FRENCH,M,11,1.09391667,-68.67808483,0.47077758
600235988c6b062314984ac0,63,1,2024-02-28T14:44:53.090Z,english_887.wav,0,pill,363,30,5,4,FRENCH,M,0,0.0,-3.44900861,0.51239927
600235988c6b062314984ac0,63,1,2024-02-28T14:44:53.090Z,english_887.wav,0,pill,363,30,5,4,FRENCH,M,1,0.1,-17.8432189,1.03264561
600235988c6b062314984ac0,63,1,2024-02-28T14:44:53.090Z,english_887.wav,0,pill,363,30,5,4,FRENCH,M,2,0.2,-6.85827808,0.34600943
600235988c6b062314984ac0,63,1,2024-02-28T14:44:53.090Z,english_887.wav,0,pill,363,30,5,4,FRENCH,M,3,0.3,45.65439731,0.47649702
600235988c6b062314984ac0,63,1,2024-02-28T14:44:53.090Z,english_887.wav,0,pill,363,30,5,4,FRENCH,M,4,0.4,-45.51901732,1.73458193
600235988c6b062314984ac0,63,1,2024-02-28T14:44:53.090Z,english_887.wav,0,pill,363,30,5,4,FRENCH,M,5,0.5,-48.46749348,0.81561736
600235988c6b062314984ac0,63,1,2024-02-28T14:44:53.090Z,english_887.wav,0,pill,363,30,5,4,FRENCH,M,6,0.6,61.02871352,1.13461249
600235988c6b062314984ac0,63,1,2024-02-28T14:44:53.090Z,english_887.wav,0,pill,363,30,5,4,FRENCH,M,7,0.7,88.88451803,0.39624217
600235988c6b062314984ac0,63,1,2024-02-28T14:44:53.090Z,english_887.wav,0,pill,363,30,5,4,FRENCH,M,8,0.8,-62.50472578,0.97607282
600235988c6b062314984ac0,63,1,2024-02-28T14:44:53.090Z,english_887.wav,0,pill,363,30,5,4,FRENCH,M,9,0.9,-72.54245457,0.43830143
600235988c6b062314984ac0,63,1,2024-02-28T14:44:53.090Z,english_887.wav,0,pill,363,30,5,4,FRENCH,M,10,1.0,69.58025846,1.14588811
600235988c6b062314984ac0,63,1,2024-02-28T14:44:53.090Z,english_887.wav,0,pill,363,30,5,4,FRENCH,M,11,1.09391667,-27.66978609,0.14331088
600235988c6b062314984ac0,64,1,2024-02-28T14:44:53.090Z,english_810.wav,0,pill,661,30,5,4,FRENCH,M,0,0.0,-83.9281143,1.69146892
600235988c6b062314984ac0,64,1,2024-02-28T14:44:53.090Z,english_810.wav,0,pill,661,30,5,4,FRENCH,M,1,0.1,27.49266296,0.58552036
600235988c6b062314984ac0,64,1,2024-02-28T14:44:53.090Z,english_810.wav,0,pill,661,30,5,4,FRENCH,M,2,0.2,-79.7114404,0.8081372
600235988c6b062314984ac0,64,1,2024-02-28T14:44:53.090Z,english_810.wav,0,pill,661,30,5,4,FRENCH,M,3,0.3,88.86514055,1.52853197
600235988c6b062314984ac0,64,1,2024-02-28T14:44:53.090Z,english_810.wav,0,pill,661,30,5,4,FRENCH,M,4,0.4,-83.57104811,1.32903065
600235988c6b062314984ac0,64,1,2024-02-28T14:44:53.090Z,english_810.wav,0,pill,661,30,5,4,FRENCH,M,5,0.5,64.75337821,0.44686923
600235988c6b062314984ac0,64,1,2024-02-28T14:44:53.090Z,english_810.wav,0,pill,661,30,5,4,FRENCH,M,6,0.6,-39.25229813,0.97314752
600235988c6b062314984ac0,64,1,2024-02-28T14:44:53.090Z,english_810.wav,0,pill,661,30,5,4,FRENCH,M,7,0.7,-20.80683656,1.28969147
600235988c6b062314984ac0,64,1,2024-02-28T14:44:53.090Z,english_810.wav,0,pill,661,30,5,4,FRENCH,M,8,0.8,-8.25263634,1.65843454
600235988c6b062314984ac0,64,1,2024-02-28T14:44:53.090Z,english_810.wav,0,pill,661,30,5,4,FRENCH,M,9,0.9,-69.80984132,1.6089276
600235988c6b062314984ac0,64,1,2024-02-28T14:44:53.090Z,english_810.wav,0,pill,661,30,5,4,FRENCH,M,10,1.0,12.24901577,1.8611166
600235988c6b062314984ac0,64,1,2024-02-28T14:44:53.090Z,english_810.wav,0,pill,661,30,5,4,FRENCH,M,11,1.09391667,84.4149929,1.61125361
600235988c6b062314984ac0,65,1,2024-02-28T14:44:53.090Z,english_714.wav,0,peel,9,30,5,4,FRENCH,M,0,0.0,79.0390651,0.49033963
600235988c6b062314984ac0,65,1,2024-02-28T14:44:53.090Z,english_714.wav,0,peel,9,30,5,4,FRENCH,M,1,0.1,36.23720606,1.92693389
