subj,trial,block,date,stim,stim_order,response,rt,age,english,french,language,sex,param_index,segment,pitch,stretch
65ceaba67bb38638483fbbb6,0,0,2024-02-28T14:28:47.193Z,english_866.wav,0,pill,5739,36,5,4,english,f,0,0.0,32.13948388,0.64921597
65ceaba67bb38638483fbbb6,0,0,2024-02-28T14:28:47.193Z,english_866.wav,0,pill,5739,36,5,4,english,f,1,0.1,38.60075831,1.48742897
65ceaba67bb38638483fbbb6,0,0,2024-02-28T14:28:47.193Z,english_866.wav,0,pill,5739,36,5,4,english,f,2,0.2,-79.61982729,0.28495491
65ceaba67bb38638483fbbb6,0,0,2024-02-28T14:28:47.193Z,english_866.wav,0,pill,5739,36,5,4,english,f,3,0.3,-60.72840424,0.9139307
65ceaba67bb38638483fbbb6,0,0,2024-02-28T14:28:47.193Z,english_866.wav,0,pill,5739,36,5,4,english,f,4,0.4,-37.10812529,1.2771469
65ceaba67bb38638483fbbb6,0,0,2024-02-28T14:28:47.193Z,english_866.wav,0,pill,5739,36,5,4,english,f,5,0.5,20.23366157,0.5381413
65ceaba67bb38638483fbbb6,0,0,2024-02-28T14:28:47.193Z,english_866.wav,0,pill,5739,36,5,4,english,f,6,0.6,-58.420194,0.14669297
65ceaba67bb38638483fbbb6,0,0,2024-02-28T14:28:47.193Z,english_866.wav,0,pill,5739,36,5,4,english,f,7,0.7,10.40447232,0.11342134
65ceaba67bb38638483fbbb6,0,0,2024-02-28T14:28:47.193Z,english_866.wav,0,pill,5739,36,5,4,english,f,8,0.8,-52.83849426,1.53208977
65ceaba67bb38638483fbbb6,0,0,2024-02-28T14:28:47.193Z,english_866.wav,0,pill,5739,36,5,4,english,f,9,0.9,32.83340069,0.84107623
65ceaba67bb38638483fbbb6,0,0,2024-02-28T14:28:47.193Z,english_866.wav,0,pill,5739,36,5,4,english,f,10,1.0,9.31901299,1.05202157
65ceaba67bb38638483fbbb6,0,0,2024-02-28T14:28:47.193Z,english_866.wav,0,pill,5739,36,5,4,english,f,11,1.09391667,-17.41907809,1.86418674
65ceaba67bb38638483fbbb6,1,0,2024-02-28T14:28:47.193Z,english_539.wav,0,peel,1712,36,5,4,english,f,0,0.0,-94.17846062,0.79705309
65ceaba67bb38638483fbbb6,1,0,2024-02-28T14:28:47.193Z,english_539.wav,0,peel,1712,36,5,4,english,f,1,0.1,-5.02019603,0.75034459
65ceaba67bb38638483fbbb6,1,0,2024-02-28T14:28:47.193Z,english_539.wav,0,peel,1712,36,5,4,english,f,2,0.2,-69.32919076,1.92009714
65ceaba67bb38638483fbbb6,1,0,2024-02-28T14:28:47.193Z,english_539.wav,0,peel,1712,36,5,4,english,f,3,0.3,80.71922828,1.69419261
65ceaba67bb38638483fbbb6,1,0,2024-02-28T14:28:47.193Z,english_539.wav,0,peel,1712,36,5,4,english,f,4,0.4,-44.41930109,1.08134057
65ceaba67bb38638483fbbb6,1,0,2024-02-28T14:28:47.193Z,english_539.wav,0,peel,1712,36,5,4,english,f,5,0.5,60.55312323,0.26247587
65ceaba67bb38638483fbbb6,1,0,2024-02-28T14:28:47.193Z,english_539.wav,0,peel,1712,36,5,4,english,f,6,0.6,-22.38704472,1.40392738
65ceaba67bb38638483fbbb6,1,0,2024-02-28T14:28:47.193Z,english_539.wav,0,peel,1712,36,5,4,english,f,7,0.7,42.18310052,0.38201887
65ceaba67bb38638483fbbb6,1,0,2024-02-28T14:28:47.193Z,english_539.wav,0,peel,1712,36,5,4,english,f,8,0.8,-3.23406116,1.79513964
65ceaba67bb38638483fbbb6,1,0,2024-02-28T14:28:47.193Z,english_539.wav,0,peel,1712,36,5,4,english,f,9,0.9,86.87834775,0.10058598
65ceaba67bb38638483fbbb6,1,0,2024-02-28T14:28:47.193Z,english_539.wav,0,peel,1712,36,5,4,english,f,10,1.0,-2.56962664,1.19776684
65ceaba67bb38638483fbbb6,1,0,2024-02-28T14:28:47.193Z,english_539.wav,0,peel,1712,36,5,4,english,f,11,1.09391667,13.84279534,1.72675702
65ceaba67bb38638483fbbb6,2,0,2024-02-28T14:28:47.193Z,english_791.wav,0,peel,2157,36,5,4,english,f,0,0.0,-46.06630558,1.16002163
65ceaba67bb38638483fbbb6,2,0,2024-02-28T14:28:47.193Z,english_791.wav,0,peel,2157,36,5,4,english,f,1,0.1,-10.41029295,1.31545425
65ceaba67bb38638483fbbb6,2,0,2024-02-28T14:28:47.193Z,english_791.wav,0,peel,2157,36,5,4,english,f,2,0.2,46.47346809,0.89173565
65ceaba67bb38638483fbbb6,2,0,2024-02-28T14:28:47.193Z,english_791.wav,0,peel,2157,36,5,4,english,f,3,0.3,-10.43860287,0.05427007
65ceaba67bb38638483fbbb6,2,0,2024-02-28T14:28:47.193Z,english_791.wav,0,peel,2157,36,5,4,english,f,4,0.4,-38.16717219,1.4017057
65ceaba67bb38638483fbbb6,2,0,2024-02-28T14:28:47.193Z,english_791.wav,0,peel,2157,36,5,4,english,f,5,0.5,44.56559314,0.47849772
65ceaba67bb38638483fbbb6,2,0,2024-02-28T14:28:47.193Z,english_791.wav,0,peel,2157,36,5,4,english,f,6,0.6,43.70696978,1.59729287
65ceaba67bb38638483fbbb6,2,0,2024-02-28T14:28:47.193Z,english_791.wav,0,peel,2157,36,5,4,english,f,7,0.7,-5.54884815,1.50901191
65ceaba67bb38638483fbbb6,2,0,2024-02-28T14:28:47.193Z,english_791.wav,0,peel,2157,36,5,4,english,f,8,0.8,89.91059564,0.68083576
65ceaba67bb38638483fbbb6,2,0,2024-02-28T14:28:47.193Z,english_791.wav,0,peel,2157,36,5,4,english,f,9,0.9,90.72111025,1.62669182
65ceaba67bb38638483fbbb6,2,0,2024-02-28T14:28:47.193Z,english_791.wav,0,peel,2157,36,5,4,english,f,10,1.0,4.8020349,1.81653342
65ceaba67bb38638483fbbb6,2,0,2024-02-28T14:28:47.193Z,english_791.wav,0,peel,2157,36,5,4,english,f,11,1.09391667,7.87463746,1.33572141
65ceaba67bb38638483fbbb6,3,0,2024-02-28T14:28:47.193Z,english_732.wav,0,pill,1412,36,5,4,english,f,0,0.0,-6.1655518,1.83743041
65ceaba67bb38638483fbbb6,3,0,2024-02-28T14:28:47.193Z,english_732.wav,0,pill,1412,36,5,4,english,f,1,0.1,-21.68268247,0.45034165
65ceaba67bb38638483fbbb6,3,0,2024-02-28T14:28:47.193Z,english_732.wav,0,pill,1412,36,5,4,english,f,2,0.2,-44.18505393,1.43977044
65ceaba67bb38638483fbbb6,3,0,2024-02-28T14:28:47.193Z,english_732.wav,0,pill,1412,36,5,4,english,f,3,0.3,-99.08787178,1.63276402
65ceaba67bb38638483fbbb6,3,0,2024-02-28T14:28:47.193Z,english_732.wav,0,pill,1412,36,5,4,english,f,4,0.4,52.69419041,1.14410498
65ceaba67bb38638483fbbb6,3,0,2024-02-28T14:28:47.193Z,english_732.wav,0,pill,1412,36,5,4,english,f,5,0.5,-22.76801282,0.80499942
65ceaba67bb38638483fbbb6,3,0,2024-02-28T14:28:47.193Z,english_732.wav,0,pill,1412,36,5,4,english,f,6,0.6,-68.37024344,0.00488355
65ceaba67bb38638483fbbb6,3,0,2024-02-28T14:28:47.193Z,english_732.wav,0,pill,1412,36,5,4,english,f,7,0.7,99.79862575,1.08087267
65ceaba67bb38638483fbbb6,3,0,2024-02-28T14:28:47.193Z,english_732.wav,0,pill,1412,36,5,4,english,f,8,0.8,-45.96985204,0.60546967
65ceaba67bb38638483fbbb6,3,0,2024-02-28T14:28:47.193Z,english_732.wav,0,pill,1412,36,5,4,english,f,9,0.9,34.4904792,1.53964006
65ceaba67bb38638483fbbb6,3,0,2024-02-28T14:28:47.193Z,english_732.wav,0,pill,1412,36,5,4,english,f,10,1.0,-81.20928849,0.59388625
65ceaba67bb38638483fbbb6,3,0,2024-02-28T14:28:47.193Z,english_732.wav,0,pill,1412,36,5,4,english,f,11,1.09391667,-1.26617119,1.72169188
65ceaba67bb38638483fbbb6,4,0,2024-02-28T14:28:47.193Z,english_806.wav,0,peel,4131,36,5,4,english,f,0,0.0,43.54674573,1.38359874
65ceaba67bb38638483fbbb6,4,0,2024-02-28T14:28:47.193Z,english_806.wav,0,peel,4131,36,5,4,english,f,1,0.1,-68.74197722,1.64152579
65ceaba67bb38638483fbbb6,4,0,2024-02-28T14:28:47.193Z,english_806.wav,0,peel,4131,36,5,4,english,f,2,0.2,-23.84581235,1.16928597
65ceaba67bb38638483fbbb6,4,0,2024-02-28T14:28:47.193Z,english_806.wav,0,peel,4131,36,5,4,english,f,3,0.3,-72.86002473,0.86357206
65ceaba67bb38638483fbbb6,4,0,2024-02-28T14:28:47.193Z,english_806.wav,0,peel,4131,36,5,4,english,f,4,0.4,-35.27978776,0.73652759
65ceaba67bb38638483fbbb6,4,0,2024-02-28T14:28:47.193Z,english_806.wav,0,peel,4131,36,5,4,english,f,5,0.5,-2.08559415,0.11615926
65ceaba67bb38638483fbbb6,4,0,2024-02-28T14:28:47.193Z,english_806.wav,0,peel,4131,36,5,4,english,f,6,0.6,-68.55515823,0.96374449
65ceaba67bb38638483fbbb6,4,0,2024-02-28T14:28:47.193Z,english_806.wav,0,peel,4131,36,5,4,english,f,7,0.7,-32.41040243,1.00194659
65ceaba67bb38638483fbbb6,4,0,2024-02-28T14:28:47.193Z,english_806.wav,0,peel,4131,36,5,4,english,f,8,0.8,43.35004903,0.5470064
65ceaba67bb38638483fbbb6,4,0,2024-02-28T14:28:47.193Z,english_806.wav,0,peel,4131,36,5,4,english,f,9,0.9,-2.04848196,0.25999945
65ceaba67bb38638483fbbb6,4,0,2024-02-28T14:28:47.193Z,english_806.wav,0,peel,4131,36,5,4,english,f,10,1.0,6.21691759,0.37115798
65ceaba67bb38638483fbbb6,4,0,2024-02-28T14:28:47.193Z,english_806.wav,0,peel,4131,36,5,4,english,f,11,1.09391667,-62.57800707,1.34941772
65ceaba67bb38638483fbbb6,5,0,2024-02-28T14:28:47.193Z,english_988.wav,0,peel,2061,36,5,4,english,f,0,0.0,41.01121176,1.79508408
65ceaba67bb38638483fbbb6,5,0,2024-02-28T14:28:47.193Z,english_988.wav,0,peel,2061,36,5,4,english,f,1,0.1,-57.00509923,0.91683768
65ceaba67bb38638483fbbb6,5,0,2024-02-28T14:28:47.193Z,english_988.wav,0,peel,2061,36,5,4,english,f,2,0.2,-47.7423933,0.75632301
65ceaba67bb38638483fbbb6,5,0,2024-02-28T14:28:47.193Z,english_988.wav,0,peel,2061,36,5,4,english,f,3,0.3,-45.09224268,0.50123111
65ceaba67bb38638483fbbb6,5,0,2024-02-28T14:28:47.193Z,english_988.wav,0,peel,2061,36,5,4,english,f,4,0.4,-86.23747248,1.43218642
65ceaba67bb38638483fbbb6,5,0,2024-02-28T14:28:47.193Z,english_988.wav,0,peel,2061,36,5,4,english,f,5,0.5,32.23270896,1.02417726
65ceaba67bb38638483fbbb6,5,0,2024-02-28T14:28:47.193Z,english_988.wav,0,peel,2061,36,5,4,english,f,6,0.6,83.03664367,0.26646991
65ceaba67bb38638483fbbb6,5,0,2024-02-28T14:28:47.193Z,english_988.wav,0,peel,2061,36,5,4,english,f,7,0.7,23.13228138,0.55372386
65ceaba67bb38638483fbbb6,5,0,2024-02-28T14:28:47.193Z,english_988.wav,0,peel,2061,36,5,4,english,f,8,0.8,-80.96876175,1.25427564
65ceaba67bb38638483fbbb6,5,0,2024-02-28T14:28:47.193Z,english_988.wav,0,peel,2061,36,5,4,english,f,9,0.9,85.87163391,1.46901823
65ceaba67bb38638483fbbb6,5,0,2024-02-28T14:28:47.193Z,english_988.wav,0,peel,2061,36,5,4,english,f,10,1.0,65.98257536,1.62105321
65ceaba67bb38638483fbbb6,5,0,2024-02-28T14:28:47.193Z,english_988.wav,0,peel,2061,36,5,4,english,f,11,1.09391667,8.92791605,1.15707193
65ceaba67bb38638483fbbb6,6,0,2024-02-28T14:28:47.193Z,english_986.wav,0,peel,1179,36,5,4,english,f,0,0.0,66.66952336,1.97934099
65ceaba67bb38638483fbbb6,6,0,2024-02-28T14:28:47.193Z,english_986.wav,0,peel,1179,36,5,4,english,f,1,0.1,96.9530251,1.29460225
65ceaba67bb38638483fbbb6,6,0,2024-02-28T14:28:47.193Z,english_986.wav,0,peel,1179,36,5,4,english,f,2,0.2,75.3477354,1.53421825
65ceaba67bb38638483fbbb6,6,0,2024-02-28T14:28:47.193Z,english_986.wav,0,peel,1179,36,5,4,english,f,3,0.3,-56.79707668,1.45039514
65ceaba67bb38638483fbbb6,6,0,2024-02-28T14:28:47.193Z,english_986.wav,0,peel,1179,36,5,4,english,f,4,0.4,68.50410973,0.98893675
65ceaba67bb38638483fbbb6,6,0,2024-02-28T14:28:47.193Z,english_986.wav,0,peel,1179,36,5,4,english,f,5,0.5,5.80156778,1.73927101
65ceaba67bb38638483fbbb6,6,0,2024-02-28T14:28:47.193Z,english_986.wav,0,peel,1179,36,5,4,english,f,6,0.6,-59.00857509,1.32684672
65ceaba67bb38638483fbbb6,6,0,2024-02-28T14:28:47.193Z,english_986.wav,0,peel,1179,36,5,4,english,f,7,0.7,23.78788766,1.65077043
65ceaba67bb38638483fbbb6,6,0,2024-02-28T14:28:47.193Z,english_986.wav,0,peel,1179,36,5,4,english,f,8,0.8,8.31255478,1.05904427
65ceaba67bb38638483fbbb6,6,0,2024-02-28T14:28:47.193Z,english_986.wav,0,peel,1179,36,5,4,english,f,9,0.9,-23.40072537,0.79622744
65ceaba67bb38638483fbbb6,6,0,2024-02-28T14:28:47.193Z,english_986.wav,0,peel,1179,36,5,4,english,f,10,1.0,36.6022418,1.94329627
65ceaba67bb38638483fbbb6,6,0,2024-02-28T14:28:47.193Z,english_986.wav,0,peel,1179,36,5,4,english,f,11,1.09391667,-51.87443186,1.45912014
65ceaba67bb38638483fbbb6,7,0,2024-02-28T14:28:47.193Z,english_746.wav,0,pill,1902,36,5,4,english,f,0,0.0,-17.85129661,0.72236584
65ceaba67bb38638483fbbb6,7,0,2024-02-28T14:28:47.193Z,english_746.wav,0,pill,1902,36,5,4,english,f,1,0.1,44.49284576,1.69903141
65ceaba67bb38638483fbbb6,7,0,2024-02-28T14:28:47.193Z,english_746.wav,0,pill,1902,36,5,4,english,f,2,0.2,-28.07602373,1.83658278
65ceaba67bb38638483fbbb6,7,0,2024-02-28T14:28:47.193Z,english_746.wav,0,pill,1902,36,5,4,english,f,3,0.3,80.79649727,0.38437005
65ceaba67bb38638483fbbb6,7,0,2024-02-28T14:28:47.193Z,english_746.wav,0,pill,1902,36,5,4,english,f,4,0.4,-35.87476706,0.19777168
65ceaba67bb38638483fbbb6,7,0,2024-02-28T14:28:47.193Z,english_746.wav,0,pill,1902,36,5,4,english,f,5,0.5,-13.61927607,0.81094496
65ceaba67bb38638483fbbb6,7,0,2024-02-28T14:28:47.193Z,english_746.wav,0,pill,1902,36,5,4,english,f,6,0.6,-13.45090469,0.04159101
65ceaba67bb38638483fbbb6,7,0,2024-02-28T14:28:47.193Z,english_746.wav,0,pill,1902,36,5,4,english,f,7,0.7,74.7415388,0.34194607
65ceaba67bb38638483fbbb6,7,0,2024-02-28T14:28:47.193Z,english_746.wav,0,pill,1902,36,5,4,english,f,8,0.8,-73.80839868,1.34456722
65ceaba67bb38638483fbbb6,7,0,2024-02-28T14:28:47.193Z,english_746.wav,0,pill,1902,36,5,4,english,f,9,0.9,16.67710805,0.32922526
65ceaba67bb38638483fbbb6,7,0,2024-02-28T14:28:47.193Z,english_746.wav,0,pill,1902,36,5,4,english,f,10,1.0,90.26780737,0.60956501
65ceaba67bb38638483fbbb6,7,0,2024-02-28T14:28:47.193Z,english_746.wav,0,pill,1902,36,5,4,english,f,11,1.09391667,-18.98803571,1.98648295
65ceaba67bb38638483fbbb6,8,0,2024-02-28T14:28:47.193Z,english_680.wav,0,peel,2466,36,5,4,english,f,0,0.0,34.87100104,0.28324866
65ceaba67bb38638483fbbb6,8,0,2024-02-28T14:28:47.193Z,english_680.wav,0,peel,2466,36,5,4,english,f,1,0.1,-42.78152033,0.8126674
65ceaba67bb38638483fbbb6,8,0,2024-02-28T14:28:47.193Z,english_680.wav,0,peel,2466,36,5,4,english,f,2,0.2,53.30670494,0.29371905
65ceaba67bb38638483fbbb6,8,0,2024-02-28T14:28:47.193Z,english_680.wav,0,peel,2466,36,5,4,english,f,3,0.3,-19.15351041,0.35755618
65ceaba67bb38638483fbbb6,8,0,2024-02-28T14:28:47.193Z,english_680.wav,0,peel,2466,36,5,4,english,f,4,0.4,81.43981803,1.51227527
65ceaba67bb38638483fbbb6,8,0,2024-02-28T14:28:47.193Z,english_680.wav,0,peel,2466,36,5,4,english,f,5,0.5,-40.3529223,1.96868376
65ceaba67bb38638483fbbb6,8,0,2024-02-28T14:28:47.193Z,english_680.wav,0,peel,2466,36,5,4,english,f,6,0.6,-80.08540334,0.83617015
65ceaba67bb38638483fbbb6,8,0,2024-02-28T14:28:47.193Z,english_680.wav,0,peel,2466,36,5,4,english,f,7,0.7,-59.88446673,0.96819403
65ceaba67bb38638483fbbb6,8,0,2024-02-28T14:28:47.193Z,english_680.wav,0,peel,2466,36,5,4,english,f,8,0.8,14.21531263,0.41039135
65ceaba67bb38638483fbbb6,8,0,2024-02-28T14:28:47.193Z,english_680.wav,0,peel,2466,36,5,4,english,f,9,0.9,39.26105915,0.45984498
65ceaba67bb38638483fbbb6,8,0,2024-02-28T14:28:47.193Z,english_680.wav,0,peel,2466,36,5,4,english,f,10,1.0,-43.76684188,0.60924907
65ceaba67bb38638483fbbb6,8,0,2024-02-28T14:28:47.193Z,english_680.wav,0,peel,2466,36,5,4,english,f,11,1.09391667,-17.50761484,0.18151502
65ceaba67bb38638483fbbb6,9,0,2024-02-28T14:28:47.193Z,english_293.wav,0,peel,489,36,5,4,english,f,0,0.0,-41.6717185,1.35571263
65ceaba67bb38638483fbbb6,9,0,2024-02-28T14:28:47.193Z,english_293.wav,0,peel,489,36,5,4,english,f,1,0.1,80.2291893,0.51147984
65ceaba67bb38638483fbbb6,9,0,2024-02-28T14:28:47.193Z,english_293.wav,0,peel,489,36,5,4,english,f,2,0.2,-71.0140068,0.41951934
65ceaba67bb38638483fbbb6,9,0,2024-02-28T14:28:47.193Z,english_293.wav,0,peel,489,36,5,4,english,f,3,0.3,-90.64066123,0.6442562
65ceaba67bb38638483fbbb6,9,0,2024-02-28T14:28:47.193Z,english_293.wav,0,peel,489,36,5,4,english,f,4,0.4,-6.53332233,0.98522539
65ceaba67bb38638483fbbb6,9,0,2024-02-28T14:28:47.193Z,english_293.wav,0,peel,489,36,5,4,english,f,5,0.5,-9.32979117,0.92132945
65ceaba67bb38638483fbbb6,9,0,2024-02-28T14:28:47.193Z,english_293.wav,0,peel,489,36,5,4,english,f,6,0.6,53.89735235,1.4753131
65ceaba67bb38638483fbbb6,9,0,2024-02-28T14:28:47.193Z,english_293.wav,0,peel,489,36,5,4,english,f,7,0.7,-63.4364313,0.11499708
65ceaba67bb38638483fbbb6,9,0,2024-02-28T14:28:47.193Z,english_293.wav,0,peel,489,36,5,4,english,f,8,0.8,-96.19547901,1.03841664
65ceaba67bb38638483fbbb6,9,0,2024-02-28T14:28:47.193Z,english_293.wav,0,peel,489,36,5,4,english,f,9,0.9,-36.41686224,1.94583411
65ceaba67bb38638483fbbb6,9,0,2024-02-28T14:28:47.193Z,english_293.wav,0,peel,489,36,5,4,english,f,10,1.0,99.46412477,0.65545153
65ceaba67bb38638483fbbb6,9,0,2024-02-28T14:28:47.193Z,english_293.wav,0,peel,489,36,5,4,english,f,11,1.09391667,17.36040502,1.59979165
65ceaba67bb38638483fbbb6,10,0,2024-02-28T14:28:47.193Z,english_604.wav,0,peel,2071,36,5,4,english,f,0,0.0,-7.32786977,0.45756233
65ceaba67bb38638483fbbb6,10,0,2024-02-28T14:28:47.193Z,english_604.wav,0,peel,2071,36,5,4,english,f,1,0.1,-57.46968162,0.00297482
65ceaba67bb38638483fbbb6,10,0,2024-02-28T14:28:47.193Z,english_604.wav,0,peel,2071,36,5,4,english,f,2,0.2,-51.48206507,1.19670532
65ceaba67bb38638483fbbb6,10,0,2024-02-28T14:28:47.193Z,english_604.wav,0,peel,2071,36,5,4,english,f,3,0.3,77.63466913,0.65081773
65ceaba67bb38638483fbbb6,10,0,2024-02-28T14:28:47.193Z,english_604.wav,0,peel,2071,36,5,4,english,f,4,0.4,45.22839705,0.22469511
65ceaba67bb38638483fbbb6,10,0,2024-02-28T14:28:47.193Z,english_604.wav,0,peel,2071,36,5,4,english,f,5,0.5,-27.78980975,0.33338284
65ceaba67bb38638483fbbb6,10,0,2024-02-28T14:28:47.193Z,english_604.wav,0,peel,2071,36,5,4,english,f,6,0.6,-14.67402927,1.91381058
65ceaba67bb38638483fbbb6,10,0,2024-02-28T14:28:47.193Z,english_604.wav,0,peel,2071,36,5,4,english,f,7,0.7,66.92200223,0.36993011
65ceaba67bb38638483fbbb6,10,0,2024-02-28T14:28:47.193Z,english_604.wav,0,peel,2071,36,5,4,english,f,8,0.8,44.7359597,1.21459689
65ceaba67bb38638483fbbb6,10,0,2024-02-28T14:28:47.193Z,english_604.wav,0,peel,2071,36,5,4,english,f,9,0.9,87.34456413,1.1126352
65ceaba67bb38638483fbbb6,10,0,2024-02-28T14:28:47.193Z,english_604.wav,0,peel,2071,36,5,4,english,f,10,1.0,37.61860755,1.39772335
65ceaba67bb38638483fbbb6,10,0,2024-02-28T14:28:47.193Z,english_604.wav,0,peel,2071,36,5,4,english,f,11,1.09391667,91.85438616,1.16252792
65ceaba67bb38638483fbbb6,11,0,2024-02-28T14:28:47.193Z,english_224.wav,0,peel,1267,36,5,4,english,f,0,0.0,-78.61506242,0.96291184
65ceaba67bb38638483fbbb6,11,0,2024-02-28T14:28:47.193Z,english_224.wav,0,peel,1267,36,5,4,english,f,1,0.1,50.32903383,1.02849412
65ceaba67bb38638483fbbb6,11,0,2024-02-28T14:28:47.193Z,english_224.wav,0,peel,1267,36,5,4,english,f,2,0.2,13.41609495,1.48046057
65ceaba67bb38638483fbbb6,11,0,2024-02-28T14:28:47.193Z,english_224.wav,0,peel,1267,36,5,4,english,f,3,0.3,-65.62214638,0.95403391
65ceaba67bb38638483fbbb6,11,0,2024-02-28T14:28:47.193Z,english_224.wav,0,peel,1267,36,5,4,english,f,4,0.4,-58.93648778,0.16536285
65ceaba67bb38638483fbbb6,11,0,2024-02-28T14:28:47.193Z,english_224.wav,0,peel,1267,36,5,4,english,f,5,0.5,72.28111683,1.42811474
65ceaba67bb38638483fbbb6,11,0,2024-02-28T14:28:47.193Z,english_224.wav,0,peel,1267,36,5,4,english,f,6,0.6,-46.77069374,0.74831178
65ceaba67bb38638483fbbb6,11,0,2024-02-28T14:28:47.193Z,english_224.wav,0,peel,1267,36,5,4,english,f,7,0.7,-90.37193795,1.44512366
65ceaba67bb38638483fbbb6,11,0,2024-02-28T14:28:47.193Z,english_224.wav,0,peel,1267,36,5,4,english,f,8,0.8,-0.43339445,1.0370843
65ceaba67bb38638483fbbb6,11,0,2024-02-28T14:28:47.193Z,english_224.wav,0,peel,1267,36,5,4,english,f,9,0.9,-45.45823975,0.73747726
65ceaba67bb38638483fbbb6,11,0,2024-02-28T14:28:47.193Z,english_224.wav,0,peel,1267,36,5,4,english,f,10,1.0,-68.1553756,0.53686902
65ceaba67bb38638483fbbb6,11,0,2024-02-28T14:28:47.193Z,english_224.wav,0,peel,1267,36,5,4,english,f,11,1.09391667,-50.27313826,1.24590757
65ceaba67bb38638483fbbb6,12,0,2024-02-28T14:28:47.193Z,english_591.wav,0,peel,2313,36,5,4,english,f,0,0.0,-33.59942656,0.74847219
65ceaba67bb38638483fbbb6,12,0,2024-02-28T14:28:47.193Z,english_591.wav,0,peel,2313,36,5,4,english,f,1,0.1,-41.84333916,1.40230026
65ceaba67bb38638483fbbb6,12,0,2024-02-28T14:28:47.193Z,english_591.wav,0,peel,2313,36,5,4,english,f,2,0.2,-40.30789258,1.16814049
65ceaba67bb38638483fbbb6,12,0,2024-02-28T14:28:47.193Z,english_591.wav,0,peel,2313,36,5,4,english,f,3,0.3,97.61230048,0.39427788
65ceaba67bb38638483fbbb6,12,0,2024-02-28T14:28:47.193Z,english_591.wav,0,peel,2313,36,5,4,english,f,4,0.4,-42.50162748,0.29523071
65ceaba67bb38638483fbbb6,12,0,2024-02-28T14:28:47.193Z,english_591.wav,0,peel,2313,36,5,4,english,f,5,0.5,-1.77866558,0.85786838
65ceaba67bb38638483fbbb6,12,0,2024-02-28T14:28:47.193Z,english_591.wav,0,peel,2313,36,5,4,english,f,6,0.6,0.70986705,1.07664541
65ceaba67bb38638483fbbb6,12,0,2024-02-28T14:28:47.193Z,english_591.wav,0,peel,2313,36,5,4,english,f,7,0.7,34.96717961,1.03582874
65ceaba67bb38638483fbbb6,12,0,2024-02-28T14:28:47.193Z,english_591.wav,0,peel,2313,36,5,4,english,f,8,0.8,-92.90998765,1.47906255
65ceaba67bb38638483fbbb6,12,0,2024-02-28T14:28:47.193Z,english_591.wav,0,peel,2313,36,5,4,english,f,9,0.9,-56.37241834,1.68040409
65ceaba67bb38638483fbbb6,12,0,2024-02-28T14:28:47.193Z,english_591.wav,0,peel,2313,36,5,4,english,f,10,1.0,5.28111122,0.00212421
65ceaba67bb38638483fbbb6,12,0,2024-02-28T14:28:47.193Z,english_591.wav,0,peel,2313,36,5,4,english,f,11,1.09391667,-12.0144277,0.47626778
65ceaba67bb38638483fbbb6,13,0,2024-02-28T14:28:47.193Z,english_949.wav,0,pill,939,36,5,4,english,f,0,0.0,54.61462209,1.24439385
65ceaba67bb38638483fbbb6,13,0,2024-02-28T14:28:47.193Z,english_949.wav,0,pill,939,36,5,4,english,f,1,0.1,-50.15567249,1.34534032
65ceaba67bb38638483fbbb6,13,0,2024-02-28T14:28:47.193Z,english_949.wav,0,pill,939,36,5,4,english,f,2,0.2,-79.16450403,1.77870323
65ceaba67bb38638483fbbb6,13,0,2024-02-28T14:28:47.193Z,english_949.wav,0,pill,939,36,5,4,english,f,3,0.3,-44.83948747,0.1999312
65ceaba67bb38638483fbbb6,13,0,2024-02-28T14:28:47.193Z,english_949.wav,0,pill,939,36,5,4,english,f,4,0.4,-72.5668355,0.37427324
65ceaba67bb38638483fbbb6,13,0,2024-02-28T14:28:47.193Z,english_949.wav,0,pill,939,36,5,4,english,f,5,0.5,23.11693261,0.13497677
65ceaba67bb38638483fbbb6,13,0,2024-02-28T14:28:47.193Z,english_949.wav,0,pill,939,36,5,4,english,f,6,0.6,55.55317843,0.61790997
65ceaba67bb38638483fbbb6,13,0,2024-02-28T14:28:47.193Z,english_949.wav,0,pill,939,36,5,4,english,f,7,0.7,59.5386341,0.95689705
65ceaba67bb38638483fbbb6,13,0,2024-02-28T14:28:47.193Z,english_949.wav,0,pill,939,36,5,4,english,f,8,0.8,67.81612368,0.69621675
65ceaba67bb38638483fbbb6,13,0,2024-02-28T14:28:47.193Z,english_949.wav,0,pill,939,36,5,4,english,f,9,0.9,-21.79138996,1.43619216
65ceaba67bb38638483fbbb6,13,0,2024-02-28T14:28:47.193Z,english_949.wav,0,pill,939,36,5,4,english,f,10,1.0,-21.61100123,0.99379929
65ceaba67bb38638483fbbb6,13,0,2024-02-28T14:28:47.193Z,english_949.wav,0,pill,939,36,5,4,english,f,11,1.09391667,60.1714172,0.04897066
65ceaba67bb38638483fbbb6,14,0,2024-02-28T14:28:47.193Z,english_498.wav,0,pill,2310,36,5,4,english,f,0,0.0,43.98055184,1.94722798
65ceaba67bb38638483fbbb6,14,0,2024-02-28T14:28:47.193Z,english_498.wav,0,pill,2310,36,5,4,english,f,1,0.1,91.3545984,1.93048351
65ceaba67bb38638483fbbb6,14,0,2024-02-28T14:28:47.193Z,english_498.wav,0,pill,2310,36,5,4,english,f,2,0.2,-25.91563113,0.27240706
65ceaba67bb38638483fbbb6,14,0,2024-02-28T14:28:47.193Z,english_498.wav,0,pill,2310,36,5,4,english,f,3,0.3,-14.96140851,1.06623965
65ceaba67bb38638483fbbb6,14,0,2024-02-28T14:28:47.193Z,english_498.wav,0,pill,2310,36,5,4,english,f,4,0.4,-8.05824247,1.41558656
65ceaba67bb38638483fbbb6,14,0,2024-02-28T14:28:47.193Z,english_498.wav,0,pill,2310,36,5,4,english,f,5,0.5,-61.63888891,0.26700347
65ceaba67bb38638483fbbb6,14,0,2024-02-28T14:28:47.193Z,english_498.wav,0,pill,2310,36,5,4,english,f,6,0.6,37.86658664,0.54434522
65ceaba67bb38638483fbbb6,14,0,2024-02-28T14:28:47.193Z,english_498.wav,0,pill,2310,36,5,4,english,f,7,0.7,-97.52325855,0.79258737
65ceaba67bb38638483fbbb6,14,0,2024-02-28T14:28:47.193Z,english_498.wav,0,pill,2310,36,5,4,english,f,8,0.8,-16.03910224,1.13417158
65ceaba67bb38638483fbbb6,14,0,2024-02-28T14:28:47.193Z,english_498.wav,0,pill,2310,36,5,4,english,f,9,0.9,83.25609208,0.68565339
65ceaba67bb38638483fbbb6,14,0,2024-02-28T14:28:47.193Z,english_498.wav,0,pill,2310,36,5,4,english,f,10,1.0,-65.28300381,0.73020294
65ceaba67bb38638483fbbb6,14,0,2024-02-28T14:28:47.193Z,english_498.wav,0,pill,2310,36,5,4,english,f,11,1.09391667,38.04109912,1.48505369
65ceaba67bb38638483fbbb6,15,0,2024-02-28T14:28:47.193Z,english_161.wav,0,pill,1584,36,5,4,english,f,0,0.0,0.2450503,0.47001228
65ceaba67bb38638483fbbb6,15,0,2024-02-28T14:28:47.193Z,english_161.wav,0,pill,1584,36,5,4,english,f,1,0.1,41.86400045,1.24375119
65ceaba67bb38638483fbbb6,15,0,2024-02-28T14:28:47.193Z,english_161.wav,0,pill,1584,36,5,4,english,f,2,0.2,3.22348346,0.98802588
65ceaba67bb38638483fbbb6,15,0,2024-02-28T14:28:47.193Z,english_161.wav,0,pill,1584,36,5,4,english,f,3,0.3,-24.29894103,1.92952194
65ceaba67bb38638483fbbb6,15,0,2024-02-28T14:28:47.193Z,english_161.wav,0,pill,1584,36,5,4,english,f,4,0.4,66.4308336,0.84385332
65ceaba67bb38638483fbbb6,15,0,2024-02-28T14:28:47.193Z,english_161.wav,0,pill,1584,36,5,4,english,f,5,0.5,-79.52202924,0.34569188
65ceaba67bb38638483fbbb6,15,0,2024-02-28T14:28:47.193Z,english_161.wav,0,pill,1584,36,5,4,english,f,6,0.6,-4.00284897,1.46988057
65ceaba67bb38638483fbbb6,15,0,2024-02-28T14:28:47.193Z,english_161.wav,0,pill,1584,36,5,4,english,f,7,0.7,-82.69040612,0.94597317
65ceaba67bb38638483fbbb6,15,0,2024-02-28T14:28:47.193Z,english_161.wav,0,pill,1584,36,5,4,english,f,8,0.8,32.14289288,0.70955806
65ceaba67bb38638483fbbb6,15,0,2024-02-28T14:28:47.193Z,english_161.wav,0,pill,1584,36,5,4,english,f,9,0.9,-94.27188699,1.39207721
65ceaba67bb38638483fbbb6,15,0,2024-02-28T14:28:47.193Z,english_161.wav,0,pill,1584,36,5,4,english,f,10,1.0,-14.10162234,0.79549611
65ceaba67bb38638483fbbb6,15,0,2024-02-28T14:28:47.193Z,english_161.wav,0,pill,1584,36,5,4,english,f,11,1.09391667,27.39748728,1.7090018
65ceaba67bb38638483fbbb6,16,0,2024-02-28T14:28:47.193Z,english_921.wav,0,peel,1593,36,5,4,english,f,0,0.0,31.46476347,1.40929115
65ceaba67bb38638483fbbb6,16,0,2024-02-28T14:28:47.193Z,english_921.wav,0,peel,1593,36,5,4,english,f,1,0.1,-97.58408055,0.95578469
65ceaba67bb38638483fbbb6,16,0,2024-02-28T14:28:47.193Z,english_921.wav,0,peel,1593,36,5,4,english,f,2,0.2,54.67506657,1.08840418
65ceaba67bb38638483fbbb6,16,0,2024-02-28T14:28:47.193Z,english_921.wav,0,peel,1593,36,5,4,english,f,3,0.3,22.21056557,0.27152021
65ceaba67bb38638483fbbb6,16,0,2024-02-28T14:28:47.193Z,english_921.wav,0,peel,1593,36,5,4,english,f,4,0.4,0.8393727,1.01175766
65ceaba67bb38638483fbbb6,16,0,2024-02-28T14:28:47.193Z,english_921.wav,0,peel,1593,36,5,4,english,f,5,0.5,-71.57742702,0.91544212
65ceaba67bb38638483fbbb6,16,0,2024-02-28T14:28:47.193Z,english_921.wav,0,peel,1593,36,5,4,english,f,6,0.6,-21.98162251,1.03161778
65ceaba67bb38638483fbbb6,16,0,2024-02-28T14:28:47.193Z,english_921.wav,0,peel,1593,36,5,4,english,f,7,0.7,-45.34354294,1.69417828
65ceaba67bb38638483fbbb6,16,0,2024-02-28T14:28:47.193Z,english_921.wav,0,peel,1593,36,5,4,english,f,8,0.8,-54.46580015,1.14800845
65ceaba67bb38638483fbbb6,16,0,2024-02-28T14:28:47.193Z,english_921.wav,0,peel,1593,36,5,4,english,f,9,0.9,-33.00243687,1.17008377
65ceaba67bb38638483fbbb6,16,0,2024-02-28T14:28:47.193Z,english_921.wav,0,peel,1593,36,5,4,english,f,10,1.0,45.39245913,0.19449602
65ceaba67bb38638483fbbb6,16,0,2024-02-28T14:28:47.193Z,english_921.wav,0,peel,1593,36,5,4,english,f,11,1.09391667,-24.69054897,1.58975603
65ceaba67bb38638483fbbb6,17,0,2024-02-28T14:28:47.193Z,english_914.wav,0,peel,1941,36,5,4,english,f,0,0.0,38.978205,0.35912604
65ceaba67bb38638483fbbb6,17,0,2024-02-28T14:28:47.193Z,english_914.wav,0,peel,1941,36,5,4,english,f,1,0.1,87.18341185,1.3669236
65ceaba67bb38638483fbbb6,17,0,2024-02-28T14:28:47.193Z,english_914.wav,0,peel,1941,36,5,4,english,f,2,0.2,15.47005822,0.84210071
65ceaba67bb38638483fbbb6,17,0,2024-02-28T14:28:47.193Z,english_914.wav,0,peel,1941,36,5,4,english,f,3,0.3,29.25641776,0.05134094
65ceaba67bb38638483fbbb6,17,0,2024-02-28T14:28:47.193Z,english_914.wav,0,peel,1941,36,5,4,english,f,4,0.4,-96.55134364,1.13395744
65ceaba67bb38638483fbbb6,17,0,2024-02-28T14:28:47.193Z,english_914.wav,0,peel,1941,36,5,4,english,f,5,0.5,-89.29155074,0.79197201
65ceaba67bb38638483fbbb6,17,0,2024-02-28T14:28:47.193Z,english_914.wav,0,peel,1941,36,5,4,english,f,6,0.6,-61.94858481,0.91379793
65ceaba67bb38638483fbbb6,17,0,2024-02-28T14:28:47.193Z,english_914.wav,0,peel,1941,36,5,4,english,f,7,0.7,-73.41037345,1.19795288
65ceaba67bb38638483fbbb6,17,0,2024-02-28T14:28:47.193Z,english_914.wav,0,peel,1941,36,5,4,english,f,8,0.8,-99.30720203,1.39899474
65ceaba67bb38638483fbbb6,17,0,2024-02-28T14:28:47.193Z,english_914.wav,0,peel,1941,36,5,4,english,f,9,0.9,81.02685233,0.56128817
65ceaba67bb38638483fbbb6,17,0,2024-02-28T14:28:47.193Z,english_914.wav,0,peel,1941,36,5,4,english,f,10,1.0,-61.71265148,1.38071697
65ceaba67bb38638483fbbb6,17,0,2024-02-28T14:28:47.193Z,english_914.wav,0,peel,1941,36,5,4,english,f,11,1.09391667,-35.17076378,1.53641314
65ceaba67bb38638483fbbb6,18,0,2024-02-28T14:28:47.193Z,english_467.wav,0,pill,1706,36,5,4,english,f,0,0.0,84.73520447,0.80775308
65ceaba67bb38638483fbbb6,18,0,2024-02-28T14:28:47.193Z,english_467.wav,0,pill,1706,36,5,4,english,f,1,0.1,88.96200227,0.60891261
65ceaba67bb38638483fbbb6,18,0,2024-02-28T14:28:47.193Z,english_467.wav,0,pill,1706,36,5,4,english,f,2,0.2,72.63675829,1.71596765
65ceaba67bb38638483fbbb6,18,0,2024-02-28T14:28:47.193Z,english_467.wav,0,pill,1706,36,5,4,english,f,3,0.3,-11.47164633,0.15084523
65ceaba67bb38638483fbbb6,18,0,2024-02-28T14:28:47.193Z,english_467.wav,0,pill,1706,36,5,4,english,f,4,0.4,-15.99279105,1.25287304
65ceaba67bb38638483fbbb6,18,0,2024-02-28T14:28:47.193Z,english_467.wav,0,pill,1706,36,5,4,english,f,5,0.5,-43.82437563,1.40086837
65ceaba67bb38638483fbbb6,18,0,2024-02-28T14:28:47.193Z,english_467.wav,0,pill,1706,36,5,4,english,f,6,0.6,43.03099958,0.418933
65ceaba67bb38638483fbbb6,18,0,2024-02-28T14:28:47.193Z,english_467.wav,0,pill,1706,36,5,4,english,f,7,0.7,-45.22330674,1.80339492
65ceaba67bb38638483fbbb6,18,0,2024-02-28T14:28:47.193Z,english_467.wav,0,pill,1706,36,5,4,english,f,8,0.8,76.52363546,0.77008525
65ceaba67bb38638483fbbb6,18,0,2024-02-28T14:28:47.193Z,english_467.wav,0,pill,1706,36,5,4,english,f,9,0.9,-64.57143565,1.13088524
65ceaba67bb38638483fbbb6,18,0,2024-02-28T14:28:47.193Z,english_467.wav,0,pill,1706,36,5,4,english,f,10,1.0,-23.20829111,0.17124527
65ceaba67bb38638483fbbb6,18,0,2024-02-28T14:28:47.193Z,english_467.wav,0,pill,1706,36,5,4,english,f,11,1.09391667,90.56201043,1.41524886
65ceaba67bb38638483fbbb6,19,0,2024-02-28T14:28:47.193Z,english_780.wav,0,pill,988,36,5,4,english,f,0,0.0,-87.5022813,1.98466869
65ceaba67bb38638483fbbb6,19,0,2024-02-28T14:28:47.193Z,english_780.wav,0,pill,988,36,5,4,english,f,1,0.1,48.02010378,1.54311759
65ceaba67bb38638483fbbb6,19,0,2024-02-28T14:28:47.193Z,english_780.wav,0,pill,988,36,5,4,english,f,2,0.2,83.84572734,0.61016867
65ceaba67bb38638483fbbb6,19,0,2024-02-28T14:28:47.193Z,english_780.wav,0,pill,988,36,5,4,english,f,3,0.3,9.25847543,1.29361746
65ceaba67bb38638483fbbb6,19,0,2024-02-28T14:28:47.193Z,english_780.wav,0,pill,988,36,5,4,english,f,4,0.4,49.97347861,0.77747475
65ceaba67bb38638483fbbb6,19,0,2024-02-28T14:28:47.193Z,english_780.wav,0,pill,988,36,5,4,english,f,5,0.5,-60.69242488,1.18422754
65ceaba67bb38638483fbbb6,19,0,2024-02-28T14:28:47.193Z,english_780.wav,0,pill,988,36,5,4,english,f,6,0.6,-21.82497806,0.82850866
65ceaba67bb38638483fbbb6,19,0,2024-02-28T14:28:47.193Z,english_780.wav,0,pill,988,36,5,4,english,f,7,0.7,13.87798501,0.60760734
65ceaba67bb38638483fbbb6,19,0,2024-02-28T14:28:47.193Z,english_780.wav,0,pill,988,36,5,4,english,f,8,0.8,32.41479889,0.87727466
65ceaba67bb38638483fbbb6,19,0,2024-02-28T14:28:47.193Z,english_780.wav,0,pill,988,36,5,4,english,f,9,0.9,54.1006632,1.39371886
65ceaba67bb38638483fbbb6,19,0,2024-02-28T14:28:47.193Z,english_780.wav,0,pill,988,36,5,4,english,f,10,1.0,-56.48325956,1.23252422
65ceaba67bb38638483fbbb6,19,0,2024-02-28T14:28:47.193Z,english_780.wav,0,pill,988,36,5,4,english,f,11,1.09391667,96.27244158,0.39725777
65ceaba67bb38638483fbbb6,20,0,2024-02-28T14:28:47.193Z,english_872.wav,0,pill,929,36,5,4,english,f,0,0.0,-4.42672904,1.38946162
65ceaba67bb38638483fbbb6,20,0,2024-02-28T14:28:47.193Z,english_872.wav,0,pill,929,36,5,4,english,f,1,0.1,-45.54953548,1.85362479
65ceaba67bb38638483fbbb6,20,0,2024-02-28T14:28:47.193Z,english_872.wav,0,pill,929,36,5,4,english,f,2,0.2,61.94236328,1.40120351
65ceaba67bb38638483fbbb6,20,0,2024-02-28T14:28:47.193Z,english_872.wav,0,pill,929,36,5,4,english,f,3,0.3,-6.76881519,0.73681545
65ceaba67bb38638483fbbb6,20,0,2024-02-28T14:28:47.193Z,english_872.wav,0,pill,929,36,5,4,english,f,4,0.4,70.60925321,1.34579028
65ceaba67bb38638483fbbb6,20,0,2024-02-28T14:28:47.193Z,english_872.wav,0,pill,929,36,5,4,english,f,5,0.5,61.83462206,0.03433947
65ceaba67bb38638483fbbb6,20,0,2024-02-28T14:28:47.193Z,english_872.wav,0,pill,929,36,5,4,english,f,6,0.6,80.97898291,0.00901878
65ceaba67bb38638483fbbb6,20,0,2024-02-28T14:28:47.193Z,english_872.wav,0,pill,929,36,5,4,english,f,7,0.7,85.22540412,0.90232531
65ceaba67bb38638483fbbb6,20,0,2024-02-28T14:28:47.193Z,english_872.wav,0,pill,929,36,5,4,english,f,8,0.8,0.99054443,1.1650967
65ceaba67bb38638483fbbb6,20,0,2024-02-28T14:28:47.193Z,english_872.wav,0,pill,929,36,5,4,english,f,9,0.9,4.65362218,1.94757047
65ceaba67bb38638483fbbb6,20,0,2024-02-28T14:28:47.193Z,english_872.wav,0,pill,929,36,5,4,english,f,10,1.0,-50.74375514,1.11012852
65ceaba67bb38638483fbbb6,20,0,2024-02-28T14:28:47.193Z,english_872.wav,0,pill,929,36,5,4,english,f,11,1.09391667,-72.71002663,1.91238116
65ceaba67bb38638483fbbb6,21,0,2024-02-28T14:28:47.193Z,english_273.wav,0,pill,872,36,5,4,english,f,0,0.0,98.52666227,0.76053605
65ceaba67bb38638483fbbb6,21,0,2024-02-28T14:28:47.193Z,english_273.wav,0,pill,872,36,5,4,english,f,1,0.1,-14.53697977,1.55944865
65ceaba67bb38638483fbbb6,21,0,2024-02-28T14:28:47.193Z,english_273.wav,0,pill,872,36,5,4,english,f,2,0.2,-27.73641003,1.1926207
65ceaba67bb38638483fbbb6,21,0,2024-02-28T14:28:47.193Z,english_273.wav,0,pill,872,36,5,4,english,f,3,0.3,-33.00016706,0.4837488
65ceaba67bb38638483fbbb6,21,0,2024-02-28T14:28:47.193Z,english_273.wav,0,pill,872,36,5,4,english,f,4,0.4,-94.64333813,0.26449836
65ceaba67bb38638483fbbb6,21,0,2024-02-28T14:28:47.193Z,english_273.wav,0,pill,872,36,5,4,english,f,5,0.5,-41.61617203,0.91523242
65ceaba67bb38638483fbbb6,21,0,2024-02-28T14:28:47.193Z,english_273.wav,0,pill,872,36,5,4,english,f,6,0.6,49.41815244,1.22186228
65ceaba67bb38638483fbbb6,21,0,2024-02-28T14:28:47.193Z,english_273.wav,0,pill,872,36,5,4,english,f,7,0.7,-30.32061772,1.22601092
65ceaba67bb38638483fbbb6,21,0,2024-02-28T14:28:47.193Z,english_273.wav,0,pill,872,36,5,4,english,f,8,0.8,-35.74709192,0.47362103
65ceaba67bb38638483fbbb6,21,0,2024-02-28T14:28:47.193Z,english_273.wav,0,pill,872,36,5,4,english,f,9,0.9,-13.60946608,1.12741722
65ceaba67bb38638483fbbb6,21,0,2024-02-28T14:28:47.193Z,english_273.wav,0,pill,872,36,5,4,english,f,10,1.0,-32.82037382,1.62942093
65ceaba67bb38638483fbbb6,21,0,2024-02-28T14:28:47.193Z,english_273.wav,0,pill,872,36,5,4,english,f,11,1.09391667,33.32212964,0.13586673
65ceaba67bb38638483fbbb6,22,0,2024-02-28T14:28:47.193Z,english_63.wav,0,peel,1419,36,5,4,english,f,0,0.0,48.80645604,0.56207448
65ceaba67bb38638483fbbb6,22,0,2024-02-28T14:28:47.193Z,english_63.wav,0,peel,1419,36,5,4,english,f,1,0.1,3.74871088,0.93485315
65ceaba67bb38638483fbbb6,22,0,2024-02-28T14:28:47.193Z,english_63.wav,0,peel,1419,36,5,4,english,f,2,0.2,36.66338235,1.21075073
65ceaba67bb38638483fbbb6,22,0,2024-02-28T14:28:47.193Z,english_63.wav,0,peel,1419,36,5,4,english,f,3,0.3,0.45158548,1.91331277
65ceaba67bb38638483fbbb6,22,0,2024-02-28T14:28:47.193Z,english_63.wav,0,peel,1419,36,5,4,english,f,4,0.4,-34.50897998,0.52750999
65ceaba67bb38638483fbbb6,22,0,2024-02-28T14:28:47.193Z,english_63.wav,0,peel,1419,36,5,4,english,f,5,0.5,21.44979621,1.42707635
65ceaba67bb38638483fbbb6,22,0,2024-02-28T14:28:47.193Z,english_63.wav,0,peel,1419,36,5,4,english,f,6,0.6,-13.42489637,1.96742567
65ceaba67bb38638483fbbb6,22,0,2024-02-28T14:28:47.193Z,english_63.wav,0,peel,1419,36,5,4,english,f,7,0.7,3.18187359,1.57355325
65ceaba67bb38638483fbbb6,22,0,2024-02-28T14:28:47.193Z,english_63.wav,0,peel,1419,36,5,4,english,f,8,0.8,-14.80243304,0.94386171
65ceaba67bb38638483fbbb6,22,0,2024-02-28T14:28:47.193Z,english_63.wav,0,peel,1419,36,5,4,english,f,9,0.9,76.25105629,0.6095205
65ceaba67bb38638483fbbb6,22,0,2024-02-28T14:28:47.193Z,english_63.wav,0,peel,1419,36,5,4,english,f,10,1.0,-29.02472721,0.97846037
65ceaba67bb38638483fbbb6,22,0,2024-02-28T14:28:47.193Z,english_63.wav,0,peel,1419,36,5,4,english,f,11,1.09391667,-75.42163707,1.94412545
65ceaba67bb38638483fbbb6,23,0,2024-02-28T14:28:47.193Z,english_857.wav,0,pill,2319,36,5,4,english,f,0,0.0,-56.93168928,1.92395656
65ceaba67bb38638483fbbb6,23,0,2024-02-28T14:28:47.193Z,english_857.wav,0,pill,2319,36,5,4,english,f,1,0.1,-40.57515649,1.41156549
65ceaba67bb38638483fbbb6,23,0,2024-02-28T14:28:47.193Z,english_857.wav,0,pill,2319,36,5,4,english,f,2,0.2,-26.26283105,0.14185194
65ceaba67bb38638483fbbb6,23,0,2024-02-28T14:28:47.193Z,english_857.wav,0,pill,2319,36,5,4,english,f,3,0.3,-49.62797955,1.1985334
65ceaba67bb38638483fbbb6,23,0,2024-02-28T14:28:47.193Z,english_857.wav,0,pill,2319,36,5,4,english,f,4,0.4,47.07146778,0.83326814
65ceaba67bb38638483fbbb6,23,0,2024-02-28T14:28:47.193Z,english_857.wav,0,pill,2319,36,5,4,english,f,5,0.5,-96.41882062,0.71224123
65ceaba67bb38638483fbbb6,23,0,2024-02-28T14:28:47.193Z,english_857.wav,0,pill,2319,36,5,4,english,f,6,0.6,63.09662026,1.58040322
65ceaba67bb38638483fbbb6,23,0,2024-02-28T14:28:47.193Z,english_857.wav,0,pill,2319,36,5,4,english,f,7,0.7,98.67053018,1.02327595
65ceaba67bb38638483fbbb6,23,0,2024-02-28T14:28:47.193Z,english_857.wav,0,pill,2319,36,5,4,english,f,8,0.8,-56.85749065,1.48703987
65ceaba67bb38638483fbbb6,23,0,2024-02-28T14:28:47.193Z,english_857.wav,0,pill,2319,36,5,4,english,f,9,0.9,-18.03690135,0.70290333
65ceaba67bb38638483fbbb6,23,0,2024-02-28T14:28:47.193Z,english_857.wav,0,pill,2319,36,5,4,english,f,10,1.0,52.13097753,0.53460392
65ceaba67bb38638483fbbb6,23,0,2024-02-28T14:28:47.193Z,english_857.wav,0,pill,2319,36,5,4,english,f,11,1.09391667,52.54650928,1.10851945
65ceaba67bb38638483fbbb6,24,0,2024-02-28T14:28:47.193Z,english_739.wav,0,pill,911,36,5,4,english,f,0,0.0,1.66907671,0.87693375
65ceaba67bb38638483fbbb6,24,0,2024-02-28T14:28:47.193Z,english_739.wav,0,pill,911,36,5,4,english,f,1,0.1,32.28194312,0.65337813
65ceaba67bb38638483fbbb6,24,0,2024-02-28T14:28:47.193Z,english_739.wav,0,pill,911,36,5,4,english,f,2,0.2,88.89595153,0.64089741
65ceaba67bb38638483fbbb6,24,0,2024-02-28T14:28:47.193Z,english_739.wav,0,pill,911,36,5,4,english,f,3,0.3,20.95779095,1.8100412
65ceaba67bb38638483fbbb6,24,0,2024-02-28T14:28:47.193Z,english_739.wav,0,pill,911,36,5,4,english,f,4,0.4,75.26857339,1.25976755
65ceaba67bb38638483fbbb6,24,0,2024-02-28T14:28:47.193Z,english_739.wav,0,pill,911,36,5,4,english,f,5,0.5,80.94392955,0.9768095
65ceaba67bb38638483fbbb6,24,0,2024-02-28T14:28:47.193Z,english_739.wav,0,pill,911,36,5,4,english,f,6,0.6,17.54887525,1.56119235
65ceaba67bb38638483fbbb6,24,0,2024-02-28T14:28:47.193Z,english_739.wav,0,pill,911,36,5,4,english,f,7,0.7,25.07377362,0.95993111
65ceaba67bb38638483fbbb6,24,0,2024-02-28T14:28:47.193Z,english_739.wav,0,pill,911,36,5,4,english,f,8,0.8,92.52917298,0.31388654
65ceaba67bb38638483fbbb6,24,0,2024-02-28T14:28:47.193Z,english_739.wav,0,pill,911,36,5,4,english,f,9,0.9,2.73629171,1.55063506
65ceaba67bb38638483fbbb6,24,0,2024-02-28T14:28:47.193Z,english_739.wav,0,pill,911,36,5,4,english,f,10,1.0,-80.00700458,1.57282249
65ceaba67bb38638483fbbb6,24,0,2024-02-28T14:28:47.193Z,english_739.wav,0,pill,911,36,5,4,english,f,11,1.09391667,-87.47656885,1.46307629
65ceaba67bb38638483fbbb6,25,0,2024-02-28T14:28:47.193Z,english_721.wav,0,peel,835,36,5,4,english,f,0,0.0,-21.91327124,0.70003707
65ceaba67bb38638483fbbb6,25,0,2024-02-28T14:28:47.193Z,english_721.wav,0,peel,835,36,5,4,english,f,1,0.1,-90.20435546,0.21927921
65ceaba67bb38638483fbbb6,25,0,2024-02-28T14:28:47.193Z,english_721.wav,0,peel,835,36,5,4,english,f,2,0.2,95.69234683,1.46481191
65ceaba67bb38638483fbbb6,25,0,2024-02-28T14:28:47.193Z,english_721.wav,0,peel,835,36,5,4,english,f,3,0.3,22.1637049,0.791078
65ceaba67bb38638483fbbb6,25,0,2024-02-28T14:28:47.193Z,english_721.wav,0,peel,835,36,5,4,english,f,4,0.4,11.60833415,1.28893612
65ceaba67bb38638483fbbb6,25,0,2024-02-28T14:28:47.193Z,english_721.wav,0,peel,835,36,5,4,english,f,5,0.5,-18.08358407,1.03888409
65ceaba67bb38638483fbbb6,25,0,2024-02-28T14:28:47.193Z,english_721.wav,0,peel,835,36,5,4,english,f,6,0.6,-18.19761364,1.04801609
65ceaba67bb38638483fbbb6,25,0,2024-02-28T14:28:47.193Z,english_721.wav,0,peel,835,36,5,4,english,f,7,0.7,68.04091508,1.56253366
65ceaba67bb38638483fbbb6,25,0,2024-02-28T14:28:47.193Z,english_721.wav,0,peel,835,36,5,4,english,f,8,0.8,78.50797801,1.28640088
65ceaba67bb38638483fbbb6,25,0,2024-02-28T14:28:47.193Z,english_721.wav,0,peel,835,36,5,4,english,f,9,0.9,-26.72259946,0.27215185
65ceaba67bb38638483fbbb6,25,0,2024-02-28T14:28:47.193Z,english_721.wav,0,peel,835,36,5,4,english,f,10,1.0,-5.45523717,0.551057
65ceaba67bb38638483fbbb6,25,0,2024-02-28T14:28:47.193Z,english_721.wav,0,peel,835,36,5,4,english,f,11,1.09391667,8.48352437,1.19022125
65ceaba67bb38638483fbbb6,26,0,2024-02-28T14:28:47.193Z,english_204.wav,0,pill,1976,36,5,4,english,f,0,0.0,-54.18548322,0.4935822
65ceaba67bb38638483fbbb6,26,0,2024-02-28T14:28:47.193Z,english_204.wav,0,pill,1976,36,5,4,english,f,1,0.1,-11.27218157,1.37686427
65ceaba67bb38638483fbbb6,26,0,2024-02-28T14:28:47.193Z,english_204.wav,0,pill,1976,36,5,4,english,f,2,0.2,57.70913134,1.17627269
65ceaba67bb38638483fbbb6,26,0,2024-02-28T14:28:47.193Z,english_204.wav,0,pill,1976,36,5,4,english,f,3,0.3,-85.27797026,1.14645494
65ceaba67bb38638483fbbb6,26,0,2024-02-28T14:28:47.193Z,english_204.wav,0,pill,1976,36,5,4,english,f,4,0.4,28.61054009,1.61303053
65ceaba67bb38638483fbbb6,26,0,2024-02-28T14:28:47.193Z,english_204.wav,0,pill,1976,36,5,4,english,f,5,0.5,-36.71816677,0.72559221
65ceaba67bb38638483fbbb6,26,0,2024-02-28T14:28:47.193Z,english_204.wav,0,pill,1976,36,5,4,english,f,6,0.6,-27.72446487,1.95000364
65ceaba67bb38638483fbbb6,26,0,2024-02-28T14:28:47.193Z,english_204.wav,0,pill,1976,36,5,4,english,f,7,0.7,14.69142801,0.06695508
65ceaba67bb38638483fbbb6,26,0,2024-02-28T14:28:47.193Z,english_204.wav,0,pill,1976,36,5,4,english,f,8,0.8,9.61746044,1.52094915
65ceaba67bb38638483fbbb6,26,0,2024-02-28T14:28:47.193Z,english_204.wav,0,pill,1976,36,5,4,english,f,9,0.9,22.67127582,0.41034945
65ceaba67bb38638483fbbb6,26,0,2024-02-28T14:28:47.193Z,english_204.wav,0,pill,1976,36,5,4,english,f,10,1.0,69.36328148,0.4470276
65ceaba67bb38638483fbbb6,26,0,2024-02-28T14:28:47.193Z,english_204.wav,0,pill,1976,36,5,4,english,f,11,1.09391667,-44.4283226,1.93225144
65ceaba67bb38638483fbbb6,27,0,2024-02-28T14:28:47.193Z,english_874.wav,0,pill,2627,36,5,4,english,f,0,0.0,-71.39498579,1.26251394
65ceaba67bb38638483fbbb6,27,0,2024-02-28T14:28:47.193Z,english_874.wav,0,pill,2627,36,5,4,english,f,1,0.1,62.98858744,1.60813214
65ceaba67bb38638483fbbb6,27,0,2024-02-28T14:28:47.193Z,english_874.wav,0,pill,2627,36,5,4,english,f,2,0.2,41.27867713,0.77910004
65ceaba67bb38638483fbbb6,27,0,2024-02-28T14:28:47.193Z,english_874.wav,0,pill,2627,36,5,4,english,f,3,0.3,-0.45014309,1.66768461
65ceaba67bb38638483fbbb6,27,0,2024-02-28T14:28:47.193Z,english_874.wav,0,pill,2627,36,5,4,english,f,4,0.4,-62.23813069,1.66631965
65ceaba67bb38638483fbbb6,27,0,2024-02-28T14:28:47.193Z,english_874.wav,0,pill,2627,36,5,4,english,f,5,0.5,81.69191529,0.96578831
65ceaba67bb38638483fbbb6,27,0,2024-02-28T14:28:47.193Z,english_874.wav,0,pill,2627,36,5,4,english,f,6,0.6,-39.52630557,1.50022708
65ceaba67bb38638483fbbb6,27,0,2024-02-28T14:28:47.193Z,english_874.wav,0,pill,2627,36,5,4,english,f,7,0.7,6.61232929,0.80807106
65ceaba67bb38638483fbbb6,27,0,2024-02-28T14:28:47.193Z,english_874.wav,0,pill,2627,36,5,4,english,f,8,0.8,76.37120083,0.57035077
65ceaba67bb38638483fbbb6,27,0,2024-02-28T14:28:47.193Z,english_874.wav,0,pill,2627,36,5,4,english,f,9,0.9,72.14080556,0.35036103
65ceaba67bb38638483fbbb6,27,0,2024-02-28T14:28:47.193Z,english_874.wav,0,pill,2627,36,5,4,english,f,10,1.0,56.73337142,0.39594805
65ceaba67bb38638483fbbb6,27,0,2024-02-28T14:28:47.193Z,english_874.wav,0,pill,2627,36,5,4,english,f,11,1.09391667,-44.63255829,1.14540291
65ceaba67bb38638483fbbb6,28,0,2024-02-28T14:28:47.193Z,english_65.wav,0,peel,983,36,5,4,english,f,0,0.0,-44.08652709,1.3840041
65ceaba67bb38638483fbbb6,28,0,2024-02-28T14:28:47.193Z,english_65.wav,0,peel,983,36,5,4,english,f,1,0.1,3.68023197,1.67820436
65ceaba67bb38638483fbbb6,28,0,2024-02-28T14:28:47.193Z,english_65.wav,0,peel,983,36,5,4,english,f,2,0.2,-19.05866896,1.58939797
65ceaba67bb38638483fbbb6,28,0,2024-02-28T14:28:47.193Z,english_65.wav,0,peel,983,36,5,4,english,f,3,0.3,12.87316772,0.13316714
65ceaba67bb38638483fbbb6,28,0,2024-02-28T14:28:47.193Z,english_65.wav,0,peel,983,36,5,4,english,f,4,0.4,-96.16119339,0.86814229
65ceaba67bb38638483fbbb6,28,0,2024-02-28T14:28:47.193Z,english_65.wav,0,peel,983,36,5,4,english,f,5,0.5,-80.0946771,0.41459676
65ceaba67bb38638483fbbb6,28,0,2024-02-28T14:28:47.193Z,english_65.wav,0,peel,983,36,5,4,english,f,6,0.6,69.71447188,1.482845
65ceaba67bb38638483fbbb6,28,0,2024-02-28T14:28:47.193Z,english_65.wav,0,peel,983,36,5,4,english,f,7,0.7,31.09176238,0.500881
65ceaba67bb38638483fbbb6,28,0,2024-02-28T14:28:47.193Z,english_65.wav,0,peel,983,36,5,4,english,f,8,0.8,5.95151439,1.54890047
65ceaba67bb38638483fbbb6,28,0,2024-02-28T14:28:47.193Z,english_65.wav,0,peel,983,36,5,4,english,f,9,0.9,-95.02350092,0.653854
65ceaba67bb38638483fbbb6,28,0,2024-02-28T14:28:47.193Z,english_65.wav,0,peel,983,36,5,4,english,f,10,1.0,40.23975653,1.48515765
65ceaba67bb38638483fbbb6,28,0,2024-02-28T14:28:47.193Z,english_65.wav,0,peel,983,36,5,4,english,f,11,1.09391667,55.65657795,1.57918375
65ceaba67bb38638483fbbb6,29,0,2024-02-28T14:28:47.193Z,english_428.wav,0,pill,1560,36,5,4,english,f,0,0.0,81.83092524,1.65195738
65ceaba67bb38638483fbbb6,29,0,2024-02-28T14:28:47.193Z,english_428.wav,0,pill,1560,36,5,4,english,f,1,0.1,-80.13069751,1.50342219
65ceaba67bb38638483fbbb6,29,0,2024-02-28T14:28:47.193Z,english_428.wav,0,pill,1560,36,5,4,english,f,2,0.2,-11.65632902,1.06152039
65ceaba67bb38638483fbbb6,29,0,2024-02-28T14:28:47.193Z,english_428.wav,0,pill,1560,36,5,4,english,f,3,0.3,-46.08084266,0.87273268
65ceaba67bb38638483fbbb6,29,0,2024-02-28T14:28:47.193Z,english_428.wav,0,pill,1560,36,5,4,english,f,4,0.4,3.29741478,1.30041173
65ceaba67bb38638483fbbb6,29,0,2024-02-28T14:28:47.193Z,english_428.wav,0,pill,1560,36,5,4,english,f,5,0.5,38.2144639,1.27181021
65ceaba67bb38638483fbbb6,29,0,2024-02-28T14:28:47.193Z,english_428.wav,0,pill,1560,36,5,4,english,f,6,0.6,-36.34649143,1.2829939
65ceaba67bb38638483fbbb6,29,0,2024-02-28T14:28:47.193Z,english_428.wav,0,pill,1560,36,5,4,english,f,7,0.7,-64.94911042,0.80379216
65ceaba67bb38638483fbbb6,29,0,2024-02-28T14:28:47.193Z,english_428.wav,0,pill,1560,36,5,4,english,f,8,0.8,55.28808141,0.54976242
65ceaba67bb38638483fbbb6,29,0,2024-02-28T14:28:47.193Z,english_428.wav,0,pill,1560,36,5,4,english,f,9,0.9,-85.65631623,1.4846347
65ceaba67bb38638483fbbb6,29,0,2024-02-28T14:28:47.193Z,english_428.wav,0,pill,1560,36,5,4,english,f,10,1.0,45.03584187,0.86531381
65ceaba67bb38638483fbbb6,29,0,2024-02-28T14:28:47.193Z,english_428.wav,0,pill,1560,36,5,4,english,f,11,1.09391667,-22.28745039,0.63375774
65ceaba67bb38638483fbbb6,30,0,2024-02-28T14:28:47.193Z,english_241.wav,0,peel,1090,36,5,4,english,f,0,0.0,-97.22432216,1.35478851
65ceaba67bb38638483fbbb6,30,0,2024-02-28T14:28:47.193Z,english_241.wav,0,peel,1090,36,5,4,english,f,1,0.1,-28.14905208,0.42795765
65ceaba67bb38638483fbbb6,30,0,2024-02-28T14:28:47.193Z,english_241.wav,0,peel,1090,36,5,4,english,f,2,0.2,47.39910383,0.77593108
65ceaba67bb38638483fbbb6,30,0,2024-02-28T14:28:47.193Z,english_241.wav,0,peel,1090,36,5,4,english,f,3,0.3,62.74698337,1.52084491
65ceaba67bb38638483fbbb6,30,0,2024-02-28T14:28:47.193Z,english_241.wav,0,peel,1090,36,5,4,english,f,4,0.4,42.69629452,1.0423858
65ceaba67bb38638483fbbb6,30,0,2024-02-28T14:28:47.193Z,english_241.wav,0,peel,1090,36,5,4,english,f,5,0.5,-28.86057988,0.26192027
65ceaba67bb38638483fbbb6,30,0,2024-02-28T14:28:47.193Z,english_241.wav,0,peel,1090,36,5,4,english,f,6,0.6,47.37469517,1.65360196
65ceaba67bb38638483fbbb6,30,0,2024-02-28T14:28:47.193Z,english_241.wav,0,peel,1090,36,5,4,english,f,7,0.7,19.60148675,1.3989631
65ceaba67bb38638483fbbb6,30,0,2024-02-28T14:28:47.193Z,english_241.wav,0,peel,1090,36,5,4,english,f,8,0.8,25.28127543,0.94780347
65ceaba67bb38638483fbbb6,30,0,2024-02-28T14:28:47.193Z,english_241.wav,0,peel,1090,36,5,4,english,f,9,0.9,-90.65530928,1.1797356
65ceaba67bb38638483fbbb6,30,0,2024-02-28T14:28:47.193Z,english_241.wav,0,peel,1090,36,5,4,english,f,10,1.0,58.14244463,1.19530939
65ceaba67bb38638483fbbb6,30,0,2024-02-28T14:28:47.193Z,english_241.wav,0,peel,1090,36,5,4,english,f,11,1.09391667,33.70088271,0.5415955
65ceaba67bb38638483fbbb6,31,0,2024-02-28T14:28:47.193Z,english_108.wav,0,peel,1023,36,5,4,english,f,0,0.0,-72.12984017,0.26945128
65ceaba67bb38638483fbbb6,31,0,2024-02-28T14:28:47.193Z,english_108.wav,0,peel,1023,36,5,4,english,f,1,0.1,8.19812644,1.01925784
65ceaba67bb38638483fbbb6,31,0,2024-02-28T14:28:47.193Z,english_108.wav,0,peel,1023,36,5,4,english,f,2,0.2,78.6546888,1.32918217
65ceaba67bb38638483fbbb6,31,0,2024-02-28T14:28:47.193Z,english_108.wav,0,peel,1023,36,5,4,english,f,3,0.3,-30.04278384,0.63536527
65ceaba67bb38638483fbbb6,31,0,2024-02-28T14:28:47.193Z,english_108.wav,0,peel,1023,36,5,4,english,f,4,0.4,-12.36369755,1.19436668
65ceaba67bb38638483fbbb6,31,0,2024-02-28T14:28:47.193Z,english_108.wav,0,peel,1023,36,5,4,english,f,5,0.5,70.67382026,0.3289366
65ceaba67bb38638483fbbb6,31,0,2024-02-28T14:28:47.193Z,english_108.wav,0,peel,1023,36,5,4,english,f,6,0.6,-56.34929952,1.40732185
65ceaba67bb38638483fbbb6,31,0,2024-02-28T14:28:47.193Z,english_108.wav,0,peel,1023,36,5,4,english,f,7,0.7,-58.84895788,0.91014899
65ceaba67bb38638483fbbb6,31,0,2024-02-28T14:28:47.193Z,english_108.wav,0,peel,1023,36,5,4,english,f,8,0.8,-57.8473435,0.89824174
65ceaba67bb38638483fbbb6,31,0,2024-02-28T14:28:47.193Z,english_108.wav,0,peel,1023,36,5,4,english,f,9,0.9,74.00200547,0.75928312
65ceaba67bb38638483fbbb6,31,0,2024-02-28T14:28:47.193Z,english_108.wav,0,peel,1023,36,5,4,english,f,10,1.0,14.31080133,1.3591553
65ceaba67bb38638483fbbb6,31,0,2024-02-28T14:28:47.193Z,english_108.wav,0,peel,1023,36,5,4,english,f,11,1.09391667,52.36561827,1.12113776
65ceaba67bb38638483fbbb6,32,0,2024-02-28T14:28:47.193Z,english_31.wav,0,peel,1309,36,5,4,english,f,0,0.0,27.66535658,1.77982522
65ceaba67bb38638483fbbb6,32,0,2024-02-28T14:28:47.193Z,english_31.wav,0,peel,1309,36,5,4,english,f,1,0.1,13.56694794,1.07162792
65ceaba67bb38638483fbbb6,32,0,2024-02-28T14:28:47.193Z,english_31.wav,0,peel,1309,36,5,4,english,f,2,0.2,18.47033094,0.18234571
65ceaba67bb38638483fbbb6,32,0,2024-02-28T14:28:47.193Z,english_31.wav,0,peel,1309,36,5,4,english,f,3,0.3,59.04276692,1.10955417
65ceaba67bb38638483fbbb6,32,0,2024-02-28T14:28:47.193Z,english_31.wav,0,peel,1309,36,5,4,english,f,4,0.4,-91.09157625,1.72425302
65ceaba67bb38638483fbbb6,32,0,2024-02-28T14:28:47.193Z,english_31.wav,0,peel,1309,36,5,4,english,f,5,0.5,-18.02658585,0.5579513
65ceaba67bb38638483fbbb6,32,0,2024-02-28T14:28:47.193Z,english_31.wav,0,peel,1309,36,5,4,english,f,6,0.6,-35.60184109,1.93053319
65ceaba67bb38638483fbbb6,32,0,2024-02-28T14:28:47.193Z,english_31.wav,0,peel,1309,36,5,4,english,f,7,0.7,54.26515106,1.77971636
65ceaba67bb38638483fbbb6,32,0,2024-02-28T14:28:47.193Z,english_31.wav,0,peel,1309,36,5,4,english,f,8,0.8,-22.38727861,0.37301738
65ceaba67bb38638483fbbb6,32,0,2024-02-28T14:28:47.193Z,english_31.wav,0,peel,1309,36,5,4,english,f,9,0.9,43.77933905,1.40160657
65ceaba67bb38638483fbbb6,32,0,2024-02-28T14:28:47.193Z,english_31.wav,0,peel,1309,36,5,4,english,f,10,1.0,18.37090143,0.31959468
65ceaba67bb38638483fbbb6,32,0,2024-02-28T14:28:47.193Z,english_31.wav,0,peel,1309,36,5,4,english,f,11,1.09391667,6.84824494,1.79655945
65ceaba67bb38638483fbbb6,33,0,2024-02-28T14:28:47.193Z,english_540.wav,0,pill,744,36,5,4,english,f,0,0.0,56.3389614,0.35919702
65ceaba67bb38638483fbbb6,33,0,2024-02-28T14:28:47.193Z,english_540.wav,0,pill,744,36,5,4,english,f,1,0.1,15.5810044,0.12290397
65ceaba67bb38638483fbbb6,33,0,2024-02-28T14:28:47.193Z,english_540.wav,0,pill,744,36,5,4,english,f,2,0.2,-57.00882779,0.4388906
65ceaba67bb38638483fbbb6,33,0,2024-02-28T14:28:47.193Z,english_540.wav,0,pill,744,36,5,4,english,f,3,0.3,-38.51831774,1.4101729
65ceaba67bb38638483fbbb6,33,0,2024-02-28T14:28:47.193Z,english_540.wav,0,pill,744,36,5,4,english,f,4,0.4,-2.48649571,1.50441402
65ceaba67bb38638483fbbb6,33,0,2024-02-28T14:28:47.193Z,english_540.wav,0,pill,744,36,5,4,english,f,5,0.5,47.94489788,0.12973549
65ceaba67bb38638483fbbb6,33,0,2024-02-28T14:28:47.193Z,english_540.wav,0,pill,744,36,5,4,english,f,6,0.6,-25.26992134,1.5432215
65ceaba67bb38638483fbbb6,33,0,2024-02-28T14:28:47.193Z,english_540.wav,0,pill,744,36,5,4,english,f,7,0.7,71.13867004,0.81755123
65ceaba67bb38638483fbbb6,33,0,2024-02-28T14:28:47.193Z,english_540.wav,0,pill,744,36,5,4,english,f,8,0.8,-84.74018584,1.08085579
65ceaba67bb38638483fbbb6,33,0,2024-02-28T14:28:47.193Z,english_540.wav,0,pill,744,36,5,4,english,f,9,0.9,36.45045372,1.434422
65ceaba67bb38638483fbbb6,33,0,2024-02-28T14:28:47.193Z,english_540.wav,0,pill,744,36,5,4,english,f,10,1.0,21.99011702,0.97494001
65ceaba67bb38638483fbbb6,33,0,2024-02-28T14:28:47.193Z,english_540.wav,0,pill,744,36,5,4,english,f,11,1.09391667,81.39151634,0.80759169
65ceaba67bb38638483fbbb6,34,0,2024-02-28T14:28:47.193Z,english_103.wav,0,pill,838,36,5,4,english,f,0,0.0,48.6835233,0.31659488
65ceaba67bb38638483fbbb6,34,0,2024-02-28T14:28:47.193Z,english_103.wav,0,pill,838,36,5,4,english,f,1,0.1,36.55238137,0.91966706
65ceaba67bb38638483fbbb6,34,0,2024-02-28T14:28:47.193Z,english_103.wav,0,pill,838,36,5,4,english,f,2,0.2,48.06121709,0.7088313
65ceaba67bb38638483fbbb6,34,0,2024-02-28T14:28:47.193Z,english_103.wav,0,pill,838,36,5,4,english,f,3,0.3,-53.21418968,0.61655079
65ceaba67bb38638483fbbb6,34,0,2024-02-28T14:28:47.193Z,english_103.wav,0,pill,838,36,5,4,english,f,4,0.4,-84.49986715,0.3504638
65ceaba67bb38638483fbbb6,34,0,2024-02-28T14:28:47.193Z,english_103.wav,0,pill,838,36,5,4,english,f,5,0.5,2.274647,0.15173733
65ceaba67bb38638483fbbb6,34,0,2024-02-28T14:28:47.193Z,english_103.wav,0,pill,838,36,5,4,english,f,6,0.6,65.76169241,0.65986716
65ceaba67bb38638483fbbb6,34,0,2024-02-28T14:28:47.193Z,english_103.wav,0,pill,838,36,5,4,english,f,7,0.7,-54.56461338,1.01542857
65ceaba67bb38638483fbbb6,34,0,2024-02-28T14:28:47.193Z,english_103.wav,0,pill,838,36,5,4,english,f,8,0.8,-9.60778265,0.43719066
65ceaba67bb38638483fbbb6,34,0,2024-02-28T14:28:47.193Z,english_103.wav,0,pill,838,36,5,4,english,f,9,0.9,20.85441667,1.38316606
65ceaba67bb38638483fbbb6,34,0,2024-02-28T14:28:47.193Z,english_103.wav,0,pill,838,36,5,4,english,f,10,1.0,-75.91935247,1.2339212
65ceaba67bb38638483fbbb6,34,0,2024-02-28T14:28:47.193Z,english_103.wav,0,pill,838,36,5,4,english,f,11,1.09391667,-89.16544197,1.84830476
65ceaba67bb38638483fbbb6,35,0,2024-02-28T14:28:47.193Z,english_911.wav,0,peel,534,36,5,4,english,f,0,0.0,97.74431138,1.45295226
65ceaba67bb38638483fbbb6,35,0,2024-02-28T14:28:47.193Z,english_911.wav,0,peel,534,36,5,4,english,f,1,0.1,63.25353714,0.52934156
65ceaba67bb38638483fbbb6,35,0,2024-02-28T14:28:47.193Z,english_911.wav,0,peel,534,36,5,4,english,f,2,0.2,31.76873058,1.12978313
65ceaba67bb38638483fbbb6,35,0,2024-02-28T14:28:47.193Z,english_911.wav,0,peel,534,36,5,4,english,f,3,0.3,-80.65515271,0.46492479
65ceaba67bb38638483fbbb6,35,0,2024-02-28T14:28:47.193Z,english_911.wav,0,peel,534,36,5,4,english,f,4,0.4,87.72308134,1.65576631
65ceaba67bb38638483fbbb6,35,0,2024-02-28T14:28:47.193Z,english_911.wav,0,peel,534,36,5,4,english,f,5,0.5,-43.90030619,0.95301179
65ceaba67bb38638483fbbb6,35,0,2024-02-28T14:28:47.193Z,english_911.wav,0,peel,534,36,5,4,english,f,6,0.6,-96.43392939,1.98033305
65ceaba67bb38638483fbbb6,35,0,2024-02-28T14:28:47.193Z,english_911.wav,0,peel,534,36,5,4,english,f,7,0.7,-95.09691132,0.56650122
65ceaba67bb38638483fbbb6,35,0,2024-02-28T14:28:47.193Z,english_911.wav,0,peel,534,36,5,4,english,f,8,0.8,7.77484736,1.59543029
65ceaba67bb38638483fbbb6,35,0,2024-02-28T14:28:47.193Z,english_911.wav,0,peel,534,36,5,4,english,f,9,0.9,12.16907111,1.97260423
65ceaba67bb38638483fbbb6,35,0,2024-02-28T14:28:47.193Z,english_911.wav,0,peel,534,36,5,4,english,f,10,1.0,33.87787458,1.68149339
65ceaba67bb38638483fbbb6,35,0,2024-02-28T14:28:47.193Z,english_911.wav,0,peel,534,36,5,4,english,f,11,1.09391667,10.13841493,1.03055348
65ceaba67bb38638483fbbb6,36,0,2024-02-28T14:28:47.193Z,english_492.wav,0,peel,633,36,5,4,english,f,0,0.0,-29.9472328,1.28534899
65ceaba67bb38638483fbbb6,36,0,2024-02-28T14:28:47.193Z,english_492.wav,0,peel,633,36,5,4,english,f,1,0.1,35.33010824,1.03908978
65ceaba67bb38638483fbbb6,36,0,2024-02-28T14:28:47.193Z,english_492.wav,0,peel,633,36,5,4,english,f,2,0.2,-3.45968041,1.26033893
65ceaba67bb38638483fbbb6,36,0,2024-02-28T14:28:47.193Z,english_492.wav,0,peel,633,36,5,4,english,f,3,0.3,59.06456756,0.39463808
65ceaba67bb38638483fbbb6,36,0,2024-02-28T14:28:47.193Z,english_492.wav,0,peel,633,36,5,4,english,f,4,0.4,98.23949624,0.21276087
65ceaba67bb38638483fbbb6,36,0,2024-02-28T14:28:47.193Z,english_492.wav,0,peel,633,36,5,4,english,f,5,0.5,-1.48270349,0.25205409
65ceaba67bb38638483fbbb6,36,0,2024-02-28T14:28:47.193Z,english_492.wav,0,peel,633,36,5,4,english,f,6,0.6,-1.72219507,0.58596557
65ceaba67bb38638483fbbb6,36,0,2024-02-28T14:28:47.193Z,english_492.wav,0,peel,633,36,5,4,english,f,7,0.7,12.69106909,1.49088879
65ceaba67bb38638483fbbb6,36,0,2024-02-28T14:28:47.193Z,english_492.wav,0,peel,633,36,5,4,english,f,8,0.8,-21.74180351,1.5225112
65ceaba67bb38638483fbbb6,36,0,2024-02-28T14:28:47.193Z,english_492.wav,0,peel,633,36,5,4,english,f,9,0.9,-33.92370757,0.13189423
65ceaba67bb38638483fbbb6,36,0,2024-02-28T14:28:47.193Z,english_492.wav,0,peel,633,36,5,4,english,f,10,1.0,37.93162517,0.89918189
65ceaba67bb38638483fbbb6,36,0,2024-02-28T14:28:47.193Z,english_492.wav,0,peel,633,36,5,4,english,f,11,1.09391667,-90.75179354,1.07142866
65ceaba67bb38638483fbbb6,37,0,2024-02-28T14:28:47.193Z,english_762.wav,0,peel,1391,36,5,4,english,f,0,0.0,27.33261944,0.57686104
65ceaba67bb38638483fbbb6,37,0,2024-02-28T14:28:47.193Z,english_762.wav,0,peel,1391,36,5,4,english,f,1,0.1,29.78644266,1.32227847
65ceaba67bb38638483fbbb6,37,0,2024-02-28T14:28:47.193Z,english_762.wav,0,peel,1391,36,5,4,english,f,2,0.2,-12.70237049,1.79912514
65ceaba67bb38638483fbbb6,37,0,2024-02-28T14:28:47.193Z,english_762.wav,0,peel,1391,36,5,4,english,f,3,0.3,35.66782523,0.4564538
65ceaba67bb38638483fbbb6,37,0,2024-02-28T14:28:47.193Z,english_762.wav,0,peel,1391,36,5,4,english,f,4,0.4,29.74626928,1.02600183
65ceaba67bb38638483fbbb6,37,0,2024-02-28T14:28:47.193Z,english_762.wav,0,peel,1391,36,5,4,english,f,5,0.5,5.11664219,0.76890833
65ceaba67bb38638483fbbb6,37,0,2024-02-28T14:28:47.193Z,english_762.wav,0,peel,1391,36,5,4,english,f,6,0.6,-48.64269717,1.34014461
65ceaba67bb38638483fbbb6,37,0,2024-02-28T14:28:47.193Z,english_762.wav,0,peel,1391,36,5,4,english,f,7,0.7,63.16783742,1.21629987
65ceaba67bb38638483fbbb6,37,0,2024-02-28T14:28:47.193Z,english_762.wav,0,peel,1391,36,5,4,english,f,8,0.8,60.29128931,1.77191932
65ceaba67bb38638483fbbb6,37,0,2024-02-28T14:28:47.193Z,english_762.wav,0,peel,1391,36,5,4,english,f,9,0.9,23.99980286,0.26778131
65ceaba67bb38638483fbbb6,37,0,2024-02-28T14:28:47.193Z,english_762.wav,0,peel,1391,36,5,4,english,f,10,1.0,21.04820857,1.59674642
65ceaba67bb38638483fbbb6,37,0,2024-02-28T14:28:47.193Z,english_762.wav,0,peel,1391,36,5,4,english,f,11,1.09391667,-49.011882,0.1994287
65ceaba67bb38638483fbbb6,38,0,2024-02-28T14:28:47.193Z,english_868.wav,0,peel,806,36,5,4,english,f,0,0.0,8.81168197,0.91928245
65ceaba67bb38638483fbbb6,38,0,2024-02-28T14:28:47.193Z,english_868.wav,0,peel,806,36,5,4,english,f,1,0.1,28.82624603,1.1322176
65ceaba67bb38638483fbbb6,38,0,2024-02-28T14:28:47.193Z,english_868.wav,0,peel,806,36,5,4,english,f,2,0.2,-13.41860503,0.903902
65ceaba67bb38638483fbbb6,38,0,2024-02-28T14:28:47.193Z,english_868.wav,0,peel,806,36,5,4,english,f,3,0.3,-3.78239355,0.85237712
65ceaba67bb38638483fbbb6,38,0,2024-02-28T14:28:47.193Z,english_868.wav,0,peel,806,36,5,4,english,f,4,0.4,-99.28888376,0.30528578
65ceaba67bb38638483fbbb6,38,0,2024-02-28T14:28:47.193Z,english_868.wav,0,peel,806,36,5,4,english,f,5,0.5,97.17399406,0.73312891
65ceaba67bb38638483fbbb6,38,0,2024-02-28T14:28:47.193Z,english_868.wav,0,peel,806,36,5,4,english,f,6,0.6,-7.91387191,1.49247212
65ceaba67bb38638483fbbb6,38,0,2024-02-28T14:28:47.193Z,english_868.wav,0,peel,806,36,5,4,english,f,7,0.7,60.9049728,1.20652206
65ceaba67bb38638483fbbb6,38,0,2024-02-28T14:28:47.193Z,english_868.wav,0,peel,806,36,5,4,english,f,8,0.8,-11.98639675,1.13523652
65ceaba67bb38638483fbbb6,38,0,2024-02-28T14:28:47.193Z,english_868.wav,0,peel,806,36,5,4,english,f,9,0.9,-1.38257528,0.60296342
65ceaba67bb38638483fbbb6,38,0,2024-02-28T14:28:47.193Z,english_868.wav,0,peel,806,36,5,4,english,f,10,1.0,25.89344048,0.75702193
65ceaba67bb38638483fbbb6,38,0,2024-02-28T14:28:47.193Z,english_868.wav,0,peel,806,36,5,4,english,f,11,1.09391667,-40.04347975,0.87917509
65ceaba67bb38638483fbbb6,39,0,2024-02-28T14:28:47.193Z,english_763.wav,0,pill,3553,36,5,4,english,f,0,0.0,-3.64613535,1.37294904
65ceaba67bb38638483fbbb6,39,0,2024-02-28T14:28:47.193Z,english_763.wav,0,pill,3553,36,5,4,english,f,1,0.1,86.84394447,1.4753173
65ceaba67bb38638483fbbb6,39,0,2024-02-28T14:28:47.193Z,english_763.wav,0,pill,3553,36,5,4,english,f,2,0.2,48.90447279,1.11933896
65ceaba67bb38638483fbbb6,39,0,2024-02-28T14:28:47.193Z,english_763.wav,0,pill,3553,36,5,4,english,f,3,0.3,81.52724945,0.74342717
65ceaba67bb38638483fbbb6,39,0,2024-02-28T14:28:47.193Z,english_763.wav,0,pill,3553,36,5,4,english,f,4,0.4,38.37028175,1.29789975
65ceaba67bb38638483fbbb6,39,0,2024-02-28T14:28:47.193Z,english_763.wav,0,pill,3553,36,5,4,english,f,5,0.5,-1.05640966,0.71005602
65ceaba67bb38638483fbbb6,39,0,2024-02-28T14:28:47.193Z,english_763.wav,0,pill,3553,36,5,4,english,f,6,0.6,92.75218552,1.1127111
65ceaba67bb38638483fbbb6,39,0,2024-02-28T14:28:47.193Z,english_763.wav,0,pill,3553,36,5,4,english,f,7,0.7,25.6384544,0.88036435
65ceaba67bb38638483fbbb6,39,0,2024-02-28T14:28:47.193Z,english_763.wav,0,pill,3553,36,5,4,english,f,8,0.8,39.31857394,0.01207507
65ceaba67bb38638483fbbb6,39,0,2024-02-28T14:28:47.193Z,english_763.wav,0,pill,3553,36,5,4,english,f,9,0.9,-39.8545052,1.55647861
65ceaba67bb38638483fbbb6,39,0,2024-02-28T14:28:47.193Z,english_763.wav,0,pill,3553,36,5,4,english,f,10,1.0,-46.14237673,1.32252767
65ceaba67bb38638483fbbb6,39,0,2024-02-28T14:28:47.193Z,english_763.wav,0,pill,3553,36,5,4,english,f,11,1.09391667,4.92972848,1.12126405
65ceaba67bb38638483fbbb6,40,0,2024-02-28T14:28:47.193Z,english_974.wav,0,peel,1364,36,5,4,english,f,0,0.0,-93.03864928,0.43845399
65ceaba67bb38638483fbbb6,40,0,2024-02-28T14:28:47.193Z,english_974.wav,0,peel,1364,36,5,4,english,f,1,0.1,-77.75716604,1.6903579
65ceaba67bb38638483fbbb6,40,0,2024-02-28T14:28:47.193Z,english_974.wav,0,peel,1364,36,5,4,english,f,2,0.2,0.69139929,1.16063432
65ceaba67bb38638483fbbb6,40,0,2024-02-28T14:28:47.193Z,english_974.wav,0,peel,1364,36,5,4,english,f,3,0.3,26.0953238,1.86115796
65ceaba67bb38638483fbbb6,40,0,2024-02-28T14:28:47.193Z,english_974.wav,0,peel,1364,36,5,4,english,f,4,0.4,98.53440651,1.84489406
65ceaba67bb38638483fbbb6,40,0,2024-02-28T14:28:47.193Z,english_974.wav,0,peel,1364,36,5,4,english,f,5,0.5,92.94553081,1.48551441
65ceaba67bb38638483fbbb6,40,0,2024-02-28T14:28:47.193Z,english_974.wav,0,peel,1364,36,5,4,english,f,6,0.6,-7.63804917,0.45444214
65ceaba67bb38638483fbbb6,40,0,2024-02-28T14:28:47.193Z,english_974.wav,0,peel,1364,36,5,4,english,f,7,0.7,9.10874073,0.66005011
65ceaba67bb38638483fbbb6,40,0,2024-02-28T14:28:47.193Z,english_974.wav,0,peel,1364,36,5,4,english,f,8,0.8,-89.79433239,1.73425962
65ceaba67bb38638483fbbb6,40,0,2024-02-28T14:28:47.193Z,english_974.wav,0,peel,1364,36,5,4,english,f,9,0.9,-25.22506103,0.5346903
65ceaba67bb38638483fbbb6,40,0,2024-02-28T14:28:47.193Z,english_974.wav,0,peel,1364,36,5,4,english,f,10,1.0,90.91634132,1.12098349
65ceaba67bb38638483fbbb6,40,0,2024-02-28T14:28:47.193Z,english_974.wav,0,peel,1364,36,5,4,english,f,11,1.09391667,96.1258414,0.52486182
65ceaba67bb38638483fbbb6,41,0,2024-02-28T14:28:47.193Z,english_805.wav,0,peel,680,36,5,4,english,f,0,0.0,19.24000096,0.52175854
65ceaba67bb38638483fbbb6,41,0,2024-02-28T14:28:47.193Z,english_805.wav,0,peel,680,36,5,4,english,f,1,0.1,-57.56428934,1.45107426
65ceaba67bb38638483fbbb6,41,0,2024-02-28T14:28:47.193Z,english_805.wav,0,peel,680,36,5,4,english,f,2,0.2,-17.74165003,1.66296684
65ceaba67bb38638483fbbb6,41,0,2024-02-28T14:28:47.193Z,english_805.wav,0,peel,680,36,5,4,english,f,3,0.3,94.45114709,1.339528
65ceaba67bb38638483fbbb6,41,0,2024-02-28T14:28:47.193Z,english_805.wav,0,peel,680,36,5,4,english,f,4,0.4,58.80414928,1.45905309
65ceaba67bb38638483fbbb6,41,0,2024-02-28T14:28:47.193Z,english_805.wav,0,peel,680,36,5,4,english,f,5,0.5,15.95265091,0.95701688
65ceaba67bb38638483fbbb6,41,0,2024-02-28T14:28:47.193Z,english_805.wav,0,peel,680,36,5,4,english,f,6,0.6,-64.01744173,0.10004415
65ceaba67bb38638483fbbb6,41,0,2024-02-28T14:28:47.193Z,english_805.wav,0,peel,680,36,5,4,english,f,7,0.7,-39.81720589,1.33408917
65ceaba67bb38638483fbbb6,41,0,2024-02-28T14:28:47.193Z,english_805.wav,0,peel,680,36,5,4,english,f,8,0.8,48.58222908,0.26158276
65ceaba67bb38638483fbbb6,41,0,2024-02-28T14:28:47.193Z,english_805.wav,0,peel,680,36,5,4,english,f,9,0.9,79.1348353,0.78316965
65ceaba67bb38638483fbbb6,41,0,2024-02-28T14:28:47.193Z,english_805.wav,0,peel,680,36,5,4,english,f,10,1.0,66.03274921,0.77046412
65ceaba67bb38638483fbbb6,41,0,2024-02-28T14:28:47.193Z,english_805.wav,0,peel,680,36,5,4,english,f,11,1.09391667,-37.34721406,0.38567889
65ceaba67bb38638483fbbb6,42,0,2024-02-28T14:28:47.193Z,english_493.wav,0,pill,362,36,5,4,english,f,0,0.0,-8.91567992,0.90906845
65ceaba67bb38638483fbbb6,42,0,2024-02-28T14:28:47.193Z,english_493.wav,0,pill,362,36,5,4,english,f,1,0.1,-2.81052192,1.82277729
65ceaba67bb38638483fbbb6,42,0,2024-02-28T14:28:47.193Z,english_493.wav,0,pill,362,36,5,4,english,f,2,0.2,0.93987988,1.85575617
65ceaba67bb38638483fbbb6,42,0,2024-02-28T14:28:47.193Z,english_493.wav,0,pill,362,36,5,4,english,f,3,0.3,-44.0664777,0.198144
65ceaba67bb38638483fbbb6,42,0,2024-02-28T14:28:47.193Z,english_493.wav,0,pill,362,36,5,4,english,f,4,0.4,12.64172921,0.31833397
65ceaba67bb38638483fbbb6,42,0,2024-02-28T14:28:47.193Z,english_493.wav,0,pill,362,36,5,4,english,f,5,0.5,38.10396852,0.16370317
65ceaba67bb38638483fbbb6,42,0,2024-02-28T14:28:47.193Z,english_493.wav,0,pill,362,36,5,4,english,f,6,0.6,51.1275002,0.48830507
65ceaba67bb38638483fbbb6,42,0,2024-02-28T14:28:47.193Z,english_493.wav,0,pill,362,36,5,4,english,f,7,0.7,-51.72089694,0.59724282
65ceaba67bb38638483fbbb6,42,0,2024-02-28T14:28:47.193Z,english_493.wav,0,pill,362,36,5,4,english,f,8,0.8,-22.89469136,0.45798431
65ceaba67bb38638483fbbb6,42,0,2024-02-28T14:28:47.193Z,english_493.wav,0,pill,362,36,5,4,english,f,9,0.9,55.14015253,1.24461858
65ceaba67bb38638483fbbb6,42,0,2024-02-28T14:28:47.193Z,english_493.wav,0,pill,362,36,5,4,english,f,10,1.0,69.89984763,1.33195334
65ceaba67bb38638483fbbb6,42,0,2024-02-28T14:28:47.193Z,english_493.wav,0,pill,362,36,5,4,english,f,11,1.09391667,7.83521283,1.92068406
65ceaba67bb38638483fbbb6,43,0,2024-02-28T14:28:47.193Z,english_824.wav,0,pill,1355,36,5,4,english,f,0,0.0,68.17789045,1.17767563
65ceaba67bb38638483fbbb6,43,0,2024-02-28T14:28:47.193Z,english_824.wav,0,pill,1355,36,5,4,english,f,1,0.1,-15.68019175,1.73120974
65ceaba67bb38638483fbbb6,43,0,2024-02-28T14:28:47.193Z,english_824.wav,0,pill,1355,36,5,4,english,f,2,0.2,-58.3734313,0.68280186
65ceaba67bb38638483fbbb6,43,0,2024-02-28T14:28:47.193Z,english_824.wav,0,pill,1355,36,5,4,english,f,3,0.3,17.37254381,0.04169824
65ceaba67bb38638483fbbb6,43,0,2024-02-28T14:28:47.193Z,english_824.wav,0,pill,1355,36,5,4,english,f,4,0.4,-42.12881826,1.33393477
65ceaba67bb38638483fbbb6,43,0,2024-02-28T14:28:47.193Z,english_824.wav,0,pill,1355,36,5,4,english,f,5,0.5,-81.23473424,0.50746231
65ceaba67bb38638483fbbb6,43,0,2024-02-28T14:28:47.193Z,english_824.wav,0,pill,1355,36,5,4,english,f,6,0.6,58.88344317,1.51646587
65ceaba67bb38638483fbbb6,43,0,2024-02-28T14:28:47.193Z,english_824.wav,0,pill,1355,36,5,4,english,f,7,0.7,35.29280148,1.66141374
65ceaba67bb38638483fbbb6,43,0,2024-02-28T14:28:47.193Z,english_824.wav,0,pill,1355,36,5,4,english,f,8,0.8,90.96995236,0.44412198
65ceaba67bb38638483fbbb6,43,0,2024-02-28T14:28:47.193Z,english_824.wav,0,pill,1355,36,5,4,english,f,9,0.9,60.0788655,1.20735386
65ceaba67bb38638483fbbb6,43,0,2024-02-28T14:28:47.193Z,english_824.wav,0,pill,1355,36,5,4,english,f,10,1.0,-44.66291858,0.95955144
65ceaba67bb38638483fbbb6,43,0,2024-02-28T14:28:47.193Z,english_824.wav,0,pill,1355,36,5,4,english,f,11,1.09391667,-39.15723424,1.16419205
65ceaba67bb38638483fbbb6,44,0,2024-02-28T14:28:47.193Z,english_897.wav,0,peel,2851,36,5,4,english,f,0,0.0,91.54141142,0.1445201
65ceaba67bb38638483fbbb6,44,0,2024-02-28T14:28:47.193Z,english_897.wav,0,peel,2851,36,5,4,english,f,1,0.1,20.06999674,1.86000345
65ceaba67bb38638483fbbb6,44,0,2024-02-28T14:28:47.193Z,english_897.wav,0,peel,2851,36,5,4,english,f,2,0.2,-60.17862007,0.67850772
65ceaba67bb38638483fbbb6,44,0,2024-02-28T14:28:47.193Z,english_897.wav,0,peel,2851,36,5,4,english,f,3,0.3,22.55775305,0.042785
65ceaba67bb38638483fbbb6,44,0,2024-02-28T14:28:47.193Z,english_897.wav,0,peel,2851,36,5,4,english,f,4,0.4,-29.18349392,0.33792534
65ceaba67bb38638483fbbb6,44,0,2024-02-28T14:28:47.193Z,english_897.wav,0,peel,2851,36,5,4,english,f,5,0.5,-4.34715828,1.54286554
65ceaba67bb38638483fbbb6,44,0,2024-02-28T14:28:47.193Z,english_897.wav,0,peel,2851,36,5,4,english,f,6,0.6,3.54639982,1.41726271
65ceaba67bb38638483fbbb6,44,0,2024-02-28T14:28:47.193Z,english_897.wav,0,peel,2851,36,5,4,english,f,7,0.7,14.95981451,0.22962892
65ceaba67bb38638483fbbb6,44,0,2024-02-28T14:28:47.193Z,english_897.wav,0,peel,2851,36,5,4,english,f,8,0.8,79.03500803,0.98987379
65ceaba67bb38638483fbbb6,44,0,2024-02-28T14:28:47.193Z,english_897.wav,0,peel,2851,36,5,4,english,f,9,0.9,89.82097388,0.31366212
65ceaba67bb38638483fbbb6,44,0,2024-02-28T14:28:47.193Z,english_897.wav,0,peel,2851,36,5,4,english,f,10,1.0,-18.02507746,0.34929613
65ceaba67bb38638483fbbb6,44,0,2024-02-28T14:28:47.193Z,english_897.wav,0,peel,2851,36,5,4,english,f,11,1.09391667,-21.60386418,1.95291291
65ceaba67bb38638483fbbb6,45,0,2024-02-28T14:28:47.193Z,english_771.wav,0,peel,919,36,5,4,english,f,0,0.0,-36.50619676,0.84712365
65ceaba67bb38638483fbbb6,45,0,2024-02-28T14:28:47.193Z,english_771.wav,0,peel,919,36,5,4,english,f,1,0.1,14.7541205,1.2125626
65ceaba67bb38638483fbbb6,45,0,2024-02-28T14:28:47.193Z,english_771.wav,0,peel,919,36,5,4,english,f,2,0.2,-52.38540711,1.26925878
65ceaba67bb38638483fbbb6,45,0,2024-02-28T14:28:47.193Z,english_771.wav,0,peel,919,36,5,4,english,f,3,0.3,-44.85491202,0.42277432
65ceaba67bb38638483fbbb6,45,0,2024-02-28T14:28:47.193Z,english_771.wav,0,peel,919,36,5,4,english,f,4,0.4,-95.75173067,1.76146367
65ceaba67bb38638483fbbb6,45,0,2024-02-28T14:28:47.193Z,english_771.wav,0,peel,919,36,5,4,english,f,5,0.5,80.62781484,1.97802023
65ceaba67bb38638483fbbb6,45,0,2024-02-28T14:28:47.193Z,english_771.wav,0,peel,919,36,5,4,english,f,6,0.6,73.74351295,1.00927999
65ceaba67bb38638483fbbb6,45,0,2024-02-28T14:28:47.193Z,english_771.wav,0,peel,919,36,5,4,english,f,7,0.7,-36.03140148,0.74378616
65ceaba67bb38638483fbbb6,45,0,2024-02-28T14:28:47.193Z,english_771.wav,0,peel,919,36,5,4,english,f,8,0.8,-29.08842157,1.61654752
65ceaba67bb38638483fbbb6,45,0,2024-02-28T14:28:47.193Z,english_771.wav,0,peel,919,36,5,4,english,f,9,0.9,81.37771219,0.74494496
65ceaba67bb38638483fbbb6,45,0,2024-02-28T14:28:47.193Z,english_771.wav,0,peel,919,36,5,4,english,f,10,1.0,2.32979024,0.15244903
65ceaba67bb38638483fbbb6,45,0,2024-02-28T14:28:47.193Z,english_771.wav,0,peel,919,36,5,4,english,f,11,1.09391667,-15.5068463,0.47232317
65ceaba67bb38638483fbbb6,46,0,2024-02-28T14:28:47.193Z,english_300.wav,0,pill,1508,36,5,4,english,f,0,0.0,2.79972232,1.53749115
65ceaba67bb38638483fbbb6,46,0,2024-02-28T14:28:47.193Z,english_300.wav,0,pill,1508,36,5,4,english,f,1,0.1,-6.00092765,1.12105385
65ceaba67bb38638483fbbb6,46,0,2024-02-28T14:28:47.193Z,english_300.wav,0,pill,1508,36,5,4,english,f,2,0.2,5.93513414,1.21050577
65ceaba67bb38638483fbbb6,46,0,2024-02-28T14:28:47.193Z,english_300.wav,0,pill,1508,36,5,4,english,f,3,0.3,65.0106623,1.39038364
65ceaba67bb38638483fbbb6,46,0,2024-02-28T14:28:47.193Z,english_300.wav,0,pill,1508,36,5,4,english,f,4,0.4,-35.27715369,0.59533856
65ceaba67bb38638483fbbb6,46,0,2024-02-28T14:28:47.193Z,english_300.wav,0,pill,1508,36,5,4,english,f,5,0.5,-49.20910009,0.92189242
65ceaba67bb38638483fbbb6,46,0,2024-02-28T14:28:47.193Z,english_300.wav,0,pill,1508,36,5,4,english,f,6,0.6,90.62348649,1.12293969
65ceaba67bb38638483fbbb6,46,0,2024-02-28T14:28:47.193Z,english_300.wav,0,pill,1508,36,5,4,english,f,7,0.7,-62.79963136,0.08212217
65ceaba67bb38638483fbbb6,46,0,2024-02-28T14:28:47.193Z,english_300.wav,0,pill,1508,36,5,4,english,f,8,0.8,41.66095929,0.24893909
65ceaba67bb38638483fbbb6,46,0,2024-02-28T14:28:47.193Z,english_300.wav,0,pill,1508,36,5,4,english,f,9,0.9,-9.40303164,0.97640661
65ceaba67bb38638483fbbb6,46,0,2024-02-28T14:28:47.193Z,english_300.wav,0,pill,1508,36,5,4,english,f,10,1.0,-11.98915311,1.76885677
65ceaba67bb38638483fbbb6,46,0,2024-02-28T14:28:47.193Z,english_300.wav,0,pill,1508,36,5,4,english,f,11,1.09391667,86.33383712,1.97400425
65ceaba67bb38638483fbbb6,47,0,2024-02-28T14:28:47.193Z,english_712.wav,0,peel,387,36,5,4,english,f,0,0.0,-23.1463857,0.37379236
65ceaba67bb38638483fbbb6,47,0,2024-02-28T14:28:47.193Z,english_712.wav,0,peel,387,36,5,4,english,f,1,0.1,24.6800968,1.67699004
65ceaba67bb38638483fbbb6,47,0,2024-02-28T14:28:47.193Z,english_712.wav,0,peel,387,36,5,4,english,f,2,0.2,0.0161964332,1.79701075
65ceaba67bb38638483fbbb6,47,0,2024-02-28T14:28:47.193Z,english_712.wav,0,peel,387,36,5,4,english,f,3,0.3,-17.6606804,0.97598087
65ceaba67bb38638483fbbb6,47,0,2024-02-28T14:28:47.193Z,english_712.wav,0,peel,387,36,5,4,english,f,4,0.4,0.366433398,0.364202
65ceaba67bb38638483fbbb6,47,0,2024-02-28T14:28:47.193Z,english_712.wav,0,peel,387,36,5,4,english,f,5,0.5,92.1731967,1.74943947
65ceaba67bb38638483fbbb6,47,0,2024-02-28T14:28:47.193Z,english_712.wav,0,peel,387,36,5,4,english,f,6,0.6,37.7445609,0.51022449
65ceaba67bb38638483fbbb6,47,0,2024-02-28T14:28:47.193Z,english_712.wav,0,peel,387,36,5,4,english,f,7,0.7,36.1997785,1.89888437
65ceaba67bb38638483fbbb6,47,0,2024-02-28T14:28:47.193Z,english_712.wav,0,peel,387,36,5,4,english,f,8,0.8,68.1982864,1.17858578
65ceaba67bb38638483fbbb6,47,0,2024-02-28T14:28:47.193Z,english_712.wav,0,peel,387,36,5,4,english,f,9,0.9,89.0317309,0.87832213
65ceaba67bb38638483fbbb6,47,0,2024-02-28T14:28:47.193Z,english_712.wav,0,peel,387,36,5,4,english,f,10,1.0,-18.2298461,1.72214889
65ceaba67bb38638483fbbb6,47,0,2024-02-28T14:28:47.193Z,english_712.wav,0,peel,387,36,5,4,english,f,11,1.09391667,4.18738238,0.60066774
65ceaba67bb38638483fbbb6,48,0,2024-02-28T14:28:47.193Z,english_871.wav,0,pill,1619,36,5,4,english,f,0,0.0,-17.51935002,0.96351457
65ceaba67bb38638483fbbb6,48,0,2024-02-28T14:28:47.193Z,english_871.wav,0,pill,1619,36,5,4,english,f,1,0.1,48.49295959,1.65140424
65ceaba67bb38638483fbbb6,48,0,2024-02-28T14:28:47.193Z,english_871.wav,0,pill,1619,36,5,4,english,f,2,0.2,58.25436474,0.10129148
65ceaba67bb38638483fbbb6,48,0,2024-02-28T14:28:47.193Z,english_871.wav,0,pill,1619,36,5,4,english,f,3,0.3,19.88257457,1.12009066
65ceaba67bb38638483fbbb6,48,0,2024-02-28T14:28:47.193Z,english_871.wav,0,pill,1619,36,5,4,english,f,4,0.4,50.10507231,1.6763055
65ceaba67bb38638483fbbb6,48,0,2024-02-28T14:28:47.193Z,english_871.wav,0,pill,1619,36,5,4,english,f,5,0.5,-56.4846044,1.91634806
65ceaba67bb38638483fbbb6,48,0,2024-02-28T14:28:47.193Z,english_871.wav,0,pill,1619,36,5,4,english,f,6,0.6,-59.75963758,0.79788864
65ceaba67bb38638483fbbb6,48,0,2024-02-28T14:28:47.193Z,english_871.wav,0,pill,1619,36,5,4,english,f,7,0.7,-99.92210917,1.02975972
65ceaba67bb38638483fbbb6,48,0,2024-02-28T14:28:47.193Z,english_871.wav,0,pill,1619,36,5,4,english,f,8,0.8,-47.06603955,0.06596749
65ceaba67bb38638483fbbb6,48,0,2024-02-28T14:28:47.193Z,english_871.wav,0,pill,1619,36,5,4,english,f,9,0.9,-51.36141327,0.92212705
65ceaba67bb38638483fbbb6,48,0,2024-02-28T14:28:47.193Z,english_871.wav,0,pill,1619,36,5,4,english,f,10,1.0,-80.2024198,1.99068199
65ceaba67bb38638483fbbb6,48,0,2024-02-28T14:28:47.193Z,english_871.wav,0,pill,1619,36,5,4,english,f,11,1.09391667,-23.03879421,0.00440735
65ceaba67bb38638483fbbb6,49,0,2024-02-28T14:28:47.193Z,english_225.wav,0,pill,3003,36,5,4,english,f,0,0.0,-44.18539546,0.94661558
65ceaba67bb38638483fbbb6,49,0,2024-02-28T14:28:47.193Z,english_225.wav,0,pill,3003,36,5,4,english,f,1,0.1,98.45836914,0.50305164
65ceaba67bb38638483fbbb6,49,0,2024-02-28T14:28:47.193Z,english_225.wav,0,pill,3003,36,5,4,english,f,2,0.2,-29.25134998,0.27788422
65ceaba67bb38638483fbbb6,49,0,2024-02-28T14:28:47.193Z,english_225.wav,0,pill,3003,36,5,4,english,f,3,0.3,3.09020259,0.91972932
65ceaba67bb38638483fbbb6,49,0,2024-02-28T14:28:47.193Z,english_225.wav,0,pill,3003,36,5,4,english,f,4,0.4,-47.25747067,1.19561164
65ceaba67bb38638483fbbb6,49,0,2024-02-28T14:28:47.193Z,english_225.wav,0,pill,3003,36,5,4,english,f,5,0.5,-56.49635783,1.34544194
65ceaba67bb38638483fbbb6,49,0,2024-02-28T14:28:47.193Z,english_225.wav,0,pill,3003,36,5,4,english,f,6,0.6,-4.90331194,0.16377231
65ceaba67bb38638483fbbb6,49,0,2024-02-28T14:28:47.193Z,english_225.wav,0,pill,3003,36,5,4,english,f,7,0.7,46.68398305,1.35188114
65ceaba67bb38638483fbbb6,49,0,2024-02-28T14:28:47.193Z,english_225.wav,0,pill,3003,36,5,4,english,f,8,0.8,6.9824473,1.88786979
65ceaba67bb38638483fbbb6,49,0,2024-02-28T14:28:47.193Z,english_225.wav,0,pill,3003,36,5,4,english,f,9,0.9,66.07062576,1.27635088
65ceaba67bb38638483fbbb6,49,0,2024-02-28T14:28:47.193Z,english_225.wav,0,pill,3003,36,5,4,english,f,10,1.0,-46.91429175,1.3192813
65ceaba67bb38638483fbbb6,49,0,2024-02-28T14:28:47.193Z,english_225.wav,0,pill,3003,36,5,4,english,f,11,1.09391667,-70.62927251,0.77732241
65ceaba67bb38638483fbbb6,50,1,2024-02-28T14:33:43.940Z,english_875.wav,0,peel,3804,36,5,4,english,f,0,0.0,96.8338791,1.90969426
65ceaba67bb38638483fbbb6,50,1,2024-02-28T14:33:43.940Z,english_875.wav,0,peel,3804,36,5,4,english,f,1,0.1,37.68794022,1.00034929
65ceaba67bb38638483fbbb6,50,1,2024-02-28T14:33:43.940Z,english_875.wav,0,peel,3804,36,5,4,english,f,2,0.2,13.97824571,1.17763903
65ceaba67bb38638483fbbb6,50,1,2024-02-28T14:33:43.940Z,english_875.wav,0,peel,3804,36,5,4,english,f,3,0.3,18.96990702,0.35889427
65ceaba67bb38638483fbbb6,50,1,2024-02-28T14:33:43.940Z,english_875.wav,0,peel,3804,36,5,4,english,f,4,0.4,63.2084655,0.91300026
65ceaba67bb38638483fbbb6,50,1,2024-02-28T14:33:43.940Z,english_875.wav,0,peel,3804,36,5,4,english,f,5,0.5,-98.93629382,1.19226844
65ceaba67bb38638483fbbb6,50,1,2024-02-28T14:33:43.940Z,english_875.wav,0,peel,3804,36,5,4,english,f,6,0.6,81.29612198,1.44163348
65ceaba67bb38638483fbbb6,50,1,2024-02-28T14:33:43.940Z,english_875.wav,0,peel,3804,36,5,4,english,f,7,0.7,50.14728488,1.08588615
65ceaba67bb38638483fbbb6,50,1,2024-02-28T14:33:43.940Z,english_875.wav,0,peel,3804,36,5,4,english,f,8,0.8,13.48666865,1.80200416
65ceaba67bb38638483fbbb6,50,1,2024-02-28T14:33:43.940Z,english_875.wav,0,peel,3804,36,5,4,english,f,9,0.9,9.04770509,0.81736325
65ceaba67bb38638483fbbb6,50,1,2024-02-28T14:33:43.940Z,english_875.wav,0,peel,3804,36,5,4,english,f,10,1.0,37.35188663,1.15050925
65ceaba67bb38638483fbbb6,50,1,2024-02-28T14:33:43.940Z,english_875.wav,0,peel,3804,36,5,4,english,f,11,1.09391667,68.7171347,1.96049823
65ceaba67bb38638483fbbb6,51,1,2024-02-28T14:33:43.940Z,english_214.wav,0,pill,2233,36,5,4,english,f,0,0.0,77.66249847,1.66443393
65ceaba67bb38638483fbbb6,51,1,2024-02-28T14:33:43.940Z,english_214.wav,0,pill,2233,36,5,4,english,f,1,0.1,-66.26077856,1.37654428
65ceaba67bb38638483fbbb6,51,1,2024-02-28T14:33:43.940Z,english_214.wav,0,pill,2233,36,5,4,english,f,2,0.2,-51.4922282,1.40712663
65ceaba67bb38638483fbbb6,51,1,2024-02-28T14:33:43.940Z,english_214.wav,0,pill,2233,36,5,4,english,f,3,0.3,14.18659261,0.14412451
65ceaba67bb38638483fbbb6,51,1,2024-02-28T14:33:43.940Z,english_214.wav,0,pill,2233,36,5,4,english,f,4,0.4,-48.84743407,0.91551293
65ceaba67bb38638483fbbb6,51,1,2024-02-28T14:33:43.940Z,english_214.wav,0,pill,2233,36,5,4,english,f,5,0.5,19.47798934,0.32690142
65ceaba67bb38638483fbbb6,51,1,2024-02-28T14:33:43.940Z,english_214.wav,0,pill,2233,36,5,4,english,f,6,0.6,30.92446632,1.55465622
65ceaba67bb38638483fbbb6,51,1,2024-02-28T14:33:43.940Z,english_214.wav,0,pill,2233,36,5,4,english,f,7,0.7,-20.72955743,0.81533764
65ceaba67bb38638483fbbb6,51,1,2024-02-28T14:33:43.940Z,english_214.wav,0,pill,2233,36,5,4,english,f,8,0.8,-84.03788896,1.36872512
65ceaba67bb38638483fbbb6,51,1,2024-02-28T14:33:43.940Z,english_214.wav,0,pill,2233,36,5,4,english,f,9,0.9,1.19993411,0.61257248
65ceaba67bb38638483fbbb6,51,1,2024-02-28T14:33:43.940Z,english_214.wav,0,pill,2233,36,5,4,english,f,10,1.0,-10.67189742,1.2492197
65ceaba67bb38638483fbbb6,51,1,2024-02-28T14:33:43.940Z,english_214.wav,0,pill,2233,36,5,4,english,f,11,1.09391667,76.51495677,1.13872638
65ceaba67bb38638483fbbb6,52,1,2024-02-28T14:33:43.940Z,english_483.wav,0,peel,541,36,5,4,english,f,0,0.0,81.48477159,0.74240463
65ceaba67bb38638483fbbb6,52,1,2024-02-28T14:33:43.940Z,english_483.wav,0,peel,541,36,5,4,english,f,1,0.1,-89.60480044,0.55858717
65ceaba67bb38638483fbbb6,52,1,2024-02-28T14:33:43.940Z,english_483.wav,0,peel,541,36,5,4,english,f,2,0.2,34.01203533,0.25858635
65ceaba67bb38638483fbbb6,52,1,2024-02-28T14:33:43.940Z,english_483.wav,0,peel,541,36,5,4,english,f,3,0.3,-53.73578063,0.09361457
65ceaba67bb38638483fbbb6,52,1,2024-02-28T14:33:43.940Z,english_483.wav,0,peel,541,36,5,4,english,f,4,0.4,84.54249603,1.33981299
65ceaba67bb38638483fbbb6,52,1,2024-02-28T14:33:43.940Z,english_483.wav,0,peel,541,36,5,4,english,f,5,0.5,-37.49389681,0.4736205
65ceaba67bb38638483fbbb6,52,1,2024-02-28T14:33:43.940Z,english_483.wav,0,peel,541,36,5,4,english,f,6,0.6,15.30386948,0.19064795
65ceaba67bb38638483fbbb6,52,1,2024-02-28T14:33:43.940Z,english_483.wav,0,peel,541,36,5,4,english,f,7,0.7,-61.92265371,0.85022642
65ceaba67bb38638483fbbb6,52,1,2024-02-28T14:33:43.940Z,english_483.wav,0,peel,541,36,5,4,english,f,8,0.8,-8.76713856,0.89668703
65ceaba67bb38638483fbbb6,52,1,2024-02-28T14:33:43.940Z,english_483.wav,0,peel,541,36,5,4,english,f,9,0.9,-10.35003035,0.92354333
65ceaba67bb38638483fbbb6,52,1,2024-02-28T14:33:43.940Z,english_483.wav,0,peel,541,36,5,4,english,f,10,1.0,30.44811047,0.32093747
65ceaba67bb38638483fbbb6,52,1,2024-02-28T14:33:43.940Z,english_483.wav,0,peel,541,36,5,4,english,f,11,1.09391667,58.404663,0.85640019
65ceaba67bb38638483fbbb6,53,1,2024-02-28T14:33:43.940Z,english_480.wav,0,peel,479,36,5,4,english,f,0,0.0,9.88794778,0.87231247
65ceaba67bb38638483fbbb6,53,1,2024-02-28T14:33:43.940Z,english_480.wav,0,peel,479,36,5,4,english,f,1,0.1,-95.33959947,0.98456716
65ceaba67bb38638483fbbb6,53,1,2024-02-28T14:33:43.940Z,english_480.wav,0,peel,479,36,5,4,english,f,2,0.2,-71.35423478,0.16901934
65ceaba67bb38638483fbbb6,53,1,2024-02-28T14:33:43.940Z,english_480.wav,0,peel,479,36,5,4,english,f,3,0.3,-83.02465504,0.73359769
65ceaba67bb38638483fbbb6,53,1,2024-02-28T14:33:43.940Z,english_480.wav,0,peel,479,36,5,4,english,f,4,0.4,44.94534434,1.77352581
65ceaba67bb38638483fbbb6,53,1,2024-02-28T14:33:43.940Z,english_480.wav,0,peel,479,36,5,4,english,f,5,0.5,90.60802244,0.80191765
65ceaba67bb38638483fbbb6,53,1,2024-02-28T14:33:43.940Z,english_480.wav,0,peel,479,36,5,4,english,f,6,0.6,-21.26982867,1.98344476
65ceaba67bb38638483fbbb6,53,1,2024-02-28T14:33:43.940Z,english_480.wav,0,peel,479,36,5,4,english,f,7,0.7,9.71569321,1.54524915
65ceaba67bb38638483fbbb6,53,1,2024-02-28T14:33:43.940Z,english_480.wav,0,peel,479,36,5,4,english,f,8,0.8,-55.27404123,1.67546329
65ceaba67bb38638483fbbb6,53,1,2024-02-28T14:33:43.940Z,english_480.wav,0,peel,479,36,5,4,english,f,9,0.9,-2.41346819,1.13666865
65ceaba67bb38638483fbbb6,53,1,2024-02-28T14:33:43.940Z,english_480.wav,0,peel,479,36,5,4,english,f,10,1.0,56.20871311,1.61861075
65ceaba67bb38638483fbbb6,53,1,2024-02-28T14:33:43.940Z,english_480.wav,0,peel,479,36,5,4,english,f,11,1.09391667,-52.83193459,1.31490021
65ceaba67bb38638483fbbb6,54,1,2024-02-28T14:33:43.940Z,english_515.wav,0,pill,2347,36,5,4,english,f,0,0.0,-58.23176372,1.22843541
65ceaba67bb38638483fbbb6,54,1,2024-02-28T14:33:43.940Z,english_515.wav,0,pill,2347,36,5,4,english,f,1,0.1,-76.45173976,1.63015901
65ceaba67bb38638483fbbb6,54,1,2024-02-28T14:33:43.940Z,english_515.wav,0,pill,2347,36,5,4,english,f,2,0.2,25.49902523,1.20813881
65ceaba67bb38638483fbbb6,54,1,2024-02-28T14:33:43.940Z,english_515.wav,0,pill,2347,36,5,4,english,f,3,0.3,5.27103545,0.47612476
65ceaba67bb38638483fbbb6,54,1,2024-02-28T14:33:43.940Z,english_515.wav,0,pill,2347,36,5,4,english,f,4,0.4,-41.64983344,0.26545174
65ceaba67bb38638483fbbb6,54,1,2024-02-28T14:33:43.940Z,english_515.wav,0,pill,2347,36,5,4,english,f,5,0.5,-51.29888172,1.8557412
65ceaba67bb38638483fbbb6,54,1,2024-02-28T14:33:43.940Z,english_515.wav,0,pill,2347,36,5,4,english,f,6,0.6,65.36966432,0.81547092
65ceaba67bb38638483fbbb6,54,1,2024-02-28T14:33:43.940Z,english_515.wav,0,pill,2347,36,5,4,english,f,7,0.7,-56.17839976,1.63185656
65ceaba67bb38638483fbbb6,54,1,2024-02-28T14:33:43.940Z,english_515.wav,0,pill,2347,36,5,4,english,f,8,0.8,-12.23547481,0.09263004
65ceaba67bb38638483fbbb6,54,1,2024-02-28T14:33:43.940Z,english_515.wav,0,pill,2347,36,5,4,english,f,9,0.9,-89.1418522,1.76127396
65ceaba67bb38638483fbbb6,54,1,2024-02-28T14:33:43.940Z,english_515.wav,0,pill,2347,36,5,4,english,f,10,1.0,8.96872742,0.57224671
65ceaba67bb38638483fbbb6,54,1,2024-02-28T14:33:43.940Z,english_515.wav,0,pill,2347,36,5,4,english,f,11,1.09391667,-18.30503433,1.26155121
65ceaba67bb38638483fbbb6,55,1,2024-02-28T14:33:43.940Z,english_786.wav,0,pill,1841,36,5,4,english,f,0,0.0,52.51003342,0.51789452
65ceaba67bb38638483fbbb6,55,1,2024-02-28T14:33:43.940Z,english_786.wav,0,pill,1841,36,5,4,english,f,1,0.1,-29.81330981,1.63069417
65ceaba67bb38638483fbbb6,55,1,2024-02-28T14:33:43.940Z,english_786.wav,0,pill,1841,36,5,4,english,f,2,0.2,36.37880502,1.03017261
65ceaba67bb38638483fbbb6,55,1,2024-02-28T14:33:43.940Z,english_786.wav,0,pill,1841,36,5,4,english,f,3,0.3,-16.44076744,1.50298323
65ceaba67bb38638483fbbb6,55,1,2024-02-28T14:33:43.940Z,english_786.wav,0,pill,1841,36,5,4,english,f,4,0.4,88.68796251,1.46107862
65ceaba67bb38638483fbbb6,55,1,2024-02-28T14:33:43.940Z,english_786.wav,0,pill,1841,36,5,4,english,f,5,0.5,-14.03385959,0.40535011
65ceaba67bb38638483fbbb6,55,1,2024-02-28T14:33:43.940Z,english_786.wav,0,pill,1841,36,5,4,english,f,6,0.6,-91.10946789,0.38567086
65ceaba67bb38638483fbbb6,55,1,2024-02-28T14:33:43.940Z,english_786.wav,0,pill,1841,36,5,4,english,f,7,0.7,41.17265494,1.29740328
65ceaba67bb38638483fbbb6,55,1,2024-02-28T14:33:43.940Z,english_786.wav,0,pill,1841,36,5,4,english,f,8,0.8,52.01009792,1.80566199
65ceaba67bb38638483fbbb6,55,1,2024-02-28T14:33:43.940Z,english_786.wav,0,pill,1841,36,5,4,english,f,9,0.9,51.89297689,0.75401712
65ceaba67bb38638483fbbb6,55,1,2024-02-28T14:33:43.940Z,english_786.wav,0,pill,1841,36,5,4,english,f,10,1.0,66.02628762,0.59504851
65ceaba67bb38638483fbbb6,55,1,2024-02-28T14:33:43.940Z,english_786.wav,0,pill,1841,36,5,4,english,f,11,1.09391667,-81.25732307,0.27926431
65ceaba67bb38638483fbbb6,56,1,2024-02-28T14:33:43.940Z,english_405.wav,0,peel,2412,36,5,4,english,f,0,0.0,-78.42073653,1.26555168
65ceaba67bb38638483fbbb6,56,1,2024-02-28T14:33:43.940Z,english_405.wav,0,peel,2412,36,5,4,english,f,1,0.1,-24.61205512,0.89640123
65ceaba67bb38638483fbbb6,56,1,2024-02-28T14:33:43.940Z,english_405.wav,0,peel,2412,36,5,4,english,f,2,0.2,-11.84314917,0.55951574
65ceaba67bb38638483fbbb6,56,1,2024-02-28T14:33:43.940Z,english_405.wav,0,peel,2412,36,5,4,english,f,3,0.3,-70.6403769,0.41074213
65ceaba67bb38638483fbbb6,56,1,2024-02-28T14:33:43.940Z,english_405.wav,0,peel,2412,36,5,4,english,f,4,0.4,-46.85191634,0.16739124
65ceaba67bb38638483fbbb6,56,1,2024-02-28T14:33:43.940Z,english_405.wav,0,peel,2412,36,5,4,english,f,5,0.5,-71.06093943,0.840879
65ceaba67bb38638483fbbb6,56,1,2024-02-28T14:33:43.940Z,english_405.wav,0,peel,2412,36,5,4,english,f,6,0.6,30.63391912,1.64487685
65ceaba67bb38638483fbbb6,56,1,2024-02-28T14:33:43.940Z,english_405.wav,0,peel,2412,36,5,4,english,f,7,0.7,-74.22566174,0.4477739
65ceaba67bb38638483fbbb6,56,1,2024-02-28T14:33:43.940Z,english_405.wav,0,peel,2412,36,5,4,english,f,8,0.8,7.48787405,0.39629761
65ceaba67bb38638483fbbb6,56,1,2024-02-28T14:33:43.940Z,english_405.wav,0,peel,2412,36,5,4,english,f,9,0.9,-46.20513682,1.07902243
65ceaba67bb38638483fbbb6,56,1,2024-02-28T14:33:43.940Z,english_405.wav,0,peel,2412,36,5,4,english,f,10,1.0,49.04599402,1.30068101
65ceaba67bb38638483fbbb6,56,1,2024-02-28T14:33:43.940Z,english_405.wav,0,peel,2412,36,5,4,english,f,11,1.09391667,-4.00470975,1.72481408
65ceaba67bb38638483fbbb6,57,1,2024-02-28T14:33:43.940Z,english_903.wav,0,peel,1181,36,5,4,english,f,0,0.0,74.40610552,1.10397813
65ceaba67bb38638483fbbb6,57,1,2024-02-28T14:33:43.940Z,english_903.wav,0,peel,1181,36,5,4,english,f,1,0.1,-14.0058198,0.67044391
65ceaba67bb38638483fbbb6,57,1,2024-02-28T14:33:43.940Z,english_903.wav,0,peel,1181,36,5,4,english,f,2,0.2,-43.18870249,1.06331023
65ceaba67bb38638483fbbb6,57,1,2024-02-28T14:33:43.940Z,english_903.wav,0,peel,1181,36,5,4,english,f,3,0.3,85.51038869,0.60586728
65ceaba67bb38638483fbbb6,57,1,2024-02-28T14:33:43.940Z,english_903.wav,0,peel,1181,36,5,4,english,f,4,0.4,8.36930428,0.11380816
65ceaba67bb38638483fbbb6,57,1,2024-02-28T14:33:43.940Z,english_903.wav,0,peel,1181,36,5,4,english,f,5,0.5,-11.10468326,1.21530961
65ceaba67bb38638483fbbb6,57,1,2024-02-28T14:33:43.940Z,english_903.wav,0,peel,1181,36,5,4,english,f,6,0.6,0.77760872,1.48658081
65ceaba67bb38638483fbbb6,57,1,2024-02-28T14:33:43.940Z,english_903.wav,0,peel,1181,36,5,4,english,f,7,0.7,61.82804998,1.41412243
65ceaba67bb38638483fbbb6,57,1,2024-02-28T14:33:43.940Z,english_903.wav,0,peel,1181,36,5,4,english,f,8,0.8,-21.718638,0.93606202
65ceaba67bb38638483fbbb6,57,1,2024-02-28T14:33:43.940Z,english_903.wav,0,peel,1181,36,5,4,english,f,9,0.9,-41.58529941,0.40038549
65ceaba67bb38638483fbbb6,57,1,2024-02-28T14:33:43.940Z,english_903.wav,0,peel,1181,36,5,4,english,f,10,1.0,22.99211782,0.6748387
65ceaba67bb38638483fbbb6,57,1,2024-02-28T14:33:43.940Z,english_903.wav,0,peel,1181,36,5,4,english,f,11,1.09391667,-96.82772328,0.72929926
65ceaba67bb38638483fbbb6,58,1,2024-02-28T14:33:43.940Z,english_507.wav,0,pill,575,36,5,4,english,f,0,0.0,-12.02429693,0.63959218
65ceaba67bb38638483fbbb6,58,1,2024-02-28T14:33:43.940Z,english_507.wav,0,pill,575,36,5,4,english,f,1,0.1,23.48023528,0.78683895
65ceaba67bb38638483fbbb6,58,1,2024-02-28T14:33:43.940Z,english_507.wav,0,pill,575,36,5,4,english,f,2,0.2,75.86591316,1.2814873
65ceaba67bb38638483fbbb6,58,1,2024-02-28T14:33:43.940Z,english_507.wav,0,pill,575,36,5,4,english,f,3,0.3,-83.47756384,0.67977555
65ceaba67bb38638483fbbb6,58,1,2024-02-28T14:33:43.940Z,english_507.wav,0,pill,575,36,5,4,english,f,4,0.4,81.92852434,0.92992814
65ceaba67bb38638483fbbb6,58,1,2024-02-28T14:33:43.940Z,english_507.wav,0,pill,575,36,5,4,english,f,5,0.5,87.67744716,1.13175549
65ceaba67bb38638483fbbb6,58,1,2024-02-28T14:33:43.940Z,english_507.wav,0,pill,575,36,5,4,english,f,6,0.6,-16.33781488,0.10459473
65ceaba67bb38638483fbbb6,58,1,2024-02-28T14:33:43.940Z,english_507.wav,0,pill,575,36,5,4,english,f,7,0.7,-17.50205237,1.89307031
65ceaba67bb38638483fbbb6,58,1,2024-02-28T14:33:43.940Z,english_507.wav,0,pill,575,36,5,4,english,f,8,0.8,45.24056119,1.08894135
65ceaba67bb38638483fbbb6,58,1,2024-02-28T14:33:43.940Z,english_507.wav,0,pill,575,36,5,4,english,f,9,0.9,-41.17324019,1.66565612
65ceaba67bb38638483fbbb6,58,1,2024-02-28T14:33:43.940Z,english_507.wav,0,pill,575,36,5,4,english,f,10,1.0,-35.51150679,1.23960277
65ceaba67bb38638483fbbb6,58,1,2024-02-28T14:33:43.940Z,english_507.wav,0,pill,575,36,5,4,english,f,11,1.09391667,-42.23976402,0.80282923
65ceaba67bb38638483fbbb6,59,1,2024-02-28T14:33:43.940Z,english_292.wav,0,pill,768,36,5,4,english,f,0,0.0,25.72060653,1.17792554
65ceaba67bb38638483fbbb6,59,1,2024-02-28T14:33:43.940Z,english_292.wav,0,pill,768,36,5,4,english,f,1,0.1,-6.51251487,0.30252559
65ceaba67bb38638483fbbb6,59,1,2024-02-28T14:33:43.940Z,english_292.wav,0,pill,768,36,5,4,english,f,2,0.2,3.32661168,1.09442145
65ceaba67bb38638483fbbb6,59,1,2024-02-28T14:33:43.940Z,english_292.wav,0,pill,768,36,5,4,english,f,3,0.3,89.62386246,1.28448778
65ceaba67bb38638483fbbb6,59,1,2024-02-28T14:33:43.940Z,english_292.wav,0,pill,768,36,5,4,english,f,4,0.4,80.65433919,1.02735441
65ceaba67bb38638483fbbb6,59,1,2024-02-28T14:33:43.940Z,english_292.wav,0,pill,768,36,5,4,english,f,5,0.5,44.84771524,0.62410129
65ceaba67bb38638483fbbb6,59,1,2024-02-28T14:33:43.940Z,english_292.wav,0,pill,768,36,5,4,english,f,6,0.6,25.54437629,1.60418481
65ceaba67bb38638483fbbb6,59,1,2024-02-28T14:33:43.940Z,english_292.wav,0,pill,768,36,5,4,english,f,7,0.7,-12.49512251,0.44189431
65ceaba67bb38638483fbbb6,59,1,2024-02-28T14:33:43.940Z,english_292.wav,0,pill,768,36,5,4,english,f,8,0.8,-42.7769001,1.24863789
65ceaba67bb38638483fbbb6,59,1,2024-02-28T14:33:43.940Z,english_292.wav,0,pill,768,36,5,4,english,f,9,0.9,-50.66960292,1.87159039
65ceaba67bb38638483fbbb6,59,1,2024-02-28T14:33:43.940Z,english_292.wav,0,pill,768,36,5,4,english,f,10,1.0,-26.28928757,1.63743996
65ceaba67bb38638483fbbb6,59,1,2024-02-28T14:33:43.940Z,english_292.wav,0,pill,768,36,5,4,english,f,11,1.09391667,-87.75283225,0.32075193
65ceaba67bb38638483fbbb6,60,1,2024-02-28T14:33:43.940Z,english_439.wav,0,peel,982,36,5,4,english,f,0,0.0,65.61179343,0.83700943
65ceaba67bb38638483fbbb6,60,1,2024-02-28T14:33:43.940Z,english_439.wav,0,peel,982,36,5,4,english,f,1,0.1,-39.97146472,0.2618818
65ceaba67bb38638483fbbb6,60,1,2024-02-28T14:33:43.940Z,english_439.wav,0,peel,982,36,5,4,english,f,2,0.2,-86.73516171,1.31905662
65ceaba67bb38638483fbbb6,60,1,2024-02-28T14:33:43.940Z,english_439.wav,0,peel,982,36,5,4,english,f,3,0.3,-74.3506223,1.4582753
65ceaba67bb38638483fbbb6,60,1,2024-02-28T14:33:43.940Z,english_439.wav,0,peel,982,36,5,4,english,f,4,0.4,-81.32603757,1.31458936
65ceaba67bb38638483fbbb6,60,1,2024-02-28T14:33:43.940Z,english_439.wav,0,peel,982,36,5,4,english,f,5,0.5,-10.38113119,1.35802682
65ceaba67bb38638483fbbb6,60,1,2024-02-28T14:33:43.940Z,english_439.wav,0,peel,982,36,5,4,english,f,6,0.6,-69.09018152,0.4851906
65ceaba67bb38638483fbbb6,60,1,2024-02-28T14:33:43.940Z,english_439.wav,0,peel,982,36,5,4,english,f,7,0.7,-89.25700292,1.37617677
65ceaba67bb38638483fbbb6,60,1,2024-02-28T14:33:43.940Z,english_439.wav,0,peel,982,36,5,4,english,f,8,0.8,19.63434649,1.69244764
65ceaba67bb38638483fbbb6,60,1,2024-02-28T14:33:43.940Z,english_439.wav,0,peel,982,36,5,4,english,f,9,0.9,-97.86540823,0.50733375
65ceaba67bb38638483fbbb6,60,1,2024-02-28T14:33:43.940Z,english_439.wav,0,peel,982,36,5,4,english,f,10,1.0,14.21326079,1.77327588
65ceaba67bb38638483fbbb6,60,1,2024-02-28T14:33:43.940Z,english_439.wav,0,peel,982,36,5,4,english,f,11,1.09391667,-79.27637989,0.89651159
65ceaba67bb38638483fbbb6,61,1,2024-02-28T14:33:43.940Z,english_301.wav,0,peel,1421,36,5,4,english,f,0,0.0,20.00084454,0.51149801
65ceaba67bb38638483fbbb6,61,1,2024-02-28T14:33:43.940Z,english_301.wav,0,peel,1421,36,5,4,english,f,1,0.1,-52.8514029,1.39891418
65ceaba67bb38638483fbbb6,61,1,2024-02-28T14:33:43.940Z,english_301.wav,0,peel,1421,36,5,4,english,f,2,0.2,18.35573453,1.20064295
65ceaba67bb38638483fbbb6,61,1,2024-02-28T14:33:43.940Z,english_301.wav,0,peel,1421,36,5,4,english,f,3,0.3,20.24530443,1.16262284
65ceaba67bb38638483fbbb6,61,1,2024-02-28T14:33:43.940Z,english_301.wav,0,peel,1421,36,5,4,english,f,4,0.4,-31.13596974,0.89189618
65ceaba67bb38638483fbbb6,61,1,2024-02-28T14:33:43.940Z,english_301.wav,0,peel,1421,36,5,4,english,f,5,0.5,-57.63348461,0.05591257
65ceaba67bb38638483fbbb6,61,1,2024-02-28T14:33:43.940Z,english_301.wav,0,peel,1421,36,5,4,english,f,6,0.6,-75.64185581,1.65560528
65ceaba67bb38638483fbbb6,61,1,2024-02-28T14:33:43.940Z,english_301.wav,0,peel,1421,36,5,4,english,f,7,0.7,11.75816268,0.92096294
65ceaba67bb38638483fbbb6,61,1,2024-02-28T14:33:43.940Z,english_301.wav,0,peel,1421,36,5,4,english,f,8,0.8,94.20607314,0.41490279
65ceaba67bb38638483fbbb6,61,1,2024-02-28T14:33:43.940Z,english_301.wav,0,peel,1421,36,5,4,english,f,9,0.9,-85.03664705,1.73145538
65ceaba67bb38638483fbbb6,61,1,2024-02-28T14:33:43.940Z,english_301.wav,0,peel,1421,36,5,4,english,f,10,1.0,-35.05020918,1.60276464
65ceaba67bb38638483fbbb6,61,1,2024-02-28T14:33:43.940Z,english_301.wav,0,peel,1421,36,5,4,english,f,11,1.09391667,79.38839228,1.26188471
65ceaba67bb38638483fbbb6,62,1,2024-02-28T14:33:43.940Z,english_928.wav,0,pill,1324,36,5,4,english,f,0,0.0,10.59611368,0.70098124
65ceaba67bb38638483fbbb6,62,1,2024-02-28T14:33:43.940Z,english_928.wav,0,pill,1324,36,5,4,english,f,1,0.1,-58.33970814,0.81482125
65ceaba67bb38638483fbbb6,62,1,2024-02-28T14:33:43.940Z,english_928.wav,0,pill,1324,36,5,4,english,f,2,0.2,48.21332553,0.85809581
65ceaba67bb38638483fbbb6,62,1,2024-02-28T14:33:43.940Z,english_928.wav,0,pill,1324,36,5,4,english,f,3,0.3,8.01473442,1.28695487
65ceaba67bb38638483fbbb6,62,1,2024-02-28T14:33:43.940Z,english_928.wav,0,pill,1324,36,5,4,english,f,4,0.4,1.23446692,0.84694823
65ceaba67bb38638483fbbb6,62,1,2024-02-28T14:33:43.940Z,english_928.wav,0,pill,1324,36,5,4,english,f,5,0.5,75.4888235,0.86088631
65ceaba67bb38638483fbbb6,62,1,2024-02-28T14:33:43.940Z,english_928.wav,0,pill,1324,36,5,4,english,f,6,0.6,-71.96113636,0.91068844
65ceaba67bb38638483fbbb6,62,1,2024-02-28T14:33:43.940Z,english_928.wav,0,pill,1324,36,5,4,english,f,7,0.7,-73.39552856,1.800813
65ceaba67bb38638483fbbb6,62,1,2024-02-28T14:33:43.940Z,english_928.wav,0,pill,1324,36,5,4,english,f,8,0.8,-33.53378549,0.14082097
65ceaba67bb38638483fbbb6,62,1,2024-02-28T14:33:43.940Z,english_928.wav,0,pill,1324,36,5,4,english,f,9,0.9,1.07873632,0.95279098
65ceaba67bb38638483fbbb6,62,1,2024-02-28T14:33:43.940Z,english_928.wav,0,pill,1324,36,5,4,english,f,10,1.0,58.06405964,0.96841151
65ceaba67bb38638483fbbb6,62,1,2024-02-28T14:33:43.940Z,english_928.wav,0,pill,1324,36,5,4,english,f,11,1.09391667,15.92112733,0.90966091
65ceaba67bb38638483fbbb6,63,1,2024-02-28T14:33:43.940Z,english_685.wav,0,pill,899,36,5,4,english,f,0,0.0,62.22235335,0.91642602
65ceaba67bb38638483fbbb6,63,1,2024-02-28T14:33:43.940Z,english_685.wav,0,pill,899,36,5,4,english,f,1,0.1,-97.11025465,1.72329218
65ceaba67bb38638483fbbb6,63,1,2024-02-28T14:33:43.940Z,english_685.wav,0,pill,899,36,5,4,english,f,2,0.2,72.03160739,1.99088782
65ceaba67bb38638483fbbb6,63,1,2024-02-28T14:33:43.940Z,english_685.wav,0,pill,899,36,5,4,english,f,3,0.3,40.47895004,0.00501952
65ceaba67bb38638483fbbb6,63,1,2024-02-28T14:33:43.940Z,english_685.wav,0,pill,899,36,5,4,english,f,4,0.4,-75.64985874,1.41330373
65ceaba67bb38638483fbbb6,63,1,2024-02-28T14:33:43.940Z,english_685.wav,0,pill,899,36,5,4,english,f,5,0.5,-62.21115329,0.58310659
65ceaba67bb38638483fbbb6,63,1,2024-02-28T14:33:43.940Z,english_685.wav,0,pill,899,36,5,4,english,f,6,0.6,34.38722215,1.5248844
65ceaba67bb38638483fbbb6,63,1,2024-02-28T14:33:43.940Z,english_685.wav,0,pill,899,36,5,4,english,f,7,0.7,96.86141958,0.15841589
65ceaba67bb38638483fbbb6,63,1,2024-02-28T14:33:43.940Z,english_685.wav,0,pill,899,36,5,4,english,f,8,0.8,52.32592552,1.39576372
65ceaba67bb38638483fbbb6,63,1,2024-02-28T14:33:43.940Z,english_685.wav,0,pill,899,36,5,4,english,f,9,0.9,47.74773781,1.97205737
65ceaba67bb38638483fbbb6,63,1,2024-02-28T14:33:43.940Z,english_685.wav,0,pill,899,36,5,4,english,f,10,1.0,37.75239805,1.24408728
65ceaba67bb38638483fbbb6,63,1,2024-02-28T14:33:43.940Z,english_685.wav,0,pill,899,36,5,4,english,f,11,1.09391667,-10.16077912,1.54258522
65ceaba67bb38638483fbbb6,64,1,2024-02-28T14:33:43.940Z,english_968.wav,0,pill,2021,36,5,4,english,f,0,0.0,-60.17022597,0.06507059
65ceaba67bb38638483fbbb6,64,1,2024-02-28T14:33:43.940Z,english_968.wav,0,pill,2021,36,5,4,english,f,1,0.1,2.97803036,0.31588679
65ceaba67bb38638483fbbb6,64,1,2024-02-28T14:33:43.940Z,english_968.wav,0,pill,2021,36,5,4,english,f,2,0.2,-20.37779246,1.0629249
65ceaba67bb38638483fbbb6,64,1,2024-02-28T14:33:43.940Z,english_968.wav,0,pill,2021,36,5,4,english,f,3,0.3,82.14777176,1.23312584
