subj,trial,block,date,stim,stim_order,response,rt,age,english,french,language,sex,param_index,segment,pitch,stretch
5b0dfcef9663ee000145af34,0,0,2024-02-28T18:01:57.679Z,english_292.wav,0,peel,2490,24,5,4,English,f,0,0.0,25.72060653,1.17792554
5b0dfcef9663ee000145af34,0,0,2024-02-28T18:01:57.679Z,english_292.wav,0,peel,2490,24,5,4,English,f,1,0.1,-6.51251487,0.30252559
5b0dfcef9663ee000145af34,0,0,2024-02-28T18:01:57.679Z,english_292.wav,0,peel,2490,24,5,4,English,f,2,0.2,3.32661168,1.09442145
5b0dfcef9663ee000145af34,0,0,2024-02-28T18:01:57.679Z,english_292.wav,0,peel,2490,24,5,4,English,f,3,0.3,89.62386246,1.28448778
5b0dfcef9663ee000145af34,0,0,2024-02-28T18:01:57.679Z,english_292.wav,0,peel,2490,24,5,4,English,f,4,0.4,80.65433919,1.02735441
5b0dfcef9663ee000145af34,0,0,2024-02-28T18:01:57.679Z,english_292.wav,0,peel,2490,24,5,4,English,f,5,0.5,44.84771524,0.62410129
5b0dfcef9663ee000145af34,0,0,2024-02-28T18:01:57.679Z,english_292.wav,0,peel,2490,24,5,4,English,f,6,0.6,25.54437629,1.60418481
5b0dfcef9663ee000145af34,0,0,2024-02-28T18:01:57.679Z,english_292.wav,0,peel,2490,24,5,4,English,f,7,0.7,-12.49512251,0.44189431
5b0dfcef9663ee000145af34,0,0,2024-02-28T18:01:57.679Z,english_292.wav,0,peel,2490,24,5,4,English,f,8,0.8,-42.7769001,1.24863789
5b0dfcef9663ee000145af34,0,0,2024-02-28T18:01:57.679Z,english_292.wav,0,peel,2490,24,5,4,English,f,9,0.9,-50.66960292,1.87159039
5b0dfcef9663ee000145af34,0,0,2024-02-28T18:01:57.679Z,english_292.wav,0,peel,2490,24,5,4,English,f,10,1.0,-26.28928757,1.63743996
5b0dfcef9663ee000145af34,0,0,2024-02-28T18:01:57.679Z,english_292.wav,0,peel,2490,24,5,4,English,f,11,1.09391667,-87.75283225,0.32075193
5b0dfcef9663ee000145af34,1,0,2024-02-28T18:01:57.679Z,english_202.wav,0,peel,1718,24,5,4,English,f,0,0.0,-55.5835629,1.42115323
5b0dfcef9663ee000145af34,1,0,2024-02-28T18:01:57.679Z,english_202.wav,0,peel,1718,24,5,4,English,f,1,0.1,-74.17222211,1.11230171
5b0dfcef9663ee000145af34,1,0,2024-02-28T18:01:57.679Z,english_202.wav,0,peel,1718,24,5,4,English,f,2,0.2,32.91988816,1.2604868
5b0dfcef9663ee000145af34,1,0,2024-02-28T18:01:57.679Z,english_202.wav,0,peel,1718,24,5,4,English,f,3,0.3,-61.08726633,1.38170621
5b0dfcef9663ee000145af34,1,0,2024-02-28T18:01:57.679Z,english_202.wav,0,peel,1718,24,5,4,English,f,4,0.4,74.28120307,1.19502306
5b0dfcef9663ee000145af34,1,0,2024-02-28T18:01:57.679Z,english_202.wav,0,peel,1718,24,5,4,English,f,5,0.5,27.15782783,1.3290301
5b0dfcef9663ee000145af34,1,0,2024-02-28T18:01:57.679Z,english_202.wav,0,peel,1718,24,5,4,English,f,6,0.6,-31.42828759,1.43273837
5b0dfcef9663ee000145af34,1,0,2024-02-28T18:01:57.679Z,english_202.wav,0,peel,1718,24,5,4,English,f,7,0.7,-85.57803202,0.23505516
5b0dfcef9663ee000145af34,1,0,2024-02-28T18:01:57.679Z,english_202.wav,0,peel,1718,24,5,4,English,f,8,0.8,-8.83313062,0.8306151
5b0dfcef9663ee000145af34,1,0,2024-02-28T18:01:57.679Z,english_202.wav,0,peel,1718,24,5,4,English,f,9,0.9,75.88912897,1.14421979
5b0dfcef9663ee000145af34,1,0,2024-02-28T18:01:57.679Z,english_202.wav,0,peel,1718,24,5,4,English,f,10,1.0,-46.89935533,1.72535261
5b0dfcef9663ee000145af34,1,0,2024-02-28T18:01:57.679Z,english_202.wav,0,peel,1718,24,5,4,English,f,11,1.09391667,1.73094833,1.37481935
5b0dfcef9663ee000145af34,2,0,2024-02-28T18:01:57.679Z,english_543.wav,0,peel,1474,24,5,4,English,f,0,0.0,-38.60842869,0.01455056
5b0dfcef9663ee000145af34,2,0,2024-02-28T18:01:57.679Z,english_543.wav,0,peel,1474,24,5,4,English,f,1,0.1,53.1018826,1.33130856
5b0dfcef9663ee000145af34,2,0,2024-02-28T18:01:57.679Z,english_543.wav,0,peel,1474,24,5,4,English,f,2,0.2,21.93281072,0.07852499
5b0dfcef9663ee000145af34,2,0,2024-02-28T18:01:57.679Z,english_543.wav,0,peel,1474,24,5,4,English,f,3,0.3,-40.4815272,1.77861337
5b0dfcef9663ee000145af34,2,0,2024-02-28T18:01:57.679Z,english_543.wav,0,peel,1474,24,5,4,English,f,4,0.4,2.89670018,1.72434721
5b0dfcef9663ee000145af34,2,0,2024-02-28T18:01:57.679Z,english_543.wav,0,peel,1474,24,5,4,English,f,5,0.5,31.11758458,1.53256383
5b0dfcef9663ee000145af34,2,0,2024-02-28T18:01:57.679Z,english_543.wav,0,peel,1474,24,5,4,English,f,6,0.6,1.30911675,1.33712035
5b0dfcef9663ee000145af34,2,0,2024-02-28T18:01:57.679Z,english_543.wav,0,peel,1474,24,5,4,English,f,7,0.7,46.76912586,0.29783205
5b0dfcef9663ee000145af34,2,0,2024-02-28T18:01:57.679Z,english_543.wav,0,peel,1474,24,5,4,English,f,8,0.8,-75.40535735,1.43997323
5b0dfcef9663ee000145af34,2,0,2024-02-28T18:01:57.679Z,english_543.wav,0,peel,1474,24,5,4,English,f,9,0.9,57.91130712,0.04561747
5b0dfcef9663ee000145af34,2,0,2024-02-28T18:01:57.679Z,english_543.wav,0,peel,1474,24,5,4,English,f,10,1.0,-90.16753315,1.78781135
5b0dfcef9663ee000145af34,2,0,2024-02-28T18:01:57.679Z,english_543.wav,0,peel,1474,24,5,4,English,f,11,1.09391667,-42.19615814,1.03895071
5b0dfcef9663ee000145af34,3,0,2024-02-28T18:01:57.679Z,english_645.wav,0,peel,1553,24,5,4,English,f,0,0.0,74.20759592,0.3722502
5b0dfcef9663ee000145af34,3,0,2024-02-28T18:01:57.679Z,english_645.wav,0,peel,1553,24,5,4,English,f,1,0.1,-91.348614,0.72135633
5b0dfcef9663ee000145af34,3,0,2024-02-28T18:01:57.679Z,english_645.wav,0,peel,1553,24,5,4,English,f,2,0.2,-47.07053841,1.09022513
5b0dfcef9663ee000145af34,3,0,2024-02-28T18:01:57.679Z,english_645.wav,0,peel,1553,24,5,4,English,f,3,0.3,14.8093439,0.23360297
5b0dfcef9663ee000145af34,3,0,2024-02-28T18:01:57.679Z,english_645.wav,0,peel,1553,24,5,4,English,f,4,0.4,46.9338314,1.81978529
5b0dfcef9663ee000145af34,3,0,2024-02-28T18:01:57.679Z,english_645.wav,0,peel,1553,24,5,4,English,f,5,0.5,39.7428535,0.50068107
5b0dfcef9663ee000145af34,3,0,2024-02-28T18:01:57.679Z,english_645.wav,0,peel,1553,24,5,4,English,f,6,0.6,-23.36569069,1.21791048
5b0dfcef9663ee000145af34,3,0,2024-02-28T18:01:57.679Z,english_645.wav,0,peel,1553,24,5,4,English,f,7,0.7,45.91971916,0.53153165
5b0dfcef9663ee000145af34,3,0,2024-02-28T18:01:57.679Z,english_645.wav,0,peel,1553,24,5,4,English,f,8,0.8,32.42791759,1.47100285
5b0dfcef9663ee000145af34,3,0,2024-02-28T18:01:57.679Z,english_645.wav,0,peel,1553,24,5,4,English,f,9,0.9,1.19876254,1.64053241
5b0dfcef9663ee000145af34,3,0,2024-02-28T18:01:57.679Z,english_645.wav,0,peel,1553,24,5,4,English,f,10,1.0,-40.71182661,1.74926312
5b0dfcef9663ee000145af34,3,0,2024-02-28T18:01:57.679Z,english_645.wav,0,peel,1553,24,5,4,English,f,11,1.09391667,-1.61863293,1.77861775
5b0dfcef9663ee000145af34,4,0,2024-02-28T18:01:57.679Z,english_744.wav,0,pill,1052,24,5,4,English,f,0,0.0,68.01647572,0.92301697
5b0dfcef9663ee000145af34,4,0,2024-02-28T18:01:57.679Z,english_744.wav,0,pill,1052,24,5,4,English,f,1,0.1,-94.84396495,1.7240092
5b0dfcef9663ee000145af34,4,0,2024-02-28T18:01:57.679Z,english_744.wav,0,pill,1052,24,5,4,English,f,2,0.2,-7.3752647,0.78395161
5b0dfcef9663ee000145af34,4,0,2024-02-28T18:01:57.679Z,english_744.wav,0,pill,1052,24,5,4,English,f,3,0.3,-81.08479212,1.15168853
5b0dfcef9663ee000145af34,4,0,2024-02-28T18:01:57.679Z,english_744.wav,0,pill,1052,24,5,4,English,f,4,0.4,-44.66331389,0.98824464
5b0dfcef9663ee000145af34,4,0,2024-02-28T18:01:57.679Z,english_744.wav,0,pill,1052,24,5,4,English,f,5,0.5,-77.45989494,1.26560798
5b0dfcef9663ee000145af34,4,0,2024-02-28T18:01:57.679Z,english_744.wav,0,pill,1052,24,5,4,English,f,6,0.6,19.1026234,0.20042884
5b0dfcef9663ee000145af34,4,0,2024-02-28T18:01:57.679Z,english_744.wav,0,pill,1052,24,5,4,English,f,7,0.7,-0.63798112,1.76365186
5b0dfcef9663ee000145af34,4,0,2024-02-28T18:01:57.679Z,english_744.wav,0,pill,1052,24,5,4,English,f,8,0.8,74.86031238,1.68948901
5b0dfcef9663ee000145af34,4,0,2024-02-28T18:01:57.679Z,english_744.wav,0,pill,1052,24,5,4,English,f,9,0.9,-35.9107796,0.81659748
5b0dfcef9663ee000145af34,4,0,2024-02-28T18:01:57.679Z,english_744.wav,0,pill,1052,24,5,4,English,f,10,1.0,-6.98299608,1.14393897
5b0dfcef9663ee000145af34,4,0,2024-02-28T18:01:57.679Z,english_744.wav,0,pill,1052,24,5,4,English,f,11,1.09391667,-12.26999011,0.86480781
5b0dfcef9663ee000145af34,5,0,2024-02-28T18:01:57.679Z,english_36.wav,0,pill,1176,24,5,4,English,f,0,0.0,-9.00477988,0.81327237
5b0dfcef9663ee000145af34,5,0,2024-02-28T18:01:57.679Z,english_36.wav,0,pill,1176,24,5,4,English,f,1,0.1,-13.45702302,0.45075004
5b0dfcef9663ee000145af34,5,0,2024-02-28T18:01:57.679Z,english_36.wav,0,pill,1176,24,5,4,English,f,2,0.2,-2.81727849,0.1663237
5b0dfcef9663ee000145af34,5,0,2024-02-28T18:01:57.679Z,english_36.wav,0,pill,1176,24,5,4,English,f,3,0.3,-29.71164893,1.57862109
5b0dfcef9663ee000145af34,5,0,2024-02-28T18:01:57.679Z,english_36.wav,0,pill,1176,24,5,4,English,f,4,0.4,95.72220786,1.7254824
5b0dfcef9663ee000145af34,5,0,2024-02-28T18:01:57.679Z,english_36.wav,0,pill,1176,24,5,4,English,f,5,0.5,-60.23405317,1.10066579
5b0dfcef9663ee000145af34,5,0,2024-02-28T18:01:57.679Z,english_36.wav,0,pill,1176,24,5,4,English,f,6,0.6,-99.2529621,0.59792659
5b0dfcef9663ee000145af34,5,0,2024-02-28T18:01:57.679Z,english_36.wav,0,pill,1176,24,5,4,English,f,7,0.7,-7.64791957,1.42084394
5b0dfcef9663ee000145af34,5,0,2024-02-28T18:01:57.679Z,english_36.wav,0,pill,1176,24,5,4,English,f,8,0.8,-68.45334788,0.87400001
5b0dfcef9663ee000145af34,5,0,2024-02-28T18:01:57.679Z,english_36.wav,0,pill,1176,24,5,4,English,f,9,0.9,91.90753039,1.522223
5b0dfcef9663ee000145af34,5,0,2024-02-28T18:01:57.679Z,english_36.wav,0,pill,1176,24,5,4,English,f,10,1.0,93.40110395,0.56951468
5b0dfcef9663ee000145af34,5,0,2024-02-28T18:01:57.679Z,english_36.wav,0,pill,1176,24,5,4,English,f,11,1.09391667,-27.95691035,1.01798822
5b0dfcef9663ee000145af34,6,0,2024-02-28T18:01:57.679Z,english_346.wav,0,pill,1589,24,5,4,English,f,0,0.0,24.07666509,0.66537663
5b0dfcef9663ee000145af34,6,0,2024-02-28T18:01:57.679Z,english_346.wav,0,pill,1589,24,5,4,English,f,1,0.1,-87.64157913,1.54123619
5b0dfcef9663ee000145af34,6,0,2024-02-28T18:01:57.679Z,english_346.wav,0,pill,1589,24,5,4,English,f,2,0.2,-51.3970499,0.92348631
5b0dfcef9663ee000145af34,6,0,2024-02-28T18:01:57.679Z,english_346.wav,0,pill,1589,24,5,4,English,f,3,0.3,79.45874018,0.33920207
5b0dfcef9663ee000145af34,6,0,2024-02-28T18:01:57.679Z,english_346.wav,0,pill,1589,24,5,4,English,f,4,0.4,-74.83031912,0.94433533
5b0dfcef9663ee000145af34,6,0,2024-02-28T18:01:57.679Z,english_346.wav,0,pill,1589,24,5,4,English,f,5,0.5,-2.98294823,0.8352321
5b0dfcef9663ee000145af34,6,0,2024-02-28T18:01:57.679Z,english_346.wav,0,pill,1589,24,5,4,English,f,6,0.6,-32.38946294,0.95810053
5b0dfcef9663ee000145af34,6,0,2024-02-28T18:01:57.679Z,english_346.wav,0,pill,1589,24,5,4,English,f,7,0.7,-24.81590652,0.99822629
5b0dfcef9663ee000145af34,6,0,2024-02-28T18:01:57.679Z,english_346.wav,0,pill,1589,24,5,4,English,f,8,0.8,-13.90891955,0.18782062
5b0dfcef9663ee000145af34,6,0,2024-02-28T18:01:57.679Z,english_346.wav,0,pill,1589,24,5,4,English,f,9,0.9,-33.49626836,1.6271571
5b0dfcef9663ee000145af34,6,0,2024-02-28T18:01:57.679Z,english_346.wav,0,pill,1589,24,5,4,English,f,10,1.0,-23.2144111,1.67158741
5b0dfcef9663ee000145af34,6,0,2024-02-28T18:01:57.679Z,english_346.wav,0,pill,1589,24,5,4,English,f,11,1.09391667,-9.66358574,1.16169049
5b0dfcef9663ee000145af34,7,0,2024-02-28T18:01:57.679Z,english_393.wav,0,peel,1372,24,5,4,English,f,0,0.0,-58.74313134,0.16237212
5b0dfcef9663ee000145af34,7,0,2024-02-28T18:01:57.679Z,english_393.wav,0,peel,1372,24,5,4,English,f,1,0.1,46.38152714,1.56085016
5b0dfcef9663ee000145af34,7,0,2024-02-28T18:01:57.679Z,english_393.wav,0,peel,1372,24,5,4,English,f,2,0.2,-5.44961594,0.52643067
5b0dfcef9663ee000145af34,7,0,2024-02-28T18:01:57.679Z,english_393.wav,0,peel,1372,24,5,4,English,f,3,0.3,51.05560406,0.88104135
5b0dfcef9663ee000145af34,7,0,2024-02-28T18:01:57.679Z,english_393.wav,0,peel,1372,24,5,4,English,f,4,0.4,48.86629046,0.28565075
5b0dfcef9663ee000145af34,7,0,2024-02-28T18:01:57.679Z,english_393.wav,0,peel,1372,24,5,4,English,f,5,0.5,-0.66798529,1.31813369
5b0dfcef9663ee000145af34,7,0,2024-02-28T18:01:57.679Z,english_393.wav,0,peel,1372,24,5,4,English,f,6,0.6,8.72000336,1.65879699
5b0dfcef9663ee000145af34,7,0,2024-02-28T18:01:57.679Z,english_393.wav,0,peel,1372,24,5,4,English,f,7,0.7,67.13946978,1.88209371
5b0dfcef9663ee000145af34,7,0,2024-02-28T18:01:57.679Z,english_393.wav,0,peel,1372,24,5,4,English,f,8,0.8,18.17496414,0.89524583
5b0dfcef9663ee000145af34,7,0,2024-02-28T18:01:57.679Z,english_393.wav,0,peel,1372,24,5,4,English,f,9,0.9,-78.16206847,0.64742398
5b0dfcef9663ee000145af34,7,0,2024-02-28T18:01:57.679Z,english_393.wav,0,peel,1372,24,5,4,English,f,10,1.0,26.35406132,0.57671432
5b0dfcef9663ee000145af34,7,0,2024-02-28T18:01:57.679Z,english_393.wav,0,peel,1372,24,5,4,English,f,11,1.09391667,94.49751902,1.24089852
5b0dfcef9663ee000145af34,8,0,2024-02-28T18:01:57.679Z,english_534.wav,0,peel,1112,24,5,4,English,f,0,0.0,-15.08523103,1.2576493
5b0dfcef9663ee000145af34,8,0,2024-02-28T18:01:57.679Z,english_534.wav,0,peel,1112,24,5,4,English,f,1,0.1,93.48585898,1.2446308
5b0dfcef9663ee000145af34,8,0,2024-02-28T18:01:57.679Z,english_534.wav,0,peel,1112,24,5,4,English,f,2,0.2,55.87888333,0.65171732
5b0dfcef9663ee000145af34,8,0,2024-02-28T18:01:57.679Z,english_534.wav,0,peel,1112,24,5,4,English,f,3,0.3,-36.19470402,0.89712992
5b0dfcef9663ee000145af34,8,0,2024-02-28T18:01:57.679Z,english_534.wav,0,peel,1112,24,5,4,English,f,4,0.4,-10.66505227,0.55440887
5b0dfcef9663ee000145af34,8,0,2024-02-28T18:01:57.679Z,english_534.wav,0,peel,1112,24,5,4,English,f,5,0.5,-17.59721476,1.08297088
5b0dfcef9663ee000145af34,8,0,2024-02-28T18:01:57.679Z,english_534.wav,0,peel,1112,24,5,4,English,f,6,0.6,0.24135603,0.95799779
5b0dfcef9663ee000145af34,8,0,2024-02-28T18:01:57.679Z,english_534.wav,0,peel,1112,24,5,4,English,f,7,0.7,10.84337222,1.14434093
5b0dfcef9663ee000145af34,8,0,2024-02-28T18:01:57.679Z,english_534.wav,0,peel,1112,24,5,4,English,f,8,0.8,-58.25689659,1.1844466
5b0dfcef9663ee000145af34,8,0,2024-02-28T18:01:57.679Z,english_534.wav,0,peel,1112,24,5,4,English,f,9,0.9,99.17008703,1.42626651
5b0dfcef9663ee000145af34,8,0,2024-02-28T18:01:57.679Z,english_534.wav,0,peel,1112,24,5,4,English,f,10,1.0,-1.84311714,0.25468926
5b0dfcef9663ee000145af34,8,0,2024-02-28T18:01:57.679Z,english_534.wav,0,peel,1112,24,5,4,English,f,11,1.09391667,-27.99556667,1.75255348
5b0dfcef9663ee000145af34,9,0,2024-02-28T18:01:57.679Z,english_956.wav,0,peel,1963,24,5,4,English,f,0,0.0,-69.56603744,1.25885793
5b0dfcef9663ee000145af34,9,0,2024-02-28T18:01:57.679Z,english_956.wav,0,peel,1963,24,5,4,English,f,1,0.1,-25.37186141,1.06466306
5b0dfcef9663ee000145af34,9,0,2024-02-28T18:01:57.679Z,english_956.wav,0,peel,1963,24,5,4,English,f,2,0.2,27.97650052,0.94194041
5b0dfcef9663ee000145af34,9,0,2024-02-28T18:01:57.679Z,english_956.wav,0,peel,1963,24,5,4,English,f,3,0.3,-27.59550019,1.53569938
5b0dfcef9663ee000145af34,9,0,2024-02-28T18:01:57.679Z,english_956.wav,0,peel,1963,24,5,4,English,f,4,0.4,-92.97950526,1.85243798
5b0dfcef9663ee000145af34,9,0,2024-02-28T18:01:57.679Z,english_956.wav,0,peel,1963,24,5,4,English,f,5,0.5,38.52785923,1.85210152
5b0dfcef9663ee000145af34,9,0,2024-02-28T18:01:57.679Z,english_956.wav,0,peel,1963,24,5,4,English,f,6,0.6,10.83790673,0.63562422
5b0dfcef9663ee000145af34,9,0,2024-02-28T18:01:57.679Z,english_956.wav,0,peel,1963,24,5,4,English,f,7,0.7,-7.44647917,1.69096149
5b0dfcef9663ee000145af34,9,0,2024-02-28T18:01:57.679Z,english_956.wav,0,peel,1963,24,5,4,English,f,8,0.8,21.12716208,0.44450575
5b0dfcef9663ee000145af34,9,0,2024-02-28T18:01:57.679Z,english_956.wav,0,peel,1963,24,5,4,English,f,9,0.9,68.89451613,0.92187191
5b0dfcef9663ee000145af34,9,0,2024-02-28T18:01:57.679Z,english_956.wav,0,peel,1963,24,5,4,English,f,10,1.0,40.53084536,1.63644611
5b0dfcef9663ee000145af34,9,0,2024-02-28T18:01:57.679Z,english_956.wav,0,peel,1963,24,5,4,English,f,11,1.09391667,63.98453991,0.57157091
5b0dfcef9663ee000145af34,10,0,2024-02-28T18:01:57.679Z,english_290.wav,0,pill,1120,24,5,4,English,f,0,0.0,4.14643055,1.34304487
5b0dfcef9663ee000145af34,10,0,2024-02-28T18:01:57.679Z,english_290.wav,0,pill,1120,24,5,4,English,f,1,0.1,55.79753149,1.94828155
5b0dfcef9663ee000145af34,10,0,2024-02-28T18:01:57.679Z,english_290.wav,0,pill,1120,24,5,4,English,f,2,0.2,-63.42272798,1.81846113
5b0dfcef9663ee000145af34,10,0,2024-02-28T18:01:57.679Z,english_290.wav,0,pill,1120,24,5,4,English,f,3,0.3,-40.60813041,0.06068854
5b0dfcef9663ee000145af34,10,0,2024-02-28T18:01:57.679Z,english_290.wav,0,pill,1120,24,5,4,English,f,4,0.4,-85.79001431,0.95997788
5b0dfcef9663ee000145af34,10,0,2024-02-28T18:01:57.679Z,english_290.wav,0,pill,1120,24,5,4,English,f,5,0.5,-31.93461576,0.98743905
5b0dfcef9663ee000145af34,10,0,2024-02-28T18:01:57.679Z,english_290.wav,0,pill,1120,24,5,4,English,f,6,0.6,-73.76037774,0.49081153
5b0dfcef9663ee000145af34,10,0,2024-02-28T18:01:57.679Z,english_290.wav,0,pill,1120,24,5,4,English,f,7,0.7,-54.82415725,1.93641378
5b0dfcef9663ee000145af34,10,0,2024-02-28T18:01:57.679Z,english_290.wav,0,pill,1120,24,5,4,English,f,8,0.8,85.10642222,0.02141652
5b0dfcef9663ee000145af34,10,0,2024-02-28T18:01:57.679Z,english_290.wav,0,pill,1120,24,5,4,English,f,9,0.9,-54.96930538,1.82619941
5b0dfcef9663ee000145af34,10,0,2024-02-28T18:01:57.679Z,english_290.wav,0,pill,1120,24,5,4,English,f,10,1.0,41.58093041,0.02158423
5b0dfcef9663ee000145af34,10,0,2024-02-28T18:01:57.679Z,english_290.wav,0,pill,1120,24,5,4,English,f,11,1.09391667,28.32805855,1.73531275
5b0dfcef9663ee000145af34,11,0,2024-02-28T18:01:57.679Z,english_936.wav,0,peel,1680,24,5,4,English,f,0,0.0,36.31221715,1.2887877
5b0dfcef9663ee000145af34,11,0,2024-02-28T18:01:57.679Z,english_936.wav,0,peel,1680,24,5,4,English,f,1,0.1,-44.47492587,1.4589685
5b0dfcef9663ee000145af34,11,0,2024-02-28T18:01:57.679Z,english_936.wav,0,peel,1680,24,5,4,English,f,2,0.2,-4.14718789,0.18405876
5b0dfcef9663ee000145af34,11,0,2024-02-28T18:01:57.679Z,english_936.wav,0,peel,1680,24,5,4,English,f,3,0.3,-65.70158372,0.27129686
5b0dfcef9663ee000145af34,11,0,2024-02-28T18:01:57.679Z,english_936.wav,0,peel,1680,24,5,4,English,f,4,0.4,76.09968898,0.60039507
5b0dfcef9663ee000145af34,11,0,2024-02-28T18:01:57.679Z,english_936.wav,0,peel,1680,24,5,4,English,f,5,0.5,52.5413509,0.83949142
5b0dfcef9663ee000145af34,11,0,2024-02-28T18:01:57.679Z,english_936.wav,0,peel,1680,24,5,4,English,f,6,0.6,5.38506085,0.92420877
5b0dfcef9663ee000145af34,11,0,2024-02-28T18:01:57.679Z,english_936.wav,0,peel,1680,24,5,4,English,f,7,0.7,-9.33856544,0.31849757
5b0dfcef9663ee000145af34,11,0,2024-02-28T18:01:57.679Z,english_936.wav,0,peel,1680,24,5,4,English,f,8,0.8,-79.6079489,1.55991954
5b0dfcef9663ee000145af34,11,0,2024-02-28T18:01:57.679Z,english_936.wav,0,peel,1680,24,5,4,English,f,9,0.9,-51.30915368,1.32485451
5b0dfcef9663ee000145af34,11,0,2024-02-28T18:01:57.679Z,english_936.wav,0,peel,1680,24,5,4,English,f,10,1.0,-23.2662762,1.1603689
5b0dfcef9663ee000145af34,11,0,2024-02-28T18:01:57.679Z,english_936.wav,0,peel,1680,24,5,4,English,f,11,1.09391667,10.041916,0.29288231
5b0dfcef9663ee000145af34,12,0,2024-02-28T18:01:57.679Z,english_174.wav,0,peel,1953,24,5,4,English,f,0,0.0,-1.27352161,1.81219165
5b0dfcef9663ee000145af34,12,0,2024-02-28T18:01:57.679Z,english_174.wav,0,peel,1953,24,5,4,English,f,1,0.1,-67.76486912,0.77028854
5b0dfcef9663ee000145af34,12,0,2024-02-28T18:01:57.679Z,english_174.wav,0,peel,1953,24,5,4,English,f,2,0.2,38.59821356,0.44136445
5b0dfcef9663ee000145af34,12,0,2024-02-28T18:01:57.679Z,english_174.wav,0,peel,1953,24,5,4,English,f,3,0.3,-68.30936474,1.01129338
5b0dfcef9663ee000145af34,12,0,2024-02-28T18:01:57.679Z,english_174.wav,0,peel,1953,24,5,4,English,f,4,0.4,-90.24428589,0.76518489
5b0dfcef9663ee000145af34,12,0,2024-02-28T18:01:57.679Z,english_174.wav,0,peel,1953,24,5,4,English,f,5,0.5,-78.84758788,1.51905633
5b0dfcef9663ee000145af34,12,0,2024-02-28T18:01:57.679Z,english_174.wav,0,peel,1953,24,5,4,English,f,6,0.6,82.67516556,0.9260744
5b0dfcef9663ee000145af34,12,0,2024-02-28T18:01:57.679Z,english_174.wav,0,peel,1953,24,5,4,English,f,7,0.7,27.65744762,1.48661059
5b0dfcef9663ee000145af34,12,0,2024-02-28T18:01:57.679Z,english_174.wav,0,peel,1953,24,5,4,English,f,8,0.8,82.5621195,0.13101211
5b0dfcef9663ee000145af34,12,0,2024-02-28T18:01:57.679Z,english_174.wav,0,peel,1953,24,5,4,English,f,9,0.9,22.03109017,0.66605082
5b0dfcef9663ee000145af34,12,0,2024-02-28T18:01:57.679Z,english_174.wav,0,peel,1953,24,5,4,English,f,10,1.0,97.22651297,0.90549752
5b0dfcef9663ee000145af34,12,0,2024-02-28T18:01:57.679Z,english_174.wav,0,peel,1953,24,5,4,English,f,11,1.09391667,6.30116613,1.52579229
5b0dfcef9663ee000145af34,13,0,2024-02-28T18:01:57.679Z,english_602.wav,0,peel,1007,24,5,4,English,f,0,0.0,68.03651569,0.44361931
5b0dfcef9663ee000145af34,13,0,2024-02-28T18:01:57.679Z,english_602.wav,0,peel,1007,24,5,4,English,f,1,0.1,45.80270737,1.54062364
5b0dfcef9663ee000145af34,13,0,2024-02-28T18:01:57.679Z,english_602.wav,0,peel,1007,24,5,4,English,f,2,0.2,40.05084495,1.57634207
5b0dfcef9663ee000145af34,13,0,2024-02-28T18:01:57.679Z,english_602.wav,0,peel,1007,24,5,4,English,f,3,0.3,48.64089828,0.03645506
5b0dfcef9663ee000145af34,13,0,2024-02-28T18:01:57.679Z,english_602.wav,0,peel,1007,24,5,4,English,f,4,0.4,24.15305268,1.06145672
5b0dfcef9663ee000145af34,13,0,2024-02-28T18:01:57.679Z,english_602.wav,0,peel,1007,24,5,4,English,f,5,0.5,51.63059478,0.59279659
5b0dfcef9663ee000145af34,13,0,2024-02-28T18:01:57.679Z,english_602.wav,0,peel,1007,24,5,4,English,f,6,0.6,84.11339373,1.68063549
5b0dfcef9663ee000145af34,13,0,2024-02-28T18:01:57.679Z,english_602.wav,0,peel,1007,24,5,4,English,f,7,0.7,22.39119116,0.09041329
5b0dfcef9663ee000145af34,13,0,2024-02-28T18:01:57.679Z,english_602.wav,0,peel,1007,24,5,4,English,f,8,0.8,-41.26651668,1.8261536
5b0dfcef9663ee000145af34,13,0,2024-02-28T18:01:57.679Z,english_602.wav,0,peel,1007,24,5,4,English,f,9,0.9,-2.28056387,1.1974799
5b0dfcef9663ee000145af34,13,0,2024-02-28T18:01:57.679Z,english_602.wav,0,peel,1007,24,5,4,English,f,10,1.0,-50.54956883,1.84366918
5b0dfcef9663ee000145af34,13,0,2024-02-28T18:01:57.679Z,english_602.wav,0,peel,1007,24,5,4,English,f,11,1.09391667,-93.08298628,1.00091384
5b0dfcef9663ee000145af34,14,0,2024-02-28T18:01:57.679Z,english_812.wav,0,peel,1447,24,5,4,English,f,0,0.0,-74.39405292,0.33785156
5b0dfcef9663ee000145af34,14,0,2024-02-28T18:01:57.679Z,english_812.wav,0,peel,1447,24,5,4,English,f,1,0.1,48.51980233,1.22752684
5b0dfcef9663ee000145af34,14,0,2024-02-28T18:01:57.679Z,english_812.wav,0,peel,1447,24,5,4,English,f,2,0.2,30.32531814,1.43694832
5b0dfcef9663ee000145af34,14,0,2024-02-28T18:01:57.679Z,english_812.wav,0,peel,1447,24,5,4,English,f,3,0.3,85.76843882,1.56264474
5b0dfcef9663ee000145af34,14,0,2024-02-28T18:01:57.679Z,english_812.wav,0,peel,1447,24,5,4,English,f,4,0.4,0.84929795,0.39298857
5b0dfcef9663ee000145af34,14,0,2024-02-28T18:01:57.679Z,english_812.wav,0,peel,1447,24,5,4,English,f,5,0.5,-13.37525602,1.28085639
5b0dfcef9663ee000145af34,14,0,2024-02-28T18:01:57.679Z,english_812.wav,0,peel,1447,24,5,4,English,f,6,0.6,54.45247284,1.06153563
5b0dfcef9663ee000145af34,14,0,2024-02-28T18:01:57.679Z,english_812.wav,0,peel,1447,24,5,4,English,f,7,0.7,-16.62398762,1.70174888
5b0dfcef9663ee000145af34,14,0,2024-02-28T18:01:57.679Z,english_812.wav,0,peel,1447,24,5,4,English,f,8,0.8,13.79350344,1.57881104
5b0dfcef9663ee000145af34,14,0,2024-02-28T18:01:57.679Z,english_812.wav,0,peel,1447,24,5,4,English,f,9,0.9,-99.90183813,0.93688007
5b0dfcef9663ee000145af34,14,0,2024-02-28T18:01:57.679Z,english_812.wav,0,peel,1447,24,5,4,English,f,10,1.0,-21.07031743,0.34388752
5b0dfcef9663ee000145af34,14,0,2024-02-28T18:01:57.679Z,english_812.wav,0,peel,1447,24,5,4,English,f,11,1.09391667,-92.73500895,0.8834258
5b0dfcef9663ee000145af34,15,0,2024-02-28T18:01:57.679Z,english_650.wav,0,peel,1264,24,5,4,English,f,0,0.0,84.72208984,1.44671944
5b0dfcef9663ee000145af34,15,0,2024-02-28T18:01:57.679Z,english_650.wav,0,peel,1264,24,5,4,English,f,1,0.1,-25.46570276,0.96213955
5b0dfcef9663ee000145af34,15,0,2024-02-28T18:01:57.679Z,english_650.wav,0,peel,1264,24,5,4,English,f,2,0.2,-14.49877792,0.60880641
5b0dfcef9663ee000145af34,15,0,2024-02-28T18:01:57.679Z,english_650.wav,0,peel,1264,24,5,4,English,f,3,0.3,92.39693734,0.82954369
5b0dfcef9663ee000145af34,15,0,2024-02-28T18:01:57.679Z,english_650.wav,0,peel,1264,24,5,4,English,f,4,0.4,-32.47071196,0.31003161
5b0dfcef9663ee000145af34,15,0,2024-02-28T18:01:57.679Z,english_650.wav,0,peel,1264,24,5,4,English,f,5,0.5,57.90191837,1.04774221
5b0dfcef9663ee000145af34,15,0,2024-02-28T18:01:57.679Z,english_650.wav,0,peel,1264,24,5,4,English,f,6,0.6,-80.89557153,1.35433017
5b0dfcef9663ee000145af34,15,0,2024-02-28T18:01:57.679Z,english_650.wav,0,peel,1264,24,5,4,English,f,7,0.7,-42.41945014,0.91007785
5b0dfcef9663ee000145af34,15,0,2024-02-28T18:01:57.679Z,english_650.wav,0,peel,1264,24,5,4,English,f,8,0.8,-93.95714217,1.66906144
5b0dfcef9663ee000145af34,15,0,2024-02-28T18:01:57.679Z,english_650.wav,0,peel,1264,24,5,4,English,f,9,0.9,72.90615392,0.82431
5b0dfcef9663ee000145af34,15,0,2024-02-28T18:01:57.679Z,english_650.wav,0,peel,1264,24,5,4,English,f,10,1.0,69.05005157,0.70002504
5b0dfcef9663ee000145af34,15,0,2024-02-28T18:01:57.679Z,english_650.wav,0,peel,1264,24,5,4,English,f,11,1.09391667,82.64627583,0.57122533
5b0dfcef9663ee000145af34,16,0,2024-02-28T18:01:57.679Z,english_717.wav,0,pill,2267,24,5,4,English,f,0,0.0,80.79953087,1.86526645
5b0dfcef9663ee000145af34,16,0,2024-02-28T18:01:57.679Z,english_717.wav,0,pill,2267,24,5,4,English,f,1,0.1,-1.75275742,1.92589165
5b0dfcef9663ee000145af34,16,0,2024-02-28T18:01:57.679Z,english_717.wav,0,pill,2267,24,5,4,English,f,2,0.2,12.73700345,1.47472052
5b0dfcef9663ee000145af34,16,0,2024-02-28T18:01:57.679Z,english_717.wav,0,pill,2267,24,5,4,English,f,3,0.3,-58.06023579,1.92992484
5b0dfcef9663ee000145af34,16,0,2024-02-28T18:01:57.679Z,english_717.wav,0,pill,2267,24,5,4,English,f,4,0.4,-93.68141032,1.20356957
5b0dfcef9663ee000145af34,16,0,2024-02-28T18:01:57.679Z,english_717.wav,0,pill,2267,24,5,4,English,f,5,0.5,-35.69500064,0.92496825
5b0dfcef9663ee000145af34,16,0,2024-02-28T18:01:57.679Z,english_717.wav,0,pill,2267,24,5,4,English,f,6,0.6,23.08040277,1.84550356
5b0dfcef9663ee000145af34,16,0,2024-02-28T18:01:57.679Z,english_717.wav,0,pill,2267,24,5,4,English,f,7,0.7,-73.54652945,0.83429079
5b0dfcef9663ee000145af34,16,0,2024-02-28T18:01:57.679Z,english_717.wav,0,pill,2267,24,5,4,English,f,8,0.8,43.65281286,0.04489088
5b0dfcef9663ee000145af34,16,0,2024-02-28T18:01:57.679Z,english_717.wav,0,pill,2267,24,5,4,English,f,9,0.9,99.54987208,1.24125202
5b0dfcef9663ee000145af34,16,0,2024-02-28T18:01:57.679Z,english_717.wav,0,pill,2267,24,5,4,English,f,10,1.0,85.80896401,1.39190792
5b0dfcef9663ee000145af34,16,0,2024-02-28T18:01:57.679Z,english_717.wav,0,pill,2267,24,5,4,English,f,11,1.09391667,7.78107645,0.20374713
5b0dfcef9663ee000145af34,17,0,2024-02-28T18:01:57.679Z,english_677.wav,0,pill,1357,24,5,4,English,f,0,0.0,35.18766114,1.46418541
5b0dfcef9663ee000145af34,17,0,2024-02-28T18:01:57.679Z,english_677.wav,0,pill,1357,24,5,4,English,f,1,0.1,3.82449325,0.62060775
5b0dfcef9663ee000145af34,17,0,2024-02-28T18:01:57.679Z,english_677.wav,0,pill,1357,24,5,4,English,f,2,0.2,-81.73229082,1.63148334
5b0dfcef9663ee000145af34,17,0,2024-02-28T18:01:57.679Z,english_677.wav,0,pill,1357,24,5,4,English,f,3,0.3,-1.54015563,0.52758496
5b0dfcef9663ee000145af34,17,0,2024-02-28T18:01:57.679Z,english_677.wav,0,pill,1357,24,5,4,English,f,4,0.4,-45.59201538,0.80943231
5b0dfcef9663ee000145af34,17,0,2024-02-28T18:01:57.679Z,english_677.wav,0,pill,1357,24,5,4,English,f,5,0.5,26.20010581,1.10411223
5b0dfcef9663ee000145af34,17,0,2024-02-28T18:01:57.679Z,english_677.wav,0,pill,1357,24,5,4,English,f,6,0.6,-19.9162202,0.62014779
5b0dfcef9663ee000145af34,17,0,2024-02-28T18:01:57.679Z,english_677.wav,0,pill,1357,24,5,4,English,f,7,0.7,41.69291663,0.65910672
5b0dfcef9663ee000145af34,17,0,2024-02-28T18:01:57.679Z,english_677.wav,0,pill,1357,24,5,4,English,f,8,0.8,-68.08590586,1.69273141
5b0dfcef9663ee000145af34,17,0,2024-02-28T18:01:57.679Z,english_677.wav,0,pill,1357,24,5,4,English,f,9,0.9,-52.35020304,1.22000106
5b0dfcef9663ee000145af34,17,0,2024-02-28T18:01:57.679Z,english_677.wav,0,pill,1357,24,5,4,English,f,10,1.0,55.76687311,0.67614262
5b0dfcef9663ee000145af34,17,0,2024-02-28T18:01:57.679Z,english_677.wav,0,pill,1357,24,5,4,English,f,11,1.09391667,26.15340501,1.44243981
5b0dfcef9663ee000145af34,18,0,2024-02-28T18:01:57.679Z,english_704.wav,0,peel,1155,24,5,4,English,f,0,0.0,-66.86347245,1.10852805
5b0dfcef9663ee000145af34,18,0,2024-02-28T18:01:57.679Z,english_704.wav,0,peel,1155,24,5,4,English,f,1,0.1,-33.45070856,1.50534643
5b0dfcef9663ee000145af34,18,0,2024-02-28T18:01:57.679Z,english_704.wav,0,peel,1155,24,5,4,English,f,2,0.2,98.95748792,1.36402955
5b0dfcef9663ee000145af34,18,0,2024-02-28T18:01:57.679Z,english_704.wav,0,peel,1155,24,5,4,English,f,3,0.3,40.39124026,1.09402875
5b0dfcef9663ee000145af34,18,0,2024-02-28T18:01:57.679Z,english_704.wav,0,peel,1155,24,5,4,English,f,4,0.4,76.62361043,0.97410313
5b0dfcef9663ee000145af34,18,0,2024-02-28T18:01:57.679Z,english_704.wav,0,peel,1155,24,5,4,English,f,5,0.5,61.00109246,1.19276443
5b0dfcef9663ee000145af34,18,0,2024-02-28T18:01:57.679Z,english_704.wav,0,peel,1155,24,5,4,English,f,6,0.6,24.61875858,0.71178311
5b0dfcef9663ee000145af34,18,0,2024-02-28T18:01:57.679Z,english_704.wav,0,peel,1155,24,5,4,English,f,7,0.7,32.51289689,1.62027576
5b0dfcef9663ee000145af34,18,0,2024-02-28T18:01:57.679Z,english_704.wav,0,peel,1155,24,5,4,English,f,8,0.8,93.51972076,1.01576623
5b0dfcef9663ee000145af34,18,0,2024-02-28T18:01:57.679Z,english_704.wav,0,peel,1155,24,5,4,English,f,9,0.9,43.30633586,0.07371268
5b0dfcef9663ee000145af34,18,0,2024-02-28T18:01:57.679Z,english_704.wav,0,peel,1155,24,5,4,English,f,10,1.0,5.62352462,0.93560494
5b0dfcef9663ee000145af34,18,0,2024-02-28T18:01:57.679Z,english_704.wav,0,peel,1155,24,5,4,English,f,11,1.09391667,87.81172513,0.13780059
5b0dfcef9663ee000145af34,19,0,2024-02-28T18:01:57.679Z,english_639.wav,0,peel,1974,24,5,4,English,f,0,0.0,5.56347498,1.83509432
5b0dfcef9663ee000145af34,19,0,2024-02-28T18:01:57.679Z,english_639.wav,0,peel,1974,24,5,4,English,f,1,0.1,75.73661073,0.44211572
5b0dfcef9663ee000145af34,19,0,2024-02-28T18:01:57.679Z,english_639.wav,0,peel,1974,24,5,4,English,f,2,0.2,-90.85300276,1.03578017
5b0dfcef9663ee000145af34,19,0,2024-02-28T18:01:57.679Z,english_639.wav,0,peel,1974,24,5,4,English,f,3,0.3,-28.02471483,0.46973677
5b0dfcef9663ee000145af34,19,0,2024-02-28T18:01:57.679Z,english_639.wav,0,peel,1974,24,5,4,English,f,4,0.4,-62.26468724,0.54820752
5b0dfcef9663ee000145af34,19,0,2024-02-28T18:01:57.679Z,english_639.wav,0,peel,1974,24,5,4,English,f,5,0.5,17.80250947,0.51964922
5b0dfcef9663ee000145af34,19,0,2024-02-28T18:01:57.679Z,english_639.wav,0,peel,1974,24,5,4,English,f,6,0.6,29.29879682,0.06117772
5b0dfcef9663ee000145af34,19,0,2024-02-28T18:01:57.679Z,english_639.wav,0,peel,1974,24,5,4,English,f,7,0.7,-6.14897809,0.67480304
5b0dfcef9663ee000145af34,19,0,2024-02-28T18:01:57.679Z,english_639.wav,0,peel,1974,24,5,4,English,f,8,0.8,-11.9254819,0.85869346
5b0dfcef9663ee000145af34,19,0,2024-02-28T18:01:57.679Z,english_639.wav,0,peel,1974,24,5,4,English,f,9,0.9,6.20327944,1.90136883
5b0dfcef9663ee000145af34,19,0,2024-02-28T18:01:57.679Z,english_639.wav,0,peel,1974,24,5,4,English,f,10,1.0,-44.51875699,1.31276151
5b0dfcef9663ee000145af34,19,0,2024-02-28T18:01:57.679Z,english_639.wav,0,peel,1974,24,5,4,English,f,11,1.09391667,52.00361599,1.93524577
5b0dfcef9663ee000145af34,20,0,2024-02-28T18:01:57.679Z,english_309.wav,0,pill,1165,24,5,4,English,f,0,0.0,-34.14852999,1.21753296
5b0dfcef9663ee000145af34,20,0,2024-02-28T18:01:57.679Z,english_309.wav,0,pill,1165,24,5,4,English,f,1,0.1,-60.02804827,1.49982591
5b0dfcef9663ee000145af34,20,0,2024-02-28T18:01:57.679Z,english_309.wav,0,pill,1165,24,5,4,English,f,2,0.2,6.0299745,1.91679373
5b0dfcef9663ee000145af34,20,0,2024-02-28T18:01:57.679Z,english_309.wav,0,pill,1165,24,5,4,English,f,3,0.3,65.21163803,0.32322976
5b0dfcef9663ee000145af34,20,0,2024-02-28T18:01:57.679Z,english_309.wav,0,pill,1165,24,5,4,English,f,4,0.4,70.66724966,1.88516358
5b0dfcef9663ee000145af34,20,0,2024-02-28T18:01:57.679Z,english_309.wav,0,pill,1165,24,5,4,English,f,5,0.5,45.99109365,1.4437576
5b0dfcef9663ee000145af34,20,0,2024-02-28T18:01:57.679Z,english_309.wav,0,pill,1165,24,5,4,English,f,6,0.6,-19.50247914,1.34394651
5b0dfcef9663ee000145af34,20,0,2024-02-28T18:01:57.679Z,english_309.wav,0,pill,1165,24,5,4,English,f,7,0.7,-1.40871488,0.70865896
5b0dfcef9663ee000145af34,20,0,2024-02-28T18:01:57.679Z,english_309.wav,0,pill,1165,24,5,4,English,f,8,0.8,76.93262372,0.16374417
5b0dfcef9663ee000145af34,20,0,2024-02-28T18:01:57.679Z,english_309.wav,0,pill,1165,24,5,4,English,f,9,0.9,-6.89150381,0.04755869
5b0dfcef9663ee000145af34,20,0,2024-02-28T18:01:57.679Z,english_309.wav,0,pill,1165,24,5,4,English,f,10,1.0,-55.94090841,0.82149119
5b0dfcef9663ee000145af34,20,0,2024-02-28T18:01:57.679Z,english_309.wav,0,pill,1165,24,5,4,English,f,11,1.09391667,80.41347419,0.6378001
5b0dfcef9663ee000145af34,21,0,2024-02-28T18:01:57.679Z,english_804.wav,0,pill,1119,24,5,4,English,f,0,0.0,12.60054447,1.79447267
5b0dfcef9663ee000145af34,21,0,2024-02-28T18:01:57.679Z,english_804.wav,0,pill,1119,24,5,4,English,f,1,0.1,-24.04730937,0.19342468
5b0dfcef9663ee000145af34,21,0,2024-02-28T18:01:57.679Z,english_804.wav,0,pill,1119,24,5,4,English,f,2,0.2,-96.55390316,1.90657737
5b0dfcef9663ee000145af34,21,0,2024-02-28T18:01:57.679Z,english_804.wav,0,pill,1119,24,5,4,English,f,3,0.3,-0.0991441,0.96962123
5b0dfcef9663ee000145af34,21,0,2024-02-28T18:01:57.679Z,english_804.wav,0,pill,1119,24,5,4,English,f,4,0.4,-4.22567636,1.3580225
5b0dfcef9663ee000145af34,21,0,2024-02-28T18:01:57.679Z,english_804.wav,0,pill,1119,24,5,4,English,f,5,0.5,70.60990728,1.75244202
5b0dfcef9663ee000145af34,21,0,2024-02-28T18:01:57.679Z,english_804.wav,0,pill,1119,24,5,4,English,f,6,0.6,-70.63369163,1.0415074
5b0dfcef9663ee000145af34,21,0,2024-02-28T18:01:57.679Z,english_804.wav,0,pill,1119,24,5,4,English,f,7,0.7,9.74055236,0.51929492
5b0dfcef9663ee000145af34,21,0,2024-02-28T18:01:57.679Z,english_804.wav,0,pill,1119,24,5,4,English,f,8,0.8,30.38077192,0.12110661
5b0dfcef9663ee000145af34,21,0,2024-02-28T18:01:57.679Z,english_804.wav,0,pill,1119,24,5,4,English,f,9,0.9,-59.11296325,0.62938559
5b0dfcef9663ee000145af34,21,0,2024-02-28T18:01:57.679Z,english_804.wav,0,pill,1119,24,5,4,English,f,10,1.0,43.99527933,1.09820629
5b0dfcef9663ee000145af34,21,0,2024-02-28T18:01:57.679Z,english_804.wav,0,pill,1119,24,5,4,English,f,11,1.09391667,50.55732952,0.96550638
5b0dfcef9663ee000145af34,22,0,2024-02-28T18:01:57.679Z,english_671.wav,0,peel,1357,24,5,4,English,f,0,0.0,-45.93815434,1.42496889
5b0dfcef9663ee000145af34,22,0,2024-02-28T18:01:57.679Z,english_671.wav,0,peel,1357,24,5,4,English,f,1,0.1,-9.85133236,0.72590703
5b0dfcef9663ee000145af34,22,0,2024-02-28T18:01:57.679Z,english_671.wav,0,peel,1357,24,5,4,English,f,2,0.2,-90.27584827,0.03582408
5b0dfcef9663ee000145af34,22,0,2024-02-28T18:01:57.679Z,english_671.wav,0,peel,1357,24,5,4,English,f,3,0.3,-12.62569024,1.95422408
5b0dfcef9663ee000145af34,22,0,2024-02-28T18:01:57.679Z,english_671.wav,0,peel,1357,24,5,4,English,f,4,0.4,-25.02264323,0.03147383
5b0dfcef9663ee000145af34,22,0,2024-02-28T18:01:57.679Z,english_671.wav,0,peel,1357,24,5,4,English,f,5,0.5,-73.63967284,1.78242159
5b0dfcef9663ee000145af34,22,0,2024-02-28T18:01:57.679Z,english_671.wav,0,peel,1357,24,5,4,English,f,6,0.6,-8.12482987,0.44075536
5b0dfcef9663ee000145af34,22,0,2024-02-28T18:01:57.679Z,english_671.wav,0,peel,1357,24,5,4,English,f,7,0.7,20.3897076,1.76056673
5b0dfcef9663ee000145af34,22,0,2024-02-28T18:01:57.679Z,english_671.wav,0,peel,1357,24,5,4,English,f,8,0.8,-16.71271092,0.82662657
5b0dfcef9663ee000145af34,22,0,2024-02-28T18:01:57.679Z,english_671.wav,0,peel,1357,24,5,4,English,f,9,0.9,60.34106396,0.3638046
5b0dfcef9663ee000145af34,22,0,2024-02-28T18:01:57.679Z,english_671.wav,0,peel,1357,24,5,4,English,f,10,1.0,-65.87673981,0.96822524
5b0dfcef9663ee000145af34,22,0,2024-02-28T18:01:57.679Z,english_671.wav,0,peel,1357,24,5,4,English,f,11,1.09391667,-90.1963817,0.11003173
5b0dfcef9663ee000145af34,23,0,2024-02-28T18:01:57.679Z,english_161.wav,0,pill,1319,24,5,4,English,f,0,0.0,0.2450503,0.47001228
5b0dfcef9663ee000145af34,23,0,2024-02-28T18:01:57.679Z,english_161.wav,0,pill,1319,24,5,4,English,f,1,0.1,41.86400045,1.24375119
5b0dfcef9663ee000145af34,23,0,2024-02-28T18:01:57.679Z,english_161.wav,0,pill,1319,24,5,4,English,f,2,0.2,3.22348346,0.98802588
5b0dfcef9663ee000145af34,23,0,2024-02-28T18:01:57.679Z,english_161.wav,0,pill,1319,24,5,4,English,f,3,0.3,-24.29894103,1.92952194
5b0dfcef9663ee000145af34,23,0,2024-02-28T18:01:57.679Z,english_161.wav,0,pill,1319,24,5,4,English,f,4,0.4,66.4308336,0.84385332
5b0dfcef9663ee000145af34,23,0,2024-02-28T18:01:57.679Z,english_161.wav,0,pill,1319,24,5,4,English,f,5,0.5,-79.52202924,0.34569188
5b0dfcef9663ee000145af34,23,0,2024-02-28T18:01:57.679Z,english_161.wav,0,pill,1319,24,5,4,English,f,6,0.6,-4.00284897,1.46988057
5b0dfcef9663ee000145af34,23,0,2024-02-28T18:01:57.679Z,english_161.wav,0,pill,1319,24,5,4,English,f,7,0.7,-82.69040612,0.94597317
5b0dfcef9663ee000145af34,23,0,2024-02-28T18:01:57.679Z,english_161.wav,0,pill,1319,24,5,4,English,f,8,0.8,32.14289288,0.70955806
5b0dfcef9663ee000145af34,23,0,2024-02-28T18:01:57.679Z,english_161.wav,0,pill,1319,24,5,4,English,f,9,0.9,-94.27188699,1.39207721
5b0dfcef9663ee000145af34,23,0,2024-02-28T18:01:57.679Z,english_161.wav,0,pill,1319,24,5,4,English,f,10,1.0,-14.10162234,0.79549611
5b0dfcef9663ee000145af34,23,0,2024-02-28T18:01:57.679Z,english_161.wav,0,pill,1319,24,5,4,English,f,11,1.09391667,27.39748728,1.7090018
5b0dfcef9663ee000145af34,24,0,2024-02-28T18:01:57.679Z,english_729.wav,0,pill,1056,24,5,4,English,f,0,0.0,-26.87736921,0.37881467
5b0dfcef9663ee000145af34,24,0,2024-02-28T18:01:57.679Z,english_729.wav,0,pill,1056,24,5,4,English,f,1,0.1,-38.78454806,0.37257789
5b0dfcef9663ee000145af34,24,0,2024-02-28T18:01:57.679Z,english_729.wav,0,pill,1056,24,5,4,English,f,2,0.2,-69.72148419,1.48940085
5b0dfcef9663ee000145af34,24,0,2024-02-28T18:01:57.679Z,english_729.wav,0,pill,1056,24,5,4,English,f,3,0.3,56.72097213,1.14518806
5b0dfcef9663ee000145af34,24,0,2024-02-28T18:01:57.679Z,english_729.wav,0,pill,1056,24,5,4,English,f,4,0.4,-88.39667283,1.2314091
5b0dfcef9663ee000145af34,24,0,2024-02-28T18:01:57.679Z,english_729.wav,0,pill,1056,24,5,4,English,f,5,0.5,45.22282249,0.53736575
5b0dfcef9663ee000145af34,24,0,2024-02-28T18:01:57.679Z,english_729.wav,0,pill,1056,24,5,4,English,f,6,0.6,-11.07444694,1.57677514
5b0dfcef9663ee000145af34,24,0,2024-02-28T18:01:57.679Z,english_729.wav,0,pill,1056,24,5,4,English,f,7,0.7,-30.98601297,1.78543206
5b0dfcef9663ee000145af34,24,0,2024-02-28T18:01:57.679Z,english_729.wav,0,pill,1056,24,5,4,English,f,8,0.8,49.05819927,0.9243348
5b0dfcef9663ee000145af34,24,0,2024-02-28T18:01:57.679Z,english_729.wav,0,pill,1056,24,5,4,English,f,9,0.9,95.08611162,1.43220062
5b0dfcef9663ee000145af34,24,0,2024-02-28T18:01:57.679Z,english_729.wav,0,pill,1056,24,5,4,English,f,10,1.0,-80.37669622,1.4106878
5b0dfcef9663ee000145af34,24,0,2024-02-28T18:01:57.679Z,english_729.wav,0,pill,1056,24,5,4,English,f,11,1.09391667,-0.64736784,0.37073527
5b0dfcef9663ee000145af34,25,0,2024-02-28T18:01:57.679Z,english_502.wav,0,peel,1319,24,5,4,English,f,0,0.0,57.69639955,1.15234611
5b0dfcef9663ee000145af34,25,0,2024-02-28T18:01:57.679Z,english_502.wav,0,peel,1319,24,5,4,English,f,1,0.1,28.96096349,1.67970143
5b0dfcef9663ee000145af34,25,0,2024-02-28T18:01:57.679Z,english_502.wav,0,peel,1319,24,5,4,English,f,2,0.2,-5.93680221,0.71376986
5b0dfcef9663ee000145af34,25,0,2024-02-28T18:01:57.679Z,english_502.wav,0,peel,1319,24,5,4,English,f,3,0.3,-9.12517159,0.49125702
5b0dfcef9663ee000145af34,25,0,2024-02-28T18:01:57.679Z,english_502.wav,0,peel,1319,24,5,4,English,f,4,0.4,44.04961264,0.39874308
5b0dfcef9663ee000145af34,25,0,2024-02-28T18:01:57.679Z,english_502.wav,0,peel,1319,24,5,4,English,f,5,0.5,84.4955788,0.1440426
5b0dfcef9663ee000145af34,25,0,2024-02-28T18:01:57.679Z,english_502.wav,0,peel,1319,24,5,4,English,f,6,0.6,97.09857183,1.53167879
5b0dfcef9663ee000145af34,25,0,2024-02-28T18:01:57.679Z,english_502.wav,0,peel,1319,24,5,4,English,f,7,0.7,99.13853902,1.52730171
5b0dfcef9663ee000145af34,25,0,2024-02-28T18:01:57.679Z,english_502.wav,0,peel,1319,24,5,4,English,f,8,0.8,91.26297662,0.65970293
5b0dfcef9663ee000145af34,25,0,2024-02-28T18:01:57.679Z,english_502.wav,0,peel,1319,24,5,4,English,f,9,0.9,17.95296758,0.91797137
5b0dfcef9663ee000145af34,25,0,2024-02-28T18:01:57.679Z,english_502.wav,0,peel,1319,24,5,4,English,f,10,1.0,-98.67508596,1.57983796
5b0dfcef9663ee000145af34,25,0,2024-02-28T18:01:57.679Z,english_502.wav,0,peel,1319,24,5,4,English,f,11,1.09391667,-78.95703283,0.77767597
5b0dfcef9663ee000145af34,26,0,2024-02-28T18:01:57.679Z,english_203.wav,0,pill,1301,24,5,4,English,f,0,0.0,-95.15502969,0.13261154
5b0dfcef9663ee000145af34,26,0,2024-02-28T18:01:57.679Z,english_203.wav,0,pill,1301,24,5,4,English,f,1,0.1,-9.00046759,0.68737046
5b0dfcef9663ee000145af34,26,0,2024-02-28T18:01:57.679Z,english_203.wav,0,pill,1301,24,5,4,English,f,2,0.2,-46.05673343,1.04752223
5b0dfcef9663ee000145af34,26,0,2024-02-28T18:01:57.679Z,english_203.wav,0,pill,1301,24,5,4,English,f,3,0.3,-80.20455434,1.42056073
5b0dfcef9663ee000145af34,26,0,2024-02-28T18:01:57.679Z,english_203.wav,0,pill,1301,24,5,4,English,f,4,0.4,69.34929809,1.98486552
5b0dfcef9663ee000145af34,26,0,2024-02-28T18:01:57.679Z,english_203.wav,0,pill,1301,24,5,4,English,f,5,0.5,52.23432308,0.94146217
5b0dfcef9663ee000145af34,26,0,2024-02-28T18:01:57.679Z,english_203.wav,0,pill,1301,24,5,4,English,f,6,0.6,-15.81323993,0.9157491
5b0dfcef9663ee000145af34,26,0,2024-02-28T18:01:57.679Z,english_203.wav,0,pill,1301,24,5,4,English,f,7,0.7,37.6557434,1.05147425
5b0dfcef9663ee000145af34,26,0,2024-02-28T18:01:57.679Z,english_203.wav,0,pill,1301,24,5,4,English,f,8,0.8,17.28698378,0.64444213
5b0dfcef9663ee000145af34,26,0,2024-02-28T18:01:57.679Z,english_203.wav,0,pill,1301,24,5,4,English,f,9,0.9,49.30427287,0.93595102
5b0dfcef9663ee000145af34,26,0,2024-02-28T18:01:57.679Z,english_203.wav,0,pill,1301,24,5,4,English,f,10,1.0,75.36526211,0.02848654
5b0dfcef9663ee000145af34,26,0,2024-02-28T18:01:57.679Z,english_203.wav,0,pill,1301,24,5,4,English,f,11,1.09391667,-92.86270005,1.21065321
5b0dfcef9663ee000145af34,27,0,2024-02-28T18:01:57.679Z,english_55.wav,0,pill,1117,24,5,4,English,f,0,0.0,55.67307479,0.52782995
5b0dfcef9663ee000145af34,27,0,2024-02-28T18:01:57.679Z,english_55.wav,0,pill,1117,24,5,4,English,f,1,0.1,-68.77763233,1.04888997
5b0dfcef9663ee000145af34,27,0,2024-02-28T18:01:57.679Z,english_55.wav,0,pill,1117,24,5,4,English,f,2,0.2,-65.56479824,1.48348863
5b0dfcef9663ee000145af34,27,0,2024-02-28T18:01:57.679Z,english_55.wav,0,pill,1117,24,5,4,English,f,3,0.3,-28.17507295,0.48831434
5b0dfcef9663ee000145af34,27,0,2024-02-28T18:01:57.679Z,english_55.wav,0,pill,1117,24,5,4,English,f,4,0.4,12.71546493,0.57381204
5b0dfcef9663ee000145af34,27,0,2024-02-28T18:01:57.679Z,english_55.wav,0,pill,1117,24,5,4,English,f,5,0.5,79.84163838,0.45321787
5b0dfcef9663ee000145af34,27,0,2024-02-28T18:01:57.679Z,english_55.wav,0,pill,1117,24,5,4,English,f,6,0.6,-44.12045936,1.63628375
5b0dfcef9663ee000145af34,27,0,2024-02-28T18:01:57.679Z,english_55.wav,0,pill,1117,24,5,4,English,f,7,0.7,-80.03895773,1.60012046
5b0dfcef9663ee000145af34,27,0,2024-02-28T18:01:57.679Z,english_55.wav,0,pill,1117,24,5,4,English,f,8,0.8,89.560279,1.77258714
5b0dfcef9663ee000145af34,27,0,2024-02-28T18:01:57.679Z,english_55.wav,0,pill,1117,24,5,4,English,f,9,0.9,-86.43761931,0.52302607
5b0dfcef9663ee000145af34,27,0,2024-02-28T18:01:57.679Z,english_55.wav,0,pill,1117,24,5,4,English,f,10,1.0,26.43928763,1.59376443
5b0dfcef9663ee000145af34,27,0,2024-02-28T18:01:57.679Z,english_55.wav,0,pill,1117,24,5,4,English,f,11,1.09391667,35.34186428,1.33420322
5b0dfcef9663ee000145af34,28,0,2024-02-28T18:01:57.679Z,english_637.wav,0,peel,1696,24,5,4,English,f,0,0.0,-89.57602713,1.01899078
5b0dfcef9663ee000145af34,28,0,2024-02-28T18:01:57.679Z,english_637.wav,0,peel,1696,24,5,4,English,f,1,0.1,-12.21163012,0.44650383
5b0dfcef9663ee000145af34,28,0,2024-02-28T18:01:57.679Z,english_637.wav,0,peel,1696,24,5,4,English,f,2,0.2,45.69375155,0.86051042
5b0dfcef9663ee000145af34,28,0,2024-02-28T18:01:57.679Z,english_637.wav,0,peel,1696,24,5,4,English,f,3,0.3,47.44411802,0.62803932
5b0dfcef9663ee000145af34,28,0,2024-02-28T18:01:57.679Z,english_637.wav,0,peel,1696,24,5,4,English,f,4,0.4,-64.39909361,0.05404575
5b0dfcef9663ee000145af34,28,0,2024-02-28T18:01:57.679Z,english_637.wav,0,peel,1696,24,5,4,English,f,5,0.5,38.07531124,0.80477493
5b0dfcef9663ee000145af34,28,0,2024-02-28T18:01:57.679Z,english_637.wav,0,peel,1696,24,5,4,English,f,6,0.6,-37.11559242,0.4743624
5b0dfcef9663ee000145af34,28,0,2024-02-28T18:01:57.679Z,english_637.wav,0,peel,1696,24,5,4,English,f,7,0.7,61.76350432,1.24039456
5b0dfcef9663ee000145af34,28,0,2024-02-28T18:01:57.679Z,english_637.wav,0,peel,1696,24,5,4,English,f,8,0.8,87.30183414,0.77622698
5b0dfcef9663ee000145af34,28,0,2024-02-28T18:01:57.679Z,english_637.wav,0,peel,1696,24,5,4,English,f,9,0.9,42.92339498,1.15579273
5b0dfcef9663ee000145af34,28,0,2024-02-28T18:01:57.679Z,english_637.wav,0,peel,1696,24,5,4,English,f,10,1.0,99.17764885,1.67569325
5b0dfcef9663ee000145af34,28,0,2024-02-28T18:01:57.679Z,english_637.wav,0,peel,1696,24,5,4,English,f,11,1.09391667,27.2352495,0.37956578
5b0dfcef9663ee000145af34,29,0,2024-02-28T18:01:57.679Z,english_294.wav,0,peel,1153,24,5,4,English,f,0,0.0,-35.26170476,0.76895084
5b0dfcef9663ee000145af34,29,0,2024-02-28T18:01:57.679Z,english_294.wav,0,peel,1153,24,5,4,English,f,1,0.1,-68.79847515,0.42345848
5b0dfcef9663ee000145af34,29,0,2024-02-28T18:01:57.679Z,english_294.wav,0,peel,1153,24,5,4,English,f,2,0.2,21.65443345,1.88759315
5b0dfcef9663ee000145af34,29,0,2024-02-28T18:01:57.679Z,english_294.wav,0,peel,1153,24,5,4,English,f,3,0.3,18.61336719,0.20743541
5b0dfcef9663ee000145af34,29,0,2024-02-28T18:01:57.679Z,english_294.wav,0,peel,1153,24,5,4,English,f,4,0.4,29.14118392,0.10193981
5b0dfcef9663ee000145af34,29,0,2024-02-28T18:01:57.679Z,english_294.wav,0,peel,1153,24,5,4,English,f,5,0.5,-0.79474297,0.31438326
5b0dfcef9663ee000145af34,29,0,2024-02-28T18:01:57.679Z,english_294.wav,0,peel,1153,24,5,4,English,f,6,0.6,-83.10715175,1.2995954
5b0dfcef9663ee000145af34,29,0,2024-02-28T18:01:57.679Z,english_294.wav,0,peel,1153,24,5,4,English,f,7,0.7,-22.63410673,1.94703728
5b0dfcef9663ee000145af34,29,0,2024-02-28T18:01:57.679Z,english_294.wav,0,peel,1153,24,5,4,English,f,8,0.8,-21.26415856,0.92366458
5b0dfcef9663ee000145af34,29,0,2024-02-28T18:01:57.679Z,english_294.wav,0,peel,1153,24,5,4,English,f,9,0.9,47.90727918,1.04223302
5b0dfcef9663ee000145af34,29,0,2024-02-28T18:01:57.679Z,english_294.wav,0,peel,1153,24,5,4,English,f,10,1.0,-39.88232682,1.01801331
5b0dfcef9663ee000145af34,29,0,2024-02-28T18:01:57.679Z,english_294.wav,0,peel,1153,24,5,4,English,f,11,1.09391667,-74.09279353,0.911147
5b0dfcef9663ee000145af34,30,0,2024-02-28T18:01:57.679Z,english_940.wav,0,pill,881,24,5,4,English,f,0,0.0,-74.78707904,1.32849745
5b0dfcef9663ee000145af34,30,0,2024-02-28T18:01:57.679Z,english_940.wav,0,pill,881,24,5,4,English,f,1,0.1,-17.41948052,0.12464251
5b0dfcef9663ee000145af34,30,0,2024-02-28T18:01:57.679Z,english_940.wav,0,pill,881,24,5,4,English,f,2,0.2,18.32757183,1.60919877
5b0dfcef9663ee000145af34,30,0,2024-02-28T18:01:57.679Z,english_940.wav,0,pill,881,24,5,4,English,f,3,0.3,49.59676146,1.26515186
5b0dfcef9663ee000145af34,30,0,2024-02-28T18:01:57.679Z,english_940.wav,0,pill,881,24,5,4,English,f,4,0.4,89.11302511,0.36425632
5b0dfcef9663ee000145af34,30,0,2024-02-28T18:01:57.679Z,english_940.wav,0,pill,881,24,5,4,English,f,5,0.5,-54.90271493,0.18773625
5b0dfcef9663ee000145af34,30,0,2024-02-28T18:01:57.679Z,english_940.wav,0,pill,881,24,5,4,English,f,6,0.6,5.52128104,1.95544511
5b0dfcef9663ee000145af34,30,0,2024-02-28T18:01:57.679Z,english_940.wav,0,pill,881,24,5,4,English,f,7,0.7,6.34300122,0.05018426
5b0dfcef9663ee000145af34,30,0,2024-02-28T18:01:57.679Z,english_940.wav,0,pill,881,24,5,4,English,f,8,0.8,-52.23900499,0.91238744
5b0dfcef9663ee000145af34,30,0,2024-02-28T18:01:57.679Z,english_940.wav,0,pill,881,24,5,4,English,f,9,0.9,-91.70083374,1.89571163
5b0dfcef9663ee000145af34,30,0,2024-02-28T18:01:57.679Z,english_940.wav,0,pill,881,24,5,4,English,f,10,1.0,-59.86037194,1.52579837
5b0dfcef9663ee000145af34,30,0,2024-02-28T18:01:57.679Z,english_940.wav,0,pill,881,24,5,4,English,f,11,1.09391667,44.21269836,0.42550386
5b0dfcef9663ee000145af34,31,0,2024-02-28T18:01:57.679Z,english_357.wav,0,peel,1257,24,5,4,English,f,0,0.0,-87.96365185,1.52852124
5b0dfcef9663ee000145af34,31,0,2024-02-28T18:01:57.679Z,english_357.wav,0,peel,1257,24,5,4,English,f,1,0.1,-8.5190019,1.93288072
5b0dfcef9663ee000145af34,31,0,2024-02-28T18:01:57.679Z,english_357.wav,0,peel,1257,24,5,4,English,f,2,0.2,34.94660595,1.80201728
5b0dfcef9663ee000145af34,31,0,2024-02-28T18:01:57.679Z,english_357.wav,0,peel,1257,24,5,4,English,f,3,0.3,74.01534503,0.94192251
5b0dfcef9663ee000145af34,31,0,2024-02-28T18:01:57.679Z,english_357.wav,0,peel,1257,24,5,4,English,f,4,0.4,13.59562063,1.02469598
5b0dfcef9663ee000145af34,31,0,2024-02-28T18:01:57.679Z,english_357.wav,0,peel,1257,24,5,4,English,f,5,0.5,-84.64423503,1.61646509
5b0dfcef9663ee000145af34,31,0,2024-02-28T18:01:57.679Z,english_357.wav,0,peel,1257,24,5,4,English,f,6,0.6,-29.1291793,0.27950667
5b0dfcef9663ee000145af34,31,0,2024-02-28T18:01:57.679Z,english_357.wav,0,peel,1257,24,5,4,English,f,7,0.7,-52.42503967,1.30320323
5b0dfcef9663ee000145af34,31,0,2024-02-28T18:01:57.679Z,english_357.wav,0,peel,1257,24,5,4,English,f,8,0.8,21.24796122,1.07824702
5b0dfcef9663ee000145af34,31,0,2024-02-28T18:01:57.679Z,english_357.wav,0,peel,1257,24,5,4,English,f,9,0.9,32.72205185,0.68433039
5b0dfcef9663ee000145af34,31,0,2024-02-28T18:01:57.679Z,english_357.wav,0,peel,1257,24,5,4,English,f,10,1.0,-96.5222269,1.27621022
5b0dfcef9663ee000145af34,31,0,2024-02-28T18:01:57.679Z,english_357.wav,0,peel,1257,24,5,4,English,f,11,1.09391667,30.40810686,1.23591368
5b0dfcef9663ee000145af34,32,0,2024-02-28T18:01:57.679Z,english_609.wav,0,peel,1631,24,5,4,English,f,0,0.0,45.1693917,1.16218677
5b0dfcef9663ee000145af34,32,0,2024-02-28T18:01:57.679Z,english_609.wav,0,peel,1631,24,5,4,English,f,1,0.1,-72.3247495,1.56939275
5b0dfcef9663ee000145af34,32,0,2024-02-28T18:01:57.679Z,english_609.wav,0,peel,1631,24,5,4,English,f,2,0.2,18.68361548,1.47980491
5b0dfcef9663ee000145af34,32,0,2024-02-28T18:01:57.679Z,english_609.wav,0,peel,1631,24,5,4,English,f,3,0.3,-27.6682302,1.03639669
5b0dfcef9663ee000145af34,32,0,2024-02-28T18:01:57.679Z,english_609.wav,0,peel,1631,24,5,4,English,f,4,0.4,3.63671522,0.81396394
5b0dfcef9663ee000145af34,32,0,2024-02-28T18:01:57.679Z,english_609.wav,0,peel,1631,24,5,4,English,f,5,0.5,21.21340101,1.33770591
5b0dfcef9663ee000145af34,32,0,2024-02-28T18:01:57.679Z,english_609.wav,0,peel,1631,24,5,4,English,f,6,0.6,15.49381211,1.85408959
5b0dfcef9663ee000145af34,32,0,2024-02-28T18:01:57.679Z,english_609.wav,0,peel,1631,24,5,4,English,f,7,0.7,1.52669615,0.1270649
5b0dfcef9663ee000145af34,32,0,2024-02-28T18:01:57.679Z,english_609.wav,0,peel,1631,24,5,4,English,f,8,0.8,25.44993701,0.72088093
5b0dfcef9663ee000145af34,32,0,2024-02-28T18:01:57.679Z,english_609.wav,0,peel,1631,24,5,4,English,f,9,0.9,-58.9173922,1.10933741
5b0dfcef9663ee000145af34,32,0,2024-02-28T18:01:57.679Z,english_609.wav,0,peel,1631,24,5,4,English,f,10,1.0,4.8985277,0.9989657
5b0dfcef9663ee000145af34,32,0,2024-02-28T18:01:57.679Z,english_609.wav,0,peel,1631,24,5,4,English,f,11,1.09391667,-19.12587244,1.15972192
5b0dfcef9663ee000145af34,33,0,2024-02-28T18:01:57.679Z,english_150.wav,0,pill,832,24,5,4,English,f,0,0.0,-50.54232549,1.16258998
5b0dfcef9663ee000145af34,33,0,2024-02-28T18:01:57.679Z,english_150.wav,0,pill,832,24,5,4,English,f,1,0.1,34.32153656,0.79689364
5b0dfcef9663ee000145af34,33,0,2024-02-28T18:01:57.679Z,english_150.wav,0,pill,832,24,5,4,English,f,2,0.2,-10.92395048,0.16790755
5b0dfcef9663ee000145af34,33,0,2024-02-28T18:01:57.679Z,english_150.wav,0,pill,832,24,5,4,English,f,3,0.3,53.72738624,0.35039588
5b0dfcef9663ee000145af34,33,0,2024-02-28T18:01:57.679Z,english_150.wav,0,pill,832,24,5,4,English,f,4,0.4,62.41801081,0.24836215
5b0dfcef9663ee000145af34,33,0,2024-02-28T18:01:57.679Z,english_150.wav,0,pill,832,24,5,4,English,f,5,0.5,-32.60317387,0.38408886
5b0dfcef9663ee000145af34,33,0,2024-02-28T18:01:57.679Z,english_150.wav,0,pill,832,24,5,4,English,f,6,0.6,-14.80411838,0.47894499
5b0dfcef9663ee000145af34,33,0,2024-02-28T18:01:57.679Z,english_150.wav,0,pill,832,24,5,4,English,f,7,0.7,55.20966729,1.81942338
5b0dfcef9663ee000145af34,33,0,2024-02-28T18:01:57.679Z,english_150.wav,0,pill,832,24,5,4,English,f,8,0.8,-74.0684305,1.36079379
5b0dfcef9663ee000145af34,33,0,2024-02-28T18:01:57.679Z,english_150.wav,0,pill,832,24,5,4,English,f,9,0.9,-4.87965611,1.63972786
5b0dfcef9663ee000145af34,33,0,2024-02-28T18:01:57.679Z,english_150.wav,0,pill,832,24,5,4,English,f,10,1.0,-79.50813125,1.65428446
5b0dfcef9663ee000145af34,33,0,2024-02-28T18:01:57.679Z,english_150.wav,0,pill,832,24,5,4,English,f,11,1.09391667,24.9492826,1.31063675
5b0dfcef9663ee000145af34,34,0,2024-02-28T18:01:57.679Z,english_694.wav,0,pill,1487,24,5,4,English,f,0,0.0,28.89643962,0.23097519
5b0dfcef9663ee000145af34,34,0,2024-02-28T18:01:57.679Z,english_694.wav,0,pill,1487,24,5,4,English,f,1,0.1,-44.49941165,1.12594213
5b0dfcef9663ee000145af34,34,0,2024-02-28T18:01:57.679Z,english_694.wav,0,pill,1487,24,5,4,English,f,2,0.2,60.6754056,1.01502789
5b0dfcef9663ee000145af34,34,0,2024-02-28T18:01:57.679Z,english_694.wav,0,pill,1487,24,5,4,English,f,3,0.3,72.66869222,0.55545347
5b0dfcef9663ee000145af34,34,0,2024-02-28T18:01:57.679Z,english_694.wav,0,pill,1487,24,5,4,English,f,4,0.4,26.91102981,0.313515
5b0dfcef9663ee000145af34,34,0,2024-02-28T18:01:57.679Z,english_694.wav,0,pill,1487,24,5,4,English,f,5,0.5,-19.36398165,0.8133174
5b0dfcef9663ee000145af34,34,0,2024-02-28T18:01:57.679Z,english_694.wav,0,pill,1487,24,5,4,English,f,6,0.6,83.61982614,0.08479119
5b0dfcef9663ee000145af34,34,0,2024-02-28T18:01:57.679Z,english_694.wav,0,pill,1487,24,5,4,English,f,7,0.7,-93.83830037,1.36590055
5b0dfcef9663ee000145af34,34,0,2024-02-28T18:01:57.679Z,english_694.wav,0,pill,1487,24,5,4,English,f,8,0.8,-41.75440855,1.50882856
5b0dfcef9663ee000145af34,34,0,2024-02-28T18:01:57.679Z,english_694.wav,0,pill,1487,24,5,4,English,f,9,0.9,-17.17525064,1.54263899
5b0dfcef9663ee000145af34,34,0,2024-02-28T18:01:57.679Z,english_694.wav,0,pill,1487,24,5,4,English,f,10,1.0,5.88397372,1.28663395
5b0dfcef9663ee000145af34,34,0,2024-02-28T18:01:57.679Z,english_694.wav,0,pill,1487,24,5,4,English,f,11,1.09391667,84.29938157,0.05122723
5b0dfcef9663ee000145af34,35,0,2024-02-28T18:01:57.679Z,english_628.wav,0,peel,1219,24,5,4,English,f,0,0.0,34.12444542,1.40815308
5b0dfcef9663ee000145af34,35,0,2024-02-28T18:01:57.679Z,english_628.wav,0,peel,1219,24,5,4,English,f,1,0.1,74.48031141,0.59085662
5b0dfcef9663ee000145af34,35,0,2024-02-28T18:01:57.679Z,english_628.wav,0,peel,1219,24,5,4,English,f,2,0.2,-19.43129602,1.62308244
5b0dfcef9663ee000145af34,35,0,2024-02-28T18:01:57.679Z,english_628.wav,0,peel,1219,24,5,4,English,f,3,0.3,-92.54731656,0.88278885
5b0dfcef9663ee000145af34,35,0,2024-02-28T18:01:57.679Z,english_628.wav,0,peel,1219,24,5,4,English,f,4,0.4,-58.49891228,1.88399598
5b0dfcef9663ee000145af34,35,0,2024-02-28T18:01:57.679Z,english_628.wav,0,peel,1219,24,5,4,English,f,5,0.5,94.39851276,0.89763536
5b0dfcef9663ee000145af34,35,0,2024-02-28T18:01:57.679Z,english_628.wav,0,peel,1219,24,5,4,English,f,6,0.6,89.36062337,0.99460468
5b0dfcef9663ee000145af34,35,0,2024-02-28T18:01:57.679Z,english_628.wav,0,peel,1219,24,5,4,English,f,7,0.7,-34.72831932,0.78525958
5b0dfcef9663ee000145af34,35,0,2024-02-28T18:01:57.679Z,english_628.wav,0,peel,1219,24,5,4,English,f,8,0.8,-41.3084128,1.26727053
5b0dfcef9663ee000145af34,35,0,2024-02-28T18:01:57.679Z,english_628.wav,0,peel,1219,24,5,4,English,f,9,0.9,-12.31772149,0.55653785
5b0dfcef9663ee000145af34,35,0,2024-02-28T18:01:57.679Z,english_628.wav,0,peel,1219,24,5,4,English,f,10,1.0,-54.36940291,1.19130102
5b0dfcef9663ee000145af34,35,0,2024-02-28T18:01:57.679Z,english_628.wav,0,peel,1219,24,5,4,English,f,11,1.09391667,25.60798008,1.74925418
5b0dfcef9663ee000145af34,36,0,2024-02-28T18:01:57.679Z,english_916.wav,0,peel,1134,24,5,4,English,f,0,0.0,-75.50139917,0.33116573
5b0dfcef9663ee000145af34,36,0,2024-02-28T18:01:57.679Z,english_916.wav,0,peel,1134,24,5,4,English,f,1,0.1,87.74693423,0.79085074
5b0dfcef9663ee000145af34,36,0,2024-02-28T18:01:57.679Z,english_916.wav,0,peel,1134,24,5,4,English,f,2,0.2,31.07453941,1.46577933
5b0dfcef9663ee000145af34,36,0,2024-02-28T18:01:57.679Z,english_916.wav,0,peel,1134,24,5,4,English,f,3,0.3,-54.74808786,0.46369868
5b0dfcef9663ee000145af34,36,0,2024-02-28T18:01:57.679Z,english_916.wav,0,peel,1134,24,5,4,English,f,4,0.4,22.76610273,1.13985244
5b0dfcef9663ee000145af34,36,0,2024-02-28T18:01:57.679Z,english_916.wav,0,peel,1134,24,5,4,English,f,5,0.5,11.00268218,0.7460079
5b0dfcef9663ee000145af34,36,0,2024-02-28T18:01:57.679Z,english_916.wav,0,peel,1134,24,5,4,English,f,6,0.6,51.91753819,0.81938326
5b0dfcef9663ee000145af34,36,0,2024-02-28T18:01:57.679Z,english_916.wav,0,peel,1134,24,5,4,English,f,7,0.7,14.6363884,1.36585166
5b0dfcef9663ee000145af34,36,0,2024-02-28T18:01:57.679Z,english_916.wav,0,peel,1134,24,5,4,English,f,8,0.8,81.83938772,0.74190137
5b0dfcef9663ee000145af34,36,0,2024-02-28T18:01:57.679Z,english_916.wav,0,peel,1134,24,5,4,English,f,9,0.9,-6.69300519,1.01772596
5b0dfcef9663ee000145af34,36,0,2024-02-28T18:01:57.679Z,english_916.wav,0,peel,1134,24,5,4,English,f,10,1.0,48.70423214,1.52043816
5b0dfcef9663ee000145af34,36,0,2024-02-28T18:01:57.679Z,english_916.wav,0,peel,1134,24,5,4,English,f,11,1.09391667,-75.62542255,1.80998289
5b0dfcef9663ee000145af34,37,0,2024-02-28T18:01:57.679Z,english_312.wav,0,pill,1486,24,5,4,English,f,0,0.0,-44.20026349,0.70172327
5b0dfcef9663ee000145af34,37,0,2024-02-28T18:01:57.679Z,english_312.wav,0,pill,1486,24,5,4,English,f,1,0.1,37.14552062,1.15664492
5b0dfcef9663ee000145af34,37,0,2024-02-28T18:01:57.679Z,english_312.wav,0,pill,1486,24,5,4,English,f,2,0.2,18.3582365,0.90621855
5b0dfcef9663ee000145af34,37,0,2024-02-28T18:01:57.679Z,english_312.wav,0,pill,1486,24,5,4,English,f,3,0.3,77.7774411,1.08976836
5b0dfcef9663ee000145af34,37,0,2024-02-28T18:01:57.679Z,english_312.wav,0,pill,1486,24,5,4,English,f,4,0.4,-78.31932482,1.02467386
5b0dfcef9663ee000145af34,37,0,2024-02-28T18:01:57.679Z,english_312.wav,0,pill,1486,24,5,4,English,f,5,0.5,-58.95150344,0.3820111
5b0dfcef9663ee000145af34,37,0,2024-02-28T18:01:57.679Z,english_312.wav,0,pill,1486,24,5,4,English,f,6,0.6,89.34504931,1.09647863
5b0dfcef9663ee000145af34,37,0,2024-02-28T18:01:57.679Z,english_312.wav,0,pill,1486,24,5,4,English,f,7,0.7,88.15541314,1.49721146
5b0dfcef9663ee000145af34,37,0,2024-02-28T18:01:57.679Z,english_312.wav,0,pill,1486,24,5,4,English,f,8,0.8,-8.94977512,1.78917626
5b0dfcef9663ee000145af34,37,0,2024-02-28T18:01:57.679Z,english_312.wav,0,pill,1486,24,5,4,English,f,9,0.9,-51.17539316,0.56099976
5b0dfcef9663ee000145af34,37,0,2024-02-28T18:01:57.679Z,english_312.wav,0,pill,1486,24,5,4,English,f,10,1.0,-56.97812864,1.16855683
5b0dfcef9663ee000145af34,37,0,2024-02-28T18:01:57.679Z,english_312.wav,0,pill,1486,24,5,4,English,f,11,1.09391667,78.26932654,0.99548906
5b0dfcef9663ee000145af34,38,0,2024-02-28T18:01:57.679Z,english_328.wav,0,peel,1506,24,5,4,English,f,0,0.0,-34.15226182,1.97940755
5b0dfcef9663ee000145af34,38,0,2024-02-28T18:01:57.679Z,english_328.wav,0,peel,1506,24,5,4,English,f,1,0.1,46.58879641,1.19087686
5b0dfcef9663ee000145af34,38,0,2024-02-28T18:01:57.679Z,english_328.wav,0,peel,1506,24,5,4,English,f,2,0.2,7.44753162,0.43566007
5b0dfcef9663ee000145af34,38,0,2024-02-28T18:01:57.679Z,english_328.wav,0,peel,1506,24,5,4,English,f,3,0.3,-92.44554452,0.76183496
5b0dfcef9663ee000145af34,38,0,2024-02-28T18:01:57.679Z,english_328.wav,0,peel,1506,24,5,4,English,f,4,0.4,3.63383719,0.8818405
5b0dfcef9663ee000145af34,38,0,2024-02-28T18:01:57.679Z,english_328.wav,0,peel,1506,24,5,4,English,f,5,0.5,-2.02722829,1.27876528
5b0dfcef9663ee000145af34,38,0,2024-02-28T18:01:57.679Z,english_328.wav,0,peel,1506,24,5,4,English,f,6,0.6,-82.23630384,1.49520956
5b0dfcef9663ee000145af34,38,0,2024-02-28T18:01:57.679Z,english_328.wav,0,peel,1506,24,5,4,English,f,7,0.7,-69.01372747,1.75978666
5b0dfcef9663ee000145af34,38,0,2024-02-28T18:01:57.679Z,english_328.wav,0,peel,1506,24,5,4,English,f,8,0.8,-25.63899755,1.56278657
5b0dfcef9663ee000145af34,38,0,2024-02-28T18:01:57.679Z,english_328.wav,0,peel,1506,24,5,4,English,f,9,0.9,-0.50353538,0.58848955
5b0dfcef9663ee000145af34,38,0,2024-02-28T18:01:57.679Z,english_328.wav,0,peel,1506,24,5,4,English,f,10,1.0,-86.64513647,1.05304823
5b0dfcef9663ee000145af34,38,0,2024-02-28T18:01:57.679Z,english_328.wav,0,peel,1506,24,5,4,English,f,11,1.09391667,-24.00524896,1.60265091
5b0dfcef9663ee000145af34,39,0,2024-02-28T18:01:57.679Z,english_627.wav,0,peel,1037,24,5,4,English,f,0,0.0,61.61292799,1.38806705
5b0dfcef9663ee000145af34,39,0,2024-02-28T18:01:57.679Z,english_627.wav,0,peel,1037,24,5,4,English,f,1,0.1,56.33641902,0.72797241
5b0dfcef9663ee000145af34,39,0,2024-02-28T18:01:57.679Z,english_627.wav,0,peel,1037,24,5,4,English,f,2,0.2,-89.79026277,1.31326188
5b0dfcef9663ee000145af34,39,0,2024-02-28T18:01:57.679Z,english_627.wav,0,peel,1037,24,5,4,English,f,3,0.3,-79.74264658,1.97676424
5b0dfcef9663ee000145af34,39,0,2024-02-28T18:01:57.679Z,english_627.wav,0,peel,1037,24,5,4,English,f,4,0.4,23.07538857,1.13729178
5b0dfcef9663ee000145af34,39,0,2024-02-28T18:01:57.679Z,english_627.wav,0,peel,1037,24,5,4,English,f,5,0.5,-10.76343706,0.13245486
5b0dfcef9663ee000145af34,39,0,2024-02-28T18:01:57.679Z,english_627.wav,0,peel,1037,24,5,4,English,f,6,0.6,-5.69473489,0.69323738
5b0dfcef9663ee000145af34,39,0,2024-02-28T18:01:57.679Z,english_627.wav,0,peel,1037,24,5,4,English,f,7,0.7,-7.26950502,1.4848786
5b0dfcef9663ee000145af34,39,0,2024-02-28T18:01:57.679Z,english_627.wav,0,peel,1037,24,5,4,English,f,8,0.8,15.57475433,1.9356485
5b0dfcef9663ee000145af34,39,0,2024-02-28T18:01:57.679Z,english_627.wav,0,peel,1037,24,5,4,English,f,9,0.9,3.14852465,1.60625319
5b0dfcef9663ee000145af34,39,0,2024-02-28T18:01:57.679Z,english_627.wav,0,peel,1037,24,5,4,English,f,10,1.0,33.23262787,0.88492326
5b0dfcef9663ee000145af34,39,0,2024-02-28T18:01:57.679Z,english_627.wav,0,peel,1037,24,5,4,English,f,11,1.09391667,-88.39615435,1.31394344
5b0dfcef9663ee000145af34,40,0,2024-02-28T18:01:57.679Z,english_577.wav,0,peel,1310,24,5,4,English,f,0,0.0,-76.85094523,0.20458554
5b0dfcef9663ee000145af34,40,0,2024-02-28T18:01:57.679Z,english_577.wav,0,peel,1310,24,5,4,English,f,1,0.1,94.91365435,0.06228827
5b0dfcef9663ee000145af34,40,0,2024-02-28T18:01:57.679Z,english_577.wav,0,peel,1310,24,5,4,English,f,2,0.2,32.9651173,1.08516977
5b0dfcef9663ee000145af34,40,0,2024-02-28T18:01:57.679Z,english_577.wav,0,peel,1310,24,5,4,English,f,3,0.3,97.44139815,1.03608724
5b0dfcef9663ee000145af34,40,0,2024-02-28T18:01:57.679Z,english_577.wav,0,peel,1310,24,5,4,English,f,4,0.4,-92.85161712,1.39749402
5b0dfcef9663ee000145af34,40,0,2024-02-28T18:01:57.679Z,english_577.wav,0,peel,1310,24,5,4,English,f,5,0.5,-28.41231643,0.64758682
5b0dfcef9663ee000145af34,40,0,2024-02-28T18:01:57.679Z,english_577.wav,0,peel,1310,24,5,4,English,f,6,0.6,19.38479245,0.95032341
5b0dfcef9663ee000145af34,40,0,2024-02-28T18:01:57.679Z,english_577.wav,0,peel,1310,24,5,4,English,f,7,0.7,49.58285772,1.2742538
5b0dfcef9663ee000145af34,40,0,2024-02-28T18:01:57.679Z,english_577.wav,0,peel,1310,24,5,4,English,f,8,0.8,92.79445105,1.48392176
5b0dfcef9663ee000145af34,40,0,2024-02-28T18:01:57.679Z,english_577.wav,0,peel,1310,24,5,4,English,f,9,0.9,-51.23747257,0.56445321
5b0dfcef9663ee000145af34,40,0,2024-02-28T18:01:57.679Z,english_577.wav,0,peel,1310,24,5,4,English,f,10,1.0,-16.84554087,1.53283339
5b0dfcef9663ee000145af34,40,0,2024-02-28T18:01:57.679Z,english_577.wav,0,peel,1310,24,5,4,English,f,11,1.09391667,-72.32540524,1.57768455
5b0dfcef9663ee000145af34,41,0,2024-02-28T18:01:57.679Z,english_87.wav,0,pill,968,24,5,4,English,f,0,0.0,-7.69614497,1.36395538
5b0dfcef9663ee000145af34,41,0,2024-02-28T18:01:57.679Z,english_87.wav,0,pill,968,24,5,4,English,f,1,0.1,-50.79583923,0.55370317
5b0dfcef9663ee000145af34,41,0,2024-02-28T18:01:57.679Z,english_87.wav,0,pill,968,24,5,4,English,f,2,0.2,-21.62085435,0.68433779
5b0dfcef9663ee000145af34,41,0,2024-02-28T18:01:57.679Z,english_87.wav,0,pill,968,24,5,4,English,f,3,0.3,23.33346841,1.42277988
5b0dfcef9663ee000145af34,41,0,2024-02-28T18:01:57.679Z,english_87.wav,0,pill,968,24,5,4,English,f,4,0.4,84.82731916,1.16991809
5b0dfcef9663ee000145af34,41,0,2024-02-28T18:01:57.679Z,english_87.wav,0,pill,968,24,5,4,English,f,5,0.5,74.54936251,0.13065421
5b0dfcef9663ee000145af34,41,0,2024-02-28T18:01:57.679Z,english_87.wav,0,pill,968,24,5,4,English,f,6,0.6,-86.24882643,1.74622352
5b0dfcef9663ee000145af34,41,0,2024-02-28T18:01:57.679Z,english_87.wav,0,pill,968,24,5,4,English,f,7,0.7,18.19590059,0.87122315
5b0dfcef9663ee000145af34,41,0,2024-02-28T18:01:57.679Z,english_87.wav,0,pill,968,24,5,4,English,f,8,0.8,86.70789686,1.52981879
5b0dfcef9663ee000145af34,41,0,2024-02-28T18:01:57.679Z,english_87.wav,0,pill,968,24,5,4,English,f,9,0.9,67.00424782,1.42292715
5b0dfcef9663ee000145af34,41,0,2024-02-28T18:01:57.679Z,english_87.wav,0,pill,968,24,5,4,English,f,10,1.0,91.10231962,0.07145037
5b0dfcef9663ee000145af34,41,0,2024-02-28T18:01:57.679Z,english_87.wav,0,pill,968,24,5,4,English,f,11,1.09391667,23.49318924,0.54757178
5b0dfcef9663ee000145af34,42,0,2024-02-28T18:01:57.679Z,english_527.wav,0,pill,1030,24,5,4,English,f,0,0.0,-1.3381573,0.84142087
5b0dfcef9663ee000145af34,42,0,2024-02-28T18:01:57.679Z,english_527.wav,0,pill,1030,24,5,4,English,f,1,0.1,58.15701777,0.45178491
5b0dfcef9663ee000145af34,42,0,2024-02-28T18:01:57.679Z,english_527.wav,0,pill,1030,24,5,4,English,f,2,0.2,8.11788849,1.20075359
5b0dfcef9663ee000145af34,42,0,2024-02-28T18:01:57.679Z,english_527.wav,0,pill,1030,24,5,4,English,f,3,0.3,44.39731413,0.65328865
5b0dfcef9663ee000145af34,42,0,2024-02-28T18:01:57.679Z,english_527.wav,0,pill,1030,24,5,4,English,f,4,0.4,-87.54788147,0.96835908
5b0dfcef9663ee000145af34,42,0,2024-02-28T18:01:57.679Z,english_527.wav,0,pill,1030,24,5,4,English,f,5,0.5,-93.25195843,0.53512631
5b0dfcef9663ee000145af34,42,0,2024-02-28T18:01:57.679Z,english_527.wav,0,pill,1030,24,5,4,English,f,6,0.6,93.45473079,1.66257619
5b0dfcef9663ee000145af34,42,0,2024-02-28T18:01:57.679Z,english_527.wav,0,pill,1030,24,5,4,English,f,7,0.7,47.10175622,1.10602602
5b0dfcef9663ee000145af34,42,0,2024-02-28T18:01:57.679Z,english_527.wav,0,pill,1030,24,5,4,English,f,8,0.8,40.24548325,0.88440787
5b0dfcef9663ee000145af34,42,0,2024-02-28T18:01:57.679Z,english_527.wav,0,pill,1030,24,5,4,English,f,9,0.9,26.99431972,1.16792169
5b0dfcef9663ee000145af34,42,0,2024-02-28T18:01:57.679Z,english_527.wav,0,pill,1030,24,5,4,English,f,10,1.0,23.18417948,1.44045273
5b0dfcef9663ee000145af34,42,0,2024-02-28T18:01:57.679Z,english_527.wav,0,pill,1030,24,5,4,English,f,11,1.09391667,1.05655255,0.83626501
5b0dfcef9663ee000145af34,43,0,2024-02-28T18:01:57.679Z,english_267.wav,0,pill,1465,24,5,4,English,f,0,0.0,-20.34373052,1.22339913
5b0dfcef9663ee000145af34,43,0,2024-02-28T18:01:57.679Z,english_267.wav,0,pill,1465,24,5,4,English,f,1,0.1,-8.01422086,0.37157124
5b0dfcef9663ee000145af34,43,0,2024-02-28T18:01:57.679Z,english_267.wav,0,pill,1465,24,5,4,English,f,2,0.2,93.04230665,0.88881734
5b0dfcef9663ee000145af34,43,0,2024-02-28T18:01:57.679Z,english_267.wav,0,pill,1465,24,5,4,English,f,3,0.3,41.74649662,0.98806935
5b0dfcef9663ee000145af34,43,0,2024-02-28T18:01:57.679Z,english_267.wav,0,pill,1465,24,5,4,English,f,4,0.4,-13.67169735,1.63374899
5b0dfcef9663ee000145af34,43,0,2024-02-28T18:01:57.679Z,english_267.wav,0,pill,1465,24,5,4,English,f,5,0.5,42.92753135,1.27803897
5b0dfcef9663ee000145af34,43,0,2024-02-28T18:01:57.679Z,english_267.wav,0,pill,1465,24,5,4,English,f,6,0.6,-31.66614436,0.65843477
5b0dfcef9663ee000145af34,43,0,2024-02-28T18:01:57.679Z,english_267.wav,0,pill,1465,24,5,4,English,f,7,0.7,-46.69110061,1.12503577
5b0dfcef9663ee000145af34,43,0,2024-02-28T18:01:57.679Z,english_267.wav,0,pill,1465,24,5,4,English,f,8,0.8,96.69640531,1.26069156
5b0dfcef9663ee000145af34,43,0,2024-02-28T18:01:57.679Z,english_267.wav,0,pill,1465,24,5,4,English,f,9,0.9,-51.1349073,0.35873403
5b0dfcef9663ee000145af34,43,0,2024-02-28T18:01:57.679Z,english_267.wav,0,pill,1465,24,5,4,English,f,10,1.0,-31.48458059,1.24202174
5b0dfcef9663ee000145af34,43,0,2024-02-28T18:01:57.679Z,english_267.wav,0,pill,1465,24,5,4,English,f,11,1.09391667,82.51520959,1.58881388
5b0dfcef9663ee000145af34,44,0,2024-02-28T18:01:57.679Z,english_987.wav,0,peel,998,24,5,4,English,f,0,0.0,22.80679167,0.70061045
5b0dfcef9663ee000145af34,44,0,2024-02-28T18:01:57.679Z,english_987.wav,0,peel,998,24,5,4,English,f,1,0.1,17.54007411,1.60053813
5b0dfcef9663ee000145af34,44,0,2024-02-28T18:01:57.679Z,english_987.wav,0,peel,998,24,5,4,English,f,2,0.2,-52.11811518,0.58462844
5b0dfcef9663ee000145af34,44,0,2024-02-28T18:01:57.679Z,english_987.wav,0,peel,998,24,5,4,English,f,3,0.3,-23.82315646,0.24368019
5b0dfcef9663ee000145af34,44,0,2024-02-28T18:01:57.679Z,english_987.wav,0,peel,998,24,5,4,English,f,4,0.4,44.18787645,0.52233595
5b0dfcef9663ee000145af34,44,0,2024-02-28T18:01:57.679Z,english_987.wav,0,peel,998,24,5,4,English,f,5,0.5,-72.90084178,0.85287542
5b0dfcef9663ee000145af34,44,0,2024-02-28T18:01:57.679Z,english_987.wav,0,peel,998,24,5,4,English,f,6,0.6,-17.62123308,1.54280419
5b0dfcef9663ee000145af34,44,0,2024-02-28T18:01:57.679Z,english_987.wav,0,peel,998,24,5,4,English,f,7,0.7,95.73852472,0.69341266
5b0dfcef9663ee000145af34,44,0,2024-02-28T18:01:57.679Z,english_987.wav,0,peel,998,24,5,4,English,f,8,0.8,10.89860126,0.63948037
5b0dfcef9663ee000145af34,44,0,2024-02-28T18:01:57.679Z,english_987.wav,0,peel,998,24,5,4,English,f,9,0.9,-72.84217249,0.23195922
5b0dfcef9663ee000145af34,44,0,2024-02-28T18:01:57.679Z,english_987.wav,0,peel,998,24,5,4,English,f,10,1.0,-57.31215702,1.27646479
5b0dfcef9663ee000145af34,44,0,2024-02-28T18:01:57.679Z,english_987.wav,0,peel,998,24,5,4,English,f,11,1.09391667,-16.22203203,1.15579809
5b0dfcef9663ee000145af34,45,0,2024-02-28T18:01:57.679Z,english_102.wav,0,peel,3506,24,5,4,English,f,0,0.0,63.84613738,0.68072363
5b0dfcef9663ee000145af34,45,0,2024-02-28T18:01:57.679Z,english_102.wav,0,peel,3506,24,5,4,English,f,1,0.1,-19.50774511,0.78322964
5b0dfcef9663ee000145af34,45,0,2024-02-28T18:01:57.679Z,english_102.wav,0,peel,3506,24,5,4,English,f,2,0.2,8.66527759,1.38231374
5b0dfcef9663ee000145af34,45,0,2024-02-28T18:01:57.679Z,english_102.wav,0,peel,3506,24,5,4,English,f,3,0.3,11.48698438,0.72244783
5b0dfcef9663ee000145af34,45,0,2024-02-28T18:01:57.679Z,english_102.wav,0,peel,3506,24,5,4,English,f,4,0.4,31.94885704,0.35985071
5b0dfcef9663ee000145af34,45,0,2024-02-28T18:01:57.679Z,english_102.wav,0,peel,3506,24,5,4,English,f,5,0.5,-38.92668569,0.73914497
5b0dfcef9663ee000145af34,45,0,2024-02-28T18:01:57.679Z,english_102.wav,0,peel,3506,24,5,4,English,f,6,0.6,-49.51123853,1.62389413
5b0dfcef9663ee000145af34,45,0,2024-02-28T18:01:57.679Z,english_102.wav,0,peel,3506,24,5,4,English,f,7,0.7,61.27640526,1.34969733
5b0dfcef9663ee000145af34,45,0,2024-02-28T18:01:57.679Z,english_102.wav,0,peel,3506,24,5,4,English,f,8,0.8,-26.83244911,0.03321173
5b0dfcef9663ee000145af34,45,0,2024-02-28T18:01:57.679Z,english_102.wav,0,peel,3506,24,5,4,English,f,9,0.9,49.29328507,0.74119752
5b0dfcef9663ee000145af34,45,0,2024-02-28T18:01:57.679Z,english_102.wav,0,peel,3506,24,5,4,English,f,10,1.0,88.72427416,0.40516815
5b0dfcef9663ee000145af34,45,0,2024-02-28T18:01:57.679Z,english_102.wav,0,peel,3506,24,5,4,English,f,11,1.09391667,44.23475018,1.39286308
5b0dfcef9663ee000145af34,46,0,2024-02-28T18:01:57.679Z,english_191.wav,0,peel,911,24,5,4,English,f,0,0.0,-24.02277358,1.0914461
5b0dfcef9663ee000145af34,46,0,2024-02-28T18:01:57.679Z,english_191.wav,0,peel,911,24,5,4,English,f,1,0.1,63.4439463,0.33098092
5b0dfcef9663ee000145af34,46,0,2024-02-28T18:01:57.679Z,english_191.wav,0,peel,911,24,5,4,English,f,2,0.2,-22.47731103,1.86196051
5b0dfcef9663ee000145af34,46,0,2024-02-28T18:01:57.679Z,english_191.wav,0,peel,911,24,5,4,English,f,3,0.3,-9.99025732,0.09450542
5b0dfcef9663ee000145af34,46,0,2024-02-28T18:01:57.679Z,english_191.wav,0,peel,911,24,5,4,English,f,4,0.4,58.56180387,1.1158369
5b0dfcef9663ee000145af34,46,0,2024-02-28T18:01:57.679Z,english_191.wav,0,peel,911,24,5,4,English,f,5,0.5,62.8001027,0.90347235
5b0dfcef9663ee000145af34,46,0,2024-02-28T18:01:57.679Z,english_191.wav,0,peel,911,24,5,4,English,f,6,0.6,15.39253294,1.55895669
5b0dfcef9663ee000145af34,46,0,2024-02-28T18:01:57.679Z,english_191.wav,0,peel,911,24,5,4,English,f,7,0.7,56.82172684,1.11486536
5b0dfcef9663ee000145af34,46,0,2024-02-28T18:01:57.679Z,english_191.wav,0,peel,911,24,5,4,English,f,8,0.8,-77.92272587,0.70296155
5b0dfcef9663ee000145af34,46,0,2024-02-28T18:01:57.679Z,english_191.wav,0,peel,911,24,5,4,English,f,9,0.9,-72.7474465,1.56868029
5b0dfcef9663ee000145af34,46,0,2024-02-28T18:01:57.679Z,english_191.wav,0,peel,911,24,5,4,English,f,10,1.0,-73.86130367,1.33347033
5b0dfcef9663ee000145af34,46,0,2024-02-28T18:01:57.679Z,english_191.wav,0,peel,911,24,5,4,English,f,11,1.09391667,-78.65780479,1.27370222
5b0dfcef9663ee000145af34,47,0,2024-02-28T18:01:57.679Z,english_630.wav,0,pill,659,24,5,4,English,f,0,0.0,78.75492265,1.14018337
5b0dfcef9663ee000145af34,47,0,2024-02-28T18:01:57.679Z,english_630.wav,0,pill,659,24,5,4,English,f,1,0.1,-83.58930578,0.42247423
5b0dfcef9663ee000145af34,47,0,2024-02-28T18:01:57.679Z,english_630.wav,0,pill,659,24,5,4,English,f,2,0.2,-79.71821409,1.15399078
5b0dfcef9663ee000145af34,47,0,2024-02-28T18:01:57.679Z,english_630.wav,0,pill,659,24,5,4,English,f,3,0.3,-40.02519871,1.63118088
5b0dfcef9663ee000145af34,47,0,2024-02-28T18:01:57.679Z,english_630.wav,0,pill,659,24,5,4,English,f,4,0.4,28.39164799,0.60995737
5b0dfcef9663ee000145af34,47,0,2024-02-28T18:01:57.679Z,english_630.wav,0,pill,659,24,5,4,English,f,5,0.5,-22.91010751,1.14933658
5b0dfcef9663ee000145af34,47,0,2024-02-28T18:01:57.679Z,english_630.wav,0,pill,659,24,5,4,English,f,6,0.6,66.99878234,1.58053618
5b0dfcef9663ee000145af34,47,0,2024-02-28T18:01:57.679Z,english_630.wav,0,pill,659,24,5,4,English,f,7,0.7,-67.03907611,1.44408005
5b0dfcef9663ee000145af34,47,0,2024-02-28T18:01:57.679Z,english_630.wav,0,pill,659,24,5,4,English,f,8,0.8,-31.68288064,0.22921488
5b0dfcef9663ee000145af34,47,0,2024-02-28T18:01:57.679Z,english_630.wav,0,pill,659,24,5,4,English,f,9,0.9,-92.36791787,1.99244959
5b0dfcef9663ee000145af34,47,0,2024-02-28T18:01:57.679Z,english_630.wav,0,pill,659,24,5,4,English,f,10,1.0,-47.34450832,1.8016164
5b0dfcef9663ee000145af34,47,0,2024-02-28T18:01:57.679Z,english_630.wav,0,pill,659,24,5,4,English,f,11,1.09391667,-92.12755103,1.49248838
5b0dfcef9663ee000145af34,48,0,2024-02-28T18:01:57.679Z,english_826.wav,0,pill,689,24,5,4,English,f,0,0.0,-48.66820204,0.50881221
5b0dfcef9663ee000145af34,48,0,2024-02-28T18:01:57.679Z,english_826.wav,0,pill,689,24,5,4,English,f,1,0.1,15.87758798,1.7988984
5b0dfcef9663ee000145af34,48,0,2024-02-28T18:01:57.679Z,english_826.wav,0,pill,689,24,5,4,English,f,2,0.2,-81.06156605,0.35571274
5b0dfcef9663ee000145af34,48,0,2024-02-28T18:01:57.679Z,english_826.wav,0,pill,689,24,5,4,English,f,3,0.3,-38.67543271,0.88871824
5b0dfcef9663ee000145af34,48,0,2024-02-28T18:01:57.679Z,english_826.wav,0,pill,689,24,5,4,English,f,4,0.4,8.70050458,0.81611388
5b0dfcef9663ee000145af34,48,0,2024-02-28T18:01:57.679Z,english_826.wav,0,pill,689,24,5,4,English,f,5,0.5,-12.50279128,1.15396637
5b0dfcef9663ee000145af34,48,0,2024-02-28T18:01:57.679Z,english_826.wav,0,pill,689,24,5,4,English,f,6,0.6,53.18940921,0.06242761
5b0dfcef9663ee000145af34,48,0,2024-02-28T18:01:57.679Z,english_826.wav,0,pill,689,24,5,4,English,f,7,0.7,25.51770895,0.35293371
5b0dfcef9663ee000145af34,48,0,2024-02-28T18:01:57.679Z,english_826.wav,0,pill,689,24,5,4,English,f,8,0.8,-2.14290614,1.13493967
5b0dfcef9663ee000145af34,48,0,2024-02-28T18:01:57.679Z,english_826.wav,0,pill,689,24,5,4,English,f,9,0.9,59.43969754,1.56070885
5b0dfcef9663ee000145af34,48,0,2024-02-28T18:01:57.679Z,english_826.wav,0,pill,689,24,5,4,English,f,10,1.0,36.73554264,1.2686095
5b0dfcef9663ee000145af34,48,0,2024-02-28T18:01:57.679Z,english_826.wav,0,pill,689,24,5,4,English,f,11,1.09391667,99.18694211,1.14436626
5b0dfcef9663ee000145af34,49,0,2024-02-28T18:01:57.679Z,english_232.wav,0,peel,1196,24,5,4,English,f,0,0.0,-26.51940276,0.21059611
5b0dfcef9663ee000145af34,49,0,2024-02-28T18:01:57.679Z,english_232.wav,0,peel,1196,24,5,4,English,f,1,0.1,80.97161113,0.68519171
5b0dfcef9663ee000145af34,49,0,2024-02-28T18:01:57.679Z,english_232.wav,0,peel,1196,24,5,4,English,f,2,0.2,-59.14883297,1.41170079
5b0dfcef9663ee000145af34,49,0,2024-02-28T18:01:57.679Z,english_232.wav,0,peel,1196,24,5,4,English,f,3,0.3,25.03200804,1.73443495
5b0dfcef9663ee000145af34,49,0,2024-02-28T18:01:57.679Z,english_232.wav,0,peel,1196,24,5,4,English,f,4,0.4,20.05380764,0.29201417
5b0dfcef9663ee000145af34,49,0,2024-02-28T18:01:57.679Z,english_232.wav,0,peel,1196,24,5,4,English,f,5,0.5,56.28196281,0.54790335
5b0dfcef9663ee000145af34,49,0,2024-02-28T18:01:57.679Z,english_232.wav,0,peel,1196,24,5,4,English,f,6,0.6,50.47197961,1.77444553
5b0dfcef9663ee000145af34,49,0,2024-02-28T18:01:57.679Z,english_232.wav,0,peel,1196,24,5,4,English,f,7,0.7,52.11037309,1.99008741
5b0dfcef9663ee000145af34,49,0,2024-02-28T18:01:57.679Z,english_232.wav,0,peel,1196,24,5,4,English,f,8,0.8,88.23327143,0.74569824
5b0dfcef9663ee000145af34,49,0,2024-02-28T18:01:57.679Z,english_232.wav,0,peel,1196,24,5,4,English,f,9,0.9,37.32869559,0.18993344
5b0dfcef9663ee000145af34,49,0,2024-02-28T18:01:57.679Z,english_232.wav,0,peel,1196,24,5,4,English,f,10,1.0,-23.53745861,0.72085595
5b0dfcef9663ee000145af34,49,0,2024-02-28T18:01:57.679Z,english_232.wav,0,peel,1196,24,5,4,English,f,11,1.09391667,93.83220457,1.92388819
5b0dfcef9663ee000145af34,50,1,2024-02-28T18:06:27.629Z,english_424.wav,0,peel,972,24,5,4,English,f,0,0.0,-17.35907603,1.03823748
5b0dfcef9663ee000145af34,50,1,2024-02-28T18:06:27.629Z,english_424.wav,0,peel,972,24,5,4,English,f,1,0.1,18.81369918,0.96868976
5b0dfcef9663ee000145af34,50,1,2024-02-28T18:06:27.629Z,english_424.wav,0,peel,972,24,5,4,English,f,2,0.2,55.92500366,1.67797376
5b0dfcef9663ee000145af34,50,1,2024-02-28T18:06:27.629Z,english_424.wav,0,peel,972,24,5,4,English,f,3,0.3,45.08785435,1.44469234
5b0dfcef9663ee000145af34,50,1,2024-02-28T18:06:27.629Z,english_424.wav,0,peel,972,24,5,4,English,f,4,0.4,3.17174712,0.62957499
5b0dfcef9663ee000145af34,50,1,2024-02-28T18:06:27.629Z,english_424.wav,0,peel,972,24,5,4,English,f,5,0.5,-30.69278374,1.7765397
5b0dfcef9663ee000145af34,50,1,2024-02-28T18:06:27.629Z,english_424.wav,0,peel,972,24,5,4,English,f,6,0.6,41.43178992,1.27231114
5b0dfcef9663ee000145af34,50,1,2024-02-28T18:06:27.629Z,english_424.wav,0,peel,972,24,5,4,English,f,7,0.7,-46.28602692,0.02713593
5b0dfcef9663ee000145af34,50,1,2024-02-28T18:06:27.629Z,english_424.wav,0,peel,972,24,5,4,English,f,8,0.8,-38.81280045,0.44344556
5b0dfcef9663ee000145af34,50,1,2024-02-28T18:06:27.629Z,english_424.wav,0,peel,972,24,5,4,English,f,9,0.9,-42.19882472,0.86812909
5b0dfcef9663ee000145af34,50,1,2024-02-28T18:06:27.629Z,english_424.wav,0,peel,972,24,5,4,English,f,10,1.0,-88.98684391,1.07480581
5b0dfcef9663ee000145af34,50,1,2024-02-28T18:06:27.629Z,english_424.wav,0,peel,972,24,5,4,English,f,11,1.09391667,-92.81820885,0.17756303
5b0dfcef9663ee000145af34,51,1,2024-02-28T18:06:27.629Z,english_586.wav,0,pill,1106,24,5,4,English,f,0,0.0,19.9692207,1.34383916
5b0dfcef9663ee000145af34,51,1,2024-02-28T18:06:27.629Z,english_586.wav,0,pill,1106,24,5,4,English,f,1,0.1,22.22606315,0.0196847498
5b0dfcef9663ee000145af34,51,1,2024-02-28T18:06:27.629Z,english_586.wav,0,pill,1106,24,5,4,English,f,2,0.2,44.76083147,1.32604329
5b0dfcef9663ee000145af34,51,1,2024-02-28T18:06:27.629Z,english_586.wav,0,pill,1106,24,5,4,English,f,3,0.3,30.56518658,0.457164903
5b0dfcef9663ee000145af34,51,1,2024-02-28T18:06:27.629Z,english_586.wav,0,pill,1106,24,5,4,English,f,4,0.4,70.50807044,0.862218031
5b0dfcef9663ee000145af34,51,1,2024-02-28T18:06:27.629Z,english_586.wav,0,pill,1106,24,5,4,English,f,5,0.5,-99.40073456,1.19900353
5b0dfcef9663ee000145af34,51,1,2024-02-28T18:06:27.629Z,english_586.wav,0,pill,1106,24,5,4,English,f,6,0.6,-34.76596453,1.85917609
5b0dfcef9663ee000145af34,51,1,2024-02-28T18:06:27.629Z,english_586.wav,0,pill,1106,24,5,4,English,f,7,0.7,-7.2574162,0.599282433
5b0dfcef9663ee000145af34,51,1,2024-02-28T18:06:27.629Z,english_586.wav,0,pill,1106,24,5,4,English,f,8,0.8,-34.51491792,0.420457526
5b0dfcef9663ee000145af34,51,1,2024-02-28T18:06:27.629Z,english_586.wav,0,pill,1106,24,5,4,English,f,9,0.9,40.55984504,1.44903206
5b0dfcef9663ee000145af34,51,1,2024-02-28T18:06:27.629Z,english_586.wav,0,pill,1106,24,5,4,English,f,10,1.0,43.92860722,0.00056977348
5b0dfcef9663ee000145af34,51,1,2024-02-28T18:06:27.629Z,english_586.wav,0,pill,1106,24,5,4,English,f,11,1.09391667,97.81958787,1.67148022
5b0dfcef9663ee000145af34,52,1,2024-02-28T18:06:27.629Z,english_986.wav,0,pill,1073,24,5,4,English,f,0,0.0,66.66952336,1.97934099
5b0dfcef9663ee000145af34,52,1,2024-02-28T18:06:27.629Z,english_986.wav,0,pill,1073,24,5,4,English,f,1,0.1,96.9530251,1.29460225
5b0dfcef9663ee000145af34,52,1,2024-02-28T18:06:27.629Z,english_986.wav,0,pill,1073,24,5,4,English,f,2,0.2,75.3477354,1.53421825
5b0dfcef9663ee000145af34,52,1,2024-02-28T18:06:27.629Z,english_986.wav,0,pill,1073,24,5,4,English,f,3,0.3,-56.79707668,1.45039514
5b0dfcef9663ee000145af34,52,1,2024-02-28T18:06:27.629Z,english_986.wav,0,pill,1073,24,5,4,English,f,4,0.4,68.50410973,0.98893675
5b0dfcef9663ee000145af34,52,1,2024-02-28T18:06:27.629Z,english_986.wav,0,pill,1073,24,5,4,English,f,5,0.5,5.80156778,1.73927101
5b0dfcef9663ee000145af34,52,1,2024-02-28T18:06:27.629Z,english_986.wav,0,pill,1073,24,5,4,English,f,6,0.6,-59.00857509,1.32684672
5b0dfcef9663ee000145af34,52,1,2024-02-28T18:06:27.629Z,english_986.wav,0,pill,1073,24,5,4,English,f,7,0.7,23.78788766,1.65077043
5b0dfcef9663ee000145af34,52,1,2024-02-28T18:06:27.629Z,english_986.wav,0,pill,1073,24,5,4,English,f,8,0.8,8.31255478,1.05904427
5b0dfcef9663ee000145af34,52,1,2024-02-28T18:06:27.629Z,english_986.wav,0,pill,1073,24,5,4,English,f,9,0.9,-23.40072537,0.79622744
5b0dfcef9663ee000145af34,52,1,2024-02-28T18:06:27.629Z,english_986.wav,0,pill,1073,24,5,4,English,f,10,1.0,36.6022418,1.94329627
5b0dfcef9663ee000145af34,52,1,2024-02-28T18:06:27.629Z,english_986.wav,0,pill,1073,24,5,4,English,f,11,1.09391667,-51.87443186,1.45912014
5b0dfcef9663ee000145af34,53,1,2024-02-28T18:06:27.629Z,english_16.wav,0,pill,1211,24,5,4,English,f,0,0.0,-95.82299592,1.96941265
5b0dfcef9663ee000145af34,53,1,2024-02-28T18:06:27.629Z,english_16.wav,0,pill,1211,24,5,4,English,f,1,0.1,39.71770068,0.75253104
5b0dfcef9663ee000145af34,53,1,2024-02-28T18:06:27.629Z,english_16.wav,0,pill,1211,24,5,4,English,f,2,0.2,-50.41901013,0.57750403
5b0dfcef9663ee000145af34,53,1,2024-02-28T18:06:27.629Z,english_16.wav,0,pill,1211,24,5,4,English,f,3,0.3,41.82102444,1.43380195
5b0dfcef9663ee000145af34,53,1,2024-02-28T18:06:27.629Z,english_16.wav,0,pill,1211,24,5,4,English,f,4,0.4,-73.05638391,0.97483924
5b0dfcef9663ee000145af34,53,1,2024-02-28T18:06:27.629Z,english_16.wav,0,pill,1211,24,5,4,English,f,5,0.5,28.80379611,0.97914362
5b0dfcef9663ee000145af34,53,1,2024-02-28T18:06:27.629Z,english_16.wav,0,pill,1211,24,5,4,English,f,6,0.6,-13.12693215,1.4436464
5b0dfcef9663ee000145af34,53,1,2024-02-28T18:06:27.629Z,english_16.wav,0,pill,1211,24,5,4,English,f,7,0.7,59.55853505,0.23795563
5b0dfcef9663ee000145af34,53,1,2024-02-28T18:06:27.629Z,english_16.wav,0,pill,1211,24,5,4,English,f,8,0.8,16.13501887,0.01104125
5b0dfcef9663ee000145af34,53,1,2024-02-28T18:06:27.629Z,english_16.wav,0,pill,1211,24,5,4,English,f,9,0.9,11.1554393,1.97744108
5b0dfcef9663ee000145af34,53,1,2024-02-28T18:06:27.629Z,english_16.wav,0,pill,1211,24,5,4,English,f,10,1.0,-28.11091573,0.69321363
5b0dfcef9663ee000145af34,53,1,2024-02-28T18:06:27.629Z,english_16.wav,0,pill,1211,24,5,4,English,f,11,1.09391667,52.80390011,1.73006612
5b0dfcef9663ee000145af34,54,1,2024-02-28T18:06:27.629Z,english_49.wav,0,peel,950,24,5,4,English,f,0,0.0,-7.77522682,0.84923144
5b0dfcef9663ee000145af34,54,1,2024-02-28T18:06:27.629Z,english_49.wav,0,peel,950,24,5,4,English,f,1,0.1,-69.00488143,0.33119372
5b0dfcef9663ee000145af34,54,1,2024-02-28T18:06:27.629Z,english_49.wav,0,peel,950,24,5,4,English,f,2,0.2,56.47558832,1.22070051
5b0dfcef9663ee000145af34,54,1,2024-02-28T18:06:27.629Z,english_49.wav,0,peel,950,24,5,4,English,f,3,0.3,47.73828653,0.09401361
5b0dfcef9663ee000145af34,54,1,2024-02-28T18:06:27.629Z,english_49.wav,0,peel,950,24,5,4,English,f,4,0.4,-58.74936134,0.13758585
5b0dfcef9663ee000145af34,54,1,2024-02-28T18:06:27.629Z,english_49.wav,0,peel,950,24,5,4,English,f,5,0.5,-16.00930073,1.02104263
5b0dfcef9663ee000145af34,54,1,2024-02-28T18:06:27.629Z,english_49.wav,0,peel,950,24,5,4,English,f,6,0.6,68.77090309,1.27727042
5b0dfcef9663ee000145af34,54,1,2024-02-28T18:06:27.629Z,english_49.wav,0,peel,950,24,5,4,English,f,7,0.7,47.28501738,0.65680798
5b0dfcef9663ee000145af34,54,1,2024-02-28T18:06:27.629Z,english_49.wav,0,peel,950,24,5,4,English,f,8,0.8,-26.83696642,1.41824482
5b0dfcef9663ee000145af34,54,1,2024-02-28T18:06:27.629Z,english_49.wav,0,peel,950,24,5,4,English,f,9,0.9,16.45883289,0.73136625
5b0dfcef9663ee000145af34,54,1,2024-02-28T18:06:27.629Z,english_49.wav,0,peel,950,24,5,4,English,f,10,1.0,-23.79769264,0.31271595
5b0dfcef9663ee000145af34,54,1,2024-02-28T18:06:27.629Z,english_49.wav,0,peel,950,24,5,4,English,f,11,1.09391667,62.62161118,0.15435739
5b0dfcef9663ee000145af34,55,1,2024-02-28T18:06:27.629Z,english_52.wav,0,pill,1344,24,5,4,English,f,0,0.0,22.10137518,1.70966253
5b0dfcef9663ee000145af34,55,1,2024-02-28T18:06:27.629Z,english_52.wav,0,pill,1344,24,5,4,English,f,1,0.1,54.60808655,0.73212315
5b0dfcef9663ee000145af34,55,1,2024-02-28T18:06:27.629Z,english_52.wav,0,pill,1344,24,5,4,English,f,2,0.2,-19.2398092,0.80628637
5b0dfcef9663ee000145af34,55,1,2024-02-28T18:06:27.629Z,english_52.wav,0,pill,1344,24,5,4,English,f,3,0.3,51.72612617,0.90394386
5b0dfcef9663ee000145af34,55,1,2024-02-28T18:06:27.629Z,english_52.wav,0,pill,1344,24,5,4,English,f,4,0.4,48.42620238,0.20122149
5b0dfcef9663ee000145af34,55,1,2024-02-28T18:06:27.629Z,english_52.wav,0,pill,1344,24,5,4,English,f,5,0.5,-74.55875553,0.79458017
5b0dfcef9663ee000145af34,55,1,2024-02-28T18:06:27.629Z,english_52.wav,0,pill,1344,24,5,4,English,f,6,0.6,38.81047921,1.48954082
5b0dfcef9663ee000145af34,55,1,2024-02-28T18:06:27.629Z,english_52.wav,0,pill,1344,24,5,4,English,f,7,0.7,-10.61292931,0.49987231
5b0dfcef9663ee000145af34,55,1,2024-02-28T18:06:27.629Z,english_52.wav,0,pill,1344,24,5,4,English,f,8,0.8,57.32417171,1.72417372
5b0dfcef9663ee000145af34,55,1,2024-02-28T18:06:27.629Z,english_52.wav,0,pill,1344,24,5,4,English,f,9,0.9,1.80511965,1.29717669
5b0dfcef9663ee000145af34,55,1,2024-02-28T18:06:27.629Z,english_52.wav,0,pill,1344,24,5,4,English,f,10,1.0,21.58974988,1.53819456
5b0dfcef9663ee000145af34,55,1,2024-02-28T18:06:27.629Z,english_52.wav,0,pill,1344,24,5,4,English,f,11,1.09391667,-49.54213801,0.23189362
5b0dfcef9663ee000145af34,56,1,2024-02-28T18:06:27.629Z,english_171.wav,0,pill,1371,24,5,4,English,f,0,0.0,57.16640714,0.48953769
5b0dfcef9663ee000145af34,56,1,2024-02-28T18:06:27.629Z,english_171.wav,0,pill,1371,24,5,4,English,f,1,0.1,74.54839728,1.15474794
5b0dfcef9663ee000145af34,56,1,2024-02-28T18:06:27.629Z,english_171.wav,0,pill,1371,24,5,4,English,f,2,0.2,95.75678202,1.06369724
5b0dfcef9663ee000145af34,56,1,2024-02-28T18:06:27.629Z,english_171.wav,0,pill,1371,24,5,4,English,f,3,0.3,39.99051632,0.94070076
5b0dfcef9663ee000145af34,56,1,2024-02-28T18:06:27.629Z,english_171.wav,0,pill,1371,24,5,4,English,f,4,0.4,-6.66803256,0.05995963
5b0dfcef9663ee000145af34,56,1,2024-02-28T18:06:27.629Z,english_171.wav,0,pill,1371,24,5,4,English,f,5,0.5,-11.42556478,0.94038212
5b0dfcef9663ee000145af34,56,1,2024-02-28T18:06:27.629Z,english_171.wav,0,pill,1371,24,5,4,English,f,6,0.6,-61.08204703,1.30766084
5b0dfcef9663ee000145af34,56,1,2024-02-28T18:06:27.629Z,english_171.wav,0,pill,1371,24,5,4,English,f,7,0.7,-47.00718825,1.96472455
5b0dfcef9663ee000145af34,56,1,2024-02-28T18:06:27.629Z,english_171.wav,0,pill,1371,24,5,4,English,f,8,0.8,-62.88052724,0.35350446
5b0dfcef9663ee000145af34,56,1,2024-02-28T18:06:27.629Z,english_171.wav,0,pill,1371,24,5,4,English,f,9,0.9,-55.43761186,0.65278216
5b0dfcef9663ee000145af34,56,1,2024-02-28T18:06:27.629Z,english_171.wav,0,pill,1371,24,5,4,English,f,10,1.0,-25.22707532,1.06452254
5b0dfcef9663ee000145af34,56,1,2024-02-28T18:06:27.629Z,english_171.wav,0,pill,1371,24,5,4,English,f,11,1.09391667,72.94956576,0.49293676
5b0dfcef9663ee000145af34,57,1,2024-02-28T18:06:27.629Z,english_173.wav,0,peel,1526,24,5,4,English,f,0,0.0,34.32682043,0.82312646
5b0dfcef9663ee000145af34,57,1,2024-02-28T18:06:27.629Z,english_173.wav,0,peel,1526,24,5,4,English,f,1,0.1,-35.22347769,0.84965345
5b0dfcef9663ee000145af34,57,1,2024-02-28T18:06:27.629Z,english_173.wav,0,peel,1526,24,5,4,English,f,2,0.2,15.69043139,0.84607348
5b0dfcef9663ee000145af34,57,1,2024-02-28T18:06:27.629Z,english_173.wav,0,peel,1526,24,5,4,English,f,3,0.3,-71.83777825,0.55995079
5b0dfcef9663ee000145af34,57,1,2024-02-28T18:06:27.629Z,english_173.wav,0,peel,1526,24,5,4,English,f,4,0.4,-96.81426106,0.51635348
5b0dfcef9663ee000145af34,57,1,2024-02-28T18:06:27.629Z,english_173.wav,0,peel,1526,24,5,4,English,f,5,0.5,-51.15803827,1.6072313
5b0dfcef9663ee000145af34,57,1,2024-02-28T18:06:27.629Z,english_173.wav,0,peel,1526,24,5,4,English,f,6,0.6,-12.70248505,1.25349503
5b0dfcef9663ee000145af34,57,1,2024-02-28T18:06:27.629Z,english_173.wav,0,peel,1526,24,5,4,English,f,7,0.7,-30.75730157,1.4731344
5b0dfcef9663ee000145af34,57,1,2024-02-28T18:06:27.629Z,english_173.wav,0,peel,1526,24,5,4,English,f,8,0.8,-5.0022938,0.28621328
5b0dfcef9663ee000145af34,57,1,2024-02-28T18:06:27.629Z,english_173.wav,0,peel,1526,24,5,4,English,f,9,0.9,41.07030003,0.95942448
5b0dfcef9663ee000145af34,57,1,2024-02-28T18:06:27.629Z,english_173.wav,0,peel,1526,24,5,4,English,f,10,1.0,-5.319412,0.2847469
5b0dfcef9663ee000145af34,57,1,2024-02-28T18:06:27.629Z,english_173.wav,0,peel,1526,24,5,4,English,f,11,1.09391667,43.01251996,0.4938404
5b0dfcef9663ee000145af34,58,1,2024-02-28T18:06:27.629Z,english_305.wav,0,peel,1337,24,5,4,English,f,0,0.0,17.49267602,0.00977258
5b0dfcef9663ee000145af34,58,1,2024-02-28T18:06:27.629Z,english_305.wav,0,peel,1337,24,5,4,English,f,1,0.1,17.59035292,1.17585195
5b0dfcef9663ee000145af34,58,1,2024-02-28T18:06:27.629Z,english_305.wav,0,peel,1337,24,5,4,English,f,2,0.2,83.12376417,1.66932103
5b0dfcef9663ee000145af34,58,1,2024-02-28T18:06:27.629Z,english_305.wav,0,peel,1337,24,5,4,English,f,3,0.3,-81.59474703,0.83160233
5b0dfcef9663ee000145af34,58,1,2024-02-28T18:06:27.629Z,english_305.wav,0,peel,1337,24,5,4,English,f,4,0.4,-99.63264863,1.05024367
5b0dfcef9663ee000145af34,58,1,2024-02-28T18:06:27.629Z,english_305.wav,0,peel,1337,24,5,4,English,f,5,0.5,42.69289025,1.13369845
5b0dfcef9663ee000145af34,58,1,2024-02-28T18:06:27.629Z,english_305.wav,0,peel,1337,24,5,4,English,f,6,0.6,82.55548118,0.21867151
5b0dfcef9663ee000145af34,58,1,2024-02-28T18:06:27.629Z,english_305.wav,0,peel,1337,24,5,4,English,f,7,0.7,15.87479687,0.32447169
5b0dfcef9663ee000145af34,58,1,2024-02-28T18:06:27.629Z,english_305.wav,0,peel,1337,24,5,4,English,f,8,0.8,-15.6323718,1.86350195
5b0dfcef9663ee000145af34,58,1,2024-02-28T18:06:27.629Z,english_305.wav,0,peel,1337,24,5,4,English,f,9,0.9,98.18396958,0.82463705
5b0dfcef9663ee000145af34,58,1,2024-02-28T18:06:27.629Z,english_305.wav,0,peel,1337,24,5,4,English,f,10,1.0,52.83112054,0.94709308
5b0dfcef9663ee000145af34,58,1,2024-02-28T18:06:27.629Z,english_305.wav,0,peel,1337,24,5,4,English,f,11,1.09391667,33.63343534,0.36254065
5b0dfcef9663ee000145af34,59,1,2024-02-28T18:06:27.629Z,english_806.wav,0,peel,902,24,5,4,English,f,0,0.0,43.54674573,1.38359874
5b0dfcef9663ee000145af34,59,1,2024-02-28T18:06:27.629Z,english_806.wav,0,peel,902,24,5,4,English,f,1,0.1,-68.74197722,1.64152579
5b0dfcef9663ee000145af34,59,1,2024-02-28T18:06:27.629Z,english_806.wav,0,peel,902,24,5,4,English,f,2,0.2,-23.84581235,1.16928597
5b0dfcef9663ee000145af34,59,1,2024-02-28T18:06:27.629Z,english_806.wav,0,peel,902,24,5,4,English,f,3,0.3,-72.86002473,0.86357206
5b0dfcef9663ee000145af34,59,1,2024-02-28T18:06:27.629Z,english_806.wav,0,peel,902,24,5,4,English,f,4,0.4,-35.27978776,0.73652759
5b0dfcef9663ee000145af34,59,1,2024-02-28T18:06:27.629Z,english_806.wav,0,peel,902,24,5,4,English,f,5,0.5,-2.08559415,0.11615926
5b0dfcef9663ee000145af34,59,1,2024-02-28T18:06:27.629Z,english_806.wav,0,peel,902,24,5,4,English,f,6,0.6,-68.55515823,0.96374449
5b0dfcef9663ee000145af34,59,1,2024-02-28T18:06:27.629Z,english_806.wav,0,peel,902,24,5,4,English,f,7,0.7,-32.41040243,1.00194659
5b0dfcef9663ee000145af34,59,1,2024-02-28T18:06:27.629Z,english_806.wav,0,peel,902,24,5,4,English,f,8,0.8,43.35004903,0.5470064
5b0dfcef9663ee000145af34,59,1,2024-02-28T18:06:27.629Z,english_806.wav,0,peel,902,24,5,4,English,f,9,0.9,-2.04848196,0.25999945
5b0dfcef9663ee000145af34,59,1,2024-02-28T18:06:27.629Z,english_806.wav,0,peel,902,24,5,4,English,f,10,1.0,6.21691759,0.37115798
5b0dfcef9663ee000145af34,59,1,2024-02-28T18:06:27.629Z,english_806.wav,0,peel,902,24,5,4,English,f,11,1.09391667,-62.57800707,1.34941772
5b0dfcef9663ee000145af34,60,1,2024-02-28T18:06:27.629Z,english_776.wav,0,pill,1811,24,5,4,English,f,0,0.0,87.36983695,0.99012423
5b0dfcef9663ee000145af34,60,1,2024-02-28T18:06:27.629Z,english_776.wav,0,pill,1811,24,5,4,English,f,1,0.1,-7.36044234,0.99897732
5b0dfcef9663ee000145af34,60,1,2024-02-28T18:06:27.629Z,english_776.wav,0,pill,1811,24,5,4,English,f,2,0.2,-78.22847681,1.18840119
5b0dfcef9663ee000145af34,60,1,2024-02-28T18:06:27.629Z,english_776.wav,0,pill,1811,24,5,4,English,f,3,0.3,-28.99379036,1.28345901
5b0dfcef9663ee000145af34,60,1,2024-02-28T18:06:27.629Z,english_776.wav,0,pill,1811,24,5,4,English,f,4,0.4,76.19445877,0.93018475
5b0dfcef9663ee000145af34,60,1,2024-02-28T18:06:27.629Z,english_776.wav,0,pill,1811,24,5,4,English,f,5,0.5,-43.33414,1.3758077
5b0dfcef9663ee000145af34,60,1,2024-02-28T18:06:27.629Z,english_776.wav,0,pill,1811,24,5,4,English,f,6,0.6,-77.80909366,0.61279661
5b0dfcef9663ee000145af34,60,1,2024-02-28T18:06:27.629Z,english_776.wav,0,pill,1811,24,5,4,English,f,7,0.7,-63.14510086,1.13295599
5b0dfcef9663ee000145af34,60,1,2024-02-28T18:06:27.629Z,english_776.wav,0,pill,1811,24,5,4,English,f,8,0.8,70.29145503,0.21705032
5b0dfcef9663ee000145af34,60,1,2024-02-28T18:06:27.629Z,english_776.wav,0,pill,1811,24,5,4,English,f,9,0.9,46.24407769,1.45577739
5b0dfcef9663ee000145af34,60,1,2024-02-28T18:06:27.629Z,english_776.wav,0,pill,1811,24,5,4,English,f,10,1.0,-23.45182889,1.82818043
5b0dfcef9663ee000145af34,60,1,2024-02-28T18:06:27.629Z,english_776.wav,0,pill,1811,24,5,4,English,f,11,1.09391667,72.2860477,0.32191232
5b0dfcef9663ee000145af34,61,1,2024-02-28T18:06:27.629Z,english_89.wav,0,peel,978,24,5,4,English,f,0,0.0,44.55560521,0.83141016
5b0dfcef9663ee000145af34,61,1,2024-02-28T18:06:27.629Z,english_89.wav,0,peel,978,24,5,4,English,f,1,0.1,-38.12575075,0.73728779
5b0dfcef9663ee000145af34,61,1,2024-02-28T18:06:27.629Z,english_89.wav,0,peel,978,24,5,4,English,f,2,0.2,-85.08741113,0.76468972
5b0dfcef9663ee000145af34,61,1,2024-02-28T18:06:27.629Z,english_89.wav,0,peel,978,24,5,4,English,f,3,0.3,-34.51149373,1.40220205
5b0dfcef9663ee000145af34,61,1,2024-02-28T18:06:27.629Z,english_89.wav,0,peel,978,24,5,4,English,f,4,0.4,91.4200198,1.40801955
5b0dfcef9663ee000145af34,61,1,2024-02-28T18:06:27.629Z,english_89.wav,0,peel,978,24,5,4,English,f,5,0.5,-88.24762839,0.24508348
5b0dfcef9663ee000145af34,61,1,2024-02-28T18:06:27.629Z,english_89.wav,0,peel,978,24,5,4,English,f,6,0.6,-12.15976794,0.73331541
5b0dfcef9663ee000145af34,61,1,2024-02-28T18:06:27.629Z,english_89.wav,0,peel,978,24,5,4,English,f,7,0.7,8.11504905,1.14258486
5b0dfcef9663ee000145af34,61,1,2024-02-28T18:06:27.629Z,english_89.wav,0,peel,978,24,5,4,English,f,8,0.8,48.7516223,0.28719695
5b0dfcef9663ee000145af34,61,1,2024-02-28T18:06:27.629Z,english_89.wav,0,peel,978,24,5,4,English,f,9,0.9,-61.89417078,1.82425172
5b0dfcef9663ee000145af34,61,1,2024-02-28T18:06:27.629Z,english_89.wav,0,peel,978,24,5,4,English,f,10,1.0,70.08039029,1.66848997
5b0dfcef9663ee000145af34,61,1,2024-02-28T18:06:27.629Z,english_89.wav,0,peel,978,24,5,4,English,f,11,1.09391667,73.1109171,1.25647122
5b0dfcef9663ee000145af34,62,1,2024-02-28T18:06:27.629Z,english_421.wav,0,pill,1214,24,5,4,English,f,0,0.0,-77.37875109,0.40906671
5b0dfcef9663ee000145af34,62,1,2024-02-28T18:06:27.629Z,english_421.wav,0,pill,1214,24,5,4,English,f,1,0.1,21.68470971,0.10764534
5b0dfcef9663ee000145af34,62,1,2024-02-28T18:06:27.629Z,english_421.wav,0,pill,1214,24,5,4,English,f,2,0.2,25.95594031,0.09890733
5b0dfcef9663ee000145af34,62,1,2024-02-28T18:06:27.629Z,english_421.wav,0,pill,1214,24,5,4,English,f,3,0.3,-54.56850785,1.06704705
5b0dfcef9663ee000145af34,62,1,2024-02-28T18:06:27.629Z,english_421.wav,0,pill,1214,24,5,4,English,f,4,0.4,24.0018444,0.2085299
5b0dfcef9663ee000145af34,62,1,2024-02-28T18:06:27.629Z,english_421.wav,0,pill,1214,24,5,4,English,f,5,0.5,-47.82681182,0.29426066
5b0dfcef9663ee000145af34,62,1,2024-02-28T18:06:27.629Z,english_421.wav,0,pill,1214,24,5,4,English,f,6,0.6,-46.58707105,1.5200041
5b0dfcef9663ee000145af34,62,1,2024-02-28T18:06:27.629Z,english_421.wav,0,pill,1214,24,5,4,English,f,7,0.7,77.25272005,0.50765671
5b0dfcef9663ee000145af34,62,1,2024-02-28T18:06:27.629Z,english_421.wav,0,pill,1214,24,5,4,English,f,8,0.8,77.76425926,0.03381604
5b0dfcef9663ee000145af34,62,1,2024-02-28T18:06:27.629Z,english_421.wav,0,pill,1214,24,5,4,English,f,9,0.9,25.41801762,1.11402173
5b0dfcef9663ee000145af34,62,1,2024-02-28T18:06:27.629Z,english_421.wav,0,pill,1214,24,5,4,English,f,10,1.0,38.43952496,1.16253286
5b0dfcef9663ee000145af34,62,1,2024-02-28T18:06:27.629Z,english_421.wav,0,pill,1214,24,5,4,English,f,11,1.09391667,67.75811728,1.4554509
5b0dfcef9663ee000145af34,63,1,2024-02-28T18:06:27.629Z,english_708.wav,0,peel,846,24,5,4,English,f,0,0.0,51.90512372,0.68267885
5b0dfcef9663ee000145af34,63,1,2024-02-28T18:06:27.629Z,english_708.wav,0,peel,846,24,5,4,English,f,1,0.1,26.85875961,1.28009677
5b0dfcef9663ee000145af34,63,1,2024-02-28T18:06:27.629Z,english_708.wav,0,peel,846,24,5,4,English,f,2,0.2,69.50769052,0.67214969
5b0dfcef9663ee000145af34,63,1,2024-02-28T18:06:27.629Z,english_708.wav,0,peel,846,24,5,4,English,f,3,0.3,2.73798265,1.87173266
5b0dfcef9663ee000145af34,63,1,2024-02-28T18:06:27.629Z,english_708.wav,0,peel,846,24,5,4,English,f,4,0.4,19.91752894,1.28139012
5b0dfcef9663ee000145af34,63,1,2024-02-28T18:06:27.629Z,english_708.wav,0,peel,846,24,5,4,English,f,5,0.5,84.74462974,1.50975007
5b0dfcef9663ee000145af34,63,1,2024-02-28T18:06:27.629Z,english_708.wav,0,peel,846,24,5,4,English,f,6,0.6,48.1433783,0.29459019
5b0dfcef9663ee000145af34,63,1,2024-02-28T18:06:27.629Z,english_708.wav,0,peel,846,24,5,4,English,f,7,0.7,62.38973842,0.69646694
5b0dfcef9663ee000145af34,63,1,2024-02-28T18:06:27.629Z,english_708.wav,0,peel,846,24,5,4,English,f,8,0.8,-28.25964696,0.8036912
5b0dfcef9663ee000145af34,63,1,2024-02-28T18:06:27.629Z,english_708.wav,0,peel,846,24,5,4,English,f,9,0.9,1.39285788,0.28906304
5b0dfcef9663ee000145af34,63,1,2024-02-28T18:06:27.629Z,english_708.wav,0,peel,846,24,5,4,English,f,10,1.0,-27.01293378,1.49505706
5b0dfcef9663ee000145af34,63,1,2024-02-28T18:06:27.629Z,english_708.wav,0,peel,846,24,5,4,English,f,11,1.09391667,-26.97031791,1.88331259
5b0dfcef9663ee000145af34,64,1,2024-02-28T18:06:27.629Z,english_88.wav,0,pill,849,24,5,4,English,f,0,0.0,-71.9844785,0.53660294
5b0dfcef9663ee000145af34,64,1,2024-02-28T18:06:27.629Z,english_88.wav,0,pill,849,24,5,4,English,f,1,0.1,-49.01939905,1.47642874
5b0dfcef9663ee000145af34,64,1,2024-02-28T18:06:27.629Z,english_88.wav,0,pill,849,24,5,4,English,f,2,0.2,50.12381506,0.52511459
