subj,trial,block,date,stim,stim_order,response,rt,age,english,french,language,sex,param_index,segment,pitch,stretch
65dcfc8cb5a870c7880bd8cc,0,0,2024-02-28T14:39:03.585Z,english_294.wav,0,pill,7964,47,5,4,english,m,0,0.0,-35.26170476,0.76895084
65dcfc8cb5a870c7880bd8cc,0,0,2024-02-28T14:39:03.585Z,english_294.wav,0,pill,7964,47,5,4,english,m,1,0.1,-68.79847515,0.42345848
65dcfc8cb5a870c7880bd8cc,0,0,2024-02-28T14:39:03.585Z,english_294.wav,0,pill,7964,47,5,4,english,m,2,0.2,21.65443345,1.88759315
65dcfc8cb5a870c7880bd8cc,0,0,2024-02-28T14:39:03.585Z,english_294.wav,0,pill,7964,47,5,4,english,m,3,0.3,18.61336719,0.20743541
65dcfc8cb5a870c7880bd8cc,0,0,2024-02-28T14:39:03.585Z,english_294.wav,0,pill,7964,47,5,4,english,m,4,0.4,29.14118392,0.10193981
65dcfc8cb5a870c7880bd8cc,0,0,2024-02-28T14:39:03.585Z,english_294.wav,0,pill,7964,47,5,4,english,m,5,0.5,-0.79474297,0.31438326
65dcfc8cb5a870c7880bd8cc,0,0,2024-02-28T14:39:03.585Z,english_294.wav,0,pill,7964,47,5,4,english,m,6,0.6,-83.10715175,1.2995954
65dcfc8cb5a870c7880bd8cc,0,0,2024-02-28T14:39:03.585Z,english_294.wav,0,pill,7964,47,5,4,english,m,7,0.7,-22.63410673,1.94703728
65dcfc8cb5a870c7880bd8cc,0,0,2024-02-28T14:39:03.585Z,english_294.wav,0,pill,7964,47,5,4,english,m,8,0.8,-21.26415856,0.92366458
65dcfc8cb5a870c7880bd8cc,0,0,2024-02-28T14:39:03.585Z,english_294.wav,0,pill,7964,47,5,4,english,m,9,0.9,47.90727918,1.04223302
65dcfc8cb5a870c7880bd8cc,0,0,2024-02-28T14:39:03.585Z,english_294.wav,0,pill,7964,47,5,4,english,m,10,1.0,-39.88232682,1.01801331
65dcfc8cb5a870c7880bd8cc,0,0,2024-02-28T14:39:03.585Z,english_294.wav,0,pill,7964,47,5,4,english,m,11,1.09391667,-74.09279353,0.911147
65dcfc8cb5a870c7880bd8cc,1,0,2024-02-28T14:39:03.585Z,english_36.wav,0,pill,2393,47,5,4,english,m,0,0.0,-9.00477988,0.81327237
65dcfc8cb5a870c7880bd8cc,1,0,2024-02-28T14:39:03.585Z,english_36.wav,0,pill,2393,47,5,4,english,m,1,0.1,-13.45702302,0.45075004
65dcfc8cb5a870c7880bd8cc,1,0,2024-02-28T14:39:03.585Z,english_36.wav,0,pill,2393,47,5,4,english,m,2,0.2,-2.81727849,0.1663237
65dcfc8cb5a870c7880bd8cc,1,0,2024-02-28T14:39:03.585Z,english_36.wav,0,pill,2393,47,5,4,english,m,3,0.3,-29.71164893,1.57862109
65dcfc8cb5a870c7880bd8cc,1,0,2024-02-28T14:39:03.585Z,english_36.wav,0,pill,2393,47,5,4,english,m,4,0.4,95.72220786,1.7254824
65dcfc8cb5a870c7880bd8cc,1,0,2024-02-28T14:39:03.585Z,english_36.wav,0,pill,2393,47,5,4,english,m,5,0.5,-60.23405317,1.10066579
65dcfc8cb5a870c7880bd8cc,1,0,2024-02-28T14:39:03.585Z,english_36.wav,0,pill,2393,47,5,4,english,m,6,0.6,-99.2529621,0.59792659
65dcfc8cb5a870c7880bd8cc,1,0,2024-02-28T14:39:03.585Z,english_36.wav,0,pill,2393,47,5,4,english,m,7,0.7,-7.64791957,1.42084394
65dcfc8cb5a870c7880bd8cc,1,0,2024-02-28T14:39:03.585Z,english_36.wav,0,pill,2393,47,5,4,english,m,8,0.8,-68.45334788,0.87400001
65dcfc8cb5a870c7880bd8cc,1,0,2024-02-28T14:39:03.585Z,english_36.wav,0,pill,2393,47,5,4,english,m,9,0.9,91.90753039,1.522223
65dcfc8cb5a870c7880bd8cc,1,0,2024-02-28T14:39:03.585Z,english_36.wav,0,pill,2393,47,5,4,english,m,10,1.0,93.40110395,0.56951468
65dcfc8cb5a870c7880bd8cc,1,0,2024-02-28T14:39:03.585Z,english_36.wav,0,pill,2393,47,5,4,english,m,11,1.09391667,-27.95691035,1.01798822
65dcfc8cb5a870c7880bd8cc,2,0,2024-02-28T14:39:03.585Z,english_118.wav,0,peel,3606,47,5,4,english,m,0,0.0,37.82351895,1.3762948
65dcfc8cb5a870c7880bd8cc,2,0,2024-02-28T14:39:03.585Z,english_118.wav,0,peel,3606,47,5,4,english,m,1,0.1,-67.70818615,0.33841533
65dcfc8cb5a870c7880bd8cc,2,0,2024-02-28T14:39:03.585Z,english_118.wav,0,peel,3606,47,5,4,english,m,2,0.2,68.69944334,0.45852716
65dcfc8cb5a870c7880bd8cc,2,0,2024-02-28T14:39:03.585Z,english_118.wav,0,peel,3606,47,5,4,english,m,3,0.3,52.36371426,1.7289391
65dcfc8cb5a870c7880bd8cc,2,0,2024-02-28T14:39:03.585Z,english_118.wav,0,peel,3606,47,5,4,english,m,4,0.4,75.26535893,1.37893215
65dcfc8cb5a870c7880bd8cc,2,0,2024-02-28T14:39:03.585Z,english_118.wav,0,peel,3606,47,5,4,english,m,5,0.5,-76.41094454,1.61108602
65dcfc8cb5a870c7880bd8cc,2,0,2024-02-28T14:39:03.585Z,english_118.wav,0,peel,3606,47,5,4,english,m,6,0.6,0.45465547,0.84685901
65dcfc8cb5a870c7880bd8cc,2,0,2024-02-28T14:39:03.585Z,english_118.wav,0,peel,3606,47,5,4,english,m,7,0.7,55.44753482,1.08403972
65dcfc8cb5a870c7880bd8cc,2,0,2024-02-28T14:39:03.585Z,english_118.wav,0,peel,3606,47,5,4,english,m,8,0.8,-53.17394643,0.42004792
65dcfc8cb5a870c7880bd8cc,2,0,2024-02-28T14:39:03.585Z,english_118.wav,0,peel,3606,47,5,4,english,m,9,0.9,-98.70911392,0.56823128
65dcfc8cb5a870c7880bd8cc,2,0,2024-02-28T14:39:03.585Z,english_118.wav,0,peel,3606,47,5,4,english,m,10,1.0,-4.73000909,1.43622179
65dcfc8cb5a870c7880bd8cc,2,0,2024-02-28T14:39:03.585Z,english_118.wav,0,peel,3606,47,5,4,english,m,11,1.09391667,-39.29610214,1.0044269
65dcfc8cb5a870c7880bd8cc,3,0,2024-02-28T14:39:03.585Z,english_100.wav,0,pill,3461,47,5,4,english,m,0,0.0,-24.42637315,0.62540921
65dcfc8cb5a870c7880bd8cc,3,0,2024-02-28T14:39:03.585Z,english_100.wav,0,pill,3461,47,5,4,english,m,1,0.1,47.77288594,1.22625666
65dcfc8cb5a870c7880bd8cc,3,0,2024-02-28T14:39:03.585Z,english_100.wav,0,pill,3461,47,5,4,english,m,2,0.2,-50.36782497,1.26348183
65dcfc8cb5a870c7880bd8cc,3,0,2024-02-28T14:39:03.585Z,english_100.wav,0,pill,3461,47,5,4,english,m,3,0.3,2.2842979,0.25528387
65dcfc8cb5a870c7880bd8cc,3,0,2024-02-28T14:39:03.585Z,english_100.wav,0,pill,3461,47,5,4,english,m,4,0.4,-15.6809061,0.91288523
65dcfc8cb5a870c7880bd8cc,3,0,2024-02-28T14:39:03.585Z,english_100.wav,0,pill,3461,47,5,4,english,m,5,0.5,12.92206519,1.75475855
65dcfc8cb5a870c7880bd8cc,3,0,2024-02-28T14:39:03.585Z,english_100.wav,0,pill,3461,47,5,4,english,m,6,0.6,58.2816769,1.62969237
65dcfc8cb5a870c7880bd8cc,3,0,2024-02-28T14:39:03.585Z,english_100.wav,0,pill,3461,47,5,4,english,m,7,0.7,48.23099815,0.00541247
65dcfc8cb5a870c7880bd8cc,3,0,2024-02-28T14:39:03.585Z,english_100.wav,0,pill,3461,47,5,4,english,m,8,0.8,-72.65138159,0.94746335
65dcfc8cb5a870c7880bd8cc,3,0,2024-02-28T14:39:03.585Z,english_100.wav,0,pill,3461,47,5,4,english,m,9,0.9,22.56578389,0.25544392
65dcfc8cb5a870c7880bd8cc,3,0,2024-02-28T14:39:03.585Z,english_100.wav,0,pill,3461,47,5,4,english,m,10,1.0,5.8175855,1.63729526
65dcfc8cb5a870c7880bd8cc,3,0,2024-02-28T14:39:03.585Z,english_100.wav,0,pill,3461,47,5,4,english,m,11,1.09391667,54.85953581,1.97415754
65dcfc8cb5a870c7880bd8cc,4,0,2024-02-28T14:39:03.585Z,english_525.wav,0,peel,1079,47,5,4,english,m,0,0.0,-85.30144906,1.21891661
65dcfc8cb5a870c7880bd8cc,4,0,2024-02-28T14:39:03.585Z,english_525.wav,0,peel,1079,47,5,4,english,m,1,0.1,40.69478692,0.63566771
65dcfc8cb5a870c7880bd8cc,4,0,2024-02-28T14:39:03.585Z,english_525.wav,0,peel,1079,47,5,4,english,m,2,0.2,27.58167259,1.09185932
65dcfc8cb5a870c7880bd8cc,4,0,2024-02-28T14:39:03.585Z,english_525.wav,0,peel,1079,47,5,4,english,m,3,0.3,-9.65414258,1.3630453
65dcfc8cb5a870c7880bd8cc,4,0,2024-02-28T14:39:03.585Z,english_525.wav,0,peel,1079,47,5,4,english,m,4,0.4,-92.26214691,0.47547332
65dcfc8cb5a870c7880bd8cc,4,0,2024-02-28T14:39:03.585Z,english_525.wav,0,peel,1079,47,5,4,english,m,5,0.5,1.87368715,0.98334241
65dcfc8cb5a870c7880bd8cc,4,0,2024-02-28T14:39:03.585Z,english_525.wav,0,peel,1079,47,5,4,english,m,6,0.6,84.67723439,1.24273573
65dcfc8cb5a870c7880bd8cc,4,0,2024-02-28T14:39:03.585Z,english_525.wav,0,peel,1079,47,5,4,english,m,7,0.7,-37.99334031,1.29787156
65dcfc8cb5a870c7880bd8cc,4,0,2024-02-28T14:39:03.585Z,english_525.wav,0,peel,1079,47,5,4,english,m,8,0.8,91.90351479,1.39013402
65dcfc8cb5a870c7880bd8cc,4,0,2024-02-28T14:39:03.585Z,english_525.wav,0,peel,1079,47,5,4,english,m,9,0.9,51.5107545,0.19016555
65dcfc8cb5a870c7880bd8cc,4,0,2024-02-28T14:39:03.585Z,english_525.wav,0,peel,1079,47,5,4,english,m,10,1.0,-23.16743883,0.57102757
65dcfc8cb5a870c7880bd8cc,4,0,2024-02-28T14:39:03.585Z,english_525.wav,0,peel,1079,47,5,4,english,m,11,1.09391667,-40.96893152,0.41777753
65dcfc8cb5a870c7880bd8cc,5,0,2024-02-28T14:39:03.585Z,english_971.wav,0,pill,3125,47,5,4,english,m,0,0.0,21.92702064,0.459047
65dcfc8cb5a870c7880bd8cc,5,0,2024-02-28T14:39:03.585Z,english_971.wav,0,pill,3125,47,5,4,english,m,1,0.1,-53.27203396,0.06454192
65dcfc8cb5a870c7880bd8cc,5,0,2024-02-28T14:39:03.585Z,english_971.wav,0,pill,3125,47,5,4,english,m,2,0.2,16.04080675,1.47088252
65dcfc8cb5a870c7880bd8cc,5,0,2024-02-28T14:39:03.585Z,english_971.wav,0,pill,3125,47,5,4,english,m,3,0.3,-93.72897718,0.63214126
65dcfc8cb5a870c7880bd8cc,5,0,2024-02-28T14:39:03.585Z,english_971.wav,0,pill,3125,47,5,4,english,m,4,0.4,76.75922717,0.53041825
65dcfc8cb5a870c7880bd8cc,5,0,2024-02-28T14:39:03.585Z,english_971.wav,0,pill,3125,47,5,4,english,m,5,0.5,2.23154985,0.36671068
65dcfc8cb5a870c7880bd8cc,5,0,2024-02-28T14:39:03.585Z,english_971.wav,0,pill,3125,47,5,4,english,m,6,0.6,57.16774736,0.84112941
65dcfc8cb5a870c7880bd8cc,5,0,2024-02-28T14:39:03.585Z,english_971.wav,0,pill,3125,47,5,4,english,m,7,0.7,-66.3096603,0.93270713
65dcfc8cb5a870c7880bd8cc,5,0,2024-02-28T14:39:03.585Z,english_971.wav,0,pill,3125,47,5,4,english,m,8,0.8,-54.36784686,0.0064824
65dcfc8cb5a870c7880bd8cc,5,0,2024-02-28T14:39:03.585Z,english_971.wav,0,pill,3125,47,5,4,english,m,9,0.9,31.74688825,0.04508119
65dcfc8cb5a870c7880bd8cc,5,0,2024-02-28T14:39:03.585Z,english_971.wav,0,pill,3125,47,5,4,english,m,10,1.0,-41.88838509,1.17781348
65dcfc8cb5a870c7880bd8cc,5,0,2024-02-28T14:39:03.585Z,english_971.wav,0,pill,3125,47,5,4,english,m,11,1.09391667,-46.11178706,0.19249934
65dcfc8cb5a870c7880bd8cc,6,0,2024-02-28T14:39:03.585Z,english_849.wav,0,peel,1581,47,5,4,english,m,0,0.0,3.14918828,0.91646938
65dcfc8cb5a870c7880bd8cc,6,0,2024-02-28T14:39:03.585Z,english_849.wav,0,peel,1581,47,5,4,english,m,1,0.1,-23.77765777,0.05935653
65dcfc8cb5a870c7880bd8cc,6,0,2024-02-28T14:39:03.585Z,english_849.wav,0,peel,1581,47,5,4,english,m,2,0.2,33.06216364,1.47739407
65dcfc8cb5a870c7880bd8cc,6,0,2024-02-28T14:39:03.585Z,english_849.wav,0,peel,1581,47,5,4,english,m,3,0.3,-62.11705981,0.33072981
65dcfc8cb5a870c7880bd8cc,6,0,2024-02-28T14:39:03.585Z,english_849.wav,0,peel,1581,47,5,4,english,m,4,0.4,7.17201603,0.11578877
65dcfc8cb5a870c7880bd8cc,6,0,2024-02-28T14:39:03.585Z,english_849.wav,0,peel,1581,47,5,4,english,m,5,0.5,-75.75571993,1.27391033
65dcfc8cb5a870c7880bd8cc,6,0,2024-02-28T14:39:03.585Z,english_849.wav,0,peel,1581,47,5,4,english,m,6,0.6,-11.73418988,0.32212457
65dcfc8cb5a870c7880bd8cc,6,0,2024-02-28T14:39:03.585Z,english_849.wav,0,peel,1581,47,5,4,english,m,7,0.7,-67.42384643,1.51956894
65dcfc8cb5a870c7880bd8cc,6,0,2024-02-28T14:39:03.585Z,english_849.wav,0,peel,1581,47,5,4,english,m,8,0.8,50.24136352,0.3318501
65dcfc8cb5a870c7880bd8cc,6,0,2024-02-28T14:39:03.585Z,english_849.wav,0,peel,1581,47,5,4,english,m,9,0.9,-60.42241677,0.78089197
65dcfc8cb5a870c7880bd8cc,6,0,2024-02-28T14:39:03.585Z,english_849.wav,0,peel,1581,47,5,4,english,m,10,1.0,70.30658547,0.6122717
65dcfc8cb5a870c7880bd8cc,6,0,2024-02-28T14:39:03.585Z,english_849.wav,0,peel,1581,47,5,4,english,m,11,1.09391667,-8.44903954,1.08036793
65dcfc8cb5a870c7880bd8cc,7,0,2024-02-28T14:39:03.585Z,english_853.wav,0,peel,3212,47,5,4,english,m,0,0.0,73.80957671,0.26230627
65dcfc8cb5a870c7880bd8cc,7,0,2024-02-28T14:39:03.585Z,english_853.wav,0,peel,3212,47,5,4,english,m,1,0.1,37.61319896,1.27859335
65dcfc8cb5a870c7880bd8cc,7,0,2024-02-28T14:39:03.585Z,english_853.wav,0,peel,3212,47,5,4,english,m,2,0.2,66.36541624,1.90614201
65dcfc8cb5a870c7880bd8cc,7,0,2024-02-28T14:39:03.585Z,english_853.wav,0,peel,3212,47,5,4,english,m,3,0.3,52.83840981,1.77793473
65dcfc8cb5a870c7880bd8cc,7,0,2024-02-28T14:39:03.585Z,english_853.wav,0,peel,3212,47,5,4,english,m,4,0.4,-44.13201993,1.82128224
65dcfc8cb5a870c7880bd8cc,7,0,2024-02-28T14:39:03.585Z,english_853.wav,0,peel,3212,47,5,4,english,m,5,0.5,78.92983873,0.37682562
65dcfc8cb5a870c7880bd8cc,7,0,2024-02-28T14:39:03.585Z,english_853.wav,0,peel,3212,47,5,4,english,m,6,0.6,81.37511439,0.77805764
65dcfc8cb5a870c7880bd8cc,7,0,2024-02-28T14:39:03.585Z,english_853.wav,0,peel,3212,47,5,4,english,m,7,0.7,-17.4677503,1.13496325
65dcfc8cb5a870c7880bd8cc,7,0,2024-02-28T14:39:03.585Z,english_853.wav,0,peel,3212,47,5,4,english,m,8,0.8,-1.76399053,0.96839897
65dcfc8cb5a870c7880bd8cc,7,0,2024-02-28T14:39:03.585Z,english_853.wav,0,peel,3212,47,5,4,english,m,9,0.9,46.72276769,1.53181919
65dcfc8cb5a870c7880bd8cc,7,0,2024-02-28T14:39:03.585Z,english_853.wav,0,peel,3212,47,5,4,english,m,10,1.0,-99.76046779,0.67948754
65dcfc8cb5a870c7880bd8cc,7,0,2024-02-28T14:39:03.585Z,english_853.wav,0,peel,3212,47,5,4,english,m,11,1.09391667,-16.24419339,1.26605171
65dcfc8cb5a870c7880bd8cc,8,0,2024-02-28T14:39:03.585Z,english_660.wav,0,pill,5989,47,5,4,english,m,0,0.0,-6.98483794,0.74998418
65dcfc8cb5a870c7880bd8cc,8,0,2024-02-28T14:39:03.585Z,english_660.wav,0,pill,5989,47,5,4,english,m,1,0.1,-19.91361353,1.44180771
65dcfc8cb5a870c7880bd8cc,8,0,2024-02-28T14:39:03.585Z,english_660.wav,0,pill,5989,47,5,4,english,m,2,0.2,78.11411012,1.86148363
65dcfc8cb5a870c7880bd8cc,8,0,2024-02-28T14:39:03.585Z,english_660.wav,0,pill,5989,47,5,4,english,m,3,0.3,31.9686312,0.29878934
65dcfc8cb5a870c7880bd8cc,8,0,2024-02-28T14:39:03.585Z,english_660.wav,0,pill,5989,47,5,4,english,m,4,0.4,59.3000475,0.70934132
65dcfc8cb5a870c7880bd8cc,8,0,2024-02-28T14:39:03.585Z,english_660.wav,0,pill,5989,47,5,4,english,m,5,0.5,-70.43888588,1.90119169
65dcfc8cb5a870c7880bd8cc,8,0,2024-02-28T14:39:03.585Z,english_660.wav,0,pill,5989,47,5,4,english,m,6,0.6,-20.07366552,0.76680768
65dcfc8cb5a870c7880bd8cc,8,0,2024-02-28T14:39:03.585Z,english_660.wav,0,pill,5989,47,5,4,english,m,7,0.7,-55.63699673,0.42211173
65dcfc8cb5a870c7880bd8cc,8,0,2024-02-28T14:39:03.585Z,english_660.wav,0,pill,5989,47,5,4,english,m,8,0.8,-98.18697012,0.44483448
65dcfc8cb5a870c7880bd8cc,8,0,2024-02-28T14:39:03.585Z,english_660.wav,0,pill,5989,47,5,4,english,m,9,0.9,13.89215317,1.66618929
65dcfc8cb5a870c7880bd8cc,8,0,2024-02-28T14:39:03.585Z,english_660.wav,0,pill,5989,47,5,4,english,m,10,1.0,-7.40212614,0.443528
65dcfc8cb5a870c7880bd8cc,8,0,2024-02-28T14:39:03.585Z,english_660.wav,0,pill,5989,47,5,4,english,m,11,1.09391667,28.56237553,1.27514236
65dcfc8cb5a870c7880bd8cc,9,0,2024-02-28T14:39:03.585Z,english_714.wav,0,peel,3989,47,5,4,english,m,0,0.0,79.0390651,0.49033963
65dcfc8cb5a870c7880bd8cc,9,0,2024-02-28T14:39:03.585Z,english_714.wav,0,peel,3989,47,5,4,english,m,1,0.1,36.23720606,1.92693389
65dcfc8cb5a870c7880bd8cc,9,0,2024-02-28T14:39:03.585Z,english_714.wav,0,peel,3989,47,5,4,english,m,2,0.2,59.88505324,0.63464649
65dcfc8cb5a870c7880bd8cc,9,0,2024-02-28T14:39:03.585Z,english_714.wav,0,peel,3989,47,5,4,english,m,3,0.3,35.79437608,0.92002545
65dcfc8cb5a870c7880bd8cc,9,0,2024-02-28T14:39:03.585Z,english_714.wav,0,peel,3989,47,5,4,english,m,4,0.4,1.83402307,0.7042678
65dcfc8cb5a870c7880bd8cc,9,0,2024-02-28T14:39:03.585Z,english_714.wav,0,peel,3989,47,5,4,english,m,5,0.5,73.3370193,0.59965101
65dcfc8cb5a870c7880bd8cc,9,0,2024-02-28T14:39:03.585Z,english_714.wav,0,peel,3989,47,5,4,english,m,6,0.6,-82.63220087,0.57753473
65dcfc8cb5a870c7880bd8cc,9,0,2024-02-28T14:39:03.585Z,english_714.wav,0,peel,3989,47,5,4,english,m,7,0.7,49.23957633,1.31617156
65dcfc8cb5a870c7880bd8cc,9,0,2024-02-28T14:39:03.585Z,english_714.wav,0,peel,3989,47,5,4,english,m,8,0.8,10.5160274,1.11503481
65dcfc8cb5a870c7880bd8cc,9,0,2024-02-28T14:39:03.585Z,english_714.wav,0,peel,3989,47,5,4,english,m,9,0.9,-94.9780405,1.71749538
65dcfc8cb5a870c7880bd8cc,9,0,2024-02-28T14:39:03.585Z,english_714.wav,0,peel,3989,47,5,4,english,m,10,1.0,20.48401592,0.94991936
65dcfc8cb5a870c7880bd8cc,9,0,2024-02-28T14:39:03.585Z,english_714.wav,0,peel,3989,47,5,4,english,m,11,1.09391667,-2.68158482,0.61904564
65dcfc8cb5a870c7880bd8cc,10,0,2024-02-28T14:39:03.585Z,english_347.wav,0,pill,2435,47,5,4,english,m,0,0.0,-77.92779138,1.02669822
65dcfc8cb5a870c7880bd8cc,10,0,2024-02-28T14:39:03.585Z,english_347.wav,0,pill,2435,47,5,4,english,m,1,0.1,-64.69220677,0.41696548
65dcfc8cb5a870c7880bd8cc,10,0,2024-02-28T14:39:03.585Z,english_347.wav,0,pill,2435,47,5,4,english,m,2,0.2,-52.71418659,1.03112891
65dcfc8cb5a870c7880bd8cc,10,0,2024-02-28T14:39:03.585Z,english_347.wav,0,pill,2435,47,5,4,english,m,3,0.3,63.39772469,0.20004082
65dcfc8cb5a870c7880bd8cc,10,0,2024-02-28T14:39:03.585Z,english_347.wav,0,pill,2435,47,5,4,english,m,4,0.4,28.65691045,0.24296187
65dcfc8cb5a870c7880bd8cc,10,0,2024-02-28T14:39:03.585Z,english_347.wav,0,pill,2435,47,5,4,english,m,5,0.5,-54.91733511,0.01939813
65dcfc8cb5a870c7880bd8cc,10,0,2024-02-28T14:39:03.585Z,english_347.wav,0,pill,2435,47,5,4,english,m,6,0.6,28.83719113,1.71588951
65dcfc8cb5a870c7880bd8cc,10,0,2024-02-28T14:39:03.585Z,english_347.wav,0,pill,2435,47,5,4,english,m,7,0.7,71.325035,0.13307252
65dcfc8cb5a870c7880bd8cc,10,0,2024-02-28T14:39:03.585Z,english_347.wav,0,pill,2435,47,5,4,english,m,8,0.8,64.29714523,0.90631223
65dcfc8cb5a870c7880bd8cc,10,0,2024-02-28T14:39:03.585Z,english_347.wav,0,pill,2435,47,5,4,english,m,9,0.9,-52.51835147,1.74084271
65dcfc8cb5a870c7880bd8cc,10,0,2024-02-28T14:39:03.585Z,english_347.wav,0,pill,2435,47,5,4,english,m,10,1.0,-41.65784487,0.63465457
65dcfc8cb5a870c7880bd8cc,10,0,2024-02-28T14:39:03.585Z,english_347.wav,0,pill,2435,47,5,4,english,m,11,1.09391667,-56.27332848,1.27137416
65dcfc8cb5a870c7880bd8cc,11,0,2024-02-28T14:39:03.585Z,english_432.wav,0,peel,753,47,5,4,english,m,0,0.0,28.49955807,0.25208372
65dcfc8cb5a870c7880bd8cc,11,0,2024-02-28T14:39:03.585Z,english_432.wav,0,peel,753,47,5,4,english,m,1,0.1,-31.8275444,0.73448825
65dcfc8cb5a870c7880bd8cc,11,0,2024-02-28T14:39:03.585Z,english_432.wav,0,peel,753,47,5,4,english,m,2,0.2,24.24217544,0.75780001
65dcfc8cb5a870c7880bd8cc,11,0,2024-02-28T14:39:03.585Z,english_432.wav,0,peel,753,47,5,4,english,m,3,0.3,-66.09269444,1.1180686
65dcfc8cb5a870c7880bd8cc,11,0,2024-02-28T14:39:03.585Z,english_432.wav,0,peel,753,47,5,4,english,m,4,0.4,-62.15798019,1.06816696
65dcfc8cb5a870c7880bd8cc,11,0,2024-02-28T14:39:03.585Z,english_432.wav,0,peel,753,47,5,4,english,m,5,0.5,-49.72154406,0.60613643
65dcfc8cb5a870c7880bd8cc,11,0,2024-02-28T14:39:03.585Z,english_432.wav,0,peel,753,47,5,4,english,m,6,0.6,-47.69762913,0.58276722
65dcfc8cb5a870c7880bd8cc,11,0,2024-02-28T14:39:03.585Z,english_432.wav,0,peel,753,47,5,4,english,m,7,0.7,77.36626765,1.4653334
65dcfc8cb5a870c7880bd8cc,11,0,2024-02-28T14:39:03.585Z,english_432.wav,0,peel,753,47,5,4,english,m,8,0.8,5.83013874,1.3937813
65dcfc8cb5a870c7880bd8cc,11,0,2024-02-28T14:39:03.585Z,english_432.wav,0,peel,753,47,5,4,english,m,9,0.9,28.26329168,1.50157436
65dcfc8cb5a870c7880bd8cc,11,0,2024-02-28T14:39:03.585Z,english_432.wav,0,peel,753,47,5,4,english,m,10,1.0,-41.71680011,1.14185861
65dcfc8cb5a870c7880bd8cc,11,0,2024-02-28T14:39:03.585Z,english_432.wav,0,peel,753,47,5,4,english,m,11,1.09391667,67.89473062,1.59474316
65dcfc8cb5a870c7880bd8cc,12,0,2024-02-28T14:39:03.585Z,english_242.wav,0,peel,1448,47,5,4,english,m,0,0.0,-30.80596233,1.80753385
65dcfc8cb5a870c7880bd8cc,12,0,2024-02-28T14:39:03.585Z,english_242.wav,0,peel,1448,47,5,4,english,m,1,0.1,81.43519329,0.97833747
65dcfc8cb5a870c7880bd8cc,12,0,2024-02-28T14:39:03.585Z,english_242.wav,0,peel,1448,47,5,4,english,m,2,0.2,0.15400576,1.3926845
65dcfc8cb5a870c7880bd8cc,12,0,2024-02-28T14:39:03.585Z,english_242.wav,0,peel,1448,47,5,4,english,m,3,0.3,-28.81783402,1.42545381
65dcfc8cb5a870c7880bd8cc,12,0,2024-02-28T14:39:03.585Z,english_242.wav,0,peel,1448,47,5,4,english,m,4,0.4,-61.37671682,0.1849233
65dcfc8cb5a870c7880bd8cc,12,0,2024-02-28T14:39:03.585Z,english_242.wav,0,peel,1448,47,5,4,english,m,5,0.5,91.85520167,1.35548931
65dcfc8cb5a870c7880bd8cc,12,0,2024-02-28T14:39:03.585Z,english_242.wav,0,peel,1448,47,5,4,english,m,6,0.6,-31.54320731,1.15661389
65dcfc8cb5a870c7880bd8cc,12,0,2024-02-28T14:39:03.585Z,english_242.wav,0,peel,1448,47,5,4,english,m,7,0.7,-13.97670537,1.66148537
65dcfc8cb5a870c7880bd8cc,12,0,2024-02-28T14:39:03.585Z,english_242.wav,0,peel,1448,47,5,4,english,m,8,0.8,70.42044267,1.4780344
65dcfc8cb5a870c7880bd8cc,12,0,2024-02-28T14:39:03.585Z,english_242.wav,0,peel,1448,47,5,4,english,m,9,0.9,-90.04203145,1.37692841
65dcfc8cb5a870c7880bd8cc,12,0,2024-02-28T14:39:03.585Z,english_242.wav,0,peel,1448,47,5,4,english,m,10,1.0,-39.83004077,0.38948234
65dcfc8cb5a870c7880bd8cc,12,0,2024-02-28T14:39:03.585Z,english_242.wav,0,peel,1448,47,5,4,english,m,11,1.09391667,-14.25442636,1.25473686
65dcfc8cb5a870c7880bd8cc,13,0,2024-02-28T14:39:03.585Z,english_107.wav,0,peel,877,47,5,4,english,m,0,0.0,14.75106281,1.14538344
65dcfc8cb5a870c7880bd8cc,13,0,2024-02-28T14:39:03.585Z,english_107.wav,0,peel,877,47,5,4,english,m,1,0.1,61.55616618,1.63691709
65dcfc8cb5a870c7880bd8cc,13,0,2024-02-28T14:39:03.585Z,english_107.wav,0,peel,877,47,5,4,english,m,2,0.2,-53.67988365,1.34954163
65dcfc8cb5a870c7880bd8cc,13,0,2024-02-28T14:39:03.585Z,english_107.wav,0,peel,877,47,5,4,english,m,3,0.3,-26.40552644,0.87865188
65dcfc8cb5a870c7880bd8cc,13,0,2024-02-28T14:39:03.585Z,english_107.wav,0,peel,877,47,5,4,english,m,4,0.4,-39.74978172,0.87105183
65dcfc8cb5a870c7880bd8cc,13,0,2024-02-28T14:39:03.585Z,english_107.wav,0,peel,877,47,5,4,english,m,5,0.5,59.30152115,0.97837698
65dcfc8cb5a870c7880bd8cc,13,0,2024-02-28T14:39:03.585Z,english_107.wav,0,peel,877,47,5,4,english,m,6,0.6,47.78500901,0.24331513
65dcfc8cb5a870c7880bd8cc,13,0,2024-02-28T14:39:03.585Z,english_107.wav,0,peel,877,47,5,4,english,m,7,0.7,-56.28829924,1.31332622
65dcfc8cb5a870c7880bd8cc,13,0,2024-02-28T14:39:03.585Z,english_107.wav,0,peel,877,47,5,4,english,m,8,0.8,-27.92998764,1.65018095
65dcfc8cb5a870c7880bd8cc,13,0,2024-02-28T14:39:03.585Z,english_107.wav,0,peel,877,47,5,4,english,m,9,0.9,-79.09348068,0.9374591
65dcfc8cb5a870c7880bd8cc,13,0,2024-02-28T14:39:03.585Z,english_107.wav,0,peel,877,47,5,4,english,m,10,1.0,-12.41548757,1.20965119
65dcfc8cb5a870c7880bd8cc,13,0,2024-02-28T14:39:03.585Z,english_107.wav,0,peel,877,47,5,4,english,m,11,1.09391667,52.16057728,1.85980397
65dcfc8cb5a870c7880bd8cc,14,0,2024-02-28T14:39:03.585Z,english_694.wav,0,peel,609,47,5,4,english,m,0,0.0,28.89643962,0.23097519
65dcfc8cb5a870c7880bd8cc,14,0,2024-02-28T14:39:03.585Z,english_694.wav,0,peel,609,47,5,4,english,m,1,0.1,-44.49941165,1.12594213
65dcfc8cb5a870c7880bd8cc,14,0,2024-02-28T14:39:03.585Z,english_694.wav,0,peel,609,47,5,4,english,m,2,0.2,60.6754056,1.01502789
65dcfc8cb5a870c7880bd8cc,14,0,2024-02-28T14:39:03.585Z,english_694.wav,0,peel,609,47,5,4,english,m,3,0.3,72.66869222,0.55545347
65dcfc8cb5a870c7880bd8cc,14,0,2024-02-28T14:39:03.585Z,english_694.wav,0,peel,609,47,5,4,english,m,4,0.4,26.91102981,0.313515
65dcfc8cb5a870c7880bd8cc,14,0,2024-02-28T14:39:03.585Z,english_694.wav,0,peel,609,47,5,4,english,m,5,0.5,-19.36398165,0.8133174
65dcfc8cb5a870c7880bd8cc,14,0,2024-02-28T14:39:03.585Z,english_694.wav,0,peel,609,47,5,4,english,m,6,0.6,83.61982614,0.08479119
65dcfc8cb5a870c7880bd8cc,14,0,2024-02-28T14:39:03.585Z,english_694.wav,0,peel,609,47,5,4,english,m,7,0.7,-93.83830037,1.36590055
65dcfc8cb5a870c7880bd8cc,14,0,2024-02-28T14:39:03.585Z,english_694.wav,0,peel,609,47,5,4,english,m,8,0.8,-41.75440855,1.50882856
65dcfc8cb5a870c7880bd8cc,14,0,2024-02-28T14:39:03.585Z,english_694.wav,0,peel,609,47,5,4,english,m,9,0.9,-17.17525064,1.54263899
65dcfc8cb5a870c7880bd8cc,14,0,2024-02-28T14:39:03.585Z,english_694.wav,0,peel,609,47,5,4,english,m,10,1.0,5.88397372,1.28663395
65dcfc8cb5a870c7880bd8cc,14,0,2024-02-28T14:39:03.585Z,english_694.wav,0,peel,609,47,5,4,english,m,11,1.09391667,84.29938157,0.05122723
65dcfc8cb5a870c7880bd8cc,15,0,2024-02-28T14:39:03.585Z,english_403.wav,0,pill,2305,47,5,4,english,m,0,0.0,0.0155370236,1.50775741
65dcfc8cb5a870c7880bd8cc,15,0,2024-02-28T14:39:03.585Z,english_403.wav,0,pill,2305,47,5,4,english,m,1,0.1,-4.64270355,1.88632048
65dcfc8cb5a870c7880bd8cc,15,0,2024-02-28T14:39:03.585Z,english_403.wav,0,pill,2305,47,5,4,english,m,2,0.2,-86.7611077,1.79027228
65dcfc8cb5a870c7880bd8cc,15,0,2024-02-28T14:39:03.585Z,english_403.wav,0,pill,2305,47,5,4,english,m,3,0.3,-86.6854854,0.9708058
65dcfc8cb5a870c7880bd8cc,15,0,2024-02-28T14:39:03.585Z,english_403.wav,0,pill,2305,47,5,4,english,m,4,0.4,-74.3205589,1.26833926
65dcfc8cb5a870c7880bd8cc,15,0,2024-02-28T14:39:03.585Z,english_403.wav,0,pill,2305,47,5,4,english,m,5,0.5,56.1207621,0.98662828
65dcfc8cb5a870c7880bd8cc,15,0,2024-02-28T14:39:03.585Z,english_403.wav,0,pill,2305,47,5,4,english,m,6,0.6,15.0235235,1.65364002
65dcfc8cb5a870c7880bd8cc,15,0,2024-02-28T14:39:03.585Z,english_403.wav,0,pill,2305,47,5,4,english,m,7,0.7,25.8783198,1.52514764
65dcfc8cb5a870c7880bd8cc,15,0,2024-02-28T14:39:03.585Z,english_403.wav,0,pill,2305,47,5,4,english,m,8,0.8,21.3726461,1.10599603
65dcfc8cb5a870c7880bd8cc,15,0,2024-02-28T14:39:03.585Z,english_403.wav,0,pill,2305,47,5,4,english,m,9,0.9,86.9816794,1.01372586
65dcfc8cb5a870c7880bd8cc,15,0,2024-02-28T14:39:03.585Z,english_403.wav,0,pill,2305,47,5,4,english,m,10,1.0,-56.1900631,1.1928159
65dcfc8cb5a870c7880bd8cc,15,0,2024-02-28T14:39:03.585Z,english_403.wav,0,pill,2305,47,5,4,english,m,11,1.09391667,59.2986673,0.36234179
65dcfc8cb5a870c7880bd8cc,16,0,2024-02-28T14:39:03.585Z,english_582.wav,0,peel,773,47,5,4,english,m,0,0.0,-92.78340469,1.00518837
65dcfc8cb5a870c7880bd8cc,16,0,2024-02-28T14:39:03.585Z,english_582.wav,0,peel,773,47,5,4,english,m,1,0.1,42.51344298,1.30114299
65dcfc8cb5a870c7880bd8cc,16,0,2024-02-28T14:39:03.585Z,english_582.wav,0,peel,773,47,5,4,english,m,2,0.2,-42.63495555,1.27031636
65dcfc8cb5a870c7880bd8cc,16,0,2024-02-28T14:39:03.585Z,english_582.wav,0,peel,773,47,5,4,english,m,3,0.3,52.58085474,1.12025144
65dcfc8cb5a870c7880bd8cc,16,0,2024-02-28T14:39:03.585Z,english_582.wav,0,peel,773,47,5,4,english,m,4,0.4,-78.11848263,0.79798268
65dcfc8cb5a870c7880bd8cc,16,0,2024-02-28T14:39:03.585Z,english_582.wav,0,peel,773,47,5,4,english,m,5,0.5,-34.20952238,0.6293022
65dcfc8cb5a870c7880bd8cc,16,0,2024-02-28T14:39:03.585Z,english_582.wav,0,peel,773,47,5,4,english,m,6,0.6,-86.64412457,1.95773952
65dcfc8cb5a870c7880bd8cc,16,0,2024-02-28T14:39:03.585Z,english_582.wav,0,peel,773,47,5,4,english,m,7,0.7,26.30632387,0.97092523
65dcfc8cb5a870c7880bd8cc,16,0,2024-02-28T14:39:03.585Z,english_582.wav,0,peel,773,47,5,4,english,m,8,0.8,-34.45754989,1.38286632
65dcfc8cb5a870c7880bd8cc,16,0,2024-02-28T14:39:03.585Z,english_582.wav,0,peel,773,47,5,4,english,m,9,0.9,-45.78416277,1.31952832
65dcfc8cb5a870c7880bd8cc,16,0,2024-02-28T14:39:03.585Z,english_582.wav,0,peel,773,47,5,4,english,m,10,1.0,-16.65162857,1.84309931
65dcfc8cb5a870c7880bd8cc,16,0,2024-02-28T14:39:03.585Z,english_582.wav,0,peel,773,47,5,4,english,m,11,1.09391667,7.21919156,1.34013439
65dcfc8cb5a870c7880bd8cc,17,0,2024-02-28T14:39:03.585Z,english_495.wav,0,peel,481,47,5,4,english,m,0,0.0,94.59077128,0.77928027
65dcfc8cb5a870c7880bd8cc,17,0,2024-02-28T14:39:03.585Z,english_495.wav,0,peel,481,47,5,4,english,m,1,0.1,-55.76476968,0.9821174
65dcfc8cb5a870c7880bd8cc,17,0,2024-02-28T14:39:03.585Z,english_495.wav,0,peel,481,47,5,4,english,m,2,0.2,85.25239669,1.84587448
65dcfc8cb5a870c7880bd8cc,17,0,2024-02-28T14:39:03.585Z,english_495.wav,0,peel,481,47,5,4,english,m,3,0.3,70.1736543,0.98653196
65dcfc8cb5a870c7880bd8cc,17,0,2024-02-28T14:39:03.585Z,english_495.wav,0,peel,481,47,5,4,english,m,4,0.4,19.94350226,1.73373308
65dcfc8cb5a870c7880bd8cc,17,0,2024-02-28T14:39:03.585Z,english_495.wav,0,peel,481,47,5,4,english,m,5,0.5,54.47178353,1.46449203
65dcfc8cb5a870c7880bd8cc,17,0,2024-02-28T14:39:03.585Z,english_495.wav,0,peel,481,47,5,4,english,m,6,0.6,-87.09076246,0.51679657
65dcfc8cb5a870c7880bd8cc,17,0,2024-02-28T14:39:03.585Z,english_495.wav,0,peel,481,47,5,4,english,m,7,0.7,-72.04241592,0.83282116
65dcfc8cb5a870c7880bd8cc,17,0,2024-02-28T14:39:03.585Z,english_495.wav,0,peel,481,47,5,4,english,m,8,0.8,25.07065193,0.91008341
65dcfc8cb5a870c7880bd8cc,17,0,2024-02-28T14:39:03.585Z,english_495.wav,0,peel,481,47,5,4,english,m,9,0.9,90.72301547,1.90880083
65dcfc8cb5a870c7880bd8cc,17,0,2024-02-28T14:39:03.585Z,english_495.wav,0,peel,481,47,5,4,english,m,10,1.0,24.05757485,1.11137725
65dcfc8cb5a870c7880bd8cc,17,0,2024-02-28T14:39:03.585Z,english_495.wav,0,peel,481,47,5,4,english,m,11,1.09391667,-32.87582459,1.50541044
65dcfc8cb5a870c7880bd8cc,18,0,2024-02-28T14:39:03.585Z,english_395.wav,0,peel,2955,47,5,4,english,m,0,0.0,39.05735914,1.69654302
65dcfc8cb5a870c7880bd8cc,18,0,2024-02-28T14:39:03.585Z,english_395.wav,0,peel,2955,47,5,4,english,m,1,0.1,-30.77266737,0.48886043
65dcfc8cb5a870c7880bd8cc,18,0,2024-02-28T14:39:03.585Z,english_395.wav,0,peel,2955,47,5,4,english,m,2,0.2,-0.16224694,0.59241683
65dcfc8cb5a870c7880bd8cc,18,0,2024-02-28T14:39:03.585Z,english_395.wav,0,peel,2955,47,5,4,english,m,3,0.3,98.26599176,1.90770156
65dcfc8cb5a870c7880bd8cc,18,0,2024-02-28T14:39:03.585Z,english_395.wav,0,peel,2955,47,5,4,english,m,4,0.4,21.09962978,0.86143521
65dcfc8cb5a870c7880bd8cc,18,0,2024-02-28T14:39:03.585Z,english_395.wav,0,peel,2955,47,5,4,english,m,5,0.5,26.89873822,1.51049254
65dcfc8cb5a870c7880bd8cc,18,0,2024-02-28T14:39:03.585Z,english_395.wav,0,peel,2955,47,5,4,english,m,6,0.6,32.8700083,1.66869176
65dcfc8cb5a870c7880bd8cc,18,0,2024-02-28T14:39:03.585Z,english_395.wav,0,peel,2955,47,5,4,english,m,7,0.7,-50.37483781,0.44723996
65dcfc8cb5a870c7880bd8cc,18,0,2024-02-28T14:39:03.585Z,english_395.wav,0,peel,2955,47,5,4,english,m,8,0.8,-69.66232076,1.5722879
65dcfc8cb5a870c7880bd8cc,18,0,2024-02-28T14:39:03.585Z,english_395.wav,0,peel,2955,47,5,4,english,m,9,0.9,-62.2392655,1.69268341
65dcfc8cb5a870c7880bd8cc,18,0,2024-02-28T14:39:03.585Z,english_395.wav,0,peel,2955,47,5,4,english,m,10,1.0,-93.99204506,0.08078728
65dcfc8cb5a870c7880bd8cc,18,0,2024-02-28T14:39:03.585Z,english_395.wav,0,peel,2955,47,5,4,english,m,11,1.09391667,46.98946298,0.81015785
65dcfc8cb5a870c7880bd8cc,19,0,2024-02-28T14:39:03.585Z,english_902.wav,0,peel,1622,47,5,4,english,m,0,0.0,14.8305777,0.38500358
65dcfc8cb5a870c7880bd8cc,19,0,2024-02-28T14:39:03.585Z,english_902.wav,0,peel,1622,47,5,4,english,m,1,0.1,-47.11140389,1.2332903
65dcfc8cb5a870c7880bd8cc,19,0,2024-02-28T14:39:03.585Z,english_902.wav,0,peel,1622,47,5,4,english,m,2,0.2,-96.35329483,1.76615422
65dcfc8cb5a870c7880bd8cc,19,0,2024-02-28T14:39:03.585Z,english_902.wav,0,peel,1622,47,5,4,english,m,3,0.3,-31.00015801,0.59488462
65dcfc8cb5a870c7880bd8cc,19,0,2024-02-28T14:39:03.585Z,english_902.wav,0,peel,1622,47,5,4,english,m,4,0.4,46.42403561,0.56384869
65dcfc8cb5a870c7880bd8cc,19,0,2024-02-28T14:39:03.585Z,english_902.wav,0,peel,1622,47,5,4,english,m,5,0.5,-64.13766191,0.91132343
65dcfc8cb5a870c7880bd8cc,19,0,2024-02-28T14:39:03.585Z,english_902.wav,0,peel,1622,47,5,4,english,m,6,0.6,31.93254177,0.03211524
65dcfc8cb5a870c7880bd8cc,19,0,2024-02-28T14:39:03.585Z,english_902.wav,0,peel,1622,47,5,4,english,m,7,0.7,-48.59706945,0.95267988
65dcfc8cb5a870c7880bd8cc,19,0,2024-02-28T14:39:03.585Z,english_902.wav,0,peel,1622,47,5,4,english,m,8,0.8,22.33610028,1.25460011
65dcfc8cb5a870c7880bd8cc,19,0,2024-02-28T14:39:03.585Z,english_902.wav,0,peel,1622,47,5,4,english,m,9,0.9,-29.48809445,1.32807075
65dcfc8cb5a870c7880bd8cc,19,0,2024-02-28T14:39:03.585Z,english_902.wav,0,peel,1622,47,5,4,english,m,10,1.0,-64.83953347,0.21654555
65dcfc8cb5a870c7880bd8cc,19,0,2024-02-28T14:39:03.585Z,english_902.wav,0,peel,1622,47,5,4,english,m,11,1.09391667,88.52973545,1.72349975
65dcfc8cb5a870c7880bd8cc,20,0,2024-02-28T14:39:03.585Z,english_909.wav,0,pill,1396,47,5,4,english,m,0,0.0,10.71027544,0.31194576
65dcfc8cb5a870c7880bd8cc,20,0,2024-02-28T14:39:03.585Z,english_909.wav,0,pill,1396,47,5,4,english,m,1,0.1,-48.99679887,0.75562572
65dcfc8cb5a870c7880bd8cc,20,0,2024-02-28T14:39:03.585Z,english_909.wav,0,pill,1396,47,5,4,english,m,2,0.2,0.10936675,1.15361909
65dcfc8cb5a870c7880bd8cc,20,0,2024-02-28T14:39:03.585Z,english_909.wav,0,pill,1396,47,5,4,english,m,3,0.3,-9.5972352,1.70848665
65dcfc8cb5a870c7880bd8cc,20,0,2024-02-28T14:39:03.585Z,english_909.wav,0,pill,1396,47,5,4,english,m,4,0.4,41.63700809,1.17263968
65dcfc8cb5a870c7880bd8cc,20,0,2024-02-28T14:39:03.585Z,english_909.wav,0,pill,1396,47,5,4,english,m,5,0.5,-54.98653808,1.91472761
65dcfc8cb5a870c7880bd8cc,20,0,2024-02-28T14:39:03.585Z,english_909.wav,0,pill,1396,47,5,4,english,m,6,0.6,-79.93461055,0.74389201
65dcfc8cb5a870c7880bd8cc,20,0,2024-02-28T14:39:03.585Z,english_909.wav,0,pill,1396,47,5,4,english,m,7,0.7,-18.97053935,0.87039019
65dcfc8cb5a870c7880bd8cc,20,0,2024-02-28T14:39:03.585Z,english_909.wav,0,pill,1396,47,5,4,english,m,8,0.8,-79.95487678,0.69566776
65dcfc8cb5a870c7880bd8cc,20,0,2024-02-28T14:39:03.585Z,english_909.wav,0,pill,1396,47,5,4,english,m,9,0.9,48.57972969,0.96721203
65dcfc8cb5a870c7880bd8cc,20,0,2024-02-28T14:39:03.585Z,english_909.wav,0,pill,1396,47,5,4,english,m,10,1.0,81.75147214,1.53411622
65dcfc8cb5a870c7880bd8cc,20,0,2024-02-28T14:39:03.585Z,english_909.wav,0,pill,1396,47,5,4,english,m,11,1.09391667,-81.8755088,1.74360808
65dcfc8cb5a870c7880bd8cc,21,0,2024-02-28T14:39:03.585Z,english_643.wav,0,peel,14706,47,5,4,english,m,0,0.0,-28.71923325,0.05998695
65dcfc8cb5a870c7880bd8cc,21,0,2024-02-28T14:39:03.585Z,english_643.wav,0,peel,14706,47,5,4,english,m,1,0.1,-41.33033256,1.69509995
65dcfc8cb5a870c7880bd8cc,21,0,2024-02-28T14:39:03.585Z,english_643.wav,0,peel,14706,47,5,4,english,m,2,0.2,14.60836996,1.2304272
65dcfc8cb5a870c7880bd8cc,21,0,2024-02-28T14:39:03.585Z,english_643.wav,0,peel,14706,47,5,4,english,m,3,0.3,24.53811626,1.46168191
65dcfc8cb5a870c7880bd8cc,21,0,2024-02-28T14:39:03.585Z,english_643.wav,0,peel,14706,47,5,4,english,m,4,0.4,7.82813988,1.6429412
65dcfc8cb5a870c7880bd8cc,21,0,2024-02-28T14:39:03.585Z,english_643.wav,0,peel,14706,47,5,4,english,m,5,0.5,31.13275889,1.01913146
65dcfc8cb5a870c7880bd8cc,21,0,2024-02-28T14:39:03.585Z,english_643.wav,0,peel,14706,47,5,4,english,m,6,0.6,9.00223054,0.81472246
65dcfc8cb5a870c7880bd8cc,21,0,2024-02-28T14:39:03.585Z,english_643.wav,0,peel,14706,47,5,4,english,m,7,0.7,65.97905996,0.51197957
65dcfc8cb5a870c7880bd8cc,21,0,2024-02-28T14:39:03.585Z,english_643.wav,0,peel,14706,47,5,4,english,m,8,0.8,3.77456402,0.97348527
65dcfc8cb5a870c7880bd8cc,21,0,2024-02-28T14:39:03.585Z,english_643.wav,0,peel,14706,47,5,4,english,m,9,0.9,20.70026816,0.6370084
65dcfc8cb5a870c7880bd8cc,21,0,2024-02-28T14:39:03.585Z,english_643.wav,0,peel,14706,47,5,4,english,m,10,1.0,98.54762674,0.00532383
65dcfc8cb5a870c7880bd8cc,21,0,2024-02-28T14:39:03.585Z,english_643.wav,0,peel,14706,47,5,4,english,m,11,1.09391667,74.26815163,1.21089253
65dcfc8cb5a870c7880bd8cc,22,0,2024-02-28T14:39:03.585Z,english_33.wav,0,pill,1887,47,5,4,english,m,0,0.0,-39.58082457,0.53160826
65dcfc8cb5a870c7880bd8cc,22,0,2024-02-28T14:39:03.585Z,english_33.wav,0,pill,1887,47,5,4,english,m,1,0.1,30.52342894,0.02130102
65dcfc8cb5a870c7880bd8cc,22,0,2024-02-28T14:39:03.585Z,english_33.wav,0,pill,1887,47,5,4,english,m,2,0.2,23.47265499,1.79968549
65dcfc8cb5a870c7880bd8cc,22,0,2024-02-28T14:39:03.585Z,english_33.wav,0,pill,1887,47,5,4,english,m,3,0.3,35.06724548,1.77904441
65dcfc8cb5a870c7880bd8cc,22,0,2024-02-28T14:39:03.585Z,english_33.wav,0,pill,1887,47,5,4,english,m,4,0.4,68.41384456,0.50678762
65dcfc8cb5a870c7880bd8cc,22,0,2024-02-28T14:39:03.585Z,english_33.wav,0,pill,1887,47,5,4,english,m,5,0.5,91.35527089,1.72631603
65dcfc8cb5a870c7880bd8cc,22,0,2024-02-28T14:39:03.585Z,english_33.wav,0,pill,1887,47,5,4,english,m,6,0.6,45.24436298,0.90579128
65dcfc8cb5a870c7880bd8cc,22,0,2024-02-28T14:39:03.585Z,english_33.wav,0,pill,1887,47,5,4,english,m,7,0.7,-95.9941639,1.42335886
65dcfc8cb5a870c7880bd8cc,22,0,2024-02-28T14:39:03.585Z,english_33.wav,0,pill,1887,47,5,4,english,m,8,0.8,52.18884155,1.10708789
65dcfc8cb5a870c7880bd8cc,22,0,2024-02-28T14:39:03.585Z,english_33.wav,0,pill,1887,47,5,4,english,m,9,0.9,-59.5821221,1.04407415
65dcfc8cb5a870c7880bd8cc,22,0,2024-02-28T14:39:03.585Z,english_33.wav,0,pill,1887,47,5,4,english,m,10,1.0,-35.64274737,1.58844638
65dcfc8cb5a870c7880bd8cc,22,0,2024-02-28T14:39:03.585Z,english_33.wav,0,pill,1887,47,5,4,english,m,11,1.09391667,-73.32122587,0.94640907
65dcfc8cb5a870c7880bd8cc,23,0,2024-02-28T14:39:03.585Z,english_977.wav,0,peel,1283,47,5,4,english,m,0,0.0,45.32437977,1.51258306
65dcfc8cb5a870c7880bd8cc,23,0,2024-02-28T14:39:03.585Z,english_977.wav,0,peel,1283,47,5,4,english,m,1,0.1,31.46444726,1.62107879
65dcfc8cb5a870c7880bd8cc,23,0,2024-02-28T14:39:03.585Z,english_977.wav,0,peel,1283,47,5,4,english,m,2,0.2,7.78815071,0.80620837
65dcfc8cb5a870c7880bd8cc,23,0,2024-02-28T14:39:03.585Z,english_977.wav,0,peel,1283,47,5,4,english,m,3,0.3,-38.46709342,1.66578012
65dcfc8cb5a870c7880bd8cc,23,0,2024-02-28T14:39:03.585Z,english_977.wav,0,peel,1283,47,5,4,english,m,4,0.4,-43.12628929,0.5028638
65dcfc8cb5a870c7880bd8cc,23,0,2024-02-28T14:39:03.585Z,english_977.wav,0,peel,1283,47,5,4,english,m,5,0.5,-60.3999411,1.57064844
65dcfc8cb5a870c7880bd8cc,23,0,2024-02-28T14:39:03.585Z,english_977.wav,0,peel,1283,47,5,4,english,m,6,0.6,38.30873417,1.43046029
65dcfc8cb5a870c7880bd8cc,23,0,2024-02-28T14:39:03.585Z,english_977.wav,0,peel,1283,47,5,4,english,m,7,0.7,-32.30937365,0.97320454
65dcfc8cb5a870c7880bd8cc,23,0,2024-02-28T14:39:03.585Z,english_977.wav,0,peel,1283,47,5,4,english,m,8,0.8,-13.91730907,0.87874216
65dcfc8cb5a870c7880bd8cc,23,0,2024-02-28T14:39:03.585Z,english_977.wav,0,peel,1283,47,5,4,english,m,9,0.9,-81.54845422,1.41826341
65dcfc8cb5a870c7880bd8cc,23,0,2024-02-28T14:39:03.585Z,english_977.wav,0,peel,1283,47,5,4,english,m,10,1.0,29.31026278,0.04715706
65dcfc8cb5a870c7880bd8cc,23,0,2024-02-28T14:39:03.585Z,english_977.wav,0,peel,1283,47,5,4,english,m,11,1.09391667,34.6707146,1.45727151
65dcfc8cb5a870c7880bd8cc,24,0,2024-02-28T14:39:03.585Z,english_985.wav,0,pill,747,47,5,4,english,m,0,0.0,-83.24919271,0.45698213
65dcfc8cb5a870c7880bd8cc,24,0,2024-02-28T14:39:03.585Z,english_985.wav,0,pill,747,47,5,4,english,m,1,0.1,-61.40218693,1.0383787
65dcfc8cb5a870c7880bd8cc,24,0,2024-02-28T14:39:03.585Z,english_985.wav,0,pill,747,47,5,4,english,m,2,0.2,75.6831096,1.83439409
65dcfc8cb5a870c7880bd8cc,24,0,2024-02-28T14:39:03.585Z,english_985.wav,0,pill,747,47,5,4,english,m,3,0.3,-83.55103169,1.46493433
65dcfc8cb5a870c7880bd8cc,24,0,2024-02-28T14:39:03.585Z,english_985.wav,0,pill,747,47,5,4,english,m,4,0.4,-76.60569971,0.92668276
65dcfc8cb5a870c7880bd8cc,24,0,2024-02-28T14:39:03.585Z,english_985.wav,0,pill,747,47,5,4,english,m,5,0.5,93.43834668,1.27852145
65dcfc8cb5a870c7880bd8cc,24,0,2024-02-28T14:39:03.585Z,english_985.wav,0,pill,747,47,5,4,english,m,6,0.6,46.86841289,1.04356397
65dcfc8cb5a870c7880bd8cc,24,0,2024-02-28T14:39:03.585Z,english_985.wav,0,pill,747,47,5,4,english,m,7,0.7,11.38653049,1.03370788
65dcfc8cb5a870c7880bd8cc,24,0,2024-02-28T14:39:03.585Z,english_985.wav,0,pill,747,47,5,4,english,m,8,0.8,5.98716874,0.43255879
65dcfc8cb5a870c7880bd8cc,24,0,2024-02-28T14:39:03.585Z,english_985.wav,0,pill,747,47,5,4,english,m,9,0.9,6.47503028,0.84647211
65dcfc8cb5a870c7880bd8cc,24,0,2024-02-28T14:39:03.585Z,english_985.wav,0,pill,747,47,5,4,english,m,10,1.0,53.75316558,1.92237121
65dcfc8cb5a870c7880bd8cc,24,0,2024-02-28T14:39:03.585Z,english_985.wav,0,pill,747,47,5,4,english,m,11,1.09391667,-17.57703362,0.19853323
65dcfc8cb5a870c7880bd8cc,25,0,2024-02-28T14:39:03.585Z,english_889.wav,0,peel,881,47,5,4,english,m,0,0.0,79.20623471,0.68216584
65dcfc8cb5a870c7880bd8cc,25,0,2024-02-28T14:39:03.585Z,english_889.wav,0,peel,881,47,5,4,english,m,1,0.1,15.95650002,0.42686819
65dcfc8cb5a870c7880bd8cc,25,0,2024-02-28T14:39:03.585Z,english_889.wav,0,peel,881,47,5,4,english,m,2,0.2,-76.24687764,0.02909108
65dcfc8cb5a870c7880bd8cc,25,0,2024-02-28T14:39:03.585Z,english_889.wav,0,peel,881,47,5,4,english,m,3,0.3,-99.60118401,1.3182061
65dcfc8cb5a870c7880bd8cc,25,0,2024-02-28T14:39:03.585Z,english_889.wav,0,peel,881,47,5,4,english,m,4,0.4,78.05893195,0.10574875
65dcfc8cb5a870c7880bd8cc,25,0,2024-02-28T14:39:03.585Z,english_889.wav,0,peel,881,47,5,4,english,m,5,0.5,-14.00699602,0.2853218
65dcfc8cb5a870c7880bd8cc,25,0,2024-02-28T14:39:03.585Z,english_889.wav,0,peel,881,47,5,4,english,m,6,0.6,-89.17552829,1.14496721
65dcfc8cb5a870c7880bd8cc,25,0,2024-02-28T14:39:03.585Z,english_889.wav,0,peel,881,47,5,4,english,m,7,0.7,-14.96184535,1.04613331
65dcfc8cb5a870c7880bd8cc,25,0,2024-02-28T14:39:03.585Z,english_889.wav,0,peel,881,47,5,4,english,m,8,0.8,59.85859642,1.03396969
65dcfc8cb5a870c7880bd8cc,25,0,2024-02-28T14:39:03.585Z,english_889.wav,0,peel,881,47,5,4,english,m,9,0.9,11.94153074,0.35198627
65dcfc8cb5a870c7880bd8cc,25,0,2024-02-28T14:39:03.585Z,english_889.wav,0,peel,881,47,5,4,english,m,10,1.0,-11.03565413,0.4382774
65dcfc8cb5a870c7880bd8cc,25,0,2024-02-28T14:39:03.585Z,english_889.wav,0,peel,881,47,5,4,english,m,11,1.09391667,35.54802425,1.08765543
65dcfc8cb5a870c7880bd8cc,26,0,2024-02-28T14:39:03.585Z,english_440.wav,0,peel,841,47,5,4,english,m,0,0.0,12.29982285,1.19760878
65dcfc8cb5a870c7880bd8cc,26,0,2024-02-28T14:39:03.585Z,english_440.wav,0,peel,841,47,5,4,english,m,1,0.1,29.91017607,0.84661932
65dcfc8cb5a870c7880bd8cc,26,0,2024-02-28T14:39:03.585Z,english_440.wav,0,peel,841,47,5,4,english,m,2,0.2,-33.88416802,0.98013694
65dcfc8cb5a870c7880bd8cc,26,0,2024-02-28T14:39:03.585Z,english_440.wav,0,peel,841,47,5,4,english,m,3,0.3,9.59442927,1.13268467
65dcfc8cb5a870c7880bd8cc,26,0,2024-02-28T14:39:03.585Z,english_440.wav,0,peel,841,47,5,4,english,m,4,0.4,67.78661643,0.35608992
65dcfc8cb5a870c7880bd8cc,26,0,2024-02-28T14:39:03.585Z,english_440.wav,0,peel,841,47,5,4,english,m,5,0.5,-67.23660087,0.95578268
65dcfc8cb5a870c7880bd8cc,26,0,2024-02-28T14:39:03.585Z,english_440.wav,0,peel,841,47,5,4,english,m,6,0.6,76.63778139,0.48847823
65dcfc8cb5a870c7880bd8cc,26,0,2024-02-28T14:39:03.585Z,english_440.wav,0,peel,841,47,5,4,english,m,7,0.7,73.67785479,0.77954634
65dcfc8cb5a870c7880bd8cc,26,0,2024-02-28T14:39:03.585Z,english_440.wav,0,peel,841,47,5,4,english,m,8,0.8,54.53431981,1.22473034
65dcfc8cb5a870c7880bd8cc,26,0,2024-02-28T14:39:03.585Z,english_440.wav,0,peel,841,47,5,4,english,m,9,0.9,-39.644329,1.58063768
65dcfc8cb5a870c7880bd8cc,26,0,2024-02-28T14:39:03.585Z,english_440.wav,0,peel,841,47,5,4,english,m,10,1.0,39.92173261,0.71218861
65dcfc8cb5a870c7880bd8cc,26,0,2024-02-28T14:39:03.585Z,english_440.wav,0,peel,841,47,5,4,english,m,11,1.09391667,84.70283428,1.21525734
65dcfc8cb5a870c7880bd8cc,27,0,2024-02-28T14:39:03.585Z,english_247.wav,0,peel,401,47,5,4,english,m,0,0.0,25.0451381,1.47539451
65dcfc8cb5a870c7880bd8cc,27,0,2024-02-28T14:39:03.585Z,english_247.wav,0,peel,401,47,5,4,english,m,1,0.1,-0.42762512,0.00273089
65dcfc8cb5a870c7880bd8cc,27,0,2024-02-28T14:39:03.585Z,english_247.wav,0,peel,401,47,5,4,english,m,2,0.2,6.28793154,1.08361758
65dcfc8cb5a870c7880bd8cc,27,0,2024-02-28T14:39:03.585Z,english_247.wav,0,peel,401,47,5,4,english,m,3,0.3,-3.67285953,1.41054103
65dcfc8cb5a870c7880bd8cc,27,0,2024-02-28T14:39:03.585Z,english_247.wav,0,peel,401,47,5,4,english,m,4,0.4,72.86099671,0.74915888
65dcfc8cb5a870c7880bd8cc,27,0,2024-02-28T14:39:03.585Z,english_247.wav,0,peel,401,47,5,4,english,m,5,0.5,4.14559404,1.69392232
65dcfc8cb5a870c7880bd8cc,27,0,2024-02-28T14:39:03.585Z,english_247.wav,0,peel,401,47,5,4,english,m,6,0.6,25.40906202,1.26493683
65dcfc8cb5a870c7880bd8cc,27,0,2024-02-28T14:39:03.585Z,english_247.wav,0,peel,401,47,5,4,english,m,7,0.7,-4.12042736,0.1138778
65dcfc8cb5a870c7880bd8cc,27,0,2024-02-28T14:39:03.585Z,english_247.wav,0,peel,401,47,5,4,english,m,8,0.8,34.39220846,1.15663669
65dcfc8cb5a870c7880bd8cc,27,0,2024-02-28T14:39:03.585Z,english_247.wav,0,peel,401,47,5,4,english,m,9,0.9,-47.96329468,1.48677288
65dcfc8cb5a870c7880bd8cc,27,0,2024-02-28T14:39:03.585Z,english_247.wav,0,peel,401,47,5,4,english,m,10,1.0,84.41515092,0.39384904
65dcfc8cb5a870c7880bd8cc,27,0,2024-02-28T14:39:03.585Z,english_247.wav,0,peel,401,47,5,4,english,m,11,1.09391667,76.12511321,0.02417049
65dcfc8cb5a870c7880bd8cc,28,0,2024-02-28T14:39:03.585Z,english_666.wav,0,pill,1033,47,5,4,english,m,0,0.0,10.55823455,0.52881458
65dcfc8cb5a870c7880bd8cc,28,0,2024-02-28T14:39:03.585Z,english_666.wav,0,pill,1033,47,5,4,english,m,1,0.1,60.25625818,1.82589442
65dcfc8cb5a870c7880bd8cc,28,0,2024-02-28T14:39:03.585Z,english_666.wav,0,pill,1033,47,5,4,english,m,2,0.2,40.6898343,1.01937084
65dcfc8cb5a870c7880bd8cc,28,0,2024-02-28T14:39:03.585Z,english_666.wav,0,pill,1033,47,5,4,english,m,3,0.3,58.2306109,0.05437581
65dcfc8cb5a870c7880bd8cc,28,0,2024-02-28T14:39:03.585Z,english_666.wav,0,pill,1033,47,5,4,english,m,4,0.4,4.0077953,1.33142654
65dcfc8cb5a870c7880bd8cc,28,0,2024-02-28T14:39:03.585Z,english_666.wav,0,pill,1033,47,5,4,english,m,5,0.5,71.45661873,0.21266373
65dcfc8cb5a870c7880bd8cc,28,0,2024-02-28T14:39:03.585Z,english_666.wav,0,pill,1033,47,5,4,english,m,6,0.6,18.87796303,0.67439472
65dcfc8cb5a870c7880bd8cc,28,0,2024-02-28T14:39:03.585Z,english_666.wav,0,pill,1033,47,5,4,english,m,7,0.7,-29.5527486,1.59641085
65dcfc8cb5a870c7880bd8cc,28,0,2024-02-28T14:39:03.585Z,english_666.wav,0,pill,1033,47,5,4,english,m,8,0.8,31.6397638,0.05005126
65dcfc8cb5a870c7880bd8cc,28,0,2024-02-28T14:39:03.585Z,english_666.wav,0,pill,1033,47,5,4,english,m,9,0.9,-90.13061067,0.93178906
65dcfc8cb5a870c7880bd8cc,28,0,2024-02-28T14:39:03.585Z,english_666.wav,0,pill,1033,47,5,4,english,m,10,1.0,53.29328049,1.49567277
65dcfc8cb5a870c7880bd8cc,28,0,2024-02-28T14:39:03.585Z,english_666.wav,0,pill,1033,47,5,4,english,m,11,1.09391667,-53.47399996,1.5853139
65dcfc8cb5a870c7880bd8cc,29,0,2024-02-28T14:39:03.585Z,english_522.wav,0,peel,391,47,5,4,english,m,0,0.0,-41.53907187,0.57004443
65dcfc8cb5a870c7880bd8cc,29,0,2024-02-28T14:39:03.585Z,english_522.wav,0,peel,391,47,5,4,english,m,1,0.1,-34.77242331,0.9419408
65dcfc8cb5a870c7880bd8cc,29,0,2024-02-28T14:39:03.585Z,english_522.wav,0,peel,391,47,5,4,english,m,2,0.2,44.84688975,1.66104168
65dcfc8cb5a870c7880bd8cc,29,0,2024-02-28T14:39:03.585Z,english_522.wav,0,peel,391,47,5,4,english,m,3,0.3,0.52781467,0.91446022
65dcfc8cb5a870c7880bd8cc,29,0,2024-02-28T14:39:03.585Z,english_522.wav,0,peel,391,47,5,4,english,m,4,0.4,-85.49095183,1.87910308
65dcfc8cb5a870c7880bd8cc,29,0,2024-02-28T14:39:03.585Z,english_522.wav,0,peel,391,47,5,4,english,m,5,0.5,49.75805681,1.6772423
65dcfc8cb5a870c7880bd8cc,29,0,2024-02-28T14:39:03.585Z,english_522.wav,0,peel,391,47,5,4,english,m,6,0.6,-34.01238983,1.00245935
65dcfc8cb5a870c7880bd8cc,29,0,2024-02-28T14:39:03.585Z,english_522.wav,0,peel,391,47,5,4,english,m,7,0.7,-76.80695945,1.44049733
65dcfc8cb5a870c7880bd8cc,29,0,2024-02-28T14:39:03.585Z,english_522.wav,0,peel,391,47,5,4,english,m,8,0.8,57.48181657,0.74965877
65dcfc8cb5a870c7880bd8cc,29,0,2024-02-28T14:39:03.585Z,english_522.wav,0,peel,391,47,5,4,english,m,9,0.9,-42.740182,1.30386633
65dcfc8cb5a870c7880bd8cc,29,0,2024-02-28T14:39:03.585Z,english_522.wav,0,peel,391,47,5,4,english,m,10,1.0,76.48970234,1.30270801
65dcfc8cb5a870c7880bd8cc,29,0,2024-02-28T14:39:03.585Z,english_522.wav,0,peel,391,47,5,4,english,m,11,1.09391667,-24.33451257,0.47933239
65dcfc8cb5a870c7880bd8cc,30,0,2024-02-28T14:39:03.585Z,english_604.wav,0,peel,777,47,5,4,english,m,0,0.0,-7.32786977,0.45756233
65dcfc8cb5a870c7880bd8cc,30,0,2024-02-28T14:39:03.585Z,english_604.wav,0,peel,777,47,5,4,english,m,1,0.1,-57.46968162,0.00297482
65dcfc8cb5a870c7880bd8cc,30,0,2024-02-28T14:39:03.585Z,english_604.wav,0,peel,777,47,5,4,english,m,2,0.2,-51.48206507,1.19670532
65dcfc8cb5a870c7880bd8cc,30,0,2024-02-28T14:39:03.585Z,english_604.wav,0,peel,777,47,5,4,english,m,3,0.3,77.63466913,0.65081773
65dcfc8cb5a870c7880bd8cc,30,0,2024-02-28T14:39:03.585Z,english_604.wav,0,peel,777,47,5,4,english,m,4,0.4,45.22839705,0.22469511
65dcfc8cb5a870c7880bd8cc,30,0,2024-02-28T14:39:03.585Z,english_604.wav,0,peel,777,47,5,4,english,m,5,0.5,-27.78980975,0.33338284
65dcfc8cb5a870c7880bd8cc,30,0,2024-02-28T14:39:03.585Z,english_604.wav,0,peel,777,47,5,4,english,m,6,0.6,-14.67402927,1.91381058
65dcfc8cb5a870c7880bd8cc,30,0,2024-02-28T14:39:03.585Z,english_604.wav,0,peel,777,47,5,4,english,m,7,0.7,66.92200223,0.36993011
65dcfc8cb5a870c7880bd8cc,30,0,2024-02-28T14:39:03.585Z,english_604.wav,0,peel,777,47,5,4,english,m,8,0.8,44.7359597,1.21459689
65dcfc8cb5a870c7880bd8cc,30,0,2024-02-28T14:39:03.585Z,english_604.wav,0,peel,777,47,5,4,english,m,9,0.9,87.34456413,1.1126352
65dcfc8cb5a870c7880bd8cc,30,0,2024-02-28T14:39:03.585Z,english_604.wav,0,peel,777,47,5,4,english,m,10,1.0,37.61860755,1.39772335
65dcfc8cb5a870c7880bd8cc,30,0,2024-02-28T14:39:03.585Z,english_604.wav,0,peel,777,47,5,4,english,m,11,1.09391667,91.85438616,1.16252792
65dcfc8cb5a870c7880bd8cc,31,0,2024-02-28T14:42:22.121Z,english_652.wav,0,peel,1622,47,5,4,english,m,0,0.0,-6.47134423,1.78340321
65dcfc8cb5a870c7880bd8cc,31,0,2024-02-28T14:42:22.121Z,english_652.wav,0,peel,1622,47,5,4,english,m,1,0.1,15.08810971,1.37348527
65dcfc8cb5a870c7880bd8cc,31,0,2024-02-28T14:42:22.121Z,english_652.wav,0,peel,1622,47,5,4,english,m,2,0.2,98.29631383,0.90438715
65dcfc8cb5a870c7880bd8cc,31,0,2024-02-28T14:42:22.121Z,english_652.wav,0,peel,1622,47,5,4,english,m,3,0.3,30.58339985,0.90448146
65dcfc8cb5a870c7880bd8cc,31,0,2024-02-28T14:42:22.121Z,english_652.wav,0,peel,1622,47,5,4,english,m,4,0.4,-6.30529528,0.6194213
65dcfc8cb5a870c7880bd8cc,31,0,2024-02-28T14:42:22.121Z,english_652.wav,0,peel,1622,47,5,4,english,m,5,0.5,-44.5601624,1.03986034
65dcfc8cb5a870c7880bd8cc,31,0,2024-02-28T14:42:22.121Z,english_652.wav,0,peel,1622,47,5,4,english,m,6,0.6,4.47931007,0.52762796
65dcfc8cb5a870c7880bd8cc,31,0,2024-02-28T14:42:22.121Z,english_652.wav,0,peel,1622,47,5,4,english,m,7,0.7,-52.28319513,0.92865907
65dcfc8cb5a870c7880bd8cc,31,0,2024-02-28T14:42:22.121Z,english_652.wav,0,peel,1622,47,5,4,english,m,8,0.8,17.6405793,1.28477406
65dcfc8cb5a870c7880bd8cc,31,0,2024-02-28T14:42:22.121Z,english_652.wav,0,peel,1622,47,5,4,english,m,9,0.9,2.7192508,1.34724363
65dcfc8cb5a870c7880bd8cc,31,0,2024-02-28T14:42:22.121Z,english_652.wav,0,peel,1622,47,5,4,english,m,10,1.0,-8.76412426,1.76490877
65dcfc8cb5a870c7880bd8cc,31,0,2024-02-28T14:42:22.121Z,english_652.wav,0,peel,1622,47,5,4,english,m,11,1.09391667,53.37366327,1.20575877
65dcfc8cb5a870c7880bd8cc,32,0,2024-02-28T15:33:47.157Z,english_732.wav,0,pill,1513,47,5,4,english,m,0,0.0,-6.1655518,1.83743041
65dcfc8cb5a870c7880bd8cc,32,0,2024-02-28T15:33:47.157Z,english_732.wav,0,pill,1513,47,5,4,english,m,1,0.1,-21.68268247,0.45034165
65dcfc8cb5a870c7880bd8cc,32,0,2024-02-28T15:33:47.157Z,english_732.wav,0,pill,1513,47,5,4,english,m,2,0.2,-44.18505393,1.43977044
65dcfc8cb5a870c7880bd8cc,32,0,2024-02-28T15:33:47.157Z,english_732.wav,0,pill,1513,47,5,4,english,m,3,0.3,-99.08787178,1.63276402
65dcfc8cb5a870c7880bd8cc,32,0,2024-02-28T15:33:47.157Z,english_732.wav,0,pill,1513,47,5,4,english,m,4,0.4,52.69419041,1.14410498
65dcfc8cb5a870c7880bd8cc,32,0,2024-02-28T15:33:47.157Z,english_732.wav,0,pill,1513,47,5,4,english,m,5,0.5,-22.76801282,0.80499942
65dcfc8cb5a870c7880bd8cc,32,0,2024-02-28T15:33:47.157Z,english_732.wav,0,pill,1513,47,5,4,english,m,6,0.6,-68.37024344,0.00488355
65dcfc8cb5a870c7880bd8cc,32,0,2024-02-28T15:33:47.157Z,english_732.wav,0,pill,1513,47,5,4,english,m,7,0.7,99.79862575,1.08087267
65dcfc8cb5a870c7880bd8cc,32,0,2024-02-28T15:33:47.157Z,english_732.wav,0,pill,1513,47,5,4,english,m,8,0.8,-45.96985204,0.60546967
65dcfc8cb5a870c7880bd8cc,32,0,2024-02-28T15:33:47.157Z,english_732.wav,0,pill,1513,47,5,4,english,m,9,0.9,34.4904792,1.53964006
65dcfc8cb5a870c7880bd8cc,32,0,2024-02-28T15:33:47.157Z,english_732.wav,0,pill,1513,47,5,4,english,m,10,1.0,-81.20928849,0.59388625
65dcfc8cb5a870c7880bd8cc,32,0,2024-02-28T15:33:47.157Z,english_732.wav,0,pill,1513,47,5,4,english,m,11,1.09391667,-1.26617119,1.72169188
65dcfc8cb5a870c7880bd8cc,33,0,2024-02-28T15:33:47.157Z,english_631.wav,0,peel,677,47,5,4,english,m,0,0.0,-27.81937338,1.32778062
65dcfc8cb5a870c7880bd8cc,33,0,2024-02-28T15:33:47.157Z,english_631.wav,0,peel,677,47,5,4,english,m,1,0.1,33.35930373,0.48085638
65dcfc8cb5a870c7880bd8cc,33,0,2024-02-28T15:33:47.157Z,english_631.wav,0,peel,677,47,5,4,english,m,2,0.2,-11.73917174,1.38663751
65dcfc8cb5a870c7880bd8cc,33,0,2024-02-28T15:33:47.157Z,english_631.wav,0,peel,677,47,5,4,english,m,3,0.3,-1.18589974,1.87480355
65dcfc8cb5a870c7880bd8cc,33,0,2024-02-28T15:33:47.157Z,english_631.wav,0,peel,677,47,5,4,english,m,4,0.4,27.16828493,0.88998166
65dcfc8cb5a870c7880bd8cc,33,0,2024-02-28T15:33:47.157Z,english_631.wav,0,peel,677,47,5,4,english,m,5,0.5,53.71281756,0.85037115
65dcfc8cb5a870c7880bd8cc,33,0,2024-02-28T15:33:47.157Z,english_631.wav,0,peel,677,47,5,4,english,m,6,0.6,81.56085765,0.88131869
65dcfc8cb5a870c7880bd8cc,33,0,2024-02-28T15:33:47.157Z,english_631.wav,0,peel,677,47,5,4,english,m,7,0.7,89.56289447,1.45107232
65dcfc8cb5a870c7880bd8cc,33,0,2024-02-28T15:33:47.157Z,english_631.wav,0,peel,677,47,5,4,english,m,8,0.8,-43.2108802,1.60608237
65dcfc8cb5a870c7880bd8cc,33,0,2024-02-28T15:33:47.157Z,english_631.wav,0,peel,677,47,5,4,english,m,9,0.9,-23.23030719,1.10456267
65dcfc8cb5a870c7880bd8cc,33,0,2024-02-28T15:33:47.157Z,english_631.wav,0,peel,677,47,5,4,english,m,10,1.0,88.86506339,0.94928651
65dcfc8cb5a870c7880bd8cc,33,0,2024-02-28T15:33:47.157Z,english_631.wav,0,peel,677,47,5,4,english,m,11,1.09391667,-96.00200772,0.59566853
65dcfc8cb5a870c7880bd8cc,34,0,2024-02-28T15:33:47.157Z,english_170.wav,0,pill,1749,47,5,4,english,m,0,0.0,-16.05998387,1.41692406
65dcfc8cb5a870c7880bd8cc,34,0,2024-02-28T15:33:47.157Z,english_170.wav,0,pill,1749,47,5,4,english,m,1,0.1,-6.21136003,0.91307354
65dcfc8cb5a870c7880bd8cc,34,0,2024-02-28T15:33:47.157Z,english_170.wav,0,pill,1749,47,5,4,english,m,2,0.2,15.42568052,0.23372117
65dcfc8cb5a870c7880bd8cc,34,0,2024-02-28T15:33:47.157Z,english_170.wav,0,pill,1749,47,5,4,english,m,3,0.3,-56.10367399,1.97756992
65dcfc8cb5a870c7880bd8cc,34,0,2024-02-28T15:33:47.157Z,english_170.wav,0,pill,1749,47,5,4,english,m,4,0.4,33.39228695,1.31491234
65dcfc8cb5a870c7880bd8cc,34,0,2024-02-28T15:33:47.157Z,english_170.wav,0,pill,1749,47,5,4,english,m,5,0.5,34.4075698,1.31849018
65dcfc8cb5a870c7880bd8cc,34,0,2024-02-28T15:33:47.157Z,english_170.wav,0,pill,1749,47,5,4,english,m,6,0.6,-77.75225733,0.47935442
65dcfc8cb5a870c7880bd8cc,34,0,2024-02-28T15:33:47.157Z,english_170.wav,0,pill,1749,47,5,4,english,m,7,0.7,-35.86968862,1.36758715
65dcfc8cb5a870c7880bd8cc,34,0,2024-02-28T15:33:47.157Z,english_170.wav,0,pill,1749,47,5,4,english,m,8,0.8,-61.24335468,0.01597757
65dcfc8cb5a870c7880bd8cc,34,0,2024-02-28T15:33:47.157Z,english_170.wav,0,pill,1749,47,5,4,english,m,9,0.9,-7.24177995,0.93040558
65dcfc8cb5a870c7880bd8cc,34,0,2024-02-28T15:33:47.157Z,english_170.wav,0,pill,1749,47,5,4,english,m,10,1.0,-1.64660066,1.42845797
65dcfc8cb5a870c7880bd8cc,34,0,2024-02-28T15:33:47.157Z,english_170.wav,0,pill,1749,47,5,4,english,m,11,1.09391667,30.95625256,0.18013663
65dcfc8cb5a870c7880bd8cc,35,0,2024-02-28T15:33:47.157Z,english_507.wav,0,peel,246,47,5,4,english,m,0,0.0,-12.02429693,0.63959218
65dcfc8cb5a870c7880bd8cc,35,0,2024-02-28T15:33:47.157Z,english_507.wav,0,peel,246,47,5,4,english,m,1,0.1,23.48023528,0.78683895
65dcfc8cb5a870c7880bd8cc,35,0,2024-02-28T15:33:47.157Z,english_507.wav,0,peel,246,47,5,4,english,m,2,0.2,75.86591316,1.2814873
65dcfc8cb5a870c7880bd8cc,35,0,2024-02-28T15:33:47.157Z,english_507.wav,0,peel,246,47,5,4,english,m,3,0.3,-83.47756384,0.67977555
65dcfc8cb5a870c7880bd8cc,35,0,2024-02-28T15:33:47.157Z,english_507.wav,0,peel,246,47,5,4,english,m,4,0.4,81.92852434,0.92992814
65dcfc8cb5a870c7880bd8cc,35,0,2024-02-28T15:33:47.157Z,english_507.wav,0,peel,246,47,5,4,english,m,5,0.5,87.67744716,1.13175549
65dcfc8cb5a870c7880bd8cc,35,0,2024-02-28T15:33:47.157Z,english_507.wav,0,peel,246,47,5,4,english,m,6,0.6,-16.33781488,0.10459473
65dcfc8cb5a870c7880bd8cc,35,0,2024-02-28T15:33:47.157Z,english_507.wav,0,peel,246,47,5,4,english,m,7,0.7,-17.50205237,1.89307031
65dcfc8cb5a870c7880bd8cc,35,0,2024-02-28T15:33:47.157Z,english_507.wav,0,peel,246,47,5,4,english,m,8,0.8,45.24056119,1.08894135
65dcfc8cb5a870c7880bd8cc,35,0,2024-02-28T15:33:47.157Z,english_507.wav,0,peel,246,47,5,4,english,m,9,0.9,-41.17324019,1.66565612
65dcfc8cb5a870c7880bd8cc,35,0,2024-02-28T15:33:47.157Z,english_507.wav,0,peel,246,47,5,4,english,m,10,1.0,-35.51150679,1.23960277
65dcfc8cb5a870c7880bd8cc,35,0,2024-02-28T15:33:47.157Z,english_507.wav,0,peel,246,47,5,4,english,m,11,1.09391667,-42.23976402,0.80282923
65dcfc8cb5a870c7880bd8cc,36,0,2024-02-28T15:33:47.157Z,english_614.wav,0,pill,437,47,5,4,english,m,0,0.0,-82.48035623,0.71590115
65dcfc8cb5a870c7880bd8cc,36,0,2024-02-28T15:33:47.157Z,english_614.wav,0,pill,437,47,5,4,english,m,1,0.1,79.46307131,0.88553055
65dcfc8cb5a870c7880bd8cc,36,0,2024-02-28T15:33:47.157Z,english_614.wav,0,pill,437,47,5,4,english,m,2,0.2,-34.63501936,0.6127243
65dcfc8cb5a870c7880bd8cc,36,0,2024-02-28T15:33:47.157Z,english_614.wav,0,pill,437,47,5,4,english,m,3,0.3,-36.11573217,1.30048752
65dcfc8cb5a870c7880bd8cc,36,0,2024-02-28T15:33:47.157Z,english_614.wav,0,pill,437,47,5,4,english,m,4,0.4,28.60715933,0.96267967
65dcfc8cb5a870c7880bd8cc,36,0,2024-02-28T15:33:47.157Z,english_614.wav,0,pill,437,47,5,4,english,m,5,0.5,-48.6136036,0.63406811
65dcfc8cb5a870c7880bd8cc,36,0,2024-02-28T15:33:47.157Z,english_614.wav,0,pill,437,47,5,4,english,m,6,0.6,-7.2226969,1.30483529
65dcfc8cb5a870c7880bd8cc,36,0,2024-02-28T15:33:47.157Z,english_614.wav,0,pill,437,47,5,4,english,m,7,0.7,-29.94263831,0.38784821
65dcfc8cb5a870c7880bd8cc,36,0,2024-02-28T15:33:47.157Z,english_614.wav,0,pill,437,47,5,4,english,m,8,0.8,-84.37614436,0.63559187
65dcfc8cb5a870c7880bd8cc,36,0,2024-02-28T15:33:47.157Z,english_614.wav,0,pill,437,47,5,4,english,m,9,0.9,6.08502503,0.26922563
65dcfc8cb5a870c7880bd8cc,36,0,2024-02-28T15:33:47.157Z,english_614.wav,0,pill,437,47,5,4,english,m,10,1.0,89.45930015,0.19525475
65dcfc8cb5a870c7880bd8cc,36,0,2024-02-28T15:33:47.157Z,english_614.wav,0,pill,437,47,5,4,english,m,11,1.09391667,-99.05808014,1.74947328
65dcfc8cb5a870c7880bd8cc,37,0,2024-02-28T15:33:47.157Z,english_536.wav,0,peel,398,47,5,4,english,m,0,0.0,12.53985852,0.4318111
65dcfc8cb5a870c7880bd8cc,37,0,2024-02-28T15:33:47.157Z,english_536.wav,0,peel,398,47,5,4,english,m,1,0.1,21.99103782,1.06422616
65dcfc8cb5a870c7880bd8cc,37,0,2024-02-28T15:33:47.157Z,english_536.wav,0,peel,398,47,5,4,english,m,2,0.2,62.33634556,1.97390757
65dcfc8cb5a870c7880bd8cc,37,0,2024-02-28T15:33:47.157Z,english_536.wav,0,peel,398,47,5,4,english,m,3,0.3,-74.90025976,0.26817195
65dcfc8cb5a870c7880bd8cc,37,0,2024-02-28T15:33:47.157Z,english_536.wav,0,peel,398,47,5,4,english,m,4,0.4,32.85398174,0.16804155
65dcfc8cb5a870c7880bd8cc,37,0,2024-02-28T15:33:47.157Z,english_536.wav,0,peel,398,47,5,4,english,m,5,0.5,-33.4537755,0.37593725
65dcfc8cb5a870c7880bd8cc,37,0,2024-02-28T15:33:47.157Z,english_536.wav,0,peel,398,47,5,4,english,m,6,0.6,-42.71623429,1.32070102
65dcfc8cb5a870c7880bd8cc,37,0,2024-02-28T15:33:47.157Z,english_536.wav,0,peel,398,47,5,4,english,m,7,0.7,-1.00699642,0.04715572
65dcfc8cb5a870c7880bd8cc,37,0,2024-02-28T15:33:47.157Z,english_536.wav,0,peel,398,47,5,4,english,m,8,0.8,-25.01596186,1.04948049
65dcfc8cb5a870c7880bd8cc,37,0,2024-02-28T15:33:47.157Z,english_536.wav,0,peel,398,47,5,4,english,m,9,0.9,-49.31989542,0.94782972
65dcfc8cb5a870c7880bd8cc,37,0,2024-02-28T15:33:47.157Z,english_536.wav,0,peel,398,47,5,4,english,m,10,1.0,38.02707377,1.69951962
65dcfc8cb5a870c7880bd8cc,37,0,2024-02-28T15:33:47.157Z,english_536.wav,0,peel,398,47,5,4,english,m,11,1.09391667,50.96675347,1.16734118
65dcfc8cb5a870c7880bd8cc,38,0,2024-02-28T15:33:47.157Z,english_763.wav,0,pill,864,47,5,4,english,m,0,0.0,-3.64613535,1.37294904
65dcfc8cb5a870c7880bd8cc,38,0,2024-02-28T15:33:47.157Z,english_763.wav,0,pill,864,47,5,4,english,m,1,0.1,86.84394447,1.4753173
65dcfc8cb5a870c7880bd8cc,38,0,2024-02-28T15:33:47.157Z,english_763.wav,0,pill,864,47,5,4,english,m,2,0.2,48.90447279,1.11933896
65dcfc8cb5a870c7880bd8cc,38,0,2024-02-28T15:33:47.157Z,english_763.wav,0,pill,864,47,5,4,english,m,3,0.3,81.52724945,0.74342717
65dcfc8cb5a870c7880bd8cc,38,0,2024-02-28T15:33:47.157Z,english_763.wav,0,pill,864,47,5,4,english,m,4,0.4,38.37028175,1.29789975
65dcfc8cb5a870c7880bd8cc,38,0,2024-02-28T15:33:47.157Z,english_763.wav,0,pill,864,47,5,4,english,m,5,0.5,-1.05640966,0.71005602
65dcfc8cb5a870c7880bd8cc,38,0,2024-02-28T15:33:47.157Z,english_763.wav,0,pill,864,47,5,4,english,m,6,0.6,92.75218552,1.1127111
65dcfc8cb5a870c7880bd8cc,38,0,2024-02-28T15:33:47.157Z,english_763.wav,0,pill,864,47,5,4,english,m,7,0.7,25.6384544,0.88036435
65dcfc8cb5a870c7880bd8cc,38,0,2024-02-28T15:33:47.157Z,english_763.wav,0,pill,864,47,5,4,english,m,8,0.8,39.31857394,0.01207507
65dcfc8cb5a870c7880bd8cc,38,0,2024-02-28T15:33:47.157Z,english_763.wav,0,pill,864,47,5,4,english,m,9,0.9,-39.8545052,1.55647861
65dcfc8cb5a870c7880bd8cc,38,0,2024-02-28T15:33:47.157Z,english_763.wav,0,pill,864,47,5,4,english,m,10,1.0,-46.14237673,1.32252767
65dcfc8cb5a870c7880bd8cc,38,0,2024-02-28T15:33:47.157Z,english_763.wav,0,pill,864,47,5,4,english,m,11,1.09391667,4.92972848,1.12126405
65dcfc8cb5a870c7880bd8cc,39,0,2024-02-28T15:33:47.157Z,english_129.wav,0,peel,585,47,5,4,english,m,0,0.0,-44.56015923,0.4294496
65dcfc8cb5a870c7880bd8cc,39,0,2024-02-28T15:33:47.157Z,english_129.wav,0,peel,585,47,5,4,english,m,1,0.1,-58.7339049,1.17691203
65dcfc8cb5a870c7880bd8cc,39,0,2024-02-28T15:33:47.157Z,english_129.wav,0,peel,585,47,5,4,english,m,2,0.2,4.64427176,0.00792795
65dcfc8cb5a870c7880bd8cc,39,0,2024-02-28T15:33:47.157Z,english_129.wav,0,peel,585,47,5,4,english,m,3,0.3,36.13533526,1.62066926
65dcfc8cb5a870c7880bd8cc,39,0,2024-02-28T15:33:47.157Z,english_129.wav,0,peel,585,47,5,4,english,m,4,0.4,49.60525777,0.46131477
65dcfc8cb5a870c7880bd8cc,39,0,2024-02-28T15:33:47.157Z,english_129.wav,0,peel,585,47,5,4,english,m,5,0.5,66.06381969,0.9562515
65dcfc8cb5a870c7880bd8cc,39,0,2024-02-28T15:33:47.157Z,english_129.wav,0,peel,585,47,5,4,english,m,6,0.6,-22.87129592,0.58790942
65dcfc8cb5a870c7880bd8cc,39,0,2024-02-28T15:33:47.157Z,english_129.wav,0,peel,585,47,5,4,english,m,7,0.7,88.56170171,0.99020247
65dcfc8cb5a870c7880bd8cc,39,0,2024-02-28T15:33:47.157Z,english_129.wav,0,peel,585,47,5,4,english,m,8,0.8,17.84118116,0.9945804
65dcfc8cb5a870c7880bd8cc,39,0,2024-02-28T15:33:47.157Z,english_129.wav,0,peel,585,47,5,4,english,m,9,0.9,-28.77319114,1.36695424
65dcfc8cb5a870c7880bd8cc,39,0,2024-02-28T15:33:47.157Z,english_129.wav,0,peel,585,47,5,4,english,m,10,1.0,86.03376827,0.72564016
65dcfc8cb5a870c7880bd8cc,39,0,2024-02-28T15:33:47.157Z,english_129.wav,0,peel,585,47,5,4,english,m,11,1.09391667,39.56098905,1.15202696
65dcfc8cb5a870c7880bd8cc,40,0,2024-02-28T15:34:44.777Z,english_232.wav,0,peel,1111,47,5,4,english,m,0,0.0,-26.51940276,0.21059611
65dcfc8cb5a870c7880bd8cc,40,0,2024-02-28T15:34:44.777Z,english_232.wav,0,peel,1111,47,5,4,english,m,1,0.1,80.97161113,0.68519171
65dcfc8cb5a870c7880bd8cc,40,0,2024-02-28T15:34:44.777Z,english_232.wav,0,peel,1111,47,5,4,english,m,2,0.2,-59.14883297,1.41170079
65dcfc8cb5a870c7880bd8cc,40,0,2024-02-28T15:34:44.777Z,english_232.wav,0,peel,1111,47,5,4,english,m,3,0.3,25.03200804,1.73443495
65dcfc8cb5a870c7880bd8cc,40,0,2024-02-28T15:34:44.777Z,english_232.wav,0,peel,1111,47,5,4,english,m,4,0.4,20.05380764,0.29201417
65dcfc8cb5a870c7880bd8cc,40,0,2024-02-28T15:34:44.777Z,english_232.wav,0,peel,1111,47,5,4,english,m,5,0.5,56.28196281,0.54790335
65dcfc8cb5a870c7880bd8cc,40,0,2024-02-28T15:34:44.777Z,english_232.wav,0,peel,1111,47,5,4,english,m,6,0.6,50.47197961,1.77444553
65dcfc8cb5a870c7880bd8cc,40,0,2024-02-28T15:34:44.777Z,english_232.wav,0,peel,1111,47,5,4,english,m,7,0.7,52.11037309,1.99008741
65dcfc8cb5a870c7880bd8cc,40,0,2024-02-28T15:34:44.777Z,english_232.wav,0,peel,1111,47,5,4,english,m,8,0.8,88.23327143,0.74569824
65dcfc8cb5a870c7880bd8cc,40,0,2024-02-28T15:34:44.777Z,english_232.wav,0,peel,1111,47,5,4,english,m,9,0.9,37.32869559,0.18993344
65dcfc8cb5a870c7880bd8cc,40,0,2024-02-28T15:34:44.777Z,english_232.wav,0,peel,1111,47,5,4,english,m,10,1.0,-23.53745861,0.72085595
65dcfc8cb5a870c7880bd8cc,40,0,2024-02-28T15:34:44.777Z,english_232.wav,0,peel,1111,47,5,4,english,m,11,1.09391667,93.83220457,1.92388819
65dcfc8cb5a870c7880bd8cc,41,0,2024-02-28T15:34:44.777Z,english_12.wav,0,peel,631,47,5,4,english,m,0,0.0,42.97445599,0.55669558
65dcfc8cb5a870c7880bd8cc,41,0,2024-02-28T15:34:44.777Z,english_12.wav,0,peel,631,47,5,4,english,m,1,0.1,-13.36169143,0.58156084
65dcfc8cb5a870c7880bd8cc,41,0,2024-02-28T15:34:44.777Z,english_12.wav,0,peel,631,47,5,4,english,m,2,0.2,95.55347712,1.49895361
65dcfc8cb5a870c7880bd8cc,41,0,2024-02-28T15:34:44.777Z,english_12.wav,0,peel,631,47,5,4,english,m,3,0.3,25.38194066,1.21133401
65dcfc8cb5a870c7880bd8cc,41,0,2024-02-28T15:34:44.777Z,english_12.wav,0,peel,631,47,5,4,english,m,4,0.4,7.99263567,1.29255802
65dcfc8cb5a870c7880bd8cc,41,0,2024-02-28T15:34:44.777Z,english_12.wav,0,peel,631,47,5,4,english,m,5,0.5,-99.22256454,0.60717751
65dcfc8cb5a870c7880bd8cc,41,0,2024-02-28T15:34:44.777Z,english_12.wav,0,peel,631,47,5,4,english,m,6,0.6,-40.78265899,1.53494704
65dcfc8cb5a870c7880bd8cc,41,0,2024-02-28T15:34:44.777Z,english_12.wav,0,peel,631,47,5,4,english,m,7,0.7,6.53756305,0.96428077
65dcfc8cb5a870c7880bd8cc,41,0,2024-02-28T15:34:44.777Z,english_12.wav,0,peel,631,47,5,4,english,m,8,0.8,-20.69460066,0.42904798
65dcfc8cb5a870c7880bd8cc,41,0,2024-02-28T15:34:44.777Z,english_12.wav,0,peel,631,47,5,4,english,m,9,0.9,-61.55291704,1.90575432
65dcfc8cb5a870c7880bd8cc,41,0,2024-02-28T15:34:44.777Z,english_12.wav,0,peel,631,47,5,4,english,m,10,1.0,-41.80363085,0.98826975
65dcfc8cb5a870c7880bd8cc,41,0,2024-02-28T15:34:44.777Z,english_12.wav,0,peel,631,47,5,4,english,m,11,1.09391667,-15.66743162,0.15634055
65dcfc8cb5a870c7880bd8cc,42,0,2024-02-28T15:34:44.777Z,english_590.wav,0,peel,1729,47,5,4,english,m,0,0.0,24.53986414,1.78897409
65dcfc8cb5a870c7880bd8cc,42,0,2024-02-28T15:34:44.777Z,english_590.wav,0,peel,1729,47,5,4,english,m,1,0.1,62.74729121,1.71743114
65dcfc8cb5a870c7880bd8cc,42,0,2024-02-28T15:34:44.777Z,english_590.wav,0,peel,1729,47,5,4,english,m,2,0.2,-6.99692864,1.45844579
65dcfc8cb5a870c7880bd8cc,42,0,2024-02-28T15:34:44.777Z,english_590.wav,0,peel,1729,47,5,4,english,m,3,0.3,32.91070415,0.05079794
65dcfc8cb5a870c7880bd8cc,42,0,2024-02-28T15:34:44.777Z,english_590.wav,0,peel,1729,47,5,4,english,m,4,0.4,54.80975448,1.44685897
65dcfc8cb5a870c7880bd8cc,42,0,2024-02-28T15:34:44.777Z,english_590.wav,0,peel,1729,47,5,4,english,m,5,0.5,24.32530029,0.6322235
65dcfc8cb5a870c7880bd8cc,42,0,2024-02-28T15:34:44.777Z,english_590.wav,0,peel,1729,47,5,4,english,m,6,0.6,16.29432048,1.01805408
65dcfc8cb5a870c7880bd8cc,42,0,2024-02-28T15:34:44.777Z,english_590.wav,0,peel,1729,47,5,4,english,m,7,0.7,-66.06817006,0.32502854
65dcfc8cb5a870c7880bd8cc,42,0,2024-02-28T15:34:44.777Z,english_590.wav,0,peel,1729,47,5,4,english,m,8,0.8,-90.96676801,1.20600442
65dcfc8cb5a870c7880bd8cc,42,0,2024-02-28T15:34:44.777Z,english_590.wav,0,peel,1729,47,5,4,english,m,9,0.9,-4.67977612,0.69143843
65dcfc8cb5a870c7880bd8cc,42,0,2024-02-28T15:34:44.777Z,english_590.wav,0,peel,1729,47,5,4,english,m,10,1.0,-25.79105575,0.12523546
65dcfc8cb5a870c7880bd8cc,42,0,2024-02-28T15:34:44.777Z,english_590.wav,0,peel,1729,47,5,4,english,m,11,1.09391667,-43.70584136,1.95537842
65dcfc8cb5a870c7880bd8cc,43,0,2024-02-28T15:34:44.777Z,english_297.wav,0,peel,479,47,5,4,english,m,0,0.0,11.20692079,0.86492625
65dcfc8cb5a870c7880bd8cc,43,0,2024-02-28T15:34:44.777Z,english_297.wav,0,peel,479,47,5,4,english,m,1,0.1,55.75431015,0.88416452
65dcfc8cb5a870c7880bd8cc,43,0,2024-02-28T15:34:44.777Z,english_297.wav,0,peel,479,47,5,4,english,m,2,0.2,-86.64282083,0.82005931
65dcfc8cb5a870c7880bd8cc,43,0,2024-02-28T15:34:44.777Z,english_297.wav,0,peel,479,47,5,4,english,m,3,0.3,3.92544498,1.68274586
65dcfc8cb5a870c7880bd8cc,43,0,2024-02-28T15:34:44.777Z,english_297.wav,0,peel,479,47,5,4,english,m,4,0.4,74.84193622,0.6310151
65dcfc8cb5a870c7880bd8cc,43,0,2024-02-28T15:34:44.777Z,english_297.wav,0,peel,479,47,5,4,english,m,5,0.5,98.87033291,1.10285094
65dcfc8cb5a870c7880bd8cc,43,0,2024-02-28T15:34:44.777Z,english_297.wav,0,peel,479,47,5,4,english,m,6,0.6,-27.05853929,1.62243403
65dcfc8cb5a870c7880bd8cc,43,0,2024-02-28T15:34:44.777Z,english_297.wav,0,peel,479,47,5,4,english,m,7,0.7,28.57762927,0.88003843
65dcfc8cb5a870c7880bd8cc,43,0,2024-02-28T15:34:44.777Z,english_297.wav,0,peel,479,47,5,4,english,m,8,0.8,43.21204816,0.80969405
65dcfc8cb5a870c7880bd8cc,43,0,2024-02-28T15:34:44.777Z,english_297.wav,0,peel,479,47,5,4,english,m,9,0.9,-15.31404034,1.74854736
65dcfc8cb5a870c7880bd8cc,43,0,2024-02-28T15:34:44.777Z,english_297.wav,0,peel,479,47,5,4,english,m,10,1.0,27.27632772,0.34135996
65dcfc8cb5a870c7880bd8cc,43,0,2024-02-28T15:34:44.777Z,english_297.wav,0,peel,479,47,5,4,english,m,11,1.09391667,22.16706661,0.77981114
65dcfc8cb5a870c7880bd8cc,44,0,2024-02-28T15:34:44.777Z,english_185.wav,0,peel,841,47,5,4,english,m,0,0.0,-23.80747302,1.70362326
65dcfc8cb5a870c7880bd8cc,44,0,2024-02-28T15:34:44.777Z,english_185.wav,0,peel,841,47,5,4,english,m,1,0.1,-67.70846726,1.95632733
65dcfc8cb5a870c7880bd8cc,44,0,2024-02-28T15:34:44.777Z,english_185.wav,0,peel,841,47,5,4,english,m,2,0.2,27.78292916,1.63625516
65dcfc8cb5a870c7880bd8cc,44,0,2024-02-28T15:34:44.777Z,english_185.wav,0,peel,841,47,5,4,english,m,3,0.3,-22.37709268,0.69364986
65dcfc8cb5a870c7880bd8cc,44,0,2024-02-28T15:34:44.777Z,english_185.wav,0,peel,841,47,5,4,english,m,4,0.4,15.61755946,0.15498305
65dcfc8cb5a870c7880bd8cc,44,0,2024-02-28T15:34:44.777Z,english_185.wav,0,peel,841,47,5,4,english,m,5,0.5,-59.82139972,1.72553948
65dcfc8cb5a870c7880bd8cc,44,0,2024-02-28T15:34:44.777Z,english_185.wav,0,peel,841,47,5,4,english,m,6,0.6,-43.59424473,1.78198359
65dcfc8cb5a870c7880bd8cc,44,0,2024-02-28T15:34:44.777Z,english_185.wav,0,peel,841,47,5,4,english,m,7,0.7,74.12043651,1.30006103
65dcfc8cb5a870c7880bd8cc,44,0,2024-02-28T15:34:44.777Z,english_185.wav,0,peel,841,47,5,4,english,m,8,0.8,77.01624641,0.79426106
65dcfc8cb5a870c7880bd8cc,44,0,2024-02-28T15:34:44.777Z,english_185.wav,0,peel,841,47,5,4,english,m,9,0.9,-47.03527172,0.29849321
65dcfc8cb5a870c7880bd8cc,44,0,2024-02-28T15:34:44.777Z,english_185.wav,0,peel,841,47,5,4,english,m,10,1.0,2.38207477,1.71648204
65dcfc8cb5a870c7880bd8cc,44,0,2024-02-28T15:34:44.777Z,english_185.wav,0,peel,841,47,5,4,english,m,11,1.09391667,-48.42317698,0.84883975
65dcfc8cb5a870c7880bd8cc,45,0,2024-02-28T15:34:44.777Z,english_541.wav,0,pill,565,47,5,4,english,m,0,0.0,-82.81265179,1.86592143
65dcfc8cb5a870c7880bd8cc,45,0,2024-02-28T15:34:44.777Z,english_541.wav,0,pill,565,47,5,4,english,m,1,0.1,18.23831049,0.0388768
65dcfc8cb5a870c7880bd8cc,45,0,2024-02-28T15:34:44.777Z,english_541.wav,0,pill,565,47,5,4,english,m,2,0.2,-76.96396075,1.09878478
65dcfc8cb5a870c7880bd8cc,45,0,2024-02-28T15:34:44.777Z,english_541.wav,0,pill,565,47,5,4,english,m,3,0.3,86.02032489,0.28431894
65dcfc8cb5a870c7880bd8cc,45,0,2024-02-28T15:34:44.777Z,english_541.wav,0,pill,565,47,5,4,english,m,4,0.4,57.7574695,0.60530487
65dcfc8cb5a870c7880bd8cc,45,0,2024-02-28T15:34:44.777Z,english_541.wav,0,pill,565,47,5,4,english,m,5,0.5,-18.45048615,0.68867988
65dcfc8cb5a870c7880bd8cc,45,0,2024-02-28T15:34:44.777Z,english_541.wav,0,pill,565,47,5,4,english,m,6,0.6,-3.56295596,0.07188907
65dcfc8cb5a870c7880bd8cc,45,0,2024-02-28T15:34:44.777Z,english_541.wav,0,pill,565,47,5,4,english,m,7,0.7,30.63851894,1.28694892
65dcfc8cb5a870c7880bd8cc,45,0,2024-02-28T15:34:44.777Z,english_541.wav,0,pill,565,47,5,4,english,m,8,0.8,-39.32138092,0.37107191
65dcfc8cb5a870c7880bd8cc,45,0,2024-02-28T15:34:44.777Z,english_541.wav,0,pill,565,47,5,4,english,m,9,0.9,87.82943792,0.0101762
65dcfc8cb5a870c7880bd8cc,45,0,2024-02-28T15:34:44.777Z,english_541.wav,0,pill,565,47,5,4,english,m,10,1.0,-83.54766347,1.03448412
65dcfc8cb5a870c7880bd8cc,45,0,2024-02-28T15:34:44.777Z,english_541.wav,0,pill,565,47,5,4,english,m,11,1.09391667,-65.29737413,1.0808851
65dcfc8cb5a870c7880bd8cc,46,0,2024-02-28T15:34:44.777Z,english_54.wav,0,peel,317,47,5,4,english,m,0,0.0,-21.96933263,0.48716735
65dcfc8cb5a870c7880bd8cc,46,0,2024-02-28T15:34:44.777Z,english_54.wav,0,peel,317,47,5,4,english,m,1,0.1,21.34738665,1.05776716
65dcfc8cb5a870c7880bd8cc,46,0,2024-02-28T15:34:44.777Z,english_54.wav,0,peel,317,47,5,4,english,m,2,0.2,31.11757961,1.06204204
65dcfc8cb5a870c7880bd8cc,46,0,2024-02-28T15:34:44.777Z,english_54.wav,0,peel,317,47,5,4,english,m,3,0.3,-97.99268721,1.04698992
65dcfc8cb5a870c7880bd8cc,46,0,2024-02-28T15:34:44.777Z,english_54.wav,0,peel,317,47,5,4,english,m,4,0.4,-9.10924424,1.4258698
65dcfc8cb5a870c7880bd8cc,46,0,2024-02-28T15:34:44.777Z,english_54.wav,0,peel,317,47,5,4,english,m,5,0.5,6.54964279,0.044516
65dcfc8cb5a870c7880bd8cc,46,0,2024-02-28T15:34:44.777Z,english_54.wav,0,peel,317,47,5,4,english,m,6,0.6,-88.03304288,1.54012871
65dcfc8cb5a870c7880bd8cc,46,0,2024-02-28T15:34:44.777Z,english_54.wav,0,peel,317,47,5,4,english,m,7,0.7,-43.35008219,0.40475238
65dcfc8cb5a870c7880bd8cc,46,0,2024-02-28T15:34:44.777Z,english_54.wav,0,peel,317,47,5,4,english,m,8,0.8,96.98577024,1.50449696
65dcfc8cb5a870c7880bd8cc,46,0,2024-02-28T15:34:44.777Z,english_54.wav,0,peel,317,47,5,4,english,m,9,0.9,50.71384678,0.29484315
65dcfc8cb5a870c7880bd8cc,46,0,2024-02-28T15:34:44.777Z,english_54.wav,0,peel,317,47,5,4,english,m,10,1.0,-60.40662606,1.60594219
65dcfc8cb5a870c7880bd8cc,46,0,2024-02-28T15:34:44.777Z,english_54.wav,0,peel,317,47,5,4,english,m,11,1.09391667,58.67238149,0.44012247
65dcfc8cb5a870c7880bd8cc,47,0,2024-02-28T15:34:44.777Z,english_951.wav,0,peel,267,47,5,4,english,m,0,0.0,-36.21368885,0.73102916
65dcfc8cb5a870c7880bd8cc,47,0,2024-02-28T15:34:44.777Z,english_951.wav,0,peel,267,47,5,4,english,m,1,0.1,-21.58887728,1.91789337
65dcfc8cb5a870c7880bd8cc,47,0,2024-02-28T15:34:44.777Z,english_951.wav,0,peel,267,47,5,4,english,m,2,0.2,13.41790132,0.21798818
65dcfc8cb5a870c7880bd8cc,47,0,2024-02-28T15:34:44.777Z,english_951.wav,0,peel,267,47,5,4,english,m,3,0.3,54.14984422,1.25250258
65dcfc8cb5a870c7880bd8cc,47,0,2024-02-28T15:34:44.777Z,english_951.wav,0,peel,267,47,5,4,english,m,4,0.4,-14.70759229,1.17100168
65dcfc8cb5a870c7880bd8cc,47,0,2024-02-28T15:34:44.777Z,english_951.wav,0,peel,267,47,5,4,english,m,5,0.5,-89.28721174,0.37038944
65dcfc8cb5a870c7880bd8cc,47,0,2024-02-28T15:34:44.777Z,english_951.wav,0,peel,267,47,5,4,english,m,6,0.6,-44.90139169,0.22313149
65dcfc8cb5a870c7880bd8cc,47,0,2024-02-28T15:34:44.777Z,english_951.wav,0,peel,267,47,5,4,english,m,7,0.7,31.96128506,1.88317087
65dcfc8cb5a870c7880bd8cc,47,0,2024-02-28T15:34:44.777Z,english_951.wav,0,peel,267,47,5,4,english,m,8,0.8,15.8351581,0.03386618
65dcfc8cb5a870c7880bd8cc,47,0,2024-02-28T15:34:44.777Z,english_951.wav,0,peel,267,47,5,4,english,m,9,0.9,-35.27402609,1.29108959
65dcfc8cb5a870c7880bd8cc,47,0,2024-02-28T15:34:44.777Z,english_951.wav,0,peel,267,47,5,4,english,m,10,1.0,-2.7577194,0.69196657
65dcfc8cb5a870c7880bd8cc,47,0,2024-02-28T15:34:44.777Z,english_951.wav,0,peel,267,47,5,4,english,m,11,1.09391667,-33.63227805,1.7463571
65dcfc8cb5a870c7880bd8cc,48,0,2024-02-28T15:34:44.777Z,english_372.wav,0,pill,10265,47,5,4,english,m,0,0.0,26.59916967,1.01937466
65dcfc8cb5a870c7880bd8cc,48,0,2024-02-28T15:34:44.777Z,english_372.wav,0,pill,10265,47,5,4,english,m,1,0.1,3.58814385,0.79696142
65dcfc8cb5a870c7880bd8cc,48,0,2024-02-28T15:34:44.777Z,english_372.wav,0,pill,10265,47,5,4,english,m,2,0.2,-60.14178388,0.00503004
65dcfc8cb5a870c7880bd8cc,48,0,2024-02-28T15:34:44.777Z,english_372.wav,0,pill,10265,47,5,4,english,m,3,0.3,-44.19894674,0.84575405
65dcfc8cb5a870c7880bd8cc,48,0,2024-02-28T15:34:44.777Z,english_372.wav,0,pill,10265,47,5,4,english,m,4,0.4,-38.03613901,0.48969314
65dcfc8cb5a870c7880bd8cc,48,0,2024-02-28T15:34:44.777Z,english_372.wav,0,pill,10265,47,5,4,english,m,5,0.5,46.39303355,1.79043023
65dcfc8cb5a870c7880bd8cc,48,0,2024-02-28T15:34:44.777Z,english_372.wav,0,pill,10265,47,5,4,english,m,6,0.6,-33.97181462,1.46860797
65dcfc8cb5a870c7880bd8cc,48,0,2024-02-28T15:34:44.777Z,english_372.wav,0,pill,10265,47,5,4,english,m,7,0.7,-27.46884733,0.04122284
65dcfc8cb5a870c7880bd8cc,48,0,2024-02-28T15:34:44.777Z,english_372.wav,0,pill,10265,47,5,4,english,m,8,0.8,-45.55461231,0.63203754
65dcfc8cb5a870c7880bd8cc,48,0,2024-02-28T15:34:44.777Z,english_372.wav,0,pill,10265,47,5,4,english,m,9,0.9,20.15963599,1.00944548
65dcfc8cb5a870c7880bd8cc,48,0,2024-02-28T15:34:44.777Z,english_372.wav,0,pill,10265,47,5,4,english,m,10,1.0,54.79355498,0.7711604
65dcfc8cb5a870c7880bd8cc,48,0,2024-02-28T15:34:44.777Z,english_372.wav,0,pill,10265,47,5,4,english,m,11,1.09391667,93.56246184,0.15048829
65dcfc8cb5a870c7880bd8cc,49,0,2024-02-28T15:34:44.777Z,english_640.wav,0,peel,575,47,5,4,english,m,0,0.0,61.20375749,0.85142229
65dcfc8cb5a870c7880bd8cc,49,0,2024-02-28T15:34:44.777Z,english_640.wav,0,peel,575,47,5,4,english,m,1,0.1,-16.1857947,0.85767155
65dcfc8cb5a870c7880bd8cc,49,0,2024-02-28T15:34:44.777Z,english_640.wav,0,peel,575,47,5,4,english,m,2,0.2,6.11258798,0.88844778
65dcfc8cb5a870c7880bd8cc,49,0,2024-02-28T15:34:44.777Z,english_640.wav,0,peel,575,47,5,4,english,m,3,0.3,95.92721012,1.39275841
65dcfc8cb5a870c7880bd8cc,49,0,2024-02-28T15:34:44.777Z,english_640.wav,0,peel,575,47,5,4,english,m,4,0.4,93.14129024,1.52098415
65dcfc8cb5a870c7880bd8cc,49,0,2024-02-28T15:34:44.777Z,english_640.wav,0,peel,575,47,5,4,english,m,5,0.5,-89.55913941,1.55322116
65dcfc8cb5a870c7880bd8cc,49,0,2024-02-28T15:34:44.777Z,english_640.wav,0,peel,575,47,5,4,english,m,6,0.6,57.55264462,0.8538103
65dcfc8cb5a870c7880bd8cc,49,0,2024-02-28T15:34:44.777Z,english_640.wav,0,peel,575,47,5,4,english,m,7,0.7,31.50273718,0.01301989
65dcfc8cb5a870c7880bd8cc,49,0,2024-02-28T15:34:44.777Z,english_640.wav,0,peel,575,47,5,4,english,m,8,0.8,14.91560265,1.48414579
65dcfc8cb5a870c7880bd8cc,49,0,2024-02-28T15:34:44.777Z,english_640.wav,0,peel,575,47,5,4,english,m,9,0.9,73.92386032,0.86811695
65dcfc8cb5a870c7880bd8cc,49,0,2024-02-28T15:34:44.777Z,english_640.wav,0,peel,575,47,5,4,english,m,10,1.0,71.81694375,1.48550262
65dcfc8cb5a870c7880bd8cc,49,0,2024-02-28T15:34:44.777Z,english_640.wav,0,peel,575,47,5,4,english,m,11,1.09391667,86.11531977,1.24176268
65dcfc8cb5a870c7880bd8cc,50,1,2024-02-28T15:34:44.777Z,english_943.wav,0,peel,1059,47,5,4,english,m,0,0.0,79.5890822,1.20824936
65dcfc8cb5a870c7880bd8cc,50,1,2024-02-28T15:34:44.777Z,english_943.wav,0,peel,1059,47,5,4,english,m,1,0.1,78.55264714,0.88116928
65dcfc8cb5a870c7880bd8cc,50,1,2024-02-28T15:34:44.777Z,english_943.wav,0,peel,1059,47,5,4,english,m,2,0.2,44.19658383,1.0423498
65dcfc8cb5a870c7880bd8cc,50,1,2024-02-28T15:34:44.777Z,english_943.wav,0,peel,1059,47,5,4,english,m,3,0.3,-16.14605168,1.30491636
65dcfc8cb5a870c7880bd8cc,50,1,2024-02-28T15:34:44.777Z,english_943.wav,0,peel,1059,47,5,4,english,m,4,0.4,46.84349784,1.23781924
65dcfc8cb5a870c7880bd8cc,50,1,2024-02-28T15:34:44.777Z,english_943.wav,0,peel,1059,47,5,4,english,m,5,0.5,67.29364224,1.19542323
65dcfc8cb5a870c7880bd8cc,50,1,2024-02-28T15:34:44.777Z,english_943.wav,0,peel,1059,47,5,4,english,m,6,0.6,62.75940247,1.00041218
65dcfc8cb5a870c7880bd8cc,50,1,2024-02-28T15:34:44.777Z,english_943.wav,0,peel,1059,47,5,4,english,m,7,0.7,-42.13911475,1.18889719
65dcfc8cb5a870c7880bd8cc,50,1,2024-02-28T15:34:44.777Z,english_943.wav,0,peel,1059,47,5,4,english,m,8,0.8,-19.02728939,0.17654831
65dcfc8cb5a870c7880bd8cc,50,1,2024-02-28T15:34:44.777Z,english_943.wav,0,peel,1059,47,5,4,english,m,9,0.9,-16.03900615,0.65298118
65dcfc8cb5a870c7880bd8cc,50,1,2024-02-28T15:34:44.777Z,english_943.wav,0,peel,1059,47,5,4,english,m,10,1.0,15.22888591,0.96725626
65dcfc8cb5a870c7880bd8cc,50,1,2024-02-28T15:34:44.777Z,english_943.wav,0,peel,1059,47,5,4,english,m,11,1.09391667,60.70409514,1.67455333
65dcfc8cb5a870c7880bd8cc,51,1,2024-02-28T15:34:44.777Z,english_365.wav,0,peel,381,47,5,4,english,m,0,0.0,-13.81078305,1.74540369
65dcfc8cb5a870c7880bd8cc,51,1,2024-02-28T15:34:44.777Z,english_365.wav,0,peel,381,47,5,4,english,m,1,0.1,10.90636048,0.64746191
65dcfc8cb5a870c7880bd8cc,51,1,2024-02-28T15:34:44.777Z,english_365.wav,0,peel,381,47,5,4,english,m,2,0.2,71.51010514,0.6414627
65dcfc8cb5a870c7880bd8cc,51,1,2024-02-28T15:34:44.777Z,english_365.wav,0,peel,381,47,5,4,english,m,3,0.3,42.52309231,0.02436054
65dcfc8cb5a870c7880bd8cc,51,1,2024-02-28T15:34:44.777Z,english_365.wav,0,peel,381,47,5,4,english,m,4,0.4,61.30753847,0.53231596
65dcfc8cb5a870c7880bd8cc,51,1,2024-02-28T15:34:44.777Z,english_365.wav,0,peel,381,47,5,4,english,m,5,0.5,-34.48448602,1.68146763
65dcfc8cb5a870c7880bd8cc,51,1,2024-02-28T15:34:44.777Z,english_365.wav,0,peel,381,47,5,4,english,m,6,0.6,35.84346113,1.59056588
65dcfc8cb5a870c7880bd8cc,51,1,2024-02-28T15:34:44.777Z,english_365.wav,0,peel,381,47,5,4,english,m,7,0.7,-56.39981073,1.84748389
65dcfc8cb5a870c7880bd8cc,51,1,2024-02-28T15:34:44.777Z,english_365.wav,0,peel,381,47,5,4,english,m,8,0.8,-86.58866218,1.51888636
65dcfc8cb5a870c7880bd8cc,51,1,2024-02-28T15:34:44.777Z,english_365.wav,0,peel,381,47,5,4,english,m,9,0.9,-51.1308372,0.50507437
65dcfc8cb5a870c7880bd8cc,51,1,2024-02-28T15:34:44.777Z,english_365.wav,0,peel,381,47,5,4,english,m,10,1.0,-44.59979753,1.32144417
65dcfc8cb5a870c7880bd8cc,51,1,2024-02-28T15:34:44.777Z,english_365.wav,0,peel,381,47,5,4,english,m,11,1.09391667,99.72573964,1.70632081
65dcfc8cb5a870c7880bd8cc,52,1,2024-02-28T15:34:44.777Z,english_979.wav,0,pill,1756,47,5,4,english,m,0,0.0,37.48457567,1.4207367
65dcfc8cb5a870c7880bd8cc,52,1,2024-02-28T15:34:44.777Z,english_979.wav,0,pill,1756,47,5,4,english,m,1,0.1,-37.02244062,1.31079647
65dcfc8cb5a870c7880bd8cc,52,1,2024-02-28T15:34:44.777Z,english_979.wav,0,pill,1756,47,5,4,english,m,2,0.2,-24.69283161,0.99381913
65dcfc8cb5a870c7880bd8cc,52,1,2024-02-28T15:34:44.777Z,english_979.wav,0,pill,1756,47,5,4,english,m,3,0.3,-46.06023598,1.92885953
65dcfc8cb5a870c7880bd8cc,52,1,2024-02-28T15:34:44.777Z,english_979.wav,0,pill,1756,47,5,4,english,m,4,0.4,-42.84074597,1.90853779
65dcfc8cb5a870c7880bd8cc,52,1,2024-02-28T15:34:44.777Z,english_979.wav,0,pill,1756,47,5,4,english,m,5,0.5,74.27862476,0.2569717
65dcfc8cb5a870c7880bd8cc,52,1,2024-02-28T15:34:44.777Z,english_979.wav,0,pill,1756,47,5,4,english,m,6,0.6,-8.30998961,0.19374483
65dcfc8cb5a870c7880bd8cc,52,1,2024-02-28T15:34:44.777Z,english_979.wav,0,pill,1756,47,5,4,english,m,7,0.7,58.9564601,1.09057025
65dcfc8cb5a870c7880bd8cc,52,1,2024-02-28T15:34:44.777Z,english_979.wav,0,pill,1756,47,5,4,english,m,8,0.8,-5.32034309,1.33389295
65dcfc8cb5a870c7880bd8cc,52,1,2024-02-28T15:34:44.777Z,english_979.wav,0,pill,1756,47,5,4,english,m,9,0.9,26.74044499,0.56327367
65dcfc8cb5a870c7880bd8cc,52,1,2024-02-28T15:34:44.777Z,english_979.wav,0,pill,1756,47,5,4,english,m,10,1.0,-18.64517926,0.75332902
65dcfc8cb5a870c7880bd8cc,52,1,2024-02-28T15:34:44.777Z,english_979.wav,0,pill,1756,47,5,4,english,m,11,1.09391667,58.46936922,0.45071064
65dcfc8cb5a870c7880bd8cc,53,1,2024-02-28T15:34:44.777Z,english_816.wav,0,peel,1987,47,5,4,english,m,0,0.0,-17.35587933,1.80713615
65dcfc8cb5a870c7880bd8cc,53,1,2024-02-28T15:34:44.777Z,english_816.wav,0,peel,1987,47,5,4,english,m,1,0.1,0.95768859,0.65818518
65dcfc8cb5a870c7880bd8cc,53,1,2024-02-28T15:34:44.777Z,english_816.wav,0,peel,1987,47,5,4,english,m,2,0.2,47.37608494,0.13743933
65dcfc8cb5a870c7880bd8cc,53,1,2024-02-28T15:34:44.777Z,english_816.wav,0,peel,1987,47,5,4,english,m,3,0.3,-29.30928245,0.63156649
65dcfc8cb5a870c7880bd8cc,53,1,2024-02-28T15:34:44.777Z,english_816.wav,0,peel,1987,47,5,4,english,m,4,0.4,0.3886714,0.74841843
65dcfc8cb5a870c7880bd8cc,53,1,2024-02-28T15:34:44.777Z,english_816.wav,0,peel,1987,47,5,4,english,m,5,0.5,11.78751261,1.47868634
65dcfc8cb5a870c7880bd8cc,53,1,2024-02-28T15:34:44.777Z,english_816.wav,0,peel,1987,47,5,4,english,m,6,0.6,-3.17696206,1.19861887
65dcfc8cb5a870c7880bd8cc,53,1,2024-02-28T15:34:44.777Z,english_816.wav,0,peel,1987,47,5,4,english,m,7,0.7,-19.53944189,0.27488431
65dcfc8cb5a870c7880bd8cc,53,1,2024-02-28T15:34:44.777Z,english_816.wav,0,peel,1987,47,5,4,english,m,8,0.8,-7.70582249,0.84423799
65dcfc8cb5a870c7880bd8cc,53,1,2024-02-28T15:34:44.777Z,english_816.wav,0,peel,1987,47,5,4,english,m,9,0.9,-20.54964166,0.77450003
65dcfc8cb5a870c7880bd8cc,53,1,2024-02-28T15:34:44.777Z,english_816.wav,0,peel,1987,47,5,4,english,m,10,1.0,-60.75740285,1.95248665
65dcfc8cb5a870c7880bd8cc,53,1,2024-02-28T15:34:44.777Z,english_816.wav,0,peel,1987,47,5,4,english,m,11,1.09391667,-12.71558958,0.720403
65dcfc8cb5a870c7880bd8cc,54,1,2024-02-28T15:34:44.777Z,english_173.wav,0,pill,1139,47,5,4,english,m,0,0.0,34.32682043,0.82312646
65dcfc8cb5a870c7880bd8cc,54,1,2024-02-28T15:34:44.777Z,english_173.wav,0,pill,1139,47,5,4,english,m,1,0.1,-35.22347769,0.84965345
65dcfc8cb5a870c7880bd8cc,54,1,2024-02-28T15:34:44.777Z,english_173.wav,0,pill,1139,47,5,4,english,m,2,0.2,15.69043139,0.84607348
65dcfc8cb5a870c7880bd8cc,54,1,2024-02-28T15:34:44.777Z,english_173.wav,0,pill,1139,47,5,4,english,m,3,0.3,-71.83777825,0.55995079
65dcfc8cb5a870c7880bd8cc,54,1,2024-02-28T15:34:44.777Z,english_173.wav,0,pill,1139,47,5,4,english,m,4,0.4,-96.81426106,0.51635348
65dcfc8cb5a870c7880bd8cc,54,1,2024-02-28T15:34:44.777Z,english_173.wav,0,pill,1139,47,5,4,english,m,5,0.5,-51.15803827,1.6072313
65dcfc8cb5a870c7880bd8cc,54,1,2024-02-28T15:34:44.777Z,english_173.wav,0,pill,1139,47,5,4,english,m,6,0.6,-12.70248505,1.25349503
65dcfc8cb5a870c7880bd8cc,54,1,2024-02-28T15:34:44.777Z,english_173.wav,0,pill,1139,47,5,4,english,m,7,0.7,-30.75730157,1.4731344
65dcfc8cb5a870c7880bd8cc,54,1,2024-02-28T15:34:44.777Z,english_173.wav,0,pill,1139,47,5,4,english,m,8,0.8,-5.0022938,0.28621328
65dcfc8cb5a870c7880bd8cc,54,1,2024-02-28T15:34:44.777Z,english_173.wav,0,pill,1139,47,5,4,english,m,9,0.9,41.07030003,0.95942448
65dcfc8cb5a870c7880bd8cc,54,1,2024-02-28T15:34:44.777Z,english_173.wav,0,pill,1139,47,5,4,english,m,10,1.0,-5.319412,0.2847469
65dcfc8cb5a870c7880bd8cc,54,1,2024-02-28T15:34:44.777Z,english_173.wav,0,pill,1139,47,5,4,english,m,11,1.09391667,43.01251996,0.4938404
65dcfc8cb5a870c7880bd8cc,55,1,2024-02-28T15:34:44.777Z,english_991.wav,0,peel,1705,47,5,4,english,m,0,0.0,-1.1896089,1.11058757
65dcfc8cb5a870c7880bd8cc,55,1,2024-02-28T15:34:44.777Z,english_991.wav,0,peel,1705,47,5,4,english,m,1,0.1,-96.26402249,0.1672209
65dcfc8cb5a870c7880bd8cc,55,1,2024-02-28T15:34:44.777Z,english_991.wav,0,peel,1705,47,5,4,english,m,2,0.2,35.13230964,1.95155766
65dcfc8cb5a870c7880bd8cc,55,1,2024-02-28T15:34:44.777Z,english_991.wav,0,peel,1705,47,5,4,english,m,3,0.3,16.47291022,0.04651437
65dcfc8cb5a870c7880bd8cc,55,1,2024-02-28T15:34:44.777Z,english_991.wav,0,peel,1705,47,5,4,english,m,4,0.4,-88.97016612,1.74859016
65dcfc8cb5a870c7880bd8cc,55,1,2024-02-28T15:34:44.777Z,english_991.wav,0,peel,1705,47,5,4,english,m,5,0.5,-18.26917978,1.4122656
65dcfc8cb5a870c7880bd8cc,55,1,2024-02-28T15:34:44.777Z,english_991.wav,0,peel,1705,47,5,4,english,m,6,0.6,-86.44611587,0.52281086
65dcfc8cb5a870c7880bd8cc,55,1,2024-02-28T15:34:44.777Z,english_991.wav,0,peel,1705,47,5,4,english,m,7,0.7,-23.18394533,1.29572944
65dcfc8cb5a870c7880bd8cc,55,1,2024-02-28T15:34:44.777Z,english_991.wav,0,peel,1705,47,5,4,english,m,8,0.8,-34.88810698,1.11115335
65dcfc8cb5a870c7880bd8cc,55,1,2024-02-28T15:34:44.777Z,english_991.wav,0,peel,1705,47,5,4,english,m,9,0.9,58.2484142,1.29146841
65dcfc8cb5a870c7880bd8cc,55,1,2024-02-28T15:34:44.777Z,english_991.wav,0,peel,1705,47,5,4,english,m,10,1.0,13.64122516,1.37847477
65dcfc8cb5a870c7880bd8cc,55,1,2024-02-28T15:34:44.777Z,english_991.wav,0,peel,1705,47,5,4,english,m,11,1.09391667,-13.61979163,0.12249008
65dcfc8cb5a870c7880bd8cc,56,1,2024-02-28T15:34:44.777Z,english_315.wav,0,pill,449,47,5,4,english,m,0,0.0,20.11963367,1.15782854
65dcfc8cb5a870c7880bd8cc,56,1,2024-02-28T15:34:44.777Z,english_315.wav,0,pill,449,47,5,4,english,m,1,0.1,-30.87144334,1.37599817
65dcfc8cb5a870c7880bd8cc,56,1,2024-02-28T15:34:44.777Z,english_315.wav,0,pill,449,47,5,4,english,m,2,0.2,39.10248869,1.4514196
65dcfc8cb5a870c7880bd8cc,56,1,2024-02-28T15:34:44.777Z,english_315.wav,0,pill,449,47,5,4,english,m,3,0.3,-19.08604714,1.32135016
65dcfc8cb5a870c7880bd8cc,56,1,2024-02-28T15:34:44.777Z,english_315.wav,0,pill,449,47,5,4,english,m,4,0.4,90.41461318,1.69132556
65dcfc8cb5a870c7880bd8cc,56,1,2024-02-28T15:34:44.777Z,english_315.wav,0,pill,449,47,5,4,english,m,5,0.5,-82.87118979,0.65296677
65dcfc8cb5a870c7880bd8cc,56,1,2024-02-28T15:34:44.777Z,english_315.wav,0,pill,449,47,5,4,english,m,6,0.6,-12.30252898,1.40058812
65dcfc8cb5a870c7880bd8cc,56,1,2024-02-28T15:34:44.777Z,english_315.wav,0,pill,449,47,5,4,english,m,7,0.7,9.37098005,0.87815256
65dcfc8cb5a870c7880bd8cc,56,1,2024-02-28T15:34:44.777Z,english_315.wav,0,pill,449,47,5,4,english,m,8,0.8,-86.3809894,0.15444706
65dcfc8cb5a870c7880bd8cc,56,1,2024-02-28T15:34:44.777Z,english_315.wav,0,pill,449,47,5,4,english,m,9,0.9,2.03064205,1.46097728
65dcfc8cb5a870c7880bd8cc,56,1,2024-02-28T15:34:44.777Z,english_315.wav,0,pill,449,47,5,4,english,m,10,1.0,99.30710259,0.37640447
65dcfc8cb5a870c7880bd8cc,56,1,2024-02-28T15:34:44.777Z,english_315.wav,0,pill,449,47,5,4,english,m,11,1.09391667,58.65294367,1.18518174
65dcfc8cb5a870c7880bd8cc,57,1,2024-02-28T15:34:44.777Z,english_74.wav,0,peel,479,47,5,4,english,m,0,0.0,24.65162801,0.19950325
65dcfc8cb5a870c7880bd8cc,57,1,2024-02-28T15:34:44.777Z,english_74.wav,0,peel,479,47,5,4,english,m,1,0.1,-30.39880554,1.43111439
65dcfc8cb5a870c7880bd8cc,57,1,2024-02-28T15:34:44.777Z,english_74.wav,0,peel,479,47,5,4,english,m,2,0.2,-41.38450202,0.7414266
65dcfc8cb5a870c7880bd8cc,57,1,2024-02-28T15:34:44.777Z,english_74.wav,0,peel,479,47,5,4,english,m,3,0.3,31.11276598,1.07627737
65dcfc8cb5a870c7880bd8cc,57,1,2024-02-28T15:34:44.777Z,english_74.wav,0,peel,479,47,5,4,english,m,4,0.4,-57.65294567,1.92323622
65dcfc8cb5a870c7880bd8cc,57,1,2024-02-28T15:34:44.777Z,english_74.wav,0,peel,479,47,5,4,english,m,5,0.5,-51.69576528,1.17854767
65dcfc8cb5a870c7880bd8cc,57,1,2024-02-28T15:34:44.777Z,english_74.wav,0,peel,479,47,5,4,english,m,6,0.6,24.90932223,0.17974996
65dcfc8cb5a870c7880bd8cc,57,1,2024-02-28T15:34:44.777Z,english_74.wav,0,peel,479,47,5,4,english,m,7,0.7,-33.10450871,0.92482308
65dcfc8cb5a870c7880bd8cc,57,1,2024-02-28T15:34:44.777Z,english_74.wav,0,peel,479,47,5,4,english,m,8,0.8,-69.97293112,0.31413891
65dcfc8cb5a870c7880bd8cc,57,1,2024-02-28T15:34:44.777Z,english_74.wav,0,peel,479,47,5,4,english,m,9,0.9,88.74386832,1.87630938
65dcfc8cb5a870c7880bd8cc,57,1,2024-02-28T15:34:44.777Z,english_74.wav,0,peel,479,47,5,4,english,m,10,1.0,-68.30431972,1.39265686
65dcfc8cb5a870c7880bd8cc,57,1,2024-02-28T15:34:44.777Z,english_74.wav,0,peel,479,47,5,4,english,m,11,1.09391667,-30.20733398,0.32158433
65dcfc8cb5a870c7880bd8cc,58,1,2024-02-28T15:34:44.777Z,english_445.wav,0,pill,1135,47,5,4,english,m,0,0.0,76.42112213,1.57802926
65dcfc8cb5a870c7880bd8cc,58,1,2024-02-28T15:34:44.777Z,english_445.wav,0,pill,1135,47,5,4,english,m,1,0.1,-97.95203426,1.29835175
65dcfc8cb5a870c7880bd8cc,58,1,2024-02-28T15:34:44.777Z,english_445.wav,0,pill,1135,47,5,4,english,m,2,0.2,-59.82746333,0.53636504
65dcfc8cb5a870c7880bd8cc,58,1,2024-02-28T15:34:44.777Z,english_445.wav,0,pill,1135,47,5,4,english,m,3,0.3,-13.48573522,1.2021667
65dcfc8cb5a870c7880bd8cc,58,1,2024-02-28T15:34:44.777Z,english_445.wav,0,pill,1135,47,5,4,english,m,4,0.4,81.29973607,1.41426839
65dcfc8cb5a870c7880bd8cc,58,1,2024-02-28T15:34:44.777Z,english_445.wav,0,pill,1135,47,5,4,english,m,5,0.5,41.3671656,1.60295296
65dcfc8cb5a870c7880bd8cc,58,1,2024-02-28T15:34:44.777Z,english_445.wav,0,pill,1135,47,5,4,english,m,6,0.6,-85.98514438,0.58159358
65dcfc8cb5a870c7880bd8cc,58,1,2024-02-28T15:34:44.777Z,english_445.wav,0,pill,1135,47,5,4,english,m,7,0.7,57.90232239,0.76199649
65dcfc8cb5a870c7880bd8cc,58,1,2024-02-28T15:34:44.777Z,english_445.wav,0,pill,1135,47,5,4,english,m,8,0.8,-95.60547231,0.54097795
65dcfc8cb5a870c7880bd8cc,58,1,2024-02-28T15:34:44.777Z,english_445.wav,0,pill,1135,47,5,4,english,m,9,0.9,17.13362758,0.00538706
65dcfc8cb5a870c7880bd8cc,58,1,2024-02-28T15:34:44.777Z,english_445.wav,0,pill,1135,47,5,4,english,m,10,1.0,46.54539843,0.3060589
65dcfc8cb5a870c7880bd8cc,58,1,2024-02-28T15:34:44.777Z,english_445.wav,0,pill,1135,47,5,4,english,m,11,1.09391667,43.78720367,1.39576853
65dcfc8cb5a870c7880bd8cc,59,1,2024-02-28T15:34:44.777Z,english_38.wav,0,peel,463,47,5,4,english,m,0,0.0,84.84297862,0.12127835
65dcfc8cb5a870c7880bd8cc,59,1,2024-02-28T15:34:44.777Z,english_38.wav,0,peel,463,47,5,4,english,m,1,0.1,-41.13766339,0.39553601
65dcfc8cb5a870c7880bd8cc,59,1,2024-02-28T15:34:44.777Z,english_38.wav,0,peel,463,47,5,4,english,m,2,0.2,31.0243005,1.29400733
65dcfc8cb5a870c7880bd8cc,59,1,2024-02-28T15:34:44.777Z,english_38.wav,0,peel,463,47,5,4,english,m,3,0.3,51.71643077,0.38578685
65dcfc8cb5a870c7880bd8cc,59,1,2024-02-28T15:34:44.777Z,english_38.wav,0,peel,463,47,5,4,english,m,4,0.4,-15.52187673,0.67216324
65dcfc8cb5a870c7880bd8cc,59,1,2024-02-28T15:34:44.777Z,english_38.wav,0,peel,463,47,5,4,english,m,5,0.5,37.47478577,0.61922356
65dcfc8cb5a870c7880bd8cc,59,1,2024-02-28T15:34:44.777Z,english_38.wav,0,peel,463,47,5,4,english,m,6,0.6,27.01527087,0.0538602
65dcfc8cb5a870c7880bd8cc,59,1,2024-02-28T15:34:44.777Z,english_38.wav,0,peel,463,47,5,4,english,m,7,0.7,44.60136097,0.56901487
65dcfc8cb5a870c7880bd8cc,59,1,2024-02-28T15:34:44.777Z,english_38.wav,0,peel,463,47,5,4,english,m,8,0.8,-52.37417606,1.28646438
65dcfc8cb5a870c7880bd8cc,59,1,2024-02-28T15:34:44.777Z,english_38.wav,0,peel,463,47,5,4,english,m,9,0.9,-48.58777174,0.80149466
65dcfc8cb5a870c7880bd8cc,59,1,2024-02-28T15:34:44.777Z,english_38.wav,0,peel,463,47,5,4,english,m,10,1.0,7.20305444,1.28981754
65dcfc8cb5a870c7880bd8cc,59,1,2024-02-28T15:34:44.777Z,english_38.wav,0,peel,463,47,5,4,english,m,11,1.09391667,-74.66052111,0.46742112
65dcfc8cb5a870c7880bd8cc,60,1,2024-02-28T15:34:44.777Z,english_25.wav,0,peel,571,47,5,4,english,m,0,0.0,-3.04072315,0.82619881
65dcfc8cb5a870c7880bd8cc,60,1,2024-02-28T15:34:44.777Z,english_25.wav,0,peel,571,47,5,4,english,m,1,0.1,-7.71178933,0.19533878
65dcfc8cb5a870c7880bd8cc,60,1,2024-02-28T15:34:44.777Z,english_25.wav,0,peel,571,47,5,4,english,m,2,0.2,-42.18636208,1.08277914
65dcfc8cb5a870c7880bd8cc,60,1,2024-02-28T15:34:44.777Z,english_25.wav,0,peel,571,47,5,4,english,m,3,0.3,-34.45077435,1.14412535
65dcfc8cb5a870c7880bd8cc,60,1,2024-02-28T15:34:44.777Z,english_25.wav,0,peel,571,47,5,4,english,m,4,0.4,-84.66227969,1.20529311
65dcfc8cb5a870c7880bd8cc,60,1,2024-02-28T15:34:44.777Z,english_25.wav,0,peel,571,47,5,4,english,m,5,0.5,-92.64439035,1.74650044
65dcfc8cb5a870c7880bd8cc,60,1,2024-02-28T15:34:44.777Z,english_25.wav,0,peel,571,47,5,4,english,m,6,0.6,-61.14666871,0.43899038
65dcfc8cb5a870c7880bd8cc,60,1,2024-02-28T15:34:44.777Z,english_25.wav,0,peel,571,47,5,4,english,m,7,0.7,-3.59823801,0.82830315
65dcfc8cb5a870c7880bd8cc,60,1,2024-02-28T15:34:44.777Z,english_25.wav,0,peel,571,47,5,4,english,m,8,0.8,-55.86599887,0.29447237
65dcfc8cb5a870c7880bd8cc,60,1,2024-02-28T15:34:44.777Z,english_25.wav,0,peel,571,47,5,4,english,m,9,0.9,70.71897097,0.99577412
65dcfc8cb5a870c7880bd8cc,60,1,2024-02-28T15:34:44.777Z,english_25.wav,0,peel,571,47,5,4,english,m,10,1.0,-41.59717756,1.79017757
65dcfc8cb5a870c7880bd8cc,60,1,2024-02-28T15:34:44.777Z,english_25.wav,0,peel,571,47,5,4,english,m,11,1.09391667,45.33564492,1.70871786
65dcfc8cb5a870c7880bd8cc,61,1,2024-02-28T15:34:44.777Z,english_860.wav,0,peel,275,47,5,4,english,m,0,0.0,-75.11512177,0.5802678
65dcfc8cb5a870c7880bd8cc,61,1,2024-02-28T15:34:44.777Z,english_860.wav,0,peel,275,47,5,4,english,m,1,0.1,-76.73255409,0.63510207
65dcfc8cb5a870c7880bd8cc,61,1,2024-02-28T15:34:44.777Z,english_860.wav,0,peel,275,47,5,4,english,m,2,0.2,-22.8093588,1.68265606
65dcfc8cb5a870c7880bd8cc,61,1,2024-02-28T15:34:44.777Z,english_860.wav,0,peel,275,47,5,4,english,m,3,0.3,52.97738113,1.3480606
65dcfc8cb5a870c7880bd8cc,61,1,2024-02-28T15:34:44.777Z,english_860.wav,0,peel,275,47,5,4,english,m,4,0.4,-48.45234216,1.82238625
65dcfc8cb5a870c7880bd8cc,61,1,2024-02-28T15:34:44.777Z,english_860.wav,0,peel,275,47,5,4,english,m,5,0.5,-73.13735188,1.51063726
65dcfc8cb5a870c7880bd8cc,61,1,2024-02-28T15:34:44.777Z,english_860.wav,0,peel,275,47,5,4,english,m,6,0.6,-46.97684059,1.0243353
65dcfc8cb5a870c7880bd8cc,61,1,2024-02-28T15:34:44.777Z,english_860.wav,0,peel,275,47,5,4,english,m,7,0.7,-71.08749695,1.81300466
65dcfc8cb5a870c7880bd8cc,61,1,2024-02-28T15:34:44.777Z,english_860.wav,0,peel,275,47,5,4,english,m,8,0.8,63.11648415,1.10665048
65dcfc8cb5a870c7880bd8cc,61,1,2024-02-28T15:34:44.777Z,english_860.wav,0,peel,275,47,5,4,english,m,9,0.9,33.70639775,0.26575263
65dcfc8cb5a870c7880bd8cc,61,1,2024-02-28T15:34:44.777Z,english_860.wav,0,peel,275,47,5,4,english,m,10,1.0,39.70734852,1.65404894
65dcfc8cb5a870c7880bd8cc,61,1,2024-02-28T15:34:44.777Z,english_860.wav,0,peel,275,47,5,4,english,m,11,1.09391667,-93.86026271,1.66618104
65dcfc8cb5a870c7880bd8cc,62,1,2024-02-28T15:34:44.777Z,english_784.wav,0,pill,783,47,5,4,english,m,0,0.0,50.65373777,1.66186365
65dcfc8cb5a870c7880bd8cc,62,1,2024-02-28T15:34:44.777Z,english_784.wav,0,pill,783,47,5,4,english,m,1,0.1,90.51346558,0.51528757
65dcfc8cb5a870c7880bd8cc,62,1,2024-02-28T15:34:44.777Z,english_784.wav,0,pill,783,47,5,4,english,m,2,0.2,-3.41025776,1.39494677
65dcfc8cb5a870c7880bd8cc,62,1,2024-02-28T15:34:44.777Z,english_784.wav,0,pill,783,47,5,4,english,m,3,0.3,79.17419675,0.6474703
65dcfc8cb5a870c7880bd8cc,62,1,2024-02-28T15:34:44.777Z,english_784.wav,0,pill,783,47,5,4,english,m,4,0.4,-50.25718644,0.6204281
65dcfc8cb5a870c7880bd8cc,62,1,2024-02-28T15:34:44.777Z,english_784.wav,0,pill,783,47,5,4,english,m,5,0.5,46.55817424,0.42566736
65dcfc8cb5a870c7880bd8cc,62,1,2024-02-28T15:34:44.777Z,english_784.wav,0,pill,783,47,5,4,english,m,6,0.6,-17.22874602,0.08592081
65dcfc8cb5a870c7880bd8cc,62,1,2024-02-28T15:34:44.777Z,english_784.wav,0,pill,783,47,5,4,english,m,7,0.7,33.77400964,0.74713982
65dcfc8cb5a870c7880bd8cc,62,1,2024-02-28T15:34:44.777Z,english_784.wav,0,pill,783,47,5,4,english,m,8,0.8,27.87922438,1.1744845
65dcfc8cb5a870c7880bd8cc,62,1,2024-02-28T15:34:44.777Z,english_784.wav,0,pill,783,47,5,4,english,m,9,0.9,-62.41006325,0.06945236
65dcfc8cb5a870c7880bd8cc,62,1,2024-02-28T15:34:44.777Z,english_784.wav,0,pill,783,47,5,4,english,m,10,1.0,-38.19594807,1.4856768
65dcfc8cb5a870c7880bd8cc,62,1,2024-02-28T15:34:44.777Z,english_784.wav,0,pill,783,47,5,4,english,m,11,1.09391667,-79.50097589,1.99616285
65dcfc8cb5a870c7880bd8cc,63,1,2024-02-28T15:34:44.777Z,english_729.wav,0,peel,249,47,5,4,english,m,0,0.0,-26.87736921,0.37881467
65dcfc8cb5a870c7880bd8cc,63,1,2024-02-28T15:34:44.777Z,english_729.wav,0,peel,249,47,5,4,english,m,1,0.1,-38.78454806,0.37257789
65dcfc8cb5a870c7880bd8cc,63,1,2024-02-28T15:34:44.777Z,english_729.wav,0,peel,249,47,5,4,english,m,2,0.2,-69.72148419,1.48940085
65dcfc8cb5a870c7880bd8cc,63,1,2024-02-28T15:34:44.777Z,english_729.wav,0,peel,249,47,5,4,english,m,3,0.3,56.72097213,1.14518806
65dcfc8cb5a870c7880bd8cc,63,1,2024-02-28T15:34:44.777Z,english_729.wav,0,peel,249,47,5,4,english,m,4,0.4,-88.39667283,1.2314091
65dcfc8cb5a870c7880bd8cc,63,1,2024-02-28T15:34:44.777Z,english_729.wav,0,peel,249,47,5,4,english,m,5,0.5,45.22282249,0.53736575
65dcfc8cb5a870c7880bd8cc,63,1,2024-02-28T15:34:44.777Z,english_729.wav,0,peel,249,47,5,4,english,m,6,0.6,-11.07444694,1.57677514
65dcfc8cb5a870c7880bd8cc,63,1,2024-02-28T15:34:44.777Z,english_729.wav,0,peel,249,47,5,4,english,m,7,0.7,-30.98601297,1.78543206
65dcfc8cb5a870c7880bd8cc,63,1,2024-02-28T15:34:44.777Z,english_729.wav,0,peel,249,47,5,4,english,m,8,0.8,49.05819927,0.9243348
65dcfc8cb5a870c7880bd8cc,63,1,2024-02-28T15:34:44.777Z,english_729.wav,0,peel,249,47,5,4,english,m,9,0.9,95.08611162,1.43220062
65dcfc8cb5a870c7880bd8cc,63,1,2024-02-28T15:34:44.777Z,english_729.wav,0,peel,249,47,5,4,english,m,10,1.0,-80.37669622,1.4106878
65dcfc8cb5a870c7880bd8cc,63,1,2024-02-28T15:34:44.777Z,english_729.wav,0,peel,249,47,5,4,english,m,11,1.09391667,-0.64736784,0.37073527
65dcfc8cb5a870c7880bd8cc,64,1,2024-02-28T15:34:44.777Z,english_840.wav,0,peel,700,47,5,4,english,m,0,0.0,26.56026625,0.58802825
65dcfc8cb5a870c7880bd8cc,64,1,2024-02-28T15:34:44.777Z,english_840.wav,0,peel,700,47,5,4,english,m,1,0.1,-45.76742425,0.34012551
65dcfc8cb5a870c7880bd8cc,64,1,2024-02-28T15:34:44.777Z,english_840.wav,0,peel,700,47,5,4,english,m,2,0.2,58.26038182,1.59409568
65dcfc8cb5a870c7880bd8cc,64,1,2024-02-28T15:34:44.777Z,english_840.wav,0,peel,700,47,5,4,english,m,3,0.3,-41.91368618,1.45145116
65dcfc8cb5a870c7880bd8cc,64,1,2024-02-28T15:34:44.777Z,english_840.wav,0,peel,700,47,5,4,english,m,4,0.4,51.82879955,1.12346348
