subj,trial,block,date,stim,stim_order,response,rt,age,english,french,language,sex,param_index,segment,pitch,stretch
65bba4976e47d14ab32b61c8,0,0,2024-02-28T14:29:02.449Z,english_579.wav,0,peel,2900,30,5,4,English,f,0,0.0,-6.35392527,1.17195822
65bba4976e47d14ab32b61c8,0,0,2024-02-28T14:29:02.449Z,english_579.wav,0,peel,2900,30,5,4,English,f,1,0.1,5.78092652,1.67817047
65bba4976e47d14ab32b61c8,0,0,2024-02-28T14:29:02.449Z,english_579.wav,0,peel,2900,30,5,4,English,f,2,0.2,55.74149698,0.96512057
65bba4976e47d14ab32b61c8,0,0,2024-02-28T14:29:02.449Z,english_579.wav,0,peel,2900,30,5,4,English,f,3,0.3,64.66054606,0.73760998
65bba4976e47d14ab32b61c8,0,0,2024-02-28T14:29:02.449Z,english_579.wav,0,peel,2900,30,5,4,English,f,4,0.4,-20.37343055,0.24043414
65bba4976e47d14ab32b61c8,0,0,2024-02-28T14:29:02.449Z,english_579.wav,0,peel,2900,30,5,4,English,f,5,0.5,97.55604333,0.0297902
65bba4976e47d14ab32b61c8,0,0,2024-02-28T14:29:02.449Z,english_579.wav,0,peel,2900,30,5,4,English,f,6,0.6,-7.40313463,0.83835869
65bba4976e47d14ab32b61c8,0,0,2024-02-28T14:29:02.449Z,english_579.wav,0,peel,2900,30,5,4,English,f,7,0.7,-9.7199121,0.36547932
65bba4976e47d14ab32b61c8,0,0,2024-02-28T14:29:02.449Z,english_579.wav,0,peel,2900,30,5,4,English,f,8,0.8,-43.88557754,1.0786992
65bba4976e47d14ab32b61c8,0,0,2024-02-28T14:29:02.449Z,english_579.wav,0,peel,2900,30,5,4,English,f,9,0.9,89.28129007,1.76340712
65bba4976e47d14ab32b61c8,0,0,2024-02-28T14:29:02.449Z,english_579.wav,0,peel,2900,30,5,4,English,f,10,1.0,21.49927336,0.94339598
65bba4976e47d14ab32b61c8,0,0,2024-02-28T14:29:02.449Z,english_579.wav,0,peel,2900,30,5,4,English,f,11,1.09391667,85.53999973,1.1220246
65bba4976e47d14ab32b61c8,1,0,2024-02-28T14:29:02.449Z,english_615.wav,0,peel,2484,30,5,4,English,f,0,0.0,-59.46419525,1.45272118
65bba4976e47d14ab32b61c8,1,0,2024-02-28T14:29:02.449Z,english_615.wav,0,peel,2484,30,5,4,English,f,1,0.1,57.8993682,1.05218588
65bba4976e47d14ab32b61c8,1,0,2024-02-28T14:29:02.449Z,english_615.wav,0,peel,2484,30,5,4,English,f,2,0.2,96.50473449,0.16877242
65bba4976e47d14ab32b61c8,1,0,2024-02-28T14:29:02.449Z,english_615.wav,0,peel,2484,30,5,4,English,f,3,0.3,70.35497861,0.80491698
65bba4976e47d14ab32b61c8,1,0,2024-02-28T14:29:02.449Z,english_615.wav,0,peel,2484,30,5,4,English,f,4,0.4,41.87750843,0.90543026
65bba4976e47d14ab32b61c8,1,0,2024-02-28T14:29:02.449Z,english_615.wav,0,peel,2484,30,5,4,English,f,5,0.5,-81.49095224,1.05177913
65bba4976e47d14ab32b61c8,1,0,2024-02-28T14:29:02.449Z,english_615.wav,0,peel,2484,30,5,4,English,f,6,0.6,57.42750946,0.09637859
65bba4976e47d14ab32b61c8,1,0,2024-02-28T14:29:02.449Z,english_615.wav,0,peel,2484,30,5,4,English,f,7,0.7,4.11503666,0.17788962
65bba4976e47d14ab32b61c8,1,0,2024-02-28T14:29:02.449Z,english_615.wav,0,peel,2484,30,5,4,English,f,8,0.8,-69.97079252,0.7335246
65bba4976e47d14ab32b61c8,1,0,2024-02-28T14:29:02.449Z,english_615.wav,0,peel,2484,30,5,4,English,f,9,0.9,35.15344639,1.1040214
65bba4976e47d14ab32b61c8,1,0,2024-02-28T14:29:02.449Z,english_615.wav,0,peel,2484,30,5,4,English,f,10,1.0,-81.03238812,0.9742901
65bba4976e47d14ab32b61c8,1,0,2024-02-28T14:29:02.449Z,english_615.wav,0,peel,2484,30,5,4,English,f,11,1.09391667,-73.59723868,0.84036339
65bba4976e47d14ab32b61c8,2,0,2024-02-28T14:29:02.449Z,english_677.wav,0,peel,1284,30,5,4,English,f,0,0.0,35.18766114,1.46418541
65bba4976e47d14ab32b61c8,2,0,2024-02-28T14:29:02.449Z,english_677.wav,0,peel,1284,30,5,4,English,f,1,0.1,3.82449325,0.62060775
65bba4976e47d14ab32b61c8,2,0,2024-02-28T14:29:02.449Z,english_677.wav,0,peel,1284,30,5,4,English,f,2,0.2,-81.73229082,1.63148334
65bba4976e47d14ab32b61c8,2,0,2024-02-28T14:29:02.449Z,english_677.wav,0,peel,1284,30,5,4,English,f,3,0.3,-1.54015563,0.52758496
65bba4976e47d14ab32b61c8,2,0,2024-02-28T14:29:02.449Z,english_677.wav,0,peel,1284,30,5,4,English,f,4,0.4,-45.59201538,0.80943231
65bba4976e47d14ab32b61c8,2,0,2024-02-28T14:29:02.449Z,english_677.wav,0,peel,1284,30,5,4,English,f,5,0.5,26.20010581,1.10411223
65bba4976e47d14ab32b61c8,2,0,2024-02-28T14:29:02.449Z,english_677.wav,0,peel,1284,30,5,4,English,f,6,0.6,-19.9162202,0.62014779
65bba4976e47d14ab32b61c8,2,0,2024-02-28T14:29:02.449Z,english_677.wav,0,peel,1284,30,5,4,English,f,7,0.7,41.69291663,0.65910672
65bba4976e47d14ab32b61c8,2,0,2024-02-28T14:29:02.449Z,english_677.wav,0,peel,1284,30,5,4,English,f,8,0.8,-68.08590586,1.69273141
65bba4976e47d14ab32b61c8,2,0,2024-02-28T14:29:02.449Z,english_677.wav,0,peel,1284,30,5,4,English,f,9,0.9,-52.35020304,1.22000106
65bba4976e47d14ab32b61c8,2,0,2024-02-28T14:29:02.449Z,english_677.wav,0,peel,1284,30,5,4,English,f,10,1.0,55.76687311,0.67614262
65bba4976e47d14ab32b61c8,2,0,2024-02-28T14:29:02.449Z,english_677.wav,0,peel,1284,30,5,4,English,f,11,1.09391667,26.15340501,1.44243981
65bba4976e47d14ab32b61c8,3,0,2024-02-28T14:29:02.449Z,english_211.wav,0,peel,1047,30,5,4,English,f,0,0.0,-80.71487731,0.76887991
65bba4976e47d14ab32b61c8,3,0,2024-02-28T14:29:02.449Z,english_211.wav,0,peel,1047,30,5,4,English,f,1,0.1,-84.93103541,0.20306802
65bba4976e47d14ab32b61c8,3,0,2024-02-28T14:29:02.449Z,english_211.wav,0,peel,1047,30,5,4,English,f,2,0.2,44.45354712,0.68006184
65bba4976e47d14ab32b61c8,3,0,2024-02-28T14:29:02.449Z,english_211.wav,0,peel,1047,30,5,4,English,f,3,0.3,93.3584913,1.00051335
65bba4976e47d14ab32b61c8,3,0,2024-02-28T14:29:02.449Z,english_211.wav,0,peel,1047,30,5,4,English,f,4,0.4,-88.5655354,1.99828121
65bba4976e47d14ab32b61c8,3,0,2024-02-28T14:29:02.449Z,english_211.wav,0,peel,1047,30,5,4,English,f,5,0.5,58.50265478,0.71004269
65bba4976e47d14ab32b61c8,3,0,2024-02-28T14:29:02.449Z,english_211.wav,0,peel,1047,30,5,4,English,f,6,0.6,42.72435837,1.91299509
65bba4976e47d14ab32b61c8,3,0,2024-02-28T14:29:02.449Z,english_211.wav,0,peel,1047,30,5,4,English,f,7,0.7,15.71938112,1.01891246
65bba4976e47d14ab32b61c8,3,0,2024-02-28T14:29:02.449Z,english_211.wav,0,peel,1047,30,5,4,English,f,8,0.8,7.70597987,1.53959141
65bba4976e47d14ab32b61c8,3,0,2024-02-28T14:29:02.449Z,english_211.wav,0,peel,1047,30,5,4,English,f,9,0.9,-16.73581283,1.64058726
65bba4976e47d14ab32b61c8,3,0,2024-02-28T14:29:02.449Z,english_211.wav,0,peel,1047,30,5,4,English,f,10,1.0,-59.877834,1.4823545
65bba4976e47d14ab32b61c8,3,0,2024-02-28T14:29:02.449Z,english_211.wav,0,peel,1047,30,5,4,English,f,11,1.09391667,39.92997673,1.39164399
65bba4976e47d14ab32b61c8,4,0,2024-02-28T14:29:02.449Z,english_12.wav,0,peel,2101,30,5,4,English,f,0,0.0,42.97445599,0.55669558
65bba4976e47d14ab32b61c8,4,0,2024-02-28T14:29:02.449Z,english_12.wav,0,peel,2101,30,5,4,English,f,1,0.1,-13.36169143,0.58156084
65bba4976e47d14ab32b61c8,4,0,2024-02-28T14:29:02.449Z,english_12.wav,0,peel,2101,30,5,4,English,f,2,0.2,95.55347712,1.49895361
65bba4976e47d14ab32b61c8,4,0,2024-02-28T14:29:02.449Z,english_12.wav,0,peel,2101,30,5,4,English,f,3,0.3,25.38194066,1.21133401
65bba4976e47d14ab32b61c8,4,0,2024-02-28T14:29:02.449Z,english_12.wav,0,peel,2101,30,5,4,English,f,4,0.4,7.99263567,1.29255802
65bba4976e47d14ab32b61c8,4,0,2024-02-28T14:29:02.449Z,english_12.wav,0,peel,2101,30,5,4,English,f,5,0.5,-99.22256454,0.60717751
65bba4976e47d14ab32b61c8,4,0,2024-02-28T14:29:02.449Z,english_12.wav,0,peel,2101,30,5,4,English,f,6,0.6,-40.78265899,1.53494704
65bba4976e47d14ab32b61c8,4,0,2024-02-28T14:29:02.449Z,english_12.wav,0,peel,2101,30,5,4,English,f,7,0.7,6.53756305,0.96428077
65bba4976e47d14ab32b61c8,4,0,2024-02-28T14:29:02.449Z,english_12.wav,0,peel,2101,30,5,4,English,f,8,0.8,-20.69460066,0.42904798
65bba4976e47d14ab32b61c8,4,0,2024-02-28T14:29:02.449Z,english_12.wav,0,peel,2101,30,5,4,English,f,9,0.9,-61.55291704,1.90575432
65bba4976e47d14ab32b61c8,4,0,2024-02-28T14:29:02.449Z,english_12.wav,0,peel,2101,30,5,4,English,f,10,1.0,-41.80363085,0.98826975
65bba4976e47d14ab32b61c8,4,0,2024-02-28T14:29:02.449Z,english_12.wav,0,peel,2101,30,5,4,English,f,11,1.09391667,-15.66743162,0.15634055
65bba4976e47d14ab32b61c8,5,0,2024-02-28T14:29:02.449Z,english_871.wav,0,pill,1486,30,5,4,English,f,0,0.0,-17.51935002,0.96351457
65bba4976e47d14ab32b61c8,5,0,2024-02-28T14:29:02.449Z,english_871.wav,0,pill,1486,30,5,4,English,f,1,0.1,48.49295959,1.65140424
65bba4976e47d14ab32b61c8,5,0,2024-02-28T14:29:02.449Z,english_871.wav,0,pill,1486,30,5,4,English,f,2,0.2,58.25436474,0.10129148
65bba4976e47d14ab32b61c8,5,0,2024-02-28T14:29:02.449Z,english_871.wav,0,pill,1486,30,5,4,English,f,3,0.3,19.88257457,1.12009066
65bba4976e47d14ab32b61c8,5,0,2024-02-28T14:29:02.449Z,english_871.wav,0,pill,1486,30,5,4,English,f,4,0.4,50.10507231,1.6763055
65bba4976e47d14ab32b61c8,5,0,2024-02-28T14:29:02.449Z,english_871.wav,0,pill,1486,30,5,4,English,f,5,0.5,-56.4846044,1.91634806
65bba4976e47d14ab32b61c8,5,0,2024-02-28T14:29:02.449Z,english_871.wav,0,pill,1486,30,5,4,English,f,6,0.6,-59.75963758,0.79788864
65bba4976e47d14ab32b61c8,5,0,2024-02-28T14:29:02.449Z,english_871.wav,0,pill,1486,30,5,4,English,f,7,0.7,-99.92210917,1.02975972
65bba4976e47d14ab32b61c8,5,0,2024-02-28T14:29:02.449Z,english_871.wav,0,pill,1486,30,5,4,English,f,8,0.8,-47.06603955,0.06596749
65bba4976e47d14ab32b61c8,5,0,2024-02-28T14:29:02.449Z,english_871.wav,0,pill,1486,30,5,4,English,f,9,0.9,-51.36141327,0.92212705
65bba4976e47d14ab32b61c8,5,0,2024-02-28T14:29:02.449Z,english_871.wav,0,pill,1486,30,5,4,English,f,10,1.0,-80.2024198,1.99068199
65bba4976e47d14ab32b61c8,5,0,2024-02-28T14:29:02.449Z,english_871.wav,0,pill,1486,30,5,4,English,f,11,1.09391667,-23.03879421,0.00440735
65bba4976e47d14ab32b61c8,6,0,2024-02-28T14:29:02.449Z,english_780.wav,0,peel,4121,30,5,4,English,f,0,0.0,-87.5022813,1.98466869
65bba4976e47d14ab32b61c8,6,0,2024-02-28T14:29:02.449Z,english_780.wav,0,peel,4121,30,5,4,English,f,1,0.1,48.02010378,1.54311759
65bba4976e47d14ab32b61c8,6,0,2024-02-28T14:29:02.449Z,english_780.wav,0,peel,4121,30,5,4,English,f,2,0.2,83.84572734,0.61016867
65bba4976e47d14ab32b61c8,6,0,2024-02-28T14:29:02.449Z,english_780.wav,0,peel,4121,30,5,4,English,f,3,0.3,9.25847543,1.29361746
65bba4976e47d14ab32b61c8,6,0,2024-02-28T14:29:02.449Z,english_780.wav,0,peel,4121,30,5,4,English,f,4,0.4,49.97347861,0.77747475
65bba4976e47d14ab32b61c8,6,0,2024-02-28T14:29:02.449Z,english_780.wav,0,peel,4121,30,5,4,English,f,5,0.5,-60.69242488,1.18422754
65bba4976e47d14ab32b61c8,6,0,2024-02-28T14:29:02.449Z,english_780.wav,0,peel,4121,30,5,4,English,f,6,0.6,-21.82497806,0.82850866
65bba4976e47d14ab32b61c8,6,0,2024-02-28T14:29:02.449Z,english_780.wav,0,peel,4121,30,5,4,English,f,7,0.7,13.87798501,0.60760734
65bba4976e47d14ab32b61c8,6,0,2024-02-28T14:29:02.449Z,english_780.wav,0,peel,4121,30,5,4,English,f,8,0.8,32.41479889,0.87727466
65bba4976e47d14ab32b61c8,6,0,2024-02-28T14:29:02.449Z,english_780.wav,0,peel,4121,30,5,4,English,f,9,0.9,54.1006632,1.39371886
65bba4976e47d14ab32b61c8,6,0,2024-02-28T14:29:02.449Z,english_780.wav,0,peel,4121,30,5,4,English,f,10,1.0,-56.48325956,1.23252422
65bba4976e47d14ab32b61c8,6,0,2024-02-28T14:29:02.449Z,english_780.wav,0,peel,4121,30,5,4,English,f,11,1.09391667,96.27244158,0.39725777
65bba4976e47d14ab32b61c8,7,0,2024-02-28T14:29:02.449Z,english_250.wav,0,peel,698,30,5,4,English,f,0,0.0,-2.1507045,1.65815165
65bba4976e47d14ab32b61c8,7,0,2024-02-28T14:29:02.449Z,english_250.wav,0,peel,698,30,5,4,English,f,1,0.1,-59.20535761,0.73684424
65bba4976e47d14ab32b61c8,7,0,2024-02-28T14:29:02.449Z,english_250.wav,0,peel,698,30,5,4,English,f,2,0.2,33.81892305,0.78053485
65bba4976e47d14ab32b61c8,7,0,2024-02-28T14:29:02.449Z,english_250.wav,0,peel,698,30,5,4,English,f,3,0.3,43.78107199,1.26996131
65bba4976e47d14ab32b61c8,7,0,2024-02-28T14:29:02.449Z,english_250.wav,0,peel,698,30,5,4,English,f,4,0.4,-58.56253377,1.90489744
65bba4976e47d14ab32b61c8,7,0,2024-02-28T14:29:02.449Z,english_250.wav,0,peel,698,30,5,4,English,f,5,0.5,-73.24110126,0.31125788
65bba4976e47d14ab32b61c8,7,0,2024-02-28T14:29:02.449Z,english_250.wav,0,peel,698,30,5,4,English,f,6,0.6,77.97062328,0.73718841
65bba4976e47d14ab32b61c8,7,0,2024-02-28T14:29:02.449Z,english_250.wav,0,peel,698,30,5,4,English,f,7,0.7,-37.56549364,0.04729413
65bba4976e47d14ab32b61c8,7,0,2024-02-28T14:29:02.449Z,english_250.wav,0,peel,698,30,5,4,English,f,8,0.8,57.43189813,1.70152056
65bba4976e47d14ab32b61c8,7,0,2024-02-28T14:29:02.449Z,english_250.wav,0,peel,698,30,5,4,English,f,9,0.9,46.17345888,0.07204925
65bba4976e47d14ab32b61c8,7,0,2024-02-28T14:29:02.449Z,english_250.wav,0,peel,698,30,5,4,English,f,10,1.0,59.28871843,1.91615732
65bba4976e47d14ab32b61c8,7,0,2024-02-28T14:29:02.449Z,english_250.wav,0,peel,698,30,5,4,English,f,11,1.09391667,54.90140723,1.08139277
65bba4976e47d14ab32b61c8,8,0,2024-02-28T14:29:02.449Z,english_917.wav,0,peel,2243,30,5,4,English,f,0,0.0,-35.3182661,1.27669121
65bba4976e47d14ab32b61c8,8,0,2024-02-28T14:29:02.449Z,english_917.wav,0,peel,2243,30,5,4,English,f,1,0.1,-21.7738587,1.4602349
65bba4976e47d14ab32b61c8,8,0,2024-02-28T14:29:02.449Z,english_917.wav,0,peel,2243,30,5,4,English,f,2,0.2,82.1428169,0.09750383
65bba4976e47d14ab32b61c8,8,0,2024-02-28T14:29:02.449Z,english_917.wav,0,peel,2243,30,5,4,English,f,3,0.3,-12.2731677,0.51655458
65bba4976e47d14ab32b61c8,8,0,2024-02-28T14:29:02.449Z,english_917.wav,0,peel,2243,30,5,4,English,f,4,0.4,4.83424811,1.15347497
65bba4976e47d14ab32b61c8,8,0,2024-02-28T14:29:02.449Z,english_917.wav,0,peel,2243,30,5,4,English,f,5,0.5,-0.0854945092,1.01469442
65bba4976e47d14ab32b61c8,8,0,2024-02-28T14:29:02.449Z,english_917.wav,0,peel,2243,30,5,4,English,f,6,0.6,-92.693816,0.31102011
65bba4976e47d14ab32b61c8,8,0,2024-02-28T14:29:02.449Z,english_917.wav,0,peel,2243,30,5,4,English,f,7,0.7,-91.5131295,1.44230515
65bba4976e47d14ab32b61c8,8,0,2024-02-28T14:29:02.449Z,english_917.wav,0,peel,2243,30,5,4,English,f,8,0.8,58.0373061,0.03377485
65bba4976e47d14ab32b61c8,8,0,2024-02-28T14:29:02.449Z,english_917.wav,0,peel,2243,30,5,4,English,f,9,0.9,-28.6534312,0.48994194
65bba4976e47d14ab32b61c8,8,0,2024-02-28T14:29:02.449Z,english_917.wav,0,peel,2243,30,5,4,English,f,10,1.0,45.4510696,0.17679016
65bba4976e47d14ab32b61c8,8,0,2024-02-28T14:29:02.449Z,english_917.wav,0,peel,2243,30,5,4,English,f,11,1.09391667,48.3165221,0.94650881
65bba4976e47d14ab32b61c8,9,0,2024-02-28T14:29:02.449Z,english_343.wav,0,peel,686,30,5,4,English,f,0,0.0,-88.20355026,1.73516804
65bba4976e47d14ab32b61c8,9,0,2024-02-28T14:29:02.449Z,english_343.wav,0,peel,686,30,5,4,English,f,1,0.1,-17.76703198,0.86951139
65bba4976e47d14ab32b61c8,9,0,2024-02-28T14:29:02.449Z,english_343.wav,0,peel,686,30,5,4,English,f,2,0.2,-76.85759336,1.76251065
65bba4976e47d14ab32b61c8,9,0,2024-02-28T14:29:02.449Z,english_343.wav,0,peel,686,30,5,4,English,f,3,0.3,13.74829966,1.08707394
65bba4976e47d14ab32b61c8,9,0,2024-02-28T14:29:02.449Z,english_343.wav,0,peel,686,30,5,4,English,f,4,0.4,76.10347036,0.09783198
65bba4976e47d14ab32b61c8,9,0,2024-02-28T14:29:02.449Z,english_343.wav,0,peel,686,30,5,4,English,f,5,0.5,44.00038612,1.79124537
65bba4976e47d14ab32b61c8,9,0,2024-02-28T14:29:02.449Z,english_343.wav,0,peel,686,30,5,4,English,f,6,0.6,-40.48158133,0.32245203
65bba4976e47d14ab32b61c8,9,0,2024-02-28T14:29:02.449Z,english_343.wav,0,peel,686,30,5,4,English,f,7,0.7,-81.80076471,1.83894705
65bba4976e47d14ab32b61c8,9,0,2024-02-28T14:29:02.449Z,english_343.wav,0,peel,686,30,5,4,English,f,8,0.8,16.92874563,0.75545382
65bba4976e47d14ab32b61c8,9,0,2024-02-28T14:29:02.449Z,english_343.wav,0,peel,686,30,5,4,English,f,9,0.9,-39.14191482,0.41918914
65bba4976e47d14ab32b61c8,9,0,2024-02-28T14:29:02.449Z,english_343.wav,0,peel,686,30,5,4,English,f,10,1.0,58.30879913,1.12444687
65bba4976e47d14ab32b61c8,9,0,2024-02-28T14:29:02.449Z,english_343.wav,0,peel,686,30,5,4,English,f,11,1.09391667,14.49118286,1.87351865
65bba4976e47d14ab32b61c8,10,0,2024-02-28T14:29:02.449Z,english_663.wav,0,peel,1344,30,5,4,English,f,0,0.0,25.59053478,1.78737857
65bba4976e47d14ab32b61c8,10,0,2024-02-28T14:29:02.449Z,english_663.wav,0,peel,1344,30,5,4,English,f,1,0.1,-58.99857374,1.42240818
65bba4976e47d14ab32b61c8,10,0,2024-02-28T14:29:02.449Z,english_663.wav,0,peel,1344,30,5,4,English,f,2,0.2,-5.24989333,1.3064588
65bba4976e47d14ab32b61c8,10,0,2024-02-28T14:29:02.449Z,english_663.wav,0,peel,1344,30,5,4,English,f,3,0.3,-69.09303088,0.70237579
65bba4976e47d14ab32b61c8,10,0,2024-02-28T14:29:02.449Z,english_663.wav,0,peel,1344,30,5,4,English,f,4,0.4,-45.4002244,1.46111329
65bba4976e47d14ab32b61c8,10,0,2024-02-28T14:29:02.449Z,english_663.wav,0,peel,1344,30,5,4,English,f,5,0.5,-34.03427643,0.83880831
65bba4976e47d14ab32b61c8,10,0,2024-02-28T14:29:02.449Z,english_663.wav,0,peel,1344,30,5,4,English,f,6,0.6,-19.18804463,1.08172691
65bba4976e47d14ab32b61c8,10,0,2024-02-28T14:29:02.449Z,english_663.wav,0,peel,1344,30,5,4,English,f,7,0.7,-64.51254164,1.55901958
65bba4976e47d14ab32b61c8,10,0,2024-02-28T14:29:02.449Z,english_663.wav,0,peel,1344,30,5,4,English,f,8,0.8,54.38008437,0.76271714
65bba4976e47d14ab32b61c8,10,0,2024-02-28T14:29:02.449Z,english_663.wav,0,peel,1344,30,5,4,English,f,9,0.9,-75.85045717,1.07438518
65bba4976e47d14ab32b61c8,10,0,2024-02-28T14:29:02.449Z,english_663.wav,0,peel,1344,30,5,4,English,f,10,1.0,38.1526186,1.50748802
65bba4976e47d14ab32b61c8,10,0,2024-02-28T14:29:02.449Z,english_663.wav,0,peel,1344,30,5,4,English,f,11,1.09391667,60.1980267,1.3123631
65bba4976e47d14ab32b61c8,11,0,2024-02-28T14:29:02.449Z,english_974.wav,0,peel,985,30,5,4,English,f,0,0.0,-93.03864928,0.43845399
65bba4976e47d14ab32b61c8,11,0,2024-02-28T14:29:02.449Z,english_974.wav,0,peel,985,30,5,4,English,f,1,0.1,-77.75716604,1.6903579
65bba4976e47d14ab32b61c8,11,0,2024-02-28T14:29:02.449Z,english_974.wav,0,peel,985,30,5,4,English,f,2,0.2,0.69139929,1.16063432
65bba4976e47d14ab32b61c8,11,0,2024-02-28T14:29:02.449Z,english_974.wav,0,peel,985,30,5,4,English,f,3,0.3,26.0953238,1.86115796
65bba4976e47d14ab32b61c8,11,0,2024-02-28T14:29:02.449Z,english_974.wav,0,peel,985,30,5,4,English,f,4,0.4,98.53440651,1.84489406
65bba4976e47d14ab32b61c8,11,0,2024-02-28T14:29:02.449Z,english_974.wav,0,peel,985,30,5,4,English,f,5,0.5,92.94553081,1.48551441
65bba4976e47d14ab32b61c8,11,0,2024-02-28T14:29:02.449Z,english_974.wav,0,peel,985,30,5,4,English,f,6,0.6,-7.63804917,0.45444214
65bba4976e47d14ab32b61c8,11,0,2024-02-28T14:29:02.449Z,english_974.wav,0,peel,985,30,5,4,English,f,7,0.7,9.10874073,0.66005011
65bba4976e47d14ab32b61c8,11,0,2024-02-28T14:29:02.449Z,english_974.wav,0,peel,985,30,5,4,English,f,8,0.8,-89.79433239,1.73425962
65bba4976e47d14ab32b61c8,11,0,2024-02-28T14:29:02.449Z,english_974.wav,0,peel,985,30,5,4,English,f,9,0.9,-25.22506103,0.5346903
65bba4976e47d14ab32b61c8,11,0,2024-02-28T14:29:02.449Z,english_974.wav,0,peel,985,30,5,4,English,f,10,1.0,90.91634132,1.12098349
65bba4976e47d14ab32b61c8,11,0,2024-02-28T14:29:02.449Z,english_974.wav,0,peel,985,30,5,4,English,f,11,1.09391667,96.1258414,0.52486182
65bba4976e47d14ab32b61c8,12,0,2024-02-28T14:29:02.449Z,english_971.wav,0,peel,1677,30,5,4,English,f,0,0.0,21.92702064,0.459047
65bba4976e47d14ab32b61c8,12,0,2024-02-28T14:29:02.449Z,english_971.wav,0,peel,1677,30,5,4,English,f,1,0.1,-53.27203396,0.06454192
65bba4976e47d14ab32b61c8,12,0,2024-02-28T14:29:02.449Z,english_971.wav,0,peel,1677,30,5,4,English,f,2,0.2,16.04080675,1.47088252
65bba4976e47d14ab32b61c8,12,0,2024-02-28T14:29:02.449Z,english_971.wav,0,peel,1677,30,5,4,English,f,3,0.3,-93.72897718,0.63214126
65bba4976e47d14ab32b61c8,12,0,2024-02-28T14:29:02.449Z,english_971.wav,0,peel,1677,30,5,4,English,f,4,0.4,76.75922717,0.53041825
65bba4976e47d14ab32b61c8,12,0,2024-02-28T14:29:02.449Z,english_971.wav,0,peel,1677,30,5,4,English,f,5,0.5,2.23154985,0.36671068
65bba4976e47d14ab32b61c8,12,0,2024-02-28T14:29:02.449Z,english_971.wav,0,peel,1677,30,5,4,English,f,6,0.6,57.16774736,0.84112941
65bba4976e47d14ab32b61c8,12,0,2024-02-28T14:29:02.449Z,english_971.wav,0,peel,1677,30,5,4,English,f,7,0.7,-66.3096603,0.93270713
65bba4976e47d14ab32b61c8,12,0,2024-02-28T14:29:02.449Z,english_971.wav,0,peel,1677,30,5,4,English,f,8,0.8,-54.36784686,0.0064824
65bba4976e47d14ab32b61c8,12,0,2024-02-28T14:29:02.449Z,english_971.wav,0,peel,1677,30,5,4,English,f,9,0.9,31.74688825,0.04508119
65bba4976e47d14ab32b61c8,12,0,2024-02-28T14:29:02.449Z,english_971.wav,0,peel,1677,30,5,4,English,f,10,1.0,-41.88838509,1.17781348
65bba4976e47d14ab32b61c8,12,0,2024-02-28T14:29:02.449Z,english_971.wav,0,peel,1677,30,5,4,English,f,11,1.09391667,-46.11178706,0.19249934
65bba4976e47d14ab32b61c8,13,0,2024-02-28T14:29:02.449Z,english_538.wav,0,peel,836,30,5,4,English,f,0,0.0,10.61627961,1.15184391
65bba4976e47d14ab32b61c8,13,0,2024-02-28T14:29:02.449Z,english_538.wav,0,peel,836,30,5,4,English,f,1,0.1,-8.0929012,1.50748819
65bba4976e47d14ab32b61c8,13,0,2024-02-28T14:29:02.449Z,english_538.wav,0,peel,836,30,5,4,English,f,2,0.2,4.29598946,0.49576218
65bba4976e47d14ab32b61c8,13,0,2024-02-28T14:29:02.449Z,english_538.wav,0,peel,836,30,5,4,English,f,3,0.3,-22.12858968,1.003898
65bba4976e47d14ab32b61c8,13,0,2024-02-28T14:29:02.449Z,english_538.wav,0,peel,836,30,5,4,English,f,4,0.4,-56.21885188,1.76624867
65bba4976e47d14ab32b61c8,13,0,2024-02-28T14:29:02.449Z,english_538.wav,0,peel,836,30,5,4,English,f,5,0.5,21.93376584,1.27574792
65bba4976e47d14ab32b61c8,13,0,2024-02-28T14:29:02.449Z,english_538.wav,0,peel,836,30,5,4,English,f,6,0.6,-68.32489038,0.1993111
65bba4976e47d14ab32b61c8,13,0,2024-02-28T14:29:02.449Z,english_538.wav,0,peel,836,30,5,4,English,f,7,0.7,-66.29674784,0.49400206
65bba4976e47d14ab32b61c8,13,0,2024-02-28T14:29:02.449Z,english_538.wav,0,peel,836,30,5,4,English,f,8,0.8,-74.72581258,0.32135859
65bba4976e47d14ab32b61c8,13,0,2024-02-28T14:29:02.449Z,english_538.wav,0,peel,836,30,5,4,English,f,9,0.9,14.86779264,1.63136948
65bba4976e47d14ab32b61c8,13,0,2024-02-28T14:29:02.449Z,english_538.wav,0,peel,836,30,5,4,English,f,10,1.0,61.56126855,1.32900666
65bba4976e47d14ab32b61c8,13,0,2024-02-28T14:29:02.449Z,english_538.wav,0,peel,836,30,5,4,English,f,11,1.09391667,-58.45933513,1.2934419
65bba4976e47d14ab32b61c8,14,0,2024-02-28T14:29:02.449Z,english_607.wav,0,peel,484,30,5,4,English,f,0,0.0,0.27599318,1.85195662
65bba4976e47d14ab32b61c8,14,0,2024-02-28T14:29:02.449Z,english_607.wav,0,peel,484,30,5,4,English,f,1,0.1,61.54655284,0.01211705
65bba4976e47d14ab32b61c8,14,0,2024-02-28T14:29:02.449Z,english_607.wav,0,peel,484,30,5,4,English,f,2,0.2,-45.68438061,1.01527113
65bba4976e47d14ab32b61c8,14,0,2024-02-28T14:29:02.449Z,english_607.wav,0,peel,484,30,5,4,English,f,3,0.3,-56.50831868,0.58104245
65bba4976e47d14ab32b61c8,14,0,2024-02-28T14:29:02.449Z,english_607.wav,0,peel,484,30,5,4,English,f,4,0.4,15.2577286,0.36467608
65bba4976e47d14ab32b61c8,14,0,2024-02-28T14:29:02.449Z,english_607.wav,0,peel,484,30,5,4,English,f,5,0.5,-52.12017374,0.76758339
65bba4976e47d14ab32b61c8,14,0,2024-02-28T14:29:02.449Z,english_607.wav,0,peel,484,30,5,4,English,f,6,0.6,97.83272545,1.21313057
65bba4976e47d14ab32b61c8,14,0,2024-02-28T14:29:02.449Z,english_607.wav,0,peel,484,30,5,4,English,f,7,0.7,7.21834566,1.69539972
65bba4976e47d14ab32b61c8,14,0,2024-02-28T14:29:02.449Z,english_607.wav,0,peel,484,30,5,4,English,f,8,0.8,8.71902974,0.38171646
65bba4976e47d14ab32b61c8,14,0,2024-02-28T14:29:02.449Z,english_607.wav,0,peel,484,30,5,4,English,f,9,0.9,84.51998902,1.4848349
65bba4976e47d14ab32b61c8,14,0,2024-02-28T14:29:02.449Z,english_607.wav,0,peel,484,30,5,4,English,f,10,1.0,-21.50673836,0.84163241
65bba4976e47d14ab32b61c8,14,0,2024-02-28T14:29:02.449Z,english_607.wav,0,peel,484,30,5,4,English,f,11,1.09391667,68.90809966,0.34247873
65bba4976e47d14ab32b61c8,15,0,2024-02-28T14:29:02.449Z,english_624.wav,0,peel,1106,30,5,4,English,f,0,0.0,34.76400378,1.78994994
65bba4976e47d14ab32b61c8,15,0,2024-02-28T14:29:02.449Z,english_624.wav,0,peel,1106,30,5,4,English,f,1,0.1,-36.42076645,1.4795907
65bba4976e47d14ab32b61c8,15,0,2024-02-28T14:29:02.449Z,english_624.wav,0,peel,1106,30,5,4,English,f,2,0.2,-52.38985079,1.80721514
65bba4976e47d14ab32b61c8,15,0,2024-02-28T14:29:02.449Z,english_624.wav,0,peel,1106,30,5,4,English,f,3,0.3,98.14853718,1.70059719
65bba4976e47d14ab32b61c8,15,0,2024-02-28T14:29:02.449Z,english_624.wav,0,peel,1106,30,5,4,English,f,4,0.4,97.5674754,0.69719837
65bba4976e47d14ab32b61c8,15,0,2024-02-28T14:29:02.449Z,english_624.wav,0,peel,1106,30,5,4,English,f,5,0.5,-80.04687885,1.37290399
65bba4976e47d14ab32b61c8,15,0,2024-02-28T14:29:02.449Z,english_624.wav,0,peel,1106,30,5,4,English,f,6,0.6,-8.81047571,1.53741575
65bba4976e47d14ab32b61c8,15,0,2024-02-28T14:29:02.449Z,english_624.wav,0,peel,1106,30,5,4,English,f,7,0.7,-78.45129318,1.54350611
65bba4976e47d14ab32b61c8,15,0,2024-02-28T14:29:02.449Z,english_624.wav,0,peel,1106,30,5,4,English,f,8,0.8,39.54454361,0.49170725
65bba4976e47d14ab32b61c8,15,0,2024-02-28T14:29:02.449Z,english_624.wav,0,peel,1106,30,5,4,English,f,9,0.9,32.62160332,1.04663897
65bba4976e47d14ab32b61c8,15,0,2024-02-28T14:29:02.449Z,english_624.wav,0,peel,1106,30,5,4,English,f,10,1.0,-98.98158135,0.63020253
65bba4976e47d14ab32b61c8,15,0,2024-02-28T14:29:02.449Z,english_624.wav,0,peel,1106,30,5,4,English,f,11,1.09391667,19.08613563,0.96318783
65bba4976e47d14ab32b61c8,16,0,2024-02-28T14:29:02.449Z,english_810.wav,0,peel,1274,30,5,4,English,f,0,0.0,-83.9281143,1.69146892
65bba4976e47d14ab32b61c8,16,0,2024-02-28T14:29:02.449Z,english_810.wav,0,peel,1274,30,5,4,English,f,1,0.1,27.49266296,0.58552036
65bba4976e47d14ab32b61c8,16,0,2024-02-28T14:29:02.449Z,english_810.wav,0,peel,1274,30,5,4,English,f,2,0.2,-79.7114404,0.8081372
65bba4976e47d14ab32b61c8,16,0,2024-02-28T14:29:02.449Z,english_810.wav,0,peel,1274,30,5,4,English,f,3,0.3,88.86514055,1.52853197
65bba4976e47d14ab32b61c8,16,0,2024-02-28T14:29:02.449Z,english_810.wav,0,peel,1274,30,5,4,English,f,4,0.4,-83.57104811,1.32903065
65bba4976e47d14ab32b61c8,16,0,2024-02-28T14:29:02.449Z,english_810.wav,0,peel,1274,30,5,4,English,f,5,0.5,64.75337821,0.44686923
65bba4976e47d14ab32b61c8,16,0,2024-02-28T14:29:02.449Z,english_810.wav,0,peel,1274,30,5,4,English,f,6,0.6,-39.25229813,0.97314752
65bba4976e47d14ab32b61c8,16,0,2024-02-28T14:29:02.449Z,english_810.wav,0,peel,1274,30,5,4,English,f,7,0.7,-20.80683656,1.28969147
65bba4976e47d14ab32b61c8,16,0,2024-02-28T14:29:02.449Z,english_810.wav,0,peel,1274,30,5,4,English,f,8,0.8,-8.25263634,1.65843454
65bba4976e47d14ab32b61c8,16,0,2024-02-28T14:29:02.449Z,english_810.wav,0,peel,1274,30,5,4,English,f,9,0.9,-69.80984132,1.6089276
65bba4976e47d14ab32b61c8,16,0,2024-02-28T14:29:02.449Z,english_810.wav,0,peel,1274,30,5,4,English,f,10,1.0,12.24901577,1.8611166
65bba4976e47d14ab32b61c8,16,0,2024-02-28T14:29:02.449Z,english_810.wav,0,peel,1274,30,5,4,English,f,11,1.09391667,84.4149929,1.61125361
65bba4976e47d14ab32b61c8,17,0,2024-02-28T14:29:02.449Z,english_100.wav,0,peel,535,30,5,4,English,f,0,0.0,-24.42637315,0.62540921
65bba4976e47d14ab32b61c8,17,0,2024-02-28T14:29:02.449Z,english_100.wav,0,peel,535,30,5,4,English,f,1,0.1,47.77288594,1.22625666
65bba4976e47d14ab32b61c8,17,0,2024-02-28T14:29:02.449Z,english_100.wav,0,peel,535,30,5,4,English,f,2,0.2,-50.36782497,1.26348183
65bba4976e47d14ab32b61c8,17,0,2024-02-28T14:29:02.449Z,english_100.wav,0,peel,535,30,5,4,English,f,3,0.3,2.2842979,0.25528387
65bba4976e47d14ab32b61c8,17,0,2024-02-28T14:29:02.449Z,english_100.wav,0,peel,535,30,5,4,English,f,4,0.4,-15.6809061,0.91288523
65bba4976e47d14ab32b61c8,17,0,2024-02-28T14:29:02.449Z,english_100.wav,0,peel,535,30,5,4,English,f,5,0.5,12.92206519,1.75475855
65bba4976e47d14ab32b61c8,17,0,2024-02-28T14:29:02.449Z,english_100.wav,0,peel,535,30,5,4,English,f,6,0.6,58.2816769,1.62969237
65bba4976e47d14ab32b61c8,17,0,2024-02-28T14:29:02.449Z,english_100.wav,0,peel,535,30,5,4,English,f,7,0.7,48.23099815,0.00541247
65bba4976e47d14ab32b61c8,17,0,2024-02-28T14:29:02.449Z,english_100.wav,0,peel,535,30,5,4,English,f,8,0.8,-72.65138159,0.94746335
65bba4976e47d14ab32b61c8,17,0,2024-02-28T14:29:02.449Z,english_100.wav,0,peel,535,30,5,4,English,f,9,0.9,22.56578389,0.25544392
65bba4976e47d14ab32b61c8,17,0,2024-02-28T14:29:02.449Z,english_100.wav,0,peel,535,30,5,4,English,f,10,1.0,5.8175855,1.63729526
65bba4976e47d14ab32b61c8,17,0,2024-02-28T14:29:02.449Z,english_100.wav,0,peel,535,30,5,4,English,f,11,1.09391667,54.85953581,1.97415754
65bba4976e47d14ab32b61c8,18,0,2024-02-28T14:29:02.449Z,english_107.wav,0,peel,592,30,5,4,English,f,0,0.0,14.75106281,1.14538344
65bba4976e47d14ab32b61c8,18,0,2024-02-28T14:29:02.449Z,english_107.wav,0,peel,592,30,5,4,English,f,1,0.1,61.55616618,1.63691709
65bba4976e47d14ab32b61c8,18,0,2024-02-28T14:29:02.449Z,english_107.wav,0,peel,592,30,5,4,English,f,2,0.2,-53.67988365,1.34954163
65bba4976e47d14ab32b61c8,18,0,2024-02-28T14:29:02.449Z,english_107.wav,0,peel,592,30,5,4,English,f,3,0.3,-26.40552644,0.87865188
65bba4976e47d14ab32b61c8,18,0,2024-02-28T14:29:02.449Z,english_107.wav,0,peel,592,30,5,4,English,f,4,0.4,-39.74978172,0.87105183
65bba4976e47d14ab32b61c8,18,0,2024-02-28T14:29:02.449Z,english_107.wav,0,peel,592,30,5,4,English,f,5,0.5,59.30152115,0.97837698
65bba4976e47d14ab32b61c8,18,0,2024-02-28T14:29:02.449Z,english_107.wav,0,peel,592,30,5,4,English,f,6,0.6,47.78500901,0.24331513
65bba4976e47d14ab32b61c8,18,0,2024-02-28T14:29:02.449Z,english_107.wav,0,peel,592,30,5,4,English,f,7,0.7,-56.28829924,1.31332622
65bba4976e47d14ab32b61c8,18,0,2024-02-28T14:29:02.449Z,english_107.wav,0,peel,592,30,5,4,English,f,8,0.8,-27.92998764,1.65018095
65bba4976e47d14ab32b61c8,18,0,2024-02-28T14:29:02.449Z,english_107.wav,0,peel,592,30,5,4,English,f,9,0.9,-79.09348068,0.9374591
65bba4976e47d14ab32b61c8,18,0,2024-02-28T14:29:02.449Z,english_107.wav,0,peel,592,30,5,4,English,f,10,1.0,-12.41548757,1.20965119
65bba4976e47d14ab32b61c8,18,0,2024-02-28T14:29:02.449Z,english_107.wav,0,peel,592,30,5,4,English,f,11,1.09391667,52.16057728,1.85980397
65bba4976e47d14ab32b61c8,19,0,2024-02-28T14:29:02.449Z,english_362.wav,0,peel,453,30,5,4,English,f,0,0.0,-2.50436392,0.54146841
65bba4976e47d14ab32b61c8,19,0,2024-02-28T14:29:02.449Z,english_362.wav,0,peel,453,30,5,4,English,f,1,0.1,0.0104378628,1.24688309
65bba4976e47d14ab32b61c8,19,0,2024-02-28T14:29:02.449Z,english_362.wav,0,peel,453,30,5,4,English,f,2,0.2,11.8772332,0.3557669
65bba4976e47d14ab32b61c8,19,0,2024-02-28T14:29:02.449Z,english_362.wav,0,peel,453,30,5,4,English,f,3,0.3,-6.76668863,0.8130148
65bba4976e47d14ab32b61c8,19,0,2024-02-28T14:29:02.449Z,english_362.wav,0,peel,453,30,5,4,English,f,4,0.4,48.0667468,0.53456903
65bba4976e47d14ab32b61c8,19,0,2024-02-28T14:29:02.449Z,english_362.wav,0,peel,453,30,5,4,English,f,5,0.5,47.82207,0.25808446
65bba4976e47d14ab32b61c8,19,0,2024-02-28T14:29:02.449Z,english_362.wav,0,peel,453,30,5,4,English,f,6,0.6,71.0515441,0.46779047
65bba4976e47d14ab32b61c8,19,0,2024-02-28T14:29:02.449Z,english_362.wav,0,peel,453,30,5,4,English,f,7,0.7,16.0380094,1.05295189
65bba4976e47d14ab32b61c8,19,0,2024-02-28T14:29:02.449Z,english_362.wav,0,peel,453,30,5,4,English,f,8,0.8,76.5389373,0.192545
65bba4976e47d14ab32b61c8,19,0,2024-02-28T14:29:02.449Z,english_362.wav,0,peel,453,30,5,4,English,f,9,0.9,33.7838449,0.76311718
65bba4976e47d14ab32b61c8,19,0,2024-02-28T14:29:02.449Z,english_362.wav,0,peel,453,30,5,4,English,f,10,1.0,-81.3464293,1.48955345
65bba4976e47d14ab32b61c8,19,0,2024-02-28T14:29:02.449Z,english_362.wav,0,peel,453,30,5,4,English,f,11,1.09391667,-3.89826037,1.4188577
65bba4976e47d14ab32b61c8,20,0,2024-02-28T14:29:02.449Z,english_74.wav,0,pill,1538,30,5,4,English,f,0,0.0,24.65162801,0.19950325
65bba4976e47d14ab32b61c8,20,0,2024-02-28T14:29:02.449Z,english_74.wav,0,pill,1538,30,5,4,English,f,1,0.1,-30.39880554,1.43111439
65bba4976e47d14ab32b61c8,20,0,2024-02-28T14:29:02.449Z,english_74.wav,0,pill,1538,30,5,4,English,f,2,0.2,-41.38450202,0.7414266
65bba4976e47d14ab32b61c8,20,0,2024-02-28T14:29:02.449Z,english_74.wav,0,pill,1538,30,5,4,English,f,3,0.3,31.11276598,1.07627737
65bba4976e47d14ab32b61c8,20,0,2024-02-28T14:29:02.449Z,english_74.wav,0,pill,1538,30,5,4,English,f,4,0.4,-57.65294567,1.92323622
65bba4976e47d14ab32b61c8,20,0,2024-02-28T14:29:02.449Z,english_74.wav,0,pill,1538,30,5,4,English,f,5,0.5,-51.69576528,1.17854767
65bba4976e47d14ab32b61c8,20,0,2024-02-28T14:29:02.449Z,english_74.wav,0,pill,1538,30,5,4,English,f,6,0.6,24.90932223,0.17974996
65bba4976e47d14ab32b61c8,20,0,2024-02-28T14:29:02.449Z,english_74.wav,0,pill,1538,30,5,4,English,f,7,0.7,-33.10450871,0.92482308
65bba4976e47d14ab32b61c8,20,0,2024-02-28T14:29:02.449Z,english_74.wav,0,pill,1538,30,5,4,English,f,8,0.8,-69.97293112,0.31413891
65bba4976e47d14ab32b61c8,20,0,2024-02-28T14:29:02.449Z,english_74.wav,0,pill,1538,30,5,4,English,f,9,0.9,88.74386832,1.87630938
65bba4976e47d14ab32b61c8,20,0,2024-02-28T14:29:02.449Z,english_74.wav,0,pill,1538,30,5,4,English,f,10,1.0,-68.30431972,1.39265686
65bba4976e47d14ab32b61c8,20,0,2024-02-28T14:29:02.449Z,english_74.wav,0,pill,1538,30,5,4,English,f,11,1.09391667,-30.20733398,0.32158433
65bba4976e47d14ab32b61c8,21,0,2024-02-28T14:29:02.449Z,english_683.wav,0,peel,1210,30,5,4,English,f,0,0.0,34.23496856,1.52890361
65bba4976e47d14ab32b61c8,21,0,2024-02-28T14:29:02.449Z,english_683.wav,0,peel,1210,30,5,4,English,f,1,0.1,81.31064479,1.93705935
65bba4976e47d14ab32b61c8,21,0,2024-02-28T14:29:02.449Z,english_683.wav,0,peel,1210,30,5,4,English,f,2,0.2,-60.40458615,0.69433094
65bba4976e47d14ab32b61c8,21,0,2024-02-28T14:29:02.449Z,english_683.wav,0,peel,1210,30,5,4,English,f,3,0.3,-62.54980461,1.53772514
65bba4976e47d14ab32b61c8,21,0,2024-02-28T14:29:02.449Z,english_683.wav,0,peel,1210,30,5,4,English,f,4,0.4,-12.36553538,1.78596087
65bba4976e47d14ab32b61c8,21,0,2024-02-28T14:29:02.449Z,english_683.wav,0,peel,1210,30,5,4,English,f,5,0.5,-34.77582481,1.63079743
65bba4976e47d14ab32b61c8,21,0,2024-02-28T14:29:02.449Z,english_683.wav,0,peel,1210,30,5,4,English,f,6,0.6,-96.13838061,0.34418859
65bba4976e47d14ab32b61c8,21,0,2024-02-28T14:29:02.449Z,english_683.wav,0,peel,1210,30,5,4,English,f,7,0.7,-24.06724676,0.7060728
65bba4976e47d14ab32b61c8,21,0,2024-02-28T14:29:02.449Z,english_683.wav,0,peel,1210,30,5,4,English,f,8,0.8,-21.80988158,1.36877557
65bba4976e47d14ab32b61c8,21,0,2024-02-28T14:29:02.449Z,english_683.wav,0,peel,1210,30,5,4,English,f,9,0.9,25.64503309,0.99980175
65bba4976e47d14ab32b61c8,21,0,2024-02-28T14:29:02.449Z,english_683.wav,0,peel,1210,30,5,4,English,f,10,1.0,-38.18547527,1.47729865
65bba4976e47d14ab32b61c8,21,0,2024-02-28T14:29:02.449Z,english_683.wav,0,peel,1210,30,5,4,English,f,11,1.09391667,-68.93519132,0.6697003
65bba4976e47d14ab32b61c8,22,0,2024-02-28T14:29:02.449Z,english_327.wav,0,peel,1159,30,5,4,English,f,0,0.0,68.47046609,1.54763433
65bba4976e47d14ab32b61c8,22,0,2024-02-28T14:29:02.449Z,english_327.wav,0,peel,1159,30,5,4,English,f,1,0.1,85.76832326,1.83635771
65bba4976e47d14ab32b61c8,22,0,2024-02-28T14:29:02.449Z,english_327.wav,0,peel,1159,30,5,4,English,f,2,0.2,-75.98339762,0.3050113
65bba4976e47d14ab32b61c8,22,0,2024-02-28T14:29:02.449Z,english_327.wav,0,peel,1159,30,5,4,English,f,3,0.3,74.12796235,0.70474203
65bba4976e47d14ab32b61c8,22,0,2024-02-28T14:29:02.449Z,english_327.wav,0,peel,1159,30,5,4,English,f,4,0.4,11.46376172,0.8224078
65bba4976e47d14ab32b61c8,22,0,2024-02-28T14:29:02.449Z,english_327.wav,0,peel,1159,30,5,4,English,f,5,0.5,-5.50560149,0.00526041
65bba4976e47d14ab32b61c8,22,0,2024-02-28T14:29:02.449Z,english_327.wav,0,peel,1159,30,5,4,English,f,6,0.6,27.1504605,0.35213553
65bba4976e47d14ab32b61c8,22,0,2024-02-28T14:29:02.449Z,english_327.wav,0,peel,1159,30,5,4,English,f,7,0.7,27.2911911,1.7713752
65bba4976e47d14ab32b61c8,22,0,2024-02-28T14:29:02.449Z,english_327.wav,0,peel,1159,30,5,4,English,f,8,0.8,-20.36547399,1.08380037
65bba4976e47d14ab32b61c8,22,0,2024-02-28T14:29:02.449Z,english_327.wav,0,peel,1159,30,5,4,English,f,9,0.9,-51.25849452,0.55113913
65bba4976e47d14ab32b61c8,22,0,2024-02-28T14:29:02.449Z,english_327.wav,0,peel,1159,30,5,4,English,f,10,1.0,79.11844333,0.59854608
65bba4976e47d14ab32b61c8,22,0,2024-02-28T14:29:02.449Z,english_327.wav,0,peel,1159,30,5,4,English,f,11,1.09391667,-53.98607147,1.65860026
65bba4976e47d14ab32b61c8,23,0,2024-02-28T14:29:02.449Z,english_148.wav,0,peel,1355,30,5,4,English,f,0,0.0,85.27624152,0.1092145
65bba4976e47d14ab32b61c8,23,0,2024-02-28T14:29:02.449Z,english_148.wav,0,peel,1355,30,5,4,English,f,1,0.1,58.23579672,0.64980633
65bba4976e47d14ab32b61c8,23,0,2024-02-28T14:29:02.449Z,english_148.wav,0,peel,1355,30,5,4,English,f,2,0.2,-91.05033604,1.83346208
65bba4976e47d14ab32b61c8,23,0,2024-02-28T14:29:02.449Z,english_148.wav,0,peel,1355,30,5,4,English,f,3,0.3,20.11396141,1.16314863
65bba4976e47d14ab32b61c8,23,0,2024-02-28T14:29:02.449Z,english_148.wav,0,peel,1355,30,5,4,English,f,4,0.4,75.44798514,0.3185648
65bba4976e47d14ab32b61c8,23,0,2024-02-28T14:29:02.449Z,english_148.wav,0,peel,1355,30,5,4,English,f,5,0.5,-38.94488744,0.6593156
65bba4976e47d14ab32b61c8,23,0,2024-02-28T14:29:02.449Z,english_148.wav,0,peel,1355,30,5,4,English,f,6,0.6,-29.81274231,1.16710518
65bba4976e47d14ab32b61c8,23,0,2024-02-28T14:29:02.449Z,english_148.wav,0,peel,1355,30,5,4,English,f,7,0.7,75.45743384,1.07936895
65bba4976e47d14ab32b61c8,23,0,2024-02-28T14:29:02.449Z,english_148.wav,0,peel,1355,30,5,4,English,f,8,0.8,-13.70216327,0.75554181
65bba4976e47d14ab32b61c8,23,0,2024-02-28T14:29:02.449Z,english_148.wav,0,peel,1355,30,5,4,English,f,9,0.9,-90.12623186,1.33604039
65bba4976e47d14ab32b61c8,23,0,2024-02-28T14:29:02.449Z,english_148.wav,0,peel,1355,30,5,4,English,f,10,1.0,-27.22744176,1.61217721
65bba4976e47d14ab32b61c8,23,0,2024-02-28T14:29:02.449Z,english_148.wav,0,peel,1355,30,5,4,English,f,11,1.09391667,7.28951287,1.20550087
65bba4976e47d14ab32b61c8,24,0,2024-02-28T14:29:02.449Z,english_953.wav,0,peel,1237,30,5,4,English,f,0,0.0,66.99743889,1.15286604
65bba4976e47d14ab32b61c8,24,0,2024-02-28T14:29:02.449Z,english_953.wav,0,peel,1237,30,5,4,English,f,1,0.1,-76.84252631,1.84100888
65bba4976e47d14ab32b61c8,24,0,2024-02-28T14:29:02.449Z,english_953.wav,0,peel,1237,30,5,4,English,f,2,0.2,-45.49309493,0.29896559
65bba4976e47d14ab32b61c8,24,0,2024-02-28T14:29:02.449Z,english_953.wav,0,peel,1237,30,5,4,English,f,3,0.3,55.46461894,0.47017465
65bba4976e47d14ab32b61c8,24,0,2024-02-28T14:29:02.449Z,english_953.wav,0,peel,1237,30,5,4,English,f,4,0.4,81.99201124,0.15248902
65bba4976e47d14ab32b61c8,24,0,2024-02-28T14:29:02.449Z,english_953.wav,0,peel,1237,30,5,4,English,f,5,0.5,1.34607331,1.13290225
65bba4976e47d14ab32b61c8,24,0,2024-02-28T14:29:02.449Z,english_953.wav,0,peel,1237,30,5,4,English,f,6,0.6,50.45029952,0.34595451
65bba4976e47d14ab32b61c8,24,0,2024-02-28T14:29:02.449Z,english_953.wav,0,peel,1237,30,5,4,English,f,7,0.7,74.64893983,0.44244875
65bba4976e47d14ab32b61c8,24,0,2024-02-28T14:29:02.449Z,english_953.wav,0,peel,1237,30,5,4,English,f,8,0.8,26.00448077,0.8076701
65bba4976e47d14ab32b61c8,24,0,2024-02-28T14:29:02.449Z,english_953.wav,0,peel,1237,30,5,4,English,f,9,0.9,-99.39894728,1.93347558
65bba4976e47d14ab32b61c8,24,0,2024-02-28T14:29:02.449Z,english_953.wav,0,peel,1237,30,5,4,English,f,10,1.0,-16.71063882,1.69365872
65bba4976e47d14ab32b61c8,24,0,2024-02-28T14:29:02.449Z,english_953.wav,0,peel,1237,30,5,4,English,f,11,1.09391667,53.60095231,1.16220812
65bba4976e47d14ab32b61c8,25,0,2024-02-28T14:29:02.449Z,english_147.wav,0,peel,336,30,5,4,English,f,0,0.0,13.5835913,1.55424913
65bba4976e47d14ab32b61c8,25,0,2024-02-28T14:29:02.449Z,english_147.wav,0,peel,336,30,5,4,English,f,1,0.1,-12.78269311,1.36751472
65bba4976e47d14ab32b61c8,25,0,2024-02-28T14:29:02.449Z,english_147.wav,0,peel,336,30,5,4,English,f,2,0.2,-68.15160011,0.0989476
65bba4976e47d14ab32b61c8,25,0,2024-02-28T14:29:02.449Z,english_147.wav,0,peel,336,30,5,4,English,f,3,0.3,-22.06196162,1.09942606
65bba4976e47d14ab32b61c8,25,0,2024-02-28T14:29:02.449Z,english_147.wav,0,peel,336,30,5,4,English,f,4,0.4,-52.80599893,0.66767386
65bba4976e47d14ab32b61c8,25,0,2024-02-28T14:29:02.449Z,english_147.wav,0,peel,336,30,5,4,English,f,5,0.5,-19.06204323,1.22234283
65bba4976e47d14ab32b61c8,25,0,2024-02-28T14:29:02.449Z,english_147.wav,0,peel,336,30,5,4,English,f,6,0.6,99.53651939,1.18173491
65bba4976e47d14ab32b61c8,25,0,2024-02-28T14:29:02.449Z,english_147.wav,0,peel,336,30,5,4,English,f,7,0.7,-28.8369824,1.33756281
65bba4976e47d14ab32b61c8,25,0,2024-02-28T14:29:02.449Z,english_147.wav,0,peel,336,30,5,4,English,f,8,0.8,74.70483883,0.81214456
65bba4976e47d14ab32b61c8,25,0,2024-02-28T14:29:02.449Z,english_147.wav,0,peel,336,30,5,4,English,f,9,0.9,42.275031,0.37062199
65bba4976e47d14ab32b61c8,25,0,2024-02-28T14:29:02.449Z,english_147.wav,0,peel,336,30,5,4,English,f,10,1.0,-85.9360484,1.6700327
65bba4976e47d14ab32b61c8,25,0,2024-02-28T14:29:02.449Z,english_147.wav,0,peel,336,30,5,4,English,f,11,1.09391667,70.70596031,1.62026459
65bba4976e47d14ab32b61c8,26,0,2024-02-28T14:29:02.449Z,english_567.wav,0,peel,251,30,5,4,English,f,0,0.0,-50.9933631,1.16123569
65bba4976e47d14ab32b61c8,26,0,2024-02-28T14:29:02.449Z,english_567.wav,0,peel,251,30,5,4,English,f,1,0.1,31.36220977,0.07564958
65bba4976e47d14ab32b61c8,26,0,2024-02-28T14:29:02.449Z,english_567.wav,0,peel,251,30,5,4,English,f,2,0.2,13.5680641,0.67264934
65bba4976e47d14ab32b61c8,26,0,2024-02-28T14:29:02.449Z,english_567.wav,0,peel,251,30,5,4,English,f,3,0.3,-18.75410864,0.76417436
65bba4976e47d14ab32b61c8,26,0,2024-02-28T14:29:02.449Z,english_567.wav,0,peel,251,30,5,4,English,f,4,0.4,-57.83772282,0.9716426
65bba4976e47d14ab32b61c8,26,0,2024-02-28T14:29:02.449Z,english_567.wav,0,peel,251,30,5,4,English,f,5,0.5,90.76203665,1.19685833
65bba4976e47d14ab32b61c8,26,0,2024-02-28T14:29:02.449Z,english_567.wav,0,peel,251,30,5,4,English,f,6,0.6,-98.97367079,0.6509574
65bba4976e47d14ab32b61c8,26,0,2024-02-28T14:29:02.449Z,english_567.wav,0,peel,251,30,5,4,English,f,7,0.7,53.61923561,1.78514313
65bba4976e47d14ab32b61c8,26,0,2024-02-28T14:29:02.449Z,english_567.wav,0,peel,251,30,5,4,English,f,8,0.8,-3.57099992,1.44408837
65bba4976e47d14ab32b61c8,26,0,2024-02-28T14:29:02.449Z,english_567.wav,0,peel,251,30,5,4,English,f,9,0.9,94.7090793,0.5179509
65bba4976e47d14ab32b61c8,26,0,2024-02-28T14:29:02.449Z,english_567.wav,0,peel,251,30,5,4,English,f,10,1.0,93.07088687,1.46519298
65bba4976e47d14ab32b61c8,26,0,2024-02-28T14:29:02.449Z,english_567.wav,0,peel,251,30,5,4,English,f,11,1.09391667,-71.18485827,0.55032839
65bba4976e47d14ab32b61c8,27,0,2024-02-28T14:29:02.449Z,english_488.wav,0,peel,282,30,5,4,English,f,0,0.0,55.6354899,0.91537893
65bba4976e47d14ab32b61c8,27,0,2024-02-28T14:29:02.449Z,english_488.wav,0,peel,282,30,5,4,English,f,1,0.1,-10.72836947,1.07736676
65bba4976e47d14ab32b61c8,27,0,2024-02-28T14:29:02.449Z,english_488.wav,0,peel,282,30,5,4,English,f,2,0.2,-46.3197066,1.00419914
65bba4976e47d14ab32b61c8,27,0,2024-02-28T14:29:02.449Z,english_488.wav,0,peel,282,30,5,4,English,f,3,0.3,14.14356253,1.03753512
65bba4976e47d14ab32b61c8,27,0,2024-02-28T14:29:02.449Z,english_488.wav,0,peel,282,30,5,4,English,f,4,0.4,63.48594027,0.37720192
65bba4976e47d14ab32b61c8,27,0,2024-02-28T14:29:02.449Z,english_488.wav,0,peel,282,30,5,4,English,f,5,0.5,-15.52389471,1.44514108
65bba4976e47d14ab32b61c8,27,0,2024-02-28T14:29:02.449Z,english_488.wav,0,peel,282,30,5,4,English,f,6,0.6,1.31987166,1.5314543
65bba4976e47d14ab32b61c8,27,0,2024-02-28T14:29:02.449Z,english_488.wav,0,peel,282,30,5,4,English,f,7,0.7,3.643619,1.0492436
65bba4976e47d14ab32b61c8,27,0,2024-02-28T14:29:02.449Z,english_488.wav,0,peel,282,30,5,4,English,f,8,0.8,1.08608347,0.46166861
65bba4976e47d14ab32b61c8,27,0,2024-02-28T14:29:02.449Z,english_488.wav,0,peel,282,30,5,4,English,f,9,0.9,18.4969296,1.40405736
65bba4976e47d14ab32b61c8,27,0,2024-02-28T14:29:02.449Z,english_488.wav,0,peel,282,30,5,4,English,f,10,1.0,6.83798229,1.0046827
65bba4976e47d14ab32b61c8,27,0,2024-02-28T14:29:02.449Z,english_488.wav,0,peel,282,30,5,4,English,f,11,1.09391667,65.10535749,0.03299625
65bba4976e47d14ab32b61c8,28,0,2024-02-28T14:29:02.449Z,english_415.wav,0,pill,1574,30,5,4,English,f,0,0.0,84.16048874,1.30136544
65bba4976e47d14ab32b61c8,28,0,2024-02-28T14:29:02.449Z,english_415.wav,0,pill,1574,30,5,4,English,f,1,0.1,56.88803289,0.47786549
65bba4976e47d14ab32b61c8,28,0,2024-02-28T14:29:02.449Z,english_415.wav,0,pill,1574,30,5,4,English,f,2,0.2,-77.93771944,0.87690241
65bba4976e47d14ab32b61c8,28,0,2024-02-28T14:29:02.449Z,english_415.wav,0,pill,1574,30,5,4,English,f,3,0.3,33.37600363,1.56003174
65bba4976e47d14ab32b61c8,28,0,2024-02-28T14:29:02.449Z,english_415.wav,0,pill,1574,30,5,4,English,f,4,0.4,-61.82656021,0.56797275
65bba4976e47d14ab32b61c8,28,0,2024-02-28T14:29:02.449Z,english_415.wav,0,pill,1574,30,5,4,English,f,5,0.5,-67.90016523,1.69402787
65bba4976e47d14ab32b61c8,28,0,2024-02-28T14:29:02.449Z,english_415.wav,0,pill,1574,30,5,4,English,f,6,0.6,96.16166422,0.32249707
65bba4976e47d14ab32b61c8,28,0,2024-02-28T14:29:02.449Z,english_415.wav,0,pill,1574,30,5,4,English,f,7,0.7,-50.86749148,0.03139967
65bba4976e47d14ab32b61c8,28,0,2024-02-28T14:29:02.449Z,english_415.wav,0,pill,1574,30,5,4,English,f,8,0.8,55.29150844,1.30261133
65bba4976e47d14ab32b61c8,28,0,2024-02-28T14:29:02.449Z,english_415.wav,0,pill,1574,30,5,4,English,f,9,0.9,-2.61257825,0.40350463
65bba4976e47d14ab32b61c8,28,0,2024-02-28T14:29:02.449Z,english_415.wav,0,pill,1574,30,5,4,English,f,10,1.0,-83.3993401,1.74375152
65bba4976e47d14ab32b61c8,28,0,2024-02-28T14:29:02.449Z,english_415.wav,0,pill,1574,30,5,4,English,f,11,1.09391667,24.68732816,0.25871995
65bba4976e47d14ab32b61c8,29,0,2024-02-28T14:29:02.449Z,english_435.wav,0,peel,493,30,5,4,English,f,0,0.0,-31.13269848,0.87360856
65bba4976e47d14ab32b61c8,29,0,2024-02-28T14:29:02.449Z,english_435.wav,0,peel,493,30,5,4,English,f,1,0.1,92.06970246,0.90374027
65bba4976e47d14ab32b61c8,29,0,2024-02-28T14:29:02.449Z,english_435.wav,0,peel,493,30,5,4,English,f,2,0.2,-23.49616722,0.13869042
65bba4976e47d14ab32b61c8,29,0,2024-02-28T14:29:02.449Z,english_435.wav,0,peel,493,30,5,4,English,f,3,0.3,28.69293566,0.36148201
65bba4976e47d14ab32b61c8,29,0,2024-02-28T14:29:02.449Z,english_435.wav,0,peel,493,30,5,4,English,f,4,0.4,91.13017666,1.64954246
65bba4976e47d14ab32b61c8,29,0,2024-02-28T14:29:02.449Z,english_435.wav,0,peel,493,30,5,4,English,f,5,0.5,73.01983282,0.8333488
65bba4976e47d14ab32b61c8,29,0,2024-02-28T14:29:02.449Z,english_435.wav,0,peel,493,30,5,4,English,f,6,0.6,26.94870672,0.92769237
65bba4976e47d14ab32b61c8,29,0,2024-02-28T14:29:02.449Z,english_435.wav,0,peel,493,30,5,4,English,f,7,0.7,-17.86331575,0.23890126
65bba4976e47d14ab32b61c8,29,0,2024-02-28T14:29:02.449Z,english_435.wav,0,peel,493,30,5,4,English,f,8,0.8,-12.47586644,0.53709856
65bba4976e47d14ab32b61c8,29,0,2024-02-28T14:29:02.449Z,english_435.wav,0,peel,493,30,5,4,English,f,9,0.9,-45.803678,1.33606874
65bba4976e47d14ab32b61c8,29,0,2024-02-28T14:29:02.449Z,english_435.wav,0,peel,493,30,5,4,English,f,10,1.0,12.54092013,1.23901183
65bba4976e47d14ab32b61c8,29,0,2024-02-28T14:29:02.449Z,english_435.wav,0,peel,493,30,5,4,English,f,11,1.09391667,96.00954818,0.13308527
65bba4976e47d14ab32b61c8,30,0,2024-02-28T14:29:02.449Z,english_352.wav,0,peel,2712,30,5,4,English,f,0,0.0,84.78119141,1.3229017
65bba4976e47d14ab32b61c8,30,0,2024-02-28T14:29:02.449Z,english_352.wav,0,peel,2712,30,5,4,English,f,1,0.1,88.75454048,0.55829323
65bba4976e47d14ab32b61c8,30,0,2024-02-28T14:29:02.449Z,english_352.wav,0,peel,2712,30,5,4,English,f,2,0.2,23.94901813,0.0402509
65bba4976e47d14ab32b61c8,30,0,2024-02-28T14:29:02.449Z,english_352.wav,0,peel,2712,30,5,4,English,f,3,0.3,-18.90676095,0.61640233
65bba4976e47d14ab32b61c8,30,0,2024-02-28T14:29:02.449Z,english_352.wav,0,peel,2712,30,5,4,English,f,4,0.4,60.06070111,0.96654272
65bba4976e47d14ab32b61c8,30,0,2024-02-28T14:29:02.449Z,english_352.wav,0,peel,2712,30,5,4,English,f,5,0.5,62.40800149,0.92098566
65bba4976e47d14ab32b61c8,30,0,2024-02-28T14:29:02.449Z,english_352.wav,0,peel,2712,30,5,4,English,f,6,0.6,3.12749593,1.84821975
65bba4976e47d14ab32b61c8,30,0,2024-02-28T14:29:02.449Z,english_352.wav,0,peel,2712,30,5,4,English,f,7,0.7,56.86714317,0.23838951
65bba4976e47d14ab32b61c8,30,0,2024-02-28T14:29:02.449Z,english_352.wav,0,peel,2712,30,5,4,English,f,8,0.8,-52.83270381,0.65493925
65bba4976e47d14ab32b61c8,30,0,2024-02-28T14:29:02.449Z,english_352.wav,0,peel,2712,30,5,4,English,f,9,0.9,-40.5099806,1.28053314
65bba4976e47d14ab32b61c8,30,0,2024-02-28T14:29:02.449Z,english_352.wav,0,peel,2712,30,5,4,English,f,10,1.0,-16.36538997,0.87321298
65bba4976e47d14ab32b61c8,30,0,2024-02-28T14:29:02.449Z,english_352.wav,0,peel,2712,30,5,4,English,f,11,1.09391667,22.50184759,0.74058038
65bba4976e47d14ab32b61c8,31,0,2024-02-28T14:29:02.449Z,english_300.wav,0,peel,1353,30,5,4,English,f,0,0.0,2.79972232,1.53749115
65bba4976e47d14ab32b61c8,31,0,2024-02-28T14:29:02.449Z,english_300.wav,0,peel,1353,30,5,4,English,f,1,0.1,-6.00092765,1.12105385
65bba4976e47d14ab32b61c8,31,0,2024-02-28T14:29:02.449Z,english_300.wav,0,peel,1353,30,5,4,English,f,2,0.2,5.93513414,1.21050577
65bba4976e47d14ab32b61c8,31,0,2024-02-28T14:29:02.449Z,english_300.wav,0,peel,1353,30,5,4,English,f,3,0.3,65.0106623,1.39038364
65bba4976e47d14ab32b61c8,31,0,2024-02-28T14:29:02.449Z,english_300.wav,0,peel,1353,30,5,4,English,f,4,0.4,-35.27715369,0.59533856
65bba4976e47d14ab32b61c8,31,0,2024-02-28T14:29:02.449Z,english_300.wav,0,peel,1353,30,5,4,English,f,5,0.5,-49.20910009,0.92189242
65bba4976e47d14ab32b61c8,31,0,2024-02-28T14:29:02.449Z,english_300.wav,0,peel,1353,30,5,4,English,f,6,0.6,90.62348649,1.12293969
65bba4976e47d14ab32b61c8,31,0,2024-02-28T14:29:02.449Z,english_300.wav,0,peel,1353,30,5,4,English,f,7,0.7,-62.79963136,0.08212217
65bba4976e47d14ab32b61c8,31,0,2024-02-28T14:29:02.449Z,english_300.wav,0,peel,1353,30,5,4,English,f,8,0.8,41.66095929,0.24893909
65bba4976e47d14ab32b61c8,31,0,2024-02-28T14:29:02.449Z,english_300.wav,0,peel,1353,30,5,4,English,f,9,0.9,-9.40303164,0.97640661
65bba4976e47d14ab32b61c8,31,0,2024-02-28T14:29:02.449Z,english_300.wav,0,peel,1353,30,5,4,English,f,10,1.0,-11.98915311,1.76885677
65bba4976e47d14ab32b61c8,31,0,2024-02-28T14:29:02.449Z,english_300.wav,0,peel,1353,30,5,4,English,f,11,1.09391667,86.33383712,1.97400425
65bba4976e47d14ab32b61c8,32,0,2024-02-28T14:29:02.449Z,english_44.wav,0,peel,302,30,5,4,English,f,0,0.0,4.31802361,1.29887764
65bba4976e47d14ab32b61c8,32,0,2024-02-28T14:29:02.449Z,english_44.wav,0,peel,302,30,5,4,English,f,1,0.1,47.0728406,1.11913745
65bba4976e47d14ab32b61c8,32,0,2024-02-28T14:29:02.449Z,english_44.wav,0,peel,302,30,5,4,English,f,2,0.2,-14.77115386,1.22583552
65bba4976e47d14ab32b61c8,32,0,2024-02-28T14:29:02.449Z,english_44.wav,0,peel,302,30,5,4,English,f,3,0.3,48.30959917,1.94992967
65bba4976e47d14ab32b61c8,32,0,2024-02-28T14:29:02.449Z,english_44.wav,0,peel,302,30,5,4,English,f,4,0.4,-48.39525922,1.60078026
65bba4976e47d14ab32b61c8,32,0,2024-02-28T14:29:02.449Z,english_44.wav,0,peel,302,30,5,4,English,f,5,0.5,-15.20190814,1.61096713
65bba4976e47d14ab32b61c8,32,0,2024-02-28T14:29:02.449Z,english_44.wav,0,peel,302,30,5,4,English,f,6,0.6,-7.79536513,0.91293866
65bba4976e47d14ab32b61c8,32,0,2024-02-28T14:29:02.449Z,english_44.wav,0,peel,302,30,5,4,English,f,7,0.7,-57.36737228,1.91414895
65bba4976e47d14ab32b61c8,32,0,2024-02-28T14:29:02.449Z,english_44.wav,0,peel,302,30,5,4,English,f,8,0.8,-4.58128381,0.38490234
65bba4976e47d14ab32b61c8,32,0,2024-02-28T14:29:02.449Z,english_44.wav,0,peel,302,30,5,4,English,f,9,0.9,-46.69208344,1.07535839
65bba4976e47d14ab32b61c8,32,0,2024-02-28T14:29:02.449Z,english_44.wav,0,peel,302,30,5,4,English,f,10,1.0,-83.85792586,1.14300315
65bba4976e47d14ab32b61c8,32,0,2024-02-28T14:29:02.449Z,english_44.wav,0,peel,302,30,5,4,English,f,11,1.09391667,-0.53505125,0.87829704
65bba4976e47d14ab32b61c8,33,0,2024-02-28T14:29:02.449Z,english_452.wav,0,peel,1121,30,5,4,English,f,0,0.0,-16.61864147,1.17401117
65bba4976e47d14ab32b61c8,33,0,2024-02-28T14:29:02.449Z,english_452.wav,0,peel,1121,30,5,4,English,f,1,0.1,-22.13078498,0.56539659
65bba4976e47d14ab32b61c8,33,0,2024-02-28T14:29:02.449Z,english_452.wav,0,peel,1121,30,5,4,English,f,2,0.2,-16.24569285,0.39679082
65bba4976e47d14ab32b61c8,33,0,2024-02-28T14:29:02.449Z,english_452.wav,0,peel,1121,30,5,4,English,f,3,0.3,2.20276296,1.32249954
65bba4976e47d14ab32b61c8,33,0,2024-02-28T14:29:02.449Z,english_452.wav,0,peel,1121,30,5,4,English,f,4,0.4,38.28427002,1.17645405
65bba4976e47d14ab32b61c8,33,0,2024-02-28T14:29:02.449Z,english_452.wav,0,peel,1121,30,5,4,English,f,5,0.5,-18.79047659,1.63330715
65bba4976e47d14ab32b61c8,33,0,2024-02-28T14:29:02.449Z,english_452.wav,0,peel,1121,30,5,4,English,f,6,0.6,78.89075327,1.91411401
65bba4976e47d14ab32b61c8,33,0,2024-02-28T14:29:02.449Z,english_452.wav,0,peel,1121,30,5,4,English,f,7,0.7,92.92821396,1.71360753
65bba4976e47d14ab32b61c8,33,0,2024-02-28T14:29:02.449Z,english_452.wav,0,peel,1121,30,5,4,English,f,8,0.8,97.94945302,1.56668356
65bba4976e47d14ab32b61c8,33,0,2024-02-28T14:29:02.449Z,english_452.wav,0,peel,1121,30,5,4,English,f,9,0.9,87.69669084,1.33916848
65bba4976e47d14ab32b61c8,33,0,2024-02-28T14:29:02.449Z,english_452.wav,0,peel,1121,30,5,4,English,f,10,1.0,59.46975303,0.94959461
65bba4976e47d14ab32b61c8,33,0,2024-02-28T14:29:02.449Z,english_452.wav,0,peel,1121,30,5,4,English,f,11,1.09391667,33.32060313,0.70317006
65bba4976e47d14ab32b61c8,34,0,2024-02-28T14:29:02.449Z,english_676.wav,0,peel,381,30,5,4,English,f,0,0.0,77.23951032,1.33259474
65bba4976e47d14ab32b61c8,34,0,2024-02-28T14:29:02.449Z,english_676.wav,0,peel,381,30,5,4,English,f,1,0.1,27.47427545,0.90028372
65bba4976e47d14ab32b61c8,34,0,2024-02-28T14:29:02.449Z,english_676.wav,0,peel,381,30,5,4,English,f,2,0.2,92.07370265,1.66717955
65bba4976e47d14ab32b61c8,34,0,2024-02-28T14:29:02.449Z,english_676.wav,0,peel,381,30,5,4,English,f,3,0.3,-39.62602007,0.42158585
65bba4976e47d14ab32b61c8,34,0,2024-02-28T14:29:02.449Z,english_676.wav,0,peel,381,30,5,4,English,f,4,0.4,-81.22107243,1.7878255
65bba4976e47d14ab32b61c8,34,0,2024-02-28T14:29:02.449Z,english_676.wav,0,peel,381,30,5,4,English,f,5,0.5,-99.04707649,1.33780608
65bba4976e47d14ab32b61c8,34,0,2024-02-28T14:29:02.449Z,english_676.wav,0,peel,381,30,5,4,English,f,6,0.6,-64.5180536,0.94548991
65bba4976e47d14ab32b61c8,34,0,2024-02-28T14:29:02.449Z,english_676.wav,0,peel,381,30,5,4,English,f,7,0.7,91.29392748,1.43207041
65bba4976e47d14ab32b61c8,34,0,2024-02-28T14:29:02.449Z,english_676.wav,0,peel,381,30,5,4,English,f,8,0.8,97.8635705,1.03085722
65bba4976e47d14ab32b61c8,34,0,2024-02-28T14:29:02.449Z,english_676.wav,0,peel,381,30,5,4,English,f,9,0.9,-84.2423741,0.34895699
65bba4976e47d14ab32b61c8,34,0,2024-02-28T14:29:02.449Z,english_676.wav,0,peel,381,30,5,4,English,f,10,1.0,-76.68596269,0.83720355
65bba4976e47d14ab32b61c8,34,0,2024-02-28T14:29:02.449Z,english_676.wav,0,peel,381,30,5,4,English,f,11,1.09391667,65.10857552,1.31764415
65bba4976e47d14ab32b61c8,35,0,2024-02-28T14:29:02.449Z,english_306.wav,0,pill,1041,30,5,4,English,f,0,0.0,-95.03086766,1.30837938
65bba4976e47d14ab32b61c8,35,0,2024-02-28T14:29:02.449Z,english_306.wav,0,pill,1041,30,5,4,English,f,1,0.1,-3.19440238,0.41482999
65bba4976e47d14ab32b61c8,35,0,2024-02-28T14:29:02.449Z,english_306.wav,0,pill,1041,30,5,4,English,f,2,0.2,-39.72459624,1.62954212
65bba4976e47d14ab32b61c8,35,0,2024-02-28T14:29:02.449Z,english_306.wav,0,pill,1041,30,5,4,English,f,3,0.3,15.36352601,1.09402509
65bba4976e47d14ab32b61c8,35,0,2024-02-28T14:29:02.449Z,english_306.wav,0,pill,1041,30,5,4,English,f,4,0.4,-38.40390677,0.25113187
65bba4976e47d14ab32b61c8,35,0,2024-02-28T14:29:02.449Z,english_306.wav,0,pill,1041,30,5,4,English,f,5,0.5,-49.79740584,0.76399472
65bba4976e47d14ab32b61c8,35,0,2024-02-28T14:29:02.449Z,english_306.wav,0,pill,1041,30,5,4,English,f,6,0.6,-48.37651938,1.73274833
65bba4976e47d14ab32b61c8,35,0,2024-02-28T14:29:02.449Z,english_306.wav,0,pill,1041,30,5,4,English,f,7,0.7,-33.05516854,0.31535053
65bba4976e47d14ab32b61c8,35,0,2024-02-28T14:29:02.449Z,english_306.wav,0,pill,1041,30,5,4,English,f,8,0.8,-95.3817315,0.01885302
65bba4976e47d14ab32b61c8,35,0,2024-02-28T14:29:02.449Z,english_306.wav,0,pill,1041,30,5,4,English,f,9,0.9,-37.53428143,0.72130614
65bba4976e47d14ab32b61c8,35,0,2024-02-28T14:29:02.449Z,english_306.wav,0,pill,1041,30,5,4,English,f,10,1.0,13.19585938,0.43232343
65bba4976e47d14ab32b61c8,35,0,2024-02-28T14:29:02.449Z,english_306.wav,0,pill,1041,30,5,4,English,f,11,1.09391667,36.11780275,1.20783491
65bba4976e47d14ab32b61c8,36,0,2024-02-28T14:29:02.449Z,english_572.wav,0,peel,2258,30,5,4,English,f,0,0.0,74.87847498,0.12348508
65bba4976e47d14ab32b61c8,36,0,2024-02-28T14:29:02.449Z,english_572.wav,0,peel,2258,30,5,4,English,f,1,0.1,-39.37509685,1.01129589
65bba4976e47d14ab32b61c8,36,0,2024-02-28T14:29:02.449Z,english_572.wav,0,peel,2258,30,5,4,English,f,2,0.2,46.07522777,0.14453867
65bba4976e47d14ab32b61c8,36,0,2024-02-28T14:29:02.449Z,english_572.wav,0,peel,2258,30,5,4,English,f,3,0.3,-26.59086479,0.66439835
65bba4976e47d14ab32b61c8,36,0,2024-02-28T14:29:02.449Z,english_572.wav,0,peel,2258,30,5,4,English,f,4,0.4,-83.61712333,0.40930176
65bba4976e47d14ab32b61c8,36,0,2024-02-28T14:29:02.449Z,english_572.wav,0,peel,2258,30,5,4,English,f,5,0.5,51.69873735,1.64421854
65bba4976e47d14ab32b61c8,36,0,2024-02-28T14:29:02.449Z,english_572.wav,0,peel,2258,30,5,4,English,f,6,0.6,-66.29925424,1.67109861
65bba4976e47d14ab32b61c8,36,0,2024-02-28T14:29:02.449Z,english_572.wav,0,peel,2258,30,5,4,English,f,7,0.7,-30.03465624,1.00053383
65bba4976e47d14ab32b61c8,36,0,2024-02-28T14:29:02.449Z,english_572.wav,0,peel,2258,30,5,4,English,f,8,0.8,22.82757365,0.68839219
65bba4976e47d14ab32b61c8,36,0,2024-02-28T14:29:02.449Z,english_572.wav,0,peel,2258,30,5,4,English,f,9,0.9,-30.60936999,0.08113885
65bba4976e47d14ab32b61c8,36,0,2024-02-28T14:29:02.449Z,english_572.wav,0,peel,2258,30,5,4,English,f,10,1.0,-46.60182678,0.16383696
65bba4976e47d14ab32b61c8,36,0,2024-02-28T14:29:02.449Z,english_572.wav,0,peel,2258,30,5,4,English,f,11,1.09391667,37.1532128,0.71948729
65bba4976e47d14ab32b61c8,37,0,2024-02-28T14:29:02.449Z,english_800.wav,0,peel,362,30,5,4,English,f,0,0.0,35.31456444,1.69516606
65bba4976e47d14ab32b61c8,37,0,2024-02-28T14:29:02.449Z,english_800.wav,0,peel,362,30,5,4,English,f,1,0.1,32.41521545,0.23308544
65bba4976e47d14ab32b61c8,37,0,2024-02-28T14:29:02.449Z,english_800.wav,0,peel,362,30,5,4,English,f,2,0.2,-54.21409297,0.95659058
65bba4976e47d14ab32b61c8,37,0,2024-02-28T14:29:02.449Z,english_800.wav,0,peel,362,30,5,4,English,f,3,0.3,-42.78782363,1.51885901
65bba4976e47d14ab32b61c8,37,0,2024-02-28T14:29:02.449Z,english_800.wav,0,peel,362,30,5,4,English,f,4,0.4,54.56880631,1.37866605
65bba4976e47d14ab32b61c8,37,0,2024-02-28T14:29:02.449Z,english_800.wav,0,peel,362,30,5,4,English,f,5,0.5,-47.76201321,0.13843314
65bba4976e47d14ab32b61c8,37,0,2024-02-28T14:29:02.449Z,english_800.wav,0,peel,362,30,5,4,English,f,6,0.6,21.101395,0.69869138
65bba4976e47d14ab32b61c8,37,0,2024-02-28T14:29:02.449Z,english_800.wav,0,peel,362,30,5,4,English,f,7,0.7,-85.00905452,1.55469424
65bba4976e47d14ab32b61c8,37,0,2024-02-28T14:29:02.449Z,english_800.wav,0,peel,362,30,5,4,English,f,8,0.8,89.73188045,1.19022687
65bba4976e47d14ab32b61c8,37,0,2024-02-28T14:29:02.449Z,english_800.wav,0,peel,362,30,5,4,English,f,9,0.9,58.36158131,1.40913395
65bba4976e47d14ab32b61c8,37,0,2024-02-28T14:29:02.449Z,english_800.wav,0,peel,362,30,5,4,English,f,10,1.0,82.86297317,1.54823015
65bba4976e47d14ab32b61c8,37,0,2024-02-28T14:29:02.449Z,english_800.wav,0,peel,362,30,5,4,English,f,11,1.09391667,50.19485525,1.45235784
65bba4976e47d14ab32b61c8,38,0,2024-02-28T14:29:02.449Z,english_235.wav,0,peel,232,30,5,4,English,f,0,0.0,44.65499148,0.45157531
65bba4976e47d14ab32b61c8,38,0,2024-02-28T14:29:02.449Z,english_235.wav,0,peel,232,30,5,4,English,f,1,0.1,77.52873905,0.81502167
65bba4976e47d14ab32b61c8,38,0,2024-02-28T14:29:02.449Z,english_235.wav,0,peel,232,30,5,4,English,f,2,0.2,7.66193616,0.73184795
65bba4976e47d14ab32b61c8,38,0,2024-02-28T14:29:02.449Z,english_235.wav,0,peel,232,30,5,4,English,f,3,0.3,-36.65234069,1.39041991
65bba4976e47d14ab32b61c8,38,0,2024-02-28T14:29:02.449Z,english_235.wav,0,peel,232,30,5,4,English,f,4,0.4,-38.57977077,0.8131102
65bba4976e47d14ab32b61c8,38,0,2024-02-28T14:29:02.449Z,english_235.wav,0,peel,232,30,5,4,English,f,5,0.5,-69.81992681,0.63770546
65bba4976e47d14ab32b61c8,38,0,2024-02-28T14:29:02.449Z,english_235.wav,0,peel,232,30,5,4,English,f,6,0.6,-3.21185942,0.48204551
65bba4976e47d14ab32b61c8,38,0,2024-02-28T14:29:02.449Z,english_235.wav,0,peel,232,30,5,4,English,f,7,0.7,-3.7989625,0.64449527
65bba4976e47d14ab32b61c8,38,0,2024-02-28T14:29:02.449Z,english_235.wav,0,peel,232,30,5,4,English,f,8,0.8,-60.5356981,0.17411585
65bba4976e47d14ab32b61c8,38,0,2024-02-28T14:29:02.449Z,english_235.wav,0,peel,232,30,5,4,English,f,9,0.9,10.60420307,1.43103789
65bba4976e47d14ab32b61c8,38,0,2024-02-28T14:29:02.449Z,english_235.wav,0,peel,232,30,5,4,English,f,10,1.0,73.74029871,1.90034823
65bba4976e47d14ab32b61c8,38,0,2024-02-28T14:29:02.449Z,english_235.wav,0,peel,232,30,5,4,English,f,11,1.09391667,-42.3978276,0.79167247
65bba4976e47d14ab32b61c8,39,0,2024-02-28T14:29:02.449Z,english_933.wav,0,peel,1070,30,5,4,English,f,0,0.0,-32.55224072,0.19221515
65bba4976e47d14ab32b61c8,39,0,2024-02-28T14:29:02.449Z,english_933.wav,0,peel,1070,30,5,4,English,f,1,0.1,59.44257797,1.43025401
65bba4976e47d14ab32b61c8,39,0,2024-02-28T14:29:02.449Z,english_933.wav,0,peel,1070,30,5,4,English,f,2,0.2,17.39690353,1.54503316
65bba4976e47d14ab32b61c8,39,0,2024-02-28T14:29:02.449Z,english_933.wav,0,peel,1070,30,5,4,English,f,3,0.3,-22.68529576,0.8626505
65bba4976e47d14ab32b61c8,39,0,2024-02-28T14:29:02.449Z,english_933.wav,0,peel,1070,30,5,4,English,f,4,0.4,-75.07818399,0.16630427
65bba4976e47d14ab32b61c8,39,0,2024-02-28T14:29:02.449Z,english_933.wav,0,peel,1070,30,5,4,English,f,5,0.5,-42.21384225,0.04785165
65bba4976e47d14ab32b61c8,39,0,2024-02-28T14:29:02.449Z,english_933.wav,0,peel,1070,30,5,4,English,f,6,0.6,88.28795698,0.15375828
65bba4976e47d14ab32b61c8,39,0,2024-02-28T14:29:02.449Z,english_933.wav,0,peel,1070,30,5,4,English,f,7,0.7,-93.76467276,0.19154161
65bba4976e47d14ab32b61c8,39,0,2024-02-28T14:29:02.449Z,english_933.wav,0,peel,1070,30,5,4,English,f,8,0.8,-63.09167857,1.95653775
65bba4976e47d14ab32b61c8,39,0,2024-02-28T14:29:02.449Z,english_933.wav,0,peel,1070,30,5,4,English,f,9,0.9,42.2087571,0.40020781
65bba4976e47d14ab32b61c8,39,0,2024-02-28T14:29:02.449Z,english_933.wav,0,peel,1070,30,5,4,English,f,10,1.0,48.07358396,0.86859993
65bba4976e47d14ab32b61c8,39,0,2024-02-28T14:29:02.449Z,english_933.wav,0,peel,1070,30,5,4,English,f,11,1.09391667,62.42851897,1.49244645
65bba4976e47d14ab32b61c8,40,0,2024-02-28T14:29:02.449Z,english_866.wav,0,peel,319,30,5,4,English,f,0,0.0,32.13948388,0.64921597
65bba4976e47d14ab32b61c8,40,0,2024-02-28T14:29:02.449Z,english_866.wav,0,peel,319,30,5,4,English,f,1,0.1,38.60075831,1.48742897
65bba4976e47d14ab32b61c8,40,0,2024-02-28T14:29:02.449Z,english_866.wav,0,peel,319,30,5,4,English,f,2,0.2,-79.61982729,0.28495491
65bba4976e47d14ab32b61c8,40,0,2024-02-28T14:29:02.449Z,english_866.wav,0,peel,319,30,5,4,English,f,3,0.3,-60.72840424,0.9139307
65bba4976e47d14ab32b61c8,40,0,2024-02-28T14:29:02.449Z,english_866.wav,0,peel,319,30,5,4,English,f,4,0.4,-37.10812529,1.2771469
65bba4976e47d14ab32b61c8,40,0,2024-02-28T14:29:02.449Z,english_866.wav,0,peel,319,30,5,4,English,f,5,0.5,20.23366157,0.5381413
65bba4976e47d14ab32b61c8,40,0,2024-02-28T14:29:02.449Z,english_866.wav,0,peel,319,30,5,4,English,f,6,0.6,-58.420194,0.14669297
65bba4976e47d14ab32b61c8,40,0,2024-02-28T14:29:02.449Z,english_866.wav,0,peel,319,30,5,4,English,f,7,0.7,10.40447232,0.11342134
65bba4976e47d14ab32b61c8,40,0,2024-02-28T14:29:02.449Z,english_866.wav,0,peel,319,30,5,4,English,f,8,0.8,-52.83849426,1.53208977
65bba4976e47d14ab32b61c8,40,0,2024-02-28T14:29:02.449Z,english_866.wav,0,peel,319,30,5,4,English,f,9,0.9,32.83340069,0.84107623
65bba4976e47d14ab32b61c8,40,0,2024-02-28T14:29:02.449Z,english_866.wav,0,peel,319,30,5,4,English,f,10,1.0,9.31901299,1.05202157
65bba4976e47d14ab32b61c8,40,0,2024-02-28T14:29:02.449Z,english_866.wav,0,peel,319,30,5,4,English,f,11,1.09391667,-17.41907809,1.86418674
65bba4976e47d14ab32b61c8,41,0,2024-02-28T14:29:02.449Z,english_884.wav,0,peel,908,30,5,4,English,f,0,0.0,-26.7986483,0.93358525
65bba4976e47d14ab32b61c8,41,0,2024-02-28T14:29:02.449Z,english_884.wav,0,peel,908,30,5,4,English,f,1,0.1,-20.57946037,0.61599081
65bba4976e47d14ab32b61c8,41,0,2024-02-28T14:29:02.449Z,english_884.wav,0,peel,908,30,5,4,English,f,2,0.2,-14.61918651,1.88488325
65bba4976e47d14ab32b61c8,41,0,2024-02-28T14:29:02.449Z,english_884.wav,0,peel,908,30,5,4,English,f,3,0.3,-54.80261731,0.21075836
65bba4976e47d14ab32b61c8,41,0,2024-02-28T14:29:02.449Z,english_884.wav,0,peel,908,30,5,4,English,f,4,0.4,32.41231837,0.52073008
65bba4976e47d14ab32b61c8,41,0,2024-02-28T14:29:02.449Z,english_884.wav,0,peel,908,30,5,4,English,f,5,0.5,22.58711785,1.07474078
65bba4976e47d14ab32b61c8,41,0,2024-02-28T14:29:02.449Z,english_884.wav,0,peel,908,30,5,4,English,f,6,0.6,-23.74471885,1.54114542
65bba4976e47d14ab32b61c8,41,0,2024-02-28T14:29:02.449Z,english_884.wav,0,peel,908,30,5,4,English,f,7,0.7,0.47861234,0.96193885
65bba4976e47d14ab32b61c8,41,0,2024-02-28T14:29:02.449Z,english_884.wav,0,peel,908,30,5,4,English,f,8,0.8,-1.79385185,0.3951249
65bba4976e47d14ab32b61c8,41,0,2024-02-28T14:29:02.449Z,english_884.wav,0,peel,908,30,5,4,English,f,9,0.9,-17.00071045,1.98003937
65bba4976e47d14ab32b61c8,41,0,2024-02-28T14:29:02.449Z,english_884.wav,0,peel,908,30,5,4,English,f,10,1.0,12.5163052,0.39843766
65bba4976e47d14ab32b61c8,41,0,2024-02-28T14:29:02.449Z,english_884.wav,0,peel,908,30,5,4,English,f,11,1.09391667,-96.33383281,1.06218732
65bba4976e47d14ab32b61c8,42,0,2024-02-28T14:29:02.449Z,english_160.wav,0,peel,469,30,5,4,English,f,0,0.0,54.87282188,1.23358014
65bba4976e47d14ab32b61c8,42,0,2024-02-28T14:29:02.449Z,english_160.wav,0,peel,469,30,5,4,English,f,1,0.1,38.39559314,0.90117281
65bba4976e47d14ab32b61c8,42,0,2024-02-28T14:29:02.449Z,english_160.wav,0,peel,469,30,5,4,English,f,2,0.2,45.94024754,1.29672558
65bba4976e47d14ab32b61c8,42,0,2024-02-28T14:29:02.449Z,english_160.wav,0,peel,469,30,5,4,English,f,3,0.3,23.2538411,1.0625388
65bba4976e47d14ab32b61c8,42,0,2024-02-28T14:29:02.449Z,english_160.wav,0,peel,469,30,5,4,English,f,4,0.4,-76.36457338,1.82179424
65bba4976e47d14ab32b61c8,42,0,2024-02-28T14:29:02.449Z,english_160.wav,0,peel,469,30,5,4,English,f,5,0.5,-7.52503837,0.15771982
65bba4976e47d14ab32b61c8,42,0,2024-02-28T14:29:02.449Z,english_160.wav,0,peel,469,30,5,4,English,f,6,0.6,-67.2018033,1.20020733
65bba4976e47d14ab32b61c8,42,0,2024-02-28T14:29:02.449Z,english_160.wav,0,peel,469,30,5,4,English,f,7,0.7,40.79859053,1.72655744
65bba4976e47d14ab32b61c8,42,0,2024-02-28T14:29:02.449Z,english_160.wav,0,peel,469,30,5,4,English,f,8,0.8,-54.00476677,1.68926394
65bba4976e47d14ab32b61c8,42,0,2024-02-28T14:29:02.449Z,english_160.wav,0,peel,469,30,5,4,English,f,9,0.9,-39.47782367,0.81447331
65bba4976e47d14ab32b61c8,42,0,2024-02-28T14:29:02.449Z,english_160.wav,0,peel,469,30,5,4,English,f,10,1.0,13.27455738,0.52461363
65bba4976e47d14ab32b61c8,42,0,2024-02-28T14:29:02.449Z,english_160.wav,0,peel,469,30,5,4,English,f,11,1.09391667,82.72582228,1.24111221
65bba4976e47d14ab32b61c8,43,0,2024-02-28T14:29:02.449Z,english_83.wav,0,peel,756,30,5,4,English,f,0,0.0,-13.2041621,1.43008508
65bba4976e47d14ab32b61c8,43,0,2024-02-28T14:29:02.449Z,english_83.wav,0,peel,756,30,5,4,English,f,1,0.1,72.11694132,0.66721453
65bba4976e47d14ab32b61c8,43,0,2024-02-28T14:29:02.449Z,english_83.wav,0,peel,756,30,5,4,English,f,2,0.2,72.29533823,0.92720226
65bba4976e47d14ab32b61c8,43,0,2024-02-28T14:29:02.449Z,english_83.wav,0,peel,756,30,5,4,English,f,3,0.3,27.12463377,1.5008618
65bba4976e47d14ab32b61c8,43,0,2024-02-28T14:29:02.449Z,english_83.wav,0,peel,756,30,5,4,English,f,4,0.4,-0.51668001,0.92612905
65bba4976e47d14ab32b61c8,43,0,2024-02-28T14:29:02.449Z,english_83.wav,0,peel,756,30,5,4,English,f,5,0.5,95.33803701,1.15889455
65bba4976e47d14ab32b61c8,43,0,2024-02-28T14:29:02.449Z,english_83.wav,0,peel,756,30,5,4,English,f,6,0.6,29.01440832,1.69874537
65bba4976e47d14ab32b61c8,43,0,2024-02-28T14:29:02.449Z,english_83.wav,0,peel,756,30,5,4,English,f,7,0.7,95.49757562,1.82400366
65bba4976e47d14ab32b61c8,43,0,2024-02-28T14:29:02.449Z,english_83.wav,0,peel,756,30,5,4,English,f,8,0.8,73.0572007,0.49276816
65bba4976e47d14ab32b61c8,43,0,2024-02-28T14:29:02.449Z,english_83.wav,0,peel,756,30,5,4,English,f,9,0.9,-51.56555772,1.24642372
65bba4976e47d14ab32b61c8,43,0,2024-02-28T14:29:02.449Z,english_83.wav,0,peel,756,30,5,4,English,f,10,1.0,75.9566984,1.81994123
65bba4976e47d14ab32b61c8,43,0,2024-02-28T14:29:02.449Z,english_83.wav,0,peel,756,30,5,4,English,f,11,1.09391667,-25.09105013,1.274738
65bba4976e47d14ab32b61c8,44,0,2024-02-28T14:29:02.449Z,english_392.wav,0,peel,602,30,5,4,English,f,0,0.0,-70.59184809,1.01325522
65bba4976e47d14ab32b61c8,44,0,2024-02-28T14:29:02.449Z,english_392.wav,0,peel,602,30,5,4,English,f,1,0.1,20.01491038,0.99685804
65bba4976e47d14ab32b61c8,44,0,2024-02-28T14:29:02.449Z,english_392.wav,0,peel,602,30,5,4,English,f,2,0.2,95.98809517,1.2085184
65bba4976e47d14ab32b61c8,44,0,2024-02-28T14:29:02.449Z,english_392.wav,0,peel,602,30,5,4,English,f,3,0.3,21.94648666,0.87362666
65bba4976e47d14ab32b61c8,44,0,2024-02-28T14:29:02.449Z,english_392.wav,0,peel,602,30,5,4,English,f,4,0.4,71.03226698,0.83196355
65bba4976e47d14ab32b61c8,44,0,2024-02-28T14:29:02.449Z,english_392.wav,0,peel,602,30,5,4,English,f,5,0.5,-27.3636698,1.3261039
65bba4976e47d14ab32b61c8,44,0,2024-02-28T14:29:02.449Z,english_392.wav,0,peel,602,30,5,4,English,f,6,0.6,41.54107295,0.73205001
65bba4976e47d14ab32b61c8,44,0,2024-02-28T14:29:02.449Z,english_392.wav,0,peel,602,30,5,4,English,f,7,0.7,55.82041059,1.07805115
65bba4976e47d14ab32b61c8,44,0,2024-02-28T14:29:02.449Z,english_392.wav,0,peel,602,30,5,4,English,f,8,0.8,-12.2991889,0.81193203
65bba4976e47d14ab32b61c8,44,0,2024-02-28T14:29:02.449Z,english_392.wav,0,peel,602,30,5,4,English,f,9,0.9,-43.37866007,0.58657928
65bba4976e47d14ab32b61c8,44,0,2024-02-28T14:29:02.449Z,english_392.wav,0,peel,602,30,5,4,English,f,10,1.0,-72.71846832,1.75756764
65bba4976e47d14ab32b61c8,44,0,2024-02-28T14:29:02.449Z,english_392.wav,0,peel,602,30,5,4,English,f,11,1.09391667,17.46673253,0.10018242
65bba4976e47d14ab32b61c8,45,0,2024-02-28T14:29:02.449Z,english_444.wav,0,peel,255,30,5,4,English,f,0,0.0,-22.35255086,1.17037243
65bba4976e47d14ab32b61c8,45,0,2024-02-28T14:29:02.449Z,english_444.wav,0,peel,255,30,5,4,English,f,1,0.1,-38.39735659,0.80831945
65bba4976e47d14ab32b61c8,45,0,2024-02-28T14:29:02.449Z,english_444.wav,0,peel,255,30,5,4,English,f,2,0.2,81.84483339,1.07936497
65bba4976e47d14ab32b61c8,45,0,2024-02-28T14:29:02.449Z,english_444.wav,0,peel,255,30,5,4,English,f,3,0.3,89.66951187,1.80338122
65bba4976e47d14ab32b61c8,45,0,2024-02-28T14:29:02.449Z,english_444.wav,0,peel,255,30,5,4,English,f,4,0.4,78.72815519,1.1980111
65bba4976e47d14ab32b61c8,45,0,2024-02-28T14:29:02.449Z,english_444.wav,0,peel,255,30,5,4,English,f,5,0.5,-52.70100407,1.57414757
65bba4976e47d14ab32b61c8,45,0,2024-02-28T14:29:02.449Z,english_444.wav,0,peel,255,30,5,4,English,f,6,0.6,-16.77558941,1.54546577
65bba4976e47d14ab32b61c8,45,0,2024-02-28T14:29:02.449Z,english_444.wav,0,peel,255,30,5,4,English,f,7,0.7,74.67924026,0.86646901
65bba4976e47d14ab32b61c8,45,0,2024-02-28T14:29:02.449Z,english_444.wav,0,peel,255,30,5,4,English,f,8,0.8,58.06859333,1.76340154
65bba4976e47d14ab32b61c8,45,0,2024-02-28T14:29:02.449Z,english_444.wav,0,peel,255,30,5,4,English,f,9,0.9,62.1778936,1.16134605
65bba4976e47d14ab32b61c8,45,0,2024-02-28T14:29:02.449Z,english_444.wav,0,peel,255,30,5,4,English,f,10,1.0,-11.97095728,0.83068954
65bba4976e47d14ab32b61c8,45,0,2024-02-28T14:29:02.449Z,english_444.wav,0,peel,255,30,5,4,English,f,11,1.09391667,61.96058284,1.94365144
65bba4976e47d14ab32b61c8,46,0,2024-02-28T14:29:02.449Z,english_699.wav,0,peel,214,30,5,4,English,f,0,0.0,-10.64404417,0.39733036
65bba4976e47d14ab32b61c8,46,0,2024-02-28T14:29:02.449Z,english_699.wav,0,peel,214,30,5,4,English,f,1,0.1,-35.40818129,1.17761209
65bba4976e47d14ab32b61c8,46,0,2024-02-28T14:29:02.449Z,english_699.wav,0,peel,214,30,5,4,English,f,2,0.2,83.59292759,0.75132377
65bba4976e47d14ab32b61c8,46,0,2024-02-28T14:29:02.449Z,english_699.wav,0,peel,214,30,5,4,English,f,3,0.3,-40.30907773,0.9903314
65bba4976e47d14ab32b61c8,46,0,2024-02-28T14:29:02.449Z,english_699.wav,0,peel,214,30,5,4,English,f,4,0.4,-61.47705422,1.4462142
65bba4976e47d14ab32b61c8,46,0,2024-02-28T14:29:02.449Z,english_699.wav,0,peel,214,30,5,4,English,f,5,0.5,73.77462927,1.48079401
65bba4976e47d14ab32b61c8,46,0,2024-02-28T14:29:02.449Z,english_699.wav,0,peel,214,30,5,4,English,f,6,0.6,-33.57926845,1.0256948
65bba4976e47d14ab32b61c8,46,0,2024-02-28T14:29:02.449Z,english_699.wav,0,peel,214,30,5,4,English,f,7,0.7,4.64440908,1.03411727
65bba4976e47d14ab32b61c8,46,0,2024-02-28T14:29:02.449Z,english_699.wav,0,peel,214,30,5,4,English,f,8,0.8,-17.22893219,1.52402725
65bba4976e47d14ab32b61c8,46,0,2024-02-28T14:29:02.449Z,english_699.wav,0,peel,214,30,5,4,English,f,9,0.9,7.65230973,0.08305717
65bba4976e47d14ab32b61c8,46,0,2024-02-28T14:29:02.449Z,english_699.wav,0,peel,214,30,5,4,English,f,10,1.0,91.77034013,1.30692687
65bba4976e47d14ab32b61c8,46,0,2024-02-28T14:29:02.449Z,english_699.wav,0,peel,214,30,5,4,English,f,11,1.09391667,29.53486649,1.30233828
65bba4976e47d14ab32b61c8,47,0,2024-02-28T14:29:02.449Z,english_831.wav,0,peel,96,30,5,4,English,f,0,0.0,-21.16656573,0.86887876
65bba4976e47d14ab32b61c8,47,0,2024-02-28T14:29:02.449Z,english_831.wav,0,peel,96,30,5,4,English,f,1,0.1,29.76214341,1.37629655
65bba4976e47d14ab32b61c8,47,0,2024-02-28T14:29:02.449Z,english_831.wav,0,peel,96,30,5,4,English,f,2,0.2,61.45359844,0.63499907
65bba4976e47d14ab32b61c8,47,0,2024-02-28T14:29:02.449Z,english_831.wav,0,peel,96,30,5,4,English,f,3,0.3,6.67004895,0.11279763
65bba4976e47d14ab32b61c8,47,0,2024-02-28T14:29:02.449Z,english_831.wav,0,peel,96,30,5,4,English,f,4,0.4,26.70370751,0.87092561
65bba4976e47d14ab32b61c8,47,0,2024-02-28T14:29:02.449Z,english_831.wav,0,peel,96,30,5,4,English,f,5,0.5,-40.62935301,1.90700704
65bba4976e47d14ab32b61c8,47,0,2024-02-28T14:29:02.449Z,english_831.wav,0,peel,96,30,5,4,English,f,6,0.6,99.09256776,0.52454597
65bba4976e47d14ab32b61c8,47,0,2024-02-28T14:29:02.449Z,english_831.wav,0,peel,96,30,5,4,English,f,7,0.7,79.82257267,0.72073711
65bba4976e47d14ab32b61c8,47,0,2024-02-28T14:29:02.449Z,english_831.wav,0,peel,96,30,5,4,English,f,8,0.8,42.46181289,0.80064374
65bba4976e47d14ab32b61c8,47,0,2024-02-28T14:29:02.449Z,english_831.wav,0,peel,96,30,5,4,English,f,9,0.9,2.20427108,1.04408214
65bba4976e47d14ab32b61c8,47,0,2024-02-28T14:29:02.449Z,english_831.wav,0,peel,96,30,5,4,English,f,10,1.0,64.59275416,0.45079877
65bba4976e47d14ab32b61c8,47,0,2024-02-28T14:29:02.449Z,english_831.wav,0,peel,96,30,5,4,English,f,11,1.09391667,-21.96543836,1.2652147
65bba4976e47d14ab32b61c8,48,0,2024-02-28T14:29:02.449Z,english_608.wav,0,peel,289,30,5,4,English,f,0,0.0,51.7664081,1.51537713
65bba4976e47d14ab32b61c8,48,0,2024-02-28T14:29:02.449Z,english_608.wav,0,peel,289,30,5,4,English,f,1,0.1,-80.54246428,0.15028224
65bba4976e47d14ab32b61c8,48,0,2024-02-28T14:29:02.449Z,english_608.wav,0,peel,289,30,5,4,English,f,2,0.2,-77.98130797,1.81254149
65bba4976e47d14ab32b61c8,48,0,2024-02-28T14:29:02.449Z,english_608.wav,0,peel,289,30,5,4,English,f,3,0.3,25.40612748,1.88904665
65bba4976e47d14ab32b61c8,48,0,2024-02-28T14:29:02.449Z,english_608.wav,0,peel,289,30,5,4,English,f,4,0.4,-25.13261416,0.02307613
65bba4976e47d14ab32b61c8,48,0,2024-02-28T14:29:02.449Z,english_608.wav,0,peel,289,30,5,4,English,f,5,0.5,-47.23330204,1.59293411
65bba4976e47d14ab32b61c8,48,0,2024-02-28T14:29:02.449Z,english_608.wav,0,peel,289,30,5,4,English,f,6,0.6,80.77508225,1.34709582
65bba4976e47d14ab32b61c8,48,0,2024-02-28T14:29:02.449Z,english_608.wav,0,peel,289,30,5,4,English,f,7,0.7,-91.19719701,0.43937258
65bba4976e47d14ab32b61c8,48,0,2024-02-28T14:29:02.449Z,english_608.wav,0,peel,289,30,5,4,English,f,8,0.8,-56.07696763,1.30698023
65bba4976e47d14ab32b61c8,48,0,2024-02-28T14:29:02.449Z,english_608.wav,0,peel,289,30,5,4,English,f,9,0.9,-57.98593589,1.72852212
65bba4976e47d14ab32b61c8,48,0,2024-02-28T14:29:02.449Z,english_608.wav,0,peel,289,30,5,4,English,f,10,1.0,87.03595353,1.13440146
65bba4976e47d14ab32b61c8,48,0,2024-02-28T14:29:02.449Z,english_608.wav,0,peel,289,30,5,4,English,f,11,1.09391667,-36.96026424,1.09789882
65bba4976e47d14ab32b61c8,49,0,2024-02-28T14:29:02.449Z,english_290.wav,0,pill,876,30,5,4,English,f,0,0.0,4.14643055,1.34304487
65bba4976e47d14ab32b61c8,49,0,2024-02-28T14:29:02.449Z,english_290.wav,0,pill,876,30,5,4,English,f,1,0.1,55.79753149,1.94828155
65bba4976e47d14ab32b61c8,49,0,2024-02-28T14:29:02.449Z,english_290.wav,0,pill,876,30,5,4,English,f,2,0.2,-63.42272798,1.81846113
65bba4976e47d14ab32b61c8,49,0,2024-02-28T14:29:02.449Z,english_290.wav,0,pill,876,30,5,4,English,f,3,0.3,-40.60813041,0.06068854
65bba4976e47d14ab32b61c8,49,0,2024-02-28T14:29:02.449Z,english_290.wav,0,pill,876,30,5,4,English,f,4,0.4,-85.79001431,0.95997788
65bba4976e47d14ab32b61c8,49,0,2024-02-28T14:29:02.449Z,english_290.wav,0,pill,876,30,5,4,English,f,5,0.5,-31.93461576,0.98743905
65bba4976e47d14ab32b61c8,49,0,2024-02-28T14:29:02.449Z,english_290.wav,0,pill,876,30,5,4,English,f,6,0.6,-73.76037774,0.49081153
65bba4976e47d14ab32b61c8,49,0,2024-02-28T14:29:02.449Z,english_290.wav,0,pill,876,30,5,4,English,f,7,0.7,-54.82415725,1.93641378
65bba4976e47d14ab32b61c8,49,0,2024-02-28T14:29:02.449Z,english_290.wav,0,pill,876,30,5,4,English,f,8,0.8,85.10642222,0.02141652
65bba4976e47d14ab32b61c8,49,0,2024-02-28T14:29:02.449Z,english_290.wav,0,pill,876,30,5,4,English,f,9,0.9,-54.96930538,1.82619941
65bba4976e47d14ab32b61c8,49,0,2024-02-28T14:29:02.449Z,english_290.wav,0,pill,876,30,5,4,English,f,10,1.0,41.58093041,0.02158423
65bba4976e47d14ab32b61c8,49,0,2024-02-28T14:29:02.449Z,english_290.wav,0,pill,876,30,5,4,English,f,11,1.09391667,28.32805855,1.73531275
65bba4976e47d14ab32b61c8,50,1,2024-02-28T14:29:02.449Z,english_807.wav,0,peel,1466,30,5,4,English,f,0,0.0,-34.7601745,1.20965337
65bba4976e47d14ab32b61c8,50,1,2024-02-28T14:29:02.449Z,english_807.wav,0,peel,1466,30,5,4,English,f,1,0.1,33.36048689,1.65563234
65bba4976e47d14ab32b61c8,50,1,2024-02-28T14:29:02.449Z,english_807.wav,0,peel,1466,30,5,4,English,f,2,0.2,-67.67370502,1.59964516
65bba4976e47d14ab32b61c8,50,1,2024-02-28T14:29:02.449Z,english_807.wav,0,peel,1466,30,5,4,English,f,3,0.3,-75.303265,0.1616649
65bba4976e47d14ab32b61c8,50,1,2024-02-28T14:29:02.449Z,english_807.wav,0,peel,1466,30,5,4,English,f,4,0.4,50.02795893,0.65690397
65bba4976e47d14ab32b61c8,50,1,2024-02-28T14:29:02.449Z,english_807.wav,0,peel,1466,30,5,4,English,f,5,0.5,-86.15237501,1.06047173
65bba4976e47d14ab32b61c8,50,1,2024-02-28T14:29:02.449Z,english_807.wav,0,peel,1466,30,5,4,English,f,6,0.6,75.95576156,1.33167503
65bba4976e47d14ab32b61c8,50,1,2024-02-28T14:29:02.449Z,english_807.wav,0,peel,1466,30,5,4,English,f,7,0.7,90.49040763,0.49356808
65bba4976e47d14ab32b61c8,50,1,2024-02-28T14:29:02.449Z,english_807.wav,0,peel,1466,30,5,4,English,f,8,0.8,-21.66303016,0.55567292
65bba4976e47d14ab32b61c8,50,1,2024-02-28T14:29:02.449Z,english_807.wav,0,peel,1466,30,5,4,English,f,9,0.9,-29.03621191,1.52247069
65bba4976e47d14ab32b61c8,50,1,2024-02-28T14:29:02.449Z,english_807.wav,0,peel,1466,30,5,4,English,f,10,1.0,-43.10401298,1.04125391
65bba4976e47d14ab32b61c8,50,1,2024-02-28T14:29:02.449Z,english_807.wav,0,peel,1466,30,5,4,English,f,11,1.09391667,15.25709301,0.73437953
65bba4976e47d14ab32b61c8,51,1,2024-02-28T14:29:02.449Z,english_994.wav,0,peel,1010,30,5,4,English,f,0,0.0,36.98660599,0.81226984
65bba4976e47d14ab32b61c8,51,1,2024-02-28T14:29:02.449Z,english_994.wav,0,peel,1010,30,5,4,English,f,1,0.1,-60.95311815,1.65591745
65bba4976e47d14ab32b61c8,51,1,2024-02-28T14:29:02.449Z,english_994.wav,0,peel,1010,30,5,4,English,f,2,0.2,71.26510733,0.7009818
65bba4976e47d14ab32b61c8,51,1,2024-02-28T14:29:02.449Z,english_994.wav,0,peel,1010,30,5,4,English,f,3,0.3,11.062559,1.67859876
65bba4976e47d14ab32b61c8,51,1,2024-02-28T14:29:02.449Z,english_994.wav,0,peel,1010,30,5,4,English,f,4,0.4,70.6179669,1.05248669
65bba4976e47d14ab32b61c8,51,1,2024-02-28T14:29:02.449Z,english_994.wav,0,peel,1010,30,5,4,English,f,5,0.5,-52.90665563,0.39767772
65bba4976e47d14ab32b61c8,51,1,2024-02-28T14:29:02.449Z,english_994.wav,0,peel,1010,30,5,4,English,f,6,0.6,78.12480734,1.01059837
65bba4976e47d14ab32b61c8,51,1,2024-02-28T14:29:02.449Z,english_994.wav,0,peel,1010,30,5,4,English,f,7,0.7,46.03409877,0.20028443
65bba4976e47d14ab32b61c8,51,1,2024-02-28T14:29:02.449Z,english_994.wav,0,peel,1010,30,5,4,English,f,8,0.8,-66.74754668,0.75506808
65bba4976e47d14ab32b61c8,51,1,2024-02-28T14:29:02.449Z,english_994.wav,0,peel,1010,30,5,4,English,f,9,0.9,56.18548234,1.57615428
65bba4976e47d14ab32b61c8,51,1,2024-02-28T14:29:02.449Z,english_994.wav,0,peel,1010,30,5,4,English,f,10,1.0,-83.86573512,0.51140578
65bba4976e47d14ab32b61c8,51,1,2024-02-28T14:29:02.449Z,english_994.wav,0,peel,1010,30,5,4,English,f,11,1.09391667,32.71445858,1.06238543
65bba4976e47d14ab32b61c8,52,1,2024-02-28T14:29:02.449Z,english_467.wav,0,peel,241,30,5,4,English,f,0,0.0,84.73520447,0.80775308
65bba4976e47d14ab32b61c8,52,1,2024-02-28T14:29:02.449Z,english_467.wav,0,peel,241,30,5,4,English,f,1,0.1,88.96200227,0.60891261
65bba4976e47d14ab32b61c8,52,1,2024-02-28T14:29:02.449Z,english_467.wav,0,peel,241,30,5,4,English,f,2,0.2,72.63675829,1.71596765
65bba4976e47d14ab32b61c8,52,1,2024-02-28T14:29:02.449Z,english_467.wav,0,peel,241,30,5,4,English,f,3,0.3,-11.47164633,0.15084523
65bba4976e47d14ab32b61c8,52,1,2024-02-28T14:29:02.449Z,english_467.wav,0,peel,241,30,5,4,English,f,4,0.4,-15.99279105,1.25287304
65bba4976e47d14ab32b61c8,52,1,2024-02-28T14:29:02.449Z,english_467.wav,0,peel,241,30,5,4,English,f,5,0.5,-43.82437563,1.40086837
65bba4976e47d14ab32b61c8,52,1,2024-02-28T14:29:02.449Z,english_467.wav,0,peel,241,30,5,4,English,f,6,0.6,43.03099958,0.418933
65bba4976e47d14ab32b61c8,52,1,2024-02-28T14:29:02.449Z,english_467.wav,0,peel,241,30,5,4,English,f,7,0.7,-45.22330674,1.80339492
65bba4976e47d14ab32b61c8,52,1,2024-02-28T14:29:02.449Z,english_467.wav,0,peel,241,30,5,4,English,f,8,0.8,76.52363546,0.77008525
65bba4976e47d14ab32b61c8,52,1,2024-02-28T14:29:02.449Z,english_467.wav,0,peel,241,30,5,4,English,f,9,0.9,-64.57143565,1.13088524
65bba4976e47d14ab32b61c8,52,1,2024-02-28T14:29:02.449Z,english_467.wav,0,peel,241,30,5,4,English,f,10,1.0,-23.20829111,0.17124527
65bba4976e47d14ab32b61c8,52,1,2024-02-28T14:29:02.449Z,english_467.wav,0,peel,241,30,5,4,English,f,11,1.09391667,90.56201043,1.41524886
65bba4976e47d14ab32b61c8,53,1,2024-02-28T14:29:02.449Z,english_686.wav,0,peel,88,30,5,4,English,f,0,0.0,-67.05425971,1.70124543
65bba4976e47d14ab32b61c8,53,1,2024-02-28T14:29:02.449Z,english_686.wav,0,peel,88,30,5,4,English,f,1,0.1,-39.97086024,0.46826984
65bba4976e47d14ab32b61c8,53,1,2024-02-28T14:29:02.449Z,english_686.wav,0,peel,88,30,5,4,English,f,2,0.2,-95.68334926,0.38007699
65bba4976e47d14ab32b61c8,53,1,2024-02-28T14:29:02.449Z,english_686.wav,0,peel,88,30,5,4,English,f,3,0.3,95.25173903,1.75748907
65bba4976e47d14ab32b61c8,53,1,2024-02-28T14:29:02.449Z,english_686.wav,0,peel,88,30,5,4,English,f,4,0.4,-32.8311948,0.73728226
65bba4976e47d14ab32b61c8,53,1,2024-02-28T14:29:02.449Z,english_686.wav,0,peel,88,30,5,4,English,f,5,0.5,-48.95766653,0.66391126
65bba4976e47d14ab32b61c8,53,1,2024-02-28T14:29:02.449Z,english_686.wav,0,peel,88,30,5,4,English,f,6,0.6,1.46673541,0.49234924
65bba4976e47d14ab32b61c8,53,1,2024-02-28T14:29:02.449Z,english_686.wav,0,peel,88,30,5,4,English,f,7,0.7,2.82521342,1.58569933
65bba4976e47d14ab32b61c8,53,1,2024-02-28T14:29:02.449Z,english_686.wav,0,peel,88,30,5,4,English,f,8,0.8,-50.40490355,0.73602174
65bba4976e47d14ab32b61c8,53,1,2024-02-28T14:29:02.449Z,english_686.wav,0,peel,88,30,5,4,English,f,9,0.9,-13.31081272,0.69160948
65bba4976e47d14ab32b61c8,53,1,2024-02-28T14:29:02.449Z,english_686.wav,0,peel,88,30,5,4,English,f,10,1.0,86.45331077,1.60918627
65bba4976e47d14ab32b61c8,53,1,2024-02-28T14:29:02.449Z,english_686.wav,0,peel,88,30,5,4,English,f,11,1.09391667,27.45785802,0.82158227
65bba4976e47d14ab32b61c8,54,1,2024-02-28T14:29:02.449Z,english_402.wav,0,peel,213,30,5,4,English,f,0,0.0,13.762471,1.51429567
65bba4976e47d14ab32b61c8,54,1,2024-02-28T14:29:02.449Z,english_402.wav,0,peel,213,30,5,4,English,f,1,0.1,56.960538,1.68766969
65bba4976e47d14ab32b61c8,54,1,2024-02-28T14:29:02.449Z,english_402.wav,0,peel,213,30,5,4,English,f,2,0.2,31.61900178,1.34501255
65bba4976e47d14ab32b61c8,54,1,2024-02-28T14:29:02.449Z,english_402.wav,0,peel,213,30,5,4,English,f,3,0.3,-58.12329087,0.78143448
65bba4976e47d14ab32b61c8,54,1,2024-02-28T14:29:02.449Z,english_402.wav,0,peel,213,30,5,4,English,f,4,0.4,-92.10904416,0.95522192
65bba4976e47d14ab32b61c8,54,1,2024-02-28T14:29:02.449Z,english_402.wav,0,peel,213,30,5,4,English,f,5,0.5,-26.99116943,1.16323619
65bba4976e47d14ab32b61c8,54,1,2024-02-28T14:29:02.449Z,english_402.wav,0,peel,213,30,5,4,English,f,6,0.6,2.85267641,0.43497741
65bba4976e47d14ab32b61c8,54,1,2024-02-28T14:29:02.449Z,english_402.wav,0,peel,213,30,5,4,English,f,7,0.7,-21.2400385,1.84271931
65bba4976e47d14ab32b61c8,54,1,2024-02-28T14:29:02.449Z,english_402.wav,0,peel,213,30,5,4,English,f,8,0.8,47.25195685,1.28114522
65bba4976e47d14ab32b61c8,54,1,2024-02-28T14:29:02.449Z,english_402.wav,0,peel,213,30,5,4,English,f,9,0.9,86.30516809,0.9091169
65bba4976e47d14ab32b61c8,54,1,2024-02-28T14:29:02.449Z,english_402.wav,0,peel,213,30,5,4,English,f,10,1.0,-9.29622935,1.84546322
65bba4976e47d14ab32b61c8,54,1,2024-02-28T14:29:02.449Z,english_402.wav,0,peel,213,30,5,4,English,f,11,1.09391667,3.14612385,0.72114292
65bba4976e47d14ab32b61c8,55,1,2024-02-28T14:29:02.449Z,english_134.wav,0,peel,899,30,5,4,English,f,0,0.0,-24.26834644,1.03045274
65bba4976e47d14ab32b61c8,55,1,2024-02-28T14:29:02.449Z,english_134.wav,0,peel,899,30,5,4,English,f,1,0.1,0.87898814,1.86888255
65bba4976e47d14ab32b61c8,55,1,2024-02-28T14:29:02.449Z,english_134.wav,0,peel,899,30,5,4,English,f,2,0.2,29.43994061,1.70405425
65bba4976e47d14ab32b61c8,55,1,2024-02-28T14:29:02.449Z,english_134.wav,0,peel,899,30,5,4,English,f,3,0.3,21.82945731,1.34767033
65bba4976e47d14ab32b61c8,55,1,2024-02-28T14:29:02.449Z,english_134.wav,0,peel,899,30,5,4,English,f,4,0.4,49.09743773,0.8443881
65bba4976e47d14ab32b61c8,55,1,2024-02-28T14:29:02.449Z,english_134.wav,0,peel,899,30,5,4,English,f,5,0.5,-15.97258886,1.38979788
65bba4976e47d14ab32b61c8,55,1,2024-02-28T14:29:02.449Z,english_134.wav,0,peel,899,30,5,4,English,f,6,0.6,13.73233931,1.1830035
65bba4976e47d14ab32b61c8,55,1,2024-02-28T14:29:02.449Z,english_134.wav,0,peel,899,30,5,4,English,f,7,0.7,-18.88709324,1.43950556
65bba4976e47d14ab32b61c8,55,1,2024-02-28T14:29:02.449Z,english_134.wav,0,peel,899,30,5,4,English,f,8,0.8,13.58093601,1.18211722
65bba4976e47d14ab32b61c8,55,1,2024-02-28T14:29:02.449Z,english_134.wav,0,peel,899,30,5,4,English,f,9,0.9,74.79947006,0.44903969
65bba4976e47d14ab32b61c8,55,1,2024-02-28T14:29:02.449Z,english_134.wav,0,peel,899,30,5,4,English,f,10,1.0,-49.15519577,0.93357228
65bba4976e47d14ab32b61c8,55,1,2024-02-28T14:29:02.449Z,english_134.wav,0,peel,899,30,5,4,English,f,11,1.09391667,18.17659257,1.8466086
65bba4976e47d14ab32b61c8,56,1,2024-02-28T14:29:02.449Z,english_407.wav,0,pill,998,30,5,4,English,f,0,0.0,-24.60693705,0.46722995
65bba4976e47d14ab32b61c8,56,1,2024-02-28T14:29:02.449Z,english_407.wav,0,pill,998,30,5,4,English,f,1,0.1,-18.03262929,1.67527194
65bba4976e47d14ab32b61c8,56,1,2024-02-28T14:29:02.449Z,english_407.wav,0,pill,998,30,5,4,English,f,2,0.2,78.43262301,0.46653722
65bba4976e47d14ab32b61c8,56,1,2024-02-28T14:29:02.449Z,english_407.wav,0,pill,998,30,5,4,English,f,3,0.3,-68.3918043,0.93598541
65bba4976e47d14ab32b61c8,56,1,2024-02-28T14:29:02.449Z,english_407.wav,0,pill,998,30,5,4,English,f,4,0.4,-80.30955939,1.16461279
65bba4976e47d14ab32b61c8,56,1,2024-02-28T14:29:02.449Z,english_407.wav,0,pill,998,30,5,4,English,f,5,0.5,85.23652971,0.21312226
65bba4976e47d14ab32b61c8,56,1,2024-02-28T14:29:02.449Z,english_407.wav,0,pill,998,30,5,4,English,f,6,0.6,-34.75897275,0.26523352
65bba4976e47d14ab32b61c8,56,1,2024-02-28T14:29:02.449Z,english_407.wav,0,pill,998,30,5,4,English,f,7,0.7,-13.65493451,0.26712079
65bba4976e47d14ab32b61c8,56,1,2024-02-28T14:29:02.449Z,english_407.wav,0,pill,998,30,5,4,English,f,8,0.8,18.27954458,0.66430326
65bba4976e47d14ab32b61c8,56,1,2024-02-28T14:29:02.449Z,english_407.wav,0,pill,998,30,5,4,English,f,9,0.9,-61.83588329,0.96548424
65bba4976e47d14ab32b61c8,56,1,2024-02-28T14:29:02.449Z,english_407.wav,0,pill,998,30,5,4,English,f,10,1.0,1.46934054,0.70653645
65bba4976e47d14ab32b61c8,56,1,2024-02-28T14:29:02.449Z,english_407.wav,0,pill,998,30,5,4,English,f,11,1.09391667,21.65066183,1.4905418
65bba4976e47d14ab32b61c8,57,1,2024-02-28T14:29:02.449Z,english_71.wav,0,peel,466,30,5,4,English,f,0,0.0,30.10636139,0.62946654
65bba4976e47d14ab32b61c8,57,1,2024-02-28T14:29:02.449Z,english_71.wav,0,peel,466,30,5,4,English,f,1,0.1,3.0816021,1.50453007
65bba4976e47d14ab32b61c8,57,1,2024-02-28T14:29:02.449Z,english_71.wav,0,peel,466,30,5,4,English,f,2,0.2,66.18138618,0.98046708
65bba4976e47d14ab32b61c8,57,1,2024-02-28T14:29:02.449Z,english_71.wav,0,peel,466,30,5,4,English,f,3,0.3,48.30744502,0.69034505
65bba4976e47d14ab32b61c8,57,1,2024-02-28T14:29:02.449Z,english_71.wav,0,peel,466,30,5,4,English,f,4,0.4,76.92572471,0.92028911
65bba4976e47d14ab32b61c8,57,1,2024-02-28T14:29:02.449Z,english_71.wav,0,peel,466,30,5,4,English,f,5,0.5,-25.53426936,0.29314993
65bba4976e47d14ab32b61c8,57,1,2024-02-28T14:29:02.449Z,english_71.wav,0,peel,466,30,5,4,English,f,6,0.6,50.68511548,0.30848008
65bba4976e47d14ab32b61c8,57,1,2024-02-28T14:29:02.449Z,english_71.wav,0,peel,466,30,5,4,English,f,7,0.7,-55.42199264,0.91569305
65bba4976e47d14ab32b61c8,57,1,2024-02-28T14:29:02.449Z,english_71.wav,0,peel,466,30,5,4,English,f,8,0.8,-37.57822881,1.44666992
65bba4976e47d14ab32b61c8,57,1,2024-02-28T14:29:02.449Z,english_71.wav,0,peel,466,30,5,4,English,f,9,0.9,93.39435099,1.1812526
65bba4976e47d14ab32b61c8,57,1,2024-02-28T14:29:02.449Z,english_71.wav,0,peel,466,30,5,4,English,f,10,1.0,84.87822391,0.81790169
65bba4976e47d14ab32b61c8,57,1,2024-02-28T14:29:02.449Z,english_71.wav,0,peel,466,30,5,4,English,f,11,1.09391667,-75.5815668,1.06314532
65bba4976e47d14ab32b61c8,58,1,2024-02-28T14:29:02.449Z,english_215.wav,0,peel,585,30,5,4,English,f,0,0.0,-99.5332925,0.28465119
65bba4976e47d14ab32b61c8,58,1,2024-02-28T14:29:02.449Z,english_215.wav,0,peel,585,30,5,4,English,f,1,0.1,1.45242975,1.8088146
65bba4976e47d14ab32b61c8,58,1,2024-02-28T14:29:02.449Z,english_215.wav,0,peel,585,30,5,4,English,f,2,0.2,-64.33425221,1.50664885
65bba4976e47d14ab32b61c8,58,1,2024-02-28T14:29:02.449Z,english_215.wav,0,peel,585,30,5,4,English,f,3,0.3,94.32501829,1.24738647
65bba4976e47d14ab32b61c8,58,1,2024-02-28T14:29:02.449Z,english_215.wav,0,peel,585,30,5,4,English,f,4,0.4,-24.96285319,1.99674836
65bba4976e47d14ab32b61c8,58,1,2024-02-28T14:29:02.449Z,english_215.wav,0,peel,585,30,5,4,English,f,5,0.5,24.44115024,1.0963611
65bba4976e47d14ab32b61c8,58,1,2024-02-28T14:29:02.449Z,english_215.wav,0,peel,585,30,5,4,English,f,6,0.6,88.75353775,1.91027181
65bba4976e47d14ab32b61c8,58,1,2024-02-28T14:29:02.449Z,english_215.wav,0,peel,585,30,5,4,English,f,7,0.7,84.15272448,1.87676127
65bba4976e47d14ab32b61c8,58,1,2024-02-28T14:29:02.449Z,english_215.wav,0,peel,585,30,5,4,English,f,8,0.8,64.6545326,1.65561874
65bba4976e47d14ab32b61c8,58,1,2024-02-28T14:29:02.449Z,english_215.wav,0,peel,585,30,5,4,English,f,9,0.9,-74.06978327,1.63896442
65bba4976e47d14ab32b61c8,58,1,2024-02-28T14:29:02.449Z,english_215.wav,0,peel,585,30,5,4,English,f,10,1.0,-77.05086555,0.85126523
65bba4976e47d14ab32b61c8,58,1,2024-02-28T14:29:02.449Z,english_215.wav,0,peel,585,30,5,4,English,f,11,1.09391667,82.12012488,1.4630733
65bba4976e47d14ab32b61c8,59,1,2024-02-28T14:29:02.449Z,english_883.wav,0,peel,358,30,5,4,English,f,0,0.0,-84.46412598,0.36586486
65bba4976e47d14ab32b61c8,59,1,2024-02-28T14:29:02.449Z,english_883.wav,0,peel,358,30,5,4,English,f,1,0.1,-48.29800463,1.2838589
65bba4976e47d14ab32b61c8,59,1,2024-02-28T14:29:02.449Z,english_883.wav,0,peel,358,30,5,4,English,f,2,0.2,-81.14674871,0.35124497
65bba4976e47d14ab32b61c8,59,1,2024-02-28T14:29:02.449Z,english_883.wav,0,peel,358,30,5,4,English,f,3,0.3,-14.72052063,0.55313004
65bba4976e47d14ab32b61c8,59,1,2024-02-28T14:29:02.449Z,english_883.wav,0,peel,358,30,5,4,English,f,4,0.4,84.15645486,1.38696071
65bba4976e47d14ab32b61c8,59,1,2024-02-28T14:29:02.449Z,english_883.wav,0,peel,358,30,5,4,English,f,5,0.5,-46.7306994,0.05285084
65bba4976e47d14ab32b61c8,59,1,2024-02-28T14:29:02.449Z,english_883.wav,0,peel,358,30,5,4,English,f,6,0.6,-55.92753429,0.33437309
65bba4976e47d14ab32b61c8,59,1,2024-02-28T14:29:02.449Z,english_883.wav,0,peel,358,30,5,4,English,f,7,0.7,69.20414462,0.05014106
65bba4976e47d14ab32b61c8,59,1,2024-02-28T14:29:02.449Z,english_883.wav,0,peel,358,30,5,4,English,f,8,0.8,42.35113705,1.1093355
65bba4976e47d14ab32b61c8,59,1,2024-02-28T14:29:02.449Z,english_883.wav,0,peel,358,30,5,4,English,f,9,0.9,68.93741473,1.05755937
65bba4976e47d14ab32b61c8,59,1,2024-02-28T14:29:02.449Z,english_883.wav,0,peel,358,30,5,4,English,f,10,1.0,5.16727893,0.06749628
65bba4976e47d14ab32b61c8,59,1,2024-02-28T14:29:02.449Z,english_883.wav,0,peel,358,30,5,4,English,f,11,1.09391667,-87.05225408,1.22701865
65bba4976e47d14ab32b61c8,60,1,2024-02-28T14:29:02.449Z,english_879.wav,0,peel,462,30,5,4,English,f,0,0.0,-41.71376067,1.10654485
65bba4976e47d14ab32b61c8,60,1,2024-02-28T14:29:02.449Z,english_879.wav,0,peel,462,30,5,4,English,f,1,0.1,5.81272632,1.32832236
65bba4976e47d14ab32b61c8,60,1,2024-02-28T14:29:02.449Z,english_879.wav,0,peel,462,30,5,4,English,f,2,0.2,-22.32054487,1.5555922
65bba4976e47d14ab32b61c8,60,1,2024-02-28T14:29:02.449Z,english_879.wav,0,peel,462,30,5,4,English,f,3,0.3,93.64091385,0.11041486
65bba4976e47d14ab32b61c8,60,1,2024-02-28T14:29:02.449Z,english_879.wav,0,peel,462,30,5,4,English,f,4,0.4,-40.92402167,1.31993608
65bba4976e47d14ab32b61c8,60,1,2024-02-28T14:29:02.449Z,english_879.wav,0,peel,462,30,5,4,English,f,5,0.5,13.45427288,1.7629303
65bba4976e47d14ab32b61c8,60,1,2024-02-28T14:29:02.449Z,english_879.wav,0,peel,462,30,5,4,English,f,6,0.6,-86.15210755,1.83129602
65bba4976e47d14ab32b61c8,60,1,2024-02-28T14:29:02.449Z,english_879.wav,0,peel,462,30,5,4,English,f,7,0.7,-20.9667874,1.42589619
65bba4976e47d14ab32b61c8,60,1,2024-02-28T14:29:02.449Z,english_879.wav,0,peel,462,30,5,4,English,f,8,0.8,-18.58842444,0.74351112
65bba4976e47d14ab32b61c8,60,1,2024-02-28T14:29:02.449Z,english_879.wav,0,peel,462,30,5,4,English,f,9,0.9,-72.1364449,0.32763887
65bba4976e47d14ab32b61c8,60,1,2024-02-28T14:29:02.449Z,english_879.wav,0,peel,462,30,5,4,English,f,10,1.0,-83.06025628,1.7749803
65bba4976e47d14ab32b61c8,60,1,2024-02-28T14:29:02.449Z,english_879.wav,0,peel,462,30,5,4,English,f,11,1.09391667,76.41221389,1.6164567
65bba4976e47d14ab32b61c8,61,1,2024-02-28T14:29:02.449Z,english_363.wav,0,peel,424,30,5,4,English,f,0,0.0,-5.66534259,1.60513634
65bba4976e47d14ab32b61c8,61,1,2024-02-28T14:29:02.449Z,english_363.wav,0,peel,424,30,5,4,English,f,1,0.1,96.57780227,0.93762693
65bba4976e47d14ab32b61c8,61,1,2024-02-28T14:29:02.449Z,english_363.wav,0,peel,424,30,5,4,English,f,2,0.2,8.75498082,1.53396088
65bba4976e47d14ab32b61c8,61,1,2024-02-28T14:29:02.449Z,english_363.wav,0,peel,424,30,5,4,English,f,3,0.3,-62.00877197,1.61687943
65bba4976e47d14ab32b61c8,61,1,2024-02-28T14:29:02.449Z,english_363.wav,0,peel,424,30,5,4,English,f,4,0.4,55.64754403,0.81027283
65bba4976e47d14ab32b61c8,61,1,2024-02-28T14:29:02.449Z,english_363.wav,0,peel,424,30,5,4,English,f,5,0.5,60.40753337,0.96421289
65bba4976e47d14ab32b61c8,61,1,2024-02-28T14:29:02.449Z,english_363.wav,0,peel,424,30,5,4,English,f,6,0.6,28.13214645,0.44675755
65bba4976e47d14ab32b61c8,61,1,2024-02-28T14:29:02.449Z,english_363.wav,0,peel,424,30,5,4,English,f,7,0.7,80.12225937,1.7907484
65bba4976e47d14ab32b61c8,61,1,2024-02-28T14:29:02.449Z,english_363.wav,0,peel,424,30,5,4,English,f,8,0.8,96.25782192,1.63025461
65bba4976e47d14ab32b61c8,61,1,2024-02-28T14:29:02.449Z,english_363.wav,0,peel,424,30,5,4,English,f,9,0.9,-69.76671387,1.21594348
65bba4976e47d14ab32b61c8,61,1,2024-02-28T14:29:02.449Z,english_363.wav,0,peel,424,30,5,4,English,f,10,1.0,60.27804949,1.84929312
65bba4976e47d14ab32b61c8,61,1,2024-02-28T14:29:02.449Z,english_363.wav,0,peel,424,30,5,4,English,f,11,1.09391667,31.6619376,0.74880834
65bba4976e47d14ab32b61c8,62,1,2024-02-28T14:29:02.449Z,english_36.wav,0,peel,251,30,5,4,English,f,0,0.0,-9.00477988,0.81327237
65bba4976e47d14ab32b61c8,62,1,2024-02-28T14:29:02.449Z,english_36.wav,0,peel,251,30,5,4,English,f,1,0.1,-13.45702302,0.45075004
65bba4976e47d14ab32b61c8,62,1,2024-02-28T14:29:02.449Z,english_36.wav,0,peel,251,30,5,4,English,f,2,0.2,-2.81727849,0.1663237
65bba4976e47d14ab32b61c8,62,1,2024-02-28T14:29:02.449Z,english_36.wav,0,peel,251,30,5,4,English,f,3,0.3,-29.71164893,1.57862109
65bba4976e47d14ab32b61c8,62,1,2024-02-28T14:29:02.449Z,english_36.wav,0,peel,251,30,5,4,English,f,4,0.4,95.72220786,1.7254824
65bba4976e47d14ab32b61c8,62,1,2024-02-28T14:29:02.449Z,english_36.wav,0,peel,251,30,5,4,English,f,5,0.5,-60.23405317,1.10066579
65bba4976e47d14ab32b61c8,62,1,2024-02-28T14:29:02.449Z,english_36.wav,0,peel,251,30,5,4,English,f,6,0.6,-99.2529621,0.59792659
65bba4976e47d14ab32b61c8,62,1,2024-02-28T14:29:02.449Z,english_36.wav,0,peel,251,30,5,4,English,f,7,0.7,-7.64791957,1.42084394
65bba4976e47d14ab32b61c8,62,1,2024-02-28T14:29:02.449Z,english_36.wav,0,peel,251,30,5,4,English,f,8,0.8,-68.45334788,0.87400001
65bba4976e47d14ab32b61c8,62,1,2024-02-28T14:29:02.449Z,english_36.wav,0,peel,251,30,5,4,English,f,9,0.9,91.90753039,1.522223
65bba4976e47d14ab32b61c8,62,1,2024-02-28T14:29:02.449Z,english_36.wav,0,peel,251,30,5,4,English,f,10,1.0,93.40110395,0.56951468
65bba4976e47d14ab32b61c8,62,1,2024-02-28T14:29:02.449Z,english_36.wav,0,peel,251,30,5,4,English,f,11,1.09391667,-27.95691035,1.01798822
65bba4976e47d14ab32b61c8,63,1,2024-02-28T14:29:02.449Z,english_82.wav,0,peel,145,30,5,4,English,f,0,0.0,-50.65944843,0.53695405
65bba4976e47d14ab32b61c8,63,1,2024-02-28T14:29:02.449Z,english_82.wav,0,peel,145,30,5,4,English,f,1,0.1,-8.30198342,1.68823048
65bba4976e47d14ab32b61c8,63,1,2024-02-28T14:29:02.449Z,english_82.wav,0,peel,145,30,5,4,English,f,2,0.2,28.238309,0.29560695
65bba4976e47d14ab32b61c8,63,1,2024-02-28T14:29:02.449Z,english_82.wav,0,peel,145,30,5,4,English,f,3,0.3,-35.80408689,0.83443164
65bba4976e47d14ab32b61c8,63,1,2024-02-28T14:29:02.449Z,english_82.wav,0,peel,145,30,5,4,English,f,4,0.4,80.50699914,0.87894934
65bba4976e47d14ab32b61c8,63,1,2024-02-28T14:29:02.449Z,english_82.wav,0,peel,145,30,5,4,English,f,5,0.5,-99.69979401,1.46703122
65bba4976e47d14ab32b61c8,63,1,2024-02-28T14:29:02.449Z,english_82.wav,0,peel,145,30,5,4,English,f,6,0.6,30.38876845,0.23248639
65bba4976e47d14ab32b61c8,63,1,2024-02-28T14:29:02.449Z,english_82.wav,0,peel,145,30,5,4,English,f,7,0.7,-2.76434691,1.71572221
65bba4976e47d14ab32b61c8,63,1,2024-02-28T14:29:02.449Z,english_82.wav,0,peel,145,30,5,4,English,f,8,0.8,-19.59960586,1.24729907
65bba4976e47d14ab32b61c8,63,1,2024-02-28T14:29:02.449Z,english_82.wav,0,peel,145,30,5,4,English,f,9,0.9,-93.26966696,0.75753981
65bba4976e47d14ab32b61c8,63,1,2024-02-28T14:29:02.449Z,english_82.wav,0,peel,145,30,5,4,English,f,10,1.0,64.56379815,1.65214627
65bba4976e47d14ab32b61c8,63,1,2024-02-28T14:29:02.449Z,english_82.wav,0,peel,145,30,5,4,English,f,11,1.09391667,-59.79308705,0.40383656
65bba4976e47d14ab32b61c8,64,1,2024-02-28T14:29:02.449Z,english_724.wav,0,peel,631,30,5,4,English,f,0,0.0,-56.76875747,1.98134375
65bba4976e47d14ab32b61c8,64,1,2024-02-28T14:29:02.449Z,english_724.wav,0,peel,631,30,5,4,English,f,1,0.1,-86.21406354,1.3755847
65bba4976e47d14ab32b61c8,64,1,2024-02-28T14:29:02.449Z,english_724.wav,0,peel,631,30,5,4,English,f,2,0.2,60.18994207,0.59510503
65bba4976e47d14ab32b61c8,64,1,2024-02-28T14:29:02.449Z,english_724.wav,0,peel,631,30,5,4,English,f,3,0.3,-73.18576328,0.94085573
65bba4976e47d14ab32b61c8,64,1,2024-02-28T14:29:02.449Z,english_724.wav,0,peel,631,30,5,4,English,f,4,0.4,9.02898682,1.58537713
65bba4976e47d14ab32b61c8,64,1,2024-02-28T14:29:02.449Z,english_724.wav,0,peel,631,30,5,4,English,f,5,0.5,0.09152752,0.37644638
