subj,trial,block,date,stim,stim_order,response,rt,age,english,french,language,sex,param_index,segment,pitch,stretch
5e38397719e44f0244389781,0,0,2024-02-28T14:21:06.404Z,english_661.wav,0,pill,1249,30,5,4,english,m,0,0.0,-96.27017097,0.06095717
5e38397719e44f0244389781,0,0,2024-02-28T14:21:06.404Z,english_661.wav,0,pill,1249,30,5,4,english,m,1,0.1,-8.23164951,1.37830678
5e38397719e44f0244389781,0,0,2024-02-28T14:21:06.404Z,english_661.wav,0,pill,1249,30,5,4,english,m,2,0.2,-17.16483844,0.60938429
5e38397719e44f0244389781,0,0,2024-02-28T14:21:06.404Z,english_661.wav,0,pill,1249,30,5,4,english,m,3,0.3,51.38438878,1.50755712
5e38397719e44f0244389781,0,0,2024-02-28T14:21:06.404Z,english_661.wav,0,pill,1249,30,5,4,english,m,4,0.4,-46.68819378,0.78233896
5e38397719e44f0244389781,0,0,2024-02-28T14:21:06.404Z,english_661.wav,0,pill,1249,30,5,4,english,m,5,0.5,-48.36150329,1.0485375
5e38397719e44f0244389781,0,0,2024-02-28T14:21:06.404Z,english_661.wav,0,pill,1249,30,5,4,english,m,6,0.6,39.11171658,1.09444979
5e38397719e44f0244389781,0,0,2024-02-28T14:21:06.404Z,english_661.wav,0,pill,1249,30,5,4,english,m,7,0.7,61.02242978,0.69142926
5e38397719e44f0244389781,0,0,2024-02-28T14:21:06.404Z,english_661.wav,0,pill,1249,30,5,4,english,m,8,0.8,-31.59479495,1.58337901
5e38397719e44f0244389781,0,0,2024-02-28T14:21:06.404Z,english_661.wav,0,pill,1249,30,5,4,english,m,9,0.9,29.78054616,1.62604078
5e38397719e44f0244389781,0,0,2024-02-28T14:21:06.404Z,english_661.wav,0,pill,1249,30,5,4,english,m,10,1.0,12.03263948,0.74172624
5e38397719e44f0244389781,0,0,2024-02-28T14:21:06.404Z,english_661.wav,0,pill,1249,30,5,4,english,m,11,1.09391667,45.41432931,1.92603435
5e38397719e44f0244389781,1,0,2024-02-28T14:21:06.404Z,english_35.wav,0,pill,928,30,5,4,english,m,0,0.0,-33.2471352,0.63198815
5e38397719e44f0244389781,1,0,2024-02-28T14:21:06.404Z,english_35.wav,0,pill,928,30,5,4,english,m,1,0.1,-56.9991421,0.43394686
5e38397719e44f0244389781,1,0,2024-02-28T14:21:06.404Z,english_35.wav,0,pill,928,30,5,4,english,m,2,0.2,-53.141025,1.61809769
5e38397719e44f0244389781,1,0,2024-02-28T14:21:06.404Z,english_35.wav,0,pill,928,30,5,4,english,m,3,0.3,-97.470792,0.75167401
5e38397719e44f0244389781,1,0,2024-02-28T14:21:06.404Z,english_35.wav,0,pill,928,30,5,4,english,m,4,0.4,25.2422215,0.72143441
5e38397719e44f0244389781,1,0,2024-02-28T14:21:06.404Z,english_35.wav,0,pill,928,30,5,4,english,m,5,0.5,-39.0524292,1.49847169
5e38397719e44f0244389781,1,0,2024-02-28T14:21:06.404Z,english_35.wav,0,pill,928,30,5,4,english,m,6,0.6,-99.0462998,0.81761607
5e38397719e44f0244389781,1,0,2024-02-28T14:21:06.404Z,english_35.wav,0,pill,928,30,5,4,english,m,7,0.7,48.0059539,1.11392086
5e38397719e44f0244389781,1,0,2024-02-28T14:21:06.404Z,english_35.wav,0,pill,928,30,5,4,english,m,8,0.8,73.4220257,1.25690952
5e38397719e44f0244389781,1,0,2024-02-28T14:21:06.404Z,english_35.wav,0,pill,928,30,5,4,english,m,9,0.9,-41.814313,1.7324837
5e38397719e44f0244389781,1,0,2024-02-28T14:21:06.404Z,english_35.wav,0,pill,928,30,5,4,english,m,10,1.0,0.040670218,0.64426718
5e38397719e44f0244389781,1,0,2024-02-28T14:21:06.404Z,english_35.wav,0,pill,928,30,5,4,english,m,11,1.09391667,34.2858519,1.0286628
5e38397719e44f0244389781,2,0,2024-02-28T14:21:06.404Z,english_569.wav,0,pill,810,30,5,4,english,m,0,0.0,80.86242067,1.33421849
5e38397719e44f0244389781,2,0,2024-02-28T14:21:06.404Z,english_569.wav,0,pill,810,30,5,4,english,m,1,0.1,-36.85440805,1.5057291
5e38397719e44f0244389781,2,0,2024-02-28T14:21:06.404Z,english_569.wav,0,pill,810,30,5,4,english,m,2,0.2,55.48604093,1.7838276
5e38397719e44f0244389781,2,0,2024-02-28T14:21:06.404Z,english_569.wav,0,pill,810,30,5,4,english,m,3,0.3,-32.48832212,0.34502948
5e38397719e44f0244389781,2,0,2024-02-28T14:21:06.404Z,english_569.wav,0,pill,810,30,5,4,english,m,4,0.4,34.47022209,1.33242051
5e38397719e44f0244389781,2,0,2024-02-28T14:21:06.404Z,english_569.wav,0,pill,810,30,5,4,english,m,5,0.5,23.79827115,0.68239412
5e38397719e44f0244389781,2,0,2024-02-28T14:21:06.404Z,english_569.wav,0,pill,810,30,5,4,english,m,6,0.6,-29.60411728,1.41145095
5e38397719e44f0244389781,2,0,2024-02-28T14:21:06.404Z,english_569.wav,0,pill,810,30,5,4,english,m,7,0.7,-3.34902879,0.70703372
5e38397719e44f0244389781,2,0,2024-02-28T14:21:06.404Z,english_569.wav,0,pill,810,30,5,4,english,m,8,0.8,-24.14207397,0.57539158
5e38397719e44f0244389781,2,0,2024-02-28T14:21:06.404Z,english_569.wav,0,pill,810,30,5,4,english,m,9,0.9,49.40170215,1.31553206
5e38397719e44f0244389781,2,0,2024-02-28T14:21:06.404Z,english_569.wav,0,pill,810,30,5,4,english,m,10,1.0,34.30113072,0.57675215
5e38397719e44f0244389781,2,0,2024-02-28T14:21:06.404Z,english_569.wav,0,pill,810,30,5,4,english,m,11,1.09391667,-89.06013863,1.91555697
5e38397719e44f0244389781,3,0,2024-02-28T14:21:06.404Z,english_639.wav,0,pill,603,30,5,4,english,m,0,0.0,5.56347498,1.83509432
5e38397719e44f0244389781,3,0,2024-02-28T14:21:06.404Z,english_639.wav,0,pill,603,30,5,4,english,m,1,0.1,75.73661073,0.44211572
5e38397719e44f0244389781,3,0,2024-02-28T14:21:06.404Z,english_639.wav,0,pill,603,30,5,4,english,m,2,0.2,-90.85300276,1.03578017
5e38397719e44f0244389781,3,0,2024-02-28T14:21:06.404Z,english_639.wav,0,pill,603,30,5,4,english,m,3,0.3,-28.02471483,0.46973677
5e38397719e44f0244389781,3,0,2024-02-28T14:21:06.404Z,english_639.wav,0,pill,603,30,5,4,english,m,4,0.4,-62.26468724,0.54820752
5e38397719e44f0244389781,3,0,2024-02-28T14:21:06.404Z,english_639.wav,0,pill,603,30,5,4,english,m,5,0.5,17.80250947,0.51964922
5e38397719e44f0244389781,3,0,2024-02-28T14:21:06.404Z,english_639.wav,0,pill,603,30,5,4,english,m,6,0.6,29.29879682,0.06117772
5e38397719e44f0244389781,3,0,2024-02-28T14:21:06.404Z,english_639.wav,0,pill,603,30,5,4,english,m,7,0.7,-6.14897809,0.67480304
5e38397719e44f0244389781,3,0,2024-02-28T14:21:06.404Z,english_639.wav,0,pill,603,30,5,4,english,m,8,0.8,-11.9254819,0.85869346
5e38397719e44f0244389781,3,0,2024-02-28T14:21:06.404Z,english_639.wav,0,pill,603,30,5,4,english,m,9,0.9,6.20327944,1.90136883
5e38397719e44f0244389781,3,0,2024-02-28T14:21:06.404Z,english_639.wav,0,pill,603,30,5,4,english,m,10,1.0,-44.51875699,1.31276151
5e38397719e44f0244389781,3,0,2024-02-28T14:21:06.404Z,english_639.wav,0,pill,603,30,5,4,english,m,11,1.09391667,52.00361599,1.93524577
5e38397719e44f0244389781,4,0,2024-02-28T14:21:06.404Z,english_169.wav,0,peel,827,30,5,4,english,m,0,0.0,-47.44631174,0.61482073
5e38397719e44f0244389781,4,0,2024-02-28T14:21:06.404Z,english_169.wav,0,peel,827,30,5,4,english,m,1,0.1,48.43296153,0.65655052
5e38397719e44f0244389781,4,0,2024-02-28T14:21:06.404Z,english_169.wav,0,peel,827,30,5,4,english,m,2,0.2,-16.2993289,1.98022162
5e38397719e44f0244389781,4,0,2024-02-28T14:21:06.404Z,english_169.wav,0,peel,827,30,5,4,english,m,3,0.3,71.12275577,1.32201843
5e38397719e44f0244389781,4,0,2024-02-28T14:21:06.404Z,english_169.wav,0,peel,827,30,5,4,english,m,4,0.4,27.92431259,0.62266418
5e38397719e44f0244389781,4,0,2024-02-28T14:21:06.404Z,english_169.wav,0,peel,827,30,5,4,english,m,5,0.5,-51.53020823,0.36761683
5e38397719e44f0244389781,4,0,2024-02-28T14:21:06.404Z,english_169.wav,0,peel,827,30,5,4,english,m,6,0.6,70.60667651,0.63917639
5e38397719e44f0244389781,4,0,2024-02-28T14:21:06.404Z,english_169.wav,0,peel,827,30,5,4,english,m,7,0.7,19.72897422,0.86553093
5e38397719e44f0244389781,4,0,2024-02-28T14:21:06.404Z,english_169.wav,0,peel,827,30,5,4,english,m,8,0.8,-28.1908113,1.52360694
5e38397719e44f0244389781,4,0,2024-02-28T14:21:06.404Z,english_169.wav,0,peel,827,30,5,4,english,m,9,0.9,42.45712742,1.86801427
5e38397719e44f0244389781,4,0,2024-02-28T14:21:06.404Z,english_169.wav,0,peel,827,30,5,4,english,m,10,1.0,90.49930188,1.6810017
5e38397719e44f0244389781,4,0,2024-02-28T14:21:06.404Z,english_169.wav,0,peel,827,30,5,4,english,m,11,1.09391667,-24.56696621,0.16531637
5e38397719e44f0244389781,5,0,2024-02-28T14:21:06.404Z,english_856.wav,0,peel,177,30,5,4,english,m,0,0.0,-87.78087501,0.23355411
5e38397719e44f0244389781,5,0,2024-02-28T14:21:06.404Z,english_856.wav,0,peel,177,30,5,4,english,m,1,0.1,-5.3712764,0.25625776
5e38397719e44f0244389781,5,0,2024-02-28T14:21:06.404Z,english_856.wav,0,peel,177,30,5,4,english,m,2,0.2,-32.01336506,0.23781871
5e38397719e44f0244389781,5,0,2024-02-28T14:21:06.404Z,english_856.wav,0,peel,177,30,5,4,english,m,3,0.3,-17.67932292,1.00270159
5e38397719e44f0244389781,5,0,2024-02-28T14:21:06.404Z,english_856.wav,0,peel,177,30,5,4,english,m,4,0.4,-24.3028662,1.45467938
5e38397719e44f0244389781,5,0,2024-02-28T14:21:06.404Z,english_856.wav,0,peel,177,30,5,4,english,m,5,0.5,-24.1832065,0.02272775
5e38397719e44f0244389781,5,0,2024-02-28T14:21:06.404Z,english_856.wav,0,peel,177,30,5,4,english,m,6,0.6,72.09597394,1.47665781
5e38397719e44f0244389781,5,0,2024-02-28T14:21:06.404Z,english_856.wav,0,peel,177,30,5,4,english,m,7,0.7,99.56545873,1.13119878
5e38397719e44f0244389781,5,0,2024-02-28T14:21:06.404Z,english_856.wav,0,peel,177,30,5,4,english,m,8,0.8,-38.26985921,1.70416673
5e38397719e44f0244389781,5,0,2024-02-28T14:21:06.404Z,english_856.wav,0,peel,177,30,5,4,english,m,9,0.9,46.8718891,1.96783156
5e38397719e44f0244389781,5,0,2024-02-28T14:21:06.404Z,english_856.wav,0,peel,177,30,5,4,english,m,10,1.0,23.13402485,0.77103282
5e38397719e44f0244389781,5,0,2024-02-28T14:21:06.404Z,english_856.wav,0,peel,177,30,5,4,english,m,11,1.09391667,-57.51825613,1.57872491
5e38397719e44f0244389781,6,0,2024-02-28T14:21:06.404Z,english_606.wav,0,peel,1379,30,5,4,english,m,0,0.0,72.77252021,1.14271188
5e38397719e44f0244389781,6,0,2024-02-28T14:21:06.404Z,english_606.wav,0,peel,1379,30,5,4,english,m,1,0.1,22.60713343,1.41897374
5e38397719e44f0244389781,6,0,2024-02-28T14:21:06.404Z,english_606.wav,0,peel,1379,30,5,4,english,m,2,0.2,30.91882808,1.73372854
5e38397719e44f0244389781,6,0,2024-02-28T14:21:06.404Z,english_606.wav,0,peel,1379,30,5,4,english,m,3,0.3,-48.84223864,1.07065865
5e38397719e44f0244389781,6,0,2024-02-28T14:21:06.404Z,english_606.wav,0,peel,1379,30,5,4,english,m,4,0.4,-29.82386042,0.5542197
5e38397719e44f0244389781,6,0,2024-02-28T14:21:06.404Z,english_606.wav,0,peel,1379,30,5,4,english,m,5,0.5,82.48397831,0.65978179
5e38397719e44f0244389781,6,0,2024-02-28T14:21:06.404Z,english_606.wav,0,peel,1379,30,5,4,english,m,6,0.6,-18.49396427,0.64487358
5e38397719e44f0244389781,6,0,2024-02-28T14:21:06.404Z,english_606.wav,0,peel,1379,30,5,4,english,m,7,0.7,26.88567381,1.50533402
5e38397719e44f0244389781,6,0,2024-02-28T14:21:06.404Z,english_606.wav,0,peel,1379,30,5,4,english,m,8,0.8,-18.34346668,1.51615031
5e38397719e44f0244389781,6,0,2024-02-28T14:21:06.404Z,english_606.wav,0,peel,1379,30,5,4,english,m,9,0.9,10.06544583,0.11673085
5e38397719e44f0244389781,6,0,2024-02-28T14:21:06.404Z,english_606.wav,0,peel,1379,30,5,4,english,m,10,1.0,-89.88083722,0.60775024
5e38397719e44f0244389781,6,0,2024-02-28T14:21:06.404Z,english_606.wav,0,peel,1379,30,5,4,english,m,11,1.09391667,66.64968825,0.13627416
5e38397719e44f0244389781,7,0,2024-02-28T14:21:06.404Z,english_68.wav,0,peel,587,30,5,4,english,m,0,0.0,26.58837816,1.41652886
5e38397719e44f0244389781,7,0,2024-02-28T14:21:06.404Z,english_68.wav,0,peel,587,30,5,4,english,m,1,0.1,-30.26201774,1.6821225
5e38397719e44f0244389781,7,0,2024-02-28T14:21:06.404Z,english_68.wav,0,peel,587,30,5,4,english,m,2,0.2,-90.31994669,0.24298021
5e38397719e44f0244389781,7,0,2024-02-28T14:21:06.404Z,english_68.wav,0,peel,587,30,5,4,english,m,3,0.3,-80.73820175,0.67959509
5e38397719e44f0244389781,7,0,2024-02-28T14:21:06.404Z,english_68.wav,0,peel,587,30,5,4,english,m,4,0.4,-81.40390329,1.6191627
5e38397719e44f0244389781,7,0,2024-02-28T14:21:06.404Z,english_68.wav,0,peel,587,30,5,4,english,m,5,0.5,-53.94630637,0.53489657
5e38397719e44f0244389781,7,0,2024-02-28T14:21:06.404Z,english_68.wav,0,peel,587,30,5,4,english,m,6,0.6,54.33124478,1.08896417
5e38397719e44f0244389781,7,0,2024-02-28T14:21:06.404Z,english_68.wav,0,peel,587,30,5,4,english,m,7,0.7,-19.04235486,1.94234514
5e38397719e44f0244389781,7,0,2024-02-28T14:21:06.404Z,english_68.wav,0,peel,587,30,5,4,english,m,8,0.8,-60.29150312,1.53460069
5e38397719e44f0244389781,7,0,2024-02-28T14:21:06.404Z,english_68.wav,0,peel,587,30,5,4,english,m,9,0.9,-10.04711988,1.76859618
5e38397719e44f0244389781,7,0,2024-02-28T14:21:06.404Z,english_68.wav,0,peel,587,30,5,4,english,m,10,1.0,14.48015304,0.93905077
5e38397719e44f0244389781,7,0,2024-02-28T14:21:06.404Z,english_68.wav,0,peel,587,30,5,4,english,m,11,1.09391667,-61.29871008,1.70593474
5e38397719e44f0244389781,8,0,2024-02-28T14:21:06.404Z,english_921.wav,0,peel,339,30,5,4,english,m,0,0.0,31.46476347,1.40929115
5e38397719e44f0244389781,8,0,2024-02-28T14:21:06.404Z,english_921.wav,0,peel,339,30,5,4,english,m,1,0.1,-97.58408055,0.95578469
5e38397719e44f0244389781,8,0,2024-02-28T14:21:06.404Z,english_921.wav,0,peel,339,30,5,4,english,m,2,0.2,54.67506657,1.08840418
5e38397719e44f0244389781,8,0,2024-02-28T14:21:06.404Z,english_921.wav,0,peel,339,30,5,4,english,m,3,0.3,22.21056557,0.27152021
5e38397719e44f0244389781,8,0,2024-02-28T14:21:06.404Z,english_921.wav,0,peel,339,30,5,4,english,m,4,0.4,0.8393727,1.01175766
5e38397719e44f0244389781,8,0,2024-02-28T14:21:06.404Z,english_921.wav,0,peel,339,30,5,4,english,m,5,0.5,-71.57742702,0.91544212
5e38397719e44f0244389781,8,0,2024-02-28T14:21:06.404Z,english_921.wav,0,peel,339,30,5,4,english,m,6,0.6,-21.98162251,1.03161778
5e38397719e44f0244389781,8,0,2024-02-28T14:21:06.404Z,english_921.wav,0,peel,339,30,5,4,english,m,7,0.7,-45.34354294,1.69417828
5e38397719e44f0244389781,8,0,2024-02-28T14:21:06.404Z,english_921.wav,0,peel,339,30,5,4,english,m,8,0.8,-54.46580015,1.14800845
5e38397719e44f0244389781,8,0,2024-02-28T14:21:06.404Z,english_921.wav,0,peel,339,30,5,4,english,m,9,0.9,-33.00243687,1.17008377
5e38397719e44f0244389781,8,0,2024-02-28T14:21:06.404Z,english_921.wav,0,peel,339,30,5,4,english,m,10,1.0,45.39245913,0.19449602
5e38397719e44f0244389781,8,0,2024-02-28T14:21:06.404Z,english_921.wav,0,peel,339,30,5,4,english,m,11,1.09391667,-24.69054897,1.58975603
5e38397719e44f0244389781,9,0,2024-02-28T14:21:06.404Z,english_869.wav,0,pill,1572,30,5,4,english,m,0,0.0,-20.7946379,1.94834657
5e38397719e44f0244389781,9,0,2024-02-28T14:21:06.404Z,english_869.wav,0,pill,1572,30,5,4,english,m,1,0.1,-22.88594334,1.67021182
5e38397719e44f0244389781,9,0,2024-02-28T14:21:06.404Z,english_869.wav,0,pill,1572,30,5,4,english,m,2,0.2,-44.01188064,1.50520546
5e38397719e44f0244389781,9,0,2024-02-28T14:21:06.404Z,english_869.wav,0,pill,1572,30,5,4,english,m,3,0.3,58.96228493,0.98955103
5e38397719e44f0244389781,9,0,2024-02-28T14:21:06.404Z,english_869.wav,0,pill,1572,30,5,4,english,m,4,0.4,0.25554563,0.43254465
5e38397719e44f0244389781,9,0,2024-02-28T14:21:06.404Z,english_869.wav,0,pill,1572,30,5,4,english,m,5,0.5,-14.29276016,1.32326318
5e38397719e44f0244389781,9,0,2024-02-28T14:21:06.404Z,english_869.wav,0,pill,1572,30,5,4,english,m,6,0.6,40.28852475,0.34817039
5e38397719e44f0244389781,9,0,2024-02-28T14:21:06.404Z,english_869.wav,0,pill,1572,30,5,4,english,m,7,0.7,83.9110951,0.4259349
5e38397719e44f0244389781,9,0,2024-02-28T14:21:06.404Z,english_869.wav,0,pill,1572,30,5,4,english,m,8,0.8,-58.08971542,0.20780663
5e38397719e44f0244389781,9,0,2024-02-28T14:21:06.404Z,english_869.wav,0,pill,1572,30,5,4,english,m,9,0.9,-47.84735546,0.9384124
5e38397719e44f0244389781,9,0,2024-02-28T14:21:06.404Z,english_869.wav,0,pill,1572,30,5,4,english,m,10,1.0,18.70420486,1.5529846
5e38397719e44f0244389781,9,0,2024-02-28T14:21:06.404Z,english_869.wav,0,pill,1572,30,5,4,english,m,11,1.09391667,33.02688521,1.23929613
5e38397719e44f0244389781,10,0,2024-02-28T14:21:06.404Z,english_673.wav,0,pill,440,30,5,4,english,m,0,0.0,90.76839252,1.23453875
5e38397719e44f0244389781,10,0,2024-02-28T14:21:06.404Z,english_673.wav,0,pill,440,30,5,4,english,m,1,0.1,6.046272,1.03311149
5e38397719e44f0244389781,10,0,2024-02-28T14:21:06.404Z,english_673.wav,0,pill,440,30,5,4,english,m,2,0.2,-87.83071151,1.26397394
5e38397719e44f0244389781,10,0,2024-02-28T14:21:06.404Z,english_673.wav,0,pill,440,30,5,4,english,m,3,0.3,36.6509823,1.9126635
5e38397719e44f0244389781,10,0,2024-02-28T14:21:06.404Z,english_673.wav,0,pill,440,30,5,4,english,m,4,0.4,-32.18158433,1.72280276
5e38397719e44f0244389781,10,0,2024-02-28T14:21:06.404Z,english_673.wav,0,pill,440,30,5,4,english,m,5,0.5,-19.24802142,0.25348074
5e38397719e44f0244389781,10,0,2024-02-28T14:21:06.404Z,english_673.wav,0,pill,440,30,5,4,english,m,6,0.6,48.91730907,1.44743683
5e38397719e44f0244389781,10,0,2024-02-28T14:21:06.404Z,english_673.wav,0,pill,440,30,5,4,english,m,7,0.7,69.64943754,1.155997
5e38397719e44f0244389781,10,0,2024-02-28T14:21:06.404Z,english_673.wav,0,pill,440,30,5,4,english,m,8,0.8,-5.12989182,0.33674768
5e38397719e44f0244389781,10,0,2024-02-28T14:21:06.404Z,english_673.wav,0,pill,440,30,5,4,english,m,9,0.9,-9.26659316,0.68600318
5e38397719e44f0244389781,10,0,2024-02-28T14:21:06.404Z,english_673.wav,0,pill,440,30,5,4,english,m,10,1.0,-16.89337836,1.11619923
5e38397719e44f0244389781,10,0,2024-02-28T14:21:06.404Z,english_673.wav,0,pill,440,30,5,4,english,m,11,1.09391667,-23.27882447,0.1262035
5e38397719e44f0244389781,11,0,2024-02-28T14:21:06.404Z,english_254.wav,0,pill,226,30,5,4,english,m,0,0.0,-79.97486314,0.1587751
5e38397719e44f0244389781,11,0,2024-02-28T14:21:06.404Z,english_254.wav,0,pill,226,30,5,4,english,m,1,0.1,4.97939185,1.19895937
5e38397719e44f0244389781,11,0,2024-02-28T14:21:06.404Z,english_254.wav,0,pill,226,30,5,4,english,m,2,0.2,-28.78047168,0.42029652
5e38397719e44f0244389781,11,0,2024-02-28T14:21:06.404Z,english_254.wav,0,pill,226,30,5,4,english,m,3,0.3,54.84679162,0.35684023
5e38397719e44f0244389781,11,0,2024-02-28T14:21:06.404Z,english_254.wav,0,pill,226,30,5,4,english,m,4,0.4,-29.5092506,0.61489906
5e38397719e44f0244389781,11,0,2024-02-28T14:21:06.404Z,english_254.wav,0,pill,226,30,5,4,english,m,5,0.5,32.35526616,0.62359164
5e38397719e44f0244389781,11,0,2024-02-28T14:21:06.404Z,english_254.wav,0,pill,226,30,5,4,english,m,6,0.6,30.73043206,0.73353012
5e38397719e44f0244389781,11,0,2024-02-28T14:21:06.404Z,english_254.wav,0,pill,226,30,5,4,english,m,7,0.7,-63.39934618,1.26915249
5e38397719e44f0244389781,11,0,2024-02-28T14:21:06.404Z,english_254.wav,0,pill,226,30,5,4,english,m,8,0.8,41.52768957,1.27281169
5e38397719e44f0244389781,11,0,2024-02-28T14:21:06.404Z,english_254.wav,0,pill,226,30,5,4,english,m,9,0.9,-68.73480186,1.34629586
5e38397719e44f0244389781,11,0,2024-02-28T14:21:06.404Z,english_254.wav,0,pill,226,30,5,4,english,m,10,1.0,39.94615362,0.72701625
5e38397719e44f0244389781,11,0,2024-02-28T14:21:06.404Z,english_254.wav,0,pill,226,30,5,4,english,m,11,1.09391667,-8.67015509,0.66252937
5e38397719e44f0244389781,12,0,2024-02-28T14:21:06.404Z,english_198.wav,0,pill,562,30,5,4,english,m,0,0.0,51.36253455,0.9480924
5e38397719e44f0244389781,12,0,2024-02-28T14:21:06.404Z,english_198.wav,0,pill,562,30,5,4,english,m,1,0.1,-1.79808666,1.89932886
5e38397719e44f0244389781,12,0,2024-02-28T14:21:06.404Z,english_198.wav,0,pill,562,30,5,4,english,m,2,0.2,-53.25635357,1.74507587
5e38397719e44f0244389781,12,0,2024-02-28T14:21:06.404Z,english_198.wav,0,pill,562,30,5,4,english,m,3,0.3,92.04905147,0.26533823
5e38397719e44f0244389781,12,0,2024-02-28T14:21:06.404Z,english_198.wav,0,pill,562,30,5,4,english,m,4,0.4,-90.57518695,0.16174051
5e38397719e44f0244389781,12,0,2024-02-28T14:21:06.404Z,english_198.wav,0,pill,562,30,5,4,english,m,5,0.5,60.37120744,0.96723602
5e38397719e44f0244389781,12,0,2024-02-28T14:21:06.404Z,english_198.wav,0,pill,562,30,5,4,english,m,6,0.6,-93.94505953,1.36968268
5e38397719e44f0244389781,12,0,2024-02-28T14:21:06.404Z,english_198.wav,0,pill,562,30,5,4,english,m,7,0.7,1.88310477,0.12063159
5e38397719e44f0244389781,12,0,2024-02-28T14:21:06.404Z,english_198.wav,0,pill,562,30,5,4,english,m,8,0.8,-23.01531969,1.46254302
5e38397719e44f0244389781,12,0,2024-02-28T14:21:06.404Z,english_198.wav,0,pill,562,30,5,4,english,m,9,0.9,-70.16036682,1.09212546
5e38397719e44f0244389781,12,0,2024-02-28T14:21:06.404Z,english_198.wav,0,pill,562,30,5,4,english,m,10,1.0,-26.79565184,1.75188749
5e38397719e44f0244389781,12,0,2024-02-28T14:21:06.404Z,english_198.wav,0,pill,562,30,5,4,english,m,11,1.09391667,30.40332279,1.41042335
5e38397719e44f0244389781,13,0,2024-02-28T14:21:06.404Z,english_804.wav,0,pill,393,30,5,4,english,m,0,0.0,12.60054447,1.79447267
5e38397719e44f0244389781,13,0,2024-02-28T14:21:06.404Z,english_804.wav,0,pill,393,30,5,4,english,m,1,0.1,-24.04730937,0.19342468
5e38397719e44f0244389781,13,0,2024-02-28T14:21:06.404Z,english_804.wav,0,pill,393,30,5,4,english,m,2,0.2,-96.55390316,1.90657737
5e38397719e44f0244389781,13,0,2024-02-28T14:21:06.404Z,english_804.wav,0,pill,393,30,5,4,english,m,3,0.3,-0.0991441,0.96962123
5e38397719e44f0244389781,13,0,2024-02-28T14:21:06.404Z,english_804.wav,0,pill,393,30,5,4,english,m,4,0.4,-4.22567636,1.3580225
5e38397719e44f0244389781,13,0,2024-02-28T14:21:06.404Z,english_804.wav,0,pill,393,30,5,4,english,m,5,0.5,70.60990728,1.75244202
5e38397719e44f0244389781,13,0,2024-02-28T14:21:06.404Z,english_804.wav,0,pill,393,30,5,4,english,m,6,0.6,-70.63369163,1.0415074
5e38397719e44f0244389781,13,0,2024-02-28T14:21:06.404Z,english_804.wav,0,pill,393,30,5,4,english,m,7,0.7,9.74055236,0.51929492
5e38397719e44f0244389781,13,0,2024-02-28T14:21:06.404Z,english_804.wav,0,pill,393,30,5,4,english,m,8,0.8,30.38077192,0.12110661
5e38397719e44f0244389781,13,0,2024-02-28T14:21:06.404Z,english_804.wav,0,pill,393,30,5,4,english,m,9,0.9,-59.11296325,0.62938559
5e38397719e44f0244389781,13,0,2024-02-28T14:21:06.404Z,english_804.wav,0,pill,393,30,5,4,english,m,10,1.0,43.99527933,1.09820629
5e38397719e44f0244389781,13,0,2024-02-28T14:21:06.404Z,english_804.wav,0,pill,393,30,5,4,english,m,11,1.09391667,50.55732952,0.96550638
5e38397719e44f0244389781,14,0,2024-02-28T14:21:06.404Z,english_747.wav,0,peel,167,30,5,4,english,m,0,0.0,33.9885207,1.47964533
5e38397719e44f0244389781,14,0,2024-02-28T14:21:06.404Z,english_747.wav,0,peel,167,30,5,4,english,m,1,0.1,-71.14283381,1.57695323
5e38397719e44f0244389781,14,0,2024-02-28T14:21:06.404Z,english_747.wav,0,peel,167,30,5,4,english,m,2,0.2,-52.52906762,1.13707985
5e38397719e44f0244389781,14,0,2024-02-28T14:21:06.404Z,english_747.wav,0,peel,167,30,5,4,english,m,3,0.3,79.5756924,1.65073603
5e38397719e44f0244389781,14,0,2024-02-28T14:21:06.404Z,english_747.wav,0,peel,167,30,5,4,english,m,4,0.4,-13.30932063,0.47172054
5e38397719e44f0244389781,14,0,2024-02-28T14:21:06.404Z,english_747.wav,0,peel,167,30,5,4,english,m,5,0.5,25.54535415,1.37786003
5e38397719e44f0244389781,14,0,2024-02-28T14:21:06.404Z,english_747.wav,0,peel,167,30,5,4,english,m,6,0.6,8.02344494,1.58889604
5e38397719e44f0244389781,14,0,2024-02-28T14:21:06.404Z,english_747.wav,0,peel,167,30,5,4,english,m,7,0.7,-38.13543806,1.29683876
5e38397719e44f0244389781,14,0,2024-02-28T14:21:06.404Z,english_747.wav,0,peel,167,30,5,4,english,m,8,0.8,22.33599648,1.65514229
5e38397719e44f0244389781,14,0,2024-02-28T14:21:06.404Z,english_747.wav,0,peel,167,30,5,4,english,m,9,0.9,-26.77712134,1.18735968
5e38397719e44f0244389781,14,0,2024-02-28T14:21:06.404Z,english_747.wav,0,peel,167,30,5,4,english,m,10,1.0,-6.09351927,1.37962036
5e38397719e44f0244389781,14,0,2024-02-28T14:21:06.404Z,english_747.wav,0,peel,167,30,5,4,english,m,11,1.09391667,43.23579595,1.3791581
5e38397719e44f0244389781,15,0,2024-02-28T14:21:06.404Z,english_982.wav,0,pill,413,30,5,4,english,m,0,0.0,69.76944056,0.99276477
5e38397719e44f0244389781,15,0,2024-02-28T14:21:06.404Z,english_982.wav,0,pill,413,30,5,4,english,m,1,0.1,-42.93548761,1.13394656
5e38397719e44f0244389781,15,0,2024-02-28T14:21:06.404Z,english_982.wav,0,pill,413,30,5,4,english,m,2,0.2,36.82283162,0.8882043
5e38397719e44f0244389781,15,0,2024-02-28T14:21:06.404Z,english_982.wav,0,pill,413,30,5,4,english,m,3,0.3,32.72805269,0.48588646
5e38397719e44f0244389781,15,0,2024-02-28T14:21:06.404Z,english_982.wav,0,pill,413,30,5,4,english,m,4,0.4,59.91100813,0.19309887
5e38397719e44f0244389781,15,0,2024-02-28T14:21:06.404Z,english_982.wav,0,pill,413,30,5,4,english,m,5,0.5,-67.75715394,0.28513591
5e38397719e44f0244389781,15,0,2024-02-28T14:21:06.404Z,english_982.wav,0,pill,413,30,5,4,english,m,6,0.6,-89.50145132,0.07898736
5e38397719e44f0244389781,15,0,2024-02-28T14:21:06.404Z,english_982.wav,0,pill,413,30,5,4,english,m,7,0.7,-26.70280059,0.13233941
5e38397719e44f0244389781,15,0,2024-02-28T14:21:06.404Z,english_982.wav,0,pill,413,30,5,4,english,m,8,0.8,64.77389449,0.72291483
5e38397719e44f0244389781,15,0,2024-02-28T14:21:06.404Z,english_982.wav,0,pill,413,30,5,4,english,m,9,0.9,-30.11635891,0.45053492
5e38397719e44f0244389781,15,0,2024-02-28T14:21:06.404Z,english_982.wav,0,pill,413,30,5,4,english,m,10,1.0,-16.70024332,0.51435491
5e38397719e44f0244389781,15,0,2024-02-28T14:21:06.404Z,english_982.wav,0,pill,413,30,5,4,english,m,11,1.09391667,69.17887886,0.97661721
5e38397719e44f0244389781,16,0,2024-02-28T14:21:06.404Z,english_799.wav,0,pill,633,30,5,4,english,m,0,0.0,20.93448877,0.48820712
5e38397719e44f0244389781,16,0,2024-02-28T14:21:06.404Z,english_799.wav,0,pill,633,30,5,4,english,m,1,0.1,74.90549066,0.80562581
5e38397719e44f0244389781,16,0,2024-02-28T14:21:06.404Z,english_799.wav,0,pill,633,30,5,4,english,m,2,0.2,79.35216778,1.19822254
5e38397719e44f0244389781,16,0,2024-02-28T14:21:06.404Z,english_799.wav,0,pill,633,30,5,4,english,m,3,0.3,-10.62506754,1.60128914
5e38397719e44f0244389781,16,0,2024-02-28T14:21:06.404Z,english_799.wav,0,pill,633,30,5,4,english,m,4,0.4,6.33564747,0.01319764
5e38397719e44f0244389781,16,0,2024-02-28T14:21:06.404Z,english_799.wav,0,pill,633,30,5,4,english,m,5,0.5,90.41443979,1.72553046
5e38397719e44f0244389781,16,0,2024-02-28T14:21:06.404Z,english_799.wav,0,pill,633,30,5,4,english,m,6,0.6,-60.57880503,1.2547609
5e38397719e44f0244389781,16,0,2024-02-28T14:21:06.404Z,english_799.wav,0,pill,633,30,5,4,english,m,7,0.7,9.86229071,0.74830712
5e38397719e44f0244389781,16,0,2024-02-28T14:21:06.404Z,english_799.wav,0,pill,633,30,5,4,english,m,8,0.8,-45.57695026,0.71080767
5e38397719e44f0244389781,16,0,2024-02-28T14:21:06.404Z,english_799.wav,0,pill,633,30,5,4,english,m,9,0.9,4.80419962,0.83933205
5e38397719e44f0244389781,16,0,2024-02-28T14:21:06.404Z,english_799.wav,0,pill,633,30,5,4,english,m,10,1.0,49.35310044,0.24394342
5e38397719e44f0244389781,16,0,2024-02-28T14:21:06.404Z,english_799.wav,0,pill,633,30,5,4,english,m,11,1.09391667,82.63345718,0.9569793
5e38397719e44f0244389781,17,0,2024-02-28T14:21:06.404Z,english_90.wav,0,pill,295,30,5,4,english,m,0,0.0,63.54924995,1.34228215
5e38397719e44f0244389781,17,0,2024-02-28T14:21:06.404Z,english_90.wav,0,pill,295,30,5,4,english,m,1,0.1,-59.21327506,1.34732724
5e38397719e44f0244389781,17,0,2024-02-28T14:21:06.404Z,english_90.wav,0,pill,295,30,5,4,english,m,2,0.2,34.58495613,1.75147993
5e38397719e44f0244389781,17,0,2024-02-28T14:21:06.404Z,english_90.wav,0,pill,295,30,5,4,english,m,3,0.3,3.2427236,0.03089284
5e38397719e44f0244389781,17,0,2024-02-28T14:21:06.404Z,english_90.wav,0,pill,295,30,5,4,english,m,4,0.4,1.17936493,1.52341973
5e38397719e44f0244389781,17,0,2024-02-28T14:21:06.404Z,english_90.wav,0,pill,295,30,5,4,english,m,5,0.5,50.51297544,0.97925583
5e38397719e44f0244389781,17,0,2024-02-28T14:21:06.404Z,english_90.wav,0,pill,295,30,5,4,english,m,6,0.6,61.04656064,1.17642538
5e38397719e44f0244389781,17,0,2024-02-28T14:21:06.404Z,english_90.wav,0,pill,295,30,5,4,english,m,7,0.7,-96.36424089,1.13367306
5e38397719e44f0244389781,17,0,2024-02-28T14:21:06.404Z,english_90.wav,0,pill,295,30,5,4,english,m,8,0.8,9.94738881,1.45431282
5e38397719e44f0244389781,17,0,2024-02-28T14:21:06.404Z,english_90.wav,0,pill,295,30,5,4,english,m,9,0.9,-95.56108651,0.56738547
5e38397719e44f0244389781,17,0,2024-02-28T14:21:06.404Z,english_90.wav,0,pill,295,30,5,4,english,m,10,1.0,-78.91453265,1.10123663
5e38397719e44f0244389781,17,0,2024-02-28T14:21:06.404Z,english_90.wav,0,pill,295,30,5,4,english,m,11,1.09391667,57.06664979,0.76686745
5e38397719e44f0244389781,18,0,2024-02-28T14:21:06.404Z,english_574.wav,0,pill,768,30,5,4,english,m,0,0.0,30.16253717,0.985146
5e38397719e44f0244389781,18,0,2024-02-28T14:21:06.404Z,english_574.wav,0,pill,768,30,5,4,english,m,1,0.1,-51.87995618,1.53182158
5e38397719e44f0244389781,18,0,2024-02-28T14:21:06.404Z,english_574.wav,0,pill,768,30,5,4,english,m,2,0.2,24.46456732,1.42910062
5e38397719e44f0244389781,18,0,2024-02-28T14:21:06.404Z,english_574.wav,0,pill,768,30,5,4,english,m,3,0.3,-94.35752884,0.82906666
5e38397719e44f0244389781,18,0,2024-02-28T14:21:06.404Z,english_574.wav,0,pill,768,30,5,4,english,m,4,0.4,64.35841576,1.00783528
5e38397719e44f0244389781,18,0,2024-02-28T14:21:06.404Z,english_574.wav,0,pill,768,30,5,4,english,m,5,0.5,-49.28362763,1.2732344
5e38397719e44f0244389781,18,0,2024-02-28T14:21:06.404Z,english_574.wav,0,pill,768,30,5,4,english,m,6,0.6,14.18269939,1.27248482
5e38397719e44f0244389781,18,0,2024-02-28T14:21:06.404Z,english_574.wav,0,pill,768,30,5,4,english,m,7,0.7,-50.86809752,0.5240718
5e38397719e44f0244389781,18,0,2024-02-28T14:21:06.404Z,english_574.wav,0,pill,768,30,5,4,english,m,8,0.8,53.84502892,0.53991613
5e38397719e44f0244389781,18,0,2024-02-28T14:21:06.404Z,english_574.wav,0,pill,768,30,5,4,english,m,9,0.9,-66.65469805,0.74966761
5e38397719e44f0244389781,18,0,2024-02-28T14:21:06.404Z,english_574.wav,0,pill,768,30,5,4,english,m,10,1.0,-86.96769925,0.29132247
5e38397719e44f0244389781,18,0,2024-02-28T14:21:06.404Z,english_574.wav,0,pill,768,30,5,4,english,m,11,1.09391667,-53.07810136,0.5179051
5e38397719e44f0244389781,19,0,2024-02-28T14:21:06.404Z,english_50.wav,0,pill,872,30,5,4,english,m,0,0.0,-32.36494138,1.37054129
5e38397719e44f0244389781,19,0,2024-02-28T14:21:06.404Z,english_50.wav,0,pill,872,30,5,4,english,m,1,0.1,76.6244439,1.57215181
5e38397719e44f0244389781,19,0,2024-02-28T14:21:06.404Z,english_50.wav,0,pill,872,30,5,4,english,m,2,0.2,-16.62217643,1.07317842
5e38397719e44f0244389781,19,0,2024-02-28T14:21:06.404Z,english_50.wav,0,pill,872,30,5,4,english,m,3,0.3,63.40850527,0.82623857
5e38397719e44f0244389781,19,0,2024-02-28T14:21:06.404Z,english_50.wav,0,pill,872,30,5,4,english,m,4,0.4,68.81783594,0.72038729
5e38397719e44f0244389781,19,0,2024-02-28T14:21:06.404Z,english_50.wav,0,pill,872,30,5,4,english,m,5,0.5,-35.17384088,1.90936147
5e38397719e44f0244389781,19,0,2024-02-28T14:21:06.404Z,english_50.wav,0,pill,872,30,5,4,english,m,6,0.6,42.93688325,0.3744962
5e38397719e44f0244389781,19,0,2024-02-28T14:21:06.404Z,english_50.wav,0,pill,872,30,5,4,english,m,7,0.7,-82.21044816,0.69245834
5e38397719e44f0244389781,19,0,2024-02-28T14:21:06.404Z,english_50.wav,0,pill,872,30,5,4,english,m,8,0.8,-42.73245843,0.60585647
5e38397719e44f0244389781,19,0,2024-02-28T14:21:06.404Z,english_50.wav,0,pill,872,30,5,4,english,m,9,0.9,-3.13393134,1.24840552
5e38397719e44f0244389781,19,0,2024-02-28T14:21:06.404Z,english_50.wav,0,pill,872,30,5,4,english,m,10,1.0,-86.41078269,0.02488175
5e38397719e44f0244389781,19,0,2024-02-28T14:21:06.404Z,english_50.wav,0,pill,872,30,5,4,english,m,11,1.09391667,14.80187439,1.59728167
5e38397719e44f0244389781,20,0,2024-02-28T14:21:06.404Z,english_146.wav,0,pill,179,30,5,4,english,m,0,0.0,56.30698685,0.40218926
5e38397719e44f0244389781,20,0,2024-02-28T14:21:06.404Z,english_146.wav,0,pill,179,30,5,4,english,m,1,0.1,33.76808102,1.30498568
5e38397719e44f0244389781,20,0,2024-02-28T14:21:06.404Z,english_146.wav,0,pill,179,30,5,4,english,m,2,0.2,7.3416935,1.88518083
5e38397719e44f0244389781,20,0,2024-02-28T14:21:06.404Z,english_146.wav,0,pill,179,30,5,4,english,m,3,0.3,54.00115317,0.73939723
5e38397719e44f0244389781,20,0,2024-02-28T14:21:06.404Z,english_146.wav,0,pill,179,30,5,4,english,m,4,0.4,60.50079064,1.18416515
5e38397719e44f0244389781,20,0,2024-02-28T14:21:06.404Z,english_146.wav,0,pill,179,30,5,4,english,m,5,0.5,93.58064811,0.74397262
5e38397719e44f0244389781,20,0,2024-02-28T14:21:06.404Z,english_146.wav,0,pill,179,30,5,4,english,m,6,0.6,16.38414301,1.77833366
5e38397719e44f0244389781,20,0,2024-02-28T14:21:06.404Z,english_146.wav,0,pill,179,30,5,4,english,m,7,0.7,53.45076847,0.98273851
5e38397719e44f0244389781,20,0,2024-02-28T14:21:06.404Z,english_146.wav,0,pill,179,30,5,4,english,m,8,0.8,57.56482396,1.41119053
5e38397719e44f0244389781,20,0,2024-02-28T14:21:06.404Z,english_146.wav,0,pill,179,30,5,4,english,m,9,0.9,-28.26782972,0.90766435
5e38397719e44f0244389781,20,0,2024-02-28T14:21:06.404Z,english_146.wav,0,pill,179,30,5,4,english,m,10,1.0,79.66793606,0.33691203
5e38397719e44f0244389781,20,0,2024-02-28T14:21:06.404Z,english_146.wav,0,pill,179,30,5,4,english,m,11,1.09391667,23.81863578,1.86488134
5e38397719e44f0244389781,21,0,2024-02-28T14:21:06.404Z,english_335.wav,0,pill,245,30,5,4,english,m,0,0.0,41.80743468,1.01381682
5e38397719e44f0244389781,21,0,2024-02-28T14:21:06.404Z,english_335.wav,0,pill,245,30,5,4,english,m,1,0.1,-95.17376615,1.5620604
5e38397719e44f0244389781,21,0,2024-02-28T14:21:06.404Z,english_335.wav,0,pill,245,30,5,4,english,m,2,0.2,39.98208272,0.19265383
5e38397719e44f0244389781,21,0,2024-02-28T14:21:06.404Z,english_335.wav,0,pill,245,30,5,4,english,m,3,0.3,-46.35703256,1.42247653
5e38397719e44f0244389781,21,0,2024-02-28T14:21:06.404Z,english_335.wav,0,pill,245,30,5,4,english,m,4,0.4,24.82145544,0.70328136
5e38397719e44f0244389781,21,0,2024-02-28T14:21:06.404Z,english_335.wav,0,pill,245,30,5,4,english,m,5,0.5,-31.00133873,1.01966488
5e38397719e44f0244389781,21,0,2024-02-28T14:21:06.404Z,english_335.wav,0,pill,245,30,5,4,english,m,6,0.6,-26.38344945,1.23451824
5e38397719e44f0244389781,21,0,2024-02-28T14:21:06.404Z,english_335.wav,0,pill,245,30,5,4,english,m,7,0.7,86.60347,0.55082158
5e38397719e44f0244389781,21,0,2024-02-28T14:21:06.404Z,english_335.wav,0,pill,245,30,5,4,english,m,8,0.8,-70.37080157,0.451758
5e38397719e44f0244389781,21,0,2024-02-28T14:21:06.404Z,english_335.wav,0,pill,245,30,5,4,english,m,9,0.9,61.18063824,0.68398752
5e38397719e44f0244389781,21,0,2024-02-28T14:21:06.404Z,english_335.wav,0,pill,245,30,5,4,english,m,10,1.0,-30.21404124,0.79476381
5e38397719e44f0244389781,21,0,2024-02-28T14:21:06.404Z,english_335.wav,0,pill,245,30,5,4,english,m,11,1.09391667,-36.90555067,1.69556673
5e38397719e44f0244389781,22,0,2024-02-28T14:21:06.404Z,english_709.wav,0,peel,171,30,5,4,english,m,0,0.0,54.89445194,0.75029311
5e38397719e44f0244389781,22,0,2024-02-28T14:21:06.404Z,english_709.wav,0,peel,171,30,5,4,english,m,1,0.1,-13.90675493,1.75887389
5e38397719e44f0244389781,22,0,2024-02-28T14:21:06.404Z,english_709.wav,0,peel,171,30,5,4,english,m,2,0.2,17.54151592,1.84695168
5e38397719e44f0244389781,22,0,2024-02-28T14:21:06.404Z,english_709.wav,0,peel,171,30,5,4,english,m,3,0.3,-21.79257769,0.96071145
5e38397719e44f0244389781,22,0,2024-02-28T14:21:06.404Z,english_709.wav,0,peel,171,30,5,4,english,m,4,0.4,55.10787635,1.22566663
5e38397719e44f0244389781,22,0,2024-02-28T14:21:06.404Z,english_709.wav,0,peel,171,30,5,4,english,m,5,0.5,-57.13962404,1.94059393
5e38397719e44f0244389781,22,0,2024-02-28T14:21:06.404Z,english_709.wav,0,peel,171,30,5,4,english,m,6,0.6,-5.37289715,0.52219194
5e38397719e44f0244389781,22,0,2024-02-28T14:21:06.404Z,english_709.wav,0,peel,171,30,5,4,english,m,7,0.7,27.40236622,0.9142424
5e38397719e44f0244389781,22,0,2024-02-28T14:21:06.404Z,english_709.wav,0,peel,171,30,5,4,english,m,8,0.8,12.19670027,1.75067757
5e38397719e44f0244389781,22,0,2024-02-28T14:21:06.404Z,english_709.wav,0,peel,171,30,5,4,english,m,9,0.9,91.20271112,0.7385059
5e38397719e44f0244389781,22,0,2024-02-28T14:21:06.404Z,english_709.wav,0,peel,171,30,5,4,english,m,10,1.0,89.17036871,1.92412986
5e38397719e44f0244389781,22,0,2024-02-28T14:21:06.404Z,english_709.wav,0,peel,171,30,5,4,english,m,11,1.09391667,50.36439179,0.79240238
5e38397719e44f0244389781,23,0,2024-02-28T14:21:06.404Z,english_496.wav,0,pill,206,30,5,4,english,m,0,0.0,71.48836841,0.54791396
5e38397719e44f0244389781,23,0,2024-02-28T14:21:06.404Z,english_496.wav,0,pill,206,30,5,4,english,m,1,0.1,15.20852814,0.58485485
5e38397719e44f0244389781,23,0,2024-02-28T14:21:06.404Z,english_496.wav,0,pill,206,30,5,4,english,m,2,0.2,-96.44274776,0.36991182
5e38397719e44f0244389781,23,0,2024-02-28T14:21:06.404Z,english_496.wav,0,pill,206,30,5,4,english,m,3,0.3,-60.77213324,0.28046451
5e38397719e44f0244389781,23,0,2024-02-28T14:21:06.404Z,english_496.wav,0,pill,206,30,5,4,english,m,4,0.4,51.84358461,1.3513408
5e38397719e44f0244389781,23,0,2024-02-28T14:21:06.404Z,english_496.wav,0,pill,206,30,5,4,english,m,5,0.5,-29.81815899,0.81550086
5e38397719e44f0244389781,23,0,2024-02-28T14:21:06.404Z,english_496.wav,0,pill,206,30,5,4,english,m,6,0.6,68.78610252,1.72009229
5e38397719e44f0244389781,23,0,2024-02-28T14:21:06.404Z,english_496.wav,0,pill,206,30,5,4,english,m,7,0.7,-7.56844822,0.3057716
5e38397719e44f0244389781,23,0,2024-02-28T14:21:06.404Z,english_496.wav,0,pill,206,30,5,4,english,m,8,0.8,77.81323141,0.47124655
5e38397719e44f0244389781,23,0,2024-02-28T14:21:06.404Z,english_496.wav,0,pill,206,30,5,4,english,m,9,0.9,-20.60892305,1.72803136
5e38397719e44f0244389781,23,0,2024-02-28T14:21:06.404Z,english_496.wav,0,pill,206,30,5,4,english,m,10,1.0,-49.14310168,0.96978589
5e38397719e44f0244389781,23,0,2024-02-28T14:21:06.404Z,english_496.wav,0,pill,206,30,5,4,english,m,11,1.09391667,12.76376139,1.35172816
5e38397719e44f0244389781,24,0,2024-02-28T14:21:06.404Z,english_733.wav,0,peel,144,30,5,4,english,m,0,0.0,60.12911829,1.17715688
5e38397719e44f0244389781,24,0,2024-02-28T14:21:06.404Z,english_733.wav,0,peel,144,30,5,4,english,m,1,0.1,-6.07350544,0.73101999
5e38397719e44f0244389781,24,0,2024-02-28T14:21:06.404Z,english_733.wav,0,peel,144,30,5,4,english,m,2,0.2,-97.34447637,0.23762906
5e38397719e44f0244389781,24,0,2024-02-28T14:21:06.404Z,english_733.wav,0,peel,144,30,5,4,english,m,3,0.3,13.91289177,0.47801532
5e38397719e44f0244389781,24,0,2024-02-28T14:21:06.404Z,english_733.wav,0,peel,144,30,5,4,english,m,4,0.4,24.58615212,1.00660929
5e38397719e44f0244389781,24,0,2024-02-28T14:21:06.404Z,english_733.wav,0,peel,144,30,5,4,english,m,5,0.5,-0.46947401,0.69954151
5e38397719e44f0244389781,24,0,2024-02-28T14:21:06.404Z,english_733.wav,0,peel,144,30,5,4,english,m,6,0.6,-95.42432467,0.66296436
5e38397719e44f0244389781,24,0,2024-02-28T14:21:06.404Z,english_733.wav,0,peel,144,30,5,4,english,m,7,0.7,-12.42368325,0.8353001
5e38397719e44f0244389781,24,0,2024-02-28T14:21:06.404Z,english_733.wav,0,peel,144,30,5,4,english,m,8,0.8,-68.21201108,0.93210743
5e38397719e44f0244389781,24,0,2024-02-28T14:21:06.404Z,english_733.wav,0,peel,144,30,5,4,english,m,9,0.9,80.23434779,0.7426454
5e38397719e44f0244389781,24,0,2024-02-28T14:21:06.404Z,english_733.wav,0,peel,144,30,5,4,english,m,10,1.0,37.72859174,1.31979312
5e38397719e44f0244389781,24,0,2024-02-28T14:21:06.404Z,english_733.wav,0,peel,144,30,5,4,english,m,11,1.09391667,99.34819771,0.72211033
5e38397719e44f0244389781,25,0,2024-02-28T14:21:06.404Z,english_789.wav,0,peel,655,30,5,4,english,m,0,0.0,50.62849976,1.65376855
5e38397719e44f0244389781,25,0,2024-02-28T14:21:06.404Z,english_789.wav,0,peel,655,30,5,4,english,m,1,0.1,46.39641285,0.25516595
5e38397719e44f0244389781,25,0,2024-02-28T14:21:06.404Z,english_789.wav,0,peel,655,30,5,4,english,m,2,0.2,-17.70636983,1.77379995
5e38397719e44f0244389781,25,0,2024-02-28T14:21:06.404Z,english_789.wav,0,peel,655,30,5,4,english,m,3,0.3,-70.54012265,1.01588482
5e38397719e44f0244389781,25,0,2024-02-28T14:21:06.404Z,english_789.wav,0,peel,655,30,5,4,english,m,4,0.4,-41.61831808,0.40942594
5e38397719e44f0244389781,25,0,2024-02-28T14:21:06.404Z,english_789.wav,0,peel,655,30,5,4,english,m,5,0.5,6.76921547,0.77453827
5e38397719e44f0244389781,25,0,2024-02-28T14:21:06.404Z,english_789.wav,0,peel,655,30,5,4,english,m,6,0.6,-23.06076299,0.48985142
5e38397719e44f0244389781,25,0,2024-02-28T14:21:06.404Z,english_789.wav,0,peel,655,30,5,4,english,m,7,0.7,12.0616888,0.23736517
5e38397719e44f0244389781,25,0,2024-02-28T14:21:06.404Z,english_789.wav,0,peel,655,30,5,4,english,m,8,0.8,-0.46236059,1.96173919
5e38397719e44f0244389781,25,0,2024-02-28T14:21:06.404Z,english_789.wav,0,peel,655,30,5,4,english,m,9,0.9,1.32265195,1.17779465
5e38397719e44f0244389781,25,0,2024-02-28T14:21:06.404Z,english_789.wav,0,peel,655,30,5,4,english,m,10,1.0,-42.41851316,1.11577027
5e38397719e44f0244389781,25,0,2024-02-28T14:21:06.404Z,english_789.wav,0,peel,655,30,5,4,english,m,11,1.09391667,16.23009632,0.26104585
5e38397719e44f0244389781,26,0,2024-02-28T14:21:06.404Z,english_375.wav,0,pill,348,30,5,4,english,m,0,0.0,-66.54027977,1.30902013
5e38397719e44f0244389781,26,0,2024-02-28T14:21:06.404Z,english_375.wav,0,pill,348,30,5,4,english,m,1,0.1,72.08787066,1.77420651
5e38397719e44f0244389781,26,0,2024-02-28T14:21:06.404Z,english_375.wav,0,pill,348,30,5,4,english,m,2,0.2,-56.77584869,1.24550761
5e38397719e44f0244389781,26,0,2024-02-28T14:21:06.404Z,english_375.wav,0,pill,348,30,5,4,english,m,3,0.3,-36.97947012,0.68148521
5e38397719e44f0244389781,26,0,2024-02-28T14:21:06.404Z,english_375.wav,0,pill,348,30,5,4,english,m,4,0.4,43.73402827,1.5097978
5e38397719e44f0244389781,26,0,2024-02-28T14:21:06.404Z,english_375.wav,0,pill,348,30,5,4,english,m,5,0.5,19.53034116,0.87895003
5e38397719e44f0244389781,26,0,2024-02-28T14:21:06.404Z,english_375.wav,0,pill,348,30,5,4,english,m,6,0.6,-35.65016919,0.57287352
5e38397719e44f0244389781,26,0,2024-02-28T14:21:06.404Z,english_375.wav,0,pill,348,30,5,4,english,m,7,0.7,12.37356045,0.19847139
5e38397719e44f0244389781,26,0,2024-02-28T14:21:06.404Z,english_375.wav,0,pill,348,30,5,4,english,m,8,0.8,-24.97795402,1.57884859
5e38397719e44f0244389781,26,0,2024-02-28T14:21:06.404Z,english_375.wav,0,pill,348,30,5,4,english,m,9,0.9,57.77915604,1.32641243
5e38397719e44f0244389781,26,0,2024-02-28T14:21:06.404Z,english_375.wav,0,pill,348,30,5,4,english,m,10,1.0,-30.716589,0.36090675
5e38397719e44f0244389781,26,0,2024-02-28T14:21:06.404Z,english_375.wav,0,pill,348,30,5,4,english,m,11,1.09391667,78.48935482,1.90030926
5e38397719e44f0244389781,27,0,2024-02-28T14:21:06.404Z,english_81.wav,0,pill,871,30,5,4,english,m,0,0.0,71.09666265,1.09569192
5e38397719e44f0244389781,27,0,2024-02-28T14:21:06.404Z,english_81.wav,0,pill,871,30,5,4,english,m,1,0.1,-38.93956525,1.65684188
5e38397719e44f0244389781,27,0,2024-02-28T14:21:06.404Z,english_81.wav,0,pill,871,30,5,4,english,m,2,0.2,-48.61950395,0.44216952
5e38397719e44f0244389781,27,0,2024-02-28T14:21:06.404Z,english_81.wav,0,pill,871,30,5,4,english,m,3,0.3,33.39514041,1.72758961
5e38397719e44f0244389781,27,0,2024-02-28T14:21:06.404Z,english_81.wav,0,pill,871,30,5,4,english,m,4,0.4,18.24180048,1.46257927
5e38397719e44f0244389781,27,0,2024-02-28T14:21:06.404Z,english_81.wav,0,pill,871,30,5,4,english,m,5,0.5,-45.85953695,1.53730542
5e38397719e44f0244389781,27,0,2024-02-28T14:21:06.404Z,english_81.wav,0,pill,871,30,5,4,english,m,6,0.6,-0.32699599,1.28818555
5e38397719e44f0244389781,27,0,2024-02-28T14:21:06.404Z,english_81.wav,0,pill,871,30,5,4,english,m,7,0.7,-32.78716597,1.19414744
5e38397719e44f0244389781,27,0,2024-02-28T14:21:06.404Z,english_81.wav,0,pill,871,30,5,4,english,m,8,0.8,-37.9267269,1.01923165
5e38397719e44f0244389781,27,0,2024-02-28T14:21:06.404Z,english_81.wav,0,pill,871,30,5,4,english,m,9,0.9,24.21331247,1.67441048
5e38397719e44f0244389781,27,0,2024-02-28T14:21:06.404Z,english_81.wav,0,pill,871,30,5,4,english,m,10,1.0,-31.33871225,1.88948336
5e38397719e44f0244389781,27,0,2024-02-28T14:21:06.404Z,english_81.wav,0,pill,871,30,5,4,english,m,11,1.09391667,-77.74283174,1.81428343
5e38397719e44f0244389781,28,0,2024-02-28T14:21:06.404Z,english_679.wav,0,pill,230,30,5,4,english,m,0,0.0,76.35427363,0.61802324
5e38397719e44f0244389781,28,0,2024-02-28T14:21:06.404Z,english_679.wav,0,pill,230,30,5,4,english,m,1,0.1,-50.0846889,0.37453971
5e38397719e44f0244389781,28,0,2024-02-28T14:21:06.404Z,english_679.wav,0,pill,230,30,5,4,english,m,2,0.2,79.70250944,0.85876035
5e38397719e44f0244389781,28,0,2024-02-28T14:21:06.404Z,english_679.wav,0,pill,230,30,5,4,english,m,3,0.3,81.01080403,1.8566793
5e38397719e44f0244389781,28,0,2024-02-28T14:21:06.404Z,english_679.wav,0,pill,230,30,5,4,english,m,4,0.4,83.79560208,1.28706844
5e38397719e44f0244389781,28,0,2024-02-28T14:21:06.404Z,english_679.wav,0,pill,230,30,5,4,english,m,5,0.5,50.36804925,1.04354471
5e38397719e44f0244389781,28,0,2024-02-28T14:21:06.404Z,english_679.wav,0,pill,230,30,5,4,english,m,6,0.6,40.56025904,1.21986253
5e38397719e44f0244389781,28,0,2024-02-28T14:21:06.404Z,english_679.wav,0,pill,230,30,5,4,english,m,7,0.7,61.04999163,0.6187735
5e38397719e44f0244389781,28,0,2024-02-28T14:21:06.404Z,english_679.wav,0,pill,230,30,5,4,english,m,8,0.8,30.26013895,1.74062644
5e38397719e44f0244389781,28,0,2024-02-28T14:21:06.404Z,english_679.wav,0,pill,230,30,5,4,english,m,9,0.9,-2.00132525,0.86694999
5e38397719e44f0244389781,28,0,2024-02-28T14:21:06.404Z,english_679.wav,0,pill,230,30,5,4,english,m,10,1.0,61.28738914,1.26165824
5e38397719e44f0244389781,28,0,2024-02-28T14:21:06.404Z,english_679.wav,0,pill,230,30,5,4,english,m,11,1.09391667,-32.08611222,0.66731925
5e38397719e44f0244389781,29,0,2024-02-28T14:21:06.404Z,english_218.wav,0,peel,741,30,5,4,english,m,0,0.0,-28.20463256,0.06975638
5e38397719e44f0244389781,29,0,2024-02-28T14:21:06.404Z,english_218.wav,0,peel,741,30,5,4,english,m,1,0.1,-75.86656262,1.24902799
5e38397719e44f0244389781,29,0,2024-02-28T14:21:06.404Z,english_218.wav,0,peel,741,30,5,4,english,m,2,0.2,78.51568347,0.38757705
5e38397719e44f0244389781,29,0,2024-02-28T14:21:06.404Z,english_218.wav,0,peel,741,30,5,4,english,m,3,0.3,-67.19866651,1.18680549
5e38397719e44f0244389781,29,0,2024-02-28T14:21:06.404Z,english_218.wav,0,peel,741,30,5,4,english,m,4,0.4,-11.47483433,1.20454768
5e38397719e44f0244389781,29,0,2024-02-28T14:21:06.404Z,english_218.wav,0,peel,741,30,5,4,english,m,5,0.5,-96.34493339,0.70131962
5e38397719e44f0244389781,29,0,2024-02-28T14:21:06.404Z,english_218.wav,0,peel,741,30,5,4,english,m,6,0.6,71.58709959,0.25791663
5e38397719e44f0244389781,29,0,2024-02-28T14:21:06.404Z,english_218.wav,0,peel,741,30,5,4,english,m,7,0.7,-9.8928997,0.10961417
5e38397719e44f0244389781,29,0,2024-02-28T14:21:06.404Z,english_218.wav,0,peel,741,30,5,4,english,m,8,0.8,-1.71040265,1.17923692
5e38397719e44f0244389781,29,0,2024-02-28T14:21:06.404Z,english_218.wav,0,peel,741,30,5,4,english,m,9,0.9,46.05003014,0.25195767
5e38397719e44f0244389781,29,0,2024-02-28T14:21:06.404Z,english_218.wav,0,peel,741,30,5,4,english,m,10,1.0,-54.51031069,1.75432787
5e38397719e44f0244389781,29,0,2024-02-28T14:21:06.404Z,english_218.wav,0,peel,741,30,5,4,english,m,11,1.09391667,-36.41626056,1.27588471
5e38397719e44f0244389781,30,0,2024-02-28T14:21:06.404Z,english_216.wav,0,peel,397,30,5,4,english,m,0,0.0,-40.27379603,1.31885312
5e38397719e44f0244389781,30,0,2024-02-28T14:21:06.404Z,english_216.wav,0,peel,397,30,5,4,english,m,1,0.1,-9.47472605,1.52413536
5e38397719e44f0244389781,30,0,2024-02-28T14:21:06.404Z,english_216.wav,0,peel,397,30,5,4,english,m,2,0.2,10.83044308,0.3375517
5e38397719e44f0244389781,30,0,2024-02-28T14:21:06.404Z,english_216.wav,0,peel,397,30,5,4,english,m,3,0.3,-73.80571365,0.67857864
5e38397719e44f0244389781,30,0,2024-02-28T14:21:06.404Z,english_216.wav,0,peel,397,30,5,4,english,m,4,0.4,41.89217051,0.9344087
5e38397719e44f0244389781,30,0,2024-02-28T14:21:06.404Z,english_216.wav,0,peel,397,30,5,4,english,m,5,0.5,-33.36366466,0.89775046
5e38397719e44f0244389781,30,0,2024-02-28T14:21:06.404Z,english_216.wav,0,peel,397,30,5,4,english,m,6,0.6,-97.24072999,0.74652634
5e38397719e44f0244389781,30,0,2024-02-28T14:21:06.404Z,english_216.wav,0,peel,397,30,5,4,english,m,7,0.7,-3.36916359,0.00621512
5e38397719e44f0244389781,30,0,2024-02-28T14:21:06.404Z,english_216.wav,0,peel,397,30,5,4,english,m,8,0.8,-1.27566838,0.72729094
5e38397719e44f0244389781,30,0,2024-02-28T14:21:06.404Z,english_216.wav,0,peel,397,30,5,4,english,m,9,0.9,29.4346129,1.23180128
5e38397719e44f0244389781,30,0,2024-02-28T14:21:06.404Z,english_216.wav,0,peel,397,30,5,4,english,m,10,1.0,96.31719875,0.44193416
5e38397719e44f0244389781,30,0,2024-02-28T14:21:06.404Z,english_216.wav,0,peel,397,30,5,4,english,m,11,1.09391667,90.69441865,0.08230135
5e38397719e44f0244389781,31,0,2024-02-28T14:21:06.404Z,english_705.wav,0,pill,772,30,5,4,english,m,0,0.0,94.0253211,0.90857368
5e38397719e44f0244389781,31,0,2024-02-28T14:21:06.404Z,english_705.wav,0,pill,772,30,5,4,english,m,1,0.1,-84.5444617,1.76203374
5e38397719e44f0244389781,31,0,2024-02-28T14:21:06.404Z,english_705.wav,0,pill,772,30,5,4,english,m,2,0.2,70.19977298,0.0745524
5e38397719e44f0244389781,31,0,2024-02-28T14:21:06.404Z,english_705.wav,0,pill,772,30,5,4,english,m,3,0.3,2.19370509,1.11616576
5e38397719e44f0244389781,31,0,2024-02-28T14:21:06.404Z,english_705.wav,0,pill,772,30,5,4,english,m,4,0.4,-19.63697013,0.64300797
5e38397719e44f0244389781,31,0,2024-02-28T14:21:06.404Z,english_705.wav,0,pill,772,30,5,4,english,m,5,0.5,-84.4931522,1.25671361
5e38397719e44f0244389781,31,0,2024-02-28T14:21:06.404Z,english_705.wav,0,pill,772,30,5,4,english,m,6,0.6,-85.03717111,0.57308662
5e38397719e44f0244389781,31,0,2024-02-28T14:21:06.404Z,english_705.wav,0,pill,772,30,5,4,english,m,7,0.7,-41.91445316,1.15914167
5e38397719e44f0244389781,31,0,2024-02-28T14:21:06.404Z,english_705.wav,0,pill,772,30,5,4,english,m,8,0.8,84.41486289,1.00421815
5e38397719e44f0244389781,31,0,2024-02-28T14:21:06.404Z,english_705.wav,0,pill,772,30,5,4,english,m,9,0.9,18.1621282,0.6158783
5e38397719e44f0244389781,31,0,2024-02-28T14:21:06.404Z,english_705.wav,0,pill,772,30,5,4,english,m,10,1.0,14.92247564,1.53499835
5e38397719e44f0244389781,31,0,2024-02-28T14:21:06.404Z,english_705.wav,0,pill,772,30,5,4,english,m,11,1.09391667,8.36562591,1.78270824
5e38397719e44f0244389781,32,0,2024-02-28T14:21:06.404Z,english_726.wav,0,pill,342,30,5,4,english,m,0,0.0,23.35137092,0.15397845
5e38397719e44f0244389781,32,0,2024-02-28T14:21:06.404Z,english_726.wav,0,pill,342,30,5,4,english,m,1,0.1,76.34325819,1.80908671
5e38397719e44f0244389781,32,0,2024-02-28T14:21:06.404Z,english_726.wav,0,pill,342,30,5,4,english,m,2,0.2,77.87153215,0.91237222
5e38397719e44f0244389781,32,0,2024-02-28T14:21:06.404Z,english_726.wav,0,pill,342,30,5,4,english,m,3,0.3,45.89033074,0.3916486
5e38397719e44f0244389781,32,0,2024-02-28T14:21:06.404Z,english_726.wav,0,pill,342,30,5,4,english,m,4,0.4,-92.46008591,1.60354114
5e38397719e44f0244389781,32,0,2024-02-28T14:21:06.404Z,english_726.wav,0,pill,342,30,5,4,english,m,5,0.5,-89.27810563,0.90173572
5e38397719e44f0244389781,32,0,2024-02-28T14:21:06.404Z,english_726.wav,0,pill,342,30,5,4,english,m,6,0.6,61.30206765,1.86939155
5e38397719e44f0244389781,32,0,2024-02-28T14:21:06.404Z,english_726.wav,0,pill,342,30,5,4,english,m,7,0.7,68.07705407,0.57523975
5e38397719e44f0244389781,32,0,2024-02-28T14:21:06.404Z,english_726.wav,0,pill,342,30,5,4,english,m,8,0.8,47.81218941,0.88835081
5e38397719e44f0244389781,32,0,2024-02-28T14:21:06.404Z,english_726.wav,0,pill,342,30,5,4,english,m,9,0.9,85.67647673,0.33175344
5e38397719e44f0244389781,32,0,2024-02-28T14:21:06.404Z,english_726.wav,0,pill,342,30,5,4,english,m,10,1.0,69.08166842,0.8335266
5e38397719e44f0244389781,32,0,2024-02-28T14:21:06.404Z,english_726.wav,0,pill,342,30,5,4,english,m,11,1.09391667,71.61978118,0.36613886
5e38397719e44f0244389781,33,0,2024-02-28T14:21:06.404Z,english_462.wav,0,pill,1236,30,5,4,english,m,0,0.0,78.76621738,0.83121963
5e38397719e44f0244389781,33,0,2024-02-28T14:21:06.404Z,english_462.wav,0,pill,1236,30,5,4,english,m,1,0.1,31.47495931,1.43506309
5e38397719e44f0244389781,33,0,2024-02-28T14:21:06.404Z,english_462.wav,0,pill,1236,30,5,4,english,m,2,0.2,-13.74936046,0.97721307
5e38397719e44f0244389781,33,0,2024-02-28T14:21:06.404Z,english_462.wav,0,pill,1236,30,5,4,english,m,3,0.3,-80.17251448,0.92562125
5e38397719e44f0244389781,33,0,2024-02-28T14:21:06.404Z,english_462.wav,0,pill,1236,30,5,4,english,m,4,0.4,-78.67939132,0.04016866
5e38397719e44f0244389781,33,0,2024-02-28T14:21:06.404Z,english_462.wav,0,pill,1236,30,5,4,english,m,5,0.5,43.51355655,0.46288791
5e38397719e44f0244389781,33,0,2024-02-28T14:21:06.404Z,english_462.wav,0,pill,1236,30,5,4,english,m,6,0.6,3.64631971,1.76703425
5e38397719e44f0244389781,33,0,2024-02-28T14:21:06.404Z,english_462.wav,0,pill,1236,30,5,4,english,m,7,0.7,-45.69022839,1.40353438
5e38397719e44f0244389781,33,0,2024-02-28T14:21:06.404Z,english_462.wav,0,pill,1236,30,5,4,english,m,8,0.8,-12.47954209,0.01443424
5e38397719e44f0244389781,33,0,2024-02-28T14:21:06.404Z,english_462.wav,0,pill,1236,30,5,4,english,m,9,0.9,-13.33411056,0.75223744
5e38397719e44f0244389781,33,0,2024-02-28T14:21:06.404Z,english_462.wav,0,pill,1236,30,5,4,english,m,10,1.0,14.72637348,0.69611535
5e38397719e44f0244389781,33,0,2024-02-28T14:21:06.404Z,english_462.wav,0,pill,1236,30,5,4,english,m,11,1.09391667,-47.88617719,0.81633503
5e38397719e44f0244389781,34,0,2024-02-28T14:21:06.404Z,english_907.wav,0,pill,146,30,5,4,english,m,0,0.0,-53.3100291,1.09242223
5e38397719e44f0244389781,34,0,2024-02-28T14:21:06.404Z,english_907.wav,0,pill,146,30,5,4,english,m,1,0.1,4.68553811,1.36905488
5e38397719e44f0244389781,34,0,2024-02-28T14:21:06.404Z,english_907.wav,0,pill,146,30,5,4,english,m,2,0.2,30.1589282,0.80069783
5e38397719e44f0244389781,34,0,2024-02-28T14:21:06.404Z,english_907.wav,0,pill,146,30,5,4,english,m,3,0.3,11.7494605,1.02399961
5e38397719e44f0244389781,34,0,2024-02-28T14:21:06.404Z,english_907.wav,0,pill,146,30,5,4,english,m,4,0.4,14.6843787,1.6109915
5e38397719e44f0244389781,34,0,2024-02-28T14:21:06.404Z,english_907.wav,0,pill,146,30,5,4,english,m,5,0.5,0.0551600348,0.4113542
5e38397719e44f0244389781,34,0,2024-02-28T14:21:06.404Z,english_907.wav,0,pill,146,30,5,4,english,m,6,0.6,21.8487989,1.88718243
5e38397719e44f0244389781,34,0,2024-02-28T14:21:06.404Z,english_907.wav,0,pill,146,30,5,4,english,m,7,0.7,0.876146135,1.82050398
5e38397719e44f0244389781,34,0,2024-02-28T14:21:06.404Z,english_907.wav,0,pill,146,30,5,4,english,m,8,0.8,57.0084802,0.47994227
5e38397719e44f0244389781,34,0,2024-02-28T14:21:06.404Z,english_907.wav,0,pill,146,30,5,4,english,m,9,0.9,5.30429591,1.40201797
5e38397719e44f0244389781,34,0,2024-02-28T14:21:06.404Z,english_907.wav,0,pill,146,30,5,4,english,m,10,1.0,17.8166491,1.67172578
5e38397719e44f0244389781,34,0,2024-02-28T14:21:06.404Z,english_907.wav,0,pill,146,30,5,4,english,m,11,1.09391667,-29.3939822,0.75533172
5e38397719e44f0244389781,35,0,2024-02-28T14:21:06.404Z,english_980.wav,0,pill,708,30,5,4,english,m,0,0.0,-89.21120638,0.86013949
5e38397719e44f0244389781,35,0,2024-02-28T14:21:06.404Z,english_980.wav,0,pill,708,30,5,4,english,m,1,0.1,-61.94586113,1.20415769
5e38397719e44f0244389781,35,0,2024-02-28T14:21:06.404Z,english_980.wav,0,pill,708,30,5,4,english,m,2,0.2,66.92224931,1.12519254
5e38397719e44f0244389781,35,0,2024-02-28T14:21:06.404Z,english_980.wav,0,pill,708,30,5,4,english,m,3,0.3,-8.83169244,1.93563119
5e38397719e44f0244389781,35,0,2024-02-28T14:21:06.404Z,english_980.wav,0,pill,708,30,5,4,english,m,4,0.4,-62.26224073,1.36290277
5e38397719e44f0244389781,35,0,2024-02-28T14:21:06.404Z,english_980.wav,0,pill,708,30,5,4,english,m,5,0.5,-40.69471865,0.31823405
5e38397719e44f0244389781,35,0,2024-02-28T14:21:06.404Z,english_980.wav,0,pill,708,30,5,4,english,m,6,0.6,-55.09323572,1.64522851
5e38397719e44f0244389781,35,0,2024-02-28T14:21:06.404Z,english_980.wav,0,pill,708,30,5,4,english,m,7,0.7,-85.76938639,0.41705872
5e38397719e44f0244389781,35,0,2024-02-28T14:21:06.404Z,english_980.wav,0,pill,708,30,5,4,english,m,8,0.8,-61.73931362,0.77550812
5e38397719e44f0244389781,35,0,2024-02-28T14:21:06.404Z,english_980.wav,0,pill,708,30,5,4,english,m,9,0.9,29.10621895,0.71060598
5e38397719e44f0244389781,35,0,2024-02-28T14:21:06.404Z,english_980.wav,0,pill,708,30,5,4,english,m,10,1.0,-54.92010394,0.25781542
5e38397719e44f0244389781,35,0,2024-02-28T14:21:06.404Z,english_980.wav,0,pill,708,30,5,4,english,m,11,1.09391667,-99.59524777,0.26651543
5e38397719e44f0244389781,36,0,2024-02-28T14:21:06.404Z,english_7.wav,0,pill,360,30,5,4,english,m,0,0.0,6.20403874,1.30974385
5e38397719e44f0244389781,36,0,2024-02-28T14:21:06.404Z,english_7.wav,0,pill,360,30,5,4,english,m,1,0.1,37.19731147,0.99661129
5e38397719e44f0244389781,36,0,2024-02-28T14:21:06.404Z,english_7.wav,0,pill,360,30,5,4,english,m,2,0.2,49.31472848,1.03745865
5e38397719e44f0244389781,36,0,2024-02-28T14:21:06.404Z,english_7.wav,0,pill,360,30,5,4,english,m,3,0.3,-90.70180435,1.78258145
5e38397719e44f0244389781,36,0,2024-02-28T14:21:06.404Z,english_7.wav,0,pill,360,30,5,4,english,m,4,0.4,27.47473692,0.46239098
5e38397719e44f0244389781,36,0,2024-02-28T14:21:06.404Z,english_7.wav,0,pill,360,30,5,4,english,m,5,0.5,15.65561706,1.16284284
5e38397719e44f0244389781,36,0,2024-02-28T14:21:06.404Z,english_7.wav,0,pill,360,30,5,4,english,m,6,0.6,67.99861593,0.54440065
5e38397719e44f0244389781,36,0,2024-02-28T14:21:06.404Z,english_7.wav,0,pill,360,30,5,4,english,m,7,0.7,-2.80792886,0.65589639
5e38397719e44f0244389781,36,0,2024-02-28T14:21:06.404Z,english_7.wav,0,pill,360,30,5,4,english,m,8,0.8,-17.20995774,0.81804206
5e38397719e44f0244389781,36,0,2024-02-28T14:21:06.404Z,english_7.wav,0,pill,360,30,5,4,english,m,9,0.9,38.34852693,0.8839338
5e38397719e44f0244389781,36,0,2024-02-28T14:21:06.404Z,english_7.wav,0,pill,360,30,5,4,english,m,10,1.0,6.34291962,0.72265374
5e38397719e44f0244389781,36,0,2024-02-28T14:21:06.404Z,english_7.wav,0,pill,360,30,5,4,english,m,11,1.09391667,-45.85734326,0.75155419
5e38397719e44f0244389781,37,0,2024-02-28T14:21:06.404Z,english_829.wav,0,pill,241,30,5,4,english,m,0,0.0,-7.89955856,0.852516
5e38397719e44f0244389781,37,0,2024-02-28T14:21:06.404Z,english_829.wav,0,pill,241,30,5,4,english,m,1,0.1,-18.01769042,0.97788956
5e38397719e44f0244389781,37,0,2024-02-28T14:21:06.404Z,english_829.wav,0,pill,241,30,5,4,english,m,2,0.2,57.48418942,1.32810397
5e38397719e44f0244389781,37,0,2024-02-28T14:21:06.404Z,english_829.wav,0,pill,241,30,5,4,english,m,3,0.3,41.9687918,0.18108064
5e38397719e44f0244389781,37,0,2024-02-28T14:21:06.404Z,english_829.wav,0,pill,241,30,5,4,english,m,4,0.4,-61.64702177,0.15705118
5e38397719e44f0244389781,37,0,2024-02-28T14:21:06.404Z,english_829.wav,0,pill,241,30,5,4,english,m,5,0.5,-20.29007911,0.66571436
5e38397719e44f0244389781,37,0,2024-02-28T14:21:06.404Z,english_829.wav,0,pill,241,30,5,4,english,m,6,0.6,93.24496902,0.20869504
5e38397719e44f0244389781,37,0,2024-02-28T14:21:06.404Z,english_829.wav,0,pill,241,30,5,4,english,m,7,0.7,-32.99482484,1.27621492
5e38397719e44f0244389781,37,0,2024-02-28T14:21:06.404Z,english_829.wav,0,pill,241,30,5,4,english,m,8,0.8,6.59233546,1.10768251
5e38397719e44f0244389781,37,0,2024-02-28T14:21:06.404Z,english_829.wav,0,pill,241,30,5,4,english,m,9,0.9,-90.87646181,1.10361444
5e38397719e44f0244389781,37,0,2024-02-28T14:21:06.404Z,english_829.wav,0,pill,241,30,5,4,english,m,10,1.0,9.72736643,0.98320382
5e38397719e44f0244389781,37,0,2024-02-28T14:21:06.404Z,english_829.wav,0,pill,241,30,5,4,english,m,11,1.09391667,-11.26207351,1.01672444
5e38397719e44f0244389781,38,0,2024-02-28T14:21:06.404Z,english_663.wav,0,pill,626,30,5,4,english,m,0,0.0,25.59053478,1.78737857
5e38397719e44f0244389781,38,0,2024-02-28T14:21:06.404Z,english_663.wav,0,pill,626,30,5,4,english,m,1,0.1,-58.99857374,1.42240818
5e38397719e44f0244389781,38,0,2024-02-28T14:21:06.404Z,english_663.wav,0,pill,626,30,5,4,english,m,2,0.2,-5.24989333,1.3064588
5e38397719e44f0244389781,38,0,2024-02-28T14:21:06.404Z,english_663.wav,0,pill,626,30,5,4,english,m,3,0.3,-69.09303088,0.70237579
5e38397719e44f0244389781,38,0,2024-02-28T14:21:06.404Z,english_663.wav,0,pill,626,30,5,4,english,m,4,0.4,-45.4002244,1.46111329
5e38397719e44f0244389781,38,0,2024-02-28T14:21:06.404Z,english_663.wav,0,pill,626,30,5,4,english,m,5,0.5,-34.03427643,0.83880831
5e38397719e44f0244389781,38,0,2024-02-28T14:21:06.404Z,english_663.wav,0,pill,626,30,5,4,english,m,6,0.6,-19.18804463,1.08172691
5e38397719e44f0244389781,38,0,2024-02-28T14:21:06.404Z,english_663.wav,0,pill,626,30,5,4,english,m,7,0.7,-64.51254164,1.55901958
5e38397719e44f0244389781,38,0,2024-02-28T14:21:06.404Z,english_663.wav,0,pill,626,30,5,4,english,m,8,0.8,54.38008437,0.76271714
5e38397719e44f0244389781,38,0,2024-02-28T14:21:06.404Z,english_663.wav,0,pill,626,30,5,4,english,m,9,0.9,-75.85045717,1.07438518
5e38397719e44f0244389781,38,0,2024-02-28T14:21:06.404Z,english_663.wav,0,pill,626,30,5,4,english,m,10,1.0,38.1526186,1.50748802
5e38397719e44f0244389781,38,0,2024-02-28T14:21:06.404Z,english_663.wav,0,pill,626,30,5,4,english,m,11,1.09391667,60.1980267,1.3123631
5e38397719e44f0244389781,39,0,2024-02-28T14:21:06.404Z,english_995.wav,0,peel,216,30,5,4,english,m,0,0.0,97.76656521,1.90640997
5e38397719e44f0244389781,39,0,2024-02-28T14:21:06.404Z,english_995.wav,0,peel,216,30,5,4,english,m,1,0.1,10.72921102,1.35752142
5e38397719e44f0244389781,39,0,2024-02-28T14:21:06.404Z,english_995.wav,0,peel,216,30,5,4,english,m,2,0.2,-74.90567645,0.0677959
5e38397719e44f0244389781,39,0,2024-02-28T14:21:06.404Z,english_995.wav,0,peel,216,30,5,4,english,m,3,0.3,77.17787297,0.2303181
5e38397719e44f0244389781,39,0,2024-02-28T14:21:06.404Z,english_995.wav,0,peel,216,30,5,4,english,m,4,0.4,-65.98328726,1.9496567
5e38397719e44f0244389781,39,0,2024-02-28T14:21:06.404Z,english_995.wav,0,peel,216,30,5,4,english,m,5,0.5,3.50056795,1.06158527
5e38397719e44f0244389781,39,0,2024-02-28T14:21:06.404Z,english_995.wav,0,peel,216,30,5,4,english,m,6,0.6,-48.42786785,0.86919942
5e38397719e44f0244389781,39,0,2024-02-28T14:21:06.404Z,english_995.wav,0,peel,216,30,5,4,english,m,7,0.7,47.72819133,1.60426058
5e38397719e44f0244389781,39,0,2024-02-28T14:21:06.404Z,english_995.wav,0,peel,216,30,5,4,english,m,8,0.8,14.30124411,1.52102104
5e38397719e44f0244389781,39,0,2024-02-28T14:21:06.404Z,english_995.wav,0,peel,216,30,5,4,english,m,9,0.9,-92.38663664,0.17733005
5e38397719e44f0244389781,39,0,2024-02-28T14:21:06.404Z,english_995.wav,0,peel,216,30,5,4,english,m,10,1.0,33.04960477,1.36413464
5e38397719e44f0244389781,39,0,2024-02-28T14:21:06.404Z,english_995.wav,0,peel,216,30,5,4,english,m,11,1.09391667,16.88553352,0.78541069
5e38397719e44f0244389781,40,0,2024-02-28T14:21:06.404Z,english_771.wav,0,peel,479,30,5,4,english,m,0,0.0,-36.50619676,0.84712365
5e38397719e44f0244389781,40,0,2024-02-28T14:21:06.404Z,english_771.wav,0,peel,479,30,5,4,english,m,1,0.1,14.7541205,1.2125626
5e38397719e44f0244389781,40,0,2024-02-28T14:21:06.404Z,english_771.wav,0,peel,479,30,5,4,english,m,2,0.2,-52.38540711,1.26925878
5e38397719e44f0244389781,40,0,2024-02-28T14:21:06.404Z,english_771.wav,0,peel,479,30,5,4,english,m,3,0.3,-44.85491202,0.42277432
5e38397719e44f0244389781,40,0,2024-02-28T14:21:06.404Z,english_771.wav,0,peel,479,30,5,4,english,m,4,0.4,-95.75173067,1.76146367
5e38397719e44f0244389781,40,0,2024-02-28T14:21:06.404Z,english_771.wav,0,peel,479,30,5,4,english,m,5,0.5,80.62781484,1.97802023
5e38397719e44f0244389781,40,0,2024-02-28T14:21:06.404Z,english_771.wav,0,peel,479,30,5,4,english,m,6,0.6,73.74351295,1.00927999
5e38397719e44f0244389781,40,0,2024-02-28T14:21:06.404Z,english_771.wav,0,peel,479,30,5,4,english,m,7,0.7,-36.03140148,0.74378616
5e38397719e44f0244389781,40,0,2024-02-28T14:21:06.404Z,english_771.wav,0,peel,479,30,5,4,english,m,8,0.8,-29.08842157,1.61654752
5e38397719e44f0244389781,40,0,2024-02-28T14:21:06.404Z,english_771.wav,0,peel,479,30,5,4,english,m,9,0.9,81.37771219,0.74494496
5e38397719e44f0244389781,40,0,2024-02-28T14:21:06.404Z,english_771.wav,0,peel,479,30,5,4,english,m,10,1.0,2.32979024,0.15244903
5e38397719e44f0244389781,40,0,2024-02-28T14:21:06.404Z,english_771.wav,0,peel,479,30,5,4,english,m,11,1.09391667,-15.5068463,0.47232317
5e38397719e44f0244389781,41,0,2024-02-28T14:21:06.404Z,english_77.wav,0,peel,232,30,5,4,english,m,0,0.0,14.85901356,0.93801636
5e38397719e44f0244389781,41,0,2024-02-28T14:21:06.404Z,english_77.wav,0,peel,232,30,5,4,english,m,1,0.1,-14.38598058,1.78480039
5e38397719e44f0244389781,41,0,2024-02-28T14:21:06.404Z,english_77.wav,0,peel,232,30,5,4,english,m,2,0.2,-43.69728494,1.59819809
5e38397719e44f0244389781,41,0,2024-02-28T14:21:06.404Z,english_77.wav,0,peel,232,30,5,4,english,m,3,0.3,-19.24854373,0.89560743
5e38397719e44f0244389781,41,0,2024-02-28T14:21:06.404Z,english_77.wav,0,peel,232,30,5,4,english,m,4,0.4,4.73942442,0.68128783
5e38397719e44f0244389781,41,0,2024-02-28T14:21:06.404Z,english_77.wav,0,peel,232,30,5,4,english,m,5,0.5,6.08734895,1.19225119
5e38397719e44f0244389781,41,0,2024-02-28T14:21:06.404Z,english_77.wav,0,peel,232,30,5,4,english,m,6,0.6,2.07981921,1.49267812
5e38397719e44f0244389781,41,0,2024-02-28T14:21:06.404Z,english_77.wav,0,peel,232,30,5,4,english,m,7,0.7,-3.22152689,1.83354621
5e38397719e44f0244389781,41,0,2024-02-28T14:21:06.404Z,english_77.wav,0,peel,232,30,5,4,english,m,8,0.8,-81.97912938,0.65715704
5e38397719e44f0244389781,41,0,2024-02-28T14:21:06.404Z,english_77.wav,0,peel,232,30,5,4,english,m,9,0.9,9.14807536,1.29592629
5e38397719e44f0244389781,41,0,2024-02-28T14:21:06.404Z,english_77.wav,0,peel,232,30,5,4,english,m,10,1.0,-30.52937586,1.03409297
5e38397719e44f0244389781,41,0,2024-02-28T14:21:06.404Z,english_77.wav,0,peel,232,30,5,4,english,m,11,1.09391667,17.14336326,1.45456337
5e38397719e44f0244389781,42,0,2024-02-28T14:21:06.404Z,english_109.wav,0,peel,321,30,5,4,english,m,0,0.0,-85.35755776,0.86429356
5e38397719e44f0244389781,42,0,2024-02-28T14:21:06.404Z,english_109.wav,0,peel,321,30,5,4,english,m,1,0.1,24.87794389,1.54320329
5e38397719e44f0244389781,42,0,2024-02-28T14:21:06.404Z,english_109.wav,0,peel,321,30,5,4,english,m,2,0.2,88.66282845,0.73186937
5e38397719e44f0244389781,42,0,2024-02-28T14:21:06.404Z,english_109.wav,0,peel,321,30,5,4,english,m,3,0.3,53.91159302,0.759779
5e38397719e44f0244389781,42,0,2024-02-28T14:21:06.404Z,english_109.wav,0,peel,321,30,5,4,english,m,4,0.4,-2.76092074,1.4946261
5e38397719e44f0244389781,42,0,2024-02-28T14:21:06.404Z,english_109.wav,0,peel,321,30,5,4,english,m,5,0.5,79.99538148,1.48350308
5e38397719e44f0244389781,42,0,2024-02-28T14:21:06.404Z,english_109.wav,0,peel,321,30,5,4,english,m,6,0.6,-42.31150981,1.90894472
5e38397719e44f0244389781,42,0,2024-02-28T14:21:06.404Z,english_109.wav,0,peel,321,30,5,4,english,m,7,0.7,-5.15781481,0.02998442
5e38397719e44f0244389781,42,0,2024-02-28T14:21:06.404Z,english_109.wav,0,peel,321,30,5,4,english,m,8,0.8,31.3978044,0.89047781
5e38397719e44f0244389781,42,0,2024-02-28T14:21:06.404Z,english_109.wav,0,peel,321,30,5,4,english,m,9,0.9,46.94636463,1.05504638
5e38397719e44f0244389781,42,0,2024-02-28T14:21:06.404Z,english_109.wav,0,peel,321,30,5,4,english,m,10,1.0,63.69340257,0.96709735
5e38397719e44f0244389781,42,0,2024-02-28T14:21:06.404Z,english_109.wav,0,peel,321,30,5,4,english,m,11,1.09391667,10.97812261,0.43676298
5e38397719e44f0244389781,43,0,2024-02-28T14:21:06.404Z,english_672.wav,0,pill,528,30,5,4,english,m,0,0.0,43.22685975,1.16062379
5e38397719e44f0244389781,43,0,2024-02-28T14:21:06.404Z,english_672.wav,0,pill,528,30,5,4,english,m,1,0.1,-54.22036803,1.05074454
5e38397719e44f0244389781,43,0,2024-02-28T14:21:06.404Z,english_672.wav,0,pill,528,30,5,4,english,m,2,0.2,47.19502214,0.58565022
5e38397719e44f0244389781,43,0,2024-02-28T14:21:06.404Z,english_672.wav,0,pill,528,30,5,4,english,m,3,0.3,29.48399108,0.69010583
5e38397719e44f0244389781,43,0,2024-02-28T14:21:06.404Z,english_672.wav,0,pill,528,30,5,4,english,m,4,0.4,-37.13401682,1.10560462
5e38397719e44f0244389781,43,0,2024-02-28T14:21:06.404Z,english_672.wav,0,pill,528,30,5,4,english,m,5,0.5,-82.77781933,0.90912981
5e38397719e44f0244389781,43,0,2024-02-28T14:21:06.404Z,english_672.wav,0,pill,528,30,5,4,english,m,6,0.6,26.5489707,1.72329615
5e38397719e44f0244389781,43,0,2024-02-28T14:21:06.404Z,english_672.wav,0,pill,528,30,5,4,english,m,7,0.7,-82.12818914,1.29141175
5e38397719e44f0244389781,43,0,2024-02-28T14:21:06.404Z,english_672.wav,0,pill,528,30,5,4,english,m,8,0.8,0.43149331,0.15835131
5e38397719e44f0244389781,43,0,2024-02-28T14:21:06.404Z,english_672.wav,0,pill,528,30,5,4,english,m,9,0.9,36.27396929,0.77804924
5e38397719e44f0244389781,43,0,2024-02-28T14:21:06.404Z,english_672.wav,0,pill,528,30,5,4,english,m,10,1.0,-33.62939759,0.05373679
5e38397719e44f0244389781,43,0,2024-02-28T14:21:06.404Z,english_672.wav,0,pill,528,30,5,4,english,m,11,1.09391667,-60.08189446,0.92241163
5e38397719e44f0244389781,44,0,2024-02-28T14:21:06.404Z,english_504.wav,0,pill,582,30,5,4,english,m,0,0.0,-66.23189197,1.64024725
5e38397719e44f0244389781,44,0,2024-02-28T14:21:06.404Z,english_504.wav,0,pill,582,30,5,4,english,m,1,0.1,-7.28081394,1.33861833
5e38397719e44f0244389781,44,0,2024-02-28T14:21:06.404Z,english_504.wav,0,pill,582,30,5,4,english,m,2,0.2,-74.05426979,0.21996253
5e38397719e44f0244389781,44,0,2024-02-28T14:21:06.404Z,english_504.wav,0,pill,582,30,5,4,english,m,3,0.3,-2.17834407,0.9295354
5e38397719e44f0244389781,44,0,2024-02-28T14:21:06.404Z,english_504.wav,0,pill,582,30,5,4,english,m,4,0.4,-44.29553612,0.18867482
5e38397719e44f0244389781,44,0,2024-02-28T14:21:06.404Z,english_504.wav,0,pill,582,30,5,4,english,m,5,0.5,-21.93882769,0.17745141
5e38397719e44f0244389781,44,0,2024-02-28T14:21:06.404Z,english_504.wav,0,pill,582,30,5,4,english,m,6,0.6,-6.80381408,1.36415298
5e38397719e44f0244389781,44,0,2024-02-28T14:21:06.404Z,english_504.wav,0,pill,582,30,5,4,english,m,7,0.7,9.00050206,1.08571676
5e38397719e44f0244389781,44,0,2024-02-28T14:21:06.404Z,english_504.wav,0,pill,582,30,5,4,english,m,8,0.8,-19.58321875,1.38544941
5e38397719e44f0244389781,44,0,2024-02-28T14:21:06.404Z,english_504.wav,0,pill,582,30,5,4,english,m,9,0.9,-97.27632106,0.33380342
5e38397719e44f0244389781,44,0,2024-02-28T14:21:06.404Z,english_504.wav,0,pill,582,30,5,4,english,m,10,1.0,94.36582119,0.16971293
5e38397719e44f0244389781,44,0,2024-02-28T14:21:06.404Z,english_504.wav,0,pill,582,30,5,4,english,m,11,1.09391667,-77.55415354,0.89224977
5e38397719e44f0244389781,45,0,2024-02-28T14:21:06.404Z,english_970.wav,0,pill,513,30,5,4,english,m,0,0.0,-54.89447986,0.81951556
5e38397719e44f0244389781,45,0,2024-02-28T14:21:06.404Z,english_970.wav,0,pill,513,30,5,4,english,m,1,0.1,25.1169893,1.67117432
5e38397719e44f0244389781,45,0,2024-02-28T14:21:06.404Z,english_970.wav,0,pill,513,30,5,4,english,m,2,0.2,-40.43511265,1.15867829
5e38397719e44f0244389781,45,0,2024-02-28T14:21:06.404Z,english_970.wav,0,pill,513,30,5,4,english,m,3,0.3,-62.36717191,1.19627059
5e38397719e44f0244389781,45,0,2024-02-28T14:21:06.404Z,english_970.wav,0,pill,513,30,5,4,english,m,4,0.4,-52.87769156,1.65204518
5e38397719e44f0244389781,45,0,2024-02-28T14:21:06.404Z,english_970.wav,0,pill,513,30,5,4,english,m,5,0.5,-60.51030312,1.89905296
5e38397719e44f0244389781,45,0,2024-02-28T14:21:06.404Z,english_970.wav,0,pill,513,30,5,4,english,m,6,0.6,-20.66217752,1.49874094
5e38397719e44f0244389781,45,0,2024-02-28T14:21:06.404Z,english_970.wav,0,pill,513,30,5,4,english,m,7,0.7,39.3890126,1.49402448
5e38397719e44f0244389781,45,0,2024-02-28T14:21:06.404Z,english_970.wav,0,pill,513,30,5,4,english,m,8,0.8,-42.20316614,0.52089687
5e38397719e44f0244389781,45,0,2024-02-28T14:21:06.404Z,english_970.wav,0,pill,513,30,5,4,english,m,9,0.9,-5.07453967,0.54496633
5e38397719e44f0244389781,45,0,2024-02-28T14:21:06.404Z,english_970.wav,0,pill,513,30,5,4,english,m,10,1.0,63.70783578,0.14699143
5e38397719e44f0244389781,45,0,2024-02-28T14:21:06.404Z,english_970.wav,0,pill,513,30,5,4,english,m,11,1.09391667,15.89619138,0.8383136
5e38397719e44f0244389781,46,0,2024-02-28T14:21:06.404Z,english_750.wav,0,pill,355,30,5,4,english,m,0,0.0,-25.16303224,0.86862278
5e38397719e44f0244389781,46,0,2024-02-28T14:21:06.404Z,english_750.wav,0,pill,355,30,5,4,english,m,1,0.1,-14.02768866,0.53645709
5e38397719e44f0244389781,46,0,2024-02-28T14:21:06.404Z,english_750.wav,0,pill,355,30,5,4,english,m,2,0.2,69.31394604,1.09554837
5e38397719e44f0244389781,46,0,2024-02-28T14:21:06.404Z,english_750.wav,0,pill,355,30,5,4,english,m,3,0.3,90.85453111,0.97960852
5e38397719e44f0244389781,46,0,2024-02-28T14:21:06.404Z,english_750.wav,0,pill,355,30,5,4,english,m,4,0.4,-11.11189664,1.14883971
5e38397719e44f0244389781,46,0,2024-02-28T14:21:06.404Z,english_750.wav,0,pill,355,30,5,4,english,m,5,0.5,99.7192225,0.16341609
5e38397719e44f0244389781,46,0,2024-02-28T14:21:06.404Z,english_750.wav,0,pill,355,30,5,4,english,m,6,0.6,59.23899804,1.34227106
5e38397719e44f0244389781,46,0,2024-02-28T14:21:06.404Z,english_750.wav,0,pill,355,30,5,4,english,m,7,0.7,61.96409814,1.64659331
5e38397719e44f0244389781,46,0,2024-02-28T14:21:06.404Z,english_750.wav,0,pill,355,30,5,4,english,m,8,0.8,86.60257641,0.80940412
5e38397719e44f0244389781,46,0,2024-02-28T14:21:06.404Z,english_750.wav,0,pill,355,30,5,4,english,m,9,0.9,26.97835103,1.55602713
5e38397719e44f0244389781,46,0,2024-02-28T14:21:06.404Z,english_750.wav,0,pill,355,30,5,4,english,m,10,1.0,-29.13235822,0.0040181
5e38397719e44f0244389781,46,0,2024-02-28T14:21:06.404Z,english_750.wav,0,pill,355,30,5,4,english,m,11,1.09391667,-49.9357994,1.03656175
5e38397719e44f0244389781,47,0,2024-02-28T14:21:06.404Z,english_758.wav,0,pill,671,30,5,4,english,m,0,0.0,44.67997232,1.19309781
5e38397719e44f0244389781,47,0,2024-02-28T14:21:06.404Z,english_758.wav,0,pill,671,30,5,4,english,m,1,0.1,27.10099403,0.27221696
5e38397719e44f0244389781,47,0,2024-02-28T14:21:06.404Z,english_758.wav,0,pill,671,30,5,4,english,m,2,0.2,-48.30493583,0.58591156
5e38397719e44f0244389781,47,0,2024-02-28T14:21:06.404Z,english_758.wav,0,pill,671,30,5,4,english,m,3,0.3,-73.5260898,1.06118241
5e38397719e44f0244389781,47,0,2024-02-28T14:21:06.404Z,english_758.wav,0,pill,671,30,5,4,english,m,4,0.4,19.32057449,1.53382291
5e38397719e44f0244389781,47,0,2024-02-28T14:21:06.404Z,english_758.wav,0,pill,671,30,5,4,english,m,5,0.5,-32.65273306,1.10934516
5e38397719e44f0244389781,47,0,2024-02-28T14:21:06.404Z,english_758.wav,0,pill,671,30,5,4,english,m,6,0.6,-67.58997162,1.53621874
5e38397719e44f0244389781,47,0,2024-02-28T14:21:06.404Z,english_758.wav,0,pill,671,30,5,4,english,m,7,0.7,-76.10184919,0.32907917
5e38397719e44f0244389781,47,0,2024-02-28T14:21:06.404Z,english_758.wav,0,pill,671,30,5,4,english,m,8,0.8,55.20632284,0.47500698
5e38397719e44f0244389781,47,0,2024-02-28T14:21:06.404Z,english_758.wav,0,pill,671,30,5,4,english,m,9,0.9,3.61347388,1.81944253
5e38397719e44f0244389781,47,0,2024-02-28T14:21:06.404Z,english_758.wav,0,pill,671,30,5,4,english,m,10,1.0,-39.33689268,1.02148435
5e38397719e44f0244389781,47,0,2024-02-28T14:21:06.404Z,english_758.wav,0,pill,671,30,5,4,english,m,11,1.09391667,44.43004874,0.12347796
5e38397719e44f0244389781,48,0,2024-02-28T14:21:06.404Z,english_684.wav,0,peel,139,30,5,4,english,m,0,0.0,44.6488214,0.31150518
5e38397719e44f0244389781,48,0,2024-02-28T14:21:06.404Z,english_684.wav,0,peel,139,30,5,4,english,m,1,0.1,9.68442182,0.4998365
5e38397719e44f0244389781,48,0,2024-02-28T14:21:06.404Z,english_684.wav,0,peel,139,30,5,4,english,m,2,0.2,-45.058789,0.24275602
5e38397719e44f0244389781,48,0,2024-02-28T14:21:06.404Z,english_684.wav,0,peel,139,30,5,4,english,m,3,0.3,9.29989294,1.63678411
5e38397719e44f0244389781,48,0,2024-02-28T14:21:06.404Z,english_684.wav,0,peel,139,30,5,4,english,m,4,0.4,-93.3818257,1.55347247
5e38397719e44f0244389781,48,0,2024-02-28T14:21:06.404Z,english_684.wav,0,peel,139,30,5,4,english,m,5,0.5,-18.6654658,0.93326504
5e38397719e44f0244389781,48,0,2024-02-28T14:21:06.404Z,english_684.wav,0,peel,139,30,5,4,english,m,6,0.6,-36.1937511,1.36007358
5e38397719e44f0244389781,48,0,2024-02-28T14:21:06.404Z,english_684.wav,0,peel,139,30,5,4,english,m,7,0.7,-0.0227796988,0.52423503
5e38397719e44f0244389781,48,0,2024-02-28T14:21:06.404Z,english_684.wav,0,peel,139,30,5,4,english,m,8,0.8,-81.9835579,1.47566928
5e38397719e44f0244389781,48,0,2024-02-28T14:21:06.404Z,english_684.wav,0,peel,139,30,5,4,english,m,9,0.9,66.7026535,1.32008624
5e38397719e44f0244389781,48,0,2024-02-28T14:21:06.404Z,english_684.wav,0,peel,139,30,5,4,english,m,10,1.0,-28.1669756,1.00236166
5e38397719e44f0244389781,48,0,2024-02-28T14:21:06.404Z,english_684.wav,0,peel,139,30,5,4,english,m,11,1.09391667,-31.1571246,1.13724252
5e38397719e44f0244389781,49,0,2024-02-28T14:21:06.404Z,english_894.wav,0,peel,455,30,5,4,english,m,0,0.0,-80.20723644,1.79346893
5e38397719e44f0244389781,49,0,2024-02-28T14:21:06.404Z,english_894.wav,0,peel,455,30,5,4,english,m,1,0.1,70.63971402,0.36641107
5e38397719e44f0244389781,49,0,2024-02-28T14:21:06.404Z,english_894.wav,0,peel,455,30,5,4,english,m,2,0.2,-37.49635732,1.22262179
5e38397719e44f0244389781,49,0,2024-02-28T14:21:06.404Z,english_894.wav,0,peel,455,30,5,4,english,m,3,0.3,-83.65831032,1.81798895
5e38397719e44f0244389781,49,0,2024-02-28T14:21:06.404Z,english_894.wav,0,peel,455,30,5,4,english,m,4,0.4,-33.74406965,0.98569015
5e38397719e44f0244389781,49,0,2024-02-28T14:21:06.404Z,english_894.wav,0,peel,455,30,5,4,english,m,5,0.5,51.66171184,1.39342992
5e38397719e44f0244389781,49,0,2024-02-28T14:21:06.404Z,english_894.wav,0,peel,455,30,5,4,english,m,6,0.6,19.47391611,1.02882877
5e38397719e44f0244389781,49,0,2024-02-28T14:21:06.404Z,english_894.wav,0,peel,455,30,5,4,english,m,7,0.7,-13.53975377,0.49108551
5e38397719e44f0244389781,49,0,2024-02-28T14:21:06.404Z,english_894.wav,0,peel,455,30,5,4,english,m,8,0.8,-20.28527638,0.73422482
5e38397719e44f0244389781,49,0,2024-02-28T14:21:06.404Z,english_894.wav,0,peel,455,30,5,4,english,m,9,0.9,-1.05192851,1.80196554
5e38397719e44f0244389781,49,0,2024-02-28T14:21:06.404Z,english_894.wav,0,peel,455,30,5,4,english,m,10,1.0,-21.57661458,0.14842719
5e38397719e44f0244389781,49,0,2024-02-28T14:21:06.404Z,english_894.wav,0,peel,455,30,5,4,english,m,11,1.09391667,-6.12644826,0.9088618
5e38397719e44f0244389781,50,1,2024-02-28T14:21:06.404Z,english_47.wav,0,peel,221,30,5,4,english,m,0,0.0,68.198191,0.3166901
5e38397719e44f0244389781,50,1,2024-02-28T14:21:06.404Z,english_47.wav,0,peel,221,30,5,4,english,m,1,0.1,94.43921987,0.04644968
5e38397719e44f0244389781,50,1,2024-02-28T14:21:06.404Z,english_47.wav,0,peel,221,30,5,4,english,m,2,0.2,71.99565581,0.20202276
5e38397719e44f0244389781,50,1,2024-02-28T14:21:06.404Z,english_47.wav,0,peel,221,30,5,4,english,m,3,0.3,-2.50267609,0.13324084
5e38397719e44f0244389781,50,1,2024-02-28T14:21:06.404Z,english_47.wav,0,peel,221,30,5,4,english,m,4,0.4,-27.23226475,1.85081006
5e38397719e44f0244389781,50,1,2024-02-28T14:21:06.404Z,english_47.wav,0,peel,221,30,5,4,english,m,5,0.5,-34.1635894,1.50387921
5e38397719e44f0244389781,50,1,2024-02-28T14:21:06.404Z,english_47.wav,0,peel,221,30,5,4,english,m,6,0.6,-43.16759163,1.62546743
5e38397719e44f0244389781,50,1,2024-02-28T14:21:06.404Z,english_47.wav,0,peel,221,30,5,4,english,m,7,0.7,-66.57434159,1.04862791
5e38397719e44f0244389781,50,1,2024-02-28T14:21:06.404Z,english_47.wav,0,peel,221,30,5,4,english,m,8,0.8,28.48495109,1.96555665
5e38397719e44f0244389781,50,1,2024-02-28T14:21:06.404Z,english_47.wav,0,peel,221,30,5,4,english,m,9,0.9,-2.22339421,1.0927937
5e38397719e44f0244389781,50,1,2024-02-28T14:21:06.404Z,english_47.wav,0,peel,221,30,5,4,english,m,10,1.0,-87.95517187,0.42699379
5e38397719e44f0244389781,50,1,2024-02-28T14:21:06.404Z,english_47.wav,0,peel,221,30,5,4,english,m,11,1.09391667,64.08418893,1.59110451
5e38397719e44f0244389781,51,1,2024-02-28T14:21:06.404Z,english_993.wav,0,peel,645,30,5,4,english,m,0,0.0,-8.65746923,1.97743958
5e38397719e44f0244389781,51,1,2024-02-28T14:21:06.404Z,english_993.wav,0,peel,645,30,5,4,english,m,1,0.1,-27.87522694,0.36006803
5e38397719e44f0244389781,51,1,2024-02-28T14:21:06.404Z,english_993.wav,0,peel,645,30,5,4,english,m,2,0.2,41.79329436,0.06856355
5e38397719e44f0244389781,51,1,2024-02-28T14:21:06.404Z,english_993.wav,0,peel,645,30,5,4,english,m,3,0.3,-23.16935708,0.38955927
5e38397719e44f0244389781,51,1,2024-02-28T14:21:06.404Z,english_993.wav,0,peel,645,30,5,4,english,m,4,0.4,18.8592239,1.25297016
5e38397719e44f0244389781,51,1,2024-02-28T14:21:06.404Z,english_993.wav,0,peel,645,30,5,4,english,m,5,0.5,40.29392848,0.33975417
5e38397719e44f0244389781,51,1,2024-02-28T14:21:06.404Z,english_993.wav,0,peel,645,30,5,4,english,m,6,0.6,77.6038757,1.12200744
5e38397719e44f0244389781,51,1,2024-02-28T14:21:06.404Z,english_993.wav,0,peel,645,30,5,4,english,m,7,0.7,33.5103026,1.75189261
5e38397719e44f0244389781,51,1,2024-02-28T14:21:06.404Z,english_993.wav,0,peel,645,30,5,4,english,m,8,0.8,71.9206852,0.43539509
5e38397719e44f0244389781,51,1,2024-02-28T14:21:06.404Z,english_993.wav,0,peel,645,30,5,4,english,m,9,0.9,-28.91081602,1.78200425
5e38397719e44f0244389781,51,1,2024-02-28T14:21:06.404Z,english_993.wav,0,peel,645,30,5,4,english,m,10,1.0,-66.92854856,0.58801976
5e38397719e44f0244389781,51,1,2024-02-28T14:21:06.404Z,english_993.wav,0,peel,645,30,5,4,english,m,11,1.09391667,-70.4693707,0.997712
5e38397719e44f0244389781,52,1,2024-02-28T14:21:06.404Z,english_472.wav,0,peel,266,30,5,4,english,m,0,0.0,-23.72821767,0.96911452
5e38397719e44f0244389781,52,1,2024-02-28T14:21:06.404Z,english_472.wav,0,peel,266,30,5,4,english,m,1,0.1,7.29471696,0.40121138
5e38397719e44f0244389781,52,1,2024-02-28T14:21:06.404Z,english_472.wav,0,peel,266,30,5,4,english,m,2,0.2,-58.55005371,1.15410482
5e38397719e44f0244389781,52,1,2024-02-28T14:21:06.404Z,english_472.wav,0,peel,266,30,5,4,english,m,3,0.3,77.0504256,1.91400861
5e38397719e44f0244389781,52,1,2024-02-28T14:21:06.404Z,english_472.wav,0,peel,266,30,5,4,english,m,4,0.4,87.29275565,0.05830067
5e38397719e44f0244389781,52,1,2024-02-28T14:21:06.404Z,english_472.wav,0,peel,266,30,5,4,english,m,5,0.5,-70.9646192,0.87176087
5e38397719e44f0244389781,52,1,2024-02-28T14:21:06.404Z,english_472.wav,0,peel,266,30,5,4,english,m,6,0.6,72.82743185,0.23371631
5e38397719e44f0244389781,52,1,2024-02-28T14:21:06.404Z,english_472.wav,0,peel,266,30,5,4,english,m,7,0.7,-40.27439915,1.66198616
5e38397719e44f0244389781,52,1,2024-02-28T14:21:06.404Z,english_472.wav,0,peel,266,30,5,4,english,m,8,0.8,-15.91396931,0.22492459
5e38397719e44f0244389781,52,1,2024-02-28T14:21:06.404Z,english_472.wav,0,peel,266,30,5,4,english,m,9,0.9,27.40014094,0.55757982
5e38397719e44f0244389781,52,1,2024-02-28T14:21:06.404Z,english_472.wav,0,peel,266,30,5,4,english,m,10,1.0,-13.69917785,1.15387827
5e38397719e44f0244389781,52,1,2024-02-28T14:21:06.404Z,english_472.wav,0,peel,266,30,5,4,english,m,11,1.09391667,26.78237701,1.85526867
5e38397719e44f0244389781,53,1,2024-02-28T14:21:06.404Z,english_228.wav,0,peel,1359,30,5,4,english,m,0,0.0,-38.62058952,0.59116431
5e38397719e44f0244389781,53,1,2024-02-28T14:21:06.404Z,english_228.wav,0,peel,1359,30,5,4,english,m,1,0.1,-18.01789453,0.00203405
5e38397719e44f0244389781,53,1,2024-02-28T14:21:06.404Z,english_228.wav,0,peel,1359,30,5,4,english,m,2,0.2,-19.29810377,1.35615651
5e38397719e44f0244389781,53,1,2024-02-28T14:21:06.404Z,english_228.wav,0,peel,1359,30,5,4,english,m,3,0.3,49.99042802,0.81421447
5e38397719e44f0244389781,53,1,2024-02-28T14:21:06.404Z,english_228.wav,0,peel,1359,30,5,4,english,m,4,0.4,-38.68486719,0.65993526
5e38397719e44f0244389781,53,1,2024-02-28T14:21:06.404Z,english_228.wav,0,peel,1359,30,5,4,english,m,5,0.5,47.61187018,1.77351482
5e38397719e44f0244389781,53,1,2024-02-28T14:21:06.404Z,english_228.wav,0,peel,1359,30,5,4,english,m,6,0.6,-2.33725159,0.42798731
5e38397719e44f0244389781,53,1,2024-02-28T14:21:06.404Z,english_228.wav,0,peel,1359,30,5,4,english,m,7,0.7,-44.85879225,1.42146574
5e38397719e44f0244389781,53,1,2024-02-28T14:21:06.404Z,english_228.wav,0,peel,1359,30,5,4,english,m,8,0.8,-68.19671619,0.06445784
5e38397719e44f0244389781,53,1,2024-02-28T14:21:06.404Z,english_228.wav,0,peel,1359,30,5,4,english,m,9,0.9,-17.76633123,0.43648336
5e38397719e44f0244389781,53,1,2024-02-28T14:21:06.404Z,english_228.wav,0,peel,1359,30,5,4,english,m,10,1.0,14.76745117,0.26323344
5e38397719e44f0244389781,53,1,2024-02-28T14:21:06.404Z,english_228.wav,0,peel,1359,30,5,4,english,m,11,1.09391667,22.84836671,0.30524069
5e38397719e44f0244389781,54,1,2024-02-28T14:21:06.404Z,english_522.wav,0,peel,115,30,5,4,english,m,0,0.0,-41.53907187,0.57004443
5e38397719e44f0244389781,54,1,2024-02-28T14:21:06.404Z,english_522.wav,0,peel,115,30,5,4,english,m,1,0.1,-34.77242331,0.9419408
5e38397719e44f0244389781,54,1,2024-02-28T14:21:06.404Z,english_522.wav,0,peel,115,30,5,4,english,m,2,0.2,44.84688975,1.66104168
5e38397719e44f0244389781,54,1,2024-02-28T14:21:06.404Z,english_522.wav,0,peel,115,30,5,4,english,m,3,0.3,0.52781467,0.91446022
5e38397719e44f0244389781,54,1,2024-02-28T14:21:06.404Z,english_522.wav,0,peel,115,30,5,4,english,m,4,0.4,-85.49095183,1.87910308
5e38397719e44f0244389781,54,1,2024-02-28T14:21:06.404Z,english_522.wav,0,peel,115,30,5,4,english,m,5,0.5,49.75805681,1.6772423
5e38397719e44f0244389781,54,1,2024-02-28T14:21:06.404Z,english_522.wav,0,peel,115,30,5,4,english,m,6,0.6,-34.01238983,1.00245935
5e38397719e44f0244389781,54,1,2024-02-28T14:21:06.404Z,english_522.wav,0,peel,115,30,5,4,english,m,7,0.7,-76.80695945,1.44049733
5e38397719e44f0244389781,54,1,2024-02-28T14:21:06.404Z,english_522.wav,0,peel,115,30,5,4,english,m,8,0.8,57.48181657,0.74965877
5e38397719e44f0244389781,54,1,2024-02-28T14:21:06.404Z,english_522.wav,0,peel,115,30,5,4,english,m,9,0.9,-42.740182,1.30386633
5e38397719e44f0244389781,54,1,2024-02-28T14:21:06.404Z,english_522.wav,0,peel,115,30,5,4,english,m,10,1.0,76.48970234,1.30270801
5e38397719e44f0244389781,54,1,2024-02-28T14:21:06.404Z,english_522.wav,0,peel,115,30,5,4,english,m,11,1.09391667,-24.33451257,0.47933239
5e38397719e44f0244389781,55,1,2024-02-28T14:21:06.404Z,english_58.wav,0,peel,56,30,5,4,english,m,0,0.0,-46.52390323,0.35126105
5e38397719e44f0244389781,55,1,2024-02-28T14:21:06.404Z,english_58.wav,0,peel,56,30,5,4,english,m,1,0.1,19.23789521,1.12280932
5e38397719e44f0244389781,55,1,2024-02-28T14:21:06.404Z,english_58.wav,0,peel,56,30,5,4,english,m,2,0.2,69.12106093,0.45102457
5e38397719e44f0244389781,55,1,2024-02-28T14:21:06.404Z,english_58.wav,0,peel,56,30,5,4,english,m,3,0.3,-43.53874687,1.46305127
5e38397719e44f0244389781,55,1,2024-02-28T14:21:06.404Z,english_58.wav,0,peel,56,30,5,4,english,m,4,0.4,-56.35842904,1.909583
5e38397719e44f0244389781,55,1,2024-02-28T14:21:06.404Z,english_58.wav,0,peel,56,30,5,4,english,m,5,0.5,7.35134255,1.54363939
5e38397719e44f0244389781,55,1,2024-02-28T14:21:06.404Z,english_58.wav,0,peel,56,30,5,4,english,m,6,0.6,-28.20207265,0.80451607
5e38397719e44f0244389781,55,1,2024-02-28T14:21:06.404Z,english_58.wav,0,peel,56,30,5,4,english,m,7,0.7,-78.68633359,1.94404618
5e38397719e44f0244389781,55,1,2024-02-28T14:21:06.404Z,english_58.wav,0,peel,56,30,5,4,english,m,8,0.8,27.00073493,0.82845057
5e38397719e44f0244389781,55,1,2024-02-28T14:21:06.404Z,english_58.wav,0,peel,56,30,5,4,english,m,9,0.9,-36.58564369,1.3978679
5e38397719e44f0244389781,55,1,2024-02-28T14:21:06.404Z,english_58.wav,0,peel,56,30,5,4,english,m,10,1.0,4.57816085,1.7044559
5e38397719e44f0244389781,55,1,2024-02-28T14:21:06.404Z,english_58.wav,0,peel,56,30,5,4,english,m,11,1.09391667,-5.20378192,0.16192575
5e38397719e44f0244389781,56,1,2024-02-28T14:21:06.404Z,english_33.wav,0,peel,21,30,5,4,english,m,0,0.0,-39.58082457,0.53160826
5e38397719e44f0244389781,56,1,2024-02-28T14:21:06.404Z,english_33.wav,0,peel,21,30,5,4,english,m,1,0.1,30.52342894,0.02130102
5e38397719e44f0244389781,56,1,2024-02-28T14:21:06.404Z,english_33.wav,0,peel,21,30,5,4,english,m,2,0.2,23.47265499,1.79968549
5e38397719e44f0244389781,56,1,2024-02-28T14:21:06.404Z,english_33.wav,0,peel,21,30,5,4,english,m,3,0.3,35.06724548,1.77904441
5e38397719e44f0244389781,56,1,2024-02-28T14:21:06.404Z,english_33.wav,0,peel,21,30,5,4,english,m,4,0.4,68.41384456,0.50678762
5e38397719e44f0244389781,56,1,2024-02-28T14:21:06.404Z,english_33.wav,0,peel,21,30,5,4,english,m,5,0.5,91.35527089,1.72631603
5e38397719e44f0244389781,56,1,2024-02-28T14:21:06.404Z,english_33.wav,0,peel,21,30,5,4,english,m,6,0.6,45.24436298,0.90579128
5e38397719e44f0244389781,56,1,2024-02-28T14:21:06.404Z,english_33.wav,0,peel,21,30,5,4,english,m,7,0.7,-95.9941639,1.42335886
5e38397719e44f0244389781,56,1,2024-02-28T14:21:06.404Z,english_33.wav,0,peel,21,30,5,4,english,m,8,0.8,52.18884155,1.10708789
5e38397719e44f0244389781,56,1,2024-02-28T14:21:06.404Z,english_33.wav,0,peel,21,30,5,4,english,m,9,0.9,-59.5821221,1.04407415
5e38397719e44f0244389781,56,1,2024-02-28T14:21:06.404Z,english_33.wav,0,peel,21,30,5,4,english,m,10,1.0,-35.64274737,1.58844638
5e38397719e44f0244389781,56,1,2024-02-28T14:21:06.404Z,english_33.wav,0,peel,21,30,5,4,english,m,11,1.09391667,-73.32122587,0.94640907
5e38397719e44f0244389781,57,1,2024-02-28T14:21:06.404Z,english_746.wav,0,pill,75,30,5,4,english,m,0,0.0,-17.85129661,0.72236584
5e38397719e44f0244389781,57,1,2024-02-28T14:21:06.404Z,english_746.wav,0,pill,75,30,5,4,english,m,1,0.1,44.49284576,1.69903141
5e38397719e44f0244389781,57,1,2024-02-28T14:21:06.404Z,english_746.wav,0,pill,75,30,5,4,english,m,2,0.2,-28.07602373,1.83658278
5e38397719e44f0244389781,57,1,2024-02-28T14:21:06.404Z,english_746.wav,0,pill,75,30,5,4,english,m,3,0.3,80.79649727,0.38437005
5e38397719e44f0244389781,57,1,2024-02-28T14:21:06.404Z,english_746.wav,0,pill,75,30,5,4,english,m,4,0.4,-35.87476706,0.19777168
5e38397719e44f0244389781,57,1,2024-02-28T14:21:06.404Z,english_746.wav,0,pill,75,30,5,4,english,m,5,0.5,-13.61927607,0.81094496
5e38397719e44f0244389781,57,1,2024-02-28T14:21:06.404Z,english_746.wav,0,pill,75,30,5,4,english,m,6,0.6,-13.45090469,0.04159101
5e38397719e44f0244389781,57,1,2024-02-28T14:21:06.404Z,english_746.wav,0,pill,75,30,5,4,english,m,7,0.7,74.7415388,0.34194607
5e38397719e44f0244389781,57,1,2024-02-28T14:21:06.404Z,english_746.wav,0,pill,75,30,5,4,english,m,8,0.8,-73.80839868,1.34456722
5e38397719e44f0244389781,57,1,2024-02-28T14:21:06.404Z,english_746.wav,0,pill,75,30,5,4,english,m,9,0.9,16.67710805,0.32922526
5e38397719e44f0244389781,57,1,2024-02-28T14:21:06.404Z,english_746.wav,0,pill,75,30,5,4,english,m,10,1.0,90.26780737,0.60956501
5e38397719e44f0244389781,57,1,2024-02-28T14:21:06.404Z,english_746.wav,0,pill,75,30,5,4,english,m,11,1.09391667,-18.98803571,1.98648295
5e38397719e44f0244389781,58,1,2024-02-28T14:21:06.404Z,english_825.wav,0,pill,109,30,5,4,english,m,0,0.0,64.76464638,1.23145085
5e38397719e44f0244389781,58,1,2024-02-28T14:21:06.404Z,english_825.wav,0,pill,109,30,5,4,english,m,1,0.1,-51.3470416,0.79492421
5e38397719e44f0244389781,58,1,2024-02-28T14:21:06.404Z,english_825.wav,0,pill,109,30,5,4,english,m,2,0.2,9.90918002,0.48314333
5e38397719e44f0244389781,58,1,2024-02-28T14:21:06.404Z,english_825.wav,0,pill,109,30,5,4,english,m,3,0.3,63.24486906,0.28861919
5e38397719e44f0244389781,58,1,2024-02-28T14:21:06.404Z,english_825.wav,0,pill,109,30,5,4,english,m,4,0.4,-95.411726,1.05525194
5e38397719e44f0244389781,58,1,2024-02-28T14:21:06.404Z,english_825.wav,0,pill,109,30,5,4,english,m,5,0.5,17.77962704,1.51076591
5e38397719e44f0244389781,58,1,2024-02-28T14:21:06.404Z,english_825.wav,0,pill,109,30,5,4,english,m,6,0.6,23.26529379,1.04212622
5e38397719e44f0244389781,58,1,2024-02-28T14:21:06.404Z,english_825.wav,0,pill,109,30,5,4,english,m,7,0.7,37.62422032,0.64232838
5e38397719e44f0244389781,58,1,2024-02-28T14:21:06.404Z,english_825.wav,0,pill,109,30,5,4,english,m,8,0.8,-26.41359823,1.11700907
5e38397719e44f0244389781,58,1,2024-02-28T14:21:06.404Z,english_825.wav,0,pill,109,30,5,4,english,m,9,0.9,-38.32396509,1.02326758
5e38397719e44f0244389781,58,1,2024-02-28T14:21:06.404Z,english_825.wav,0,pill,109,30,5,4,english,m,10,1.0,63.21192295,0.3631898
5e38397719e44f0244389781,58,1,2024-02-28T14:21:06.404Z,english_825.wav,0,pill,109,30,5,4,english,m,11,1.09391667,-24.29267242,1.01931794
5e38397719e44f0244389781,59,1,2024-02-28T14:21:06.404Z,english_863.wav,0,pill,197,30,5,4,english,m,0,0.0,3.14313852,1.16629305
5e38397719e44f0244389781,59,1,2024-02-28T14:21:06.404Z,english_863.wav,0,pill,197,30,5,4,english,m,1,0.1,-23.21665248,0.07060829
5e38397719e44f0244389781,59,1,2024-02-28T14:21:06.404Z,english_863.wav,0,pill,197,30,5,4,english,m,2,0.2,94.57997372,0.73624632
5e38397719e44f0244389781,59,1,2024-02-28T14:21:06.404Z,english_863.wav,0,pill,197,30,5,4,english,m,3,0.3,-70.02674633,1.78608874
5e38397719e44f0244389781,59,1,2024-02-28T14:21:06.404Z,english_863.wav,0,pill,197,30,5,4,english,m,4,0.4,40.94796862,1.19353904
5e38397719e44f0244389781,59,1,2024-02-28T14:21:06.404Z,english_863.wav,0,pill,197,30,5,4,english,m,5,0.5,88.61836916,1.05800258
5e38397719e44f0244389781,59,1,2024-02-28T14:21:06.404Z,english_863.wav,0,pill,197,30,5,4,english,m,6,0.6,69.208784,1.13776513
5e38397719e44f0244389781,59,1,2024-02-28T14:21:06.404Z,english_863.wav,0,pill,197,30,5,4,english,m,7,0.7,77.12421504,0.42226269
5e38397719e44f0244389781,59,1,2024-02-28T14:21:06.404Z,english_863.wav,0,pill,197,30,5,4,english,m,8,0.8,-17.44873358,1.07561455
5e38397719e44f0244389781,59,1,2024-02-28T14:21:06.404Z,english_863.wav,0,pill,197,30,5,4,english,m,9,0.9,-87.01424673,0.7154793
5e38397719e44f0244389781,59,1,2024-02-28T14:21:06.404Z,english_863.wav,0,pill,197,30,5,4,english,m,10,1.0,-56.04990787,0.64178271
5e38397719e44f0244389781,59,1,2024-02-28T14:21:06.404Z,english_863.wav,0,pill,197,30,5,4,english,m,11,1.09391667,-48.10301357,1.63280959
5e38397719e44f0244389781,60,1,2024-02-28T14:21:06.404Z,english_9.wav,0,pill,194,30,5,4,english,m,0,0.0,-96.61203468,1.48407489
5e38397719e44f0244389781,60,1,2024-02-28T14:21:06.404Z,english_9.wav,0,pill,194,30,5,4,english,m,1,0.1,27.77418146,0.71089129
5e38397719e44f0244389781,60,1,2024-02-28T14:21:06.404Z,english_9.wav,0,pill,194,30,5,4,english,m,2,0.2,-42.79973111,1.02276586
5e38397719e44f0244389781,60,1,2024-02-28T14:21:06.404Z,english_9.wav,0,pill,194,30,5,4,english,m,3,0.3,52.67007286,0.94605025
5e38397719e44f0244389781,60,1,2024-02-28T14:21:06.404Z,english_9.wav,0,pill,194,30,5,4,english,m,4,0.4,-77.37689486,1.64255066
5e38397719e44f0244389781,60,1,2024-02-28T14:21:06.404Z,english_9.wav,0,pill,194,30,5,4,english,m,5,0.5,22.33265825,1.1767353
5e38397719e44f0244389781,60,1,2024-02-28T14:21:06.404Z,english_9.wav,0,pill,194,30,5,4,english,m,6,0.6,-21.53246611,1.24238606
5e38397719e44f0244389781,60,1,2024-02-28T14:21:06.404Z,english_9.wav,0,pill,194,30,5,4,english,m,7,0.7,11.78226484,0.92864334
5e38397719e44f0244389781,60,1,2024-02-28T14:21:06.404Z,english_9.wav,0,pill,194,30,5,4,english,m,8,0.8,-45.34236124,1.13602565
5e38397719e44f0244389781,60,1,2024-02-28T14:21:06.404Z,english_9.wav,0,pill,194,30,5,4,english,m,9,0.9,55.83053399,1.46898539
5e38397719e44f0244389781,60,1,2024-02-28T14:21:06.404Z,english_9.wav,0,pill,194,30,5,4,english,m,10,1.0,-0.17077069,1.30855548
5e38397719e44f0244389781,60,1,2024-02-28T14:21:06.404Z,english_9.wav,0,pill,194,30,5,4,english,m,11,1.09391667,-99.58545301,1.24881599
5e38397719e44f0244389781,61,1,2024-02-28T14:21:06.404Z,english_912.wav,0,peel,243,30,5,4,english,m,0,0.0,83.45320293,1.30725461
5e38397719e44f0244389781,61,1,2024-02-28T14:21:06.404Z,english_912.wav,0,peel,243,30,5,4,english,m,1,0.1,47.1123547,0.36515134
5e38397719e44f0244389781,61,1,2024-02-28T14:21:06.404Z,english_912.wav,0,peel,243,30,5,4,english,m,2,0.2,-44.09395349,0.27834174
5e38397719e44f0244389781,61,1,2024-02-28T14:21:06.404Z,english_912.wav,0,peel,243,30,5,4,english,m,3,0.3,80.4089211,1.38784543
5e38397719e44f0244389781,61,1,2024-02-28T14:21:06.404Z,english_912.wav,0,peel,243,30,5,4,english,m,4,0.4,-65.95886508,0.18344109
5e38397719e44f0244389781,61,1,2024-02-28T14:21:06.404Z,english_912.wav,0,peel,243,30,5,4,english,m,5,0.5,-25.59965852,0.42703515
5e38397719e44f0244389781,61,1,2024-02-28T14:21:06.404Z,english_912.wav,0,peel,243,30,5,4,english,m,6,0.6,58.94865135,1.85819174
5e38397719e44f0244389781,61,1,2024-02-28T14:21:06.404Z,english_912.wav,0,peel,243,30,5,4,english,m,7,0.7,-95.38965028,1.3517083
5e38397719e44f0244389781,61,1,2024-02-28T14:21:06.404Z,english_912.wav,0,peel,243,30,5,4,english,m,8,0.8,10.68091992,1.52712698
5e38397719e44f0244389781,61,1,2024-02-28T14:21:06.404Z,english_912.wav,0,peel,243,30,5,4,english,m,9,0.9,-57.68744928,1.44811226
5e38397719e44f0244389781,61,1,2024-02-28T14:21:06.404Z,english_912.wav,0,peel,243,30,5,4,english,m,10,1.0,5.39108627,1.0038839
5e38397719e44f0244389781,61,1,2024-02-28T14:21:06.404Z,english_912.wav,0,peel,243,30,5,4,english,m,11,1.09391667,37.38622487,0.79645394
5e38397719e44f0244389781,62,1,2024-02-28T14:21:06.404Z,english_43.wav,0,peel,391,30,5,4,english,m,0,0.0,35.0853305,0.26027887
5e38397719e44f0244389781,62,1,2024-02-28T14:21:06.404Z,english_43.wav,0,peel,391,30,5,4,english,m,1,0.1,-82.31052455,0.68956967
5e38397719e44f0244389781,62,1,2024-02-28T14:21:06.404Z,english_43.wav,0,peel,391,30,5,4,english,m,2,0.2,-87.01844832,1.59168544
5e38397719e44f0244389781,62,1,2024-02-28T14:21:06.404Z,english_43.wav,0,peel,391,30,5,4,english,m,3,0.3,35.19386066,0.50064201
5e38397719e44f0244389781,62,1,2024-02-28T14:21:06.404Z,english_43.wav,0,peel,391,30,5,4,english,m,4,0.4,-6.50663416,1.69386915
5e38397719e44f0244389781,62,1,2024-02-28T14:21:06.404Z,english_43.wav,0,peel,391,30,5,4,english,m,5,0.5,-43.93611532,1.13933047
5e38397719e44f0244389781,62,1,2024-02-28T14:21:06.404Z,english_43.wav,0,peel,391,30,5,4,english,m,6,0.6,-73.49805581,1.51065435
5e38397719e44f0244389781,62,1,2024-02-28T14:21:06.404Z,english_43.wav,0,peel,391,30,5,4,english,m,7,0.7,65.62731204,0.46562499
5e38397719e44f0244389781,62,1,2024-02-28T14:21:06.404Z,english_43.wav,0,peel,391,30,5,4,english,m,8,0.8,-40.13292878,1.37756628
5e38397719e44f0244389781,62,1,2024-02-28T14:21:06.404Z,english_43.wav,0,peel,391,30,5,4,english,m,9,0.9,-82.04161205,0.8121578
5e38397719e44f0244389781,62,1,2024-02-28T14:21:06.404Z,english_43.wav,0,peel,391,30,5,4,english,m,10,1.0,51.94207196,0.36046396
5e38397719e44f0244389781,62,1,2024-02-28T14:21:06.404Z,english_43.wav,0,peel,391,30,5,4,english,m,11,1.09391667,-30.06023569,0.31346917
5e38397719e44f0244389781,63,1,2024-02-28T14:21:06.404Z,english_402.wav,0,peel,389,30,5,4,english,m,0,0.0,13.762471,1.51429567
5e38397719e44f0244389781,63,1,2024-02-28T14:21:06.404Z,english_402.wav,0,peel,389,30,5,4,english,m,1,0.1,56.960538,1.68766969
5e38397719e44f0244389781,63,1,2024-02-28T14:21:06.404Z,english_402.wav,0,peel,389,30,5,4,english,m,2,0.2,31.61900178,1.34501255
5e38397719e44f0244389781,63,1,2024-02-28T14:21:06.404Z,english_402.wav,0,peel,389,30,5,4,english,m,3,0.3,-58.12329087,0.78143448
5e38397719e44f0244389781,63,1,2024-02-28T14:21:06.404Z,english_402.wav,0,peel,389,30,5,4,english,m,4,0.4,-92.10904416,0.95522192
5e38397719e44f0244389781,63,1,2024-02-28T14:21:06.404Z,english_402.wav,0,peel,389,30,5,4,english,m,5,0.5,-26.99116943,1.16323619
5e38397719e44f0244389781,63,1,2024-02-28T14:21:06.404Z,english_402.wav,0,peel,389,30,5,4,english,m,6,0.6,2.85267641,0.43497741
5e38397719e44f0244389781,63,1,2024-02-28T14:21:06.404Z,english_402.wav,0,peel,389,30,5,4,english,m,7,0.7,-21.2400385,1.84271931
5e38397719e44f0244389781,63,1,2024-02-28T14:21:06.404Z,english_402.wav,0,peel,389,30,5,4,english,m,8,0.8,47.25195685,1.28114522
5e38397719e44f0244389781,63,1,2024-02-28T14:21:06.404Z,english_402.wav,0,peel,389,30,5,4,english,m,9,0.9,86.30516809,0.9091169
5e38397719e44f0244389781,63,1,2024-02-28T14:21:06.404Z,english_402.wav,0,peel,389,30,5,4,english,m,10,1.0,-9.29622935,1.84546322
5e38397719e44f0244389781,63,1,2024-02-28T14:21:06.404Z,english_402.wav,0,peel,389,30,5,4,english,m,11,1.09391667,3.14612385,0.72114292
5e38397719e44f0244389781,64,1,2024-02-28T14:21:06.404Z,english_696.wav,0,peel,246,30,5,4,english,m,0,0.0,80.76263908,0.91509798
5e38397719e44f0244389781,64,1,2024-02-28T14:21:06.404Z,english_696.wav,0,peel,246,30,5,4,english,m,1,0.1,-81.05122768,1.74478529
5e38397719e44f0244389781,64,1,2024-02-28T14:21:06.404Z,english_696.wav,0,peel,246,30,5,4,english,m,2,0.2,25.61500263,0.26644886
5e38397719e44f0244389781,64,1,2024-02-28T14:21:06.404Z,english_696.wav,0,peel,246,30,5,4,english,m,3,0.3,25.88663843,1.54651286
5e38397719e44f0244389781,64,1,2024-02-28T14:21:06.404Z,english_696.wav,0,peel,246,30,5,4,english,m,4,0.4,-95.94910221,0.7055337
5e38397719e44f0244389781,64,1,2024-02-28T14:21:06.404Z,english_696.wav,0,peel,246,30,5,4,english,m,5,0.5,-72.42601444,0.71467656
5e38397719e44f0244389781,64,1,2024-02-28T14:21:06.404Z,english_696.wav,0,peel,246,30,5,4,english,m,6,0.6,24.16177071,0.57693313
5e38397719e44f0244389781,64,1,2024-02-28T14:21:06.404Z,english_696.wav,0,peel,246,30,5,4,english,m,7,0.7,64.95279218,1.47925574
5e38397719e44f0244389781,64,1,2024-02-28T14:21:06.404Z,english_696.wav,0,peel,246,30,5,4,english,m,8,0.8,52.94859059,0.57583693
