subj,trial,block,date,stim,stim_order,response,rt,age,english,french,language,sex,param_index,segment,pitch,stretch
602b4e7594c5ae2908aa7f60,0,0,2024-02-28T14:36:19.117Z,english_579.wav,0,pill,3812,28,5,2,english,f,0,0.0,-6.35392527,1.17195822
602b4e7594c5ae2908aa7f60,0,0,2024-02-28T14:36:19.117Z,english_579.wav,0,pill,3812,28,5,2,english,f,1,0.1,5.78092652,1.67817047
602b4e7594c5ae2908aa7f60,0,0,2024-02-28T14:36:19.117Z,english_579.wav,0,pill,3812,28,5,2,english,f,2,0.2,55.74149698,0.96512057
602b4e7594c5ae2908aa7f60,0,0,2024-02-28T14:36:19.117Z,english_579.wav,0,pill,3812,28,5,2,english,f,3,0.3,64.66054606,0.73760998
602b4e7594c5ae2908aa7f60,0,0,2024-02-28T14:36:19.117Z,english_579.wav,0,pill,3812,28,5,2,english,f,4,0.4,-20.37343055,0.24043414
602b4e7594c5ae2908aa7f60,0,0,2024-02-28T14:36:19.117Z,english_579.wav,0,pill,3812,28,5,2,english,f,5,0.5,97.55604333,0.0297902
602b4e7594c5ae2908aa7f60,0,0,2024-02-28T14:36:19.117Z,english_579.wav,0,pill,3812,28,5,2,english,f,6,0.6,-7.40313463,0.83835869
602b4e7594c5ae2908aa7f60,0,0,2024-02-28T14:36:19.117Z,english_579.wav,0,pill,3812,28,5,2,english,f,7,0.7,-9.7199121,0.36547932
602b4e7594c5ae2908aa7f60,0,0,2024-02-28T14:36:19.117Z,english_579.wav,0,pill,3812,28,5,2,english,f,8,0.8,-43.88557754,1.0786992
602b4e7594c5ae2908aa7f60,0,0,2024-02-28T14:36:19.117Z,english_579.wav,0,pill,3812,28,5,2,english,f,9,0.9,89.28129007,1.76340712
602b4e7594c5ae2908aa7f60,0,0,2024-02-28T14:36:19.117Z,english_579.wav,0,pill,3812,28,5,2,english,f,10,1.0,21.49927336,0.94339598
602b4e7594c5ae2908aa7f60,0,0,2024-02-28T14:36:19.117Z,english_579.wav,0,pill,3812,28,5,2,english,f,11,1.09391667,85.53999973,1.1220246
602b4e7594c5ae2908aa7f60,1,0,2024-02-28T14:36:19.117Z,english_997.wav,0,peel,1951,28,5,2,english,f,0,0.0,38.46441577,1.95638345
602b4e7594c5ae2908aa7f60,1,0,2024-02-28T14:36:19.117Z,english_997.wav,0,peel,1951,28,5,2,english,f,1,0.1,47.75423334,0.16897746
602b4e7594c5ae2908aa7f60,1,0,2024-02-28T14:36:19.117Z,english_997.wav,0,peel,1951,28,5,2,english,f,2,0.2,-46.19223392,1.34564415
602b4e7594c5ae2908aa7f60,1,0,2024-02-28T14:36:19.117Z,english_997.wav,0,peel,1951,28,5,2,english,f,3,0.3,-68.42543964,0.45551636
602b4e7594c5ae2908aa7f60,1,0,2024-02-28T14:36:19.117Z,english_997.wav,0,peel,1951,28,5,2,english,f,4,0.4,-27.52590553,1.56941674
602b4e7594c5ae2908aa7f60,1,0,2024-02-28T14:36:19.117Z,english_997.wav,0,peel,1951,28,5,2,english,f,5,0.5,-32.76649905,1.12500756
602b4e7594c5ae2908aa7f60,1,0,2024-02-28T14:36:19.117Z,english_997.wav,0,peel,1951,28,5,2,english,f,6,0.6,-20.83706487,0.26907816
602b4e7594c5ae2908aa7f60,1,0,2024-02-28T14:36:19.117Z,english_997.wav,0,peel,1951,28,5,2,english,f,7,0.7,-65.74236322,0.81160179
602b4e7594c5ae2908aa7f60,1,0,2024-02-28T14:36:19.117Z,english_997.wav,0,peel,1951,28,5,2,english,f,8,0.8,-64.07813761,1.2830087
602b4e7594c5ae2908aa7f60,1,0,2024-02-28T14:36:19.117Z,english_997.wav,0,peel,1951,28,5,2,english,f,9,0.9,35.09593454,0.14193499
602b4e7594c5ae2908aa7f60,1,0,2024-02-28T14:36:19.117Z,english_997.wav,0,peel,1951,28,5,2,english,f,10,1.0,-66.65072178,1.05446727
602b4e7594c5ae2908aa7f60,1,0,2024-02-28T14:36:19.117Z,english_997.wav,0,peel,1951,28,5,2,english,f,11,1.09391667,68.83445299,0.54560652
602b4e7594c5ae2908aa7f60,2,0,2024-02-28T14:36:19.117Z,english_585.wav,0,pill,1561,28,5,2,english,f,0,0.0,-86.93944466,0.1588986
602b4e7594c5ae2908aa7f60,2,0,2024-02-28T14:36:19.117Z,english_585.wav,0,pill,1561,28,5,2,english,f,1,0.1,-97.95669785,0.38183266
602b4e7594c5ae2908aa7f60,2,0,2024-02-28T14:36:19.117Z,english_585.wav,0,pill,1561,28,5,2,english,f,2,0.2,35.19908461,0.20642212
602b4e7594c5ae2908aa7f60,2,0,2024-02-28T14:36:19.117Z,english_585.wav,0,pill,1561,28,5,2,english,f,3,0.3,66.00378301,1.21146119
602b4e7594c5ae2908aa7f60,2,0,2024-02-28T14:36:19.117Z,english_585.wav,0,pill,1561,28,5,2,english,f,4,0.4,10.9229126,0.35502735
602b4e7594c5ae2908aa7f60,2,0,2024-02-28T14:36:19.117Z,english_585.wav,0,pill,1561,28,5,2,english,f,5,0.5,72.37678619,1.56586524
602b4e7594c5ae2908aa7f60,2,0,2024-02-28T14:36:19.117Z,english_585.wav,0,pill,1561,28,5,2,english,f,6,0.6,-57.08192974,1.83214489
602b4e7594c5ae2908aa7f60,2,0,2024-02-28T14:36:19.117Z,english_585.wav,0,pill,1561,28,5,2,english,f,7,0.7,-77.39915084,0.43697271
602b4e7594c5ae2908aa7f60,2,0,2024-02-28T14:36:19.117Z,english_585.wav,0,pill,1561,28,5,2,english,f,8,0.8,38.55710496,0.35169773
602b4e7594c5ae2908aa7f60,2,0,2024-02-28T14:36:19.117Z,english_585.wav,0,pill,1561,28,5,2,english,f,9,0.9,-27.16276528,1.49983702
602b4e7594c5ae2908aa7f60,2,0,2024-02-28T14:36:19.117Z,english_585.wav,0,pill,1561,28,5,2,english,f,10,1.0,46.25769813,0.51254386
602b4e7594c5ae2908aa7f60,2,0,2024-02-28T14:36:19.117Z,english_585.wav,0,pill,1561,28,5,2,english,f,11,1.09391667,-14.18587881,0.12379544
602b4e7594c5ae2908aa7f60,3,0,2024-02-28T14:36:19.117Z,english_164.wav,0,pill,614,28,5,2,english,f,0,0.0,25.67612046,1.60368468
602b4e7594c5ae2908aa7f60,3,0,2024-02-28T14:36:19.117Z,english_164.wav,0,pill,614,28,5,2,english,f,1,0.1,-73.22421847,0.71109799
602b4e7594c5ae2908aa7f60,3,0,2024-02-28T14:36:19.117Z,english_164.wav,0,pill,614,28,5,2,english,f,2,0.2,45.60415064,0.65921899
602b4e7594c5ae2908aa7f60,3,0,2024-02-28T14:36:19.117Z,english_164.wav,0,pill,614,28,5,2,english,f,3,0.3,93.27879502,1.59053842
602b4e7594c5ae2908aa7f60,3,0,2024-02-28T14:36:19.117Z,english_164.wav,0,pill,614,28,5,2,english,f,4,0.4,33.1762566,0.71799916
602b4e7594c5ae2908aa7f60,3,0,2024-02-28T14:36:19.117Z,english_164.wav,0,pill,614,28,5,2,english,f,5,0.5,47.64320434,1.2187377
602b4e7594c5ae2908aa7f60,3,0,2024-02-28T14:36:19.117Z,english_164.wav,0,pill,614,28,5,2,english,f,6,0.6,-19.19510789,1.25318934
602b4e7594c5ae2908aa7f60,3,0,2024-02-28T14:36:19.117Z,english_164.wav,0,pill,614,28,5,2,english,f,7,0.7,-33.42680653,0.56903982
602b4e7594c5ae2908aa7f60,3,0,2024-02-28T14:36:19.117Z,english_164.wav,0,pill,614,28,5,2,english,f,8,0.8,47.71435933,0.44355463
602b4e7594c5ae2908aa7f60,3,0,2024-02-28T14:36:19.117Z,english_164.wav,0,pill,614,28,5,2,english,f,9,0.9,5.90681892,1.65481096
602b4e7594c5ae2908aa7f60,3,0,2024-02-28T14:36:19.117Z,english_164.wav,0,pill,614,28,5,2,english,f,10,1.0,42.52423942,0.56871191
602b4e7594c5ae2908aa7f60,3,0,2024-02-28T14:36:19.117Z,english_164.wav,0,pill,614,28,5,2,english,f,11,1.09391667,43.22160039,0.29440298
602b4e7594c5ae2908aa7f60,4,0,2024-02-28T14:36:19.117Z,english_486.wav,0,peel,916,28,5,2,english,f,0,0.0,14.09044268,1.6475495
602b4e7594c5ae2908aa7f60,4,0,2024-02-28T14:36:19.117Z,english_486.wav,0,peel,916,28,5,2,english,f,1,0.1,28.13825665,1.6255176
602b4e7594c5ae2908aa7f60,4,0,2024-02-28T14:36:19.117Z,english_486.wav,0,peel,916,28,5,2,english,f,2,0.2,-40.21559781,1.99682212
602b4e7594c5ae2908aa7f60,4,0,2024-02-28T14:36:19.117Z,english_486.wav,0,peel,916,28,5,2,english,f,3,0.3,9.13288013,0.39670369
602b4e7594c5ae2908aa7f60,4,0,2024-02-28T14:36:19.117Z,english_486.wav,0,peel,916,28,5,2,english,f,4,0.4,89.32859242,1.34395023
602b4e7594c5ae2908aa7f60,4,0,2024-02-28T14:36:19.117Z,english_486.wav,0,peel,916,28,5,2,english,f,5,0.5,-17.87642912,0.55691658
602b4e7594c5ae2908aa7f60,4,0,2024-02-28T14:36:19.117Z,english_486.wav,0,peel,916,28,5,2,english,f,6,0.6,80.16824269,1.45409657
602b4e7594c5ae2908aa7f60,4,0,2024-02-28T14:36:19.117Z,english_486.wav,0,peel,916,28,5,2,english,f,7,0.7,40.51786148,1.8204099
602b4e7594c5ae2908aa7f60,4,0,2024-02-28T14:36:19.117Z,english_486.wav,0,peel,916,28,5,2,english,f,8,0.8,-19.91774538,0.51861004
602b4e7594c5ae2908aa7f60,4,0,2024-02-28T14:36:19.117Z,english_486.wav,0,peel,916,28,5,2,english,f,9,0.9,-8.63425979,0.91268117
602b4e7594c5ae2908aa7f60,4,0,2024-02-28T14:36:19.117Z,english_486.wav,0,peel,916,28,5,2,english,f,10,1.0,-22.84814304,1.67784611
602b4e7594c5ae2908aa7f60,4,0,2024-02-28T14:36:19.117Z,english_486.wav,0,peel,916,28,5,2,english,f,11,1.09391667,36.71518597,0.60064436
602b4e7594c5ae2908aa7f60,5,0,2024-02-28T14:36:19.117Z,english_854.wav,0,peel,492,28,5,2,english,f,0,0.0,41.65293518,0.10243767
602b4e7594c5ae2908aa7f60,5,0,2024-02-28T14:36:19.117Z,english_854.wav,0,peel,492,28,5,2,english,f,1,0.1,12.19905505,1.22737147
602b4e7594c5ae2908aa7f60,5,0,2024-02-28T14:36:19.117Z,english_854.wav,0,peel,492,28,5,2,english,f,2,0.2,-17.7367635,0.80405871
602b4e7594c5ae2908aa7f60,5,0,2024-02-28T14:36:19.117Z,english_854.wav,0,peel,492,28,5,2,english,f,3,0.3,82.5511566,1.55191633
602b4e7594c5ae2908aa7f60,5,0,2024-02-28T14:36:19.117Z,english_854.wav,0,peel,492,28,5,2,english,f,4,0.4,24.18828857,0.00681269
602b4e7594c5ae2908aa7f60,5,0,2024-02-28T14:36:19.117Z,english_854.wav,0,peel,492,28,5,2,english,f,5,0.5,-37.78588701,1.47971367
602b4e7594c5ae2908aa7f60,5,0,2024-02-28T14:36:19.117Z,english_854.wav,0,peel,492,28,5,2,english,f,6,0.6,12.42409681,0.34468947
602b4e7594c5ae2908aa7f60,5,0,2024-02-28T14:36:19.117Z,english_854.wav,0,peel,492,28,5,2,english,f,7,0.7,-1.0486121,0.87101018
602b4e7594c5ae2908aa7f60,5,0,2024-02-28T14:36:19.117Z,english_854.wav,0,peel,492,28,5,2,english,f,8,0.8,-50.74764629,1.12590191
602b4e7594c5ae2908aa7f60,5,0,2024-02-28T14:36:19.117Z,english_854.wav,0,peel,492,28,5,2,english,f,9,0.9,-93.36344031,1.039516
602b4e7594c5ae2908aa7f60,5,0,2024-02-28T14:36:19.117Z,english_854.wav,0,peel,492,28,5,2,english,f,10,1.0,39.91763763,1.26341771
602b4e7594c5ae2908aa7f60,5,0,2024-02-28T14:36:19.117Z,english_854.wav,0,peel,492,28,5,2,english,f,11,1.09391667,-16.62780594,1.79941384
602b4e7594c5ae2908aa7f60,6,0,2024-02-28T14:36:19.117Z,english_18.wav,0,peel,492,28,5,2,english,f,0,0.0,-34.26622777,1.34360385
602b4e7594c5ae2908aa7f60,6,0,2024-02-28T14:36:19.117Z,english_18.wav,0,peel,492,28,5,2,english,f,1,0.1,-75.64955683,1.57489552
602b4e7594c5ae2908aa7f60,6,0,2024-02-28T14:36:19.117Z,english_18.wav,0,peel,492,28,5,2,english,f,2,0.2,-27.92679038,0.39363555
602b4e7594c5ae2908aa7f60,6,0,2024-02-28T14:36:19.117Z,english_18.wav,0,peel,492,28,5,2,english,f,3,0.3,-19.62027656,0.89611778
602b4e7594c5ae2908aa7f60,6,0,2024-02-28T14:36:19.117Z,english_18.wav,0,peel,492,28,5,2,english,f,4,0.4,-20.32459895,1.50747647
602b4e7594c5ae2908aa7f60,6,0,2024-02-28T14:36:19.117Z,english_18.wav,0,peel,492,28,5,2,english,f,5,0.5,0.79905947,0.43558214
602b4e7594c5ae2908aa7f60,6,0,2024-02-28T14:36:19.117Z,english_18.wav,0,peel,492,28,5,2,english,f,6,0.6,8.10958223,1.91834816
602b4e7594c5ae2908aa7f60,6,0,2024-02-28T14:36:19.117Z,english_18.wav,0,peel,492,28,5,2,english,f,7,0.7,-12.88361986,0.90012517
602b4e7594c5ae2908aa7f60,6,0,2024-02-28T14:36:19.117Z,english_18.wav,0,peel,492,28,5,2,english,f,8,0.8,74.6796053,0.69419363
602b4e7594c5ae2908aa7f60,6,0,2024-02-28T14:36:19.117Z,english_18.wav,0,peel,492,28,5,2,english,f,9,0.9,13.61359807,0.27849068
602b4e7594c5ae2908aa7f60,6,0,2024-02-28T14:36:19.117Z,english_18.wav,0,peel,492,28,5,2,english,f,10,1.0,-21.69070415,0.10490824
602b4e7594c5ae2908aa7f60,6,0,2024-02-28T14:36:19.117Z,english_18.wav,0,peel,492,28,5,2,english,f,11,1.09391667,-57.34652915,1.33460981
602b4e7594c5ae2908aa7f60,7,0,2024-02-28T14:36:19.117Z,english_552.wav,0,peel,376,28,5,2,english,f,0,0.0,24.23901763,1.612105
602b4e7594c5ae2908aa7f60,7,0,2024-02-28T14:36:19.117Z,english_552.wav,0,peel,376,28,5,2,english,f,1,0.1,-68.29569332,0.23755281
602b4e7594c5ae2908aa7f60,7,0,2024-02-28T14:36:19.117Z,english_552.wav,0,peel,376,28,5,2,english,f,2,0.2,-76.60440788,1.12644766
602b4e7594c5ae2908aa7f60,7,0,2024-02-28T14:36:19.117Z,english_552.wav,0,peel,376,28,5,2,english,f,3,0.3,-14.28309722,1.6498911
602b4e7594c5ae2908aa7f60,7,0,2024-02-28T14:36:19.117Z,english_552.wav,0,peel,376,28,5,2,english,f,4,0.4,7.45259631,1.62705162
602b4e7594c5ae2908aa7f60,7,0,2024-02-28T14:36:19.117Z,english_552.wav,0,peel,376,28,5,2,english,f,5,0.5,-96.79412631,0.02108582
602b4e7594c5ae2908aa7f60,7,0,2024-02-28T14:36:19.117Z,english_552.wav,0,peel,376,28,5,2,english,f,6,0.6,19.00121721,0.46250888
602b4e7594c5ae2908aa7f60,7,0,2024-02-28T14:36:19.117Z,english_552.wav,0,peel,376,28,5,2,english,f,7,0.7,28.47093687,0.61388361
602b4e7594c5ae2908aa7f60,7,0,2024-02-28T14:36:19.117Z,english_552.wav,0,peel,376,28,5,2,english,f,8,0.8,-28.36467118,1.42538322
602b4e7594c5ae2908aa7f60,7,0,2024-02-28T14:36:19.117Z,english_552.wav,0,peel,376,28,5,2,english,f,9,0.9,27.37810517,1.50029895
602b4e7594c5ae2908aa7f60,7,0,2024-02-28T14:36:19.117Z,english_552.wav,0,peel,376,28,5,2,english,f,10,1.0,-1.36668835,0.7956711
602b4e7594c5ae2908aa7f60,7,0,2024-02-28T14:36:19.117Z,english_552.wav,0,peel,376,28,5,2,english,f,11,1.09391667,-10.50305513,0.62245048
602b4e7594c5ae2908aa7f60,8,0,2024-02-28T14:36:19.117Z,english_368.wav,0,peel,318,28,5,2,english,f,0,0.0,-21.74410199,1.11444004
602b4e7594c5ae2908aa7f60,8,0,2024-02-28T14:36:19.117Z,english_368.wav,0,peel,318,28,5,2,english,f,1,0.1,-54.46820056,1.02689489
602b4e7594c5ae2908aa7f60,8,0,2024-02-28T14:36:19.117Z,english_368.wav,0,peel,318,28,5,2,english,f,2,0.2,36.37288824,1.84847876
602b4e7594c5ae2908aa7f60,8,0,2024-02-28T14:36:19.117Z,english_368.wav,0,peel,318,28,5,2,english,f,3,0.3,28.79669065,1.32768322
602b4e7594c5ae2908aa7f60,8,0,2024-02-28T14:36:19.117Z,english_368.wav,0,peel,318,28,5,2,english,f,4,0.4,64.63914759,1.2143292
602b4e7594c5ae2908aa7f60,8,0,2024-02-28T14:36:19.117Z,english_368.wav,0,peel,318,28,5,2,english,f,5,0.5,-47.48725989,1.4175641
602b4e7594c5ae2908aa7f60,8,0,2024-02-28T14:36:19.117Z,english_368.wav,0,peel,318,28,5,2,english,f,6,0.6,-56.63725257,0.26859899
602b4e7594c5ae2908aa7f60,8,0,2024-02-28T14:36:19.117Z,english_368.wav,0,peel,318,28,5,2,english,f,7,0.7,-15.67963737,1.20913194
602b4e7594c5ae2908aa7f60,8,0,2024-02-28T14:36:19.117Z,english_368.wav,0,peel,318,28,5,2,english,f,8,0.8,-67.03077711,0.71725489
602b4e7594c5ae2908aa7f60,8,0,2024-02-28T14:36:19.117Z,english_368.wav,0,peel,318,28,5,2,english,f,9,0.9,-87.98164929,0.61705061
602b4e7594c5ae2908aa7f60,8,0,2024-02-28T14:36:19.117Z,english_368.wav,0,peel,318,28,5,2,english,f,10,1.0,66.360443,1.87423649
602b4e7594c5ae2908aa7f60,8,0,2024-02-28T14:36:19.117Z,english_368.wav,0,peel,318,28,5,2,english,f,11,1.09391667,86.76512067,0.90814369
602b4e7594c5ae2908aa7f60,9,0,2024-02-28T14:36:19.117Z,english_978.wav,0,peel,914,28,5,2,english,f,0,0.0,-56.85728998,1.17346596
602b4e7594c5ae2908aa7f60,9,0,2024-02-28T14:36:19.117Z,english_978.wav,0,peel,914,28,5,2,english,f,1,0.1,16.43364259,0.59297783
602b4e7594c5ae2908aa7f60,9,0,2024-02-28T14:36:19.117Z,english_978.wav,0,peel,914,28,5,2,english,f,2,0.2,47.77326739,0.67016687
602b4e7594c5ae2908aa7f60,9,0,2024-02-28T14:36:19.117Z,english_978.wav,0,peel,914,28,5,2,english,f,3,0.3,94.05967356,1.98266891
602b4e7594c5ae2908aa7f60,9,0,2024-02-28T14:36:19.117Z,english_978.wav,0,peel,914,28,5,2,english,f,4,0.4,-76.48908754,0.86932432
602b4e7594c5ae2908aa7f60,9,0,2024-02-28T14:36:19.117Z,english_978.wav,0,peel,914,28,5,2,english,f,5,0.5,-47.71848611,0.89103479
602b4e7594c5ae2908aa7f60,9,0,2024-02-28T14:36:19.117Z,english_978.wav,0,peel,914,28,5,2,english,f,6,0.6,-17.07884838,1.65910536
602b4e7594c5ae2908aa7f60,9,0,2024-02-28T14:36:19.117Z,english_978.wav,0,peel,914,28,5,2,english,f,7,0.7,50.2599466,1.27682187
602b4e7594c5ae2908aa7f60,9,0,2024-02-28T14:36:19.117Z,english_978.wav,0,peel,914,28,5,2,english,f,8,0.8,83.04934383,0.051565
602b4e7594c5ae2908aa7f60,9,0,2024-02-28T14:36:19.117Z,english_978.wav,0,peel,914,28,5,2,english,f,9,0.9,-14.53932226,0.45965995
602b4e7594c5ae2908aa7f60,9,0,2024-02-28T14:36:19.117Z,english_978.wav,0,peel,914,28,5,2,english,f,10,1.0,-40.28373024,1.12972823
602b4e7594c5ae2908aa7f60,9,0,2024-02-28T14:36:19.117Z,english_978.wav,0,peel,914,28,5,2,english,f,11,1.09391667,82.58821892,1.51179451
602b4e7594c5ae2908aa7f60,10,0,2024-02-28T14:37:05.146Z,english_569.wav,0,pill,1163,28,5,2,english,f,0,0.0,80.86242067,1.33421849
602b4e7594c5ae2908aa7f60,10,0,2024-02-28T14:37:05.146Z,english_569.wav,0,pill,1163,28,5,2,english,f,1,0.1,-36.85440805,1.5057291
602b4e7594c5ae2908aa7f60,10,0,2024-02-28T14:37:05.146Z,english_569.wav,0,pill,1163,28,5,2,english,f,2,0.2,55.48604093,1.7838276
602b4e7594c5ae2908aa7f60,10,0,2024-02-28T14:37:05.146Z,english_569.wav,0,pill,1163,28,5,2,english,f,3,0.3,-32.48832212,0.34502948
602b4e7594c5ae2908aa7f60,10,0,2024-02-28T14:37:05.146Z,english_569.wav,0,pill,1163,28,5,2,english,f,4,0.4,34.47022209,1.33242051
602b4e7594c5ae2908aa7f60,10,0,2024-02-28T14:37:05.146Z,english_569.wav,0,pill,1163,28,5,2,english,f,5,0.5,23.79827115,0.68239412
602b4e7594c5ae2908aa7f60,10,0,2024-02-28T14:37:05.146Z,english_569.wav,0,pill,1163,28,5,2,english,f,6,0.6,-29.60411728,1.41145095
602b4e7594c5ae2908aa7f60,10,0,2024-02-28T14:37:05.146Z,english_569.wav,0,pill,1163,28,5,2,english,f,7,0.7,-3.34902879,0.70703372
602b4e7594c5ae2908aa7f60,10,0,2024-02-28T14:37:05.146Z,english_569.wav,0,pill,1163,28,5,2,english,f,8,0.8,-24.14207397,0.57539158
602b4e7594c5ae2908aa7f60,10,0,2024-02-28T14:37:05.146Z,english_569.wav,0,pill,1163,28,5,2,english,f,9,0.9,49.40170215,1.31553206
602b4e7594c5ae2908aa7f60,10,0,2024-02-28T14:37:05.146Z,english_569.wav,0,pill,1163,28,5,2,english,f,10,1.0,34.30113072,0.57675215
602b4e7594c5ae2908aa7f60,10,0,2024-02-28T14:37:05.146Z,english_569.wav,0,pill,1163,28,5,2,english,f,11,1.09391667,-89.06013863,1.91555697
602b4e7594c5ae2908aa7f60,11,0,2024-02-28T14:37:05.146Z,english_898.wav,0,peel,376,28,5,2,english,f,0,0.0,-34.72631164,0.55709283
602b4e7594c5ae2908aa7f60,11,0,2024-02-28T14:37:05.146Z,english_898.wav,0,peel,376,28,5,2,english,f,1,0.1,67.7212699,1.5055727
602b4e7594c5ae2908aa7f60,11,0,2024-02-28T14:37:05.146Z,english_898.wav,0,peel,376,28,5,2,english,f,2,0.2,92.06316774,1.25694743
602b4e7594c5ae2908aa7f60,11,0,2024-02-28T14:37:05.146Z,english_898.wav,0,peel,376,28,5,2,english,f,3,0.3,-76.73151606,1.78673408
602b4e7594c5ae2908aa7f60,11,0,2024-02-28T14:37:05.146Z,english_898.wav,0,peel,376,28,5,2,english,f,4,0.4,97.93920214,0.88325681
602b4e7594c5ae2908aa7f60,11,0,2024-02-28T14:37:05.146Z,english_898.wav,0,peel,376,28,5,2,english,f,5,0.5,99.11447245,1.91785586
602b4e7594c5ae2908aa7f60,11,0,2024-02-28T14:37:05.146Z,english_898.wav,0,peel,376,28,5,2,english,f,6,0.6,83.05225532,1.93702091
602b4e7594c5ae2908aa7f60,11,0,2024-02-28T14:37:05.146Z,english_898.wav,0,peel,376,28,5,2,english,f,7,0.7,-27.3520563,1.06642546
602b4e7594c5ae2908aa7f60,11,0,2024-02-28T14:37:05.146Z,english_898.wav,0,peel,376,28,5,2,english,f,8,0.8,40.20374668,1.06201677
602b4e7594c5ae2908aa7f60,11,0,2024-02-28T14:37:05.146Z,english_898.wav,0,peel,376,28,5,2,english,f,9,0.9,-11.73877097,0.68712783
602b4e7594c5ae2908aa7f60,11,0,2024-02-28T14:37:05.146Z,english_898.wav,0,peel,376,28,5,2,english,f,10,1.0,-73.8798446,0.31583941
602b4e7594c5ae2908aa7f60,11,0,2024-02-28T14:37:05.146Z,english_898.wav,0,peel,376,28,5,2,english,f,11,1.09391667,81.33954877,1.03949418
602b4e7594c5ae2908aa7f60,12,0,2024-02-28T14:37:05.146Z,english_474.wav,0,pill,359,28,5,2,english,f,0,0.0,90.33187361,1.64439586
602b4e7594c5ae2908aa7f60,12,0,2024-02-28T14:37:05.146Z,english_474.wav,0,pill,359,28,5,2,english,f,1,0.1,-6.84069755,1.97409516
602b4e7594c5ae2908aa7f60,12,0,2024-02-28T14:37:05.146Z,english_474.wav,0,pill,359,28,5,2,english,f,2,0.2,-57.72482016,1.83394357
602b4e7594c5ae2908aa7f60,12,0,2024-02-28T14:37:05.146Z,english_474.wav,0,pill,359,28,5,2,english,f,3,0.3,-31.39067157,1.91918891
602b4e7594c5ae2908aa7f60,12,0,2024-02-28T14:37:05.146Z,english_474.wav,0,pill,359,28,5,2,english,f,4,0.4,81.36101502,1.89552465
602b4e7594c5ae2908aa7f60,12,0,2024-02-28T14:37:05.146Z,english_474.wav,0,pill,359,28,5,2,english,f,5,0.5,86.28648359,1.60591709
602b4e7594c5ae2908aa7f60,12,0,2024-02-28T14:37:05.146Z,english_474.wav,0,pill,359,28,5,2,english,f,6,0.6,59.24078698,1.87570248
602b4e7594c5ae2908aa7f60,12,0,2024-02-28T14:37:05.146Z,english_474.wav,0,pill,359,28,5,2,english,f,7,0.7,83.65694144,0.05909507
602b4e7594c5ae2908aa7f60,12,0,2024-02-28T14:37:05.146Z,english_474.wav,0,pill,359,28,5,2,english,f,8,0.8,-5.88526163,0.13266254
602b4e7594c5ae2908aa7f60,12,0,2024-02-28T14:37:05.146Z,english_474.wav,0,pill,359,28,5,2,english,f,9,0.9,-0.83528638,1.2446593
602b4e7594c5ae2908aa7f60,12,0,2024-02-28T14:37:05.146Z,english_474.wav,0,pill,359,28,5,2,english,f,10,1.0,93.70431835,0.47044402
602b4e7594c5ae2908aa7f60,12,0,2024-02-28T14:37:05.146Z,english_474.wav,0,pill,359,28,5,2,english,f,11,1.09391667,-9.99550439,1.70719202
602b4e7594c5ae2908aa7f60,13,0,2024-02-28T14:37:05.146Z,english_342.wav,0,peel,144,28,5,2,english,f,0,0.0,41.55644967,0.78446862
602b4e7594c5ae2908aa7f60,13,0,2024-02-28T14:37:05.146Z,english_342.wav,0,peel,144,28,5,2,english,f,1,0.1,67.8619368,0.85565407
602b4e7594c5ae2908aa7f60,13,0,2024-02-28T14:37:05.146Z,english_342.wav,0,peel,144,28,5,2,english,f,2,0.2,-84.54944787,1.8318275
602b4e7594c5ae2908aa7f60,13,0,2024-02-28T14:37:05.146Z,english_342.wav,0,peel,144,28,5,2,english,f,3,0.3,-13.40526133,1.61118522
602b4e7594c5ae2908aa7f60,13,0,2024-02-28T14:37:05.146Z,english_342.wav,0,peel,144,28,5,2,english,f,4,0.4,84.55980061,0.75274568
602b4e7594c5ae2908aa7f60,13,0,2024-02-28T14:37:05.146Z,english_342.wav,0,peel,144,28,5,2,english,f,5,0.5,-73.66695786,0.63423277
602b4e7594c5ae2908aa7f60,13,0,2024-02-28T14:37:05.146Z,english_342.wav,0,peel,144,28,5,2,english,f,6,0.6,32.1068808,1.74871382
602b4e7594c5ae2908aa7f60,13,0,2024-02-28T14:37:05.146Z,english_342.wav,0,peel,144,28,5,2,english,f,7,0.7,96.14629479,0.40859241
602b4e7594c5ae2908aa7f60,13,0,2024-02-28T14:37:05.146Z,english_342.wav,0,peel,144,28,5,2,english,f,8,0.8,55.28291813,1.57798181
602b4e7594c5ae2908aa7f60,13,0,2024-02-28T14:37:05.146Z,english_342.wav,0,peel,144,28,5,2,english,f,9,0.9,35.51210396,1.87430569
602b4e7594c5ae2908aa7f60,13,0,2024-02-28T14:37:05.146Z,english_342.wav,0,peel,144,28,5,2,english,f,10,1.0,29.41468439,1.15438502
602b4e7594c5ae2908aa7f60,13,0,2024-02-28T14:37:05.146Z,english_342.wav,0,peel,144,28,5,2,english,f,11,1.09391667,39.84982535,1.30694685
602b4e7594c5ae2908aa7f60,14,0,2024-02-28T14:37:05.146Z,english_633.wav,0,peel,345,28,5,2,english,f,0,0.0,-29.53329055,1.81413682
602b4e7594c5ae2908aa7f60,14,0,2024-02-28T14:37:05.146Z,english_633.wav,0,peel,345,28,5,2,english,f,1,0.1,-55.17737052,1.23507598
602b4e7594c5ae2908aa7f60,14,0,2024-02-28T14:37:05.146Z,english_633.wav,0,peel,345,28,5,2,english,f,2,0.2,58.22185342,1.2508175
602b4e7594c5ae2908aa7f60,14,0,2024-02-28T14:37:05.146Z,english_633.wav,0,peel,345,28,5,2,english,f,3,0.3,-43.06637085,0.42299618
602b4e7594c5ae2908aa7f60,14,0,2024-02-28T14:37:05.146Z,english_633.wav,0,peel,345,28,5,2,english,f,4,0.4,76.59680907,0.12183449
602b4e7594c5ae2908aa7f60,14,0,2024-02-28T14:37:05.146Z,english_633.wav,0,peel,345,28,5,2,english,f,5,0.5,52.74440756,0.93446119
602b4e7594c5ae2908aa7f60,14,0,2024-02-28T14:37:05.146Z,english_633.wav,0,peel,345,28,5,2,english,f,6,0.6,-26.52378851,1.44820206
602b4e7594c5ae2908aa7f60,14,0,2024-02-28T14:37:05.146Z,english_633.wav,0,peel,345,28,5,2,english,f,7,0.7,-16.86813106,0.73029459
602b4e7594c5ae2908aa7f60,14,0,2024-02-28T14:37:05.146Z,english_633.wav,0,peel,345,28,5,2,english,f,8,0.8,7.65419617,0.16870505
602b4e7594c5ae2908aa7f60,14,0,2024-02-28T14:37:05.146Z,english_633.wav,0,peel,345,28,5,2,english,f,9,0.9,2.97223231,1.17828847
602b4e7594c5ae2908aa7f60,14,0,2024-02-28T14:37:05.146Z,english_633.wav,0,peel,345,28,5,2,english,f,10,1.0,-42.35584202,0.62674429
602b4e7594c5ae2908aa7f60,14,0,2024-02-28T14:37:05.146Z,english_633.wav,0,peel,345,28,5,2,english,f,11,1.09391667,-84.52233477,0.94849203
602b4e7594c5ae2908aa7f60,15,0,2024-02-28T14:37:05.146Z,english_510.wav,0,peel,232,28,5,2,english,f,0,0.0,-64.82277941,1.74799884
602b4e7594c5ae2908aa7f60,15,0,2024-02-28T14:37:05.146Z,english_510.wav,0,peel,232,28,5,2,english,f,1,0.1,67.50018906,1.7328265
602b4e7594c5ae2908aa7f60,15,0,2024-02-28T14:37:05.146Z,english_510.wav,0,peel,232,28,5,2,english,f,2,0.2,83.11599323,1.53243167
602b4e7594c5ae2908aa7f60,15,0,2024-02-28T14:37:05.146Z,english_510.wav,0,peel,232,28,5,2,english,f,3,0.3,-40.68058334,0.93226309
602b4e7594c5ae2908aa7f60,15,0,2024-02-28T14:37:05.146Z,english_510.wav,0,peel,232,28,5,2,english,f,4,0.4,-20.66274727,0.97994595
602b4e7594c5ae2908aa7f60,15,0,2024-02-28T14:37:05.146Z,english_510.wav,0,peel,232,28,5,2,english,f,5,0.5,57.39601347,1.11050562
602b4e7594c5ae2908aa7f60,15,0,2024-02-28T14:37:05.146Z,english_510.wav,0,peel,232,28,5,2,english,f,6,0.6,26.65395964,0.07038292
602b4e7594c5ae2908aa7f60,15,0,2024-02-28T14:37:05.146Z,english_510.wav,0,peel,232,28,5,2,english,f,7,0.7,-1.22309803,0.34804353
602b4e7594c5ae2908aa7f60,15,0,2024-02-28T14:37:05.146Z,english_510.wav,0,peel,232,28,5,2,english,f,8,0.8,91.87113136,1.43252604
602b4e7594c5ae2908aa7f60,15,0,2024-02-28T14:37:05.146Z,english_510.wav,0,peel,232,28,5,2,english,f,9,0.9,59.67411659,0.49156131
602b4e7594c5ae2908aa7f60,15,0,2024-02-28T14:37:05.146Z,english_510.wav,0,peel,232,28,5,2,english,f,10,1.0,9.25675614,0.83882448
602b4e7594c5ae2908aa7f60,15,0,2024-02-28T14:37:05.146Z,english_510.wav,0,peel,232,28,5,2,english,f,11,1.09391667,-85.2659012,1.33145629
602b4e7594c5ae2908aa7f60,16,0,2024-02-28T14:37:05.146Z,english_448.wav,0,peel,164,28,5,2,english,f,0,0.0,-36.42010561,0.75921607
602b4e7594c5ae2908aa7f60,16,0,2024-02-28T14:37:05.146Z,english_448.wav,0,peel,164,28,5,2,english,f,1,0.1,47.73001377,0.95293974
602b4e7594c5ae2908aa7f60,16,0,2024-02-28T14:37:05.146Z,english_448.wav,0,peel,164,28,5,2,english,f,2,0.2,93.59806646,0.22586708
602b4e7594c5ae2908aa7f60,16,0,2024-02-28T14:37:05.146Z,english_448.wav,0,peel,164,28,5,2,english,f,3,0.3,-71.28004739,1.48750577
602b4e7594c5ae2908aa7f60,16,0,2024-02-28T14:37:05.146Z,english_448.wav,0,peel,164,28,5,2,english,f,4,0.4,-73.37708676,0.17134927
602b4e7594c5ae2908aa7f60,16,0,2024-02-28T14:37:05.146Z,english_448.wav,0,peel,164,28,5,2,english,f,5,0.5,74.57279085,1.2791033
602b4e7594c5ae2908aa7f60,16,0,2024-02-28T14:37:05.146Z,english_448.wav,0,peel,164,28,5,2,english,f,6,0.6,93.06132311,0.73590712
602b4e7594c5ae2908aa7f60,16,0,2024-02-28T14:37:05.146Z,english_448.wav,0,peel,164,28,5,2,english,f,7,0.7,53.53303026,1.42606803
602b4e7594c5ae2908aa7f60,16,0,2024-02-28T14:37:05.146Z,english_448.wav,0,peel,164,28,5,2,english,f,8,0.8,-57.75366267,1.73700286
602b4e7594c5ae2908aa7f60,16,0,2024-02-28T14:37:05.146Z,english_448.wav,0,peel,164,28,5,2,english,f,9,0.9,-26.4449428,1.39235574
602b4e7594c5ae2908aa7f60,16,0,2024-02-28T14:37:05.146Z,english_448.wav,0,peel,164,28,5,2,english,f,10,1.0,-31.70641096,0.50787566
602b4e7594c5ae2908aa7f60,16,0,2024-02-28T14:37:05.146Z,english_448.wav,0,peel,164,28,5,2,english,f,11,1.09391667,-10.08807531,1.19414628
602b4e7594c5ae2908aa7f60,17,0,2024-02-28T14:37:05.146Z,english_851.wav,0,peel,74,28,5,2,english,f,0,0.0,-45.21125718,1.95103615
602b4e7594c5ae2908aa7f60,17,0,2024-02-28T14:37:05.146Z,english_851.wav,0,peel,74,28,5,2,english,f,1,0.1,-85.75475475,0.03053554
602b4e7594c5ae2908aa7f60,17,0,2024-02-28T14:37:05.146Z,english_851.wav,0,peel,74,28,5,2,english,f,2,0.2,-73.09455341,0.63850244
602b4e7594c5ae2908aa7f60,17,0,2024-02-28T14:37:05.146Z,english_851.wav,0,peel,74,28,5,2,english,f,3,0.3,1.17370607,0.96719068
602b4e7594c5ae2908aa7f60,17,0,2024-02-28T14:37:05.146Z,english_851.wav,0,peel,74,28,5,2,english,f,4,0.4,-11.35992748,0.02484013
602b4e7594c5ae2908aa7f60,17,0,2024-02-28T14:37:05.146Z,english_851.wav,0,peel,74,28,5,2,english,f,5,0.5,42.80073602,0.41750072
602b4e7594c5ae2908aa7f60,17,0,2024-02-28T14:37:05.146Z,english_851.wav,0,peel,74,28,5,2,english,f,6,0.6,45.07360169,1.17324743
602b4e7594c5ae2908aa7f60,17,0,2024-02-28T14:37:05.146Z,english_851.wav,0,peel,74,28,5,2,english,f,7,0.7,-42.16100478,0.99186788
602b4e7594c5ae2908aa7f60,17,0,2024-02-28T14:37:05.146Z,english_851.wav,0,peel,74,28,5,2,english,f,8,0.8,-19.59764742,1.3258141
602b4e7594c5ae2908aa7f60,17,0,2024-02-28T14:37:05.146Z,english_851.wav,0,peel,74,28,5,2,english,f,9,0.9,-56.7450747,1.2279363
602b4e7594c5ae2908aa7f60,17,0,2024-02-28T14:37:05.146Z,english_851.wav,0,peel,74,28,5,2,english,f,10,1.0,78.71604463,1.72539035
602b4e7594c5ae2908aa7f60,17,0,2024-02-28T14:37:05.146Z,english_851.wav,0,peel,74,28,5,2,english,f,11,1.09391667,96.78573361,1.236894
602b4e7594c5ae2908aa7f60,18,0,2024-02-28T14:37:05.146Z,english_226.wav,0,peel,186,28,5,2,english,f,0,0.0,98.43255035,0.1861089
602b4e7594c5ae2908aa7f60,18,0,2024-02-28T14:37:05.146Z,english_226.wav,0,peel,186,28,5,2,english,f,1,0.1,23.16871923,1.79682409
602b4e7594c5ae2908aa7f60,18,0,2024-02-28T14:37:05.146Z,english_226.wav,0,peel,186,28,5,2,english,f,2,0.2,-3.17590314,0.62264246
602b4e7594c5ae2908aa7f60,18,0,2024-02-28T14:37:05.146Z,english_226.wav,0,peel,186,28,5,2,english,f,3,0.3,99.80077362,0.77697044
602b4e7594c5ae2908aa7f60,18,0,2024-02-28T14:37:05.146Z,english_226.wav,0,peel,186,28,5,2,english,f,4,0.4,-24.84472991,0.40647993
602b4e7594c5ae2908aa7f60,18,0,2024-02-28T14:37:05.146Z,english_226.wav,0,peel,186,28,5,2,english,f,5,0.5,-71.24957961,0.2976559
602b4e7594c5ae2908aa7f60,18,0,2024-02-28T14:37:05.146Z,english_226.wav,0,peel,186,28,5,2,english,f,6,0.6,65.30269432,1.34176321
602b4e7594c5ae2908aa7f60,18,0,2024-02-28T14:37:05.146Z,english_226.wav,0,peel,186,28,5,2,english,f,7,0.7,72.52720516,1.5087957
602b4e7594c5ae2908aa7f60,18,0,2024-02-28T14:37:05.146Z,english_226.wav,0,peel,186,28,5,2,english,f,8,0.8,-90.19894531,1.69033096
602b4e7594c5ae2908aa7f60,18,0,2024-02-28T14:37:05.146Z,english_226.wav,0,peel,186,28,5,2,english,f,9,0.9,11.74226894,0.35382167
602b4e7594c5ae2908aa7f60,18,0,2024-02-28T14:37:05.146Z,english_226.wav,0,peel,186,28,5,2,english,f,10,1.0,-32.60755552,1.3177586
602b4e7594c5ae2908aa7f60,18,0,2024-02-28T14:37:05.146Z,english_226.wav,0,peel,186,28,5,2,english,f,11,1.09391667,10.41380533,0.38575288
602b4e7594c5ae2908aa7f60,19,0,2024-02-28T14:37:05.146Z,english_550.wav,0,peel,152,28,5,2,english,f,0,0.0,85.56762679,1.30256716
602b4e7594c5ae2908aa7f60,19,0,2024-02-28T14:37:05.146Z,english_550.wav,0,peel,152,28,5,2,english,f,1,0.1,-46.94203093,1.73510164
602b4e7594c5ae2908aa7f60,19,0,2024-02-28T14:37:05.146Z,english_550.wav,0,peel,152,28,5,2,english,f,2,0.2,10.19407412,0.89036326
602b4e7594c5ae2908aa7f60,19,0,2024-02-28T14:37:05.146Z,english_550.wav,0,peel,152,28,5,2,english,f,3,0.3,1.47506103,0.09950504
602b4e7594c5ae2908aa7f60,19,0,2024-02-28T14:37:05.146Z,english_550.wav,0,peel,152,28,5,2,english,f,4,0.4,18.20902046,0.7123978
602b4e7594c5ae2908aa7f60,19,0,2024-02-28T14:37:05.146Z,english_550.wav,0,peel,152,28,5,2,english,f,5,0.5,-9.07211541,0.78286675
602b4e7594c5ae2908aa7f60,19,0,2024-02-28T14:37:05.146Z,english_550.wav,0,peel,152,28,5,2,english,f,6,0.6,68.24492246,1.57257447
602b4e7594c5ae2908aa7f60,19,0,2024-02-28T14:37:05.146Z,english_550.wav,0,peel,152,28,5,2,english,f,7,0.7,-55.39194289,0.50906814
602b4e7594c5ae2908aa7f60,19,0,2024-02-28T14:37:05.146Z,english_550.wav,0,peel,152,28,5,2,english,f,8,0.8,17.18108307,0.32905773
602b4e7594c5ae2908aa7f60,19,0,2024-02-28T14:37:05.146Z,english_550.wav,0,peel,152,28,5,2,english,f,9,0.9,23.42877298,1.19492705
602b4e7594c5ae2908aa7f60,19,0,2024-02-28T14:37:05.146Z,english_550.wav,0,peel,152,28,5,2,english,f,10,1.0,2.91525796,1.53585055
602b4e7594c5ae2908aa7f60,19,0,2024-02-28T14:37:05.146Z,english_550.wav,0,peel,152,28,5,2,english,f,11,1.09391667,84.75217651,0.16869385
602b4e7594c5ae2908aa7f60,20,0,2024-02-28T14:37:05.146Z,english_124.wav,0,peel,99,28,5,2,english,f,0,0.0,5.35510852,0.99413203
602b4e7594c5ae2908aa7f60,20,0,2024-02-28T14:37:05.146Z,english_124.wav,0,peel,99,28,5,2,english,f,1,0.1,82.22763866,0.35886786
602b4e7594c5ae2908aa7f60,20,0,2024-02-28T14:37:05.146Z,english_124.wav,0,peel,99,28,5,2,english,f,2,0.2,78.44526729,0.68901736
602b4e7594c5ae2908aa7f60,20,0,2024-02-28T14:37:05.146Z,english_124.wav,0,peel,99,28,5,2,english,f,3,0.3,-3.07690156,1.32582542
602b4e7594c5ae2908aa7f60,20,0,2024-02-28T14:37:05.146Z,english_124.wav,0,peel,99,28,5,2,english,f,4,0.4,-26.87127611,1.93650033
602b4e7594c5ae2908aa7f60,20,0,2024-02-28T14:37:05.146Z,english_124.wav,0,peel,99,28,5,2,english,f,5,0.5,-1.1256219,1.64621245
602b4e7594c5ae2908aa7f60,20,0,2024-02-28T14:37:05.146Z,english_124.wav,0,peel,99,28,5,2,english,f,6,0.6,-86.86575837,1.68793936
602b4e7594c5ae2908aa7f60,20,0,2024-02-28T14:37:05.146Z,english_124.wav,0,peel,99,28,5,2,english,f,7,0.7,73.06997556,1.14468764
602b4e7594c5ae2908aa7f60,20,0,2024-02-28T14:37:05.146Z,english_124.wav,0,peel,99,28,5,2,english,f,8,0.8,48.90999268,1.13594555
602b4e7594c5ae2908aa7f60,20,0,2024-02-28T14:37:05.146Z,english_124.wav,0,peel,99,28,5,2,english,f,9,0.9,52.65203742,0.473778
602b4e7594c5ae2908aa7f60,20,0,2024-02-28T14:37:05.146Z,english_124.wav,0,peel,99,28,5,2,english,f,10,1.0,-49.74668146,1.84215607
602b4e7594c5ae2908aa7f60,20,0,2024-02-28T14:37:05.146Z,english_124.wav,0,peel,99,28,5,2,english,f,11,1.09391667,-71.87075445,0.96391319
602b4e7594c5ae2908aa7f60,21,0,2024-02-28T14:37:05.146Z,english_625.wav,0,peel,139,28,5,2,english,f,0,0.0,75.82886559,1.22123306
602b4e7594c5ae2908aa7f60,21,0,2024-02-28T14:37:05.146Z,english_625.wav,0,peel,139,28,5,2,english,f,1,0.1,-13.96041742,1.75348863
602b4e7594c5ae2908aa7f60,21,0,2024-02-28T14:37:05.146Z,english_625.wav,0,peel,139,28,5,2,english,f,2,0.2,-35.92753512,0.4897572
602b4e7594c5ae2908aa7f60,21,0,2024-02-28T14:37:05.146Z,english_625.wav,0,peel,139,28,5,2,english,f,3,0.3,40.25912686,1.96593999
602b4e7594c5ae2908aa7f60,21,0,2024-02-28T14:37:05.146Z,english_625.wav,0,peel,139,28,5,2,english,f,4,0.4,50.45257654,1.18887939
602b4e7594c5ae2908aa7f60,21,0,2024-02-28T14:37:05.146Z,english_625.wav,0,peel,139,28,5,2,english,f,5,0.5,85.69312188,0.25611648
602b4e7594c5ae2908aa7f60,21,0,2024-02-28T14:37:05.146Z,english_625.wav,0,peel,139,28,5,2,english,f,6,0.6,13.47564488,0.63493032
602b4e7594c5ae2908aa7f60,21,0,2024-02-28T14:37:05.146Z,english_625.wav,0,peel,139,28,5,2,english,f,7,0.7,-67.08587609,1.56113018
602b4e7594c5ae2908aa7f60,21,0,2024-02-28T14:37:05.146Z,english_625.wav,0,peel,139,28,5,2,english,f,8,0.8,-13.59943795,0.9635469
602b4e7594c5ae2908aa7f60,21,0,2024-02-28T14:37:05.146Z,english_625.wav,0,peel,139,28,5,2,english,f,9,0.9,48.64664173,1.37605444
602b4e7594c5ae2908aa7f60,21,0,2024-02-28T14:37:05.146Z,english_625.wav,0,peel,139,28,5,2,english,f,10,1.0,12.19725268,1.05458302
602b4e7594c5ae2908aa7f60,21,0,2024-02-28T14:37:05.146Z,english_625.wav,0,peel,139,28,5,2,english,f,11,1.09391667,29.4760152,1.34022417
602b4e7594c5ae2908aa7f60,22,0,2024-02-28T14:37:05.146Z,english_274.wav,0,peel,195,28,5,2,english,f,0,0.0,90.15852298,1.09879686
602b4e7594c5ae2908aa7f60,22,0,2024-02-28T14:37:05.146Z,english_274.wav,0,peel,195,28,5,2,english,f,1,0.1,54.46178194,1.93033732
602b4e7594c5ae2908aa7f60,22,0,2024-02-28T14:37:05.146Z,english_274.wav,0,peel,195,28,5,2,english,f,2,0.2,92.29787974,1.35119606
602b4e7594c5ae2908aa7f60,22,0,2024-02-28T14:37:05.146Z,english_274.wav,0,peel,195,28,5,2,english,f,3,0.3,56.79856413,1.49147937
602b4e7594c5ae2908aa7f60,22,0,2024-02-28T14:37:05.146Z,english_274.wav,0,peel,195,28,5,2,english,f,4,0.4,6.80655331,1.75081802
602b4e7594c5ae2908aa7f60,22,0,2024-02-28T14:37:05.146Z,english_274.wav,0,peel,195,28,5,2,english,f,5,0.5,85.98039627,0.26277184
602b4e7594c5ae2908aa7f60,22,0,2024-02-28T14:37:05.146Z,english_274.wav,0,peel,195,28,5,2,english,f,6,0.6,79.54748497,1.06227003
602b4e7594c5ae2908aa7f60,22,0,2024-02-28T14:37:05.146Z,english_274.wav,0,peel,195,28,5,2,english,f,7,0.7,-50.26158779,0.06438964
602b4e7594c5ae2908aa7f60,22,0,2024-02-28T14:37:05.146Z,english_274.wav,0,peel,195,28,5,2,english,f,8,0.8,46.33910856,0.88741243
602b4e7594c5ae2908aa7f60,22,0,2024-02-28T14:37:05.146Z,english_274.wav,0,peel,195,28,5,2,english,f,9,0.9,-52.2237302,0.12141514
602b4e7594c5ae2908aa7f60,22,0,2024-02-28T14:37:05.146Z,english_274.wav,0,peel,195,28,5,2,english,f,10,1.0,14.53688649,1.07853955
602b4e7594c5ae2908aa7f60,22,0,2024-02-28T14:37:05.146Z,english_274.wav,0,peel,195,28,5,2,english,f,11,1.09391667,26.74527789,0.24561082
602b4e7594c5ae2908aa7f60,23,0,2024-02-28T14:37:05.146Z,english_258.wav,0,peel,178,28,5,2,english,f,0,0.0,25.58821978,1.29707378
602b4e7594c5ae2908aa7f60,23,0,2024-02-28T14:37:05.146Z,english_258.wav,0,peel,178,28,5,2,english,f,1,0.1,7.03087627,0.49566701
602b4e7594c5ae2908aa7f60,23,0,2024-02-28T14:37:05.146Z,english_258.wav,0,peel,178,28,5,2,english,f,2,0.2,-15.91116386,0.43385518
602b4e7594c5ae2908aa7f60,23,0,2024-02-28T14:37:05.146Z,english_258.wav,0,peel,178,28,5,2,english,f,3,0.3,-10.18288773,0.30166849
602b4e7594c5ae2908aa7f60,23,0,2024-02-28T14:37:05.146Z,english_258.wav,0,peel,178,28,5,2,english,f,4,0.4,-1.03622481,0.40418484
602b4e7594c5ae2908aa7f60,23,0,2024-02-28T14:37:05.146Z,english_258.wav,0,peel,178,28,5,2,english,f,5,0.5,7.08237834,0.97614875
602b4e7594c5ae2908aa7f60,23,0,2024-02-28T14:37:05.146Z,english_258.wav,0,peel,178,28,5,2,english,f,6,0.6,-65.85616389,0.50782257
602b4e7594c5ae2908aa7f60,23,0,2024-02-28T14:37:05.146Z,english_258.wav,0,peel,178,28,5,2,english,f,7,0.7,61.11432003,1.26334363
602b4e7594c5ae2908aa7f60,23,0,2024-02-28T14:37:05.146Z,english_258.wav,0,peel,178,28,5,2,english,f,8,0.8,62.35570806,1.6928405
602b4e7594c5ae2908aa7f60,23,0,2024-02-28T14:37:05.146Z,english_258.wav,0,peel,178,28,5,2,english,f,9,0.9,64.93681849,1.97714506
602b4e7594c5ae2908aa7f60,23,0,2024-02-28T14:37:05.146Z,english_258.wav,0,peel,178,28,5,2,english,f,10,1.0,-37.74920533,1.10059348
602b4e7594c5ae2908aa7f60,23,0,2024-02-28T14:37:05.146Z,english_258.wav,0,peel,178,28,5,2,english,f,11,1.09391667,-81.90690998,1.23409369
602b4e7594c5ae2908aa7f60,24,0,2024-02-28T14:37:05.146Z,english_512.wav,0,pill,419,28,5,2,english,f,0,0.0,-23.56559233,0.34737706
602b4e7594c5ae2908aa7f60,24,0,2024-02-28T14:37:05.146Z,english_512.wav,0,pill,419,28,5,2,english,f,1,0.1,44.15406219,1.80415703
602b4e7594c5ae2908aa7f60,24,0,2024-02-28T14:37:05.146Z,english_512.wav,0,pill,419,28,5,2,english,f,2,0.2,90.2297784,1.77401658
602b4e7594c5ae2908aa7f60,24,0,2024-02-28T14:37:05.146Z,english_512.wav,0,pill,419,28,5,2,english,f,3,0.3,31.62400251,0.80962243
602b4e7594c5ae2908aa7f60,24,0,2024-02-28T14:37:05.146Z,english_512.wav,0,pill,419,28,5,2,english,f,4,0.4,-71.52797272,0.21525837
602b4e7594c5ae2908aa7f60,24,0,2024-02-28T14:37:05.146Z,english_512.wav,0,pill,419,28,5,2,english,f,5,0.5,-17.92560707,0.09930304
602b4e7594c5ae2908aa7f60,24,0,2024-02-28T14:37:05.146Z,english_512.wav,0,pill,419,28,5,2,english,f,6,0.6,78.14138422,0.93763429
602b4e7594c5ae2908aa7f60,24,0,2024-02-28T14:37:05.146Z,english_512.wav,0,pill,419,28,5,2,english,f,7,0.7,-0.55474778,0.07747984
602b4e7594c5ae2908aa7f60,24,0,2024-02-28T14:37:05.146Z,english_512.wav,0,pill,419,28,5,2,english,f,8,0.8,-0.96763975,1.28799801
602b4e7594c5ae2908aa7f60,24,0,2024-02-28T14:37:05.146Z,english_512.wav,0,pill,419,28,5,2,english,f,9,0.9,18.83454105,0.32721238
602b4e7594c5ae2908aa7f60,24,0,2024-02-28T14:37:05.146Z,english_512.wav,0,pill,419,28,5,2,english,f,10,1.0,3.09463475,0.68607536
602b4e7594c5ae2908aa7f60,24,0,2024-02-28T14:37:05.146Z,english_512.wav,0,pill,419,28,5,2,english,f,11,1.09391667,65.7955852,1.62840549
602b4e7594c5ae2908aa7f60,25,0,2024-02-28T14:37:05.146Z,english_747.wav,0,pill,1086,28,5,2,english,f,0,0.0,33.9885207,1.47964533
602b4e7594c5ae2908aa7f60,25,0,2024-02-28T14:37:05.146Z,english_747.wav,0,pill,1086,28,5,2,english,f,1,0.1,-71.14283381,1.57695323
602b4e7594c5ae2908aa7f60,25,0,2024-02-28T14:37:05.146Z,english_747.wav,0,pill,1086,28,5,2,english,f,2,0.2,-52.52906762,1.13707985
602b4e7594c5ae2908aa7f60,25,0,2024-02-28T14:37:05.146Z,english_747.wav,0,pill,1086,28,5,2,english,f,3,0.3,79.5756924,1.65073603
602b4e7594c5ae2908aa7f60,25,0,2024-02-28T14:37:05.146Z,english_747.wav,0,pill,1086,28,5,2,english,f,4,0.4,-13.30932063,0.47172054
602b4e7594c5ae2908aa7f60,25,0,2024-02-28T14:37:05.146Z,english_747.wav,0,pill,1086,28,5,2,english,f,5,0.5,25.54535415,1.37786003
602b4e7594c5ae2908aa7f60,25,0,2024-02-28T14:37:05.146Z,english_747.wav,0,pill,1086,28,5,2,english,f,6,0.6,8.02344494,1.58889604
602b4e7594c5ae2908aa7f60,25,0,2024-02-28T14:37:05.146Z,english_747.wav,0,pill,1086,28,5,2,english,f,7,0.7,-38.13543806,1.29683876
602b4e7594c5ae2908aa7f60,25,0,2024-02-28T14:37:05.146Z,english_747.wav,0,pill,1086,28,5,2,english,f,8,0.8,22.33599648,1.65514229
602b4e7594c5ae2908aa7f60,25,0,2024-02-28T14:37:05.146Z,english_747.wav,0,pill,1086,28,5,2,english,f,9,0.9,-26.77712134,1.18735968
602b4e7594c5ae2908aa7f60,25,0,2024-02-28T14:37:05.146Z,english_747.wav,0,pill,1086,28,5,2,english,f,10,1.0,-6.09351927,1.37962036
602b4e7594c5ae2908aa7f60,25,0,2024-02-28T14:37:05.146Z,english_747.wav,0,pill,1086,28,5,2,english,f,11,1.09391667,43.23579595,1.3791581
602b4e7594c5ae2908aa7f60,26,0,2024-02-28T14:37:05.146Z,english_188.wav,0,pill,674,28,5,2,english,f,0,0.0,-44.78438497,0.94710117
602b4e7594c5ae2908aa7f60,26,0,2024-02-28T14:37:05.146Z,english_188.wav,0,pill,674,28,5,2,english,f,1,0.1,-59.64362525,0.96413905
602b4e7594c5ae2908aa7f60,26,0,2024-02-28T14:37:05.146Z,english_188.wav,0,pill,674,28,5,2,english,f,2,0.2,-64.08533898,0.84840618
602b4e7594c5ae2908aa7f60,26,0,2024-02-28T14:37:05.146Z,english_188.wav,0,pill,674,28,5,2,english,f,3,0.3,-29.1378116,0.37627617
602b4e7594c5ae2908aa7f60,26,0,2024-02-28T14:37:05.146Z,english_188.wav,0,pill,674,28,5,2,english,f,4,0.4,-4.14868477,1.62621942
602b4e7594c5ae2908aa7f60,26,0,2024-02-28T14:37:05.146Z,english_188.wav,0,pill,674,28,5,2,english,f,5,0.5,-61.00737987,0.44747201
602b4e7594c5ae2908aa7f60,26,0,2024-02-28T14:37:05.146Z,english_188.wav,0,pill,674,28,5,2,english,f,6,0.6,61.72468412,0.51555254
602b4e7594c5ae2908aa7f60,26,0,2024-02-28T14:37:05.146Z,english_188.wav,0,pill,674,28,5,2,english,f,7,0.7,91.61563335,1.97040932
602b4e7594c5ae2908aa7f60,26,0,2024-02-28T14:37:05.146Z,english_188.wav,0,pill,674,28,5,2,english,f,8,0.8,-69.21450223,0.35468899
602b4e7594c5ae2908aa7f60,26,0,2024-02-28T14:37:05.146Z,english_188.wav,0,pill,674,28,5,2,english,f,9,0.9,55.80681999,1.42342949
602b4e7594c5ae2908aa7f60,26,0,2024-02-28T14:37:05.146Z,english_188.wav,0,pill,674,28,5,2,english,f,10,1.0,-13.47812759,1.23724986
602b4e7594c5ae2908aa7f60,26,0,2024-02-28T14:37:05.146Z,english_188.wav,0,pill,674,28,5,2,english,f,11,1.09391667,47.39616925,0.05613364
602b4e7594c5ae2908aa7f60,27,0,2024-02-28T14:37:05.146Z,english_102.wav,0,pill,1234,28,5,2,english,f,0,0.0,63.84613738,0.68072363
602b4e7594c5ae2908aa7f60,27,0,2024-02-28T14:37:05.146Z,english_102.wav,0,pill,1234,28,5,2,english,f,1,0.1,-19.50774511,0.78322964
602b4e7594c5ae2908aa7f60,27,0,2024-02-28T14:37:05.146Z,english_102.wav,0,pill,1234,28,5,2,english,f,2,0.2,8.66527759,1.38231374
602b4e7594c5ae2908aa7f60,27,0,2024-02-28T14:37:05.146Z,english_102.wav,0,pill,1234,28,5,2,english,f,3,0.3,11.48698438,0.72244783
602b4e7594c5ae2908aa7f60,27,0,2024-02-28T14:37:05.146Z,english_102.wav,0,pill,1234,28,5,2,english,f,4,0.4,31.94885704,0.35985071
602b4e7594c5ae2908aa7f60,27,0,2024-02-28T14:37:05.146Z,english_102.wav,0,pill,1234,28,5,2,english,f,5,0.5,-38.92668569,0.73914497
602b4e7594c5ae2908aa7f60,27,0,2024-02-28T14:37:05.146Z,english_102.wav,0,pill,1234,28,5,2,english,f,6,0.6,-49.51123853,1.62389413
602b4e7594c5ae2908aa7f60,27,0,2024-02-28T14:37:05.146Z,english_102.wav,0,pill,1234,28,5,2,english,f,7,0.7,61.27640526,1.34969733
602b4e7594c5ae2908aa7f60,27,0,2024-02-28T14:37:05.146Z,english_102.wav,0,pill,1234,28,5,2,english,f,8,0.8,-26.83244911,0.03321173
602b4e7594c5ae2908aa7f60,27,0,2024-02-28T14:37:05.146Z,english_102.wav,0,pill,1234,28,5,2,english,f,9,0.9,49.29328507,0.74119752
602b4e7594c5ae2908aa7f60,27,0,2024-02-28T14:37:05.146Z,english_102.wav,0,pill,1234,28,5,2,english,f,10,1.0,88.72427416,0.40516815
602b4e7594c5ae2908aa7f60,27,0,2024-02-28T14:37:05.146Z,english_102.wav,0,pill,1234,28,5,2,english,f,11,1.09391667,44.23475018,1.39286308
602b4e7594c5ae2908aa7f60,28,0,2024-02-28T14:37:05.146Z,english_128.wav,0,peel,542,28,5,2,english,f,0,0.0,-22.61942611,1.66721471
602b4e7594c5ae2908aa7f60,28,0,2024-02-28T14:37:05.146Z,english_128.wav,0,peel,542,28,5,2,english,f,1,0.1,68.41227715,1.06525369
602b4e7594c5ae2908aa7f60,28,0,2024-02-28T14:37:05.146Z,english_128.wav,0,peel,542,28,5,2,english,f,2,0.2,-54.10958419,1.55278382
602b4e7594c5ae2908aa7f60,28,0,2024-02-28T14:37:05.146Z,english_128.wav,0,peel,542,28,5,2,english,f,3,0.3,-34.3976761,1.27447121
602b4e7594c5ae2908aa7f60,28,0,2024-02-28T14:37:05.146Z,english_128.wav,0,peel,542,28,5,2,english,f,4,0.4,-80.35189368,1.24533025
602b4e7594c5ae2908aa7f60,28,0,2024-02-28T14:37:05.146Z,english_128.wav,0,peel,542,28,5,2,english,f,5,0.5,-23.21922247,0.40128709
602b4e7594c5ae2908aa7f60,28,0,2024-02-28T14:37:05.146Z,english_128.wav,0,peel,542,28,5,2,english,f,6,0.6,75.93285278,1.08908342
602b4e7594c5ae2908aa7f60,28,0,2024-02-28T14:37:05.146Z,english_128.wav,0,peel,542,28,5,2,english,f,7,0.7,-25.01230628,1.52248699
602b4e7594c5ae2908aa7f60,28,0,2024-02-28T14:37:05.146Z,english_128.wav,0,peel,542,28,5,2,english,f,8,0.8,23.78207095,1.64911831
602b4e7594c5ae2908aa7f60,28,0,2024-02-28T14:37:05.146Z,english_128.wav,0,peel,542,28,5,2,english,f,9,0.9,-74.87827882,0.03473392
602b4e7594c5ae2908aa7f60,28,0,2024-02-28T14:37:05.146Z,english_128.wav,0,peel,542,28,5,2,english,f,10,1.0,74.39346852,1.99892406
602b4e7594c5ae2908aa7f60,28,0,2024-02-28T14:37:05.146Z,english_128.wav,0,peel,542,28,5,2,english,f,11,1.09391667,30.71976897,1.56565298
602b4e7594c5ae2908aa7f60,29,0,2024-02-28T14:37:05.146Z,english_326.wav,0,peel,189,28,5,2,english,f,0,0.0,-43.10917618,0.92818159
602b4e7594c5ae2908aa7f60,29,0,2024-02-28T14:37:05.146Z,english_326.wav,0,peel,189,28,5,2,english,f,1,0.1,51.71010142,0.32622589
602b4e7594c5ae2908aa7f60,29,0,2024-02-28T14:37:05.146Z,english_326.wav,0,peel,189,28,5,2,english,f,2,0.2,-51.98898793,0.25183357
602b4e7594c5ae2908aa7f60,29,0,2024-02-28T14:37:05.146Z,english_326.wav,0,peel,189,28,5,2,english,f,3,0.3,-88.25420689,0.15547956
602b4e7594c5ae2908aa7f60,29,0,2024-02-28T14:37:05.146Z,english_326.wav,0,peel,189,28,5,2,english,f,4,0.4,-29.81917635,0.54551317
602b4e7594c5ae2908aa7f60,29,0,2024-02-28T14:37:05.146Z,english_326.wav,0,peel,189,28,5,2,english,f,5,0.5,-40.02564907,0.579881
602b4e7594c5ae2908aa7f60,29,0,2024-02-28T14:37:05.146Z,english_326.wav,0,peel,189,28,5,2,english,f,6,0.6,-80.61031076,0.72251342
602b4e7594c5ae2908aa7f60,29,0,2024-02-28T14:37:05.146Z,english_326.wav,0,peel,189,28,5,2,english,f,7,0.7,27.73097561,1.44758164
602b4e7594c5ae2908aa7f60,29,0,2024-02-28T14:37:05.146Z,english_326.wav,0,peel,189,28,5,2,english,f,8,0.8,86.25406042,1.07961509
602b4e7594c5ae2908aa7f60,29,0,2024-02-28T14:37:05.146Z,english_326.wav,0,peel,189,28,5,2,english,f,9,0.9,-98.97965016,1.11677138
602b4e7594c5ae2908aa7f60,29,0,2024-02-28T14:37:05.146Z,english_326.wav,0,peel,189,28,5,2,english,f,10,1.0,-32.16564668,0.90130016
602b4e7594c5ae2908aa7f60,29,0,2024-02-28T14:37:05.146Z,english_326.wav,0,peel,189,28,5,2,english,f,11,1.09391667,-99.19861207,0.29135461
602b4e7594c5ae2908aa7f60,30,0,2024-02-28T14:37:05.146Z,english_288.wav,0,peel,152,28,5,2,english,f,0,0.0,-10.61246008,0.04412775
602b4e7594c5ae2908aa7f60,30,0,2024-02-28T14:37:05.146Z,english_288.wav,0,peel,152,28,5,2,english,f,1,0.1,-77.3112588,0.21847975
602b4e7594c5ae2908aa7f60,30,0,2024-02-28T14:37:05.146Z,english_288.wav,0,peel,152,28,5,2,english,f,2,0.2,12.30562344,1.50294944
602b4e7594c5ae2908aa7f60,30,0,2024-02-28T14:37:05.146Z,english_288.wav,0,peel,152,28,5,2,english,f,3,0.3,-36.70742639,1.12595953
602b4e7594c5ae2908aa7f60,30,0,2024-02-28T14:37:05.146Z,english_288.wav,0,peel,152,28,5,2,english,f,4,0.4,41.04793924,1.62688255
602b4e7594c5ae2908aa7f60,30,0,2024-02-28T14:37:05.146Z,english_288.wav,0,peel,152,28,5,2,english,f,5,0.5,-35.19832077,1.25280317
602b4e7594c5ae2908aa7f60,30,0,2024-02-28T14:37:05.146Z,english_288.wav,0,peel,152,28,5,2,english,f,6,0.6,-67.76212828,1.61760302
602b4e7594c5ae2908aa7f60,30,0,2024-02-28T14:37:05.146Z,english_288.wav,0,peel,152,28,5,2,english,f,7,0.7,-31.76962834,1.08014254
602b4e7594c5ae2908aa7f60,30,0,2024-02-28T14:37:05.146Z,english_288.wav,0,peel,152,28,5,2,english,f,8,0.8,52.35478753,0.46218832
602b4e7594c5ae2908aa7f60,30,0,2024-02-28T14:37:05.146Z,english_288.wav,0,peel,152,28,5,2,english,f,9,0.9,-75.48042215,1.57844793
602b4e7594c5ae2908aa7f60,30,0,2024-02-28T14:37:05.146Z,english_288.wav,0,peel,152,28,5,2,english,f,10,1.0,62.21198268,0.42631449
602b4e7594c5ae2908aa7f60,30,0,2024-02-28T14:37:05.146Z,english_288.wav,0,peel,152,28,5,2,english,f,11,1.09391667,-19.37131538,1.42176412
602b4e7594c5ae2908aa7f60,31,0,2024-02-28T14:37:05.146Z,english_436.wav,0,peel,778,28,5,2,english,f,0,0.0,-5.79676766,0.51982844
602b4e7594c5ae2908aa7f60,31,0,2024-02-28T14:37:05.146Z,english_436.wav,0,peel,778,28,5,2,english,f,1,0.1,-7.88979016,1.6050725
602b4e7594c5ae2908aa7f60,31,0,2024-02-28T14:37:05.146Z,english_436.wav,0,peel,778,28,5,2,english,f,2,0.2,-30.02673636,1.59647027
602b4e7594c5ae2908aa7f60,31,0,2024-02-28T14:37:05.146Z,english_436.wav,0,peel,778,28,5,2,english,f,3,0.3,10.91379363,1.97742112
602b4e7594c5ae2908aa7f60,31,0,2024-02-28T14:37:05.146Z,english_436.wav,0,peel,778,28,5,2,english,f,4,0.4,1.79762369,1.85601804
602b4e7594c5ae2908aa7f60,31,0,2024-02-28T14:37:05.146Z,english_436.wav,0,peel,778,28,5,2,english,f,5,0.5,73.94991314,1.38993988
602b4e7594c5ae2908aa7f60,31,0,2024-02-28T14:37:05.146Z,english_436.wav,0,peel,778,28,5,2,english,f,6,0.6,77.03109361,1.43065154
602b4e7594c5ae2908aa7f60,31,0,2024-02-28T14:37:05.146Z,english_436.wav,0,peel,778,28,5,2,english,f,7,0.7,-48.27841607,0.14937688
602b4e7594c5ae2908aa7f60,31,0,2024-02-28T14:37:05.146Z,english_436.wav,0,peel,778,28,5,2,english,f,8,0.8,57.26579501,1.65528817
602b4e7594c5ae2908aa7f60,31,0,2024-02-28T14:37:05.146Z,english_436.wav,0,peel,778,28,5,2,english,f,9,0.9,-80.56784579,1.0202375
602b4e7594c5ae2908aa7f60,31,0,2024-02-28T14:37:05.146Z,english_436.wav,0,peel,778,28,5,2,english,f,10,1.0,64.74546515,1.82414723
602b4e7594c5ae2908aa7f60,31,0,2024-02-28T14:37:05.146Z,english_436.wav,0,peel,778,28,5,2,english,f,11,1.09391667,5.24901362,1.00971458
602b4e7594c5ae2908aa7f60,32,0,2024-02-28T14:37:05.146Z,english_201.wav,0,peel,178,28,5,2,english,f,0,0.0,38.80737773,0.9006916
602b4e7594c5ae2908aa7f60,32,0,2024-02-28T14:37:05.146Z,english_201.wav,0,peel,178,28,5,2,english,f,1,0.1,-19.59989916,0.40577957
602b4e7594c5ae2908aa7f60,32,0,2024-02-28T14:37:05.146Z,english_201.wav,0,peel,178,28,5,2,english,f,2,0.2,66.60738163,0.32844259
602b4e7594c5ae2908aa7f60,32,0,2024-02-28T14:37:05.146Z,english_201.wav,0,peel,178,28,5,2,english,f,3,0.3,-56.04483053,1.02628552
602b4e7594c5ae2908aa7f60,32,0,2024-02-28T14:37:05.146Z,english_201.wav,0,peel,178,28,5,2,english,f,4,0.4,70.74519799,1.24548515
602b4e7594c5ae2908aa7f60,32,0,2024-02-28T14:37:05.146Z,english_201.wav,0,peel,178,28,5,2,english,f,5,0.5,-47.08782515,0.07505998
602b4e7594c5ae2908aa7f60,32,0,2024-02-28T14:37:05.146Z,english_201.wav,0,peel,178,28,5,2,english,f,6,0.6,-82.17312899,0.1226459
602b4e7594c5ae2908aa7f60,32,0,2024-02-28T14:37:05.146Z,english_201.wav,0,peel,178,28,5,2,english,f,7,0.7,4.63557835,1.79532837
602b4e7594c5ae2908aa7f60,32,0,2024-02-28T14:37:05.146Z,english_201.wav,0,peel,178,28,5,2,english,f,8,0.8,13.50311248,1.69109423
602b4e7594c5ae2908aa7f60,32,0,2024-02-28T14:37:05.146Z,english_201.wav,0,peel,178,28,5,2,english,f,9,0.9,50.05274214,0.91883167
602b4e7594c5ae2908aa7f60,32,0,2024-02-28T14:37:05.146Z,english_201.wav,0,peel,178,28,5,2,english,f,10,1.0,-76.13616328,0.81807561
602b4e7594c5ae2908aa7f60,32,0,2024-02-28T14:37:05.146Z,english_201.wav,0,peel,178,28,5,2,english,f,11,1.09391667,8.54722281,1.88316121
602b4e7594c5ae2908aa7f60,33,0,2024-02-28T14:37:05.146Z,english_752.wav,0,peel,244,28,5,2,english,f,0,0.0,52.61686216,1.6341758
602b4e7594c5ae2908aa7f60,33,0,2024-02-28T14:37:05.146Z,english_752.wav,0,peel,244,28,5,2,english,f,1,0.1,-18.45204241,0.5397069
602b4e7594c5ae2908aa7f60,33,0,2024-02-28T14:37:05.146Z,english_752.wav,0,peel,244,28,5,2,english,f,2,0.2,-6.44553856,1.4905668
602b4e7594c5ae2908aa7f60,33,0,2024-02-28T14:37:05.146Z,english_752.wav,0,peel,244,28,5,2,english,f,3,0.3,54.48685686,0.49055919
602b4e7594c5ae2908aa7f60,33,0,2024-02-28T14:37:05.146Z,english_752.wav,0,peel,244,28,5,2,english,f,4,0.4,-14.12902415,1.50348136
602b4e7594c5ae2908aa7f60,33,0,2024-02-28T14:37:05.146Z,english_752.wav,0,peel,244,28,5,2,english,f,5,0.5,-68.0514313,0.53453917
602b4e7594c5ae2908aa7f60,33,0,2024-02-28T14:37:05.146Z,english_752.wav,0,peel,244,28,5,2,english,f,6,0.6,-35.48747748,1.00064578
602b4e7594c5ae2908aa7f60,33,0,2024-02-28T14:37:05.146Z,english_752.wav,0,peel,244,28,5,2,english,f,7,0.7,-40.39140323,0.9078798
602b4e7594c5ae2908aa7f60,33,0,2024-02-28T14:37:05.146Z,english_752.wav,0,peel,244,28,5,2,english,f,8,0.8,-44.26325446,1.8374475
602b4e7594c5ae2908aa7f60,33,0,2024-02-28T14:37:05.146Z,english_752.wav,0,peel,244,28,5,2,english,f,9,0.9,18.34874791,0.61675218
602b4e7594c5ae2908aa7f60,33,0,2024-02-28T14:37:05.146Z,english_752.wav,0,peel,244,28,5,2,english,f,10,1.0,-42.03859304,0.24596276
602b4e7594c5ae2908aa7f60,33,0,2024-02-28T14:37:05.146Z,english_752.wav,0,peel,244,28,5,2,english,f,11,1.09391667,68.7756392,0.85105991
602b4e7594c5ae2908aa7f60,34,0,2024-02-28T14:37:05.146Z,english_46.wav,0,peel,771,28,5,2,english,f,0,0.0,-14.7704521,0.66460672
602b4e7594c5ae2908aa7f60,34,0,2024-02-28T14:37:05.146Z,english_46.wav,0,peel,771,28,5,2,english,f,1,0.1,44.71982886,0.16115308
602b4e7594c5ae2908aa7f60,34,0,2024-02-28T14:37:05.146Z,english_46.wav,0,peel,771,28,5,2,english,f,2,0.2,54.31186901,0.69883722
602b4e7594c5ae2908aa7f60,34,0,2024-02-28T14:37:05.146Z,english_46.wav,0,peel,771,28,5,2,english,f,3,0.3,49.55617509,0.91276183
602b4e7594c5ae2908aa7f60,34,0,2024-02-28T14:37:05.146Z,english_46.wav,0,peel,771,28,5,2,english,f,4,0.4,13.89468732,1.97897865
602b4e7594c5ae2908aa7f60,34,0,2024-02-28T14:37:05.146Z,english_46.wav,0,peel,771,28,5,2,english,f,5,0.5,-5.62181735,1.5047395
602b4e7594c5ae2908aa7f60,34,0,2024-02-28T14:37:05.146Z,english_46.wav,0,peel,771,28,5,2,english,f,6,0.6,46.1003591,1.97786281
602b4e7594c5ae2908aa7f60,34,0,2024-02-28T14:37:05.146Z,english_46.wav,0,peel,771,28,5,2,english,f,7,0.7,44.70422333,1.91807099
602b4e7594c5ae2908aa7f60,34,0,2024-02-28T14:37:05.146Z,english_46.wav,0,peel,771,28,5,2,english,f,8,0.8,-14.85596588,0.25212674
602b4e7594c5ae2908aa7f60,34,0,2024-02-28T14:37:05.146Z,english_46.wav,0,peel,771,28,5,2,english,f,9,0.9,-30.71855866,1.85861414
602b4e7594c5ae2908aa7f60,34,0,2024-02-28T14:37:05.146Z,english_46.wav,0,peel,771,28,5,2,english,f,10,1.0,-75.55345039,0.72903252
602b4e7594c5ae2908aa7f60,34,0,2024-02-28T14:37:05.146Z,english_46.wav,0,peel,771,28,5,2,english,f,11,1.09391667,6.43312975,1.80431148
602b4e7594c5ae2908aa7f60,35,0,2024-02-28T14:37:05.146Z,english_271.wav,0,peel,1672,28,5,2,english,f,0,0.0,83.54860051,1.23852779
602b4e7594c5ae2908aa7f60,35,0,2024-02-28T14:37:05.146Z,english_271.wav,0,peel,1672,28,5,2,english,f,1,0.1,-11.78692869,0.5617939
602b4e7594c5ae2908aa7f60,35,0,2024-02-28T14:37:05.146Z,english_271.wav,0,peel,1672,28,5,2,english,f,2,0.2,-93.59093408,1.03672554
602b4e7594c5ae2908aa7f60,35,0,2024-02-28T14:37:05.146Z,english_271.wav,0,peel,1672,28,5,2,english,f,3,0.3,53.60258666,1.7849895
602b4e7594c5ae2908aa7f60,35,0,2024-02-28T14:37:05.146Z,english_271.wav,0,peel,1672,28,5,2,english,f,4,0.4,-66.08364726,0.3533195
602b4e7594c5ae2908aa7f60,35,0,2024-02-28T14:37:05.146Z,english_271.wav,0,peel,1672,28,5,2,english,f,5,0.5,94.15354622,1.03785323
602b4e7594c5ae2908aa7f60,35,0,2024-02-28T14:37:05.146Z,english_271.wav,0,peel,1672,28,5,2,english,f,6,0.6,24.82086802,0.33969939
602b4e7594c5ae2908aa7f60,35,0,2024-02-28T14:37:05.146Z,english_271.wav,0,peel,1672,28,5,2,english,f,7,0.7,-91.87331613,1.93991394
602b4e7594c5ae2908aa7f60,35,0,2024-02-28T14:37:05.146Z,english_271.wav,0,peel,1672,28,5,2,english,f,8,0.8,94.31312055,1.07242572
602b4e7594c5ae2908aa7f60,35,0,2024-02-28T14:37:05.146Z,english_271.wav,0,peel,1672,28,5,2,english,f,9,0.9,-76.94840956,0.17124333
602b4e7594c5ae2908aa7f60,35,0,2024-02-28T14:37:05.146Z,english_271.wav,0,peel,1672,28,5,2,english,f,10,1.0,10.84106531,1.85218062
602b4e7594c5ae2908aa7f60,35,0,2024-02-28T14:37:05.146Z,english_271.wav,0,peel,1672,28,5,2,english,f,11,1.09391667,74.33271623,0.80828121
602b4e7594c5ae2908aa7f60,36,0,2024-02-28T14:37:05.146Z,english_92.wav,0,peel,570,28,5,2,english,f,0,0.0,11.31108637,1.92205207
602b4e7594c5ae2908aa7f60,36,0,2024-02-28T14:37:05.146Z,english_92.wav,0,peel,570,28,5,2,english,f,1,0.1,68.41269988,0.65302474
602b4e7594c5ae2908aa7f60,36,0,2024-02-28T14:37:05.146Z,english_92.wav,0,peel,570,28,5,2,english,f,2,0.2,-5.85446567,1.94520229
602b4e7594c5ae2908aa7f60,36,0,2024-02-28T14:37:05.146Z,english_92.wav,0,peel,570,28,5,2,english,f,3,0.3,-56.17314857,1.28044043
602b4e7594c5ae2908aa7f60,36,0,2024-02-28T14:37:05.146Z,english_92.wav,0,peel,570,28,5,2,english,f,4,0.4,-61.8847044,0.6978833
602b4e7594c5ae2908aa7f60,36,0,2024-02-28T14:37:05.146Z,english_92.wav,0,peel,570,28,5,2,english,f,5,0.5,11.37598658,1.39245958
602b4e7594c5ae2908aa7f60,36,0,2024-02-28T14:37:05.146Z,english_92.wav,0,peel,570,28,5,2,english,f,6,0.6,19.4709674,1.41686082
602b4e7594c5ae2908aa7f60,36,0,2024-02-28T14:37:05.146Z,english_92.wav,0,peel,570,28,5,2,english,f,7,0.7,-11.82404326,0.26269969
602b4e7594c5ae2908aa7f60,36,0,2024-02-28T14:37:05.146Z,english_92.wav,0,peel,570,28,5,2,english,f,8,0.8,-12.10341162,0.56613425
602b4e7594c5ae2908aa7f60,36,0,2024-02-28T14:37:05.146Z,english_92.wav,0,peel,570,28,5,2,english,f,9,0.9,2.74595363,0.73944091
602b4e7594c5ae2908aa7f60,36,0,2024-02-28T14:37:05.146Z,english_92.wav,0,peel,570,28,5,2,english,f,10,1.0,41.36202449,1.55048139
602b4e7594c5ae2908aa7f60,36,0,2024-02-28T14:37:05.146Z,english_92.wav,0,peel,570,28,5,2,english,f,11,1.09391667,-69.11430068,1.16346143
602b4e7594c5ae2908aa7f60,37,0,2024-02-28T14:37:05.146Z,english_291.wav,0,peel,260,28,5,2,english,f,0,0.0,-35.42543517,1.79657699
602b4e7594c5ae2908aa7f60,37,0,2024-02-28T14:37:05.146Z,english_291.wav,0,peel,260,28,5,2,english,f,1,0.1,-58.51846155,0.45193929
602b4e7594c5ae2908aa7f60,37,0,2024-02-28T14:37:05.146Z,english_291.wav,0,peel,260,28,5,2,english,f,2,0.2,-22.76348489,1.43927243
602b4e7594c5ae2908aa7f60,37,0,2024-02-28T14:37:05.146Z,english_291.wav,0,peel,260,28,5,2,english,f,3,0.3,19.21250817,0.51811893
602b4e7594c5ae2908aa7f60,37,0,2024-02-28T14:37:05.146Z,english_291.wav,0,peel,260,28,5,2,english,f,4,0.4,10.39547897,0.67991537
602b4e7594c5ae2908aa7f60,37,0,2024-02-28T14:37:05.146Z,english_291.wav,0,peel,260,28,5,2,english,f,5,0.5,-11.61823126,1.97176362
602b4e7594c5ae2908aa7f60,37,0,2024-02-28T14:37:05.146Z,english_291.wav,0,peel,260,28,5,2,english,f,6,0.6,-78.73745365,1.52786701
602b4e7594c5ae2908aa7f60,37,0,2024-02-28T14:37:05.146Z,english_291.wav,0,peel,260,28,5,2,english,f,7,0.7,-83.41752971,0.24358096
602b4e7594c5ae2908aa7f60,37,0,2024-02-28T14:37:05.146Z,english_291.wav,0,peel,260,28,5,2,english,f,8,0.8,27.65579478,0.76180969
602b4e7594c5ae2908aa7f60,37,0,2024-02-28T14:37:05.146Z,english_291.wav,0,peel,260,28,5,2,english,f,9,0.9,-91.79765348,0.40398826
602b4e7594c5ae2908aa7f60,37,0,2024-02-28T14:37:05.146Z,english_291.wav,0,peel,260,28,5,2,english,f,10,1.0,39.55856781,0.49665503
602b4e7594c5ae2908aa7f60,37,0,2024-02-28T14:37:05.146Z,english_291.wav,0,peel,260,28,5,2,english,f,11,1.09391667,64.357963,1.15353833
602b4e7594c5ae2908aa7f60,38,0,2024-02-28T14:37:05.146Z,english_263.wav,0,peel,247,28,5,2,english,f,0,0.0,60.54836266,0.88286661
602b4e7594c5ae2908aa7f60,38,0,2024-02-28T14:37:05.146Z,english_263.wav,0,peel,247,28,5,2,english,f,1,0.1,-7.25947701,0.15523443
602b4e7594c5ae2908aa7f60,38,0,2024-02-28T14:37:05.146Z,english_263.wav,0,peel,247,28,5,2,english,f,2,0.2,57.3147166,0.89947763
602b4e7594c5ae2908aa7f60,38,0,2024-02-28T14:37:05.146Z,english_263.wav,0,peel,247,28,5,2,english,f,3,0.3,-54.27216299,1.94594407
602b4e7594c5ae2908aa7f60,38,0,2024-02-28T14:37:05.146Z,english_263.wav,0,peel,247,28,5,2,english,f,4,0.4,-55.29215067,0.36252841
602b4e7594c5ae2908aa7f60,38,0,2024-02-28T14:37:05.146Z,english_263.wav,0,peel,247,28,5,2,english,f,5,0.5,-35.67260064,0.43064253
602b4e7594c5ae2908aa7f60,38,0,2024-02-28T14:37:05.146Z,english_263.wav,0,peel,247,28,5,2,english,f,6,0.6,64.27930659,0.12649613
602b4e7594c5ae2908aa7f60,38,0,2024-02-28T14:37:05.146Z,english_263.wav,0,peel,247,28,5,2,english,f,7,0.7,39.11312223,0.99935682
602b4e7594c5ae2908aa7f60,38,0,2024-02-28T14:37:05.146Z,english_263.wav,0,peel,247,28,5,2,english,f,8,0.8,-36.26628423,0.98138808
602b4e7594c5ae2908aa7f60,38,0,2024-02-28T14:37:05.146Z,english_263.wav,0,peel,247,28,5,2,english,f,9,0.9,24.26738527,1.68351405
602b4e7594c5ae2908aa7f60,38,0,2024-02-28T14:37:05.146Z,english_263.wav,0,peel,247,28,5,2,english,f,10,1.0,43.73514677,0.97417267
602b4e7594c5ae2908aa7f60,38,0,2024-02-28T14:37:05.146Z,english_263.wav,0,peel,247,28,5,2,english,f,11,1.09391667,-15.47335433,0.42659576
602b4e7594c5ae2908aa7f60,39,0,2024-02-28T14:37:05.146Z,english_476.wav,0,pill,659,28,5,2,english,f,0,0.0,44.69659717,1.41297837
602b4e7594c5ae2908aa7f60,39,0,2024-02-28T14:37:05.146Z,english_476.wav,0,pill,659,28,5,2,english,f,1,0.1,-34.716814,1.05145195
602b4e7594c5ae2908aa7f60,39,0,2024-02-28T14:37:05.146Z,english_476.wav,0,pill,659,28,5,2,english,f,2,0.2,-37.83043351,0.94681533
602b4e7594c5ae2908aa7f60,39,0,2024-02-28T14:37:05.146Z,english_476.wav,0,pill,659,28,5,2,english,f,3,0.3,-62.93772859,1.38886049
602b4e7594c5ae2908aa7f60,39,0,2024-02-28T14:37:05.146Z,english_476.wav,0,pill,659,28,5,2,english,f,4,0.4,29.80105548,0.50983073
602b4e7594c5ae2908aa7f60,39,0,2024-02-28T14:37:05.146Z,english_476.wav,0,pill,659,28,5,2,english,f,5,0.5,-19.93397346,0.87963627
602b4e7594c5ae2908aa7f60,39,0,2024-02-28T14:37:05.146Z,english_476.wav,0,pill,659,28,5,2,english,f,6,0.6,-81.51838574,0.37083783
602b4e7594c5ae2908aa7f60,39,0,2024-02-28T14:37:05.146Z,english_476.wav,0,pill,659,28,5,2,english,f,7,0.7,-13.12417842,1.60201274
602b4e7594c5ae2908aa7f60,39,0,2024-02-28T14:37:05.146Z,english_476.wav,0,pill,659,28,5,2,english,f,8,0.8,-49.11622946,0.02246419
602b4e7594c5ae2908aa7f60,39,0,2024-02-28T14:37:05.146Z,english_476.wav,0,pill,659,28,5,2,english,f,9,0.9,-40.62215118,1.35146298
602b4e7594c5ae2908aa7f60,39,0,2024-02-28T14:37:05.146Z,english_476.wav,0,pill,659,28,5,2,english,f,10,1.0,-29.85989769,1.39707139
602b4e7594c5ae2908aa7f60,39,0,2024-02-28T14:37:05.146Z,english_476.wav,0,pill,659,28,5,2,english,f,11,1.09391667,-46.8973955,0.19828042
602b4e7594c5ae2908aa7f60,40,0,2024-02-28T14:37:05.146Z,english_101.wav,0,peel,312,28,5,2,english,f,0,0.0,54.85574333,0.56749545
602b4e7594c5ae2908aa7f60,40,0,2024-02-28T14:37:05.146Z,english_101.wav,0,peel,312,28,5,2,english,f,1,0.1,0.70808879,1.44378271
602b4e7594c5ae2908aa7f60,40,0,2024-02-28T14:37:05.146Z,english_101.wav,0,peel,312,28,5,2,english,f,2,0.2,-80.1183649,0.79216525
602b4e7594c5ae2908aa7f60,40,0,2024-02-28T14:37:05.146Z,english_101.wav,0,peel,312,28,5,2,english,f,3,0.3,41.22016504,0.86392682
602b4e7594c5ae2908aa7f60,40,0,2024-02-28T14:37:05.146Z,english_101.wav,0,peel,312,28,5,2,english,f,4,0.4,-9.97599034,0.6963626
602b4e7594c5ae2908aa7f60,40,0,2024-02-28T14:37:05.146Z,english_101.wav,0,peel,312,28,5,2,english,f,5,0.5,90.56668979,0.60530731
602b4e7594c5ae2908aa7f60,40,0,2024-02-28T14:37:05.146Z,english_101.wav,0,peel,312,28,5,2,english,f,6,0.6,-60.35193263,1.66078928
602b4e7594c5ae2908aa7f60,40,0,2024-02-28T14:37:05.146Z,english_101.wav,0,peel,312,28,5,2,english,f,7,0.7,61.72690789,1.6801741
602b4e7594c5ae2908aa7f60,40,0,2024-02-28T14:37:05.146Z,english_101.wav,0,peel,312,28,5,2,english,f,8,0.8,88.15092983,1.39430446
602b4e7594c5ae2908aa7f60,40,0,2024-02-28T14:37:05.146Z,english_101.wav,0,peel,312,28,5,2,english,f,9,0.9,40.7935106,0.81152744
602b4e7594c5ae2908aa7f60,40,0,2024-02-28T14:37:05.146Z,english_101.wav,0,peel,312,28,5,2,english,f,10,1.0,84.72598744,0.36950081
602b4e7594c5ae2908aa7f60,40,0,2024-02-28T14:37:05.146Z,english_101.wav,0,peel,312,28,5,2,english,f,11,1.09391667,-47.25265497,1.44384249
602b4e7594c5ae2908aa7f60,41,0,2024-02-28T14:37:05.146Z,english_444.wav,0,peel,427,28,5,2,english,f,0,0.0,-22.35255086,1.17037243
602b4e7594c5ae2908aa7f60,41,0,2024-02-28T14:37:05.146Z,english_444.wav,0,peel,427,28,5,2,english,f,1,0.1,-38.39735659,0.80831945
602b4e7594c5ae2908aa7f60,41,0,2024-02-28T14:37:05.146Z,english_444.wav,0,peel,427,28,5,2,english,f,2,0.2,81.84483339,1.07936497
602b4e7594c5ae2908aa7f60,41,0,2024-02-28T14:37:05.146Z,english_444.wav,0,peel,427,28,5,2,english,f,3,0.3,89.66951187,1.80338122
602b4e7594c5ae2908aa7f60,41,0,2024-02-28T14:37:05.146Z,english_444.wav,0,peel,427,28,5,2,english,f,4,0.4,78.72815519,1.1980111
602b4e7594c5ae2908aa7f60,41,0,2024-02-28T14:37:05.146Z,english_444.wav,0,peel,427,28,5,2,english,f,5,0.5,-52.70100407,1.57414757
602b4e7594c5ae2908aa7f60,41,0,2024-02-28T14:37:05.146Z,english_444.wav,0,peel,427,28,5,2,english,f,6,0.6,-16.77558941,1.54546577
602b4e7594c5ae2908aa7f60,41,0,2024-02-28T14:37:05.146Z,english_444.wav,0,peel,427,28,5,2,english,f,7,0.7,74.67924026,0.86646901
602b4e7594c5ae2908aa7f60,41,0,2024-02-28T14:37:05.146Z,english_444.wav,0,peel,427,28,5,2,english,f,8,0.8,58.06859333,1.76340154
602b4e7594c5ae2908aa7f60,41,0,2024-02-28T14:37:05.146Z,english_444.wav,0,peel,427,28,5,2,english,f,9,0.9,62.1778936,1.16134605
602b4e7594c5ae2908aa7f60,41,0,2024-02-28T14:37:05.146Z,english_444.wav,0,peel,427,28,5,2,english,f,10,1.0,-11.97095728,0.83068954
602b4e7594c5ae2908aa7f60,41,0,2024-02-28T14:37:05.146Z,english_444.wav,0,peel,427,28,5,2,english,f,11,1.09391667,61.96058284,1.94365144
602b4e7594c5ae2908aa7f60,42,0,2024-02-28T14:37:05.146Z,english_987.wav,0,peel,1409,28,5,2,english,f,0,0.0,22.80679167,0.70061045
602b4e7594c5ae2908aa7f60,42,0,2024-02-28T14:37:05.146Z,english_987.wav,0,peel,1409,28,5,2,english,f,1,0.1,17.54007411,1.60053813
602b4e7594c5ae2908aa7f60,42,0,2024-02-28T14:37:05.146Z,english_987.wav,0,peel,1409,28,5,2,english,f,2,0.2,-52.11811518,0.58462844
602b4e7594c5ae2908aa7f60,42,0,2024-02-28T14:37:05.146Z,english_987.wav,0,peel,1409,28,5,2,english,f,3,0.3,-23.82315646,0.24368019
602b4e7594c5ae2908aa7f60,42,0,2024-02-28T14:37:05.146Z,english_987.wav,0,peel,1409,28,5,2,english,f,4,0.4,44.18787645,0.52233595
602b4e7594c5ae2908aa7f60,42,0,2024-02-28T14:37:05.146Z,english_987.wav,0,peel,1409,28,5,2,english,f,5,0.5,-72.90084178,0.85287542
602b4e7594c5ae2908aa7f60,42,0,2024-02-28T14:37:05.146Z,english_987.wav,0,peel,1409,28,5,2,english,f,6,0.6,-17.62123308,1.54280419
602b4e7594c5ae2908aa7f60,42,0,2024-02-28T14:37:05.146Z,english_987.wav,0,peel,1409,28,5,2,english,f,7,0.7,95.73852472,0.69341266
602b4e7594c5ae2908aa7f60,42,0,2024-02-28T14:37:05.146Z,english_987.wav,0,peel,1409,28,5,2,english,f,8,0.8,10.89860126,0.63948037
602b4e7594c5ae2908aa7f60,42,0,2024-02-28T14:37:05.146Z,english_987.wav,0,peel,1409,28,5,2,english,f,9,0.9,-72.84217249,0.23195922
602b4e7594c5ae2908aa7f60,42,0,2024-02-28T14:37:05.146Z,english_987.wav,0,peel,1409,28,5,2,english,f,10,1.0,-57.31215702,1.27646479
602b4e7594c5ae2908aa7f60,42,0,2024-02-28T14:37:05.146Z,english_987.wav,0,peel,1409,28,5,2,english,f,11,1.09391667,-16.22203203,1.15579809
602b4e7594c5ae2908aa7f60,43,0,2024-02-28T14:37:05.146Z,english_356.wav,0,peel,212,28,5,2,english,f,0,0.0,32.76906958,0.08562483
602b4e7594c5ae2908aa7f60,43,0,2024-02-28T14:37:05.146Z,english_356.wav,0,peel,212,28,5,2,english,f,1,0.1,-4.50463472,0.71215991
602b4e7594c5ae2908aa7f60,43,0,2024-02-28T14:37:05.146Z,english_356.wav,0,peel,212,28,5,2,english,f,2,0.2,-3.50879641,0.27192591
602b4e7594c5ae2908aa7f60,43,0,2024-02-28T14:37:05.146Z,english_356.wav,0,peel,212,28,5,2,english,f,3,0.3,-66.50182595,1.84647675
602b4e7594c5ae2908aa7f60,43,0,2024-02-28T14:37:05.146Z,english_356.wav,0,peel,212,28,5,2,english,f,4,0.4,-41.87578379,0.94018547
602b4e7594c5ae2908aa7f60,43,0,2024-02-28T14:37:05.146Z,english_356.wav,0,peel,212,28,5,2,english,f,5,0.5,15.06829484,0.35538969
602b4e7594c5ae2908aa7f60,43,0,2024-02-28T14:37:05.146Z,english_356.wav,0,peel,212,28,5,2,english,f,6,0.6,-0.09178899,0.67852857
602b4e7594c5ae2908aa7f60,43,0,2024-02-28T14:37:05.146Z,english_356.wav,0,peel,212,28,5,2,english,f,7,0.7,-46.92797448,1.60890004
602b4e7594c5ae2908aa7f60,43,0,2024-02-28T14:37:05.146Z,english_356.wav,0,peel,212,28,5,2,english,f,8,0.8,77.06532678,0.18175686
602b4e7594c5ae2908aa7f60,43,0,2024-02-28T14:37:05.146Z,english_356.wav,0,peel,212,28,5,2,english,f,9,0.9,26.9349071,1.60704056
602b4e7594c5ae2908aa7f60,43,0,2024-02-28T14:37:05.146Z,english_356.wav,0,peel,212,28,5,2,english,f,10,1.0,1.26347583,0.84129373
602b4e7594c5ae2908aa7f60,43,0,2024-02-28T14:37:05.146Z,english_356.wav,0,peel,212,28,5,2,english,f,11,1.09391667,-52.5712343,0.27010089
602b4e7594c5ae2908aa7f60,44,0,2024-02-28T14:37:05.146Z,english_734.wav,0,peel,515,28,5,2,english,f,0,0.0,37.80658654,0.89840931
602b4e7594c5ae2908aa7f60,44,0,2024-02-28T14:37:05.146Z,english_734.wav,0,peel,515,28,5,2,english,f,1,0.1,90.1003789,1.2414915
602b4e7594c5ae2908aa7f60,44,0,2024-02-28T14:37:05.146Z,english_734.wav,0,peel,515,28,5,2,english,f,2,0.2,-17.90602095,1.52855063
602b4e7594c5ae2908aa7f60,44,0,2024-02-28T14:37:05.146Z,english_734.wav,0,peel,515,28,5,2,english,f,3,0.3,-31.44385996,0.60902156
602b4e7594c5ae2908aa7f60,44,0,2024-02-28T14:37:05.146Z,english_734.wav,0,peel,515,28,5,2,english,f,4,0.4,44.9323419,1.0676513
602b4e7594c5ae2908aa7f60,44,0,2024-02-28T14:37:05.146Z,english_734.wav,0,peel,515,28,5,2,english,f,5,0.5,-31.11774155,0.47732506
602b4e7594c5ae2908aa7f60,44,0,2024-02-28T14:37:05.146Z,english_734.wav,0,peel,515,28,5,2,english,f,6,0.6,97.37077349,0.01117227
602b4e7594c5ae2908aa7f60,44,0,2024-02-28T14:37:05.146Z,english_734.wav,0,peel,515,28,5,2,english,f,7,0.7,83.67731812,1.95948527
602b4e7594c5ae2908aa7f60,44,0,2024-02-28T14:37:05.146Z,english_734.wav,0,peel,515,28,5,2,english,f,8,0.8,-92.96209535,1.72730216
602b4e7594c5ae2908aa7f60,44,0,2024-02-28T14:37:05.146Z,english_734.wav,0,peel,515,28,5,2,english,f,9,0.9,-86.38679985,0.10005855
602b4e7594c5ae2908aa7f60,44,0,2024-02-28T14:37:05.146Z,english_734.wav,0,peel,515,28,5,2,english,f,10,1.0,-15.69243899,1.31074677
602b4e7594c5ae2908aa7f60,44,0,2024-02-28T14:37:05.146Z,english_734.wav,0,peel,515,28,5,2,english,f,11,1.09391667,-68.67808483,0.47077758
602b4e7594c5ae2908aa7f60,45,0,2024-02-28T14:37:05.146Z,english_167.wav,0,pill,120,28,5,2,english,f,0,0.0,24.63183347,0.27443004
602b4e7594c5ae2908aa7f60,45,0,2024-02-28T14:37:05.146Z,english_167.wav,0,pill,120,28,5,2,english,f,1,0.1,13.73246145,1.84171745
602b4e7594c5ae2908aa7f60,45,0,2024-02-28T14:37:05.146Z,english_167.wav,0,pill,120,28,5,2,english,f,2,0.2,-60.43880616,1.67288004
602b4e7594c5ae2908aa7f60,45,0,2024-02-28T14:37:05.146Z,english_167.wav,0,pill,120,28,5,2,english,f,3,0.3,7.09789875,0.06788145
602b4e7594c5ae2908aa7f60,45,0,2024-02-28T14:37:05.146Z,english_167.wav,0,pill,120,28,5,2,english,f,4,0.4,-33.19551678,0.85380936
602b4e7594c5ae2908aa7f60,45,0,2024-02-28T14:37:05.146Z,english_167.wav,0,pill,120,28,5,2,english,f,5,0.5,95.64356753,0.74095746
602b4e7594c5ae2908aa7f60,45,0,2024-02-28T14:37:05.146Z,english_167.wav,0,pill,120,28,5,2,english,f,6,0.6,-14.26788655,0.50118345
602b4e7594c5ae2908aa7f60,45,0,2024-02-28T14:37:05.146Z,english_167.wav,0,pill,120,28,5,2,english,f,7,0.7,66.37452918,0.34417323
602b4e7594c5ae2908aa7f60,45,0,2024-02-28T14:37:05.146Z,english_167.wav,0,pill,120,28,5,2,english,f,8,0.8,21.11990371,0.18827799
602b4e7594c5ae2908aa7f60,45,0,2024-02-28T14:37:05.146Z,english_167.wav,0,pill,120,28,5,2,english,f,9,0.9,91.73440173,1.5764248
602b4e7594c5ae2908aa7f60,45,0,2024-02-28T14:37:05.146Z,english_167.wav,0,pill,120,28,5,2,english,f,10,1.0,98.54474933,1.57665407
602b4e7594c5ae2908aa7f60,45,0,2024-02-28T14:37:05.146Z,english_167.wav,0,pill,120,28,5,2,english,f,11,1.09391667,47.66166762,0.79567252
602b4e7594c5ae2908aa7f60,46,0,2024-02-28T14:37:05.146Z,english_281.wav,0,pill,1332,28,5,2,english,f,0,0.0,-6.91929945,1.49696204
602b4e7594c5ae2908aa7f60,46,0,2024-02-28T14:37:05.146Z,english_281.wav,0,pill,1332,28,5,2,english,f,1,0.1,-25.44932046,1.38956204
602b4e7594c5ae2908aa7f60,46,0,2024-02-28T14:37:05.146Z,english_281.wav,0,pill,1332,28,5,2,english,f,2,0.2,-43.70872046,0.8964952
602b4e7594c5ae2908aa7f60,46,0,2024-02-28T14:37:05.146Z,english_281.wav,0,pill,1332,28,5,2,english,f,3,0.3,-18.3101874,0.52852326
602b4e7594c5ae2908aa7f60,46,0,2024-02-28T14:37:05.146Z,english_281.wav,0,pill,1332,28,5,2,english,f,4,0.4,86.16338552,0.8625919
602b4e7594c5ae2908aa7f60,46,0,2024-02-28T14:37:05.146Z,english_281.wav,0,pill,1332,28,5,2,english,f,5,0.5,49.26346324,1.51743083
602b4e7594c5ae2908aa7f60,46,0,2024-02-28T14:37:05.146Z,english_281.wav,0,pill,1332,28,5,2,english,f,6,0.6,79.40576686,0.79009251
602b4e7594c5ae2908aa7f60,46,0,2024-02-28T14:37:05.146Z,english_281.wav,0,pill,1332,28,5,2,english,f,7,0.7,85.96397413,0.18987002
602b4e7594c5ae2908aa7f60,46,0,2024-02-28T14:37:05.146Z,english_281.wav,0,pill,1332,28,5,2,english,f,8,0.8,-82.16790218,1.11136212
602b4e7594c5ae2908aa7f60,46,0,2024-02-28T14:37:05.146Z,english_281.wav,0,pill,1332,28,5,2,english,f,9,0.9,53.88469083,1.69337287
602b4e7594c5ae2908aa7f60,46,0,2024-02-28T14:37:05.146Z,english_281.wav,0,pill,1332,28,5,2,english,f,10,1.0,30.1327539,0.62990301
602b4e7594c5ae2908aa7f60,46,0,2024-02-28T14:37:05.146Z,english_281.wav,0,pill,1332,28,5,2,english,f,11,1.09391667,-24.86364002,1.33770256
602b4e7594c5ae2908aa7f60,47,0,2024-02-28T14:37:05.146Z,english_299.wav,0,peel,774,28,5,2,english,f,0,0.0,-74.4174694,1.88606728
602b4e7594c5ae2908aa7f60,47,0,2024-02-28T14:37:05.146Z,english_299.wav,0,peel,774,28,5,2,english,f,1,0.1,67.95279973,1.33791825
602b4e7594c5ae2908aa7f60,47,0,2024-02-28T14:37:05.146Z,english_299.wav,0,peel,774,28,5,2,english,f,2,0.2,-39.20846612,1.49728268
602b4e7594c5ae2908aa7f60,47,0,2024-02-28T14:37:05.146Z,english_299.wav,0,peel,774,28,5,2,english,f,3,0.3,75.10442899,0.10286405
602b4e7594c5ae2908aa7f60,47,0,2024-02-28T14:37:05.146Z,english_299.wav,0,peel,774,28,5,2,english,f,4,0.4,64.17156696,0.88852199
602b4e7594c5ae2908aa7f60,47,0,2024-02-28T14:37:05.146Z,english_299.wav,0,peel,774,28,5,2,english,f,5,0.5,-42.38450544,0.77437708
602b4e7594c5ae2908aa7f60,47,0,2024-02-28T14:37:05.146Z,english_299.wav,0,peel,774,28,5,2,english,f,6,0.6,-86.29317574,1.38211023
602b4e7594c5ae2908aa7f60,47,0,2024-02-28T14:37:05.146Z,english_299.wav,0,peel,774,28,5,2,english,f,7,0.7,11.40905892,1.00427558
602b4e7594c5ae2908aa7f60,47,0,2024-02-28T14:37:05.146Z,english_299.wav,0,peel,774,28,5,2,english,f,8,0.8,13.2984643,1.53256025
602b4e7594c5ae2908aa7f60,47,0,2024-02-28T14:37:05.146Z,english_299.wav,0,peel,774,28,5,2,english,f,9,0.9,-36.56440039,1.00789046
602b4e7594c5ae2908aa7f60,47,0,2024-02-28T14:37:05.146Z,english_299.wav,0,peel,774,28,5,2,english,f,10,1.0,-93.57212319,0.84413966
602b4e7594c5ae2908aa7f60,47,0,2024-02-28T14:37:05.146Z,english_299.wav,0,peel,774,28,5,2,english,f,11,1.09391667,13.37429031,1.54480909
602b4e7594c5ae2908aa7f60,48,0,2024-02-28T14:37:05.146Z,english_993.wav,0,peel,182,28,5,2,english,f,0,0.0,-8.65746923,1.97743958
602b4e7594c5ae2908aa7f60,48,0,2024-02-28T14:37:05.146Z,english_993.wav,0,peel,182,28,5,2,english,f,1,0.1,-27.87522694,0.36006803
602b4e7594c5ae2908aa7f60,48,0,2024-02-28T14:37:05.146Z,english_993.wav,0,peel,182,28,5,2,english,f,2,0.2,41.79329436,0.06856355
602b4e7594c5ae2908aa7f60,48,0,2024-02-28T14:37:05.146Z,english_993.wav,0,peel,182,28,5,2,english,f,3,0.3,-23.16935708,0.38955927
602b4e7594c5ae2908aa7f60,48,0,2024-02-28T14:37:05.146Z,english_993.wav,0,peel,182,28,5,2,english,f,4,0.4,18.8592239,1.25297016
602b4e7594c5ae2908aa7f60,48,0,2024-02-28T14:37:05.146Z,english_993.wav,0,peel,182,28,5,2,english,f,5,0.5,40.29392848,0.33975417
602b4e7594c5ae2908aa7f60,48,0,2024-02-28T14:37:05.146Z,english_993.wav,0,peel,182,28,5,2,english,f,6,0.6,77.6038757,1.12200744
602b4e7594c5ae2908aa7f60,48,0,2024-02-28T14:37:05.146Z,english_993.wav,0,peel,182,28,5,2,english,f,7,0.7,33.5103026,1.75189261
602b4e7594c5ae2908aa7f60,48,0,2024-02-28T14:37:05.146Z,english_993.wav,0,peel,182,28,5,2,english,f,8,0.8,71.9206852,0.43539509
602b4e7594c5ae2908aa7f60,48,0,2024-02-28T14:37:05.146Z,english_993.wav,0,peel,182,28,5,2,english,f,9,0.9,-28.91081602,1.78200425
602b4e7594c5ae2908aa7f60,48,0,2024-02-28T14:37:05.146Z,english_993.wav,0,peel,182,28,5,2,english,f,10,1.0,-66.92854856,0.58801976
602b4e7594c5ae2908aa7f60,48,0,2024-02-28T14:37:05.146Z,english_993.wav,0,peel,182,28,5,2,english,f,11,1.09391667,-70.4693707,0.997712
602b4e7594c5ae2908aa7f60,49,0,2024-02-28T14:37:05.146Z,english_273.wav,0,peel,138,28,5,2,english,f,0,0.0,98.52666227,0.76053605
602b4e7594c5ae2908aa7f60,49,0,2024-02-28T14:37:05.146Z,english_273.wav,0,peel,138,28,5,2,english,f,1,0.1,-14.53697977,1.55944865
602b4e7594c5ae2908aa7f60,49,0,2024-02-28T14:37:05.146Z,english_273.wav,0,peel,138,28,5,2,english,f,2,0.2,-27.73641003,1.1926207
602b4e7594c5ae2908aa7f60,49,0,2024-02-28T14:37:05.146Z,english_273.wav,0,peel,138,28,5,2,english,f,3,0.3,-33.00016706,0.4837488
602b4e7594c5ae2908aa7f60,49,0,2024-02-28T14:37:05.146Z,english_273.wav,0,peel,138,28,5,2,english,f,4,0.4,-94.64333813,0.26449836
602b4e7594c5ae2908aa7f60,49,0,2024-02-28T14:37:05.146Z,english_273.wav,0,peel,138,28,5,2,english,f,5,0.5,-41.61617203,0.91523242
602b4e7594c5ae2908aa7f60,49,0,2024-02-28T14:37:05.146Z,english_273.wav,0,peel,138,28,5,2,english,f,6,0.6,49.41815244,1.22186228
602b4e7594c5ae2908aa7f60,49,0,2024-02-28T14:37:05.146Z,english_273.wav,0,peel,138,28,5,2,english,f,7,0.7,-30.32061772,1.22601092
602b4e7594c5ae2908aa7f60,49,0,2024-02-28T14:37:05.146Z,english_273.wav,0,peel,138,28,5,2,english,f,8,0.8,-35.74709192,0.47362103
602b4e7594c5ae2908aa7f60,49,0,2024-02-28T14:37:05.146Z,english_273.wav,0,peel,138,28,5,2,english,f,9,0.9,-13.60946608,1.12741722
602b4e7594c5ae2908aa7f60,49,0,2024-02-28T14:37:05.146Z,english_273.wav,0,peel,138,28,5,2,english,f,10,1.0,-32.82037382,1.62942093
602b4e7594c5ae2908aa7f60,49,0,2024-02-28T14:37:05.146Z,english_273.wav,0,peel,138,28,5,2,english,f,11,1.09391667,33.32212964,0.13586673
602b4e7594c5ae2908aa7f60,50,1,2024-02-28T14:37:05.146Z,english_52.wav,0,peel,166,28,5,2,english,f,0,0.0,22.10137518,1.70966253
602b4e7594c5ae2908aa7f60,50,1,2024-02-28T14:37:05.146Z,english_52.wav,0,peel,166,28,5,2,english,f,1,0.1,54.60808655,0.73212315
602b4e7594c5ae2908aa7f60,50,1,2024-02-28T14:37:05.146Z,english_52.wav,0,peel,166,28,5,2,english,f,2,0.2,-19.2398092,0.80628637
602b4e7594c5ae2908aa7f60,50,1,2024-02-28T14:37:05.146Z,english_52.wav,0,peel,166,28,5,2,english,f,3,0.3,51.72612617,0.90394386
602b4e7594c5ae2908aa7f60,50,1,2024-02-28T14:37:05.146Z,english_52.wav,0,peel,166,28,5,2,english,f,4,0.4,48.42620238,0.20122149
602b4e7594c5ae2908aa7f60,50,1,2024-02-28T14:37:05.146Z,english_52.wav,0,peel,166,28,5,2,english,f,5,0.5,-74.55875553,0.79458017
602b4e7594c5ae2908aa7f60,50,1,2024-02-28T14:37:05.146Z,english_52.wav,0,peel,166,28,5,2,english,f,6,0.6,38.81047921,1.48954082
602b4e7594c5ae2908aa7f60,50,1,2024-02-28T14:37:05.146Z,english_52.wav,0,peel,166,28,5,2,english,f,7,0.7,-10.61292931,0.49987231
602b4e7594c5ae2908aa7f60,50,1,2024-02-28T14:37:05.146Z,english_52.wav,0,peel,166,28,5,2,english,f,8,0.8,57.32417171,1.72417372
602b4e7594c5ae2908aa7f60,50,1,2024-02-28T14:37:05.146Z,english_52.wav,0,peel,166,28,5,2,english,f,9,0.9,1.80511965,1.29717669
602b4e7594c5ae2908aa7f60,50,1,2024-02-28T14:37:05.146Z,english_52.wav,0,peel,166,28,5,2,english,f,10,1.0,21.58974988,1.53819456
602b4e7594c5ae2908aa7f60,50,1,2024-02-28T14:37:05.146Z,english_52.wav,0,peel,166,28,5,2,english,f,11,1.09391667,-49.54213801,0.23189362
602b4e7594c5ae2908aa7f60,51,1,2024-02-28T14:37:05.146Z,english_914.wav,0,peel,270,28,5,2,english,f,0,0.0,38.978205,0.35912604
602b4e7594c5ae2908aa7f60,51,1,2024-02-28T14:37:05.146Z,english_914.wav,0,peel,270,28,5,2,english,f,1,0.1,87.18341185,1.3669236
602b4e7594c5ae2908aa7f60,51,1,2024-02-28T14:37:05.146Z,english_914.wav,0,peel,270,28,5,2,english,f,2,0.2,15.47005822,0.84210071
602b4e7594c5ae2908aa7f60,51,1,2024-02-28T14:37:05.146Z,english_914.wav,0,peel,270,28,5,2,english,f,3,0.3,29.25641776,0.05134094
602b4e7594c5ae2908aa7f60,51,1,2024-02-28T14:37:05.146Z,english_914.wav,0,peel,270,28,5,2,english,f,4,0.4,-96.55134364,1.13395744
602b4e7594c5ae2908aa7f60,51,1,2024-02-28T14:37:05.146Z,english_914.wav,0,peel,270,28,5,2,english,f,5,0.5,-89.29155074,0.79197201
602b4e7594c5ae2908aa7f60,51,1,2024-02-28T14:37:05.146Z,english_914.wav,0,peel,270,28,5,2,english,f,6,0.6,-61.94858481,0.91379793
602b4e7594c5ae2908aa7f60,51,1,2024-02-28T14:37:05.146Z,english_914.wav,0,peel,270,28,5,2,english,f,7,0.7,-73.41037345,1.19795288
602b4e7594c5ae2908aa7f60,51,1,2024-02-28T14:37:05.146Z,english_914.wav,0,peel,270,28,5,2,english,f,8,0.8,-99.30720203,1.39899474
602b4e7594c5ae2908aa7f60,51,1,2024-02-28T14:37:05.146Z,english_914.wav,0,peel,270,28,5,2,english,f,9,0.9,81.02685233,0.56128817
602b4e7594c5ae2908aa7f60,51,1,2024-02-28T14:37:05.146Z,english_914.wav,0,peel,270,28,5,2,english,f,10,1.0,-61.71265148,1.38071697
602b4e7594c5ae2908aa7f60,51,1,2024-02-28T14:37:05.146Z,english_914.wav,0,peel,270,28,5,2,english,f,11,1.09391667,-35.17076378,1.53641314
602b4e7594c5ae2908aa7f60,52,1,2024-02-28T14:37:05.146Z,english_913.wav,0,peel,479,28,5,2,english,f,0,0.0,-12.70990623,1.14486928
602b4e7594c5ae2908aa7f60,52,1,2024-02-28T14:37:05.146Z,english_913.wav,0,peel,479,28,5,2,english,f,1,0.1,-17.89686071,0.94187729
602b4e7594c5ae2908aa7f60,52,1,2024-02-28T14:37:05.146Z,english_913.wav,0,peel,479,28,5,2,english,f,2,0.2,58.24027697,0.43978781
602b4e7594c5ae2908aa7f60,52,1,2024-02-28T14:37:05.146Z,english_913.wav,0,peel,479,28,5,2,english,f,3,0.3,71.96751717,0.86816184
602b4e7594c5ae2908aa7f60,52,1,2024-02-28T14:37:05.146Z,english_913.wav,0,peel,479,28,5,2,english,f,4,0.4,22.83880081,0.47286583
602b4e7594c5ae2908aa7f60,52,1,2024-02-28T14:37:05.146Z,english_913.wav,0,peel,479,28,5,2,english,f,5,0.5,74.23310268,0.4719667
602b4e7594c5ae2908aa7f60,52,1,2024-02-28T14:37:05.146Z,english_913.wav,0,peel,479,28,5,2,english,f,6,0.6,23.98451607,1.54190919
602b4e7594c5ae2908aa7f60,52,1,2024-02-28T14:37:05.146Z,english_913.wav,0,peel,479,28,5,2,english,f,7,0.7,-29.568704,1.67539159
602b4e7594c5ae2908aa7f60,52,1,2024-02-28T14:37:05.146Z,english_913.wav,0,peel,479,28,5,2,english,f,8,0.8,19.11592867,1.16448364
602b4e7594c5ae2908aa7f60,52,1,2024-02-28T14:37:05.146Z,english_913.wav,0,peel,479,28,5,2,english,f,9,0.9,54.77477233,1.68418537
602b4e7594c5ae2908aa7f60,52,1,2024-02-28T14:37:05.146Z,english_913.wav,0,peel,479,28,5,2,english,f,10,1.0,9.76021826,1.91621277
602b4e7594c5ae2908aa7f60,52,1,2024-02-28T14:37:05.146Z,english_913.wav,0,peel,479,28,5,2,english,f,11,1.09391667,-30.35128441,1.40243908
602b4e7594c5ae2908aa7f60,53,1,2024-02-28T14:37:05.146Z,english_741.wav,0,peel,848,28,5,2,english,f,0,0.0,-52.58118809,0.04069066
602b4e7594c5ae2908aa7f60,53,1,2024-02-28T14:37:05.146Z,english_741.wav,0,peel,848,28,5,2,english,f,1,0.1,12.25497131,1.79280913
602b4e7594c5ae2908aa7f60,53,1,2024-02-28T14:37:05.146Z,english_741.wav,0,peel,848,28,5,2,english,f,2,0.2,-66.99465096,1.62861486
602b4e7594c5ae2908aa7f60,53,1,2024-02-28T14:37:05.146Z,english_741.wav,0,peel,848,28,5,2,english,f,3,0.3,33.21075969,1.99142518
602b4e7594c5ae2908aa7f60,53,1,2024-02-28T14:37:05.146Z,english_741.wav,0,peel,848,28,5,2,english,f,4,0.4,-80.7229313,0.68846699
602b4e7594c5ae2908aa7f60,53,1,2024-02-28T14:37:05.146Z,english_741.wav,0,peel,848,28,5,2,english,f,5,0.5,33.52953563,0.95565852
602b4e7594c5ae2908aa7f60,53,1,2024-02-28T14:37:05.146Z,english_741.wav,0,peel,848,28,5,2,english,f,6,0.6,-70.06014591,1.55389223
602b4e7594c5ae2908aa7f60,53,1,2024-02-28T14:37:05.146Z,english_741.wav,0,peel,848,28,5,2,english,f,7,0.7,74.24671254,0.39415735
602b4e7594c5ae2908aa7f60,53,1,2024-02-28T14:37:05.146Z,english_741.wav,0,peel,848,28,5,2,english,f,8,0.8,-72.74719072,1.19562483
602b4e7594c5ae2908aa7f60,53,1,2024-02-28T14:37:05.146Z,english_741.wav,0,peel,848,28,5,2,english,f,9,0.9,-6.6044487,1.16664034
602b4e7594c5ae2908aa7f60,53,1,2024-02-28T14:37:05.146Z,english_741.wav,0,peel,848,28,5,2,english,f,10,1.0,14.62137165,0.62122377
602b4e7594c5ae2908aa7f60,53,1,2024-02-28T14:37:05.146Z,english_741.wav,0,peel,848,28,5,2,english,f,11,1.09391667,-3.50523329,0.83751938
602b4e7594c5ae2908aa7f60,54,1,2024-02-28T14:37:05.146Z,english_161.wav,0,peel,219,28,5,2,english,f,0,0.0,0.2450503,0.47001228
602b4e7594c5ae2908aa7f60,54,1,2024-02-28T14:37:05.146Z,english_161.wav,0,peel,219,28,5,2,english,f,1,0.1,41.86400045,1.24375119
602b4e7594c5ae2908aa7f60,54,1,2024-02-28T14:37:05.146Z,english_161.wav,0,peel,219,28,5,2,english,f,2,0.2,3.22348346,0.98802588
602b4e7594c5ae2908aa7f60,54,1,2024-02-28T14:37:05.146Z,english_161.wav,0,peel,219,28,5,2,english,f,3,0.3,-24.29894103,1.92952194
602b4e7594c5ae2908aa7f60,54,1,2024-02-28T14:37:05.146Z,english_161.wav,0,peel,219,28,5,2,english,f,4,0.4,66.4308336,0.84385332
602b4e7594c5ae2908aa7f60,54,1,2024-02-28T14:37:05.146Z,english_161.wav,0,peel,219,28,5,2,english,f,5,0.5,-79.52202924,0.34569188
602b4e7594c5ae2908aa7f60,54,1,2024-02-28T14:37:05.146Z,english_161.wav,0,peel,219,28,5,2,english,f,6,0.6,-4.00284897,1.46988057
602b4e7594c5ae2908aa7f60,54,1,2024-02-28T14:37:05.146Z,english_161.wav,0,peel,219,28,5,2,english,f,7,0.7,-82.69040612,0.94597317
602b4e7594c5ae2908aa7f60,54,1,2024-02-28T14:37:05.146Z,english_161.wav,0,peel,219,28,5,2,english,f,8,0.8,32.14289288,0.70955806
602b4e7594c5ae2908aa7f60,54,1,2024-02-28T14:37:05.146Z,english_161.wav,0,peel,219,28,5,2,english,f,9,0.9,-94.27188699,1.39207721
602b4e7594c5ae2908aa7f60,54,1,2024-02-28T14:37:05.146Z,english_161.wav,0,peel,219,28,5,2,english,f,10,1.0,-14.10162234,0.79549611
602b4e7594c5ae2908aa7f60,54,1,2024-02-28T14:37:05.146Z,english_161.wav,0,peel,219,28,5,2,english,f,11,1.09391667,27.39748728,1.7090018
602b4e7594c5ae2908aa7f60,55,1,2024-02-28T14:37:05.146Z,english_700.wav,0,peel,190,28,5,2,english,f,0,0.0,68.07429642,0.65814928
602b4e7594c5ae2908aa7f60,55,1,2024-02-28T14:37:05.146Z,english_700.wav,0,peel,190,28,5,2,english,f,1,0.1,-37.49377634,0.17735138
602b4e7594c5ae2908aa7f60,55,1,2024-02-28T14:37:05.146Z,english_700.wav,0,peel,190,28,5,2,english,f,2,0.2,-23.04099004,0.86512997
602b4e7594c5ae2908aa7f60,55,1,2024-02-28T14:37:05.146Z,english_700.wav,0,peel,190,28,5,2,english,f,3,0.3,29.04143541,1.58435568
602b4e7594c5ae2908aa7f60,55,1,2024-02-28T14:37:05.146Z,english_700.wav,0,peel,190,28,5,2,english,f,4,0.4,20.45754453,1.51654074
602b4e7594c5ae2908aa7f60,55,1,2024-02-28T14:37:05.146Z,english_700.wav,0,peel,190,28,5,2,english,f,5,0.5,37.24109952,1.28756254
602b4e7594c5ae2908aa7f60,55,1,2024-02-28T14:37:05.146Z,english_700.wav,0,peel,190,28,5,2,english,f,6,0.6,39.64018777,0.60860264
602b4e7594c5ae2908aa7f60,55,1,2024-02-28T14:37:05.146Z,english_700.wav,0,peel,190,28,5,2,english,f,7,0.7,51.86520487,1.44468929
602b4e7594c5ae2908aa7f60,55,1,2024-02-28T14:37:05.146Z,english_700.wav,0,peel,190,28,5,2,english,f,8,0.8,48.29334393,1.11255223
602b4e7594c5ae2908aa7f60,55,1,2024-02-28T14:37:05.146Z,english_700.wav,0,peel,190,28,5,2,english,f,9,0.9,69.44263224,0.2005319
602b4e7594c5ae2908aa7f60,55,1,2024-02-28T14:37:05.146Z,english_700.wav,0,peel,190,28,5,2,english,f,10,1.0,-89.62778161,1.42301772
602b4e7594c5ae2908aa7f60,55,1,2024-02-28T14:37:05.146Z,english_700.wav,0,peel,190,28,5,2,english,f,11,1.09391667,-27.88856176,1.42118254
602b4e7594c5ae2908aa7f60,56,1,2024-02-28T14:37:05.146Z,english_581.wav,0,peel,338,28,5,2,english,f,0,0.0,73.66932606,1.55016183
602b4e7594c5ae2908aa7f60,56,1,2024-02-28T14:37:05.146Z,english_581.wav,0,peel,338,28,5,2,english,f,1,0.1,-66.94779644,0.89838662
602b4e7594c5ae2908aa7f60,56,1,2024-02-28T14:37:05.146Z,english_581.wav,0,peel,338,28,5,2,english,f,2,0.2,17.54153331,0.42808685
602b4e7594c5ae2908aa7f60,56,1,2024-02-28T14:37:05.146Z,english_581.wav,0,peel,338,28,5,2,english,f,3,0.3,-33.4804178,0.92207517
602b4e7594c5ae2908aa7f60,56,1,2024-02-28T14:37:05.146Z,english_581.wav,0,peel,338,28,5,2,english,f,4,0.4,-75.87348007,0.40201435
602b4e7594c5ae2908aa7f60,56,1,2024-02-28T14:37:05.146Z,english_581.wav,0,peel,338,28,5,2,english,f,5,0.5,-19.3699166,0.78725452
602b4e7594c5ae2908aa7f60,56,1,2024-02-28T14:37:05.146Z,english_581.wav,0,peel,338,28,5,2,english,f,6,0.6,44.64649322,0.99552959
602b4e7594c5ae2908aa7f60,56,1,2024-02-28T14:37:05.146Z,english_581.wav,0,peel,338,28,5,2,english,f,7,0.7,49.72085551,1.64481575
602b4e7594c5ae2908aa7f60,56,1,2024-02-28T14:37:05.146Z,english_581.wav,0,peel,338,28,5,2,english,f,8,0.8,-60.52101801,1.59282789
602b4e7594c5ae2908aa7f60,56,1,2024-02-28T14:37:05.146Z,english_581.wav,0,peel,338,28,5,2,english,f,9,0.9,-63.98249467,0.98679066
602b4e7594c5ae2908aa7f60,56,1,2024-02-28T14:37:05.146Z,english_581.wav,0,peel,338,28,5,2,english,f,10,1.0,-38.32664081,1.29384626
602b4e7594c5ae2908aa7f60,56,1,2024-02-28T14:37:05.146Z,english_581.wav,0,peel,338,28,5,2,english,f,11,1.09391667,93.53202253,1.70769846
602b4e7594c5ae2908aa7f60,57,1,2024-02-28T14:37:05.146Z,english_807.wav,0,peel,353,28,5,2,english,f,0,0.0,-34.7601745,1.20965337
602b4e7594c5ae2908aa7f60,57,1,2024-02-28T14:37:05.146Z,english_807.wav,0,peel,353,28,5,2,english,f,1,0.1,33.36048689,1.65563234
602b4e7594c5ae2908aa7f60,57,1,2024-02-28T14:37:05.146Z,english_807.wav,0,peel,353,28,5,2,english,f,2,0.2,-67.67370502,1.59964516
602b4e7594c5ae2908aa7f60,57,1,2024-02-28T14:37:05.146Z,english_807.wav,0,peel,353,28,5,2,english,f,3,0.3,-75.303265,0.1616649
602b4e7594c5ae2908aa7f60,57,1,2024-02-28T14:37:05.146Z,english_807.wav,0,peel,353,28,5,2,english,f,4,0.4,50.02795893,0.65690397
602b4e7594c5ae2908aa7f60,57,1,2024-02-28T14:37:05.146Z,english_807.wav,0,peel,353,28,5,2,english,f,5,0.5,-86.15237501,1.06047173
602b4e7594c5ae2908aa7f60,57,1,2024-02-28T14:37:05.146Z,english_807.wav,0,peel,353,28,5,2,english,f,6,0.6,75.95576156,1.33167503
602b4e7594c5ae2908aa7f60,57,1,2024-02-28T14:37:05.146Z,english_807.wav,0,peel,353,28,5,2,english,f,7,0.7,90.49040763,0.49356808
602b4e7594c5ae2908aa7f60,57,1,2024-02-28T14:37:05.146Z,english_807.wav,0,peel,353,28,5,2,english,f,8,0.8,-21.66303016,0.55567292
602b4e7594c5ae2908aa7f60,57,1,2024-02-28T14:37:05.146Z,english_807.wav,0,peel,353,28,5,2,english,f,9,0.9,-29.03621191,1.52247069
602b4e7594c5ae2908aa7f60,57,1,2024-02-28T14:37:05.146Z,english_807.wav,0,peel,353,28,5,2,english,f,10,1.0,-43.10401298,1.04125391
602b4e7594c5ae2908aa7f60,57,1,2024-02-28T14:37:05.146Z,english_807.wav,0,peel,353,28,5,2,english,f,11,1.09391667,15.25709301,0.73437953
602b4e7594c5ae2908aa7f60,58,1,2024-02-28T14:37:05.146Z,english_848.wav,0,peel,163,28,5,2,english,f,0,0.0,16.27018666,0.42429773
602b4e7594c5ae2908aa7f60,58,1,2024-02-28T14:37:05.146Z,english_848.wav,0,peel,163,28,5,2,english,f,1,0.1,-74.75395213,0.55671169
602b4e7594c5ae2908aa7f60,58,1,2024-02-28T14:37:05.146Z,english_848.wav,0,peel,163,28,5,2,english,f,2,0.2,55.44859949,0.96508228
602b4e7594c5ae2908aa7f60,58,1,2024-02-28T14:37:05.146Z,english_848.wav,0,peel,163,28,5,2,english,f,3,0.3,-32.83945411,0.7665276
602b4e7594c5ae2908aa7f60,58,1,2024-02-28T14:37:05.146Z,english_848.wav,0,peel,163,28,5,2,english,f,4,0.4,30.01434436,0.96341741
602b4e7594c5ae2908aa7f60,58,1,2024-02-28T14:37:05.146Z,english_848.wav,0,peel,163,28,5,2,english,f,5,0.5,48.58281319,0.06275252
602b4e7594c5ae2908aa7f60,58,1,2024-02-28T14:37:05.146Z,english_848.wav,0,peel,163,28,5,2,english,f,6,0.6,-85.68192699,0.89297301
602b4e7594c5ae2908aa7f60,58,1,2024-02-28T14:37:05.146Z,english_848.wav,0,peel,163,28,5,2,english,f,7,0.7,27.03943406,0.16213779
602b4e7594c5ae2908aa7f60,58,1,2024-02-28T14:37:05.146Z,english_848.wav,0,peel,163,28,5,2,english,f,8,0.8,14.64264022,1.88232235
602b4e7594c5ae2908aa7f60,58,1,2024-02-28T14:37:05.146Z,english_848.wav,0,peel,163,28,5,2,english,f,9,0.9,-60.92798451,1.9298227
602b4e7594c5ae2908aa7f60,58,1,2024-02-28T14:37:05.146Z,english_848.wav,0,peel,163,28,5,2,english,f,10,1.0,-13.82637474,0.08076178
602b4e7594c5ae2908aa7f60,58,1,2024-02-28T14:37:05.146Z,english_848.wav,0,peel,163,28,5,2,english,f,11,1.09391667,-65.39894946,1.11155621
602b4e7594c5ae2908aa7f60,59,1,2024-02-28T14:37:05.146Z,english_427.wav,0,pill,614,28,5,2,english,f,0,0.0,-34.05157895,1.0004529
602b4e7594c5ae2908aa7f60,59,1,2024-02-28T14:37:05.146Z,english_427.wav,0,pill,614,28,5,2,english,f,1,0.1,58.19153473,1.21096565
602b4e7594c5ae2908aa7f60,59,1,2024-02-28T14:37:05.146Z,english_427.wav,0,pill,614,28,5,2,english,f,2,0.2,-48.12257975,0.11590133
602b4e7594c5ae2908aa7f60,59,1,2024-02-28T14:37:05.146Z,english_427.wav,0,pill,614,28,5,2,english,f,3,0.3,49.89061623,1.91629618
602b4e7594c5ae2908aa7f60,59,1,2024-02-28T14:37:05.146Z,english_427.wav,0,pill,614,28,5,2,english,f,4,0.4,34.36154687,1.2268838
602b4e7594c5ae2908aa7f60,59,1,2024-02-28T14:37:05.146Z,english_427.wav,0,pill,614,28,5,2,english,f,5,0.5,-5.3172375,1.50953507
602b4e7594c5ae2908aa7f60,59,1,2024-02-28T14:37:05.146Z,english_427.wav,0,pill,614,28,5,2,english,f,6,0.6,22.96924358,0.88661312
602b4e7594c5ae2908aa7f60,59,1,2024-02-28T14:37:05.146Z,english_427.wav,0,pill,614,28,5,2,english,f,7,0.7,-97.31174849,0.11078335
602b4e7594c5ae2908aa7f60,59,1,2024-02-28T14:37:05.146Z,english_427.wav,0,pill,614,28,5,2,english,f,8,0.8,-28.90224272,0.79636785
602b4e7594c5ae2908aa7f60,59,1,2024-02-28T14:37:05.146Z,english_427.wav,0,pill,614,28,5,2,english,f,9,0.9,-26.24845885,0.27345116
602b4e7594c5ae2908aa7f60,59,1,2024-02-28T14:37:05.146Z,english_427.wav,0,pill,614,28,5,2,english,f,10,1.0,92.28378811,0.14785478
602b4e7594c5ae2908aa7f60,59,1,2024-02-28T14:37:05.146Z,english_427.wav,0,pill,614,28,5,2,english,f,11,1.09391667,-48.38945182,0.43629002
602b4e7594c5ae2908aa7f60,60,1,2024-02-28T14:37:05.146Z,english_344.wav,0,peel,1986,28,5,2,english,f,0,0.0,-58.25322537,0.93148221
602b4e7594c5ae2908aa7f60,60,1,2024-02-28T14:37:05.146Z,english_344.wav,0,peel,1986,28,5,2,english,f,1,0.1,78.85302542,0.39116105
602b4e7594c5ae2908aa7f60,60,1,2024-02-28T14:37:05.146Z,english_344.wav,0,peel,1986,28,5,2,english,f,2,0.2,-34.72652084,0.5483104
602b4e7594c5ae2908aa7f60,60,1,2024-02-28T14:37:05.146Z,english_344.wav,0,peel,1986,28,5,2,english,f,3,0.3,27.94681387,1.60079305
602b4e7594c5ae2908aa7f60,60,1,2024-02-28T14:37:05.146Z,english_344.wav,0,peel,1986,28,5,2,english,f,4,0.4,-20.54628146,1.44239005
602b4e7594c5ae2908aa7f60,60,1,2024-02-28T14:37:05.146Z,english_344.wav,0,peel,1986,28,5,2,english,f,5,0.5,84.36565837,0.93643089
602b4e7594c5ae2908aa7f60,60,1,2024-02-28T14:37:05.146Z,english_344.wav,0,peel,1986,28,5,2,english,f,6,0.6,34.72058422,1.03853354
602b4e7594c5ae2908aa7f60,60,1,2024-02-28T14:37:05.146Z,english_344.wav,0,peel,1986,28,5,2,english,f,7,0.7,43.31881815,0.23530343
602b4e7594c5ae2908aa7f60,60,1,2024-02-28T14:37:05.146Z,english_344.wav,0,peel,1986,28,5,2,english,f,8,0.8,-55.24586089,1.00130191
602b4e7594c5ae2908aa7f60,60,1,2024-02-28T14:37:05.146Z,english_344.wav,0,peel,1986,28,5,2,english,f,9,0.9,96.49661174,0.39975591
602b4e7594c5ae2908aa7f60,60,1,2024-02-28T14:37:05.146Z,english_344.wav,0,peel,1986,28,5,2,english,f,10,1.0,97.53384237,1.53835418
602b4e7594c5ae2908aa7f60,60,1,2024-02-28T14:37:05.146Z,english_344.wav,0,peel,1986,28,5,2,english,f,11,1.09391667,71.25534923,1.77827836
602b4e7594c5ae2908aa7f60,61,1,2024-02-28T14:40:42.906Z,english_595.wav,0,peel,1174,28,5,2,english,f,0,0.0,22.66066479,1.33322286
602b4e7594c5ae2908aa7f60,61,1,2024-02-28T14:40:42.906Z,english_595.wav,0,peel,1174,28,5,2,english,f,1,0.1,84.39995443,0.79225642
602b4e7594c5ae2908aa7f60,61,1,2024-02-28T14:40:42.906Z,english_595.wav,0,peel,1174,28,5,2,english,f,2,0.2,19.72307996,0.78213906
602b4e7594c5ae2908aa7f60,61,1,2024-02-28T14:40:42.906Z,english_595.wav,0,peel,1174,28,5,2,english,f,3,0.3,-75.24605749,0.04755157
602b4e7594c5ae2908aa7f60,61,1,2024-02-28T14:40:42.906Z,english_595.wav,0,peel,1174,28,5,2,english,f,4,0.4,-67.45783177,1.8774159
602b4e7594c5ae2908aa7f60,61,1,2024-02-28T14:40:42.906Z,english_595.wav,0,peel,1174,28,5,2,english,f,5,0.5,-37.47794161,0.68932381
602b4e7594c5ae2908aa7f60,61,1,2024-02-28T14:40:42.906Z,english_595.wav,0,peel,1174,28,5,2,english,f,6,0.6,11.08818928,1.24235148
602b4e7594c5ae2908aa7f60,61,1,2024-02-28T14:40:42.906Z,english_595.wav,0,peel,1174,28,5,2,english,f,7,0.7,46.85817265,1.6524831
602b4e7594c5ae2908aa7f60,61,1,2024-02-28T14:40:42.906Z,english_595.wav,0,peel,1174,28,5,2,english,f,8,0.8,-2.92238114,0.95449466
602b4e7594c5ae2908aa7f60,61,1,2024-02-28T14:40:42.906Z,english_595.wav,0,peel,1174,28,5,2,english,f,9,0.9,58.48560552,1.23515898
602b4e7594c5ae2908aa7f60,61,1,2024-02-28T14:40:42.906Z,english_595.wav,0,peel,1174,28,5,2,english,f,10,1.0,-52.60786122,1.92684196
602b4e7594c5ae2908aa7f60,61,1,2024-02-28T14:40:42.906Z,english_595.wav,0,peel,1174,28,5,2,english,f,11,1.09391667,16.6492661,0.85611045
602b4e7594c5ae2908aa7f60,62,1,2024-02-28T14:40:42.906Z,english_910.wav,0,peel,360,28,5,2,english,f,0,0.0,93.46024718,0.69074333
602b4e7594c5ae2908aa7f60,62,1,2024-02-28T14:40:42.906Z,english_910.wav,0,peel,360,28,5,2,english,f,1,0.1,-38.0106705,0.32933862
602b4e7594c5ae2908aa7f60,62,1,2024-02-28T14:40:42.906Z,english_910.wav,0,peel,360,28,5,2,english,f,2,0.2,-30.70791106,1.76708997
602b4e7594c5ae2908aa7f60,62,1,2024-02-28T14:40:42.906Z,english_910.wav,0,peel,360,28,5,2,english,f,3,0.3,-49.1070975,0.49648564
602b4e7594c5ae2908aa7f60,62,1,2024-02-28T14:40:42.906Z,english_910.wav,0,peel,360,28,5,2,english,f,4,0.4,91.46247689,1.45285745
602b4e7594c5ae2908aa7f60,62,1,2024-02-28T14:40:42.906Z,english_910.wav,0,peel,360,28,5,2,english,f,5,0.5,78.82386136,1.00544929
602b4e7594c5ae2908aa7f60,62,1,2024-02-28T14:40:42.906Z,english_910.wav,0,peel,360,28,5,2,english,f,6,0.6,-6.45155929,1.307348
602b4e7594c5ae2908aa7f60,62,1,2024-02-28T14:40:42.906Z,english_910.wav,0,peel,360,28,5,2,english,f,7,0.7,-83.2103546,0.52979989
602b4e7594c5ae2908aa7f60,62,1,2024-02-28T14:40:42.906Z,english_910.wav,0,peel,360,28,5,2,english,f,8,0.8,-83.88050829,1.11439341
602b4e7594c5ae2908aa7f60,62,1,2024-02-28T14:40:42.906Z,english_910.wav,0,peel,360,28,5,2,english,f,9,0.9,-99.45548406,1.95169189
602b4e7594c5ae2908aa7f60,62,1,2024-02-28T14:40:42.906Z,english_910.wav,0,peel,360,28,5,2,english,f,10,1.0,66.97768693,1.74620984
602b4e7594c5ae2908aa7f60,62,1,2024-02-28T14:40:42.906Z,english_910.wav,0,peel,360,28,5,2,english,f,11,1.09391667,38.56846955,0.09671244
602b4e7594c5ae2908aa7f60,63,1,2024-02-28T14:40:42.906Z,english_49.wav,0,peel,567,28,5,2,english,f,0,0.0,-7.77522682,0.84923144
602b4e7594c5ae2908aa7f60,63,1,2024-02-28T14:40:42.906Z,english_49.wav,0,peel,567,28,5,2,english,f,1,0.1,-69.00488143,0.33119372
602b4e7594c5ae2908aa7f60,63,1,2024-02-28T14:40:42.906Z,english_49.wav,0,peel,567,28,5,2,english,f,2,0.2,56.47558832,1.22070051
602b4e7594c5ae2908aa7f60,63,1,2024-02-28T14:40:42.906Z,english_49.wav,0,peel,567,28,5,2,english,f,3,0.3,47.73828653,0.09401361
602b4e7594c5ae2908aa7f60,63,1,2024-02-28T14:40:42.906Z,english_49.wav,0,peel,567,28,5,2,english,f,4,0.4,-58.74936134,0.13758585
602b4e7594c5ae2908aa7f60,63,1,2024-02-28T14:40:42.906Z,english_49.wav,0,peel,567,28,5,2,english,f,5,0.5,-16.00930073,1.02104263
602b4e7594c5ae2908aa7f60,63,1,2024-02-28T14:40:42.906Z,english_49.wav,0,peel,567,28,5,2,english,f,6,0.6,68.77090309,1.27727042
602b4e7594c5ae2908aa7f60,63,1,2024-02-28T14:40:42.906Z,english_49.wav,0,peel,567,28,5,2,english,f,7,0.7,47.28501738,0.65680798
602b4e7594c5ae2908aa7f60,63,1,2024-02-28T14:40:42.906Z,english_49.wav,0,peel,567,28,5,2,english,f,8,0.8,-26.83696642,1.41824482
602b4e7594c5ae2908aa7f60,63,1,2024-02-28T14:40:42.906Z,english_49.wav,0,peel,567,28,5,2,english,f,9,0.9,16.45883289,0.73136625
602b4e7594c5ae2908aa7f60,63,1,2024-02-28T14:40:42.906Z,english_49.wav,0,peel,567,28,5,2,english,f,10,1.0,-23.79769264,0.31271595
602b4e7594c5ae2908aa7f60,63,1,2024-02-28T14:40:42.906Z,english_49.wav,0,peel,567,28,5,2,english,f,11,1.09391667,62.62161118,0.15435739
602b4e7594c5ae2908aa7f60,64,1,2024-02-28T14:40:42.906Z,english_470.wav,0,peel,690,28,5,2,english,f,0,0.0,7.37990413,0.50795653
602b4e7594c5ae2908aa7f60,64,1,2024-02-28T14:40:42.906Z,english_470.wav,0,peel,690,28,5,2,english,f,1,0.1,87.94942489,0.30691906
602b4e7594c5ae2908aa7f60,64,1,2024-02-28T14:40:42.906Z,english_470.wav,0,peel,690,28,5,2,english,f,2,0.2,10.38249529,0.98636118
602b4e7594c5ae2908aa7f60,64,1,2024-02-28T14:40:42.906Z,english_470.wav,0,peel,690,28,5,2,english,f,3,0.3,-58.07329771,1.21445168
602b4e7594c5ae2908aa7f60,64,1,2024-02-28T14:40:42.906Z,english_470.wav,0,peel,690,28,5,2,english,f,4,0.4,23.85321855,1.48681533
602b4e7594c5ae2908aa7f60,64,1,2024-02-28T14:40:42.906Z,english_470.wav,0,peel,690,28,5,2,english,f,5,0.5,6.8444155,0.97810489
602b4e7594c5ae2908aa7f60,64,1,2024-02-28T14:40:42.906Z,english_470.wav,0,peel,690,28,5,2,english,f,6,0.6,-98.77408233,1.43803165
