subj,trial,block,date,stim,stim_order,response,rt,age,english,french,language,sex,param_index,segment,pitch,stretch
5e2e147d047efa000c6b833d,0,0,2024-02-28T15:35:28.887Z,english_340.wav,0,peel,4272,36,5,2,English,m,0,0.0,19.74255444,0.3319767
5e2e147d047efa000c6b833d,0,0,2024-02-28T15:35:28.887Z,english_340.wav,0,peel,4272,36,5,2,English,m,1,0.1,25.16855735,0.61048523
5e2e147d047efa000c6b833d,0,0,2024-02-28T15:35:28.887Z,english_340.wav,0,peel,4272,36,5,2,English,m,2,0.2,-45.10982673,0.21275179
5e2e147d047efa000c6b833d,0,0,2024-02-28T15:35:28.887Z,english_340.wav,0,peel,4272,36,5,2,English,m,3,0.3,-94.4237425,0.29825912
5e2e147d047efa000c6b833d,0,0,2024-02-28T15:35:28.887Z,english_340.wav,0,peel,4272,36,5,2,English,m,4,0.4,33.61318105,0.68673966
5e2e147d047efa000c6b833d,0,0,2024-02-28T15:35:28.887Z,english_340.wav,0,peel,4272,36,5,2,English,m,5,0.5,-32.11968845,0.56528685
5e2e147d047efa000c6b833d,0,0,2024-02-28T15:35:28.887Z,english_340.wav,0,peel,4272,36,5,2,English,m,6,0.6,-73.96198045,1.1523669
5e2e147d047efa000c6b833d,0,0,2024-02-28T15:35:28.887Z,english_340.wav,0,peel,4272,36,5,2,English,m,7,0.7,-70.65108678,1.56179354
5e2e147d047efa000c6b833d,0,0,2024-02-28T15:35:28.887Z,english_340.wav,0,peel,4272,36,5,2,English,m,8,0.8,-16.68054018,0.7478511
5e2e147d047efa000c6b833d,0,0,2024-02-28T15:35:28.887Z,english_340.wav,0,peel,4272,36,5,2,English,m,9,0.9,17.74464594,1.06303665
5e2e147d047efa000c6b833d,0,0,2024-02-28T15:35:28.887Z,english_340.wav,0,peel,4272,36,5,2,English,m,10,1.0,-17.13563894,1.69470448
5e2e147d047efa000c6b833d,0,0,2024-02-28T15:35:28.887Z,english_340.wav,0,peel,4272,36,5,2,English,m,11,1.09391667,85.44426077,1.53904315
5e2e147d047efa000c6b833d,1,0,2024-02-28T15:35:28.887Z,english_65.wav,0,peel,845,36,5,2,English,m,0,0.0,-44.08652709,1.3840041
5e2e147d047efa000c6b833d,1,0,2024-02-28T15:35:28.887Z,english_65.wav,0,peel,845,36,5,2,English,m,1,0.1,3.68023197,1.67820436
5e2e147d047efa000c6b833d,1,0,2024-02-28T15:35:28.887Z,english_65.wav,0,peel,845,36,5,2,English,m,2,0.2,-19.05866896,1.58939797
5e2e147d047efa000c6b833d,1,0,2024-02-28T15:35:28.887Z,english_65.wav,0,peel,845,36,5,2,English,m,3,0.3,12.87316772,0.13316714
5e2e147d047efa000c6b833d,1,0,2024-02-28T15:35:28.887Z,english_65.wav,0,peel,845,36,5,2,English,m,4,0.4,-96.16119339,0.86814229
5e2e147d047efa000c6b833d,1,0,2024-02-28T15:35:28.887Z,english_65.wav,0,peel,845,36,5,2,English,m,5,0.5,-80.0946771,0.41459676
5e2e147d047efa000c6b833d,1,0,2024-02-28T15:35:28.887Z,english_65.wav,0,peel,845,36,5,2,English,m,6,0.6,69.71447188,1.482845
5e2e147d047efa000c6b833d,1,0,2024-02-28T15:35:28.887Z,english_65.wav,0,peel,845,36,5,2,English,m,7,0.7,31.09176238,0.500881
5e2e147d047efa000c6b833d,1,0,2024-02-28T15:35:28.887Z,english_65.wav,0,peel,845,36,5,2,English,m,8,0.8,5.95151439,1.54890047
5e2e147d047efa000c6b833d,1,0,2024-02-28T15:35:28.887Z,english_65.wav,0,peel,845,36,5,2,English,m,9,0.9,-95.02350092,0.653854
5e2e147d047efa000c6b833d,1,0,2024-02-28T15:35:28.887Z,english_65.wav,0,peel,845,36,5,2,English,m,10,1.0,40.23975653,1.48515765
5e2e147d047efa000c6b833d,1,0,2024-02-28T15:35:28.887Z,english_65.wav,0,peel,845,36,5,2,English,m,11,1.09391667,55.65657795,1.57918375
5e2e147d047efa000c6b833d,2,0,2024-02-28T15:35:28.887Z,english_359.wav,0,pill,381,36,5,2,English,m,0,0.0,16.62356483,0.11907426
5e2e147d047efa000c6b833d,2,0,2024-02-28T15:35:28.887Z,english_359.wav,0,pill,381,36,5,2,English,m,1,0.1,-64.66657599,1.11022803
5e2e147d047efa000c6b833d,2,0,2024-02-28T15:35:28.887Z,english_359.wav,0,pill,381,36,5,2,English,m,2,0.2,20.81574107,1.93552837
5e2e147d047efa000c6b833d,2,0,2024-02-28T15:35:28.887Z,english_359.wav,0,pill,381,36,5,2,English,m,3,0.3,62.21324861,0.18628365
5e2e147d047efa000c6b833d,2,0,2024-02-28T15:35:28.887Z,english_359.wav,0,pill,381,36,5,2,English,m,4,0.4,-96.92379856,1.68045213
5e2e147d047efa000c6b833d,2,0,2024-02-28T15:35:28.887Z,english_359.wav,0,pill,381,36,5,2,English,m,5,0.5,-63.09314604,0.56124054
5e2e147d047efa000c6b833d,2,0,2024-02-28T15:35:28.887Z,english_359.wav,0,pill,381,36,5,2,English,m,6,0.6,85.3804948,1.40840471
5e2e147d047efa000c6b833d,2,0,2024-02-28T15:35:28.887Z,english_359.wav,0,pill,381,36,5,2,English,m,7,0.7,-5.84073458,0.76045624
5e2e147d047efa000c6b833d,2,0,2024-02-28T15:35:28.887Z,english_359.wav,0,pill,381,36,5,2,English,m,8,0.8,1.07766227,0.79738911
5e2e147d047efa000c6b833d,2,0,2024-02-28T15:35:28.887Z,english_359.wav,0,pill,381,36,5,2,English,m,9,0.9,-3.48391837,0.78873787
5e2e147d047efa000c6b833d,2,0,2024-02-28T15:35:28.887Z,english_359.wav,0,pill,381,36,5,2,English,m,10,1.0,5.39755614,0.96854707
5e2e147d047efa000c6b833d,2,0,2024-02-28T15:35:28.887Z,english_359.wav,0,pill,381,36,5,2,English,m,11,1.09391667,59.72301587,0.15927381
5e2e147d047efa000c6b833d,3,0,2024-02-28T15:35:28.887Z,english_97.wav,0,peel,404,36,5,2,English,m,0,0.0,76.37857638,1.79294701
5e2e147d047efa000c6b833d,3,0,2024-02-28T15:35:28.887Z,english_97.wav,0,peel,404,36,5,2,English,m,1,0.1,-4.28991847,0.18306204
5e2e147d047efa000c6b833d,3,0,2024-02-28T15:35:28.887Z,english_97.wav,0,peel,404,36,5,2,English,m,2,0.2,47.01039737,1.8440549
5e2e147d047efa000c6b833d,3,0,2024-02-28T15:35:28.887Z,english_97.wav,0,peel,404,36,5,2,English,m,3,0.3,78.99599817,1.28830428
5e2e147d047efa000c6b833d,3,0,2024-02-28T15:35:28.887Z,english_97.wav,0,peel,404,36,5,2,English,m,4,0.4,-74.44800797,0.92549922
5e2e147d047efa000c6b833d,3,0,2024-02-28T15:35:28.887Z,english_97.wav,0,peel,404,36,5,2,English,m,5,0.5,-0.92525099,1.98803443
5e2e147d047efa000c6b833d,3,0,2024-02-28T15:35:28.887Z,english_97.wav,0,peel,404,36,5,2,English,m,6,0.6,49.24834696,1.73109288
5e2e147d047efa000c6b833d,3,0,2024-02-28T15:35:28.887Z,english_97.wav,0,peel,404,36,5,2,English,m,7,0.7,54.51821925,0.57923617
5e2e147d047efa000c6b833d,3,0,2024-02-28T15:35:28.887Z,english_97.wav,0,peel,404,36,5,2,English,m,8,0.8,21.55646095,1.43675725
5e2e147d047efa000c6b833d,3,0,2024-02-28T15:35:28.887Z,english_97.wav,0,peel,404,36,5,2,English,m,9,0.9,38.61141557,0.35677857
5e2e147d047efa000c6b833d,3,0,2024-02-28T15:35:28.887Z,english_97.wav,0,peel,404,36,5,2,English,m,10,1.0,-51.21992239,0.21609993
5e2e147d047efa000c6b833d,3,0,2024-02-28T15:35:28.887Z,english_97.wav,0,peel,404,36,5,2,English,m,11,1.09391667,-54.62741944,0.92594918
5e2e147d047efa000c6b833d,4,0,2024-02-28T15:35:28.887Z,english_301.wav,0,peel,322,36,5,2,English,m,0,0.0,20.00084454,0.51149801
5e2e147d047efa000c6b833d,4,0,2024-02-28T15:35:28.887Z,english_301.wav,0,peel,322,36,5,2,English,m,1,0.1,-52.8514029,1.39891418
5e2e147d047efa000c6b833d,4,0,2024-02-28T15:35:28.887Z,english_301.wav,0,peel,322,36,5,2,English,m,2,0.2,18.35573453,1.20064295
5e2e147d047efa000c6b833d,4,0,2024-02-28T15:35:28.887Z,english_301.wav,0,peel,322,36,5,2,English,m,3,0.3,20.24530443,1.16262284
5e2e147d047efa000c6b833d,4,0,2024-02-28T15:35:28.887Z,english_301.wav,0,peel,322,36,5,2,English,m,4,0.4,-31.13596974,0.89189618
5e2e147d047efa000c6b833d,4,0,2024-02-28T15:35:28.887Z,english_301.wav,0,peel,322,36,5,2,English,m,5,0.5,-57.63348461,0.05591257
5e2e147d047efa000c6b833d,4,0,2024-02-28T15:35:28.887Z,english_301.wav,0,peel,322,36,5,2,English,m,6,0.6,-75.64185581,1.65560528
5e2e147d047efa000c6b833d,4,0,2024-02-28T15:35:28.887Z,english_301.wav,0,peel,322,36,5,2,English,m,7,0.7,11.75816268,0.92096294
5e2e147d047efa000c6b833d,4,0,2024-02-28T15:35:28.887Z,english_301.wav,0,peel,322,36,5,2,English,m,8,0.8,94.20607314,0.41490279
5e2e147d047efa000c6b833d,4,0,2024-02-28T15:35:28.887Z,english_301.wav,0,peel,322,36,5,2,English,m,9,0.9,-85.03664705,1.73145538
5e2e147d047efa000c6b833d,4,0,2024-02-28T15:35:28.887Z,english_301.wav,0,peel,322,36,5,2,English,m,10,1.0,-35.05020918,1.60276464
5e2e147d047efa000c6b833d,4,0,2024-02-28T15:35:28.887Z,english_301.wav,0,peel,322,36,5,2,English,m,11,1.09391667,79.38839228,1.26188471
5e2e147d047efa000c6b833d,5,0,2024-02-28T15:35:28.887Z,english_162.wav,0,pill,604,36,5,2,English,m,0,0.0,26.55716136,1.5554451
5e2e147d047efa000c6b833d,5,0,2024-02-28T15:35:28.887Z,english_162.wav,0,pill,604,36,5,2,English,m,1,0.1,11.82804586,0.73276272
5e2e147d047efa000c6b833d,5,0,2024-02-28T15:35:28.887Z,english_162.wav,0,pill,604,36,5,2,English,m,2,0.2,-23.9414726,1.80328422
5e2e147d047efa000c6b833d,5,0,2024-02-28T15:35:28.887Z,english_162.wav,0,pill,604,36,5,2,English,m,3,0.3,-1.71566049,0.92347316
5e2e147d047efa000c6b833d,5,0,2024-02-28T15:35:28.887Z,english_162.wav,0,pill,604,36,5,2,English,m,4,0.4,-19.44382046,0.80698984
5e2e147d047efa000c6b833d,5,0,2024-02-28T15:35:28.887Z,english_162.wav,0,pill,604,36,5,2,English,m,5,0.5,-4.89650776,1.82055232
5e2e147d047efa000c6b833d,5,0,2024-02-28T15:35:28.887Z,english_162.wav,0,pill,604,36,5,2,English,m,6,0.6,-86.90887997,1.9917578
5e2e147d047efa000c6b833d,5,0,2024-02-28T15:35:28.887Z,english_162.wav,0,pill,604,36,5,2,English,m,7,0.7,-2.56378327,0.80582965
5e2e147d047efa000c6b833d,5,0,2024-02-28T15:35:28.887Z,english_162.wav,0,pill,604,36,5,2,English,m,8,0.8,6.4232906,1.51404022
5e2e147d047efa000c6b833d,5,0,2024-02-28T15:35:28.887Z,english_162.wav,0,pill,604,36,5,2,English,m,9,0.9,85.15737342,0.66169756
5e2e147d047efa000c6b833d,5,0,2024-02-28T15:35:28.887Z,english_162.wav,0,pill,604,36,5,2,English,m,10,1.0,86.70536365,0.35533471
5e2e147d047efa000c6b833d,5,0,2024-02-28T15:35:28.887Z,english_162.wav,0,pill,604,36,5,2,English,m,11,1.09391667,85.58259912,1.22719758
5e2e147d047efa000c6b833d,6,0,2024-02-28T15:35:28.887Z,english_848.wav,0,pill,824,36,5,2,English,m,0,0.0,16.27018666,0.42429773
5e2e147d047efa000c6b833d,6,0,2024-02-28T15:35:28.887Z,english_848.wav,0,pill,824,36,5,2,English,m,1,0.1,-74.75395213,0.55671169
5e2e147d047efa000c6b833d,6,0,2024-02-28T15:35:28.887Z,english_848.wav,0,pill,824,36,5,2,English,m,2,0.2,55.44859949,0.96508228
5e2e147d047efa000c6b833d,6,0,2024-02-28T15:35:28.887Z,english_848.wav,0,pill,824,36,5,2,English,m,3,0.3,-32.83945411,0.7665276
5e2e147d047efa000c6b833d,6,0,2024-02-28T15:35:28.887Z,english_848.wav,0,pill,824,36,5,2,English,m,4,0.4,30.01434436,0.96341741
5e2e147d047efa000c6b833d,6,0,2024-02-28T15:35:28.887Z,english_848.wav,0,pill,824,36,5,2,English,m,5,0.5,48.58281319,0.06275252
5e2e147d047efa000c6b833d,6,0,2024-02-28T15:35:28.887Z,english_848.wav,0,pill,824,36,5,2,English,m,6,0.6,-85.68192699,0.89297301
5e2e147d047efa000c6b833d,6,0,2024-02-28T15:35:28.887Z,english_848.wav,0,pill,824,36,5,2,English,m,7,0.7,27.03943406,0.16213779
5e2e147d047efa000c6b833d,6,0,2024-02-28T15:35:28.887Z,english_848.wav,0,pill,824,36,5,2,English,m,8,0.8,14.64264022,1.88232235
5e2e147d047efa000c6b833d,6,0,2024-02-28T15:35:28.887Z,english_848.wav,0,pill,824,36,5,2,English,m,9,0.9,-60.92798451,1.9298227
5e2e147d047efa000c6b833d,6,0,2024-02-28T15:35:28.887Z,english_848.wav,0,pill,824,36,5,2,English,m,10,1.0,-13.82637474,0.08076178
5e2e147d047efa000c6b833d,6,0,2024-02-28T15:35:28.887Z,english_848.wav,0,pill,824,36,5,2,English,m,11,1.09391667,-65.39894946,1.11155621
5e2e147d047efa000c6b833d,7,0,2024-02-28T15:35:28.887Z,english_420.wav,0,pill,575,36,5,2,English,m,0,0.0,66.35781632,1.51060149
5e2e147d047efa000c6b833d,7,0,2024-02-28T15:35:28.887Z,english_420.wav,0,pill,575,36,5,2,English,m,1,0.1,-12.06831675,0.86092396
5e2e147d047efa000c6b833d,7,0,2024-02-28T15:35:28.887Z,english_420.wav,0,pill,575,36,5,2,English,m,2,0.2,71.12167329,1.98213421
5e2e147d047efa000c6b833d,7,0,2024-02-28T15:35:28.887Z,english_420.wav,0,pill,575,36,5,2,English,m,3,0.3,-65.08320496,0.15165496
5e2e147d047efa000c6b833d,7,0,2024-02-28T15:35:28.887Z,english_420.wav,0,pill,575,36,5,2,English,m,4,0.4,-82.82301749,1.26926091
5e2e147d047efa000c6b833d,7,0,2024-02-28T15:35:28.887Z,english_420.wav,0,pill,575,36,5,2,English,m,5,0.5,32.31625944,1.00523376
5e2e147d047efa000c6b833d,7,0,2024-02-28T15:35:28.887Z,english_420.wav,0,pill,575,36,5,2,English,m,6,0.6,68.14197427,1.33555594
5e2e147d047efa000c6b833d,7,0,2024-02-28T15:35:28.887Z,english_420.wav,0,pill,575,36,5,2,English,m,7,0.7,69.60296215,1.16834727
5e2e147d047efa000c6b833d,7,0,2024-02-28T15:35:28.887Z,english_420.wav,0,pill,575,36,5,2,English,m,8,0.8,38.87135773,0.07961385
5e2e147d047efa000c6b833d,7,0,2024-02-28T15:35:28.887Z,english_420.wav,0,pill,575,36,5,2,English,m,9,0.9,55.81325805,0.13061417
5e2e147d047efa000c6b833d,7,0,2024-02-28T15:35:28.887Z,english_420.wav,0,pill,575,36,5,2,English,m,10,1.0,91.56317805,1.16603809
5e2e147d047efa000c6b833d,7,0,2024-02-28T15:35:28.887Z,english_420.wav,0,pill,575,36,5,2,English,m,11,1.09391667,58.32530745,1.93332186
5e2e147d047efa000c6b833d,8,0,2024-02-28T15:35:28.887Z,english_433.wav,0,pill,189,36,5,2,English,m,0,0.0,-74.5918135,1.01979496
5e2e147d047efa000c6b833d,8,0,2024-02-28T15:35:28.887Z,english_433.wav,0,pill,189,36,5,2,English,m,1,0.1,28.79821434,0.80806248
5e2e147d047efa000c6b833d,8,0,2024-02-28T15:35:28.887Z,english_433.wav,0,pill,189,36,5,2,English,m,2,0.2,97.27836698,0.68923441
5e2e147d047efa000c6b833d,8,0,2024-02-28T15:35:28.887Z,english_433.wav,0,pill,189,36,5,2,English,m,3,0.3,70.33680468,0.29842911
5e2e147d047efa000c6b833d,8,0,2024-02-28T15:35:28.887Z,english_433.wav,0,pill,189,36,5,2,English,m,4,0.4,14.06818155,1.28851822
5e2e147d047efa000c6b833d,8,0,2024-02-28T15:35:28.887Z,english_433.wav,0,pill,189,36,5,2,English,m,5,0.5,-16.97736982,0.93328677
5e2e147d047efa000c6b833d,8,0,2024-02-28T15:35:28.887Z,english_433.wav,0,pill,189,36,5,2,English,m,6,0.6,75.14922554,0.10219622
5e2e147d047efa000c6b833d,8,0,2024-02-28T15:35:28.887Z,english_433.wav,0,pill,189,36,5,2,English,m,7,0.7,23.29055894,1.41929067
5e2e147d047efa000c6b833d,8,0,2024-02-28T15:35:28.887Z,english_433.wav,0,pill,189,36,5,2,English,m,8,0.8,-26.03253211,0.8010075
5e2e147d047efa000c6b833d,8,0,2024-02-28T15:35:28.887Z,english_433.wav,0,pill,189,36,5,2,English,m,9,0.9,28.95520226,0.76563128
5e2e147d047efa000c6b833d,8,0,2024-02-28T15:35:28.887Z,english_433.wav,0,pill,189,36,5,2,English,m,10,1.0,-61.82682237,0.36703777
5e2e147d047efa000c6b833d,8,0,2024-02-28T15:35:28.887Z,english_433.wav,0,pill,189,36,5,2,English,m,11,1.09391667,47.27585079,0.80268974
5e2e147d047efa000c6b833d,9,0,2024-02-28T15:35:28.887Z,english_628.wav,0,pill,284,36,5,2,English,m,0,0.0,34.12444542,1.40815308
5e2e147d047efa000c6b833d,9,0,2024-02-28T15:35:28.887Z,english_628.wav,0,pill,284,36,5,2,English,m,1,0.1,74.48031141,0.59085662
5e2e147d047efa000c6b833d,9,0,2024-02-28T15:35:28.887Z,english_628.wav,0,pill,284,36,5,2,English,m,2,0.2,-19.43129602,1.62308244
5e2e147d047efa000c6b833d,9,0,2024-02-28T15:35:28.887Z,english_628.wav,0,pill,284,36,5,2,English,m,3,0.3,-92.54731656,0.88278885
5e2e147d047efa000c6b833d,9,0,2024-02-28T15:35:28.887Z,english_628.wav,0,pill,284,36,5,2,English,m,4,0.4,-58.49891228,1.88399598
5e2e147d047efa000c6b833d,9,0,2024-02-28T15:35:28.887Z,english_628.wav,0,pill,284,36,5,2,English,m,5,0.5,94.39851276,0.89763536
5e2e147d047efa000c6b833d,9,0,2024-02-28T15:35:28.887Z,english_628.wav,0,pill,284,36,5,2,English,m,6,0.6,89.36062337,0.99460468
5e2e147d047efa000c6b833d,9,0,2024-02-28T15:35:28.887Z,english_628.wav,0,pill,284,36,5,2,English,m,7,0.7,-34.72831932,0.78525958
5e2e147d047efa000c6b833d,9,0,2024-02-28T15:35:28.887Z,english_628.wav,0,pill,284,36,5,2,English,m,8,0.8,-41.3084128,1.26727053
5e2e147d047efa000c6b833d,9,0,2024-02-28T15:35:28.887Z,english_628.wav,0,pill,284,36,5,2,English,m,9,0.9,-12.31772149,0.55653785
5e2e147d047efa000c6b833d,9,0,2024-02-28T15:35:28.887Z,english_628.wav,0,pill,284,36,5,2,English,m,10,1.0,-54.36940291,1.19130102
5e2e147d047efa000c6b833d,9,0,2024-02-28T15:35:28.887Z,english_628.wav,0,pill,284,36,5,2,English,m,11,1.09391667,25.60798008,1.74925418
5e2e147d047efa000c6b833d,10,0,2024-02-28T15:35:28.887Z,english_35.wav,0,peel,112,36,5,2,English,m,0,0.0,-33.2471352,0.63198815
5e2e147d047efa000c6b833d,10,0,2024-02-28T15:35:28.887Z,english_35.wav,0,peel,112,36,5,2,English,m,1,0.1,-56.9991421,0.43394686
5e2e147d047efa000c6b833d,10,0,2024-02-28T15:35:28.887Z,english_35.wav,0,peel,112,36,5,2,English,m,2,0.2,-53.141025,1.61809769
5e2e147d047efa000c6b833d,10,0,2024-02-28T15:35:28.887Z,english_35.wav,0,peel,112,36,5,2,English,m,3,0.3,-97.470792,0.75167401
5e2e147d047efa000c6b833d,10,0,2024-02-28T15:35:28.887Z,english_35.wav,0,peel,112,36,5,2,English,m,4,0.4,25.2422215,0.72143441
5e2e147d047efa000c6b833d,10,0,2024-02-28T15:35:28.887Z,english_35.wav,0,peel,112,36,5,2,English,m,5,0.5,-39.0524292,1.49847169
5e2e147d047efa000c6b833d,10,0,2024-02-28T15:35:28.887Z,english_35.wav,0,peel,112,36,5,2,English,m,6,0.6,-99.0462998,0.81761607
5e2e147d047efa000c6b833d,10,0,2024-02-28T15:35:28.887Z,english_35.wav,0,peel,112,36,5,2,English,m,7,0.7,48.0059539,1.11392086
5e2e147d047efa000c6b833d,10,0,2024-02-28T15:35:28.887Z,english_35.wav,0,peel,112,36,5,2,English,m,8,0.8,73.4220257,1.25690952
5e2e147d047efa000c6b833d,10,0,2024-02-28T15:35:28.887Z,english_35.wav,0,peel,112,36,5,2,English,m,9,0.9,-41.814313,1.7324837
5e2e147d047efa000c6b833d,10,0,2024-02-28T15:35:28.887Z,english_35.wav,0,peel,112,36,5,2,English,m,10,1.0,0.040670218,0.64426718
5e2e147d047efa000c6b833d,10,0,2024-02-28T15:35:28.887Z,english_35.wav,0,peel,112,36,5,2,English,m,11,1.09391667,34.2858519,1.0286628
5e2e147d047efa000c6b833d,11,0,2024-02-28T15:35:28.887Z,english_385.wav,0,pill,853,36,5,2,English,m,0,0.0,0.33828369,0.38016584
5e2e147d047efa000c6b833d,11,0,2024-02-28T15:35:28.887Z,english_385.wav,0,pill,853,36,5,2,English,m,1,0.1,2.41058867,1.8714009
5e2e147d047efa000c6b833d,11,0,2024-02-28T15:35:28.887Z,english_385.wav,0,pill,853,36,5,2,English,m,2,0.2,-12.54892467,0.45382881
5e2e147d047efa000c6b833d,11,0,2024-02-28T15:35:28.887Z,english_385.wav,0,pill,853,36,5,2,English,m,3,0.3,-41.7912056,1.31398474
5e2e147d047efa000c6b833d,11,0,2024-02-28T15:35:28.887Z,english_385.wav,0,pill,853,36,5,2,English,m,4,0.4,-44.49264688,1.04402362
5e2e147d047efa000c6b833d,11,0,2024-02-28T15:35:28.887Z,english_385.wav,0,pill,853,36,5,2,English,m,5,0.5,0.14407831,0.57870544
5e2e147d047efa000c6b833d,11,0,2024-02-28T15:35:28.887Z,english_385.wav,0,pill,853,36,5,2,English,m,6,0.6,-25.57843431,1.74841786
5e2e147d047efa000c6b833d,11,0,2024-02-28T15:35:28.887Z,english_385.wav,0,pill,853,36,5,2,English,m,7,0.7,-39.2816597,1.62984391
5e2e147d047efa000c6b833d,11,0,2024-02-28T15:35:28.887Z,english_385.wav,0,pill,853,36,5,2,English,m,8,0.8,-88.59516391,0.16451748
5e2e147d047efa000c6b833d,11,0,2024-02-28T15:35:28.887Z,english_385.wav,0,pill,853,36,5,2,English,m,9,0.9,-28.05531573,0.80459877
5e2e147d047efa000c6b833d,11,0,2024-02-28T15:35:28.887Z,english_385.wav,0,pill,853,36,5,2,English,m,10,1.0,-37.07272381,0.03974207
5e2e147d047efa000c6b833d,11,0,2024-02-28T15:35:28.887Z,english_385.wav,0,pill,853,36,5,2,English,m,11,1.09391667,-61.44238802,1.20121467
5e2e147d047efa000c6b833d,12,0,2024-02-28T15:35:28.887Z,english_360.wav,0,peel,1109,36,5,2,English,m,0,0.0,-18.06250331,0.74392756
5e2e147d047efa000c6b833d,12,0,2024-02-28T15:35:28.887Z,english_360.wav,0,peel,1109,36,5,2,English,m,1,0.1,-60.78778271,0.33295665
5e2e147d047efa000c6b833d,12,0,2024-02-28T15:35:28.887Z,english_360.wav,0,peel,1109,36,5,2,English,m,2,0.2,64.58604958,0.59589568
5e2e147d047efa000c6b833d,12,0,2024-02-28T15:35:28.887Z,english_360.wav,0,peel,1109,36,5,2,English,m,3,0.3,15.14883939,1.76245157
5e2e147d047efa000c6b833d,12,0,2024-02-28T15:35:28.887Z,english_360.wav,0,peel,1109,36,5,2,English,m,4,0.4,35.32268856,1.62745171
5e2e147d047efa000c6b833d,12,0,2024-02-28T15:35:28.887Z,english_360.wav,0,peel,1109,36,5,2,English,m,5,0.5,85.60433583,0.48465
5e2e147d047efa000c6b833d,12,0,2024-02-28T15:35:28.887Z,english_360.wav,0,peel,1109,36,5,2,English,m,6,0.6,-60.74616214,0.94927774
5e2e147d047efa000c6b833d,12,0,2024-02-28T15:35:28.887Z,english_360.wav,0,peel,1109,36,5,2,English,m,7,0.7,93.69417602,1.65570249
5e2e147d047efa000c6b833d,12,0,2024-02-28T15:35:28.887Z,english_360.wav,0,peel,1109,36,5,2,English,m,8,0.8,16.46151858,1.54593081
5e2e147d047efa000c6b833d,12,0,2024-02-28T15:35:28.887Z,english_360.wav,0,peel,1109,36,5,2,English,m,9,0.9,58.0175924,0.34320104
5e2e147d047efa000c6b833d,12,0,2024-02-28T15:35:28.887Z,english_360.wav,0,peel,1109,36,5,2,English,m,10,1.0,51.01229948,0.20094936
5e2e147d047efa000c6b833d,12,0,2024-02-28T15:35:28.887Z,english_360.wav,0,peel,1109,36,5,2,English,m,11,1.09391667,19.14891505,0.69882977
5e2e147d047efa000c6b833d,13,0,2024-02-28T15:35:28.887Z,english_48.wav,0,pill,752,36,5,2,English,m,0,0.0,60.63460718,0.33804588
5e2e147d047efa000c6b833d,13,0,2024-02-28T15:35:28.887Z,english_48.wav,0,pill,752,36,5,2,English,m,1,0.1,-63.25879977,1.53774441
5e2e147d047efa000c6b833d,13,0,2024-02-28T15:35:28.887Z,english_48.wav,0,pill,752,36,5,2,English,m,2,0.2,72.16287223,0.96691945
5e2e147d047efa000c6b833d,13,0,2024-02-28T15:35:28.887Z,english_48.wav,0,pill,752,36,5,2,English,m,3,0.3,56.56802271,1.67994136
5e2e147d047efa000c6b833d,13,0,2024-02-28T15:35:28.887Z,english_48.wav,0,pill,752,36,5,2,English,m,4,0.4,90.70764649,1.00040305
5e2e147d047efa000c6b833d,13,0,2024-02-28T15:35:28.887Z,english_48.wav,0,pill,752,36,5,2,English,m,5,0.5,-36.31712893,1.89041629
5e2e147d047efa000c6b833d,13,0,2024-02-28T15:35:28.887Z,english_48.wav,0,pill,752,36,5,2,English,m,6,0.6,25.72223985,0.11424734
5e2e147d047efa000c6b833d,13,0,2024-02-28T15:35:28.887Z,english_48.wav,0,pill,752,36,5,2,English,m,7,0.7,-14.91989637,0.3528252
5e2e147d047efa000c6b833d,13,0,2024-02-28T15:35:28.887Z,english_48.wav,0,pill,752,36,5,2,English,m,8,0.8,-17.95558792,0.85742963
5e2e147d047efa000c6b833d,13,0,2024-02-28T15:35:28.887Z,english_48.wav,0,pill,752,36,5,2,English,m,9,0.9,-5.44719263,0.59657969
5e2e147d047efa000c6b833d,13,0,2024-02-28T15:35:28.887Z,english_48.wav,0,pill,752,36,5,2,English,m,10,1.0,-94.92564537,0.30631529
5e2e147d047efa000c6b833d,13,0,2024-02-28T15:35:28.887Z,english_48.wav,0,pill,752,36,5,2,English,m,11,1.09391667,-13.08808473,1.45053444
5e2e147d047efa000c6b833d,14,0,2024-02-28T15:35:28.887Z,english_775.wav,0,pill,249,36,5,2,English,m,0,0.0,-31.43099856,1.38428974
5e2e147d047efa000c6b833d,14,0,2024-02-28T15:35:28.887Z,english_775.wav,0,pill,249,36,5,2,English,m,1,0.1,8.65477654,1.381989
5e2e147d047efa000c6b833d,14,0,2024-02-28T15:35:28.887Z,english_775.wav,0,pill,249,36,5,2,English,m,2,0.2,-52.28282098,0.85842321
5e2e147d047efa000c6b833d,14,0,2024-02-28T15:35:28.887Z,english_775.wav,0,pill,249,36,5,2,English,m,3,0.3,91.1008366,0.86053133
5e2e147d047efa000c6b833d,14,0,2024-02-28T15:35:28.887Z,english_775.wav,0,pill,249,36,5,2,English,m,4,0.4,-9.23078544,0.18720345
5e2e147d047efa000c6b833d,14,0,2024-02-28T15:35:28.887Z,english_775.wav,0,pill,249,36,5,2,English,m,5,0.5,-48.12825779,1.02834673
5e2e147d047efa000c6b833d,14,0,2024-02-28T15:35:28.887Z,english_775.wav,0,pill,249,36,5,2,English,m,6,0.6,31.75901499,0.26507894
5e2e147d047efa000c6b833d,14,0,2024-02-28T15:35:28.887Z,english_775.wav,0,pill,249,36,5,2,English,m,7,0.7,26.51097314,0.89767529
5e2e147d047efa000c6b833d,14,0,2024-02-28T15:35:28.887Z,english_775.wav,0,pill,249,36,5,2,English,m,8,0.8,-0.94893242,1.04721154
5e2e147d047efa000c6b833d,14,0,2024-02-28T15:35:28.887Z,english_775.wav,0,pill,249,36,5,2,English,m,9,0.9,-80.42410318,1.94213174
5e2e147d047efa000c6b833d,14,0,2024-02-28T15:35:28.887Z,english_775.wav,0,pill,249,36,5,2,English,m,10,1.0,-37.42269733,0.45384942
5e2e147d047efa000c6b833d,14,0,2024-02-28T15:35:28.887Z,english_775.wav,0,pill,249,36,5,2,English,m,11,1.09391667,-30.31023423,1.30082565
5e2e147d047efa000c6b833d,15,0,2024-02-28T15:35:28.887Z,english_736.wav,0,peel,201,36,5,2,English,m,0,0.0,-40.28778627,1.23426282
5e2e147d047efa000c6b833d,15,0,2024-02-28T15:35:28.887Z,english_736.wav,0,peel,201,36,5,2,English,m,1,0.1,-59.09726207,0.97807774
5e2e147d047efa000c6b833d,15,0,2024-02-28T15:35:28.887Z,english_736.wav,0,peel,201,36,5,2,English,m,2,0.2,98.49969238,0.54049946
5e2e147d047efa000c6b833d,15,0,2024-02-28T15:35:28.887Z,english_736.wav,0,peel,201,36,5,2,English,m,3,0.3,46.0778128,1.1691641
5e2e147d047efa000c6b833d,15,0,2024-02-28T15:35:28.887Z,english_736.wav,0,peel,201,36,5,2,English,m,4,0.4,-55.04304699,1.22843398
5e2e147d047efa000c6b833d,15,0,2024-02-28T15:35:28.887Z,english_736.wav,0,peel,201,36,5,2,English,m,5,0.5,34.12740936,0.9861662
5e2e147d047efa000c6b833d,15,0,2024-02-28T15:35:28.887Z,english_736.wav,0,peel,201,36,5,2,English,m,6,0.6,54.26275803,0.17445904
5e2e147d047efa000c6b833d,15,0,2024-02-28T15:35:28.887Z,english_736.wav,0,peel,201,36,5,2,English,m,7,0.7,-55.98308326,1.1578723
5e2e147d047efa000c6b833d,15,0,2024-02-28T15:35:28.887Z,english_736.wav,0,peel,201,36,5,2,English,m,8,0.8,59.79863481,1.37075184
5e2e147d047efa000c6b833d,15,0,2024-02-28T15:35:28.887Z,english_736.wav,0,peel,201,36,5,2,English,m,9,0.9,88.14503005,1.47849055
5e2e147d047efa000c6b833d,15,0,2024-02-28T15:35:28.887Z,english_736.wav,0,peel,201,36,5,2,English,m,10,1.0,91.37007784,0.08571689
5e2e147d047efa000c6b833d,15,0,2024-02-28T15:35:28.887Z,english_736.wav,0,peel,201,36,5,2,English,m,11,1.09391667,76.63160817,1.4768314
5e2e147d047efa000c6b833d,16,0,2024-02-28T15:35:28.887Z,english_95.wav,0,peel,179,36,5,2,English,m,0,0.0,82.38322646,1.52040058
5e2e147d047efa000c6b833d,16,0,2024-02-28T15:35:28.887Z,english_95.wav,0,peel,179,36,5,2,English,m,1,0.1,32.52182657,0.22216464
5e2e147d047efa000c6b833d,16,0,2024-02-28T15:35:28.887Z,english_95.wav,0,peel,179,36,5,2,English,m,2,0.2,30.87511863,0.78160064
5e2e147d047efa000c6b833d,16,0,2024-02-28T15:35:28.887Z,english_95.wav,0,peel,179,36,5,2,English,m,3,0.3,67.9481844,0.58754621
5e2e147d047efa000c6b833d,16,0,2024-02-28T15:35:28.887Z,english_95.wav,0,peel,179,36,5,2,English,m,4,0.4,-57.03879619,1.54090238
5e2e147d047efa000c6b833d,16,0,2024-02-28T15:35:28.887Z,english_95.wav,0,peel,179,36,5,2,English,m,5,0.5,22.48665311,0.52042561
5e2e147d047efa000c6b833d,16,0,2024-02-28T15:35:28.887Z,english_95.wav,0,peel,179,36,5,2,English,m,6,0.6,23.4373467,0.65328484
5e2e147d047efa000c6b833d,16,0,2024-02-28T15:35:28.887Z,english_95.wav,0,peel,179,36,5,2,English,m,7,0.7,-61.78596911,0.2008644
5e2e147d047efa000c6b833d,16,0,2024-02-28T15:35:28.887Z,english_95.wav,0,peel,179,36,5,2,English,m,8,0.8,75.30119174,1.88966983
5e2e147d047efa000c6b833d,16,0,2024-02-28T15:35:28.887Z,english_95.wav,0,peel,179,36,5,2,English,m,9,0.9,6.10236792,1.34355427
5e2e147d047efa000c6b833d,16,0,2024-02-28T15:35:28.887Z,english_95.wav,0,peel,179,36,5,2,English,m,10,1.0,23.20518155,0.09039365
5e2e147d047efa000c6b833d,16,0,2024-02-28T15:35:28.887Z,english_95.wav,0,peel,179,36,5,2,English,m,11,1.09391667,-62.32548974,0.0245473
5e2e147d047efa000c6b833d,17,0,2024-02-28T15:35:28.887Z,english_344.wav,0,peel,383,36,5,2,English,m,0,0.0,-58.25322537,0.93148221
5e2e147d047efa000c6b833d,17,0,2024-02-28T15:35:28.887Z,english_344.wav,0,peel,383,36,5,2,English,m,1,0.1,78.85302542,0.39116105
5e2e147d047efa000c6b833d,17,0,2024-02-28T15:35:28.887Z,english_344.wav,0,peel,383,36,5,2,English,m,2,0.2,-34.72652084,0.5483104
5e2e147d047efa000c6b833d,17,0,2024-02-28T15:35:28.887Z,english_344.wav,0,peel,383,36,5,2,English,m,3,0.3,27.94681387,1.60079305
5e2e147d047efa000c6b833d,17,0,2024-02-28T15:35:28.887Z,english_344.wav,0,peel,383,36,5,2,English,m,4,0.4,-20.54628146,1.44239005
5e2e147d047efa000c6b833d,17,0,2024-02-28T15:35:28.887Z,english_344.wav,0,peel,383,36,5,2,English,m,5,0.5,84.36565837,0.93643089
5e2e147d047efa000c6b833d,17,0,2024-02-28T15:35:28.887Z,english_344.wav,0,peel,383,36,5,2,English,m,6,0.6,34.72058422,1.03853354
5e2e147d047efa000c6b833d,17,0,2024-02-28T15:35:28.887Z,english_344.wav,0,peel,383,36,5,2,English,m,7,0.7,43.31881815,0.23530343
5e2e147d047efa000c6b833d,17,0,2024-02-28T15:35:28.887Z,english_344.wav,0,peel,383,36,5,2,English,m,8,0.8,-55.24586089,1.00130191
5e2e147d047efa000c6b833d,17,0,2024-02-28T15:35:28.887Z,english_344.wav,0,peel,383,36,5,2,English,m,9,0.9,96.49661174,0.39975591
5e2e147d047efa000c6b833d,17,0,2024-02-28T15:35:28.887Z,english_344.wav,0,peel,383,36,5,2,English,m,10,1.0,97.53384237,1.53835418
5e2e147d047efa000c6b833d,17,0,2024-02-28T15:35:28.887Z,english_344.wav,0,peel,383,36,5,2,English,m,11,1.09391667,71.25534923,1.77827836
5e2e147d047efa000c6b833d,18,0,2024-02-28T15:35:28.887Z,english_387.wav,0,pill,1548,36,5,2,English,m,0,0.0,67.80075556,0.00122772109
5e2e147d047efa000c6b833d,18,0,2024-02-28T15:35:28.887Z,english_387.wav,0,pill,1548,36,5,2,English,m,1,0.1,2.91528807,1.63436641
5e2e147d047efa000c6b833d,18,0,2024-02-28T15:35:28.887Z,english_387.wav,0,pill,1548,36,5,2,English,m,2,0.2,-96.71759945,0.942533102
5e2e147d047efa000c6b833d,18,0,2024-02-28T15:35:28.887Z,english_387.wav,0,pill,1548,36,5,2,English,m,3,0.3,0.93195301,0.658001898
5e2e147d047efa000c6b833d,18,0,2024-02-28T15:35:28.887Z,english_387.wav,0,pill,1548,36,5,2,English,m,4,0.4,64.10102677,1.5746929
5e2e147d047efa000c6b833d,18,0,2024-02-28T15:35:28.887Z,english_387.wav,0,pill,1548,36,5,2,English,m,5,0.5,50.38025389,0.711925794
5e2e147d047efa000c6b833d,18,0,2024-02-28T15:35:28.887Z,english_387.wav,0,pill,1548,36,5,2,English,m,6,0.6,73.00593199,1.61187408
5e2e147d047efa000c6b833d,18,0,2024-02-28T15:35:28.887Z,english_387.wav,0,pill,1548,36,5,2,English,m,7,0.7,18.93402178,1.34608703
5e2e147d047efa000c6b833d,18,0,2024-02-28T15:35:28.887Z,english_387.wav,0,pill,1548,36,5,2,English,m,8,0.8,35.76134207,1.4554979
5e2e147d047efa000c6b833d,18,0,2024-02-28T15:35:28.887Z,english_387.wav,0,pill,1548,36,5,2,English,m,9,0.9,32.66910334,0.118157589
5e2e147d047efa000c6b833d,18,0,2024-02-28T15:35:28.887Z,english_387.wav,0,pill,1548,36,5,2,English,m,10,1.0,89.60787906,0.929482496
5e2e147d047efa000c6b833d,18,0,2024-02-28T15:35:28.887Z,english_387.wav,0,pill,1548,36,5,2,English,m,11,1.09391667,4.26061553,1.40897442
5e2e147d047efa000c6b833d,19,0,2024-02-28T15:35:28.887Z,english_877.wav,0,peel,415,36,5,2,English,m,0,0.0,-79.4269128,0.17316108
5e2e147d047efa000c6b833d,19,0,2024-02-28T15:35:28.887Z,english_877.wav,0,peel,415,36,5,2,English,m,1,0.1,-42.40916555,0.86989438
5e2e147d047efa000c6b833d,19,0,2024-02-28T15:35:28.887Z,english_877.wav,0,peel,415,36,5,2,English,m,2,0.2,84.72383025,1.02258728
5e2e147d047efa000c6b833d,19,0,2024-02-28T15:35:28.887Z,english_877.wav,0,peel,415,36,5,2,English,m,3,0.3,-35.54848219,0.92677034
5e2e147d047efa000c6b833d,19,0,2024-02-28T15:35:28.887Z,english_877.wav,0,peel,415,36,5,2,English,m,4,0.4,-35.20052766,0.70533019
5e2e147d047efa000c6b833d,19,0,2024-02-28T15:35:28.887Z,english_877.wav,0,peel,415,36,5,2,English,m,5,0.5,57.63879902,1.77292228
5e2e147d047efa000c6b833d,19,0,2024-02-28T15:35:28.887Z,english_877.wav,0,peel,415,36,5,2,English,m,6,0.6,-50.34738089,1.28323574
5e2e147d047efa000c6b833d,19,0,2024-02-28T15:35:28.887Z,english_877.wav,0,peel,415,36,5,2,English,m,7,0.7,35.50935182,1.91968405
5e2e147d047efa000c6b833d,19,0,2024-02-28T15:35:28.887Z,english_877.wav,0,peel,415,36,5,2,English,m,8,0.8,-13.54053645,1.52549813
5e2e147d047efa000c6b833d,19,0,2024-02-28T15:35:28.887Z,english_877.wav,0,peel,415,36,5,2,English,m,9,0.9,38.29355396,1.27055267
5e2e147d047efa000c6b833d,19,0,2024-02-28T15:35:28.887Z,english_877.wav,0,peel,415,36,5,2,English,m,10,1.0,-90.75099287,0.7500836
5e2e147d047efa000c6b833d,19,0,2024-02-28T15:35:28.887Z,english_877.wav,0,peel,415,36,5,2,English,m,11,1.09391667,11.78460722,0.69644161
5e2e147d047efa000c6b833d,20,0,2024-02-28T15:35:28.887Z,english_294.wav,0,peel,1745,36,5,2,English,m,0,0.0,-35.26170476,0.76895084
5e2e147d047efa000c6b833d,20,0,2024-02-28T15:35:28.887Z,english_294.wav,0,peel,1745,36,5,2,English,m,1,0.1,-68.79847515,0.42345848
5e2e147d047efa000c6b833d,20,0,2024-02-28T15:35:28.887Z,english_294.wav,0,peel,1745,36,5,2,English,m,2,0.2,21.65443345,1.88759315
5e2e147d047efa000c6b833d,20,0,2024-02-28T15:35:28.887Z,english_294.wav,0,peel,1745,36,5,2,English,m,3,0.3,18.61336719,0.20743541
5e2e147d047efa000c6b833d,20,0,2024-02-28T15:35:28.887Z,english_294.wav,0,peel,1745,36,5,2,English,m,4,0.4,29.14118392,0.10193981
5e2e147d047efa000c6b833d,20,0,2024-02-28T15:35:28.887Z,english_294.wav,0,peel,1745,36,5,2,English,m,5,0.5,-0.79474297,0.31438326
5e2e147d047efa000c6b833d,20,0,2024-02-28T15:35:28.887Z,english_294.wav,0,peel,1745,36,5,2,English,m,6,0.6,-83.10715175,1.2995954
5e2e147d047efa000c6b833d,20,0,2024-02-28T15:35:28.887Z,english_294.wav,0,peel,1745,36,5,2,English,m,7,0.7,-22.63410673,1.94703728
5e2e147d047efa000c6b833d,20,0,2024-02-28T15:35:28.887Z,english_294.wav,0,peel,1745,36,5,2,English,m,8,0.8,-21.26415856,0.92366458
5e2e147d047efa000c6b833d,20,0,2024-02-28T15:35:28.887Z,english_294.wav,0,peel,1745,36,5,2,English,m,9,0.9,47.90727918,1.04223302
5e2e147d047efa000c6b833d,20,0,2024-02-28T15:35:28.887Z,english_294.wav,0,peel,1745,36,5,2,English,m,10,1.0,-39.88232682,1.01801331
5e2e147d047efa000c6b833d,20,0,2024-02-28T15:35:28.887Z,english_294.wav,0,peel,1745,36,5,2,English,m,11,1.09391667,-74.09279353,0.911147
5e2e147d047efa000c6b833d,21,0,2024-02-28T15:35:28.887Z,english_731.wav,0,pill,278,36,5,2,English,m,0,0.0,-7.36185514,1.393769
5e2e147d047efa000c6b833d,21,0,2024-02-28T15:35:28.887Z,english_731.wav,0,pill,278,36,5,2,English,m,1,0.1,90.53877185,0.98238467
5e2e147d047efa000c6b833d,21,0,2024-02-28T15:35:28.887Z,english_731.wav,0,pill,278,36,5,2,English,m,2,0.2,-41.94407757,1.23695651
5e2e147d047efa000c6b833d,21,0,2024-02-28T15:35:28.887Z,english_731.wav,0,pill,278,36,5,2,English,m,3,0.3,25.1521842,1.19631379
5e2e147d047efa000c6b833d,21,0,2024-02-28T15:35:28.887Z,english_731.wav,0,pill,278,36,5,2,English,m,4,0.4,68.57946125,0.88911396
5e2e147d047efa000c6b833d,21,0,2024-02-28T15:35:28.887Z,english_731.wav,0,pill,278,36,5,2,English,m,5,0.5,65.86891495,1.98349596
5e2e147d047efa000c6b833d,21,0,2024-02-28T15:35:28.887Z,english_731.wav,0,pill,278,36,5,2,English,m,6,0.6,-52.28114947,0.8296111
5e2e147d047efa000c6b833d,21,0,2024-02-28T15:35:28.887Z,english_731.wav,0,pill,278,36,5,2,English,m,7,0.7,15.16550818,0.44150217
5e2e147d047efa000c6b833d,21,0,2024-02-28T15:35:28.887Z,english_731.wav,0,pill,278,36,5,2,English,m,8,0.8,25.27999627,1.48173114
5e2e147d047efa000c6b833d,21,0,2024-02-28T15:35:28.887Z,english_731.wav,0,pill,278,36,5,2,English,m,9,0.9,11.70162838,1.09419359
5e2e147d047efa000c6b833d,21,0,2024-02-28T15:35:28.887Z,english_731.wav,0,pill,278,36,5,2,English,m,10,1.0,-94.01759602,0.20829797
5e2e147d047efa000c6b833d,21,0,2024-02-28T15:35:28.887Z,english_731.wav,0,pill,278,36,5,2,English,m,11,1.09391667,-3.24792735,1.32232845
5e2e147d047efa000c6b833d,22,0,2024-02-28T15:35:28.887Z,english_307.wav,0,peel,315,36,5,2,English,m,0,0.0,4.09277184,1.54634017
5e2e147d047efa000c6b833d,22,0,2024-02-28T15:35:28.887Z,english_307.wav,0,peel,315,36,5,2,English,m,1,0.1,-55.10651609,1.62042314
5e2e147d047efa000c6b833d,22,0,2024-02-28T15:35:28.887Z,english_307.wav,0,peel,315,36,5,2,English,m,2,0.2,40.66104674,0.53651735
5e2e147d047efa000c6b833d,22,0,2024-02-28T15:35:28.887Z,english_307.wav,0,peel,315,36,5,2,English,m,3,0.3,25.01631041,1.3289867
5e2e147d047efa000c6b833d,22,0,2024-02-28T15:35:28.887Z,english_307.wav,0,peel,315,36,5,2,English,m,4,0.4,-83.19534886,1.20481488
5e2e147d047efa000c6b833d,22,0,2024-02-28T15:35:28.887Z,english_307.wav,0,peel,315,36,5,2,English,m,5,0.5,50.47121196,0.91135424
5e2e147d047efa000c6b833d,22,0,2024-02-28T15:35:28.887Z,english_307.wav,0,peel,315,36,5,2,English,m,6,0.6,-23.06520129,0.34154344
5e2e147d047efa000c6b833d,22,0,2024-02-28T15:35:28.887Z,english_307.wav,0,peel,315,36,5,2,English,m,7,0.7,6.60696351,0.77838965
5e2e147d047efa000c6b833d,22,0,2024-02-28T15:35:28.887Z,english_307.wav,0,peel,315,36,5,2,English,m,8,0.8,32.78812168,1.52188148
5e2e147d047efa000c6b833d,22,0,2024-02-28T15:35:28.887Z,english_307.wav,0,peel,315,36,5,2,English,m,9,0.9,-29.8510749,1.3469183
5e2e147d047efa000c6b833d,22,0,2024-02-28T15:35:28.887Z,english_307.wav,0,peel,315,36,5,2,English,m,10,1.0,-51.20036712,0.11286505
5e2e147d047efa000c6b833d,22,0,2024-02-28T15:35:28.887Z,english_307.wav,0,peel,315,36,5,2,English,m,11,1.09391667,-34.31103599,1.9894596
5e2e147d047efa000c6b833d,23,0,2024-02-28T15:35:28.887Z,english_290.wav,0,peel,213,36,5,2,English,m,0,0.0,4.14643055,1.34304487
5e2e147d047efa000c6b833d,23,0,2024-02-28T15:35:28.887Z,english_290.wav,0,peel,213,36,5,2,English,m,1,0.1,55.79753149,1.94828155
5e2e147d047efa000c6b833d,23,0,2024-02-28T15:35:28.887Z,english_290.wav,0,peel,213,36,5,2,English,m,2,0.2,-63.42272798,1.81846113
5e2e147d047efa000c6b833d,23,0,2024-02-28T15:35:28.887Z,english_290.wav,0,peel,213,36,5,2,English,m,3,0.3,-40.60813041,0.06068854
5e2e147d047efa000c6b833d,23,0,2024-02-28T15:35:28.887Z,english_290.wav,0,peel,213,36,5,2,English,m,4,0.4,-85.79001431,0.95997788
5e2e147d047efa000c6b833d,23,0,2024-02-28T15:35:28.887Z,english_290.wav,0,peel,213,36,5,2,English,m,5,0.5,-31.93461576,0.98743905
5e2e147d047efa000c6b833d,23,0,2024-02-28T15:35:28.887Z,english_290.wav,0,peel,213,36,5,2,English,m,6,0.6,-73.76037774,0.49081153
5e2e147d047efa000c6b833d,23,0,2024-02-28T15:35:28.887Z,english_290.wav,0,peel,213,36,5,2,English,m,7,0.7,-54.82415725,1.93641378
5e2e147d047efa000c6b833d,23,0,2024-02-28T15:35:28.887Z,english_290.wav,0,peel,213,36,5,2,English,m,8,0.8,85.10642222,0.02141652
5e2e147d047efa000c6b833d,23,0,2024-02-28T15:35:28.887Z,english_290.wav,0,peel,213,36,5,2,English,m,9,0.9,-54.96930538,1.82619941
5e2e147d047efa000c6b833d,23,0,2024-02-28T15:35:28.887Z,english_290.wav,0,peel,213,36,5,2,English,m,10,1.0,41.58093041,0.02158423
5e2e147d047efa000c6b833d,23,0,2024-02-28T15:35:28.887Z,english_290.wav,0,peel,213,36,5,2,English,m,11,1.09391667,28.32805855,1.73531275
5e2e147d047efa000c6b833d,24,0,2024-02-28T15:35:28.887Z,english_991.wav,0,pill,186,36,5,2,English,m,0,0.0,-1.1896089,1.11058757
5e2e147d047efa000c6b833d,24,0,2024-02-28T15:35:28.887Z,english_991.wav,0,pill,186,36,5,2,English,m,1,0.1,-96.26402249,0.1672209
5e2e147d047efa000c6b833d,24,0,2024-02-28T15:35:28.887Z,english_991.wav,0,pill,186,36,5,2,English,m,2,0.2,35.13230964,1.95155766
5e2e147d047efa000c6b833d,24,0,2024-02-28T15:35:28.887Z,english_991.wav,0,pill,186,36,5,2,English,m,3,0.3,16.47291022,0.04651437
5e2e147d047efa000c6b833d,24,0,2024-02-28T15:35:28.887Z,english_991.wav,0,pill,186,36,5,2,English,m,4,0.4,-88.97016612,1.74859016
5e2e147d047efa000c6b833d,24,0,2024-02-28T15:35:28.887Z,english_991.wav,0,pill,186,36,5,2,English,m,5,0.5,-18.26917978,1.4122656
5e2e147d047efa000c6b833d,24,0,2024-02-28T15:35:28.887Z,english_991.wav,0,pill,186,36,5,2,English,m,6,0.6,-86.44611587,0.52281086
5e2e147d047efa000c6b833d,24,0,2024-02-28T15:35:28.887Z,english_991.wav,0,pill,186,36,5,2,English,m,7,0.7,-23.18394533,1.29572944
5e2e147d047efa000c6b833d,24,0,2024-02-28T15:35:28.887Z,english_991.wav,0,pill,186,36,5,2,English,m,8,0.8,-34.88810698,1.11115335
5e2e147d047efa000c6b833d,24,0,2024-02-28T15:35:28.887Z,english_991.wav,0,pill,186,36,5,2,English,m,9,0.9,58.2484142,1.29146841
5e2e147d047efa000c6b833d,24,0,2024-02-28T15:35:28.887Z,english_991.wav,0,pill,186,36,5,2,English,m,10,1.0,13.64122516,1.37847477
5e2e147d047efa000c6b833d,24,0,2024-02-28T15:35:28.887Z,english_991.wav,0,pill,186,36,5,2,English,m,11,1.09391667,-13.61979163,0.12249008
5e2e147d047efa000c6b833d,25,0,2024-02-28T15:35:28.887Z,english_603.wav,0,peel,193,36,5,2,English,m,0,0.0,-92.82127988,0.46202599
5e2e147d047efa000c6b833d,25,0,2024-02-28T15:35:28.887Z,english_603.wav,0,peel,193,36,5,2,English,m,1,0.1,-10.8879853,0.04069155
5e2e147d047efa000c6b833d,25,0,2024-02-28T15:35:28.887Z,english_603.wav,0,peel,193,36,5,2,English,m,2,0.2,87.07339117,0.53206278
5e2e147d047efa000c6b833d,25,0,2024-02-28T15:35:28.887Z,english_603.wav,0,peel,193,36,5,2,English,m,3,0.3,94.16233181,1.44505889
5e2e147d047efa000c6b833d,25,0,2024-02-28T15:35:28.887Z,english_603.wav,0,peel,193,36,5,2,English,m,4,0.4,41.70993127,1.73804989
5e2e147d047efa000c6b833d,25,0,2024-02-28T15:35:28.887Z,english_603.wav,0,peel,193,36,5,2,English,m,5,0.5,-9.49662532,0.79060569
5e2e147d047efa000c6b833d,25,0,2024-02-28T15:35:28.887Z,english_603.wav,0,peel,193,36,5,2,English,m,6,0.6,0.93436069,1.79017292
5e2e147d047efa000c6b833d,25,0,2024-02-28T15:35:28.887Z,english_603.wav,0,peel,193,36,5,2,English,m,7,0.7,-31.16965002,1.60375186
5e2e147d047efa000c6b833d,25,0,2024-02-28T15:35:28.887Z,english_603.wav,0,peel,193,36,5,2,English,m,8,0.8,22.515306,1.61763715
5e2e147d047efa000c6b833d,25,0,2024-02-28T15:35:28.887Z,english_603.wav,0,peel,193,36,5,2,English,m,9,0.9,39.07324,1.44528026
5e2e147d047efa000c6b833d,25,0,2024-02-28T15:35:28.887Z,english_603.wav,0,peel,193,36,5,2,English,m,10,1.0,-34.19262646,0.82648617
5e2e147d047efa000c6b833d,25,0,2024-02-28T15:35:28.887Z,english_603.wav,0,peel,193,36,5,2,English,m,11,1.09391667,7.30050377,1.94101738
5e2e147d047efa000c6b833d,26,0,2024-02-28T15:35:28.887Z,english_184.wav,0,peel,548,36,5,2,English,m,0,0.0,-74.14199581,0.56604578
5e2e147d047efa000c6b833d,26,0,2024-02-28T15:35:28.887Z,english_184.wav,0,peel,548,36,5,2,English,m,1,0.1,89.94537867,0.76750271
5e2e147d047efa000c6b833d,26,0,2024-02-28T15:35:28.887Z,english_184.wav,0,peel,548,36,5,2,English,m,2,0.2,-97.85495654,1.21496016
5e2e147d047efa000c6b833d,26,0,2024-02-28T15:35:28.887Z,english_184.wav,0,peel,548,36,5,2,English,m,3,0.3,32.1848514,1.29013374
5e2e147d047efa000c6b833d,26,0,2024-02-28T15:35:28.887Z,english_184.wav,0,peel,548,36,5,2,English,m,4,0.4,-18.16351382,0.9359149
5e2e147d047efa000c6b833d,26,0,2024-02-28T15:35:28.887Z,english_184.wav,0,peel,548,36,5,2,English,m,5,0.5,45.53126648,0.64815145
5e2e147d047efa000c6b833d,26,0,2024-02-28T15:35:28.887Z,english_184.wav,0,peel,548,36,5,2,English,m,6,0.6,-65.36095863,1.94413917
5e2e147d047efa000c6b833d,26,0,2024-02-28T15:35:28.887Z,english_184.wav,0,peel,548,36,5,2,English,m,7,0.7,-40.1441705,0.65249887
5e2e147d047efa000c6b833d,26,0,2024-02-28T15:35:28.887Z,english_184.wav,0,peel,548,36,5,2,English,m,8,0.8,67.58790179,1.32844944
5e2e147d047efa000c6b833d,26,0,2024-02-28T15:35:28.887Z,english_184.wav,0,peel,548,36,5,2,English,m,9,0.9,83.12820885,0.04188573
5e2e147d047efa000c6b833d,26,0,2024-02-28T15:35:28.887Z,english_184.wav,0,peel,548,36,5,2,English,m,10,1.0,51.68582171,1.11136781
5e2e147d047efa000c6b833d,26,0,2024-02-28T15:35:28.887Z,english_184.wav,0,peel,548,36,5,2,English,m,11,1.09391667,49.78372489,0.42919135
5e2e147d047efa000c6b833d,27,0,2024-02-28T15:35:28.887Z,english_394.wav,0,pill,231,36,5,2,English,m,0,0.0,-15.73952497,0.37404547
5e2e147d047efa000c6b833d,27,0,2024-02-28T15:35:28.887Z,english_394.wav,0,pill,231,36,5,2,English,m,1,0.1,-72.53875874,0.74662783
5e2e147d047efa000c6b833d,27,0,2024-02-28T15:35:28.887Z,english_394.wav,0,pill,231,36,5,2,English,m,2,0.2,-2.77448658,0.09869687
5e2e147d047efa000c6b833d,27,0,2024-02-28T15:35:28.887Z,english_394.wav,0,pill,231,36,5,2,English,m,3,0.3,-34.13929652,0.4926167
5e2e147d047efa000c6b833d,27,0,2024-02-28T15:35:28.887Z,english_394.wav,0,pill,231,36,5,2,English,m,4,0.4,98.89455917,0.88094357
5e2e147d047efa000c6b833d,27,0,2024-02-28T15:35:28.887Z,english_394.wav,0,pill,231,36,5,2,English,m,5,0.5,92.17283268,1.74845503
5e2e147d047efa000c6b833d,27,0,2024-02-28T15:35:28.887Z,english_394.wav,0,pill,231,36,5,2,English,m,6,0.6,57.90330337,0.56104095
5e2e147d047efa000c6b833d,27,0,2024-02-28T15:35:28.887Z,english_394.wav,0,pill,231,36,5,2,English,m,7,0.7,42.86143517,1.17773509
5e2e147d047efa000c6b833d,27,0,2024-02-28T15:35:28.887Z,english_394.wav,0,pill,231,36,5,2,English,m,8,0.8,-24.72366611,1.30676371
5e2e147d047efa000c6b833d,27,0,2024-02-28T15:35:28.887Z,english_394.wav,0,pill,231,36,5,2,English,m,9,0.9,1.80991862,0.02013397
5e2e147d047efa000c6b833d,27,0,2024-02-28T15:35:28.887Z,english_394.wav,0,pill,231,36,5,2,English,m,10,1.0,-3.52242486,1.86341361
5e2e147d047efa000c6b833d,27,0,2024-02-28T15:35:28.887Z,english_394.wav,0,pill,231,36,5,2,English,m,11,1.09391667,-17.84344946,0.37928015
5e2e147d047efa000c6b833d,28,0,2024-02-28T15:35:28.887Z,english_87.wav,0,peel,384,36,5,2,English,m,0,0.0,-7.69614497,1.36395538
5e2e147d047efa000c6b833d,28,0,2024-02-28T15:35:28.887Z,english_87.wav,0,peel,384,36,5,2,English,m,1,0.1,-50.79583923,0.55370317
5e2e147d047efa000c6b833d,28,0,2024-02-28T15:35:28.887Z,english_87.wav,0,peel,384,36,5,2,English,m,2,0.2,-21.62085435,0.68433779
5e2e147d047efa000c6b833d,28,0,2024-02-28T15:35:28.887Z,english_87.wav,0,peel,384,36,5,2,English,m,3,0.3,23.33346841,1.42277988
5e2e147d047efa000c6b833d,28,0,2024-02-28T15:35:28.887Z,english_87.wav,0,peel,384,36,5,2,English,m,4,0.4,84.82731916,1.16991809
5e2e147d047efa000c6b833d,28,0,2024-02-28T15:35:28.887Z,english_87.wav,0,peel,384,36,5,2,English,m,5,0.5,74.54936251,0.13065421
5e2e147d047efa000c6b833d,28,0,2024-02-28T15:35:28.887Z,english_87.wav,0,peel,384,36,5,2,English,m,6,0.6,-86.24882643,1.74622352
5e2e147d047efa000c6b833d,28,0,2024-02-28T15:35:28.887Z,english_87.wav,0,peel,384,36,5,2,English,m,7,0.7,18.19590059,0.87122315
5e2e147d047efa000c6b833d,28,0,2024-02-28T15:35:28.887Z,english_87.wav,0,peel,384,36,5,2,English,m,8,0.8,86.70789686,1.52981879
5e2e147d047efa000c6b833d,28,0,2024-02-28T15:35:28.887Z,english_87.wav,0,peel,384,36,5,2,English,m,9,0.9,67.00424782,1.42292715
5e2e147d047efa000c6b833d,28,0,2024-02-28T15:35:28.887Z,english_87.wav,0,peel,384,36,5,2,English,m,10,1.0,91.10231962,0.07145037
5e2e147d047efa000c6b833d,28,0,2024-02-28T15:35:28.887Z,english_87.wav,0,peel,384,36,5,2,English,m,11,1.09391667,23.49318924,0.54757178
5e2e147d047efa000c6b833d,29,0,2024-02-28T15:35:28.887Z,english_710.wav,0,pill,339,36,5,2,English,m,0,0.0,-39.30636168,1.80624949
5e2e147d047efa000c6b833d,29,0,2024-02-28T15:35:28.887Z,english_710.wav,0,pill,339,36,5,2,English,m,1,0.1,-97.6674904,0.47182227
5e2e147d047efa000c6b833d,29,0,2024-02-28T15:35:28.887Z,english_710.wav,0,pill,339,36,5,2,English,m,2,0.2,64.09122161,0.70971527
5e2e147d047efa000c6b833d,29,0,2024-02-28T15:35:28.887Z,english_710.wav,0,pill,339,36,5,2,English,m,3,0.3,75.88571101,0.05116828
5e2e147d047efa000c6b833d,29,0,2024-02-28T15:35:28.887Z,english_710.wav,0,pill,339,36,5,2,English,m,4,0.4,-88.52762731,1.76085876
5e2e147d047efa000c6b833d,29,0,2024-02-28T15:35:28.887Z,english_710.wav,0,pill,339,36,5,2,English,m,5,0.5,82.62720899,0.52858011
5e2e147d047efa000c6b833d,29,0,2024-02-28T15:35:28.887Z,english_710.wav,0,pill,339,36,5,2,English,m,6,0.6,-76.34366579,0.11108823
5e2e147d047efa000c6b833d,29,0,2024-02-28T15:35:28.887Z,english_710.wav,0,pill,339,36,5,2,English,m,7,0.7,-8.69440278,1.51710045
5e2e147d047efa000c6b833d,29,0,2024-02-28T15:35:28.887Z,english_710.wav,0,pill,339,36,5,2,English,m,8,0.8,-70.02409217,1.27546604
5e2e147d047efa000c6b833d,29,0,2024-02-28T15:35:28.887Z,english_710.wav,0,pill,339,36,5,2,English,m,9,0.9,57.25294742,0.25600017
5e2e147d047efa000c6b833d,29,0,2024-02-28T15:35:28.887Z,english_710.wav,0,pill,339,36,5,2,English,m,10,1.0,-12.57900879,0.70194387
5e2e147d047efa000c6b833d,29,0,2024-02-28T15:35:28.887Z,english_710.wav,0,pill,339,36,5,2,English,m,11,1.09391667,58.69693709,0.08256398
5e2e147d047efa000c6b833d,30,0,2024-02-28T15:35:28.887Z,english_930.wav,0,peel,381,36,5,2,English,m,0,0.0,19.45977217,0.84483281
5e2e147d047efa000c6b833d,30,0,2024-02-28T15:35:28.887Z,english_930.wav,0,peel,381,36,5,2,English,m,1,0.1,-80.07863209,1.28415243
5e2e147d047efa000c6b833d,30,0,2024-02-28T15:35:28.887Z,english_930.wav,0,peel,381,36,5,2,English,m,2,0.2,45.52554026,0.42013726
5e2e147d047efa000c6b833d,30,0,2024-02-28T15:35:28.887Z,english_930.wav,0,peel,381,36,5,2,English,m,3,0.3,15.52716044,0.73216184
5e2e147d047efa000c6b833d,30,0,2024-02-28T15:35:28.887Z,english_930.wav,0,peel,381,36,5,2,English,m,4,0.4,-83.05812581,0.68838287
5e2e147d047efa000c6b833d,30,0,2024-02-28T15:35:28.887Z,english_930.wav,0,peel,381,36,5,2,English,m,5,0.5,-71.84540183,1.12855875
5e2e147d047efa000c6b833d,30,0,2024-02-28T15:35:28.887Z,english_930.wav,0,peel,381,36,5,2,English,m,6,0.6,-43.21972941,1.19871165
5e2e147d047efa000c6b833d,30,0,2024-02-28T15:35:28.887Z,english_930.wav,0,peel,381,36,5,2,English,m,7,0.7,24.79128716,1.34030412
5e2e147d047efa000c6b833d,30,0,2024-02-28T15:35:28.887Z,english_930.wav,0,peel,381,36,5,2,English,m,8,0.8,-16.02759849,0.99943393
5e2e147d047efa000c6b833d,30,0,2024-02-28T15:35:28.887Z,english_930.wav,0,peel,381,36,5,2,English,m,9,0.9,5.32070927,1.01667004
5e2e147d047efa000c6b833d,30,0,2024-02-28T15:35:28.887Z,english_930.wav,0,peel,381,36,5,2,English,m,10,1.0,41.16408732,1.52152501
5e2e147d047efa000c6b833d,30,0,2024-02-28T15:35:28.887Z,english_930.wav,0,peel,381,36,5,2,English,m,11,1.09391667,45.49028899,0.12802686
5e2e147d047efa000c6b833d,31,0,2024-02-28T15:35:28.887Z,english_548.wav,0,peel,938,36,5,2,English,m,0,0.0,-24.88128465,1.63350405
5e2e147d047efa000c6b833d,31,0,2024-02-28T15:35:28.887Z,english_548.wav,0,peel,938,36,5,2,English,m,1,0.1,1.54687273,0.1653087
5e2e147d047efa000c6b833d,31,0,2024-02-28T15:35:28.887Z,english_548.wav,0,peel,938,36,5,2,English,m,2,0.2,58.02940435,0.01517729
5e2e147d047efa000c6b833d,31,0,2024-02-28T15:35:28.887Z,english_548.wav,0,peel,938,36,5,2,English,m,3,0.3,-2.90148727,1.81666457
5e2e147d047efa000c6b833d,31,0,2024-02-28T15:35:28.887Z,english_548.wav,0,peel,938,36,5,2,English,m,4,0.4,9.31686881,0.9208407
5e2e147d047efa000c6b833d,31,0,2024-02-28T15:35:28.887Z,english_548.wav,0,peel,938,36,5,2,English,m,5,0.5,-62.70026351,1.35074745
5e2e147d047efa000c6b833d,31,0,2024-02-28T15:35:28.887Z,english_548.wav,0,peel,938,36,5,2,English,m,6,0.6,-56.6580034,0.86467249
5e2e147d047efa000c6b833d,31,0,2024-02-28T15:35:28.887Z,english_548.wav,0,peel,938,36,5,2,English,m,7,0.7,14.62965286,1.73416909
5e2e147d047efa000c6b833d,31,0,2024-02-28T15:35:28.887Z,english_548.wav,0,peel,938,36,5,2,English,m,8,0.8,-14.87483285,1.42113571
5e2e147d047efa000c6b833d,31,0,2024-02-28T15:35:28.887Z,english_548.wav,0,peel,938,36,5,2,English,m,9,0.9,69.23683794,0.95555023
5e2e147d047efa000c6b833d,31,0,2024-02-28T15:35:28.887Z,english_548.wav,0,peel,938,36,5,2,English,m,10,1.0,-42.98683333,1.22888343
5e2e147d047efa000c6b833d,31,0,2024-02-28T15:35:28.887Z,english_548.wav,0,peel,938,36,5,2,English,m,11,1.09391667,67.19958302,1.18114311
5e2e147d047efa000c6b833d,32,0,2024-02-28T15:35:28.887Z,english_750.wav,0,peel,586,36,5,2,English,m,0,0.0,-25.16303224,0.86862278
5e2e147d047efa000c6b833d,32,0,2024-02-28T15:35:28.887Z,english_750.wav,0,peel,586,36,5,2,English,m,1,0.1,-14.02768866,0.53645709
5e2e147d047efa000c6b833d,32,0,2024-02-28T15:35:28.887Z,english_750.wav,0,peel,586,36,5,2,English,m,2,0.2,69.31394604,1.09554837
5e2e147d047efa000c6b833d,32,0,2024-02-28T15:35:28.887Z,english_750.wav,0,peel,586,36,5,2,English,m,3,0.3,90.85453111,0.97960852
5e2e147d047efa000c6b833d,32,0,2024-02-28T15:35:28.887Z,english_750.wav,0,peel,586,36,5,2,English,m,4,0.4,-11.11189664,1.14883971
5e2e147d047efa000c6b833d,32,0,2024-02-28T15:35:28.887Z,english_750.wav,0,peel,586,36,5,2,English,m,5,0.5,99.7192225,0.16341609
5e2e147d047efa000c6b833d,32,0,2024-02-28T15:35:28.887Z,english_750.wav,0,peel,586,36,5,2,English,m,6,0.6,59.23899804,1.34227106
5e2e147d047efa000c6b833d,32,0,2024-02-28T15:35:28.887Z,english_750.wav,0,peel,586,36,5,2,English,m,7,0.7,61.96409814,1.64659331
5e2e147d047efa000c6b833d,32,0,2024-02-28T15:35:28.887Z,english_750.wav,0,peel,586,36,5,2,English,m,8,0.8,86.60257641,0.80940412
5e2e147d047efa000c6b833d,32,0,2024-02-28T15:35:28.887Z,english_750.wav,0,peel,586,36,5,2,English,m,9,0.9,26.97835103,1.55602713
5e2e147d047efa000c6b833d,32,0,2024-02-28T15:35:28.887Z,english_750.wav,0,peel,586,36,5,2,English,m,10,1.0,-29.13235822,0.0040181
5e2e147d047efa000c6b833d,32,0,2024-02-28T15:35:28.887Z,english_750.wav,0,peel,586,36,5,2,English,m,11,1.09391667,-49.9357994,1.03656175
5e2e147d047efa000c6b833d,33,0,2024-02-28T15:35:28.887Z,english_474.wav,0,pill,349,36,5,2,English,m,0,0.0,90.33187361,1.64439586
5e2e147d047efa000c6b833d,33,0,2024-02-28T15:35:28.887Z,english_474.wav,0,pill,349,36,5,2,English,m,1,0.1,-6.84069755,1.97409516
5e2e147d047efa000c6b833d,33,0,2024-02-28T15:35:28.887Z,english_474.wav,0,pill,349,36,5,2,English,m,2,0.2,-57.72482016,1.83394357
5e2e147d047efa000c6b833d,33,0,2024-02-28T15:35:28.887Z,english_474.wav,0,pill,349,36,5,2,English,m,3,0.3,-31.39067157,1.91918891
5e2e147d047efa000c6b833d,33,0,2024-02-28T15:35:28.887Z,english_474.wav,0,pill,349,36,5,2,English,m,4,0.4,81.36101502,1.89552465
5e2e147d047efa000c6b833d,33,0,2024-02-28T15:35:28.887Z,english_474.wav,0,pill,349,36,5,2,English,m,5,0.5,86.28648359,1.60591709
5e2e147d047efa000c6b833d,33,0,2024-02-28T15:35:28.887Z,english_474.wav,0,pill,349,36,5,2,English,m,6,0.6,59.24078698,1.87570248
5e2e147d047efa000c6b833d,33,0,2024-02-28T15:35:28.887Z,english_474.wav,0,pill,349,36,5,2,English,m,7,0.7,83.65694144,0.05909507
5e2e147d047efa000c6b833d,33,0,2024-02-28T15:35:28.887Z,english_474.wav,0,pill,349,36,5,2,English,m,8,0.8,-5.88526163,0.13266254
5e2e147d047efa000c6b833d,33,0,2024-02-28T15:35:28.887Z,english_474.wav,0,pill,349,36,5,2,English,m,9,0.9,-0.83528638,1.2446593
5e2e147d047efa000c6b833d,33,0,2024-02-28T15:35:28.887Z,english_474.wav,0,pill,349,36,5,2,English,m,10,1.0,93.70431835,0.47044402
5e2e147d047efa000c6b833d,33,0,2024-02-28T15:35:28.887Z,english_474.wav,0,pill,349,36,5,2,English,m,11,1.09391667,-9.99550439,1.70719202
5e2e147d047efa000c6b833d,34,0,2024-02-28T15:35:28.887Z,english_346.wav,0,pill,452,36,5,2,English,m,0,0.0,24.07666509,0.66537663
5e2e147d047efa000c6b833d,34,0,2024-02-28T15:35:28.887Z,english_346.wav,0,pill,452,36,5,2,English,m,1,0.1,-87.64157913,1.54123619
5e2e147d047efa000c6b833d,34,0,2024-02-28T15:35:28.887Z,english_346.wav,0,pill,452,36,5,2,English,m,2,0.2,-51.3970499,0.92348631
5e2e147d047efa000c6b833d,34,0,2024-02-28T15:35:28.887Z,english_346.wav,0,pill,452,36,5,2,English,m,3,0.3,79.45874018,0.33920207
5e2e147d047efa000c6b833d,34,0,2024-02-28T15:35:28.887Z,english_346.wav,0,pill,452,36,5,2,English,m,4,0.4,-74.83031912,0.94433533
5e2e147d047efa000c6b833d,34,0,2024-02-28T15:35:28.887Z,english_346.wav,0,pill,452,36,5,2,English,m,5,0.5,-2.98294823,0.8352321
5e2e147d047efa000c6b833d,34,0,2024-02-28T15:35:28.887Z,english_346.wav,0,pill,452,36,5,2,English,m,6,0.6,-32.38946294,0.95810053
5e2e147d047efa000c6b833d,34,0,2024-02-28T15:35:28.887Z,english_346.wav,0,pill,452,36,5,2,English,m,7,0.7,-24.81590652,0.99822629
5e2e147d047efa000c6b833d,34,0,2024-02-28T15:35:28.887Z,english_346.wav,0,pill,452,36,5,2,English,m,8,0.8,-13.90891955,0.18782062
5e2e147d047efa000c6b833d,34,0,2024-02-28T15:35:28.887Z,english_346.wav,0,pill,452,36,5,2,English,m,9,0.9,-33.49626836,1.6271571
5e2e147d047efa000c6b833d,34,0,2024-02-28T15:35:28.887Z,english_346.wav,0,pill,452,36,5,2,English,m,10,1.0,-23.2144111,1.67158741
5e2e147d047efa000c6b833d,34,0,2024-02-28T15:35:28.887Z,english_346.wav,0,pill,452,36,5,2,English,m,11,1.09391667,-9.66358574,1.16169049
5e2e147d047efa000c6b833d,35,0,2024-02-28T15:35:28.887Z,english_38.wav,0,peel,361,36,5,2,English,m,0,0.0,84.84297862,0.12127835
5e2e147d047efa000c6b833d,35,0,2024-02-28T15:35:28.887Z,english_38.wav,0,peel,361,36,5,2,English,m,1,0.1,-41.13766339,0.39553601
5e2e147d047efa000c6b833d,35,0,2024-02-28T15:35:28.887Z,english_38.wav,0,peel,361,36,5,2,English,m,2,0.2,31.0243005,1.29400733
5e2e147d047efa000c6b833d,35,0,2024-02-28T15:35:28.887Z,english_38.wav,0,peel,361,36,5,2,English,m,3,0.3,51.71643077,0.38578685
5e2e147d047efa000c6b833d,35,0,2024-02-28T15:35:28.887Z,english_38.wav,0,peel,361,36,5,2,English,m,4,0.4,-15.52187673,0.67216324
5e2e147d047efa000c6b833d,35,0,2024-02-28T15:35:28.887Z,english_38.wav,0,peel,361,36,5,2,English,m,5,0.5,37.47478577,0.61922356
5e2e147d047efa000c6b833d,35,0,2024-02-28T15:35:28.887Z,english_38.wav,0,peel,361,36,5,2,English,m,6,0.6,27.01527087,0.0538602
5e2e147d047efa000c6b833d,35,0,2024-02-28T15:35:28.887Z,english_38.wav,0,peel,361,36,5,2,English,m,7,0.7,44.60136097,0.56901487
5e2e147d047efa000c6b833d,35,0,2024-02-28T15:35:28.887Z,english_38.wav,0,peel,361,36,5,2,English,m,8,0.8,-52.37417606,1.28646438
5e2e147d047efa000c6b833d,35,0,2024-02-28T15:35:28.887Z,english_38.wav,0,peel,361,36,5,2,English,m,9,0.9,-48.58777174,0.80149466
5e2e147d047efa000c6b833d,35,0,2024-02-28T15:35:28.887Z,english_38.wav,0,peel,361,36,5,2,English,m,10,1.0,7.20305444,1.28981754
5e2e147d047efa000c6b833d,35,0,2024-02-28T15:35:28.887Z,english_38.wav,0,peel,361,36,5,2,English,m,11,1.09391667,-74.66052111,0.46742112
5e2e147d047efa000c6b833d,36,0,2024-02-28T15:35:28.887Z,english_853.wav,0,peel,215,36,5,2,English,m,0,0.0,73.80957671,0.26230627
5e2e147d047efa000c6b833d,36,0,2024-02-28T15:35:28.887Z,english_853.wav,0,peel,215,36,5,2,English,m,1,0.1,37.61319896,1.27859335
5e2e147d047efa000c6b833d,36,0,2024-02-28T15:35:28.887Z,english_853.wav,0,peel,215,36,5,2,English,m,2,0.2,66.36541624,1.90614201
5e2e147d047efa000c6b833d,36,0,2024-02-28T15:35:28.887Z,english_853.wav,0,peel,215,36,5,2,English,m,3,0.3,52.83840981,1.77793473
5e2e147d047efa000c6b833d,36,0,2024-02-28T15:35:28.887Z,english_853.wav,0,peel,215,36,5,2,English,m,4,0.4,-44.13201993,1.82128224
5e2e147d047efa000c6b833d,36,0,2024-02-28T15:35:28.887Z,english_853.wav,0,peel,215,36,5,2,English,m,5,0.5,78.92983873,0.37682562
5e2e147d047efa000c6b833d,36,0,2024-02-28T15:35:28.887Z,english_853.wav,0,peel,215,36,5,2,English,m,6,0.6,81.37511439,0.77805764
5e2e147d047efa000c6b833d,36,0,2024-02-28T15:35:28.887Z,english_853.wav,0,peel,215,36,5,2,English,m,7,0.7,-17.4677503,1.13496325
5e2e147d047efa000c6b833d,36,0,2024-02-28T15:35:28.887Z,english_853.wav,0,peel,215,36,5,2,English,m,8,0.8,-1.76399053,0.96839897
5e2e147d047efa000c6b833d,36,0,2024-02-28T15:35:28.887Z,english_853.wav,0,peel,215,36,5,2,English,m,9,0.9,46.72276769,1.53181919
5e2e147d047efa000c6b833d,36,0,2024-02-28T15:35:28.887Z,english_853.wav,0,peel,215,36,5,2,English,m,10,1.0,-99.76046779,0.67948754
5e2e147d047efa000c6b833d,36,0,2024-02-28T15:35:28.887Z,english_853.wav,0,peel,215,36,5,2,English,m,11,1.09391667,-16.24419339,1.26605171
5e2e147d047efa000c6b833d,37,0,2024-02-28T15:35:28.887Z,english_128.wav,0,peel,267,36,5,2,English,m,0,0.0,-22.61942611,1.66721471
5e2e147d047efa000c6b833d,37,0,2024-02-28T15:35:28.887Z,english_128.wav,0,peel,267,36,5,2,English,m,1,0.1,68.41227715,1.06525369
5e2e147d047efa000c6b833d,37,0,2024-02-28T15:35:28.887Z,english_128.wav,0,peel,267,36,5,2,English,m,2,0.2,-54.10958419,1.55278382
5e2e147d047efa000c6b833d,37,0,2024-02-28T15:35:28.887Z,english_128.wav,0,peel,267,36,5,2,English,m,3,0.3,-34.3976761,1.27447121
5e2e147d047efa000c6b833d,37,0,2024-02-28T15:35:28.887Z,english_128.wav,0,peel,267,36,5,2,English,m,4,0.4,-80.35189368,1.24533025
5e2e147d047efa000c6b833d,37,0,2024-02-28T15:35:28.887Z,english_128.wav,0,peel,267,36,5,2,English,m,5,0.5,-23.21922247,0.40128709
5e2e147d047efa000c6b833d,37,0,2024-02-28T15:35:28.887Z,english_128.wav,0,peel,267,36,5,2,English,m,6,0.6,75.93285278,1.08908342
5e2e147d047efa000c6b833d,37,0,2024-02-28T15:35:28.887Z,english_128.wav,0,peel,267,36,5,2,English,m,7,0.7,-25.01230628,1.52248699
5e2e147d047efa000c6b833d,37,0,2024-02-28T15:35:28.887Z,english_128.wav,0,peel,267,36,5,2,English,m,8,0.8,23.78207095,1.64911831
5e2e147d047efa000c6b833d,37,0,2024-02-28T15:35:28.887Z,english_128.wav,0,peel,267,36,5,2,English,m,9,0.9,-74.87827882,0.03473392
5e2e147d047efa000c6b833d,37,0,2024-02-28T15:35:28.887Z,english_128.wav,0,peel,267,36,5,2,English,m,10,1.0,74.39346852,1.99892406
5e2e147d047efa000c6b833d,37,0,2024-02-28T15:35:28.887Z,english_128.wav,0,peel,267,36,5,2,English,m,11,1.09391667,30.71976897,1.56565298
5e2e147d047efa000c6b833d,38,0,2024-02-28T15:35:28.887Z,english_54.wav,0,peel,263,36,5,2,English,m,0,0.0,-21.96933263,0.48716735
5e2e147d047efa000c6b833d,38,0,2024-02-28T15:35:28.887Z,english_54.wav,0,peel,263,36,5,2,English,m,1,0.1,21.34738665,1.05776716
5e2e147d047efa000c6b833d,38,0,2024-02-28T15:35:28.887Z,english_54.wav,0,peel,263,36,5,2,English,m,2,0.2,31.11757961,1.06204204
5e2e147d047efa000c6b833d,38,0,2024-02-28T15:35:28.887Z,english_54.wav,0,peel,263,36,5,2,English,m,3,0.3,-97.99268721,1.04698992
5e2e147d047efa000c6b833d,38,0,2024-02-28T15:35:28.887Z,english_54.wav,0,peel,263,36,5,2,English,m,4,0.4,-9.10924424,1.4258698
5e2e147d047efa000c6b833d,38,0,2024-02-28T15:35:28.887Z,english_54.wav,0,peel,263,36,5,2,English,m,5,0.5,6.54964279,0.044516
5e2e147d047efa000c6b833d,38,0,2024-02-28T15:35:28.887Z,english_54.wav,0,peel,263,36,5,2,English,m,6,0.6,-88.03304288,1.54012871
5e2e147d047efa000c6b833d,38,0,2024-02-28T15:35:28.887Z,english_54.wav,0,peel,263,36,5,2,English,m,7,0.7,-43.35008219,0.40475238
5e2e147d047efa000c6b833d,38,0,2024-02-28T15:35:28.887Z,english_54.wav,0,peel,263,36,5,2,English,m,8,0.8,96.98577024,1.50449696
5e2e147d047efa000c6b833d,38,0,2024-02-28T15:35:28.887Z,english_54.wav,0,peel,263,36,5,2,English,m,9,0.9,50.71384678,0.29484315
5e2e147d047efa000c6b833d,38,0,2024-02-28T15:35:28.887Z,english_54.wav,0,peel,263,36,5,2,English,m,10,1.0,-60.40662606,1.60594219
5e2e147d047efa000c6b833d,38,0,2024-02-28T15:35:28.887Z,english_54.wav,0,peel,263,36,5,2,English,m,11,1.09391667,58.67238149,0.44012247
5e2e147d047efa000c6b833d,39,0,2024-02-28T15:35:28.887Z,english_27.wav,0,peel,229,36,5,2,English,m,0,0.0,79.54091256,1.25862136
5e2e147d047efa000c6b833d,39,0,2024-02-28T15:35:28.887Z,english_27.wav,0,peel,229,36,5,2,English,m,1,0.1,8.12106861,0.9398724
5e2e147d047efa000c6b833d,39,0,2024-02-28T15:35:28.887Z,english_27.wav,0,peel,229,36,5,2,English,m,2,0.2,-86.96528304,1.23485766
5e2e147d047efa000c6b833d,39,0,2024-02-28T15:35:28.887Z,english_27.wav,0,peel,229,36,5,2,English,m,3,0.3,34.39896744,0.94041456
5e2e147d047efa000c6b833d,39,0,2024-02-28T15:35:28.887Z,english_27.wav,0,peel,229,36,5,2,English,m,4,0.4,73.46875222,1.68451502
5e2e147d047efa000c6b833d,39,0,2024-02-28T15:35:28.887Z,english_27.wav,0,peel,229,36,5,2,English,m,5,0.5,-83.8449803,0.54115759
5e2e147d047efa000c6b833d,39,0,2024-02-28T15:35:28.887Z,english_27.wav,0,peel,229,36,5,2,English,m,6,0.6,58.21808767,0.09765006
5e2e147d047efa000c6b833d,39,0,2024-02-28T15:35:28.887Z,english_27.wav,0,peel,229,36,5,2,English,m,7,0.7,-1.02085817,0.91208016
5e2e147d047efa000c6b833d,39,0,2024-02-28T15:35:28.887Z,english_27.wav,0,peel,229,36,5,2,English,m,8,0.8,-33.33574161,1.53320318
5e2e147d047efa000c6b833d,39,0,2024-02-28T15:35:28.887Z,english_27.wav,0,peel,229,36,5,2,English,m,9,0.9,24.41997053,1.39457069
5e2e147d047efa000c6b833d,39,0,2024-02-28T15:35:28.887Z,english_27.wav,0,peel,229,36,5,2,English,m,10,1.0,-54.97722052,0.85736332
5e2e147d047efa000c6b833d,39,0,2024-02-28T15:35:28.887Z,english_27.wav,0,peel,229,36,5,2,English,m,11,1.09391667,-40.91525951,0.73478674
5e2e147d047efa000c6b833d,40,0,2024-02-28T15:35:28.887Z,english_662.wav,0,peel,228,36,5,2,English,m,0,0.0,31.31886637,0.51844492
5e2e147d047efa000c6b833d,40,0,2024-02-28T15:35:28.887Z,english_662.wav,0,peel,228,36,5,2,English,m,1,0.1,-45.58012984,1.26337535
5e2e147d047efa000c6b833d,40,0,2024-02-28T15:35:28.887Z,english_662.wav,0,peel,228,36,5,2,English,m,2,0.2,-36.67335117,1.47948125
5e2e147d047efa000c6b833d,40,0,2024-02-28T15:35:28.887Z,english_662.wav,0,peel,228,36,5,2,English,m,3,0.3,91.68908931,1.54973702
5e2e147d047efa000c6b833d,40,0,2024-02-28T15:35:28.887Z,english_662.wav,0,peel,228,36,5,2,English,m,4,0.4,99.42890358,1.40573319
5e2e147d047efa000c6b833d,40,0,2024-02-28T15:35:28.887Z,english_662.wav,0,peel,228,36,5,2,English,m,5,0.5,-75.06867948,0.46765036
5e2e147d047efa000c6b833d,40,0,2024-02-28T15:35:28.887Z,english_662.wav,0,peel,228,36,5,2,English,m,6,0.6,-53.3060983,1.29577772
5e2e147d047efa000c6b833d,40,0,2024-02-28T15:35:28.887Z,english_662.wav,0,peel,228,36,5,2,English,m,7,0.7,66.7707286,1.28176027
5e2e147d047efa000c6b833d,40,0,2024-02-28T15:35:28.887Z,english_662.wav,0,peel,228,36,5,2,English,m,8,0.8,69.18702853,1.79426909
5e2e147d047efa000c6b833d,40,0,2024-02-28T15:35:28.887Z,english_662.wav,0,peel,228,36,5,2,English,m,9,0.9,-16.72052533,0.76623174
5e2e147d047efa000c6b833d,40,0,2024-02-28T15:35:28.887Z,english_662.wav,0,peel,228,36,5,2,English,m,10,1.0,16.50634939,1.90203541
5e2e147d047efa000c6b833d,40,0,2024-02-28T15:35:28.887Z,english_662.wav,0,peel,228,36,5,2,English,m,11,1.09391667,79.32738685,1.85204165
5e2e147d047efa000c6b833d,41,0,2024-02-28T15:35:28.887Z,english_898.wav,0,peel,293,36,5,2,English,m,0,0.0,-34.72631164,0.55709283
5e2e147d047efa000c6b833d,41,0,2024-02-28T15:35:28.887Z,english_898.wav,0,peel,293,36,5,2,English,m,1,0.1,67.7212699,1.5055727
5e2e147d047efa000c6b833d,41,0,2024-02-28T15:35:28.887Z,english_898.wav,0,peel,293,36,5,2,English,m,2,0.2,92.06316774,1.25694743
5e2e147d047efa000c6b833d,41,0,2024-02-28T15:35:28.887Z,english_898.wav,0,peel,293,36,5,2,English,m,3,0.3,-76.73151606,1.78673408
5e2e147d047efa000c6b833d,41,0,2024-02-28T15:35:28.887Z,english_898.wav,0,peel,293,36,5,2,English,m,4,0.4,97.93920214,0.88325681
5e2e147d047efa000c6b833d,41,0,2024-02-28T15:35:28.887Z,english_898.wav,0,peel,293,36,5,2,English,m,5,0.5,99.11447245,1.91785586
5e2e147d047efa000c6b833d,41,0,2024-02-28T15:35:28.887Z,english_898.wav,0,peel,293,36,5,2,English,m,6,0.6,83.05225532,1.93702091
5e2e147d047efa000c6b833d,41,0,2024-02-28T15:35:28.887Z,english_898.wav,0,peel,293,36,5,2,English,m,7,0.7,-27.3520563,1.06642546
5e2e147d047efa000c6b833d,41,0,2024-02-28T15:35:28.887Z,english_898.wav,0,peel,293,36,5,2,English,m,8,0.8,40.20374668,1.06201677
5e2e147d047efa000c6b833d,41,0,2024-02-28T15:35:28.887Z,english_898.wav,0,peel,293,36,5,2,English,m,9,0.9,-11.73877097,0.68712783
5e2e147d047efa000c6b833d,41,0,2024-02-28T15:35:28.887Z,english_898.wav,0,peel,293,36,5,2,English,m,10,1.0,-73.8798446,0.31583941
5e2e147d047efa000c6b833d,41,0,2024-02-28T15:35:28.887Z,english_898.wav,0,peel,293,36,5,2,English,m,11,1.09391667,81.33954877,1.03949418
5e2e147d047efa000c6b833d,42,0,2024-02-28T15:35:28.887Z,english_235.wav,0,pill,32,36,5,2,English,m,0,0.0,44.65499148,0.45157531
5e2e147d047efa000c6b833d,42,0,2024-02-28T15:35:28.887Z,english_235.wav,0,pill,32,36,5,2,English,m,1,0.1,77.52873905,0.81502167
5e2e147d047efa000c6b833d,42,0,2024-02-28T15:35:28.887Z,english_235.wav,0,pill,32,36,5,2,English,m,2,0.2,7.66193616,0.73184795
5e2e147d047efa000c6b833d,42,0,2024-02-28T15:35:28.887Z,english_235.wav,0,pill,32,36,5,2,English,m,3,0.3,-36.65234069,1.39041991
5e2e147d047efa000c6b833d,42,0,2024-02-28T15:35:28.887Z,english_235.wav,0,pill,32,36,5,2,English,m,4,0.4,-38.57977077,0.8131102
5e2e147d047efa000c6b833d,42,0,2024-02-28T15:35:28.887Z,english_235.wav,0,pill,32,36,5,2,English,m,5,0.5,-69.81992681,0.63770546
5e2e147d047efa000c6b833d,42,0,2024-02-28T15:35:28.887Z,english_235.wav,0,pill,32,36,5,2,English,m,6,0.6,-3.21185942,0.48204551
5e2e147d047efa000c6b833d,42,0,2024-02-28T15:35:28.887Z,english_235.wav,0,pill,32,36,5,2,English,m,7,0.7,-3.7989625,0.64449527
5e2e147d047efa000c6b833d,42,0,2024-02-28T15:35:28.887Z,english_235.wav,0,pill,32,36,5,2,English,m,8,0.8,-60.5356981,0.17411585
5e2e147d047efa000c6b833d,42,0,2024-02-28T15:35:28.887Z,english_235.wav,0,pill,32,36,5,2,English,m,9,0.9,10.60420307,1.43103789
5e2e147d047efa000c6b833d,42,0,2024-02-28T15:35:28.887Z,english_235.wav,0,pill,32,36,5,2,English,m,10,1.0,73.74029871,1.90034823
5e2e147d047efa000c6b833d,42,0,2024-02-28T15:35:28.887Z,english_235.wav,0,pill,32,36,5,2,English,m,11,1.09391667,-42.3978276,0.79167247
5e2e147d047efa000c6b833d,43,0,2024-02-28T15:35:28.887Z,english_153.wav,0,peel,491,36,5,2,English,m,0,0.0,-22.0137653,0.27160884
5e2e147d047efa000c6b833d,43,0,2024-02-28T15:35:28.887Z,english_153.wav,0,peel,491,36,5,2,English,m,1,0.1,21.87420495,0.44150389
5e2e147d047efa000c6b833d,43,0,2024-02-28T15:35:28.887Z,english_153.wav,0,peel,491,36,5,2,English,m,2,0.2,78.88032694,1.08191418
5e2e147d047efa000c6b833d,43,0,2024-02-28T15:35:28.887Z,english_153.wav,0,peel,491,36,5,2,English,m,3,0.3,68.02596654,0.18142841
5e2e147d047efa000c6b833d,43,0,2024-02-28T15:35:28.887Z,english_153.wav,0,peel,491,36,5,2,English,m,4,0.4,52.06150723,0.17455202
5e2e147d047efa000c6b833d,43,0,2024-02-28T15:35:28.887Z,english_153.wav,0,peel,491,36,5,2,English,m,5,0.5,-15.64198183,1.88425449
5e2e147d047efa000c6b833d,43,0,2024-02-28T15:35:28.887Z,english_153.wav,0,peel,491,36,5,2,English,m,6,0.6,-55.92218577,1.64687285
5e2e147d047efa000c6b833d,43,0,2024-02-28T15:35:28.887Z,english_153.wav,0,peel,491,36,5,2,English,m,7,0.7,45.74926524,1.52678411
5e2e147d047efa000c6b833d,43,0,2024-02-28T15:35:28.887Z,english_153.wav,0,peel,491,36,5,2,English,m,8,0.8,13.43145428,1.81629534
5e2e147d047efa000c6b833d,43,0,2024-02-28T15:35:28.887Z,english_153.wav,0,peel,491,36,5,2,English,m,9,0.9,-40.59369693,0.8186826
5e2e147d047efa000c6b833d,43,0,2024-02-28T15:35:28.887Z,english_153.wav,0,peel,491,36,5,2,English,m,10,1.0,14.2660924,0.36511419
5e2e147d047efa000c6b833d,43,0,2024-02-28T15:35:28.887Z,english_153.wav,0,peel,491,36,5,2,English,m,11,1.09391667,62.05558257,1.38161287
5e2e147d047efa000c6b833d,44,0,2024-02-28T15:35:28.887Z,english_2.wav,0,peel,551,36,5,2,English,m,0,0.0,41.22215969,0.59226954
5e2e147d047efa000c6b833d,44,0,2024-02-28T15:35:28.887Z,english_2.wav,0,peel,551,36,5,2,English,m,1,0.1,63.4325041,1.70689004
5e2e147d047efa000c6b833d,44,0,2024-02-28T15:35:28.887Z,english_2.wav,0,peel,551,36,5,2,English,m,2,0.2,30.26698033,1.70278764
5e2e147d047efa000c6b833d,44,0,2024-02-28T15:35:28.887Z,english_2.wav,0,peel,551,36,5,2,English,m,3,0.3,-42.97414703,0.93211278
5e2e147d047efa000c6b833d,44,0,2024-02-28T15:35:28.887Z,english_2.wav,0,peel,551,36,5,2,English,m,4,0.4,78.73420301,0.75985414
5e2e147d047efa000c6b833d,44,0,2024-02-28T15:35:28.887Z,english_2.wav,0,peel,551,36,5,2,English,m,5,0.5,98.07294335,1.00279357
5e2e147d047efa000c6b833d,44,0,2024-02-28T15:35:28.887Z,english_2.wav,0,peel,551,36,5,2,English,m,6,0.6,-11.43066233,1.68044469
5e2e147d047efa000c6b833d,44,0,2024-02-28T15:35:28.887Z,english_2.wav,0,peel,551,36,5,2,English,m,7,0.7,98.59484661,1.4408376
5e2e147d047efa000c6b833d,44,0,2024-02-28T15:35:28.887Z,english_2.wav,0,peel,551,36,5,2,English,m,8,0.8,5.98934189,0.34467269
5e2e147d047efa000c6b833d,44,0,2024-02-28T15:35:28.887Z,english_2.wav,0,peel,551,36,5,2,English,m,9,0.9,12.71998757,0.3933307
5e2e147d047efa000c6b833d,44,0,2024-02-28T15:35:28.887Z,english_2.wav,0,peel,551,36,5,2,English,m,10,1.0,80.81444137,0.30092676
5e2e147d047efa000c6b833d,44,0,2024-02-28T15:35:28.887Z,english_2.wav,0,peel,551,36,5,2,English,m,11,1.09391667,-65.72418196,0.87599386
5e2e147d047efa000c6b833d,45,0,2024-02-28T15:35:28.887Z,english_4.wav,0,peel,450,36,5,2,English,m,0,0.0,-33.3305161,1.1805291
5e2e147d047efa000c6b833d,45,0,2024-02-28T15:35:28.887Z,english_4.wav,0,peel,450,36,5,2,English,m,1,0.1,-23.37326796,0.77631495
5e2e147d047efa000c6b833d,45,0,2024-02-28T15:35:28.887Z,english_4.wav,0,peel,450,36,5,2,English,m,2,0.2,-42.80660343,1.23796573
5e2e147d047efa000c6b833d,45,0,2024-02-28T15:35:28.887Z,english_4.wav,0,peel,450,36,5,2,English,m,3,0.3,-85.97409915,0.59874379
5e2e147d047efa000c6b833d,45,0,2024-02-28T15:35:28.887Z,english_4.wav,0,peel,450,36,5,2,English,m,4,0.4,51.28251826,0.69643725
5e2e147d047efa000c6b833d,45,0,2024-02-28T15:35:28.887Z,english_4.wav,0,peel,450,36,5,2,English,m,5,0.5,20.44685701,0.26804311
5e2e147d047efa000c6b833d,45,0,2024-02-28T15:35:28.887Z,english_4.wav,0,peel,450,36,5,2,English,m,6,0.6,23.55063394,0.13974856
5e2e147d047efa000c6b833d,45,0,2024-02-28T15:35:28.887Z,english_4.wav,0,peel,450,36,5,2,English,m,7,0.7,-22.02944006,0.25652729
5e2e147d047efa000c6b833d,45,0,2024-02-28T15:35:28.887Z,english_4.wav,0,peel,450,36,5,2,English,m,8,0.8,55.64002673,0.69877455
5e2e147d047efa000c6b833d,45,0,2024-02-28T15:35:28.887Z,english_4.wav,0,peel,450,36,5,2,English,m,9,0.9,43.82412807,0.73036563
5e2e147d047efa000c6b833d,45,0,2024-02-28T15:35:28.887Z,english_4.wav,0,peel,450,36,5,2,English,m,10,1.0,96.09742447,1.13065304
5e2e147d047efa000c6b833d,45,0,2024-02-28T15:35:28.887Z,english_4.wav,0,peel,450,36,5,2,English,m,11,1.09391667,94.89276626,0.42036746
5e2e147d047efa000c6b833d,46,0,2024-02-28T15:35:28.887Z,english_106.wav,0,pill,545,36,5,2,English,m,0,0.0,49.34223169,0.13389709
5e2e147d047efa000c6b833d,46,0,2024-02-28T15:35:28.887Z,english_106.wav,0,pill,545,36,5,2,English,m,1,0.1,-45.57503338,0.25174437
5e2e147d047efa000c6b833d,46,0,2024-02-28T15:35:28.887Z,english_106.wav,0,pill,545,36,5,2,English,m,2,0.2,-15.08492624,0.82402432
5e2e147d047efa000c6b833d,46,0,2024-02-28T15:35:28.887Z,english_106.wav,0,pill,545,36,5,2,English,m,3,0.3,-19.8979669,0.82208583
5e2e147d047efa000c6b833d,46,0,2024-02-28T15:35:28.887Z,english_106.wav,0,pill,545,36,5,2,English,m,4,0.4,-25.53796799,1.38135822
5e2e147d047efa000c6b833d,46,0,2024-02-28T15:35:28.887Z,english_106.wav,0,pill,545,36,5,2,English,m,5,0.5,88.30993321,0.76093903
5e2e147d047efa000c6b833d,46,0,2024-02-28T15:35:28.887Z,english_106.wav,0,pill,545,36,5,2,English,m,6,0.6,-64.76962788,0.57981415
5e2e147d047efa000c6b833d,46,0,2024-02-28T15:35:28.887Z,english_106.wav,0,pill,545,36,5,2,English,m,7,0.7,-39.71315935,1.62636068
5e2e147d047efa000c6b833d,46,0,2024-02-28T15:35:28.887Z,english_106.wav,0,pill,545,36,5,2,English,m,8,0.8,92.87896843,1.17795772
5e2e147d047efa000c6b833d,46,0,2024-02-28T15:35:28.887Z,english_106.wav,0,pill,545,36,5,2,English,m,9,0.9,-52.99965121,0.06230935
5e2e147d047efa000c6b833d,46,0,2024-02-28T15:35:28.887Z,english_106.wav,0,pill,545,36,5,2,English,m,10,1.0,37.25809924,0.54036795
5e2e147d047efa000c6b833d,46,0,2024-02-28T15:35:28.887Z,english_106.wav,0,pill,545,36,5,2,English,m,11,1.09391667,83.50306975,1.72343759
5e2e147d047efa000c6b833d,47,0,2024-02-28T15:35:28.887Z,english_136.wav,0,peel,202,36,5,2,English,m,0,0.0,21.82146872,1.16475084
5e2e147d047efa000c6b833d,47,0,2024-02-28T15:35:28.887Z,english_136.wav,0,peel,202,36,5,2,English,m,1,0.1,-41.56573861,0.22540654
5e2e147d047efa000c6b833d,47,0,2024-02-28T15:35:28.887Z,english_136.wav,0,peel,202,36,5,2,English,m,2,0.2,56.74219222,0.7632378
5e2e147d047efa000c6b833d,47,0,2024-02-28T15:35:28.887Z,english_136.wav,0,peel,202,36,5,2,English,m,3,0.3,-17.69017715,1.18330594
5e2e147d047efa000c6b833d,47,0,2024-02-28T15:35:28.887Z,english_136.wav,0,peel,202,36,5,2,English,m,4,0.4,39.04068679,0.42274693
5e2e147d047efa000c6b833d,47,0,2024-02-28T15:35:28.887Z,english_136.wav,0,peel,202,36,5,2,English,m,5,0.5,-57.82412378,0.15408699
5e2e147d047efa000c6b833d,47,0,2024-02-28T15:35:28.887Z,english_136.wav,0,peel,202,36,5,2,English,m,6,0.6,-58.88173028,0.89761294
5e2e147d047efa000c6b833d,47,0,2024-02-28T15:35:28.887Z,english_136.wav,0,peel,202,36,5,2,English,m,7,0.7,-0.85323684,1.46626125
5e2e147d047efa000c6b833d,47,0,2024-02-28T15:35:28.887Z,english_136.wav,0,peel,202,36,5,2,English,m,8,0.8,88.76403384,1.51243191
5e2e147d047efa000c6b833d,47,0,2024-02-28T15:35:28.887Z,english_136.wav,0,peel,202,36,5,2,English,m,9,0.9,-53.53826962,0.60247353
5e2e147d047efa000c6b833d,47,0,2024-02-28T15:35:28.887Z,english_136.wav,0,peel,202,36,5,2,English,m,10,1.0,-6.60701791,1.96374571
5e2e147d047efa000c6b833d,47,0,2024-02-28T15:35:28.887Z,english_136.wav,0,peel,202,36,5,2,English,m,11,1.09391667,78.9552904,1.19972968
5e2e147d047efa000c6b833d,48,0,2024-02-28T15:35:28.887Z,english_987.wav,0,peel,247,36,5,2,English,m,0,0.0,22.80679167,0.70061045
5e2e147d047efa000c6b833d,48,0,2024-02-28T15:35:28.887Z,english_987.wav,0,peel,247,36,5,2,English,m,1,0.1,17.54007411,1.60053813
5e2e147d047efa000c6b833d,48,0,2024-02-28T15:35:28.887Z,english_987.wav,0,peel,247,36,5,2,English,m,2,0.2,-52.11811518,0.58462844
5e2e147d047efa000c6b833d,48,0,2024-02-28T15:35:28.887Z,english_987.wav,0,peel,247,36,5,2,English,m,3,0.3,-23.82315646,0.24368019
5e2e147d047efa000c6b833d,48,0,2024-02-28T15:35:28.887Z,english_987.wav,0,peel,247,36,5,2,English,m,4,0.4,44.18787645,0.52233595
5e2e147d047efa000c6b833d,48,0,2024-02-28T15:35:28.887Z,english_987.wav,0,peel,247,36,5,2,English,m,5,0.5,-72.90084178,0.85287542
5e2e147d047efa000c6b833d,48,0,2024-02-28T15:35:28.887Z,english_987.wav,0,peel,247,36,5,2,English,m,6,0.6,-17.62123308,1.54280419
5e2e147d047efa000c6b833d,48,0,2024-02-28T15:35:28.887Z,english_987.wav,0,peel,247,36,5,2,English,m,7,0.7,95.73852472,0.69341266
5e2e147d047efa000c6b833d,48,0,2024-02-28T15:35:28.887Z,english_987.wav,0,peel,247,36,5,2,English,m,8,0.8,10.89860126,0.63948037
5e2e147d047efa000c6b833d,48,0,2024-02-28T15:35:28.887Z,english_987.wav,0,peel,247,36,5,2,English,m,9,0.9,-72.84217249,0.23195922
5e2e147d047efa000c6b833d,48,0,2024-02-28T15:35:28.887Z,english_987.wav,0,peel,247,36,5,2,English,m,10,1.0,-57.31215702,1.27646479
5e2e147d047efa000c6b833d,48,0,2024-02-28T15:35:28.887Z,english_987.wav,0,peel,247,36,5,2,English,m,11,1.09391667,-16.22203203,1.15579809
5e2e147d047efa000c6b833d,49,0,2024-02-28T15:35:28.887Z,english_960.wav,0,pill,167,36,5,2,English,m,0,0.0,-2.34292173,0.04592369
5e2e147d047efa000c6b833d,49,0,2024-02-28T15:35:28.887Z,english_960.wav,0,pill,167,36,5,2,English,m,1,0.1,-14.33809381,1.93256303
5e2e147d047efa000c6b833d,49,0,2024-02-28T15:35:28.887Z,english_960.wav,0,pill,167,36,5,2,English,m,2,0.2,23.80635185,1.63542615
5e2e147d047efa000c6b833d,49,0,2024-02-28T15:35:28.887Z,english_960.wav,0,pill,167,36,5,2,English,m,3,0.3,-47.8246654,1.38214449
5e2e147d047efa000c6b833d,49,0,2024-02-28T15:35:28.887Z,english_960.wav,0,pill,167,36,5,2,English,m,4,0.4,37.72126587,0.23301782
5e2e147d047efa000c6b833d,49,0,2024-02-28T15:35:28.887Z,english_960.wav,0,pill,167,36,5,2,English,m,5,0.5,52.9199081,0.53692552
5e2e147d047efa000c6b833d,49,0,2024-02-28T15:35:28.887Z,english_960.wav,0,pill,167,36,5,2,English,m,6,0.6,7.44982422,1.02814311
5e2e147d047efa000c6b833d,49,0,2024-02-28T15:35:28.887Z,english_960.wav,0,pill,167,36,5,2,English,m,7,0.7,-7.86948203,0.98154622
5e2e147d047efa000c6b833d,49,0,2024-02-28T15:35:28.887Z,english_960.wav,0,pill,167,36,5,2,English,m,8,0.8,72.23117138,0.31984479
5e2e147d047efa000c6b833d,49,0,2024-02-28T15:35:28.887Z,english_960.wav,0,pill,167,36,5,2,English,m,9,0.9,44.79944131,1.34408856
5e2e147d047efa000c6b833d,49,0,2024-02-28T15:35:28.887Z,english_960.wav,0,pill,167,36,5,2,English,m,10,1.0,4.95796587,0.65666074
5e2e147d047efa000c6b833d,49,0,2024-02-28T15:35:28.887Z,english_960.wav,0,pill,167,36,5,2,English,m,11,1.09391667,60.45608826,0.78367591
5e2e147d047efa000c6b833d,50,1,2024-02-28T15:35:28.887Z,english_412.wav,0,peel,155,36,5,2,English,m,0,0.0,26.80121406,1.83350646
5e2e147d047efa000c6b833d,50,1,2024-02-28T15:35:28.887Z,english_412.wav,0,peel,155,36,5,2,English,m,1,0.1,42.5524274,0.85761925
5e2e147d047efa000c6b833d,50,1,2024-02-28T15:35:28.887Z,english_412.wav,0,peel,155,36,5,2,English,m,2,0.2,38.73121894,0.81318793
5e2e147d047efa000c6b833d,50,1,2024-02-28T15:35:28.887Z,english_412.wav,0,peel,155,36,5,2,English,m,3,0.3,55.35824973,1.83972978
5e2e147d047efa000c6b833d,50,1,2024-02-28T15:35:28.887Z,english_412.wav,0,peel,155,36,5,2,English,m,4,0.4,-87.34208499,0.56193469
5e2e147d047efa000c6b833d,50,1,2024-02-28T15:35:28.887Z,english_412.wav,0,peel,155,36,5,2,English,m,5,0.5,91.77879658,1.27086462
5e2e147d047efa000c6b833d,50,1,2024-02-28T15:35:28.887Z,english_412.wav,0,peel,155,36,5,2,English,m,6,0.6,-99.58264321,1.22553346
5e2e147d047efa000c6b833d,50,1,2024-02-28T15:35:28.887Z,english_412.wav,0,peel,155,36,5,2,English,m,7,0.7,89.55239913,0.34439159
5e2e147d047efa000c6b833d,50,1,2024-02-28T15:35:28.887Z,english_412.wav,0,peel,155,36,5,2,English,m,8,0.8,-28.13161571,1.78223109
5e2e147d047efa000c6b833d,50,1,2024-02-28T15:35:28.887Z,english_412.wav,0,peel,155,36,5,2,English,m,9,0.9,19.27007549,1.75477532
5e2e147d047efa000c6b833d,50,1,2024-02-28T15:35:28.887Z,english_412.wav,0,peel,155,36,5,2,English,m,10,1.0,60.0301485,0.33667923
5e2e147d047efa000c6b833d,50,1,2024-02-28T15:35:28.887Z,english_412.wav,0,peel,155,36,5,2,English,m,11,1.09391667,67.95145907,1.7966079
5e2e147d047efa000c6b833d,51,1,2024-02-28T15:35:28.887Z,english_857.wav,0,pill,741,36,5,2,English,m,0,0.0,-56.93168928,1.92395656
5e2e147d047efa000c6b833d,51,1,2024-02-28T15:35:28.887Z,english_857.wav,0,pill,741,36,5,2,English,m,1,0.1,-40.57515649,1.41156549
5e2e147d047efa000c6b833d,51,1,2024-02-28T15:35:28.887Z,english_857.wav,0,pill,741,36,5,2,English,m,2,0.2,-26.26283105,0.14185194
5e2e147d047efa000c6b833d,51,1,2024-02-28T15:35:28.887Z,english_857.wav,0,pill,741,36,5,2,English,m,3,0.3,-49.62797955,1.1985334
5e2e147d047efa000c6b833d,51,1,2024-02-28T15:35:28.887Z,english_857.wav,0,pill,741,36,5,2,English,m,4,0.4,47.07146778,0.83326814
5e2e147d047efa000c6b833d,51,1,2024-02-28T15:35:28.887Z,english_857.wav,0,pill,741,36,5,2,English,m,5,0.5,-96.41882062,0.71224123
5e2e147d047efa000c6b833d,51,1,2024-02-28T15:35:28.887Z,english_857.wav,0,pill,741,36,5,2,English,m,6,0.6,63.09662026,1.58040322
5e2e147d047efa000c6b833d,51,1,2024-02-28T15:35:28.887Z,english_857.wav,0,pill,741,36,5,2,English,m,7,0.7,98.67053018,1.02327595
5e2e147d047efa000c6b833d,51,1,2024-02-28T15:35:28.887Z,english_857.wav,0,pill,741,36,5,2,English,m,8,0.8,-56.85749065,1.48703987
5e2e147d047efa000c6b833d,51,1,2024-02-28T15:35:28.887Z,english_857.wav,0,pill,741,36,5,2,English,m,9,0.9,-18.03690135,0.70290333
5e2e147d047efa000c6b833d,51,1,2024-02-28T15:35:28.887Z,english_857.wav,0,pill,741,36,5,2,English,m,10,1.0,52.13097753,0.53460392
5e2e147d047efa000c6b833d,51,1,2024-02-28T15:35:28.887Z,english_857.wav,0,pill,741,36,5,2,English,m,11,1.09391667,52.54650928,1.10851945
5e2e147d047efa000c6b833d,52,1,2024-02-28T15:35:28.887Z,english_864.wav,0,peel,437,36,5,2,English,m,0,0.0,-0.0387960156,1.23414585
5e2e147d047efa000c6b833d,52,1,2024-02-28T15:35:28.887Z,english_864.wav,0,peel,437,36,5,2,English,m,1,0.1,38.1316994,0.9307675
5e2e147d047efa000c6b833d,52,1,2024-02-28T15:35:28.887Z,english_864.wav,0,peel,437,36,5,2,English,m,2,0.2,-27.0649645,0.03913176
5e2e147d047efa000c6b833d,52,1,2024-02-28T15:35:28.887Z,english_864.wav,0,peel,437,36,5,2,English,m,3,0.3,48.6299289,0.1581059
5e2e147d047efa000c6b833d,52,1,2024-02-28T15:35:28.887Z,english_864.wav,0,peel,437,36,5,2,English,m,4,0.4,-73.1690056,1.26848515
5e2e147d047efa000c6b833d,52,1,2024-02-28T15:35:28.887Z,english_864.wav,0,peel,437,36,5,2,English,m,5,0.5,-28.1080401,1.70642176
5e2e147d047efa000c6b833d,52,1,2024-02-28T15:35:28.887Z,english_864.wav,0,peel,437,36,5,2,English,m,6,0.6,47.3805694,1.16045112
5e2e147d047efa000c6b833d,52,1,2024-02-28T15:35:28.887Z,english_864.wav,0,peel,437,36,5,2,English,m,7,0.7,-91.4211748,1.92718933
5e2e147d047efa000c6b833d,52,1,2024-02-28T15:35:28.887Z,english_864.wav,0,peel,437,36,5,2,English,m,8,0.8,5.88699375,0.86462582
5e2e147d047efa000c6b833d,52,1,2024-02-28T15:35:28.887Z,english_864.wav,0,peel,437,36,5,2,English,m,9,0.9,88.3416583,0.91973589
5e2e147d047efa000c6b833d,52,1,2024-02-28T15:35:28.887Z,english_864.wav,0,peel,437,36,5,2,English,m,10,1.0,-36.7945697,0.59650291
5e2e147d047efa000c6b833d,52,1,2024-02-28T15:35:28.887Z,english_864.wav,0,peel,437,36,5,2,English,m,11,1.09391667,-60.7645339,0.61493886
5e2e147d047efa000c6b833d,53,1,2024-02-28T15:35:28.887Z,english_173.wav,0,peel,569,36,5,2,English,m,0,0.0,34.32682043,0.82312646
5e2e147d047efa000c6b833d,53,1,2024-02-28T15:35:28.887Z,english_173.wav,0,peel,569,36,5,2,English,m,1,0.1,-35.22347769,0.84965345
5e2e147d047efa000c6b833d,53,1,2024-02-28T15:35:28.887Z,english_173.wav,0,peel,569,36,5,2,English,m,2,0.2,15.69043139,0.84607348
5e2e147d047efa000c6b833d,53,1,2024-02-28T15:35:28.887Z,english_173.wav,0,peel,569,36,5,2,English,m,3,0.3,-71.83777825,0.55995079
5e2e147d047efa000c6b833d,53,1,2024-02-28T15:35:28.887Z,english_173.wav,0,peel,569,36,5,2,English,m,4,0.4,-96.81426106,0.51635348
5e2e147d047efa000c6b833d,53,1,2024-02-28T15:35:28.887Z,english_173.wav,0,peel,569,36,5,2,English,m,5,0.5,-51.15803827,1.6072313
5e2e147d047efa000c6b833d,53,1,2024-02-28T15:35:28.887Z,english_173.wav,0,peel,569,36,5,2,English,m,6,0.6,-12.70248505,1.25349503
5e2e147d047efa000c6b833d,53,1,2024-02-28T15:35:28.887Z,english_173.wav,0,peel,569,36,5,2,English,m,7,0.7,-30.75730157,1.4731344
5e2e147d047efa000c6b833d,53,1,2024-02-28T15:35:28.887Z,english_173.wav,0,peel,569,36,5,2,English,m,8,0.8,-5.0022938,0.28621328
5e2e147d047efa000c6b833d,53,1,2024-02-28T15:35:28.887Z,english_173.wav,0,peel,569,36,5,2,English,m,9,0.9,41.07030003,0.95942448
5e2e147d047efa000c6b833d,53,1,2024-02-28T15:35:28.887Z,english_173.wav,0,peel,569,36,5,2,English,m,10,1.0,-5.319412,0.2847469
5e2e147d047efa000c6b833d,53,1,2024-02-28T15:35:28.887Z,english_173.wav,0,peel,569,36,5,2,English,m,11,1.09391667,43.01251996,0.4938404
5e2e147d047efa000c6b833d,54,1,2024-02-28T15:35:28.887Z,english_998.wav,0,peel,289,36,5,2,English,m,0,0.0,-83.67346728,1.27391906
5e2e147d047efa000c6b833d,54,1,2024-02-28T15:35:28.887Z,english_998.wav,0,peel,289,36,5,2,English,m,1,0.1,-68.43297462,0.75913393
5e2e147d047efa000c6b833d,54,1,2024-02-28T15:35:28.887Z,english_998.wav,0,peel,289,36,5,2,English,m,2,0.2,47.84560439,1.02363825
5e2e147d047efa000c6b833d,54,1,2024-02-28T15:35:28.887Z,english_998.wav,0,peel,289,36,5,2,English,m,3,0.3,71.43971258,1.78775676
5e2e147d047efa000c6b833d,54,1,2024-02-28T15:35:28.887Z,english_998.wav,0,peel,289,36,5,2,English,m,4,0.4,-30.40941836,0.0961221
5e2e147d047efa000c6b833d,54,1,2024-02-28T15:35:28.887Z,english_998.wav,0,peel,289,36,5,2,English,m,5,0.5,69.31214212,1.18933693
5e2e147d047efa000c6b833d,54,1,2024-02-28T15:35:28.887Z,english_998.wav,0,peel,289,36,5,2,English,m,6,0.6,-95.04564508,1.9379163
5e2e147d047efa000c6b833d,54,1,2024-02-28T15:35:28.887Z,english_998.wav,0,peel,289,36,5,2,English,m,7,0.7,-61.88405175,1.91389769
5e2e147d047efa000c6b833d,54,1,2024-02-28T15:35:28.887Z,english_998.wav,0,peel,289,36,5,2,English,m,8,0.8,11.43915949,1.08895614
5e2e147d047efa000c6b833d,54,1,2024-02-28T15:35:28.887Z,english_998.wav,0,peel,289,36,5,2,English,m,9,0.9,79.6365109,1.52042952
5e2e147d047efa000c6b833d,54,1,2024-02-28T15:35:28.887Z,english_998.wav,0,peel,289,36,5,2,English,m,10,1.0,58.29305302,0.38016323
5e2e147d047efa000c6b833d,54,1,2024-02-28T15:35:28.887Z,english_998.wav,0,peel,289,36,5,2,English,m,11,1.09391667,44.0288717,1.77799574
5e2e147d047efa000c6b833d,55,1,2024-02-28T15:35:28.887Z,english_794.wav,0,peel,193,36,5,2,English,m,0,0.0,-94.32956865,0.17232345
5e2e147d047efa000c6b833d,55,1,2024-02-28T15:35:28.887Z,english_794.wav,0,peel,193,36,5,2,English,m,1,0.1,-54.44529308,0.63768668
5e2e147d047efa000c6b833d,55,1,2024-02-28T15:35:28.887Z,english_794.wav,0,peel,193,36,5,2,English,m,2,0.2,41.27752313,0.54334699
5e2e147d047efa000c6b833d,55,1,2024-02-28T15:35:28.887Z,english_794.wav,0,peel,193,36,5,2,English,m,3,0.3,-24.41011935,0.41814183
5e2e147d047efa000c6b833d,55,1,2024-02-28T15:35:28.887Z,english_794.wav,0,peel,193,36,5,2,English,m,4,0.4,-17.86009113,0.83205575
5e2e147d047efa000c6b833d,55,1,2024-02-28T15:35:28.887Z,english_794.wav,0,peel,193,36,5,2,English,m,5,0.5,70.96620098,1.38587001
5e2e147d047efa000c6b833d,55,1,2024-02-28T15:35:28.887Z,english_794.wav,0,peel,193,36,5,2,English,m,6,0.6,-6.92588192,0.50257762
5e2e147d047efa000c6b833d,55,1,2024-02-28T15:35:28.887Z,english_794.wav,0,peel,193,36,5,2,English,m,7,0.7,1.86567935,1.6396819
5e2e147d047efa000c6b833d,55,1,2024-02-28T15:35:28.887Z,english_794.wav,0,peel,193,36,5,2,English,m,8,0.8,85.29780195,1.19491374
5e2e147d047efa000c6b833d,55,1,2024-02-28T15:35:28.887Z,english_794.wav,0,peel,193,36,5,2,English,m,9,0.9,66.99714839,0.22376499
5e2e147d047efa000c6b833d,55,1,2024-02-28T15:35:28.887Z,english_794.wav,0,peel,193,36,5,2,English,m,10,1.0,34.72052642,0.81945326
5e2e147d047efa000c6b833d,55,1,2024-02-28T15:35:28.887Z,english_794.wav,0,peel,193,36,5,2,English,m,11,1.09391667,18.1862992,1.51337696
5e2e147d047efa000c6b833d,56,1,2024-02-28T15:35:28.887Z,english_869.wav,0,pill,349,36,5,2,English,m,0,0.0,-20.7946379,1.94834657
5e2e147d047efa000c6b833d,56,1,2024-02-28T15:35:28.887Z,english_869.wav,0,pill,349,36,5,2,English,m,1,0.1,-22.88594334,1.67021182
5e2e147d047efa000c6b833d,56,1,2024-02-28T15:35:28.887Z,english_869.wav,0,pill,349,36,5,2,English,m,2,0.2,-44.01188064,1.50520546
5e2e147d047efa000c6b833d,56,1,2024-02-28T15:35:28.887Z,english_869.wav,0,pill,349,36,5,2,English,m,3,0.3,58.96228493,0.98955103
5e2e147d047efa000c6b833d,56,1,2024-02-28T15:35:28.887Z,english_869.wav,0,pill,349,36,5,2,English,m,4,0.4,0.25554563,0.43254465
5e2e147d047efa000c6b833d,56,1,2024-02-28T15:35:28.887Z,english_869.wav,0,pill,349,36,5,2,English,m,5,0.5,-14.29276016,1.32326318
5e2e147d047efa000c6b833d,56,1,2024-02-28T15:35:28.887Z,english_869.wav,0,pill,349,36,5,2,English,m,6,0.6,40.28852475,0.34817039
5e2e147d047efa000c6b833d,56,1,2024-02-28T15:35:28.887Z,english_869.wav,0,pill,349,36,5,2,English,m,7,0.7,83.9110951,0.4259349
5e2e147d047efa000c6b833d,56,1,2024-02-28T15:35:28.887Z,english_869.wav,0,pill,349,36,5,2,English,m,8,0.8,-58.08971542,0.20780663
5e2e147d047efa000c6b833d,56,1,2024-02-28T15:35:28.887Z,english_869.wav,0,pill,349,36,5,2,English,m,9,0.9,-47.84735546,0.9384124
5e2e147d047efa000c6b833d,56,1,2024-02-28T15:35:28.887Z,english_869.wav,0,pill,349,36,5,2,English,m,10,1.0,18.70420486,1.5529846
5e2e147d047efa000c6b833d,56,1,2024-02-28T15:35:28.887Z,english_869.wav,0,pill,349,36,5,2,English,m,11,1.09391667,33.02688521,1.23929613
5e2e147d047efa000c6b833d,57,1,2024-02-28T15:35:28.887Z,english_535.wav,0,peel,176,36,5,2,English,m,0,0.0,-4.00375318,0.74823916
5e2e147d047efa000c6b833d,57,1,2024-02-28T15:35:28.887Z,english_535.wav,0,peel,176,36,5,2,English,m,1,0.1,-37.57387138,0.9109632
5e2e147d047efa000c6b833d,57,1,2024-02-28T15:35:28.887Z,english_535.wav,0,peel,176,36,5,2,English,m,2,0.2,-31.12595353,0.84755902
5e2e147d047efa000c6b833d,57,1,2024-02-28T15:35:28.887Z,english_535.wav,0,peel,176,36,5,2,English,m,3,0.3,2.06341331,1.09662022
5e2e147d047efa000c6b833d,57,1,2024-02-28T15:35:28.887Z,english_535.wav,0,peel,176,36,5,2,English,m,4,0.4,56.11576492,0.26254995
5e2e147d047efa000c6b833d,57,1,2024-02-28T15:35:28.887Z,english_535.wav,0,peel,176,36,5,2,English,m,5,0.5,30.13214978,1.29967994
5e2e147d047efa000c6b833d,57,1,2024-02-28T15:35:28.887Z,english_535.wav,0,peel,176,36,5,2,English,m,6,0.6,14.78197265,1.50452532
5e2e147d047efa000c6b833d,57,1,2024-02-28T15:35:28.887Z,english_535.wav,0,peel,176,36,5,2,English,m,7,0.7,-18.38930177,1.51808924
5e2e147d047efa000c6b833d,57,1,2024-02-28T15:35:28.887Z,english_535.wav,0,peel,176,36,5,2,English,m,8,0.8,-10.54396075,0.34439234
5e2e147d047efa000c6b833d,57,1,2024-02-28T15:35:28.887Z,english_535.wav,0,peel,176,36,5,2,English,m,9,0.9,39.09773013,0.86790386
5e2e147d047efa000c6b833d,57,1,2024-02-28T15:35:28.887Z,english_535.wav,0,peel,176,36,5,2,English,m,10,1.0,46.13111143,0.86784134
5e2e147d047efa000c6b833d,57,1,2024-02-28T15:35:28.887Z,english_535.wav,0,peel,176,36,5,2,English,m,11,1.09391667,-64.44597459,0.57511998
5e2e147d047efa000c6b833d,58,1,2024-02-28T15:35:28.887Z,english_625.wav,0,peel,272,36,5,2,English,m,0,0.0,75.82886559,1.22123306
5e2e147d047efa000c6b833d,58,1,2024-02-28T15:35:28.887Z,english_625.wav,0,peel,272,36,5,2,English,m,1,0.1,-13.96041742,1.75348863
5e2e147d047efa000c6b833d,58,1,2024-02-28T15:35:28.887Z,english_625.wav,0,peel,272,36,5,2,English,m,2,0.2,-35.92753512,0.4897572
5e2e147d047efa000c6b833d,58,1,2024-02-28T15:35:28.887Z,english_625.wav,0,peel,272,36,5,2,English,m,3,0.3,40.25912686,1.96593999
5e2e147d047efa000c6b833d,58,1,2024-02-28T15:35:28.887Z,english_625.wav,0,peel,272,36,5,2,English,m,4,0.4,50.45257654,1.18887939
5e2e147d047efa000c6b833d,58,1,2024-02-28T15:35:28.887Z,english_625.wav,0,peel,272,36,5,2,English,m,5,0.5,85.69312188,0.25611648
5e2e147d047efa000c6b833d,58,1,2024-02-28T15:35:28.887Z,english_625.wav,0,peel,272,36,5,2,English,m,6,0.6,13.47564488,0.63493032
5e2e147d047efa000c6b833d,58,1,2024-02-28T15:35:28.887Z,english_625.wav,0,peel,272,36,5,2,English,m,7,0.7,-67.08587609,1.56113018
5e2e147d047efa000c6b833d,58,1,2024-02-28T15:35:28.887Z,english_625.wav,0,peel,272,36,5,2,English,m,8,0.8,-13.59943795,0.9635469
5e2e147d047efa000c6b833d,58,1,2024-02-28T15:35:28.887Z,english_625.wav,0,peel,272,36,5,2,English,m,9,0.9,48.64664173,1.37605444
5e2e147d047efa000c6b833d,58,1,2024-02-28T15:35:28.887Z,english_625.wav,0,peel,272,36,5,2,English,m,10,1.0,12.19725268,1.05458302
5e2e147d047efa000c6b833d,58,1,2024-02-28T15:35:28.887Z,english_625.wav,0,peel,272,36,5,2,English,m,11,1.09391667,29.4760152,1.34022417
5e2e147d047efa000c6b833d,59,1,2024-02-28T15:35:28.887Z,english_431.wav,0,peel,370,36,5,2,English,m,0,0.0,80.69254561,1.28844059
5e2e147d047efa000c6b833d,59,1,2024-02-28T15:35:28.887Z,english_431.wav,0,peel,370,36,5,2,English,m,1,0.1,-59.39729579,0.02904499
5e2e147d047efa000c6b833d,59,1,2024-02-28T15:35:28.887Z,english_431.wav,0,peel,370,36,5,2,English,m,2,0.2,32.8562558,0.95132877
5e2e147d047efa000c6b833d,59,1,2024-02-28T15:35:28.887Z,english_431.wav,0,peel,370,36,5,2,English,m,3,0.3,-22.29744676,1.51616745
5e2e147d047efa000c6b833d,59,1,2024-02-28T15:35:28.887Z,english_431.wav,0,peel,370,36,5,2,English,m,4,0.4,31.71546531,1.13295381
5e2e147d047efa000c6b833d,59,1,2024-02-28T15:35:28.887Z,english_431.wav,0,peel,370,36,5,2,English,m,5,0.5,26.68689131,0.76516543
5e2e147d047efa000c6b833d,59,1,2024-02-28T15:35:28.887Z,english_431.wav,0,peel,370,36,5,2,English,m,6,0.6,-67.6485219,0.83201004
5e2e147d047efa000c6b833d,59,1,2024-02-28T15:35:28.887Z,english_431.wav,0,peel,370,36,5,2,English,m,7,0.7,27.20384073,0.376561
5e2e147d047efa000c6b833d,59,1,2024-02-28T15:35:28.887Z,english_431.wav,0,peel,370,36,5,2,English,m,8,0.8,-89.82269949,1.59621374
5e2e147d047efa000c6b833d,59,1,2024-02-28T15:35:28.887Z,english_431.wav,0,peel,370,36,5,2,English,m,9,0.9,-57.22282633,0.7949968
5e2e147d047efa000c6b833d,59,1,2024-02-28T15:35:28.887Z,english_431.wav,0,peel,370,36,5,2,English,m,10,1.0,66.80474658,1.43069985
5e2e147d047efa000c6b833d,59,1,2024-02-28T15:35:28.887Z,english_431.wav,0,peel,370,36,5,2,English,m,11,1.09391667,-8.50085654,0.47836789
5e2e147d047efa000c6b833d,60,1,2024-02-28T15:35:28.887Z,english_454.wav,0,peel,258,36,5,2,English,m,0,0.0,-40.724684,1.6228839
5e2e147d047efa000c6b833d,60,1,2024-02-28T15:35:28.887Z,english_454.wav,0,peel,258,36,5,2,English,m,1,0.1,68.37921334,0.13004392
5e2e147d047efa000c6b833d,60,1,2024-02-28T15:35:28.887Z,english_454.wav,0,peel,258,36,5,2,English,m,2,0.2,-30.05855576,0.71367383
5e2e147d047efa000c6b833d,60,1,2024-02-28T15:35:28.887Z,english_454.wav,0,peel,258,36,5,2,English,m,3,0.3,-38.49973025,0.85329946
5e2e147d047efa000c6b833d,60,1,2024-02-28T15:35:28.887Z,english_454.wav,0,peel,258,36,5,2,English,m,4,0.4,20.79675368,1.21776669
5e2e147d047efa000c6b833d,60,1,2024-02-28T15:35:28.887Z,english_454.wav,0,peel,258,36,5,2,English,m,5,0.5,97.95643376,0.59038082
5e2e147d047efa000c6b833d,60,1,2024-02-28T15:35:28.887Z,english_454.wav,0,peel,258,36,5,2,English,m,6,0.6,60.86620442,0.28627533
5e2e147d047efa000c6b833d,60,1,2024-02-28T15:35:28.887Z,english_454.wav,0,peel,258,36,5,2,English,m,7,0.7,79.81874649,1.2119593
5e2e147d047efa000c6b833d,60,1,2024-02-28T15:35:28.887Z,english_454.wav,0,peel,258,36,5,2,English,m,8,0.8,3.83765836,0.67514721
5e2e147d047efa000c6b833d,60,1,2024-02-28T15:35:28.887Z,english_454.wav,0,peel,258,36,5,2,English,m,9,0.9,67.59623448,0.51660642
5e2e147d047efa000c6b833d,60,1,2024-02-28T15:35:28.887Z,english_454.wav,0,peel,258,36,5,2,English,m,10,1.0,-91.57077167,0.97010822
5e2e147d047efa000c6b833d,60,1,2024-02-28T15:35:28.887Z,english_454.wav,0,peel,258,36,5,2,English,m,11,1.09391667,10.80867564,1.23476154
5e2e147d047efa000c6b833d,61,1,2024-02-28T15:35:28.887Z,english_956.wav,0,peel,165,36,5,2,English,m,0,0.0,-69.56603744,1.25885793
5e2e147d047efa000c6b833d,61,1,2024-02-28T15:35:28.887Z,english_956.wav,0,peel,165,36,5,2,English,m,1,0.1,-25.37186141,1.06466306
5e2e147d047efa000c6b833d,61,1,2024-02-28T15:35:28.887Z,english_956.wav,0,peel,165,36,5,2,English,m,2,0.2,27.97650052,0.94194041
5e2e147d047efa000c6b833d,61,1,2024-02-28T15:35:28.887Z,english_956.wav,0,peel,165,36,5,2,English,m,3,0.3,-27.59550019,1.53569938
5e2e147d047efa000c6b833d,61,1,2024-02-28T15:35:28.887Z,english_956.wav,0,peel,165,36,5,2,English,m,4,0.4,-92.97950526,1.85243798
5e2e147d047efa000c6b833d,61,1,2024-02-28T15:35:28.887Z,english_956.wav,0,peel,165,36,5,2,English,m,5,0.5,38.52785923,1.85210152
5e2e147d047efa000c6b833d,61,1,2024-02-28T15:35:28.887Z,english_956.wav,0,peel,165,36,5,2,English,m,6,0.6,10.83790673,0.63562422
5e2e147d047efa000c6b833d,61,1,2024-02-28T15:35:28.887Z,english_956.wav,0,peel,165,36,5,2,English,m,7,0.7,-7.44647917,1.69096149
5e2e147d047efa000c6b833d,61,1,2024-02-28T15:35:28.887Z,english_956.wav,0,peel,165,36,5,2,English,m,8,0.8,21.12716208,0.44450575
5e2e147d047efa000c6b833d,61,1,2024-02-28T15:35:28.887Z,english_956.wav,0,peel,165,36,5,2,English,m,9,0.9,68.89451613,0.92187191
5e2e147d047efa000c6b833d,61,1,2024-02-28T15:35:28.887Z,english_956.wav,0,peel,165,36,5,2,English,m,10,1.0,40.53084536,1.63644611
5e2e147d047efa000c6b833d,61,1,2024-02-28T15:35:28.887Z,english_956.wav,0,peel,165,36,5,2,English,m,11,1.09391667,63.98453991,0.57157091
5e2e147d047efa000c6b833d,62,1,2024-02-28T15:35:28.887Z,english_322.wav,0,peel,231,36,5,2,English,m,0,0.0,76.12419843,0.67214084
5e2e147d047efa000c6b833d,62,1,2024-02-28T15:35:28.887Z,english_322.wav,0,peel,231,36,5,2,English,m,1,0.1,11.00659204,0.20805548
5e2e147d047efa000c6b833d,62,1,2024-02-28T15:35:28.887Z,english_322.wav,0,peel,231,36,5,2,English,m,2,0.2,-52.15522205,1.24717772
5e2e147d047efa000c6b833d,62,1,2024-02-28T15:35:28.887Z,english_322.wav,0,peel,231,36,5,2,English,m,3,0.3,-51.3643268,1.85689227
5e2e147d047efa000c6b833d,62,1,2024-02-28T15:35:28.887Z,english_322.wav,0,peel,231,36,5,2,English,m,4,0.4,24.49300534,0.2839927
5e2e147d047efa000c6b833d,62,1,2024-02-28T15:35:28.887Z,english_322.wav,0,peel,231,36,5,2,English,m,5,0.5,-64.27724172,0.06592342
5e2e147d047efa000c6b833d,62,1,2024-02-28T15:35:28.887Z,english_322.wav,0,peel,231,36,5,2,English,m,6,0.6,83.88593275,0.50660315
5e2e147d047efa000c6b833d,62,1,2024-02-28T15:35:28.887Z,english_322.wav,0,peel,231,36,5,2,English,m,7,0.7,17.09124032,0.19977586
5e2e147d047efa000c6b833d,62,1,2024-02-28T15:35:28.887Z,english_322.wav,0,peel,231,36,5,2,English,m,8,0.8,-4.85917502,0.57396738
5e2e147d047efa000c6b833d,62,1,2024-02-28T15:35:28.887Z,english_322.wav,0,peel,231,36,5,2,English,m,9,0.9,26.21900036,1.25518721
5e2e147d047efa000c6b833d,62,1,2024-02-28T15:35:28.887Z,english_322.wav,0,peel,231,36,5,2,English,m,10,1.0,17.81638138,1.74789318
5e2e147d047efa000c6b833d,62,1,2024-02-28T15:35:28.887Z,english_322.wav,0,peel,231,36,5,2,English,m,11,1.09391667,-21.79933582,1.24760572
5e2e147d047efa000c6b833d,63,1,2024-02-28T15:35:28.887Z,english_222.wav,0,pill,699,36,5,2,English,m,0,0.0,96.40991371,0.9507269
5e2e147d047efa000c6b833d,63,1,2024-02-28T15:35:28.887Z,english_222.wav,0,pill,699,36,5,2,English,m,1,0.1,44.65841575,1.79183575
5e2e147d047efa000c6b833d,63,1,2024-02-28T15:35:28.887Z,english_222.wav,0,pill,699,36,5,2,English,m,2,0.2,-16.29621217,1.09244309
5e2e147d047efa000c6b833d,63,1,2024-02-28T15:35:28.887Z,english_222.wav,0,pill,699,36,5,2,English,m,3,0.3,-48.55554978,1.6357802
5e2e147d047efa000c6b833d,63,1,2024-02-28T15:35:28.887Z,english_222.wav,0,pill,699,36,5,2,English,m,4,0.4,26.12822135,0.19893477
5e2e147d047efa000c6b833d,63,1,2024-02-28T15:35:28.887Z,english_222.wav,0,pill,699,36,5,2,English,m,5,0.5,56.43887594,0.38875901
5e2e147d047efa000c6b833d,63,1,2024-02-28T15:35:28.887Z,english_222.wav,0,pill,699,36,5,2,English,m,6,0.6,-8.03605186,0.73216499
5e2e147d047efa000c6b833d,63,1,2024-02-28T15:35:28.887Z,english_222.wav,0,pill,699,36,5,2,English,m,7,0.7,54.77211039,1.11169146
5e2e147d047efa000c6b833d,63,1,2024-02-28T15:35:28.887Z,english_222.wav,0,pill,699,36,5,2,English,m,8,0.8,25.53059274,0.05558172
5e2e147d047efa000c6b833d,63,1,2024-02-28T15:35:28.887Z,english_222.wav,0,pill,699,36,5,2,English,m,9,0.9,-58.35574141,0.18202708
5e2e147d047efa000c6b833d,63,1,2024-02-28T15:35:28.887Z,english_222.wav,0,pill,699,36,5,2,English,m,10,1.0,-61.20346584,0.44521291
5e2e147d047efa000c6b833d,63,1,2024-02-28T15:35:28.887Z,english_222.wav,0,pill,699,36,5,2,English,m,11,1.09391667,99.40713186,0.13186743
5e2e147d047efa000c6b833d,64,1,2024-02-28T15:35:28.887Z,english_679.wav,0,peel,73,36,5,2,English,m,0,0.0,76.35427363,0.61802324
5e2e147d047efa000c6b833d,64,1,2024-02-28T15:35:28.887Z,english_679.wav,0,peel,73,36,5,2,English,m,1,0.1,-50.0846889,0.37453971
5e2e147d047efa000c6b833d,64,1,2024-02-28T15:35:28.887Z,english_679.wav,0,peel,73,36,5,2,English,m,2,0.2,79.70250944,0.85876035
5e2e147d047efa000c6b833d,64,1,2024-02-28T15:35:28.887Z,english_679.wav,0,peel,73,36,5,2,English,m,3,0.3,81.01080403,1.8566793
5e2e147d047efa000c6b833d,64,1,2024-02-28T15:35:28.887Z,english_679.wav,0,peel,73,36,5,2,English,m,4,0.4,83.79560208,1.28706844
5e2e147d047efa000c6b833d,64,1,2024-02-28T15:35:28.887Z,english_679.wav,0,peel,73,36,5,2,English,m,5,0.5,50.36804925,1.04354471
5e2e147d047efa000c6b833d,64,1,2024-02-28T15:35:28.887Z,english_679.wav,0,peel,73,36,5,2,English,m,6,0.6,40.56025904,1.21986253
5e2e147d047efa000c6b833d,64,1,2024-02-28T15:35:28.887Z,english_679.wav,0,peel,73,36,5,2,English,m,7,0.7,61.04999163,0.6187735
