subj,trial,block,date,stim,stim_order,response,rt,age,english,french,language,sex,param_index,segment,pitch,stretch
5ebc3097a9c38504ebd8a347,0,0,2024-02-28T14:22:26.741Z,english_269.wav,0,peel,2399,40,5,5,English,M,0,0.0,-83.93501444,0.85151873
5ebc3097a9c38504ebd8a347,0,0,2024-02-28T14:22:26.741Z,english_269.wav,0,peel,2399,40,5,5,English,M,1,0.1,88.09879619,0.93284173
5ebc3097a9c38504ebd8a347,0,0,2024-02-28T14:22:26.741Z,english_269.wav,0,peel,2399,40,5,5,English,M,2,0.2,-88.94573115,0.56585091
5ebc3097a9c38504ebd8a347,0,0,2024-02-28T14:22:26.741Z,english_269.wav,0,peel,2399,40,5,5,English,M,3,0.3,-19.78587184,1.66708848
5ebc3097a9c38504ebd8a347,0,0,2024-02-28T14:22:26.741Z,english_269.wav,0,peel,2399,40,5,5,English,M,4,0.4,69.53650184,0.92160414
5ebc3097a9c38504ebd8a347,0,0,2024-02-28T14:22:26.741Z,english_269.wav,0,peel,2399,40,5,5,English,M,5,0.5,-12.80260332,0.96478354
5ebc3097a9c38504ebd8a347,0,0,2024-02-28T14:22:26.741Z,english_269.wav,0,peel,2399,40,5,5,English,M,6,0.6,37.86483682,0.12392918
5ebc3097a9c38504ebd8a347,0,0,2024-02-28T14:22:26.741Z,english_269.wav,0,peel,2399,40,5,5,English,M,7,0.7,20.748183,0.94784748
5ebc3097a9c38504ebd8a347,0,0,2024-02-28T14:22:26.741Z,english_269.wav,0,peel,2399,40,5,5,English,M,8,0.8,68.31338511,0.83939678
5ebc3097a9c38504ebd8a347,0,0,2024-02-28T14:22:26.741Z,english_269.wav,0,peel,2399,40,5,5,English,M,9,0.9,-95.26136032,1.67634699
5ebc3097a9c38504ebd8a347,0,0,2024-02-28T14:22:26.741Z,english_269.wav,0,peel,2399,40,5,5,English,M,10,1.0,60.98745535,1.66934281
5ebc3097a9c38504ebd8a347,0,0,2024-02-28T14:22:26.741Z,english_269.wav,0,peel,2399,40,5,5,English,M,11,1.09391667,-4.34526385,1.1076262
5ebc3097a9c38504ebd8a347,1,0,2024-02-28T14:22:26.741Z,english_292.wav,0,peel,5380,40,5,5,English,M,0,0.0,25.72060653,1.17792554
5ebc3097a9c38504ebd8a347,1,0,2024-02-28T14:22:26.741Z,english_292.wav,0,peel,5380,40,5,5,English,M,1,0.1,-6.51251487,0.30252559
5ebc3097a9c38504ebd8a347,1,0,2024-02-28T14:22:26.741Z,english_292.wav,0,peel,5380,40,5,5,English,M,2,0.2,3.32661168,1.09442145
5ebc3097a9c38504ebd8a347,1,0,2024-02-28T14:22:26.741Z,english_292.wav,0,peel,5380,40,5,5,English,M,3,0.3,89.62386246,1.28448778
5ebc3097a9c38504ebd8a347,1,0,2024-02-28T14:22:26.741Z,english_292.wav,0,peel,5380,40,5,5,English,M,4,0.4,80.65433919,1.02735441
5ebc3097a9c38504ebd8a347,1,0,2024-02-28T14:22:26.741Z,english_292.wav,0,peel,5380,40,5,5,English,M,5,0.5,44.84771524,0.62410129
5ebc3097a9c38504ebd8a347,1,0,2024-02-28T14:22:26.741Z,english_292.wav,0,peel,5380,40,5,5,English,M,6,0.6,25.54437629,1.60418481
5ebc3097a9c38504ebd8a347,1,0,2024-02-28T14:22:26.741Z,english_292.wav,0,peel,5380,40,5,5,English,M,7,0.7,-12.49512251,0.44189431
5ebc3097a9c38504ebd8a347,1,0,2024-02-28T14:22:26.741Z,english_292.wav,0,peel,5380,40,5,5,English,M,8,0.8,-42.7769001,1.24863789
5ebc3097a9c38504ebd8a347,1,0,2024-02-28T14:22:26.741Z,english_292.wav,0,peel,5380,40,5,5,English,M,9,0.9,-50.66960292,1.87159039
5ebc3097a9c38504ebd8a347,1,0,2024-02-28T14:22:26.741Z,english_292.wav,0,peel,5380,40,5,5,English,M,10,1.0,-26.28928757,1.63743996
5ebc3097a9c38504ebd8a347,1,0,2024-02-28T14:22:26.741Z,english_292.wav,0,peel,5380,40,5,5,English,M,11,1.09391667,-87.75283225,0.32075193
5ebc3097a9c38504ebd8a347,2,0,2024-02-28T14:22:26.741Z,english_453.wav,0,peel,1730,40,5,5,English,M,0,0.0,-70.25213601,0.36867593
5ebc3097a9c38504ebd8a347,2,0,2024-02-28T14:22:26.741Z,english_453.wav,0,peel,1730,40,5,5,English,M,1,0.1,89.68329695,1.72886328
5ebc3097a9c38504ebd8a347,2,0,2024-02-28T14:22:26.741Z,english_453.wav,0,peel,1730,40,5,5,English,M,2,0.2,64.82558172,1.62690503
5ebc3097a9c38504ebd8a347,2,0,2024-02-28T14:22:26.741Z,english_453.wav,0,peel,1730,40,5,5,English,M,3,0.3,-29.59079509,0.73552932
5ebc3097a9c38504ebd8a347,2,0,2024-02-28T14:22:26.741Z,english_453.wav,0,peel,1730,40,5,5,English,M,4,0.4,2.86785492,1.15423746
5ebc3097a9c38504ebd8a347,2,0,2024-02-28T14:22:26.741Z,english_453.wav,0,peel,1730,40,5,5,English,M,5,0.5,29.66798779,0.00604153
5ebc3097a9c38504ebd8a347,2,0,2024-02-28T14:22:26.741Z,english_453.wav,0,peel,1730,40,5,5,English,M,6,0.6,83.99800943,0.72573154
5ebc3097a9c38504ebd8a347,2,0,2024-02-28T14:22:26.741Z,english_453.wav,0,peel,1730,40,5,5,English,M,7,0.7,3.87286535,0.64728212
5ebc3097a9c38504ebd8a347,2,0,2024-02-28T14:22:26.741Z,english_453.wav,0,peel,1730,40,5,5,English,M,8,0.8,-49.24820381,1.80766087
5ebc3097a9c38504ebd8a347,2,0,2024-02-28T14:22:26.741Z,english_453.wav,0,peel,1730,40,5,5,English,M,9,0.9,77.90929808,1.21653859
5ebc3097a9c38504ebd8a347,2,0,2024-02-28T14:22:26.741Z,english_453.wav,0,peel,1730,40,5,5,English,M,10,1.0,93.37572535,0.12484757
5ebc3097a9c38504ebd8a347,2,0,2024-02-28T14:22:26.741Z,english_453.wav,0,peel,1730,40,5,5,English,M,11,1.09391667,1.85400833,0.63167788
5ebc3097a9c38504ebd8a347,3,0,2024-02-28T14:22:26.741Z,english_82.wav,0,peel,1212,40,5,5,English,M,0,0.0,-50.65944843,0.53695405
5ebc3097a9c38504ebd8a347,3,0,2024-02-28T14:22:26.741Z,english_82.wav,0,peel,1212,40,5,5,English,M,1,0.1,-8.30198342,1.68823048
5ebc3097a9c38504ebd8a347,3,0,2024-02-28T14:22:26.741Z,english_82.wav,0,peel,1212,40,5,5,English,M,2,0.2,28.238309,0.29560695
5ebc3097a9c38504ebd8a347,3,0,2024-02-28T14:22:26.741Z,english_82.wav,0,peel,1212,40,5,5,English,M,3,0.3,-35.80408689,0.83443164
5ebc3097a9c38504ebd8a347,3,0,2024-02-28T14:22:26.741Z,english_82.wav,0,peel,1212,40,5,5,English,M,4,0.4,80.50699914,0.87894934
5ebc3097a9c38504ebd8a347,3,0,2024-02-28T14:22:26.741Z,english_82.wav,0,peel,1212,40,5,5,English,M,5,0.5,-99.69979401,1.46703122
5ebc3097a9c38504ebd8a347,3,0,2024-02-28T14:22:26.741Z,english_82.wav,0,peel,1212,40,5,5,English,M,6,0.6,30.38876845,0.23248639
5ebc3097a9c38504ebd8a347,3,0,2024-02-28T14:22:26.741Z,english_82.wav,0,peel,1212,40,5,5,English,M,7,0.7,-2.76434691,1.71572221
5ebc3097a9c38504ebd8a347,3,0,2024-02-28T14:22:26.741Z,english_82.wav,0,peel,1212,40,5,5,English,M,8,0.8,-19.59960586,1.24729907
5ebc3097a9c38504ebd8a347,3,0,2024-02-28T14:22:26.741Z,english_82.wav,0,peel,1212,40,5,5,English,M,9,0.9,-93.26966696,0.75753981
5ebc3097a9c38504ebd8a347,3,0,2024-02-28T14:22:26.741Z,english_82.wav,0,peel,1212,40,5,5,English,M,10,1.0,64.56379815,1.65214627
5ebc3097a9c38504ebd8a347,3,0,2024-02-28T14:22:26.741Z,english_82.wav,0,peel,1212,40,5,5,English,M,11,1.09391667,-59.79308705,0.40383656
5ebc3097a9c38504ebd8a347,4,0,2024-02-28T14:22:26.741Z,english_932.wav,0,peel,894,40,5,5,English,M,0,0.0,38.23438928,1.12401337
5ebc3097a9c38504ebd8a347,4,0,2024-02-28T14:22:26.741Z,english_932.wav,0,peel,894,40,5,5,English,M,1,0.1,-58.10377529,0.61932379
5ebc3097a9c38504ebd8a347,4,0,2024-02-28T14:22:26.741Z,english_932.wav,0,peel,894,40,5,5,English,M,2,0.2,91.68709635,1.42631679
5ebc3097a9c38504ebd8a347,4,0,2024-02-28T14:22:26.741Z,english_932.wav,0,peel,894,40,5,5,English,M,3,0.3,43.08352003,1.23008562
5ebc3097a9c38504ebd8a347,4,0,2024-02-28T14:22:26.741Z,english_932.wav,0,peel,894,40,5,5,English,M,4,0.4,89.28150272,1.74074376
5ebc3097a9c38504ebd8a347,4,0,2024-02-28T14:22:26.741Z,english_932.wav,0,peel,894,40,5,5,English,M,5,0.5,-32.82905254,0.41912443
5ebc3097a9c38504ebd8a347,4,0,2024-02-28T14:22:26.741Z,english_932.wav,0,peel,894,40,5,5,English,M,6,0.6,-27.89856156,1.78556309
5ebc3097a9c38504ebd8a347,4,0,2024-02-28T14:22:26.741Z,english_932.wav,0,peel,894,40,5,5,English,M,7,0.7,-15.6368176,0.72255464
5ebc3097a9c38504ebd8a347,4,0,2024-02-28T14:22:26.741Z,english_932.wav,0,peel,894,40,5,5,English,M,8,0.8,-47.50450916,1.47985237
5ebc3097a9c38504ebd8a347,4,0,2024-02-28T14:22:26.741Z,english_932.wav,0,peel,894,40,5,5,English,M,9,0.9,-85.48225369,1.29316662
5ebc3097a9c38504ebd8a347,4,0,2024-02-28T14:22:26.741Z,english_932.wav,0,peel,894,40,5,5,English,M,10,1.0,26.29289849,1.31994778
5ebc3097a9c38504ebd8a347,4,0,2024-02-28T14:22:26.741Z,english_932.wav,0,peel,894,40,5,5,English,M,11,1.09391667,-34.49542083,1.97700851
5ebc3097a9c38504ebd8a347,5,0,2024-02-28T14:22:26.741Z,english_132.wav,0,peel,1569,40,5,5,English,M,0,0.0,0.80878803,1.8484575
5ebc3097a9c38504ebd8a347,5,0,2024-02-28T14:22:26.741Z,english_132.wav,0,peel,1569,40,5,5,English,M,1,0.1,-89.46369243,0.19659267
5ebc3097a9c38504ebd8a347,5,0,2024-02-28T14:22:26.741Z,english_132.wav,0,peel,1569,40,5,5,English,M,2,0.2,-42.02740452,0.98704764
5ebc3097a9c38504ebd8a347,5,0,2024-02-28T14:22:26.741Z,english_132.wav,0,peel,1569,40,5,5,English,M,3,0.3,-31.54071999,0.90975168
5ebc3097a9c38504ebd8a347,5,0,2024-02-28T14:22:26.741Z,english_132.wav,0,peel,1569,40,5,5,English,M,4,0.4,0.25010778,1.48690857
5ebc3097a9c38504ebd8a347,5,0,2024-02-28T14:22:26.741Z,english_132.wav,0,peel,1569,40,5,5,English,M,5,0.5,58.11815913,1.16973021
5ebc3097a9c38504ebd8a347,5,0,2024-02-28T14:22:26.741Z,english_132.wav,0,peel,1569,40,5,5,English,M,6,0.6,81.96461668,0.00206468
5ebc3097a9c38504ebd8a347,5,0,2024-02-28T14:22:26.741Z,english_132.wav,0,peel,1569,40,5,5,English,M,7,0.7,-44.50191201,0.61136538
5ebc3097a9c38504ebd8a347,5,0,2024-02-28T14:22:26.741Z,english_132.wav,0,peel,1569,40,5,5,English,M,8,0.8,-95.34081409,0.53595083
5ebc3097a9c38504ebd8a347,5,0,2024-02-28T14:22:26.741Z,english_132.wav,0,peel,1569,40,5,5,English,M,9,0.9,-97.06518429,0.1294964
5ebc3097a9c38504ebd8a347,5,0,2024-02-28T14:22:26.741Z,english_132.wav,0,peel,1569,40,5,5,English,M,10,1.0,9.04827132,0.71465456
5ebc3097a9c38504ebd8a347,5,0,2024-02-28T14:22:26.741Z,english_132.wav,0,peel,1569,40,5,5,English,M,11,1.09391667,76.3058936,0.51987053
5ebc3097a9c38504ebd8a347,6,0,2024-02-28T14:22:26.741Z,english_805.wav,0,pill,1434,40,5,5,English,M,0,0.0,19.24000096,0.52175854
5ebc3097a9c38504ebd8a347,6,0,2024-02-28T14:22:26.741Z,english_805.wav,0,pill,1434,40,5,5,English,M,1,0.1,-57.56428934,1.45107426
5ebc3097a9c38504ebd8a347,6,0,2024-02-28T14:22:26.741Z,english_805.wav,0,pill,1434,40,5,5,English,M,2,0.2,-17.74165003,1.66296684
5ebc3097a9c38504ebd8a347,6,0,2024-02-28T14:22:26.741Z,english_805.wav,0,pill,1434,40,5,5,English,M,3,0.3,94.45114709,1.339528
5ebc3097a9c38504ebd8a347,6,0,2024-02-28T14:22:26.741Z,english_805.wav,0,pill,1434,40,5,5,English,M,4,0.4,58.80414928,1.45905309
5ebc3097a9c38504ebd8a347,6,0,2024-02-28T14:22:26.741Z,english_805.wav,0,pill,1434,40,5,5,English,M,5,0.5,15.95265091,0.95701688
5ebc3097a9c38504ebd8a347,6,0,2024-02-28T14:22:26.741Z,english_805.wav,0,pill,1434,40,5,5,English,M,6,0.6,-64.01744173,0.10004415
5ebc3097a9c38504ebd8a347,6,0,2024-02-28T14:22:26.741Z,english_805.wav,0,pill,1434,40,5,5,English,M,7,0.7,-39.81720589,1.33408917
5ebc3097a9c38504ebd8a347,6,0,2024-02-28T14:22:26.741Z,english_805.wav,0,pill,1434,40,5,5,English,M,8,0.8,48.58222908,0.26158276
5ebc3097a9c38504ebd8a347,6,0,2024-02-28T14:22:26.741Z,english_805.wav,0,pill,1434,40,5,5,English,M,9,0.9,79.1348353,0.78316965
5ebc3097a9c38504ebd8a347,6,0,2024-02-28T14:22:26.741Z,english_805.wav,0,pill,1434,40,5,5,English,M,10,1.0,66.03274921,0.77046412
5ebc3097a9c38504ebd8a347,6,0,2024-02-28T14:22:26.741Z,english_805.wav,0,pill,1434,40,5,5,English,M,11,1.09391667,-37.34721406,0.38567889
5ebc3097a9c38504ebd8a347,7,0,2024-02-28T14:22:26.741Z,english_90.wav,0,peel,689,40,5,5,English,M,0,0.0,63.54924995,1.34228215
5ebc3097a9c38504ebd8a347,7,0,2024-02-28T14:22:26.741Z,english_90.wav,0,peel,689,40,5,5,English,M,1,0.1,-59.21327506,1.34732724
5ebc3097a9c38504ebd8a347,7,0,2024-02-28T14:22:26.741Z,english_90.wav,0,peel,689,40,5,5,English,M,2,0.2,34.58495613,1.75147993
5ebc3097a9c38504ebd8a347,7,0,2024-02-28T14:22:26.741Z,english_90.wav,0,peel,689,40,5,5,English,M,3,0.3,3.2427236,0.03089284
5ebc3097a9c38504ebd8a347,7,0,2024-02-28T14:22:26.741Z,english_90.wav,0,peel,689,40,5,5,English,M,4,0.4,1.17936493,1.52341973
5ebc3097a9c38504ebd8a347,7,0,2024-02-28T14:22:26.741Z,english_90.wav,0,peel,689,40,5,5,English,M,5,0.5,50.51297544,0.97925583
5ebc3097a9c38504ebd8a347,7,0,2024-02-28T14:22:26.741Z,english_90.wav,0,peel,689,40,5,5,English,M,6,0.6,61.04656064,1.17642538
5ebc3097a9c38504ebd8a347,7,0,2024-02-28T14:22:26.741Z,english_90.wav,0,peel,689,40,5,5,English,M,7,0.7,-96.36424089,1.13367306
5ebc3097a9c38504ebd8a347,7,0,2024-02-28T14:22:26.741Z,english_90.wav,0,peel,689,40,5,5,English,M,8,0.8,9.94738881,1.45431282
5ebc3097a9c38504ebd8a347,7,0,2024-02-28T14:22:26.741Z,english_90.wav,0,peel,689,40,5,5,English,M,9,0.9,-95.56108651,0.56738547
5ebc3097a9c38504ebd8a347,7,0,2024-02-28T14:22:26.741Z,english_90.wav,0,peel,689,40,5,5,English,M,10,1.0,-78.91453265,1.10123663
5ebc3097a9c38504ebd8a347,7,0,2024-02-28T14:22:26.741Z,english_90.wav,0,peel,689,40,5,5,English,M,11,1.09391667,57.06664979,0.76686745
5ebc3097a9c38504ebd8a347,8,0,2024-02-28T14:22:26.741Z,english_719.wav,0,peel,2112,40,5,5,English,M,0,0.0,-74.07322153,0.85431966
5ebc3097a9c38504ebd8a347,8,0,2024-02-28T14:22:26.741Z,english_719.wav,0,peel,2112,40,5,5,English,M,1,0.1,35.75598847,1.01181763
5ebc3097a9c38504ebd8a347,8,0,2024-02-28T14:22:26.741Z,english_719.wav,0,peel,2112,40,5,5,English,M,2,0.2,82.97271333,0.92312945
5ebc3097a9c38504ebd8a347,8,0,2024-02-28T14:22:26.741Z,english_719.wav,0,peel,2112,40,5,5,English,M,3,0.3,17.0497448,0.56497759
5ebc3097a9c38504ebd8a347,8,0,2024-02-28T14:22:26.741Z,english_719.wav,0,peel,2112,40,5,5,English,M,4,0.4,25.23097934,0.45096397
5ebc3097a9c38504ebd8a347,8,0,2024-02-28T14:22:26.741Z,english_719.wav,0,peel,2112,40,5,5,English,M,5,0.5,4.16668302,1.21193737
5ebc3097a9c38504ebd8a347,8,0,2024-02-28T14:22:26.741Z,english_719.wav,0,peel,2112,40,5,5,English,M,6,0.6,-83.53078486,0.96594203
5ebc3097a9c38504ebd8a347,8,0,2024-02-28T14:22:26.741Z,english_719.wav,0,peel,2112,40,5,5,English,M,7,0.7,-81.53905497,0.58708741
5ebc3097a9c38504ebd8a347,8,0,2024-02-28T14:22:26.741Z,english_719.wav,0,peel,2112,40,5,5,English,M,8,0.8,32.10709268,1.06053437
5ebc3097a9c38504ebd8a347,8,0,2024-02-28T14:22:26.741Z,english_719.wav,0,peel,2112,40,5,5,English,M,9,0.9,9.14404491,1.09641521
5ebc3097a9c38504ebd8a347,8,0,2024-02-28T14:22:26.741Z,english_719.wav,0,peel,2112,40,5,5,English,M,10,1.0,56.09727313,1.58822768
5ebc3097a9c38504ebd8a347,8,0,2024-02-28T14:22:26.741Z,english_719.wav,0,peel,2112,40,5,5,English,M,11,1.09391667,-90.02311852,0.88380828
5ebc3097a9c38504ebd8a347,9,0,2024-02-28T14:22:26.741Z,english_870.wav,0,peel,1076,40,5,5,English,M,0,0.0,-10.19485028,1.28314202
5ebc3097a9c38504ebd8a347,9,0,2024-02-28T14:22:26.741Z,english_870.wav,0,peel,1076,40,5,5,English,M,1,0.1,-62.4912138,1.44892478
5ebc3097a9c38504ebd8a347,9,0,2024-02-28T14:22:26.741Z,english_870.wav,0,peel,1076,40,5,5,English,M,2,0.2,56.79130636,0.62092799
5ebc3097a9c38504ebd8a347,9,0,2024-02-28T14:22:26.741Z,english_870.wav,0,peel,1076,40,5,5,English,M,3,0.3,3.41179192,1.28353317
5ebc3097a9c38504ebd8a347,9,0,2024-02-28T14:22:26.741Z,english_870.wav,0,peel,1076,40,5,5,English,M,4,0.4,-80.2215644,1.45288086
5ebc3097a9c38504ebd8a347,9,0,2024-02-28T14:22:26.741Z,english_870.wav,0,peel,1076,40,5,5,English,M,5,0.5,-90.45848629,1.10334306
5ebc3097a9c38504ebd8a347,9,0,2024-02-28T14:22:26.741Z,english_870.wav,0,peel,1076,40,5,5,English,M,6,0.6,6.2395523,0.6890166
5ebc3097a9c38504ebd8a347,9,0,2024-02-28T14:22:26.741Z,english_870.wav,0,peel,1076,40,5,5,English,M,7,0.7,44.03110365,0.08579582
5ebc3097a9c38504ebd8a347,9,0,2024-02-28T14:22:26.741Z,english_870.wav,0,peel,1076,40,5,5,English,M,8,0.8,32.75346015,1.94514676
5ebc3097a9c38504ebd8a347,9,0,2024-02-28T14:22:26.741Z,english_870.wav,0,peel,1076,40,5,5,English,M,9,0.9,-87.8039942,1.1771082
5ebc3097a9c38504ebd8a347,9,0,2024-02-28T14:22:26.741Z,english_870.wav,0,peel,1076,40,5,5,English,M,10,1.0,-97.59106416,1.63352455
5ebc3097a9c38504ebd8a347,9,0,2024-02-28T14:22:26.741Z,english_870.wav,0,peel,1076,40,5,5,English,M,11,1.09391667,-59.44446254,1.47532635
5ebc3097a9c38504ebd8a347,10,0,2024-02-28T14:22:26.741Z,english_930.wav,0,peel,1029,40,5,5,English,M,0,0.0,19.45977217,0.84483281
5ebc3097a9c38504ebd8a347,10,0,2024-02-28T14:22:26.741Z,english_930.wav,0,peel,1029,40,5,5,English,M,1,0.1,-80.07863209,1.28415243
5ebc3097a9c38504ebd8a347,10,0,2024-02-28T14:22:26.741Z,english_930.wav,0,peel,1029,40,5,5,English,M,2,0.2,45.52554026,0.42013726
5ebc3097a9c38504ebd8a347,10,0,2024-02-28T14:22:26.741Z,english_930.wav,0,peel,1029,40,5,5,English,M,3,0.3,15.52716044,0.73216184
5ebc3097a9c38504ebd8a347,10,0,2024-02-28T14:22:26.741Z,english_930.wav,0,peel,1029,40,5,5,English,M,4,0.4,-83.05812581,0.68838287
5ebc3097a9c38504ebd8a347,10,0,2024-02-28T14:22:26.741Z,english_930.wav,0,peel,1029,40,5,5,English,M,5,0.5,-71.84540183,1.12855875
5ebc3097a9c38504ebd8a347,10,0,2024-02-28T14:22:26.741Z,english_930.wav,0,peel,1029,40,5,5,English,M,6,0.6,-43.21972941,1.19871165
5ebc3097a9c38504ebd8a347,10,0,2024-02-28T14:22:26.741Z,english_930.wav,0,peel,1029,40,5,5,English,M,7,0.7,24.79128716,1.34030412
5ebc3097a9c38504ebd8a347,10,0,2024-02-28T14:22:26.741Z,english_930.wav,0,peel,1029,40,5,5,English,M,8,0.8,-16.02759849,0.99943393
5ebc3097a9c38504ebd8a347,10,0,2024-02-28T14:22:26.741Z,english_930.wav,0,peel,1029,40,5,5,English,M,9,0.9,5.32070927,1.01667004
5ebc3097a9c38504ebd8a347,10,0,2024-02-28T14:22:26.741Z,english_930.wav,0,peel,1029,40,5,5,English,M,10,1.0,41.16408732,1.52152501
5ebc3097a9c38504ebd8a347,10,0,2024-02-28T14:22:26.741Z,english_930.wav,0,peel,1029,40,5,5,English,M,11,1.09391667,45.49028899,0.12802686
5ebc3097a9c38504ebd8a347,11,0,2024-02-28T14:22:26.741Z,english_77.wav,0,peel,873,40,5,5,English,M,0,0.0,14.85901356,0.93801636
5ebc3097a9c38504ebd8a347,11,0,2024-02-28T14:22:26.741Z,english_77.wav,0,peel,873,40,5,5,English,M,1,0.1,-14.38598058,1.78480039
5ebc3097a9c38504ebd8a347,11,0,2024-02-28T14:22:26.741Z,english_77.wav,0,peel,873,40,5,5,English,M,2,0.2,-43.69728494,1.59819809
5ebc3097a9c38504ebd8a347,11,0,2024-02-28T14:22:26.741Z,english_77.wav,0,peel,873,40,5,5,English,M,3,0.3,-19.24854373,0.89560743
5ebc3097a9c38504ebd8a347,11,0,2024-02-28T14:22:26.741Z,english_77.wav,0,peel,873,40,5,5,English,M,4,0.4,4.73942442,0.68128783
5ebc3097a9c38504ebd8a347,11,0,2024-02-28T14:22:26.741Z,english_77.wav,0,peel,873,40,5,5,English,M,5,0.5,6.08734895,1.19225119
5ebc3097a9c38504ebd8a347,11,0,2024-02-28T14:22:26.741Z,english_77.wav,0,peel,873,40,5,5,English,M,6,0.6,2.07981921,1.49267812
5ebc3097a9c38504ebd8a347,11,0,2024-02-28T14:22:26.741Z,english_77.wav,0,peel,873,40,5,5,English,M,7,0.7,-3.22152689,1.83354621
5ebc3097a9c38504ebd8a347,11,0,2024-02-28T14:22:26.741Z,english_77.wav,0,peel,873,40,5,5,English,M,8,0.8,-81.97912938,0.65715704
5ebc3097a9c38504ebd8a347,11,0,2024-02-28T14:22:26.741Z,english_77.wav,0,peel,873,40,5,5,English,M,9,0.9,9.14807536,1.29592629
5ebc3097a9c38504ebd8a347,11,0,2024-02-28T14:22:26.741Z,english_77.wav,0,peel,873,40,5,5,English,M,10,1.0,-30.52937586,1.03409297
5ebc3097a9c38504ebd8a347,11,0,2024-02-28T14:22:26.741Z,english_77.wav,0,peel,873,40,5,5,English,M,11,1.09391667,17.14336326,1.45456337
5ebc3097a9c38504ebd8a347,12,0,2024-02-28T14:24:02.446Z,english_553.wav,0,peel,1007,40,5,5,English,M,0,0.0,-24.88703549,1.59716139
5ebc3097a9c38504ebd8a347,12,0,2024-02-28T14:24:02.446Z,english_553.wav,0,peel,1007,40,5,5,English,M,1,0.1,-32.78735509,1.94339053
5ebc3097a9c38504ebd8a347,12,0,2024-02-28T14:24:02.446Z,english_553.wav,0,peel,1007,40,5,5,English,M,2,0.2,11.78475046,0.07176258
5ebc3097a9c38504ebd8a347,12,0,2024-02-28T14:24:02.446Z,english_553.wav,0,peel,1007,40,5,5,English,M,3,0.3,-49.38675094,1.26590086
5ebc3097a9c38504ebd8a347,12,0,2024-02-28T14:24:02.446Z,english_553.wav,0,peel,1007,40,5,5,English,M,4,0.4,87.03858762,0.74193634
5ebc3097a9c38504ebd8a347,12,0,2024-02-28T14:24:02.446Z,english_553.wav,0,peel,1007,40,5,5,English,M,5,0.5,60.30502824,1.61552542
5ebc3097a9c38504ebd8a347,12,0,2024-02-28T14:24:02.446Z,english_553.wav,0,peel,1007,40,5,5,English,M,6,0.6,10.13311967,0.16579471
5ebc3097a9c38504ebd8a347,12,0,2024-02-28T14:24:02.446Z,english_553.wav,0,peel,1007,40,5,5,English,M,7,0.7,67.86345644,1.42366471
5ebc3097a9c38504ebd8a347,12,0,2024-02-28T14:24:02.446Z,english_553.wav,0,peel,1007,40,5,5,English,M,8,0.8,-60.17677271,1.14167702
5ebc3097a9c38504ebd8a347,12,0,2024-02-28T14:24:02.446Z,english_553.wav,0,peel,1007,40,5,5,English,M,9,0.9,12.98417217,1.59651853
5ebc3097a9c38504ebd8a347,12,0,2024-02-28T14:24:02.446Z,english_553.wav,0,peel,1007,40,5,5,English,M,10,1.0,49.25042129,1.95090435
5ebc3097a9c38504ebd8a347,12,0,2024-02-28T14:24:02.446Z,english_553.wav,0,peel,1007,40,5,5,English,M,11,1.09391667,-82.97566862,0.60671916
5ebc3097a9c38504ebd8a347,13,0,2024-02-28T14:24:02.446Z,english_338.wav,0,peel,826,40,5,5,English,M,0,0.0,-28.32882855,1.26446903
5ebc3097a9c38504ebd8a347,13,0,2024-02-28T14:24:02.446Z,english_338.wav,0,peel,826,40,5,5,English,M,1,0.1,57.31812169,0.76759877
5ebc3097a9c38504ebd8a347,13,0,2024-02-28T14:24:02.446Z,english_338.wav,0,peel,826,40,5,5,English,M,2,0.2,14.45982208,1.52351901
5ebc3097a9c38504ebd8a347,13,0,2024-02-28T14:24:02.446Z,english_338.wav,0,peel,826,40,5,5,English,M,3,0.3,77.41090692,1.04471398
5ebc3097a9c38504ebd8a347,13,0,2024-02-28T14:24:02.446Z,english_338.wav,0,peel,826,40,5,5,English,M,4,0.4,-1.8867557,0.90426999
5ebc3097a9c38504ebd8a347,13,0,2024-02-28T14:24:02.446Z,english_338.wav,0,peel,826,40,5,5,English,M,5,0.5,-35.85874383,1.69664706
5ebc3097a9c38504ebd8a347,13,0,2024-02-28T14:24:02.446Z,english_338.wav,0,peel,826,40,5,5,English,M,6,0.6,-55.1613605,0.17582058
5ebc3097a9c38504ebd8a347,13,0,2024-02-28T14:24:02.446Z,english_338.wav,0,peel,826,40,5,5,English,M,7,0.7,-70.94430614,0.54140942
5ebc3097a9c38504ebd8a347,13,0,2024-02-28T14:24:02.446Z,english_338.wav,0,peel,826,40,5,5,English,M,8,0.8,5.91952673,0.81798021
5ebc3097a9c38504ebd8a347,13,0,2024-02-28T14:24:02.446Z,english_338.wav,0,peel,826,40,5,5,English,M,9,0.9,-77.52896216,1.90630538
5ebc3097a9c38504ebd8a347,13,0,2024-02-28T14:24:02.446Z,english_338.wav,0,peel,826,40,5,5,English,M,10,1.0,-12.19112467,0.59557422
5ebc3097a9c38504ebd8a347,13,0,2024-02-28T14:24:02.446Z,english_338.wav,0,peel,826,40,5,5,English,M,11,1.09391667,6.6549641,0.42071392
5ebc3097a9c38504ebd8a347,14,0,2024-02-28T14:24:02.446Z,english_345.wav,0,pill,774,40,5,5,English,M,0,0.0,-34.02990991,1.8609144
5ebc3097a9c38504ebd8a347,14,0,2024-02-28T14:24:02.446Z,english_345.wav,0,pill,774,40,5,5,English,M,1,0.1,-88.27975281,1.48233205
5ebc3097a9c38504ebd8a347,14,0,2024-02-28T14:24:02.446Z,english_345.wav,0,pill,774,40,5,5,English,M,2,0.2,-1.56807316,0.71166641
5ebc3097a9c38504ebd8a347,14,0,2024-02-28T14:24:02.446Z,english_345.wav,0,pill,774,40,5,5,English,M,3,0.3,-28.98585365,0.21699581
5ebc3097a9c38504ebd8a347,14,0,2024-02-28T14:24:02.446Z,english_345.wav,0,pill,774,40,5,5,English,M,4,0.4,83.28491736,1.65978529
5ebc3097a9c38504ebd8a347,14,0,2024-02-28T14:24:02.446Z,english_345.wav,0,pill,774,40,5,5,English,M,5,0.5,-16.11421398,0.84551922
5ebc3097a9c38504ebd8a347,14,0,2024-02-28T14:24:02.446Z,english_345.wav,0,pill,774,40,5,5,English,M,6,0.6,-92.22378926,0.60808254
5ebc3097a9c38504ebd8a347,14,0,2024-02-28T14:24:02.446Z,english_345.wav,0,pill,774,40,5,5,English,M,7,0.7,50.09737337,1.24136652
5ebc3097a9c38504ebd8a347,14,0,2024-02-28T14:24:02.446Z,english_345.wav,0,pill,774,40,5,5,English,M,8,0.8,11.89135809,0.61250032
5ebc3097a9c38504ebd8a347,14,0,2024-02-28T14:24:02.446Z,english_345.wav,0,pill,774,40,5,5,English,M,9,0.9,86.57873929,0.42246236
5ebc3097a9c38504ebd8a347,14,0,2024-02-28T14:24:02.446Z,english_345.wav,0,pill,774,40,5,5,English,M,10,1.0,15.84417261,0.8731046
5ebc3097a9c38504ebd8a347,14,0,2024-02-28T14:24:02.446Z,english_345.wav,0,pill,774,40,5,5,English,M,11,1.09391667,22.95884771,1.62586913
5ebc3097a9c38504ebd8a347,15,0,2024-02-28T14:24:02.446Z,english_776.wav,0,pill,577,40,5,5,English,M,0,0.0,87.36983695,0.99012423
5ebc3097a9c38504ebd8a347,15,0,2024-02-28T14:24:02.446Z,english_776.wav,0,pill,577,40,5,5,English,M,1,0.1,-7.36044234,0.99897732
5ebc3097a9c38504ebd8a347,15,0,2024-02-28T14:24:02.446Z,english_776.wav,0,pill,577,40,5,5,English,M,2,0.2,-78.22847681,1.18840119
5ebc3097a9c38504ebd8a347,15,0,2024-02-28T14:24:02.446Z,english_776.wav,0,pill,577,40,5,5,English,M,3,0.3,-28.99379036,1.28345901
5ebc3097a9c38504ebd8a347,15,0,2024-02-28T14:24:02.446Z,english_776.wav,0,pill,577,40,5,5,English,M,4,0.4,76.19445877,0.93018475
5ebc3097a9c38504ebd8a347,15,0,2024-02-28T14:24:02.446Z,english_776.wav,0,pill,577,40,5,5,English,M,5,0.5,-43.33414,1.3758077
5ebc3097a9c38504ebd8a347,15,0,2024-02-28T14:24:02.446Z,english_776.wav,0,pill,577,40,5,5,English,M,6,0.6,-77.80909366,0.61279661
5ebc3097a9c38504ebd8a347,15,0,2024-02-28T14:24:02.446Z,english_776.wav,0,pill,577,40,5,5,English,M,7,0.7,-63.14510086,1.13295599
5ebc3097a9c38504ebd8a347,15,0,2024-02-28T14:24:02.446Z,english_776.wav,0,pill,577,40,5,5,English,M,8,0.8,70.29145503,0.21705032
5ebc3097a9c38504ebd8a347,15,0,2024-02-28T14:24:02.446Z,english_776.wav,0,pill,577,40,5,5,English,M,9,0.9,46.24407769,1.45577739
5ebc3097a9c38504ebd8a347,15,0,2024-02-28T14:24:02.446Z,english_776.wav,0,pill,577,40,5,5,English,M,10,1.0,-23.45182889,1.82818043
5ebc3097a9c38504ebd8a347,15,0,2024-02-28T14:24:02.446Z,english_776.wav,0,pill,577,40,5,5,English,M,11,1.09391667,72.2860477,0.32191232
5ebc3097a9c38504ebd8a347,16,0,2024-02-28T14:24:02.446Z,english_472.wav,0,pill,710,40,5,5,English,M,0,0.0,-23.72821767,0.96911452
5ebc3097a9c38504ebd8a347,16,0,2024-02-28T14:24:02.446Z,english_472.wav,0,pill,710,40,5,5,English,M,1,0.1,7.29471696,0.40121138
5ebc3097a9c38504ebd8a347,16,0,2024-02-28T14:24:02.446Z,english_472.wav,0,pill,710,40,5,5,English,M,2,0.2,-58.55005371,1.15410482
5ebc3097a9c38504ebd8a347,16,0,2024-02-28T14:24:02.446Z,english_472.wav,0,pill,710,40,5,5,English,M,3,0.3,77.0504256,1.91400861
5ebc3097a9c38504ebd8a347,16,0,2024-02-28T14:24:02.446Z,english_472.wav,0,pill,710,40,5,5,English,M,4,0.4,87.29275565,0.05830067
5ebc3097a9c38504ebd8a347,16,0,2024-02-28T14:24:02.446Z,english_472.wav,0,pill,710,40,5,5,English,M,5,0.5,-70.9646192,0.87176087
5ebc3097a9c38504ebd8a347,16,0,2024-02-28T14:24:02.446Z,english_472.wav,0,pill,710,40,5,5,English,M,6,0.6,72.82743185,0.23371631
5ebc3097a9c38504ebd8a347,16,0,2024-02-28T14:24:02.446Z,english_472.wav,0,pill,710,40,5,5,English,M,7,0.7,-40.27439915,1.66198616
5ebc3097a9c38504ebd8a347,16,0,2024-02-28T14:24:02.446Z,english_472.wav,0,pill,710,40,5,5,English,M,8,0.8,-15.91396931,0.22492459
5ebc3097a9c38504ebd8a347,16,0,2024-02-28T14:24:02.446Z,english_472.wav,0,pill,710,40,5,5,English,M,9,0.9,27.40014094,0.55757982
5ebc3097a9c38504ebd8a347,16,0,2024-02-28T14:24:02.446Z,english_472.wav,0,pill,710,40,5,5,English,M,10,1.0,-13.69917785,1.15387827
5ebc3097a9c38504ebd8a347,16,0,2024-02-28T14:24:02.446Z,english_472.wav,0,pill,710,40,5,5,English,M,11,1.09391667,26.78237701,1.85526867
5ebc3097a9c38504ebd8a347,17,0,2024-02-28T14:24:02.446Z,english_116.wav,0,pill,815,40,5,5,English,M,0,0.0,-9.55497422,1.40906913
5ebc3097a9c38504ebd8a347,17,0,2024-02-28T14:24:02.446Z,english_116.wav,0,pill,815,40,5,5,English,M,1,0.1,49.93536879,1.01406047
5ebc3097a9c38504ebd8a347,17,0,2024-02-28T14:24:02.446Z,english_116.wav,0,pill,815,40,5,5,English,M,2,0.2,-79.25579082,0.11711084
5ebc3097a9c38504ebd8a347,17,0,2024-02-28T14:24:02.446Z,english_116.wav,0,pill,815,40,5,5,English,M,3,0.3,-36.23152563,0.60671403
5ebc3097a9c38504ebd8a347,17,0,2024-02-28T14:24:02.446Z,english_116.wav,0,pill,815,40,5,5,English,M,4,0.4,-13.54411706,0.84673882
5ebc3097a9c38504ebd8a347,17,0,2024-02-28T14:24:02.446Z,english_116.wav,0,pill,815,40,5,5,English,M,5,0.5,94.79003248,0.4711221
5ebc3097a9c38504ebd8a347,17,0,2024-02-28T14:24:02.446Z,english_116.wav,0,pill,815,40,5,5,English,M,6,0.6,82.07262677,0.05184022
5ebc3097a9c38504ebd8a347,17,0,2024-02-28T14:24:02.446Z,english_116.wav,0,pill,815,40,5,5,English,M,7,0.7,34.20482138,0.25033894
5ebc3097a9c38504ebd8a347,17,0,2024-02-28T14:24:02.446Z,english_116.wav,0,pill,815,40,5,5,English,M,8,0.8,-57.39554956,0.57212798
5ebc3097a9c38504ebd8a347,17,0,2024-02-28T14:24:02.446Z,english_116.wav,0,pill,815,40,5,5,English,M,9,0.9,74.8891327,0.83139931
5ebc3097a9c38504ebd8a347,17,0,2024-02-28T14:24:02.446Z,english_116.wav,0,pill,815,40,5,5,English,M,10,1.0,25.67722271,0.9159615
5ebc3097a9c38504ebd8a347,17,0,2024-02-28T14:24:02.446Z,english_116.wav,0,pill,815,40,5,5,English,M,11,1.09391667,39.70859054,1.32229157
5ebc3097a9c38504ebd8a347,18,0,2024-02-28T14:24:02.446Z,english_239.wav,0,pill,471,40,5,5,English,M,0,0.0,-30.5267656,1.39175326
5ebc3097a9c38504ebd8a347,18,0,2024-02-28T14:24:02.446Z,english_239.wav,0,pill,471,40,5,5,English,M,1,0.1,86.9253709,0.20187761
5ebc3097a9c38504ebd8a347,18,0,2024-02-28T14:24:02.446Z,english_239.wav,0,pill,471,40,5,5,English,M,2,0.2,98.1444663,0.94285365
5ebc3097a9c38504ebd8a347,18,0,2024-02-28T14:24:02.446Z,english_239.wav,0,pill,471,40,5,5,English,M,3,0.3,3.73344739,0.80472341
5ebc3097a9c38504ebd8a347,18,0,2024-02-28T14:24:02.446Z,english_239.wav,0,pill,471,40,5,5,English,M,4,0.4,93.7963197,1.04208815
5ebc3097a9c38504ebd8a347,18,0,2024-02-28T14:24:02.446Z,english_239.wav,0,pill,471,40,5,5,English,M,5,0.5,3.55240778,1.26812124
5ebc3097a9c38504ebd8a347,18,0,2024-02-28T14:24:02.446Z,english_239.wav,0,pill,471,40,5,5,English,M,6,0.6,68.0566249,0.21560502
5ebc3097a9c38504ebd8a347,18,0,2024-02-28T14:24:02.446Z,english_239.wav,0,pill,471,40,5,5,English,M,7,0.7,-0.0862323076,1.00669433
5ebc3097a9c38504ebd8a347,18,0,2024-02-28T14:24:02.446Z,english_239.wav,0,pill,471,40,5,5,English,M,8,0.8,-20.3909635,0.33435282
5ebc3097a9c38504ebd8a347,18,0,2024-02-28T14:24:02.446Z,english_239.wav,0,pill,471,40,5,5,English,M,9,0.9,14.0711591,1.80648064
5ebc3097a9c38504ebd8a347,18,0,2024-02-28T14:24:02.446Z,english_239.wav,0,pill,471,40,5,5,English,M,10,1.0,-8.12414996,0.53666305
5ebc3097a9c38504ebd8a347,18,0,2024-02-28T14:24:02.446Z,english_239.wav,0,pill,471,40,5,5,English,M,11,1.09391667,57.1088195,0.81763806
5ebc3097a9c38504ebd8a347,19,0,2024-02-28T14:24:02.446Z,english_801.wav,0,pill,722,40,5,5,English,M,0,0.0,-54.47653584,1.90910012
5ebc3097a9c38504ebd8a347,19,0,2024-02-28T14:24:02.446Z,english_801.wav,0,pill,722,40,5,5,English,M,1,0.1,-41.28810238,0.95006917
5ebc3097a9c38504ebd8a347,19,0,2024-02-28T14:24:02.446Z,english_801.wav,0,pill,722,40,5,5,English,M,2,0.2,91.65690287,0.84100017
5ebc3097a9c38504ebd8a347,19,0,2024-02-28T14:24:02.446Z,english_801.wav,0,pill,722,40,5,5,English,M,3,0.3,-9.28605219,0.92695143
5ebc3097a9c38504ebd8a347,19,0,2024-02-28T14:24:02.446Z,english_801.wav,0,pill,722,40,5,5,English,M,4,0.4,-68.3172527,0.80239333
5ebc3097a9c38504ebd8a347,19,0,2024-02-28T14:24:02.446Z,english_801.wav,0,pill,722,40,5,5,English,M,5,0.5,-20.53863649,1.92743309
5ebc3097a9c38504ebd8a347,19,0,2024-02-28T14:24:02.446Z,english_801.wav,0,pill,722,40,5,5,English,M,6,0.6,23.12715477,0.16796328
5ebc3097a9c38504ebd8a347,19,0,2024-02-28T14:24:02.446Z,english_801.wav,0,pill,722,40,5,5,English,M,7,0.7,-28.99385244,0.5012895
5ebc3097a9c38504ebd8a347,19,0,2024-02-28T14:24:02.446Z,english_801.wav,0,pill,722,40,5,5,English,M,8,0.8,-31.7840881,0.67203268
5ebc3097a9c38504ebd8a347,19,0,2024-02-28T14:24:02.446Z,english_801.wav,0,pill,722,40,5,5,English,M,9,0.9,-50.00972714,0.25650815
5ebc3097a9c38504ebd8a347,19,0,2024-02-28T14:24:02.446Z,english_801.wav,0,pill,722,40,5,5,English,M,10,1.0,-40.65380245,0.35020128
5ebc3097a9c38504ebd8a347,19,0,2024-02-28T14:24:02.446Z,english_801.wav,0,pill,722,40,5,5,English,M,11,1.09391667,5.46992446,1.80995829
5ebc3097a9c38504ebd8a347,20,0,2024-02-28T14:24:02.446Z,english_476.wav,0,peel,1260,40,5,5,English,M,0,0.0,44.69659717,1.41297837
5ebc3097a9c38504ebd8a347,20,0,2024-02-28T14:24:02.446Z,english_476.wav,0,peel,1260,40,5,5,English,M,1,0.1,-34.716814,1.05145195
5ebc3097a9c38504ebd8a347,20,0,2024-02-28T14:24:02.446Z,english_476.wav,0,peel,1260,40,5,5,English,M,2,0.2,-37.83043351,0.94681533
5ebc3097a9c38504ebd8a347,20,0,2024-02-28T14:24:02.446Z,english_476.wav,0,peel,1260,40,5,5,English,M,3,0.3,-62.93772859,1.38886049
5ebc3097a9c38504ebd8a347,20,0,2024-02-28T14:24:02.446Z,english_476.wav,0,peel,1260,40,5,5,English,M,4,0.4,29.80105548,0.50983073
5ebc3097a9c38504ebd8a347,20,0,2024-02-28T14:24:02.446Z,english_476.wav,0,peel,1260,40,5,5,English,M,5,0.5,-19.93397346,0.87963627
5ebc3097a9c38504ebd8a347,20,0,2024-02-28T14:24:02.446Z,english_476.wav,0,peel,1260,40,5,5,English,M,6,0.6,-81.51838574,0.37083783
5ebc3097a9c38504ebd8a347,20,0,2024-02-28T14:24:02.446Z,english_476.wav,0,peel,1260,40,5,5,English,M,7,0.7,-13.12417842,1.60201274
5ebc3097a9c38504ebd8a347,20,0,2024-02-28T14:24:02.446Z,english_476.wav,0,peel,1260,40,5,5,English,M,8,0.8,-49.11622946,0.02246419
5ebc3097a9c38504ebd8a347,20,0,2024-02-28T14:24:02.446Z,english_476.wav,0,peel,1260,40,5,5,English,M,9,0.9,-40.62215118,1.35146298
5ebc3097a9c38504ebd8a347,20,0,2024-02-28T14:24:02.446Z,english_476.wav,0,peel,1260,40,5,5,English,M,10,1.0,-29.85989769,1.39707139
5ebc3097a9c38504ebd8a347,20,0,2024-02-28T14:24:02.446Z,english_476.wav,0,peel,1260,40,5,5,English,M,11,1.09391667,-46.8973955,0.19828042
5ebc3097a9c38504ebd8a347,21,0,2024-02-28T14:24:02.446Z,english_417.wav,0,peel,552,40,5,5,English,M,0,0.0,29.37383655,1.92425936
5ebc3097a9c38504ebd8a347,21,0,2024-02-28T14:24:02.446Z,english_417.wav,0,peel,552,40,5,5,English,M,1,0.1,23.19156398,0.6229039
5ebc3097a9c38504ebd8a347,21,0,2024-02-28T14:24:02.446Z,english_417.wav,0,peel,552,40,5,5,English,M,2,0.2,85.81337763,1.36154183
5ebc3097a9c38504ebd8a347,21,0,2024-02-28T14:24:02.446Z,english_417.wav,0,peel,552,40,5,5,English,M,3,0.3,-29.64908449,0.09031289
5ebc3097a9c38504ebd8a347,21,0,2024-02-28T14:24:02.446Z,english_417.wav,0,peel,552,40,5,5,English,M,4,0.4,8.97904128,0.90960709
5ebc3097a9c38504ebd8a347,21,0,2024-02-28T14:24:02.446Z,english_417.wav,0,peel,552,40,5,5,English,M,5,0.5,39.22706603,1.25920128
5ebc3097a9c38504ebd8a347,21,0,2024-02-28T14:24:02.446Z,english_417.wav,0,peel,552,40,5,5,English,M,6,0.6,61.83715867,1.48525242
5ebc3097a9c38504ebd8a347,21,0,2024-02-28T14:24:02.446Z,english_417.wav,0,peel,552,40,5,5,English,M,7,0.7,-85.41027475,0.60232136
5ebc3097a9c38504ebd8a347,21,0,2024-02-28T14:24:02.446Z,english_417.wav,0,peel,552,40,5,5,English,M,8,0.8,73.95238576,0.50952592
5ebc3097a9c38504ebd8a347,21,0,2024-02-28T14:24:02.446Z,english_417.wav,0,peel,552,40,5,5,English,M,9,0.9,27.80762862,0.22145612
5ebc3097a9c38504ebd8a347,21,0,2024-02-28T14:24:02.446Z,english_417.wav,0,peel,552,40,5,5,English,M,10,1.0,-27.42196196,0.91644458
5ebc3097a9c38504ebd8a347,21,0,2024-02-28T14:24:02.446Z,english_417.wav,0,peel,552,40,5,5,English,M,11,1.09391667,-33.44848628,1.07641807
5ebc3097a9c38504ebd8a347,22,0,2024-02-28T14:24:02.446Z,english_408.wav,0,peel,777,40,5,5,English,M,0,0.0,-0.56649463,0.16918067
5ebc3097a9c38504ebd8a347,22,0,2024-02-28T14:24:02.446Z,english_408.wav,0,peel,777,40,5,5,English,M,1,0.1,13.00923979,0.56010747
5ebc3097a9c38504ebd8a347,22,0,2024-02-28T14:24:02.446Z,english_408.wav,0,peel,777,40,5,5,English,M,2,0.2,-71.83469139,0.19245092
5ebc3097a9c38504ebd8a347,22,0,2024-02-28T14:24:02.446Z,english_408.wav,0,peel,777,40,5,5,English,M,3,0.3,-46.43306622,1.1181282
5ebc3097a9c38504ebd8a347,22,0,2024-02-28T14:24:02.446Z,english_408.wav,0,peel,777,40,5,5,English,M,4,0.4,57.51005943,1.74879815
5ebc3097a9c38504ebd8a347,22,0,2024-02-28T14:24:02.446Z,english_408.wav,0,peel,777,40,5,5,English,M,5,0.5,-16.94006388,1.22782003
5ebc3097a9c38504ebd8a347,22,0,2024-02-28T14:24:02.446Z,english_408.wav,0,peel,777,40,5,5,English,M,6,0.6,81.03561566,0.47006698
5ebc3097a9c38504ebd8a347,22,0,2024-02-28T14:24:02.446Z,english_408.wav,0,peel,777,40,5,5,English,M,7,0.7,-97.26947589,0.46279929
5ebc3097a9c38504ebd8a347,22,0,2024-02-28T14:24:02.446Z,english_408.wav,0,peel,777,40,5,5,English,M,8,0.8,-59.24275724,1.0844665
5ebc3097a9c38504ebd8a347,22,0,2024-02-28T14:24:02.446Z,english_408.wav,0,peel,777,40,5,5,English,M,9,0.9,83.02020542,0.29234844
5ebc3097a9c38504ebd8a347,22,0,2024-02-28T14:24:02.446Z,english_408.wav,0,peel,777,40,5,5,English,M,10,1.0,-24.61759246,0.88583526
5ebc3097a9c38504ebd8a347,22,0,2024-02-28T14:24:02.446Z,english_408.wav,0,peel,777,40,5,5,English,M,11,1.09391667,26.07197114,1.9319493
5ebc3097a9c38504ebd8a347,23,0,2024-02-28T14:24:02.446Z,english_700.wav,0,peel,353,40,5,5,English,M,0,0.0,68.07429642,0.65814928
5ebc3097a9c38504ebd8a347,23,0,2024-02-28T14:24:02.446Z,english_700.wav,0,peel,353,40,5,5,English,M,1,0.1,-37.49377634,0.17735138
5ebc3097a9c38504ebd8a347,23,0,2024-02-28T14:24:02.446Z,english_700.wav,0,peel,353,40,5,5,English,M,2,0.2,-23.04099004,0.86512997
5ebc3097a9c38504ebd8a347,23,0,2024-02-28T14:24:02.446Z,english_700.wav,0,peel,353,40,5,5,English,M,3,0.3,29.04143541,1.58435568
5ebc3097a9c38504ebd8a347,23,0,2024-02-28T14:24:02.446Z,english_700.wav,0,peel,353,40,5,5,English,M,4,0.4,20.45754453,1.51654074
5ebc3097a9c38504ebd8a347,23,0,2024-02-28T14:24:02.446Z,english_700.wav,0,peel,353,40,5,5,English,M,5,0.5,37.24109952,1.28756254
5ebc3097a9c38504ebd8a347,23,0,2024-02-28T14:24:02.446Z,english_700.wav,0,peel,353,40,5,5,English,M,6,0.6,39.64018777,0.60860264
5ebc3097a9c38504ebd8a347,23,0,2024-02-28T14:24:02.446Z,english_700.wav,0,peel,353,40,5,5,English,M,7,0.7,51.86520487,1.44468929
5ebc3097a9c38504ebd8a347,23,0,2024-02-28T14:24:02.446Z,english_700.wav,0,peel,353,40,5,5,English,M,8,0.8,48.29334393,1.11255223
5ebc3097a9c38504ebd8a347,23,0,2024-02-28T14:24:02.446Z,english_700.wav,0,peel,353,40,5,5,English,M,9,0.9,69.44263224,0.2005319
5ebc3097a9c38504ebd8a347,23,0,2024-02-28T14:24:02.446Z,english_700.wav,0,peel,353,40,5,5,English,M,10,1.0,-89.62778161,1.42301772
5ebc3097a9c38504ebd8a347,23,0,2024-02-28T14:24:02.446Z,english_700.wav,0,peel,353,40,5,5,English,M,11,1.09391667,-27.88856176,1.42118254
5ebc3097a9c38504ebd8a347,24,0,2024-02-28T14:24:02.446Z,english_990.wav,0,peel,1192,40,5,5,English,M,0,0.0,-41.91954114,1.07016473
5ebc3097a9c38504ebd8a347,24,0,2024-02-28T14:24:02.446Z,english_990.wav,0,peel,1192,40,5,5,English,M,1,0.1,-81.73689018,0.80416299
5ebc3097a9c38504ebd8a347,24,0,2024-02-28T14:24:02.446Z,english_990.wav,0,peel,1192,40,5,5,English,M,2,0.2,-8.6439495,1.27361164
5ebc3097a9c38504ebd8a347,24,0,2024-02-28T14:24:02.446Z,english_990.wav,0,peel,1192,40,5,5,English,M,3,0.3,-35.79468829,0.8357561
5ebc3097a9c38504ebd8a347,24,0,2024-02-28T14:24:02.446Z,english_990.wav,0,peel,1192,40,5,5,English,M,4,0.4,-15.71846635,0.68387575
5ebc3097a9c38504ebd8a347,24,0,2024-02-28T14:24:02.446Z,english_990.wav,0,peel,1192,40,5,5,English,M,5,0.5,30.29696997,0.51659091
5ebc3097a9c38504ebd8a347,24,0,2024-02-28T14:24:02.446Z,english_990.wav,0,peel,1192,40,5,5,English,M,6,0.6,58.5778321,0.86090319
5ebc3097a9c38504ebd8a347,24,0,2024-02-28T14:24:02.446Z,english_990.wav,0,peel,1192,40,5,5,English,M,7,0.7,-55.43771635,1.86495605
5ebc3097a9c38504ebd8a347,24,0,2024-02-28T14:24:02.446Z,english_990.wav,0,peel,1192,40,5,5,English,M,8,0.8,-4.04287403,0.50523281
5ebc3097a9c38504ebd8a347,24,0,2024-02-28T14:24:02.446Z,english_990.wav,0,peel,1192,40,5,5,English,M,9,0.9,96.7741085,0.60576665
5ebc3097a9c38504ebd8a347,24,0,2024-02-28T14:24:02.446Z,english_990.wav,0,peel,1192,40,5,5,English,M,10,1.0,73.27929718,1.38942897
5ebc3097a9c38504ebd8a347,24,0,2024-02-28T14:24:02.446Z,english_990.wav,0,peel,1192,40,5,5,English,M,11,1.09391667,-50.83652549,0.62697308
5ebc3097a9c38504ebd8a347,25,0,2024-02-28T14:24:02.446Z,english_78.wav,0,peel,981,40,5,5,English,M,0,0.0,42.39797886,1.50616235
5ebc3097a9c38504ebd8a347,25,0,2024-02-28T14:24:02.446Z,english_78.wav,0,peel,981,40,5,5,English,M,1,0.1,-36.07857938,0.54303847
5ebc3097a9c38504ebd8a347,25,0,2024-02-28T14:24:02.446Z,english_78.wav,0,peel,981,40,5,5,English,M,2,0.2,-66.49689514,0.95347503
5ebc3097a9c38504ebd8a347,25,0,2024-02-28T14:24:02.446Z,english_78.wav,0,peel,981,40,5,5,English,M,3,0.3,52.41013344,1.62003629
5ebc3097a9c38504ebd8a347,25,0,2024-02-28T14:24:02.446Z,english_78.wav,0,peel,981,40,5,5,English,M,4,0.4,60.05478812,1.61647939
5ebc3097a9c38504ebd8a347,25,0,2024-02-28T14:24:02.446Z,english_78.wav,0,peel,981,40,5,5,English,M,5,0.5,-4.62250103,0.17410512
5ebc3097a9c38504ebd8a347,25,0,2024-02-28T14:24:02.446Z,english_78.wav,0,peel,981,40,5,5,English,M,6,0.6,-80.28349147,0.43268803
5ebc3097a9c38504ebd8a347,25,0,2024-02-28T14:24:02.446Z,english_78.wav,0,peel,981,40,5,5,English,M,7,0.7,83.57222547,0.08104601
5ebc3097a9c38504ebd8a347,25,0,2024-02-28T14:24:02.446Z,english_78.wav,0,peel,981,40,5,5,English,M,8,0.8,7.4922518,1.61489209
5ebc3097a9c38504ebd8a347,25,0,2024-02-28T14:24:02.446Z,english_78.wav,0,peel,981,40,5,5,English,M,9,0.9,-18.57317231,0.08012208
5ebc3097a9c38504ebd8a347,25,0,2024-02-28T14:24:02.446Z,english_78.wav,0,peel,981,40,5,5,English,M,10,1.0,-60.66079691,0.76901301
5ebc3097a9c38504ebd8a347,25,0,2024-02-28T14:24:02.446Z,english_78.wav,0,peel,981,40,5,5,English,M,11,1.09391667,37.22949989,1.86046092
5ebc3097a9c38504ebd8a347,26,0,2024-02-28T14:24:02.446Z,english_827.wav,0,peel,584,40,5,5,English,M,0,0.0,68.00908508,0.75704727
5ebc3097a9c38504ebd8a347,26,0,2024-02-28T14:24:02.446Z,english_827.wav,0,peel,584,40,5,5,English,M,1,0.1,62.86337393,1.26162294
5ebc3097a9c38504ebd8a347,26,0,2024-02-28T14:24:02.446Z,english_827.wav,0,peel,584,40,5,5,English,M,2,0.2,-78.66229145,0.12232387
5ebc3097a9c38504ebd8a347,26,0,2024-02-28T14:24:02.446Z,english_827.wav,0,peel,584,40,5,5,English,M,3,0.3,22.2543924,1.21737576
5ebc3097a9c38504ebd8a347,26,0,2024-02-28T14:24:02.446Z,english_827.wav,0,peel,584,40,5,5,English,M,4,0.4,-38.38701394,0.91087215
5ebc3097a9c38504ebd8a347,26,0,2024-02-28T14:24:02.446Z,english_827.wav,0,peel,584,40,5,5,English,M,5,0.5,42.22150711,0.43725261
5ebc3097a9c38504ebd8a347,26,0,2024-02-28T14:24:02.446Z,english_827.wav,0,peel,584,40,5,5,English,M,6,0.6,-45.69118252,1.41339021
5ebc3097a9c38504ebd8a347,26,0,2024-02-28T14:24:02.446Z,english_827.wav,0,peel,584,40,5,5,English,M,7,0.7,-2.62995829,0.84435274
5ebc3097a9c38504ebd8a347,26,0,2024-02-28T14:24:02.446Z,english_827.wav,0,peel,584,40,5,5,English,M,8,0.8,-5.53100906,1.45939376
5ebc3097a9c38504ebd8a347,26,0,2024-02-28T14:24:02.446Z,english_827.wav,0,peel,584,40,5,5,English,M,9,0.9,-28.52107901,0.25757528
5ebc3097a9c38504ebd8a347,26,0,2024-02-28T14:24:02.446Z,english_827.wav,0,peel,584,40,5,5,English,M,10,1.0,49.22868474,0.16904312
5ebc3097a9c38504ebd8a347,26,0,2024-02-28T14:24:02.446Z,english_827.wav,0,peel,584,40,5,5,English,M,11,1.09391667,-68.48939537,1.55565222
5ebc3097a9c38504ebd8a347,27,0,2024-02-28T14:24:02.446Z,english_282.wav,0,peel,591,40,5,5,English,M,0,0.0,79.51809952,1.2792911
5ebc3097a9c38504ebd8a347,27,0,2024-02-28T14:24:02.446Z,english_282.wav,0,peel,591,40,5,5,English,M,1,0.1,55.92109115,0.93344042
5ebc3097a9c38504ebd8a347,27,0,2024-02-28T14:24:02.446Z,english_282.wav,0,peel,591,40,5,5,English,M,2,0.2,36.01060515,1.94968889
5ebc3097a9c38504ebd8a347,27,0,2024-02-28T14:24:02.446Z,english_282.wav,0,peel,591,40,5,5,English,M,3,0.3,4.60281664,1.12428424
5ebc3097a9c38504ebd8a347,27,0,2024-02-28T14:24:02.446Z,english_282.wav,0,peel,591,40,5,5,English,M,4,0.4,35.69966579,0.7610034
5ebc3097a9c38504ebd8a347,27,0,2024-02-28T14:24:02.446Z,english_282.wav,0,peel,591,40,5,5,English,M,5,0.5,-79.87721836,0.66186596
5ebc3097a9c38504ebd8a347,27,0,2024-02-28T14:24:02.446Z,english_282.wav,0,peel,591,40,5,5,English,M,6,0.6,-3.98252218,0.57211865
5ebc3097a9c38504ebd8a347,27,0,2024-02-28T14:24:02.446Z,english_282.wav,0,peel,591,40,5,5,English,M,7,0.7,-78.10052274,0.40544896
5ebc3097a9c38504ebd8a347,27,0,2024-02-28T14:24:02.446Z,english_282.wav,0,peel,591,40,5,5,English,M,8,0.8,69.1474283,0.68156422
5ebc3097a9c38504ebd8a347,27,0,2024-02-28T14:24:02.446Z,english_282.wav,0,peel,591,40,5,5,English,M,9,0.9,58.09261901,0.87028019
5ebc3097a9c38504ebd8a347,27,0,2024-02-28T14:24:02.446Z,english_282.wav,0,peel,591,40,5,5,English,M,10,1.0,94.50826365,1.91563213
5ebc3097a9c38504ebd8a347,27,0,2024-02-28T14:24:02.446Z,english_282.wav,0,peel,591,40,5,5,English,M,11,1.09391667,71.90418642,1.01931827
5ebc3097a9c38504ebd8a347,28,0,2024-02-28T14:24:02.446Z,english_774.wav,0,peel,1001,40,5,5,English,M,0,0.0,38.7876064,0.43642058
5ebc3097a9c38504ebd8a347,28,0,2024-02-28T14:24:02.446Z,english_774.wav,0,peel,1001,40,5,5,English,M,1,0.1,-21.79427352,1.59194207
5ebc3097a9c38504ebd8a347,28,0,2024-02-28T14:24:02.446Z,english_774.wav,0,peel,1001,40,5,5,English,M,2,0.2,-78.67296896,1.92489987
5ebc3097a9c38504ebd8a347,28,0,2024-02-28T14:24:02.446Z,english_774.wav,0,peel,1001,40,5,5,English,M,3,0.3,-75.97471041,1.73224365
5ebc3097a9c38504ebd8a347,28,0,2024-02-28T14:24:02.446Z,english_774.wav,0,peel,1001,40,5,5,English,M,4,0.4,-9.72862999,0.83130124
5ebc3097a9c38504ebd8a347,28,0,2024-02-28T14:24:02.446Z,english_774.wav,0,peel,1001,40,5,5,English,M,5,0.5,-62.72542351,0.05776376
5ebc3097a9c38504ebd8a347,28,0,2024-02-28T14:24:02.446Z,english_774.wav,0,peel,1001,40,5,5,English,M,6,0.6,-92.46329741,0.22257067
5ebc3097a9c38504ebd8a347,28,0,2024-02-28T14:24:02.446Z,english_774.wav,0,peel,1001,40,5,5,English,M,7,0.7,9.68208163,0.82578939
5ebc3097a9c38504ebd8a347,28,0,2024-02-28T14:24:02.446Z,english_774.wav,0,peel,1001,40,5,5,English,M,8,0.8,-31.34266524,1.91233014
5ebc3097a9c38504ebd8a347,28,0,2024-02-28T14:24:02.446Z,english_774.wav,0,peel,1001,40,5,5,English,M,9,0.9,-62.50555476,1.41810173
5ebc3097a9c38504ebd8a347,28,0,2024-02-28T14:24:02.446Z,english_774.wav,0,peel,1001,40,5,5,English,M,10,1.0,-53.48833614,1.61286395
5ebc3097a9c38504ebd8a347,28,0,2024-02-28T14:24:02.446Z,english_774.wav,0,peel,1001,40,5,5,English,M,11,1.09391667,21.65178302,1.48005452
5ebc3097a9c38504ebd8a347,29,0,2024-02-28T14:24:02.446Z,english_646.wav,0,peel,696,40,5,5,English,M,0,0.0,-72.16367523,1.23252036
5ebc3097a9c38504ebd8a347,29,0,2024-02-28T14:24:02.446Z,english_646.wav,0,peel,696,40,5,5,English,M,1,0.1,89.23048569,0.41153547
5ebc3097a9c38504ebd8a347,29,0,2024-02-28T14:24:02.446Z,english_646.wav,0,peel,696,40,5,5,English,M,2,0.2,3.93643173,1.30500866
5ebc3097a9c38504ebd8a347,29,0,2024-02-28T14:24:02.446Z,english_646.wav,0,peel,696,40,5,5,English,M,3,0.3,32.33211102,0.16779894
5ebc3097a9c38504ebd8a347,29,0,2024-02-28T14:24:02.446Z,english_646.wav,0,peel,696,40,5,5,English,M,4,0.4,57.94131679,1.44956343
5ebc3097a9c38504ebd8a347,29,0,2024-02-28T14:24:02.446Z,english_646.wav,0,peel,696,40,5,5,English,M,5,0.5,3.36702109,0.43462
5ebc3097a9c38504ebd8a347,29,0,2024-02-28T14:24:02.446Z,english_646.wav,0,peel,696,40,5,5,English,M,6,0.6,61.97454592,1.17161273
5ebc3097a9c38504ebd8a347,29,0,2024-02-28T14:24:02.446Z,english_646.wav,0,peel,696,40,5,5,English,M,7,0.7,-38.94515992,1.33009112
5ebc3097a9c38504ebd8a347,29,0,2024-02-28T14:24:02.446Z,english_646.wav,0,peel,696,40,5,5,English,M,8,0.8,18.02819855,1.9601355
5ebc3097a9c38504ebd8a347,29,0,2024-02-28T14:24:02.446Z,english_646.wav,0,peel,696,40,5,5,English,M,9,0.9,-7.01403953,1.16018484
5ebc3097a9c38504ebd8a347,29,0,2024-02-28T14:24:02.446Z,english_646.wav,0,peel,696,40,5,5,English,M,10,1.0,22.99913436,0.4872476
5ebc3097a9c38504ebd8a347,29,0,2024-02-28T14:24:02.446Z,english_646.wav,0,peel,696,40,5,5,English,M,11,1.09391667,-15.24744046,0.4931797
5ebc3097a9c38504ebd8a347,30,0,2024-02-28T14:24:02.446Z,english_294.wav,0,peel,604,40,5,5,English,M,0,0.0,-35.26170476,0.76895084
5ebc3097a9c38504ebd8a347,30,0,2024-02-28T14:24:02.446Z,english_294.wav,0,peel,604,40,5,5,English,M,1,0.1,-68.79847515,0.42345848
5ebc3097a9c38504ebd8a347,30,0,2024-02-28T14:24:02.446Z,english_294.wav,0,peel,604,40,5,5,English,M,2,0.2,21.65443345,1.88759315
5ebc3097a9c38504ebd8a347,30,0,2024-02-28T14:24:02.446Z,english_294.wav,0,peel,604,40,5,5,English,M,3,0.3,18.61336719,0.20743541
5ebc3097a9c38504ebd8a347,30,0,2024-02-28T14:24:02.446Z,english_294.wav,0,peel,604,40,5,5,English,M,4,0.4,29.14118392,0.10193981
5ebc3097a9c38504ebd8a347,30,0,2024-02-28T14:24:02.446Z,english_294.wav,0,peel,604,40,5,5,English,M,5,0.5,-0.79474297,0.31438326
5ebc3097a9c38504ebd8a347,30,0,2024-02-28T14:24:02.446Z,english_294.wav,0,peel,604,40,5,5,English,M,6,0.6,-83.10715175,1.2995954
5ebc3097a9c38504ebd8a347,30,0,2024-02-28T14:24:02.446Z,english_294.wav,0,peel,604,40,5,5,English,M,7,0.7,-22.63410673,1.94703728
5ebc3097a9c38504ebd8a347,30,0,2024-02-28T14:24:02.446Z,english_294.wav,0,peel,604,40,5,5,English,M,8,0.8,-21.26415856,0.92366458
5ebc3097a9c38504ebd8a347,30,0,2024-02-28T14:24:02.446Z,english_294.wav,0,peel,604,40,5,5,English,M,9,0.9,47.90727918,1.04223302
5ebc3097a9c38504ebd8a347,30,0,2024-02-28T14:24:02.446Z,english_294.wav,0,peel,604,40,5,5,English,M,10,1.0,-39.88232682,1.01801331
5ebc3097a9c38504ebd8a347,30,0,2024-02-28T14:24:02.446Z,english_294.wav,0,peel,604,40,5,5,English,M,11,1.09391667,-74.09279353,0.911147
5ebc3097a9c38504ebd8a347,31,0,2024-02-28T14:24:02.446Z,english_760.wav,0,peel,769,40,5,5,English,M,0,0.0,47.27372451,1.90030816
5ebc3097a9c38504ebd8a347,31,0,2024-02-28T14:24:02.446Z,english_760.wav,0,peel,769,40,5,5,English,M,1,0.1,46.53530355,0.64747902
5ebc3097a9c38504ebd8a347,31,0,2024-02-28T14:24:02.446Z,english_760.wav,0,peel,769,40,5,5,English,M,2,0.2,-24.42746322,1.68645788
5ebc3097a9c38504ebd8a347,31,0,2024-02-28T14:24:02.446Z,english_760.wav,0,peel,769,40,5,5,English,M,3,0.3,-83.25481365,0.7717333
5ebc3097a9c38504ebd8a347,31,0,2024-02-28T14:24:02.446Z,english_760.wav,0,peel,769,40,5,5,English,M,4,0.4,-76.36732845,0.72158444
5ebc3097a9c38504ebd8a347,31,0,2024-02-28T14:24:02.446Z,english_760.wav,0,peel,769,40,5,5,English,M,5,0.5,49.65509994,1.63248564
5ebc3097a9c38504ebd8a347,31,0,2024-02-28T14:24:02.446Z,english_760.wav,0,peel,769,40,5,5,English,M,6,0.6,-0.21531061,0.67358777
5ebc3097a9c38504ebd8a347,31,0,2024-02-28T14:24:02.446Z,english_760.wav,0,peel,769,40,5,5,English,M,7,0.7,97.69744282,1.75458052
5ebc3097a9c38504ebd8a347,31,0,2024-02-28T14:24:02.446Z,english_760.wav,0,peel,769,40,5,5,English,M,8,0.8,-79.50455281,0.7766848
5ebc3097a9c38504ebd8a347,31,0,2024-02-28T14:24:02.446Z,english_760.wav,0,peel,769,40,5,5,English,M,9,0.9,-8.48709935,0.96559376
5ebc3097a9c38504ebd8a347,31,0,2024-02-28T14:24:02.446Z,english_760.wav,0,peel,769,40,5,5,English,M,10,1.0,-57.2440405,1.44704785
5ebc3097a9c38504ebd8a347,31,0,2024-02-28T14:24:02.446Z,english_760.wav,0,peel,769,40,5,5,English,M,11,1.09391667,-52.62348211,0.65092854
5ebc3097a9c38504ebd8a347,32,0,2024-02-28T14:24:02.446Z,english_953.wav,0,pill,783,40,5,5,English,M,0,0.0,66.99743889,1.15286604
5ebc3097a9c38504ebd8a347,32,0,2024-02-28T14:24:02.446Z,english_953.wav,0,pill,783,40,5,5,English,M,1,0.1,-76.84252631,1.84100888
5ebc3097a9c38504ebd8a347,32,0,2024-02-28T14:24:02.446Z,english_953.wav,0,pill,783,40,5,5,English,M,2,0.2,-45.49309493,0.29896559
5ebc3097a9c38504ebd8a347,32,0,2024-02-28T14:24:02.446Z,english_953.wav,0,pill,783,40,5,5,English,M,3,0.3,55.46461894,0.47017465
5ebc3097a9c38504ebd8a347,32,0,2024-02-28T14:24:02.446Z,english_953.wav,0,pill,783,40,5,5,English,M,4,0.4,81.99201124,0.15248902
5ebc3097a9c38504ebd8a347,32,0,2024-02-28T14:24:02.446Z,english_953.wav,0,pill,783,40,5,5,English,M,5,0.5,1.34607331,1.13290225
5ebc3097a9c38504ebd8a347,32,0,2024-02-28T14:24:02.446Z,english_953.wav,0,pill,783,40,5,5,English,M,6,0.6,50.45029952,0.34595451
5ebc3097a9c38504ebd8a347,32,0,2024-02-28T14:24:02.446Z,english_953.wav,0,pill,783,40,5,5,English,M,7,0.7,74.64893983,0.44244875
5ebc3097a9c38504ebd8a347,32,0,2024-02-28T14:24:02.446Z,english_953.wav,0,pill,783,40,5,5,English,M,8,0.8,26.00448077,0.8076701
5ebc3097a9c38504ebd8a347,32,0,2024-02-28T14:24:02.446Z,english_953.wav,0,pill,783,40,5,5,English,M,9,0.9,-99.39894728,1.93347558
5ebc3097a9c38504ebd8a347,32,0,2024-02-28T14:24:02.446Z,english_953.wav,0,pill,783,40,5,5,English,M,10,1.0,-16.71063882,1.69365872
5ebc3097a9c38504ebd8a347,32,0,2024-02-28T14:24:02.446Z,english_953.wav,0,pill,783,40,5,5,English,M,11,1.09391667,53.60095231,1.16220812
5ebc3097a9c38504ebd8a347,33,0,2024-02-28T14:24:02.446Z,english_621.wav,0,pill,748,40,5,5,English,M,0,0.0,-74.24878318,0.93601321
5ebc3097a9c38504ebd8a347,33,0,2024-02-28T14:24:02.446Z,english_621.wav,0,pill,748,40,5,5,English,M,1,0.1,-12.82719127,0.02173653
5ebc3097a9c38504ebd8a347,33,0,2024-02-28T14:24:02.446Z,english_621.wav,0,pill,748,40,5,5,English,M,2,0.2,3.61853193,1.07860453
5ebc3097a9c38504ebd8a347,33,0,2024-02-28T14:24:02.446Z,english_621.wav,0,pill,748,40,5,5,English,M,3,0.3,-16.39499855,0.96714094
5ebc3097a9c38504ebd8a347,33,0,2024-02-28T14:24:02.446Z,english_621.wav,0,pill,748,40,5,5,English,M,4,0.4,-89.70056374,1.95658064
5ebc3097a9c38504ebd8a347,33,0,2024-02-28T14:24:02.446Z,english_621.wav,0,pill,748,40,5,5,English,M,5,0.5,72.53085493,1.88201263
5ebc3097a9c38504ebd8a347,33,0,2024-02-28T14:24:02.446Z,english_621.wav,0,pill,748,40,5,5,English,M,6,0.6,87.29143958,0.77277656
5ebc3097a9c38504ebd8a347,33,0,2024-02-28T14:24:02.446Z,english_621.wav,0,pill,748,40,5,5,English,M,7,0.7,-71.1226898,1.76144164
5ebc3097a9c38504ebd8a347,33,0,2024-02-28T14:24:02.446Z,english_621.wav,0,pill,748,40,5,5,English,M,8,0.8,-39.19004307,0.10690587
5ebc3097a9c38504ebd8a347,33,0,2024-02-28T14:24:02.446Z,english_621.wav,0,pill,748,40,5,5,English,M,9,0.9,-51.74295002,0.22188414
5ebc3097a9c38504ebd8a347,33,0,2024-02-28T14:24:02.446Z,english_621.wav,0,pill,748,40,5,5,English,M,10,1.0,-16.28254182,0.28939347
5ebc3097a9c38504ebd8a347,33,0,2024-02-28T14:24:02.446Z,english_621.wav,0,pill,748,40,5,5,English,M,11,1.09391667,-19.75159105,1.03317567
5ebc3097a9c38504ebd8a347,34,0,2024-02-28T14:24:02.446Z,english_497.wav,0,pill,783,40,5,5,English,M,0,0.0,80.19747469,0.03666691
5ebc3097a9c38504ebd8a347,34,0,2024-02-28T14:24:02.446Z,english_497.wav,0,pill,783,40,5,5,English,M,1,0.1,-96.43069026,0.31407974
5ebc3097a9c38504ebd8a347,34,0,2024-02-28T14:24:02.446Z,english_497.wav,0,pill,783,40,5,5,English,M,2,0.2,6.71798647,0.70160097
5ebc3097a9c38504ebd8a347,34,0,2024-02-28T14:24:02.446Z,english_497.wav,0,pill,783,40,5,5,English,M,3,0.3,19.69444111,1.30733275
5ebc3097a9c38504ebd8a347,34,0,2024-02-28T14:24:02.446Z,english_497.wav,0,pill,783,40,5,5,English,M,4,0.4,-18.5018769,1.0770642
5ebc3097a9c38504ebd8a347,34,0,2024-02-28T14:24:02.446Z,english_497.wav,0,pill,783,40,5,5,English,M,5,0.5,-89.69065854,1.1030143
5ebc3097a9c38504ebd8a347,34,0,2024-02-28T14:24:02.446Z,english_497.wav,0,pill,783,40,5,5,English,M,6,0.6,18.45091423,0.72184595
5ebc3097a9c38504ebd8a347,34,0,2024-02-28T14:24:02.446Z,english_497.wav,0,pill,783,40,5,5,English,M,7,0.7,58.14918595,0.59634745
5ebc3097a9c38504ebd8a347,34,0,2024-02-28T14:24:02.446Z,english_497.wav,0,pill,783,40,5,5,English,M,8,0.8,-12.73126571,0.95783225
5ebc3097a9c38504ebd8a347,34,0,2024-02-28T14:24:02.446Z,english_497.wav,0,pill,783,40,5,5,English,M,9,0.9,-37.82928272,0.84592096
5ebc3097a9c38504ebd8a347,34,0,2024-02-28T14:24:02.446Z,english_497.wav,0,pill,783,40,5,5,English,M,10,1.0,-47.82962272,1.86600497
5ebc3097a9c38504ebd8a347,34,0,2024-02-28T14:24:02.446Z,english_497.wav,0,pill,783,40,5,5,English,M,11,1.09391667,-71.69807159,0.50915901
5ebc3097a9c38504ebd8a347,35,0,2024-02-28T14:24:02.446Z,english_689.wav,0,pill,1314,40,5,5,English,M,0,0.0,83.12133252,1.04214093
5ebc3097a9c38504ebd8a347,35,0,2024-02-28T14:24:02.446Z,english_689.wav,0,pill,1314,40,5,5,English,M,1,0.1,-80.97372196,0.40468985
5ebc3097a9c38504ebd8a347,35,0,2024-02-28T14:24:02.446Z,english_689.wav,0,pill,1314,40,5,5,English,M,2,0.2,-28.26528551,1.50877389
5ebc3097a9c38504ebd8a347,35,0,2024-02-28T14:24:02.446Z,english_689.wav,0,pill,1314,40,5,5,English,M,3,0.3,42.6688421,1.67206734
5ebc3097a9c38504ebd8a347,35,0,2024-02-28T14:24:02.446Z,english_689.wav,0,pill,1314,40,5,5,English,M,4,0.4,6.31951717,1.24892229
5ebc3097a9c38504ebd8a347,35,0,2024-02-28T14:24:02.446Z,english_689.wav,0,pill,1314,40,5,5,English,M,5,0.5,65.13167849,0.38767445
5ebc3097a9c38504ebd8a347,35,0,2024-02-28T14:24:02.446Z,english_689.wav,0,pill,1314,40,5,5,English,M,6,0.6,-21.58547915,1.45702475
5ebc3097a9c38504ebd8a347,35,0,2024-02-28T14:24:02.446Z,english_689.wav,0,pill,1314,40,5,5,English,M,7,0.7,-38.42350837,0.16690889
5ebc3097a9c38504ebd8a347,35,0,2024-02-28T14:24:02.446Z,english_689.wav,0,pill,1314,40,5,5,English,M,8,0.8,72.27336224,1.13554192
5ebc3097a9c38504ebd8a347,35,0,2024-02-28T14:24:02.446Z,english_689.wav,0,pill,1314,40,5,5,English,M,9,0.9,-22.08116071,0.21927817
5ebc3097a9c38504ebd8a347,35,0,2024-02-28T14:24:02.446Z,english_689.wav,0,pill,1314,40,5,5,English,M,10,1.0,-2.34337227,0.41094591
5ebc3097a9c38504ebd8a347,35,0,2024-02-28T14:24:02.446Z,english_689.wav,0,pill,1314,40,5,5,English,M,11,1.09391667,32.05995553,0.34398042
5ebc3097a9c38504ebd8a347,36,0,2024-02-28T14:24:02.446Z,english_189.wav,0,peel,399,40,5,5,English,M,0,0.0,38.06728106,1.56553487
5ebc3097a9c38504ebd8a347,36,0,2024-02-28T14:24:02.446Z,english_189.wav,0,peel,399,40,5,5,English,M,1,0.1,-1.4916867,1.31424407
5ebc3097a9c38504ebd8a347,36,0,2024-02-28T14:24:02.446Z,english_189.wav,0,peel,399,40,5,5,English,M,2,0.2,43.23022726,1.86938367
5ebc3097a9c38504ebd8a347,36,0,2024-02-28T14:24:02.446Z,english_189.wav,0,peel,399,40,5,5,English,M,3,0.3,70.52777392,0.10876999
5ebc3097a9c38504ebd8a347,36,0,2024-02-28T14:24:02.446Z,english_189.wav,0,peel,399,40,5,5,English,M,4,0.4,-59.79939787,1.05429822
5ebc3097a9c38504ebd8a347,36,0,2024-02-28T14:24:02.446Z,english_189.wav,0,peel,399,40,5,5,English,M,5,0.5,5.41678611,0.01998106
5ebc3097a9c38504ebd8a347,36,0,2024-02-28T14:24:02.446Z,english_189.wav,0,peel,399,40,5,5,English,M,6,0.6,44.76349545,0.98555546
5ebc3097a9c38504ebd8a347,36,0,2024-02-28T14:24:02.446Z,english_189.wav,0,peel,399,40,5,5,English,M,7,0.7,-14.25166989,1.99583415
5ebc3097a9c38504ebd8a347,36,0,2024-02-28T14:24:02.446Z,english_189.wav,0,peel,399,40,5,5,English,M,8,0.8,-20.12101429,0.39293902
5ebc3097a9c38504ebd8a347,36,0,2024-02-28T14:24:02.446Z,english_189.wav,0,peel,399,40,5,5,English,M,9,0.9,-43.3681134,0.55662411
5ebc3097a9c38504ebd8a347,36,0,2024-02-28T14:24:02.446Z,english_189.wav,0,peel,399,40,5,5,English,M,10,1.0,-43.09833267,0.66082483
5ebc3097a9c38504ebd8a347,36,0,2024-02-28T14:24:02.446Z,english_189.wav,0,peel,399,40,5,5,English,M,11,1.09391667,-43.67138872,0.74070611
5ebc3097a9c38504ebd8a347,37,0,2024-02-28T14:24:02.446Z,english_736.wav,0,pill,1234,40,5,5,English,M,0,0.0,-40.28778627,1.23426282
5ebc3097a9c38504ebd8a347,37,0,2024-02-28T14:24:02.446Z,english_736.wav,0,pill,1234,40,5,5,English,M,1,0.1,-59.09726207,0.97807774
5ebc3097a9c38504ebd8a347,37,0,2024-02-28T14:24:02.446Z,english_736.wav,0,pill,1234,40,5,5,English,M,2,0.2,98.49969238,0.54049946
5ebc3097a9c38504ebd8a347,37,0,2024-02-28T14:24:02.446Z,english_736.wav,0,pill,1234,40,5,5,English,M,3,0.3,46.0778128,1.1691641
5ebc3097a9c38504ebd8a347,37,0,2024-02-28T14:24:02.446Z,english_736.wav,0,pill,1234,40,5,5,English,M,4,0.4,-55.04304699,1.22843398
5ebc3097a9c38504ebd8a347,37,0,2024-02-28T14:24:02.446Z,english_736.wav,0,pill,1234,40,5,5,English,M,5,0.5,34.12740936,0.9861662
5ebc3097a9c38504ebd8a347,37,0,2024-02-28T14:24:02.446Z,english_736.wav,0,pill,1234,40,5,5,English,M,6,0.6,54.26275803,0.17445904
5ebc3097a9c38504ebd8a347,37,0,2024-02-28T14:24:02.446Z,english_736.wav,0,pill,1234,40,5,5,English,M,7,0.7,-55.98308326,1.1578723
5ebc3097a9c38504ebd8a347,37,0,2024-02-28T14:24:02.446Z,english_736.wav,0,pill,1234,40,5,5,English,M,8,0.8,59.79863481,1.37075184
5ebc3097a9c38504ebd8a347,37,0,2024-02-28T14:24:02.446Z,english_736.wav,0,pill,1234,40,5,5,English,M,9,0.9,88.14503005,1.47849055
5ebc3097a9c38504ebd8a347,37,0,2024-02-28T14:24:02.446Z,english_736.wav,0,pill,1234,40,5,5,English,M,10,1.0,91.37007784,0.08571689
5ebc3097a9c38504ebd8a347,37,0,2024-02-28T14:24:02.446Z,english_736.wav,0,pill,1234,40,5,5,English,M,11,1.09391667,76.63160817,1.4768314
5ebc3097a9c38504ebd8a347,38,0,2024-02-28T14:24:02.446Z,english_260.wav,0,pill,516,40,5,5,English,M,0,0.0,15.97763116,1.94177241
5ebc3097a9c38504ebd8a347,38,0,2024-02-28T14:24:02.446Z,english_260.wav,0,pill,516,40,5,5,English,M,1,0.1,-13.3847134,0.74015027
5ebc3097a9c38504ebd8a347,38,0,2024-02-28T14:24:02.446Z,english_260.wav,0,pill,516,40,5,5,English,M,2,0.2,-29.63675022,0.26772348
5ebc3097a9c38504ebd8a347,38,0,2024-02-28T14:24:02.446Z,english_260.wav,0,pill,516,40,5,5,English,M,3,0.3,-94.12252117,0.24482628
5ebc3097a9c38504ebd8a347,38,0,2024-02-28T14:24:02.446Z,english_260.wav,0,pill,516,40,5,5,English,M,4,0.4,37.44404644,0.73676391
5ebc3097a9c38504ebd8a347,38,0,2024-02-28T14:24:02.446Z,english_260.wav,0,pill,516,40,5,5,English,M,5,0.5,-13.47562993,0.3869803
5ebc3097a9c38504ebd8a347,38,0,2024-02-28T14:24:02.446Z,english_260.wav,0,pill,516,40,5,5,English,M,6,0.6,28.72077468,0.62582606
5ebc3097a9c38504ebd8a347,38,0,2024-02-28T14:24:02.446Z,english_260.wav,0,pill,516,40,5,5,English,M,7,0.7,-25.31213713,0.50244213
5ebc3097a9c38504ebd8a347,38,0,2024-02-28T14:24:02.446Z,english_260.wav,0,pill,516,40,5,5,English,M,8,0.8,12.33791488,0.1260874
5ebc3097a9c38504ebd8a347,38,0,2024-02-28T14:24:02.446Z,english_260.wav,0,pill,516,40,5,5,English,M,9,0.9,1.56732473,0.8031848
5ebc3097a9c38504ebd8a347,38,0,2024-02-28T14:24:02.446Z,english_260.wav,0,pill,516,40,5,5,English,M,10,1.0,-29.87361041,1.5387452
5ebc3097a9c38504ebd8a347,38,0,2024-02-28T14:24:02.446Z,english_260.wav,0,pill,516,40,5,5,English,M,11,1.09391667,9.56042619,0.69389389
5ebc3097a9c38504ebd8a347,39,0,2024-02-28T14:24:02.446Z,english_519.wav,0,peel,499,40,5,5,English,M,0,0.0,-89.70690317,1.70012146
5ebc3097a9c38504ebd8a347,39,0,2024-02-28T14:24:02.446Z,english_519.wav,0,peel,499,40,5,5,English,M,1,0.1,12.73288581,0.30558637
5ebc3097a9c38504ebd8a347,39,0,2024-02-28T14:24:02.446Z,english_519.wav,0,peel,499,40,5,5,English,M,2,0.2,-28.85796661,1.20634899
5ebc3097a9c38504ebd8a347,39,0,2024-02-28T14:24:02.446Z,english_519.wav,0,peel,499,40,5,5,English,M,3,0.3,26.94929279,0.03671801
5ebc3097a9c38504ebd8a347,39,0,2024-02-28T14:24:02.446Z,english_519.wav,0,peel,499,40,5,5,English,M,4,0.4,88.17509723,1.89470366
5ebc3097a9c38504ebd8a347,39,0,2024-02-28T14:24:02.446Z,english_519.wav,0,peel,499,40,5,5,English,M,5,0.5,-36.4551596,1.56676756
5ebc3097a9c38504ebd8a347,39,0,2024-02-28T14:24:02.446Z,english_519.wav,0,peel,499,40,5,5,English,M,6,0.6,24.45140187,0.94993833
5ebc3097a9c38504ebd8a347,39,0,2024-02-28T14:24:02.446Z,english_519.wav,0,peel,499,40,5,5,English,M,7,0.7,7.63765931,1.07658622
5ebc3097a9c38504ebd8a347,39,0,2024-02-28T14:24:02.446Z,english_519.wav,0,peel,499,40,5,5,English,M,8,0.8,1.30228681,1.81741966
5ebc3097a9c38504ebd8a347,39,0,2024-02-28T14:24:02.446Z,english_519.wav,0,peel,499,40,5,5,English,M,9,0.9,72.18985419,0.56710914
5ebc3097a9c38504ebd8a347,39,0,2024-02-28T14:24:02.446Z,english_519.wav,0,peel,499,40,5,5,English,M,10,1.0,-56.35512761,0.45384515
5ebc3097a9c38504ebd8a347,39,0,2024-02-28T14:24:02.446Z,english_519.wav,0,peel,499,40,5,5,English,M,11,1.09391667,-27.12026306,1.11287687
5ebc3097a9c38504ebd8a347,40,0,2024-02-28T14:24:02.446Z,english_164.wav,0,peel,510,40,5,5,English,M,0,0.0,25.67612046,1.60368468
5ebc3097a9c38504ebd8a347,40,0,2024-02-28T14:24:02.446Z,english_164.wav,0,peel,510,40,5,5,English,M,1,0.1,-73.22421847,0.71109799
5ebc3097a9c38504ebd8a347,40,0,2024-02-28T14:24:02.446Z,english_164.wav,0,peel,510,40,5,5,English,M,2,0.2,45.60415064,0.65921899
5ebc3097a9c38504ebd8a347,40,0,2024-02-28T14:24:02.446Z,english_164.wav,0,peel,510,40,5,5,English,M,3,0.3,93.27879502,1.59053842
5ebc3097a9c38504ebd8a347,40,0,2024-02-28T14:24:02.446Z,english_164.wav,0,peel,510,40,5,5,English,M,4,0.4,33.1762566,0.71799916
5ebc3097a9c38504ebd8a347,40,0,2024-02-28T14:24:02.446Z,english_164.wav,0,peel,510,40,5,5,English,M,5,0.5,47.64320434,1.2187377
5ebc3097a9c38504ebd8a347,40,0,2024-02-28T14:24:02.446Z,english_164.wav,0,peel,510,40,5,5,English,M,6,0.6,-19.19510789,1.25318934
5ebc3097a9c38504ebd8a347,40,0,2024-02-28T14:24:02.446Z,english_164.wav,0,peel,510,40,5,5,English,M,7,0.7,-33.42680653,0.56903982
5ebc3097a9c38504ebd8a347,40,0,2024-02-28T14:24:02.446Z,english_164.wav,0,peel,510,40,5,5,English,M,8,0.8,47.71435933,0.44355463
5ebc3097a9c38504ebd8a347,40,0,2024-02-28T14:24:02.446Z,english_164.wav,0,peel,510,40,5,5,English,M,9,0.9,5.90681892,1.65481096
5ebc3097a9c38504ebd8a347,40,0,2024-02-28T14:24:02.446Z,english_164.wav,0,peel,510,40,5,5,English,M,10,1.0,42.52423942,0.56871191
5ebc3097a9c38504ebd8a347,40,0,2024-02-28T14:24:02.446Z,english_164.wav,0,peel,510,40,5,5,English,M,11,1.09391667,43.22160039,0.29440298
5ebc3097a9c38504ebd8a347,41,0,2024-02-28T14:24:02.446Z,english_740.wav,0,peel,558,40,5,5,English,M,0,0.0,44.23615519,0.18420553
5ebc3097a9c38504ebd8a347,41,0,2024-02-28T14:24:02.446Z,english_740.wav,0,peel,558,40,5,5,English,M,1,0.1,98.76848798,0.33702749
5ebc3097a9c38504ebd8a347,41,0,2024-02-28T14:24:02.446Z,english_740.wav,0,peel,558,40,5,5,English,M,2,0.2,-87.19170744,1.65487116
5ebc3097a9c38504ebd8a347,41,0,2024-02-28T14:24:02.446Z,english_740.wav,0,peel,558,40,5,5,English,M,3,0.3,17.94684961,1.85046367
5ebc3097a9c38504ebd8a347,41,0,2024-02-28T14:24:02.446Z,english_740.wav,0,peel,558,40,5,5,English,M,4,0.4,-12.45304931,1.41062797
5ebc3097a9c38504ebd8a347,41,0,2024-02-28T14:24:02.446Z,english_740.wav,0,peel,558,40,5,5,English,M,5,0.5,-75.39454761,0.63278533
5ebc3097a9c38504ebd8a347,41,0,2024-02-28T14:24:02.446Z,english_740.wav,0,peel,558,40,5,5,English,M,6,0.6,-53.40311478,0.41831459
5ebc3097a9c38504ebd8a347,41,0,2024-02-28T14:24:02.446Z,english_740.wav,0,peel,558,40,5,5,English,M,7,0.7,-59.89405571,0.99199332
5ebc3097a9c38504ebd8a347,41,0,2024-02-28T14:24:02.446Z,english_740.wav,0,peel,558,40,5,5,English,M,8,0.8,75.23070465,1.19341016
5ebc3097a9c38504ebd8a347,41,0,2024-02-28T14:24:02.446Z,english_740.wav,0,peel,558,40,5,5,English,M,9,0.9,-2.56343276,1.12149102
5ebc3097a9c38504ebd8a347,41,0,2024-02-28T14:24:02.446Z,english_740.wav,0,peel,558,40,5,5,English,M,10,1.0,-6.86096821,0.55698581
5ebc3097a9c38504ebd8a347,41,0,2024-02-28T14:24:02.446Z,english_740.wav,0,peel,558,40,5,5,English,M,11,1.09391667,-15.16975803,1.3020905
5ebc3097a9c38504ebd8a347,42,0,2024-02-28T14:24:02.446Z,english_477.wav,0,peel,598,40,5,5,English,M,0,0.0,44.11369928,1.39445147
5ebc3097a9c38504ebd8a347,42,0,2024-02-28T14:24:02.446Z,english_477.wav,0,peel,598,40,5,5,English,M,1,0.1,-49.72421876,1.98393148
5ebc3097a9c38504ebd8a347,42,0,2024-02-28T14:24:02.446Z,english_477.wav,0,peel,598,40,5,5,English,M,2,0.2,37.81687243,1.85807547
5ebc3097a9c38504ebd8a347,42,0,2024-02-28T14:24:02.446Z,english_477.wav,0,peel,598,40,5,5,English,M,3,0.3,-52.5290051,0.71490172
5ebc3097a9c38504ebd8a347,42,0,2024-02-28T14:24:02.446Z,english_477.wav,0,peel,598,40,5,5,English,M,4,0.4,42.12087864,0.37809407
5ebc3097a9c38504ebd8a347,42,0,2024-02-28T14:24:02.446Z,english_477.wav,0,peel,598,40,5,5,English,M,5,0.5,-3.66730799,0.12826759
5ebc3097a9c38504ebd8a347,42,0,2024-02-28T14:24:02.446Z,english_477.wav,0,peel,598,40,5,5,English,M,6,0.6,34.46605835,0.32776618
5ebc3097a9c38504ebd8a347,42,0,2024-02-28T14:24:02.446Z,english_477.wav,0,peel,598,40,5,5,English,M,7,0.7,92.87725089,0.64947081
5ebc3097a9c38504ebd8a347,42,0,2024-02-28T14:24:02.446Z,english_477.wav,0,peel,598,40,5,5,English,M,8,0.8,-80.85076749,1.06355304
5ebc3097a9c38504ebd8a347,42,0,2024-02-28T14:24:02.446Z,english_477.wav,0,peel,598,40,5,5,English,M,9,0.9,-9.36766275,1.32938803
5ebc3097a9c38504ebd8a347,42,0,2024-02-28T14:24:02.446Z,english_477.wav,0,peel,598,40,5,5,English,M,10,1.0,76.24737873,1.22597552
5ebc3097a9c38504ebd8a347,42,0,2024-02-28T14:24:02.446Z,english_477.wav,0,peel,598,40,5,5,English,M,11,1.09391667,-13.80306297,1.00606008
5ebc3097a9c38504ebd8a347,43,0,2024-02-28T14:24:02.446Z,english_443.wav,0,peel,1501,40,5,5,English,M,0,0.0,81.96165797,0.75557645
5ebc3097a9c38504ebd8a347,43,0,2024-02-28T14:24:02.446Z,english_443.wav,0,peel,1501,40,5,5,English,M,1,0.1,-28.05483683,1.24238721
5ebc3097a9c38504ebd8a347,43,0,2024-02-28T14:24:02.446Z,english_443.wav,0,peel,1501,40,5,5,English,M,2,0.2,-21.59346314,1.29479034
5ebc3097a9c38504ebd8a347,43,0,2024-02-28T14:24:02.446Z,english_443.wav,0,peel,1501,40,5,5,English,M,3,0.3,1.08429848,1.78084003
5ebc3097a9c38504ebd8a347,43,0,2024-02-28T14:24:02.446Z,english_443.wav,0,peel,1501,40,5,5,English,M,4,0.4,21.43423257,0.20990132
5ebc3097a9c38504ebd8a347,43,0,2024-02-28T14:24:02.446Z,english_443.wav,0,peel,1501,40,5,5,English,M,5,0.5,75.67535371,0.69063729
5ebc3097a9c38504ebd8a347,43,0,2024-02-28T14:24:02.446Z,english_443.wav,0,peel,1501,40,5,5,English,M,6,0.6,-12.42326874,1.52523801
5ebc3097a9c38504ebd8a347,43,0,2024-02-28T14:24:02.446Z,english_443.wav,0,peel,1501,40,5,5,English,M,7,0.7,-43.03784954,1.69469222
5ebc3097a9c38504ebd8a347,43,0,2024-02-28T14:24:02.446Z,english_443.wav,0,peel,1501,40,5,5,English,M,8,0.8,-95.88108409,1.5231422
5ebc3097a9c38504ebd8a347,43,0,2024-02-28T14:24:02.446Z,english_443.wav,0,peel,1501,40,5,5,English,M,9,0.9,5.88501358,0.01978813
5ebc3097a9c38504ebd8a347,43,0,2024-02-28T14:24:02.446Z,english_443.wav,0,peel,1501,40,5,5,English,M,10,1.0,-74.23415878,0.32318558
5ebc3097a9c38504ebd8a347,43,0,2024-02-28T14:24:02.446Z,english_443.wav,0,peel,1501,40,5,5,English,M,11,1.09391667,-13.77398798,1.99092699
5ebc3097a9c38504ebd8a347,44,0,2024-02-28T14:24:02.446Z,english_464.wav,0,peel,1928,40,5,5,English,M,0,0.0,-23.34522256,1.83574023
5ebc3097a9c38504ebd8a347,44,0,2024-02-28T14:24:02.446Z,english_464.wav,0,peel,1928,40,5,5,English,M,1,0.1,-19.55225305,1.45464116
5ebc3097a9c38504ebd8a347,44,0,2024-02-28T14:24:02.446Z,english_464.wav,0,peel,1928,40,5,5,English,M,2,0.2,-17.46601835,0.96557802
5ebc3097a9c38504ebd8a347,44,0,2024-02-28T14:24:02.446Z,english_464.wav,0,peel,1928,40,5,5,English,M,3,0.3,-18.06083259,0.862048
5ebc3097a9c38504ebd8a347,44,0,2024-02-28T14:24:02.446Z,english_464.wav,0,peel,1928,40,5,5,English,M,4,0.4,39.93999663,1.49154181
5ebc3097a9c38504ebd8a347,44,0,2024-02-28T14:24:02.446Z,english_464.wav,0,peel,1928,40,5,5,English,M,5,0.5,18.26379158,0.8466408
5ebc3097a9c38504ebd8a347,44,0,2024-02-28T14:24:02.446Z,english_464.wav,0,peel,1928,40,5,5,English,M,6,0.6,29.05119834,1.01287791
5ebc3097a9c38504ebd8a347,44,0,2024-02-28T14:24:02.446Z,english_464.wav,0,peel,1928,40,5,5,English,M,7,0.7,-59.7360239,0.24671588
5ebc3097a9c38504ebd8a347,44,0,2024-02-28T14:24:02.446Z,english_464.wav,0,peel,1928,40,5,5,English,M,8,0.8,88.20887552,1.40889965
5ebc3097a9c38504ebd8a347,44,0,2024-02-28T14:24:02.446Z,english_464.wav,0,peel,1928,40,5,5,English,M,9,0.9,-3.73411856,0.91232797
5ebc3097a9c38504ebd8a347,44,0,2024-02-28T14:24:02.446Z,english_464.wav,0,peel,1928,40,5,5,English,M,10,1.0,-94.561572,0.94183149
5ebc3097a9c38504ebd8a347,44,0,2024-02-28T14:24:02.446Z,english_464.wav,0,peel,1928,40,5,5,English,M,11,1.09391667,-28.03048225,1.23465261
5ebc3097a9c38504ebd8a347,45,0,2024-02-28T14:24:02.446Z,english_354.wav,0,pill,1581,40,5,5,English,M,0,0.0,-28.87420486,0.20754018
5ebc3097a9c38504ebd8a347,45,0,2024-02-28T14:24:02.446Z,english_354.wav,0,pill,1581,40,5,5,English,M,1,0.1,-23.35112853,1.88177303
5ebc3097a9c38504ebd8a347,45,0,2024-02-28T14:24:02.446Z,english_354.wav,0,pill,1581,40,5,5,English,M,2,0.2,5.36311679,1.60863404
5ebc3097a9c38504ebd8a347,45,0,2024-02-28T14:24:02.446Z,english_354.wav,0,pill,1581,40,5,5,English,M,3,0.3,88.42745553,0.83478671
5ebc3097a9c38504ebd8a347,45,0,2024-02-28T14:24:02.446Z,english_354.wav,0,pill,1581,40,5,5,English,M,4,0.4,2.47520697,1.51310965
5ebc3097a9c38504ebd8a347,45,0,2024-02-28T14:24:02.446Z,english_354.wav,0,pill,1581,40,5,5,English,M,5,0.5,46.1200008,1.04317866
5ebc3097a9c38504ebd8a347,45,0,2024-02-28T14:24:02.446Z,english_354.wav,0,pill,1581,40,5,5,English,M,6,0.6,-18.78131858,0.09474749
5ebc3097a9c38504ebd8a347,45,0,2024-02-28T14:24:02.446Z,english_354.wav,0,pill,1581,40,5,5,English,M,7,0.7,-50.4047441,1.6889762
5ebc3097a9c38504ebd8a347,45,0,2024-02-28T14:24:02.446Z,english_354.wav,0,pill,1581,40,5,5,English,M,8,0.8,70.60844452,0.35231613
5ebc3097a9c38504ebd8a347,45,0,2024-02-28T14:24:02.446Z,english_354.wav,0,pill,1581,40,5,5,English,M,9,0.9,-79.1017332,0.20561504
5ebc3097a9c38504ebd8a347,45,0,2024-02-28T14:24:02.446Z,english_354.wav,0,pill,1581,40,5,5,English,M,10,1.0,-66.82350364,0.40462269
5ebc3097a9c38504ebd8a347,45,0,2024-02-28T14:24:02.446Z,english_354.wav,0,pill,1581,40,5,5,English,M,11,1.09391667,-48.20226443,0.51831425
5ebc3097a9c38504ebd8a347,46,0,2024-02-28T14:24:02.446Z,english_455.wav,0,pill,1466,40,5,5,English,M,0,0.0,26.42834913,1.62221941
5ebc3097a9c38504ebd8a347,46,0,2024-02-28T14:24:02.446Z,english_455.wav,0,pill,1466,40,5,5,English,M,1,0.1,-7.65720218,1.46036611
5ebc3097a9c38504ebd8a347,46,0,2024-02-28T14:24:02.446Z,english_455.wav,0,pill,1466,40,5,5,English,M,2,0.2,-36.03524122,1.24406571
5ebc3097a9c38504ebd8a347,46,0,2024-02-28T14:24:02.446Z,english_455.wav,0,pill,1466,40,5,5,English,M,3,0.3,-9.36591816,1.98304613
5ebc3097a9c38504ebd8a347,46,0,2024-02-28T14:24:02.446Z,english_455.wav,0,pill,1466,40,5,5,English,M,4,0.4,74.01503077,0.42616314
5ebc3097a9c38504ebd8a347,46,0,2024-02-28T14:24:02.446Z,english_455.wav,0,pill,1466,40,5,5,English,M,5,0.5,-66.92719297,0.24476163
5ebc3097a9c38504ebd8a347,46,0,2024-02-28T14:24:02.446Z,english_455.wav,0,pill,1466,40,5,5,English,M,6,0.6,-30.7057444,1.77552442
5ebc3097a9c38504ebd8a347,46,0,2024-02-28T14:24:02.446Z,english_455.wav,0,pill,1466,40,5,5,English,M,7,0.7,40.84752834,1.05242247
5ebc3097a9c38504ebd8a347,46,0,2024-02-28T14:24:02.446Z,english_455.wav,0,pill,1466,40,5,5,English,M,8,0.8,15.65936383,0.70330742
5ebc3097a9c38504ebd8a347,46,0,2024-02-28T14:24:02.446Z,english_455.wav,0,pill,1466,40,5,5,English,M,9,0.9,-13.21472975,0.60059781
5ebc3097a9c38504ebd8a347,46,0,2024-02-28T14:24:02.446Z,english_455.wav,0,pill,1466,40,5,5,English,M,10,1.0,44.82999828,0.40485906
5ebc3097a9c38504ebd8a347,46,0,2024-02-28T14:24:02.446Z,english_455.wav,0,pill,1466,40,5,5,English,M,11,1.09391667,-79.02570563,1.70610938
5ebc3097a9c38504ebd8a347,47,0,2024-02-28T14:24:02.446Z,english_509.wav,0,peel,700,40,5,5,English,M,0,0.0,-60.47633283,1.8433091
5ebc3097a9c38504ebd8a347,47,0,2024-02-28T14:24:02.446Z,english_509.wav,0,peel,700,40,5,5,English,M,1,0.1,62.43182062,0.67753575
5ebc3097a9c38504ebd8a347,47,0,2024-02-28T14:24:02.446Z,english_509.wav,0,peel,700,40,5,5,English,M,2,0.2,-89.10254598,0.6228286
5ebc3097a9c38504ebd8a347,47,0,2024-02-28T14:24:02.446Z,english_509.wav,0,peel,700,40,5,5,English,M,3,0.3,-56.00324349,1.20175852
5ebc3097a9c38504ebd8a347,47,0,2024-02-28T14:24:02.446Z,english_509.wav,0,peel,700,40,5,5,English,M,4,0.4,-22.97503075,0.68327781
5ebc3097a9c38504ebd8a347,47,0,2024-02-28T14:24:02.446Z,english_509.wav,0,peel,700,40,5,5,English,M,5,0.5,-10.58010289,1.6981399
5ebc3097a9c38504ebd8a347,47,0,2024-02-28T14:24:02.446Z,english_509.wav,0,peel,700,40,5,5,English,M,6,0.6,41.52809509,1.77808046
5ebc3097a9c38504ebd8a347,47,0,2024-02-28T14:24:02.446Z,english_509.wav,0,peel,700,40,5,5,English,M,7,0.7,11.42336317,0.9915964
5ebc3097a9c38504ebd8a347,47,0,2024-02-28T14:24:02.446Z,english_509.wav,0,peel,700,40,5,5,English,M,8,0.8,-33.49389875,1.58247003
5ebc3097a9c38504ebd8a347,47,0,2024-02-28T14:24:02.446Z,english_509.wav,0,peel,700,40,5,5,English,M,9,0.9,-76.54160855,0.51702523
5ebc3097a9c38504ebd8a347,47,0,2024-02-28T14:24:02.446Z,english_509.wav,0,peel,700,40,5,5,English,M,10,1.0,67.53120636,1.67242009
5ebc3097a9c38504ebd8a347,47,0,2024-02-28T14:24:02.446Z,english_509.wav,0,peel,700,40,5,5,English,M,11,1.09391667,52.42137891,0.41732509
5ebc3097a9c38504ebd8a347,48,0,2024-02-28T14:24:02.446Z,english_921.wav,0,peel,307,40,5,5,English,M,0,0.0,31.46476347,1.40929115
5ebc3097a9c38504ebd8a347,48,0,2024-02-28T14:24:02.446Z,english_921.wav,0,peel,307,40,5,5,English,M,1,0.1,-97.58408055,0.95578469
5ebc3097a9c38504ebd8a347,48,0,2024-02-28T14:24:02.446Z,english_921.wav,0,peel,307,40,5,5,English,M,2,0.2,54.67506657,1.08840418
5ebc3097a9c38504ebd8a347,48,0,2024-02-28T14:24:02.446Z,english_921.wav,0,peel,307,40,5,5,English,M,3,0.3,22.21056557,0.27152021
5ebc3097a9c38504ebd8a347,48,0,2024-02-28T14:24:02.446Z,english_921.wav,0,peel,307,40,5,5,English,M,4,0.4,0.8393727,1.01175766
5ebc3097a9c38504ebd8a347,48,0,2024-02-28T14:24:02.446Z,english_921.wav,0,peel,307,40,5,5,English,M,5,0.5,-71.57742702,0.91544212
5ebc3097a9c38504ebd8a347,48,0,2024-02-28T14:24:02.446Z,english_921.wav,0,peel,307,40,5,5,English,M,6,0.6,-21.98162251,1.03161778
5ebc3097a9c38504ebd8a347,48,0,2024-02-28T14:24:02.446Z,english_921.wav,0,peel,307,40,5,5,English,M,7,0.7,-45.34354294,1.69417828
5ebc3097a9c38504ebd8a347,48,0,2024-02-28T14:24:02.446Z,english_921.wav,0,peel,307,40,5,5,English,M,8,0.8,-54.46580015,1.14800845
5ebc3097a9c38504ebd8a347,48,0,2024-02-28T14:24:02.446Z,english_921.wav,0,peel,307,40,5,5,English,M,9,0.9,-33.00243687,1.17008377
5ebc3097a9c38504ebd8a347,48,0,2024-02-28T14:24:02.446Z,english_921.wav,0,peel,307,40,5,5,English,M,10,1.0,45.39245913,0.19449602
5ebc3097a9c38504ebd8a347,48,0,2024-02-28T14:24:02.446Z,english_921.wav,0,peel,307,40,5,5,English,M,11,1.09391667,-24.69054897,1.58975603
5ebc3097a9c38504ebd8a347,49,0,2024-02-28T14:24:02.446Z,english_888.wav,0,peel,665,40,5,5,English,M,0,0.0,-39.7925546,0.13458958
5ebc3097a9c38504ebd8a347,49,0,2024-02-28T14:24:02.446Z,english_888.wav,0,peel,665,40,5,5,English,M,1,0.1,-49.30113257,1.48324952
5ebc3097a9c38504ebd8a347,49,0,2024-02-28T14:24:02.446Z,english_888.wav,0,peel,665,40,5,5,English,M,2,0.2,5.97243806,0.77423602
5ebc3097a9c38504ebd8a347,49,0,2024-02-28T14:24:02.446Z,english_888.wav,0,peel,665,40,5,5,English,M,3,0.3,16.41276851,0.11110742
5ebc3097a9c38504ebd8a347,49,0,2024-02-28T14:24:02.446Z,english_888.wav,0,peel,665,40,5,5,English,M,4,0.4,72.72751695,0.50050507
5ebc3097a9c38504ebd8a347,49,0,2024-02-28T14:24:02.446Z,english_888.wav,0,peel,665,40,5,5,English,M,5,0.5,30.43059144,1.62800327
5ebc3097a9c38504ebd8a347,49,0,2024-02-28T14:24:02.446Z,english_888.wav,0,peel,665,40,5,5,English,M,6,0.6,-50.61460993,0.52150538
5ebc3097a9c38504ebd8a347,49,0,2024-02-28T14:24:02.446Z,english_888.wav,0,peel,665,40,5,5,English,M,7,0.7,27.35581245,1.33185555
5ebc3097a9c38504ebd8a347,49,0,2024-02-28T14:24:02.446Z,english_888.wav,0,peel,665,40,5,5,English,M,8,0.8,-42.43293374,1.57744059
5ebc3097a9c38504ebd8a347,49,0,2024-02-28T14:24:02.446Z,english_888.wav,0,peel,665,40,5,5,English,M,9,0.9,65.78948432,0.93033448
5ebc3097a9c38504ebd8a347,49,0,2024-02-28T14:24:02.446Z,english_888.wav,0,peel,665,40,5,5,English,M,10,1.0,10.78660964,1.1520653
5ebc3097a9c38504ebd8a347,49,0,2024-02-28T14:24:02.446Z,english_888.wav,0,peel,665,40,5,5,English,M,11,1.09391667,-21.51817703,1.84815249
5ebc3097a9c38504ebd8a347,50,1,2024-02-28T14:30:20.077Z,english_281.wav,0,peel,582,40,5,5,English,M,0,0.0,-6.91929945,1.49696204
5ebc3097a9c38504ebd8a347,50,1,2024-02-28T14:30:20.077Z,english_281.wav,0,peel,582,40,5,5,English,M,1,0.1,-25.44932046,1.38956204
5ebc3097a9c38504ebd8a347,50,1,2024-02-28T14:30:20.077Z,english_281.wav,0,peel,582,40,5,5,English,M,2,0.2,-43.70872046,0.8964952
5ebc3097a9c38504ebd8a347,50,1,2024-02-28T14:30:20.077Z,english_281.wav,0,peel,582,40,5,5,English,M,3,0.3,-18.3101874,0.52852326
5ebc3097a9c38504ebd8a347,50,1,2024-02-28T14:30:20.077Z,english_281.wav,0,peel,582,40,5,5,English,M,4,0.4,86.16338552,0.8625919
5ebc3097a9c38504ebd8a347,50,1,2024-02-28T14:30:20.077Z,english_281.wav,0,peel,582,40,5,5,English,M,5,0.5,49.26346324,1.51743083
5ebc3097a9c38504ebd8a347,50,1,2024-02-28T14:30:20.077Z,english_281.wav,0,peel,582,40,5,5,English,M,6,0.6,79.40576686,0.79009251
5ebc3097a9c38504ebd8a347,50,1,2024-02-28T14:30:20.077Z,english_281.wav,0,peel,582,40,5,5,English,M,7,0.7,85.96397413,0.18987002
5ebc3097a9c38504ebd8a347,50,1,2024-02-28T14:30:20.077Z,english_281.wav,0,peel,582,40,5,5,English,M,8,0.8,-82.16790218,1.11136212
5ebc3097a9c38504ebd8a347,50,1,2024-02-28T14:30:20.077Z,english_281.wav,0,peel,582,40,5,5,English,M,9,0.9,53.88469083,1.69337287
5ebc3097a9c38504ebd8a347,50,1,2024-02-28T14:30:20.077Z,english_281.wav,0,peel,582,40,5,5,English,M,10,1.0,30.1327539,0.62990301
5ebc3097a9c38504ebd8a347,50,1,2024-02-28T14:30:20.077Z,english_281.wav,0,peel,582,40,5,5,English,M,11,1.09391667,-24.86364002,1.33770256
5ebc3097a9c38504ebd8a347,51,1,2024-02-28T14:30:20.077Z,english_720.wav,0,peel,336,40,5,5,English,M,0,0.0,46.77057766,0.94113564
5ebc3097a9c38504ebd8a347,51,1,2024-02-28T14:30:20.077Z,english_720.wav,0,peel,336,40,5,5,English,M,1,0.1,6.53423564,0.426958
5ebc3097a9c38504ebd8a347,51,1,2024-02-28T14:30:20.077Z,english_720.wav,0,peel,336,40,5,5,English,M,2,0.2,87.60072251,0.98755995
5ebc3097a9c38504ebd8a347,51,1,2024-02-28T14:30:20.077Z,english_720.wav,0,peel,336,40,5,5,English,M,3,0.3,96.80442869,1.5976329
5ebc3097a9c38504ebd8a347,51,1,2024-02-28T14:30:20.077Z,english_720.wav,0,peel,336,40,5,5,English,M,4,0.4,-66.64150433,0.77306227
5ebc3097a9c38504ebd8a347,51,1,2024-02-28T14:30:20.077Z,english_720.wav,0,peel,336,40,5,5,English,M,5,0.5,-65.5107245,0.84513323
5ebc3097a9c38504ebd8a347,51,1,2024-02-28T14:30:20.077Z,english_720.wav,0,peel,336,40,5,5,English,M,6,0.6,-89.05316387,1.55668389
5ebc3097a9c38504ebd8a347,51,1,2024-02-28T14:30:20.077Z,english_720.wav,0,peel,336,40,5,5,English,M,7,0.7,-94.07157603,0.13811629
5ebc3097a9c38504ebd8a347,51,1,2024-02-28T14:30:20.077Z,english_720.wav,0,peel,336,40,5,5,English,M,8,0.8,-1.26954852,1.01089963
5ebc3097a9c38504ebd8a347,51,1,2024-02-28T14:30:20.077Z,english_720.wav,0,peel,336,40,5,5,English,M,9,0.9,-25.92154029,1.10803593
5ebc3097a9c38504ebd8a347,51,1,2024-02-28T14:30:20.077Z,english_720.wav,0,peel,336,40,5,5,English,M,10,1.0,24.94515678,1.26621877
5ebc3097a9c38504ebd8a347,51,1,2024-02-28T14:30:20.077Z,english_720.wav,0,peel,336,40,5,5,English,M,11,1.09391667,-38.69158076,0.96623921
5ebc3097a9c38504ebd8a347,52,1,2024-02-28T14:30:20.077Z,english_667.wav,0,peel,747,40,5,5,English,M,0,0.0,-40.55421882,0.65900383
5ebc3097a9c38504ebd8a347,52,1,2024-02-28T14:30:20.077Z,english_667.wav,0,peel,747,40,5,5,English,M,1,0.1,-4.36791553,1.32668807
5ebc3097a9c38504ebd8a347,52,1,2024-02-28T14:30:20.077Z,english_667.wav,0,peel,747,40,5,5,English,M,2,0.2,-47.28306179,1.36801295
5ebc3097a9c38504ebd8a347,52,1,2024-02-28T14:30:20.077Z,english_667.wav,0,peel,747,40,5,5,English,M,3,0.3,4.54742829,1.31909989
5ebc3097a9c38504ebd8a347,52,1,2024-02-28T14:30:20.077Z,english_667.wav,0,peel,747,40,5,5,English,M,4,0.4,56.02469614,1.3880932
5ebc3097a9c38504ebd8a347,52,1,2024-02-28T14:30:20.077Z,english_667.wav,0,peel,747,40,5,5,English,M,5,0.5,-1.96932384,1.04427425
5ebc3097a9c38504ebd8a347,52,1,2024-02-28T14:30:20.077Z,english_667.wav,0,peel,747,40,5,5,English,M,6,0.6,5.19539512,1.75340959
5ebc3097a9c38504ebd8a347,52,1,2024-02-28T14:30:20.077Z,english_667.wav,0,peel,747,40,5,5,English,M,7,0.7,-58.89384288,0.51778984
5ebc3097a9c38504ebd8a347,52,1,2024-02-28T14:30:20.077Z,english_667.wav,0,peel,747,40,5,5,English,M,8,0.8,-23.79810438,1.0404646
5ebc3097a9c38504ebd8a347,52,1,2024-02-28T14:30:20.077Z,english_667.wav,0,peel,747,40,5,5,English,M,9,0.9,98.84523473,0.97755594
5ebc3097a9c38504ebd8a347,52,1,2024-02-28T14:30:20.077Z,english_667.wav,0,peel,747,40,5,5,English,M,10,1.0,7.14220046,0.3681696
5ebc3097a9c38504ebd8a347,52,1,2024-02-28T14:30:20.077Z,english_667.wav,0,peel,747,40,5,5,English,M,11,1.09391667,-53.41190767,1.51620439
5ebc3097a9c38504ebd8a347,53,1,2024-02-28T14:30:20.077Z,english_734.wav,0,pill,559,40,5,5,English,M,0,0.0,37.80658654,0.89840931
5ebc3097a9c38504ebd8a347,53,1,2024-02-28T14:30:20.077Z,english_734.wav,0,pill,559,40,5,5,English,M,1,0.1,90.1003789,1.2414915
5ebc3097a9c38504ebd8a347,53,1,2024-02-28T14:30:20.077Z,english_734.wav,0,pill,559,40,5,5,English,M,2,0.2,-17.90602095,1.52855063
5ebc3097a9c38504ebd8a347,53,1,2024-02-28T14:30:20.077Z,english_734.wav,0,pill,559,40,5,5,English,M,3,0.3,-31.44385996,0.60902156
5ebc3097a9c38504ebd8a347,53,1,2024-02-28T14:30:20.077Z,english_734.wav,0,pill,559,40,5,5,English,M,4,0.4,44.9323419,1.0676513
5ebc3097a9c38504ebd8a347,53,1,2024-02-28T14:30:20.077Z,english_734.wav,0,pill,559,40,5,5,English,M,5,0.5,-31.11774155,0.47732506
5ebc3097a9c38504ebd8a347,53,1,2024-02-28T14:30:20.077Z,english_734.wav,0,pill,559,40,5,5,English,M,6,0.6,97.37077349,0.01117227
5ebc3097a9c38504ebd8a347,53,1,2024-02-28T14:30:20.077Z,english_734.wav,0,pill,559,40,5,5,English,M,7,0.7,83.67731812,1.95948527
5ebc3097a9c38504ebd8a347,53,1,2024-02-28T14:30:20.077Z,english_734.wav,0,pill,559,40,5,5,English,M,8,0.8,-92.96209535,1.72730216
5ebc3097a9c38504ebd8a347,53,1,2024-02-28T14:30:20.077Z,english_734.wav,0,pill,559,40,5,5,English,M,9,0.9,-86.38679985,0.10005855
5ebc3097a9c38504ebd8a347,53,1,2024-02-28T14:30:20.077Z,english_734.wav,0,pill,559,40,5,5,English,M,10,1.0,-15.69243899,1.31074677
5ebc3097a9c38504ebd8a347,53,1,2024-02-28T14:30:20.077Z,english_734.wav,0,pill,559,40,5,5,English,M,11,1.09391667,-68.67808483,0.47077758
5ebc3097a9c38504ebd8a347,54,1,2024-02-28T14:30:20.077Z,english_65.wav,0,peel,1134,40,5,5,English,M,0,0.0,-44.08652709,1.3840041
5ebc3097a9c38504ebd8a347,54,1,2024-02-28T14:30:20.077Z,english_65.wav,0,peel,1134,40,5,5,English,M,1,0.1,3.68023197,1.67820436
5ebc3097a9c38504ebd8a347,54,1,2024-02-28T14:30:20.077Z,english_65.wav,0,peel,1134,40,5,5,English,M,2,0.2,-19.05866896,1.58939797
5ebc3097a9c38504ebd8a347,54,1,2024-02-28T14:30:20.077Z,english_65.wav,0,peel,1134,40,5,5,English,M,3,0.3,12.87316772,0.13316714
5ebc3097a9c38504ebd8a347,54,1,2024-02-28T14:30:20.077Z,english_65.wav,0,peel,1134,40,5,5,English,M,4,0.4,-96.16119339,0.86814229
5ebc3097a9c38504ebd8a347,54,1,2024-02-28T14:30:20.077Z,english_65.wav,0,peel,1134,40,5,5,English,M,5,0.5,-80.0946771,0.41459676
5ebc3097a9c38504ebd8a347,54,1,2024-02-28T14:30:20.077Z,english_65.wav,0,peel,1134,40,5,5,English,M,6,0.6,69.71447188,1.482845
5ebc3097a9c38504ebd8a347,54,1,2024-02-28T14:30:20.077Z,english_65.wav,0,peel,1134,40,5,5,English,M,7,0.7,31.09176238,0.500881
5ebc3097a9c38504ebd8a347,54,1,2024-02-28T14:30:20.077Z,english_65.wav,0,peel,1134,40,5,5,English,M,8,0.8,5.95151439,1.54890047
5ebc3097a9c38504ebd8a347,54,1,2024-02-28T14:30:20.077Z,english_65.wav,0,peel,1134,40,5,5,English,M,9,0.9,-95.02350092,0.653854
5ebc3097a9c38504ebd8a347,54,1,2024-02-28T14:30:20.077Z,english_65.wav,0,peel,1134,40,5,5,English,M,10,1.0,40.23975653,1.48515765
5ebc3097a9c38504ebd8a347,54,1,2024-02-28T14:30:20.077Z,english_65.wav,0,peel,1134,40,5,5,English,M,11,1.09391667,55.65657795,1.57918375
5ebc3097a9c38504ebd8a347,55,1,2024-02-28T14:30:20.077Z,english_616.wav,0,peel,415,40,5,5,English,M,0,0.0,-58.43899918,1.31887323
5ebc3097a9c38504ebd8a347,55,1,2024-02-28T14:30:20.077Z,english_616.wav,0,peel,415,40,5,5,English,M,1,0.1,91.54551443,1.19326366
5ebc3097a9c38504ebd8a347,55,1,2024-02-28T14:30:20.077Z,english_616.wav,0,peel,415,40,5,5,English,M,2,0.2,-72.76331238,1.15507306
5ebc3097a9c38504ebd8a347,55,1,2024-02-28T14:30:20.077Z,english_616.wav,0,peel,415,40,5,5,English,M,3,0.3,98.66983591,1.15408068
5ebc3097a9c38504ebd8a347,55,1,2024-02-28T14:30:20.077Z,english_616.wav,0,peel,415,40,5,5,English,M,4,0.4,30.89695447,1.80966351
5ebc3097a9c38504ebd8a347,55,1,2024-02-28T14:30:20.077Z,english_616.wav,0,peel,415,40,5,5,English,M,5,0.5,95.21036015,0.8568389
5ebc3097a9c38504ebd8a347,55,1,2024-02-28T14:30:20.077Z,english_616.wav,0,peel,415,40,5,5,English,M,6,0.6,38.34251154,0.52507159
5ebc3097a9c38504ebd8a347,55,1,2024-02-28T14:30:20.077Z,english_616.wav,0,peel,415,40,5,5,English,M,7,0.7,53.37022057,1.38987598
5ebc3097a9c38504ebd8a347,55,1,2024-02-28T14:30:20.077Z,english_616.wav,0,peel,415,40,5,5,English,M,8,0.8,64.27718414,1.91003383
5ebc3097a9c38504ebd8a347,55,1,2024-02-28T14:30:20.077Z,english_616.wav,0,peel,415,40,5,5,English,M,9,0.9,-47.15745764,1.62420327
5ebc3097a9c38504ebd8a347,55,1,2024-02-28T14:30:20.077Z,english_616.wav,0,peel,415,40,5,5,English,M,10,1.0,61.31789033,1.95831122
5ebc3097a9c38504ebd8a347,55,1,2024-02-28T14:30:20.077Z,english_616.wav,0,peel,415,40,5,5,English,M,11,1.09391667,-28.29544228,0.95794745
5ebc3097a9c38504ebd8a347,56,1,2024-02-28T14:30:20.077Z,english_623.wav,0,peel,368,40,5,5,English,M,0,0.0,-95.51114939,1.63535186
5ebc3097a9c38504ebd8a347,56,1,2024-02-28T14:30:20.077Z,english_623.wav,0,peel,368,40,5,5,English,M,1,0.1,-44.73326339,1.6177623
5ebc3097a9c38504ebd8a347,56,1,2024-02-28T14:30:20.077Z,english_623.wav,0,peel,368,40,5,5,English,M,2,0.2,86.94238373,0.65497932
5ebc3097a9c38504ebd8a347,56,1,2024-02-28T14:30:20.077Z,english_623.wav,0,peel,368,40,5,5,English,M,3,0.3,62.89198917,1.58469953
5ebc3097a9c38504ebd8a347,56,1,2024-02-28T14:30:20.077Z,english_623.wav,0,peel,368,40,5,5,English,M,4,0.4,61.79447234,1.31412999
5ebc3097a9c38504ebd8a347,56,1,2024-02-28T14:30:20.077Z,english_623.wav,0,peel,368,40,5,5,English,M,5,0.5,-17.85583206,0.01127437
5ebc3097a9c38504ebd8a347,56,1,2024-02-28T14:30:20.077Z,english_623.wav,0,peel,368,40,5,5,English,M,6,0.6,46.68097598,1.28486064
5ebc3097a9c38504ebd8a347,56,1,2024-02-28T14:30:20.077Z,english_623.wav,0,peel,368,40,5,5,English,M,7,0.7,11.14385485,1.18855794
5ebc3097a9c38504ebd8a347,56,1,2024-02-28T14:30:20.077Z,english_623.wav,0,peel,368,40,5,5,English,M,8,0.8,14.54716464,1.11974397
5ebc3097a9c38504ebd8a347,56,1,2024-02-28T14:30:20.077Z,english_623.wav,0,peel,368,40,5,5,English,M,9,0.9,20.67291456,0.2762628
5ebc3097a9c38504ebd8a347,56,1,2024-02-28T14:30:20.077Z,english_623.wav,0,peel,368,40,5,5,English,M,10,1.0,-77.15406541,1.27890635
5ebc3097a9c38504ebd8a347,56,1,2024-02-28T14:30:20.077Z,english_623.wav,0,peel,368,40,5,5,English,M,11,1.09391667,25.21504883,0.35112304
5ebc3097a9c38504ebd8a347,57,1,2024-02-28T14:30:20.077Z,english_743.wav,0,peel,3285,40,5,5,English,M,0,0.0,97.77122609,0.40936323
5ebc3097a9c38504ebd8a347,57,1,2024-02-28T14:30:20.077Z,english_743.wav,0,peel,3285,40,5,5,English,M,1,0.1,75.39760322,0.83333714
5ebc3097a9c38504ebd8a347,57,1,2024-02-28T14:30:20.077Z,english_743.wav,0,peel,3285,40,5,5,English,M,2,0.2,-92.56300928,1.9299588
5ebc3097a9c38504ebd8a347,57,1,2024-02-28T14:30:20.077Z,english_743.wav,0,peel,3285,40,5,5,English,M,3,0.3,73.60734954,0.31044819
5ebc3097a9c38504ebd8a347,57,1,2024-02-28T14:30:20.077Z,english_743.wav,0,peel,3285,40,5,5,English,M,4,0.4,84.82420222,1.11112706
5ebc3097a9c38504ebd8a347,57,1,2024-02-28T14:30:20.077Z,english_743.wav,0,peel,3285,40,5,5,English,M,5,0.5,-57.35733587,0.30641345
5ebc3097a9c38504ebd8a347,57,1,2024-02-28T14:30:20.077Z,english_743.wav,0,peel,3285,40,5,5,English,M,6,0.6,36.05799571,1.79191215
5ebc3097a9c38504ebd8a347,57,1,2024-02-28T14:30:20.077Z,english_743.wav,0,peel,3285,40,5,5,English,M,7,0.7,-80.10781894,1.43353199
5ebc3097a9c38504ebd8a347,57,1,2024-02-28T14:30:20.077Z,english_743.wav,0,peel,3285,40,5,5,English,M,8,0.8,79.81818761,0.61341243
5ebc3097a9c38504ebd8a347,57,1,2024-02-28T14:30:20.077Z,english_743.wav,0,peel,3285,40,5,5,English,M,9,0.9,71.53815245,1.6920607
5ebc3097a9c38504ebd8a347,57,1,2024-02-28T14:30:20.077Z,english_743.wav,0,peel,3285,40,5,5,English,M,10,1.0,39.3075371,0.85862509
5ebc3097a9c38504ebd8a347,57,1,2024-02-28T14:30:20.077Z,english_743.wav,0,peel,3285,40,5,5,English,M,11,1.09391667,85.61049635,0.78833379
5ebc3097a9c38504ebd8a347,58,1,2024-02-28T14:30:20.077Z,english_91.wav,0,peel,378,40,5,5,English,M,0,0.0,90.30305792,1.1938068
5ebc3097a9c38504ebd8a347,58,1,2024-02-28T14:30:20.077Z,english_91.wav,0,peel,378,40,5,5,English,M,1,0.1,56.18894947,1.20808781
5ebc3097a9c38504ebd8a347,58,1,2024-02-28T14:30:20.077Z,english_91.wav,0,peel,378,40,5,5,English,M,2,0.2,-58.19739478,0.13849828
5ebc3097a9c38504ebd8a347,58,1,2024-02-28T14:30:20.077Z,english_91.wav,0,peel,378,40,5,5,English,M,3,0.3,79.028897,0.94138732
5ebc3097a9c38504ebd8a347,58,1,2024-02-28T14:30:20.077Z,english_91.wav,0,peel,378,40,5,5,English,M,4,0.4,7.81343209,0.4665442
5ebc3097a9c38504ebd8a347,58,1,2024-02-28T14:30:20.077Z,english_91.wav,0,peel,378,40,5,5,English,M,5,0.5,28.60271905,1.77893908
5ebc3097a9c38504ebd8a347,58,1,2024-02-28T14:30:20.077Z,english_91.wav,0,peel,378,40,5,5,English,M,6,0.6,14.99037293,0.39545287
5ebc3097a9c38504ebd8a347,58,1,2024-02-28T14:30:20.077Z,english_91.wav,0,peel,378,40,5,5,English,M,7,0.7,-0.25615484,1.77472074
5ebc3097a9c38504ebd8a347,58,1,2024-02-28T14:30:20.077Z,english_91.wav,0,peel,378,40,5,5,English,M,8,0.8,86.53655438,1.9424725
5ebc3097a9c38504ebd8a347,58,1,2024-02-28T14:30:20.077Z,english_91.wav,0,peel,378,40,5,5,English,M,9,0.9,-90.65230495,1.79603275
5ebc3097a9c38504ebd8a347,58,1,2024-02-28T14:30:20.077Z,english_91.wav,0,peel,378,40,5,5,English,M,10,1.0,95.15657265,1.28685544
5ebc3097a9c38504ebd8a347,58,1,2024-02-28T14:30:20.077Z,english_91.wav,0,peel,378,40,5,5,English,M,11,1.09391667,-56.87677847,0.36998726
5ebc3097a9c38504ebd8a347,59,1,2024-02-28T14:30:20.077Z,english_687.wav,0,peel,275,40,5,5,English,M,0,0.0,-35.70290508,1.44721002
5ebc3097a9c38504ebd8a347,59,1,2024-02-28T14:30:20.077Z,english_687.wav,0,peel,275,40,5,5,English,M,1,0.1,96.19930643,1.66446564
5ebc3097a9c38504ebd8a347,59,1,2024-02-28T14:30:20.077Z,english_687.wav,0,peel,275,40,5,5,English,M,2,0.2,-16.32623685,0.17388823
5ebc3097a9c38504ebd8a347,59,1,2024-02-28T14:30:20.077Z,english_687.wav,0,peel,275,40,5,5,English,M,3,0.3,69.01262748,0.9756111
5ebc3097a9c38504ebd8a347,59,1,2024-02-28T14:30:20.077Z,english_687.wav,0,peel,275,40,5,5,English,M,4,0.4,-86.96335793,0.75788852
5ebc3097a9c38504ebd8a347,59,1,2024-02-28T14:30:20.077Z,english_687.wav,0,peel,275,40,5,5,English,M,5,0.5,-94.81036094,1.04245625
5ebc3097a9c38504ebd8a347,59,1,2024-02-28T14:30:20.077Z,english_687.wav,0,peel,275,40,5,5,English,M,6,0.6,24.28115893,0.94679533
5ebc3097a9c38504ebd8a347,59,1,2024-02-28T14:30:20.077Z,english_687.wav,0,peel,275,40,5,5,English,M,7,0.7,-73.50271946,1.98988769
5ebc3097a9c38504ebd8a347,59,1,2024-02-28T14:30:20.077Z,english_687.wav,0,peel,275,40,5,5,English,M,8,0.8,-67.86786343,1.9531078
5ebc3097a9c38504ebd8a347,59,1,2024-02-28T14:30:20.077Z,english_687.wav,0,peel,275,40,5,5,English,M,9,0.9,-59.44479717,1.90267124
5ebc3097a9c38504ebd8a347,59,1,2024-02-28T14:30:20.077Z,english_687.wav,0,peel,275,40,5,5,English,M,10,1.0,0.72231801,1.17236586
5ebc3097a9c38504ebd8a347,59,1,2024-02-28T14:30:20.077Z,english_687.wav,0,peel,275,40,5,5,English,M,11,1.09391667,-0.70049857,1.47850695
5ebc3097a9c38504ebd8a347,60,1,2024-02-28T14:30:20.077Z,english_315.wav,0,pill,760,40,5,5,English,M,0,0.0,20.11963367,1.15782854
5ebc3097a9c38504ebd8a347,60,1,2024-02-28T14:30:20.077Z,english_315.wav,0,pill,760,40,5,5,English,M,1,0.1,-30.87144334,1.37599817
5ebc3097a9c38504ebd8a347,60,1,2024-02-28T14:30:20.077Z,english_315.wav,0,pill,760,40,5,5,English,M,2,0.2,39.10248869,1.4514196
5ebc3097a9c38504ebd8a347,60,1,2024-02-28T14:30:20.077Z,english_315.wav,0,pill,760,40,5,5,English,M,3,0.3,-19.08604714,1.32135016
5ebc3097a9c38504ebd8a347,60,1,2024-02-28T14:30:20.077Z,english_315.wav,0,pill,760,40,5,5,English,M,4,0.4,90.41461318,1.69132556
5ebc3097a9c38504ebd8a347,60,1,2024-02-28T14:30:20.077Z,english_315.wav,0,pill,760,40,5,5,English,M,5,0.5,-82.87118979,0.65296677
5ebc3097a9c38504ebd8a347,60,1,2024-02-28T14:30:20.077Z,english_315.wav,0,pill,760,40,5,5,English,M,6,0.6,-12.30252898,1.40058812
5ebc3097a9c38504ebd8a347,60,1,2024-02-28T14:30:20.077Z,english_315.wav,0,pill,760,40,5,5,English,M,7,0.7,9.37098005,0.87815256
5ebc3097a9c38504ebd8a347,60,1,2024-02-28T14:30:20.077Z,english_315.wav,0,pill,760,40,5,5,English,M,8,0.8,-86.3809894,0.15444706
5ebc3097a9c38504ebd8a347,60,1,2024-02-28T14:30:20.077Z,english_315.wav,0,pill,760,40,5,5,English,M,9,0.9,2.03064205,1.46097728
5ebc3097a9c38504ebd8a347,60,1,2024-02-28T14:30:20.077Z,english_315.wav,0,pill,760,40,5,5,English,M,10,1.0,99.30710259,0.37640447
5ebc3097a9c38504ebd8a347,60,1,2024-02-28T14:30:20.077Z,english_315.wav,0,pill,760,40,5,5,English,M,11,1.09391667,58.65294367,1.18518174
5ebc3097a9c38504ebd8a347,61,1,2024-02-28T14:30:20.077Z,english_978.wav,0,pill,718,40,5,5,English,M,0,0.0,-56.85728998,1.17346596
5ebc3097a9c38504ebd8a347,61,1,2024-02-28T14:30:20.077Z,english_978.wav,0,pill,718,40,5,5,English,M,1,0.1,16.43364259,0.59297783
5ebc3097a9c38504ebd8a347,61,1,2024-02-28T14:30:20.077Z,english_978.wav,0,pill,718,40,5,5,English,M,2,0.2,47.77326739,0.67016687
5ebc3097a9c38504ebd8a347,61,1,2024-02-28T14:30:20.077Z,english_978.wav,0,pill,718,40,5,5,English,M,3,0.3,94.05967356,1.98266891
5ebc3097a9c38504ebd8a347,61,1,2024-02-28T14:30:20.077Z,english_978.wav,0,pill,718,40,5,5,English,M,4,0.4,-76.48908754,0.86932432
5ebc3097a9c38504ebd8a347,61,1,2024-02-28T14:30:20.077Z,english_978.wav,0,pill,718,40,5,5,English,M,5,0.5,-47.71848611,0.89103479
5ebc3097a9c38504ebd8a347,61,1,2024-02-28T14:30:20.077Z,english_978.wav,0,pill,718,40,5,5,English,M,6,0.6,-17.07884838,1.65910536
5ebc3097a9c38504ebd8a347,61,1,2024-02-28T14:30:20.077Z,english_978.wav,0,pill,718,40,5,5,English,M,7,0.7,50.2599466,1.27682187
5ebc3097a9c38504ebd8a347,61,1,2024-02-28T14:30:20.077Z,english_978.wav,0,pill,718,40,5,5,English,M,8,0.8,83.04934383,0.051565
5ebc3097a9c38504ebd8a347,61,1,2024-02-28T14:30:20.077Z,english_978.wav,0,pill,718,40,5,5,English,M,9,0.9,-14.53932226,0.45965995
5ebc3097a9c38504ebd8a347,61,1,2024-02-28T14:30:20.077Z,english_978.wav,0,pill,718,40,5,5,English,M,10,1.0,-40.28373024,1.12972823
5ebc3097a9c38504ebd8a347,61,1,2024-02-28T14:30:20.077Z,english_978.wav,0,pill,718,40,5,5,English,M,11,1.09391667,82.58821892,1.51179451
5ebc3097a9c38504ebd8a347,62,1,2024-02-28T14:30:20.077Z,english_165.wav,0,peel,334,40,5,5,English,M,0,0.0,-2.19989306,1.80366268
5ebc3097a9c38504ebd8a347,62,1,2024-02-28T14:30:20.077Z,english_165.wav,0,peel,334,40,5,5,English,M,1,0.1,-17.54385673,0.63199927
5ebc3097a9c38504ebd8a347,62,1,2024-02-28T14:30:20.077Z,english_165.wav,0,peel,334,40,5,5,English,M,2,0.2,-35.4480887,1.72021084
5ebc3097a9c38504ebd8a347,62,1,2024-02-28T14:30:20.077Z,english_165.wav,0,peel,334,40,5,5,English,M,3,0.3,38.42421814,1.85097281
5ebc3097a9c38504ebd8a347,62,1,2024-02-28T14:30:20.077Z,english_165.wav,0,peel,334,40,5,5,English,M,4,0.4,19.51422171,0.29605958
5ebc3097a9c38504ebd8a347,62,1,2024-02-28T14:30:20.077Z,english_165.wav,0,peel,334,40,5,5,English,M,5,0.5,-2.86344702,1.04155763
5ebc3097a9c38504ebd8a347,62,1,2024-02-28T14:30:20.077Z,english_165.wav,0,peel,334,40,5,5,English,M,6,0.6,24.21245357,0.33290829
5ebc3097a9c38504ebd8a347,62,1,2024-02-28T14:30:20.077Z,english_165.wav,0,peel,334,40,5,5,English,M,7,0.7,-20.07763652,0.77719776
5ebc3097a9c38504ebd8a347,62,1,2024-02-28T14:30:20.077Z,english_165.wav,0,peel,334,40,5,5,English,M,8,0.8,-4.69526924,1.6690738
5ebc3097a9c38504ebd8a347,62,1,2024-02-28T14:30:20.077Z,english_165.wav,0,peel,334,40,5,5,English,M,9,0.9,46.92767694,0.76251785
5ebc3097a9c38504ebd8a347,62,1,2024-02-28T14:30:20.077Z,english_165.wav,0,peel,334,40,5,5,English,M,10,1.0,-4.88253914,1.74728665
5ebc3097a9c38504ebd8a347,62,1,2024-02-28T14:30:20.077Z,english_165.wav,0,peel,334,40,5,5,English,M,11,1.09391667,23.85195976,0.67244999
5ebc3097a9c38504ebd8a347,63,1,2024-02-28T14:30:20.077Z,english_135.wav,0,peel,322,40,5,5,English,M,0,0.0,1.52771956,1.05574256
5ebc3097a9c38504ebd8a347,63,1,2024-02-28T14:30:20.077Z,english_135.wav,0,peel,322,40,5,5,English,M,1,0.1,87.85930758,0.07400982
5ebc3097a9c38504ebd8a347,63,1,2024-02-28T14:30:20.077Z,english_135.wav,0,peel,322,40,5,5,English,M,2,0.2,10.69232429,1.27555025
5ebc3097a9c38504ebd8a347,63,1,2024-02-28T14:30:20.077Z,english_135.wav,0,peel,322,40,5,5,English,M,3,0.3,-30.56293348,1.65548466
5ebc3097a9c38504ebd8a347,63,1,2024-02-28T14:30:20.077Z,english_135.wav,0,peel,322,40,5,5,English,M,4,0.4,18.68768105,0.65488565
5ebc3097a9c38504ebd8a347,63,1,2024-02-28T14:30:20.077Z,english_135.wav,0,peel,322,40,5,5,English,M,5,0.5,83.74749446,1.6850938
5ebc3097a9c38504ebd8a347,63,1,2024-02-28T14:30:20.077Z,english_135.wav,0,peel,322,40,5,5,English,M,6,0.6,2.30267465,0.17916719
5ebc3097a9c38504ebd8a347,63,1,2024-02-28T14:30:20.077Z,english_135.wav,0,peel,322,40,5,5,English,M,7,0.7,10.55624665,0.7091252
5ebc3097a9c38504ebd8a347,63,1,2024-02-28T14:30:20.077Z,english_135.wav,0,peel,322,40,5,5,English,M,8,0.8,-52.17497639,1.14424326
5ebc3097a9c38504ebd8a347,63,1,2024-02-28T14:30:20.077Z,english_135.wav,0,peel,322,40,5,5,English,M,9,0.9,63.1552018,0.08021557
5ebc3097a9c38504ebd8a347,63,1,2024-02-28T14:30:20.077Z,english_135.wav,0,peel,322,40,5,5,English,M,10,1.0,32.56027872,1.28558373
5ebc3097a9c38504ebd8a347,63,1,2024-02-28T14:30:20.077Z,english_135.wav,0,peel,322,40,5,5,English,M,11,1.09391667,49.01841871,0.80254185
5ebc3097a9c38504ebd8a347,64,1,2024-02-28T14:30:20.077Z,english_833.wav,0,peel,338,40,5,5,English,M,0,0.0,-9.82911833,0.41898606
5ebc3097a9c38504ebd8a347,64,1,2024-02-28T14:30:20.077Z,english_833.wav,0,peel,338,40,5,5,English,M,1,0.1,26.84576298,1.36279301
5ebc3097a9c38504ebd8a347,64,1,2024-02-28T14:30:20.077Z,english_833.wav,0,peel,338,40,5,5,English,M,2,0.2,-28.2282446,1.58440298
5ebc3097a9c38504ebd8a347,64,1,2024-02-28T14:30:20.077Z,english_833.wav,0,peel,338,40,5,5,English,M,3,0.3,66.90500865,0.74607222
5ebc3097a9c38504ebd8a347,64,1,2024-02-28T14:30:20.077Z,english_833.wav,0,peel,338,40,5,5,English,M,4,0.4,-49.09073162,0.77124081
5ebc3097a9c38504ebd8a347,64,1,2024-02-28T14:30:20.077Z,english_833.wav,0,peel,338,40,5,5,English,M,5,0.5,-87.4525088,1.83467454
