subj,trial,block,date,stim,stim_order,response,rt,age,english,french,language,sex,param_index,segment,pitch,stretch
5c8ee6c36ca70b0001fe979d,0,0,2024-02-28T14:40:42.644Z,english_429.wav,0,pill,897,66,5,4,english,m,0,0.0,35.99149225,1.15996834
5c8ee6c36ca70b0001fe979d,0,0,2024-02-28T14:40:42.644Z,english_429.wav,0,pill,897,66,5,4,english,m,1,0.1,-74.15243919,1.78612781
5c8ee6c36ca70b0001fe979d,0,0,2024-02-28T14:40:42.644Z,english_429.wav,0,pill,897,66,5,4,english,m,2,0.2,-66.98958389,1.07132938
5c8ee6c36ca70b0001fe979d,0,0,2024-02-28T14:40:42.644Z,english_429.wav,0,pill,897,66,5,4,english,m,3,0.3,-17.85195751,0.01687876
5c8ee6c36ca70b0001fe979d,0,0,2024-02-28T14:40:42.644Z,english_429.wav,0,pill,897,66,5,4,english,m,4,0.4,-73.89259621,0.18602523
5c8ee6c36ca70b0001fe979d,0,0,2024-02-28T14:40:42.644Z,english_429.wav,0,pill,897,66,5,4,english,m,5,0.5,79.15421071,1.63202806
5c8ee6c36ca70b0001fe979d,0,0,2024-02-28T14:40:42.644Z,english_429.wav,0,pill,897,66,5,4,english,m,6,0.6,-46.04257139,0.71186645
5c8ee6c36ca70b0001fe979d,0,0,2024-02-28T14:40:42.644Z,english_429.wav,0,pill,897,66,5,4,english,m,7,0.7,-20.15951385,1.59705108
5c8ee6c36ca70b0001fe979d,0,0,2024-02-28T14:40:42.644Z,english_429.wav,0,pill,897,66,5,4,english,m,8,0.8,-88.88014071,0.92556725
5c8ee6c36ca70b0001fe979d,0,0,2024-02-28T14:40:42.644Z,english_429.wav,0,pill,897,66,5,4,english,m,9,0.9,85.9209564,1.19440403
5c8ee6c36ca70b0001fe979d,0,0,2024-02-28T14:40:42.644Z,english_429.wav,0,pill,897,66,5,4,english,m,10,1.0,-45.56975308,1.44802402
5c8ee6c36ca70b0001fe979d,0,0,2024-02-28T14:40:42.644Z,english_429.wav,0,pill,897,66,5,4,english,m,11,1.09391667,-32.13799224,1.37788661
5c8ee6c36ca70b0001fe979d,1,0,2024-02-28T14:40:42.644Z,english_44.wav,0,pill,659,66,5,4,english,m,0,0.0,4.31802361,1.29887764
5c8ee6c36ca70b0001fe979d,1,0,2024-02-28T14:40:42.644Z,english_44.wav,0,pill,659,66,5,4,english,m,1,0.1,47.0728406,1.11913745
5c8ee6c36ca70b0001fe979d,1,0,2024-02-28T14:40:42.644Z,english_44.wav,0,pill,659,66,5,4,english,m,2,0.2,-14.77115386,1.22583552
5c8ee6c36ca70b0001fe979d,1,0,2024-02-28T14:40:42.644Z,english_44.wav,0,pill,659,66,5,4,english,m,3,0.3,48.30959917,1.94992967
5c8ee6c36ca70b0001fe979d,1,0,2024-02-28T14:40:42.644Z,english_44.wav,0,pill,659,66,5,4,english,m,4,0.4,-48.39525922,1.60078026
5c8ee6c36ca70b0001fe979d,1,0,2024-02-28T14:40:42.644Z,english_44.wav,0,pill,659,66,5,4,english,m,5,0.5,-15.20190814,1.61096713
5c8ee6c36ca70b0001fe979d,1,0,2024-02-28T14:40:42.644Z,english_44.wav,0,pill,659,66,5,4,english,m,6,0.6,-7.79536513,0.91293866
5c8ee6c36ca70b0001fe979d,1,0,2024-02-28T14:40:42.644Z,english_44.wav,0,pill,659,66,5,4,english,m,7,0.7,-57.36737228,1.91414895
5c8ee6c36ca70b0001fe979d,1,0,2024-02-28T14:40:42.644Z,english_44.wav,0,pill,659,66,5,4,english,m,8,0.8,-4.58128381,0.38490234
5c8ee6c36ca70b0001fe979d,1,0,2024-02-28T14:40:42.644Z,english_44.wav,0,pill,659,66,5,4,english,m,9,0.9,-46.69208344,1.07535839
5c8ee6c36ca70b0001fe979d,1,0,2024-02-28T14:40:42.644Z,english_44.wav,0,pill,659,66,5,4,english,m,10,1.0,-83.85792586,1.14300315
5c8ee6c36ca70b0001fe979d,1,0,2024-02-28T14:40:42.644Z,english_44.wav,0,pill,659,66,5,4,english,m,11,1.09391667,-0.53505125,0.87829704
5c8ee6c36ca70b0001fe979d,2,0,2024-02-28T14:40:42.644Z,english_707.wav,0,peel,303,66,5,4,english,m,0,0.0,7.00891716,0.72720076
5c8ee6c36ca70b0001fe979d,2,0,2024-02-28T14:40:42.644Z,english_707.wav,0,peel,303,66,5,4,english,m,1,0.1,74.96034683,1.51197727
5c8ee6c36ca70b0001fe979d,2,0,2024-02-28T14:40:42.644Z,english_707.wav,0,peel,303,66,5,4,english,m,2,0.2,-68.0333814,0.14777377
5c8ee6c36ca70b0001fe979d,2,0,2024-02-28T14:40:42.644Z,english_707.wav,0,peel,303,66,5,4,english,m,3,0.3,58.29848436,0.12739287
5c8ee6c36ca70b0001fe979d,2,0,2024-02-28T14:40:42.644Z,english_707.wav,0,peel,303,66,5,4,english,m,4,0.4,-84.31982667,0.76569704
5c8ee6c36ca70b0001fe979d,2,0,2024-02-28T14:40:42.644Z,english_707.wav,0,peel,303,66,5,4,english,m,5,0.5,35.8298309,0.136889
5c8ee6c36ca70b0001fe979d,2,0,2024-02-28T14:40:42.644Z,english_707.wav,0,peel,303,66,5,4,english,m,6,0.6,-38.90477455,1.7747503
5c8ee6c36ca70b0001fe979d,2,0,2024-02-28T14:40:42.644Z,english_707.wav,0,peel,303,66,5,4,english,m,7,0.7,82.66036962,1.07544151
5c8ee6c36ca70b0001fe979d,2,0,2024-02-28T14:40:42.644Z,english_707.wav,0,peel,303,66,5,4,english,m,8,0.8,-14.24432163,1.02550143
5c8ee6c36ca70b0001fe979d,2,0,2024-02-28T14:40:42.644Z,english_707.wav,0,peel,303,66,5,4,english,m,9,0.9,25.44052546,1.01640219
5c8ee6c36ca70b0001fe979d,2,0,2024-02-28T14:40:42.644Z,english_707.wav,0,peel,303,66,5,4,english,m,10,1.0,-83.90842928,0.78720721
5c8ee6c36ca70b0001fe979d,2,0,2024-02-28T14:40:42.644Z,english_707.wav,0,peel,303,66,5,4,english,m,11,1.09391667,-32.29890156,1.33640167
5c8ee6c36ca70b0001fe979d,3,0,2024-02-28T14:40:42.644Z,english_353.wav,0,peel,106,66,5,4,english,m,0,0.0,-70.67724429,1.06843483
5c8ee6c36ca70b0001fe979d,3,0,2024-02-28T14:40:42.644Z,english_353.wav,0,peel,106,66,5,4,english,m,1,0.1,-71.688049,0.77169117
5c8ee6c36ca70b0001fe979d,3,0,2024-02-28T14:40:42.644Z,english_353.wav,0,peel,106,66,5,4,english,m,2,0.2,35.51924952,1.46248358
5c8ee6c36ca70b0001fe979d,3,0,2024-02-28T14:40:42.644Z,english_353.wav,0,peel,106,66,5,4,english,m,3,0.3,-2.11218413,1.49078151
5c8ee6c36ca70b0001fe979d,3,0,2024-02-28T14:40:42.644Z,english_353.wav,0,peel,106,66,5,4,english,m,4,0.4,-16.43862389,1.12150818
5c8ee6c36ca70b0001fe979d,3,0,2024-02-28T14:40:42.644Z,english_353.wav,0,peel,106,66,5,4,english,m,5,0.5,42.52341858,1.51009479
5c8ee6c36ca70b0001fe979d,3,0,2024-02-28T14:40:42.644Z,english_353.wav,0,peel,106,66,5,4,english,m,6,0.6,-45.01562353,1.56291015
5c8ee6c36ca70b0001fe979d,3,0,2024-02-28T14:40:42.644Z,english_353.wav,0,peel,106,66,5,4,english,m,7,0.7,41.4367476,1.91892948
5c8ee6c36ca70b0001fe979d,3,0,2024-02-28T14:40:42.644Z,english_353.wav,0,peel,106,66,5,4,english,m,8,0.8,-7.80846777,1.01197455
5c8ee6c36ca70b0001fe979d,3,0,2024-02-28T14:40:42.644Z,english_353.wav,0,peel,106,66,5,4,english,m,9,0.9,42.15448352,1.4134273
5c8ee6c36ca70b0001fe979d,3,0,2024-02-28T14:40:42.644Z,english_353.wav,0,peel,106,66,5,4,english,m,10,1.0,92.0591742,1.42236133
5c8ee6c36ca70b0001fe979d,3,0,2024-02-28T14:40:42.644Z,english_353.wav,0,peel,106,66,5,4,english,m,11,1.09391667,-12.12221809,0.78816947
5c8ee6c36ca70b0001fe979d,4,0,2024-02-28T14:40:42.644Z,english_403.wav,0,peel,672,66,5,4,english,m,0,0.0,0.0155370236,1.50775741
5c8ee6c36ca70b0001fe979d,4,0,2024-02-28T14:40:42.644Z,english_403.wav,0,peel,672,66,5,4,english,m,1,0.1,-4.64270355,1.88632048
5c8ee6c36ca70b0001fe979d,4,0,2024-02-28T14:40:42.644Z,english_403.wav,0,peel,672,66,5,4,english,m,2,0.2,-86.7611077,1.79027228
5c8ee6c36ca70b0001fe979d,4,0,2024-02-28T14:40:42.644Z,english_403.wav,0,peel,672,66,5,4,english,m,3,0.3,-86.6854854,0.9708058
5c8ee6c36ca70b0001fe979d,4,0,2024-02-28T14:40:42.644Z,english_403.wav,0,peel,672,66,5,4,english,m,4,0.4,-74.3205589,1.26833926
5c8ee6c36ca70b0001fe979d,4,0,2024-02-28T14:40:42.644Z,english_403.wav,0,peel,672,66,5,4,english,m,5,0.5,56.1207621,0.98662828
5c8ee6c36ca70b0001fe979d,4,0,2024-02-28T14:40:42.644Z,english_403.wav,0,peel,672,66,5,4,english,m,6,0.6,15.0235235,1.65364002
5c8ee6c36ca70b0001fe979d,4,0,2024-02-28T14:40:42.644Z,english_403.wav,0,peel,672,66,5,4,english,m,7,0.7,25.8783198,1.52514764
5c8ee6c36ca70b0001fe979d,4,0,2024-02-28T14:40:42.644Z,english_403.wav,0,peel,672,66,5,4,english,m,8,0.8,21.3726461,1.10599603
5c8ee6c36ca70b0001fe979d,4,0,2024-02-28T14:40:42.644Z,english_403.wav,0,peel,672,66,5,4,english,m,9,0.9,86.9816794,1.01372586
5c8ee6c36ca70b0001fe979d,4,0,2024-02-28T14:40:42.644Z,english_403.wav,0,peel,672,66,5,4,english,m,10,1.0,-56.1900631,1.1928159
5c8ee6c36ca70b0001fe979d,4,0,2024-02-28T14:40:42.644Z,english_403.wav,0,peel,672,66,5,4,english,m,11,1.09391667,59.2986673,0.36234179
5c8ee6c36ca70b0001fe979d,5,0,2024-02-28T14:40:42.644Z,english_368.wav,0,peel,508,66,5,4,english,m,0,0.0,-21.74410199,1.11444004
5c8ee6c36ca70b0001fe979d,5,0,2024-02-28T14:40:42.644Z,english_368.wav,0,peel,508,66,5,4,english,m,1,0.1,-54.46820056,1.02689489
5c8ee6c36ca70b0001fe979d,5,0,2024-02-28T14:40:42.644Z,english_368.wav,0,peel,508,66,5,4,english,m,2,0.2,36.37288824,1.84847876
5c8ee6c36ca70b0001fe979d,5,0,2024-02-28T14:40:42.644Z,english_368.wav,0,peel,508,66,5,4,english,m,3,0.3,28.79669065,1.32768322
5c8ee6c36ca70b0001fe979d,5,0,2024-02-28T14:40:42.644Z,english_368.wav,0,peel,508,66,5,4,english,m,4,0.4,64.63914759,1.2143292
5c8ee6c36ca70b0001fe979d,5,0,2024-02-28T14:40:42.644Z,english_368.wav,0,peel,508,66,5,4,english,m,5,0.5,-47.48725989,1.4175641
5c8ee6c36ca70b0001fe979d,5,0,2024-02-28T14:40:42.644Z,english_368.wav,0,peel,508,66,5,4,english,m,6,0.6,-56.63725257,0.26859899
5c8ee6c36ca70b0001fe979d,5,0,2024-02-28T14:40:42.644Z,english_368.wav,0,peel,508,66,5,4,english,m,7,0.7,-15.67963737,1.20913194
5c8ee6c36ca70b0001fe979d,5,0,2024-02-28T14:40:42.644Z,english_368.wav,0,peel,508,66,5,4,english,m,8,0.8,-67.03077711,0.71725489
5c8ee6c36ca70b0001fe979d,5,0,2024-02-28T14:40:42.644Z,english_368.wav,0,peel,508,66,5,4,english,m,9,0.9,-87.98164929,0.61705061
5c8ee6c36ca70b0001fe979d,5,0,2024-02-28T14:40:42.644Z,english_368.wav,0,peel,508,66,5,4,english,m,10,1.0,66.360443,1.87423649
5c8ee6c36ca70b0001fe979d,5,0,2024-02-28T14:40:42.644Z,english_368.wav,0,peel,508,66,5,4,english,m,11,1.09391667,86.76512067,0.90814369
5c8ee6c36ca70b0001fe979d,6,0,2024-02-28T14:40:42.644Z,english_485.wav,0,peel,658,66,5,4,english,m,0,0.0,26.44907742,0.83287187
5c8ee6c36ca70b0001fe979d,6,0,2024-02-28T14:40:42.644Z,english_485.wav,0,peel,658,66,5,4,english,m,1,0.1,-73.42361147,1.40395819
5c8ee6c36ca70b0001fe979d,6,0,2024-02-28T14:40:42.644Z,english_485.wav,0,peel,658,66,5,4,english,m,2,0.2,92.83531317,1.51369756
5c8ee6c36ca70b0001fe979d,6,0,2024-02-28T14:40:42.644Z,english_485.wav,0,peel,658,66,5,4,english,m,3,0.3,82.36619494,0.99682619
5c8ee6c36ca70b0001fe979d,6,0,2024-02-28T14:40:42.644Z,english_485.wav,0,peel,658,66,5,4,english,m,4,0.4,-17.51087166,0.01124783
5c8ee6c36ca70b0001fe979d,6,0,2024-02-28T14:40:42.644Z,english_485.wav,0,peel,658,66,5,4,english,m,5,0.5,-26.28495986,0.02757377
5c8ee6c36ca70b0001fe979d,6,0,2024-02-28T14:40:42.644Z,english_485.wav,0,peel,658,66,5,4,english,m,6,0.6,0.94288036,0.89772739
5c8ee6c36ca70b0001fe979d,6,0,2024-02-28T14:40:42.644Z,english_485.wav,0,peel,658,66,5,4,english,m,7,0.7,-11.7082274,0.83950196
5c8ee6c36ca70b0001fe979d,6,0,2024-02-28T14:40:42.644Z,english_485.wav,0,peel,658,66,5,4,english,m,8,0.8,-66.16443059,0.91739043
5c8ee6c36ca70b0001fe979d,6,0,2024-02-28T14:40:42.644Z,english_485.wav,0,peel,658,66,5,4,english,m,9,0.9,-47.12237025,0.80980959
5c8ee6c36ca70b0001fe979d,6,0,2024-02-28T14:40:42.644Z,english_485.wav,0,peel,658,66,5,4,english,m,10,1.0,-81.68715,1.03797653
5c8ee6c36ca70b0001fe979d,6,0,2024-02-28T14:40:42.644Z,english_485.wav,0,peel,658,66,5,4,english,m,11,1.09391667,-22.18807282,0.63071559
5c8ee6c36ca70b0001fe979d,7,0,2024-02-28T14:40:42.644Z,english_958.wav,0,pill,1156,66,5,4,english,m,0,0.0,82.24324258,1.82058144
5c8ee6c36ca70b0001fe979d,7,0,2024-02-28T14:40:42.644Z,english_958.wav,0,pill,1156,66,5,4,english,m,1,0.1,80.86962612,1.23603782
5c8ee6c36ca70b0001fe979d,7,0,2024-02-28T14:40:42.644Z,english_958.wav,0,pill,1156,66,5,4,english,m,2,0.2,-72.80020936,0.454026
5c8ee6c36ca70b0001fe979d,7,0,2024-02-28T14:40:42.644Z,english_958.wav,0,pill,1156,66,5,4,english,m,3,0.3,76.49424807,0.0052754
5c8ee6c36ca70b0001fe979d,7,0,2024-02-28T14:40:42.644Z,english_958.wav,0,pill,1156,66,5,4,english,m,4,0.4,-64.96103848,1.08282214
5c8ee6c36ca70b0001fe979d,7,0,2024-02-28T14:40:42.644Z,english_958.wav,0,pill,1156,66,5,4,english,m,5,0.5,-28.48200693,1.85144542
5c8ee6c36ca70b0001fe979d,7,0,2024-02-28T14:40:42.644Z,english_958.wav,0,pill,1156,66,5,4,english,m,6,0.6,36.24392724,1.26196062
5c8ee6c36ca70b0001fe979d,7,0,2024-02-28T14:40:42.644Z,english_958.wav,0,pill,1156,66,5,4,english,m,7,0.7,61.50604074,1.03215922
5c8ee6c36ca70b0001fe979d,7,0,2024-02-28T14:40:42.644Z,english_958.wav,0,pill,1156,66,5,4,english,m,8,0.8,-15.49344292,0.62598284
5c8ee6c36ca70b0001fe979d,7,0,2024-02-28T14:40:42.644Z,english_958.wav,0,pill,1156,66,5,4,english,m,9,0.9,94.8143858,0.44294081
5c8ee6c36ca70b0001fe979d,7,0,2024-02-28T14:40:42.644Z,english_958.wav,0,pill,1156,66,5,4,english,m,10,1.0,-29.01167878,0.91164636
5c8ee6c36ca70b0001fe979d,7,0,2024-02-28T14:40:42.644Z,english_958.wav,0,pill,1156,66,5,4,english,m,11,1.09391667,29.83149857,0.09783427
5c8ee6c36ca70b0001fe979d,8,0,2024-02-28T14:40:42.644Z,english_271.wav,0,peel,258,66,5,4,english,m,0,0.0,83.54860051,1.23852779
5c8ee6c36ca70b0001fe979d,8,0,2024-02-28T14:40:42.644Z,english_271.wav,0,peel,258,66,5,4,english,m,1,0.1,-11.78692869,0.5617939
5c8ee6c36ca70b0001fe979d,8,0,2024-02-28T14:40:42.644Z,english_271.wav,0,peel,258,66,5,4,english,m,2,0.2,-93.59093408,1.03672554
5c8ee6c36ca70b0001fe979d,8,0,2024-02-28T14:40:42.644Z,english_271.wav,0,peel,258,66,5,4,english,m,3,0.3,53.60258666,1.7849895
5c8ee6c36ca70b0001fe979d,8,0,2024-02-28T14:40:42.644Z,english_271.wav,0,peel,258,66,5,4,english,m,4,0.4,-66.08364726,0.3533195
5c8ee6c36ca70b0001fe979d,8,0,2024-02-28T14:40:42.644Z,english_271.wav,0,peel,258,66,5,4,english,m,5,0.5,94.15354622,1.03785323
5c8ee6c36ca70b0001fe979d,8,0,2024-02-28T14:40:42.644Z,english_271.wav,0,peel,258,66,5,4,english,m,6,0.6,24.82086802,0.33969939
5c8ee6c36ca70b0001fe979d,8,0,2024-02-28T14:40:42.644Z,english_271.wav,0,peel,258,66,5,4,english,m,7,0.7,-91.87331613,1.93991394
5c8ee6c36ca70b0001fe979d,8,0,2024-02-28T14:40:42.644Z,english_271.wav,0,peel,258,66,5,4,english,m,8,0.8,94.31312055,1.07242572
5c8ee6c36ca70b0001fe979d,8,0,2024-02-28T14:40:42.644Z,english_271.wav,0,peel,258,66,5,4,english,m,9,0.9,-76.94840956,0.17124333
5c8ee6c36ca70b0001fe979d,8,0,2024-02-28T14:40:42.644Z,english_271.wav,0,peel,258,66,5,4,english,m,10,1.0,10.84106531,1.85218062
5c8ee6c36ca70b0001fe979d,8,0,2024-02-28T14:40:42.644Z,english_271.wav,0,peel,258,66,5,4,english,m,11,1.09391667,74.33271623,0.80828121
5c8ee6c36ca70b0001fe979d,9,0,2024-02-28T14:40:42.644Z,english_293.wav,0,pill,272,66,5,4,english,m,0,0.0,-41.6717185,1.35571263
5c8ee6c36ca70b0001fe979d,9,0,2024-02-28T14:40:42.644Z,english_293.wav,0,pill,272,66,5,4,english,m,1,0.1,80.2291893,0.51147984
5c8ee6c36ca70b0001fe979d,9,0,2024-02-28T14:40:42.644Z,english_293.wav,0,pill,272,66,5,4,english,m,2,0.2,-71.0140068,0.41951934
5c8ee6c36ca70b0001fe979d,9,0,2024-02-28T14:40:42.644Z,english_293.wav,0,pill,272,66,5,4,english,m,3,0.3,-90.64066123,0.6442562
5c8ee6c36ca70b0001fe979d,9,0,2024-02-28T14:40:42.644Z,english_293.wav,0,pill,272,66,5,4,english,m,4,0.4,-6.53332233,0.98522539
5c8ee6c36ca70b0001fe979d,9,0,2024-02-28T14:40:42.644Z,english_293.wav,0,pill,272,66,5,4,english,m,5,0.5,-9.32979117,0.92132945
5c8ee6c36ca70b0001fe979d,9,0,2024-02-28T14:40:42.644Z,english_293.wav,0,pill,272,66,5,4,english,m,6,0.6,53.89735235,1.4753131
5c8ee6c36ca70b0001fe979d,9,0,2024-02-28T14:40:42.644Z,english_293.wav,0,pill,272,66,5,4,english,m,7,0.7,-63.4364313,0.11499708
5c8ee6c36ca70b0001fe979d,9,0,2024-02-28T14:40:42.644Z,english_293.wav,0,pill,272,66,5,4,english,m,8,0.8,-96.19547901,1.03841664
5c8ee6c36ca70b0001fe979d,9,0,2024-02-28T14:40:42.644Z,english_293.wav,0,pill,272,66,5,4,english,m,9,0.9,-36.41686224,1.94583411
5c8ee6c36ca70b0001fe979d,9,0,2024-02-28T14:40:42.644Z,english_293.wav,0,pill,272,66,5,4,english,m,10,1.0,99.46412477,0.65545153
5c8ee6c36ca70b0001fe979d,9,0,2024-02-28T14:40:42.644Z,english_293.wav,0,pill,272,66,5,4,english,m,11,1.09391667,17.36040502,1.59979165
5c8ee6c36ca70b0001fe979d,10,0,2024-02-28T14:40:42.644Z,english_582.wav,0,peel,47,66,5,4,english,m,0,0.0,-92.78340469,1.00518837
5c8ee6c36ca70b0001fe979d,10,0,2024-02-28T14:40:42.644Z,english_582.wav,0,peel,47,66,5,4,english,m,1,0.1,42.51344298,1.30114299
5c8ee6c36ca70b0001fe979d,10,0,2024-02-28T14:40:42.644Z,english_582.wav,0,peel,47,66,5,4,english,m,2,0.2,-42.63495555,1.27031636
5c8ee6c36ca70b0001fe979d,10,0,2024-02-28T14:40:42.644Z,english_582.wav,0,peel,47,66,5,4,english,m,3,0.3,52.58085474,1.12025144
5c8ee6c36ca70b0001fe979d,10,0,2024-02-28T14:40:42.644Z,english_582.wav,0,peel,47,66,5,4,english,m,4,0.4,-78.11848263,0.79798268
5c8ee6c36ca70b0001fe979d,10,0,2024-02-28T14:40:42.644Z,english_582.wav,0,peel,47,66,5,4,english,m,5,0.5,-34.20952238,0.6293022
5c8ee6c36ca70b0001fe979d,10,0,2024-02-28T14:40:42.644Z,english_582.wav,0,peel,47,66,5,4,english,m,6,0.6,-86.64412457,1.95773952
5c8ee6c36ca70b0001fe979d,10,0,2024-02-28T14:40:42.644Z,english_582.wav,0,peel,47,66,5,4,english,m,7,0.7,26.30632387,0.97092523
5c8ee6c36ca70b0001fe979d,10,0,2024-02-28T14:40:42.644Z,english_582.wav,0,peel,47,66,5,4,english,m,8,0.8,-34.45754989,1.38286632
5c8ee6c36ca70b0001fe979d,10,0,2024-02-28T14:40:42.644Z,english_582.wav,0,peel,47,66,5,4,english,m,9,0.9,-45.78416277,1.31952832
5c8ee6c36ca70b0001fe979d,10,0,2024-02-28T14:40:42.644Z,english_582.wav,0,peel,47,66,5,4,english,m,10,1.0,-16.65162857,1.84309931
5c8ee6c36ca70b0001fe979d,10,0,2024-02-28T14:40:42.644Z,english_582.wav,0,peel,47,66,5,4,english,m,11,1.09391667,7.21919156,1.34013439
5c8ee6c36ca70b0001fe979d,11,0,2024-02-28T14:40:42.644Z,english_790.wav,0,pill,428,66,5,4,english,m,0,0.0,5.47810166,1.26408321
5c8ee6c36ca70b0001fe979d,11,0,2024-02-28T14:40:42.644Z,english_790.wav,0,pill,428,66,5,4,english,m,1,0.1,-9.2687044,0.26503637
5c8ee6c36ca70b0001fe979d,11,0,2024-02-28T14:40:42.644Z,english_790.wav,0,pill,428,66,5,4,english,m,2,0.2,71.91302434,0.46926152
5c8ee6c36ca70b0001fe979d,11,0,2024-02-28T14:40:42.644Z,english_790.wav,0,pill,428,66,5,4,english,m,3,0.3,-95.14086012,0.64840522
5c8ee6c36ca70b0001fe979d,11,0,2024-02-28T14:40:42.644Z,english_790.wav,0,pill,428,66,5,4,english,m,4,0.4,81.24819191,0.79568814
5c8ee6c36ca70b0001fe979d,11,0,2024-02-28T14:40:42.644Z,english_790.wav,0,pill,428,66,5,4,english,m,5,0.5,-43.38316414,0.82256958
5c8ee6c36ca70b0001fe979d,11,0,2024-02-28T14:40:42.644Z,english_790.wav,0,pill,428,66,5,4,english,m,6,0.6,81.5189634,1.36445651
5c8ee6c36ca70b0001fe979d,11,0,2024-02-28T14:40:42.644Z,english_790.wav,0,pill,428,66,5,4,english,m,7,0.7,36.28483158,0.42135765
5c8ee6c36ca70b0001fe979d,11,0,2024-02-28T14:40:42.644Z,english_790.wav,0,pill,428,66,5,4,english,m,8,0.8,68.43717388,0.07801016
5c8ee6c36ca70b0001fe979d,11,0,2024-02-28T14:40:42.644Z,english_790.wav,0,pill,428,66,5,4,english,m,9,0.9,10.19963637,0.70937824
5c8ee6c36ca70b0001fe979d,11,0,2024-02-28T14:40:42.644Z,english_790.wav,0,pill,428,66,5,4,english,m,10,1.0,-15.25841054,1.62056491
5c8ee6c36ca70b0001fe979d,11,0,2024-02-28T14:40:42.644Z,english_790.wav,0,pill,428,66,5,4,english,m,11,1.09391667,-62.44422803,1.67467407
5c8ee6c36ca70b0001fe979d,12,0,2024-02-28T14:40:42.644Z,english_721.wav,0,peel,313,66,5,4,english,m,0,0.0,-21.91327124,0.70003707
5c8ee6c36ca70b0001fe979d,12,0,2024-02-28T14:40:42.644Z,english_721.wav,0,peel,313,66,5,4,english,m,1,0.1,-90.20435546,0.21927921
5c8ee6c36ca70b0001fe979d,12,0,2024-02-28T14:40:42.644Z,english_721.wav,0,peel,313,66,5,4,english,m,2,0.2,95.69234683,1.46481191
5c8ee6c36ca70b0001fe979d,12,0,2024-02-28T14:40:42.644Z,english_721.wav,0,peel,313,66,5,4,english,m,3,0.3,22.1637049,0.791078
5c8ee6c36ca70b0001fe979d,12,0,2024-02-28T14:40:42.644Z,english_721.wav,0,peel,313,66,5,4,english,m,4,0.4,11.60833415,1.28893612
5c8ee6c36ca70b0001fe979d,12,0,2024-02-28T14:40:42.644Z,english_721.wav,0,peel,313,66,5,4,english,m,5,0.5,-18.08358407,1.03888409
5c8ee6c36ca70b0001fe979d,12,0,2024-02-28T14:40:42.644Z,english_721.wav,0,peel,313,66,5,4,english,m,6,0.6,-18.19761364,1.04801609
5c8ee6c36ca70b0001fe979d,12,0,2024-02-28T14:40:42.644Z,english_721.wav,0,peel,313,66,5,4,english,m,7,0.7,68.04091508,1.56253366
5c8ee6c36ca70b0001fe979d,12,0,2024-02-28T14:40:42.644Z,english_721.wav,0,peel,313,66,5,4,english,m,8,0.8,78.50797801,1.28640088
5c8ee6c36ca70b0001fe979d,12,0,2024-02-28T14:40:42.644Z,english_721.wav,0,peel,313,66,5,4,english,m,9,0.9,-26.72259946,0.27215185
5c8ee6c36ca70b0001fe979d,12,0,2024-02-28T14:40:42.644Z,english_721.wav,0,peel,313,66,5,4,english,m,10,1.0,-5.45523717,0.551057
5c8ee6c36ca70b0001fe979d,12,0,2024-02-28T14:40:42.644Z,english_721.wav,0,peel,313,66,5,4,english,m,11,1.09391667,8.48352437,1.19022125
5c8ee6c36ca70b0001fe979d,13,0,2024-02-28T14:40:42.644Z,english_544.wav,0,peel,289,66,5,4,english,m,0,0.0,-12.83752334,0.26746705
5c8ee6c36ca70b0001fe979d,13,0,2024-02-28T14:40:42.644Z,english_544.wav,0,peel,289,66,5,4,english,m,1,0.1,18.81551767,0.28928579
5c8ee6c36ca70b0001fe979d,13,0,2024-02-28T14:40:42.644Z,english_544.wav,0,peel,289,66,5,4,english,m,2,0.2,-29.56712799,1.1529058
5c8ee6c36ca70b0001fe979d,13,0,2024-02-28T14:40:42.644Z,english_544.wav,0,peel,289,66,5,4,english,m,3,0.3,-88.71669508,0.71030524
5c8ee6c36ca70b0001fe979d,13,0,2024-02-28T14:40:42.644Z,english_544.wav,0,peel,289,66,5,4,english,m,4,0.4,60.52504719,1.2257672
5c8ee6c36ca70b0001fe979d,13,0,2024-02-28T14:40:42.644Z,english_544.wav,0,peel,289,66,5,4,english,m,5,0.5,-63.41119431,1.58517904
5c8ee6c36ca70b0001fe979d,13,0,2024-02-28T14:40:42.644Z,english_544.wav,0,peel,289,66,5,4,english,m,6,0.6,8.79618234,0.02752012
5c8ee6c36ca70b0001fe979d,13,0,2024-02-28T14:40:42.644Z,english_544.wav,0,peel,289,66,5,4,english,m,7,0.7,-45.10475513,0.40266107
5c8ee6c36ca70b0001fe979d,13,0,2024-02-28T14:40:42.644Z,english_544.wav,0,peel,289,66,5,4,english,m,8,0.8,-50.11360918,1.24234406
5c8ee6c36ca70b0001fe979d,13,0,2024-02-28T14:40:42.644Z,english_544.wav,0,peel,289,66,5,4,english,m,9,0.9,24.528145,0.82116457
5c8ee6c36ca70b0001fe979d,13,0,2024-02-28T14:40:42.644Z,english_544.wav,0,peel,289,66,5,4,english,m,10,1.0,39.08857689,0.0963448
5c8ee6c36ca70b0001fe979d,13,0,2024-02-28T14:40:42.644Z,english_544.wav,0,peel,289,66,5,4,english,m,11,1.09391667,16.62790968,0.38181462
5c8ee6c36ca70b0001fe979d,14,0,2024-02-28T14:40:42.644Z,english_864.wav,0,peel,232,66,5,4,english,m,0,0.0,-0.0387960156,1.23414585
5c8ee6c36ca70b0001fe979d,14,0,2024-02-28T14:40:42.644Z,english_864.wav,0,peel,232,66,5,4,english,m,1,0.1,38.1316994,0.9307675
5c8ee6c36ca70b0001fe979d,14,0,2024-02-28T14:40:42.644Z,english_864.wav,0,peel,232,66,5,4,english,m,2,0.2,-27.0649645,0.03913176
5c8ee6c36ca70b0001fe979d,14,0,2024-02-28T14:40:42.644Z,english_864.wav,0,peel,232,66,5,4,english,m,3,0.3,48.6299289,0.1581059
5c8ee6c36ca70b0001fe979d,14,0,2024-02-28T14:40:42.644Z,english_864.wav,0,peel,232,66,5,4,english,m,4,0.4,-73.1690056,1.26848515
5c8ee6c36ca70b0001fe979d,14,0,2024-02-28T14:40:42.644Z,english_864.wav,0,peel,232,66,5,4,english,m,5,0.5,-28.1080401,1.70642176
5c8ee6c36ca70b0001fe979d,14,0,2024-02-28T14:40:42.644Z,english_864.wav,0,peel,232,66,5,4,english,m,6,0.6,47.3805694,1.16045112
5c8ee6c36ca70b0001fe979d,14,0,2024-02-28T14:40:42.644Z,english_864.wav,0,peel,232,66,5,4,english,m,7,0.7,-91.4211748,1.92718933
5c8ee6c36ca70b0001fe979d,14,0,2024-02-28T14:40:42.644Z,english_864.wav,0,peel,232,66,5,4,english,m,8,0.8,5.88699375,0.86462582
5c8ee6c36ca70b0001fe979d,14,0,2024-02-28T14:40:42.644Z,english_864.wav,0,peel,232,66,5,4,english,m,9,0.9,88.3416583,0.91973589
5c8ee6c36ca70b0001fe979d,14,0,2024-02-28T14:40:42.644Z,english_864.wav,0,peel,232,66,5,4,english,m,10,1.0,-36.7945697,0.59650291
5c8ee6c36ca70b0001fe979d,14,0,2024-02-28T14:40:42.644Z,english_864.wav,0,peel,232,66,5,4,english,m,11,1.09391667,-60.7645339,0.61493886
5c8ee6c36ca70b0001fe979d,15,0,2024-02-28T14:40:42.644Z,english_664.wav,0,peel,98,66,5,4,english,m,0,0.0,87.83799753,0.80622544
5c8ee6c36ca70b0001fe979d,15,0,2024-02-28T14:40:42.644Z,english_664.wav,0,peel,98,66,5,4,english,m,1,0.1,93.07880912,0.71131531
5c8ee6c36ca70b0001fe979d,15,0,2024-02-28T14:40:42.644Z,english_664.wav,0,peel,98,66,5,4,english,m,2,0.2,-21.43792859,0.52490717
5c8ee6c36ca70b0001fe979d,15,0,2024-02-28T14:40:42.644Z,english_664.wav,0,peel,98,66,5,4,english,m,3,0.3,54.61607152,0.79105774
5c8ee6c36ca70b0001fe979d,15,0,2024-02-28T14:40:42.644Z,english_664.wav,0,peel,98,66,5,4,english,m,4,0.4,63.53186125,0.74894626
5c8ee6c36ca70b0001fe979d,15,0,2024-02-28T14:40:42.644Z,english_664.wav,0,peel,98,66,5,4,english,m,5,0.5,69.57332079,0.96341942
5c8ee6c36ca70b0001fe979d,15,0,2024-02-28T14:40:42.644Z,english_664.wav,0,peel,98,66,5,4,english,m,6,0.6,-98.283012,0.12490453
5c8ee6c36ca70b0001fe979d,15,0,2024-02-28T14:40:42.644Z,english_664.wav,0,peel,98,66,5,4,english,m,7,0.7,3.96514961,1.772086
5c8ee6c36ca70b0001fe979d,15,0,2024-02-28T14:40:42.644Z,english_664.wav,0,peel,98,66,5,4,english,m,8,0.8,-68.49765079,1.2138043
5c8ee6c36ca70b0001fe979d,15,0,2024-02-28T14:40:42.644Z,english_664.wav,0,peel,98,66,5,4,english,m,9,0.9,22.71561052,1.03968333
5c8ee6c36ca70b0001fe979d,15,0,2024-02-28T14:40:42.644Z,english_664.wav,0,peel,98,66,5,4,english,m,10,1.0,62.92065682,1.01702127
5c8ee6c36ca70b0001fe979d,15,0,2024-02-28T14:40:42.644Z,english_664.wav,0,peel,98,66,5,4,english,m,11,1.09391667,7.64063367,1.88905221
5c8ee6c36ca70b0001fe979d,16,0,2024-02-28T14:40:42.644Z,english_354.wav,0,pill,492,66,5,4,english,m,0,0.0,-28.87420486,0.20754018
5c8ee6c36ca70b0001fe979d,16,0,2024-02-28T14:40:42.644Z,english_354.wav,0,pill,492,66,5,4,english,m,1,0.1,-23.35112853,1.88177303
5c8ee6c36ca70b0001fe979d,16,0,2024-02-28T14:40:42.644Z,english_354.wav,0,pill,492,66,5,4,english,m,2,0.2,5.36311679,1.60863404
5c8ee6c36ca70b0001fe979d,16,0,2024-02-28T14:40:42.644Z,english_354.wav,0,pill,492,66,5,4,english,m,3,0.3,88.42745553,0.83478671
5c8ee6c36ca70b0001fe979d,16,0,2024-02-28T14:40:42.644Z,english_354.wav,0,pill,492,66,5,4,english,m,4,0.4,2.47520697,1.51310965
5c8ee6c36ca70b0001fe979d,16,0,2024-02-28T14:40:42.644Z,english_354.wav,0,pill,492,66,5,4,english,m,5,0.5,46.1200008,1.04317866
5c8ee6c36ca70b0001fe979d,16,0,2024-02-28T14:40:42.644Z,english_354.wav,0,pill,492,66,5,4,english,m,6,0.6,-18.78131858,0.09474749
5c8ee6c36ca70b0001fe979d,16,0,2024-02-28T14:40:42.644Z,english_354.wav,0,pill,492,66,5,4,english,m,7,0.7,-50.4047441,1.6889762
5c8ee6c36ca70b0001fe979d,16,0,2024-02-28T14:40:42.644Z,english_354.wav,0,pill,492,66,5,4,english,m,8,0.8,70.60844452,0.35231613
5c8ee6c36ca70b0001fe979d,16,0,2024-02-28T14:40:42.644Z,english_354.wav,0,pill,492,66,5,4,english,m,9,0.9,-79.1017332,0.20561504
5c8ee6c36ca70b0001fe979d,16,0,2024-02-28T14:40:42.644Z,english_354.wav,0,pill,492,66,5,4,english,m,10,1.0,-66.82350364,0.40462269
5c8ee6c36ca70b0001fe979d,16,0,2024-02-28T14:40:42.644Z,english_354.wav,0,pill,492,66,5,4,english,m,11,1.09391667,-48.20226443,0.51831425
5c8ee6c36ca70b0001fe979d,17,0,2024-02-28T14:40:42.644Z,english_369.wav,0,pill,417,66,5,4,english,m,0,0.0,-98.51702781,1.05319591
5c8ee6c36ca70b0001fe979d,17,0,2024-02-28T14:40:42.644Z,english_369.wav,0,pill,417,66,5,4,english,m,1,0.1,-77.74164505,0.35563608
5c8ee6c36ca70b0001fe979d,17,0,2024-02-28T14:40:42.644Z,english_369.wav,0,pill,417,66,5,4,english,m,2,0.2,13.86053007,0.74921535
5c8ee6c36ca70b0001fe979d,17,0,2024-02-28T14:40:42.644Z,english_369.wav,0,pill,417,66,5,4,english,m,3,0.3,94.45294859,1.88151113
5c8ee6c36ca70b0001fe979d,17,0,2024-02-28T14:40:42.644Z,english_369.wav,0,pill,417,66,5,4,english,m,4,0.4,-68.44131684,1.38340448
5c8ee6c36ca70b0001fe979d,17,0,2024-02-28T14:40:42.644Z,english_369.wav,0,pill,417,66,5,4,english,m,5,0.5,-11.02159052,1.0971757
5c8ee6c36ca70b0001fe979d,17,0,2024-02-28T14:40:42.644Z,english_369.wav,0,pill,417,66,5,4,english,m,6,0.6,-93.03562761,0.74102815
5c8ee6c36ca70b0001fe979d,17,0,2024-02-28T14:40:42.644Z,english_369.wav,0,pill,417,66,5,4,english,m,7,0.7,92.19991551,0.86578633
5c8ee6c36ca70b0001fe979d,17,0,2024-02-28T14:40:42.644Z,english_369.wav,0,pill,417,66,5,4,english,m,8,0.8,44.28946949,0.42333119
5c8ee6c36ca70b0001fe979d,17,0,2024-02-28T14:40:42.644Z,english_369.wav,0,pill,417,66,5,4,english,m,9,0.9,-36.54704406,1.30148328
5c8ee6c36ca70b0001fe979d,17,0,2024-02-28T14:40:42.644Z,english_369.wav,0,pill,417,66,5,4,english,m,10,1.0,75.92915306,0.13274677
5c8ee6c36ca70b0001fe979d,17,0,2024-02-28T14:40:42.644Z,english_369.wav,0,pill,417,66,5,4,english,m,11,1.09391667,43.6375557,0.3552412
5c8ee6c36ca70b0001fe979d,18,0,2024-02-28T14:40:42.644Z,english_135.wav,0,peel,447,66,5,4,english,m,0,0.0,1.52771956,1.05574256
5c8ee6c36ca70b0001fe979d,18,0,2024-02-28T14:40:42.644Z,english_135.wav,0,peel,447,66,5,4,english,m,1,0.1,87.85930758,0.07400982
5c8ee6c36ca70b0001fe979d,18,0,2024-02-28T14:40:42.644Z,english_135.wav,0,peel,447,66,5,4,english,m,2,0.2,10.69232429,1.27555025
5c8ee6c36ca70b0001fe979d,18,0,2024-02-28T14:40:42.644Z,english_135.wav,0,peel,447,66,5,4,english,m,3,0.3,-30.56293348,1.65548466
5c8ee6c36ca70b0001fe979d,18,0,2024-02-28T14:40:42.644Z,english_135.wav,0,peel,447,66,5,4,english,m,4,0.4,18.68768105,0.65488565
5c8ee6c36ca70b0001fe979d,18,0,2024-02-28T14:40:42.644Z,english_135.wav,0,peel,447,66,5,4,english,m,5,0.5,83.74749446,1.6850938
5c8ee6c36ca70b0001fe979d,18,0,2024-02-28T14:40:42.644Z,english_135.wav,0,peel,447,66,5,4,english,m,6,0.6,2.30267465,0.17916719
5c8ee6c36ca70b0001fe979d,18,0,2024-02-28T14:40:42.644Z,english_135.wav,0,peel,447,66,5,4,english,m,7,0.7,10.55624665,0.7091252
5c8ee6c36ca70b0001fe979d,18,0,2024-02-28T14:40:42.644Z,english_135.wav,0,peel,447,66,5,4,english,m,8,0.8,-52.17497639,1.14424326
5c8ee6c36ca70b0001fe979d,18,0,2024-02-28T14:40:42.644Z,english_135.wav,0,peel,447,66,5,4,english,m,9,0.9,63.1552018,0.08021557
5c8ee6c36ca70b0001fe979d,18,0,2024-02-28T14:40:42.644Z,english_135.wav,0,peel,447,66,5,4,english,m,10,1.0,32.56027872,1.28558373
5c8ee6c36ca70b0001fe979d,18,0,2024-02-28T14:40:42.644Z,english_135.wav,0,peel,447,66,5,4,english,m,11,1.09391667,49.01841871,0.80254185
5c8ee6c36ca70b0001fe979d,19,0,2024-02-28T14:40:42.644Z,english_603.wav,0,peel,142,66,5,4,english,m,0,0.0,-92.82127988,0.46202599
5c8ee6c36ca70b0001fe979d,19,0,2024-02-28T14:40:42.644Z,english_603.wav,0,peel,142,66,5,4,english,m,1,0.1,-10.8879853,0.04069155
5c8ee6c36ca70b0001fe979d,19,0,2024-02-28T14:40:42.644Z,english_603.wav,0,peel,142,66,5,4,english,m,2,0.2,87.07339117,0.53206278
5c8ee6c36ca70b0001fe979d,19,0,2024-02-28T14:40:42.644Z,english_603.wav,0,peel,142,66,5,4,english,m,3,0.3,94.16233181,1.44505889
5c8ee6c36ca70b0001fe979d,19,0,2024-02-28T14:40:42.644Z,english_603.wav,0,peel,142,66,5,4,english,m,4,0.4,41.70993127,1.73804989
5c8ee6c36ca70b0001fe979d,19,0,2024-02-28T14:40:42.644Z,english_603.wav,0,peel,142,66,5,4,english,m,5,0.5,-9.49662532,0.79060569
5c8ee6c36ca70b0001fe979d,19,0,2024-02-28T14:40:42.644Z,english_603.wav,0,peel,142,66,5,4,english,m,6,0.6,0.93436069,1.79017292
5c8ee6c36ca70b0001fe979d,19,0,2024-02-28T14:40:42.644Z,english_603.wav,0,peel,142,66,5,4,english,m,7,0.7,-31.16965002,1.60375186
5c8ee6c36ca70b0001fe979d,19,0,2024-02-28T14:40:42.644Z,english_603.wav,0,peel,142,66,5,4,english,m,8,0.8,22.515306,1.61763715
5c8ee6c36ca70b0001fe979d,19,0,2024-02-28T14:40:42.644Z,english_603.wav,0,peel,142,66,5,4,english,m,9,0.9,39.07324,1.44528026
5c8ee6c36ca70b0001fe979d,19,0,2024-02-28T14:40:42.644Z,english_603.wav,0,peel,142,66,5,4,english,m,10,1.0,-34.19262646,0.82648617
5c8ee6c36ca70b0001fe979d,19,0,2024-02-28T14:40:42.644Z,english_603.wav,0,peel,142,66,5,4,english,m,11,1.09391667,7.30050377,1.94101738
5c8ee6c36ca70b0001fe979d,20,0,2024-02-28T14:40:42.644Z,english_785.wav,0,pill,518,66,5,4,english,m,0,0.0,-73.74150429,1.15978121
5c8ee6c36ca70b0001fe979d,20,0,2024-02-28T14:40:42.644Z,english_785.wav,0,pill,518,66,5,4,english,m,1,0.1,-10.25262424,1.76239803
5c8ee6c36ca70b0001fe979d,20,0,2024-02-28T14:40:42.644Z,english_785.wav,0,pill,518,66,5,4,english,m,2,0.2,-91.38996228,1.35267709
5c8ee6c36ca70b0001fe979d,20,0,2024-02-28T14:40:42.644Z,english_785.wav,0,pill,518,66,5,4,english,m,3,0.3,-58.16150792,0.50742704
5c8ee6c36ca70b0001fe979d,20,0,2024-02-28T14:40:42.644Z,english_785.wav,0,pill,518,66,5,4,english,m,4,0.4,56.13851827,1.43887546
5c8ee6c36ca70b0001fe979d,20,0,2024-02-28T14:40:42.644Z,english_785.wav,0,pill,518,66,5,4,english,m,5,0.5,-53.87138426,0.30204401
5c8ee6c36ca70b0001fe979d,20,0,2024-02-28T14:40:42.644Z,english_785.wav,0,pill,518,66,5,4,english,m,6,0.6,-26.51328271,0.04616459
5c8ee6c36ca70b0001fe979d,20,0,2024-02-28T14:40:42.644Z,english_785.wav,0,pill,518,66,5,4,english,m,7,0.7,38.10109315,0.31028806
5c8ee6c36ca70b0001fe979d,20,0,2024-02-28T14:40:42.644Z,english_785.wav,0,pill,518,66,5,4,english,m,8,0.8,-52.27058488,1.01215639
5c8ee6c36ca70b0001fe979d,20,0,2024-02-28T14:40:42.644Z,english_785.wav,0,pill,518,66,5,4,english,m,9,0.9,61.81362114,1.14370061
5c8ee6c36ca70b0001fe979d,20,0,2024-02-28T14:40:42.644Z,english_785.wav,0,pill,518,66,5,4,english,m,10,1.0,-48.3420263,1.51703025
5c8ee6c36ca70b0001fe979d,20,0,2024-02-28T14:40:42.644Z,english_785.wav,0,pill,518,66,5,4,english,m,11,1.09391667,5.55581958,0.02011385
5c8ee6c36ca70b0001fe979d,21,0,2024-02-28T14:40:42.644Z,english_241.wav,0,peel,190,66,5,4,english,m,0,0.0,-97.22432216,1.35478851
5c8ee6c36ca70b0001fe979d,21,0,2024-02-28T14:40:42.644Z,english_241.wav,0,peel,190,66,5,4,english,m,1,0.1,-28.14905208,0.42795765
5c8ee6c36ca70b0001fe979d,21,0,2024-02-28T14:40:42.644Z,english_241.wav,0,peel,190,66,5,4,english,m,2,0.2,47.39910383,0.77593108
5c8ee6c36ca70b0001fe979d,21,0,2024-02-28T14:40:42.644Z,english_241.wav,0,peel,190,66,5,4,english,m,3,0.3,62.74698337,1.52084491
5c8ee6c36ca70b0001fe979d,21,0,2024-02-28T14:40:42.644Z,english_241.wav,0,peel,190,66,5,4,english,m,4,0.4,42.69629452,1.0423858
5c8ee6c36ca70b0001fe979d,21,0,2024-02-28T14:40:42.644Z,english_241.wav,0,peel,190,66,5,4,english,m,5,0.5,-28.86057988,0.26192027
5c8ee6c36ca70b0001fe979d,21,0,2024-02-28T14:40:42.644Z,english_241.wav,0,peel,190,66,5,4,english,m,6,0.6,47.37469517,1.65360196
5c8ee6c36ca70b0001fe979d,21,0,2024-02-28T14:40:42.644Z,english_241.wav,0,peel,190,66,5,4,english,m,7,0.7,19.60148675,1.3989631
5c8ee6c36ca70b0001fe979d,21,0,2024-02-28T14:40:42.644Z,english_241.wav,0,peel,190,66,5,4,english,m,8,0.8,25.28127543,0.94780347
5c8ee6c36ca70b0001fe979d,21,0,2024-02-28T14:40:42.644Z,english_241.wav,0,peel,190,66,5,4,english,m,9,0.9,-90.65530928,1.1797356
5c8ee6c36ca70b0001fe979d,21,0,2024-02-28T14:40:42.644Z,english_241.wav,0,peel,190,66,5,4,english,m,10,1.0,58.14244463,1.19530939
5c8ee6c36ca70b0001fe979d,21,0,2024-02-28T14:40:42.644Z,english_241.wav,0,peel,190,66,5,4,english,m,11,1.09391667,33.70088271,0.5415955
5c8ee6c36ca70b0001fe979d,22,0,2024-02-28T14:40:42.644Z,english_462.wav,0,pill,443,66,5,4,english,m,0,0.0,78.76621738,0.83121963
5c8ee6c36ca70b0001fe979d,22,0,2024-02-28T14:40:42.644Z,english_462.wav,0,pill,443,66,5,4,english,m,1,0.1,31.47495931,1.43506309
5c8ee6c36ca70b0001fe979d,22,0,2024-02-28T14:40:42.644Z,english_462.wav,0,pill,443,66,5,4,english,m,2,0.2,-13.74936046,0.97721307
5c8ee6c36ca70b0001fe979d,22,0,2024-02-28T14:40:42.644Z,english_462.wav,0,pill,443,66,5,4,english,m,3,0.3,-80.17251448,0.92562125
5c8ee6c36ca70b0001fe979d,22,0,2024-02-28T14:40:42.644Z,english_462.wav,0,pill,443,66,5,4,english,m,4,0.4,-78.67939132,0.04016866
5c8ee6c36ca70b0001fe979d,22,0,2024-02-28T14:40:42.644Z,english_462.wav,0,pill,443,66,5,4,english,m,5,0.5,43.51355655,0.46288791
5c8ee6c36ca70b0001fe979d,22,0,2024-02-28T14:40:42.644Z,english_462.wav,0,pill,443,66,5,4,english,m,6,0.6,3.64631971,1.76703425
5c8ee6c36ca70b0001fe979d,22,0,2024-02-28T14:40:42.644Z,english_462.wav,0,pill,443,66,5,4,english,m,7,0.7,-45.69022839,1.40353438
5c8ee6c36ca70b0001fe979d,22,0,2024-02-28T14:40:42.644Z,english_462.wav,0,pill,443,66,5,4,english,m,8,0.8,-12.47954209,0.01443424
5c8ee6c36ca70b0001fe979d,22,0,2024-02-28T14:40:42.644Z,english_462.wav,0,pill,443,66,5,4,english,m,9,0.9,-13.33411056,0.75223744
5c8ee6c36ca70b0001fe979d,22,0,2024-02-28T14:40:42.644Z,english_462.wav,0,pill,443,66,5,4,english,m,10,1.0,14.72637348,0.69611535
5c8ee6c36ca70b0001fe979d,22,0,2024-02-28T14:40:42.644Z,english_462.wav,0,pill,443,66,5,4,english,m,11,1.09391667,-47.88617719,0.81633503
5c8ee6c36ca70b0001fe979d,23,0,2024-02-28T14:40:42.644Z,english_613.wav,0,peel,226,66,5,4,english,m,0,0.0,56.02417359,1.45969094
5c8ee6c36ca70b0001fe979d,23,0,2024-02-28T14:40:42.644Z,english_613.wav,0,peel,226,66,5,4,english,m,1,0.1,-15.12096295,0.70307333
5c8ee6c36ca70b0001fe979d,23,0,2024-02-28T14:40:42.644Z,english_613.wav,0,peel,226,66,5,4,english,m,2,0.2,24.11599025,1.55595157
5c8ee6c36ca70b0001fe979d,23,0,2024-02-28T14:40:42.644Z,english_613.wav,0,peel,226,66,5,4,english,m,3,0.3,-98.52161237,0.89820675
5c8ee6c36ca70b0001fe979d,23,0,2024-02-28T14:40:42.644Z,english_613.wav,0,peel,226,66,5,4,english,m,4,0.4,-83.03822249,1.36107021
5c8ee6c36ca70b0001fe979d,23,0,2024-02-28T14:40:42.644Z,english_613.wav,0,peel,226,66,5,4,english,m,5,0.5,21.43017138,0.16432707
5c8ee6c36ca70b0001fe979d,23,0,2024-02-28T14:40:42.644Z,english_613.wav,0,peel,226,66,5,4,english,m,6,0.6,63.83169659,0.04833877
5c8ee6c36ca70b0001fe979d,23,0,2024-02-28T14:40:42.644Z,english_613.wav,0,peel,226,66,5,4,english,m,7,0.7,20.52778074,0.40598637
5c8ee6c36ca70b0001fe979d,23,0,2024-02-28T14:40:42.644Z,english_613.wav,0,peel,226,66,5,4,english,m,8,0.8,94.54806404,1.56556559
5c8ee6c36ca70b0001fe979d,23,0,2024-02-28T14:40:42.644Z,english_613.wav,0,peel,226,66,5,4,english,m,9,0.9,22.39216261,0.73835637
5c8ee6c36ca70b0001fe979d,23,0,2024-02-28T14:40:42.644Z,english_613.wav,0,peel,226,66,5,4,english,m,10,1.0,-21.9484098,1.13631796
5c8ee6c36ca70b0001fe979d,23,0,2024-02-28T14:40:42.644Z,english_613.wav,0,peel,226,66,5,4,english,m,11,1.09391667,-64.50590256,0.17382409
5c8ee6c36ca70b0001fe979d,24,0,2024-02-28T14:40:42.644Z,english_812.wav,0,peel,269,66,5,4,english,m,0,0.0,-74.39405292,0.33785156
5c8ee6c36ca70b0001fe979d,24,0,2024-02-28T14:40:42.644Z,english_812.wav,0,peel,269,66,5,4,english,m,1,0.1,48.51980233,1.22752684
5c8ee6c36ca70b0001fe979d,24,0,2024-02-28T14:40:42.644Z,english_812.wav,0,peel,269,66,5,4,english,m,2,0.2,30.32531814,1.43694832
5c8ee6c36ca70b0001fe979d,24,0,2024-02-28T14:40:42.644Z,english_812.wav,0,peel,269,66,5,4,english,m,3,0.3,85.76843882,1.56264474
5c8ee6c36ca70b0001fe979d,24,0,2024-02-28T14:40:42.644Z,english_812.wav,0,peel,269,66,5,4,english,m,4,0.4,0.84929795,0.39298857
5c8ee6c36ca70b0001fe979d,24,0,2024-02-28T14:40:42.644Z,english_812.wav,0,peel,269,66,5,4,english,m,5,0.5,-13.37525602,1.28085639
5c8ee6c36ca70b0001fe979d,24,0,2024-02-28T14:40:42.644Z,english_812.wav,0,peel,269,66,5,4,english,m,6,0.6,54.45247284,1.06153563
5c8ee6c36ca70b0001fe979d,24,0,2024-02-28T14:40:42.644Z,english_812.wav,0,peel,269,66,5,4,english,m,7,0.7,-16.62398762,1.70174888
5c8ee6c36ca70b0001fe979d,24,0,2024-02-28T14:40:42.644Z,english_812.wav,0,peel,269,66,5,4,english,m,8,0.8,13.79350344,1.57881104
5c8ee6c36ca70b0001fe979d,24,0,2024-02-28T14:40:42.644Z,english_812.wav,0,peel,269,66,5,4,english,m,9,0.9,-99.90183813,0.93688007
5c8ee6c36ca70b0001fe979d,24,0,2024-02-28T14:40:42.644Z,english_812.wav,0,peel,269,66,5,4,english,m,10,1.0,-21.07031743,0.34388752
5c8ee6c36ca70b0001fe979d,24,0,2024-02-28T14:40:42.644Z,english_812.wav,0,peel,269,66,5,4,english,m,11,1.09391667,-92.73500895,0.8834258
5c8ee6c36ca70b0001fe979d,25,0,2024-02-28T14:40:42.644Z,english_840.wav,0,peel,266,66,5,4,english,m,0,0.0,26.56026625,0.58802825
5c8ee6c36ca70b0001fe979d,25,0,2024-02-28T14:40:42.644Z,english_840.wav,0,peel,266,66,5,4,english,m,1,0.1,-45.76742425,0.34012551
5c8ee6c36ca70b0001fe979d,25,0,2024-02-28T14:40:42.644Z,english_840.wav,0,peel,266,66,5,4,english,m,2,0.2,58.26038182,1.59409568
5c8ee6c36ca70b0001fe979d,25,0,2024-02-28T14:40:42.644Z,english_840.wav,0,peel,266,66,5,4,english,m,3,0.3,-41.91368618,1.45145116
5c8ee6c36ca70b0001fe979d,25,0,2024-02-28T14:40:42.644Z,english_840.wav,0,peel,266,66,5,4,english,m,4,0.4,51.82879955,1.12346348
5c8ee6c36ca70b0001fe979d,25,0,2024-02-28T14:40:42.644Z,english_840.wav,0,peel,266,66,5,4,english,m,5,0.5,-58.1814991,0.72614378
5c8ee6c36ca70b0001fe979d,25,0,2024-02-28T14:40:42.644Z,english_840.wav,0,peel,266,66,5,4,english,m,6,0.6,-6.21480863,0.0561304
5c8ee6c36ca70b0001fe979d,25,0,2024-02-28T14:40:42.644Z,english_840.wav,0,peel,266,66,5,4,english,m,7,0.7,-38.35463557,1.05027211
5c8ee6c36ca70b0001fe979d,25,0,2024-02-28T14:40:42.644Z,english_840.wav,0,peel,266,66,5,4,english,m,8,0.8,62.53471627,0.63772174
5c8ee6c36ca70b0001fe979d,25,0,2024-02-28T14:40:42.644Z,english_840.wav,0,peel,266,66,5,4,english,m,9,0.9,-5.88618506,0.79180252
5c8ee6c36ca70b0001fe979d,25,0,2024-02-28T14:40:42.644Z,english_840.wav,0,peel,266,66,5,4,english,m,10,1.0,-22.96620486,0.08952915
5c8ee6c36ca70b0001fe979d,25,0,2024-02-28T14:40:42.644Z,english_840.wav,0,peel,266,66,5,4,english,m,11,1.09391667,38.90401131,0.46969462
5c8ee6c36ca70b0001fe979d,26,0,2024-02-28T14:40:42.644Z,english_82.wav,0,pill,351,66,5,4,english,m,0,0.0,-50.65944843,0.53695405
5c8ee6c36ca70b0001fe979d,26,0,2024-02-28T14:40:42.644Z,english_82.wav,0,pill,351,66,5,4,english,m,1,0.1,-8.30198342,1.68823048
5c8ee6c36ca70b0001fe979d,26,0,2024-02-28T14:40:42.644Z,english_82.wav,0,pill,351,66,5,4,english,m,2,0.2,28.238309,0.29560695
5c8ee6c36ca70b0001fe979d,26,0,2024-02-28T14:40:42.644Z,english_82.wav,0,pill,351,66,5,4,english,m,3,0.3,-35.80408689,0.83443164
5c8ee6c36ca70b0001fe979d,26,0,2024-02-28T14:40:42.644Z,english_82.wav,0,pill,351,66,5,4,english,m,4,0.4,80.50699914,0.87894934
5c8ee6c36ca70b0001fe979d,26,0,2024-02-28T14:40:42.644Z,english_82.wav,0,pill,351,66,5,4,english,m,5,0.5,-99.69979401,1.46703122
5c8ee6c36ca70b0001fe979d,26,0,2024-02-28T14:40:42.644Z,english_82.wav,0,pill,351,66,5,4,english,m,6,0.6,30.38876845,0.23248639
5c8ee6c36ca70b0001fe979d,26,0,2024-02-28T14:40:42.644Z,english_82.wav,0,pill,351,66,5,4,english,m,7,0.7,-2.76434691,1.71572221
5c8ee6c36ca70b0001fe979d,26,0,2024-02-28T14:40:42.644Z,english_82.wav,0,pill,351,66,5,4,english,m,8,0.8,-19.59960586,1.24729907
5c8ee6c36ca70b0001fe979d,26,0,2024-02-28T14:40:42.644Z,english_82.wav,0,pill,351,66,5,4,english,m,9,0.9,-93.26966696,0.75753981
5c8ee6c36ca70b0001fe979d,26,0,2024-02-28T14:40:42.644Z,english_82.wav,0,pill,351,66,5,4,english,m,10,1.0,64.56379815,1.65214627
5c8ee6c36ca70b0001fe979d,26,0,2024-02-28T14:40:42.644Z,english_82.wav,0,pill,351,66,5,4,english,m,11,1.09391667,-59.79308705,0.40383656
5c8ee6c36ca70b0001fe979d,27,0,2024-02-28T14:40:42.644Z,english_446.wav,0,peel,446,66,5,4,english,m,0,0.0,-71.72833513,0.37077237
5c8ee6c36ca70b0001fe979d,27,0,2024-02-28T14:40:42.644Z,english_446.wav,0,peel,446,66,5,4,english,m,1,0.1,-14.74031919,0.56990881
5c8ee6c36ca70b0001fe979d,27,0,2024-02-28T14:40:42.644Z,english_446.wav,0,peel,446,66,5,4,english,m,2,0.2,-21.83541147,1.59729725
5c8ee6c36ca70b0001fe979d,27,0,2024-02-28T14:40:42.644Z,english_446.wav,0,peel,446,66,5,4,english,m,3,0.3,-67.51881517,1.97035771
5c8ee6c36ca70b0001fe979d,27,0,2024-02-28T14:40:42.644Z,english_446.wav,0,peel,446,66,5,4,english,m,4,0.4,-91.38875442,0.52850963
5c8ee6c36ca70b0001fe979d,27,0,2024-02-28T14:40:42.644Z,english_446.wav,0,peel,446,66,5,4,english,m,5,0.5,6.74447183,1.74112616
5c8ee6c36ca70b0001fe979d,27,0,2024-02-28T14:40:42.644Z,english_446.wav,0,peel,446,66,5,4,english,m,6,0.6,26.61618155,0.02543003
5c8ee6c36ca70b0001fe979d,27,0,2024-02-28T14:40:42.644Z,english_446.wav,0,peel,446,66,5,4,english,m,7,0.7,72.29706337,0.19739553
5c8ee6c36ca70b0001fe979d,27,0,2024-02-28T14:40:42.644Z,english_446.wav,0,peel,446,66,5,4,english,m,8,0.8,58.26898218,0.10712319
5c8ee6c36ca70b0001fe979d,27,0,2024-02-28T14:40:42.644Z,english_446.wav,0,peel,446,66,5,4,english,m,9,0.9,30.44634512,0.63352141
5c8ee6c36ca70b0001fe979d,27,0,2024-02-28T14:40:42.644Z,english_446.wav,0,peel,446,66,5,4,english,m,10,1.0,-17.84842899,1.44239476
5c8ee6c36ca70b0001fe979d,27,0,2024-02-28T14:40:42.644Z,english_446.wav,0,peel,446,66,5,4,english,m,11,1.09391667,-24.00080187,0.76601062
5c8ee6c36ca70b0001fe979d,28,0,2024-02-28T14:40:42.644Z,english_500.wav,0,pill,1167,66,5,4,english,m,0,0.0,66.22088329,0.53820699
5c8ee6c36ca70b0001fe979d,28,0,2024-02-28T14:40:42.644Z,english_500.wav,0,pill,1167,66,5,4,english,m,1,0.1,-5.13412803,0.50417448
5c8ee6c36ca70b0001fe979d,28,0,2024-02-28T14:40:42.644Z,english_500.wav,0,pill,1167,66,5,4,english,m,2,0.2,-6.11874153,1.24224985
5c8ee6c36ca70b0001fe979d,28,0,2024-02-28T14:40:42.644Z,english_500.wav,0,pill,1167,66,5,4,english,m,3,0.3,-90.40360626,1.39300909
5c8ee6c36ca70b0001fe979d,28,0,2024-02-28T14:40:42.644Z,english_500.wav,0,pill,1167,66,5,4,english,m,4,0.4,32.06545372,1.26037646
5c8ee6c36ca70b0001fe979d,28,0,2024-02-28T14:40:42.644Z,english_500.wav,0,pill,1167,66,5,4,english,m,5,0.5,-65.0306572,1.07818355
5c8ee6c36ca70b0001fe979d,28,0,2024-02-28T14:40:42.644Z,english_500.wav,0,pill,1167,66,5,4,english,m,6,0.6,-6.23225895,1.23543803
5c8ee6c36ca70b0001fe979d,28,0,2024-02-28T14:40:42.644Z,english_500.wav,0,pill,1167,66,5,4,english,m,7,0.7,-23.5823243,1.80782898
5c8ee6c36ca70b0001fe979d,28,0,2024-02-28T14:40:42.644Z,english_500.wav,0,pill,1167,66,5,4,english,m,8,0.8,77.81337781,0.94957733
5c8ee6c36ca70b0001fe979d,28,0,2024-02-28T14:40:42.644Z,english_500.wav,0,pill,1167,66,5,4,english,m,9,0.9,-20.41987669,0.60641079
5c8ee6c36ca70b0001fe979d,28,0,2024-02-28T14:40:42.644Z,english_500.wav,0,pill,1167,66,5,4,english,m,10,1.0,21.49612229,1.83181528
5c8ee6c36ca70b0001fe979d,28,0,2024-02-28T14:40:42.644Z,english_500.wav,0,pill,1167,66,5,4,english,m,11,1.09391667,9.32174873,0.67500242
5c8ee6c36ca70b0001fe979d,29,0,2024-02-28T14:40:42.644Z,english_966.wav,0,pill,546,66,5,4,english,m,0,0.0,-96.91789055,1.23686614
5c8ee6c36ca70b0001fe979d,29,0,2024-02-28T14:40:42.644Z,english_966.wav,0,pill,546,66,5,4,english,m,1,0.1,-64.86850103,0.67188965
5c8ee6c36ca70b0001fe979d,29,0,2024-02-28T14:40:42.644Z,english_966.wav,0,pill,546,66,5,4,english,m,2,0.2,-43.92628472,0.33271907
5c8ee6c36ca70b0001fe979d,29,0,2024-02-28T14:40:42.644Z,english_966.wav,0,pill,546,66,5,4,english,m,3,0.3,-93.7136214,1.62713329
5c8ee6c36ca70b0001fe979d,29,0,2024-02-28T14:40:42.644Z,english_966.wav,0,pill,546,66,5,4,english,m,4,0.4,-57.14902712,1.49154652
5c8ee6c36ca70b0001fe979d,29,0,2024-02-28T14:40:42.644Z,english_966.wav,0,pill,546,66,5,4,english,m,5,0.5,-12.68506719,1.31520623
5c8ee6c36ca70b0001fe979d,29,0,2024-02-28T14:40:42.644Z,english_966.wav,0,pill,546,66,5,4,english,m,6,0.6,-15.43922669,0.20724492
5c8ee6c36ca70b0001fe979d,29,0,2024-02-28T14:40:42.644Z,english_966.wav,0,pill,546,66,5,4,english,m,7,0.7,24.10386484,0.13137995
5c8ee6c36ca70b0001fe979d,29,0,2024-02-28T14:40:42.644Z,english_966.wav,0,pill,546,66,5,4,english,m,8,0.8,3.35646026,1.15134967
5c8ee6c36ca70b0001fe979d,29,0,2024-02-28T14:40:42.644Z,english_966.wav,0,pill,546,66,5,4,english,m,9,0.9,88.24028536,0.75921019
5c8ee6c36ca70b0001fe979d,29,0,2024-02-28T14:40:42.644Z,english_966.wav,0,pill,546,66,5,4,english,m,10,1.0,-32.39213993,0.67670762
5c8ee6c36ca70b0001fe979d,29,0,2024-02-28T14:40:42.644Z,english_966.wav,0,pill,546,66,5,4,english,m,11,1.09391667,-1.72411588,1.22586656
5c8ee6c36ca70b0001fe979d,30,0,2024-02-28T14:40:42.644Z,english_5.wav,0,pill,736,66,5,4,english,m,0,0.0,-71.05887053,0.69305634
5c8ee6c36ca70b0001fe979d,30,0,2024-02-28T14:40:42.644Z,english_5.wav,0,pill,736,66,5,4,english,m,1,0.1,-36.04846502,1.95331705
5c8ee6c36ca70b0001fe979d,30,0,2024-02-28T14:40:42.644Z,english_5.wav,0,pill,736,66,5,4,english,m,2,0.2,68.09307416,0.24939242
5c8ee6c36ca70b0001fe979d,30,0,2024-02-28T14:40:42.644Z,english_5.wav,0,pill,736,66,5,4,english,m,3,0.3,-71.61609357,1.30786136
5c8ee6c36ca70b0001fe979d,30,0,2024-02-28T14:40:42.644Z,english_5.wav,0,pill,736,66,5,4,english,m,4,0.4,-14.92970524,0.35721873
5c8ee6c36ca70b0001fe979d,30,0,2024-02-28T14:40:42.644Z,english_5.wav,0,pill,736,66,5,4,english,m,5,0.5,36.04461977,1.66367269
5c8ee6c36ca70b0001fe979d,30,0,2024-02-28T14:40:42.644Z,english_5.wav,0,pill,736,66,5,4,english,m,6,0.6,61.01603353,1.49043319
5c8ee6c36ca70b0001fe979d,30,0,2024-02-28T14:40:42.644Z,english_5.wav,0,pill,736,66,5,4,english,m,7,0.7,22.04787058,1.08702194
5c8ee6c36ca70b0001fe979d,30,0,2024-02-28T14:40:42.644Z,english_5.wav,0,pill,736,66,5,4,english,m,8,0.8,-76.70141108,0.32363826
5c8ee6c36ca70b0001fe979d,30,0,2024-02-28T14:40:42.644Z,english_5.wav,0,pill,736,66,5,4,english,m,9,0.9,72.36411847,0.22271442
5c8ee6c36ca70b0001fe979d,30,0,2024-02-28T14:40:42.644Z,english_5.wav,0,pill,736,66,5,4,english,m,10,1.0,-2.42248121,1.0907403
5c8ee6c36ca70b0001fe979d,30,0,2024-02-28T14:40:42.644Z,english_5.wav,0,pill,736,66,5,4,english,m,11,1.09391667,-45.78406478,0.00462457
5c8ee6c36ca70b0001fe979d,31,0,2024-02-28T14:40:42.644Z,english_839.wav,0,peel,303,66,5,4,english,m,0,0.0,25.22327534,0.79021115
5c8ee6c36ca70b0001fe979d,31,0,2024-02-28T14:40:42.644Z,english_839.wav,0,peel,303,66,5,4,english,m,1,0.1,65.97179868,1.36275453
5c8ee6c36ca70b0001fe979d,31,0,2024-02-28T14:40:42.644Z,english_839.wav,0,peel,303,66,5,4,english,m,2,0.2,36.46298268,0.56940252
5c8ee6c36ca70b0001fe979d,31,0,2024-02-28T14:40:42.644Z,english_839.wav,0,peel,303,66,5,4,english,m,3,0.3,0.36789595,1.38606336
5c8ee6c36ca70b0001fe979d,31,0,2024-02-28T14:40:42.644Z,english_839.wav,0,peel,303,66,5,4,english,m,4,0.4,37.25543056,1.49876521
5c8ee6c36ca70b0001fe979d,31,0,2024-02-28T14:40:42.644Z,english_839.wav,0,peel,303,66,5,4,english,m,5,0.5,13.61304399,1.33513266
5c8ee6c36ca70b0001fe979d,31,0,2024-02-28T14:40:42.644Z,english_839.wav,0,peel,303,66,5,4,english,m,6,0.6,40.85367399,0.34922841
5c8ee6c36ca70b0001fe979d,31,0,2024-02-28T14:40:42.644Z,english_839.wav,0,peel,303,66,5,4,english,m,7,0.7,92.87994107,1.58402098
5c8ee6c36ca70b0001fe979d,31,0,2024-02-28T14:40:42.644Z,english_839.wav,0,peel,303,66,5,4,english,m,8,0.8,40.19777361,0.73275133
5c8ee6c36ca70b0001fe979d,31,0,2024-02-28T14:40:42.644Z,english_839.wav,0,peel,303,66,5,4,english,m,9,0.9,-27.70209944,1.05467816
5c8ee6c36ca70b0001fe979d,31,0,2024-02-28T14:40:42.644Z,english_839.wav,0,peel,303,66,5,4,english,m,10,1.0,-75.44304357,1.81419779
5c8ee6c36ca70b0001fe979d,31,0,2024-02-28T14:40:42.644Z,english_839.wav,0,peel,303,66,5,4,english,m,11,1.09391667,15.82899147,1.89560881
5c8ee6c36ca70b0001fe979d,32,0,2024-02-28T14:40:42.644Z,english_277.wav,0,pill,405,66,5,4,english,m,0,0.0,-44.33616139,0.73788807
5c8ee6c36ca70b0001fe979d,32,0,2024-02-28T14:40:42.644Z,english_277.wav,0,pill,405,66,5,4,english,m,1,0.1,44.35260019,1.74394891
5c8ee6c36ca70b0001fe979d,32,0,2024-02-28T14:40:42.644Z,english_277.wav,0,pill,405,66,5,4,english,m,2,0.2,-49.49233779,0.42488183
5c8ee6c36ca70b0001fe979d,32,0,2024-02-28T14:40:42.644Z,english_277.wav,0,pill,405,66,5,4,english,m,3,0.3,-85.34810724,1.67106469
5c8ee6c36ca70b0001fe979d,32,0,2024-02-28T14:40:42.644Z,english_277.wav,0,pill,405,66,5,4,english,m,4,0.4,28.63854814,1.81238123
5c8ee6c36ca70b0001fe979d,32,0,2024-02-28T14:40:42.644Z,english_277.wav,0,pill,405,66,5,4,english,m,5,0.5,67.28491477,1.08162705
5c8ee6c36ca70b0001fe979d,32,0,2024-02-28T14:40:42.644Z,english_277.wav,0,pill,405,66,5,4,english,m,6,0.6,56.85897208,1.34108587
5c8ee6c36ca70b0001fe979d,32,0,2024-02-28T14:40:42.644Z,english_277.wav,0,pill,405,66,5,4,english,m,7,0.7,-23.80647194,0.83894526
5c8ee6c36ca70b0001fe979d,32,0,2024-02-28T14:40:42.644Z,english_277.wav,0,pill,405,66,5,4,english,m,8,0.8,-34.73638316,0.08057135
5c8ee6c36ca70b0001fe979d,32,0,2024-02-28T14:40:42.644Z,english_277.wav,0,pill,405,66,5,4,english,m,9,0.9,-44.12670418,0.78361609
5c8ee6c36ca70b0001fe979d,32,0,2024-02-28T14:40:42.644Z,english_277.wav,0,pill,405,66,5,4,english,m,10,1.0,-49.9038669,1.89078492
5c8ee6c36ca70b0001fe979d,32,0,2024-02-28T14:40:42.644Z,english_277.wav,0,pill,405,66,5,4,english,m,11,1.09391667,-45.21232541,1.1409546
5c8ee6c36ca70b0001fe979d,33,0,2024-02-28T14:40:42.644Z,english_340.wav,0,peel,175,66,5,4,english,m,0,0.0,19.74255444,0.3319767
5c8ee6c36ca70b0001fe979d,33,0,2024-02-28T14:40:42.644Z,english_340.wav,0,peel,175,66,5,4,english,m,1,0.1,25.16855735,0.61048523
5c8ee6c36ca70b0001fe979d,33,0,2024-02-28T14:40:42.644Z,english_340.wav,0,peel,175,66,5,4,english,m,2,0.2,-45.10982673,0.21275179
5c8ee6c36ca70b0001fe979d,33,0,2024-02-28T14:40:42.644Z,english_340.wav,0,peel,175,66,5,4,english,m,3,0.3,-94.4237425,0.29825912
5c8ee6c36ca70b0001fe979d,33,0,2024-02-28T14:40:42.644Z,english_340.wav,0,peel,175,66,5,4,english,m,4,0.4,33.61318105,0.68673966
5c8ee6c36ca70b0001fe979d,33,0,2024-02-28T14:40:42.644Z,english_340.wav,0,peel,175,66,5,4,english,m,5,0.5,-32.11968845,0.56528685
5c8ee6c36ca70b0001fe979d,33,0,2024-02-28T14:40:42.644Z,english_340.wav,0,peel,175,66,5,4,english,m,6,0.6,-73.96198045,1.1523669
5c8ee6c36ca70b0001fe979d,33,0,2024-02-28T14:40:42.644Z,english_340.wav,0,peel,175,66,5,4,english,m,7,0.7,-70.65108678,1.56179354
5c8ee6c36ca70b0001fe979d,33,0,2024-02-28T14:40:42.644Z,english_340.wav,0,peel,175,66,5,4,english,m,8,0.8,-16.68054018,0.7478511
5c8ee6c36ca70b0001fe979d,33,0,2024-02-28T14:40:42.644Z,english_340.wav,0,peel,175,66,5,4,english,m,9,0.9,17.74464594,1.06303665
5c8ee6c36ca70b0001fe979d,33,0,2024-02-28T14:40:42.644Z,english_340.wav,0,peel,175,66,5,4,english,m,10,1.0,-17.13563894,1.69470448
5c8ee6c36ca70b0001fe979d,33,0,2024-02-28T14:40:42.644Z,english_340.wav,0,peel,175,66,5,4,english,m,11,1.09391667,85.44426077,1.53904315
5c8ee6c36ca70b0001fe979d,34,0,2024-02-28T14:40:42.644Z,english_889.wav,0,peel,408,66,5,4,english,m,0,0.0,79.20623471,0.68216584
5c8ee6c36ca70b0001fe979d,34,0,2024-02-28T14:40:42.644Z,english_889.wav,0,peel,408,66,5,4,english,m,1,0.1,15.95650002,0.42686819
5c8ee6c36ca70b0001fe979d,34,0,2024-02-28T14:40:42.644Z,english_889.wav,0,peel,408,66,5,4,english,m,2,0.2,-76.24687764,0.02909108
5c8ee6c36ca70b0001fe979d,34,0,2024-02-28T14:40:42.644Z,english_889.wav,0,peel,408,66,5,4,english,m,3,0.3,-99.60118401,1.3182061
5c8ee6c36ca70b0001fe979d,34,0,2024-02-28T14:40:42.644Z,english_889.wav,0,peel,408,66,5,4,english,m,4,0.4,78.05893195,0.10574875
5c8ee6c36ca70b0001fe979d,34,0,2024-02-28T14:40:42.644Z,english_889.wav,0,peel,408,66,5,4,english,m,5,0.5,-14.00699602,0.2853218
5c8ee6c36ca70b0001fe979d,34,0,2024-02-28T14:40:42.644Z,english_889.wav,0,peel,408,66,5,4,english,m,6,0.6,-89.17552829,1.14496721
5c8ee6c36ca70b0001fe979d,34,0,2024-02-28T14:40:42.644Z,english_889.wav,0,peel,408,66,5,4,english,m,7,0.7,-14.96184535,1.04613331
5c8ee6c36ca70b0001fe979d,34,0,2024-02-28T14:40:42.644Z,english_889.wav,0,peel,408,66,5,4,english,m,8,0.8,59.85859642,1.03396969
5c8ee6c36ca70b0001fe979d,34,0,2024-02-28T14:40:42.644Z,english_889.wav,0,peel,408,66,5,4,english,m,9,0.9,11.94153074,0.35198627
5c8ee6c36ca70b0001fe979d,34,0,2024-02-28T14:40:42.644Z,english_889.wav,0,peel,408,66,5,4,english,m,10,1.0,-11.03565413,0.4382774
5c8ee6c36ca70b0001fe979d,34,0,2024-02-28T14:40:42.644Z,english_889.wav,0,peel,408,66,5,4,english,m,11,1.09391667,35.54802425,1.08765543
5c8ee6c36ca70b0001fe979d,35,0,2024-02-28T14:40:42.644Z,english_53.wav,0,peel,165,66,5,4,english,m,0,0.0,-9.98510741,0.74460472
5c8ee6c36ca70b0001fe979d,35,0,2024-02-28T14:40:42.644Z,english_53.wav,0,peel,165,66,5,4,english,m,1,0.1,90.79697624,1.15408397
5c8ee6c36ca70b0001fe979d,35,0,2024-02-28T14:40:42.644Z,english_53.wav,0,peel,165,66,5,4,english,m,2,0.2,-13.66139315,1.79328536
5c8ee6c36ca70b0001fe979d,35,0,2024-02-28T14:40:42.644Z,english_53.wav,0,peel,165,66,5,4,english,m,3,0.3,-58.03832427,1.05093724
5c8ee6c36ca70b0001fe979d,35,0,2024-02-28T14:40:42.644Z,english_53.wav,0,peel,165,66,5,4,english,m,4,0.4,-14.2879771,0.44247057
5c8ee6c36ca70b0001fe979d,35,0,2024-02-28T14:40:42.644Z,english_53.wav,0,peel,165,66,5,4,english,m,5,0.5,-9.92334291,0.88826362
5c8ee6c36ca70b0001fe979d,35,0,2024-02-28T14:40:42.644Z,english_53.wav,0,peel,165,66,5,4,english,m,6,0.6,48.00852586,1.51515328
5c8ee6c36ca70b0001fe979d,35,0,2024-02-28T14:40:42.644Z,english_53.wav,0,peel,165,66,5,4,english,m,7,0.7,-7.96828411,1.78598668
5c8ee6c36ca70b0001fe979d,35,0,2024-02-28T14:40:42.644Z,english_53.wav,0,peel,165,66,5,4,english,m,8,0.8,3.91211897,0.80456615
5c8ee6c36ca70b0001fe979d,35,0,2024-02-28T14:40:42.644Z,english_53.wav,0,peel,165,66,5,4,english,m,9,0.9,9.32007469,0.44108586
5c8ee6c36ca70b0001fe979d,35,0,2024-02-28T14:40:42.644Z,english_53.wav,0,peel,165,66,5,4,english,m,10,1.0,-65.1483507,1.43639609
5c8ee6c36ca70b0001fe979d,35,0,2024-02-28T14:40:42.644Z,english_53.wav,0,peel,165,66,5,4,english,m,11,1.09391667,-31.85609608,1.915162
5c8ee6c36ca70b0001fe979d,36,0,2024-02-28T14:40:42.644Z,english_78.wav,0,peel,488,66,5,4,english,m,0,0.0,42.39797886,1.50616235
5c8ee6c36ca70b0001fe979d,36,0,2024-02-28T14:40:42.644Z,english_78.wav,0,peel,488,66,5,4,english,m,1,0.1,-36.07857938,0.54303847
5c8ee6c36ca70b0001fe979d,36,0,2024-02-28T14:40:42.644Z,english_78.wav,0,peel,488,66,5,4,english,m,2,0.2,-66.49689514,0.95347503
5c8ee6c36ca70b0001fe979d,36,0,2024-02-28T14:40:42.644Z,english_78.wav,0,peel,488,66,5,4,english,m,3,0.3,52.41013344,1.62003629
5c8ee6c36ca70b0001fe979d,36,0,2024-02-28T14:40:42.644Z,english_78.wav,0,peel,488,66,5,4,english,m,4,0.4,60.05478812,1.61647939
5c8ee6c36ca70b0001fe979d,36,0,2024-02-28T14:40:42.644Z,english_78.wav,0,peel,488,66,5,4,english,m,5,0.5,-4.62250103,0.17410512
5c8ee6c36ca70b0001fe979d,36,0,2024-02-28T14:40:42.644Z,english_78.wav,0,peel,488,66,5,4,english,m,6,0.6,-80.28349147,0.43268803
5c8ee6c36ca70b0001fe979d,36,0,2024-02-28T14:40:42.644Z,english_78.wav,0,peel,488,66,5,4,english,m,7,0.7,83.57222547,0.08104601
5c8ee6c36ca70b0001fe979d,36,0,2024-02-28T14:40:42.644Z,english_78.wav,0,peel,488,66,5,4,english,m,8,0.8,7.4922518,1.61489209
5c8ee6c36ca70b0001fe979d,36,0,2024-02-28T14:40:42.644Z,english_78.wav,0,peel,488,66,5,4,english,m,9,0.9,-18.57317231,0.08012208
5c8ee6c36ca70b0001fe979d,36,0,2024-02-28T14:40:42.644Z,english_78.wav,0,peel,488,66,5,4,english,m,10,1.0,-60.66079691,0.76901301
5c8ee6c36ca70b0001fe979d,36,0,2024-02-28T14:40:42.644Z,english_78.wav,0,peel,488,66,5,4,english,m,11,1.09391667,37.22949989,1.86046092
5c8ee6c36ca70b0001fe979d,37,0,2024-02-28T14:40:42.644Z,english_775.wav,0,peel,158,66,5,4,english,m,0,0.0,-31.43099856,1.38428974
5c8ee6c36ca70b0001fe979d,37,0,2024-02-28T14:40:42.644Z,english_775.wav,0,peel,158,66,5,4,english,m,1,0.1,8.65477654,1.381989
5c8ee6c36ca70b0001fe979d,37,0,2024-02-28T14:40:42.644Z,english_775.wav,0,peel,158,66,5,4,english,m,2,0.2,-52.28282098,0.85842321
5c8ee6c36ca70b0001fe979d,37,0,2024-02-28T14:40:42.644Z,english_775.wav,0,peel,158,66,5,4,english,m,3,0.3,91.1008366,0.86053133
5c8ee6c36ca70b0001fe979d,37,0,2024-02-28T14:40:42.644Z,english_775.wav,0,peel,158,66,5,4,english,m,4,0.4,-9.23078544,0.18720345
5c8ee6c36ca70b0001fe979d,37,0,2024-02-28T14:40:42.644Z,english_775.wav,0,peel,158,66,5,4,english,m,5,0.5,-48.12825779,1.02834673
5c8ee6c36ca70b0001fe979d,37,0,2024-02-28T14:40:42.644Z,english_775.wav,0,peel,158,66,5,4,english,m,6,0.6,31.75901499,0.26507894
5c8ee6c36ca70b0001fe979d,37,0,2024-02-28T14:40:42.644Z,english_775.wav,0,peel,158,66,5,4,english,m,7,0.7,26.51097314,0.89767529
5c8ee6c36ca70b0001fe979d,37,0,2024-02-28T14:40:42.644Z,english_775.wav,0,peel,158,66,5,4,english,m,8,0.8,-0.94893242,1.04721154
5c8ee6c36ca70b0001fe979d,37,0,2024-02-28T14:40:42.644Z,english_775.wav,0,peel,158,66,5,4,english,m,9,0.9,-80.42410318,1.94213174
5c8ee6c36ca70b0001fe979d,37,0,2024-02-28T14:40:42.644Z,english_775.wav,0,peel,158,66,5,4,english,m,10,1.0,-37.42269733,0.45384942
5c8ee6c36ca70b0001fe979d,37,0,2024-02-28T14:40:42.644Z,english_775.wav,0,peel,158,66,5,4,english,m,11,1.09391667,-30.31023423,1.30082565
5c8ee6c36ca70b0001fe979d,38,0,2024-02-28T14:40:42.644Z,english_101.wav,0,peel,162,66,5,4,english,m,0,0.0,54.85574333,0.56749545
5c8ee6c36ca70b0001fe979d,38,0,2024-02-28T14:40:42.644Z,english_101.wav,0,peel,162,66,5,4,english,m,1,0.1,0.70808879,1.44378271
5c8ee6c36ca70b0001fe979d,38,0,2024-02-28T14:40:42.644Z,english_101.wav,0,peel,162,66,5,4,english,m,2,0.2,-80.1183649,0.79216525
5c8ee6c36ca70b0001fe979d,38,0,2024-02-28T14:40:42.644Z,english_101.wav,0,peel,162,66,5,4,english,m,3,0.3,41.22016504,0.86392682
5c8ee6c36ca70b0001fe979d,38,0,2024-02-28T14:40:42.644Z,english_101.wav,0,peel,162,66,5,4,english,m,4,0.4,-9.97599034,0.6963626
5c8ee6c36ca70b0001fe979d,38,0,2024-02-28T14:40:42.644Z,english_101.wav,0,peel,162,66,5,4,english,m,5,0.5,90.56668979,0.60530731
5c8ee6c36ca70b0001fe979d,38,0,2024-02-28T14:40:42.644Z,english_101.wav,0,peel,162,66,5,4,english,m,6,0.6,-60.35193263,1.66078928
5c8ee6c36ca70b0001fe979d,38,0,2024-02-28T14:40:42.644Z,english_101.wav,0,peel,162,66,5,4,english,m,7,0.7,61.72690789,1.6801741
5c8ee6c36ca70b0001fe979d,38,0,2024-02-28T14:40:42.644Z,english_101.wav,0,peel,162,66,5,4,english,m,8,0.8,88.15092983,1.39430446
5c8ee6c36ca70b0001fe979d,38,0,2024-02-28T14:40:42.644Z,english_101.wav,0,peel,162,66,5,4,english,m,9,0.9,40.7935106,0.81152744
5c8ee6c36ca70b0001fe979d,38,0,2024-02-28T14:40:42.644Z,english_101.wav,0,peel,162,66,5,4,english,m,10,1.0,84.72598744,0.36950081
5c8ee6c36ca70b0001fe979d,38,0,2024-02-28T14:40:42.644Z,english_101.wav,0,peel,162,66,5,4,english,m,11,1.09391667,-47.25265497,1.44384249
5c8ee6c36ca70b0001fe979d,39,0,2024-02-28T14:40:42.644Z,english_102.wav,0,pill,667,66,5,4,english,m,0,0.0,63.84613738,0.68072363
5c8ee6c36ca70b0001fe979d,39,0,2024-02-28T14:40:42.644Z,english_102.wav,0,pill,667,66,5,4,english,m,1,0.1,-19.50774511,0.78322964
5c8ee6c36ca70b0001fe979d,39,0,2024-02-28T14:40:42.644Z,english_102.wav,0,pill,667,66,5,4,english,m,2,0.2,8.66527759,1.38231374
5c8ee6c36ca70b0001fe979d,39,0,2024-02-28T14:40:42.644Z,english_102.wav,0,pill,667,66,5,4,english,m,3,0.3,11.48698438,0.72244783
5c8ee6c36ca70b0001fe979d,39,0,2024-02-28T14:40:42.644Z,english_102.wav,0,pill,667,66,5,4,english,m,4,0.4,31.94885704,0.35985071
5c8ee6c36ca70b0001fe979d,39,0,2024-02-28T14:40:42.644Z,english_102.wav,0,pill,667,66,5,4,english,m,5,0.5,-38.92668569,0.73914497
5c8ee6c36ca70b0001fe979d,39,0,2024-02-28T14:40:42.644Z,english_102.wav,0,pill,667,66,5,4,english,m,6,0.6,-49.51123853,1.62389413
5c8ee6c36ca70b0001fe979d,39,0,2024-02-28T14:40:42.644Z,english_102.wav,0,pill,667,66,5,4,english,m,7,0.7,61.27640526,1.34969733
5c8ee6c36ca70b0001fe979d,39,0,2024-02-28T14:40:42.644Z,english_102.wav,0,pill,667,66,5,4,english,m,8,0.8,-26.83244911,0.03321173
5c8ee6c36ca70b0001fe979d,39,0,2024-02-28T14:40:42.644Z,english_102.wav,0,pill,667,66,5,4,english,m,9,0.9,49.29328507,0.74119752
5c8ee6c36ca70b0001fe979d,39,0,2024-02-28T14:40:42.644Z,english_102.wav,0,pill,667,66,5,4,english,m,10,1.0,88.72427416,0.40516815
5c8ee6c36ca70b0001fe979d,39,0,2024-02-28T14:40:42.644Z,english_102.wav,0,pill,667,66,5,4,english,m,11,1.09391667,44.23475018,1.39286308
5c8ee6c36ca70b0001fe979d,40,0,2024-02-28T14:40:42.644Z,english_516.wav,0,peel,294,66,5,4,english,m,0,0.0,65.27468838,0.72548384
5c8ee6c36ca70b0001fe979d,40,0,2024-02-28T14:40:42.644Z,english_516.wav,0,peel,294,66,5,4,english,m,1,0.1,28.38678538,1.78002716
5c8ee6c36ca70b0001fe979d,40,0,2024-02-28T14:40:42.644Z,english_516.wav,0,peel,294,66,5,4,english,m,2,0.2,-16.29491298,1.52601333
5c8ee6c36ca70b0001fe979d,40,0,2024-02-28T14:40:42.644Z,english_516.wav,0,peel,294,66,5,4,english,m,3,0.3,29.01072094,0.22704286
5c8ee6c36ca70b0001fe979d,40,0,2024-02-28T14:40:42.644Z,english_516.wav,0,peel,294,66,5,4,english,m,4,0.4,-47.32267929,1.00592853
5c8ee6c36ca70b0001fe979d,40,0,2024-02-28T14:40:42.644Z,english_516.wav,0,peel,294,66,5,4,english,m,5,0.5,-47.60418852,0.3740999
5c8ee6c36ca70b0001fe979d,40,0,2024-02-28T14:40:42.644Z,english_516.wav,0,peel,294,66,5,4,english,m,6,0.6,19.91194594,1.89933748
5c8ee6c36ca70b0001fe979d,40,0,2024-02-28T14:40:42.644Z,english_516.wav,0,peel,294,66,5,4,english,m,7,0.7,-28.9289623,0.62297075
5c8ee6c36ca70b0001fe979d,40,0,2024-02-28T14:40:42.644Z,english_516.wav,0,peel,294,66,5,4,english,m,8,0.8,5.6204603,1.26182982
5c8ee6c36ca70b0001fe979d,40,0,2024-02-28T14:40:42.644Z,english_516.wav,0,peel,294,66,5,4,english,m,9,0.9,55.47321842,0.11401837
5c8ee6c36ca70b0001fe979d,40,0,2024-02-28T14:40:42.644Z,english_516.wav,0,peel,294,66,5,4,english,m,10,1.0,12.03381774,0.27832104
5c8ee6c36ca70b0001fe979d,40,0,2024-02-28T14:40:42.644Z,english_516.wav,0,peel,294,66,5,4,english,m,11,1.09391667,-64.39892236,1.09838576
5c8ee6c36ca70b0001fe979d,41,0,2024-02-28T14:40:42.644Z,english_226.wav,0,peel,323,66,5,4,english,m,0,0.0,98.43255035,0.1861089
5c8ee6c36ca70b0001fe979d,41,0,2024-02-28T14:40:42.644Z,english_226.wav,0,peel,323,66,5,4,english,m,1,0.1,23.16871923,1.79682409
5c8ee6c36ca70b0001fe979d,41,0,2024-02-28T14:40:42.644Z,english_226.wav,0,peel,323,66,5,4,english,m,2,0.2,-3.17590314,0.62264246
5c8ee6c36ca70b0001fe979d,41,0,2024-02-28T14:40:42.644Z,english_226.wav,0,peel,323,66,5,4,english,m,3,0.3,99.80077362,0.77697044
5c8ee6c36ca70b0001fe979d,41,0,2024-02-28T14:40:42.644Z,english_226.wav,0,peel,323,66,5,4,english,m,4,0.4,-24.84472991,0.40647993
5c8ee6c36ca70b0001fe979d,41,0,2024-02-28T14:40:42.644Z,english_226.wav,0,peel,323,66,5,4,english,m,5,0.5,-71.24957961,0.2976559
5c8ee6c36ca70b0001fe979d,41,0,2024-02-28T14:40:42.644Z,english_226.wav,0,peel,323,66,5,4,english,m,6,0.6,65.30269432,1.34176321
5c8ee6c36ca70b0001fe979d,41,0,2024-02-28T14:40:42.644Z,english_226.wav,0,peel,323,66,5,4,english,m,7,0.7,72.52720516,1.5087957
5c8ee6c36ca70b0001fe979d,41,0,2024-02-28T14:40:42.644Z,english_226.wav,0,peel,323,66,5,4,english,m,8,0.8,-90.19894531,1.69033096
5c8ee6c36ca70b0001fe979d,41,0,2024-02-28T14:40:42.644Z,english_226.wav,0,peel,323,66,5,4,english,m,9,0.9,11.74226894,0.35382167
5c8ee6c36ca70b0001fe979d,41,0,2024-02-28T14:40:42.644Z,english_226.wav,0,peel,323,66,5,4,english,m,10,1.0,-32.60755552,1.3177586
5c8ee6c36ca70b0001fe979d,41,0,2024-02-28T14:40:42.644Z,english_226.wav,0,peel,323,66,5,4,english,m,11,1.09391667,10.41380533,0.38575288
5c8ee6c36ca70b0001fe979d,42,0,2024-02-28T14:40:42.644Z,english_134.wav,0,peel,182,66,5,4,english,m,0,0.0,-24.26834644,1.03045274
5c8ee6c36ca70b0001fe979d,42,0,2024-02-28T14:40:42.644Z,english_134.wav,0,peel,182,66,5,4,english,m,1,0.1,0.87898814,1.86888255
5c8ee6c36ca70b0001fe979d,42,0,2024-02-28T14:40:42.644Z,english_134.wav,0,peel,182,66,5,4,english,m,2,0.2,29.43994061,1.70405425
5c8ee6c36ca70b0001fe979d,42,0,2024-02-28T14:40:42.644Z,english_134.wav,0,peel,182,66,5,4,english,m,3,0.3,21.82945731,1.34767033
5c8ee6c36ca70b0001fe979d,42,0,2024-02-28T14:40:42.644Z,english_134.wav,0,peel,182,66,5,4,english,m,4,0.4,49.09743773,0.8443881
5c8ee6c36ca70b0001fe979d,42,0,2024-02-28T14:40:42.644Z,english_134.wav,0,peel,182,66,5,4,english,m,5,0.5,-15.97258886,1.38979788
5c8ee6c36ca70b0001fe979d,42,0,2024-02-28T14:40:42.644Z,english_134.wav,0,peel,182,66,5,4,english,m,6,0.6,13.73233931,1.1830035
5c8ee6c36ca70b0001fe979d,42,0,2024-02-28T14:40:42.644Z,english_134.wav,0,peel,182,66,5,4,english,m,7,0.7,-18.88709324,1.43950556
5c8ee6c36ca70b0001fe979d,42,0,2024-02-28T14:40:42.644Z,english_134.wav,0,peel,182,66,5,4,english,m,8,0.8,13.58093601,1.18211722
5c8ee6c36ca70b0001fe979d,42,0,2024-02-28T14:40:42.644Z,english_134.wav,0,peel,182,66,5,4,english,m,9,0.9,74.79947006,0.44903969
5c8ee6c36ca70b0001fe979d,42,0,2024-02-28T14:40:42.644Z,english_134.wav,0,peel,182,66,5,4,english,m,10,1.0,-49.15519577,0.93357228
5c8ee6c36ca70b0001fe979d,42,0,2024-02-28T14:40:42.644Z,english_134.wav,0,peel,182,66,5,4,english,m,11,1.09391667,18.17659257,1.8466086
5c8ee6c36ca70b0001fe979d,43,0,2024-02-28T14:40:42.644Z,english_786.wav,0,peel,341,66,5,4,english,m,0,0.0,52.51003342,0.51789452
5c8ee6c36ca70b0001fe979d,43,0,2024-02-28T14:40:42.644Z,english_786.wav,0,peel,341,66,5,4,english,m,1,0.1,-29.81330981,1.63069417
5c8ee6c36ca70b0001fe979d,43,0,2024-02-28T14:40:42.644Z,english_786.wav,0,peel,341,66,5,4,english,m,2,0.2,36.37880502,1.03017261
5c8ee6c36ca70b0001fe979d,43,0,2024-02-28T14:40:42.644Z,english_786.wav,0,peel,341,66,5,4,english,m,3,0.3,-16.44076744,1.50298323
5c8ee6c36ca70b0001fe979d,43,0,2024-02-28T14:40:42.644Z,english_786.wav,0,peel,341,66,5,4,english,m,4,0.4,88.68796251,1.46107862
5c8ee6c36ca70b0001fe979d,43,0,2024-02-28T14:40:42.644Z,english_786.wav,0,peel,341,66,5,4,english,m,5,0.5,-14.03385959,0.40535011
5c8ee6c36ca70b0001fe979d,43,0,2024-02-28T14:40:42.644Z,english_786.wav,0,peel,341,66,5,4,english,m,6,0.6,-91.10946789,0.38567086
5c8ee6c36ca70b0001fe979d,43,0,2024-02-28T14:40:42.644Z,english_786.wav,0,peel,341,66,5,4,english,m,7,0.7,41.17265494,1.29740328
5c8ee6c36ca70b0001fe979d,43,0,2024-02-28T14:40:42.644Z,english_786.wav,0,peel,341,66,5,4,english,m,8,0.8,52.01009792,1.80566199
5c8ee6c36ca70b0001fe979d,43,0,2024-02-28T14:40:42.644Z,english_786.wav,0,peel,341,66,5,4,english,m,9,0.9,51.89297689,0.75401712
5c8ee6c36ca70b0001fe979d,43,0,2024-02-28T14:40:42.644Z,english_786.wav,0,peel,341,66,5,4,english,m,10,1.0,66.02628762,0.59504851
5c8ee6c36ca70b0001fe979d,43,0,2024-02-28T14:40:42.644Z,english_786.wav,0,peel,341,66,5,4,english,m,11,1.09391667,-81.25732307,0.27926431
5c8ee6c36ca70b0001fe979d,44,0,2024-02-28T14:40:42.644Z,english_572.wav,0,pill,446,66,5,4,english,m,0,0.0,74.87847498,0.12348508
5c8ee6c36ca70b0001fe979d,44,0,2024-02-28T14:40:42.644Z,english_572.wav,0,pill,446,66,5,4,english,m,1,0.1,-39.37509685,1.01129589
5c8ee6c36ca70b0001fe979d,44,0,2024-02-28T14:40:42.644Z,english_572.wav,0,pill,446,66,5,4,english,m,2,0.2,46.07522777,0.14453867
5c8ee6c36ca70b0001fe979d,44,0,2024-02-28T14:40:42.644Z,english_572.wav,0,pill,446,66,5,4,english,m,3,0.3,-26.59086479,0.66439835
5c8ee6c36ca70b0001fe979d,44,0,2024-02-28T14:40:42.644Z,english_572.wav,0,pill,446,66,5,4,english,m,4,0.4,-83.61712333,0.40930176
5c8ee6c36ca70b0001fe979d,44,0,2024-02-28T14:40:42.644Z,english_572.wav,0,pill,446,66,5,4,english,m,5,0.5,51.69873735,1.64421854
5c8ee6c36ca70b0001fe979d,44,0,2024-02-28T14:40:42.644Z,english_572.wav,0,pill,446,66,5,4,english,m,6,0.6,-66.29925424,1.67109861
5c8ee6c36ca70b0001fe979d,44,0,2024-02-28T14:40:42.644Z,english_572.wav,0,pill,446,66,5,4,english,m,7,0.7,-30.03465624,1.00053383
5c8ee6c36ca70b0001fe979d,44,0,2024-02-28T14:40:42.644Z,english_572.wav,0,pill,446,66,5,4,english,m,8,0.8,22.82757365,0.68839219
5c8ee6c36ca70b0001fe979d,44,0,2024-02-28T14:40:42.644Z,english_572.wav,0,pill,446,66,5,4,english,m,9,0.9,-30.60936999,0.08113885
5c8ee6c36ca70b0001fe979d,44,0,2024-02-28T14:40:42.644Z,english_572.wav,0,pill,446,66,5,4,english,m,10,1.0,-46.60182678,0.16383696
5c8ee6c36ca70b0001fe979d,44,0,2024-02-28T14:40:42.644Z,english_572.wav,0,pill,446,66,5,4,english,m,11,1.09391667,37.1532128,0.71948729
5c8ee6c36ca70b0001fe979d,45,0,2024-02-28T14:40:42.644Z,english_435.wav,0,pill,730,66,5,4,english,m,0,0.0,-31.13269848,0.87360856
5c8ee6c36ca70b0001fe979d,45,0,2024-02-28T14:40:42.644Z,english_435.wav,0,pill,730,66,5,4,english,m,1,0.1,92.06970246,0.90374027
5c8ee6c36ca70b0001fe979d,45,0,2024-02-28T14:40:42.644Z,english_435.wav,0,pill,730,66,5,4,english,m,2,0.2,-23.49616722,0.13869042
5c8ee6c36ca70b0001fe979d,45,0,2024-02-28T14:40:42.644Z,english_435.wav,0,pill,730,66,5,4,english,m,3,0.3,28.69293566,0.36148201
5c8ee6c36ca70b0001fe979d,45,0,2024-02-28T14:40:42.644Z,english_435.wav,0,pill,730,66,5,4,english,m,4,0.4,91.13017666,1.64954246
5c8ee6c36ca70b0001fe979d,45,0,2024-02-28T14:40:42.644Z,english_435.wav,0,pill,730,66,5,4,english,m,5,0.5,73.01983282,0.8333488
5c8ee6c36ca70b0001fe979d,45,0,2024-02-28T14:40:42.644Z,english_435.wav,0,pill,730,66,5,4,english,m,6,0.6,26.94870672,0.92769237
5c8ee6c36ca70b0001fe979d,45,0,2024-02-28T14:40:42.644Z,english_435.wav,0,pill,730,66,5,4,english,m,7,0.7,-17.86331575,0.23890126
5c8ee6c36ca70b0001fe979d,45,0,2024-02-28T14:40:42.644Z,english_435.wav,0,pill,730,66,5,4,english,m,8,0.8,-12.47586644,0.53709856
5c8ee6c36ca70b0001fe979d,45,0,2024-02-28T14:40:42.644Z,english_435.wav,0,pill,730,66,5,4,english,m,9,0.9,-45.803678,1.33606874
5c8ee6c36ca70b0001fe979d,45,0,2024-02-28T14:40:42.644Z,english_435.wav,0,pill,730,66,5,4,english,m,10,1.0,12.54092013,1.23901183
5c8ee6c36ca70b0001fe979d,45,0,2024-02-28T14:40:42.644Z,english_435.wav,0,pill,730,66,5,4,english,m,11,1.09391667,96.00954818,0.13308527
5c8ee6c36ca70b0001fe979d,46,0,2024-02-28T14:40:42.644Z,english_953.wav,0,peel,313,66,5,4,english,m,0,0.0,66.99743889,1.15286604
5c8ee6c36ca70b0001fe979d,46,0,2024-02-28T14:40:42.644Z,english_953.wav,0,peel,313,66,5,4,english,m,1,0.1,-76.84252631,1.84100888
5c8ee6c36ca70b0001fe979d,46,0,2024-02-28T14:40:42.644Z,english_953.wav,0,peel,313,66,5,4,english,m,2,0.2,-45.49309493,0.29896559
5c8ee6c36ca70b0001fe979d,46,0,2024-02-28T14:40:42.644Z,english_953.wav,0,peel,313,66,5,4,english,m,3,0.3,55.46461894,0.47017465
5c8ee6c36ca70b0001fe979d,46,0,2024-02-28T14:40:42.644Z,english_953.wav,0,peel,313,66,5,4,english,m,4,0.4,81.99201124,0.15248902
5c8ee6c36ca70b0001fe979d,46,0,2024-02-28T14:40:42.644Z,english_953.wav,0,peel,313,66,5,4,english,m,5,0.5,1.34607331,1.13290225
5c8ee6c36ca70b0001fe979d,46,0,2024-02-28T14:40:42.644Z,english_953.wav,0,peel,313,66,5,4,english,m,6,0.6,50.45029952,0.34595451
5c8ee6c36ca70b0001fe979d,46,0,2024-02-28T14:40:42.644Z,english_953.wav,0,peel,313,66,5,4,english,m,7,0.7,74.64893983,0.44244875
5c8ee6c36ca70b0001fe979d,46,0,2024-02-28T14:40:42.644Z,english_953.wav,0,peel,313,66,5,4,english,m,8,0.8,26.00448077,0.8076701
5c8ee6c36ca70b0001fe979d,46,0,2024-02-28T14:40:42.644Z,english_953.wav,0,peel,313,66,5,4,english,m,9,0.9,-99.39894728,1.93347558
5c8ee6c36ca70b0001fe979d,46,0,2024-02-28T14:40:42.644Z,english_953.wav,0,peel,313,66,5,4,english,m,10,1.0,-16.71063882,1.69365872
5c8ee6c36ca70b0001fe979d,46,0,2024-02-28T14:40:42.644Z,english_953.wav,0,peel,313,66,5,4,english,m,11,1.09391667,53.60095231,1.16220812
5c8ee6c36ca70b0001fe979d,47,0,2024-02-28T14:40:42.644Z,english_742.wav,0,peel,924,66,5,4,english,m,0,0.0,16.40248558,0.38841716
5c8ee6c36ca70b0001fe979d,47,0,2024-02-28T14:40:42.644Z,english_742.wav,0,peel,924,66,5,4,english,m,1,0.1,-74.48361089,0.81078957
5c8ee6c36ca70b0001fe979d,47,0,2024-02-28T14:40:42.644Z,english_742.wav,0,peel,924,66,5,4,english,m,2,0.2,-68.54189756,1.40021639
5c8ee6c36ca70b0001fe979d,47,0,2024-02-28T14:40:42.644Z,english_742.wav,0,peel,924,66,5,4,english,m,3,0.3,-12.74577912,0.37000306
5c8ee6c36ca70b0001fe979d,47,0,2024-02-28T14:40:42.644Z,english_742.wav,0,peel,924,66,5,4,english,m,4,0.4,42.91022855,0.86528291
5c8ee6c36ca70b0001fe979d,47,0,2024-02-28T14:40:42.644Z,english_742.wav,0,peel,924,66,5,4,english,m,5,0.5,61.35454691,0.21278301
5c8ee6c36ca70b0001fe979d,47,0,2024-02-28T14:40:42.644Z,english_742.wav,0,peel,924,66,5,4,english,m,6,0.6,-74.78284805,1.55046698
5c8ee6c36ca70b0001fe979d,47,0,2024-02-28T14:40:42.644Z,english_742.wav,0,peel,924,66,5,4,english,m,7,0.7,71.03659878,1.739545
5c8ee6c36ca70b0001fe979d,47,0,2024-02-28T14:40:42.644Z,english_742.wav,0,peel,924,66,5,4,english,m,8,0.8,51.11475536,1.10810315
5c8ee6c36ca70b0001fe979d,47,0,2024-02-28T14:40:42.644Z,english_742.wav,0,peel,924,66,5,4,english,m,9,0.9,52.57489365,0.37698393
5c8ee6c36ca70b0001fe979d,47,0,2024-02-28T14:40:42.644Z,english_742.wav,0,peel,924,66,5,4,english,m,10,1.0,-21.18365938,1.01484038
5c8ee6c36ca70b0001fe979d,47,0,2024-02-28T14:40:42.644Z,english_742.wav,0,peel,924,66,5,4,english,m,11,1.09391667,62.14901308,0.3479372
5c8ee6c36ca70b0001fe979d,48,0,2024-02-28T14:40:42.644Z,english_791.wav,0,pill,2226,66,5,4,english,m,0,0.0,-46.06630558,1.16002163
5c8ee6c36ca70b0001fe979d,48,0,2024-02-28T14:40:42.644Z,english_791.wav,0,pill,2226,66,5,4,english,m,1,0.1,-10.41029295,1.31545425
5c8ee6c36ca70b0001fe979d,48,0,2024-02-28T14:40:42.644Z,english_791.wav,0,pill,2226,66,5,4,english,m,2,0.2,46.47346809,0.89173565
5c8ee6c36ca70b0001fe979d,48,0,2024-02-28T14:40:42.644Z,english_791.wav,0,pill,2226,66,5,4,english,m,3,0.3,-10.43860287,0.05427007
5c8ee6c36ca70b0001fe979d,48,0,2024-02-28T14:40:42.644Z,english_791.wav,0,pill,2226,66,5,4,english,m,4,0.4,-38.16717219,1.4017057
5c8ee6c36ca70b0001fe979d,48,0,2024-02-28T14:40:42.644Z,english_791.wav,0,pill,2226,66,5,4,english,m,5,0.5,44.56559314,0.47849772
5c8ee6c36ca70b0001fe979d,48,0,2024-02-28T14:40:42.644Z,english_791.wav,0,pill,2226,66,5,4,english,m,6,0.6,43.70696978,1.59729287
5c8ee6c36ca70b0001fe979d,48,0,2024-02-28T14:40:42.644Z,english_791.wav,0,pill,2226,66,5,4,english,m,7,0.7,-5.54884815,1.50901191
5c8ee6c36ca70b0001fe979d,48,0,2024-02-28T14:40:42.644Z,english_791.wav,0,pill,2226,66,5,4,english,m,8,0.8,89.91059564,0.68083576
5c8ee6c36ca70b0001fe979d,48,0,2024-02-28T14:40:42.644Z,english_791.wav,0,pill,2226,66,5,4,english,m,9,0.9,90.72111025,1.62669182
5c8ee6c36ca70b0001fe979d,48,0,2024-02-28T14:40:42.644Z,english_791.wav,0,pill,2226,66,5,4,english,m,10,1.0,4.8020349,1.81653342
5c8ee6c36ca70b0001fe979d,48,0,2024-02-28T14:40:42.644Z,english_791.wav,0,pill,2226,66,5,4,english,m,11,1.09391667,7.87463746,1.33572141
5c8ee6c36ca70b0001fe979d,49,0,2024-02-28T14:40:42.644Z,english_737.wav,0,pill,553,66,5,4,english,m,0,0.0,56.78568271,0.30173789
5c8ee6c36ca70b0001fe979d,49,0,2024-02-28T14:40:42.644Z,english_737.wav,0,pill,553,66,5,4,english,m,1,0.1,-38.71611428,1.82600994
5c8ee6c36ca70b0001fe979d,49,0,2024-02-28T14:40:42.644Z,english_737.wav,0,pill,553,66,5,4,english,m,2,0.2,-64.59845133,0.49162542
5c8ee6c36ca70b0001fe979d,49,0,2024-02-28T14:40:42.644Z,english_737.wav,0,pill,553,66,5,4,english,m,3,0.3,1.39086409,0.66978122
5c8ee6c36ca70b0001fe979d,49,0,2024-02-28T14:40:42.644Z,english_737.wav,0,pill,553,66,5,4,english,m,4,0.4,26.86370756,1.86119765
5c8ee6c36ca70b0001fe979d,49,0,2024-02-28T14:40:42.644Z,english_737.wav,0,pill,553,66,5,4,english,m,5,0.5,-27.73552672,0.4187604
5c8ee6c36ca70b0001fe979d,49,0,2024-02-28T14:40:42.644Z,english_737.wav,0,pill,553,66,5,4,english,m,6,0.6,-81.13907874,0.96095639
5c8ee6c36ca70b0001fe979d,49,0,2024-02-28T14:40:42.644Z,english_737.wav,0,pill,553,66,5,4,english,m,7,0.7,43.5553465,0.3936239
5c8ee6c36ca70b0001fe979d,49,0,2024-02-28T14:40:42.644Z,english_737.wav,0,pill,553,66,5,4,english,m,8,0.8,-20.1583688,0.49545956
5c8ee6c36ca70b0001fe979d,49,0,2024-02-28T14:40:42.644Z,english_737.wav,0,pill,553,66,5,4,english,m,9,0.9,-25.05937779,1.76958981
5c8ee6c36ca70b0001fe979d,49,0,2024-02-28T14:40:42.644Z,english_737.wav,0,pill,553,66,5,4,english,m,10,1.0,27.91315488,1.1243255
5c8ee6c36ca70b0001fe979d,49,0,2024-02-28T14:40:42.644Z,english_737.wav,0,pill,553,66,5,4,english,m,11,1.09391667,-84.10219284,1.22358717
5c8ee6c36ca70b0001fe979d,50,1,2024-02-28T14:40:42.644Z,english_976.wav,0,peel,1057,66,5,4,english,m,0,0.0,-7.94823885,1.93996979
5c8ee6c36ca70b0001fe979d,50,1,2024-02-28T14:40:42.644Z,english_976.wav,0,peel,1057,66,5,4,english,m,1,0.1,96.34184584,0.68967214
5c8ee6c36ca70b0001fe979d,50,1,2024-02-28T14:40:42.644Z,english_976.wav,0,peel,1057,66,5,4,english,m,2,0.2,-33.68410723,1.52037239
5c8ee6c36ca70b0001fe979d,50,1,2024-02-28T14:40:42.644Z,english_976.wav,0,peel,1057,66,5,4,english,m,3,0.3,71.00734619,0.92144072
5c8ee6c36ca70b0001fe979d,50,1,2024-02-28T14:40:42.644Z,english_976.wav,0,peel,1057,66,5,4,english,m,4,0.4,-73.42321757,1.16805043
5c8ee6c36ca70b0001fe979d,50,1,2024-02-28T14:40:42.644Z,english_976.wav,0,peel,1057,66,5,4,english,m,5,0.5,68.14494718,0.75881772
5c8ee6c36ca70b0001fe979d,50,1,2024-02-28T14:40:42.644Z,english_976.wav,0,peel,1057,66,5,4,english,m,6,0.6,72.66069131,0.99023479
5c8ee6c36ca70b0001fe979d,50,1,2024-02-28T14:40:42.644Z,english_976.wav,0,peel,1057,66,5,4,english,m,7,0.7,-46.1327141,1.21750342
5c8ee6c36ca70b0001fe979d,50,1,2024-02-28T14:40:42.644Z,english_976.wav,0,peel,1057,66,5,4,english,m,8,0.8,-13.93014286,1.7476055
5c8ee6c36ca70b0001fe979d,50,1,2024-02-28T14:40:42.644Z,english_976.wav,0,peel,1057,66,5,4,english,m,9,0.9,53.41967838,1.87214478
5c8ee6c36ca70b0001fe979d,50,1,2024-02-28T14:40:42.644Z,english_976.wav,0,peel,1057,66,5,4,english,m,10,1.0,-12.62377888,0.1004517
5c8ee6c36ca70b0001fe979d,50,1,2024-02-28T14:40:42.644Z,english_976.wav,0,peel,1057,66,5,4,english,m,11,1.09391667,-9.46767518,1.64660027
5c8ee6c36ca70b0001fe979d,51,1,2024-02-28T14:40:42.644Z,english_809.wav,0,pill,634,66,5,4,english,m,0,0.0,-9.12051171,1.24060405
5c8ee6c36ca70b0001fe979d,51,1,2024-02-28T14:40:42.644Z,english_809.wav,0,pill,634,66,5,4,english,m,1,0.1,56.83840218,0.92544531
5c8ee6c36ca70b0001fe979d,51,1,2024-02-28T14:40:42.644Z,english_809.wav,0,pill,634,66,5,4,english,m,2,0.2,-21.1464042,1.6749497
5c8ee6c36ca70b0001fe979d,51,1,2024-02-28T14:40:42.644Z,english_809.wav,0,pill,634,66,5,4,english,m,3,0.3,57.63617788,0.74168877
5c8ee6c36ca70b0001fe979d,51,1,2024-02-28T14:40:42.644Z,english_809.wav,0,pill,634,66,5,4,english,m,4,0.4,81.73006696,0.96063823
5c8ee6c36ca70b0001fe979d,51,1,2024-02-28T14:40:42.644Z,english_809.wav,0,pill,634,66,5,4,english,m,5,0.5,1.9499243,1.38564295
5c8ee6c36ca70b0001fe979d,51,1,2024-02-28T14:40:42.644Z,english_809.wav,0,pill,634,66,5,4,english,m,6,0.6,94.78967393,0.56911063
5c8ee6c36ca70b0001fe979d,51,1,2024-02-28T14:40:42.644Z,english_809.wav,0,pill,634,66,5,4,english,m,7,0.7,65.64249462,0.51453492
5c8ee6c36ca70b0001fe979d,51,1,2024-02-28T14:40:42.644Z,english_809.wav,0,pill,634,66,5,4,english,m,8,0.8,90.5146219,0.11779349
5c8ee6c36ca70b0001fe979d,51,1,2024-02-28T14:40:42.644Z,english_809.wav,0,pill,634,66,5,4,english,m,9,0.9,37.72992996,0.31036913
5c8ee6c36ca70b0001fe979d,51,1,2024-02-28T14:40:42.644Z,english_809.wav,0,pill,634,66,5,4,english,m,10,1.0,-3.08128901,0.78583843
5c8ee6c36ca70b0001fe979d,51,1,2024-02-28T14:40:42.644Z,english_809.wav,0,pill,634,66,5,4,english,m,11,1.09391667,81.22811773,1.12131059
5c8ee6c36ca70b0001fe979d,52,1,2024-02-28T14:40:42.644Z,english_263.wav,0,peel,959,66,5,4,english,m,0,0.0,60.54836266,0.88286661
5c8ee6c36ca70b0001fe979d,52,1,2024-02-28T14:40:42.644Z,english_263.wav,0,peel,959,66,5,4,english,m,1,0.1,-7.25947701,0.15523443
5c8ee6c36ca70b0001fe979d,52,1,2024-02-28T14:40:42.644Z,english_263.wav,0,peel,959,66,5,4,english,m,2,0.2,57.3147166,0.89947763
5c8ee6c36ca70b0001fe979d,52,1,2024-02-28T14:40:42.644Z,english_263.wav,0,peel,959,66,5,4,english,m,3,0.3,-54.27216299,1.94594407
5c8ee6c36ca70b0001fe979d,52,1,2024-02-28T14:40:42.644Z,english_263.wav,0,peel,959,66,5,4,english,m,4,0.4,-55.29215067,0.36252841
5c8ee6c36ca70b0001fe979d,52,1,2024-02-28T14:40:42.644Z,english_263.wav,0,peel,959,66,5,4,english,m,5,0.5,-35.67260064,0.43064253
5c8ee6c36ca70b0001fe979d,52,1,2024-02-28T14:40:42.644Z,english_263.wav,0,peel,959,66,5,4,english,m,6,0.6,64.27930659,0.12649613
5c8ee6c36ca70b0001fe979d,52,1,2024-02-28T14:40:42.644Z,english_263.wav,0,peel,959,66,5,4,english,m,7,0.7,39.11312223,0.99935682
5c8ee6c36ca70b0001fe979d,52,1,2024-02-28T14:40:42.644Z,english_263.wav,0,peel,959,66,5,4,english,m,8,0.8,-36.26628423,0.98138808
5c8ee6c36ca70b0001fe979d,52,1,2024-02-28T14:40:42.644Z,english_263.wav,0,peel,959,66,5,4,english,m,9,0.9,24.26738527,1.68351405
5c8ee6c36ca70b0001fe979d,52,1,2024-02-28T14:40:42.644Z,english_263.wav,0,peel,959,66,5,4,english,m,10,1.0,43.73514677,0.97417267
5c8ee6c36ca70b0001fe979d,52,1,2024-02-28T14:40:42.644Z,english_263.wav,0,peel,959,66,5,4,english,m,11,1.09391667,-15.47335433,0.42659576
5c8ee6c36ca70b0001fe979d,53,1,2024-02-28T14:40:42.644Z,english_982.wav,0,peel,341,66,5,4,english,m,0,0.0,69.76944056,0.99276477
5c8ee6c36ca70b0001fe979d,53,1,2024-02-28T14:40:42.644Z,english_982.wav,0,peel,341,66,5,4,english,m,1,0.1,-42.93548761,1.13394656
5c8ee6c36ca70b0001fe979d,53,1,2024-02-28T14:40:42.644Z,english_982.wav,0,peel,341,66,5,4,english,m,2,0.2,36.82283162,0.8882043
5c8ee6c36ca70b0001fe979d,53,1,2024-02-28T14:40:42.644Z,english_982.wav,0,peel,341,66,5,4,english,m,3,0.3,32.72805269,0.48588646
5c8ee6c36ca70b0001fe979d,53,1,2024-02-28T14:40:42.644Z,english_982.wav,0,peel,341,66,5,4,english,m,4,0.4,59.91100813,0.19309887
5c8ee6c36ca70b0001fe979d,53,1,2024-02-28T14:40:42.644Z,english_982.wav,0,peel,341,66,5,4,english,m,5,0.5,-67.75715394,0.28513591
5c8ee6c36ca70b0001fe979d,53,1,2024-02-28T14:40:42.644Z,english_982.wav,0,peel,341,66,5,4,english,m,6,0.6,-89.50145132,0.07898736
5c8ee6c36ca70b0001fe979d,53,1,2024-02-28T14:40:42.644Z,english_982.wav,0,peel,341,66,5,4,english,m,7,0.7,-26.70280059,0.13233941
5c8ee6c36ca70b0001fe979d,53,1,2024-02-28T14:40:42.644Z,english_982.wav,0,peel,341,66,5,4,english,m,8,0.8,64.77389449,0.72291483
5c8ee6c36ca70b0001fe979d,53,1,2024-02-28T14:40:42.644Z,english_982.wav,0,peel,341,66,5,4,english,m,9,0.9,-30.11635891,0.45053492
5c8ee6c36ca70b0001fe979d,53,1,2024-02-28T14:40:42.644Z,english_982.wav,0,peel,341,66,5,4,english,m,10,1.0,-16.70024332,0.51435491
5c8ee6c36ca70b0001fe979d,53,1,2024-02-28T14:40:42.644Z,english_982.wav,0,peel,341,66,5,4,english,m,11,1.09391667,69.17887886,0.97661721
5c8ee6c36ca70b0001fe979d,54,1,2024-02-28T14:40:42.644Z,english_529.wav,0,peel,27,66,5,4,english,m,0,0.0,-75.44052411,0.27425441
5c8ee6c36ca70b0001fe979d,54,1,2024-02-28T14:40:42.644Z,english_529.wav,0,peel,27,66,5,4,english,m,1,0.1,73.68823703,1.79894556
5c8ee6c36ca70b0001fe979d,54,1,2024-02-28T14:40:42.644Z,english_529.wav,0,peel,27,66,5,4,english,m,2,0.2,35.88983091,1.38498362
5c8ee6c36ca70b0001fe979d,54,1,2024-02-28T14:40:42.644Z,english_529.wav,0,peel,27,66,5,4,english,m,3,0.3,74.9860534,1.12136542
5c8ee6c36ca70b0001fe979d,54,1,2024-02-28T14:40:42.644Z,english_529.wav,0,peel,27,66,5,4,english,m,4,0.4,39.79761308,0.69021564
5c8ee6c36ca70b0001fe979d,54,1,2024-02-28T14:40:42.644Z,english_529.wav,0,peel,27,66,5,4,english,m,5,0.5,87.56894365,1.32432139
5c8ee6c36ca70b0001fe979d,54,1,2024-02-28T14:40:42.644Z,english_529.wav,0,peel,27,66,5,4,english,m,6,0.6,-70.18354505,0.62496123
5c8ee6c36ca70b0001fe979d,54,1,2024-02-28T14:40:42.644Z,english_529.wav,0,peel,27,66,5,4,english,m,7,0.7,30.14757838,0.16694554
5c8ee6c36ca70b0001fe979d,54,1,2024-02-28T14:40:42.644Z,english_529.wav,0,peel,27,66,5,4,english,m,8,0.8,-85.67720686,1.72485798
5c8ee6c36ca70b0001fe979d,54,1,2024-02-28T14:40:42.644Z,english_529.wav,0,peel,27,66,5,4,english,m,9,0.9,-5.22909547,0.11317639
5c8ee6c36ca70b0001fe979d,54,1,2024-02-28T14:40:42.644Z,english_529.wav,0,peel,27,66,5,4,english,m,10,1.0,-29.17041088,1.97903266
5c8ee6c36ca70b0001fe979d,54,1,2024-02-28T14:40:42.644Z,english_529.wav,0,peel,27,66,5,4,english,m,11,1.09391667,91.40497623,0.92289832
5c8ee6c36ca70b0001fe979d,55,1,2024-02-28T14:40:42.644Z,english_730.wav,0,pill,520,66,5,4,english,m,0,0.0,98.7829688,0.6873965
5c8ee6c36ca70b0001fe979d,55,1,2024-02-28T14:40:42.644Z,english_730.wav,0,pill,520,66,5,4,english,m,1,0.1,-67.9329994,0.65236597
5c8ee6c36ca70b0001fe979d,55,1,2024-02-28T14:40:42.644Z,english_730.wav,0,pill,520,66,5,4,english,m,2,0.2,-35.4157721,1.04626144
5c8ee6c36ca70b0001fe979d,55,1,2024-02-28T14:40:42.644Z,english_730.wav,0,pill,520,66,5,4,english,m,3,0.3,8.75583116,1.65669948
5c8ee6c36ca70b0001fe979d,55,1,2024-02-28T14:40:42.644Z,english_730.wav,0,pill,520,66,5,4,english,m,4,0.4,-60.72300086,1.8622585
5c8ee6c36ca70b0001fe979d,55,1,2024-02-28T14:40:42.644Z,english_730.wav,0,pill,520,66,5,4,english,m,5,0.5,-43.53238385,1.86205359
5c8ee6c36ca70b0001fe979d,55,1,2024-02-28T14:40:42.644Z,english_730.wav,0,pill,520,66,5,4,english,m,6,0.6,7.41942565,1.2731877
5c8ee6c36ca70b0001fe979d,55,1,2024-02-28T14:40:42.644Z,english_730.wav,0,pill,520,66,5,4,english,m,7,0.7,-30.23988593,0.2835626
5c8ee6c36ca70b0001fe979d,55,1,2024-02-28T14:40:42.644Z,english_730.wav,0,pill,520,66,5,4,english,m,8,0.8,98.85106115,0.42372638
5c8ee6c36ca70b0001fe979d,55,1,2024-02-28T14:40:42.644Z,english_730.wav,0,pill,520,66,5,4,english,m,9,0.9,11.8745124,1.35675351
5c8ee6c36ca70b0001fe979d,55,1,2024-02-28T14:40:42.644Z,english_730.wav,0,pill,520,66,5,4,english,m,10,1.0,-15.67114445,1.03423815
5c8ee6c36ca70b0001fe979d,55,1,2024-02-28T14:40:42.644Z,english_730.wav,0,pill,520,66,5,4,english,m,11,1.09391667,-67.06238252,0.63701046
5c8ee6c36ca70b0001fe979d,56,1,2024-02-28T14:40:42.644Z,english_811.wav,0,peel,384,66,5,4,english,m,0,0.0,-74.87697924,0.45507787
5c8ee6c36ca70b0001fe979d,56,1,2024-02-28T14:40:42.644Z,english_811.wav,0,peel,384,66,5,4,english,m,1,0.1,96.86117413,1.76793824
5c8ee6c36ca70b0001fe979d,56,1,2024-02-28T14:40:42.644Z,english_811.wav,0,peel,384,66,5,4,english,m,2,0.2,10.72305858,0.84862028
5c8ee6c36ca70b0001fe979d,56,1,2024-02-28T14:40:42.644Z,english_811.wav,0,peel,384,66,5,4,english,m,3,0.3,48.56085209,0.62727309
5c8ee6c36ca70b0001fe979d,56,1,2024-02-28T14:40:42.644Z,english_811.wav,0,peel,384,66,5,4,english,m,4,0.4,-99.82729779,1.03490246
5c8ee6c36ca70b0001fe979d,56,1,2024-02-28T14:40:42.644Z,english_811.wav,0,peel,384,66,5,4,english,m,5,0.5,79.99074979,1.90507478
5c8ee6c36ca70b0001fe979d,56,1,2024-02-28T14:40:42.644Z,english_811.wav,0,peel,384,66,5,4,english,m,6,0.6,-9.67190631,0.06135305
5c8ee6c36ca70b0001fe979d,56,1,2024-02-28T14:40:42.644Z,english_811.wav,0,peel,384,66,5,4,english,m,7,0.7,-89.53034614,0.24955368
5c8ee6c36ca70b0001fe979d,56,1,2024-02-28T14:40:42.644Z,english_811.wav,0,peel,384,66,5,4,english,m,8,0.8,84.53947336,0.72917007
5c8ee6c36ca70b0001fe979d,56,1,2024-02-28T14:40:42.644Z,english_811.wav,0,peel,384,66,5,4,english,m,9,0.9,-76.82386536,1.5042388
5c8ee6c36ca70b0001fe979d,56,1,2024-02-28T14:40:42.644Z,english_811.wav,0,peel,384,66,5,4,english,m,10,1.0,-19.04963958,1.60193394
5c8ee6c36ca70b0001fe979d,56,1,2024-02-28T14:40:42.644Z,english_811.wav,0,peel,384,66,5,4,english,m,11,1.09391667,78.79317252,0.72084905
5c8ee6c36ca70b0001fe979d,57,1,2024-02-28T14:40:42.644Z,english_770.wav,0,peel,471,66,5,4,english,m,0,0.0,91.12421142,0.39537222
5c8ee6c36ca70b0001fe979d,57,1,2024-02-28T14:40:42.644Z,english_770.wav,0,peel,471,66,5,4,english,m,1,0.1,-19.58540638,0.64754321
5c8ee6c36ca70b0001fe979d,57,1,2024-02-28T14:40:42.644Z,english_770.wav,0,peel,471,66,5,4,english,m,2,0.2,-79.28932671,1.33811004
5c8ee6c36ca70b0001fe979d,57,1,2024-02-28T14:40:42.644Z,english_770.wav,0,peel,471,66,5,4,english,m,3,0.3,84.41656944,0.79999887
5c8ee6c36ca70b0001fe979d,57,1,2024-02-28T14:40:42.644Z,english_770.wav,0,peel,471,66,5,4,english,m,4,0.4,-7.14437585,0.34341238
5c8ee6c36ca70b0001fe979d,57,1,2024-02-28T14:40:42.644Z,english_770.wav,0,peel,471,66,5,4,english,m,5,0.5,-65.427815,0.89137249
5c8ee6c36ca70b0001fe979d,57,1,2024-02-28T14:40:42.644Z,english_770.wav,0,peel,471,66,5,4,english,m,6,0.6,24.29112002,1.67993341
5c8ee6c36ca70b0001fe979d,57,1,2024-02-28T14:40:42.644Z,english_770.wav,0,peel,471,66,5,4,english,m,7,0.7,-96.64014953,1.65600172
5c8ee6c36ca70b0001fe979d,57,1,2024-02-28T14:40:42.644Z,english_770.wav,0,peel,471,66,5,4,english,m,8,0.8,-19.88619379,0.2664894
5c8ee6c36ca70b0001fe979d,57,1,2024-02-28T14:40:42.644Z,english_770.wav,0,peel,471,66,5,4,english,m,9,0.9,6.75538061,1.80740877
5c8ee6c36ca70b0001fe979d,57,1,2024-02-28T14:40:42.644Z,english_770.wav,0,peel,471,66,5,4,english,m,10,1.0,-9.4599271,0.27817675
5c8ee6c36ca70b0001fe979d,57,1,2024-02-28T14:40:42.644Z,english_770.wav,0,peel,471,66,5,4,english,m,11,1.09391667,37.64052975,0.07045036
5c8ee6c36ca70b0001fe979d,58,1,2024-02-28T14:40:42.644Z,english_929.wav,0,peel,231,66,5,4,english,m,0,0.0,-18.74393268,1.03205893
5c8ee6c36ca70b0001fe979d,58,1,2024-02-28T14:40:42.644Z,english_929.wav,0,peel,231,66,5,4,english,m,1,0.1,33.5098218,1.56324899
5c8ee6c36ca70b0001fe979d,58,1,2024-02-28T14:40:42.644Z,english_929.wav,0,peel,231,66,5,4,english,m,2,0.2,-29.94782209,1.48903241
5c8ee6c36ca70b0001fe979d,58,1,2024-02-28T14:40:42.644Z,english_929.wav,0,peel,231,66,5,4,english,m,3,0.3,-33.25977884,0.12654912
5c8ee6c36ca70b0001fe979d,58,1,2024-02-28T14:40:42.644Z,english_929.wav,0,peel,231,66,5,4,english,m,4,0.4,-9.01985938,0.84484029
5c8ee6c36ca70b0001fe979d,58,1,2024-02-28T14:40:42.644Z,english_929.wav,0,peel,231,66,5,4,english,m,5,0.5,-82.73987875,0.94715121
5c8ee6c36ca70b0001fe979d,58,1,2024-02-28T14:40:42.644Z,english_929.wav,0,peel,231,66,5,4,english,m,6,0.6,48.07587241,1.69154368
5c8ee6c36ca70b0001fe979d,58,1,2024-02-28T14:40:42.644Z,english_929.wav,0,peel,231,66,5,4,english,m,7,0.7,-43.15088987,0.81126675
5c8ee6c36ca70b0001fe979d,58,1,2024-02-28T14:40:42.644Z,english_929.wav,0,peel,231,66,5,4,english,m,8,0.8,82.92488977,0.36905029
5c8ee6c36ca70b0001fe979d,58,1,2024-02-28T14:40:42.644Z,english_929.wav,0,peel,231,66,5,4,english,m,9,0.9,-60.38444868,0.50874334
5c8ee6c36ca70b0001fe979d,58,1,2024-02-28T14:40:42.644Z,english_929.wav,0,peel,231,66,5,4,english,m,10,1.0,27.71416794,0.95284967
5c8ee6c36ca70b0001fe979d,58,1,2024-02-28T14:40:42.644Z,english_929.wav,0,peel,231,66,5,4,english,m,11,1.09391667,21.92497573,0.65099343
5c8ee6c36ca70b0001fe979d,59,1,2024-02-28T14:40:42.644Z,english_800.wav,0,peel,150,66,5,4,english,m,0,0.0,35.31456444,1.69516606
5c8ee6c36ca70b0001fe979d,59,1,2024-02-28T14:40:42.644Z,english_800.wav,0,peel,150,66,5,4,english,m,1,0.1,32.41521545,0.23308544
5c8ee6c36ca70b0001fe979d,59,1,2024-02-28T14:40:42.644Z,english_800.wav,0,peel,150,66,5,4,english,m,2,0.2,-54.21409297,0.95659058
5c8ee6c36ca70b0001fe979d,59,1,2024-02-28T14:40:42.644Z,english_800.wav,0,peel,150,66,5,4,english,m,3,0.3,-42.78782363,1.51885901
5c8ee6c36ca70b0001fe979d,59,1,2024-02-28T14:40:42.644Z,english_800.wav,0,peel,150,66,5,4,english,m,4,0.4,54.56880631,1.37866605
5c8ee6c36ca70b0001fe979d,59,1,2024-02-28T14:40:42.644Z,english_800.wav,0,peel,150,66,5,4,english,m,5,0.5,-47.76201321,0.13843314
5c8ee6c36ca70b0001fe979d,59,1,2024-02-28T14:40:42.644Z,english_800.wav,0,peel,150,66,5,4,english,m,6,0.6,21.101395,0.69869138
5c8ee6c36ca70b0001fe979d,59,1,2024-02-28T14:40:42.644Z,english_800.wav,0,peel,150,66,5,4,english,m,7,0.7,-85.00905452,1.55469424
5c8ee6c36ca70b0001fe979d,59,1,2024-02-28T14:40:42.644Z,english_800.wav,0,peel,150,66,5,4,english,m,8,0.8,89.73188045,1.19022687
5c8ee6c36ca70b0001fe979d,59,1,2024-02-28T14:40:42.644Z,english_800.wav,0,peel,150,66,5,4,english,m,9,0.9,58.36158131,1.40913395
5c8ee6c36ca70b0001fe979d,59,1,2024-02-28T14:40:42.644Z,english_800.wav,0,peel,150,66,5,4,english,m,10,1.0,82.86297317,1.54823015
5c8ee6c36ca70b0001fe979d,59,1,2024-02-28T14:40:42.644Z,english_800.wav,0,peel,150,66,5,4,english,m,11,1.09391667,50.19485525,1.45235784
5c8ee6c36ca70b0001fe979d,60,1,2024-02-28T14:40:42.644Z,english_951.wav,0,peel,157,66,5,4,english,m,0,0.0,-36.21368885,0.73102916
5c8ee6c36ca70b0001fe979d,60,1,2024-02-28T14:40:42.644Z,english_951.wav,0,peel,157,66,5,4,english,m,1,0.1,-21.58887728,1.91789337
5c8ee6c36ca70b0001fe979d,60,1,2024-02-28T14:40:42.644Z,english_951.wav,0,peel,157,66,5,4,english,m,2,0.2,13.41790132,0.21798818
5c8ee6c36ca70b0001fe979d,60,1,2024-02-28T14:40:42.644Z,english_951.wav,0,peel,157,66,5,4,english,m,3,0.3,54.14984422,1.25250258
5c8ee6c36ca70b0001fe979d,60,1,2024-02-28T14:40:42.644Z,english_951.wav,0,peel,157,66,5,4,english,m,4,0.4,-14.70759229,1.17100168
5c8ee6c36ca70b0001fe979d,60,1,2024-02-28T14:40:42.644Z,english_951.wav,0,peel,157,66,5,4,english,m,5,0.5,-89.28721174,0.37038944
5c8ee6c36ca70b0001fe979d,60,1,2024-02-28T14:40:42.644Z,english_951.wav,0,peel,157,66,5,4,english,m,6,0.6,-44.90139169,0.22313149
5c8ee6c36ca70b0001fe979d,60,1,2024-02-28T14:40:42.644Z,english_951.wav,0,peel,157,66,5,4,english,m,7,0.7,31.96128506,1.88317087
5c8ee6c36ca70b0001fe979d,60,1,2024-02-28T14:40:42.644Z,english_951.wav,0,peel,157,66,5,4,english,m,8,0.8,15.8351581,0.03386618
5c8ee6c36ca70b0001fe979d,60,1,2024-02-28T14:40:42.644Z,english_951.wav,0,peel,157,66,5,4,english,m,9,0.9,-35.27402609,1.29108959
5c8ee6c36ca70b0001fe979d,60,1,2024-02-28T14:40:42.644Z,english_951.wav,0,peel,157,66,5,4,english,m,10,1.0,-2.7577194,0.69196657
5c8ee6c36ca70b0001fe979d,60,1,2024-02-28T14:40:42.644Z,english_951.wav,0,peel,157,66,5,4,english,m,11,1.09391667,-33.63227805,1.7463571
5c8ee6c36ca70b0001fe979d,61,1,2024-02-28T14:40:42.644Z,english_686.wav,0,peel,23,66,5,4,english,m,0,0.0,-67.05425971,1.70124543
5c8ee6c36ca70b0001fe979d,61,1,2024-02-28T14:40:42.644Z,english_686.wav,0,peel,23,66,5,4,english,m,1,0.1,-39.97086024,0.46826984
5c8ee6c36ca70b0001fe979d,61,1,2024-02-28T14:40:42.644Z,english_686.wav,0,peel,23,66,5,4,english,m,2,0.2,-95.68334926,0.38007699
5c8ee6c36ca70b0001fe979d,61,1,2024-02-28T14:40:42.644Z,english_686.wav,0,peel,23,66,5,4,english,m,3,0.3,95.25173903,1.75748907
5c8ee6c36ca70b0001fe979d,61,1,2024-02-28T14:40:42.644Z,english_686.wav,0,peel,23,66,5,4,english,m,4,0.4,-32.8311948,0.73728226
5c8ee6c36ca70b0001fe979d,61,1,2024-02-28T14:40:42.644Z,english_686.wav,0,peel,23,66,5,4,english,m,5,0.5,-48.95766653,0.66391126
5c8ee6c36ca70b0001fe979d,61,1,2024-02-28T14:40:42.644Z,english_686.wav,0,peel,23,66,5,4,english,m,6,0.6,1.46673541,0.49234924
5c8ee6c36ca70b0001fe979d,61,1,2024-02-28T14:40:42.644Z,english_686.wav,0,peel,23,66,5,4,english,m,7,0.7,2.82521342,1.58569933
5c8ee6c36ca70b0001fe979d,61,1,2024-02-28T14:40:42.644Z,english_686.wav,0,peel,23,66,5,4,english,m,8,0.8,-50.40490355,0.73602174
5c8ee6c36ca70b0001fe979d,61,1,2024-02-28T14:40:42.644Z,english_686.wav,0,peel,23,66,5,4,english,m,9,0.9,-13.31081272,0.69160948
5c8ee6c36ca70b0001fe979d,61,1,2024-02-28T14:40:42.644Z,english_686.wav,0,peel,23,66,5,4,english,m,10,1.0,86.45331077,1.60918627
5c8ee6c36ca70b0001fe979d,61,1,2024-02-28T14:40:42.644Z,english_686.wav,0,peel,23,66,5,4,english,m,11,1.09391667,27.45785802,0.82158227
5c8ee6c36ca70b0001fe979d,62,1,2024-02-28T14:40:42.644Z,english_849.wav,0,peel,210,66,5,4,english,m,0,0.0,3.14918828,0.91646938
5c8ee6c36ca70b0001fe979d,62,1,2024-02-28T14:40:42.644Z,english_849.wav,0,peel,210,66,5,4,english,m,1,0.1,-23.77765777,0.05935653
5c8ee6c36ca70b0001fe979d,62,1,2024-02-28T14:40:42.644Z,english_849.wav,0,peel,210,66,5,4,english,m,2,0.2,33.06216364,1.47739407
5c8ee6c36ca70b0001fe979d,62,1,2024-02-28T14:40:42.644Z,english_849.wav,0,peel,210,66,5,4,english,m,3,0.3,-62.11705981,0.33072981
5c8ee6c36ca70b0001fe979d,62,1,2024-02-28T14:40:42.644Z,english_849.wav,0,peel,210,66,5,4,english,m,4,0.4,7.17201603,0.11578877
5c8ee6c36ca70b0001fe979d,62,1,2024-02-28T14:40:42.644Z,english_849.wav,0,peel,210,66,5,4,english,m,5,0.5,-75.75571993,1.27391033
5c8ee6c36ca70b0001fe979d,62,1,2024-02-28T14:40:42.644Z,english_849.wav,0,peel,210,66,5,4,english,m,6,0.6,-11.73418988,0.32212457
5c8ee6c36ca70b0001fe979d,62,1,2024-02-28T14:40:42.644Z,english_849.wav,0,peel,210,66,5,4,english,m,7,0.7,-67.42384643,1.51956894
5c8ee6c36ca70b0001fe979d,62,1,2024-02-28T14:40:42.644Z,english_849.wav,0,peel,210,66,5,4,english,m,8,0.8,50.24136352,0.3318501
5c8ee6c36ca70b0001fe979d,62,1,2024-02-28T14:40:42.644Z,english_849.wav,0,peel,210,66,5,4,english,m,9,0.9,-60.42241677,0.78089197
5c8ee6c36ca70b0001fe979d,62,1,2024-02-28T14:40:42.644Z,english_849.wav,0,peel,210,66,5,4,english,m,10,1.0,70.30658547,0.6122717
5c8ee6c36ca70b0001fe979d,62,1,2024-02-28T14:40:42.644Z,english_849.wav,0,peel,210,66,5,4,english,m,11,1.09391667,-8.44903954,1.08036793
5c8ee6c36ca70b0001fe979d,63,1,2024-02-28T14:40:42.644Z,english_94.wav,0,pill,363,66,5,4,english,m,0,0.0,-69.13613192,0.71683615
5c8ee6c36ca70b0001fe979d,63,1,2024-02-28T14:40:42.644Z,english_94.wav,0,pill,363,66,5,4,english,m,1,0.1,-53.91573564,1.64130178
5c8ee6c36ca70b0001fe979d,63,1,2024-02-28T14:40:42.644Z,english_94.wav,0,pill,363,66,5,4,english,m,2,0.2,88.54569891,1.41561382
5c8ee6c36ca70b0001fe979d,63,1,2024-02-28T14:40:42.644Z,english_94.wav,0,pill,363,66,5,4,english,m,3,0.3,47.91558238,0.72478091
5c8ee6c36ca70b0001fe979d,63,1,2024-02-28T14:40:42.644Z,english_94.wav,0,pill,363,66,5,4,english,m,4,0.4,46.13883045,1.21480875
5c8ee6c36ca70b0001fe979d,63,1,2024-02-28T14:40:42.644Z,english_94.wav,0,pill,363,66,5,4,english,m,5,0.5,0.71209955,0.13058063
5c8ee6c36ca70b0001fe979d,63,1,2024-02-28T14:40:42.644Z,english_94.wav,0,pill,363,66,5,4,english,m,6,0.6,53.89774049,1.07607775
5c8ee6c36ca70b0001fe979d,63,1,2024-02-28T14:40:42.644Z,english_94.wav,0,pill,363,66,5,4,english,m,7,0.7,37.22112319,0.10112022
5c8ee6c36ca70b0001fe979d,63,1,2024-02-28T14:40:42.644Z,english_94.wav,0,pill,363,66,5,4,english,m,8,0.8,8.13348347,0.91343474
5c8ee6c36ca70b0001fe979d,63,1,2024-02-28T14:40:42.644Z,english_94.wav,0,pill,363,66,5,4,english,m,9,0.9,-10.35793642,0.77751528
5c8ee6c36ca70b0001fe979d,63,1,2024-02-28T14:40:42.644Z,english_94.wav,0,pill,363,66,5,4,english,m,10,1.0,75.25647247,0.57088528
5c8ee6c36ca70b0001fe979d,63,1,2024-02-28T14:40:42.644Z,english_94.wav,0,pill,363,66,5,4,english,m,11,1.09391667,-70.34686187,0.98841109
5c8ee6c36ca70b0001fe979d,64,1,2024-02-28T14:40:42.644Z,english_583.wav,0,peel,887,66,5,4,english,m,0,0.0,-89.46926799,1.93205848
5c8ee6c36ca70b0001fe979d,64,1,2024-02-28T14:40:42.644Z,english_583.wav,0,peel,887,66,5,4,english,m,1,0.1,-21.95760647,0.52539253
5c8ee6c36ca70b0001fe979d,64,1,2024-02-28T14:40:42.644Z,english_583.wav,0,peel,887,66,5,4,english,m,2,0.2,51.54638902,0.25359823
5c8ee6c36ca70b0001fe979d,64,1,2024-02-28T14:40:42.644Z,english_583.wav,0,peel,887,66,5,4,english,m,3,0.3,-19.59460838,0.46642282
5c8ee6c36ca70b0001fe979d,64,1,2024-02-28T14:40:42.644Z,english_583.wav,0,peel,887,66,5,4,english,m,4,0.4,-80.65157181,0.25879931
5c8ee6c36ca70b0001fe979d,64,1,2024-02-28T14:40:42.644Z,english_583.wav,0,peel,887,66,5,4,english,m,5,0.5,13.46564549,0.54774352
5c8ee6c36ca70b0001fe979d,64,1,2024-02-28T14:40:42.644Z,english_583.wav,0,peel,887,66,5,4,english,m,6,0.6,-1.99224774,1.89783447
5c8ee6c36ca70b0001fe979d,64,1,2024-02-28T14:40:42.644Z,english_583.wav,0,peel,887,66,5,4,english,m,7,0.7,96.26030273,0.46572744
