subj,sex,age,language,english,french,native_lang,date,practice,block,trial,stim,pitch,stretch,response,rt
8730571689,f,19,english,5,3,english,2024-02-01 10:33:22.879057,False,2,253,sounds\english\audio/english_389.wav,"[[  0.         -27.92030451]
 [  0.1        -46.10796153]
 [  0.2         29.27243325]
 [  0.3        -81.13766006]
 [  0.4        -25.00115648]
 [  0.5        -17.10951233]
 [  0.6         15.83507298]
 [  0.7         79.29241289]
 [  0.8         27.96570621]
 [  0.9        -91.92786914]
 [  1.          39.38033895]
 [  1.09391667 -32.92969944]]","[[0.         1.81186154]
 [0.1        1.54804085]
 [0.2        0.55488288]
 [0.3        1.00824624]
 [0.4        1.07224035]
 [0.5        0.42212287]
 [0.6        1.0440142 ]
 [0.7        1.00958508]
 [0.8        0.92707182]
 [0.9        1.30621654]
 [1.         1.4968603 ]
 [1.09391667 0.53867672]]",0,5.182
8730571689,f,19,english,5,3,english,2024-02-01 10:33:22.879057,False,2,254,sounds\english\audio/english_312.wav,"[[  0.         -44.20026349]
 [  0.1         37.14552062]
 [  0.2         18.3582365 ]
 [  0.3         77.7774411 ]
 [  0.4        -78.31932482]
 [  0.5        -58.95150344]
 [  0.6         89.34504931]
 [  0.7         88.15541314]
 [  0.8         -8.94977512]
 [  0.9        -51.17539316]
 [  1.         -56.97812864]
 [  1.09391667  78.26932654]]","[[0.         0.70172327]
 [0.1        1.15664492]
 [0.2        0.90621855]
 [0.3        1.08976836]
 [0.4        1.02467386]
 [0.5        0.3820111 ]
 [0.6        1.09647863]
 [0.7        1.49721146]
 [0.8        1.78917626]
 [0.9        0.56099976]
 [1.         1.16855683]
 [1.09391667 0.99548906]]",1,2.131
8730571689,f,19,english,5,3,english,2024-02-01 10:33:22.879057,False,2,255,sounds\english\audio/english_364.wav,"[[  0.          83.865778  ]
 [  0.1         63.76779424]
 [  0.2         76.73494008]
 [  0.3         63.04278033]
 [  0.4        -55.03833232]
 [  0.5         57.11242427]
 [  0.6         15.41108418]
 [  0.7          3.11298983]
 [  0.8         15.49246741]
 [  0.9        -76.70109977]
 [  1.          21.21406375]
 [  1.09391667  20.91306008]]","[[0.         0.64688834]
 [0.1        1.36525912]
 [0.2        0.98445588]
 [0.3        1.58126378]
 [0.4        1.2558055 ]
 [0.5        1.01407945]
 [0.6        1.72440997]
 [0.7        1.75247835]
 [0.8        0.306912  ]
 [0.9        1.65351594]
 [1.         0.67540521]
 [1.09391667 0.2382038 ]]",0,0.685
8730571689,f,19,english,5,3,english,2024-02-01 10:33:22.879057,False,2,256,sounds\english\audio/english_45.wav,"[[  0.         -55.14721801]
 [  0.1         57.09452307]
 [  0.2         -1.62499195]
 [  0.3        -13.00347301]
 [  0.4         13.64765964]
 [  0.5        -16.23645369]
 [  0.6         12.80202188]
 [  0.7         18.490615  ]
 [  0.8        -32.73911513]
 [  0.9         72.91810524]
 [  1.         -39.54069726]
 [  1.09391667   1.32954538]]","[[0.         0.29299266]
 [0.1        0.9247964 ]
 [0.2        1.0494158 ]
 [0.3        1.81345336]
 [0.4        1.7292362 ]
 [0.5        0.3059786 ]
 [0.6        1.60566624]
 [0.7        1.60640041]
 [0.8        0.6923723 ]
 [0.9        1.31031073]
 [1.         0.9624361 ]
 [1.09391667 1.523717  ]]",1,0.822
8730571689,f,19,english,5,3,english,2024-02-01 10:33:22.879057,False,2,257,sounds\english\audio/english_368.wav,"[[  0.         -21.74410199]
 [  0.1        -54.46820056]
 [  0.2         36.37288824]
 [  0.3         28.79669065]
 [  0.4         64.63914759]
 [  0.5        -47.48725989]
 [  0.6        -56.63725257]
 [  0.7        -15.67963737]
 [  0.8        -67.03077711]
 [  0.9        -87.98164929]
 [  1.          66.360443  ]
 [  1.09391667  86.76512067]]","[[0.         1.11444004]
 [0.1        1.02689489]
 [0.2        1.84847876]
 [0.3        1.32768322]
 [0.4        1.2143292 ]
 [0.5        1.4175641 ]
 [0.6        0.26859899]
 [0.7        1.20913194]
 [0.8        0.71725489]
 [0.9        0.61705061]
 [1.         1.87423649]
 [1.09391667 0.90814369]]",0,2.208
8730571689,f,19,english,5,3,english,2024-02-01 10:33:22.879057,False,2,258,sounds\english\audio/english_214.wav,"[[  0.          77.66249847]
 [  0.1        -66.26077856]
 [  0.2        -51.4922282 ]
 [  0.3         14.18659261]
 [  0.4        -48.84743407]
 [  0.5         19.47798934]
 [  0.6         30.92446632]
 [  0.7        -20.72955743]
 [  0.8        -84.03788896]
 [  0.9          1.19993411]
 [  1.         -10.67189742]
 [  1.09391667  76.51495677]]","[[0.         1.66443393]
 [0.1        1.37654428]
 [0.2        1.40712663]
 [0.3        0.14412451]
 [0.4        0.91551293]
 [0.5        0.32690142]
 [0.6        1.55465622]
 [0.7        0.81533764]
 [0.8        1.36872512]
 [0.9        0.61257248]
 [1.         1.2492197 ]
 [1.09391667 1.13872638]]",1,0.395
8730571689,f,19,english,5,3,english,2024-02-01 10:33:22.879057,False,2,259,sounds\english\audio/english_147.wav,"[[  0.          13.5835913 ]
 [  0.1        -12.78269311]
 [  0.2        -68.15160011]
 [  0.3        -22.06196162]
 [  0.4        -52.80599893]
 [  0.5        -19.06204323]
 [  0.6         99.53651939]
 [  0.7        -28.8369824 ]
 [  0.8         74.70483883]
 [  0.9         42.275031  ]
 [  1.         -85.9360484 ]
 [  1.09391667  70.70596031]]","[[0.         1.55424913]
 [0.1        1.36751472]
 [0.2        0.0989476 ]
 [0.3        1.09942606]
 [0.4        0.66767386]
 [0.5        1.22234283]
 [0.6        1.18173491]
 [0.7        1.33756281]
 [0.8        0.81214456]
 [0.9        0.37062199]
 [1.         1.6700327 ]
 [1.09391667 1.62026459]]",1,1.211
8730571689,f,19,english,5,3,english,2024-02-01 10:33:22.879057,False,2,260,sounds\english\audio/english_470.wav,"[[  0.           7.37990413]
 [  0.1         87.94942489]
 [  0.2         10.38249529]
 [  0.3        -58.07329771]
 [  0.4         23.85321855]
 [  0.5          6.8444155 ]
 [  0.6        -98.77408233]
 [  0.7         31.31374825]
 [  0.8         48.11301354]
 [  0.9         41.85545408]
 [  1.         -24.66275902]
 [  1.09391667 -90.92929456]]","[[0.         0.50795653]
 [0.1        0.30691906]
 [0.2        0.98636118]
 [0.3        1.21445168]
 [0.4        1.48681533]
 [0.5        0.97810489]
 [0.6        1.43803165]
 [0.7        0.53571114]
 [0.8        0.52187188]
 [0.9        0.48211822]
 [1.         1.48098769]
 [1.09391667 1.20326113]]",1,1.171
8730571689,f,19,english,5,3,english,2024-02-01 10:33:22.879057,False,2,261,sounds\english\audio/english_923.wav,"[[  0.          93.2289474 ]
 [  0.1        -90.20705496]
 [  0.2        -39.60180218]
 [  0.3         80.82184167]
 [  0.4         -9.151808  ]
 [  0.5         26.58775585]
 [  0.6          6.23734234]
 [  0.7         72.65407882]
 [  0.8        -19.39856568]
 [  0.9        -78.04150402]
 [  1.          32.81309653]
 [  1.09391667  90.62685446]]","[[0.         1.70020423]
 [0.1        1.01222006]
 [0.2        0.78975297]
 [0.3        0.55346402]
 [0.4        0.82944294]
 [0.5        1.08031611]
 [0.6        0.85830077]
 [0.7        1.16981472]
 [0.8        1.72430236]
 [0.9        0.87754791]
 [1.         1.2494211 ]
 [1.09391667 1.97603122]]",0,0.348
8730571689,f,19,english,5,3,english,2024-02-01 10:33:22.879057,False,2,262,sounds\english\audio/english_7.wav,"[[  0.           6.20403874]
 [  0.1         37.19731147]
 [  0.2         49.31472848]
 [  0.3        -90.70180435]
 [  0.4         27.47473692]
 [  0.5         15.65561706]
 [  0.6         67.99861593]
 [  0.7         -2.80792886]
 [  0.8        -17.20995774]
 [  0.9         38.34852693]
 [  1.           6.34291962]
 [  1.09391667 -45.85734326]]","[[0.         1.30974385]
 [0.1        0.99661129]
 [0.2        1.03745865]
 [0.3        1.78258145]
 [0.4        0.46239098]
 [0.5        1.16284284]
 [0.6        0.54440065]
 [0.7        0.65589639]
 [0.8        0.81804206]
 [0.9        0.8839338 ]
 [1.         0.72265374]
 [1.09391667 0.75155419]]",1,0.475
8730571689,f,19,english,5,3,english,2024-02-01 10:33:22.879057,False,2,263,sounds\english\audio/english_331.wav,"[[  0.         -64.72276527]
 [  0.1        -64.60107944]
 [  0.2         43.10237597]
 [  0.3          3.97944271]
 [  0.4         53.93002911]
 [  0.5        -98.69413197]
 [  0.6         76.42202474]
 [  0.7        -50.14036669]
 [  0.8         61.5779926 ]
 [  0.9        -56.16895328]
 [  1.           5.62439148]
 [  1.09391667 -39.06443994]]","[[0.         1.69014175]
 [0.1        0.93306192]
 [0.2        1.51219836]
 [0.3        1.83280239]
 [0.4        0.32272679]
 [0.5        0.14451959]
 [0.6        0.4727661 ]
 [0.7        0.90462805]
 [0.8        1.98401372]
 [0.9        0.59081959]
 [1.         1.38184498]
 [1.09391667 0.44356806]]",0,0.993
8730571689,f,19,english,5,3,english,2024-02-01 10:33:22.879057,False,2,264,sounds\english\audio/english_184.wav,"[[  0.         -74.14199581]
 [  0.1         89.94537867]
 [  0.2        -97.85495654]
 [  0.3         32.1848514 ]
 [  0.4        -18.16351382]
 [  0.5         45.53126648]
 [  0.6        -65.36095863]
 [  0.7        -40.1441705 ]
 [  0.8         67.58790179]
 [  0.9         83.12820885]
 [  1.          51.68582171]
 [  1.09391667  49.78372489]]","[[0.         0.56604578]
 [0.1        0.76750271]
 [0.2        1.21496016]
 [0.3        1.29013374]
 [0.4        0.9359149 ]
 [0.5        0.64815145]
 [0.6        1.94413917]
 [0.7        0.65249887]
 [0.8        1.32844944]
 [0.9        0.04188573]
 [1.         1.11136781]
 [1.09391667 0.42919135]]",1,0.426
8730571689,f,19,english,5,3,english,2024-02-01 10:33:22.879057,False,2,265,sounds\english\audio/english_724.wav,"[[  0.         -56.76875747]
 [  0.1        -86.21406354]
 [  0.2         60.18994207]
 [  0.3        -73.18576328]
 [  0.4          9.02898682]
 [  0.5          0.09152752]
 [  0.6        -45.20734969]
 [  0.7         41.14572905]
 [  0.8         -8.90641818]
 [  0.9         16.12067161]
 [  1.          72.53679682]
 [  1.09391667  17.69672556]]","[[0.         1.98134375]
 [0.1        1.3755847 ]
 [0.2        0.59510503]
 [0.3        0.94085573]
 [0.4        1.58537713]
 [0.5        0.37644638]
 [0.6        0.99166811]
 [0.7        0.69217337]
 [0.8        0.6776497 ]
 [0.9        0.10142147]
 [1.         1.80502318]
 [1.09391667 1.15790189]]",0,1.355
8730571689,f,19,english,5,3,english,2024-02-01 10:33:22.879057,False,2,266,sounds\english\audio/english_132.wav,"[[  0.           0.80878803]
 [  0.1        -89.46369243]
 [  0.2        -42.02740452]
 [  0.3        -31.54071999]
 [  0.4          0.25010778]
 [  0.5         58.11815913]
 [  0.6         81.96461668]
 [  0.7        -44.50191201]
 [  0.8        -95.34081409]
 [  0.9        -97.06518429]
 [  1.           9.04827132]
 [  1.09391667  76.3058936 ]]","[[0.         1.8484575 ]
 [0.1        0.19659267]
 [0.2        0.98704764]
 [0.3        0.90975168]
 [0.4        1.48690857]
 [0.5        1.16973021]
 [0.6        0.00206468]
 [0.7        0.61136538]
 [0.8        0.53595083]
 [0.9        0.1294964 ]
 [1.         0.71465456]
 [1.09391667 0.51987053]]",1,0.498
8730571689,f,19,english,5,3,english,2024-02-01 10:33:22.879057,False,2,267,sounds\english\audio/english_451.wav,"[[  0.         -86.97928696]
 [  0.1         35.46303065]
 [  0.2         -6.55574904]
 [  0.3        -70.24481901]
 [  0.4        -15.3143791 ]
 [  0.5        -46.78683141]
 [  0.6         30.57428638]
 [  0.7        -51.27590564]
 [  0.8        -57.45214614]
 [  0.9         43.47837492]
 [  1.          45.12702561]
 [  1.09391667 -26.34948453]]","[[0.         0.12091055]
 [0.1        0.11109609]
 [0.2        0.96762463]
 [0.3        0.33361345]
 [0.4        1.63079661]
 [0.5        1.71822711]
 [0.6        1.99896141]
 [0.7        1.31564503]
 [0.8        0.39748904]
 [0.9        0.70409186]
 [1.         0.48590378]
 [1.09391667 1.98999714]]",0,0.372
8730571689,f,19,english,5,3,english,2024-02-01 10:33:22.879057,False,2,268,sounds\english\audio/english_57.wav,"[[  0.          69.92924321]
 [  0.1         50.83595835]
 [  0.2         72.89041726]
 [  0.3        -25.50577281]
 [  0.4        -12.89341009]
 [  0.5        -24.95937253]
 [  0.6         64.68704807]
 [  0.7         26.76917617]
 [  0.8        -85.40894658]
 [  0.9        -86.04927125]
 [  1.          86.88641586]
 [  1.09391667 -99.07725694]]","[[0.         1.37399784]
 [0.1        1.30125162]
 [0.2        0.76532722]
 [0.3        0.08256356]
 [0.4        1.10396563]
 [0.5        1.0000289 ]
 [0.6        0.6504756 ]
 [0.7        1.09615913]
 [0.8        0.70411597]
 [0.9        0.54802277]
 [1.         1.43991022]
 [1.09391667 1.41890007]]",1,0.689
8730571689,f,19,english,5,3,english,2024-02-01 10:33:22.879057,False,2,269,sounds\english\audio/english_970.wav,"[[  0.         -54.89447986]
 [  0.1         25.1169893 ]
 [  0.2        -40.43511265]
 [  0.3        -62.36717191]
 [  0.4        -52.87769156]
 [  0.5        -60.51030312]
 [  0.6        -20.66217752]
 [  0.7         39.3890126 ]
 [  0.8        -42.20316614]
 [  0.9         -5.07453967]
 [  1.          63.70783578]
 [  1.09391667  15.89619138]]","[[0.         0.81951556]
 [0.1        1.67117432]
 [0.2        1.15867829]
 [0.3        1.19627059]
 [0.4        1.65204518]
 [0.5        1.89905296]
 [0.6        1.49874094]
 [0.7        1.49402448]
 [0.8        0.52089687]
 [0.9        0.54496633]
 [1.         0.14699143]
 [1.09391667 0.8383136 ]]",1,0.381
8730571689,f,19,english,5,3,english,2024-02-01 10:33:22.879057,False,2,270,sounds\english\audio/english_166.wav,"[[  0.         -22.47224396]
 [  0.1          8.34418228]
 [  0.2        -26.80375044]
 [  0.3        -25.22426401]
 [  0.4        -44.17860095]
 [  0.5         -7.8395137 ]
 [  0.6         42.03338864]
 [  0.7         50.48936268]
 [  0.8        -79.33283531]
 [  0.9         57.67304972]
 [  1.          75.92662412]
 [  1.09391667  -5.06556073]]","[[0.         0.79935629]
 [0.1        1.08766258]
 [0.2        0.88793969]
 [0.3        1.85581966]
 [0.4        1.74261815]
 [0.5        0.67828824]
 [0.6        0.30993225]
 [0.7        1.83209491]
 [0.8        1.96795539]
 [0.9        0.73278394]
 [1.         1.69577801]
 [1.09391667 0.31756742]]",0,0.155
8730571689,f,19,english,5,3,english,2024-02-01 10:33:22.879057,False,2,271,sounds\english\audio/english_805.wav,"[[  0.          19.24000096]
 [  0.1        -57.56428934]
 [  0.2        -17.74165003]
 [  0.3         94.45114709]
 [  0.4         58.80414928]
 [  0.5         15.95265091]
 [  0.6        -64.01744173]
 [  0.7        -39.81720589]
 [  0.8         48.58222908]
 [  0.9         79.1348353 ]
 [  1.          66.03274921]
 [  1.09391667 -37.34721406]]","[[0.         0.52175854]
 [0.1        1.45107426]
 [0.2        1.66296684]
 [0.3        1.339528  ]
 [0.4        1.45905309]
 [0.5        0.95701688]
 [0.6        0.10004415]
 [0.7        1.33408917]
 [0.8        0.26158276]
 [0.9        0.78316965]
 [1.         0.77046412]
 [1.09391667 0.38567889]]",1,0.208
8730571689,f,19,english,5,3,english,2024-02-01 10:33:22.879057,False,2,272,sounds\english\audio/english_203.wav,"[[  0.         -95.15502969]
 [  0.1         -9.00046759]
 [  0.2        -46.05673343]
 [  0.3        -80.20455434]
 [  0.4         69.34929809]
 [  0.5         52.23432308]
 [  0.6        -15.81323993]
 [  0.7         37.6557434 ]
 [  0.8         17.28698378]
 [  0.9         49.30427287]
 [  1.          75.36526211]
 [  1.09391667 -92.86270005]]","[[0.         0.13261154]
 [0.1        0.68737046]
 [0.2        1.04752223]
 [0.3        1.42056073]
 [0.4        1.98486552]
 [0.5        0.94146217]
 [0.6        0.9157491 ]
 [0.7        1.05147425]
 [0.8        0.64444213]
 [0.9        0.93595102]
 [1.         0.02848654]
 [1.09391667 1.21065321]]",0,0.354
8730571689,f,19,english,5,3,english,2024-02-01 10:33:22.879057,False,2,273,sounds\english\audio/english_974.wav,"[[  0.         -93.03864928]
 [  0.1        -77.75716604]
 [  0.2          0.69139929]
 [  0.3         26.0953238 ]
 [  0.4         98.53440651]
 [  0.5         92.94553081]
 [  0.6         -7.63804917]
 [  0.7          9.10874073]
 [  0.8        -89.79433239]
 [  0.9        -25.22506103]
 [  1.          90.91634132]
 [  1.09391667  96.1258414 ]]","[[0.         0.43845399]
 [0.1        1.6903579 ]
 [0.2        1.16063432]
 [0.3        1.86115796]
 [0.4        1.84489406]
 [0.5        1.48551441]
 [0.6        0.45444214]
 [0.7        0.66005011]
 [0.8        1.73425962]
 [0.9        0.5346903 ]
 [1.         1.12098349]
 [1.09391667 0.52486182]]",1,0.742
8730571689,f,19,english,5,3,english,2024-02-01 10:33:22.879057,False,2,274,sounds\english\audio/english_997.wav,"[[  0.          38.46441577]
 [  0.1         47.75423334]
 [  0.2        -46.19223392]
 [  0.3        -68.42543964]
 [  0.4        -27.52590553]
 [  0.5        -32.76649905]
 [  0.6        -20.83706487]
 [  0.7        -65.74236322]
 [  0.8        -64.07813761]
 [  0.9         35.09593454]
 [  1.         -66.65072178]
 [  1.09391667  68.83445299]]","[[0.         1.95638345]
 [0.1        0.16897746]
 [0.2        1.34564415]
 [0.3        0.45551636]
 [0.4        1.56941674]
 [0.5        1.12500756]
 [0.6        0.26907816]
 [0.7        0.81160179]
 [0.8        1.2830087 ]
 [0.9        0.14193499]
 [1.         1.05446727]
 [1.09391667 0.54560652]]",0,0.22
8730571689,f,19,english,5,3,english,2024-02-01 10:33:22.879057,False,2,275,sounds\english\audio/english_874.wav,"[[  0.         -71.39498579]
 [  0.1         62.98858744]
 [  0.2         41.27867713]
 [  0.3         -0.45014309]
 [  0.4        -62.23813069]
 [  0.5         81.69191529]
 [  0.6        -39.52630557]
 [  0.7          6.61232929]
 [  0.8         76.37120083]
 [  0.9         72.14080556]
 [  1.          56.73337142]
 [  1.09391667 -44.63255829]]","[[0.         1.26251394]
 [0.1        1.60813214]
 [0.2        0.77910004]
 [0.3        1.66768461]
 [0.4        1.66631965]
 [0.5        0.96578831]
 [0.6        1.50022708]
 [0.7        0.80807106]
 [0.8        0.57035077]
 [0.9        0.35036103]
 [1.         0.39594805]
 [1.09391667 1.14540291]]",1,0.235
8730571689,f,19,english,5,3,english,2024-02-01 10:33:22.879057,False,2,276,sounds\english\audio/english_609.wav,"[[  0.          45.1693917 ]
 [  0.1        -72.3247495 ]
 [  0.2         18.68361548]
 [  0.3        -27.6682302 ]
 [  0.4          3.63671522]
 [  0.5         21.21340101]
 [  0.6         15.49381211]
 [  0.7          1.52669615]
 [  0.8         25.44993701]
 [  0.9        -58.9173922 ]
 [  1.           4.8985277 ]
 [  1.09391667 -19.12587244]]","[[0.         1.16218677]
 [0.1        1.56939275]
 [0.2        1.47980491]
 [0.3        1.03639669]
 [0.4        0.81396394]
 [0.5        1.33770591]
 [0.6        1.85408959]
 [0.7        0.1270649 ]
 [0.8        0.72088093]
 [0.9        1.10933741]
 [1.         0.9989657 ]
 [1.09391667 1.15972192]]",0,0.092
8730571689,f,19,english,5,3,english,2024-02-01 10:33:22.879057,False,2,277,sounds\english\audio/english_780.wav,"[[  0.         -87.5022813 ]
 [  0.1         48.02010378]
 [  0.2         83.84572734]
 [  0.3          9.25847543]
 [  0.4         49.97347861]
 [  0.5        -60.69242488]
 [  0.6        -21.82497806]
 [  0.7         13.87798501]
 [  0.8         32.41479889]
 [  0.9         54.1006632 ]
 [  1.         -56.48325956]
 [  1.09391667  96.27244158]]","[[0.         1.98466869]
 [0.1        1.54311759]
 [0.2        0.61016867]
 [0.3        1.29361746]
 [0.4        0.77747475]
 [0.5        1.18422754]
 [0.6        0.82850866]
 [0.7        0.60760734]
 [0.8        0.87727466]
 [0.9        1.39371886]
 [1.         1.23252422]
 [1.09391667 0.39725777]]",1,0.402
8730571689,f,19,english,5,3,english,2024-02-01 10:33:22.879057,False,2,278,sounds\english\audio/english_339.wav,"[[  0.          60.63219511]
 [  0.1        -12.18568345]
 [  0.2         23.58983997]
 [  0.3        -59.19633042]
 [  0.4        -43.20945626]
 [  0.5        -32.55639825]
 [  0.6         -3.49407884]
 [  0.7         91.66463762]
 [  0.8        -80.14131412]
 [  0.9         86.26968254]
 [  1.         -20.69851377]
 [  1.09391667 -11.06601383]]","[[0.         0.54338949]
 [0.1        0.21495144]
 [0.2        0.44775719]
 [0.3        1.56952392]
 [0.4        0.76217709]
 [0.5        1.99954478]
 [0.6        0.09545273]
 [0.7        1.65140919]
 [0.8        1.37862303]
 [0.9        1.5118574 ]
 [1.         0.21342111]
 [1.09391667 1.19470184]]",1,0.429
8730571689,f,19,english,5,3,english,2024-02-01 10:33:22.879057,False,2,279,sounds\english\audio/english_689.wav,"[[  0.          83.12133252]
 [  0.1        -80.97372196]
 [  0.2        -28.26528551]
 [  0.3         42.6688421 ]
 [  0.4          6.31951717]
 [  0.5         65.13167849]
 [  0.6        -21.58547915]
 [  0.7        -38.42350837]
 [  0.8         72.27336224]
 [  0.9        -22.08116071]
 [  1.          -2.34337227]
 [  1.09391667  32.05995553]]","[[0.         1.04214093]
 [0.1        0.40468985]
 [0.2        1.50877389]
 [0.3        1.67206734]
 [0.4        1.24892229]
 [0.5        0.38767445]
 [0.6        1.45702475]
 [0.7        0.16690889]
 [0.8        1.13554192]
 [0.9        0.21927817]
 [1.         0.41094591]
 [1.09391667 0.34398042]]",0,0.638
8730571689,f,19,english,5,3,english,2024-02-01 10:33:22.879057,False,2,280,sounds\english\audio/english_129.wav,"[[  0.         -44.56015923]
 [  0.1        -58.7339049 ]
 [  0.2          4.64427176]
 [  0.3         36.13533526]
 [  0.4         49.60525777]
 [  0.5         66.06381969]
 [  0.6        -22.87129592]
 [  0.7         88.56170171]
 [  0.8         17.84118116]
 [  0.9        -28.77319114]
 [  1.          86.03376827]
 [  1.09391667  39.56098905]]","[[0.         0.4294496 ]
 [0.1        1.17691203]
 [0.2        0.00792795]
 [0.3        1.62066926]
 [0.4        0.46131477]
 [0.5        0.9562515 ]
 [0.6        0.58790942]
 [0.7        0.99020247]
 [0.8        0.9945804 ]
 [0.9        1.36695424]
 [1.         0.72564016]
 [1.09391667 1.15202696]]",1,0.98
8730571689,f,19,english,5,3,english,2024-02-01 10:33:22.879057,False,2,281,sounds\english\audio/english_321.wav,"[[  0.         -77.41334575]
 [  0.1        -61.98635838]
 [  0.2         63.85195092]
 [  0.3         29.6904451 ]
 [  0.4        -43.5045078 ]
 [  0.5         62.57170592]
 [  0.6         28.41559033]
 [  0.7         57.20206106]
 [  0.8         21.76754783]
 [  0.9        -93.37290208]
 [  1.         -66.78585721]
 [  1.09391667  79.62121497]]","[[0.         1.30726178]
 [0.1        0.09021545]
 [0.2        1.50183321]
 [0.3        0.65065228]
 [0.4        1.45081069]
 [0.5        1.7661601 ]
 [0.6        0.98052074]
 [0.7        1.50508218]
 [0.8        1.92892589]
 [0.9        0.5132303 ]
 [1.         1.33865757]
 [1.09391667 0.23870746]]",0,0.361
8730571689,f,19,english,5,3,english,2024-02-01 10:33:22.879057,False,2,282,sounds\english\audio/english_632.wav,"[[  0.          54.27416022]
 [  0.1         37.10784124]
 [  0.2        -11.42343802]
 [  0.3         83.07683271]
 [  0.4        -41.86230003]
 [  0.5        -65.18909296]
 [  0.6         73.88921211]
 [  0.7        -78.27421644]
 [  0.8        -55.91875918]
 [  0.9         38.52779866]
 [  1.         -63.00995407]
 [  1.09391667 -47.01105768]]","[[0.         0.37224575]
 [0.1        1.19176423]
 [0.2        1.11602641]
 [0.3        0.86319718]
 [0.4        1.45181299]
 [0.5        0.00810665]
 [0.6        1.82551729]
 [0.7        0.97441054]
 [0.8        1.38456518]
 [0.9        1.39025004]
 [1.         0.73323837]
 [1.09391667 1.12337895]]",1,1.932
8730571689,f,19,english,5,3,english,2024-02-01 10:33:22.879057,False,2,283,sounds\english\audio/english_378.wav,"[[  0.          -6.75592408]
 [  0.1        -33.28558439]
 [  0.2        -96.71642688]
 [  0.3         70.45646645]
 [  0.4         20.01443052]
 [  0.5        -69.62604827]
 [  0.6        -82.6103386 ]
 [  0.7        -53.90394432]
 [  0.8         75.60526061]
 [  0.9        -65.71007404]
 [  1.         -82.95728524]
 [  1.09391667  40.19708488]]","[[0.         1.57446733]
 [0.1        0.29285803]
 [0.2        0.09494473]
 [0.3        0.09114875]
 [0.4        0.12099564]
 [0.5        0.06996617]
 [0.6        0.89001983]
 [0.7        1.80047075]
 [0.8        1.92282567]
 [0.9        0.07000512]
 [1.         0.51793223]
 [1.09391667 1.33854892]]",0,1.426
8730571689,f,19,english,5,3,english,2024-02-01 10:33:22.879057,False,2,284,sounds\english\audio/english_514.wav,"[[  0.         -59.82766829]
 [  0.1         -4.54284015]
 [  0.2         75.12688257]
 [  0.3         52.77263543]
 [  0.4        -86.38859223]
 [  0.5         22.0573972 ]
 [  0.6        -81.94223644]
 [  0.7         33.46090425]
 [  0.8         10.59703074]
 [  0.9         74.40481447]
 [  1.          35.18551728]
 [  1.09391667 -52.88743611]]","[[0.         1.35471226]
 [0.1        0.81191054]
 [0.2        1.30120799]
 [0.3        1.91982738]
 [0.4        1.85775535]
 [0.5        0.92799532]
 [0.6        0.39882237]
 [0.7        1.85696096]
 [0.8        0.26578536]
 [0.9        1.80594265]
 [1.         0.66929464]
 [1.09391667 1.62933111]]",1,0.409
8730571689,f,19,english,5,3,english,2024-02-01 10:33:22.879057,False,2,285,sounds\english\audio/english_924.wav,"[[  0.         -34.16359775]
 [  0.1         95.89868764]
 [  0.2         -7.67474925]
 [  0.3        -21.77911834]
 [  0.4         31.17946122]
 [  0.5          0.48616436]
 [  0.6         56.04156449]
 [  0.7         79.12331334]
 [  0.8         58.34446187]
 [  0.9         51.02751352]
 [  1.          59.10490512]
 [  1.09391667  60.06487251]]","[[0.         0.79366522]
 [0.1        0.73795008]
 [0.2        0.39139015]
 [0.3        0.47707552]
 [0.4        0.09637783]
 [0.5        1.58696559]
 [0.6        1.87427133]
 [0.7        0.57578157]
 [0.8        1.11639403]
 [0.9        1.98577552]
 [1.         0.22580189]
 [1.09391667 1.66820152]]",0,0.112
8730571689,f,19,english,5,3,english,2024-02-01 10:33:22.879057,False,2,286,sounds\english\audio/english_913.wav,"[[  0.         -12.70990623]
 [  0.1        -17.89686071]
 [  0.2         58.24027697]
 [  0.3         71.96751717]
 [  0.4         22.83880081]
 [  0.5         74.23310268]
 [  0.6         23.98451607]
 [  0.7        -29.568704  ]
 [  0.8         19.11592867]
 [  0.9         54.77477233]
 [  1.           9.76021826]
 [  1.09391667 -30.35128441]]","[[0.         1.14486928]
 [0.1        0.94187729]
 [0.2        0.43978781]
 [0.3        0.86816184]
 [0.4        0.47286583]
 [0.5        0.4719667 ]
 [0.6        1.54190919]
 [0.7        1.67539159]
 [0.8        1.16448364]
 [0.9        1.68418537]
 [1.         1.91621277]
 [1.09391667 1.40243908]]",0,0.583
8730571689,f,19,english,5,3,english,2024-02-01 10:33:22.879057,False,2,287,sounds\english\audio/english_903.wav,"[[  0.          74.40610552]
 [  0.1        -14.0058198 ]
 [  0.2        -43.18870249]
 [  0.3         85.51038869]
 [  0.4          8.36930428]
 [  0.5        -11.10468326]
 [  0.6          0.77760872]
 [  0.7         61.82804998]
 [  0.8        -21.718638  ]
 [  0.9        -41.58529941]
 [  1.          22.99211782]
 [  1.09391667 -96.82772328]]","[[0.         1.10397813]
 [0.1        0.67044391]
 [0.2        1.06331023]
 [0.3        0.60586728]
 [0.4        0.11380816]
 [0.5        1.21530961]
 [0.6        1.48658081]
 [0.7        1.41412243]
 [0.8        0.93606202]
 [0.9        0.40038549]
 [1.         0.6748387 ]
 [1.09391667 0.72929926]]",1,0.173
8730571689,f,19,english,5,3,english,2024-02-01 10:33:22.879057,False,2,288,sounds\english\audio/english_617.wav,"[[  0.          10.93227953]
 [  0.1        -59.2478864 ]
 [  0.2        -60.98157443]
 [  0.3        -98.20098641]
 [  0.4        -27.56878422]
 [  0.5        -16.62879698]
 [  0.6        -85.18504197]
 [  0.7         65.935133  ]
 [  0.8        -49.35852621]
 [  0.9        -79.82823856]
 [  1.         -43.72382152]
 [  1.09391667 -81.76136352]]","[[0.         0.72387338]
 [0.1        1.78831672]
 [0.2        0.6179467 ]
 [0.3        0.63320585]
 [0.4        0.42531965]
 [0.5        1.05036122]
 [0.6        1.22550457]
 [0.7        0.87185678]
 [0.8        1.19822477]
 [0.9        0.11933649]
 [1.         1.37889257]
 [1.09391667 0.25359551]]",0,0.233
8730571689,f,19,english,5,3,english,2024-02-01 10:33:22.879057,False,2,289,sounds\english\audio/english_610.wav,"[[  0.         -92.84300711]
 [  0.1         84.93303095]
 [  0.2         80.17137486]
 [  0.3        -20.18134966]
 [  0.4        -20.20363531]
 [  0.5        -69.79247274]
 [  0.6         33.10957698]
 [  0.7        -20.50322303]
 [  0.8        -72.05825618]
 [  0.9          1.26743028]
 [  1.          17.12915034]
 [  1.09391667  64.76618694]]","[[0.         0.87509592]
 [0.1        1.15799642]
 [0.2        0.35067597]
 [0.3        0.73569606]
 [0.4        1.23116766]
 [0.5        0.29684789]
 [0.6        0.98948574]
 [0.7        0.76787478]
 [0.8        0.48117832]
 [0.9        0.47321928]
 [1.         0.17126553]
 [1.09391667 1.04318183]]",1,0.215
8730571689,f,19,english,5,3,english,2024-02-01 10:33:22.879057,False,2,290,sounds\english\audio/english_257.wav,"[[  0.          40.54895098]
 [  0.1         40.15801064]
 [  0.2        -24.20266722]
 [  0.3         -7.17661388]
 [  0.4        -28.64234321]
 [  0.5         21.61308764]
 [  0.6         53.78152607]
 [  0.7          7.01627137]
 [  0.8         35.40837973]
 [  0.9        -20.07672714]
 [  1.          -5.14564183]
 [  1.09391667 -39.03797323]]","[[0.         0.78978042]
 [0.1        1.47705853]
 [0.2        0.45256837]
 [0.3        1.62604433]
 [0.4        1.35763463]
 [0.5        0.40071863]
 [0.6        1.66804391]
 [0.7        0.9369016 ]
 [0.8        1.28942555]
 [0.9        0.91090345]
 [1.         1.13070963]
 [1.09391667 1.90359161]]",0,0.385
8730571689,f,19,english,5,3,english,2024-02-01 10:33:22.879057,False,2,291,sounds\english\audio/english_311.wav,"[[  0.          64.66080996]
 [  0.1        -69.02575999]
 [  0.2        -67.68739859]
 [  0.3         44.13725608]
 [  0.4         93.17105676]
 [  0.5         84.82973528]
 [  0.6        -34.91706274]
 [  0.7        -93.26420788]
 [  0.8         78.86658017]
 [  0.9        -56.88823021]
 [  1.          16.33779759]
 [  1.09391667  54.14062415]]","[[0.         0.82460416]
 [0.1        0.36483522]
 [0.2        0.7494254 ]
 [0.3        0.5130867 ]
 [0.4        0.37208425]
 [0.5        1.19695655]
 [0.6        0.97358849]
 [0.7        1.42777336]
 [0.8        1.14684196]
 [0.9        0.88829321]
 [1.         0.74783525]
 [1.09391667 1.42501308]]",1,0.549
8730571689,f,19,english,5,3,english,2024-02-01 10:33:22.879057,False,2,292,sounds\english\audio/english_135.wav,"[[  0.           1.52771956]
 [  0.1         87.85930758]
 [  0.2         10.69232429]
 [  0.3        -30.56293348]
 [  0.4         18.68768105]
 [  0.5         83.74749446]
 [  0.6          2.30267465]
 [  0.7         10.55624665]
 [  0.8        -52.17497639]
 [  0.9         63.1552018 ]
 [  1.          32.56027872]
 [  1.09391667  49.01841871]]","[[0.         1.05574256]
 [0.1        0.07400982]
 [0.2        1.27555025]
 [0.3        1.65548466]
 [0.4        0.65488565]
 [0.5        1.6850938 ]
 [0.6        0.17916719]
 [0.7        0.7091252 ]
 [0.8        1.14424326]
 [0.9        0.08021557]
 [1.         1.28558373]
 [1.09391667 0.80254185]]",1,1.405
8730571689,f,19,english,5,3,english,2024-02-01 10:33:22.879057,False,2,293,sounds\english\audio/english_865.wav,"[[  0.          86.1163895 ]
 [  0.1         69.95513589]
 [  0.2        -13.94671811]
 [  0.3        -33.10342907]
 [  0.4        -76.59504937]
 [  0.5         -3.51899048]
 [  0.6         30.42015795]
 [  0.7        -55.73707392]
 [  0.8         54.32986928]
 [  0.9        -94.25719672]
 [  1.          52.44088275]
 [  1.09391667 -37.34958779]]","[[0.         0.19420048]
 [0.1        1.46581666]
 [0.2        1.09876795]
 [0.3        0.83580859]
 [0.4        0.7375784 ]
 [0.5        1.73720254]
 [0.6        0.47612768]
 [0.7        0.34287239]
 [0.8        1.39046848]
 [0.9        0.32361365]
 [1.         0.4960331 ]
 [1.09391667 0.90913699]]",0,0.258
8730571689,f,19,english,5,3,english,2024-02-01 10:33:22.879057,False,2,294,sounds\english\audio/english_715.wav,"[[  0.          78.22774345]
 [  0.1        -96.8523275 ]
 [  0.2        -34.50555451]
 [  0.3        -68.33010748]
 [  0.4          1.3176975 ]
 [  0.5        -22.85405384]
 [  0.6         31.97819163]
 [  0.7        -68.8879522 ]
 [  0.8        -81.63258435]
 [  0.9         27.36842189]
 [  1.         -14.86787672]
 [  1.09391667 -20.30845266]]","[[0.         0.75991229]
 [0.1        0.99773413]
 [0.2        0.56874377]
 [0.3        0.94740887]
 [0.4        0.15689837]
 [0.5        0.63882757]
 [0.6        1.98432361]
 [0.7        1.01055426]
 [0.8        1.54899678]
 [0.9        1.56798589]
 [1.         0.94191973]
 [1.09391667 1.60145533]]",1,1.288
8730571689,f,19,english,5,3,english,2024-02-01 10:33:22.879057,False,2,295,sounds\english\audio/english_392.wav,"[[  0.         -70.59184809]
 [  0.1         20.01491038]
 [  0.2         95.98809517]
 [  0.3         21.94648666]
 [  0.4         71.03226698]
 [  0.5        -27.3636698 ]
 [  0.6         41.54107295]
 [  0.7         55.82041059]
 [  0.8        -12.2991889 ]
 [  0.9        -43.37866007]
 [  1.         -72.71846832]
 [  1.09391667  17.46673253]]","[[0.         1.01325522]
 [0.1        0.99685804]
 [0.2        1.2085184 ]
 [0.3        0.87362666]
 [0.4        0.83196355]
 [0.5        1.3261039 ]
 [0.6        0.73205001]
 [0.7        1.07805115]
 [0.8        0.81193203]
 [0.9        0.58657928]
 [1.         1.75756764]
 [1.09391667 0.10018242]]",1,2.105
8730571689,f,19,english,5,3,english,2024-02-01 10:33:22.879057,False,2,296,sounds\english\audio/english_556.wav,"[[  0.         -68.09670747]
 [  0.1          8.96692918]
 [  0.2        -46.83531772]
 [  0.3        -87.32202155]
 [  0.4         49.65406328]
 [  0.5         92.65716025]
 [  0.6        -17.76161657]
 [  0.7        -85.77085821]
 [  0.8        -31.44799715]
 [  0.9        -32.59755967]
 [  1.         -96.2091504 ]
 [  1.09391667  -0.57982779]]","[[0.         1.3485974 ]
 [0.1        0.84698507]
 [0.2        0.06218337]
 [0.3        0.66181265]
 [0.4        1.9600464 ]
 [0.5        0.67849191]
 [0.6        0.9118753 ]
 [0.7        0.73811047]
 [0.8        0.91861979]
 [0.9        1.18816365]
 [1.         1.86623217]
 [1.09391667 0.61760757]]",1,1.285
8730571689,f,19,english,5,3,english,2024-02-01 10:33:22.879057,False,2,297,sounds\english\audio/english_746.wav,"[[  0.         -17.85129661]
 [  0.1         44.49284576]
 [  0.2        -28.07602373]
 [  0.3         80.79649727]
 [  0.4        -35.87476706]
 [  0.5        -13.61927607]
 [  0.6        -13.45090469]
 [  0.7         74.7415388 ]
 [  0.8        -73.80839868]
 [  0.9         16.67710805]
 [  1.          90.26780737]
 [  1.09391667 -18.98803571]]","[[0.         0.72236584]
 [0.1        1.69903141]
 [0.2        1.83658278]
 [0.3        0.38437005]
 [0.4        0.19777168]
 [0.5        0.81094496]
 [0.6        0.04159101]
 [0.7        0.34194607]
 [0.8        1.34456722]
 [0.9        0.32922526]
 [1.         0.60956501]
 [1.09391667 1.98648295]]",1,2.395
8730571689,f,19,english,5,3,english,2024-02-01 10:33:22.879057,False,2,298,sounds\english\audio/english_610.wav,"[[  0.         -92.84300711]
 [  0.1         84.93303095]
 [  0.2         80.17137486]
 [  0.3        -20.18134966]
 [  0.4        -20.20363531]
 [  0.5        -69.79247274]
 [  0.6         33.10957698]
 [  0.7        -20.50322303]
 [  0.8        -72.05825618]
 [  0.9          1.26743028]
 [  1.          17.12915034]
 [  1.09391667  64.76618694]]","[[0.         0.87509592]
 [0.1        1.15799642]
 [0.2        0.35067597]
 [0.3        0.73569606]
 [0.4        1.23116766]
 [0.5        0.29684789]
 [0.6        0.98948574]
 [0.7        0.76787478]
 [0.8        0.48117832]
 [0.9        0.47321928]
 [1.         0.17126553]
 [1.09391667 1.04318183]]",1,1.26
8730571689,f,19,english,5,3,english,2024-02-01 10:33:22.879057,False,2,299,sounds\english\audio/english_148.wav,"[[  0.          85.27624152]
 [  0.1         58.23579672]
 [  0.2        -91.05033604]
 [  0.3         20.11396141]
 [  0.4         75.44798514]
 [  0.5        -38.94488744]
 [  0.6        -29.81274231]
 [  0.7         75.45743384]
 [  0.8        -13.70216327]
 [  0.9        -90.12623186]
 [  1.         -27.22744176]
 [  1.09391667   7.28951287]]","[[0.         0.1092145 ]
 [0.1        0.64980633]
 [0.2        1.83346208]
 [0.3        1.16314863]
 [0.4        0.3185648 ]
 [0.5        0.6593156 ]
 [0.6        1.16710518]
 [0.7        1.07936895]
 [0.8        0.75554181]
 [0.9        1.33604039]
 [1.         1.61217721]
 [1.09391667 1.20550087]]",0,0.645
8730571689,f,19,english,5,3,english,2024-02-01 10:33:22.879057,False,2,300,sounds\english\audio/english_514.wav,"[[  0.         -59.82766829]
 [  0.1         -4.54284015]
 [  0.2         75.12688257]
 [  0.3         52.77263543]
 [  0.4        -86.38859223]
 [  0.5         22.0573972 ]
 [  0.6        -81.94223644]
 [  0.7         33.46090425]
 [  0.8         10.59703074]
 [  0.9         74.40481447]
 [  1.          35.18551728]
 [  1.09391667 -52.88743611]]","[[0.         1.35471226]
 [0.1        0.81191054]
 [0.2        1.30120799]
 [0.3        1.91982738]
 [0.4        1.85775535]
 [0.5        0.92799532]
 [0.6        0.39882237]
 [0.7        1.85696096]
 [0.8        0.26578536]
 [0.9        1.80594265]
 [1.         0.66929464]
 [1.09391667 1.62933111]]",1,0.45
8730571689,f,19,english,5,3,english,2024-02-01 10:33:22.879057,False,2,301,sounds\english\audio/english_697.wav,"[[  0.         -28.25272972]
 [  0.1          9.35350144]
 [  0.2         -7.31902563]
 [  0.3        -28.05711443]
 [  0.4        -24.84079268]
 [  0.5        -11.64681016]
 [  0.6        -31.01161183]
 [  0.7          8.33198828]
 [  0.8          2.96881997]
 [  0.9          1.22757185]
 [  1.          14.4901502 ]
 [  1.09391667 -93.23839425]]","[[0.         0.74562658]
 [0.1        1.65036421]
 [0.2        0.51352458]
 [0.3        1.22091514]
 [0.4        0.19652908]
 [0.5        1.30348786]
 [0.6        0.73369273]
 [0.7        1.45670074]
 [0.8        0.3217924 ]
 [0.9        0.26155094]
 [1.         1.78541804]
 [1.09391667 0.76602212]]",0,0.113
8730571689,f,19,english,5,3,english,2024-02-01 10:33:22.879057,False,2,302,sounds\english\audio/english_174.wav,"[[  0.          -1.27352161]
 [  0.1        -67.76486912]
 [  0.2         38.59821356]
 [  0.3        -68.30936474]
 [  0.4        -90.24428589]
 [  0.5        -78.84758788]
 [  0.6         82.67516556]
 [  0.7         27.65744762]
 [  0.8         82.5621195 ]
 [  0.9         22.03109017]
 [  1.          97.22651297]
 [  1.09391667   6.30116613]]","[[0.         1.81219165]
 [0.1        0.77028854]
 [0.2        0.44136445]
 [0.3        1.01129338]
 [0.4        0.76518489]
 [0.5        1.51905633]
 [0.6        0.9260744 ]
 [0.7        1.48661059]
 [0.8        0.13101211]
 [0.9        0.66605082]
 [1.         0.90549752]
 [1.09391667 1.52579229]]",1,0.874
8730571689,f,19,english,5,3,english,2024-02-01 10:33:22.879057,False,2,303,sounds\english\audio/english_332.wav,"[[  0.          53.78872747]
 [  0.1        -31.30231847]
 [  0.2        -95.20758858]
 [  0.3        -77.87616394]
 [  0.4          4.48979234]
 [  0.5        -76.42784497]
 [  0.6          6.07718634]
 [  0.7        -41.20247157]
 [  0.8        -17.3481238 ]
 [  0.9        -17.17913846]
 [  1.          18.70166714]
 [  1.09391667  50.68092334]]","[[0.         0.07590352]
 [0.1        0.7087577 ]
 [0.2        1.45218303]
 [0.3        0.80997209]
 [0.4        1.75678136]
 [0.5        1.99645024]
 [0.6        1.82588157]
 [0.7        0.2120908 ]
 [0.8        0.72760948]
 [0.9        0.31892552]
 [1.         0.40752537]
 [1.09391667 0.76645959]]",0,0.216
8730571689,f,19,english,5,3,english,2024-02-01 10:33:22.879057,False,2,304,sounds\english\audio/english_614.wav,"[[  0.         -82.48035623]
 [  0.1         79.46307131]
 [  0.2        -34.63501936]
 [  0.3        -36.11573217]
 [  0.4         28.60715933]
 [  0.5        -48.6136036 ]
 [  0.6         -7.2226969 ]
 [  0.7        -29.94263831]
 [  0.8        -84.37614436]
 [  0.9          6.08502503]
 [  1.          89.45930015]
 [  1.09391667 -99.05808014]]","[[0.         0.71590115]
 [0.1        0.88553055]
 [0.2        0.6127243 ]
 [0.3        1.30048752]
 [0.4        0.96267967]
 [0.5        0.63406811]
 [0.6        1.30483529]
 [0.7        0.38784821]
 [0.8        0.63559187]
 [0.9        0.26922563]
 [1.         0.19525475]
 [1.09391667 1.74947328]]",1,0.114
8730571689,f,19,english,5,3,english,2024-02-01 10:33:22.879057,False,2,305,sounds\english\audio/english_199.wav,"[[  0.          11.88199512]
 [  0.1        -46.96504702]
 [  0.2         91.54002169]
 [  0.3         99.89394598]
 [  0.4        -50.70673656]
 [  0.5          3.76891672]
 [  0.6         96.91424304]
 [  0.7         -8.03082423]
 [  0.8         10.21194857]
 [  0.9         73.92851664]
 [  1.          29.02383929]
 [  1.09391667 -91.13840346]]","[[0.         1.7718025 ]
 [0.1        0.76735149]
 [0.2        1.87614546]
 [0.3        1.34343154]
 [0.4        1.06602126]
 [0.5        0.62776747]
 [0.6        1.16622983]
 [0.7        0.99062008]
 [0.8        0.73939337]
 [0.9        0.60539997]
 [1.         1.28070052]
 [1.09391667 0.2785568 ]]",0,0.142
8730571689,f,19,english,5,3,english,2024-02-01 10:33:22.879057,False,2,306,sounds\english\audio/english_57.wav,"[[  0.          69.92924321]
 [  0.1         50.83595835]
 [  0.2         72.89041726]
 [  0.3        -25.50577281]
 [  0.4        -12.89341009]
 [  0.5        -24.95937253]
 [  0.6         64.68704807]
 [  0.7         26.76917617]
 [  0.8        -85.40894658]
 [  0.9        -86.04927125]
 [  1.          86.88641586]
 [  1.09391667 -99.07725694]]","[[0.         1.37399784]
 [0.1        1.30125162]
 [0.2        0.76532722]
 [0.3        0.08256356]
 [0.4        1.10396563]
 [0.5        1.0000289 ]
 [0.6        0.6504756 ]
 [0.7        1.09615913]
 [0.8        0.70411597]
 [0.9        0.54802277]
 [1.         1.43991022]
 [1.09391667 1.41890007]]",1,0.58
8730571689,f,19,english,5,3,english,2024-02-01 10:33:22.879057,False,2,307,sounds\english\audio/english_286.wav,"[[  0.           0.49465201]
 [  0.1         64.40982078]
 [  0.2        -93.96239431]
 [  0.3         54.29050788]
 [  0.4        -73.71749202]
 [  0.5        -94.88438502]
 [  0.6         49.75760882]
 [  0.7        -11.70467758]
 [  0.8        -44.05163422]
 [  0.9         34.33178767]
 [  1.         -45.07278599]
 [  1.09391667  -7.38383513]]","[[0.         1.96185882]
 [0.1        1.76039517]
 [0.2        1.34043253]
 [0.3        0.77251354]
 [0.4        0.68573738]
 [0.5        1.47035372]
 [0.6        1.55594088]
 [0.7        0.26425441]
 [0.8        0.00260426]
 [0.9        0.41622396]
 [1.         1.49433758]
 [1.09391667 1.90052724]]",1,1.067
8730571689,f,19,english,5,3,english,2024-02-01 10:33:22.879057,False,2,308,sounds\english\audio/english_434.wav,"[[  0.          50.47761392]
 [  0.1        -33.38487677]
 [  0.2         -6.35895817]
 [  0.3         58.81206484]
 [  0.4          2.00815972]
 [  0.5        -28.96305016]
 [  0.6        -44.65800209]
 [  0.7         -3.89112712]
 [  0.8        -49.09619099]
 [  0.9        -79.81092904]
 [  1.          72.91556136]
 [  1.09391667  -8.48383865]]","[[0.         1.72511711]
 [0.1        0.67409863]
 [0.2        0.85225266]
 [0.3        1.03084546]
 [0.4        0.30841411]
 [0.5        0.11116274]
 [0.6        0.82038961]
 [0.7        1.79901884]
 [0.8        1.01461121]
 [0.9        1.16161114]
 [1.         1.34038877]
 [1.09391667 1.19926856]]",0,0.565
8730571689,f,19,english,5,3,english,2024-02-01 10:33:22.879057,False,2,309,sounds\english\audio/english_918.wav,"[[  0.           7.81141633]
 [  0.1         82.72316881]
 [  0.2         30.05807571]
 [  0.3        -70.58941721]
 [  0.4        -65.52419577]
 [  0.5         -8.01629029]
 [  0.6         16.78163005]
 [  0.7         72.93916831]
 [  0.8         -2.28760557]
 [  0.9        -18.70975913]
 [  1.           1.09551631]
 [  1.09391667  -2.64797824]]","[[0.         1.24491342]
 [0.1        0.03757961]
 [0.2        1.14238595]
 [0.3        0.04886902]
 [0.4        0.89349405]
 [0.5        0.46427507]
 [0.6        1.22953669]
 [0.7        1.878364  ]
 [0.8        0.42759123]
 [0.9        0.20519841]
 [1.         1.09007735]
 [1.09391667 0.32770208]]",1,0.124
8730571689,f,19,english,5,3,english,2024-02-01 10:33:22.879057,False,2,310,sounds\english\audio/english_427.wav,"[[  0.         -34.05157895]
 [  0.1         58.19153473]
 [  0.2        -48.12257975]
 [  0.3         49.89061623]
 [  0.4         34.36154687]
 [  0.5         -5.3172375 ]
 [  0.6         22.96924358]
 [  0.7        -97.31174849]
 [  0.8        -28.90224272]
 [  0.9        -26.24845885]
 [  1.          92.28378811]
 [  1.09391667 -48.38945182]]","[[0.         1.0004529 ]
 [0.1        1.21096565]
 [0.2        0.11590133]
 [0.3        1.91629618]
 [0.4        1.2268838 ]
 [0.5        1.50953507]
 [0.6        0.88661312]
 [0.7        0.11078335]
 [0.8        0.79636785]
 [0.9        0.27345116]
 [1.         0.14785478]
 [1.09391667 0.43629002]]",0,0.396
8730571689,f,19,english,5,3,english,2024-02-01 10:33:22.879057,False,2,311,sounds\english\audio/english_63.wav,"[[  0.          48.80645604]
 [  0.1          3.74871088]
 [  0.2         36.66338235]
 [  0.3          0.45158548]
 [  0.4        -34.50897998]
 [  0.5         21.44979621]
 [  0.6        -13.42489637]
 [  0.7          3.18187359]
 [  0.8        -14.80243304]
 [  0.9         76.25105629]
 [  1.         -29.02472721]
 [  1.09391667 -75.42163707]]","[[0.         0.56207448]
 [0.1        0.93485315]
 [0.2        1.21075073]
 [0.3        1.91331277]
 [0.4        0.52750999]
 [0.5        1.42707635]
 [0.6        1.96742567]
 [0.7        1.57355325]
 [0.8        0.94386171]
 [0.9        0.6095205 ]
 [1.         0.97846037]
 [1.09391667 1.94412545]]",1,0.691
8730571689,f,19,english,5,3,english,2024-02-01 10:33:22.879057,False,2,312,sounds\english\audio/english_664.wav,"[[  0.          87.83799753]
 [  0.1         93.07880912]
 [  0.2        -21.43792859]
 [  0.3         54.61607152]
 [  0.4         63.53186125]
 [  0.5         69.57332079]
 [  0.6        -98.283012  ]
 [  0.7          3.96514961]
 [  0.8        -68.49765079]
 [  0.9         22.71561052]
 [  1.          62.92065682]
 [  1.09391667   7.64063367]]","[[0.         0.80622544]
 [0.1        0.71131531]
 [0.2        0.52490717]
 [0.3        0.79105774]
 [0.4        0.74894626]
 [0.5        0.96341942]
 [0.6        0.12490453]
 [0.7        1.772086  ]
 [0.8        1.2138043 ]
 [0.9        1.03968333]
 [1.         1.01702127]
 [1.09391667 1.88905221]]",0,0.673
8730571689,f,19,english,5,3,english,2024-02-01 10:33:22.879057,False,2,313,sounds\english\audio/english_637.wav,"[[  0.         -89.57602713]
 [  0.1        -12.21163012]
 [  0.2         45.69375155]
 [  0.3         47.44411802]
 [  0.4        -64.39909361]
 [  0.5         38.07531124]
 [  0.6        -37.11559242]
 [  0.7         61.76350432]
 [  0.8         87.30183414]
 [  0.9         42.92339498]
 [  1.          99.17764885]
 [  1.09391667  27.2352495 ]]","[[0.         1.01899078]
 [0.1        0.44650383]
 [0.2        0.86051042]
 [0.3        0.62803932]
 [0.4        0.05404575]
 [0.5        0.80477493]
 [0.6        0.4743624 ]
 [0.7        1.24039456]
 [0.8        0.77622698]
 [0.9        1.15579273]
 [1.         1.67569325]
 [1.09391667 0.37956578]]",1,0.442
8730571689,f,19,english,5,3,english,2024-02-01 10:33:22.879057,False,2,314,sounds\english\audio/english_217.wav,"[[  0.          49.03427647]
 [  0.1         55.51339481]
 [  0.2          8.85342812]
 [  0.3         38.54994366]
 [  0.4         -2.70833959]
 [  0.5         70.3938548 ]
 [  0.6          5.12480722]
 [  0.7        -74.03796069]
 [  0.8        -33.3486243 ]
 [  0.9        -40.28599149]
 [  1.          19.2288181 ]
 [  1.09391667  28.27107092]]","[[0.         0.32664973]
 [0.1        1.39032489]
 [0.2        0.17335256]
 [0.3        0.12434027]
 [0.4        1.97912601]
 [0.5        0.49508024]
 [0.6        1.41080808]
 [0.7        0.59237566]
 [0.8        0.51007366]
 [0.9        0.60232464]
 [1.         0.62471618]
 [1.09391667 0.07651966]]",0,0.451
8730571689,f,19,english,5,3,english,2024-02-01 10:33:22.879057,False,2,315,sounds\english\audio/english_711.wav,"[[  0.           5.56697991]
 [  0.1        -24.51973587]
 [  0.2         14.74252879]
 [  0.3         62.90835999]
 [  0.4        -30.148836  ]
 [  0.5        -90.0367138 ]
 [  0.6         23.29272454]
 [  0.7         51.00007107]
 [  0.8         -5.61877019]
 [  0.9          4.00444287]
 [  1.          81.75034051]
 [  1.09391667 -78.99678836]]","[[0.         1.20296493]
 [0.1        1.05892315]
 [0.2        0.52339911]
 [0.3        1.255633  ]
 [0.4        1.66876465]
 [0.5        0.2337908 ]
 [0.6        0.4494252 ]
 [0.7        1.6594433 ]
 [0.8        1.49925628]
 [0.9        1.73015634]
 [1.         1.46308192]
 [1.09391667 1.6603821 ]]",1,0.091
8730571689,f,19,english,5,3,english,2024-02-01 10:33:22.879057,False,2,316,sounds\english\audio/english_706.wav,"[[  0.         -18.59828841]
 [  0.1         17.62467533]
 [  0.2        -32.04245358]
 [  0.3        -59.68997275]
 [  0.4        -88.86740026]
 [  0.5         20.33601639]
 [  0.6         88.8364898 ]
 [  0.7        -63.14338412]
 [  0.8        -30.16182588]
 [  0.9         58.36718538]
 [  1.         -51.79248442]
 [  1.09391667 -57.45505408]]","[[0.         1.29674848]
 [0.1        1.04037111]
 [0.2        0.06692701]
 [0.3        0.01228106]
 [0.4        1.17857321]
 [0.5        0.64258097]
 [0.6        0.45138919]
 [0.7        0.65752297]
 [0.8        0.08455698]
 [0.9        1.13304912]
 [1.         1.89686489]
 [1.09391667 1.14298605]]",0,0.166
8730571689,f,19,english,5,3,english,2024-02-01 10:33:22.879057,False,2,317,sounds\english\audio/english_839.wav,"[[  0.          25.22327534]
 [  0.1         65.97179868]
 [  0.2         36.46298268]
 [  0.3          0.36789595]
 [  0.4         37.25543056]
 [  0.5         13.61304399]
 [  0.6         40.85367399]
 [  0.7         92.87994107]
 [  0.8         40.19777361]
 [  0.9        -27.70209944]
 [  1.         -75.44304357]
 [  1.09391667  15.82899147]]","[[0.         0.79021115]
 [0.1        1.36275453]
 [0.2        0.56940252]
 [0.3        1.38606336]
 [0.4        1.49876521]
 [0.5        1.33513266]
 [0.6        0.34922841]
 [0.7        1.58402098]
 [0.8        0.73275133]
 [0.9        1.05467816]
 [1.         1.81419779]
 [1.09391667 1.89560881]]",0,0.027
8730571689,f,19,english,5,3,english,2024-02-01 10:33:22.879057,False,2,318,sounds\english\audio/english_914.wav,"[[  0.          38.978205  ]
 [  0.1         87.18341185]
 [  0.2         15.47005822]
 [  0.3         29.25641776]
 [  0.4        -96.55134364]
 [  0.5        -89.29155074]
 [  0.6        -61.94858481]
 [  0.7        -73.41037345]
 [  0.8        -99.30720203]
 [  0.9         81.02685233]
 [  1.         -61.71265148]
 [  1.09391667 -35.17076378]]","[[0.         0.35912604]
 [0.1        1.3669236 ]
 [0.2        0.84210071]
 [0.3        0.05134094]
 [0.4        1.13395744]
 [0.5        0.79197201]
 [0.6        0.91379793]
 [0.7        1.19795288]
 [0.8        1.39899474]
 [0.9        0.56128817]
 [1.         1.38071697]
 [1.09391667 1.53641314]]",1,0.281
8730571689,f,19,english,5,3,english,2024-02-01 10:33:22.879057,False,2,319,sounds\english\audio/english_94.wav,"[[  0.         -69.13613192]
 [  0.1        -53.91573564]
 [  0.2         88.54569891]
 [  0.3         47.91558238]
 [  0.4         46.13883045]
 [  0.5          0.71209955]
 [  0.6         53.89774049]
 [  0.7         37.22112319]
 [  0.8          8.13348347]
 [  0.9        -10.35793642]
 [  1.          75.25647247]
 [  1.09391667 -70.34686187]]","[[0.         0.71683615]
 [0.1        1.64130178]
 [0.2        1.41561382]
 [0.3        0.72478091]
 [0.4        1.21480875]
 [0.5        0.13058063]
 [0.6        1.07607775]
 [0.7        0.10112022]
 [0.8        0.91343474]
 [0.9        0.77751528]
 [1.         0.57088528]
 [1.09391667 0.98841109]]",0,0.232
8730571689,f,19,english,5,3,english,2024-02-01 10:33:22.879057,False,2,320,sounds\english\audio/english_523.wav,"[[  0.         -25.97539799]
 [  0.1        -25.11108095]
 [  0.2        -67.4070828 ]
 [  0.3         14.34055957]
 [  0.4         10.27536217]
 [  0.5          2.68899624]
 [  0.6          5.43637058]
 [  0.7         84.96836729]
 [  0.8          0.15377924]
 [  0.9        -34.21093103]
 [  1.         -94.05275706]
 [  1.09391667 -75.26058007]]","[[0.         0.34449626]
 [0.1        0.18549089]
 [0.2        1.10257375]
 [0.3        0.39893493]
 [0.4        1.8821087 ]
 [0.5        1.33802983]
 [0.6        1.93381979]
 [0.7        1.3963609 ]
 [0.8        0.58447079]
 [0.9        0.41716989]
 [1.         1.25827867]
 [1.09391667 0.83944497]]",1,0.259
8730571689,f,19,english,5,3,english,2024-02-01 10:33:22.879057,False,2,321,sounds\english\audio/english_711.wav,"[[  0.           5.56697991]
 [  0.1        -24.51973587]
 [  0.2         14.74252879]
 [  0.3         62.90835999]
 [  0.4        -30.148836  ]
 [  0.5        -90.0367138 ]
 [  0.6         23.29272454]
 [  0.7         51.00007107]
 [  0.8         -5.61877019]
 [  0.9          4.00444287]
 [  1.          81.75034051]
 [  1.09391667 -78.99678836]]","[[0.         1.20296493]
 [0.1        1.05892315]
 [0.2        0.52339911]
 [0.3        1.255633  ]
 [0.4        1.66876465]
 [0.5        0.2337908 ]
 [0.6        0.4494252 ]
 [0.7        1.6594433 ]
 [0.8        1.49925628]
 [0.9        1.73015634]
 [1.         1.46308192]
 [1.09391667 1.6603821 ]]",0,0.687
8730571689,f,19,english,5,3,english,2024-02-01 10:33:22.879057,False,2,322,sounds\english\audio/english_603.wav,"[[  0.         -92.82127988]
 [  0.1        -10.8879853 ]
 [  0.2         87.07339117]
 [  0.3         94.16233181]
 [  0.4         41.70993127]
 [  0.5         -9.49662532]
 [  0.6          0.93436069]
 [  0.7        -31.16965002]
 [  0.8         22.515306  ]
 [  0.9         39.07324   ]
 [  1.         -34.19262646]
 [  1.09391667   7.30050377]]","[[0.         0.46202599]
 [0.1        0.04069155]
 [0.2        0.53206278]
 [0.3        1.44505889]
 [0.4        1.73804989]
 [0.5        0.79060569]
 [0.6        1.79017292]
 [0.7        1.60375186]
 [0.8        1.61763715]
 [0.9        1.44528026]
 [1.         0.82648617]
 [1.09391667 1.94101738]]",1,0.743
8730571689,f,19,english,5,3,english,2024-02-01 10:33:22.879057,False,2,323,sounds\english\audio/english_109.wav,"[[  0.         -85.35755776]
 [  0.1         24.87794389]
 [  0.2         88.66282845]
 [  0.3         53.91159302]
 [  0.4         -2.76092074]
 [  0.5         79.99538148]
 [  0.6        -42.31150981]
 [  0.7         -5.15781481]
 [  0.8         31.3978044 ]
 [  0.9         46.94636463]
 [  1.          63.69340257]
 [  1.09391667  10.97812261]]","[[0.         0.86429356]
 [0.1        1.54320329]
 [0.2        0.73186937]
 [0.3        0.759779  ]
 [0.4        1.4946261 ]
 [0.5        1.48350308]
 [0.6        1.90894472]
 [0.7        0.02998442]
 [0.8        0.89047781]
 [0.9        1.05504638]
 [1.         0.96709735]
 [1.09391667 0.43676298]]",0,0.095
8730571689,f,19,english,5,3,english,2024-02-01 10:33:22.879057,False,2,324,sounds\english\audio/english_13.wav,"[[  0.          64.38962342]
 [  0.1        -51.8551163 ]
 [  0.2         -2.17663011]
 [  0.3         58.1527086 ]
 [  0.4        -46.96650895]
 [  0.5        -16.57361125]
 [  0.6         75.93348377]
 [  0.7         19.1912547 ]
 [  0.8        -13.17481254]
 [  0.9         82.06501342]
 [  1.          98.060651  ]
 [  1.09391667 -65.93265282]]","[[0.         1.00112645]
 [0.1        1.06925212]
 [0.2        1.94512736]
 [0.3        1.38458927]
 [0.4        1.28889459]
 [0.5        1.54024857]
 [0.6        1.09201657]
 [0.7        0.41927036]
 [0.8        0.35094068]
 [0.9        1.95646908]
 [1.         0.64409889]
 [1.09391667 0.45282126]]",1,0.034
8730571689,f,19,english,5,3,english,2024-02-01 10:33:22.879057,False,2,325,sounds\english\audio/english_592.wav,"[[  0.          30.98461306]
 [  0.1        -17.79187274]
 [  0.2         33.7453651 ]
 [  0.3        -15.93784107]
 [  0.4         36.34266121]
 [  0.5         -6.45881142]
 [  0.6         38.75009271]
 [  0.7        -18.69448539]
 [  0.8         10.99383987]
 [  0.9        -57.55307603]
 [  1.          68.46340248]
 [  1.09391667 -57.3554082 ]]","[[0.         1.65452317]
 [0.1        0.58176006]
 [0.2        0.51380187]
 [0.3        0.75142438]
 [0.4        1.13924678]
 [0.5        0.73835275]
 [0.6        0.33161747]
 [0.7        0.65193992]
 [0.8        1.64752508]
 [0.9        1.01941164]
 [1.         0.79462289]
 [1.09391667 1.32766904]]",0,0.063
8730571689,f,19,english,5,3,english,2024-02-01 10:33:22.879057,False,2,326,sounds\english\audio/english_146.wav,"[[  0.          56.30698685]
 [  0.1         33.76808102]
 [  0.2          7.3416935 ]
 [  0.3         54.00115317]
 [  0.4         60.50079064]
 [  0.5         93.58064811]
 [  0.6         16.38414301]
 [  0.7         53.45076847]
 [  0.8         57.56482396]
 [  0.9        -28.26782972]
 [  1.          79.66793606]
 [  1.09391667  23.81863578]]","[[0.         0.40218926]
 [0.1        1.30498568]
 [0.2        1.88518083]
 [0.3        0.73939723]
 [0.4        1.18416515]
 [0.5        0.74397262]
 [0.6        1.77833366]
 [0.7        0.98273851]
 [0.8        1.41119053]
 [0.9        0.90766435]
 [1.         0.33691203]
 [1.09391667 1.86488134]]",1,0.019
8730571689,f,19,english,5,3,english,2024-02-01 10:33:22.879057,False,2,327,sounds\english\audio/english_446.wav,"[[  0.         -71.72833513]
 [  0.1        -14.74031919]
 [  0.2        -21.83541147]
 [  0.3        -67.51881517]
 [  0.4        -91.38875442]
 [  0.5          6.74447183]
 [  0.6         26.61618155]
 [  0.7         72.29706337]
 [  0.8         58.26898218]
 [  0.9         30.44634512]
 [  1.         -17.84842899]
 [  1.09391667 -24.00080187]]","[[0.         0.37077237]
 [0.1        0.56990881]
 [0.2        1.59729725]
 [0.3        1.97035771]
 [0.4        0.52850963]
 [0.5        1.74112616]
 [0.6        0.02543003]
 [0.7        0.19739553]
 [0.8        0.10712319]
 [0.9        0.63352141]
 [1.         1.44239476]
 [1.09391667 0.76601062]]",1,0.664
8730571689,f,19,english,5,3,english,2024-02-01 10:33:22.879057,False,2,328,sounds\english\audio/english_371.wav,"[[  0.          99.9242386 ]
 [  0.1         22.83023049]
 [  0.2         91.55037371]
 [  0.3          5.76311401]
 [  0.4          4.70890445]
 [  0.5        -99.6762273 ]
 [  0.6        -44.58037386]
 [  0.7        -30.18832908]
 [  0.8         69.47065737]
 [  0.9        -91.54025657]
 [  1.          20.04839549]
 [  1.09391667  43.26134408]]","[[0.         0.39669775]
 [0.1        0.78709847]
 [0.2        1.18432294]
 [0.3        0.89768316]
 [0.4        0.28448655]
 [0.5        1.11635531]
 [0.6        0.70262912]
 [0.7        1.50477642]
 [0.8        1.93681172]
 [0.9        1.02826785]
 [1.         1.64700674]
 [1.09391667 0.44264614]]",0,0.124
8730571689,f,19,english,5,3,english,2024-02-01 10:33:22.879057,False,2,329,sounds\english\audio/english_939.wav,"[[  0.         -33.98482441]
 [  0.1        -89.17430955]
 [  0.2        -37.97345474]
 [  0.3         79.55409604]
 [  0.4         80.35845891]
 [  0.5         57.74967943]
 [  0.6         95.331824  ]
 [  0.7        -67.43467621]
 [  0.8         77.22109969]
 [  0.9        -97.02318178]
 [  1.         -34.43908678]
 [  1.09391667  23.56960938]]","[[0.         0.57866671]
 [0.1        0.900261  ]
 [0.2        1.71108651]
 [0.3        0.87209051]
 [0.4        1.24315258]
 [0.5        1.96157144]
 [0.6        0.09903489]
 [0.7        1.02492766]
 [0.8        0.39705746]
 [0.9        0.35581275]
 [1.         0.10216324]
 [1.09391667 1.85713461]]",0,0.898
8730571689,f,19,english,5,3,english,2024-02-01 10:33:22.879057,False,2,330,sounds\english\audio/english_989.wav,"[[  0.          82.98869891]
 [  0.1         24.01311559]
 [  0.2         71.48528654]
 [  0.3         82.44483013]
 [  0.4         98.48869079]
 [  0.5         52.58496553]
 [  0.6        -12.54848129]
 [  0.7        -85.91000404]
 [  0.8        -71.42298859]
 [  0.9         25.94025435]
 [  1.          87.85887099]
 [  1.09391667  -0.32541585]]","[[0.         0.1174877 ]
 [0.1        0.45178594]
 [0.2        1.23946025]
 [0.3        1.76656678]
 [0.4        0.06101367]
 [0.5        0.35631173]
 [0.6        0.41315994]
 [0.7        1.50303793]
 [0.8        0.56943281]
 [0.9        1.73902477]
 [1.         1.10677421]
 [1.09391667 1.65366883]]",1,0.262
8730571689,f,19,english,5,3,english,2024-02-01 10:33:22.879057,False,2,331,sounds\english\audio/english_570.wav,"[[  0.           4.27892196]
 [  0.1        -65.10560908]
 [  0.2        -46.49099881]
 [  0.3         92.02313014]
 [  0.4        -62.36360028]
 [  0.5         -5.7481882 ]
 [  0.6        -29.57103274]
 [  0.7        -12.57991884]
 [  0.8         -0.28533532]
 [  0.9         70.53696138]
 [  1.         -21.79274863]
 [  1.09391667  77.34028184]]","[[0.         1.38341141]
 [0.1        0.63616801]
 [0.2        0.88657916]
 [0.3        1.65534728]
 [0.4        0.58832985]
 [0.5        0.35954779]
 [0.6        0.83826919]
 [0.7        1.34190797]
 [0.8        0.71480272]
 [0.9        1.84273358]
 [1.         1.41836707]
 [1.09391667 1.74855227]]",0,0.133
8730571689,f,19,english,5,3,english,2024-02-01 10:33:22.879057,False,2,332,sounds\english\audio/english_873.wav,"[[  0.          -5.34184308]
 [  0.1         29.86705528]
 [  0.2        -53.62087934]
 [  0.3        -59.16709203]
 [  0.4         69.60141357]
 [  0.5        -44.07046907]
 [  0.6         55.781826  ]
 [  0.7        -40.21183655]
 [  0.8          9.01550121]
 [  0.9        -15.28098321]
 [  1.         -64.77079799]
 [  1.09391667  80.68199225]]","[[0.         0.18534223]
 [0.1        1.00948066]
 [0.2        0.93104213]
 [0.3        1.19025309]
 [0.4        1.48608178]
 [0.5        0.89447273]
 [0.6        0.18822797]
 [0.7        0.79732375]
 [0.8        0.51650354]
 [0.9        0.06272522]
 [1.         1.63736384]
 [1.09391667 1.95600343]]",0,1.547
8730571689,f,19,english,5,3,english,2024-02-01 10:33:22.879057,False,2,333,sounds\english\audio/english_56.wav,"[[  0.          94.56130546]
 [  0.1         98.82920217]
 [  0.2        -30.68243792]
 [  0.3        -48.75978293]
 [  0.4        -79.08505246]
 [  0.5         18.07000914]
 [  0.6         57.19590548]
 [  0.7          6.7178476 ]
 [  0.8        -59.05070955]
 [  0.9        -76.10802368]
 [  1.         -28.87948521]
 [  1.09391667   8.04938486]]","[[0.         1.78248544]
 [0.1        0.32774506]
 [0.2        0.4010142 ]
 [0.3        0.84475133]
 [0.4        1.07558594]
 [0.5        1.2644329 ]
 [0.6        1.63811398]
 [0.7        1.3488209 ]
 [0.8        0.73862335]
 [0.9        0.85331353]
 [1.         1.24951522]
 [1.09391667 0.68295905]]",1,0.741
8730571689,f,19,english,5,3,english,2024-02-01 10:33:22.879057,False,2,334,sounds\english\audio/english_135.wav,"[[  0.           1.52771956]
 [  0.1         87.85930758]
 [  0.2         10.69232429]
 [  0.3        -30.56293348]
 [  0.4         18.68768105]
 [  0.5         83.74749446]
 [  0.6          2.30267465]
 [  0.7         10.55624665]
 [  0.8        -52.17497639]
 [  0.9         63.1552018 ]
 [  1.          32.56027872]
 [  1.09391667  49.01841871]]","[[0.         1.05574256]
 [0.1        0.07400982]
 [0.2        1.27555025]
 [0.3        1.65548466]
 [0.4        0.65488565]
 [0.5        1.6850938 ]
 [0.6        0.17916719]
 [0.7        0.7091252 ]
 [0.8        1.14424326]
 [0.9        0.08021557]
 [1.         1.28558373]
 [1.09391667 0.80254185]]",0,0.222
8730571689,f,19,english,5,3,english,2024-02-01 10:33:22.879057,False,2,335,sounds\english\audio/english_234.wav,"[[  0.          71.25344855]
 [  0.1          2.51724238]
 [  0.2         11.96692617]
 [  0.3         64.81737023]
 [  0.4         73.84050439]
 [  0.5        -23.01072055]
 [  0.6        -44.95387086]
 [  0.7        -11.63871465]
 [  0.8         88.55977512]
 [  0.9         51.63791617]
 [  1.         -71.95139975]
 [  1.09391667 -75.67665254]]","[[0.         1.77024373]
 [0.1        1.93450941]
 [0.2        1.39397551]
 [0.3        1.38496922]
 [0.4        1.81820251]
 [0.5        1.61085564]
 [0.6        1.3729139 ]
 [0.7        1.59939785]
 [0.8        0.08431317]
 [0.9        1.41302364]
 [1.         1.44509252]
 [1.09391667 0.88259776]]",1,0.735
8730571689,f,19,english,5,3,english,2024-02-01 10:33:22.879057,False,2,336,sounds\english\audio/english_775.wav,"[[  0.         -31.43099856]
 [  0.1          8.65477654]
 [  0.2        -52.28282098]
 [  0.3         91.1008366 ]
 [  0.4         -9.23078544]
 [  0.5        -48.12825779]
 [  0.6         31.75901499]
 [  0.7         26.51097314]
 [  0.8         -0.94893242]
 [  0.9        -80.42410318]
 [  1.         -37.42269733]
 [  1.09391667 -30.31023423]]","[[0.         1.38428974]
 [0.1        1.381989  ]
 [0.2        0.85842321]
 [0.3        0.86053133]
 [0.4        0.18720345]
 [0.5        1.02834673]
 [0.6        0.26507894]
 [0.7        0.89767529]
 [0.8        1.04721154]
 [0.9        1.94213174]
 [1.         0.45384942]
 [1.09391667 1.30082565]]",0,0.063
8730571689,f,19,english,5,3,english,2024-02-01 10:33:22.879057,False,2,337,sounds\english\audio/english_890.wav,"[[  0.          31.44625075]
 [  0.1        -90.32825643]
 [  0.2        -64.7017166 ]
 [  0.3         15.62340259]
 [  0.4        -79.4752192 ]
 [  0.5         74.79009283]
 [  0.6        -57.91380652]
 [  0.7         92.43048613]
 [  0.8         -1.35432996]
 [  0.9         -1.4007117 ]
 [  1.         -22.8275935 ]
 [  1.09391667 -34.82288483]]","[[0.         1.15032127]
 [0.1        0.20043056]
 [0.2        0.4631213 ]
 [0.3        1.29891642]
 [0.4        0.6480645 ]
 [0.5        0.81505597]
 [0.6        1.23579114]
 [0.7        0.16251602]
 [0.8        0.74439657]
 [0.9        1.69626999]
 [1.         0.07593713]
 [1.09391667 0.22950927]]",1,1.021
8730571689,f,19,english,5,3,english,2024-02-01 10:33:22.879057,False,2,338,sounds\english\audio/english_35.wav,"[[ 0.00000000e+00 -3.32471352e+01]
 [ 1.00000000e-01 -5.69991421e+01]
 [ 2.00000000e-01 -5.31410250e+01]
 [ 3.00000000e-01 -9.74707920e+01]
 [ 4.00000000e-01  2.52422215e+01]
 [ 5.00000000e-01 -3.90524292e+01]
 [ 6.00000000e-01 -9.90462998e+01]
 [ 7.00000000e-01  4.80059539e+01]
 [ 8.00000000e-01  7.34220257e+01]
 [ 9.00000000e-01 -4.18143130e+01]
 [ 1.00000000e+00  4.06702180e-02]
 [ 1.09391667e+00  3.42858519e+01]]","[[0.         0.63198815]
 [0.1        0.43394686]
 [0.2        1.61809769]
 [0.3        0.75167401]
 [0.4        0.72143441]
 [0.5        1.49847169]
 [0.6        0.81761607]
 [0.7        1.11392086]
 [0.8        1.25690952]
 [0.9        1.7324837 ]
 [1.         0.64426718]
 [1.09391667 1.0286628 ]]",0,0.14
8730571689,f,19,english,5,3,english,2024-02-01 10:33:22.879057,False,2,339,sounds\english\audio/english_483.wav,"[[  0.          81.48477159]
 [  0.1        -89.60480044]
 [  0.2         34.01203533]
 [  0.3        -53.73578063]
 [  0.4         84.54249603]
 [  0.5        -37.49389681]
 [  0.6         15.30386948]
 [  0.7        -61.92265371]
 [  0.8         -8.76713856]
 [  0.9        -10.35003035]
 [  1.          30.44811047]
 [  1.09391667  58.404663  ]]","[[0.         0.74240463]
 [0.1        0.55858717]
 [0.2        0.25858635]
 [0.3        0.09361457]
 [0.4        1.33981299]
 [0.5        0.4736205 ]
 [0.6        0.19064795]
 [0.7        0.85022642]
 [0.8        0.89668703]
 [0.9        0.92354333]
 [1.         0.32093747]
 [1.09391667 0.85640019]]",0,0.61
8730571689,f,19,english,5,3,english,2024-02-01 10:33:22.879057,False,2,340,sounds\english\audio/english_755.wav,"[[  0.         -75.26385552]
 [  0.1        -77.54873454]
 [  0.2         13.4311812 ]
 [  0.3          7.92656706]
 [  0.4         43.04088715]
 [  0.5        -52.66329155]
 [  0.6         84.44946609]
 [  0.7         35.14899848]
 [  0.8        -13.90496644]
 [  0.9         10.2251388 ]
 [  1.         -36.70454503]
 [  1.09391667  11.3834831 ]]","[[0.         0.09689384]
 [0.1        0.88213328]
 [0.2        0.06512801]
 [0.3        1.12427914]
 [0.4        0.73534916]
 [0.5        0.96891313]
 [0.6        0.99997318]
 [0.7        1.2765527 ]
 [0.8        1.38017734]
 [0.9        1.18692736]
 [1.         0.69548573]
 [1.09391667 0.72968454]]",1,1.783
8730571689,f,19,english,5,3,english,2024-02-01 10:33:22.879057,False,2,341,sounds\english\audio/english_255.wav,"[[  0.          94.72265592]
 [  0.1          1.10845293]
 [  0.2         -1.90413972]
 [  0.3        -45.9655603 ]
 [  0.4         -6.89013944]
 [  0.5          3.45085104]
 [  0.6        -68.66949423]
 [  0.7        -22.56077648]
 [  0.8        -32.1394332 ]
 [  0.9         56.48595448]
 [  1.         -33.08950479]
 [  1.09391667  55.58931482]]","[[0.         1.19967406]
 [0.1        1.25035485]
 [0.2        1.85398204]
 [0.3        0.56259094]
 [0.4        1.07948955]
 [0.5        0.7328114 ]
 [0.6        0.49197221]
 [0.7        1.14850602]
 [0.8        1.46654584]
 [0.9        0.34163334]
 [1.         0.52219351]
 [1.09391667 1.18693331]]",0,0.151
8730571689,f,19,english,5,3,english,2024-02-01 10:33:22.879057,False,2,342,sounds\english\audio/english_10.wav,"[[  0.         -15.04153425]
 [  0.1        -57.22263716]
 [  0.2         27.92618044]
 [  0.3         25.5799778 ]
 [  0.4         30.11064479]
 [  0.5         -7.71764525]
 [  0.6         27.65902171]
 [  0.7        -47.57621095]
 [  0.8         43.99977355]
 [  0.9        -15.79441044]
 [  1.         -34.81966507]
 [  1.09391667  60.77971601]]","[[0.         1.52083452]
 [0.1        1.29896522]
 [0.2        0.38561389]
 [0.3        0.99686674]
 [0.4        0.6118482 ]
 [0.5        1.86037541]
 [0.6        0.71941397]
 [0.7        1.21671158]
 [0.8        1.36149686]
 [0.9        0.57839438]
 [1.         0.86495111]
 [1.09391667 0.19592518]]",1,0.249
8730571689,f,19,english,5,3,english,2024-02-01 10:33:22.879057,False,2,343,sounds\english\audio/english_398.wav,"[[  0.          58.43536872]
 [  0.1        -82.57908231]
 [  0.2         -3.40439415]
 [  0.3        -83.74176257]
 [  0.4         38.89596711]
 [  0.5         63.49142751]
 [  0.6         64.24765223]
 [  0.7         24.37031282]
 [  0.8         18.2651004 ]
 [  0.9         -3.768449  ]
 [  1.          55.48069175]
 [  1.09391667  -2.34176887]]","[[0.         0.19891774]
 [0.1        0.03529734]
 [0.2        1.69592316]
 [0.3        0.07086845]
 [0.4        0.77458748]
 [0.5        1.25980126]
 [0.6        1.54445807]
 [0.7        0.23015685]
 [0.8        0.80693823]
 [0.9        0.61010049]
 [1.         0.09811637]
 [1.09391667 1.22967895]]",0,0.184
8730571689,f,19,english,5,3,english,2024-02-01 10:33:22.879057,False,2,344,sounds\english\audio/english_384.wav,"[[  0.          25.59746769]
 [  0.1         77.10112132]
 [  0.2        -44.89854527]
 [  0.3        -92.39491606]
 [  0.4         -7.21963548]
 [  0.5        -12.57418593]
 [  0.6        -91.58210139]
 [  0.7        -83.16364251]
 [  0.8        -99.35642135]
 [  0.9         39.42669245]
 [  1.           2.14731946]
 [  1.09391667 -81.26968126]]","[[0.         0.31530466]
 [0.1        1.4723663 ]
 [0.2        0.76042634]
 [0.3        1.26765442]
 [0.4        0.4561299 ]
 [0.5        0.66006902]
 [0.6        0.52858229]
 [0.7        0.95307861]
 [0.8        1.25910316]
 [0.9        1.31614459]
 [1.         0.23757066]
 [1.09391667 1.34705459]]",1,0.126
8730571689,f,19,english,5,3,english,2024-02-01 10:33:22.879057,False,2,345,sounds\english\audio/english_305.wav,"[[  0.          17.49267602]
 [  0.1         17.59035292]
 [  0.2         83.12376417]
 [  0.3        -81.59474703]
 [  0.4        -99.63264863]
 [  0.5         42.69289025]
 [  0.6         82.55548118]
 [  0.7         15.87479687]
 [  0.8        -15.6323718 ]
 [  0.9         98.18396958]
 [  1.          52.83112054]
 [  1.09391667  33.63343534]]","[[0.         0.00977258]
 [0.1        1.17585195]
 [0.2        1.66932103]
 [0.3        0.83160233]
 [0.4        1.05024367]
 [0.5        1.13369845]
 [0.6        0.21867151]
 [0.7        0.32447169]
 [0.8        1.86350195]
 [0.9        0.82463705]
 [1.         0.94709308]
 [1.09391667 0.36254065]]",1,0.98
8730571689,f,19,english,5,3,english,2024-02-01 10:33:22.879057,False,2,346,sounds\english\audio/english_153.wav,"[[  0.         -22.0137653 ]
 [  0.1         21.87420495]
 [  0.2         78.88032694]
 [  0.3         68.02596654]
 [  0.4         52.06150723]
 [  0.5        -15.64198183]
 [  0.6        -55.92218577]
 [  0.7         45.74926524]
 [  0.8         13.43145428]
 [  0.9        -40.59369693]
 [  1.          14.2660924 ]
 [  1.09391667  62.05558257]]","[[0.         0.27160884]
 [0.1        0.44150389]
 [0.2        1.08191418]
 [0.3        0.18142841]
 [0.4        0.17455202]
 [0.5        1.88425449]
 [0.6        1.64687285]
 [0.7        1.52678411]
 [0.8        1.81629534]
 [0.9        0.8186826 ]
 [1.         0.36511419]
 [1.09391667 1.38161287]]",0,0.095
8730571689,f,19,english,5,3,english,2024-02-01 10:33:22.879057,False,2,347,sounds\english\audio/english_473.wav,"[[  0.          34.16652782]
 [  0.1        -54.30241254]
 [  0.2         68.49127604]
 [  0.3        -13.36842793]
 [  0.4         44.07944523]
 [  0.5        -89.72603501]
 [  0.6        -81.86028748]
 [  0.7        -91.3095106 ]
 [  0.8         98.81807411]
 [  0.9        -68.88676759]
 [  1.          72.77796498]
 [  1.09391667  55.96804174]]","[[0.         1.17233757]
 [0.1        0.18073836]
 [0.2        0.50191646]
 [0.3        1.67378041]
 [0.4        1.50905301]
 [0.5        0.15702334]
 [0.6        1.34472247]
 [0.7        1.62088857]
 [0.8        0.94454058]
 [0.9        0.56012654]
 [1.         0.62880925]
 [1.09391667 1.11353678]]",1,0.594
8730571689,f,19,english,5,3,english,2024-02-01 10:33:22.879057,False,2,348,sounds\english\audio/english_416.wav,"[[  0.          82.43182744]
 [  0.1         53.03166004]
 [  0.2         97.51798843]
 [  0.3         29.41957171]
 [  0.4        -25.73379092]
 [  0.5        -41.53228359]
 [  0.6        -18.26850451]
 [  0.7         36.25947798]
 [  0.8          3.82481386]
 [  0.9         51.45810025]
 [  1.           0.92473006]
 [  1.09391667  18.75162815]]","[[0.         0.48127721]
 [0.1        0.55506125]
 [0.2        1.10002465]
 [0.3        0.46187328]
 [0.4        1.80124094]
 [0.5        1.29733702]
 [0.6        0.88634114]
 [0.7        0.74571926]
 [0.8        0.12319745]
 [0.9        1.56017106]
 [1.         1.11470687]
 [1.09391667 1.36917422]]",1,0.542
8730571689,f,19,english,5,3,english,2024-02-01 10:33:22.879057,False,2,349,sounds\english\audio/english_444.wav,"[[  0.         -22.35255086]
 [  0.1        -38.39735659]
 [  0.2         81.84483339]
 [  0.3         89.66951187]
 [  0.4         78.72815519]
 [  0.5        -52.70100407]
 [  0.6        -16.77558941]
 [  0.7         74.67924026]
 [  0.8         58.06859333]
 [  0.9         62.1778936 ]
 [  1.         -11.97095728]
 [  1.09391667  61.96058284]]","[[0.         1.17037243]
 [0.1        0.80831945]
 [0.2        1.07936497]
 [0.3        1.80338122]
 [0.4        1.1980111 ]
 [0.5        1.57414757]
 [0.6        1.54546577]
 [0.7        0.86646901]
 [0.8        1.76340154]
 [0.9        1.16134605]
 [1.         0.83068954]
 [1.09391667 1.94365144]]",0,0.638
8730571689,f,19,english,5,3,english,2024-02-01 10:33:22.879057,False,2,350,sounds\english\audio/english_88.wav,"[[  0.         -71.9844785 ]
 [  0.1        -49.01939905]
 [  0.2         50.12381506]
 [  0.3        -84.58055822]
 [  0.4        -75.77840035]
 [  0.5        -24.7911267 ]
 [  0.6        -23.67428976]
 [  0.7        -54.46174988]
 [  0.8         17.41292988]
 [  0.9        -76.44908604]
 [  1.          -2.36913576]
 [  1.09391667 -39.62259758]]","[[0.         0.53660294]
 [0.1        1.47642874]
 [0.2        0.52511459]
 [0.3        1.50109779]
 [0.4        0.97976024]
 [0.5        0.85239994]
 [0.6        1.05191942]
 [0.7        0.4066024 ]
 [0.8        0.004424  ]
 [0.9        1.90836134]
 [1.         1.74184755]
 [1.09391667 0.66301055]]",1,0.337
8730571689,f,19,english,5,3,english,2024-02-01 10:33:22.879057,False,2,351,sounds\english\audio/english_7.wav,"[[  0.           6.20403874]
 [  0.1         37.19731147]
 [  0.2         49.31472848]
 [  0.3        -90.70180435]
 [  0.4         27.47473692]
 [  0.5         15.65561706]
 [  0.6         67.99861593]
 [  0.7         -2.80792886]
 [  0.8        -17.20995774]
 [  0.9         38.34852693]
 [  1.           6.34291962]
 [  1.09391667 -45.85734326]]","[[0.         1.30974385]
 [0.1        0.99661129]
 [0.2        1.03745865]
 [0.3        1.78258145]
 [0.4        0.46239098]
 [0.5        1.16284284]
 [0.6        0.54440065]
 [0.7        0.65589639]
 [0.8        0.81804206]
 [0.9        0.8839338 ]
 [1.         0.72265374]
 [1.09391667 0.75155419]]",0,0.06
8730571689,f,19,english,5,3,english,2024-02-01 10:33:22.879057,False,2,352,sounds\english\audio/english_103.wav,"[[  0.          48.6835233 ]
 [  0.1         36.55238137]
 [  0.2         48.06121709]
 [  0.3        -53.21418968]
 [  0.4        -84.49986715]
 [  0.5          2.274647  ]
 [  0.6         65.76169241]
 [  0.7        -54.56461338]
 [  0.8         -9.60778265]
 [  0.9         20.85441667]
 [  1.         -75.91935247]
 [  1.09391667 -89.16544197]]","[[0.         0.31659488]
 [0.1        0.91966706]
 [0.2        0.7088313 ]
 [0.3        0.61655079]
 [0.4        0.3504638 ]
 [0.5        0.15173733]
 [0.6        0.65986716]
 [0.7        1.01542857]
 [0.8        0.43719066]
 [0.9        1.38316606]
 [1.         1.2339212 ]
 [1.09391667 1.84830476]]",1,0.651
8730571689,f,19,english,5,3,english,2024-02-01 10:33:22.879057,False,2,353,sounds\english\audio/english_612.wav,"[[  0.         -32.56638412]
 [  0.1         49.8981081 ]
 [  0.2        -21.03155474]
 [  0.3        -51.85436973]
 [  0.4        -40.10971626]
 [  0.5         -9.29933233]
 [  0.6         53.77549864]
 [  0.7        -93.73306799]
 [  0.8         10.07222851]
 [  0.9         17.79731187]
 [  1.         -51.55835123]
 [  1.09391667 -22.80344529]]","[[0.         1.34102199]
 [0.1        0.75759379]
 [0.2        1.225333  ]
 [0.3        1.79972666]
 [0.4        0.82062061]
 [0.5        0.18015475]
 [0.6        0.28029793]
 [0.7        1.24302717]
 [0.8        1.83652713]
 [0.9        1.55098579]
 [1.         0.97719026]
 [1.09391667 0.39162915]]",1,1.083
8730571689,f,19,english,5,3,english,2024-02-01 10:33:22.879057,False,2,354,sounds\english\audio/english_417.wav,"[[  0.          29.37383655]
 [  0.1         23.19156398]
 [  0.2         85.81337763]
 [  0.3        -29.64908449]
 [  0.4          8.97904128]
 [  0.5         39.22706603]
 [  0.6         61.83715867]
 [  0.7        -85.41027475]
 [  0.8         73.95238576]
 [  0.9         27.80762862]
 [  1.         -27.42196196]
 [  1.09391667 -33.44848628]]","[[0.         1.92425936]
 [0.1        0.6229039 ]
 [0.2        1.36154183]
 [0.3        0.09031289]
 [0.4        0.90960709]
 [0.5        1.25920128]
 [0.6        1.48525242]
 [0.7        0.60232136]
 [0.8        0.50952592]
 [0.9        0.22145612]
 [1.         0.91644458]
 [1.09391667 1.07641807]]",0,0.164
8730571689,f,19,english,5,3,english,2024-02-01 10:33:22.879057,False,2,355,sounds\english\audio/english_860.wav,"[[  0.         -75.11512177]
 [  0.1        -76.73255409]
 [  0.2        -22.8093588 ]
 [  0.3         52.97738113]
 [  0.4        -48.45234216]
 [  0.5        -73.13735188]
 [  0.6        -46.97684059]
 [  0.7        -71.08749695]
 [  0.8         63.11648415]
 [  0.9         33.70639775]
 [  1.          39.70734852]
 [  1.09391667 -93.86026271]]","[[0.         0.5802678 ]
 [0.1        0.63510207]
 [0.2        1.68265606]
 [0.3        1.3480606 ]
 [0.4        1.82238625]
 [0.5        1.51063726]
 [0.6        1.0243353 ]
 [0.7        1.81300466]
 [0.8        1.10665048]
 [0.9        0.26575263]
 [1.         1.65404894]
 [1.09391667 1.66618104]]",0,0.127
8730571689,f,19,english,5,3,english,2024-02-01 10:33:22.879057,False,2,356,sounds\english\audio/english_466.wav,"[[  0.          29.78122055]
 [  0.1          1.00212309]
 [  0.2         84.88341441]
 [  0.3         18.0671926 ]
 [  0.4        -63.20091068]
 [  0.5         -1.15346207]
 [  0.6         -1.70645236]
 [  0.7         37.24590025]
 [  0.8        -40.92862731]
 [  0.9        -58.08317272]
 [  1.         -59.75718078]
 [  1.09391667  13.82760032]]","[[0.         0.08614047]
 [0.1        0.60651355]
 [0.2        0.95660543]
 [0.3        0.08485907]
 [0.4        0.78105645]
 [0.5        0.10730209]
 [0.6        1.7980607 ]
 [0.7        1.48241485]
 [0.8        0.1626415 ]
 [0.9        1.43527927]
 [1.         0.97707475]
 [1.09391667 1.6467926 ]]",1,0.754
8730571689,f,19,english,5,3,english,2024-02-01 10:33:22.879057,False,2,357,sounds\english\audio/english_655.wav,"[[  0.         -90.05217159]
 [  0.1        -51.53203878]
 [  0.2        -18.56413276]
 [  0.3        -32.31488117]
 [  0.4         49.43339315]
 [  0.5        -67.53322914]
 [  0.6         90.11454302]
 [  0.7         98.57977716]
 [  0.8         29.43352269]
 [  0.9         91.08820104]
 [  1.          -3.70059628]
 [  1.09391667  30.30784512]]","[[0.         1.15438405]
 [0.1        1.12188764]
 [0.2        0.95676367]
 [0.3        0.61420414]
 [0.4        0.76264188]
 [0.5        1.45400352]
 [0.6        0.06830652]
 [0.7        0.91955523]
 [0.8        0.33519017]
 [0.9        0.7797243 ]
 [1.         1.01878467]
 [1.09391667 1.55349389]]",0,0.117
8730571689,f,19,english,5,3,english,2024-02-01 10:33:22.879057,False,2,358,sounds\english\audio/english_641.wav,"[[  0.         -56.87244415]
 [  0.1        -25.32063716]
 [  0.2         -5.88353384]
 [  0.3         35.0793016 ]
 [  0.4        -54.26160262]
 [  0.5        -96.41482633]
 [  0.6         34.31473412]
 [  0.7         51.96003607]
 [  0.8        -33.45212271]
 [  0.9        -60.40755471]
 [  1.         -61.65050267]
 [  1.09391667 -31.34713696]]","[[0.         1.15062728]
 [0.1        1.3865292 ]
 [0.2        0.86586276]
 [0.3        0.52496071]
 [0.4        1.18035907]
 [0.5        0.99701793]
 [0.6        1.64172116]
 [0.7        0.67765657]
 [0.8        0.80691049]
 [0.9        0.17932902]
 [1.         0.69415745]
 [1.09391667 0.80800103]]",0,0.383
8730571689,f,19,english,5,3,english,2024-02-01 10:33:22.879057,False,2,359,sounds\english\audio/english_392.wav,"[[  0.         -70.59184809]
 [  0.1         20.01491038]
 [  0.2         95.98809517]
 [  0.3         21.94648666]
 [  0.4         71.03226698]
 [  0.5        -27.3636698 ]
 [  0.6         41.54107295]
 [  0.7         55.82041059]
 [  0.8        -12.2991889 ]
 [  0.9        -43.37866007]
 [  1.         -72.71846832]
 [  1.09391667  17.46673253]]","[[0.         1.01325522]
 [0.1        0.99685804]
 [0.2        1.2085184 ]
 [0.3        0.87362666]
 [0.4        0.83196355]
 [0.5        1.3261039 ]
 [0.6        0.73205001]
 [0.7        1.07805115]
 [0.8        0.81193203]
 [0.9        0.58657928]
 [1.         1.75756764]
 [1.09391667 0.10018242]]",1,0.085
8730571689,f,19,english,5,3,english,2024-02-01 10:33:22.879057,False,2,360,sounds\english\audio/english_267.wav,"[[  0.         -20.34373052]
 [  0.1         -8.01422086]
 [  0.2         93.04230665]
 [  0.3         41.74649662]
 [  0.4        -13.67169735]
 [  0.5         42.92753135]
 [  0.6        -31.66614436]
 [  0.7        -46.69110061]
 [  0.8         96.69640531]
 [  0.9        -51.1349073 ]
 [  1.         -31.48458059]
 [  1.09391667  82.51520959]]","[[0.         1.22339913]
 [0.1        0.37157124]
 [0.2        0.88881734]
 [0.3        0.98806935]
 [0.4        1.63374899]
 [0.5        1.27803897]
 [0.6        0.65843477]
 [0.7        1.12503577]
 [0.8        1.26069156]
 [0.9        0.35873403]
 [1.         1.24202174]
 [1.09391667 1.58881388]]",0,1.171
8730571689,f,19,english,5,3,english,2024-02-01 10:33:22.879057,False,2,361,sounds\english\audio/english_156.wav,"[[  0.          67.80241824]
 [  0.1         29.99846692]
 [  0.2        -57.62339124]
 [  0.3         87.84697028]
 [  0.4         85.25466999]
 [  0.5         21.68559313]
 [  0.6         25.36322325]
 [  0.7        -63.0463062 ]
 [  0.8         55.51522375]
 [  0.9         84.28688223]
 [  1.          75.12562412]
 [  1.09391667   1.86074779]]","[[0.         1.86846381]
 [0.1        0.17784513]
 [0.2        0.792312  ]
 [0.3        1.20922302]
 [0.4        1.15380481]
 [0.5        1.34214235]
 [0.6        0.12119946]
 [0.7        0.90660735]
 [0.8        0.02485499]
 [0.9        1.43158428]
 [1.         1.49951226]
 [1.09391667 1.07671063]]",1,1.118
8730571689,f,19,english,5,3,english,2024-02-01 10:33:22.879057,False,2,362,sounds\english\audio/english_121.wav,"[[  0.         -45.47404613]
 [  0.1        -36.49769978]
 [  0.2        -66.69646717]
 [  0.3         56.76733216]
 [  0.4        -69.2204817 ]
 [  0.5         67.71926704]
 [  0.6        -20.18031628]
 [  0.7        -46.80295657]
 [  0.8        -30.65691434]
 [  0.9        -30.96173959]
 [  1.          69.71514833]
 [  1.09391667  14.56946925]]","[[0.         1.1666534 ]
 [0.1        1.03435239]
 [0.2        1.07224248]
 [0.3        1.62337858]
 [0.4        1.13623118]
 [0.5        0.1634934 ]
 [0.6        1.38272259]
 [0.7        1.3454344 ]
 [0.8        1.73628045]
 [0.9        0.71303122]
 [1.         1.56011323]
 [1.09391667 0.62204911]]",0,0.874
8730571689,f,19,english,5,3,english,2024-02-01 10:33:22.879057,False,2,363,sounds\english\audio/english_4.wav,"[[  0.         -33.3305161 ]
 [  0.1        -23.37326796]
 [  0.2        -42.80660343]
 [  0.3        -85.97409915]
 [  0.4         51.28251826]
 [  0.5         20.44685701]
 [  0.6         23.55063394]
 [  0.7        -22.02944006]
 [  0.8         55.64002673]
 [  0.9         43.82412807]
 [  1.          96.09742447]
 [  1.09391667  94.89276626]]","[[0.         1.1805291 ]
 [0.1        0.77631495]
 [0.2        1.23796573]
 [0.3        0.59874379]
 [0.4        0.69643725]
 [0.5        0.26804311]
 [0.6        0.13974856]
 [0.7        0.25652729]
 [0.8        0.69877455]
 [0.9        0.73036563]
 [1.         1.13065304]
 [1.09391667 0.42036746]]",1,0.666
8730571689,f,19,english,5,3,english,2024-02-01 10:33:22.879057,False,2,364,sounds\english\audio/english_430.wav,"[[  0.         -88.95761908]
 [  0.1         39.34804897]
 [  0.2        -21.72599187]
 [  0.3        -97.97733292]
 [  0.4         98.23201219]
 [  0.5         92.79611353]
 [  0.6         44.81381594]
 [  0.7        -96.67681225]
 [  0.8         99.24041947]
 [  0.9         33.24344921]
 [  1.         -26.01349309]
 [  1.09391667 -84.24925862]]","[[0.         1.0411215 ]
 [0.1        1.73577333]
 [0.2        0.8754531 ]
 [0.3        0.18874451]
 [0.4        1.1142071 ]
 [0.5        0.3830467 ]
 [0.6        0.5347185 ]
 [0.7        0.4014233 ]
 [0.8        0.50454446]
 [0.9        0.88496249]
 [1.         1.71251412]
 [1.09391667 1.92006939]]",1,0.668
8730571689,f,19,english,5,3,english,2024-02-01 10:33:22.879057,False,2,365,sounds\english\audio/english_800.wav,"[[  0.          35.31456444]
 [  0.1         32.41521545]
 [  0.2        -54.21409297]
 [  0.3        -42.78782363]
 [  0.4         54.56880631]
 [  0.5        -47.76201321]
 [  0.6         21.101395  ]
 [  0.7        -85.00905452]
 [  0.8         89.73188045]
 [  0.9         58.36158131]
 [  1.          82.86297317]
 [  1.09391667  50.19485525]]","[[0.         1.69516606]
 [0.1        0.23308544]
 [0.2        0.95659058]
 [0.3        1.51885901]
 [0.4        1.37866605]
 [0.5        0.13843314]
 [0.6        0.69869138]
 [0.7        1.55469424]
 [0.8        1.19022687]
 [0.9        1.40913395]
 [1.         1.54823015]
 [1.09391667 1.45235784]]",0,0.028
8730571689,f,19,english,5,3,english,2024-02-01 10:33:22.879057,False,2,366,sounds\english\audio/english_943.wav,"[[  0.          79.5890822 ]
 [  0.1         78.55264714]
 [  0.2         44.19658383]
 [  0.3        -16.14605168]
 [  0.4         46.84349784]
 [  0.5         67.29364224]
 [  0.6         62.75940247]
 [  0.7        -42.13911475]
 [  0.8        -19.02728939]
 [  0.9        -16.03900615]
 [  1.          15.22888591]
 [  1.09391667  60.70409514]]","[[0.         1.20824936]
 [0.1        0.88116928]
 [0.2        1.0423498 ]
 [0.3        1.30491636]
 [0.4        1.23781924]
 [0.5        1.19542323]
 [0.6        1.00041218]
 [0.7        1.18889719]
 [0.8        0.17654831]
 [0.9        0.65298118]
 [1.         0.96725626]
 [1.09391667 1.67455333]]",1,0.131
8730571689,f,19,english,5,3,english,2024-02-01 10:33:22.879057,False,2,367,sounds\english\audio/english_788.wav,"[[  0.          17.89309058]
 [  0.1         71.29743237]
 [  0.2        -58.86773575]
 [  0.3        -79.26718247]
 [  0.4         35.72874859]
 [  0.5        -14.77309026]
 [  0.6        -78.45807111]
 [  0.7         40.66379457]
 [  0.8         51.99524397]
 [  0.9         23.30304068]
 [  1.          87.05916465]
 [  1.09391667 -42.18000877]]","[[0.         1.04861509]
 [0.1        1.67595733]
 [0.2        0.86315506]
 [0.3        0.41984481]
 [0.4        0.95404094]
 [0.5        0.45544588]
 [0.6        0.07788433]
 [0.7        0.7267532 ]
 [0.8        1.61048189]
 [0.9        1.83471325]
 [1.         1.60214946]
 [1.09391667 1.51632908]]",0,0.049
8730571689,f,19,english,5,3,english,2024-02-01 10:33:22.879057,False,2,368,sounds\english\audio/english_262.wav,"[[  0.          40.3969452 ]
 [  0.1         24.92470984]
 [  0.2        -23.52143828]
 [  0.3          3.42411393]
 [  0.4        -47.82145477]
 [  0.5         70.56302105]
 [  0.6         -9.7222436 ]
 [  0.7         20.72301517]
 [  0.8        -49.74845029]
 [  0.9         21.4766741 ]
 [  1.         -48.95430403]
 [  1.09391667  46.16285525]]","[[0.         0.57919627]
 [0.1        1.22854993]
 [0.2        1.84489284]
 [0.3        1.27929622]
 [0.4        1.21414946]
 [0.5        1.94766948]
 [0.6        1.55288945]
 [0.7        0.57688166]
 [0.8        1.86265407]
 [0.9        1.3850481 ]
 [1.         1.65814683]
 [1.09391667 0.28622245]]",1,0.152
8730571689,f,19,english,5,3,english,2024-02-01 10:33:22.879057,False,2,369,sounds\english\audio/english_932.wav,"[[  0.          38.23438928]
 [  0.1        -58.10377529]
 [  0.2         91.68709635]
 [  0.3         43.08352003]
 [  0.4         89.28150272]
 [  0.5        -32.82905254]
 [  0.6        -27.89856156]
 [  0.7        -15.6368176 ]
 [  0.8        -47.50450916]
 [  0.9        -85.48225369]
 [  1.          26.29289849]
 [  1.09391667 -34.49542083]]","[[0.         1.12401337]
 [0.1        0.61932379]
 [0.2        1.42631679]
 [0.3        1.23008562]
 [0.4        1.74074376]
 [0.5        0.41912443]
 [0.6        1.78556309]
 [0.7        0.72255464]
 [0.8        1.47985237]
 [0.9        1.29316662]
 [1.         1.31994778]
 [1.09391667 1.97700851]]",0,0.101
8730571689,f,19,english,5,3,english,2024-02-01 10:33:22.879057,False,2,370,sounds\english\audio/english_694.wav,"[[  0.          28.89643962]
 [  0.1        -44.49941165]
 [  0.2         60.6754056 ]
 [  0.3         72.66869222]
 [  0.4         26.91102981]
 [  0.5        -19.36398165]
 [  0.6         83.61982614]
 [  0.7        -93.83830037]
 [  0.8        -41.75440855]
 [  0.9        -17.17525064]
 [  1.           5.88397372]
 [  1.09391667  84.29938157]]","[[0.         0.23097519]
 [0.1        1.12594213]
 [0.2        1.01502789]
 [0.3        0.55545347]
 [0.4        0.313515  ]
 [0.5        0.8133174 ]
 [0.6        0.08479119]
 [0.7        1.36590055]
 [0.8        1.50882856]
 [0.9        1.54263899]
 [1.         1.28663395]
 [1.09391667 0.05122723]]",0,0.59
8730571689,f,19,english,5,3,english,2024-02-01 10:33:22.879057,False,2,371,sounds\english\audio/english_593.wav,"[[  0.          13.70313969]
 [  0.1        -26.02533881]
 [  0.2         50.8702686 ]
 [  0.3         26.063803  ]
 [  0.4        -79.95092445]
 [  0.5        -94.01020979]
 [  0.6        -33.71882566]
 [  0.7        -16.71092424]
 [  0.8        -31.84366891]
 [  0.9        -64.24810633]
 [  1.          73.5130108 ]
 [  1.09391667   1.16296444]]","[[0.         0.31776168]
 [0.1        1.39381701]
 [0.2        0.5191281 ]
 [0.3        0.69401342]
 [0.4        0.71717885]
 [0.5        0.74327862]
 [0.6        1.75165486]
 [0.7        0.78541269]
 [0.8        0.5067154 ]
 [0.9        1.19882101]
 [1.         0.30708851]
 [1.09391667 1.70447125]]",1,2.562
8730571689,f,19,english,5,3,english,2024-02-01 10:33:22.879057,False,2,372,sounds\english\audio/english_152.wav,"[[  0.         -10.34550429]
 [  0.1        -43.66558153]
 [  0.2         56.2217474 ]
 [  0.3        -27.44048298]
 [  0.4         17.92439762]
 [  0.5         82.51468432]
 [  0.6          8.54715681]
 [  0.7        -94.9804546 ]
 [  0.8         43.42849193]
 [  0.9          1.5194414 ]
 [  1.          20.77451489]
 [  1.09391667  95.7342738 ]]","[[0.         1.84986994]
 [0.1        0.90615496]
 [0.2        0.59286193]
 [0.3        0.85505555]
 [0.4        0.56649727]
 [0.5        0.6043893 ]
 [0.6        1.72413787]
 [0.7        0.10144569]
 [0.8        1.50321153]
 [0.9        0.78421076]
 [1.         1.65129885]
 [1.09391667 1.8248214 ]]",0,1.638
8730571689,f,19,english,5,3,english,2024-02-01 10:33:22.879057,False,2,373,sounds\english\audio/english_755.wav,"[[  0.         -75.26385552]
 [  0.1        -77.54873454]
 [  0.2         13.4311812 ]
 [  0.3          7.92656706]
 [  0.4         43.04088715]
 [  0.5        -52.66329155]
 [  0.6         84.44946609]
 [  0.7         35.14899848]
 [  0.8        -13.90496644]
 [  0.9         10.2251388 ]
 [  1.         -36.70454503]
 [  1.09391667  11.3834831 ]]","[[0.         0.09689384]
 [0.1        0.88213328]
 [0.2        0.06512801]
 [0.3        1.12427914]
 [0.4        0.73534916]
 [0.5        0.96891313]
 [0.6        0.99997318]
 [0.7        1.2765527 ]
 [0.8        1.38017734]
 [0.9        1.18692736]
 [1.         0.69548573]
 [1.09391667 0.72968454]]",1,0.488
8730571689,f,19,english,5,3,english,2024-02-01 10:33:22.879057,False,2,374,sounds\english\audio/english_130.wav,"[[  0.          63.22786083]
 [  0.1         87.85722404]
 [  0.2        -11.67996756]
 [  0.3        -61.23287213]
 [  0.4         31.74111168]
 [  0.5         33.84141617]
 [  0.6         19.96692936]
 [  0.7        -37.06015238]
 [  0.8         53.30817693]
 [  0.9         56.319569  ]
 [  1.          38.79278484]
 [  1.09391667  -4.91911249]]","[[0.         1.15410046]
 [0.1        0.37024368]
 [0.2        1.81334   ]
 [0.3        1.04249546]
 [0.4        0.8243923 ]
 [0.5        1.89113742]
 [0.6        0.69337223]
 [0.7        1.01307283]
 [0.8        0.67908163]
 [0.9        0.07541053]
 [1.         1.95325555]
 [1.09391667 0.98387982]]",1,1.189
8730571689,f,19,english,5,3,english,2024-02-01 10:33:22.879057,False,2,375,sounds\english\audio/english_781.wav,"[[  0.          13.49860993]
 [  0.1         78.16193023]
 [  0.2         43.40540276]
 [  0.3         44.39381188]
 [  0.4          1.19618008]
 [  0.5         97.39796145]
 [  0.6        -80.74515196]
 [  0.7         24.03355654]
 [  0.8        -69.35175607]
 [  0.9         69.20236756]
 [  1.          35.51398516]
 [  1.09391667 -53.23346631]]","[[0.         0.0422445 ]
 [0.1        0.76912714]
 [0.2        1.16484067]
 [0.3        0.51341231]
 [0.4        0.61057315]
 [0.5        1.22595164]
 [0.6        0.0959771 ]
 [0.7        0.86869214]
 [0.8        1.17997392]
 [0.9        1.93834455]
 [1.         0.60620459]
 [1.09391667 1.46133915]]",0,0.609
8730571689,f,19,english,5,3,english,2024-02-01 10:33:22.879057,False,2,376,sounds\english\audio/english_630.wav,"[[  0.          78.75492265]
 [  0.1        -83.58930578]
 [  0.2        -79.71821409]
 [  0.3        -40.02519871]
 [  0.4         28.39164799]
 [  0.5        -22.91010751]
 [  0.6         66.99878234]
 [  0.7        -67.03907611]
 [  0.8        -31.68288064]
 [  0.9        -92.36791787]
 [  1.         -47.34450832]
 [  1.09391667 -92.12755103]]","[[0.         1.14018337]
 [0.1        0.42247423]
 [0.2        1.15399078]
 [0.3        1.63118088]
 [0.4        0.60995737]
 [0.5        1.14933658]
 [0.6        1.58053618]
 [0.7        1.44408005]
 [0.8        0.22921488]
 [0.9        1.99244959]
 [1.         1.8016164 ]
 [1.09391667 1.49248838]]",0,0.815
8730571689,f,19,english,5,3,english,2024-02-01 10:33:22.879057,False,2,377,sounds\english\audio/english_385.wav,"[[  0.           0.33828369]
 [  0.1          2.41058867]
 [  0.2        -12.54892467]
 [  0.3        -41.7912056 ]
 [  0.4        -44.49264688]
 [  0.5          0.14407831]
 [  0.6        -25.57843431]
 [  0.7        -39.2816597 ]
 [  0.8        -88.59516391]
 [  0.9        -28.05531573]
 [  1.         -37.07272381]
 [  1.09391667 -61.44238802]]","[[0.         0.38016584]
 [0.1        1.8714009 ]
 [0.2        0.45382881]
 [0.3        1.31398474]
 [0.4        1.04402362]
 [0.5        0.57870544]
 [0.6        1.74841786]
 [0.7        1.62984391]
 [0.8        0.16451748]
 [0.9        0.80459877]
 [1.         0.03974207]
 [1.09391667 1.20121467]]",1,0.305
8730571689,f,19,english,5,3,english,2024-02-01 10:33:22.879057,False,2,378,sounds\english\audio/english_411.wav,"[[  0.         -19.70973195]
 [  0.1         35.06337641]
 [  0.2        -47.07660398]
 [  0.3        -98.68669902]
 [  0.4          2.91607837]
 [  0.5         -8.99732851]
 [  0.6         57.60803457]
 [  0.7          1.53142899]
 [  0.8        -32.18919875]
 [  0.9        -92.02235415]
 [  1.          33.72578798]
 [  1.09391667  81.16053662]]","[[0.         0.11468893]
 [0.1        1.30305137]
 [0.2        1.23342094]
 [0.3        0.59067951]
 [0.4        0.74798004]
 [0.5        0.55407034]
 [0.6        1.68778529]
 [0.7        0.22674115]
 [0.8        0.93004634]
 [0.9        1.85827411]
 [1.         0.07029884]
 [1.09391667 1.14058722]]",0,0.332
8730571689,f,19,english,5,3,english,2024-02-01 10:33:22.879057,False,2,379,sounds\english\audio/english_904.wav,"[[  0.         -74.82582528]
 [  0.1        -96.79575006]
 [  0.2         95.14053513]
 [  0.3        -60.85445871]
 [  0.4        -53.61462939]
 [  0.5         36.4108286 ]
 [  0.6        -81.73904146]
 [  0.7         67.08505199]
 [  0.8        -51.49043615]
 [  0.9        -56.43319174]
 [  1.         -26.03996305]
 [  1.09391667   9.12764333]]","[[0.         1.4013029 ]
 [0.1        0.13633554]
 [0.2        0.85457449]
 [0.3        0.52689268]
 [0.4        1.15689505]
 [0.5        1.15306908]
 [0.6        0.53780722]
 [0.7        1.6251065 ]
 [0.8        0.93791245]
 [0.9        0.6672811 ]
 [1.         0.48044762]
 [1.09391667 1.83086337]]",0,2.646
8730571689,f,19,english,5,3,english,2024-02-01 10:33:22.879057,False,2,380,sounds\english\audio/english_834.wav,"[[  0.         -86.16375599]
 [  0.1        -22.09919923]
 [  0.2         63.82090938]
 [  0.3         38.26115817]
 [  0.4         15.19654457]
 [  0.5         78.054871  ]
 [  0.6         63.1081572 ]
 [  0.7         43.43236214]
 [  0.8        -74.3897683 ]
 [  0.9         40.24285486]
 [  1.         -67.71571624]
 [  1.09391667  40.03958616]]","[[0.         1.62153397]
 [0.1        1.42577166]
 [0.2        1.22840095]
 [0.3        1.977843  ]
 [0.4        0.63466945]
 [0.5        1.94429469]
 [0.6        0.531594  ]
 [0.7        1.34157161]
 [0.8        1.32269287]
 [0.9        1.75386624]
 [1.         1.01238939]
 [1.09391667 1.44306133]]",1,1.724
8730571689,f,19,english,5,3,english,2024-02-01 10:33:22.879057,False,2,381,sounds\english\audio/english_948.wav,"[[  0.          70.08788288]
 [  0.1          9.51278832]
 [  0.2        -59.8724706 ]
 [  0.3         -7.8364385 ]
 [  0.4        -78.88155559]
 [  0.5         68.60860792]
 [  0.6        -33.65925785]
 [  0.7        -55.41448182]
 [  0.8         50.68602882]
 [  0.9         61.97320966]
 [  1.         -81.646441  ]
 [  1.09391667 -76.82315441]]","[[0.         1.73905021]
 [0.1        0.0665574 ]
 [0.2        1.97257093]
 [0.3        0.54442479]
 [0.4        0.88565994]
 [0.5        1.07148871]
 [0.6        0.5392424 ]
 [0.7        0.22870417]
 [0.8        0.62800338]
 [0.9        0.19317235]
 [1.         0.59223908]
 [1.09391667 1.64165992]]",0,0.329
