subj,sex,age,language,english,french,native_lang,date,practice,block,trial,stim,pitch,stretch,response,rt
1,m,25,english,5,2,english,2024-02-07 14:21:25.665371,False,2,303,sounds\english\audio/english_783.wav,"[[  0.         -86.56228458]
 [  0.1         33.36869343]
 [  0.2          9.6331017 ]
 [  0.3         -0.10370099]
 [  0.4         37.9043983 ]
 [  0.5          3.6685029 ]
 [  0.6         70.42333637]
 [  0.7        -15.16907184]
 [  0.8         55.24698517]
 [  0.9          2.94553427]
 [  1.         -22.42195587]
 [  1.09391667  45.66016172]]","[[0.         1.19165513]
 [0.1        0.83777852]
 [0.2        0.11846308]
 [0.3        1.66137382]
 [0.4        0.58882923]
 [0.5        0.46184707]
 [0.6        1.82009688]
 [0.7        1.46902062]
 [0.8        1.68658026]
 [0.9        1.05395717]
 [1.         1.93905679]
 [1.09391667 0.09684568]]",0,4.359
1,m,25,english,5,2,english,2024-02-07 14:21:25.665371,False,2,304,sounds\english\audio/english_692.wav,"[[  0.          17.01173199]
 [  0.1        -83.06969334]
 [  0.2        -58.44100575]
 [  0.3        -91.32119293]
 [  0.4        -39.52405727]
 [  0.5        -40.26958375]
 [  0.6         55.4362835 ]
 [  0.7         20.27621399]
 [  0.8        -86.30023131]
 [  0.9          6.83955759]
 [  1.           6.70379303]
 [  1.09391667  92.50690067]]","[[0.         0.47550749]
 [0.1        1.08739119]
 [0.2        1.75941989]
 [0.3        0.308091  ]
 [0.4        0.34371229]
 [0.5        0.85553053]
 [0.6        1.67285815]
 [0.7        1.37569405]
 [0.8        1.97676153]
 [0.9        0.86697186]
 [1.         1.63903464]
 [1.09391667 0.89498599]]",0,1.364
1,m,25,english,5,2,english,2024-02-07 14:21:25.665371,False,2,305,sounds\english\audio/english_574.wav,"[[  0.          30.16253717]
 [  0.1        -51.87995618]
 [  0.2         24.46456732]
 [  0.3        -94.35752884]
 [  0.4         64.35841576]
 [  0.5        -49.28362763]
 [  0.6         14.18269939]
 [  0.7        -50.86809752]
 [  0.8         53.84502892]
 [  0.9        -66.65469805]
 [  1.         -86.96769925]
 [  1.09391667 -53.07810136]]","[[0.         0.985146  ]
 [0.1        1.53182158]
 [0.2        1.42910062]
 [0.3        0.82906666]
 [0.4        1.00783528]
 [0.5        1.2732344 ]
 [0.6        1.27248482]
 [0.7        0.5240718 ]
 [0.8        0.53991613]
 [0.9        0.74966761]
 [1.         0.29132247]
 [1.09391667 0.5179051 ]]",1,0.933
1,m,25,english,5,2,english,2024-02-07 14:21:25.665371,False,2,306,sounds\english\audio/english_175.wav,"[[  0.          38.44646754]
 [  0.1        -23.00340035]
 [  0.2        -30.61543139]
 [  0.3         99.83965835]
 [  0.4        -46.63956487]
 [  0.5        -59.37007197]
 [  0.6         82.40355982]
 [  0.7        -46.17826166]
 [  0.8          9.80730277]
 [  0.9         74.64832737]
 [  1.         -39.17791416]
 [  1.09391667 -90.85337976]]","[[0.         1.34207659]
 [0.1        1.41404042]
 [0.2        1.49080674]
 [0.3        0.72740359]
 [0.4        1.0197188 ]
 [0.5        0.62236458]
 [0.6        1.36261766]
 [0.7        0.8547614 ]
 [0.8        0.21399821]
 [0.9        1.05176786]
 [1.         0.6104539 ]
 [1.09391667 1.60893412]]",1,1.593
1,m,25,english,5,2,english,2024-02-07 14:21:25.665371,False,2,307,sounds\english\audio/english_986.wav,"[[  0.          66.66952336]
 [  0.1         96.9530251 ]
 [  0.2         75.3477354 ]
 [  0.3        -56.79707668]
 [  0.4         68.50410973]
 [  0.5          5.80156778]
 [  0.6        -59.00857509]
 [  0.7         23.78788766]
 [  0.8          8.31255478]
 [  0.9        -23.40072537]
 [  1.          36.6022418 ]
 [  1.09391667 -51.87443186]]","[[0.         1.97934099]
 [0.1        1.29460225]
 [0.2        1.53421825]
 [0.3        1.45039514]
 [0.4        0.98893675]
 [0.5        1.73927101]
 [0.6        1.32684672]
 [0.7        1.65077043]
 [0.8        1.05904427]
 [0.9        0.79622744]
 [1.         1.94329627]
 [1.09391667 1.45912014]]",0,0.448
1,m,25,english,5,2,english,2024-02-07 14:21:25.665371,False,2,308,sounds\english\audio/english_971.wav,"[[  0.          21.92702064]
 [  0.1        -53.27203396]
 [  0.2         16.04080675]
 [  0.3        -93.72897718]
 [  0.4         76.75922717]
 [  0.5          2.23154985]
 [  0.6         57.16774736]
 [  0.7        -66.3096603 ]
 [  0.8        -54.36784686]
 [  0.9         31.74688825]
 [  1.         -41.88838509]
 [  1.09391667 -46.11178706]]","[[0.         0.459047  ]
 [0.1        0.06454192]
 [0.2        1.47088252]
 [0.3        0.63214126]
 [0.4        0.53041825]
 [0.5        0.36671068]
 [0.6        0.84112941]
 [0.7        0.93270713]
 [0.8        0.0064824 ]
 [0.9        0.04508119]
 [1.         1.17781348]
 [1.09391667 0.19249934]]",1,2.502
1,m,25,english,5,2,english,2024-02-07 14:21:25.665371,False,2,309,sounds\english\audio/english_834.wav,"[[  0.         -86.16375599]
 [  0.1        -22.09919923]
 [  0.2         63.82090938]
 [  0.3         38.26115817]
 [  0.4         15.19654457]
 [  0.5         78.054871  ]
 [  0.6         63.1081572 ]
 [  0.7         43.43236214]
 [  0.8        -74.3897683 ]
 [  0.9         40.24285486]
 [  1.         -67.71571624]
 [  1.09391667  40.03958616]]","[[0.         1.62153397]
 [0.1        1.42577166]
 [0.2        1.22840095]
 [0.3        1.977843  ]
 [0.4        0.63466945]
 [0.5        1.94429469]
 [0.6        0.531594  ]
 [0.7        1.34157161]
 [0.8        1.32269287]
 [0.9        1.75386624]
 [1.         1.01238939]
 [1.09391667 1.44306133]]",0,0.361
1,m,25,english,5,2,english,2024-02-07 14:21:25.665371,False,2,310,sounds\english\audio/english_388.wav,"[[  0.         -41.72152619]
 [  0.1         16.10845718]
 [  0.2         56.96293644]
 [  0.3        -95.24889342]
 [  0.4        -92.06058204]
 [  0.5        -66.79451415]
 [  0.6         31.29945158]
 [  0.7         52.76870029]
 [  0.8        -83.90415266]
 [  0.9         16.41554992]
 [  1.          44.20651848]
 [  1.09391667 -53.31309565]]","[[0.         1.04150919]
 [0.1        1.44420011]
 [0.2        1.65872581]
 [0.3        1.66380946]
 [0.4        1.25967223]
 [0.5        1.01005139]
 [0.6        0.59386887]
 [0.7        1.783647  ]
 [0.8        0.30560863]
 [0.9        0.09885056]
 [1.         0.45485887]
 [1.09391667 1.06517725]]",1,0.857
1,m,25,english,5,2,english,2024-02-07 14:21:25.665371,False,2,311,sounds\english\audio/english_25.wav,"[[  0.          -3.04072315]
 [  0.1         -7.71178933]
 [  0.2        -42.18636208]
 [  0.3        -34.45077435]
 [  0.4        -84.66227969]
 [  0.5        -92.64439035]
 [  0.6        -61.14666871]
 [  0.7         -3.59823801]
 [  0.8        -55.86599887]
 [  0.9         70.71897097]
 [  1.         -41.59717756]
 [  1.09391667  45.33564492]]","[[0.         0.82619881]
 [0.1        0.19533878]
 [0.2        1.08277914]
 [0.3        1.14412535]
 [0.4        1.20529311]
 [0.5        1.74650044]
 [0.6        0.43899038]
 [0.7        0.82830315]
 [0.8        0.29447237]
 [0.9        0.99577412]
 [1.         1.79017757]
 [1.09391667 1.70871786]]",1,0.619
1,m,25,english,5,2,english,2024-02-07 14:21:25.665371,False,2,312,sounds\english\audio/english_477.wav,"[[  0.          44.11369928]
 [  0.1        -49.72421876]
 [  0.2         37.81687243]
 [  0.3        -52.5290051 ]
 [  0.4         42.12087864]
 [  0.5         -3.66730799]
 [  0.6         34.46605835]
 [  0.7         92.87725089]
 [  0.8        -80.85076749]
 [  0.9         -9.36766275]
 [  1.          76.24737873]
 [  1.09391667 -13.80306297]]","[[0.         1.39445147]
 [0.1        1.98393148]
 [0.2        1.85807547]
 [0.3        0.71490172]
 [0.4        0.37809407]
 [0.5        0.12826759]
 [0.6        0.32776618]
 [0.7        0.64947081]
 [0.8        1.06355304]
 [0.9        1.32938803]
 [1.         1.22597552]
 [1.09391667 1.00606008]]",0,0.536
1,m,25,english,5,2,english,2024-02-07 14:21:25.665371,False,2,313,sounds\english\audio/english_329.wav,"[[  0.         -73.5267518 ]
 [  0.1         26.40936661]
 [  0.2         95.94954551]
 [  0.3        -92.18268605]
 [  0.4        -98.10910069]
 [  0.5        -61.34103681]
 [  0.6         34.88723994]
 [  0.7         66.83835425]
 [  0.8        -67.43059972]
 [  0.9         51.12526405]
 [  1.         -25.5134348 ]
 [  1.09391667 -82.24978729]]","[[0.         0.87153309]
 [0.1        1.24873758]
 [0.2        0.87594124]
 [0.3        0.88012103]
 [0.4        1.62824367]
 [0.5        1.41725229]
 [0.6        1.27607992]
 [0.7        0.30685243]
 [0.8        0.43279956]
 [0.9        0.74557381]
 [1.         0.84179224]
 [1.09391667 0.84260005]]",1,1.346
1,m,25,english,5,2,english,2024-02-07 14:21:25.665371,False,2,314,sounds\english\audio/english_357.wav,"[[  0.         -87.96365185]
 [  0.1         -8.5190019 ]
 [  0.2         34.94660595]
 [  0.3         74.01534503]
 [  0.4         13.59562063]
 [  0.5        -84.64423503]
 [  0.6        -29.1291793 ]
 [  0.7        -52.42503967]
 [  0.8         21.24796122]
 [  0.9         32.72205185]
 [  1.         -96.5222269 ]
 [  1.09391667  30.40810686]]","[[0.         1.52852124]
 [0.1        1.93288072]
 [0.2        1.80201728]
 [0.3        0.94192251]
 [0.4        1.02469598]
 [0.5        1.61646509]
 [0.6        0.27950667]
 [0.7        1.30320323]
 [0.8        1.07824702]
 [0.9        0.68433039]
 [1.         1.27621022]
 [1.09391667 1.23591368]]",0,0.462
1,m,25,english,5,2,english,2024-02-07 14:21:25.665371,False,2,315,sounds\english\audio/english_917.wav,"[[ 0.00000000e+00 -3.53182661e+01]
 [ 1.00000000e-01 -2.17738587e+01]
 [ 2.00000000e-01  8.21428169e+01]
 [ 3.00000000e-01 -1.22731677e+01]
 [ 4.00000000e-01  4.83424811e+00]
 [ 5.00000000e-01 -8.54945092e-02]
 [ 6.00000000e-01 -9.26938160e+01]
 [ 7.00000000e-01 -9.15131295e+01]
 [ 8.00000000e-01  5.80373061e+01]
 [ 9.00000000e-01 -2.86534312e+01]
 [ 1.00000000e+00  4.54510696e+01]
 [ 1.09391667e+00  4.83165221e+01]]","[[0.         1.27669121]
 [0.1        1.4602349 ]
 [0.2        0.09750383]
 [0.3        0.51655458]
 [0.4        1.15347497]
 [0.5        1.01469442]
 [0.6        0.31102011]
 [0.7        1.44230515]
 [0.8        0.03377485]
 [0.9        0.48994194]
 [1.         0.17679016]
 [1.09391667 0.94650881]]",1,0.507
1,m,25,english,5,2,english,2024-02-07 14:21:25.665371,False,2,316,sounds\english\audio/english_18.wav,"[[  0.         -34.26622777]
 [  0.1        -75.64955683]
 [  0.2        -27.92679038]
 [  0.3        -19.62027656]
 [  0.4        -20.32459895]
 [  0.5          0.79905947]
 [  0.6          8.10958223]
 [  0.7        -12.88361986]
 [  0.8         74.6796053 ]
 [  0.9         13.61359807]
 [  1.         -21.69070415]
 [  1.09391667 -57.34652915]]","[[0.         1.34360385]
 [0.1        1.57489552]
 [0.2        0.39363555]
 [0.3        0.89611778]
 [0.4        1.50747647]
 [0.5        0.43558214]
 [0.6        1.91834816]
 [0.7        0.90012517]
 [0.8        0.69419363]
 [0.9        0.27849068]
 [1.         0.10490824]
 [1.09391667 1.33460981]]",0,0.717
1,m,25,english,5,2,english,2024-02-07 14:21:25.665371,False,2,317,sounds\english\audio/english_494.wav,"[[  0.          -0.71105911]
 [  0.1         -4.76372759]
 [  0.2         66.89870616]
 [  0.3         43.91062915]
 [  0.4        -57.8545691 ]
 [  0.5        -82.5179259 ]
 [  0.6         80.42837684]
 [  0.7         96.180933  ]
 [  0.8         17.6398549 ]
 [  0.9        -72.53927607]
 [  1.         -51.27052229]
 [  1.09391667  16.38241645]]","[[0.         1.19698802]
 [0.1        0.64302423]
 [0.2        0.88986983]
 [0.3        0.33391225]
 [0.4        0.78562285]
 [0.5        1.92178158]
 [0.6        0.82903442]
 [0.7        0.59414127]
 [0.8        1.2399684 ]
 [0.9        0.09321319]
 [1.         0.68716523]
 [1.09391667 1.81410855]]",0,0.823
1,m,25,english,5,2,english,2024-02-07 14:21:25.665371,False,2,318,sounds\english\audio/english_639.wav,"[[  0.           5.56347498]
 [  0.1         75.73661073]
 [  0.2        -90.85300276]
 [  0.3        -28.02471483]
 [  0.4        -62.26468724]
 [  0.5         17.80250947]
 [  0.6         29.29879682]
 [  0.7         -6.14897809]
 [  0.8        -11.9254819 ]
 [  0.9          6.20327944]
 [  1.         -44.51875699]
 [  1.09391667  52.00361599]]","[[0.         1.83509432]
 [0.1        0.44211572]
 [0.2        1.03578017]
 [0.3        0.46973677]
 [0.4        0.54820752]
 [0.5        0.51964922]
 [0.6        0.06117772]
 [0.7        0.67480304]
 [0.8        0.85869346]
 [0.9        1.90136883]
 [1.         1.31276151]
 [1.09391667 1.93524577]]",0,0.621
1,m,25,english,5,2,english,2024-02-07 14:21:25.665371,False,2,319,sounds\english\audio/english_751.wav,"[[  0.         -66.06272789]
 [  0.1        -35.39424596]
 [  0.2         -5.06217065]
 [  0.3         34.9656481 ]
 [  0.4         21.23436914]
 [  0.5         82.13600136]
 [  0.6         31.75524198]
 [  0.7         25.74157906]
 [  0.8          0.71739343]
 [  0.9        -48.73723386]
 [  1.         -45.00388336]
 [  1.09391667 -22.7557427 ]]","[[0.         0.8938032 ]
 [0.1        0.85096145]
 [0.2        0.63682042]
 [0.3        0.66546542]
 [0.4        1.36528552]
 [0.5        1.24494727]
 [0.6        1.91319775]
 [0.7        1.46839197]
 [0.8        1.22847184]
 [0.9        1.68139256]
 [1.         0.62568337]
 [1.09391667 0.09425642]]",0,0.428
1,m,25,english,5,2,english,2024-02-07 14:21:25.665371,False,2,320,sounds\english\audio/english_613.wav,"[[  0.          56.02417359]
 [  0.1        -15.12096295]
 [  0.2         24.11599025]
 [  0.3        -98.52161237]
 [  0.4        -83.03822249]
 [  0.5         21.43017138]
 [  0.6         63.83169659]
 [  0.7         20.52778074]
 [  0.8         94.54806404]
 [  0.9         22.39216261]
 [  1.         -21.9484098 ]
 [  1.09391667 -64.50590256]]","[[0.         1.45969094]
 [0.1        0.70307333]
 [0.2        1.55595157]
 [0.3        0.89820675]
 [0.4        1.36107021]
 [0.5        0.16432707]
 [0.6        0.04833877]
 [0.7        0.40598637]
 [0.8        1.56556559]
 [0.9        0.73835637]
 [1.         1.13631796]
 [1.09391667 0.17382409]]",0,0.516
1,m,25,english,5,2,english,2024-02-07 14:21:25.665371,False,2,321,sounds\english\audio/english_834.wav,"[[  0.         -86.16375599]
 [  0.1        -22.09919923]
 [  0.2         63.82090938]
 [  0.3         38.26115817]
 [  0.4         15.19654457]
 [  0.5         78.054871  ]
 [  0.6         63.1081572 ]
 [  0.7         43.43236214]
 [  0.8        -74.3897683 ]
 [  0.9         40.24285486]
 [  1.         -67.71571624]
 [  1.09391667  40.03958616]]","[[0.         1.62153397]
 [0.1        1.42577166]
 [0.2        1.22840095]
 [0.3        1.977843  ]
 [0.4        0.63466945]
 [0.5        1.94429469]
 [0.6        0.531594  ]
 [0.7        1.34157161]
 [0.8        1.32269287]
 [0.9        1.75386624]
 [1.         1.01238939]
 [1.09391667 1.44306133]]",0,0.431
1,m,25,english,5,2,english,2024-02-07 14:21:25.665371,False,2,322,sounds\english\audio/english_753.wav,"[[  0.         -37.70671017]
 [  0.1        -51.92629572]
 [  0.2         93.98068105]
 [  0.3        -51.39932121]
 [  0.4         95.80116655]
 [  0.5         54.2507311 ]
 [  0.6         20.30160244]
 [  0.7         55.46646904]
 [  0.8        -44.46613041]
 [  0.9         32.26226525]
 [  1.          94.05472838]
 [  1.09391667  42.98878145]]","[[0.         1.74884561]
 [0.1        0.91942072]
 [0.2        1.59964549]
 [0.3        1.12825203]
 [0.4        1.21219761]
 [0.5        1.26026343]
 [0.6        1.5757537 ]
 [0.7        0.16664365]
 [0.8        1.11726469]
 [0.9        1.53816652]
 [1.         0.62126972]
 [1.09391667 0.46411799]]",1,0.842
1,m,25,english,5,2,english,2024-02-07 14:21:25.665371,False,2,323,sounds\english\audio/english_139.wav,"[[  0.          81.69119698]
 [  0.1         42.19378668]
 [  0.2        -40.74285827]
 [  0.3         49.20247594]
 [  0.4        -31.78428617]
 [  0.5         33.76293525]
 [  0.6          7.11439176]
 [  0.7        -18.31872173]
 [  0.8         79.70412409]
 [  0.9        -88.5628162 ]
 [  1.         -65.12448171]
 [  1.09391667  11.63103966]]","[[0.         1.27933894]
 [0.1        0.17402895]
 [0.2        0.51201081]
 [0.3        0.94873681]
 [0.4        1.19745534]
 [0.5        0.67270535]
 [0.6        1.44433094]
 [0.7        0.44605891]
 [0.8        0.81778602]
 [0.9        1.24773735]
 [1.         0.00984113]
 [1.09391667 1.43403062]]",1,0.608
1,m,25,english,5,2,english,2024-02-07 14:21:25.665371,False,2,324,sounds\english\audio/english_996.wav,"[[  0.         -68.49547406]
 [  0.1         -2.33531362]
 [  0.2         59.75126116]
 [  0.3         91.41529036]
 [  0.4        -12.51622254]
 [  0.5          5.44058313]
 [  0.6        -53.42325035]
 [  0.7          9.17325138]
 [  0.8         53.92705363]
 [  0.9        -51.59047854]
 [  1.         -72.60614794]
 [  1.09391667  82.93009071]]","[[0.         1.15101027]
 [0.1        1.76891933]
 [0.2        1.50263503]
 [0.3        0.3014492 ]
 [0.4        1.52458018]
 [0.5        1.68949091]
 [0.6        1.14777942]
 [0.7        1.71935076]
 [0.8        1.57982041]
 [0.9        0.73704806]
 [1.         0.5335164 ]
 [1.09391667 0.99688365]]",0,1.188
1,m,25,english,5,2,english,2024-02-07 14:21:25.665371,False,2,325,sounds\english\audio/english_402.wav,"[[  0.          13.762471  ]
 [  0.1         56.960538  ]
 [  0.2         31.61900178]
 [  0.3        -58.12329087]
 [  0.4        -92.10904416]
 [  0.5        -26.99116943]
 [  0.6          2.85267641]
 [  0.7        -21.2400385 ]
 [  0.8         47.25195685]
 [  0.9         86.30516809]
 [  1.          -9.29622935]
 [  1.09391667   3.14612385]]","[[0.         1.51429567]
 [0.1        1.68766969]
 [0.2        1.34501255]
 [0.3        0.78143448]
 [0.4        0.95522192]
 [0.5        1.16323619]
 [0.6        0.43497741]
 [0.7        1.84271931]
 [0.8        1.28114522]
 [0.9        0.9091169 ]
 [1.         1.84546322]
 [1.09391667 0.72114292]]",0,1.649
1,m,25,english,5,2,english,2024-02-07 14:21:25.665371,False,2,326,sounds\english\audio/english_348.wav,"[[  0.          49.10415519]
 [  0.1        -48.79965422]
 [  0.2         53.20165278]
 [  0.3         57.36742524]
 [  0.4         94.02129802]
 [  0.5         75.45128831]
 [  0.6         28.29323428]
 [  0.7        -56.033964  ]
 [  0.8        -29.54315548]
 [  0.9         76.45106471]
 [  1.         -33.55717755]
 [  1.09391667 -82.96462131]]","[[0.         0.2034627 ]
 [0.1        1.25044247]
 [0.2        0.74094366]
 [0.3        0.00954132]
 [0.4        1.6517129 ]
 [0.5        0.80661731]
 [0.6        1.01146739]
 [0.7        0.68924025]
 [0.8        1.21892084]
 [0.9        0.39109075]
 [1.         0.51319042]
 [1.09391667 0.0502457 ]]",1,0.479
1,m,25,english,5,2,english,2024-02-07 14:21:25.665371,False,2,327,sounds\english\audio/english_981.wav,"[[  0.          24.3055989 ]
 [  0.1         28.97891723]
 [  0.2         51.4418758 ]
 [  0.3        -41.6425055 ]
 [  0.4         -6.63622722]
 [  0.5         90.98935315]
 [  0.6        -91.30627378]
 [  0.7        -70.54702949]
 [  0.8         37.31249144]
 [  0.9         44.20519134]
 [  1.         -85.22636705]
 [  1.09391667  33.48956199]]","[[0.         1.29303253]
 [0.1        1.06779992]
 [0.2        1.11588817]
 [0.3        1.45059858]
 [0.4        0.93926956]
 [0.5        0.09427917]
 [0.6        0.99584654]
 [0.7        1.20164622]
 [0.8        1.37323006]
 [0.9        0.98395355]
 [1.         0.17020531]
 [1.09391667 0.83321676]]",0,0.544
1,m,25,english,5,2,english,2024-02-07 14:21:25.665371,False,2,328,sounds\english\audio/english_673.wav,"[[  0.          90.76839252]
 [  0.1          6.046272  ]
 [  0.2        -87.83071151]
 [  0.3         36.6509823 ]
 [  0.4        -32.18158433]
 [  0.5        -19.24802142]
 [  0.6         48.91730907]
 [  0.7         69.64943754]
 [  0.8         -5.12989182]
 [  0.9         -9.26659316]
 [  1.         -16.89337836]
 [  1.09391667 -23.27882447]]","[[0.         1.23453875]
 [0.1        1.03311149]
 [0.2        1.26397394]
 [0.3        1.9126635 ]
 [0.4        1.72280276]
 [0.5        0.25348074]
 [0.6        1.44743683]
 [0.7        1.155997  ]
 [0.8        0.33674768]
 [0.9        0.68600318]
 [1.         1.11619923]
 [1.09391667 0.1262035 ]]",1,0.596
1,m,25,english,5,2,english,2024-02-07 14:21:25.665371,False,2,329,sounds\english\audio/english_795.wav,"[[  0.          87.97989278]
 [  0.1        -23.39853739]
 [  0.2         85.15897758]
 [  0.3         30.45214085]
 [  0.4         25.21841082]
 [  0.5         36.10678603]
 [  0.6         61.48762219]
 [  0.7         14.5754085 ]
 [  0.8        -57.54329739]
 [  0.9        -73.09117399]
 [  1.          77.49994784]
 [  1.09391667  89.63116882]]","[[0.         1.59591128]
 [0.1        1.94488646]
 [0.2        0.62481037]
 [0.3        0.56488466]
 [0.4        0.81270144]
 [0.5        1.54003491]
 [0.6        1.21959161]
 [0.7        0.84714061]
 [0.8        1.28928587]
 [0.9        1.61523869]
 [1.         1.68827262]
 [1.09391667 1.85702814]]",0,0.33
1,m,25,english,5,2,english,2024-02-07 14:21:25.665371,False,2,330,sounds\english\audio/english_848.wav,"[[  0.          16.27018666]
 [  0.1        -74.75395213]
 [  0.2         55.44859949]
 [  0.3        -32.83945411]
 [  0.4         30.01434436]
 [  0.5         48.58281319]
 [  0.6        -85.68192699]
 [  0.7         27.03943406]
 [  0.8         14.64264022]
 [  0.9        -60.92798451]
 [  1.         -13.82637474]
 [  1.09391667 -65.39894946]]","[[0.         0.42429773]
 [0.1        0.55671169]
 [0.2        0.96508228]
 [0.3        0.7665276 ]
 [0.4        0.96341741]
 [0.5        0.06275252]
 [0.6        0.89297301]
 [0.7        0.16213779]
 [0.8        1.88232235]
 [0.9        1.9298227 ]
 [1.         0.08076178]
 [1.09391667 1.11155621]]",0,0.49
1,m,25,english,5,2,english,2024-02-07 14:21:25.665371,False,2,331,sounds\english\audio/english_147.wav,"[[  0.          13.5835913 ]
 [  0.1        -12.78269311]
 [  0.2        -68.15160011]
 [  0.3        -22.06196162]
 [  0.4        -52.80599893]
 [  0.5        -19.06204323]
 [  0.6         99.53651939]
 [  0.7        -28.8369824 ]
 [  0.8         74.70483883]
 [  0.9         42.275031  ]
 [  1.         -85.9360484 ]
 [  1.09391667  70.70596031]]","[[0.         1.55424913]
 [0.1        1.36751472]
 [0.2        0.0989476 ]
 [0.3        1.09942606]
 [0.4        0.66767386]
 [0.5        1.22234283]
 [0.6        1.18173491]
 [0.7        1.33756281]
 [0.8        0.81214456]
 [0.9        0.37062199]
 [1.         1.6700327 ]
 [1.09391667 1.62026459]]",1,0.593
1,m,25,english,5,2,english,2024-02-07 14:21:25.665371,False,2,332,sounds\english\audio/english_158.wav,"[[  0.          41.17268037]
 [  0.1         39.43055099]
 [  0.2         18.17307199]
 [  0.3          2.1288608 ]
 [  0.4         14.16848378]
 [  0.5        -31.43837624]
 [  0.6         46.37345031]
 [  0.7         58.75582509]
 [  0.8         23.78862253]
 [  0.9         -4.2911947 ]
 [  1.         -43.40891041]
 [  1.09391667  16.25522825]]","[[0.         0.12012262]
 [0.1        1.02753784]
 [0.2        1.36643436]
 [0.3        1.78617089]
 [0.4        0.39713516]
 [0.5        1.5313636 ]
 [0.6        1.20655285]
 [0.7        0.16880901]
 [0.8        0.30409425]
 [0.9        1.28329421]
 [1.         0.17704904]
 [1.09391667 0.66899263]]",1,0.695
1,m,25,english,5,2,english,2024-02-07 14:21:25.665371,False,2,333,sounds\english\audio/english_527.wav,"[[  0.          -1.3381573 ]
 [  0.1         58.15701777]
 [  0.2          8.11788849]
 [  0.3         44.39731413]
 [  0.4        -87.54788147]
 [  0.5        -93.25195843]
 [  0.6         93.45473079]
 [  0.7         47.10175622]
 [  0.8         40.24548325]
 [  0.9         26.99431972]
 [  1.          23.18417948]
 [  1.09391667   1.05655255]]","[[0.         0.84142087]
 [0.1        0.45178491]
 [0.2        1.20075359]
 [0.3        0.65328865]
 [0.4        0.96835908]
 [0.5        0.53512631]
 [0.6        1.66257619]
 [0.7        1.10602602]
 [0.8        0.88440787]
 [0.9        1.16792169]
 [1.         1.44045273]
 [1.09391667 0.83626501]]",0,0.258
1,m,25,english,5,2,english,2024-02-07 14:21:25.665371,False,2,334,sounds\english\audio/english_302.wav,"[[  0.          22.32512828]
 [  0.1        -34.68493306]
 [  0.2        -60.33048789]
 [  0.3        -66.33131812]
 [  0.4         61.16500984]
 [  0.5         49.23692814]
 [  0.6         18.80850389]
 [  0.7         91.26807024]
 [  0.8         51.0661189 ]
 [  0.9        -89.83945555]
 [  1.         -75.19546708]
 [  1.09391667 -66.5337051 ]]","[[0.         1.43751276]
 [0.1        1.04855025]
 [0.2        0.11748708]
 [0.3        1.014131  ]
 [0.4        1.52698955]
 [0.5        1.28665313]
 [0.6        1.64816454]
 [0.7        0.26189179]
 [0.8        1.3962077 ]
 [0.9        0.53648677]
 [1.         1.41713481]
 [1.09391667 0.68271313]]",1,0.665
1,m,25,english,5,2,english,2024-02-07 14:21:25.665371,False,2,335,sounds\english\audio/english_34.wav,"[[  0.           9.71692873]
 [  0.1        -32.4765448 ]
 [  0.2         15.43761556]
 [  0.3         58.61018381]
 [  0.4         25.83507297]
 [  0.5        -56.32199776]
 [  0.6        -56.68859517]
 [  0.7        -35.23691581]
 [  0.8        -38.05292499]
 [  0.9        -19.80503333]
 [  1.          18.63515133]
 [  1.09391667  20.3470687 ]]","[[0.         1.51290073]
 [0.1        1.69209185]
 [0.2        1.03006511]
 [0.3        0.24425739]
 [0.4        1.41814457]
 [0.5        1.04050252]
 [0.6        0.2977066 ]
 [0.7        0.84278016]
 [0.8        1.02765016]
 [0.9        1.82923519]
 [1.         1.36188649]
 [1.09391667 1.04188566]]",0,0.312
1,m,25,english,5,2,english,2024-02-07 14:21:25.665371,False,2,336,sounds\english\audio/english_79.wav,"[[  0.          27.97817784]
 [  0.1         71.46944993]
 [  0.2         89.05489336]
 [  0.3        -19.05433113]
 [  0.4        -69.45960299]
 [  0.5         73.78187689]
 [  0.6         45.30424973]
 [  0.7        -12.3964906 ]
 [  0.8         -6.65615849]
 [  0.9         20.78943027]
 [  1.         -67.05166292]
 [  1.09391667 -53.62396235]]","[[0.         0.84571494]
 [0.1        1.27709221]
 [0.2        1.27075812]
 [0.3        1.99746898]
 [0.4        0.86632135]
 [0.5        1.18439274]
 [0.6        0.05743494]
 [0.7        1.88609771]
 [0.8        1.07546111]
 [0.9        0.97034818]
 [1.         0.94663039]
 [1.09391667 0.1925317 ]]",1,0.871
1,m,25,english,5,2,english,2024-02-07 14:21:25.665371,False,2,337,sounds\english\audio/english_483.wav,"[[  0.          81.48477159]
 [  0.1        -89.60480044]
 [  0.2         34.01203533]
 [  0.3        -53.73578063]
 [  0.4         84.54249603]
 [  0.5        -37.49389681]
 [  0.6         15.30386948]
 [  0.7        -61.92265371]
 [  0.8         -8.76713856]
 [  0.9        -10.35003035]
 [  1.          30.44811047]
 [  1.09391667  58.404663  ]]","[[0.         0.74240463]
 [0.1        0.55858717]
 [0.2        0.25858635]
 [0.3        0.09361457]
 [0.4        1.33981299]
 [0.5        0.4736205 ]
 [0.6        0.19064795]
 [0.7        0.85022642]
 [0.8        0.89668703]
 [0.9        0.92354333]
 [1.         0.32093747]
 [1.09391667 0.85640019]]",0,0.398
1,m,25,english,5,2,english,2024-02-07 14:21:25.665371,False,2,338,sounds\english\audio/english_955.wav,"[[  0.          38.31421616]
 [  0.1         -0.24395343]
 [  0.2        -30.85408012]
 [  0.3         73.34311783]
 [  0.4        -91.5837752 ]
 [  0.5         57.97712299]
 [  0.6          6.73272041]
 [  0.7         -3.5280389 ]
 [  0.8        -53.89604604]
 [  0.9         42.44442799]
 [  1.         -51.31943535]
 [  1.09391667 -10.15737525]]","[[0.         0.40317625]
 [0.1        1.41770308]
 [0.2        0.82154239]
 [0.3        1.53285595]
 [0.4        0.89318017]
 [0.5        1.16313419]
 [0.6        0.62969855]
 [0.7        1.12563056]
 [0.8        0.39704544]
 [0.9        0.50354627]
 [1.         0.66246368]
 [1.09391667 0.25441039]]",1,1.138
1,m,25,english,5,2,english,2024-02-07 14:21:25.665371,False,2,339,sounds\english\audio/english_472.wav,"[[  0.         -23.72821767]
 [  0.1          7.29471696]
 [  0.2        -58.55005371]
 [  0.3         77.0504256 ]
 [  0.4         87.29275565]
 [  0.5        -70.9646192 ]
 [  0.6         72.82743185]
 [  0.7        -40.27439915]
 [  0.8        -15.91396931]
 [  0.9         27.40014094]
 [  1.         -13.69917785]
 [  1.09391667  26.78237701]]","[[0.         0.96911452]
 [0.1        0.40121138]
 [0.2        1.15410482]
 [0.3        1.91400861]
 [0.4        0.05830067]
 [0.5        0.87176087]
 [0.6        0.23371631]
 [0.7        1.66198616]
 [0.8        0.22492459]
 [0.9        0.55757982]
 [1.         1.15387827]
 [1.09391667 1.85526867]]",1,0.904
1,m,25,english,5,2,english,2024-02-07 14:21:25.665371,False,2,340,sounds\english\audio/english_787.wav,"[[  0.          75.50983857]
 [  0.1         -1.58249906]
 [  0.2          3.57353021]
 [  0.3        -99.77057176]
 [  0.4        -38.99568239]
 [  0.5         15.30754913]
 [  0.6        -97.41525775]
 [  0.7         39.01293018]
 [  0.8         42.79848726]
 [  0.9          9.93276614]
 [  1.         -95.01180619]
 [  1.09391667 -15.9004552 ]]","[[0.         0.8452738 ]
 [0.1        0.76339694]
 [0.2        0.25803741]
 [0.3        1.65296212]
 [0.4        1.74214563]
 [0.5        0.91821048]
 [0.6        1.20673022]
 [0.7        1.21324632]
 [0.8        1.47465653]
 [0.9        0.97625714]
 [1.         1.17241626]
 [1.09391667 0.99284929]]",0,0.22
1,m,25,english,5,2,english,2024-02-07 14:21:25.665371,False,2,341,sounds\english\audio/english_805.wav,"[[  0.          19.24000096]
 [  0.1        -57.56428934]
 [  0.2        -17.74165003]
 [  0.3         94.45114709]
 [  0.4         58.80414928]
 [  0.5         15.95265091]
 [  0.6        -64.01744173]
 [  0.7        -39.81720589]
 [  0.8         48.58222908]
 [  0.9         79.1348353 ]
 [  1.          66.03274921]
 [  1.09391667 -37.34721406]]","[[0.         0.52175854]
 [0.1        1.45107426]
 [0.2        1.66296684]
 [0.3        1.339528  ]
 [0.4        1.45905309]
 [0.5        0.95701688]
 [0.6        0.10004415]
 [0.7        1.33408917]
 [0.8        0.26158276]
 [0.9        0.78316965]
 [1.         0.77046412]
 [1.09391667 0.38567889]]",1,0.791
1,m,25,english,5,2,english,2024-02-07 14:21:25.665371,False,2,342,sounds\english\audio/english_614.wav,"[[  0.         -82.48035623]
 [  0.1         79.46307131]
 [  0.2        -34.63501936]
 [  0.3        -36.11573217]
 [  0.4         28.60715933]
 [  0.5        -48.6136036 ]
 [  0.6         -7.2226969 ]
 [  0.7        -29.94263831]
 [  0.8        -84.37614436]
 [  0.9          6.08502503]
 [  1.          89.45930015]
 [  1.09391667 -99.05808014]]","[[0.         0.71590115]
 [0.1        0.88553055]
 [0.2        0.6127243 ]
 [0.3        1.30048752]
 [0.4        0.96267967]
 [0.5        0.63406811]
 [0.6        1.30483529]
 [0.7        0.38784821]
 [0.8        0.63559187]
 [0.9        0.26922563]
 [1.         0.19525475]
 [1.09391667 1.74947328]]",1,0.567
1,m,25,english,5,2,english,2024-02-07 14:21:25.665371,False,2,343,sounds\english\audio/english_254.wav,"[[  0.         -79.97486314]
 [  0.1          4.97939185]
 [  0.2        -28.78047168]
 [  0.3         54.84679162]
 [  0.4        -29.5092506 ]
 [  0.5         32.35526616]
 [  0.6         30.73043206]
 [  0.7        -63.39934618]
 [  0.8         41.52768957]
 [  0.9        -68.73480186]
 [  1.          39.94615362]
 [  1.09391667  -8.67015509]]","[[0.         0.1587751 ]
 [0.1        1.19895937]
 [0.2        0.42029652]
 [0.3        0.35684023]
 [0.4        0.61489906]
 [0.5        0.62359164]
 [0.6        0.73353012]
 [0.7        1.26915249]
 [0.8        1.27281169]
 [0.9        1.34629586]
 [1.         0.72701625]
 [1.09391667 0.66252937]]",0,0.219
1,m,25,english,5,2,english,2024-02-07 14:21:25.665371,False,2,344,sounds\english\audio/english_464.wav,"[[  0.         -23.34522256]
 [  0.1        -19.55225305]
 [  0.2        -17.46601835]
 [  0.3        -18.06083259]
 [  0.4         39.93999663]
 [  0.5         18.26379158]
 [  0.6         29.05119834]
 [  0.7        -59.7360239 ]
 [  0.8         88.20887552]
 [  0.9         -3.73411856]
 [  1.         -94.561572  ]
 [  1.09391667 -28.03048225]]","[[0.         1.83574023]
 [0.1        1.45464116]
 [0.2        0.96557802]
 [0.3        0.862048  ]
 [0.4        1.49154181]
 [0.5        0.8466408 ]
 [0.6        1.01287791]
 [0.7        0.24671588]
 [0.8        1.40889965]
 [0.9        0.91232797]
 [1.         0.94183149]
 [1.09391667 1.23465261]]",1,0.467
1,m,25,english,5,2,english,2024-02-07 14:21:25.665371,False,2,345,sounds\english\audio/english_172.wav,"[[  0.         -67.89328127]
 [  0.1        -98.24711177]
 [  0.2         49.39394348]
 [  0.3         76.5993294 ]
 [  0.4        -22.3707882 ]
 [  0.5        -81.77647202]
 [  0.6         14.32482273]
 [  0.7        -55.4844165 ]
 [  0.8          3.0799131 ]
 [  0.9        -69.51196042]
 [  1.          75.4726198 ]
 [  1.09391667   0.51193247]]","[[0.         0.87390127]
 [0.1        0.45073311]
 [0.2        1.74616009]
 [0.3        0.92964788]
 [0.4        0.40511794]
 [0.5        1.07981793]
 [0.6        0.29673002]
 [0.7        1.5346781 ]
 [0.8        0.29263687]
 [0.9        0.8048794 ]
 [1.         0.86167059]
 [1.09391667 0.22289692]]",0,0.472
1,m,25,english,5,2,english,2024-02-07 14:21:25.665371,False,2,346,sounds\english\audio/english_996.wav,"[[  0.         -68.49547406]
 [  0.1         -2.33531362]
 [  0.2         59.75126116]
 [  0.3         91.41529036]
 [  0.4        -12.51622254]
 [  0.5          5.44058313]
 [  0.6        -53.42325035]
 [  0.7          9.17325138]
 [  0.8         53.92705363]
 [  0.9        -51.59047854]
 [  1.         -72.60614794]
 [  1.09391667  82.93009071]]","[[0.         1.15101027]
 [0.1        1.76891933]
 [0.2        1.50263503]
 [0.3        0.3014492 ]
 [0.4        1.52458018]
 [0.5        1.68949091]
 [0.6        1.14777942]
 [0.7        1.71935076]
 [0.8        1.57982041]
 [0.9        0.73704806]
 [1.         0.5335164 ]
 [1.09391667 0.99688365]]",0,0.508
1,m,25,english,5,2,english,2024-02-07 14:21:25.665371,False,2,347,sounds\english\audio/english_502.wav,"[[  0.          57.69639955]
 [  0.1         28.96096349]
 [  0.2         -5.93680221]
 [  0.3         -9.12517159]
 [  0.4         44.04961264]
 [  0.5         84.4955788 ]
 [  0.6         97.09857183]
 [  0.7         99.13853902]
 [  0.8         91.26297662]
 [  0.9         17.95296758]
 [  1.         -98.67508596]
 [  1.09391667 -78.95703283]]","[[0.         1.15234611]
 [0.1        1.67970143]
 [0.2        0.71376986]
 [0.3        0.49125702]
 [0.4        0.39874308]
 [0.5        0.1440426 ]
 [0.6        1.53167879]
 [0.7        1.52730171]
 [0.8        0.65970293]
 [0.9        0.91797137]
 [1.         1.57983796]
 [1.09391667 0.77767597]]",1,1.058
1,m,25,english,5,2,english,2024-02-07 14:21:25.665371,False,2,348,sounds\english\audio/english_257.wav,"[[  0.          40.54895098]
 [  0.1         40.15801064]
 [  0.2        -24.20266722]
 [  0.3         -7.17661388]
 [  0.4        -28.64234321]
 [  0.5         21.61308764]
 [  0.6         53.78152607]
 [  0.7          7.01627137]
 [  0.8         35.40837973]
 [  0.9        -20.07672714]
 [  1.          -5.14564183]
 [  1.09391667 -39.03797323]]","[[0.         0.78978042]
 [0.1        1.47705853]
 [0.2        0.45256837]
 [0.3        1.62604433]
 [0.4        1.35763463]
 [0.5        0.40071863]
 [0.6        1.66804391]
 [0.7        0.9369016 ]
 [0.8        1.28942555]
 [0.9        0.91090345]
 [1.         1.13070963]
 [1.09391667 1.90359161]]",0,1.21
1,m,25,english,5,2,english,2024-02-07 14:21:25.665371,False,2,349,sounds\english\audio/english_713.wav,"[[  0.         -93.47933458]
 [  0.1         17.56811932]
 [  0.2         35.67998285]
 [  0.3         22.32245501]
 [  0.4        -55.00810372]
 [  0.5        -25.94753581]
 [  0.6         12.36521929]
 [  0.7         42.68303221]
 [  0.8         68.77442649]
 [  0.9        -39.13144034]
 [  1.          48.51746803]
 [  1.09391667 -19.71329918]]","[[0.         1.62613831]
 [0.1        0.15624323]
 [0.2        1.16642221]
 [0.3        1.85687669]
 [0.4        0.77296433]
 [0.5        0.17905086]
 [0.6        0.48201302]
 [0.7        0.74996995]
 [0.8        1.90885108]
 [0.9        0.17419233]
 [1.         1.84801942]
 [1.09391667 0.87144157]]",0,0.475
1,m,25,english,5,2,english,2024-02-07 14:21:25.665371,False,2,350,sounds\english\audio/english_542.wav,"[[  0.          77.25836123]
 [  0.1          4.96687677]
 [  0.2        -69.63893361]
 [  0.3         36.13476154]
 [  0.4         29.93419476]
 [  0.5        -71.22267205]
 [  0.6        -30.36103617]
 [  0.7        -14.05066862]
 [  0.8         21.39979207]
 [  0.9          0.74742826]
 [  1.          44.77375782]
 [  1.09391667 -66.5594785 ]]","[[0.         0.87207269]
 [0.1        0.90240888]
 [0.2        0.25644456]
 [0.3        0.86696527]
 [0.4        1.70387716]
 [0.5        1.80144796]
 [0.6        0.29401729]
 [0.7        1.14442321]
 [0.8        1.80586802]
 [0.9        1.77494895]
 [1.         0.36146727]
 [1.09391667 1.85294654]]",0,0.315
1,m,25,english,5,2,english,2024-02-07 14:21:25.665371,False,2,351,sounds\english\audio/english_711.wav,"[[  0.           5.56697991]
 [  0.1        -24.51973587]
 [  0.2         14.74252879]
 [  0.3         62.90835999]
 [  0.4        -30.148836  ]
 [  0.5        -90.0367138 ]
 [  0.6         23.29272454]
 [  0.7         51.00007107]
 [  0.8         -5.61877019]
 [  0.9          4.00444287]
 [  1.          81.75034051]
 [  1.09391667 -78.99678836]]","[[0.         1.20296493]
 [0.1        1.05892315]
 [0.2        0.52339911]
 [0.3        1.255633  ]
 [0.4        1.66876465]
 [0.5        0.2337908 ]
 [0.6        0.4494252 ]
 [0.7        1.6594433 ]
 [0.8        1.49925628]
 [0.9        1.73015634]
 [1.         1.46308192]
 [1.09391667 1.6603821 ]]",0,0.395
1,m,25,english,5,2,english,2024-02-07 14:21:25.665371,False,2,352,sounds\english\audio/english_154.wav,"[[  0.          50.07590523]
 [  0.1         54.36539589]
 [  0.2        -33.00647988]
 [  0.3        -21.71222975]
 [  0.4        -59.72627018]
 [  0.5        -65.27928089]
 [  0.6         25.37742378]
 [  0.7          7.20174616]
 [  0.8        -20.24283456]
 [  0.9        -23.90559996]
 [  1.          71.61106984]
 [  1.09391667  25.6022542 ]]","[[0.         1.91490825]
 [0.1        1.49511577]
 [0.2        0.88521845]
 [0.3        1.92896632]
 [0.4        1.65018162]
 [0.5        0.16844772]
 [0.6        1.26574184]
 [0.7        1.59894503]
 [0.8        1.83170987]
 [0.9        1.31030459]
 [1.         0.51427228]
 [1.09391667 1.19971073]]",0,0.422
1,m,25,english,5,2,english,2024-02-07 14:21:25.665371,False,2,353,sounds\english\audio/english_813.wav,"[[  0.         -21.47810291]
 [  0.1        -84.13417806]
 [  0.2        -18.57483833]
 [  0.3         85.46223106]
 [  0.4        -47.12255135]
 [  0.5         55.13909294]
 [  0.6        -92.27868598]
 [  0.7        -98.65237277]
 [  0.8        -73.59665384]
 [  0.9         99.75598896]
 [  1.          22.46235737]
 [  1.09391667 -23.97281603]]","[[0.         0.42494113]
 [0.1        0.85563352]
 [0.2        1.62435889]
 [0.3        1.84520067]
 [0.4        0.16630065]
 [0.5        1.66622477]
 [0.6        1.29440347]
 [0.7        1.30366   ]
 [0.8        0.95942882]
 [0.9        0.41648042]
 [1.         0.55260475]
 [1.09391667 0.8655965 ]]",1,2.113
1,m,25,english,5,2,english,2024-02-07 14:21:25.665371,False,2,354,sounds\english\audio/english_184.wav,"[[  0.         -74.14199581]
 [  0.1         89.94537867]
 [  0.2        -97.85495654]
 [  0.3         32.1848514 ]
 [  0.4        -18.16351382]
 [  0.5         45.53126648]
 [  0.6        -65.36095863]
 [  0.7        -40.1441705 ]
 [  0.8         67.58790179]
 [  0.9         83.12820885]
 [  1.          51.68582171]
 [  1.09391667  49.78372489]]","[[0.         0.56604578]
 [0.1        0.76750271]
 [0.2        1.21496016]
 [0.3        1.29013374]
 [0.4        0.9359149 ]
 [0.5        0.64815145]
 [0.6        1.94413917]
 [0.7        0.65249887]
 [0.8        1.32844944]
 [0.9        0.04188573]
 [1.         1.11136781]
 [1.09391667 0.42919135]]",0,1.49
1,m,25,english,5,2,english,2024-02-07 14:21:25.665371,False,2,355,sounds\english\audio/english_219.wav,"[[  0.         -71.22269302]
 [  0.1         81.0106601 ]
 [  0.2         57.89841848]
 [  0.3        -20.90242642]
 [  0.4        -14.30711836]
 [  0.5        -91.16050531]
 [  0.6        -51.25509361]
 [  0.7        -32.58617714]
 [  0.8         -1.65304819]
 [  0.9        -46.25752807]
 [  1.         -57.14980858]
 [  1.09391667  -0.56518547]]","[[0.         0.64229707]
 [0.1        0.83761643]
 [0.2        0.27469413]
 [0.3        1.66128254]
 [0.4        1.11706047]
 [0.5        0.71185951]
 [0.6        0.78321207]
 [0.7        1.3379864 ]
 [0.8        1.4411775 ]
 [0.9        1.25595477]
 [1.         0.30425647]
 [1.09391667 1.82291256]]",0,0.504
1,m,25,english,5,2,english,2024-02-07 14:21:25.665371,False,2,356,sounds\english\audio/english_59.wav,"[[  0.          13.6818357 ]
 [  0.1        -62.28772111]
 [  0.2         49.12418905]
 [  0.3        -11.37021527]
 [  0.4        -54.18333873]
 [  0.5         89.00177849]
 [  0.6        -39.13145847]
 [  0.7         -8.40184911]
 [  0.8        -34.91016987]
 [  0.9         92.47037208]
 [  1.          91.56160698]
 [  1.09391667 -64.52293265]]","[[0.         1.39102809]
 [0.1        1.7641323 ]
 [0.2        1.93370096]
 [0.3        1.41546104]
 [0.4        1.8712645 ]
 [0.5        1.58142361]
 [0.6        1.31038649]
 [0.7        1.79881342]
 [0.8        0.00761053]
 [0.9        0.77279167]
 [1.         0.86326769]
 [1.09391667 1.19458968]]",1,0.441
1,m,25,english,5,2,english,2024-02-07 14:21:25.665371,False,2,357,sounds\english\audio/english_834.wav,"[[  0.         -86.16375599]
 [  0.1        -22.09919923]
 [  0.2         63.82090938]
 [  0.3         38.26115817]
 [  0.4         15.19654457]
 [  0.5         78.054871  ]
 [  0.6         63.1081572 ]
 [  0.7         43.43236214]
 [  0.8        -74.3897683 ]
 [  0.9         40.24285486]
 [  1.         -67.71571624]
 [  1.09391667  40.03958616]]","[[0.         1.62153397]
 [0.1        1.42577166]
 [0.2        1.22840095]
 [0.3        1.977843  ]
 [0.4        0.63466945]
 [0.5        1.94429469]
 [0.6        0.531594  ]
 [0.7        1.34157161]
 [0.8        1.32269287]
 [0.9        1.75386624]
 [1.         1.01238939]
 [1.09391667 1.44306133]]",0,0.518
1,m,25,english,5,2,english,2024-02-07 14:21:25.665371,False,2,358,sounds\english\audio/english_16.wav,"[[  0.         -95.82299592]
 [  0.1         39.71770068]
 [  0.2        -50.41901013]
 [  0.3         41.82102444]
 [  0.4        -73.05638391]
 [  0.5         28.80379611]
 [  0.6        -13.12693215]
 [  0.7         59.55853505]
 [  0.8         16.13501887]
 [  0.9         11.1554393 ]
 [  1.         -28.11091573]
 [  1.09391667  52.80390011]]","[[0.         1.96941265]
 [0.1        0.75253104]
 [0.2        0.57750403]
 [0.3        1.43380195]
 [0.4        0.97483924]
 [0.5        0.97914362]
 [0.6        1.4436464 ]
 [0.7        0.23795563]
 [0.8        0.01104125]
 [0.9        1.97744108]
 [1.         0.69321363]
 [1.09391667 1.73006612]]",1,0.604
1,m,25,english,5,2,english,2024-02-07 14:21:25.665371,False,2,359,sounds\english\audio/english_249.wav,"[[  0.          76.25739469]
 [  0.1        -72.9034905 ]
 [  0.2        -34.31284512]
 [  0.3         23.60127817]
 [  0.4         51.01923595]
 [  0.5        -89.59911495]
 [  0.6         34.41203989]
 [  0.7         52.60913862]
 [  0.8        -90.65371811]
 [  0.9        -64.64204846]
 [  1.         -86.58401711]
 [  1.09391667 -34.03680634]]","[[0.         0.56602806]
 [0.1        1.86013856]
 [0.2        1.49321079]
 [0.3        0.47941188]
 [0.4        0.65185377]
 [0.5        1.3750676 ]
 [0.6        1.54319682]
 [0.7        0.09952226]
 [0.8        0.08638802]
 [0.9        1.60736563]
 [1.         0.42122312]
 [1.09391667 0.01186603]]",1,0.435
1,m,25,english,5,2,english,2024-02-07 14:21:25.665371,False,2,360,sounds\english\audio/english_837.wav,"[[  0.         -19.55907837]
 [  0.1         81.5519268 ]
 [  0.2         51.06726568]
 [  0.3         11.56573734]
 [  0.4          3.9548588 ]
 [  0.5        -33.36822777]
 [  0.6         36.7691739 ]
 [  0.7        -18.61244812]
 [  0.8         16.54769658]
 [  0.9        -37.16394557]
 [  1.          10.95001842]
 [  1.09391667  34.38345354]]","[[0.         0.36214908]
 [0.1        1.07178346]
 [0.2        0.32034272]
 [0.3        0.28433719]
 [0.4        0.83672743]
 [0.5        0.19314145]
 [0.6        0.96322299]
 [0.7        1.32224338]
 [0.8        1.87041814]
 [0.9        0.06067537]
 [1.         0.49261583]
 [1.09391667 1.54886366]]",0,0.447
1,m,25,english,5,2,english,2024-02-07 14:21:25.665371,False,2,361,sounds\english\audio/english_416.wav,"[[  0.          82.43182744]
 [  0.1         53.03166004]
 [  0.2         97.51798843]
 [  0.3         29.41957171]
 [  0.4        -25.73379092]
 [  0.5        -41.53228359]
 [  0.6        -18.26850451]
 [  0.7         36.25947798]
 [  0.8          3.82481386]
 [  0.9         51.45810025]
 [  1.           0.92473006]
 [  1.09391667  18.75162815]]","[[0.         0.48127721]
 [0.1        0.55506125]
 [0.2        1.10002465]
 [0.3        0.46187328]
 [0.4        1.80124094]
 [0.5        1.29733702]
 [0.6        0.88634114]
 [0.7        0.74571926]
 [0.8        0.12319745]
 [0.9        1.56017106]
 [1.         1.11470687]
 [1.09391667 1.36917422]]",1,0.369
1,m,25,english,5,2,english,2024-02-07 14:21:25.665371,False,2,362,sounds\english\audio/english_892.wav,"[[  0.         -38.86767844]
 [  0.1         29.31331075]
 [  0.2         37.64120423]
 [  0.3         25.96997634]
 [  0.4         25.06772021]
 [  0.5         19.15395825]
 [  0.6         96.7473058 ]
 [  0.7        -43.25342834]
 [  0.8        -30.92807771]
 [  0.9        -18.81814059]
 [  1.          21.2135068 ]
 [  1.09391667  36.95597597]]","[[0.         1.06552273]
 [0.1        1.21891825]
 [0.2        0.29574975]
 [0.3        0.59708479]
 [0.4        1.90102073]
 [0.5        0.08656429]
 [0.6        1.91022134]
 [0.7        0.18523015]
 [0.8        0.17424813]
 [0.9        1.10584125]
 [1.         1.16786025]
 [1.09391667 1.53062308]]",1,0.373
1,m,25,english,5,2,english,2024-02-07 14:21:25.665371,False,2,363,sounds\english\audio/english_521.wav,"[[  0.           5.37787975]
 [  0.1          9.32249591]
 [  0.2          4.19745407]
 [  0.3        -75.18613478]
 [  0.4         87.02780947]
 [  0.5        -73.26225675]
 [  0.6         66.15406762]
 [  0.7         -9.80579818]
 [  0.8         17.20812603]
 [  0.9         21.88979452]
 [  1.         -69.39969828]
 [  1.09391667 -64.03153918]]","[[0.         1.11621025]
 [0.1        0.69917502]
 [0.2        0.1199413 ]
 [0.3        1.762579  ]
 [0.4        1.43452798]
 [0.5        0.23094002]
 [0.6        1.51181612]
 [0.7        1.4155143 ]
 [0.8        1.82718341]
 [0.9        1.93759588]
 [1.         1.70606784]
 [1.09391667 0.09885652]]",0,0.206
1,m,25,english,5,2,english,2024-02-07 14:21:25.665371,False,2,364,sounds\english\audio/english_73.wav,"[[  0.          38.52625464]
 [  0.1         17.92930882]
 [  0.2        -38.01807157]
 [  0.3         85.72989632]
 [  0.4         64.07938426]
 [  0.5         35.13086045]
 [  0.6        -51.81368524]
 [  0.7         67.25389113]
 [  0.8        -86.27446695]
 [  0.9        -27.14939681]
 [  1.          96.8565589 ]
 [  1.09391667  51.55403573]]","[[0.         1.16533306]
 [0.1        0.44885559]
 [0.2        0.25634763]
 [0.3        0.76435582]
 [0.4        0.66279224]
 [0.5        0.74817845]
 [0.6        1.61498224]
 [0.7        0.87077327]
 [0.8        1.49803977]
 [0.9        1.76361979]
 [1.         0.06686871]
 [1.09391667 1.63588343]]",0,0.408
1,m,25,english,5,2,english,2024-02-07 14:21:25.665371,False,2,365,sounds\english\audio/english_509.wav,"[[  0.         -60.47633283]
 [  0.1         62.43182062]
 [  0.2        -89.10254598]
 [  0.3        -56.00324349]
 [  0.4        -22.97503075]
 [  0.5        -10.58010289]
 [  0.6         41.52809509]
 [  0.7         11.42336317]
 [  0.8        -33.49389875]
 [  0.9        -76.54160855]
 [  1.          67.53120636]
 [  1.09391667  52.42137891]]","[[0.         1.8433091 ]
 [0.1        0.67753575]
 [0.2        0.6228286 ]
 [0.3        1.20175852]
 [0.4        0.68327781]
 [0.5        1.6981399 ]
 [0.6        1.77808046]
 [0.7        0.9915964 ]
 [0.8        1.58247003]
 [0.9        0.51702523]
 [1.         1.67242009]
 [1.09391667 0.41732509]]",0,0.249
1,m,25,english,5,2,english,2024-02-07 14:21:25.665371,False,2,366,sounds\english\audio/english_849.wav,"[[  0.           3.14918828]
 [  0.1        -23.77765777]
 [  0.2         33.06216364]
 [  0.3        -62.11705981]
 [  0.4          7.17201603]
 [  0.5        -75.75571993]
 [  0.6        -11.73418988]
 [  0.7        -67.42384643]
 [  0.8         50.24136352]
 [  0.9        -60.42241677]
 [  1.          70.30658547]
 [  1.09391667  -8.44903954]]","[[0.         0.91646938]
 [0.1        0.05935653]
 [0.2        1.47739407]
 [0.3        0.33072981]
 [0.4        0.11578877]
 [0.5        1.27391033]
 [0.6        0.32212457]
 [0.7        1.51956894]
 [0.8        0.3318501 ]
 [0.9        0.78089197]
 [1.         0.6122717 ]
 [1.09391667 1.08036793]]",1,0.216
1,m,25,english,5,2,english,2024-02-07 14:21:25.665371,False,2,367,sounds\english\audio/english_299.wav,"[[  0.         -74.4174694 ]
 [  0.1         67.95279973]
 [  0.2        -39.20846612]
 [  0.3         75.10442899]
 [  0.4         64.17156696]
 [  0.5        -42.38450544]
 [  0.6        -86.29317574]
 [  0.7         11.40905892]
 [  0.8         13.2984643 ]
 [  0.9        -36.56440039]
 [  1.         -93.57212319]
 [  1.09391667  13.37429031]]","[[0.         1.88606728]
 [0.1        1.33791825]
 [0.2        1.49728268]
 [0.3        0.10286405]
 [0.4        0.88852199]
 [0.5        0.77437708]
 [0.6        1.38211023]
 [0.7        1.00427558]
 [0.8        1.53256025]
 [0.9        1.00789046]
 [1.         0.84413966]
 [1.09391667 1.54480909]]",0,0.499
1,m,25,english,5,2,english,2024-02-07 14:21:25.665371,False,2,368,sounds\english\audio/english_583.wav,"[[  0.         -89.46926799]
 [  0.1        -21.95760647]
 [  0.2         51.54638902]
 [  0.3        -19.59460838]
 [  0.4        -80.65157181]
 [  0.5         13.46564549]
 [  0.6         -1.99224774]
 [  0.7         96.26030273]
 [  0.8        -75.70856073]
 [  0.9         40.78035579]
 [  1.           3.65984432]
 [  1.09391667 -26.98513255]]","[[0.         1.93205848]
 [0.1        0.52539253]
 [0.2        0.25359823]
 [0.3        0.46642282]
 [0.4        0.25879931]
 [0.5        0.54774352]
 [0.6        1.89783447]
 [0.7        0.46572744]
 [0.8        0.69184565]
 [0.9        1.20488206]
 [1.         1.22997803]
 [1.09391667 1.99403249]]",1,0.6
1,m,25,english,5,2,english,2024-02-07 14:21:25.665371,False,2,369,sounds\english\audio/english_199.wav,"[[  0.          11.88199512]
 [  0.1        -46.96504702]
 [  0.2         91.54002169]
 [  0.3         99.89394598]
 [  0.4        -50.70673656]
 [  0.5          3.76891672]
 [  0.6         96.91424304]
 [  0.7         -8.03082423]
 [  0.8         10.21194857]
 [  0.9         73.92851664]
 [  1.          29.02383929]
 [  1.09391667 -91.13840346]]","[[0.         1.7718025 ]
 [0.1        0.76735149]
 [0.2        1.87614546]
 [0.3        1.34343154]
 [0.4        1.06602126]
 [0.5        0.62776747]
 [0.6        1.16622983]
 [0.7        0.99062008]
 [0.8        0.73939337]
 [0.9        0.60539997]
 [1.         1.28070052]
 [1.09391667 0.2785568 ]]",0,0.392
1,m,25,english,5,2,english,2024-02-07 14:21:25.665371,False,2,370,sounds\english\audio/english_985.wav,"[[  0.         -83.24919271]
 [  0.1        -61.40218693]
 [  0.2         75.6831096 ]
 [  0.3        -83.55103169]
 [  0.4        -76.60569971]
 [  0.5         93.43834668]
 [  0.6         46.86841289]
 [  0.7         11.38653049]
 [  0.8          5.98716874]
 [  0.9          6.47503028]
 [  1.          53.75316558]
 [  1.09391667 -17.57703362]]","[[0.         0.45698213]
 [0.1        1.0383787 ]
 [0.2        1.83439409]
 [0.3        1.46493433]
 [0.4        0.92668276]
 [0.5        1.27852145]
 [0.6        1.04356397]
 [0.7        1.03370788]
 [0.8        0.43255879]
 [0.9        0.84647211]
 [1.         1.92237121]
 [1.09391667 0.19853323]]",1,0.366
1,m,25,english,5,2,english,2024-02-07 14:21:25.665371,False,2,371,sounds\english\audio/english_821.wav,"[[  0.          60.02897282]
 [  0.1        -31.71016541]
 [  0.2         65.3097336 ]
 [  0.3         39.90488009]
 [  0.4         65.66520818]
 [  0.5        -73.56912207]
 [  0.6          0.74999233]
 [  0.7         64.12769535]
 [  0.8        -79.18665898]
 [  0.9        -84.62050136]
 [  1.          99.19624858]
 [  1.09391667  71.58670695]]","[[0.         0.81118736]
 [0.1        1.4887669 ]
 [0.2        0.65578563]
 [0.3        0.99843063]
 [0.4        0.54862628]
 [0.5        0.9620802 ]
 [0.6        1.96570853]
 [0.7        1.86660776]
 [0.8        0.48590566]
 [0.9        1.1315153 ]
 [1.         1.62744853]
 [1.09391667 1.94836872]]",1,0.995
1,m,25,english,5,2,english,2024-02-07 14:21:25.665371,False,2,372,sounds\english\audio/english_888.wav,"[[  0.         -39.7925546 ]
 [  0.1        -49.30113257]
 [  0.2          5.97243806]
 [  0.3         16.41276851]
 [  0.4         72.72751695]
 [  0.5         30.43059144]
 [  0.6        -50.61460993]
 [  0.7         27.35581245]
 [  0.8        -42.43293374]
 [  0.9         65.78948432]
 [  1.          10.78660964]
 [  1.09391667 -21.51817703]]","[[0.         0.13458958]
 [0.1        1.48324952]
 [0.2        0.77423602]
 [0.3        0.11110742]
 [0.4        0.50050507]
 [0.5        1.62800327]
 [0.6        0.52150538]
 [0.7        1.33185555]
 [0.8        1.57744059]
 [0.9        0.93033448]
 [1.         1.1520653 ]
 [1.09391667 1.84815249]]",0,0.281
1,m,25,english,5,2,english,2024-02-07 14:21:25.665371,False,2,373,sounds\english\audio/english_331.wav,"[[  0.         -64.72276527]
 [  0.1        -64.60107944]
 [  0.2         43.10237597]
 [  0.3          3.97944271]
 [  0.4         53.93002911]
 [  0.5        -98.69413197]
 [  0.6         76.42202474]
 [  0.7        -50.14036669]
 [  0.8         61.5779926 ]
 [  0.9        -56.16895328]
 [  1.           5.62439148]
 [  1.09391667 -39.06443994]]","[[0.         1.69014175]
 [0.1        0.93306192]
 [0.2        1.51219836]
 [0.3        1.83280239]
 [0.4        0.32272679]
 [0.5        0.14451959]
 [0.6        0.4727661 ]
 [0.7        0.90462805]
 [0.8        1.98401372]
 [0.9        0.59081959]
 [1.         1.38184498]
 [1.09391667 0.44356806]]",0,0.435
1,m,25,english,5,2,english,2024-02-07 14:21:25.665371,False,2,374,sounds\english\audio/english_627.wav,"[[  0.          61.61292799]
 [  0.1         56.33641902]
 [  0.2        -89.79026277]
 [  0.3        -79.74264658]
 [  0.4         23.07538857]
 [  0.5        -10.76343706]
 [  0.6         -5.69473489]
 [  0.7         -7.26950502]
 [  0.8         15.57475433]
 [  0.9          3.14852465]
 [  1.          33.23262787]
 [  1.09391667 -88.39615435]]","[[0.         1.38806705]
 [0.1        0.72797241]
 [0.2        1.31326188]
 [0.3        1.97676424]
 [0.4        1.13729178]
 [0.5        0.13245486]
 [0.6        0.69323738]
 [0.7        1.4848786 ]
 [0.8        1.9356485 ]
 [0.9        1.60625319]
 [1.         0.88492326]
 [1.09391667 1.31394344]]",0,0.405
1,m,25,english,5,2,english,2024-02-07 14:21:25.665371,False,2,375,sounds\english\audio/english_456.wav,"[[  0.          71.04099317]
 [  0.1        -42.03930608]
 [  0.2         46.93563502]
 [  0.3        -51.87328236]
 [  0.4         10.60142126]
 [  0.5         59.34112363]
 [  0.6        -57.32922539]
 [  0.7         63.74085998]
 [  0.8         80.12937217]
 [  0.9        -45.30017258]
 [  1.          30.99436051]
 [  1.09391667  18.44545635]]","[[0.         0.32232713]
 [0.1        1.90963826]
 [0.2        0.28107249]
 [0.3        0.54097624]
 [0.4        0.28507748]
 [0.5        1.95449542]
 [0.6        0.17900475]
 [0.7        0.64982675]
 [0.8        1.14361022]
 [0.9        0.6672144 ]
 [1.         0.14207979]
 [1.09391667 0.00415302]]",1,0.837
1,m,25,english,5,2,english,2024-02-07 14:21:25.665371,False,2,376,sounds\english\audio/english_934.wav,"[[  0.         -11.34943225]
 [  0.1         65.85322301]
 [  0.2        -85.4605192 ]
 [  0.3         13.55265206]
 [  0.4          0.50969379]
 [  0.5         69.19486286]
 [  0.6        -98.42209139]
 [  0.7        -96.61496438]
 [  0.8        -65.00160108]
 [  0.9         48.73056023]
 [  1.          10.84569579]
 [  1.09391667  97.87119684]]","[[0.         0.24415631]
 [0.1        1.37961224]
 [0.2        1.63298201]
 [0.3        0.01798396]
 [0.4        0.66397169]
 [0.5        0.2241268 ]
 [0.6        1.8505399 ]
 [0.7        1.29472214]
 [0.8        0.83065813]
 [0.9        1.34944931]
 [1.         1.40216081]
 [1.09391667 1.98377201]]",1,1.233
1,m,25,english,5,2,english,2024-02-07 14:21:25.665371,False,2,377,sounds\english\audio/english_111.wav,"[[  0.          -7.89423459]
 [  0.1        -50.39853442]
 [  0.2         85.22773015]
 [  0.3         -7.88513069]
 [  0.4        -36.68324303]
 [  0.5         -4.8649615 ]
 [  0.6        -92.19494919]
 [  0.7         -6.11032283]
 [  0.8         41.34470973]
 [  0.9        -73.07088632]
 [  1.          50.36502587]
 [  1.09391667 -49.90215361]]","[[0.         1.73172447]
 [0.1        1.30536321]
 [0.2        0.28962065]
 [0.3        1.6166787 ]
 [0.4        0.55677008]
 [0.5        1.31756148]
 [0.6        1.4789538 ]
 [0.7        0.53950686]
 [0.8        0.89868821]
 [0.9        0.90401257]
 [1.         0.61580764]
 [1.09391667 1.87610476]]",1,0.785
1,m,25,english,5,2,english,2024-02-07 14:21:25.665371,False,2,378,sounds\english\audio/english_452.wav,"[[  0.         -16.61864147]
 [  0.1        -22.13078498]
 [  0.2        -16.24569285]
 [  0.3          2.20276296]
 [  0.4         38.28427002]
 [  0.5        -18.79047659]
 [  0.6         78.89075327]
 [  0.7         92.92821396]
 [  0.8         97.94945302]
 [  0.9         87.69669084]
 [  1.          59.46975303]
 [  1.09391667  33.32060313]]","[[0.         1.17401117]
 [0.1        0.56539659]
 [0.2        0.39679082]
 [0.3        1.32249954]
 [0.4        1.17645405]
 [0.5        1.63330715]
 [0.6        1.91411401]
 [0.7        1.71360753]
 [0.8        1.56668356]
 [0.9        1.33916848]
 [1.         0.94959461]
 [1.09391667 0.70317006]]",0,0.347
1,m,25,english,5,2,english,2024-02-07 14:21:25.665371,False,2,379,sounds\english\audio/english_380.wav,"[[  0.         -98.28114878]
 [  0.1         56.78361718]
 [  0.2         85.44160667]
 [  0.3        -84.55731912]
 [  0.4         49.20342555]
 [  0.5        -52.595959  ]
 [  0.6         98.42131641]
 [  0.7          9.72308327]
 [  0.8         12.04937736]
 [  0.9        -39.23819918]
 [  1.          44.86165429]
 [  1.09391667  -9.34942597]]","[[0.         1.65071685]
 [0.1        0.83910099]
 [0.2        0.37505411]
 [0.3        1.88837589]
 [0.4        1.08728138]
 [0.5        1.97160724]
 [0.6        1.47544821]
 [0.7        1.24926611]
 [0.8        0.22244064]
 [0.9        0.47451493]
 [1.         1.20182695]
 [1.09391667 1.47839352]]",1,0.453
1,m,25,english,5,2,english,2024-02-07 14:21:25.665371,False,2,380,sounds\english\audio/english_833.wav,"[[  0.          -9.82911833]
 [  0.1         26.84576298]
 [  0.2        -28.2282446 ]
 [  0.3         66.90500865]
 [  0.4        -49.09073162]
 [  0.5        -87.4525088 ]
 [  0.6         32.13028208]
 [  0.7        -17.61981843]
 [  0.8        -38.32230825]
 [  0.9         65.65277193]
 [  1.         -65.08326891]
 [  1.09391667  73.10934072]]","[[0.         0.41898606]
 [0.1        1.36279301]
 [0.2        1.58440298]
 [0.3        0.74607222]
 [0.4        0.77124081]
 [0.5        1.83467454]
 [0.6        0.88970779]
 [0.7        1.25647355]
 [0.8        1.59512471]
 [0.9        0.88454985]
 [1.         1.48034163]
 [1.09391667 1.02393934]]",0,0.212
1,m,25,english,5,2,english,2024-02-07 14:21:25.665371,False,2,381,sounds\english\audio/english_598.wav,"[[  0.          66.59254232]
 [  0.1         -0.16294116]
 [  0.2         87.91623233]
 [  0.3          4.78179149]
 [  0.4         87.27330533]
 [  0.5         15.94205468]
 [  0.6        -57.72302194]
 [  0.7        -11.53545195]
 [  0.8        -97.23766847]
 [  0.9        -89.11050407]
 [  1.          -7.65193873]
 [  1.09391667  -0.117565  ]]","[[0.         1.11503085]
 [0.1        1.29891619]
 [0.2        0.04302605]
 [0.3        1.90355783]
 [0.4        0.66957129]
 [0.5        1.28062406]
 [0.6        0.15067731]
 [0.7        0.37044447]
 [0.8        0.00668091]
 [0.9        1.24076678]
 [1.         0.4751477 ]
 [1.09391667 1.3589293 ]]",1,0.863
1,m,25,english,5,2,english,2024-02-07 14:21:25.665371,False,2,382,sounds\english\audio/english_707.wav,"[[  0.           7.00891716]
 [  0.1         74.96034683]
 [  0.2        -68.0333814 ]
 [  0.3         58.29848436]
 [  0.4        -84.31982667]
 [  0.5         35.8298309 ]
 [  0.6        -38.90477455]
 [  0.7         82.66036962]
 [  0.8        -14.24432163]
 [  0.9         25.44052546]
 [  1.         -83.90842928]
 [  1.09391667 -32.29890156]]","[[0.         0.72720076]
 [0.1        1.51197727]
 [0.2        0.14777377]
 [0.3        0.12739287]
 [0.4        0.76569704]
 [0.5        0.136889  ]
 [0.6        1.7747503 ]
 [0.7        1.07544151]
 [0.8        1.02550143]
 [0.9        1.01640219]
 [1.         0.78720721]
 [1.09391667 1.33640167]]",0,0.323
1,m,25,english,5,2,english,2024-02-07 14:21:25.665371,False,2,383,sounds\english\audio/english_67.wav,"[[  0.         -84.65948026]
 [  0.1         84.7606233 ]
 [  0.2         84.84791272]
 [  0.3        -54.63561635]
 [  0.4        -93.28689033]
 [  0.5         15.62357322]
 [  0.6         70.84522179]
 [  0.7         18.01432969]
 [  0.8        -96.46193504]
 [  0.9        -76.01913404]
 [  1.          21.66220953]
 [  1.09391667  58.72019725]]","[[0.         1.62658343]
 [0.1        0.18718182]
 [0.2        1.32224913]
 [0.3        1.26573793]
 [0.4        0.84125882]
 [0.5        0.24401609]
 [0.6        0.63082719]
 [0.7        0.80351313]
 [0.8        0.91980261]
 [0.9        0.79845133]
 [1.         1.38280114]
 [1.09391667 0.4179158 ]]",0,0.679
1,m,25,english,5,2,english,2024-02-07 14:21:25.665371,False,2,384,sounds\english\audio/english_464.wav,"[[  0.         -23.34522256]
 [  0.1        -19.55225305]
 [  0.2        -17.46601835]
 [  0.3        -18.06083259]
 [  0.4         39.93999663]
 [  0.5         18.26379158]
 [  0.6         29.05119834]
 [  0.7        -59.7360239 ]
 [  0.8         88.20887552]
 [  0.9         -3.73411856]
 [  1.         -94.561572  ]
 [  1.09391667 -28.03048225]]","[[0.         1.83574023]
 [0.1        1.45464116]
 [0.2        0.96557802]
 [0.3        0.862048  ]
 [0.4        1.49154181]
 [0.5        0.8466408 ]
 [0.6        1.01287791]
 [0.7        0.24671588]
 [0.8        1.40889965]
 [0.9        0.91232797]
 [1.         0.94183149]
 [1.09391667 1.23465261]]",1,0.587
1,m,25,english,5,2,english,2024-02-07 14:21:25.665371,False,2,385,sounds\english\audio/english_204.wav,"[[  0.         -54.18548322]
 [  0.1        -11.27218157]
 [  0.2         57.70913134]
 [  0.3        -85.27797026]
 [  0.4         28.61054009]
 [  0.5        -36.71816677]
 [  0.6        -27.72446487]
 [  0.7         14.69142801]
 [  0.8          9.61746044]
 [  0.9         22.67127582]
 [  1.          69.36328148]
 [  1.09391667 -44.4283226 ]]","[[0.         0.4935822 ]
 [0.1        1.37686427]
 [0.2        1.17627269]
 [0.3        1.14645494]
 [0.4        1.61303053]
 [0.5        0.72559221]
 [0.6        1.95000364]
 [0.7        0.06695508]
 [0.8        1.52094915]
 [0.9        0.41034945]
 [1.         0.4470276 ]
 [1.09391667 1.93225144]]",0,0.431
1,m,25,english,5,2,english,2024-02-07 14:21:25.665371,False,2,386,sounds\english\audio/english_80.wav,"[[  0.          15.98753908]
 [  0.1        -56.19575542]
 [  0.2         -3.20238754]
 [  0.3         78.26727965]
 [  0.4        -34.16157501]
 [  0.5        -80.06220611]
 [  0.6         26.74823286]
 [  0.7         37.47089689]
 [  0.8         26.79850159]
 [  0.9        -24.50397544]
 [  1.          43.76607114]
 [  1.09391667  10.09103426]]","[[0.         1.07609062]
 [0.1        0.12895948]
 [0.2        1.07538029]
 [0.3        0.04332835]
 [0.4        1.09018765]
 [0.5        0.93581394]
 [0.6        0.96811326]
 [0.7        0.66776739]
 [0.8        0.56521885]
 [0.9        1.65043275]
 [1.         1.48241079]
 [1.09391667 1.57868315]]",1,0.245
1,m,25,english,5,2,english,2024-02-07 14:21:25.665371,False,2,387,sounds\english\audio/english_421.wav,"[[  0.         -77.37875109]
 [  0.1         21.68470971]
 [  0.2         25.95594031]
 [  0.3        -54.56850785]
 [  0.4         24.0018444 ]
 [  0.5        -47.82681182]
 [  0.6        -46.58707105]
 [  0.7         77.25272005]
 [  0.8         77.76425926]
 [  0.9         25.41801762]
 [  1.          38.43952496]
 [  1.09391667  67.75811728]]","[[0.         0.40906671]
 [0.1        0.10764534]
 [0.2        0.09890733]
 [0.3        1.06704705]
 [0.4        0.2085299 ]
 [0.5        0.29426066]
 [0.6        1.5200041 ]
 [0.7        0.50765671]
 [0.8        0.03381604]
 [0.9        1.11402173]
 [1.         1.16253286]
 [1.09391667 1.4554509 ]]",1,0.361
1,m,25,english,5,2,english,2024-02-07 14:21:25.665371,False,2,388,sounds\english\audio/english_621.wav,"[[  0.         -74.24878318]
 [  0.1        -12.82719127]
 [  0.2          3.61853193]
 [  0.3        -16.39499855]
 [  0.4        -89.70056374]
 [  0.5         72.53085493]
 [  0.6         87.29143958]
 [  0.7        -71.1226898 ]
 [  0.8        -39.19004307]
 [  0.9        -51.74295002]
 [  1.         -16.28254182]
 [  1.09391667 -19.75159105]]","[[0.         0.93601321]
 [0.1        0.02173653]
 [0.2        1.07860453]
 [0.3        0.96714094]
 [0.4        1.95658064]
 [0.5        1.88201263]
 [0.6        0.77277656]
 [0.7        1.76144164]
 [0.8        0.10690587]
 [0.9        0.22188414]
 [1.         0.28939347]
 [1.09391667 1.03317567]]",1,0.705
1,m,25,english,5,2,english,2024-02-07 14:21:25.665371,False,2,389,sounds\english\audio/english_614.wav,"[[  0.         -82.48035623]
 [  0.1         79.46307131]
 [  0.2        -34.63501936]
 [  0.3        -36.11573217]
 [  0.4         28.60715933]
 [  0.5        -48.6136036 ]
 [  0.6         -7.2226969 ]
 [  0.7        -29.94263831]
 [  0.8        -84.37614436]
 [  0.9          6.08502503]
 [  1.          89.45930015]
 [  1.09391667 -99.05808014]]","[[0.         0.71590115]
 [0.1        0.88553055]
 [0.2        0.6127243 ]
 [0.3        1.30048752]
 [0.4        0.96267967]
 [0.5        0.63406811]
 [0.6        1.30483529]
 [0.7        0.38784821]
 [0.8        0.63559187]
 [0.9        0.26922563]
 [1.         0.19525475]
 [1.09391667 1.74947328]]",1,1.151
1,m,25,english,5,2,english,2024-02-07 14:21:25.665371,False,2,390,sounds\english\audio/english_719.wav,"[[  0.         -74.07322153]
 [  0.1         35.75598847]
 [  0.2         82.97271333]
 [  0.3         17.0497448 ]
 [  0.4         25.23097934]
 [  0.5          4.16668302]
 [  0.6        -83.53078486]
 [  0.7        -81.53905497]
 [  0.8         32.10709268]
 [  0.9          9.14404491]
 [  1.          56.09727313]
 [  1.09391667 -90.02311852]]","[[0.         0.85431966]
 [0.1        1.01181763]
 [0.2        0.92312945]
 [0.3        0.56497759]
 [0.4        0.45096397]
 [0.5        1.21193737]
 [0.6        0.96594203]
 [0.7        0.58708741]
 [0.8        1.06053437]
 [0.9        1.09641521]
 [1.         1.58822768]
 [1.09391667 0.88380828]]",0,0.279
1,m,25,english,5,2,english,2024-02-07 14:21:25.665371,False,2,391,sounds\english\audio/english_955.wav,"[[  0.          38.31421616]
 [  0.1         -0.24395343]
 [  0.2        -30.85408012]
 [  0.3         73.34311783]
 [  0.4        -91.5837752 ]
 [  0.5         57.97712299]
 [  0.6          6.73272041]
 [  0.7         -3.5280389 ]
 [  0.8        -53.89604604]
 [  0.9         42.44442799]
 [  1.         -51.31943535]
 [  1.09391667 -10.15737525]]","[[0.         0.40317625]
 [0.1        1.41770308]
 [0.2        0.82154239]
 [0.3        1.53285595]
 [0.4        0.89318017]
 [0.5        1.16313419]
 [0.6        0.62969855]
 [0.7        1.12563056]
 [0.8        0.39704544]
 [0.9        0.50354627]
 [1.         0.66246368]
 [1.09391667 0.25441039]]",1,0.662
1,m,25,english,5,2,english,2024-02-07 14:21:25.665371,False,2,392,sounds\english\audio/english_744.wav,"[[  0.          68.01647572]
 [  0.1        -94.84396495]
 [  0.2         -7.3752647 ]
 [  0.3        -81.08479212]
 [  0.4        -44.66331389]
 [  0.5        -77.45989494]
 [  0.6         19.1026234 ]
 [  0.7         -0.63798112]
 [  0.8         74.86031238]
 [  0.9        -35.9107796 ]
 [  1.          -6.98299608]
 [  1.09391667 -12.26999011]]","[[0.         0.92301697]
 [0.1        1.7240092 ]
 [0.2        0.78395161]
 [0.3        1.15168853]
 [0.4        0.98824464]
 [0.5        1.26560798]
 [0.6        0.20042884]
 [0.7        1.76365186]
 [0.8        1.68948901]
 [0.9        0.81659748]
 [1.         1.14393897]
 [1.09391667 0.86480781]]",0,0.252
1,m,25,english,5,2,english,2024-02-07 14:21:25.665371,False,2,393,sounds\english\audio/english_928.wav,"[[  0.          10.59611368]
 [  0.1        -58.33970814]
 [  0.2         48.21332553]
 [  0.3          8.01473442]
 [  0.4          1.23446692]
 [  0.5         75.4888235 ]
 [  0.6        -71.96113636]
 [  0.7        -73.39552856]
 [  0.8        -33.53378549]
 [  0.9          1.07873632]
 [  1.          58.06405964]
 [  1.09391667  15.92112733]]","[[0.         0.70098124]
 [0.1        0.81482125]
 [0.2        0.85809581]
 [0.3        1.28695487]
 [0.4        0.84694823]
 [0.5        0.86088631]
 [0.6        0.91068844]
 [0.7        1.800813  ]
 [0.8        0.14082097]
 [0.9        0.95279098]
 [1.         0.96841151]
 [1.09391667 0.90966091]]",1,0.513
1,m,25,english,5,2,english,2024-02-07 14:21:25.665371,False,2,394,sounds\english\audio/english_233.wav,"[[  0.         -12.45233214]
 [  0.1        -33.20786902]
 [  0.2         -3.84628349]
 [  0.3         52.58812425]
 [  0.4        -82.78729146]
 [  0.5        -90.93928836]
 [  0.6         91.49342166]
 [  0.7         39.27925393]
 [  0.8         -0.66571259]
 [  0.9         50.1456693 ]
 [  1.          -6.64277825]
 [  1.09391667   8.91074874]]","[[0.         1.31283544]
 [0.1        0.09471032]
 [0.2        1.88233627]
 [0.3        1.21028248]
 [0.4        0.9101705 ]
 [0.5        1.74264946]
 [0.6        1.34024886]
 [0.7        0.33883292]
 [0.8        1.35075989]
 [0.9        1.4470152 ]
 [1.         1.15231478]
 [1.09391667 1.87164883]]",0,0.271
1,m,25,english,5,2,english,2024-02-07 14:21:25.665371,False,2,395,sounds\english\audio/english_351.wav,"[[  0.         -19.65986015]
 [  0.1         73.58710044]
 [  0.2         74.12275499]
 [  0.3        -24.45683786]
 [  0.4         21.01511918]
 [  0.5         55.7456538 ]
 [  0.6         54.50583955]
 [  0.7         74.68230433]
 [  0.8        -93.39577551]
 [  0.9         89.8823857 ]
 [  1.          82.37960735]
 [  1.09391667  -9.15420485]]","[[0.         1.42460204]
 [0.1        0.00643347]
 [0.2        0.97495265]
 [0.3        0.52137616]
 [0.4        1.11946487]
 [0.5        0.33788576]
 [0.6        1.25361851]
 [0.7        1.43767459]
 [0.8        0.08040705]
 [0.9        0.01025875]
 [1.         0.65117528]
 [1.09391667 0.78690639]]",1,0.54
1,m,25,english,5,2,english,2024-02-07 14:21:25.665371,False,2,396,sounds\english\audio/english_231.wav,"[[  0.         -62.2179541 ]
 [  0.1        -68.5873809 ]
 [  0.2        -23.63984274]
 [  0.3        -33.31819394]
 [  0.4         73.10663902]
 [  0.5        -43.5142123 ]
 [  0.6         31.90774571]
 [  0.7         86.22472646]
 [  0.8        -71.54568586]
 [  0.9         72.93187179]
 [  1.          29.12885345]
 [  1.09391667 -28.38876841]]","[[0.         1.81174186]
 [0.1        1.83025058]
 [0.2        0.80354138]
 [0.3        1.41218614]
 [0.4        0.69584773]
 [0.5        0.95321477]
 [0.6        1.60478776]
 [0.7        0.79586742]
 [0.8        1.11798483]
 [0.9        1.7522781 ]
 [1.         0.47731109]
 [1.09391667 0.90269173]]",0,0.308
1,m,25,english,5,2,english,2024-02-07 14:21:25.665371,False,2,397,sounds\english\audio/english_175.wav,"[[  0.          38.44646754]
 [  0.1        -23.00340035]
 [  0.2        -30.61543139]
 [  0.3         99.83965835]
 [  0.4        -46.63956487]
 [  0.5        -59.37007197]
 [  0.6         82.40355982]
 [  0.7        -46.17826166]
 [  0.8          9.80730277]
 [  0.9         74.64832737]
 [  1.         -39.17791416]
 [  1.09391667 -90.85337976]]","[[0.         1.34207659]
 [0.1        1.41404042]
 [0.2        1.49080674]
 [0.3        0.72740359]
 [0.4        1.0197188 ]
 [0.5        0.62236458]
 [0.6        1.36261766]
 [0.7        0.8547614 ]
 [0.8        0.21399821]
 [0.9        1.05176786]
 [1.         0.6104539 ]
 [1.09391667 1.60893412]]",1,0.329
1,m,25,english,5,2,english,2024-02-07 14:21:25.665371,False,2,398,sounds\english\audio/english_710.wav,"[[  0.         -39.30636168]
 [  0.1        -97.6674904 ]
 [  0.2         64.09122161]
 [  0.3         75.88571101]
 [  0.4        -88.52762731]
 [  0.5         82.62720899]
 [  0.6        -76.34366579]
 [  0.7         -8.69440278]
 [  0.8        -70.02409217]
 [  0.9         57.25294742]
 [  1.         -12.57900879]
 [  1.09391667  58.69693709]]","[[0.         1.80624949]
 [0.1        0.47182227]
 [0.2        0.70971527]
 [0.3        0.05116828]
 [0.4        1.76085876]
 [0.5        0.52858011]
 [0.6        0.11108823]
 [0.7        1.51710045]
 [0.8        1.27546604]
 [0.9        0.25600017]
 [1.         0.70194387]
 [1.09391667 0.08256398]]",0,0.505
1,m,25,english,5,2,english,2024-02-07 14:21:25.665371,False,2,399,sounds\english\audio/english_672.wav,"[[  0.          43.22685975]
 [  0.1        -54.22036803]
 [  0.2         47.19502214]
 [  0.3         29.48399108]
 [  0.4        -37.13401682]
 [  0.5        -82.77781933]
 [  0.6         26.5489707 ]
 [  0.7        -82.12818914]
 [  0.8          0.43149331]
 [  0.9         36.27396929]
 [  1.         -33.62939759]
 [  1.09391667 -60.08189446]]","[[0.         1.16062379]
 [0.1        1.05074454]
 [0.2        0.58565022]
 [0.3        0.69010583]
 [0.4        1.10560462]
 [0.5        0.90912981]
 [0.6        1.72329615]
 [0.7        1.29141175]
 [0.8        0.15835131]
 [0.9        0.77804924]
 [1.         0.05373679]
 [1.09391667 0.92241163]]",1,0.771
1,m,25,english,5,2,english,2024-02-07 14:21:25.665371,False,2,400,sounds\english\audio/english_5.wav,"[[  0.         -71.05887053]
 [  0.1        -36.04846502]
 [  0.2         68.09307416]
 [  0.3        -71.61609357]
 [  0.4        -14.92970524]
 [  0.5         36.04461977]
 [  0.6         61.01603353]
 [  0.7         22.04787058]
 [  0.8        -76.70141108]
 [  0.9         72.36411847]
 [  1.          -2.42248121]
 [  1.09391667 -45.78406478]]","[[0.         0.69305634]
 [0.1        1.95331705]
 [0.2        0.24939242]
 [0.3        1.30786136]
 [0.4        0.35721873]
 [0.5        1.66367269]
 [0.6        1.49043319]
 [0.7        1.08702194]
 [0.8        0.32363826]
 [0.9        0.22271442]
 [1.         1.0907403 ]
 [1.09391667 0.00462457]]",1,1.055
1,m,25,english,5,2,english,2024-02-07 14:21:25.665371,False,2,401,sounds\english\audio/english_959.wav,"[[  0.         -72.11702721]
 [  0.1        -40.70802273]
 [  0.2         87.64553822]
 [  0.3        -48.2331893 ]
 [  0.4        -95.5440406 ]
 [  0.5         59.94111347]
 [  0.6         91.02979874]
 [  0.7         19.11555726]
 [  0.8         75.67996803]
 [  0.9         92.01217726]
 [  1.         -10.30028839]
 [  1.09391667 -99.09748483]]","[[0.         0.58402208]
 [0.1        1.62475599]
 [0.2        1.65188883]
 [0.3        0.55484279]
 [0.4        0.6061604 ]
 [0.5        1.49451004]
 [0.6        0.05914992]
 [0.7        1.4845686 ]
 [0.8        1.97323442]
 [0.9        0.84762709]
 [1.         0.74785562]
 [1.09391667 1.91422779]]",0,2.379
1,m,25,english,5,2,english,2024-02-07 14:21:25.665371,False,2,402,sounds\english\audio/english_747.wav,"[[  0.          33.9885207 ]
 [  0.1        -71.14283381]
 [  0.2        -52.52906762]
 [  0.3         79.5756924 ]
 [  0.4        -13.30932063]
 [  0.5         25.54535415]
 [  0.6          8.02344494]
 [  0.7        -38.13543806]
 [  0.8         22.33599648]
 [  0.9        -26.77712134]
 [  1.          -6.09351927]
 [  1.09391667  43.23579595]]","[[0.         1.47964533]
 [0.1        1.57695323]
 [0.2        1.13707985]
 [0.3        1.65073603]
 [0.4        0.47172054]
 [0.5        1.37786003]
 [0.6        1.58889604]
 [0.7        1.29683876]
 [0.8        1.65514229]
 [0.9        1.18735968]
 [1.         1.37962036]
 [1.09391667 1.3791581 ]]",0,0.448
1,m,25,english,5,2,english,2024-02-07 14:21:25.665371,False,2,403,sounds\english\audio/english_24.wav,"[[  0.          19.80934614]
 [  0.1         18.47296287]
 [  0.2        -87.44087303]
 [  0.3        -24.76838412]
 [  0.4         28.54854922]
 [  0.5        -93.00925389]
 [  0.6         43.83851229]
 [  0.7         56.50445967]
 [  0.8        -34.51680679]
 [  0.9         77.91008798]
 [  1.          22.21951013]
 [  1.09391667  44.21755505]]","[[0.         1.72303363]
 [0.1        1.17223446]
 [0.2        0.32252022]
 [0.3        1.29113778]
 [0.4        1.23026356]
 [0.5        1.272094  ]
 [0.6        1.03857334]
 [0.7        0.04355902]
 [0.8        1.12262583]
 [0.9        0.83275479]
 [1.         0.49987962]
 [1.09391667 0.6404637 ]]",1,0.52
1,m,25,english,5,2,english,2024-02-07 14:21:25.665371,False,2,404,sounds\english\audio/english_504.wav,"[[  0.         -66.23189197]
 [  0.1         -7.28081394]
 [  0.2        -74.05426979]
 [  0.3         -2.17834407]
 [  0.4        -44.29553612]
 [  0.5        -21.93882769]
 [  0.6         -6.80381408]
 [  0.7          9.00050206]
 [  0.8        -19.58321875]
 [  0.9        -97.27632106]
 [  1.          94.36582119]
 [  1.09391667 -77.55415354]]","[[0.         1.64024725]
 [0.1        1.33861833]
 [0.2        0.21996253]
 [0.3        0.9295354 ]
 [0.4        0.18867482]
 [0.5        0.17745141]
 [0.6        1.36415298]
 [0.7        1.08571676]
 [0.8        1.38544941]
 [0.9        0.33380342]
 [1.         0.16971293]
 [1.09391667 0.89224977]]",0,0.712
1,m,25,english,5,2,english,2024-02-07 14:21:25.665371,False,2,405,sounds\english\audio/english_46.wav,"[[  0.         -14.7704521 ]
 [  0.1         44.71982886]
 [  0.2         54.31186901]
 [  0.3         49.55617509]
 [  0.4         13.89468732]
 [  0.5         -5.62181735]
 [  0.6         46.1003591 ]
 [  0.7         44.70422333]
 [  0.8        -14.85596588]
 [  0.9        -30.71855866]
 [  1.         -75.55345039]
 [  1.09391667   6.43312975]]","[[0.         0.66460672]
 [0.1        0.16115308]
 [0.2        0.69883722]
 [0.3        0.91276183]
 [0.4        1.97897865]
 [0.5        1.5047395 ]
 [0.6        1.97786281]
 [0.7        1.91807099]
 [0.8        0.25212674]
 [0.9        1.85861414]
 [1.         0.72903252]
 [1.09391667 1.80431148]]",1,0.634
1,m,25,english,5,2,english,2024-02-07 14:21:25.665371,False,2,406,sounds\english\audio/english_722.wav,"[[  0.         -57.56576196]
 [  0.1        -19.70677764]
 [  0.2         83.71549809]
 [  0.3          0.72860566]
 [  0.4         23.57010212]
 [  0.5        -90.6432868 ]
 [  0.6          3.97952781]
 [  0.7         47.87385022]
 [  0.8        -10.29099789]
 [  0.9        -55.37554035]
 [  1.         -74.87108339]
 [  1.09391667  32.13407254]]","[[0.         0.04722973]
 [0.1        1.09555253]
 [0.2        0.8122888 ]
 [0.3        0.82350502]
 [0.4        0.7141467 ]
 [0.5        0.19918411]
 [0.6        0.04680372]
 [0.7        0.22857445]
 [0.8        1.06043027]
 [0.9        1.28411096]
 [1.         1.38807885]
 [1.09391667 0.54998416]]",0,0.327
1,m,25,english,5,2,english,2024-02-07 14:21:25.665371,False,2,407,sounds\english\audio/english_703.wav,"[[  0.          78.46017663]
 [  0.1         78.89990628]
 [  0.2          1.22121352]
 [  0.3        -13.66512032]
 [  0.4         59.78772349]
 [  0.5         33.72988184]
 [  0.6        -23.35963014]
 [  0.7          8.84013909]
 [  0.8        -91.65457131]
 [  0.9        -19.77683044]
 [  1.          93.0408658 ]
 [  1.09391667 -46.92339825]]","[[0.         1.67482732]
 [0.1        0.94697422]
 [0.2        1.07367108]
 [0.3        0.83871506]
 [0.4        1.95413199]
 [0.5        1.09413462]
 [0.6        0.42330202]
 [0.7        1.69590524]
 [0.8        0.02701352]
 [0.9        1.37794046]
 [1.         1.99856472]
 [1.09391667 0.84923666]]",1,0.447
1,m,25,english,5,2,english,2024-02-07 14:21:25.665371,False,2,408,sounds\english\audio/english_576.wav,"[[  0.         -58.66306645]
 [  0.1        -48.85456955]
 [  0.2         29.24978703]
 [  0.3         -4.57987844]
 [  0.4         17.09511918]
 [  0.5        -36.28101864]
 [  0.6         16.68992844]
 [  0.7         41.08024696]
 [  0.8         84.11774755]
 [  0.9         37.20407844]
 [  1.          -6.74453613]
 [  1.09391667   8.90716527]]","[[0.         1.71561025]
 [0.1        1.69080607]
 [0.2        1.36521175]
 [0.3        0.87715483]
 [0.4        0.38991217]
 [0.5        0.94074697]
 [0.6        0.21735662]
 [0.7        0.2928344 ]
 [0.8        1.75349185]
 [0.9        0.5790335 ]
 [1.         0.77029309]
 [1.09391667 0.55391499]]",0,0.521
1,m,25,english,5,2,english,2024-02-07 14:21:25.665371,False,2,409,sounds\english\audio/english_842.wav,"[[  0.         -81.72100022]
 [  0.1         18.84637506]
 [  0.2        -80.18621681]
 [  0.3         38.99509662]
 [  0.4         24.76840986]
 [  0.5        -19.71585535]
 [  0.6         69.03077802]
 [  0.7         35.91349986]
 [  0.8        -27.17447615]
 [  0.9        -26.64790606]
 [  1.          27.41987323]
 [  1.09391667  30.72990316]]","[[0.         1.05096469]
 [0.1        0.68369723]
 [0.2        1.52749806]
 [0.3        0.81526033]
 [0.4        1.70702662]
 [0.5        1.05576458]
 [0.6        0.15620837]
 [0.7        1.43624924]
 [0.8        0.34293919]
 [0.9        1.32305508]
 [1.         1.04384127]
 [1.09391667 1.55933633]]",0,0.651
1,m,25,english,5,2,english,2024-02-07 14:21:25.665371,False,2,410,sounds\english\audio/english_532.wav,"[[  0.          60.85707462]
 [  0.1         13.03416057]
 [  0.2        -48.45411351]
 [  0.3         16.77450497]
 [  0.4         -7.6707259 ]
 [  0.5        -84.48187603]
 [  0.6         -5.50880589]
 [  0.7        -53.77002933]
 [  0.8         11.75325856]
 [  0.9         41.28277306]
 [  1.          14.79272929]
 [  1.09391667 -15.59183139]]","[[0.         0.2444237 ]
 [0.1        1.53493401]
 [0.2        1.45787945]
 [0.3        0.11915761]
 [0.4        0.99575033]
 [0.5        1.34203353]
 [0.6        0.42679286]
 [0.7        1.97733711]
 [0.8        0.79534295]
 [0.9        0.9990701 ]
 [1.         1.48802156]
 [1.09391667 0.74270144]]",1,1.323
1,m,25,english,5,2,english,2024-02-07 14:21:25.665371,False,2,411,sounds\english\audio/english_24.wav,"[[  0.          19.80934614]
 [  0.1         18.47296287]
 [  0.2        -87.44087303]
 [  0.3        -24.76838412]
 [  0.4         28.54854922]
 [  0.5        -93.00925389]
 [  0.6         43.83851229]
 [  0.7         56.50445967]
 [  0.8        -34.51680679]
 [  0.9         77.91008798]
 [  1.          22.21951013]
 [  1.09391667  44.21755505]]","[[0.         1.72303363]
 [0.1        1.17223446]
 [0.2        0.32252022]
 [0.3        1.29113778]
 [0.4        1.23026356]
 [0.5        1.272094  ]
 [0.6        1.03857334]
 [0.7        0.04355902]
 [0.8        1.12262583]
 [0.9        0.83275479]
 [1.         0.49987962]
 [1.09391667 0.6404637 ]]",1,0.645
1,m,25,english,5,2,english,2024-02-07 14:21:25.665371,False,2,412,sounds\english\audio/english_609.wav,"[[  0.          45.1693917 ]
 [  0.1        -72.3247495 ]
 [  0.2         18.68361548]
 [  0.3        -27.6682302 ]
 [  0.4          3.63671522]
 [  0.5         21.21340101]
 [  0.6         15.49381211]
 [  0.7          1.52669615]
 [  0.8         25.44993701]
 [  0.9        -58.9173922 ]
 [  1.           4.8985277 ]
 [  1.09391667 -19.12587244]]","[[0.         1.16218677]
 [0.1        1.56939275]
 [0.2        1.47980491]
 [0.3        1.03639669]
 [0.4        0.81396394]
 [0.5        1.33770591]
 [0.6        1.85408959]
 [0.7        0.1270649 ]
 [0.8        0.72088093]
 [0.9        1.10933741]
 [1.         0.9989657 ]
 [1.09391667 1.15972192]]",1,1.648
1,m,25,english,5,2,english,2024-02-07 14:21:25.665371,False,2,413,sounds\english\audio/english_708.wav,"[[  0.          51.90512372]
 [  0.1         26.85875961]
 [  0.2         69.50769052]
 [  0.3          2.73798265]
 [  0.4         19.91752894]
 [  0.5         84.74462974]
 [  0.6         48.1433783 ]
 [  0.7         62.38973842]
 [  0.8        -28.25964696]
 [  0.9          1.39285788]
 [  1.         -27.01293378]
 [  1.09391667 -26.97031791]]","[[0.         0.68267885]
 [0.1        1.28009677]
 [0.2        0.67214969]
 [0.3        1.87173266]
 [0.4        1.28139012]
 [0.5        1.50975007]
 [0.6        0.29459019]
 [0.7        0.69646694]
 [0.8        0.8036912 ]
 [0.9        0.28906304]
 [1.         1.49505706]
 [1.09391667 1.88331259]]",0,0.299
1,m,25,english,5,2,english,2024-02-07 14:21:25.665371,False,2,414,sounds\english\audio/english_108.wav,"[[  0.         -72.12984017]
 [  0.1          8.19812644]
 [  0.2         78.6546888 ]
 [  0.3        -30.04278384]
 [  0.4        -12.36369755]
 [  0.5         70.67382026]
 [  0.6        -56.34929952]
 [  0.7        -58.84895788]
 [  0.8        -57.8473435 ]
 [  0.9         74.00200547]
 [  1.          14.31080133]
 [  1.09391667  52.36561827]]","[[0.         0.26945128]
 [0.1        1.01925784]
 [0.2        1.32918217]
 [0.3        0.63536527]
 [0.4        1.19436668]
 [0.5        0.3289366 ]
 [0.6        1.40732185]
 [0.7        0.91014899]
 [0.8        0.89824174]
 [0.9        0.75928312]
 [1.         1.3591553 ]
 [1.09391667 1.12113776]]",0,0.784
1,m,25,english,5,2,english,2024-02-07 14:21:25.665371,False,2,415,sounds\english\audio/english_883.wav,"[[  0.         -84.46412598]
 [  0.1        -48.29800463]
 [  0.2        -81.14674871]
 [  0.3        -14.72052063]
 [  0.4         84.15645486]
 [  0.5        -46.7306994 ]
 [  0.6        -55.92753429]
 [  0.7         69.20414462]
 [  0.8         42.35113705]
 [  0.9         68.93741473]
 [  1.           5.16727893]
 [  1.09391667 -87.05225408]]","[[0.         0.36586486]
 [0.1        1.2838589 ]
 [0.2        0.35124497]
 [0.3        0.55313004]
 [0.4        1.38696071]
 [0.5        0.05285084]
 [0.6        0.33437309]
 [0.7        0.05014106]
 [0.8        1.1093355 ]
 [0.9        1.05755937]
 [1.         0.06749628]
 [1.09391667 1.22701865]]",0,0.436
1,m,25,english,5,2,english,2024-02-07 14:21:25.665371,False,2,416,sounds\english\audio/english_815.wav,"[[  0.          13.37098153]
 [  0.1         65.78624278]
 [  0.2         66.40667823]
 [  0.3        -44.62639189]
 [  0.4        -51.75725077]
 [  0.5        -79.21957107]
 [  0.6        -56.86584236]
 [  0.7         42.29244477]
 [  0.8        -94.28545135]
 [  0.9        -14.77734417]
 [  1.          55.50770682]
 [  1.09391667   3.0451597 ]]","[[0.         0.8883119 ]
 [0.1        0.67980941]
 [0.2        0.95780133]
 [0.3        1.51398111]
 [0.4        1.4565051 ]
 [0.5        0.83683567]
 [0.6        0.38900819]
 [0.7        1.92415526]
 [0.8        0.30571249]
 [0.9        0.35189603]
 [1.         0.8512317 ]
 [1.09391667 1.01865879]]",1,0.45
1,m,25,english,5,2,english,2024-02-07 14:21:25.665371,False,2,417,sounds\english\audio/english_20.wav,"[[  0.          63.0600358 ]
 [  0.1        -51.01536648]
 [  0.2        -79.38394235]
 [  0.3         18.37962799]
 [  0.4        -93.10550864]
 [  0.5        -34.41615075]
 [  0.6        -59.60856077]
 [  0.7         -5.91904512]
 [  0.8        -91.08119021]
 [  0.9        -45.35675883]
 [  1.         -19.89168543]
 [  1.09391667  49.76773146]]","[[0.         0.86275217]
 [0.1        0.66446023]
 [0.2        0.76617276]
 [0.3        1.08107646]
 [0.4        0.88129698]
 [0.5        1.16389527]
 [0.6        1.73817265]
 [0.7        1.94089825]
 [0.8        0.88467755]
 [0.9        1.32628719]
 [1.         0.31006302]
 [1.09391667 0.42478041]]",0,0.642
1,m,25,english,5,2,english,2024-02-07 14:21:25.665371,False,2,418,sounds\english\audio/english_77.wav,"[[  0.          14.85901356]
 [  0.1        -14.38598058]
 [  0.2        -43.69728494]
 [  0.3        -19.24854373]
 [  0.4          4.73942442]
 [  0.5          6.08734895]
 [  0.6          2.07981921]
 [  0.7         -3.22152689]
 [  0.8        -81.97912938]
 [  0.9          9.14807536]
 [  1.         -30.52937586]
 [  1.09391667  17.14336326]]","[[0.         0.93801636]
 [0.1        1.78480039]
 [0.2        1.59819809]
 [0.3        0.89560743]
 [0.4        0.68128783]
 [0.5        1.19225119]
 [0.6        1.49267812]
 [0.7        1.83354621]
 [0.8        0.65715704]
 [0.9        1.29592629]
 [1.         1.03409297]
 [1.09391667 1.45456337]]",0,0.558
1,m,25,english,5,2,english,2024-02-07 14:21:25.665371,False,2,419,sounds\english\audio/english_630.wav,"[[  0.          78.75492265]
 [  0.1        -83.58930578]
 [  0.2        -79.71821409]
 [  0.3        -40.02519871]
 [  0.4         28.39164799]
 [  0.5        -22.91010751]
 [  0.6         66.99878234]
 [  0.7        -67.03907611]
 [  0.8        -31.68288064]
 [  0.9        -92.36791787]
 [  1.         -47.34450832]
 [  1.09391667 -92.12755103]]","[[0.         1.14018337]
 [0.1        0.42247423]
 [0.2        1.15399078]
 [0.3        1.63118088]
 [0.4        0.60995737]
 [0.5        1.14933658]
 [0.6        1.58053618]
 [0.7        1.44408005]
 [0.8        0.22921488]
 [0.9        1.99244959]
 [1.         1.8016164 ]
 [1.09391667 1.49248838]]",1,0.209
1,m,25,english,5,2,english,2024-02-07 14:21:25.665371,False,2,420,sounds\english\audio/english_460.wav,"[[  0.          93.59161919]
 [  0.1        -36.24487207]
 [  0.2         34.29182357]
 [  0.3        -43.77936624]
 [  0.4         69.60343368]
 [  0.5         56.68710737]
 [  0.6        -24.24220062]
 [  0.7        -78.58314977]
 [  0.8        -13.26257127]
 [  0.9         33.19824363]
 [  1.         -40.08512875]
 [  1.09391667  22.89045037]]","[[0.         1.32448893]
 [0.1        0.9079638 ]
 [0.2        1.36589638]
 [0.3        1.17890341]
 [0.4        0.38929886]
 [0.5        0.99526671]
 [0.6        0.46581759]
 [0.7        0.29943683]
 [0.8        1.99375882]
 [0.9        1.82666883]
 [1.         1.5352094 ]
 [1.09391667 1.53552889]]",0,0.188
1,m,25,english,5,2,english,2024-02-07 14:21:25.665371,False,2,421,sounds\english\audio/english_641.wav,"[[  0.         -56.87244415]
 [  0.1        -25.32063716]
 [  0.2         -5.88353384]
 [  0.3         35.0793016 ]
 [  0.4        -54.26160262]
 [  0.5        -96.41482633]
 [  0.6         34.31473412]
 [  0.7         51.96003607]
 [  0.8        -33.45212271]
 [  0.9        -60.40755471]
 [  1.         -61.65050267]
 [  1.09391667 -31.34713696]]","[[0.         1.15062728]
 [0.1        1.3865292 ]
 [0.2        0.86586276]
 [0.3        0.52496071]
 [0.4        1.18035907]
 [0.5        0.99701793]
 [0.6        1.64172116]
 [0.7        0.67765657]
 [0.8        0.80691049]
 [0.9        0.17932902]
 [1.         0.69415745]
 [1.09391667 0.80800103]]",1,1.002
1,m,25,english,5,2,english,2024-02-07 14:21:25.665371,False,2,422,sounds\english\audio/english_448.wav,"[[  0.         -36.42010561]
 [  0.1         47.73001377]
 [  0.2         93.59806646]
 [  0.3        -71.28004739]
 [  0.4        -73.37708676]
 [  0.5         74.57279085]
 [  0.6         93.06132311]
 [  0.7         53.53303026]
 [  0.8        -57.75366267]
 [  0.9        -26.4449428 ]
 [  1.         -31.70641096]
 [  1.09391667 -10.08807531]]","[[0.         0.75921607]
 [0.1        0.95293974]
 [0.2        0.22586708]
 [0.3        1.48750577]
 [0.4        0.17134927]
 [0.5        1.2791033 ]
 [0.6        0.73590712]
 [0.7        1.42606803]
 [0.8        1.73700286]
 [0.9        1.39235574]
 [1.         0.50787566]
 [1.09391667 1.19414628]]",0,0.481
1,m,25,english,5,2,english,2024-02-07 14:21:25.665371,False,2,423,sounds\english\audio/english_916.wav,"[[  0.         -75.50139917]
 [  0.1         87.74693423]
 [  0.2         31.07453941]
 [  0.3        -54.74808786]
 [  0.4         22.76610273]
 [  0.5         11.00268218]
 [  0.6         51.91753819]
 [  0.7         14.6363884 ]
 [  0.8         81.83938772]
 [  0.9         -6.69300519]
 [  1.          48.70423214]
 [  1.09391667 -75.62542255]]","[[0.         0.33116573]
 [0.1        0.79085074]
 [0.2        1.46577933]
 [0.3        0.46369868]
 [0.4        1.13985244]
 [0.5        0.7460079 ]
 [0.6        0.81938326]
 [0.7        1.36585166]
 [0.8        0.74190137]
 [0.9        1.01772596]
 [1.         1.52043816]
 [1.09391667 1.80998289]]",0,0.52
1,m,25,english,5,2,english,2024-02-07 14:21:25.665371,False,2,424,sounds\english\audio/english_792.wav,"[[  0.         -53.21610879]
 [  0.1         32.15976894]
 [  0.2         11.67164647]
 [  0.3         78.41102069]
 [  0.4         57.86075133]
 [  0.5         26.57758322]
 [  0.6        -19.90648144]
 [  0.7         -5.80202054]
 [  0.8        -79.72401374]
 [  0.9        -39.61261559]
 [  1.          87.31929903]
 [  1.09391667  10.49178802]]","[[0.         1.55385175]
 [0.1        0.65373426]
 [0.2        0.07623644]
 [0.3        0.81063335]
 [0.4        1.61919716]
 [0.5        1.49931194]
 [0.6        0.76960145]
 [0.7        0.41164506]
 [0.8        1.42613076]
 [0.9        0.70792196]
 [1.         1.13611226]
 [1.09391667 0.18326108]]",1,0.422
1,m,25,english,5,2,english,2024-02-07 14:21:25.665371,False,2,425,sounds\english\audio/english_856.wav,"[[  0.         -87.78087501]
 [  0.1         -5.3712764 ]
 [  0.2        -32.01336506]
 [  0.3        -17.67932292]
 [  0.4        -24.3028662 ]
 [  0.5        -24.1832065 ]
 [  0.6         72.09597394]
 [  0.7         99.56545873]
 [  0.8        -38.26985921]
 [  0.9         46.8718891 ]
 [  1.          23.13402485]
 [  1.09391667 -57.51825613]]","[[0.         0.23355411]
 [0.1        0.25625776]
 [0.2        0.23781871]
 [0.3        1.00270159]
 [0.4        1.45467938]
 [0.5        0.02272775]
 [0.6        1.47665781]
 [0.7        1.13119878]
 [0.8        1.70416673]
 [0.9        1.96783156]
 [1.         0.77103282]
 [1.09391667 1.57872491]]",0,0.548
1,m,25,english,5,2,english,2024-02-07 14:21:25.665371,False,2,426,sounds\english\audio/english_673.wav,"[[  0.          90.76839252]
 [  0.1          6.046272  ]
 [  0.2        -87.83071151]
 [  0.3         36.6509823 ]
 [  0.4        -32.18158433]
 [  0.5        -19.24802142]
 [  0.6         48.91730907]
 [  0.7         69.64943754]
 [  0.8         -5.12989182]
 [  0.9         -9.26659316]
 [  1.         -16.89337836]
 [  1.09391667 -23.27882447]]","[[0.         1.23453875]
 [0.1        1.03311149]
 [0.2        1.26397394]
 [0.3        1.9126635 ]
 [0.4        1.72280276]
 [0.5        0.25348074]
 [0.6        1.44743683]
 [0.7        1.155997  ]
 [0.8        0.33674768]
 [0.9        0.68600318]
 [1.         1.11619923]
 [1.09391667 0.1262035 ]]",1,0.431
1,m,25,english,5,2,english,2024-02-07 14:21:25.665371,False,2,427,sounds\english\audio/english_138.wav,"[[  0.          84.66208912]
 [  0.1        -96.9061077 ]
 [  0.2         56.17770157]
 [  0.3        -78.07946429]
 [  0.4         91.20181194]
 [  0.5        -30.87660198]
 [  0.6         27.3117693 ]
 [  0.7        -99.12692265]
 [  0.8        -51.46520236]
 [  0.9         -3.34321361]
 [  1.          -7.25861447]
 [  1.09391667  -2.49487658]]","[[0.         1.51830246]
 [0.1        0.02156416]
 [0.2        1.9703834 ]
 [0.3        1.25545273]
 [0.4        0.91568969]
 [0.5        1.83228794]
 [0.6        1.04000857]
 [0.7        1.75318047]
 [0.8        0.69204702]
 [0.9        0.65368484]
 [1.         0.00684889]
 [1.09391667 0.43470638]]",1,1.319
1,m,25,english,5,2,english,2024-02-07 14:21:25.665371,False,2,428,sounds\english\audio/english_315.wav,"[[  0.          20.11963367]
 [  0.1        -30.87144334]
 [  0.2         39.10248869]
 [  0.3        -19.08604714]
 [  0.4         90.41461318]
 [  0.5        -82.87118979]
 [  0.6        -12.30252898]
 [  0.7          9.37098005]
 [  0.8        -86.3809894 ]
 [  0.9          2.03064205]
 [  1.          99.30710259]
 [  1.09391667  58.65294367]]","[[0.         1.15782854]
 [0.1        1.37599817]
 [0.2        1.4514196 ]
 [0.3        1.32135016]
 [0.4        1.69132556]
 [0.5        0.65296677]
 [0.6        1.40058812]
 [0.7        0.87815256]
 [0.8        0.15444706]
 [0.9        1.46097728]
 [1.         0.37640447]
 [1.09391667 1.18518174]]",1,0.642
1,m,25,english,5,2,english,2024-02-07 14:21:25.665371,False,2,429,sounds\english\audio/english_176.wav,"[[  0.         -29.79812822]
 [  0.1        -16.19961317]
 [  0.2         13.51202418]
 [  0.3         10.74594974]
 [  0.4        -52.94473426]
 [  0.5         52.13031176]
 [  0.6         75.74839712]
 [  0.7         62.6882876 ]
 [  0.8        -12.46472889]
 [  0.9         74.66747541]
 [  1.         -22.48226553]
 [  1.09391667 -36.55733652]]","[[0.         0.43469721]
 [0.1        0.8905279 ]
 [0.2        1.36195462]
 [0.3        0.86537329]
 [0.4        0.61396379]
 [0.5        0.71790783]
 [0.6        1.10097826]
 [0.7        1.68067326]
 [0.8        1.35151853]
 [0.9        0.28756574]
 [1.         0.36668304]
 [1.09391667 1.35894928]]",0,0.47
1,m,25,english,5,2,english,2024-02-07 14:21:25.665371,False,2,430,sounds\english\audio/english_623.wav,"[[  0.         -95.51114939]
 [  0.1        -44.73326339]
 [  0.2         86.94238373]
 [  0.3         62.89198917]
 [  0.4         61.79447234]
 [  0.5        -17.85583206]
 [  0.6         46.68097598]
 [  0.7         11.14385485]
 [  0.8         14.54716464]
 [  0.9         20.67291456]
 [  1.         -77.15406541]
 [  1.09391667  25.21504883]]","[[0.         1.63535186]
 [0.1        1.6177623 ]
 [0.2        0.65497932]
 [0.3        1.58469953]
 [0.4        1.31412999]
 [0.5        0.01127437]
 [0.6        1.28486064]
 [0.7        1.18855794]
 [0.8        1.11974397]
 [0.9        0.2762628 ]
 [1.         1.27890635]
 [1.09391667 0.35112304]]",0,1.284
1,m,25,english,5,2,english,2024-02-07 14:21:25.665371,False,2,431,sounds\english\audio/english_59.wav,"[[  0.          13.6818357 ]
 [  0.1        -62.28772111]
 [  0.2         49.12418905]
 [  0.3        -11.37021527]
 [  0.4        -54.18333873]
 [  0.5         89.00177849]
 [  0.6        -39.13145847]
 [  0.7         -8.40184911]
 [  0.8        -34.91016987]
 [  0.9         92.47037208]
 [  1.          91.56160698]
 [  1.09391667 -64.52293265]]","[[0.         1.39102809]
 [0.1        1.7641323 ]
 [0.2        1.93370096]
 [0.3        1.41546104]
 [0.4        1.8712645 ]
 [0.5        1.58142361]
 [0.6        1.31038649]
 [0.7        1.79881342]
 [0.8        0.00761053]
 [0.9        0.77279167]
 [1.         0.86326769]
 [1.09391667 1.19458968]]",1,0.618
1,m,25,english,5,2,english,2024-02-07 14:21:25.665371,False,2,432,sounds\english\audio/english_378.wav,"[[  0.          -6.75592408]
 [  0.1        -33.28558439]
 [  0.2        -96.71642688]
 [  0.3         70.45646645]
 [  0.4         20.01443052]
 [  0.5        -69.62604827]
 [  0.6        -82.6103386 ]
 [  0.7        -53.90394432]
 [  0.8         75.60526061]
 [  0.9        -65.71007404]
 [  1.         -82.95728524]
 [  1.09391667  40.19708488]]","[[0.         1.57446733]
 [0.1        0.29285803]
 [0.2        0.09494473]
 [0.3        0.09114875]
 [0.4        0.12099564]
 [0.5        0.06996617]
 [0.6        0.89001983]
 [0.7        1.80047075]
 [0.8        1.92282567]
 [0.9        0.07000512]
 [1.         0.51793223]
 [1.09391667 1.33854892]]",0,0.533
1,m,25,english,5,2,english,2024-02-07 14:21:25.665371,False,2,433,sounds\english\audio/english_95.wav,"[[  0.          82.38322646]
 [  0.1         32.52182657]
 [  0.2         30.87511863]
 [  0.3         67.9481844 ]
 [  0.4        -57.03879619]
 [  0.5         22.48665311]
 [  0.6         23.4373467 ]
 [  0.7        -61.78596911]
 [  0.8         75.30119174]
 [  0.9          6.10236792]
