subj,sex,age,language,english,french,native_lang,date,practice,block,trial,stim,pitch,stretch,response,rt
8732112179,m,20,english,5,4,english,2024-02-01 10:37:13.481511,False,2,253,sounds\english\audio/english_868.wav,"[[  0.           8.81168197]
 [  0.1         28.82624603]
 [  0.2        -13.41860503]
 [  0.3         -3.78239355]
 [  0.4        -99.28888376]
 [  0.5         97.17399406]
 [  0.6         -7.91387191]
 [  0.7         60.9049728 ]
 [  0.8        -11.98639675]
 [  0.9         -1.38257528]
 [  1.          25.89344048]
 [  1.09391667 -40.04347975]]","[[0.         0.91928245]
 [0.1        1.1322176 ]
 [0.2        0.903902  ]
 [0.3        0.85237712]
 [0.4        0.30528578]
 [0.5        0.73312891]
 [0.6        1.49247212]
 [0.7        1.20652206]
 [0.8        1.13523652]
 [0.9        0.60296342]
 [1.         0.75702193]
 [1.09391667 0.87917509]]",0,6.257
8732112179,m,20,english,5,4,english,2024-02-01 10:37:13.481511,False,2,254,sounds\english\audio/english_919.wav,"[[  0.         -38.5670272 ]
 [  0.1          2.77922896]
 [  0.2         49.85197562]
 [  0.3         77.76044208]
 [  0.4        -29.8394914 ]
 [  0.5         -0.49098681]
 [  0.6        -75.25398624]
 [  0.7        -69.6637691 ]
 [  0.8         72.91981936]
 [  0.9        -53.88815215]
 [  1.           0.89047902]
 [  1.09391667 -50.064946  ]]","[[0.         0.46903116]
 [0.1        1.08350321]
 [0.2        1.32793945]
 [0.3        0.31154992]
 [0.4        0.67118234]
 [0.5        0.74590894]
 [0.6        1.99224787]
 [0.7        0.78909547]
 [0.8        0.46679106]
 [0.9        0.60556238]
 [1.         0.47961855]
 [1.09391667 1.09390391]]",0,1.648
8732112179,m,20,english,5,4,english,2024-02-01 10:37:13.481511,False,2,255,sounds\english\audio/english_52.wav,"[[  0.          22.10137518]
 [  0.1         54.60808655]
 [  0.2        -19.2398092 ]
 [  0.3         51.72612617]
 [  0.4         48.42620238]
 [  0.5        -74.55875553]
 [  0.6         38.81047921]
 [  0.7        -10.61292931]
 [  0.8         57.32417171]
 [  0.9          1.80511965]
 [  1.          21.58974988]
 [  1.09391667 -49.54213801]]","[[0.         1.70966253]
 [0.1        0.73212315]
 [0.2        0.80628637]
 [0.3        0.90394386]
 [0.4        0.20122149]
 [0.5        0.79458017]
 [0.6        1.48954082]
 [0.7        0.49987231]
 [0.8        1.72417372]
 [0.9        1.29717669]
 [1.         1.53819456]
 [1.09391667 0.23189362]]",0,0.863
8732112179,m,20,english,5,4,english,2024-02-01 10:37:13.481511,False,2,256,sounds\english\audio/english_217.wav,"[[  0.          49.03427647]
 [  0.1         55.51339481]
 [  0.2          8.85342812]
 [  0.3         38.54994366]
 [  0.4         -2.70833959]
 [  0.5         70.3938548 ]
 [  0.6          5.12480722]
 [  0.7        -74.03796069]
 [  0.8        -33.3486243 ]
 [  0.9        -40.28599149]
 [  1.          19.2288181 ]
 [  1.09391667  28.27107092]]","[[0.         0.32664973]
 [0.1        1.39032489]
 [0.2        0.17335256]
 [0.3        0.12434027]
 [0.4        1.97912601]
 [0.5        0.49508024]
 [0.6        1.41080808]
 [0.7        0.59237566]
 [0.8        0.51007366]
 [0.9        0.60232464]
 [1.         0.62471618]
 [1.09391667 0.07651966]]",0,0.929
8732112179,m,20,english,5,4,english,2024-02-01 10:37:13.481511,False,2,257,sounds\english\audio/english_342.wav,"[[  0.          41.55644967]
 [  0.1         67.8619368 ]
 [  0.2        -84.54944787]
 [  0.3        -13.40526133]
 [  0.4         84.55980061]
 [  0.5        -73.66695786]
 [  0.6         32.1068808 ]
 [  0.7         96.14629479]
 [  0.8         55.28291813]
 [  0.9         35.51210396]
 [  1.          29.41468439]
 [  1.09391667  39.84982535]]","[[0.         0.78446862]
 [0.1        0.85565407]
 [0.2        1.8318275 ]
 [0.3        1.61118522]
 [0.4        0.75274568]
 [0.5        0.63423277]
 [0.6        1.74871382]
 [0.7        0.40859241]
 [0.8        1.57798181]
 [0.9        1.87430569]
 [1.         1.15438502]
 [1.09391667 1.30694685]]",1,0.519
8732112179,m,20,english,5,4,english,2024-02-01 10:37:13.481511,False,2,258,sounds\english\audio/english_411.wav,"[[  0.         -19.70973195]
 [  0.1         35.06337641]
 [  0.2        -47.07660398]
 [  0.3        -98.68669902]
 [  0.4          2.91607837]
 [  0.5         -8.99732851]
 [  0.6         57.60803457]
 [  0.7          1.53142899]
 [  0.8        -32.18919875]
 [  0.9        -92.02235415]
 [  1.          33.72578798]
 [  1.09391667  81.16053662]]","[[0.         0.11468893]
 [0.1        1.30305137]
 [0.2        1.23342094]
 [0.3        0.59067951]
 [0.4        0.74798004]
 [0.5        0.55407034]
 [0.6        1.68778529]
 [0.7        0.22674115]
 [0.8        0.93004634]
 [0.9        1.85827411]
 [1.         0.07029884]
 [1.09391667 1.14058722]]",1,1.333
8732112179,m,20,english,5,4,english,2024-02-01 10:37:13.481511,False,2,259,sounds\english\audio/english_144.wav,"[[  0.          31.57285019]
 [  0.1        -66.82367858]
 [  0.2         25.9026646 ]
 [  0.3        -73.3005143 ]
 [  0.4         44.123678  ]
 [  0.5         49.27770762]
 [  0.6         22.38256085]
 [  0.7         -9.16605426]
 [  0.8        -36.80428778]
 [  0.9         -3.57060361]
 [  1.         -56.05458997]
 [  1.09391667 -88.6470882 ]]","[[0.         1.02092862]
 [0.1        1.21687454]
 [0.2        0.83451974]
 [0.3        1.57454957]
 [0.4        0.07717076]
 [0.5        0.27181384]
 [0.6        1.7133157 ]
 [0.7        1.06775729]
 [0.8        1.42091993]
 [0.9        0.01524657]
 [1.         0.90246411]
 [1.09391667 1.74083532]]",0,0.399
8732112179,m,20,english,5,4,english,2024-02-01 10:37:13.481511,False,2,260,sounds\english\audio/english_570.wav,"[[  0.           4.27892196]
 [  0.1        -65.10560908]
 [  0.2        -46.49099881]
 [  0.3         92.02313014]
 [  0.4        -62.36360028]
 [  0.5         -5.7481882 ]
 [  0.6        -29.57103274]
 [  0.7        -12.57991884]
 [  0.8         -0.28533532]
 [  0.9         70.53696138]
 [  1.         -21.79274863]
 [  1.09391667  77.34028184]]","[[0.         1.38341141]
 [0.1        0.63616801]
 [0.2        0.88657916]
 [0.3        1.65534728]
 [0.4        0.58832985]
 [0.5        0.35954779]
 [0.6        0.83826919]
 [0.7        1.34190797]
 [0.8        0.71480272]
 [0.9        1.84273358]
 [1.         1.41836707]
 [1.09391667 1.74855227]]",0,0.276
8732112179,m,20,english,5,4,english,2024-02-01 10:37:13.481511,False,2,261,sounds\english\audio/english_50.wav,"[[  0.         -32.36494138]
 [  0.1         76.6244439 ]
 [  0.2        -16.62217643]
 [  0.3         63.40850527]
 [  0.4         68.81783594]
 [  0.5        -35.17384088]
 [  0.6         42.93688325]
 [  0.7        -82.21044816]
 [  0.8        -42.73245843]
 [  0.9         -3.13393134]
 [  1.         -86.41078269]
 [  1.09391667  14.80187439]]","[[0.         1.37054129]
 [0.1        1.57215181]
 [0.2        1.07317842]
 [0.3        0.82623857]
 [0.4        0.72038729]
 [0.5        1.90936147]
 [0.6        0.3744962 ]
 [0.7        0.69245834]
 [0.8        0.60585647]
 [0.9        1.24840552]
 [1.         0.02488175]
 [1.09391667 1.59728167]]",0,0.455
8732112179,m,20,english,5,4,english,2024-02-01 10:37:13.481511,False,2,262,sounds\english\audio/english_586.wav,"[[  0.          19.9692207 ]
 [  0.1         22.22606315]
 [  0.2         44.76083147]
 [  0.3         30.56518658]
 [  0.4         70.50807044]
 [  0.5        -99.40073456]
 [  0.6        -34.76596453]
 [  0.7         -7.2574162 ]
 [  0.8        -34.51491792]
 [  0.9         40.55984504]
 [  1.          43.92860722]
 [  1.09391667  97.81958787]]","[[0.00000000e+00 1.34383916e+00]
 [1.00000000e-01 1.96847498e-02]
 [2.00000000e-01 1.32604329e+00]
 [3.00000000e-01 4.57164903e-01]
 [4.00000000e-01 8.62218031e-01]
 [5.00000000e-01 1.19900353e+00]
 [6.00000000e-01 1.85917609e+00]
 [7.00000000e-01 5.99282433e-01]
 [8.00000000e-01 4.20457526e-01]
 [9.00000000e-01 1.44903206e+00]
 [1.00000000e+00 5.69773480e-04]
 [1.09391667e+00 1.67148022e+00]]",0,0.797
8732112179,m,20,english,5,4,english,2024-02-01 10:37:13.481511,False,2,263,sounds\english\audio/english_607.wav,"[[  0.           0.27599318]
 [  0.1         61.54655284]
 [  0.2        -45.68438061]
 [  0.3        -56.50831868]
 [  0.4         15.2577286 ]
 [  0.5        -52.12017374]
 [  0.6         97.83272545]
 [  0.7          7.21834566]
 [  0.8          8.71902974]
 [  0.9         84.51998902]
 [  1.         -21.50673836]
 [  1.09391667  68.90809966]]","[[0.         1.85195662]
 [0.1        0.01211705]
 [0.2        1.01527113]
 [0.3        0.58104245]
 [0.4        0.36467608]
 [0.5        0.76758339]
 [0.6        1.21313057]
 [0.7        1.69539972]
 [0.8        0.38171646]
 [0.9        1.4848349 ]
 [1.         0.84163241]
 [1.09391667 0.34247873]]",0,0.271
8732112179,m,20,english,5,4,english,2024-02-01 10:37:13.481511,False,2,264,sounds\english\audio/english_840.wav,"[[  0.          26.56026625]
 [  0.1        -45.76742425]
 [  0.2         58.26038182]
 [  0.3        -41.91368618]
 [  0.4         51.82879955]
 [  0.5        -58.1814991 ]
 [  0.6         -6.21480863]
 [  0.7        -38.35463557]
 [  0.8         62.53471627]
 [  0.9         -5.88618506]
 [  1.         -22.96620486]
 [  1.09391667  38.90401131]]","[[0.         0.58802825]
 [0.1        0.34012551]
 [0.2        1.59409568]
 [0.3        1.45145116]
 [0.4        1.12346348]
 [0.5        0.72614378]
 [0.6        0.0561304 ]
 [0.7        1.05027211]
 [0.8        0.63772174]
 [0.9        0.79180252]
 [1.         0.08952915]
 [1.09391667 0.46969462]]",0,1.335
8732112179,m,20,english,5,4,english,2024-02-01 10:37:13.481511,False,2,265,sounds\english\audio/english_861.wav,"[[  0.          25.4501387 ]
 [  0.1         63.77188621]
 [  0.2          8.16107914]
 [  0.3         41.89997673]
 [  0.4        -63.53893236]
 [  0.5         57.74914229]
 [  0.6        -60.14311181]
 [  0.7          3.67795544]
 [  0.8        -80.01439722]
 [  0.9        -37.7550596 ]
 [  1.         -13.58281726]
 [  1.09391667  59.5288882 ]]","[[0.         1.11165111]
 [0.1        1.38930356]
 [0.2        0.85763188]
 [0.3        0.26479285]
 [0.4        0.36121213]
 [0.5        1.75452306]
 [0.6        1.62162149]
 [0.7        0.63165878]
 [0.8        0.85751028]
 [0.9        1.51613867]
 [1.         1.37338535]
 [1.09391667 0.25913333]]",0,0.38
8732112179,m,20,english,5,4,english,2024-02-01 10:37:13.481511,False,2,266,sounds\english\audio/english_449.wav,"[[  0.         -44.55388373]
 [  0.1         -6.72313799]
 [  0.2         79.06263513]
 [  0.3        -55.67409496]
 [  0.4        -98.00845055]
 [  0.5         11.95490186]
 [  0.6         61.24554038]
 [  0.7         22.84997393]
 [  0.8        -43.41021729]
 [  0.9         -0.66438627]
 [  1.          97.92538247]
 [  1.09391667 -73.561514  ]]","[[0.         1.29710548]
 [0.1        1.06558485]
 [0.2        1.64594706]
 [0.3        0.52101608]
 [0.4        1.47445199]
 [0.5        0.94544277]
 [0.6        1.90306494]
 [0.7        1.15810732]
 [0.8        0.26889852]
 [0.9        1.02983536]
 [1.         1.13790703]
 [1.09391667 0.97073961]]",0,0.638
8732112179,m,20,english,5,4,english,2024-02-01 10:37:13.481511,False,2,267,sounds\english\audio/english_983.wav,"[[  0.         -50.22823897]
 [  0.1         -4.67437073]
 [  0.2        -31.6094098 ]
 [  0.3         25.42275216]
 [  0.4         79.9624674 ]
 [  0.5         11.84827872]
 [  0.6        -53.41316004]
 [  0.7         -2.37481813]
 [  0.8         81.38125647]
 [  0.9        -62.03068284]
 [  1.         -64.21224493]
 [  1.09391667  38.19793451]]","[[0.         0.88633634]
 [0.1        1.28034271]
 [0.2        0.94172266]
 [0.3        0.73344406]
 [0.4        1.78223604]
 [0.5        1.04715588]
 [0.6        1.93599287]
 [0.7        0.44413806]
 [0.8        0.67013669]
 [0.9        1.03528206]
 [1.         0.12422577]
 [1.09391667 1.50859084]]",0,0.907
8732112179,m,20,english,5,4,english,2024-02-01 10:37:13.481511,False,2,268,sounds\english\audio/english_900.wav,"[[  0.         -38.9822336 ]
 [  0.1        -50.03499546]
 [  0.2        -63.75664225]
 [  0.3         20.28138285]
 [  0.4         93.33922424]
 [  0.5          1.26373227]
 [  0.6         19.48332465]
 [  0.7         67.63688751]
 [  0.8         55.68273017]
 [  0.9         -9.55904988]
 [  1.          75.63174295]
 [  1.09391667  68.02721405]]","[[0.         0.73560369]
 [0.1        1.14426311]
 [0.2        0.04637744]
 [0.3        1.01450827]
 [0.4        1.77013863]
 [0.5        1.59303793]
 [0.6        1.12600277]
 [0.7        0.62325076]
 [0.8        1.46299944]
 [0.9        0.28620123]
 [1.         0.87688791]
 [1.09391667 0.93516031]]",0,0.845
8732112179,m,20,english,5,4,english,2024-02-01 10:37:13.481511,False,2,269,sounds\english\audio/english_38.wav,"[[  0.          84.84297862]
 [  0.1        -41.13766339]
 [  0.2         31.0243005 ]
 [  0.3         51.71643077]
 [  0.4        -15.52187673]
 [  0.5         37.47478577]
 [  0.6         27.01527087]
 [  0.7         44.60136097]
 [  0.8        -52.37417606]
 [  0.9        -48.58777174]
 [  1.           7.20305444]
 [  1.09391667 -74.66052111]]","[[0.         0.12127835]
 [0.1        0.39553601]
 [0.2        1.29400733]
 [0.3        0.38578685]
 [0.4        0.67216324]
 [0.5        0.61922356]
 [0.6        0.0538602 ]
 [0.7        0.56901487]
 [0.8        1.28646438]
 [0.9        0.80149466]
 [1.         1.28981754]
 [1.09391667 0.46742112]]",0,0.346
8732112179,m,20,english,5,4,english,2024-02-01 10:37:13.481511,False,2,270,sounds\english\audio/english_996.wav,"[[  0.         -68.49547406]
 [  0.1         -2.33531362]
 [  0.2         59.75126116]
 [  0.3         91.41529036]
 [  0.4        -12.51622254]
 [  0.5          5.44058313]
 [  0.6        -53.42325035]
 [  0.7          9.17325138]
 [  0.8         53.92705363]
 [  0.9        -51.59047854]
 [  1.         -72.60614794]
 [  1.09391667  82.93009071]]","[[0.         1.15101027]
 [0.1        1.76891933]
 [0.2        1.50263503]
 [0.3        0.3014492 ]
 [0.4        1.52458018]
 [0.5        1.68949091]
 [0.6        1.14777942]
 [0.7        1.71935076]
 [0.8        1.57982041]
 [0.9        0.73704806]
 [1.         0.5335164 ]
 [1.09391667 0.99688365]]",0,3.458
8732112179,m,20,english,5,4,english,2024-02-01 10:37:13.481511,False,2,271,sounds\english\audio/english_967.wav,"[[  0.         -95.01579597]
 [  0.1        -83.85694312]
 [  0.2        -85.29120752]
 [  0.3         39.64714204]
 [  0.4         57.5109199 ]
 [  0.5         17.84726357]
 [  0.6         72.49898727]
 [  0.7        -49.28489837]
 [  0.8         27.76319329]
 [  0.9         40.88732144]
 [  1.          25.08094833]
 [  1.09391667 -11.2848797 ]]","[[0.         1.84793029]
 [0.1        0.58680999]
 [0.2        1.7718572 ]
 [0.3        1.16952376]
 [0.4        0.26483397]
 [0.5        0.70174807]
 [0.6        1.00653378]
 [0.7        0.37312662]
 [0.8        0.21661179]
 [0.9        1.37557681]
 [1.         0.83851773]
 [1.09391667 1.10196179]]",1,0.509
8732112179,m,20,english,5,4,english,2024-02-01 10:37:13.481511,False,2,272,sounds\english\audio/english_661.wav,"[[  0.         -96.27017097]
 [  0.1         -8.23164951]
 [  0.2        -17.16483844]
 [  0.3         51.38438878]
 [  0.4        -46.68819378]
 [  0.5        -48.36150329]
 [  0.6         39.11171658]
 [  0.7         61.02242978]
 [  0.8        -31.59479495]
 [  0.9         29.78054616]
 [  1.          12.03263948]
 [  1.09391667  45.41432931]]","[[0.         0.06095717]
 [0.1        1.37830678]
 [0.2        0.60938429]
 [0.3        1.50755712]
 [0.4        0.78233896]
 [0.5        1.0485375 ]
 [0.6        1.09444979]
 [0.7        0.69142926]
 [0.8        1.58337901]
 [0.9        1.62604078]
 [1.         0.74172624]
 [1.09391667 1.92603435]]",0,0.223
8732112179,m,20,english,5,4,english,2024-02-01 10:37:13.481511,False,2,273,sounds\english\audio/english_558.wav,"[[  0.           9.45595183]
 [  0.1        -66.91447075]
 [  0.2          5.01642616]
 [  0.3        -82.30049302]
 [  0.4        -10.29129966]
 [  0.5         99.14240741]
 [  0.6         34.85025227]
 [  0.7         43.44441895]
 [  0.8        -97.39694164]
 [  0.9        -31.97632868]
 [  1.         -74.01115338]
 [  1.09391667  43.18570617]]","[[0.         1.13403788]
 [0.1        1.18278708]
 [0.2        1.11112331]
 [0.3        0.91283519]
 [0.4        0.71678122]
 [0.5        1.64554748]
 [0.6        0.99485251]
 [0.7        0.12536515]
 [0.8        0.12044716]
 [0.9        0.33780284]
 [1.         0.39284816]
 [1.09391667 1.38494175]]",0,1.381
8732112179,m,20,english,5,4,english,2024-02-01 10:37:13.481511,False,2,274,sounds\english\audio/english_211.wav,"[[  0.         -80.71487731]
 [  0.1        -84.93103541]
 [  0.2         44.45354712]
 [  0.3         93.3584913 ]
 [  0.4        -88.5655354 ]
 [  0.5         58.50265478]
 [  0.6         42.72435837]
 [  0.7         15.71938112]
 [  0.8          7.70597987]
 [  0.9        -16.73581283]
 [  1.         -59.877834  ]
 [  1.09391667  39.92997673]]","[[0.         0.76887991]
 [0.1        0.20306802]
 [0.2        0.68006184]
 [0.3        1.00051335]
 [0.4        1.99828121]
 [0.5        0.71004269]
 [0.6        1.91299509]
 [0.7        1.01891246]
 [0.8        1.53959141]
 [0.9        1.64058726]
 [1.         1.4823545 ]
 [1.09391667 1.39164399]]",1,1.163
8732112179,m,20,english,5,4,english,2024-02-01 10:37:13.481511,False,2,275,sounds\english\audio/english_173.wav,"[[  0.          34.32682043]
 [  0.1        -35.22347769]
 [  0.2         15.69043139]
 [  0.3        -71.83777825]
 [  0.4        -96.81426106]
 [  0.5        -51.15803827]
 [  0.6        -12.70248505]
 [  0.7        -30.75730157]
 [  0.8         -5.0022938 ]
 [  0.9         41.07030003]
 [  1.          -5.319412  ]
 [  1.09391667  43.01251996]]","[[0.         0.82312646]
 [0.1        0.84965345]
 [0.2        0.84607348]
 [0.3        0.55995079]
 [0.4        0.51635348]
 [0.5        1.6072313 ]
 [0.6        1.25349503]
 [0.7        1.4731344 ]
 [0.8        0.28621328]
 [0.9        0.95942448]
 [1.         0.2847469 ]
 [1.09391667 0.4938404 ]]",0,1.366
8732112179,m,20,english,5,4,english,2024-02-01 10:37:13.481511,False,2,276,sounds\english\audio/english_978.wav,"[[  0.         -56.85728998]
 [  0.1         16.43364259]
 [  0.2         47.77326739]
 [  0.3         94.05967356]
 [  0.4        -76.48908754]
 [  0.5        -47.71848611]
 [  0.6        -17.07884838]
 [  0.7         50.2599466 ]
 [  0.8         83.04934383]
 [  0.9        -14.53932226]
 [  1.         -40.28373024]
 [  1.09391667  82.58821892]]","[[0.         1.17346596]
 [0.1        0.59297783]
 [0.2        0.67016687]
 [0.3        1.98266891]
 [0.4        0.86932432]
 [0.5        0.89103479]
 [0.6        1.65910536]
 [0.7        1.27682187]
 [0.8        0.051565  ]
 [0.9        0.45965995]
 [1.         1.12972823]
 [1.09391667 1.51179451]]",0,0.896
8732112179,m,20,english,5,4,english,2024-02-01 10:37:13.481511,False,2,277,sounds\english\audio/english_905.wav,"[[  0.         -38.82719082]
 [  0.1         91.73556094]
 [  0.2        -44.32627421]
 [  0.3        -65.11156064]
 [  0.4        -48.38956406]
 [  0.5        -66.93781594]
 [  0.6        -31.37264091]
 [  0.7        -76.42119949]
 [  0.8         90.55453052]
 [  0.9        -13.8538154 ]
 [  1.          10.60108282]
 [  1.09391667 -16.89815331]]","[[0.         0.64550094]
 [0.1        1.31053491]
 [0.2        0.47707545]
 [0.3        0.49456239]
 [0.4        0.97248604]
 [0.5        0.82967407]
 [0.6        0.41334293]
 [0.7        0.8386705 ]
 [0.8        0.29898441]
 [0.9        0.28325918]
 [1.         0.58400342]
 [1.09391667 0.41677525]]",0,0.803
8732112179,m,20,english,5,4,english,2024-02-01 10:37:13.481511,False,2,278,sounds\english\audio/english_418.wav,"[[  0.          17.48179392]
 [  0.1        -20.93259057]
 [  0.2         38.48191575]
 [  0.3        -43.04758346]
 [  0.4        -27.49631219]
 [  0.5        -43.30662093]
 [  0.6        -11.80067145]
 [  0.7        -65.69750473]
 [  0.8         36.09713106]
 [  0.9        -89.16917769]
 [  1.         -11.53730863]
 [  1.09391667  91.60971419]]","[[0.         1.16767435]
 [0.1        1.12895723]
 [0.2        0.3034601 ]
 [0.3        1.48058882]
 [0.4        0.85133692]
 [0.5        1.76317004]
 [0.6        0.40561242]
 [0.7        0.69119528]
 [0.8        0.70403422]
 [0.9        0.50785509]
 [1.         0.15277714]
 [1.09391667 0.42464397]]",0,0.543
8732112179,m,20,english,5,4,english,2024-02-01 10:37:13.481511,False,2,279,sounds\english\audio/english_593.wav,"[[  0.          13.70313969]
 [  0.1        -26.02533881]
 [  0.2         50.8702686 ]
 [  0.3         26.063803  ]
 [  0.4        -79.95092445]
 [  0.5        -94.01020979]
 [  0.6        -33.71882566]
 [  0.7        -16.71092424]
 [  0.8        -31.84366891]
 [  0.9        -64.24810633]
 [  1.          73.5130108 ]
 [  1.09391667   1.16296444]]","[[0.         0.31776168]
 [0.1        1.39381701]
 [0.2        0.5191281 ]
 [0.3        0.69401342]
 [0.4        0.71717885]
 [0.5        0.74327862]
 [0.6        1.75165486]
 [0.7        0.78541269]
 [0.8        0.5067154 ]
 [0.9        1.19882101]
 [1.         0.30708851]
 [1.09391667 1.70447125]]",0,0.517
8732112179,m,20,english,5,4,english,2024-02-01 10:37:13.481511,False,2,280,sounds\english\audio/english_34.wav,"[[  0.           9.71692873]
 [  0.1        -32.4765448 ]
 [  0.2         15.43761556]
 [  0.3         58.61018381]
 [  0.4         25.83507297]
 [  0.5        -56.32199776]
 [  0.6        -56.68859517]
 [  0.7        -35.23691581]
 [  0.8        -38.05292499]
 [  0.9        -19.80503333]
 [  1.          18.63515133]
 [  1.09391667  20.3470687 ]]","[[0.         1.51290073]
 [0.1        1.69209185]
 [0.2        1.03006511]
 [0.3        0.24425739]
 [0.4        1.41814457]
 [0.5        1.04050252]
 [0.6        0.2977066 ]
 [0.7        0.84278016]
 [0.8        1.02765016]
 [0.9        1.82923519]
 [1.         1.36188649]
 [1.09391667 1.04188566]]",1,1.387
8732112179,m,20,english,5,4,english,2024-02-01 10:37:13.481511,False,2,281,sounds\english\audio/english_152.wav,"[[  0.         -10.34550429]
 [  0.1        -43.66558153]
 [  0.2         56.2217474 ]
 [  0.3        -27.44048298]
 [  0.4         17.92439762]
 [  0.5         82.51468432]
 [  0.6          8.54715681]
 [  0.7        -94.9804546 ]
 [  0.8         43.42849193]
 [  0.9          1.5194414 ]
 [  1.          20.77451489]
 [  1.09391667  95.7342738 ]]","[[0.         1.84986994]
 [0.1        0.90615496]
 [0.2        0.59286193]
 [0.3        0.85505555]
 [0.4        0.56649727]
 [0.5        0.6043893 ]
 [0.6        1.72413787]
 [0.7        0.10144569]
 [0.8        1.50321153]
 [0.9        0.78421076]
 [1.         1.65129885]
 [1.09391667 1.8248214 ]]",0,0.608
8732112179,m,20,english,5,4,english,2024-02-01 10:37:13.481511,False,2,282,sounds\english\audio/english_99.wav,"[[  0.         -35.67146007]
 [  0.1         77.48026741]
 [  0.2         60.67953513]
 [  0.3          7.03375586]
 [  0.4         93.94527477]
 [  0.5         32.23439221]
 [  0.6         63.65771061]
 [  0.7        -43.04880321]
 [  0.8         90.01770485]
 [  0.9         79.3607672 ]
 [  1.          66.07005899]
 [  1.09391667 -60.54212183]]","[[0.         0.39654392]
 [0.1        0.30370297]
 [0.2        0.91456869]
 [0.3        1.67387039]
 [0.4        0.48426399]
 [0.5        1.86313592]
 [0.6        0.46284335]
 [0.7        1.10565763]
 [0.8        1.32411051]
 [0.9        1.33992166]
 [1.         0.65624545]
 [1.09391667 1.79200877]]",0,1.132
8732112179,m,20,english,5,4,english,2024-02-01 10:37:13.481511,False,2,283,sounds\english\audio/english_281.wav,"[[  0.          -6.91929945]
 [  0.1        -25.44932046]
 [  0.2        -43.70872046]
 [  0.3        -18.3101874 ]
 [  0.4         86.16338552]
 [  0.5         49.26346324]
 [  0.6         79.40576686]
 [  0.7         85.96397413]
 [  0.8        -82.16790218]
 [  0.9         53.88469083]
 [  1.          30.1327539 ]
 [  1.09391667 -24.86364002]]","[[0.         1.49696204]
 [0.1        1.38956204]
 [0.2        0.8964952 ]
 [0.3        0.52852326]
 [0.4        0.8625919 ]
 [0.5        1.51743083]
 [0.6        0.79009251]
 [0.7        0.18987002]
 [0.8        1.11136212]
 [0.9        1.69337287]
 [1.         0.62990301]
 [1.09391667 1.33770256]]",0,0.853
8732112179,m,20,english,5,4,english,2024-02-01 10:37:13.481511,False,2,284,sounds\english\audio/english_25.wav,"[[  0.          -3.04072315]
 [  0.1         -7.71178933]
 [  0.2        -42.18636208]
 [  0.3        -34.45077435]
 [  0.4        -84.66227969]
 [  0.5        -92.64439035]
 [  0.6        -61.14666871]
 [  0.7         -3.59823801]
 [  0.8        -55.86599887]
 [  0.9         70.71897097]
 [  1.         -41.59717756]
 [  1.09391667  45.33564492]]","[[0.         0.82619881]
 [0.1        0.19533878]
 [0.2        1.08277914]
 [0.3        1.14412535]
 [0.4        1.20529311]
 [0.5        1.74650044]
 [0.6        0.43899038]
 [0.7        0.82830315]
 [0.8        0.29447237]
 [0.9        0.99577412]
 [1.         1.79017757]
 [1.09391667 1.70871786]]",1,1.744
8732112179,m,20,english,5,4,english,2024-02-01 10:37:13.481511,False,2,285,sounds\english\audio/english_164.wav,"[[  0.          25.67612046]
 [  0.1        -73.22421847]
 [  0.2         45.60415064]
 [  0.3         93.27879502]
 [  0.4         33.1762566 ]
 [  0.5         47.64320434]
 [  0.6        -19.19510789]
 [  0.7        -33.42680653]
 [  0.8         47.71435933]
 [  0.9          5.90681892]
 [  1.          42.52423942]
 [  1.09391667  43.22160039]]","[[0.         1.60368468]
 [0.1        0.71109799]
 [0.2        0.65921899]
 [0.3        1.59053842]
 [0.4        0.71799916]
 [0.5        1.2187377 ]
 [0.6        1.25318934]
 [0.7        0.56903982]
 [0.8        0.44355463]
 [0.9        1.65481096]
 [1.         0.56871191]
 [1.09391667 0.29440298]]",0,0.754
8732112179,m,20,english,5,4,english,2024-02-01 10:37:13.481511,False,2,286,sounds\english\audio/english_390.wav,"[[  0.         -44.27999606]
 [  0.1         87.16388753]
 [  0.2         51.76447156]
 [  0.3          4.72890769]
 [  0.4         40.54029915]
 [  0.5         -2.52273407]
 [  0.6        -16.68397449]
 [  0.7         61.52515281]
 [  0.8         -9.09589247]
 [  0.9        -24.40260524]
 [  1.         -74.87237933]
 [  1.09391667 -82.02950505]]","[[0.         0.47786392]
 [0.1        0.26367192]
 [0.2        0.808543  ]
 [0.3        1.08355999]
 [0.4        1.05186068]
 [0.5        0.0330936 ]
 [0.6        0.46793247]
 [0.7        1.47386131]
 [0.8        0.59216285]
 [0.9        0.27707759]
 [1.         1.34831193]
 [1.09391667 1.5447274 ]]",0,1.994
8732112179,m,20,english,5,4,english,2024-02-01 10:37:13.481511,False,2,287,sounds\english\audio/english_26.wav,"[[  0.         -47.00443728]
 [  0.1        -34.82629788]
 [  0.2         24.7004615 ]
 [  0.3         58.84625328]
 [  0.4         35.91387632]
 [  0.5        -49.42977929]
 [  0.6         63.62799551]
 [  0.7        -20.10119494]
 [  0.8        -32.9417882 ]
 [  0.9        -76.94114545]
 [  1.          55.52160425]
 [  1.09391667 -26.0703889 ]]","[[0.         0.76495966]
 [0.1        0.39579578]
 [0.2        0.94110956]
 [0.3        1.03122295]
 [0.4        0.44153341]
 [0.5        0.19802805]
 [0.6        0.5127439 ]
 [0.7        1.41060294]
 [0.8        0.36769689]
 [0.9        0.44844399]
 [1.         0.43574826]
 [1.09391667 0.40615906]]",0,0.276
8732112179,m,20,english,5,4,english,2024-02-01 10:37:13.481511,False,2,288,sounds\english\audio/english_875.wav,"[[  0.          96.8338791 ]
 [  0.1         37.68794022]
 [  0.2         13.97824571]
 [  0.3         18.96990702]
 [  0.4         63.2084655 ]
 [  0.5        -98.93629382]
 [  0.6         81.29612198]
 [  0.7         50.14728488]
 [  0.8         13.48666865]
 [  0.9          9.04770509]
 [  1.          37.35188663]
 [  1.09391667  68.7171347 ]]","[[0.         1.90969426]
 [0.1        1.00034929]
 [0.2        1.17763903]
 [0.3        0.35889427]
 [0.4        0.91300026]
 [0.5        1.19226844]
 [0.6        1.44163348]
 [0.7        1.08588615]
 [0.8        1.80200416]
 [0.9        0.81736325]
 [1.         1.15050925]
 [1.09391667 1.96049823]]",0,2.264
8732112179,m,20,english,5,4,english,2024-02-01 10:37:13.481511,False,2,289,sounds\english\audio/english_113.wav,"[[  0.          15.28166422]
 [  0.1         47.09879561]
 [  0.2         30.55065419]
 [  0.3         60.74459651]
 [  0.4        -80.73338373]
 [  0.5        -58.25545597]
 [  0.6         82.81118061]
 [  0.7        -61.4933419 ]
 [  0.8         15.22379089]
 [  0.9        -30.23460484]
 [  1.          29.92994598]
 [  1.09391667  22.43308389]]","[[0.         0.55667307]
 [0.1        0.58592964]
 [0.2        1.23790542]
 [0.3        0.97364291]
 [0.4        0.01252312]
 [0.5        0.68334247]
 [0.6        0.36908508]
 [0.7        0.9756346 ]
 [0.8        1.72445689]
 [0.9        0.62749292]
 [1.         0.55530103]
 [1.09391667 0.65235156]]",0,0.659
8732112179,m,20,english,5,4,english,2024-02-01 10:37:13.481511,False,2,290,sounds\english\audio/english_263.wav,"[[  0.          60.54836266]
 [  0.1         -7.25947701]
 [  0.2         57.3147166 ]
 [  0.3        -54.27216299]
 [  0.4        -55.29215067]
 [  0.5        -35.67260064]
 [  0.6         64.27930659]
 [  0.7         39.11312223]
 [  0.8        -36.26628423]
 [  0.9         24.26738527]
 [  1.          43.73514677]
 [  1.09391667 -15.47335433]]","[[0.         0.88286661]
 [0.1        0.15523443]
 [0.2        0.89947763]
 [0.3        1.94594407]
 [0.4        0.36252841]
 [0.5        0.43064253]
 [0.6        0.12649613]
 [0.7        0.99935682]
 [0.8        0.98138808]
 [0.9        1.68351405]
 [1.         0.97417267]
 [1.09391667 0.42659576]]",0,0.288
8732112179,m,20,english,5,4,english,2024-02-01 10:37:13.481511,False,2,291,sounds\english\audio/english_338.wav,"[[  0.         -28.32882855]
 [  0.1         57.31812169]
 [  0.2         14.45982208]
 [  0.3         77.41090692]
 [  0.4         -1.8867557 ]
 [  0.5        -35.85874383]
 [  0.6        -55.1613605 ]
 [  0.7        -70.94430614]
 [  0.8          5.91952673]
 [  0.9        -77.52896216]
 [  1.         -12.19112467]
 [  1.09391667   6.6549641 ]]","[[0.         1.26446903]
 [0.1        0.76759877]
 [0.2        1.52351901]
 [0.3        1.04471398]
 [0.4        0.90426999]
 [0.5        1.69664706]
 [0.6        0.17582058]
 [0.7        0.54140942]
 [0.8        0.81798021]
 [0.9        1.90630538]
 [1.         0.59557422]
 [1.09391667 0.42071392]]",0,0.181
8732112179,m,20,english,5,4,english,2024-02-01 10:37:13.481511,False,2,292,sounds\english\audio/english_647.wav,"[[  0.          54.52725229]
 [  0.1        -56.14693886]
 [  0.2         71.63132719]
 [  0.3        -23.02387172]
 [  0.4        -60.51376999]
 [  0.5        -64.57692494]
 [  0.6         46.96365994]
 [  0.7          2.340544  ]
 [  0.8        -11.6475953 ]
 [  0.9         62.71297866]
 [  1.         -48.91159538]
 [  1.09391667 -39.00416387]]","[[0.         1.1883546 ]
 [0.1        1.65081997]
 [0.2        1.02051213]
 [0.3        1.7000584 ]
 [0.4        0.62509688]
 [0.5        1.60189297]
 [0.6        1.40209494]
 [0.7        1.32470585]
 [0.8        1.16038123]
 [0.9        0.96037121]
 [1.         0.45954714]
 [1.09391667 1.53514393]]",0,0.072
8732112179,m,20,english,5,4,english,2024-02-01 10:37:13.481511,False,2,293,sounds\english\audio/english_105.wav,"[[  0.          -2.78582129]
 [  0.1        -47.38376557]
 [  0.2        -34.39843647]
 [  0.3         46.98736853]
 [  0.4        -49.43003963]
 [  0.5         38.45298993]
 [  0.6        -40.48082685]
 [  0.7        -51.12213105]
 [  0.8         21.68306499]
 [  0.9         47.55235399]
 [  1.          34.72628387]
 [  1.09391667 -48.05463592]]","[[0.         1.58600254]
 [0.1        1.11025346]
 [0.2        0.10251387]
 [0.3        1.2200198 ]
 [0.4        1.30093265]
 [0.5        0.48849845]
 [0.6        0.43711301]
 [0.7        1.15590429]
 [0.8        1.91934773]
 [0.9        0.93806277]
 [1.         0.69549788]
 [1.09391667 1.35655827]]",0,0.175
8732112179,m,20,english,5,4,english,2024-02-01 10:37:13.481511,False,2,294,sounds\english\audio/english_101.wav,"[[  0.          54.85574333]
 [  0.1          0.70808879]
 [  0.2        -80.1183649 ]
 [  0.3         41.22016504]
 [  0.4         -9.97599034]
 [  0.5         90.56668979]
 [  0.6        -60.35193263]
 [  0.7         61.72690789]
 [  0.8         88.15092983]
 [  0.9         40.7935106 ]
 [  1.          84.72598744]
 [  1.09391667 -47.25265497]]","[[0.         0.56749545]
 [0.1        1.44378271]
 [0.2        0.79216525]
 [0.3        0.86392682]
 [0.4        0.6963626 ]
 [0.5        0.60530731]
 [0.6        1.66078928]
 [0.7        1.6801741 ]
 [0.8        1.39430446]
 [0.9        0.81152744]
 [1.         0.36950081]
 [1.09391667 1.44384249]]",0,0.216
8732112179,m,20,english,5,4,english,2024-02-01 10:37:13.481511,False,2,295,sounds\english\audio/english_932.wav,"[[  0.          38.23438928]
 [  0.1        -58.10377529]
 [  0.2         91.68709635]
 [  0.3         43.08352003]
 [  0.4         89.28150272]
 [  0.5        -32.82905254]
 [  0.6        -27.89856156]
 [  0.7        -15.6368176 ]
 [  0.8        -47.50450916]
 [  0.9        -85.48225369]
 [  1.          26.29289849]
 [  1.09391667 -34.49542083]]","[[0.         1.12401337]
 [0.1        0.61932379]
 [0.2        1.42631679]
 [0.3        1.23008562]
 [0.4        1.74074376]
 [0.5        0.41912443]
 [0.6        1.78556309]
 [0.7        0.72255464]
 [0.8        1.47985237]
 [0.9        1.29316662]
 [1.         1.31994778]
 [1.09391667 1.97700851]]",1,3.571
8732112179,m,20,english,5,4,english,2024-02-01 10:37:13.481511,False,2,296,sounds\english\audio/english_223.wav,"[[  0.           3.75482412]
 [  0.1        -10.12746206]
 [  0.2        -71.88310124]
 [  0.3         57.69353131]
 [  0.4         -7.46282971]
 [  0.5         -4.62449416]
 [  0.6         37.75223181]
 [  0.7         14.07580733]
 [  0.8          7.873186  ]
 [  0.9        -15.37742922]
 [  1.          25.72603899]
 [  1.09391667  58.91699651]]","[[0.         0.48204307]
 [0.1        1.57422829]
 [0.2        1.46180987]
 [0.3        0.36455809]
 [0.4        1.50137994]
 [0.5        0.81971787]
 [0.6        0.40602656]
 [0.7        1.29724475]
 [0.8        0.55564049]
 [0.9        1.88260367]
 [1.         0.5343602 ]
 [1.09391667 1.60309461]]",0,2.812
8732112179,m,20,english,5,4,english,2024-02-01 10:37:13.481511,False,2,297,sounds\english\audio/english_422.wav,"[[  0.          15.30476558]
 [  0.1         46.85469973]
 [  0.2        -55.01275076]
 [  0.3        -88.68955981]
 [  0.4         69.37127288]
 [  0.5         19.59216644]
 [  0.6         -6.38015959]
 [  0.7        -75.18241686]
 [  0.8         53.59227304]
 [  0.9        -58.58137106]
 [  1.         -12.61550451]
 [  1.09391667 -47.53760567]]","[[0.         1.12660373]
 [0.1        1.77150152]
 [0.2        0.07610986]
 [0.3        1.87054914]
 [0.4        0.4194099 ]
 [0.5        1.01013961]
 [0.6        1.42576712]
 [0.7        0.77140618]
 [0.8        0.92977939]
 [0.9        0.22126866]
 [1.         1.35947282]
 [1.09391667 0.9860846 ]]",0,1.433
8732112179,m,20,english,5,4,english,2024-02-01 10:37:13.481511,False,2,298,sounds\english\audio/english_671.wav,"[[  0.         -45.93815434]
 [  0.1         -9.85133236]
 [  0.2        -90.27584827]
 [  0.3        -12.62569024]
 [  0.4        -25.02264323]
 [  0.5        -73.63967284]
 [  0.6         -8.12482987]
 [  0.7         20.3897076 ]
 [  0.8        -16.71271092]
 [  0.9         60.34106396]
 [  1.         -65.87673981]
 [  1.09391667 -90.1963817 ]]","[[0.         1.42496889]
 [0.1        0.72590703]
 [0.2        0.03582408]
 [0.3        1.95422408]
 [0.4        0.03147383]
 [0.5        1.78242159]
 [0.6        0.44075536]
 [0.7        1.76056673]
 [0.8        0.82662657]
 [0.9        0.3638046 ]
 [1.         0.96822524]
 [1.09391667 0.11003173]]",0,0.141
8732112179,m,20,english,5,4,english,2024-02-01 10:37:13.481511,False,2,299,sounds\english\audio/english_736.wav,"[[  0.         -40.28778627]
 [  0.1        -59.09726207]
 [  0.2         98.49969238]
 [  0.3         46.0778128 ]
 [  0.4        -55.04304699]
 [  0.5         34.12740936]
 [  0.6         54.26275803]
 [  0.7        -55.98308326]
 [  0.8         59.79863481]
 [  0.9         88.14503005]
 [  1.          91.37007784]
 [  1.09391667  76.63160817]]","[[0.         1.23426282]
 [0.1        0.97807774]
 [0.2        0.54049946]
 [0.3        1.1691641 ]
 [0.4        1.22843398]
 [0.5        0.9861662 ]
 [0.6        0.17445904]
 [0.7        1.1578723 ]
 [0.8        1.37075184]
 [0.9        1.47849055]
 [1.         0.08571689]
 [1.09391667 1.4768314 ]]",0,2.175
8732112179,m,20,english,5,4,english,2024-02-01 10:37:13.481511,False,2,300,sounds\english\audio/english_669.wav,"[[  0.          63.63841723]
 [  0.1        -16.46655099]
 [  0.2         59.94652085]
 [  0.3         87.91202499]
 [  0.4         -9.72604882]
 [  0.5         72.16172308]
 [  0.6        -64.88013083]
 [  0.7         26.66035036]
 [  0.8        -43.66675722]
 [  0.9          4.29997564]
 [  1.         -68.31489554]
 [  1.09391667 -65.69487781]]","[[0.         1.21965741]
 [0.1        1.77063888]
 [0.2        1.19972221]
 [0.3        1.09192955]
 [0.4        0.69529064]
 [0.5        1.09710692]
 [0.6        1.91297745]
 [0.7        1.12487674]
 [0.8        0.95542007]
 [0.9        1.3922733 ]
 [1.         1.61053031]
 [1.09391667 0.28856802]]",0,4.801
8732112179,m,20,english,5,4,english,2024-02-01 10:37:13.481511,False,2,301,sounds\english\audio/english_507.wav,"[[  0.         -12.02429693]
 [  0.1         23.48023528]
 [  0.2         75.86591316]
 [  0.3        -83.47756384]
 [  0.4         81.92852434]
 [  0.5         87.67744716]
 [  0.6        -16.33781488]
 [  0.7        -17.50205237]
 [  0.8         45.24056119]
 [  0.9        -41.17324019]
 [  1.         -35.51150679]
 [  1.09391667 -42.23976402]]","[[0.         0.63959218]
 [0.1        0.78683895]
 [0.2        1.2814873 ]
 [0.3        0.67977555]
 [0.4        0.92992814]
 [0.5        1.13175549]
 [0.6        0.10459473]
 [0.7        1.89307031]
 [0.8        1.08894135]
 [0.9        1.66565612]
 [1.         1.23960277]
 [1.09391667 0.80282923]]",0,0.037
8732112179,m,20,english,5,4,english,2024-02-01 10:37:13.481511,False,2,302,sounds\english\audio/english_462.wav,"[[  0.          78.76621738]
 [  0.1         31.47495931]
 [  0.2        -13.74936046]
 [  0.3        -80.17251448]
 [  0.4        -78.67939132]
 [  0.5         43.51355655]
 [  0.6          3.64631971]
 [  0.7        -45.69022839]
 [  0.8        -12.47954209]
 [  0.9        -13.33411056]
 [  1.          14.72637348]
 [  1.09391667 -47.88617719]]","[[0.         0.83121963]
 [0.1        1.43506309]
 [0.2        0.97721307]
 [0.3        0.92562125]
 [0.4        0.04016866]
 [0.5        0.46288791]
 [0.6        1.76703425]
 [0.7        1.40353438]
 [0.8        0.01443424]
 [0.9        0.75223744]
 [1.         0.69611535]
 [1.09391667 0.81633503]]",1,0.459
8732112179,m,20,english,5,4,english,2024-02-01 10:37:13.481511,False,2,303,sounds\english\audio/english_309.wav,"[[  0.         -34.14852999]
 [  0.1        -60.02804827]
 [  0.2          6.0299745 ]
 [  0.3         65.21163803]
 [  0.4         70.66724966]
 [  0.5         45.99109365]
 [  0.6        -19.50247914]
 [  0.7         -1.40871488]
 [  0.8         76.93262372]
 [  0.9         -6.89150381]
 [  1.         -55.94090841]
 [  1.09391667  80.41347419]]","[[0.         1.21753296]
 [0.1        1.49982591]
 [0.2        1.91679373]
 [0.3        0.32322976]
 [0.4        1.88516358]
 [0.5        1.4437576 ]
 [0.6        1.34394651]
 [0.7        0.70865896]
 [0.8        0.16374417]
 [0.9        0.04755869]
 [1.         0.82149119]
 [1.09391667 0.6378001 ]]",0,0.576
8732112179,m,20,english,5,4,english,2024-02-01 10:37:13.481511,False,2,304,sounds\english\audio/english_254.wav,"[[  0.         -79.97486314]
 [  0.1          4.97939185]
 [  0.2        -28.78047168]
 [  0.3         54.84679162]
 [  0.4        -29.5092506 ]
 [  0.5         32.35526616]
 [  0.6         30.73043206]
 [  0.7        -63.39934618]
 [  0.8         41.52768957]
 [  0.9        -68.73480186]
 [  1.          39.94615362]
 [  1.09391667  -8.67015509]]","[[0.         0.1587751 ]
 [0.1        1.19895937]
 [0.2        0.42029652]
 [0.3        0.35684023]
 [0.4        0.61489906]
 [0.5        0.62359164]
 [0.6        0.73353012]
 [0.7        1.26915249]
 [0.8        1.27281169]
 [0.9        1.34629586]
 [1.         0.72701625]
 [1.09391667 0.66252937]]",1,0.267
8732112179,m,20,english,5,4,english,2024-02-01 10:37:13.481511,False,2,305,sounds\english\audio/english_554.wav,"[[  0.          68.06713434]
 [  0.1         51.53363243]
 [  0.2         96.79789275]
 [  0.3        -32.97805092]
 [  0.4         38.32175517]
 [  0.5        -48.79684279]
 [  0.6          6.57101052]
 [  0.7         30.34426539]
 [  0.8         57.10485473]
 [  0.9        -93.21826179]
 [  1.          58.97430912]
 [  1.09391667  32.65345188]]","[[0.         1.26196428]
 [0.1        1.49608983]
 [0.2        1.01925431]
 [0.3        1.27259864]
 [0.4        0.99325409]
 [0.5        1.83296218]
 [0.6        1.99419824]
 [0.7        1.31395906]
 [0.8        1.83167901]
 [0.9        1.93422624]
 [1.         1.62256756]
 [1.09391667 0.90589094]]",0,0.078
8732112179,m,20,english,5,4,english,2024-02-01 10:37:13.481511,False,2,306,sounds\english\audio/english_813.wav,"[[  0.         -21.47810291]
 [  0.1        -84.13417806]
 [  0.2        -18.57483833]
 [  0.3         85.46223106]
 [  0.4        -47.12255135]
 [  0.5         55.13909294]
 [  0.6        -92.27868598]
 [  0.7        -98.65237277]
 [  0.8        -73.59665384]
 [  0.9         99.75598896]
 [  1.          22.46235737]
 [  1.09391667 -23.97281603]]","[[0.         0.42494113]
 [0.1        0.85563352]
 [0.2        1.62435889]
 [0.3        1.84520067]
 [0.4        0.16630065]
 [0.5        1.66622477]
 [0.6        1.29440347]
 [0.7        1.30366   ]
 [0.8        0.95942882]
 [0.9        0.41648042]
 [1.         0.55260475]
 [1.09391667 0.8655965 ]]",0,0.459
8732112179,m,20,english,5,4,english,2024-02-01 10:37:13.481511,False,2,307,sounds\english\audio/english_877.wav,"[[  0.         -79.4269128 ]
 [  0.1        -42.40916555]
 [  0.2         84.72383025]
 [  0.3        -35.54848219]
 [  0.4        -35.20052766]
 [  0.5         57.63879902]
 [  0.6        -50.34738089]
 [  0.7         35.50935182]
 [  0.8        -13.54053645]
 [  0.9         38.29355396]
 [  1.         -90.75099287]
 [  1.09391667  11.78460722]]","[[0.         0.17316108]
 [0.1        0.86989438]
 [0.2        1.02258728]
 [0.3        0.92677034]
 [0.4        0.70533019]
 [0.5        1.77292228]
 [0.6        1.28323574]
 [0.7        1.91968405]
 [0.8        1.52549813]
 [0.9        1.27055267]
 [1.         0.7500836 ]
 [1.09391667 0.69644161]]",1,0.261
8732112179,m,20,english,5,4,english,2024-02-01 10:37:13.481511,False,2,308,sounds\english\audio/english_82.wav,"[[  0.         -50.65944843]
 [  0.1         -8.30198342]
 [  0.2         28.238309  ]
 [  0.3        -35.80408689]
 [  0.4         80.50699914]
 [  0.5        -99.69979401]
 [  0.6         30.38876845]
 [  0.7         -2.76434691]
 [  0.8        -19.59960586]
 [  0.9        -93.26966696]
 [  1.          64.56379815]
 [  1.09391667 -59.79308705]]","[[0.         0.53695405]
 [0.1        1.68823048]
 [0.2        0.29560695]
 [0.3        0.83443164]
 [0.4        0.87894934]
 [0.5        1.46703122]
 [0.6        0.23248639]
 [0.7        1.71572221]
 [0.8        1.24729907]
 [0.9        0.75753981]
 [1.         1.65214627]
 [1.09391667 0.40383656]]",0,2.966
8732112179,m,20,english,5,4,english,2024-02-01 10:37:13.481511,False,2,309,sounds\english\audio/english_485.wav,"[[  0.          26.44907742]
 [  0.1        -73.42361147]
 [  0.2         92.83531317]
 [  0.3         82.36619494]
 [  0.4        -17.51087166]
 [  0.5        -26.28495986]
 [  0.6          0.94288036]
 [  0.7        -11.7082274 ]
 [  0.8        -66.16443059]
 [  0.9        -47.12237025]
 [  1.         -81.68715   ]
 [  1.09391667 -22.18807282]]","[[0.         0.83287187]
 [0.1        1.40395819]
 [0.2        1.51369756]
 [0.3        0.99682619]
 [0.4        0.01124783]
 [0.5        0.02757377]
 [0.6        0.89772739]
 [0.7        0.83950196]
 [0.8        0.91739043]
 [0.9        0.80980959]
 [1.         1.03797653]
 [1.09391667 0.63071559]]",0,1.296
8732112179,m,20,english,5,4,english,2024-02-01 10:37:13.481511,False,2,310,sounds\english\audio/english_489.wav,"[[  0.          34.87513384]
 [  0.1        -56.49709653]
 [  0.2        -69.32456338]
 [  0.3         53.20706346]
 [  0.4         66.8977185 ]
 [  0.5         47.95425842]
 [  0.6         18.45634507]
 [  0.7        -35.00488862]
 [  0.8         41.56892466]
 [  0.9         -9.61579481]
 [  1.         -77.26438838]
 [  1.09391667 -34.81016687]]","[[0.         0.04879029]
 [0.1        0.42206675]
 [0.2        1.77329015]
 [0.3        0.48934341]
 [0.4        1.53841919]
 [0.5        1.90609151]
 [0.6        1.04648426]
 [0.7        0.7592551 ]
 [0.8        1.06956744]
 [0.9        0.57636466]
 [1.         0.72315176]
 [1.09391667 0.99781533]]",0,0.2
8732112179,m,20,english,5,4,english,2024-02-01 10:37:13.481511,False,2,311,sounds\english\audio/english_432.wav,"[[  0.          28.49955807]
 [  0.1        -31.8275444 ]
 [  0.2         24.24217544]
 [  0.3        -66.09269444]
 [  0.4        -62.15798019]
 [  0.5        -49.72154406]
 [  0.6        -47.69762913]
 [  0.7         77.36626765]
 [  0.8          5.83013874]
 [  0.9         28.26329168]
 [  1.         -41.71680011]
 [  1.09391667  67.89473062]]","[[0.         0.25208372]
 [0.1        0.73448825]
 [0.2        0.75780001]
 [0.3        1.1180686 ]
 [0.4        1.06816696]
 [0.5        0.60613643]
 [0.6        0.58276722]
 [0.7        1.4653334 ]
 [0.8        1.3937813 ]
 [0.9        1.50157436]
 [1.         1.14185861]
 [1.09391667 1.59474316]]",1,0.975
8732112179,m,20,english,5,4,english,2024-02-01 10:37:13.481511,False,2,312,sounds\english\audio/english_944.wav,"[[  0.          15.60693819]
 [  0.1        -30.17366225]
 [  0.2        -74.98996265]
 [  0.3        -21.71143967]
 [  0.4        -71.17152847]
 [  0.5        -79.08347918]
 [  0.6         30.00213426]
 [  0.7        -95.66333823]
 [  0.8        -86.13874985]
 [  0.9        -92.76645644]
 [  1.         -60.06542453]
 [  1.09391667 -49.67322896]]","[[0.         1.52023204]
 [0.1        1.91331724]
 [0.2        0.77968244]
 [0.3        0.16568234]
 [0.4        0.05371195]
 [0.5        0.45619097]
 [0.6        0.51735739]
 [0.7        1.56234264]
 [0.8        1.61252587]
 [0.9        0.66568015]
 [1.         1.71575711]
 [1.09391667 1.10728615]]",0,0.292
8732112179,m,20,english,5,4,english,2024-02-01 10:37:13.481511,False,2,313,sounds\english\audio/english_730.wav,"[[  0.          98.7829688 ]
 [  0.1        -67.9329994 ]
 [  0.2        -35.4157721 ]
 [  0.3          8.75583116]
 [  0.4        -60.72300086]
 [  0.5        -43.53238385]
 [  0.6          7.41942565]
 [  0.7        -30.23988593]
 [  0.8         98.85106115]
 [  0.9         11.8745124 ]
 [  1.         -15.67114445]
 [  1.09391667 -67.06238252]]","[[0.         0.6873965 ]
 [0.1        0.65236597]
 [0.2        1.04626144]
 [0.3        1.65669948]
 [0.4        1.8622585 ]
 [0.5        1.86205359]
 [0.6        1.2731877 ]
 [0.7        0.2835626 ]
 [0.8        0.42372638]
 [0.9        1.35675351]
 [1.         1.03423815]
 [1.09391667 0.63701046]]",0,0.149
8732112179,m,20,english,5,4,english,2024-02-01 10:37:13.481511,False,2,314,sounds\english\audio/english_992.wav,"[[  0.          -5.15788791]
 [  0.1         87.86739991]
 [  0.2        -74.96538965]
 [  0.3         51.5508712 ]
 [  0.4         55.84577921]
 [  0.5        -73.81356171]
 [  0.6        -70.33946252]
 [  0.7        -76.12910815]
 [  0.8        -38.0545779 ]
 [  0.9         -5.26509044]
 [  1.          33.43231637]
 [  1.09391667 -37.46452433]]","[[0.         0.02044401]
 [0.1        0.14748193]
 [0.2        1.08794539]
 [0.3        1.90839795]
 [0.4        0.11098659]
 [0.5        1.14044774]
 [0.6        0.24836029]
 [0.7        1.64559676]
 [0.8        1.57501427]
 [0.9        0.82338834]
 [1.         0.44386037]
 [1.09391667 0.70783957]]",0,0.161
8732112179,m,20,english,5,4,english,2024-02-01 10:37:13.481511,False,2,315,sounds\english\audio/english_168.wav,"[[  0.          -2.82851798]
 [  0.1         47.00857465]
 [  0.2        -17.58347791]
 [  0.3        -13.31715429]
 [  0.4         32.59893477]
 [  0.5         97.16584938]
 [  0.6        -13.44636048]
 [  0.7          9.9504683 ]
 [  0.8         45.41604728]
 [  0.9        -79.49961867]
 [  1.          35.96813383]
 [  1.09391667 -86.51274139]]","[[0.         0.84695831]
 [0.1        0.31778045]
 [0.2        1.27812293]
 [0.3        0.74038461]
 [0.4        0.53430653]
 [0.5        0.39836338]
 [0.6        1.18595545]
 [0.7        1.40244409]
 [0.8        0.07499365]
 [0.9        0.73784136]
 [1.         1.37065847]
 [1.09391667 0.67911571]]",0,0.328
8732112179,m,20,english,5,4,english,2024-02-01 10:37:13.481511,False,2,316,sounds\english\audio/english_352.wav,"[[  0.          84.78119141]
 [  0.1         88.75454048]
 [  0.2         23.94901813]
 [  0.3        -18.90676095]
 [  0.4         60.06070111]
 [  0.5         62.40800149]
 [  0.6          3.12749593]
 [  0.7         56.86714317]
 [  0.8        -52.83270381]
 [  0.9        -40.5099806 ]
 [  1.         -16.36538997]
 [  1.09391667  22.50184759]]","[[0.         1.3229017 ]
 [0.1        0.55829323]
 [0.2        0.0402509 ]
 [0.3        0.61640233]
 [0.4        0.96654272]
 [0.5        0.92098566]
 [0.6        1.84821975]
 [0.7        0.23838951]
 [0.8        0.65493925]
 [0.9        1.28053314]
 [1.         0.87321298]
 [1.09391667 0.74058038]]",0,0.363
8732112179,m,20,english,5,4,english,2024-02-01 10:37:13.481511,False,2,317,sounds\english\audio/english_657.wav,"[[  0.         -63.69177318]
 [  0.1         54.73276248]
 [  0.2        -43.55623832]
 [  0.3         11.0238782 ]
 [  0.4        -59.68015802]
 [  0.5         27.65759043]
 [  0.6         -5.28412069]
 [  0.7         11.72971173]
 [  0.8         72.01905562]
 [  0.9         65.996528  ]
 [  1.         -90.37548991]
 [  1.09391667 -82.6734304 ]]","[[0.         1.72307232]
 [0.1        1.66830023]
 [0.2        1.13616271]
 [0.3        1.88829015]
 [0.4        1.12700282]
 [0.5        0.7230722 ]
 [0.6        0.45968236]
 [0.7        1.25039239]
 [0.8        0.98563216]
 [0.9        0.19974442]
 [1.         1.44886145]
 [1.09391667 0.27222986]]",0,1.044
8732112179,m,20,english,5,4,english,2024-02-01 10:37:13.481511,False,2,318,sounds\english\audio/english_150.wav,"[[  0.         -50.54232549]
 [  0.1         34.32153656]
 [  0.2        -10.92395048]
 [  0.3         53.72738624]
 [  0.4         62.41801081]
 [  0.5        -32.60317387]
 [  0.6        -14.80411838]
 [  0.7         55.20966729]
 [  0.8        -74.0684305 ]
 [  0.9         -4.87965611]
 [  1.         -79.50813125]
 [  1.09391667  24.9492826 ]]","[[0.         1.16258998]
 [0.1        0.79689364]
 [0.2        0.16790755]
 [0.3        0.35039588]
 [0.4        0.24836215]
 [0.5        0.38408886]
 [0.6        0.47894499]
 [0.7        1.81942338]
 [0.8        1.36079379]
 [0.9        1.63972786]
 [1.         1.65428446]
 [1.09391667 1.31063675]]",0,0.645
8732112179,m,20,english,5,4,english,2024-02-01 10:37:13.481511,False,2,319,sounds\english\audio/english_539.wav,"[[  0.         -94.17846062]
 [  0.1         -5.02019603]
 [  0.2        -69.32919076]
 [  0.3         80.71922828]
 [  0.4        -44.41930109]
 [  0.5         60.55312323]
 [  0.6        -22.38704472]
 [  0.7         42.18310052]
 [  0.8         -3.23406116]
 [  0.9         86.87834775]
 [  1.          -2.56962664]
 [  1.09391667  13.84279534]]","[[0.         0.79705309]
 [0.1        0.75034459]
 [0.2        1.92009714]
 [0.3        1.69419261]
 [0.4        1.08134057]
 [0.5        0.26247587]
 [0.6        1.40392738]
 [0.7        0.38201887]
 [0.8        1.79513964]
 [0.9        0.10058598]
 [1.         1.19776684]
 [1.09391667 1.72675702]]",0,0.459
8732112179,m,20,english,5,4,english,2024-02-01 10:37:13.481511,False,2,320,sounds\english\audio/english_132.wav,"[[  0.           0.80878803]
 [  0.1        -89.46369243]
 [  0.2        -42.02740452]
 [  0.3        -31.54071999]
 [  0.4          0.25010778]
 [  0.5         58.11815913]
 [  0.6         81.96461668]
 [  0.7        -44.50191201]
 [  0.8        -95.34081409]
 [  0.9        -97.06518429]
 [  1.           9.04827132]
 [  1.09391667  76.3058936 ]]","[[0.         1.8484575 ]
 [0.1        0.19659267]
 [0.2        0.98704764]
 [0.3        0.90975168]
 [0.4        1.48690857]
 [0.5        1.16973021]
 [0.6        0.00206468]
 [0.7        0.61136538]
 [0.8        0.53595083]
 [0.9        0.1294964 ]
 [1.         0.71465456]
 [1.09391667 0.51987053]]",1,0.431
8732112179,m,20,english,5,4,english,2024-02-01 10:37:13.481511,False,2,321,sounds\english\audio/english_65.wav,"[[  0.         -44.08652709]
 [  0.1          3.68023197]
 [  0.2        -19.05866896]
 [  0.3         12.87316772]
 [  0.4        -96.16119339]
 [  0.5        -80.0946771 ]
 [  0.6         69.71447188]
 [  0.7         31.09176238]
 [  0.8          5.95151439]
 [  0.9        -95.02350092]
 [  1.          40.23975653]
 [  1.09391667  55.65657795]]","[[0.         1.3840041 ]
 [0.1        1.67820436]
 [0.2        1.58939797]
 [0.3        0.13316714]
 [0.4        0.86814229]
 [0.5        0.41459676]
 [0.6        1.482845  ]
 [0.7        0.500881  ]
 [0.8        1.54890047]
 [0.9        0.653854  ]
 [1.         1.48515765]
 [1.09391667 1.57918375]]",0,0.128
8732112179,m,20,english,5,4,english,2024-02-01 10:37:13.481511,False,2,322,sounds\english\audio/english_492.wav,"[[  0.         -29.9472328 ]
 [  0.1         35.33010824]
 [  0.2         -3.45968041]
 [  0.3         59.06456756]
 [  0.4         98.23949624]
 [  0.5         -1.48270349]
 [  0.6         -1.72219507]
 [  0.7         12.69106909]
 [  0.8        -21.74180351]
 [  0.9        -33.92370757]
 [  1.          37.93162517]
 [  1.09391667 -90.75179354]]","[[0.         1.28534899]
 [0.1        1.03908978]
 [0.2        1.26033893]
 [0.3        0.39463808]
 [0.4        0.21276087]
 [0.5        0.25205409]
 [0.6        0.58596557]
 [0.7        1.49088879]
 [0.8        1.5225112 ]
 [0.9        0.13189423]
 [1.         0.89918189]
 [1.09391667 1.07142866]]",0,0.258
8732112179,m,20,english,5,4,english,2024-02-01 10:37:13.481511,False,2,323,sounds\english\audio/english_746.wav,"[[  0.         -17.85129661]
 [  0.1         44.49284576]
 [  0.2        -28.07602373]
 [  0.3         80.79649727]
 [  0.4        -35.87476706]
 [  0.5        -13.61927607]
 [  0.6        -13.45090469]
 [  0.7         74.7415388 ]
 [  0.8        -73.80839868]
 [  0.9         16.67710805]
 [  1.          90.26780737]
 [  1.09391667 -18.98803571]]","[[0.         0.72236584]
 [0.1        1.69903141]
 [0.2        1.83658278]
 [0.3        0.38437005]
 [0.4        0.19777168]
 [0.5        0.81094496]
 [0.6        0.04159101]
 [0.7        0.34194607]
 [0.8        1.34456722]
 [0.9        0.32922526]
 [1.         0.60956501]
 [1.09391667 1.98648295]]",0,0.158
8732112179,m,20,english,5,4,english,2024-02-01 10:37:13.481511,False,2,324,sounds\english\audio/english_265.wav,"[[  0.          37.99619851]
 [  0.1         92.08310578]
 [  0.2        -93.31608335]
 [  0.3        -28.1732534 ]
 [  0.4         91.25662543]
 [  0.5         -3.3980371 ]
 [  0.6         95.45543469]
 [  0.7         61.34311925]
 [  0.8          9.18146154]
 [  0.9        -39.71464373]
 [  1.          67.37466109]
 [  1.09391667 -37.66383284]]","[[0.         0.51044294]
 [0.1        1.10850201]
 [0.2        1.81697716]
 [0.3        0.4401458 ]
 [0.4        1.00027347]
 [0.5        0.61680146]
 [0.6        0.45035358]
 [0.7        0.66686517]
 [0.8        0.25031529]
 [0.9        1.2364051 ]
 [1.         0.23430361]
 [1.09391667 1.07797595]]",0,0.456
8732112179,m,20,english,5,4,english,2024-02-01 10:37:13.481511,False,2,325,sounds\english\audio/english_589.wav,"[[  0.          69.60358053]
 [  0.1        -65.76586915]
 [  0.2         50.74096111]
 [  0.3        -96.7673569 ]
 [  0.4        -26.86757353]
 [  0.5        -10.06885571]
 [  0.6         63.05343757]
 [  0.7        -63.30132259]
 [  0.8        -47.99442538]
 [  0.9         57.19971628]
 [  1.         -48.99247717]
 [  1.09391667 -67.69648975]]","[[0.         1.2976065 ]
 [0.1        1.47951187]
 [0.2        1.3485394 ]
 [0.3        0.54528982]
 [0.4        1.27804734]
 [0.5        1.28037388]
 [0.6        0.75540581]
 [0.7        0.89000931]
 [0.8        0.42595149]
 [0.9        1.49547586]
 [1.         0.17298639]
 [1.09391667 0.58048161]]",0,0.585
8732112179,m,20,english,5,4,english,2024-02-01 10:37:13.481511,False,2,326,sounds\english\audio/english_138.wav,"[[  0.          84.66208912]
 [  0.1        -96.9061077 ]
 [  0.2         56.17770157]
 [  0.3        -78.07946429]
 [  0.4         91.20181194]
 [  0.5        -30.87660198]
 [  0.6         27.3117693 ]
 [  0.7        -99.12692265]
 [  0.8        -51.46520236]
 [  0.9         -3.34321361]
 [  1.          -7.25861447]
 [  1.09391667  -2.49487658]]","[[0.         1.51830246]
 [0.1        0.02156416]
 [0.2        1.9703834 ]
 [0.3        1.25545273]
 [0.4        0.91568969]
 [0.5        1.83228794]
 [0.6        1.04000857]
 [0.7        1.75318047]
 [0.8        0.69204702]
 [0.9        0.65368484]
 [1.         0.00684889]
 [1.09391667 0.43470638]]",0,0.633
8732112179,m,20,english,5,4,english,2024-02-01 10:37:13.481511,False,2,327,sounds\english\audio/english_163.wav,"[[  0.         -75.52696483]
 [  0.1        -50.94410786]
 [  0.2        -38.29944429]
 [  0.3        -32.57127411]
 [  0.4        -30.55941116]
 [  0.5        -14.52407307]
 [  0.6         28.48601544]
 [  0.7        -14.30599007]
 [  0.8         38.98323909]
 [  0.9        -70.97720427]
 [  1.         -31.77991107]
 [  1.09391667 -57.22342155]]","[[0.         0.21633828]
 [0.1        0.31603177]
 [0.2        1.04333718]
 [0.3        1.57763682]
 [0.4        0.14485533]
 [0.5        1.53043555]
 [0.6        0.0734581 ]
 [0.7        1.19104414]
 [0.8        0.4056819 ]
 [0.9        1.30823112]
 [1.         1.63835528]
 [1.09391667 1.03131117]]",0,0.522
8732112179,m,20,english,5,4,english,2024-02-01 10:37:13.481511,False,2,328,sounds\english\audio/english_529.wav,"[[  0.         -75.44052411]
 [  0.1         73.68823703]
 [  0.2         35.88983091]
 [  0.3         74.9860534 ]
 [  0.4         39.79761308]
 [  0.5         87.56894365]
 [  0.6        -70.18354505]
 [  0.7         30.14757838]
 [  0.8        -85.67720686]
 [  0.9         -5.22909547]
 [  1.         -29.17041088]
 [  1.09391667  91.40497623]]","[[0.         0.27425441]
 [0.1        1.79894556]
 [0.2        1.38498362]
 [0.3        1.12136542]
 [0.4        0.69021564]
 [0.5        1.32432139]
 [0.6        0.62496123]
 [0.7        0.16694554]
 [0.8        1.72485798]
 [0.9        0.11317639]
 [1.         1.97903266]
 [1.09391667 0.92289832]]",0,0.275
8732112179,m,20,english,5,4,english,2024-02-01 10:37:13.481511,False,2,329,sounds\english\audio/english_223.wav,"[[  0.           3.75482412]
 [  0.1        -10.12746206]
 [  0.2        -71.88310124]
 [  0.3         57.69353131]
 [  0.4         -7.46282971]
 [  0.5         -4.62449416]
 [  0.6         37.75223181]
 [  0.7         14.07580733]
 [  0.8          7.873186  ]
 [  0.9        -15.37742922]
 [  1.          25.72603899]
 [  1.09391667  58.91699651]]","[[0.         0.48204307]
 [0.1        1.57422829]
 [0.2        1.46180987]
 [0.3        0.36455809]
 [0.4        1.50137994]
 [0.5        0.81971787]
 [0.6        0.40602656]
 [0.7        1.29724475]
 [0.8        0.55564049]
 [0.9        1.88260367]
 [1.         0.5343602 ]
 [1.09391667 1.60309461]]",1,0.816
8732112179,m,20,english,5,4,english,2024-02-01 10:37:13.481511,False,2,330,sounds\english\audio/english_159.wav,"[[  0.         -27.71132793]
 [  0.1          5.67043956]
 [  0.2        -56.04116861]
 [  0.3        -60.647669  ]
 [  0.4        -31.28235293]
 [  0.5        -41.95968639]
 [  0.6        -46.83352467]
 [  0.7         -6.87168688]
 [  0.8        -38.22542966]
 [  0.9         29.71030145]
 [  1.         -44.77576274]
 [  1.09391667  46.77490147]]","[[0.         0.45552689]
 [0.1        1.85865221]
 [0.2        1.36292014]
 [0.3        0.8196748 ]
 [0.4        1.14454104]
 [0.5        0.2708192 ]
 [0.6        0.67466027]
 [0.7        0.75914602]
 [0.8        0.8772758 ]
 [0.9        1.24753926]
 [1.         1.52106538]
 [1.09391667 1.15996843]]",0,0.608
8732112179,m,20,english,5,4,english,2024-02-01 10:37:13.481511,False,2,331,sounds\english\audio/english_943.wav,"[[  0.          79.5890822 ]
 [  0.1         78.55264714]
 [  0.2         44.19658383]
 [  0.3        -16.14605168]
 [  0.4         46.84349784]
 [  0.5         67.29364224]
 [  0.6         62.75940247]
 [  0.7        -42.13911475]
 [  0.8        -19.02728939]
 [  0.9        -16.03900615]
 [  1.          15.22888591]
 [  1.09391667  60.70409514]]","[[0.         1.20824936]
 [0.1        0.88116928]
 [0.2        1.0423498 ]
 [0.3        1.30491636]
 [0.4        1.23781924]
 [0.5        1.19542323]
 [0.6        1.00041218]
 [0.7        1.18889719]
 [0.8        0.17654831]
 [0.9        0.65298118]
 [1.         0.96725626]
 [1.09391667 1.67455333]]",0,0.106
8732112179,m,20,english,5,4,english,2024-02-01 10:37:13.481511,False,2,332,sounds\english\audio/english_175.wav,"[[  0.          38.44646754]
 [  0.1        -23.00340035]
 [  0.2        -30.61543139]
 [  0.3         99.83965835]
 [  0.4        -46.63956487]
 [  0.5        -59.37007197]
 [  0.6         82.40355982]
 [  0.7        -46.17826166]
 [  0.8          9.80730277]
 [  0.9         74.64832737]
 [  1.         -39.17791416]
 [  1.09391667 -90.85337976]]","[[0.         1.34207659]
 [0.1        1.41404042]
 [0.2        1.49080674]
 [0.3        0.72740359]
 [0.4        1.0197188 ]
 [0.5        0.62236458]
 [0.6        1.36261766]
 [0.7        0.8547614 ]
 [0.8        0.21399821]
 [0.9        1.05176786]
 [1.         0.6104539 ]
 [1.09391667 1.60893412]]",1,0.198
8732112179,m,20,english,5,4,english,2024-02-01 10:37:13.481511,False,2,333,sounds\english\audio/english_794.wav,"[[  0.         -94.32956865]
 [  0.1        -54.44529308]
 [  0.2         41.27752313]
 [  0.3        -24.41011935]
 [  0.4        -17.86009113]
 [  0.5         70.96620098]
 [  0.6         -6.92588192]
 [  0.7          1.86567935]
 [  0.8         85.29780195]
 [  0.9         66.99714839]
 [  1.          34.72052642]
 [  1.09391667  18.1862992 ]]","[[0.         0.17232345]
 [0.1        0.63768668]
 [0.2        0.54334699]
 [0.3        0.41814183]
 [0.4        0.83205575]
 [0.5        1.38587001]
 [0.6        0.50257762]
 [0.7        1.6396819 ]
 [0.8        1.19491374]
 [0.9        0.22376499]
 [1.         0.81945326]
 [1.09391667 1.51337696]]",0,0.301
8732112179,m,20,english,5,4,english,2024-02-01 10:37:13.481511,False,2,334,sounds\english\audio/english_418.wav,"[[  0.          17.48179392]
 [  0.1        -20.93259057]
 [  0.2         38.48191575]
 [  0.3        -43.04758346]
 [  0.4        -27.49631219]
 [  0.5        -43.30662093]
 [  0.6        -11.80067145]
 [  0.7        -65.69750473]
 [  0.8         36.09713106]
 [  0.9        -89.16917769]
 [  1.         -11.53730863]
 [  1.09391667  91.60971419]]","[[0.         1.16767435]
 [0.1        1.12895723]
 [0.2        0.3034601 ]
 [0.3        1.48058882]
 [0.4        0.85133692]
 [0.5        1.76317004]
 [0.6        0.40561242]
 [0.7        0.69119528]
 [0.8        0.70403422]
 [0.9        0.50785509]
 [1.         0.15277714]
 [1.09391667 0.42464397]]",0,0.266
8732112179,m,20,english,5,4,english,2024-02-01 10:37:13.481511,False,2,335,sounds\english\audio/english_171.wav,"[[  0.          57.16640714]
 [  0.1         74.54839728]
 [  0.2         95.75678202]
 [  0.3         39.99051632]
 [  0.4         -6.66803256]
 [  0.5        -11.42556478]
 [  0.6        -61.08204703]
 [  0.7        -47.00718825]
 [  0.8        -62.88052724]
 [  0.9        -55.43761186]
 [  1.         -25.22707532]
 [  1.09391667  72.94956576]]","[[0.         0.48953769]
 [0.1        1.15474794]
 [0.2        1.06369724]
 [0.3        0.94070076]
 [0.4        0.05995963]
 [0.5        0.94038212]
 [0.6        1.30766084]
 [0.7        1.96472455]
 [0.8        0.35350446]
 [0.9        0.65278216]
 [1.         1.06452254]
 [1.09391667 0.49293676]]",0,0.14
8732112179,m,20,english,5,4,english,2024-02-01 10:37:13.481511,False,2,336,sounds\english\audio/english_945.wav,"[[  0.          -8.90413291]
 [  0.1         14.69079878]
 [  0.2         16.86515392]
 [  0.3         -0.90328453]
 [  0.4        -81.95044393]
 [  0.5         39.38574307]
 [  0.6         48.97516123]
 [  0.7         22.02745292]
 [  0.8        -62.58672275]
 [  0.9         40.96128128]
 [  1.         -87.24049134]
 [  1.09391667 -36.18929768]]","[[0.         0.85973831]
 [0.1        1.50793383]
 [0.2        1.6389584 ]
 [0.3        1.35118399]
 [0.4        0.67347382]
 [0.5        0.90170453]
 [0.6        1.48284903]
 [0.7        0.52532692]
 [0.8        0.42512417]
 [0.9        0.61558677]
 [1.         1.20691188]
 [1.09391667 1.76719884]]",0,1.073
8732112179,m,20,english,5,4,english,2024-02-01 10:37:13.481511,False,2,337,sounds\english\audio/english_225.wav,"[[  0.         -44.18539546]
 [  0.1         98.45836914]
 [  0.2        -29.25134998]
 [  0.3          3.09020259]
 [  0.4        -47.25747067]
 [  0.5        -56.49635783]
 [  0.6         -4.90331194]
 [  0.7         46.68398305]
 [  0.8          6.9824473 ]
 [  0.9         66.07062576]
 [  1.         -46.91429175]
 [  1.09391667 -70.62927251]]","[[0.         0.94661558]
 [0.1        0.50305164]
 [0.2        0.27788422]
 [0.3        0.91972932]
 [0.4        1.19561164]
 [0.5        1.34544194]
 [0.6        0.16377231]
 [0.7        1.35188114]
 [0.8        1.88786979]
 [0.9        1.27635088]
 [1.         1.3192813 ]
 [1.09391667 0.77732241]]",1,0.366
8732112179,m,20,english,5,4,english,2024-02-01 10:37:13.481511,False,2,338,sounds\english\audio/english_582.wav,"[[  0.         -92.78340469]
 [  0.1         42.51344298]
 [  0.2        -42.63495555]
 [  0.3         52.58085474]
 [  0.4        -78.11848263]
 [  0.5        -34.20952238]
 [  0.6        -86.64412457]
 [  0.7         26.30632387]
 [  0.8        -34.45754989]
 [  0.9        -45.78416277]
 [  1.         -16.65162857]
 [  1.09391667   7.21919156]]","[[0.         1.00518837]
 [0.1        1.30114299]
 [0.2        1.27031636]
 [0.3        1.12025144]
 [0.4        0.79798268]
 [0.5        0.6293022 ]
 [0.6        1.95773952]
 [0.7        0.97092523]
 [0.8        1.38286632]
 [0.9        1.31952832]
 [1.         1.84309931]
 [1.09391667 1.34013439]]",0,0.845
8732112179,m,20,english,5,4,english,2024-02-01 10:37:13.481511,False,2,339,sounds\english\audio/english_106.wav,"[[  0.          49.34223169]
 [  0.1        -45.57503338]
 [  0.2        -15.08492624]
 [  0.3        -19.8979669 ]
 [  0.4        -25.53796799]
 [  0.5         88.30993321]
 [  0.6        -64.76962788]
 [  0.7        -39.71315935]
 [  0.8         92.87896843]
 [  0.9        -52.99965121]
 [  1.          37.25809924]
 [  1.09391667  83.50306975]]","[[0.         0.13389709]
 [0.1        0.25174437]
 [0.2        0.82402432]
 [0.3        0.82208583]
 [0.4        1.38135822]
 [0.5        0.76093903]
 [0.6        0.57981415]
 [0.7        1.62636068]
 [0.8        1.17795772]
 [0.9        0.06230935]
 [1.         0.54036795]
 [1.09391667 1.72343759]]",1,0.654
8732112179,m,20,english,5,4,english,2024-02-01 10:37:13.481511,False,2,340,sounds\english\audio/english_664.wav,"[[  0.          87.83799753]
 [  0.1         93.07880912]
 [  0.2        -21.43792859]
 [  0.3         54.61607152]
 [  0.4         63.53186125]
 [  0.5         69.57332079]
 [  0.6        -98.283012  ]
 [  0.7          3.96514961]
 [  0.8        -68.49765079]
 [  0.9         22.71561052]
 [  1.          62.92065682]
 [  1.09391667   7.64063367]]","[[0.         0.80622544]
 [0.1        0.71131531]
 [0.2        0.52490717]
 [0.3        0.79105774]
 [0.4        0.74894626]
 [0.5        0.96341942]
 [0.6        0.12490453]
 [0.7        1.772086  ]
 [0.8        1.2138043 ]
 [0.9        1.03968333]
 [1.         1.01702127]
 [1.09391667 1.88905221]]",1,0.401
8732112179,m,20,english,5,4,english,2024-02-01 10:37:13.481511,False,2,341,sounds\english\audio/english_295.wav,"[[  0.         -21.33588045]
 [  0.1         28.18111365]
 [  0.2        -11.21795953]
 [  0.3        -75.82203472]
 [  0.4         36.75980824]
 [  0.5         82.52508149]
 [  0.6         -2.95672331]
 [  0.7         78.98755658]
 [  0.8         34.02541903]
 [  0.9         40.25185798]
 [  1.         -23.49198504]
 [  1.09391667  43.4619086 ]]","[[0.         0.64007693]
 [0.1        0.36210443]
 [0.2        0.97510536]
 [0.3        1.22570619]
 [0.4        1.08813481]
 [0.5        1.82668288]
 [0.6        0.03453598]
 [0.7        1.07945409]
 [0.8        0.06380248]
 [0.9        0.46673817]
 [1.         0.55804019]
 [1.09391667 0.67911388]]",0,0.484
8732112179,m,20,english,5,4,english,2024-02-01 10:37:13.481511,False,2,342,sounds\english\audio/english_632.wav,"[[  0.          54.27416022]
 [  0.1         37.10784124]
 [  0.2        -11.42343802]
 [  0.3         83.07683271]
 [  0.4        -41.86230003]
 [  0.5        -65.18909296]
 [  0.6         73.88921211]
 [  0.7        -78.27421644]
 [  0.8        -55.91875918]
 [  0.9         38.52779866]
 [  1.         -63.00995407]
 [  1.09391667 -47.01105768]]","[[0.         0.37224575]
 [0.1        1.19176423]
 [0.2        1.11602641]
 [0.3        0.86319718]
 [0.4        1.45181299]
 [0.5        0.00810665]
 [0.6        1.82551729]
 [0.7        0.97441054]
 [0.8        1.38456518]
 [0.9        1.39025004]
 [1.         0.73323837]
 [1.09391667 1.12337895]]",0,0.204
8732112179,m,20,english,5,4,english,2024-02-01 10:37:13.481511,False,2,343,sounds\english\audio/english_868.wav,"[[  0.           8.81168197]
 [  0.1         28.82624603]
 [  0.2        -13.41860503]
 [  0.3         -3.78239355]
 [  0.4        -99.28888376]
 [  0.5         97.17399406]
 [  0.6         -7.91387191]
 [  0.7         60.9049728 ]
 [  0.8        -11.98639675]
 [  0.9         -1.38257528]
 [  1.          25.89344048]
 [  1.09391667 -40.04347975]]","[[0.         0.91928245]
 [0.1        1.1322176 ]
 [0.2        0.903902  ]
 [0.3        0.85237712]
 [0.4        0.30528578]
 [0.5        0.73312891]
 [0.6        1.49247212]
 [0.7        1.20652206]
 [0.8        1.13523652]
 [0.9        0.60296342]
 [1.         0.75702193]
 [1.09391667 0.87917509]]",0,0.589
8732112179,m,20,english,5,4,english,2024-02-01 10:37:13.481511,False,2,344,sounds\english\audio/english_510.wav,"[[  0.         -64.82277941]
 [  0.1         67.50018906]
 [  0.2         83.11599323]
 [  0.3        -40.68058334]
 [  0.4        -20.66274727]
 [  0.5         57.39601347]
 [  0.6         26.65395964]
 [  0.7         -1.22309803]
 [  0.8         91.87113136]
 [  0.9         59.67411659]
 [  1.           9.25675614]
 [  1.09391667 -85.2659012 ]]","[[0.         1.74799884]
 [0.1        1.7328265 ]
 [0.2        1.53243167]
 [0.3        0.93226309]
 [0.4        0.97994595]
 [0.5        1.11050562]
 [0.6        0.07038292]
 [0.7        0.34804353]
 [0.8        1.43252604]
 [0.9        0.49156131]
 [1.         0.83882448]
 [1.09391667 1.33145629]]",1,0.41
8732112179,m,20,english,5,4,english,2024-02-01 10:37:13.481511,False,2,345,sounds\english\audio/english_294.wav,"[[  0.         -35.26170476]
 [  0.1        -68.79847515]
 [  0.2         21.65443345]
 [  0.3         18.61336719]
 [  0.4         29.14118392]
 [  0.5         -0.79474297]
 [  0.6        -83.10715175]
 [  0.7        -22.63410673]
 [  0.8        -21.26415856]
 [  0.9         47.90727918]
 [  1.         -39.88232682]
 [  1.09391667 -74.09279353]]","[[0.         0.76895084]
 [0.1        0.42345848]
 [0.2        1.88759315]
 [0.3        0.20743541]
 [0.4        0.10193981]
 [0.5        0.31438326]
 [0.6        1.2995954 ]
 [0.7        1.94703728]
 [0.8        0.92366458]
 [0.9        1.04223302]
 [1.         1.01801331]
 [1.09391667 0.911147  ]]",0,0.195
8732112179,m,20,english,5,4,english,2024-02-01 10:37:13.481511,False,2,346,sounds\english\audio/english_56.wav,"[[  0.          94.56130546]
 [  0.1         98.82920217]
 [  0.2        -30.68243792]
 [  0.3        -48.75978293]
 [  0.4        -79.08505246]
 [  0.5         18.07000914]
 [  0.6         57.19590548]
 [  0.7          6.7178476 ]
 [  0.8        -59.05070955]
 [  0.9        -76.10802368]
 [  1.         -28.87948521]
 [  1.09391667   8.04938486]]","[[0.         1.78248544]
 [0.1        0.32774506]
 [0.2        0.4010142 ]
 [0.3        0.84475133]
 [0.4        1.07558594]
 [0.5        1.2644329 ]
 [0.6        1.63811398]
 [0.7        1.3488209 ]
 [0.8        0.73862335]
 [0.9        0.85331353]
 [1.         1.24951522]
 [1.09391667 0.68295905]]",1,0.17
8732112179,m,20,english,5,4,english,2024-02-01 10:37:13.481511,False,2,347,sounds\english\audio/english_727.wav,"[[  0.         -18.41371041]
 [  0.1        -63.10285802]
 [  0.2        -11.47868373]
 [  0.3         40.37675275]
 [  0.4        -77.12859483]
 [  0.5         92.73705719]
 [  0.6        -55.99534641]
 [  0.7        -55.52546335]
 [  0.8          6.97078157]
 [  0.9        -23.82740681]
 [  1.          16.85010217]
 [  1.09391667  12.17774436]]","[[0.         1.35764892]
 [0.1        1.30171306]
 [0.2        1.89832966]
 [0.3        1.96157356]
 [0.4        0.9069281 ]
 [0.5        1.12095366]
 [0.6        1.00983545]
 [0.7        0.3683737 ]
 [0.8        1.10707799]
 [0.9        1.05563912]
 [1.         1.15538622]
 [1.09391667 0.52815825]]",0,0.078
8732112179,m,20,english,5,4,english,2024-02-01 10:37:13.481511,False,2,348,sounds\english\audio/english_10.wav,"[[  0.         -15.04153425]
 [  0.1        -57.22263716]
 [  0.2         27.92618044]
 [  0.3         25.5799778 ]
 [  0.4         30.11064479]
 [  0.5         -7.71764525]
 [  0.6         27.65902171]
 [  0.7        -47.57621095]
 [  0.8         43.99977355]
 [  0.9        -15.79441044]
 [  1.         -34.81966507]
 [  1.09391667  60.77971601]]","[[0.         1.52083452]
 [0.1        1.29896522]
 [0.2        0.38561389]
 [0.3        0.99686674]
 [0.4        0.6118482 ]
 [0.5        1.86037541]
 [0.6        0.71941397]
 [0.7        1.21671158]
 [0.8        1.36149686]
 [0.9        0.57839438]
 [1.         0.86495111]
 [1.09391667 0.19592518]]",0,1.328
8732112179,m,20,english,5,4,english,2024-02-01 10:37:13.481511,False,2,349,sounds\english\audio/english_781.wav,"[[  0.          13.49860993]
 [  0.1         78.16193023]
 [  0.2         43.40540276]
 [  0.3         44.39381188]
 [  0.4          1.19618008]
 [  0.5         97.39796145]
 [  0.6        -80.74515196]
 [  0.7         24.03355654]
 [  0.8        -69.35175607]
 [  0.9         69.20236756]
 [  1.          35.51398516]
 [  1.09391667 -53.23346631]]","[[0.         0.0422445 ]
 [0.1        0.76912714]
 [0.2        1.16484067]
 [0.3        0.51341231]
 [0.4        0.61057315]
 [0.5        1.22595164]
 [0.6        0.0959771 ]
 [0.7        0.86869214]
 [0.8        1.17997392]
 [0.9        1.93834455]
 [1.         0.60620459]
 [1.09391667 1.46133915]]",0,0.493
8732112179,m,20,english,5,4,english,2024-02-01 10:37:13.481511,False,2,350,sounds\english\audio/english_522.wav,"[[  0.         -41.53907187]
 [  0.1        -34.77242331]
 [  0.2         44.84688975]
 [  0.3          0.52781467]
 [  0.4        -85.49095183]
 [  0.5         49.75805681]
 [  0.6        -34.01238983]
 [  0.7        -76.80695945]
 [  0.8         57.48181657]
 [  0.9        -42.740182  ]
 [  1.          76.48970234]
 [  1.09391667 -24.33451257]]","[[0.         0.57004443]
 [0.1        0.9419408 ]
 [0.2        1.66104168]
 [0.3        0.91446022]
 [0.4        1.87910308]
 [0.5        1.6772423 ]
 [0.6        1.00245935]
 [0.7        1.44049733]
 [0.8        0.74965877]
 [0.9        1.30386633]
 [1.         1.30270801]
 [1.09391667 0.47933239]]",1,0.143
8732112179,m,20,english,5,4,english,2024-02-01 10:37:13.481511,False,2,351,sounds\english\audio/english_163.wav,"[[  0.         -75.52696483]
 [  0.1        -50.94410786]
 [  0.2        -38.29944429]
 [  0.3        -32.57127411]
 [  0.4        -30.55941116]
 [  0.5        -14.52407307]
 [  0.6         28.48601544]
 [  0.7        -14.30599007]
 [  0.8         38.98323909]
 [  0.9        -70.97720427]
 [  1.         -31.77991107]
 [  1.09391667 -57.22342155]]","[[0.         0.21633828]
 [0.1        0.31603177]
 [0.2        1.04333718]
 [0.3        1.57763682]
 [0.4        0.14485533]
 [0.5        1.53043555]
 [0.6        0.0734581 ]
 [0.7        1.19104414]
 [0.8        0.4056819 ]
 [0.9        1.30823112]
 [1.         1.63835528]
 [1.09391667 1.03131117]]",1,0.238
8732112179,m,20,english,5,4,english,2024-02-01 10:37:13.481511,False,2,352,sounds\english\audio/english_733.wav,"[[  0.          60.12911829]
 [  0.1         -6.07350544]
 [  0.2        -97.34447637]
 [  0.3         13.91289177]
 [  0.4         24.58615212]
 [  0.5         -0.46947401]
 [  0.6        -95.42432467]
 [  0.7        -12.42368325]
 [  0.8        -68.21201108]
 [  0.9         80.23434779]
 [  1.          37.72859174]
 [  1.09391667  99.34819771]]","[[0.         1.17715688]
 [0.1        0.73101999]
 [0.2        0.23762906]
 [0.3        0.47801532]
 [0.4        1.00660929]
 [0.5        0.69954151]
 [0.6        0.66296436]
 [0.7        0.8353001 ]
 [0.8        0.93210743]
 [0.9        0.7426454 ]
 [1.         1.31979312]
 [1.09391667 0.72211033]]",1,0.183
8732112179,m,20,english,5,4,english,2024-02-01 10:37:13.481511,False,2,353,sounds\english\audio/english_354.wav,"[[  0.         -28.87420486]
 [  0.1        -23.35112853]
 [  0.2          5.36311679]
 [  0.3         88.42745553]
 [  0.4          2.47520697]
 [  0.5         46.1200008 ]
 [  0.6        -18.78131858]
 [  0.7        -50.4047441 ]
 [  0.8         70.60844452]
 [  0.9        -79.1017332 ]
 [  1.         -66.82350364]
 [  1.09391667 -48.20226443]]","[[0.         0.20754018]
 [0.1        1.88177303]
 [0.2        1.60863404]
 [0.3        0.83478671]
 [0.4        1.51310965]
 [0.5        1.04317866]
 [0.6        0.09474749]
 [0.7        1.6889762 ]
 [0.8        0.35231613]
 [0.9        0.20561504]
 [1.         0.40462269]
 [1.09391667 0.51831425]]",1,0.257
8732112179,m,20,english,5,4,english,2024-02-01 10:37:13.481511,False,2,354,sounds\english\audio/english_406.wav,"[[  0.          16.41054839]
 [  0.1        -23.44264217]
 [  0.2         67.00437835]
 [  0.3         32.24147439]
 [  0.4        -69.94095423]
 [  0.5        -75.95608649]
 [  0.6         26.64856795]
 [  0.7         28.46707033]
 [  0.8          8.57252797]
 [  0.9        -43.42045484]
 [  1.         -38.23728815]
 [  1.09391667 -48.66780803]]","[[0.         1.82011871]
 [0.1        1.5788444 ]
 [0.2        0.98241909]
 [0.3        1.73565394]
 [0.4        0.23880913]
 [0.5        1.64825439]
 [0.6        1.51416343]
 [0.7        0.23765412]
 [0.8        0.78664096]
 [0.9        1.03412093]
 [1.         1.06202892]
 [1.09391667 0.40663901]]",1,0.27
8732112179,m,20,english,5,4,english,2024-02-01 10:37:13.481511,False,2,355,sounds\english\audio/english_63.wav,"[[  0.          48.80645604]
 [  0.1          3.74871088]
 [  0.2         36.66338235]
 [  0.3          0.45158548]
 [  0.4        -34.50897998]
 [  0.5         21.44979621]
 [  0.6        -13.42489637]
 [  0.7          3.18187359]
 [  0.8        -14.80243304]
 [  0.9         76.25105629]
 [  1.         -29.02472721]
 [  1.09391667 -75.42163707]]","[[0.         0.56207448]
 [0.1        0.93485315]
 [0.2        1.21075073]
 [0.3        1.91331277]
 [0.4        0.52750999]
 [0.5        1.42707635]
 [0.6        1.96742567]
 [0.7        1.57355325]
 [0.8        0.94386171]
 [0.9        0.6095205 ]
 [1.         0.97846037]
 [1.09391667 1.94412545]]",0,0.701
8732112179,m,20,english,5,4,english,2024-02-01 10:37:13.481511,False,2,356,sounds\english\audio/english_532.wav,"[[  0.          60.85707462]
 [  0.1         13.03416057]
 [  0.2        -48.45411351]
 [  0.3         16.77450497]
 [  0.4         -7.6707259 ]
 [  0.5        -84.48187603]
 [  0.6         -5.50880589]
 [  0.7        -53.77002933]
 [  0.8         11.75325856]
 [  0.9         41.28277306]
 [  1.          14.79272929]
 [  1.09391667 -15.59183139]]","[[0.         0.2444237 ]
 [0.1        1.53493401]
 [0.2        1.45787945]
 [0.3        0.11915761]
 [0.4        0.99575033]
 [0.5        1.34203353]
 [0.6        0.42679286]
 [0.7        1.97733711]
 [0.8        0.79534295]
 [0.9        0.9990701 ]
 [1.         1.48802156]
 [1.09391667 0.74270144]]",0,2.455
8732112179,m,20,english,5,4,english,2024-02-01 10:37:13.481511,False,2,357,sounds\english\audio/english_522.wav,"[[  0.         -41.53907187]
 [  0.1        -34.77242331]
 [  0.2         44.84688975]
 [  0.3          0.52781467]
 [  0.4        -85.49095183]
 [  0.5         49.75805681]
 [  0.6        -34.01238983]
 [  0.7        -76.80695945]
 [  0.8         57.48181657]
 [  0.9        -42.740182  ]
 [  1.          76.48970234]
 [  1.09391667 -24.33451257]]","[[0.         0.57004443]
 [0.1        0.9419408 ]
 [0.2        1.66104168]
 [0.3        0.91446022]
 [0.4        1.87910308]
 [0.5        1.6772423 ]
 [0.6        1.00245935]
 [0.7        1.44049733]
 [0.8        0.74965877]
 [0.9        1.30386633]
 [1.         1.30270801]
 [1.09391667 0.47933239]]",0,0.8
8732112179,m,20,english,5,4,english,2024-02-01 10:37:13.481511,False,2,358,sounds\english\audio/english_48.wav,"[[  0.          60.63460718]
 [  0.1        -63.25879977]
 [  0.2         72.16287223]
 [  0.3         56.56802271]
 [  0.4         90.70764649]
 [  0.5        -36.31712893]
 [  0.6         25.72223985]
 [  0.7        -14.91989637]
 [  0.8        -17.95558792]
 [  0.9         -5.44719263]
 [  1.         -94.92564537]
 [  1.09391667 -13.08808473]]","[[0.         0.33804588]
 [0.1        1.53774441]
 [0.2        0.96691945]
 [0.3        1.67994136]
 [0.4        1.00040305]
 [0.5        1.89041629]
 [0.6        0.11424734]
 [0.7        0.3528252 ]
 [0.8        0.85742963]
 [0.9        0.59657969]
 [1.         0.30631529]
 [1.09391667 1.45053444]]",1,0.345
8732112179,m,20,english,5,4,english,2024-02-01 10:37:13.481511,False,2,359,sounds\english\audio/english_375.wav,"[[  0.         -66.54027977]
 [  0.1         72.08787066]
 [  0.2        -56.77584869]
 [  0.3        -36.97947012]
 [  0.4         43.73402827]
 [  0.5         19.53034116]
 [  0.6        -35.65016919]
 [  0.7         12.37356045]
 [  0.8        -24.97795402]
 [  0.9         57.77915604]
 [  1.         -30.716589  ]
 [  1.09391667  78.48935482]]","[[0.         1.30902013]
 [0.1        1.77420651]
 [0.2        1.24550761]
 [0.3        0.68148521]
 [0.4        1.5097978 ]
 [0.5        0.87895003]
 [0.6        0.57287352]
 [0.7        0.19847139]
 [0.8        1.57884859]
 [0.9        1.32641243]
 [1.         0.36090675]
 [1.09391667 1.90030926]]",1,0.674
8732112179,m,20,english,5,4,english,2024-02-01 10:37:13.481511,False,2,360,sounds\english\audio/english_835.wav,"[[  0.         -39.02011782]
 [  0.1        -63.30829774]
 [  0.2        -49.45230925]
 [  0.3         -7.37432437]
 [  0.4         13.5618111 ]
 [  0.5        -42.04372358]
 [  0.6        -23.05427732]
 [  0.7        -46.66498758]
 [  0.8        -43.23379064]
 [  0.9         45.29964787]
 [  1.         -13.97031602]
 [  1.09391667 -69.96512508]]","[[0.         0.39436065]
 [0.1        0.19347001]
 [0.2        1.31632093]
 [0.3        0.74578151]
 [0.4        1.17984814]
 [0.5        1.65194144]
 [0.6        1.69640587]
 [0.7        1.48589436]
 [0.8        0.66391529]
 [0.9        0.69924952]
 [1.         0.90104484]
 [1.09391667 0.7026329 ]]",0,0.133
8732112179,m,20,english,5,4,english,2024-02-01 10:37:13.481511,False,2,361,sounds\english\audio/english_469.wav,"[[  0.         -33.27051151]
 [  0.1        -94.55728016]
 [  0.2        -24.34554111]
 [  0.3         16.33493977]
 [  0.4        -66.14325269]
 [  0.5         -2.40335162]
 [  0.6        -87.80607373]
 [  0.7         34.04653441]
 [  0.8         53.31501889]
 [  0.9        -70.89291525]
 [  1.          35.01344624]
 [  1.09391667  15.03691984]]","[[0.         1.91972156]
 [0.1        0.89758894]
 [0.2        0.14767308]
 [0.3        0.88925412]
 [0.4        0.02970636]
 [0.5        0.16070031]
 [0.6        0.0970541 ]
 [0.7        1.25032873]
 [0.8        1.92087852]
 [0.9        0.56083362]
 [1.         0.78804248]
 [1.09391667 0.71632164]]",0,1.611
8732112179,m,20,english,5,4,english,2024-02-01 10:37:13.481511,False,2,362,sounds\english\audio/english_372.wav,"[[  0.          26.59916967]
 [  0.1          3.58814385]
 [  0.2        -60.14178388]
 [  0.3        -44.19894674]
 [  0.4        -38.03613901]
 [  0.5         46.39303355]
 [  0.6        -33.97181462]
 [  0.7        -27.46884733]
 [  0.8        -45.55461231]
 [  0.9         20.15963599]
 [  1.          54.79355498]
 [  1.09391667  93.56246184]]","[[0.         1.01937466]
 [0.1        0.79696142]
 [0.2        0.00503004]
 [0.3        0.84575405]
 [0.4        0.48969314]
 [0.5        1.79043023]
 [0.6        1.46860797]
 [0.7        0.04122284]
 [0.8        0.63203754]
 [0.9        1.00944548]
 [1.         0.7711604 ]
 [1.09391667 0.15048829]]",1,0.698
8732112179,m,20,english,5,4,english,2024-02-01 10:37:13.481511,False,2,363,sounds\english\audio/english_215.wav,"[[  0.         -99.5332925 ]
 [  0.1          1.45242975]
 [  0.2        -64.33425221]
 [  0.3         94.32501829]
 [  0.4        -24.96285319]
 [  0.5         24.44115024]
 [  0.6         88.75353775]
 [  0.7         84.15272448]
 [  0.8         64.6545326 ]
 [  0.9        -74.06978327]
 [  1.         -77.05086555]
 [  1.09391667  82.12012488]]","[[0.         0.28465119]
 [0.1        1.8088146 ]
 [0.2        1.50664885]
 [0.3        1.24738647]
 [0.4        1.99674836]
 [0.5        1.0963611 ]
 [0.6        1.91027181]
 [0.7        1.87676127]
 [0.8        1.65561874]
 [0.9        1.63896442]
 [1.         0.85126523]
 [1.09391667 1.4630733 ]]",0,0.163
8732112179,m,20,english,5,4,english,2024-02-01 10:37:13.481511,False,2,364,sounds\english\audio/english_930.wav,"[[  0.          19.45977217]
 [  0.1        -80.07863209]
 [  0.2         45.52554026]
 [  0.3         15.52716044]
 [  0.4        -83.05812581]
 [  0.5        -71.84540183]
 [  0.6        -43.21972941]
 [  0.7         24.79128716]
 [  0.8        -16.02759849]
 [  0.9          5.32070927]
 [  1.          41.16408732]
 [  1.09391667  45.49028899]]","[[0.         0.84483281]
 [0.1        1.28415243]
 [0.2        0.42013726]
 [0.3        0.73216184]
 [0.4        0.68838287]
 [0.5        1.12855875]
 [0.6        1.19871165]
 [0.7        1.34030412]
 [0.8        0.99943393]
 [0.9        1.01667004]
 [1.         1.52152501]
 [1.09391667 0.12802686]]",0,0.368
8732112179,m,20,english,5,4,english,2024-02-01 10:37:13.481511,False,2,365,sounds\english\audio/english_285.wav,"[[  0.          48.62119612]
 [  0.1        -77.49487419]
 [  0.2        -92.74855632]
 [  0.3         -5.04409868]
 [  0.4        -37.04184738]
 [  0.5         93.82836291]
 [  0.6         46.80360504]
 [  0.7         99.71187558]
 [  0.8         70.29725425]
 [  0.9          2.68384344]
 [  1.          33.86757162]
 [  1.09391667  28.22402765]]","[[0.         1.78431697]
 [0.1        0.21017115]
 [0.2        0.90754364]
 [0.3        0.79299305]
 [0.4        0.73704045]
 [0.5        1.49438795]
 [0.6        1.8666859 ]
 [0.7        1.28156013]
 [0.8        0.27278766]
 [0.9        1.64624   ]
 [1.         0.38779205]
 [1.09391667 0.9971565 ]]",1,1.289
8732112179,m,20,english,5,4,english,2024-02-01 10:37:13.481511,False,2,366,sounds\english\audio/english_728.wav,"[[  0.          86.97428458]
 [  0.1         68.85214371]
 [  0.2        -97.98565906]
 [  0.3         35.07930547]
 [  0.4        -30.18374109]
 [  0.5        -82.66469876]
 [  0.6         23.39578652]
 [  0.7         26.21600665]
 [  0.8         40.56146868]
 [  0.9          8.84190716]
 [  1.          42.34962336]
 [  1.09391667 -32.07226286]]","[[0.         1.28134459]
 [0.1        0.92040862]
 [0.2        0.75536346]
 [0.3        1.26670058]
 [0.4        0.22005976]
 [0.5        1.42168107]
 [0.6        1.49957944]
 [0.7        0.84685957]
 [0.8        0.54890831]
 [0.9        1.06754414]
 [1.         0.96376908]
 [1.09391667 0.10029528]]",1,0.231
8732112179,m,20,english,5,4,english,2024-02-01 10:37:13.481511,False,2,367,sounds\english\audio/english_465.wav,"[[  0.          32.62808343]
 [  0.1        -19.45954063]
 [  0.2         31.8583501 ]
 [  0.3         62.10393883]
 [  0.4         18.6647785 ]
 [  0.5         60.37095119]
 [  0.6        -66.90125798]
 [  0.7        -81.40602189]
 [  0.8         50.53882687]
 [  0.9        -56.46028762]
 [  1.          17.60561432]
 [  1.09391667  99.29101089]]","[[0.         1.95674705]
 [0.1        0.2020369 ]
 [0.2        0.52421729]
 [0.3        0.65974817]
 [0.4        0.39728546]
 [0.5        0.37134149]
 [0.6        0.92371442]
 [0.7        0.31310251]
 [0.8        1.13414137]
 [0.9        0.34422608]
 [1.         1.91257156]
 [1.09391667 1.23959362]]",0,1.126
8732112179,m,20,english,5,4,english,2024-02-01 10:37:13.481511,False,2,368,sounds\english\audio/english_361.wav,"[[  0.          20.84328773]
 [  0.1         31.97314279]
 [  0.2          0.96518171]
 [  0.3         76.6061975 ]
 [  0.4        -77.10206306]
 [  0.5         23.53898445]
 [  0.6        -12.32061179]
 [  0.7         28.9259581 ]
 [  0.8        -94.91860317]
 [  0.9        -45.1021446 ]
 [  1.          37.31543609]
 [  1.09391667 -48.80421802]]","[[0.         1.90680099]
 [0.1        0.60095823]
 [0.2        1.38207831]
 [0.3        1.17298151]
 [0.4        1.57242958]
 [0.5        0.07487762]
 [0.6        1.72866781]
 [0.7        0.62365339]
 [0.8        0.31926535]
 [0.9        1.82585567]
 [1.         1.81117851]
 [1.09391667 0.64368516]]",1,0.226
8732112179,m,20,english,5,4,english,2024-02-01 10:37:13.481511,False,2,369,sounds\english\audio/english_662.wav,"[[  0.          31.31886637]
 [  0.1        -45.58012984]
 [  0.2        -36.67335117]
 [  0.3         91.68908931]
 [  0.4         99.42890358]
 [  0.5        -75.06867948]
 [  0.6        -53.3060983 ]
 [  0.7         66.7707286 ]
 [  0.8         69.18702853]
 [  0.9        -16.72052533]
 [  1.          16.50634939]
 [  1.09391667  79.32738685]]","[[0.         0.51844492]
 [0.1        1.26337535]
 [0.2        1.47948125]
 [0.3        1.54973702]
 [0.4        1.40573319]
 [0.5        0.46765036]
 [0.6        1.29577772]
 [0.7        1.28176027]
 [0.8        1.79426909]
 [0.9        0.76623174]
 [1.         1.90203541]
 [1.09391667 1.85204165]]",0,0.584
8732112179,m,20,english,5,4,english,2024-02-01 10:37:13.481511,False,2,370,sounds\english\audio/english_223.wav,"[[  0.           3.75482412]
 [  0.1        -10.12746206]
 [  0.2        -71.88310124]
 [  0.3         57.69353131]
 [  0.4         -7.46282971]
 [  0.5         -4.62449416]
 [  0.6         37.75223181]
 [  0.7         14.07580733]
 [  0.8          7.873186  ]
 [  0.9        -15.37742922]
 [  1.          25.72603899]
 [  1.09391667  58.91699651]]","[[0.         0.48204307]
 [0.1        1.57422829]
 [0.2        1.46180987]
 [0.3        0.36455809]
 [0.4        1.50137994]
 [0.5        0.81971787]
 [0.6        0.40602656]
 [0.7        1.29724475]
 [0.8        0.55564049]
 [0.9        1.88260367]
 [1.         0.5343602 ]
 [1.09391667 1.60309461]]",0,0.386
8732112179,m,20,english,5,4,english,2024-02-01 10:37:13.481511,False,2,371,sounds\english\audio/english_49.wav,"[[  0.          -7.77522682]
 [  0.1        -69.00488143]
 [  0.2         56.47558832]
 [  0.3         47.73828653]
 [  0.4        -58.74936134]
 [  0.5        -16.00930073]
 [  0.6         68.77090309]
 [  0.7         47.28501738]
 [  0.8        -26.83696642]
 [  0.9         16.45883289]
 [  1.         -23.79769264]
 [  1.09391667  62.62161118]]","[[0.         0.84923144]
 [0.1        0.33119372]
 [0.2        1.22070051]
 [0.3        0.09401361]
 [0.4        0.13758585]
 [0.5        1.02104263]
 [0.6        1.27727042]
 [0.7        0.65680798]
 [0.8        1.41824482]
 [0.9        0.73136625]
 [1.         0.31271595]
 [1.09391667 0.15435739]]",1,1.885
8732112179,m,20,english,5,4,english,2024-02-01 10:37:13.481511,False,2,372,sounds\english\audio/english_684.wav,"[[ 0.00000000e+00  4.46488214e+01]
 [ 1.00000000e-01  9.68442182e+00]
 [ 2.00000000e-01 -4.50587890e+01]
 [ 3.00000000e-01  9.29989294e+00]
 [ 4.00000000e-01 -9.33818257e+01]
 [ 5.00000000e-01 -1.86654658e+01]
 [ 6.00000000e-01 -3.61937511e+01]
 [ 7.00000000e-01 -2.27796988e-02]
 [ 8.00000000e-01 -8.19835579e+01]
 [ 9.00000000e-01  6.67026535e+01]
 [ 1.00000000e+00 -2.81669756e+01]
 [ 1.09391667e+00 -3.11571246e+01]]","[[0.         0.31150518]
 [0.1        0.4998365 ]
 [0.2        0.24275602]
 [0.3        1.63678411]
 [0.4        1.55347247]
 [0.5        0.93326504]
 [0.6        1.36007358]
 [0.7        0.52423503]
 [0.8        1.47566928]
 [0.9        1.32008624]
 [1.         1.00236166]
 [1.09391667 1.13724252]]",0,0.219
8732112179,m,20,english,5,4,english,2024-02-01 10:37:13.481511,False,2,373,sounds\english\audio/english_173.wav,"[[  0.          34.32682043]
 [  0.1        -35.22347769]
 [  0.2         15.69043139]
 [  0.3        -71.83777825]
 [  0.4        -96.81426106]
 [  0.5        -51.15803827]
 [  0.6        -12.70248505]
 [  0.7        -30.75730157]
 [  0.8         -5.0022938 ]
 [  0.9         41.07030003]
 [  1.          -5.319412  ]
 [  1.09391667  43.01251996]]","[[0.         0.82312646]
 [0.1        0.84965345]
 [0.2        0.84607348]
 [0.3        0.55995079]
 [0.4        0.51635348]
 [0.5        1.6072313 ]
 [0.6        1.25349503]
 [0.7        1.4731344 ]
 [0.8        0.28621328]
 [0.9        0.95942448]
 [1.         0.2847469 ]
 [1.09391667 0.4938404 ]]",1,0.515
8732112179,m,20,english,5,4,english,2024-02-01 10:37:13.481511,False,2,374,sounds\english\audio/english_189.wav,"[[  0.          38.06728106]
 [  0.1         -1.4916867 ]
 [  0.2         43.23022726]
 [  0.3         70.52777392]
 [  0.4        -59.79939787]
 [  0.5          5.41678611]
 [  0.6         44.76349545]
 [  0.7        -14.25166989]
 [  0.8        -20.12101429]
 [  0.9        -43.3681134 ]
 [  1.         -43.09833267]
 [  1.09391667 -43.67138872]]","[[0.         1.56553487]
 [0.1        1.31424407]
 [0.2        1.86938367]
 [0.3        0.10876999]
 [0.4        1.05429822]
 [0.5        0.01998106]
 [0.6        0.98555546]
 [0.7        1.99583415]
 [0.8        0.39293902]
 [0.9        0.55662411]
 [1.         0.66082483]
 [1.09391667 0.74070611]]",1,0.182
8732112179,m,20,english,5,4,english,2024-02-01 10:37:13.481511,False,2,375,sounds\english\audio/english_923.wav,"[[  0.          93.2289474 ]
 [  0.1        -90.20705496]
 [  0.2        -39.60180218]
 [  0.3         80.82184167]
 [  0.4         -9.151808  ]
 [  0.5         26.58775585]
 [  0.6          6.23734234]
 [  0.7         72.65407882]
 [  0.8        -19.39856568]
 [  0.9        -78.04150402]
 [  1.          32.81309653]
 [  1.09391667  90.62685446]]","[[0.         1.70020423]
 [0.1        1.01222006]
 [0.2        0.78975297]
 [0.3        0.55346402]
 [0.4        0.82944294]
 [0.5        1.08031611]
 [0.6        0.85830077]
 [0.7        1.16981472]
 [0.8        1.72430236]
 [0.9        0.87754791]
 [1.         1.2494211 ]
 [1.09391667 1.97603122]]",1,1.185
8732112179,m,20,english,5,4,english,2024-02-01 10:37:13.481511,False,2,376,sounds\english\audio/english_116.wav,"[[  0.          -9.55497422]
 [  0.1         49.93536879]
 [  0.2        -79.25579082]
 [  0.3        -36.23152563]
 [  0.4        -13.54411706]
 [  0.5         94.79003248]
 [  0.6         82.07262677]
 [  0.7         34.20482138]
 [  0.8        -57.39554956]
 [  0.9         74.8891327 ]
 [  1.          25.67722271]
 [  1.09391667  39.70859054]]","[[0.         1.40906913]
 [0.1        1.01406047]
 [0.2        0.11711084]
 [0.3        0.60671403]
 [0.4        0.84673882]
 [0.5        0.4711221 ]
 [0.6        0.05184022]
 [0.7        0.25033894]
 [0.8        0.57212798]
 [0.9        0.83139931]
 [1.         0.9159615 ]
 [1.09391667 1.32229157]]",1,0.32
8732112179,m,20,english,5,4,english,2024-02-01 10:37:13.481511,False,2,377,sounds\english\audio/english_806.wav,"[[  0.          43.54674573]
 [  0.1        -68.74197722]
 [  0.2        -23.84581235]
 [  0.3        -72.86002473]
 [  0.4        -35.27978776]
 [  0.5         -2.08559415]
 [  0.6        -68.55515823]
 [  0.7        -32.41040243]
 [  0.8         43.35004903]
 [  0.9         -2.04848196]
 [  1.           6.21691759]
 [  1.09391667 -62.57800707]]","[[0.         1.38359874]
 [0.1        1.64152579]
 [0.2        1.16928597]
 [0.3        0.86357206]
 [0.4        0.73652759]
 [0.5        0.11615926]
 [0.6        0.96374449]
 [0.7        1.00194659]
 [0.8        0.5470064 ]
 [0.9        0.25999945]
 [1.         0.37115798]
 [1.09391667 1.34941772]]",0,0.366
8732112179,m,20,english,5,4,english,2024-02-01 10:37:13.481511,False,2,378,sounds\english\audio/english_330.wav,"[[  0.           2.24171654]
 [  0.1        -47.25901686]
 [  0.2        -45.6229367 ]
 [  0.3        -66.26500136]
 [  0.4         13.126007  ]
 [  0.5        -55.3162329 ]
 [  0.6        -44.94887053]
 [  0.7         21.08483531]
 [  0.8        -37.88434209]
 [  0.9          4.20371748]
 [  1.          80.65582765]
 [  1.09391667  87.33082059]]","[[0.         0.54683967]
 [0.1        1.92392168]
 [0.2        0.88546949]
 [0.3        1.41106585]
 [0.4        1.87683818]
 [0.5        1.08870848]
 [0.6        0.98346159]
 [0.7        0.45031197]
 [0.8        1.40044514]
 [0.9        0.75112893]
 [1.         0.77181744]
 [1.09391667 0.38922024]]",0,0.561
8732112179,m,20,english,5,4,english,2024-02-01 10:37:13.481511,False,2,379,sounds\english\audio/english_701.wav,"[[  0.         -93.84804117]
 [  0.1        -77.23912918]
 [  0.2        -45.57356693]
 [  0.3        -80.33366172]
 [  0.4         95.38038132]
 [  0.5         43.37257018]
 [  0.6         20.80863296]
 [  0.7        -74.49587502]
 [  0.8         53.82285156]
 [  0.9         86.20229822]
 [  1.         -84.46214873]
 [  1.09391667   1.75691035]]","[[0.         0.47905205]
 [0.1        0.43335114]
 [0.2        0.98258142]
 [0.3        1.56424934]
 [0.4        1.99053476]
 [0.5        1.06230172]
 [0.6        1.81617496]
 [0.7        0.70378114]
 [0.8        1.40362465]
 [0.9        0.70617413]
 [1.         0.74798843]
 [1.09391667 0.6850293 ]]",1,1.519
8732112179,m,20,english,5,4,english,2024-02-01 10:37:13.481511,False,2,380,sounds\english\audio/english_540.wav,"[[  0.          56.3389614 ]
 [  0.1         15.5810044 ]
 [  0.2        -57.00882779]
 [  0.3        -38.51831774]
 [  0.4         -2.48649571]
 [  0.5         47.94489788]
 [  0.6        -25.26992134]
 [  0.7         71.13867004]
 [  0.8        -84.74018584]
 [  0.9         36.45045372]
 [  1.          21.99011702]
 [  1.09391667  81.39151634]]","[[0.         0.35919702]
 [0.1        0.12290397]
 [0.2        0.4388906 ]
 [0.3        1.4101729 ]
 [0.4        1.50441402]
 [0.5        0.12973549]
 [0.6        1.5432215 ]
 [0.7        0.81755123]
 [0.8        1.08085579]
 [0.9        1.434422  ]
 [1.         0.97494001]
 [1.09391667 0.80759169]]",1,0.491
8732112179,m,20,english,5,4,english,2024-02-01 10:37:13.481511,False,2,381,sounds\english\audio/english_901.wav,"[[  0.         -96.81604806]
 [  0.1         37.83480038]
 [  0.2         -8.61723514]
 [  0.3        -84.9926442 ]
 [  0.4         -0.16612884]
 [  0.5         15.9690541 ]
 [  0.6         46.64910026]
 [  0.7        -78.92875072]
 [  0.8         97.27833726]
 [  0.9         57.26507245]
 [  1.          87.23640608]
 [  1.09391667   9.28772105]]","[[0.         1.46324918]
 [0.1        0.84459601]
 [0.2        0.1668762 ]
 [0.3        0.0760945 ]
 [0.4        0.24671579]
 [0.5        1.57602984]
 [0.6        1.29975865]
 [0.7        1.65637017]
