subj,sex,age,language,english,french,native_lang,date,practice,block,trial,stim,pitch,stretch,response,rt
8773808799,f,21,english,5,3,english,2024-02-01 10:28:30.826823,False,2,253,sounds\english\audio/english_953.wav,"[[  0.          66.99743889]
 [  0.1        -76.84252631]
 [  0.2        -45.49309493]
 [  0.3         55.46461894]
 [  0.4         81.99201124]
 [  0.5          1.34607331]
 [  0.6         50.45029952]
 [  0.7         74.64893983]
 [  0.8         26.00448077]
 [  0.9        -99.39894728]
 [  1.         -16.71063882]
 [  1.09391667  53.60095231]]","[[0.         1.15286604]
 [0.1        1.84100888]
 [0.2        0.29896559]
 [0.3        0.47017465]
 [0.4        0.15248902]
 [0.5        1.13290225]
 [0.6        0.34595451]
 [0.7        0.44244875]
 [0.8        0.8076701 ]
 [0.9        1.93347558]
 [1.         1.69365872]
 [1.09391667 1.16220812]]",0,2.418
8773808799,f,21,english,5,3,english,2024-02-01 10:28:30.826823,False,2,254,sounds\english\audio/english_241.wav,"[[  0.         -97.22432216]
 [  0.1        -28.14905208]
 [  0.2         47.39910383]
 [  0.3         62.74698337]
 [  0.4         42.69629452]
 [  0.5        -28.86057988]
 [  0.6         47.37469517]
 [  0.7         19.60148675]
 [  0.8         25.28127543]
 [  0.9        -90.65530928]
 [  1.          58.14244463]
 [  1.09391667  33.70088271]]","[[0.         1.35478851]
 [0.1        0.42795765]
 [0.2        0.77593108]
 [0.3        1.52084491]
 [0.4        1.0423858 ]
 [0.5        0.26192027]
 [0.6        1.65360196]
 [0.7        1.3989631 ]
 [0.8        0.94780347]
 [0.9        1.1797356 ]
 [1.         1.19530939]
 [1.09391667 0.5415955 ]]",1,1.065
8773808799,f,21,english,5,3,english,2024-02-01 10:28:30.826823,False,2,255,sounds\english\audio/english_466.wav,"[[  0.          29.78122055]
 [  0.1          1.00212309]
 [  0.2         84.88341441]
 [  0.3         18.0671926 ]
 [  0.4        -63.20091068]
 [  0.5         -1.15346207]
 [  0.6         -1.70645236]
 [  0.7         37.24590025]
 [  0.8        -40.92862731]
 [  0.9        -58.08317272]
 [  1.         -59.75718078]
 [  1.09391667  13.82760032]]","[[0.         0.08614047]
 [0.1        0.60651355]
 [0.2        0.95660543]
 [0.3        0.08485907]
 [0.4        0.78105645]
 [0.5        0.10730209]
 [0.6        1.7980607 ]
 [0.7        1.48241485]
 [0.8        0.1626415 ]
 [0.9        1.43527927]
 [1.         0.97707475]
 [1.09391667 1.6467926 ]]",0,0.409
8773808799,f,21,english,5,3,english,2024-02-01 10:28:30.826823,False,2,256,sounds\english\audio/english_607.wav,"[[  0.           0.27599318]
 [  0.1         61.54655284]
 [  0.2        -45.68438061]
 [  0.3        -56.50831868]
 [  0.4         15.2577286 ]
 [  0.5        -52.12017374]
 [  0.6         97.83272545]
 [  0.7          7.21834566]
 [  0.8          8.71902974]
 [  0.9         84.51998902]
 [  1.         -21.50673836]
 [  1.09391667  68.90809966]]","[[0.         1.85195662]
 [0.1        0.01211705]
 [0.2        1.01527113]
 [0.3        0.58104245]
 [0.4        0.36467608]
 [0.5        0.76758339]
 [0.6        1.21313057]
 [0.7        1.69539972]
 [0.8        0.38171646]
 [0.9        1.4848349 ]
 [1.         0.84163241]
 [1.09391667 0.34247873]]",1,0.392
8773808799,f,21,english,5,3,english,2024-02-01 10:28:30.826823,False,2,257,sounds\english\audio/english_650.wav,"[[  0.          84.72208984]
 [  0.1        -25.46570276]
 [  0.2        -14.49877792]
 [  0.3         92.39693734]
 [  0.4        -32.47071196]
 [  0.5         57.90191837]
 [  0.6        -80.89557153]
 [  0.7        -42.41945014]
 [  0.8        -93.95714217]
 [  0.9         72.90615392]
 [  1.          69.05005157]
 [  1.09391667  82.64627583]]","[[0.         1.44671944]
 [0.1        0.96213955]
 [0.2        0.60880641]
 [0.3        0.82954369]
 [0.4        0.31003161]
 [0.5        1.04774221]
 [0.6        1.35433017]
 [0.7        0.91007785]
 [0.8        1.66906144]
 [0.9        0.82431   ]
 [1.         0.70002504]
 [1.09391667 0.57122533]]",0,0.364
8773808799,f,21,english,5,3,english,2024-02-01 10:28:30.826823,False,2,258,sounds\english\audio/english_960.wav,"[[  0.          -2.34292173]
 [  0.1        -14.33809381]
 [  0.2         23.80635185]
 [  0.3        -47.8246654 ]
 [  0.4         37.72126587]
 [  0.5         52.9199081 ]
 [  0.6          7.44982422]
 [  0.7         -7.86948203]
 [  0.8         72.23117138]
 [  0.9         44.79944131]
 [  1.           4.95796587]
 [  1.09391667  60.45608826]]","[[0.         0.04592369]
 [0.1        1.93256303]
 [0.2        1.63542615]
 [0.3        1.38214449]
 [0.4        0.23301782]
 [0.5        0.53692552]
 [0.6        1.02814311]
 [0.7        0.98154622]
 [0.8        0.31984479]
 [0.9        1.34408856]
 [1.         0.65666074]
 [1.09391667 0.78367591]]",1,0.282
8773808799,f,21,english,5,3,english,2024-02-01 10:28:30.826823,False,2,259,sounds\english\audio/english_646.wav,"[[  0.         -72.16367523]
 [  0.1         89.23048569]
 [  0.2          3.93643173]
 [  0.3         32.33211102]
 [  0.4         57.94131679]
 [  0.5          3.36702109]
 [  0.6         61.97454592]
 [  0.7        -38.94515992]
 [  0.8         18.02819855]
 [  0.9         -7.01403953]
 [  1.          22.99913436]
 [  1.09391667 -15.24744046]]","[[0.         1.23252036]
 [0.1        0.41153547]
 [0.2        1.30500866]
 [0.3        0.16779894]
 [0.4        1.44956343]
 [0.5        0.43462   ]
 [0.6        1.17161273]
 [0.7        1.33009112]
 [0.8        1.9601355 ]
 [0.9        1.16018484]
 [1.         0.4872476 ]
 [1.09391667 0.4931797 ]]",0,0.331
8773808799,f,21,english,5,3,english,2024-02-01 10:28:30.826823,False,2,260,sounds\english\audio/english_916.wav,"[[  0.         -75.50139917]
 [  0.1         87.74693423]
 [  0.2         31.07453941]
 [  0.3        -54.74808786]
 [  0.4         22.76610273]
 [  0.5         11.00268218]
 [  0.6         51.91753819]
 [  0.7         14.6363884 ]
 [  0.8         81.83938772]
 [  0.9         -6.69300519]
 [  1.          48.70423214]
 [  1.09391667 -75.62542255]]","[[0.         0.33116573]
 [0.1        0.79085074]
 [0.2        1.46577933]
 [0.3        0.46369868]
 [0.4        1.13985244]
 [0.5        0.7460079 ]
 [0.6        0.81938326]
 [0.7        1.36585166]
 [0.8        0.74190137]
 [0.9        1.01772596]
 [1.         1.52043816]
 [1.09391667 1.80998289]]",1,0.278
8773808799,f,21,english,5,3,english,2024-02-01 10:28:30.826823,False,2,261,sounds\english\audio/english_402.wav,"[[  0.          13.762471  ]
 [  0.1         56.960538  ]
 [  0.2         31.61900178]
 [  0.3        -58.12329087]
 [  0.4        -92.10904416]
 [  0.5        -26.99116943]
 [  0.6          2.85267641]
 [  0.7        -21.2400385 ]
 [  0.8         47.25195685]
 [  0.9         86.30516809]
 [  1.          -9.29622935]
 [  1.09391667   3.14612385]]","[[0.         1.51429567]
 [0.1        1.68766969]
 [0.2        1.34501255]
 [0.3        0.78143448]
 [0.4        0.95522192]
 [0.5        1.16323619]
 [0.6        0.43497741]
 [0.7        1.84271931]
 [0.8        1.28114522]
 [0.9        0.9091169 ]
 [1.         1.84546322]
 [1.09391667 0.72114292]]",0,0.08
8773808799,f,21,english,5,3,english,2024-02-01 10:28:30.826823,False,2,262,sounds\english\audio/english_448.wav,"[[  0.         -36.42010561]
 [  0.1         47.73001377]
 [  0.2         93.59806646]
 [  0.3        -71.28004739]
 [  0.4        -73.37708676]
 [  0.5         74.57279085]
 [  0.6         93.06132311]
 [  0.7         53.53303026]
 [  0.8        -57.75366267]
 [  0.9        -26.4449428 ]
 [  1.         -31.70641096]
 [  1.09391667 -10.08807531]]","[[0.         0.75921607]
 [0.1        0.95293974]
 [0.2        0.22586708]
 [0.3        1.48750577]
 [0.4        0.17134927]
 [0.5        1.2791033 ]
 [0.6        0.73590712]
 [0.7        1.42606803]
 [0.8        1.73700286]
 [0.9        1.39235574]
 [1.         0.50787566]
 [1.09391667 1.19414628]]",0,0.239
8773808799,f,21,english,5,3,english,2024-02-01 10:28:30.826823,False,2,263,sounds\english\audio/english_854.wav,"[[  0.          41.65293518]
 [  0.1         12.19905505]
 [  0.2        -17.7367635 ]
 [  0.3         82.5511566 ]
 [  0.4         24.18828857]
 [  0.5        -37.78588701]
 [  0.6         12.42409681]
 [  0.7         -1.0486121 ]
 [  0.8        -50.74764629]
 [  0.9        -93.36344031]
 [  1.          39.91763763]
 [  1.09391667 -16.62780594]]","[[0.         0.10243767]
 [0.1        1.22737147]
 [0.2        0.80405871]
 [0.3        1.55191633]
 [0.4        0.00681269]
 [0.5        1.47971367]
 [0.6        0.34468947]
 [0.7        0.87101018]
 [0.8        1.12590191]
 [0.9        1.039516  ]
 [1.         1.26341771]
 [1.09391667 1.79941384]]",0,0.156
8773808799,f,21,english,5,3,english,2024-02-01 10:28:30.826823,False,2,264,sounds\english\audio/english_725.wav,"[[  0.          -9.03644008]
 [  0.1         17.25768585]
 [  0.2         31.80596944]
 [  0.3        -37.53705258]
 [  0.4        -72.83315878]
 [  0.5        -86.89655244]
 [  0.6        -41.36643193]
 [  0.7        -24.29547068]
 [  0.8        -10.26201034]
 [  0.9        -84.73732243]
 [  1.          29.57592595]
 [  1.09391667 -31.00210879]]","[[0.         1.33439085]
 [0.1        1.14250237]
 [0.2        1.31071592]
 [0.3        0.64785465]
 [0.4        1.42686134]
 [0.5        1.9351134 ]
 [0.6        0.6329639 ]
 [0.7        1.12609379]
 [0.8        0.4317144 ]
 [0.9        0.11714111]
 [1.         1.51572797]
 [1.09391667 0.75437121]]",1,1.907
8773808799,f,21,english,5,3,english,2024-02-01 10:28:30.826823,False,2,265,sounds\english\audio/english_480.wav,"[[  0.           9.88794778]
 [  0.1        -95.33959947]
 [  0.2        -71.35423478]
 [  0.3        -83.02465504]
 [  0.4         44.94534434]
 [  0.5         90.60802244]
 [  0.6        -21.26982867]
 [  0.7          9.71569321]
 [  0.8        -55.27404123]
 [  0.9         -2.41346819]
 [  1.          56.20871311]
 [  1.09391667 -52.83193459]]","[[0.         0.87231247]
 [0.1        0.98456716]
 [0.2        0.16901934]
 [0.3        0.73359769]
 [0.4        1.77352581]
 [0.5        0.80191765]
 [0.6        1.98344476]
 [0.7        1.54524915]
 [0.8        1.67546329]
 [0.9        1.13666865]
 [1.         1.61861075]
 [1.09391667 1.31490021]]",0,0.113
8773808799,f,21,english,5,3,english,2024-02-01 10:28:30.826823,False,2,266,sounds\english\audio/english_274.wav,"[[  0.          90.15852298]
 [  0.1         54.46178194]
 [  0.2         92.29787974]
 [  0.3         56.79856413]
 [  0.4          6.80655331]
 [  0.5         85.98039627]
 [  0.6         79.54748497]
 [  0.7        -50.26158779]
 [  0.8         46.33910856]
 [  0.9        -52.2237302 ]
 [  1.          14.53688649]
 [  1.09391667  26.74527789]]","[[0.         1.09879686]
 [0.1        1.93033732]
 [0.2        1.35119606]
 [0.3        1.49147937]
 [0.4        1.75081802]
 [0.5        0.26277184]
 [0.6        1.06227003]
 [0.7        0.06438964]
 [0.8        0.88741243]
 [0.9        0.12141514]
 [1.         1.07853955]
 [1.09391667 0.24561082]]",0,0.479
8773808799,f,21,english,5,3,english,2024-02-01 10:28:30.826823,False,2,267,sounds\english\audio/english_405.wav,"[[  0.         -78.42073653]
 [  0.1        -24.61205512]
 [  0.2        -11.84314917]
 [  0.3        -70.6403769 ]
 [  0.4        -46.85191634]
 [  0.5        -71.06093943]
 [  0.6         30.63391912]
 [  0.7        -74.22566174]
 [  0.8          7.48787405]
 [  0.9        -46.20513682]
 [  1.          49.04599402]
 [  1.09391667  -4.00470975]]","[[0.         1.26555168]
 [0.1        0.89640123]
 [0.2        0.55951574]
 [0.3        0.41074213]
 [0.4        0.16739124]
 [0.5        0.840879  ]
 [0.6        1.64487685]
 [0.7        0.4477739 ]
 [0.8        0.39629761]
 [0.9        1.07902243]
 [1.         1.30068101]
 [1.09391667 1.72481408]]",0,0.836
8773808799,f,21,english,5,3,english,2024-02-01 10:28:30.826823,False,2,268,sounds\english\audio/english_696.wav,"[[  0.          80.76263908]
 [  0.1        -81.05122768]
 [  0.2         25.61500263]
 [  0.3         25.88663843]
 [  0.4        -95.94910221]
 [  0.5        -72.42601444]
 [  0.6         24.16177071]
 [  0.7         64.95279218]
 [  0.8         52.94859059]
 [  0.9        -62.75879423]
 [  1.          30.29085573]
 [  1.09391667  95.60067697]]","[[0.         0.91509798]
 [0.1        1.74478529]
 [0.2        0.26644886]
 [0.3        1.54651286]
 [0.4        0.7055337 ]
 [0.5        0.71467656]
 [0.6        0.57693313]
 [0.7        1.47925574]
 [0.8        0.57583693]
 [0.9        1.82750547]
 [1.         0.4690012 ]
 [1.09391667 1.32087167]]",0,1.279
8773808799,f,21,english,5,3,english,2024-02-01 10:28:30.826823,False,2,269,sounds\english\audio/english_446.wav,"[[  0.         -71.72833513]
 [  0.1        -14.74031919]
 [  0.2        -21.83541147]
 [  0.3        -67.51881517]
 [  0.4        -91.38875442]
 [  0.5          6.74447183]
 [  0.6         26.61618155]
 [  0.7         72.29706337]
 [  0.8         58.26898218]
 [  0.9         30.44634512]
 [  1.         -17.84842899]
 [  1.09391667 -24.00080187]]","[[0.         0.37077237]
 [0.1        0.56990881]
 [0.2        1.59729725]
 [0.3        1.97035771]
 [0.4        0.52850963]
 [0.5        1.74112616]
 [0.6        0.02543003]
 [0.7        0.19739553]
 [0.8        0.10712319]
 [0.9        0.63352141]
 [1.         1.44239476]
 [1.09391667 0.76601062]]",1,0.985
8773808799,f,21,english,5,3,english,2024-02-01 10:28:30.826823,False,2,270,sounds\english\audio/english_360.wav,"[[  0.         -18.06250331]
 [  0.1        -60.78778271]
 [  0.2         64.58604958]
 [  0.3         15.14883939]
 [  0.4         35.32268856]
 [  0.5         85.60433583]
 [  0.6        -60.74616214]
 [  0.7         93.69417602]
 [  0.8         16.46151858]
 [  0.9         58.0175924 ]
 [  1.          51.01229948]
 [  1.09391667  19.14891505]]","[[0.         0.74392756]
 [0.1        0.33295665]
 [0.2        0.59589568]
 [0.3        1.76245157]
 [0.4        1.62745171]
 [0.5        0.48465   ]
 [0.6        0.94927774]
 [0.7        1.65570249]
 [0.8        1.54593081]
 [0.9        0.34320104]
 [1.         0.20094936]
 [1.09391667 0.69882977]]",0,0.415
8773808799,f,21,english,5,3,english,2024-02-01 10:28:30.826823,False,2,271,sounds\english\audio/english_161.wav,"[[  0.           0.2450503 ]
 [  0.1         41.86400045]
 [  0.2          3.22348346]
 [  0.3        -24.29894103]
 [  0.4         66.4308336 ]
 [  0.5        -79.52202924]
 [  0.6         -4.00284897]
 [  0.7        -82.69040612]
 [  0.8         32.14289288]
 [  0.9        -94.27188699]
 [  1.         -14.10162234]
 [  1.09391667  27.39748728]]","[[0.         0.47001228]
 [0.1        1.24375119]
 [0.2        0.98802588]
 [0.3        1.92952194]
 [0.4        0.84385332]
 [0.5        0.34569188]
 [0.6        1.46988057]
 [0.7        0.94597317]
 [0.8        0.70955806]
 [0.9        1.39207721]
 [1.         0.79549611]
 [1.09391667 1.7090018 ]]",0,0.26
8773808799,f,21,english,5,3,english,2024-02-01 10:28:30.826823,False,2,272,sounds\english\audio/english_404.wav,"[[  0.          51.0629149 ]
 [  0.1        -20.11660717]
 [  0.2        -24.08850376]
 [  0.3        -31.42467522]
 [  0.4         53.01415625]
 [  0.5        -45.18749729]
 [  0.6         75.22262363]
 [  0.7         53.71694776]
 [  0.8        -31.94049291]
 [  0.9         64.49384663]
 [  1.         -87.57862232]
 [  1.09391667 -93.26487386]]","[[0.         0.92872816]
 [0.1        1.09197178]
 [0.2        1.28516423]
 [0.3        0.67196706]
 [0.4        0.26298551]
 [0.5        0.832552  ]
 [0.6        0.94238773]
 [0.7        0.97166455]
 [0.8        0.24504   ]
 [0.9        1.54934709]
 [1.         0.71675997]
 [1.09391667 1.21108184]]",1,0.879
8773808799,f,21,english,5,3,english,2024-02-01 10:28:30.826823,False,2,273,sounds\english\audio/english_407.wav,"[[  0.         -24.60693705]
 [  0.1        -18.03262929]
 [  0.2         78.43262301]
 [  0.3        -68.3918043 ]
 [  0.4        -80.30955939]
 [  0.5         85.23652971]
 [  0.6        -34.75897275]
 [  0.7        -13.65493451]
 [  0.8         18.27954458]
 [  0.9        -61.83588329]
 [  1.           1.46934054]
 [  1.09391667  21.65066183]]","[[0.         0.46722995]
 [0.1        1.67527194]
 [0.2        0.46653722]
 [0.3        0.93598541]
 [0.4        1.16461279]
 [0.5        0.21312226]
 [0.6        0.26523352]
 [0.7        0.26712079]
 [0.8        0.66430326]
 [0.9        0.96548424]
 [1.         0.70653645]
 [1.09391667 1.4905418 ]]",1,0.268
8773808799,f,21,english,5,3,english,2024-02-01 10:28:30.826823,False,2,274,sounds\english\audio/english_30.wav,"[[  0.           7.20305011]
 [  0.1         40.54252217]
 [  0.2        -27.16756142]
 [  0.3        -47.4542684 ]
 [  0.4         16.89492576]
 [  0.5         -3.45231142]
 [  0.6        -55.37795964]
 [  0.7         94.81526788]
 [  0.8          4.42136383]
 [  0.9        -28.73125868]
 [  1.         -43.27093622]
 [  1.09391667   0.63608962]]","[[0.         0.62248381]
 [0.1        1.3534175 ]
 [0.2        1.93672018]
 [0.3        1.80613869]
 [0.4        1.17778721]
 [0.5        1.26050698]
 [0.6        0.40567716]
 [0.7        1.85712714]
 [0.8        0.11089582]
 [0.9        1.52275562]
 [1.         0.4081166 ]
 [1.09391667 1.00698649]]",0,0.186
8773808799,f,21,english,5,3,english,2024-02-01 10:28:30.826823,False,2,275,sounds\english\audio/english_465.wav,"[[  0.          32.62808343]
 [  0.1        -19.45954063]
 [  0.2         31.8583501 ]
 [  0.3         62.10393883]
 [  0.4         18.6647785 ]
 [  0.5         60.37095119]
 [  0.6        -66.90125798]
 [  0.7        -81.40602189]
 [  0.8         50.53882687]
 [  0.9        -56.46028762]
 [  1.          17.60561432]
 [  1.09391667  99.29101089]]","[[0.         1.95674705]
 [0.1        0.2020369 ]
 [0.2        0.52421729]
 [0.3        0.65974817]
 [0.4        0.39728546]
 [0.5        0.37134149]
 [0.6        0.92371442]
 [0.7        0.31310251]
 [0.8        1.13414137]
 [0.9        0.34422608]
 [1.         1.91257156]
 [1.09391667 1.23959362]]",0,4.221
8773808799,f,21,english,5,3,english,2024-02-01 10:28:30.826823,False,2,276,sounds\english\audio/english_284.wav,"[[  0.         -64.32327457]
 [  0.1        -67.89025783]
 [  0.2         63.39804367]
 [  0.3        -47.8895651 ]
 [  0.4         27.68105964]
 [  0.5         58.35244252]
 [  0.6        -24.74070708]
 [  0.7        -82.19387926]
 [  0.8        -97.32479033]
 [  0.9         99.46728609]
 [  1.         -92.70862536]
 [  1.09391667  47.98339035]]","[[0.         0.91308262]
 [0.1        0.76791564]
 [0.2        0.83095971]
 [0.3        1.79742446]
 [0.4        1.18503846]
 [0.5        1.29913938]
 [0.6        1.72192785]
 [0.7        1.7387844 ]
 [0.8        1.05930336]
 [0.9        0.10150249]
 [1.         0.67687392]
 [1.09391667 1.83996488]]",0,0.4
8773808799,f,21,english,5,3,english,2024-02-01 10:28:30.826823,False,2,277,sounds\english\audio/english_857.wav,"[[  0.         -56.93168928]
 [  0.1        -40.57515649]
 [  0.2        -26.26283105]
 [  0.3        -49.62797955]
 [  0.4         47.07146778]
 [  0.5        -96.41882062]
 [  0.6         63.09662026]
 [  0.7         98.67053018]
 [  0.8        -56.85749065]
 [  0.9        -18.03690135]
 [  1.          52.13097753]
 [  1.09391667  52.54650928]]","[[0.         1.92395656]
 [0.1        1.41156549]
 [0.2        0.14185194]
 [0.3        1.1985334 ]
 [0.4        0.83326814]
 [0.5        0.71224123]
 [0.6        1.58040322]
 [0.7        1.02327595]
 [0.8        1.48703987]
 [0.9        0.70290333]
 [1.         0.53460392]
 [1.09391667 1.10851945]]",0,0.427
8773808799,f,21,english,5,3,english,2024-02-01 10:28:30.826823,False,2,278,sounds\english\audio/english_372.wav,"[[  0.          26.59916967]
 [  0.1          3.58814385]
 [  0.2        -60.14178388]
 [  0.3        -44.19894674]
 [  0.4        -38.03613901]
 [  0.5         46.39303355]
 [  0.6        -33.97181462]
 [  0.7        -27.46884733]
 [  0.8        -45.55461231]
 [  0.9         20.15963599]
 [  1.          54.79355498]
 [  1.09391667  93.56246184]]","[[0.         1.01937466]
 [0.1        0.79696142]
 [0.2        0.00503004]
 [0.3        0.84575405]
 [0.4        0.48969314]
 [0.5        1.79043023]
 [0.6        1.46860797]
 [0.7        0.04122284]
 [0.8        0.63203754]
 [0.9        1.00944548]
 [1.         0.7711604 ]
 [1.09391667 0.15048829]]",1,0.362
8773808799,f,21,english,5,3,english,2024-02-01 10:28:30.826823,False,2,279,sounds\english\audio/english_489.wav,"[[  0.          34.87513384]
 [  0.1        -56.49709653]
 [  0.2        -69.32456338]
 [  0.3         53.20706346]
 [  0.4         66.8977185 ]
 [  0.5         47.95425842]
 [  0.6         18.45634507]
 [  0.7        -35.00488862]
 [  0.8         41.56892466]
 [  0.9         -9.61579481]
 [  1.         -77.26438838]
 [  1.09391667 -34.81016687]]","[[0.         0.04879029]
 [0.1        0.42206675]
 [0.2        1.77329015]
 [0.3        0.48934341]
 [0.4        1.53841919]
 [0.5        1.90609151]
 [0.6        1.04648426]
 [0.7        0.7592551 ]
 [0.8        1.06956744]
 [0.9        0.57636466]
 [1.         0.72315176]
 [1.09391667 0.99781533]]",0,0.305
8773808799,f,21,english,5,3,english,2024-02-01 10:28:30.826823,False,2,280,sounds\english\audio/english_222.wav,"[[  0.          96.40991371]
 [  0.1         44.65841575]
 [  0.2        -16.29621217]
 [  0.3        -48.55554978]
 [  0.4         26.12822135]
 [  0.5         56.43887594]
 [  0.6         -8.03605186]
 [  0.7         54.77211039]
 [  0.8         25.53059274]
 [  0.9        -58.35574141]
 [  1.         -61.20346584]
 [  1.09391667  99.40713186]]","[[0.         0.9507269 ]
 [0.1        1.79183575]
 [0.2        1.09244309]
 [0.3        1.6357802 ]
 [0.4        0.19893477]
 [0.5        0.38875901]
 [0.6        0.73216499]
 [0.7        1.11169146]
 [0.8        0.05558172]
 [0.9        0.18202708]
 [1.         0.44521291]
 [1.09391667 0.13186743]]",1,0.875
8773808799,f,21,english,5,3,english,2024-02-01 10:28:30.826823,False,2,281,sounds\english\audio/english_985.wav,"[[  0.         -83.24919271]
 [  0.1        -61.40218693]
 [  0.2         75.6831096 ]
 [  0.3        -83.55103169]
 [  0.4        -76.60569971]
 [  0.5         93.43834668]
 [  0.6         46.86841289]
 [  0.7         11.38653049]
 [  0.8          5.98716874]
 [  0.9          6.47503028]
 [  1.          53.75316558]
 [  1.09391667 -17.57703362]]","[[0.         0.45698213]
 [0.1        1.0383787 ]
 [0.2        1.83439409]
 [0.3        1.46493433]
 [0.4        0.92668276]
 [0.5        1.27852145]
 [0.6        1.04356397]
 [0.7        1.03370788]
 [0.8        0.43255879]
 [0.9        0.84647211]
 [1.         1.92237121]
 [1.09391667 0.19853323]]",0,0.326
8773808799,f,21,english,5,3,english,2024-02-01 10:28:30.826823,False,2,282,sounds\english\audio/english_181.wav,"[[  0.          -0.97272984]
 [  0.1        -77.78814802]
 [  0.2         30.93073149]
 [  0.3        -15.42483918]
 [  0.4         25.76707037]
 [  0.5        -29.04038637]
 [  0.6         13.2566372 ]
 [  0.7         83.86524807]
 [  0.8         13.33685446]
 [  0.9         15.31267769]
 [  1.         -61.51651878]
 [  1.09391667  11.45529288]]","[[0.         0.61376697]
 [0.1        0.85355331]
 [0.2        1.49426592]
 [0.3        1.18212422]
 [0.4        1.41051316]
 [0.5        0.72870407]
 [0.6        0.94615724]
 [0.7        0.24258424]
 [0.8        1.00008676]
 [0.9        0.92341919]
 [1.         0.15563028]
 [1.09391667 0.83237058]]",0,0.294
8773808799,f,21,english,5,3,english,2024-02-01 10:28:30.826823,False,2,283,sounds\english\audio/english_173.wav,"[[  0.          34.32682043]
 [  0.1        -35.22347769]
 [  0.2         15.69043139]
 [  0.3        -71.83777825]
 [  0.4        -96.81426106]
 [  0.5        -51.15803827]
 [  0.6        -12.70248505]
 [  0.7        -30.75730157]
 [  0.8         -5.0022938 ]
 [  0.9         41.07030003]
 [  1.          -5.319412  ]
 [  1.09391667  43.01251996]]","[[0.         0.82312646]
 [0.1        0.84965345]
 [0.2        0.84607348]
 [0.3        0.55995079]
 [0.4        0.51635348]
 [0.5        1.6072313 ]
 [0.6        1.25349503]
 [0.7        1.4731344 ]
 [0.8        0.28621328]
 [0.9        0.95942448]
 [1.         0.2847469 ]
 [1.09391667 0.4938404 ]]",1,0.669
8773808799,f,21,english,5,3,english,2024-02-01 10:28:30.826823,False,2,284,sounds\english\audio/english_484.wav,"[[  0.           2.0569585 ]
 [  0.1        -79.1484241 ]
 [  0.2         30.9033229 ]
 [  0.3         12.05929197]
 [  0.4        -72.8204973 ]
 [  0.5        -89.96387514]
 [  0.6        -22.94210609]
 [  0.7         17.91925192]
 [  0.8        -62.01555508]
 [  0.9        -43.27412131]
 [  1.           0.91553281]
 [  1.09391667 -32.68645572]]","[[0.         0.34651955]
 [0.1        1.84776357]
 [0.2        1.82203066]
 [0.3        1.56778111]
 [0.4        1.22252397]
 [0.5        1.78789861]
 [0.6        0.02218534]
 [0.7        1.7744569 ]
 [0.8        1.27917124]
 [0.9        1.76665807]
 [1.         1.1189794 ]
 [1.09391667 0.68984214]]",0,0.137
8773808799,f,21,english,5,3,english,2024-02-01 10:28:30.826823,False,2,285,sounds\english\audio/english_974.wav,"[[  0.         -93.03864928]
 [  0.1        -77.75716604]
 [  0.2          0.69139929]
 [  0.3         26.0953238 ]
 [  0.4         98.53440651]
 [  0.5         92.94553081]
 [  0.6         -7.63804917]
 [  0.7          9.10874073]
 [  0.8        -89.79433239]
 [  0.9        -25.22506103]
 [  1.          90.91634132]
 [  1.09391667  96.1258414 ]]","[[0.         0.43845399]
 [0.1        1.6903579 ]
 [0.2        1.16063432]
 [0.3        1.86115796]
 [0.4        1.84489406]
 [0.5        1.48551441]
 [0.6        0.45444214]
 [0.7        0.66005011]
 [0.8        1.73425962]
 [0.9        0.5346903 ]
 [1.         1.12098349]
 [1.09391667 0.52486182]]",0,0.713
8773808799,f,21,english,5,3,english,2024-02-01 10:28:30.826823,False,2,286,sounds\english\audio/english_728.wav,"[[  0.          86.97428458]
 [  0.1         68.85214371]
 [  0.2        -97.98565906]
 [  0.3         35.07930547]
 [  0.4        -30.18374109]
 [  0.5        -82.66469876]
 [  0.6         23.39578652]
 [  0.7         26.21600665]
 [  0.8         40.56146868]
 [  0.9          8.84190716]
 [  1.          42.34962336]
 [  1.09391667 -32.07226286]]","[[0.         1.28134459]
 [0.1        0.92040862]
 [0.2        0.75536346]
 [0.3        1.26670058]
 [0.4        0.22005976]
 [0.5        1.42168107]
 [0.6        1.49957944]
 [0.7        0.84685957]
 [0.8        0.54890831]
 [0.9        1.06754414]
 [1.         0.96376908]
 [1.09391667 0.10029528]]",0,0.827
8773808799,f,21,english,5,3,english,2024-02-01 10:28:30.826823,False,2,287,sounds\english\audio/english_547.wav,"[[  0.         -84.56242422]
 [  0.1         99.9800097 ]
 [  0.2        -74.27935954]
 [  0.3         89.44673422]
 [  0.4        -91.74996992]
 [  0.5        -18.76785599]
 [  0.6        -51.12732076]
 [  0.7         14.86623417]
 [  0.8         92.41843581]
 [  0.9         81.77291175]
 [  1.          63.1035346 ]
 [  1.09391667  48.67701743]]","[[0.         0.88058973]
 [0.1        1.57875619]
 [0.2        1.10539411]
 [0.3        1.02984743]
 [0.4        1.38707534]
 [0.5        1.26965367]
 [0.6        1.25509145]
 [0.7        1.52290103]
 [0.8        1.30528153]
 [0.9        0.94706354]
 [1.         1.72712252]
 [1.09391667 1.8227726 ]]",0,0.204
8773808799,f,21,english,5,3,english,2024-02-01 10:28:30.826823,False,2,288,sounds\english\audio/english_211.wav,"[[  0.         -80.71487731]
 [  0.1        -84.93103541]
 [  0.2         44.45354712]
 [  0.3         93.3584913 ]
 [  0.4        -88.5655354 ]
 [  0.5         58.50265478]
 [  0.6         42.72435837]
 [  0.7         15.71938112]
 [  0.8          7.70597987]
 [  0.9        -16.73581283]
 [  1.         -59.877834  ]
 [  1.09391667  39.92997673]]","[[0.         0.76887991]
 [0.1        0.20306802]
 [0.2        0.68006184]
 [0.3        1.00051335]
 [0.4        1.99828121]
 [0.5        0.71004269]
 [0.6        1.91299509]
 [0.7        1.01891246]
 [0.8        1.53959141]
 [0.9        1.64058726]
 [1.         1.4823545 ]
 [1.09391667 1.39164399]]",0,0.07
8773808799,f,21,english,5,3,english,2024-02-01 10:28:30.826823,False,2,289,sounds\english\audio/english_559.wav,"[[  0.         -22.58359419]
 [  0.1        -30.96921825]
 [  0.2        -86.1378048 ]
 [  0.3         29.82360498]
 [  0.4         38.1322139 ]
 [  0.5         58.32762061]
 [  0.6         22.70409536]
 [  0.7        -21.11680564]
 [  0.8         76.91113815]
 [  0.9        -79.88102102]
 [  1.          83.63275499]
 [  1.09391667 -89.81944345]]","[[0.         0.41474403]
 [0.1        0.71205907]
 [0.2        1.69519751]
 [0.3        1.01062692]
 [0.4        1.05592913]
 [0.5        0.6684902 ]
 [0.6        0.92808907]
 [0.7        1.67728702]
 [0.8        0.99155685]
 [0.9        1.28910569]
 [1.         1.70810559]
 [1.09391667 1.28508404]]",0,2.693
8773808799,f,21,english,5,3,english,2024-02-01 10:28:30.826823,False,2,290,sounds\english\audio/english_672.wav,"[[  0.          43.22685975]
 [  0.1        -54.22036803]
 [  0.2         47.19502214]
 [  0.3         29.48399108]
 [  0.4        -37.13401682]
 [  0.5        -82.77781933]
 [  0.6         26.5489707 ]
 [  0.7        -82.12818914]
 [  0.8          0.43149331]
 [  0.9         36.27396929]
 [  1.         -33.62939759]
 [  1.09391667 -60.08189446]]","[[0.         1.16062379]
 [0.1        1.05074454]
 [0.2        0.58565022]
 [0.3        0.69010583]
 [0.4        1.10560462]
 [0.5        0.90912981]
 [0.6        1.72329615]
 [0.7        1.29141175]
 [0.8        0.15835131]
 [0.9        0.77804924]
 [1.         0.05373679]
 [1.09391667 0.92241163]]",0,0.362
8773808799,f,21,english,5,3,english,2024-02-01 10:28:30.826823,False,2,291,sounds\english\audio/english_169.wav,"[[  0.         -47.44631174]
 [  0.1         48.43296153]
 [  0.2        -16.2993289 ]
 [  0.3         71.12275577]
 [  0.4         27.92431259]
 [  0.5        -51.53020823]
 [  0.6         70.60667651]
 [  0.7         19.72897422]
 [  0.8        -28.1908113 ]
 [  0.9         42.45712742]
 [  1.          90.49930188]
 [  1.09391667 -24.56696621]]","[[0.         0.61482073]
 [0.1        0.65655052]
 [0.2        1.98022162]
 [0.3        1.32201843]
 [0.4        0.62266418]
 [0.5        0.36761683]
 [0.6        0.63917639]
 [0.7        0.86553093]
 [0.8        1.52360694]
 [0.9        1.86801427]
 [1.         1.6810017 ]
 [1.09391667 0.16531637]]",0,0.267
8773808799,f,21,english,5,3,english,2024-02-01 10:28:30.826823,False,2,292,sounds\english\audio/english_397.wav,"[[  0.         -93.66149261]
 [  0.1         10.02332444]
 [  0.2         11.25111848]
 [  0.3        -37.6827397 ]
 [  0.4         25.48122538]
 [  0.5         26.75513861]
 [  0.6        -43.88017582]
 [  0.7        -42.20538159]
 [  0.8         82.41630332]
 [  0.9         57.33831385]
 [  1.         -42.56353988]
 [  1.09391667  68.91357319]]","[[0.         1.64508674]
 [0.1        1.71116478]
 [0.2        0.61520949]
 [0.3        1.11182829]
 [0.4        1.39361431]
 [0.5        1.84991074]
 [0.6        0.85920693]
 [0.7        1.85774447]
 [0.8        1.4570352 ]
 [0.9        0.98799717]
 [1.         0.5544136 ]
 [1.09391667 0.776674  ]]",0,0.228
8773808799,f,21,english,5,3,english,2024-02-01 10:28:30.826823,False,2,293,sounds\english\audio/english_883.wav,"[[  0.         -84.46412598]
 [  0.1        -48.29800463]
 [  0.2        -81.14674871]
 [  0.3        -14.72052063]
 [  0.4         84.15645486]
 [  0.5        -46.7306994 ]
 [  0.6        -55.92753429]
 [  0.7         69.20414462]
 [  0.8         42.35113705]
 [  0.9         68.93741473]
 [  1.           5.16727893]
 [  1.09391667 -87.05225408]]","[[0.         0.36586486]
 [0.1        1.2838589 ]
 [0.2        0.35124497]
 [0.3        0.55313004]
 [0.4        1.38696071]
 [0.5        0.05285084]
 [0.6        0.33437309]
 [0.7        0.05014106]
 [0.8        1.1093355 ]
 [0.9        1.05755937]
 [1.         0.06749628]
 [1.09391667 1.22701865]]",0,0.264
8773808799,f,21,english,5,3,english,2024-02-01 10:28:30.826823,False,2,294,sounds\english\audio/english_420.wav,"[[  0.          66.35781632]
 [  0.1        -12.06831675]
 [  0.2         71.12167329]
 [  0.3        -65.08320496]
 [  0.4        -82.82301749]
 [  0.5         32.31625944]
 [  0.6         68.14197427]
 [  0.7         69.60296215]
 [  0.8         38.87135773]
 [  0.9         55.81325805]
 [  1.          91.56317805]
 [  1.09391667  58.32530745]]","[[0.         1.51060149]
 [0.1        0.86092396]
 [0.2        1.98213421]
 [0.3        0.15165496]
 [0.4        1.26926091]
 [0.5        1.00523376]
 [0.6        1.33555594]
 [0.7        1.16834727]
 [0.8        0.07961385]
 [0.9        0.13061417]
 [1.         1.16603809]
 [1.09391667 1.93332186]]",1,0.305
8773808799,f,21,english,5,3,english,2024-02-01 10:28:30.826823,False,2,295,sounds\english\audio/english_59.wav,"[[  0.          13.6818357 ]
 [  0.1        -62.28772111]
 [  0.2         49.12418905]
 [  0.3        -11.37021527]
 [  0.4        -54.18333873]
 [  0.5         89.00177849]
 [  0.6        -39.13145847]
 [  0.7         -8.40184911]
 [  0.8        -34.91016987]
 [  0.9         92.47037208]
 [  1.          91.56160698]
 [  1.09391667 -64.52293265]]","[[0.         1.39102809]
 [0.1        1.7641323 ]
 [0.2        1.93370096]
 [0.3        1.41546104]
 [0.4        1.8712645 ]
 [0.5        1.58142361]
 [0.6        1.31038649]
 [0.7        1.79881342]
 [0.8        0.00761053]
 [0.9        0.77279167]
 [1.         0.86326769]
 [1.09391667 1.19458968]]",1,1.535
8773808799,f,21,english,5,3,english,2024-02-01 10:28:30.826823,False,2,296,sounds\english\audio/english_283.wav,"[[  0.         -12.90091121]
 [  0.1         42.27249946]
 [  0.2          5.12381798]
 [  0.3          1.7675065 ]
 [  0.4        -21.55461961]
 [  0.5        -31.65586282]
 [  0.6         20.15160145]
 [  0.7         82.41987013]
 [  0.8         59.09454669]
 [  0.9         36.30583869]
 [  1.         -40.78038553]
 [  1.09391667  39.65520312]]","[[0.         0.5789399 ]
 [0.1        1.95381107]
 [0.2        1.0168321 ]
 [0.3        0.61202955]
 [0.4        0.89680875]
 [0.5        1.15056599]
 [0.6        0.34242076]
 [0.7        1.76180701]
 [0.8        0.95604839]
 [0.9        1.86733505]
 [1.         1.17388738]
 [1.09391667 1.73016304]]",0,0.065
8773808799,f,21,english,5,3,english,2024-02-01 10:28:30.826823,False,2,297,sounds\english\audio/english_895.wav,"[[  0.         -68.00198949]
 [  0.1        -51.96003104]
 [  0.2        -27.5678987 ]
 [  0.3          1.37769692]
 [  0.4        -19.54713895]
 [  0.5         32.4870356 ]
 [  0.6         73.95431589]
 [  0.7        -60.0683904 ]
 [  0.8        -32.74215808]
 [  0.9        -18.7791301 ]
 [  1.           4.0520504 ]
 [  1.09391667  54.70777064]]","[[0.         0.4596857 ]
 [0.1        1.9086695 ]
 [0.2        1.58013593]
 [0.3        1.02012083]
 [0.4        0.3764367 ]
 [0.5        0.56957954]
 [0.6        0.55471434]
 [0.7        1.19362941]
 [0.8        1.07008524]
 [0.9        0.94538114]
 [1.         0.21197649]
 [1.09391667 1.70514148]]",0,0.066
8773808799,f,21,english,5,3,english,2024-02-01 10:28:30.826823,False,2,298,sounds\english\audio/english_557.wav,"[[  0.         -36.00437951]
 [  0.1        -36.18192477]
 [  0.2        -76.46214854]
 [  0.3         -9.78546514]
 [  0.4        -53.27937245]
 [  0.5         14.69737181]
 [  0.6        -76.22217722]
 [  0.7         76.26393568]
 [  0.8        -62.02007028]
 [  0.9         73.18804903]
 [  1.          75.91755358]
 [  1.09391667 -37.39944408]]","[[0.         0.86268568]
 [0.1        0.78818346]
 [0.2        0.88104775]
 [0.3        0.51957323]
 [0.4        1.84624381]
 [0.5        0.53524469]
 [0.6        0.83895898]
 [0.7        0.4548877 ]
 [0.8        1.59917341]
 [0.9        0.63690232]
 [1.         1.04600017]
 [1.09391667 0.42796411]]",0,0.213
8773808799,f,21,english,5,3,english,2024-02-01 10:28:30.826823,False,2,299,sounds\english\audio/english_182.wav,"[[  0.         -33.72839549]
 [  0.1         71.95583488]
 [  0.2         93.77497833]
 [  0.3        -96.3431589 ]
 [  0.4        -58.26438495]
 [  0.5         40.50395066]
 [  0.6        -57.53982371]
 [  0.7         19.26336492]
 [  0.8         53.61678759]
 [  0.9         33.80250156]
 [  1.          47.27321227]
 [  1.09391667  72.04949346]]","[[0.         0.64170462]
 [0.1        0.46910546]
 [0.2        1.36329359]
 [0.3        1.23106937]
 [0.4        1.40247691]
 [0.5        0.60520266]
 [0.6        0.0944441 ]
 [0.7        0.39825095]
 [0.8        0.94728121]
 [0.9        0.19803834]
 [1.         1.21672532]
 [1.09391667 0.20681806]]",0,0.296
8773808799,f,21,english,5,3,english,2024-02-01 10:28:30.826823,False,2,300,sounds\english\audio/english_183.wav,"[[  0.          56.94082111]
 [  0.1         23.76823823]
 [  0.2        -72.77208824]
 [  0.3        -26.01651227]
 [  0.4         97.95217456]
 [  0.5        -88.35240054]
 [  0.6          8.20957713]
 [  0.7         -0.21457891]
 [  0.8        -22.50054627]
 [  0.9        -26.93782132]
 [  1.          -9.93952746]
 [  1.09391667  16.7040789 ]]","[[0.         1.46471885]
 [0.1        0.27157125]
 [0.2        0.89995591]
 [0.3        0.86595775]
 [0.4        0.99665554]
 [0.5        1.5130978 ]
 [0.6        0.89371921]
 [0.7        0.60499738]
 [0.8        0.6752389 ]
 [0.9        0.26345185]
 [1.         0.41919446]
 [1.09391667 0.61479122]]",0,0.288
8773808799,f,21,english,5,3,english,2024-02-01 10:28:30.826823,False,2,301,sounds\english\audio/english_212.wav,"[[  0.           7.28178662]
 [  0.1         53.30309055]
 [  0.2          9.81131056]
 [  0.3        -90.32961485]
 [  0.4         16.20847807]
 [  0.5        -12.76815096]
 [  0.6         93.86097069]
 [  0.7         39.57297318]
 [  0.8        -19.22688735]
 [  0.9        -71.99383643]
 [  1.           5.42324024]
 [  1.09391667 -66.1565739 ]]","[[0.         1.69718484]
 [0.1        0.86840916]
 [0.2        0.62741544]
 [0.3        1.93796864]
 [0.4        1.96151684]
 [0.5        0.98998478]
 [0.6        1.74396039]
 [0.7        1.59359998]
 [0.8        1.3284153 ]
 [0.9        1.90824048]
 [1.         1.38687745]
 [1.09391667 0.48487656]]",0,0.121
8773808799,f,21,english,5,3,english,2024-02-01 10:28:30.826823,False,2,302,sounds\english\audio/english_371.wav,"[[  0.          99.9242386 ]
 [  0.1         22.83023049]
 [  0.2         91.55037371]
 [  0.3          5.76311401]
 [  0.4          4.70890445]
 [  0.5        -99.6762273 ]
 [  0.6        -44.58037386]
 [  0.7        -30.18832908]
 [  0.8         69.47065737]
 [  0.9        -91.54025657]
 [  1.          20.04839549]
 [  1.09391667  43.26134408]]","[[0.         0.39669775]
 [0.1        0.78709847]
 [0.2        1.18432294]
 [0.3        0.89768316]
 [0.4        0.28448655]
 [0.5        1.11635531]
 [0.6        0.70262912]
 [0.7        1.50477642]
 [0.8        1.93681172]
 [0.9        1.02826785]
 [1.         1.64700674]
 [1.09391667 0.44264614]]",0,1.231
8773808799,f,21,english,5,3,english,2024-02-01 10:28:30.826823,False,2,303,sounds\english\audio/english_652.wav,"[[  0.          -6.47134423]
 [  0.1         15.08810971]
 [  0.2         98.29631383]
 [  0.3         30.58339985]
 [  0.4         -6.30529528]
 [  0.5        -44.5601624 ]
 [  0.6          4.47931007]
 [  0.7        -52.28319513]
 [  0.8         17.6405793 ]
 [  0.9          2.7192508 ]
 [  1.          -8.76412426]
 [  1.09391667  53.37366327]]","[[0.         1.78340321]
 [0.1        1.37348527]
 [0.2        0.90438715]
 [0.3        0.90448146]
 [0.4        0.6194213 ]
 [0.5        1.03986034]
 [0.6        0.52762796]
 [0.7        0.92865907]
 [0.8        1.28477406]
 [0.9        1.34724363]
 [1.         1.76490877]
 [1.09391667 1.20575877]]",0,0.074
8773808799,f,21,english,5,3,english,2024-02-01 10:28:30.826823,False,2,304,sounds\english\audio/english_933.wav,"[[  0.         -32.55224072]
 [  0.1         59.44257797]
 [  0.2         17.39690353]
 [  0.3        -22.68529576]
 [  0.4        -75.07818399]
 [  0.5        -42.21384225]
 [  0.6         88.28795698]
 [  0.7        -93.76467276]
 [  0.8        -63.09167857]
 [  0.9         42.2087571 ]
 [  1.          48.07358396]
 [  1.09391667  62.42851897]]","[[0.         0.19221515]
 [0.1        1.43025401]
 [0.2        1.54503316]
 [0.3        0.8626505 ]
 [0.4        0.16630427]
 [0.5        0.04785165]
 [0.6        0.15375828]
 [0.7        0.19154161]
 [0.8        1.95653775]
 [0.9        0.40020781]
 [1.         0.86859993]
 [1.09391667 1.49244645]]",0,1.684
8773808799,f,21,english,5,3,english,2024-02-01 10:28:30.826823,False,2,305,sounds\english\audio/english_864.wav,"[[ 0.00000000e+00 -3.87960156e-02]
 [ 1.00000000e-01  3.81316994e+01]
 [ 2.00000000e-01 -2.70649645e+01]
 [ 3.00000000e-01  4.86299289e+01]
 [ 4.00000000e-01 -7.31690056e+01]
 [ 5.00000000e-01 -2.81080401e+01]
 [ 6.00000000e-01  4.73805694e+01]
 [ 7.00000000e-01 -9.14211748e+01]
 [ 8.00000000e-01  5.88699375e+00]
 [ 9.00000000e-01  8.83416583e+01]
 [ 1.00000000e+00 -3.67945697e+01]
 [ 1.09391667e+00 -6.07645339e+01]]","[[0.         1.23414585]
 [0.1        0.9307675 ]
 [0.2        0.03913176]
 [0.3        0.1581059 ]
 [0.4        1.26848515]
 [0.5        1.70642176]
 [0.6        1.16045112]
 [0.7        1.92718933]
 [0.8        0.86462582]
 [0.9        0.91973589]
 [1.         0.59650291]
 [1.09391667 0.61493886]]",0,0.284
8773808799,f,21,english,5,3,english,2024-02-01 10:28:30.826823,False,2,306,sounds\english\audio/english_750.wav,"[[  0.         -25.16303224]
 [  0.1        -14.02768866]
 [  0.2         69.31394604]
 [  0.3         90.85453111]
 [  0.4        -11.11189664]
 [  0.5         99.7192225 ]
 [  0.6         59.23899804]
 [  0.7         61.96409814]
 [  0.8         86.60257641]
 [  0.9         26.97835103]
 [  1.         -29.13235822]
 [  1.09391667 -49.9357994 ]]","[[0.         0.86862278]
 [0.1        0.53645709]
 [0.2        1.09554837]
 [0.3        0.97960852]
 [0.4        1.14883971]
 [0.5        0.16341609]
 [0.6        1.34227106]
 [0.7        1.64659331]
 [0.8        0.80940412]
 [0.9        1.55602713]
 [1.         0.0040181 ]
 [1.09391667 1.03656175]]",1,0.339
8773808799,f,21,english,5,3,english,2024-02-01 10:28:30.826823,False,2,307,sounds\english\audio/english_318.wav,"[[  0.         -78.94407008]
 [  0.1        -91.43281566]
 [  0.2        -62.24141646]
 [  0.3         40.78211046]
 [  0.4          7.98778967]
 [  0.5        -60.8723057 ]
 [  0.6         42.28033673]
 [  0.7        -90.16378742]
 [  0.8        -93.15678143]
 [  0.9        -38.27194231]
 [  1.           2.04687585]
 [  1.09391667 -59.35018185]]","[[0.         1.36025181]
 [0.1        1.33485139]
 [0.2        0.43598096]
 [0.3        0.74688302]
 [0.4        1.69145296]
 [0.5        1.55878588]
 [0.6        0.6574677 ]
 [0.7        1.94941989]
 [0.8        1.19046703]
 [0.9        0.26844165]
 [1.         1.06188423]
 [1.09391667 1.54423822]]",1,0.187
8773808799,f,21,english,5,3,english,2024-02-01 10:28:30.826823,False,2,308,sounds\english\audio/english_765.wav,"[[  0.         -46.53041628]
 [  0.1        -50.60278258]
 [  0.2         -7.48188076]
 [  0.3         -4.61052544]
 [  0.4         69.78049639]
 [  0.5        -53.58575129]
 [  0.6        -46.38219648]
 [  0.7         78.75215399]
 [  0.8         95.47520091]
 [  0.9         26.22396157]
 [  1.           3.12654745]
 [  1.09391667 -11.81611391]]","[[0.         0.24046298]
 [0.1        1.09360201]
 [0.2        0.57764993]
 [0.3        0.55520632]
 [0.4        0.44903327]
 [0.5        0.63867698]
 [0.6        0.56842849]
 [0.7        1.28188815]
 [0.8        0.91009427]
 [0.9        0.76285115]
 [1.         1.19675799]
 [1.09391667 0.81915378]]",0,0.144
8773808799,f,21,english,5,3,english,2024-02-01 10:28:30.826823,False,2,309,sounds\english\audio/english_63.wav,"[[  0.          48.80645604]
 [  0.1          3.74871088]
 [  0.2         36.66338235]
 [  0.3          0.45158548]
 [  0.4        -34.50897998]
 [  0.5         21.44979621]
 [  0.6        -13.42489637]
 [  0.7          3.18187359]
 [  0.8        -14.80243304]
 [  0.9         76.25105629]
 [  1.         -29.02472721]
 [  1.09391667 -75.42163707]]","[[0.         0.56207448]
 [0.1        0.93485315]
 [0.2        1.21075073]
 [0.3        1.91331277]
 [0.4        0.52750999]
 [0.5        1.42707635]
 [0.6        1.96742567]
 [0.7        1.57355325]
 [0.8        0.94386171]
 [0.9        0.6095205 ]
 [1.         0.97846037]
 [1.09391667 1.94412545]]",0,0.425
8773808799,f,21,english,5,3,english,2024-02-01 10:28:30.826823,False,2,310,sounds\english\audio/english_242.wav,"[[  0.         -30.80596233]
 [  0.1         81.43519329]
 [  0.2          0.15400576]
 [  0.3        -28.81783402]
 [  0.4        -61.37671682]
 [  0.5         91.85520167]
 [  0.6        -31.54320731]
 [  0.7        -13.97670537]
 [  0.8         70.42044267]
 [  0.9        -90.04203145]
 [  1.         -39.83004077]
 [  1.09391667 -14.25442636]]","[[0.         1.80753385]
 [0.1        0.97833747]
 [0.2        1.3926845 ]
 [0.3        1.42545381]
 [0.4        0.1849233 ]
 [0.5        1.35548931]
 [0.6        1.15661389]
 [0.7        1.66148537]
 [0.8        1.4780344 ]
 [0.9        1.37692841]
 [1.         0.38948234]
 [1.09391667 1.25473686]]",0,0.195
8773808799,f,21,english,5,3,english,2024-02-01 10:28:30.826823,False,2,311,sounds\english\audio/english_700.wav,"[[  0.          68.07429642]
 [  0.1        -37.49377634]
 [  0.2        -23.04099004]
 [  0.3         29.04143541]
 [  0.4         20.45754453]
 [  0.5         37.24109952]
 [  0.6         39.64018777]
 [  0.7         51.86520487]
 [  0.8         48.29334393]
 [  0.9         69.44263224]
 [  1.         -89.62778161]
 [  1.09391667 -27.88856176]]","[[0.         0.65814928]
 [0.1        0.17735138]
 [0.2        0.86512997]
 [0.3        1.58435568]
 [0.4        1.51654074]
 [0.5        1.28756254]
 [0.6        0.60860264]
 [0.7        1.44468929]
 [0.8        1.11255223]
 [0.9        0.2005319 ]
 [1.         1.42301772]
 [1.09391667 1.42118254]]",1,0.139
8773808799,f,21,english,5,3,english,2024-02-01 10:28:30.826823,False,2,312,sounds\english\audio/english_647.wav,"[[  0.          54.52725229]
 [  0.1        -56.14693886]
 [  0.2         71.63132719]
 [  0.3        -23.02387172]
 [  0.4        -60.51376999]
 [  0.5        -64.57692494]
 [  0.6         46.96365994]
 [  0.7          2.340544  ]
 [  0.8        -11.6475953 ]
 [  0.9         62.71297866]
 [  1.         -48.91159538]
 [  1.09391667 -39.00416387]]","[[0.         1.1883546 ]
 [0.1        1.65081997]
 [0.2        1.02051213]
 [0.3        1.7000584 ]
 [0.4        0.62509688]
 [0.5        1.60189297]
 [0.6        1.40209494]
 [0.7        1.32470585]
 [0.8        1.16038123]
 [0.9        0.96037121]
 [1.         0.45954714]
 [1.09391667 1.53514393]]",0,0.439
8773808799,f,21,english,5,3,english,2024-02-01 10:28:30.826823,False,2,313,sounds\english\audio/english_292.wav,"[[  0.          25.72060653]
 [  0.1         -6.51251487]
 [  0.2          3.32661168]
 [  0.3         89.62386246]
 [  0.4         80.65433919]
 [  0.5         44.84771524]
 [  0.6         25.54437629]
 [  0.7        -12.49512251]
 [  0.8        -42.7769001 ]
 [  0.9        -50.66960292]
 [  1.         -26.28928757]
 [  1.09391667 -87.75283225]]","[[0.         1.17792554]
 [0.1        0.30252559]
 [0.2        1.09442145]
 [0.3        1.28448778]
 [0.4        1.02735441]
 [0.5        0.62410129]
 [0.6        1.60418481]
 [0.7        0.44189431]
 [0.8        1.24863789]
 [0.9        1.87159039]
 [1.         1.63743996]
 [1.09391667 0.32075193]]",0,0.504
8773808799,f,21,english,5,3,english,2024-02-01 10:28:30.826823,False,2,314,sounds\english\audio/english_642.wav,"[[ 0.         91.32452464]
 [ 0.1        25.50334758]
 [ 0.2        16.65062249]
 [ 0.3        59.49550973]
 [ 0.4        71.09902   ]
 [ 0.5        32.48084173]
 [ 0.6        -3.97213515]
 [ 0.7        -1.84724139]
 [ 0.8        94.84850521]
 [ 0.9        -6.66803952]
 [ 1.         95.32562857]
 [ 1.09391667 43.75707904]]","[[0.         1.47199137]
 [0.1        0.86889355]
 [0.2        0.12872518]
 [0.3        0.72033949]
 [0.4        1.524748  ]
 [0.5        1.90798091]
 [0.6        1.71709986]
 [0.7        1.47754373]
 [0.8        1.43391033]
 [0.9        1.68537408]
 [1.         1.1201051 ]
 [1.09391667 1.27926817]]",0,0.308
8773808799,f,21,english,5,3,english,2024-02-01 10:28:30.826823,False,2,315,sounds\english\audio/english_635.wav,"[[  0.         -41.6388758 ]
 [  0.1        -11.25355895]
 [  0.2         29.06457521]
 [  0.3         33.43535693]
 [  0.4        -80.91767575]
 [  0.5         27.23293816]
 [  0.6         37.31603404]
 [  0.7        -20.25902841]
 [  0.8         91.76121844]
 [  0.9         18.10072646]
 [  1.         -34.91216452]
 [  1.09391667  73.01340773]]","[[0.         1.40170403]
 [0.1        0.13720713]
 [0.2        0.8768091 ]
 [0.3        0.4792802 ]
 [0.4        1.34026296]
 [0.5        0.71042457]
 [0.6        1.12917353]
 [0.7        1.54130177]
 [0.8        1.57938519]
 [0.9        1.51480287]
 [1.         1.85110037]
 [1.09391667 0.29889363]]",0,0.187
8773808799,f,21,english,5,3,english,2024-02-01 10:28:30.826823,False,2,316,sounds\english\audio/english_662.wav,"[[  0.          31.31886637]
 [  0.1        -45.58012984]
 [  0.2        -36.67335117]
 [  0.3         91.68908931]
 [  0.4         99.42890358]
 [  0.5        -75.06867948]
 [  0.6        -53.3060983 ]
 [  0.7         66.7707286 ]
 [  0.8         69.18702853]
 [  0.9        -16.72052533]
 [  1.          16.50634939]
 [  1.09391667  79.32738685]]","[[0.         0.51844492]
 [0.1        1.26337535]
 [0.2        1.47948125]
 [0.3        1.54973702]
 [0.4        1.40573319]
 [0.5        0.46765036]
 [0.6        1.29577772]
 [0.7        1.28176027]
 [0.8        1.79426909]
 [0.9        0.76623174]
 [1.         1.90203541]
 [1.09391667 1.85204165]]",0,0.145
8773808799,f,21,english,5,3,english,2024-02-01 10:28:30.826823,False,2,317,sounds\english\audio/english_407.wav,"[[  0.         -24.60693705]
 [  0.1        -18.03262929]
 [  0.2         78.43262301]
 [  0.3        -68.3918043 ]
 [  0.4        -80.30955939]
 [  0.5         85.23652971]
 [  0.6        -34.75897275]
 [  0.7        -13.65493451]
 [  0.8         18.27954458]
 [  0.9        -61.83588329]
 [  1.           1.46934054]
 [  1.09391667  21.65066183]]","[[0.         0.46722995]
 [0.1        1.67527194]
 [0.2        0.46653722]
 [0.3        0.93598541]
 [0.4        1.16461279]
 [0.5        0.21312226]
 [0.6        0.26523352]
 [0.7        0.26712079]
 [0.8        0.66430326]
 [0.9        0.96548424]
 [1.         0.70653645]
 [1.09391667 1.4905418 ]]",0,0.367
8773808799,f,21,english,5,3,english,2024-02-01 10:28:30.826823,False,2,318,sounds\english\audio/english_41.wav,"[[  0.          94.86935215]
 [  0.1         -7.05168928]
 [  0.2         83.29541273]
 [  0.3         -1.78314142]
 [  0.4         48.9333274 ]
 [  0.5        -37.7603382 ]
 [  0.6        -73.18439231]
 [  0.7         14.0804343 ]
 [  0.8        -63.54643631]
 [  0.9         15.76603415]
 [  1.           6.93433941]
 [  1.09391667 -37.21216737]]","[[0.         0.27348518]
 [0.1        1.18971652]
 [0.2        1.0683571 ]
 [0.3        1.37978433]
 [0.4        0.66104529]
 [0.5        1.58723319]
 [0.6        0.96658357]
 [0.7        1.12331941]
 [0.8        1.41064232]
 [0.9        0.93302581]
 [1.         0.83854769]
 [1.09391667 1.07714606]]",0,0.222
8773808799,f,21,english,5,3,english,2024-02-01 10:28:30.826823,False,2,319,sounds\english\audio/english_803.wav,"[[  0.         -87.73830572]
 [  0.1        -15.08646711]
 [  0.2        -93.06982521]
 [  0.3        -69.48431994]
 [  0.4         66.11466902]
 [  0.5          9.32273235]
 [  0.6         66.48896901]
 [  0.7        -66.59180882]
 [  0.8         43.6326205 ]
 [  0.9        -52.46264607]
 [  1.          47.80537721]
 [  1.09391667   7.91826016]]","[[0.         0.85344372]
 [0.1        1.55927117]
 [0.2        1.70131734]
 [0.3        0.94684337]
 [0.4        1.98181189]
 [0.5        0.71685289]
 [0.6        0.68582038]
 [0.7        0.52787947]
 [0.8        1.2789965 ]
 [0.9        1.18929342]
 [1.         1.0745206 ]
 [1.09391667 1.28256899]]",0,0.24
8773808799,f,21,english,5,3,english,2024-02-01 10:28:30.826823,False,2,320,sounds\english\audio/english_841.wav,"[[  0.          13.47649633]
 [  0.1         -4.31438018]
 [  0.2         33.0563647 ]
 [  0.3         86.84745786]
 [  0.4        -66.40745707]
 [  0.5        -45.55484269]
 [  0.6        -86.08753099]
 [  0.7        -95.45735959]
 [  0.8         23.86654109]
 [  0.9        -11.20743419]
 [  1.         -48.1272879 ]
 [  1.09391667  65.71403117]]","[[0.         0.2030304 ]
 [0.1        1.4654032 ]
 [0.2        0.99950721]
 [0.3        0.04710196]
 [0.4        1.47568135]
 [0.5        1.38964748]
 [0.6        1.63844318]
 [0.7        1.01920512]
 [0.8        1.35517017]
 [0.9        1.07128935]
 [1.         1.6005201 ]
 [1.09391667 1.58502918]]",0,0.151
8773808799,f,21,english,5,3,english,2024-02-01 10:28:30.826823,False,2,321,sounds\english\audio/english_184.wav,"[[  0.         -74.14199581]
 [  0.1         89.94537867]
 [  0.2        -97.85495654]
 [  0.3         32.1848514 ]
 [  0.4        -18.16351382]
 [  0.5         45.53126648]
 [  0.6        -65.36095863]
 [  0.7        -40.1441705 ]
 [  0.8         67.58790179]
 [  0.9         83.12820885]
 [  1.          51.68582171]
 [  1.09391667  49.78372489]]","[[0.         0.56604578]
 [0.1        0.76750271]
 [0.2        1.21496016]
 [0.3        1.29013374]
 [0.4        0.9359149 ]
 [0.5        0.64815145]
 [0.6        1.94413917]
 [0.7        0.65249887]
 [0.8        1.32844944]
 [0.9        0.04188573]
 [1.         1.11136781]
 [1.09391667 0.42919135]]",0,1.584
8773808799,f,21,english,5,3,english,2024-02-01 10:28:30.826823,False,2,322,sounds\english\audio/english_164.wav,"[[  0.          25.67612046]
 [  0.1        -73.22421847]
 [  0.2         45.60415064]
 [  0.3         93.27879502]
 [  0.4         33.1762566 ]
 [  0.5         47.64320434]
 [  0.6        -19.19510789]
 [  0.7        -33.42680653]
 [  0.8         47.71435933]
 [  0.9          5.90681892]
 [  1.          42.52423942]
 [  1.09391667  43.22160039]]","[[0.         1.60368468]
 [0.1        0.71109799]
 [0.2        0.65921899]
 [0.3        1.59053842]
 [0.4        0.71799916]
 [0.5        1.2187377 ]
 [0.6        1.25318934]
 [0.7        0.56903982]
 [0.8        0.44355463]
 [0.9        1.65481096]
 [1.         0.56871191]
 [1.09391667 0.29440298]]",0,0.453
8773808799,f,21,english,5,3,english,2024-02-01 10:28:30.826823,False,2,323,sounds\english\audio/english_940.wav,"[[  0.         -74.78707904]
 [  0.1        -17.41948052]
 [  0.2         18.32757183]
 [  0.3         49.59676146]
 [  0.4         89.11302511]
 [  0.5        -54.90271493]
 [  0.6          5.52128104]
 [  0.7          6.34300122]
 [  0.8        -52.23900499]
 [  0.9        -91.70083374]
 [  1.         -59.86037194]
 [  1.09391667  44.21269836]]","[[0.         1.32849745]
 [0.1        0.12464251]
 [0.2        1.60919877]
 [0.3        1.26515186]
 [0.4        0.36425632]
 [0.5        0.18773625]
 [0.6        1.95544511]
 [0.7        0.05018426]
 [0.8        0.91238744]
 [0.9        1.89571163]
 [1.         1.52579837]
 [1.09391667 0.42550386]]",1,0.225
8773808799,f,21,english,5,3,english,2024-02-01 10:28:30.826823,False,2,324,sounds\english\audio/english_691.wav,"[[  0.          53.99142335]
 [  0.1         59.99308562]
 [  0.2        -83.77980644]
 [  0.3          5.55909075]
 [  0.4         23.79459539]
 [  0.5        -52.64546011]
 [  0.6          2.68270455]
 [  0.7        -52.61692888]
 [  0.8        -36.65533837]
 [  0.9        -75.69832194]
 [  1.           1.92131533]
 [  1.09391667 -54.35087966]]","[[0.         1.37901611]
 [0.1        0.48516991]
 [0.2        1.93939228]
 [0.3        1.80900702]
 [0.4        0.81475575]
 [0.5        0.95195088]
 [0.6        1.3919478 ]
 [0.7        0.70729183]
 [0.8        1.61794077]
 [0.9        0.1770134 ]
 [1.         0.51863844]
 [1.09391667 0.34478655]]",0,0.355
8773808799,f,21,english,5,3,english,2024-02-01 10:28:30.826823,False,2,325,sounds\english\audio/english_166.wav,"[[  0.         -22.47224396]
 [  0.1          8.34418228]
 [  0.2        -26.80375044]
 [  0.3        -25.22426401]
 [  0.4        -44.17860095]
 [  0.5         -7.8395137 ]
 [  0.6         42.03338864]
 [  0.7         50.48936268]
 [  0.8        -79.33283531]
 [  0.9         57.67304972]
 [  1.          75.92662412]
 [  1.09391667  -5.06556073]]","[[0.         0.79935629]
 [0.1        1.08766258]
 [0.2        0.88793969]
 [0.3        1.85581966]
 [0.4        1.74261815]
 [0.5        0.67828824]
 [0.6        0.30993225]
 [0.7        1.83209491]
 [0.8        1.96795539]
 [0.9        0.73278394]
 [1.         1.69577801]
 [1.09391667 0.31756742]]",0,0.286
8773808799,f,21,english,5,3,english,2024-02-01 10:28:30.826823,False,2,326,sounds\english\audio/english_501.wav,"[[  0.         -77.74446326]
 [  0.1         -2.03843579]
 [  0.2        -96.88873428]
 [  0.3        -65.26537264]
 [  0.4         20.10074667]
 [  0.5         61.35543997]
 [  0.6         65.65951244]
 [  0.7         78.35949412]
 [  0.8         39.47708972]
 [  0.9        -39.43243223]
 [  1.          -6.34452472]
 [  1.09391667 -41.95684031]]","[[0.         0.58310938]
 [0.1        1.55300385]
 [0.2        1.96337639]
 [0.3        1.90170473]
 [0.4        1.92179136]
 [0.5        1.23988027]
 [0.6        0.8779329 ]
 [0.7        1.06874401]
 [0.8        1.24831936]
 [0.9        0.13883645]
 [1.         0.71986461]
 [1.09391667 1.1315232 ]]",0,0.268
8773808799,f,21,english,5,3,english,2024-02-01 10:28:30.826823,False,2,327,sounds\english\audio/english_78.wav,"[[  0.          42.39797886]
 [  0.1        -36.07857938]
 [  0.2        -66.49689514]
 [  0.3         52.41013344]
 [  0.4         60.05478812]
 [  0.5         -4.62250103]
 [  0.6        -80.28349147]
 [  0.7         83.57222547]
 [  0.8          7.4922518 ]
 [  0.9        -18.57317231]
 [  1.         -60.66079691]
 [  1.09391667  37.22949989]]","[[0.         1.50616235]
 [0.1        0.54303847]
 [0.2        0.95347503]
 [0.3        1.62003629]
 [0.4        1.61647939]
 [0.5        0.17410512]
 [0.6        0.43268803]
 [0.7        0.08104601]
 [0.8        1.61489209]
 [0.9        0.08012208]
 [1.         0.76901301]
 [1.09391667 1.86046092]]",0,0.451
8773808799,f,21,english,5,3,english,2024-02-01 10:28:30.826823,False,2,328,sounds\english\audio/english_785.wav,"[[  0.         -73.74150429]
 [  0.1        -10.25262424]
 [  0.2        -91.38996228]
 [  0.3        -58.16150792]
 [  0.4         56.13851827]
 [  0.5        -53.87138426]
 [  0.6        -26.51328271]
 [  0.7         38.10109315]
 [  0.8        -52.27058488]
 [  0.9         61.81362114]
 [  1.         -48.3420263 ]
 [  1.09391667   5.55581958]]","[[0.         1.15978121]
 [0.1        1.76239803]
 [0.2        1.35267709]
 [0.3        0.50742704]
 [0.4        1.43887546]
 [0.5        0.30204401]
 [0.6        0.04616459]
 [0.7        0.31028806]
 [0.8        1.01215639]
 [0.9        1.14370061]
 [1.         1.51703025]
 [1.09391667 0.02011385]]",0,0.754
8773808799,f,21,english,5,3,english,2024-02-01 10:28:30.826823,False,2,329,sounds\english\audio/english_648.wav,"[[  0.          33.66524903]
 [  0.1         97.98351088]
 [  0.2         11.9794117 ]
 [  0.3         29.55885348]
 [  0.4         24.59728939]
 [  0.5         59.2279724 ]
 [  0.6          3.25949038]
 [  0.7        -26.79620766]
 [  0.8         98.3282455 ]
 [  0.9        -78.7239126 ]
 [  1.          20.12137035]
 [  1.09391667 -43.42156432]]","[[0.         1.53800397]
 [0.1        1.15872761]
 [0.2        0.81425559]
 [0.3        0.88028101]
 [0.4        1.88326834]
 [0.5        1.09723956]
 [0.6        0.83602582]
 [0.7        0.3704665 ]
 [0.8        0.87153578]
 [0.9        1.50300547]
 [1.         0.75356499]
 [1.09391667 1.92538482]]",0,0.396
8773808799,f,21,english,5,3,english,2024-02-01 10:28:30.826823,False,2,330,sounds\english\audio/english_285.wav,"[[  0.          48.62119612]
 [  0.1        -77.49487419]
 [  0.2        -92.74855632]
 [  0.3         -5.04409868]
 [  0.4        -37.04184738]
 [  0.5         93.82836291]
 [  0.6         46.80360504]
 [  0.7         99.71187558]
 [  0.8         70.29725425]
 [  0.9          2.68384344]
 [  1.          33.86757162]
 [  1.09391667  28.22402765]]","[[0.         1.78431697]
 [0.1        0.21017115]
 [0.2        0.90754364]
 [0.3        0.79299305]
 [0.4        0.73704045]
 [0.5        1.49438795]
 [0.6        1.8666859 ]
 [0.7        1.28156013]
 [0.8        0.27278766]
 [0.9        1.64624   ]
 [1.         0.38779205]
 [1.09391667 0.9971565 ]]",0,0.795
8773808799,f,21,english,5,3,english,2024-02-01 10:28:30.826823,False,2,331,sounds\english\audio/english_52.wav,"[[  0.          22.10137518]
 [  0.1         54.60808655]
 [  0.2        -19.2398092 ]
 [  0.3         51.72612617]
 [  0.4         48.42620238]
 [  0.5        -74.55875553]
 [  0.6         38.81047921]
 [  0.7        -10.61292931]
 [  0.8         57.32417171]
 [  0.9          1.80511965]
 [  1.          21.58974988]
 [  1.09391667 -49.54213801]]","[[0.         1.70966253]
 [0.1        0.73212315]
 [0.2        0.80628637]
 [0.3        0.90394386]
 [0.4        0.20122149]
 [0.5        0.79458017]
 [0.6        1.48954082]
 [0.7        0.49987231]
 [0.8        1.72417372]
 [0.9        1.29717669]
 [1.         1.53819456]
 [1.09391667 0.23189362]]",0,0.287
8773808799,f,21,english,5,3,english,2024-02-01 10:28:30.826823,False,2,332,sounds\english\audio/english_31.wav,"[[  0.          27.66535658]
 [  0.1         13.56694794]
 [  0.2         18.47033094]
 [  0.3         59.04276692]
 [  0.4        -91.09157625]
 [  0.5        -18.02658585]
 [  0.6        -35.60184109]
 [  0.7         54.26515106]
 [  0.8        -22.38727861]
 [  0.9         43.77933905]
 [  1.          18.37090143]
 [  1.09391667   6.84824494]]","[[0.         1.77982522]
 [0.1        1.07162792]
 [0.2        0.18234571]
 [0.3        1.10955417]
 [0.4        1.72425302]
 [0.5        0.5579513 ]
 [0.6        1.93053319]
 [0.7        1.77971636]
 [0.8        0.37301738]
 [0.9        1.40160657]
 [1.         0.31959468]
 [1.09391667 1.79655945]]",0,0.405
8773808799,f,21,english,5,3,english,2024-02-01 10:28:30.826823,False,2,333,sounds\english\audio/english_136.wav,"[[  0.          21.82146872]
 [  0.1        -41.56573861]
 [  0.2         56.74219222]
 [  0.3        -17.69017715]
 [  0.4         39.04068679]
 [  0.5        -57.82412378]
 [  0.6        -58.88173028]
 [  0.7         -0.85323684]
 [  0.8         88.76403384]
 [  0.9        -53.53826962]
 [  1.          -6.60701791]
 [  1.09391667  78.9552904 ]]","[[0.         1.16475084]
 [0.1        0.22540654]
 [0.2        0.7632378 ]
 [0.3        1.18330594]
 [0.4        0.42274693]
 [0.5        0.15408699]
 [0.6        0.89761294]
 [0.7        1.46626125]
 [0.8        1.51243191]
 [0.9        0.60247353]
 [1.         1.96374571]
 [1.09391667 1.19972968]]",0,0.502
8773808799,f,21,english,5,3,english,2024-02-01 10:28:30.826823,False,2,334,sounds\english\audio/english_659.wav,"[[  0.         -42.73609053]
 [  0.1        -54.26462218]
 [  0.2          4.14591437]
 [  0.3         27.62308209]
 [  0.4         38.57198708]
 [  0.5         80.21422515]
 [  0.6         73.99870372]
 [  0.7        -75.83334389]
 [  0.8         62.20160473]
 [  0.9          4.13787027]
 [  1.          54.01825885]
 [  1.09391667  93.31828501]]","[[0.         0.70277484]
 [0.1        1.15657561]
 [0.2        0.91169634]
 [0.3        0.71232504]
 [0.4        1.23589102]
 [0.5        0.15679007]
 [0.6        0.18969614]
 [0.7        0.50055959]
 [0.8        1.57461742]
 [0.9        1.20431491]
 [1.         1.24355935]
 [1.09391667 1.36043281]]",0,0.927
8773808799,f,21,english,5,3,english,2024-02-01 10:28:30.826823,False,2,335,sounds\english\audio/english_748.wav,"[[  0.         -33.83596368]
 [  0.1        -59.15381013]
 [  0.2        -64.86299243]
 [  0.3        -73.6430977 ]
 [  0.4        -91.05214173]
 [  0.5        -45.40797518]
 [  0.6         13.66964743]
 [  0.7         95.37065991]
 [  0.8         26.41264332]
 [  0.9         48.24832417]
 [  1.          52.4867675 ]
 [  1.09391667 -11.31996214]]","[[0.         1.91287282]
 [0.1        1.28041444]
 [0.2        0.04095899]
 [0.3        0.41914446]
 [0.4        1.08223978]
 [0.5        0.2529754 ]
 [0.6        1.11197698]
 [0.7        0.98751557]
 [0.8        0.20616642]
 [0.9        0.07234113]
 [1.         0.75683712]
 [1.09391667 0.73246581]]",1,0.449
8773808799,f,21,english,5,3,english,2024-02-01 10:28:30.826823,False,2,336,sounds\english\audio/english_98.wav,"[[  0.         -38.17071081]
 [  0.1          3.99117813]
 [  0.2         76.94779223]
 [  0.3        -47.40720284]
 [  0.4         60.49673758]
 [  0.5        -72.0425771 ]
 [  0.6         75.35793907]
 [  0.7        -37.84878225]
 [  0.8         -2.2661701 ]
 [  0.9        -10.24921113]
 [  1.           2.65052449]
 [  1.09391667 -59.74440562]]","[[0.         1.32171021]
 [0.1        0.45941391]
 [0.2        1.60836627]
 [0.3        0.02861918]
 [0.4        0.62913144]
 [0.5        0.32921161]
 [0.6        0.47491973]
 [0.7        1.13024742]
 [0.8        1.3276578 ]
 [0.9        0.74289268]
 [1.         0.21343851]
 [1.09391667 0.54238322]]",1,1.491
8773808799,f,21,english,5,3,english,2024-02-01 10:28:30.826823,False,2,337,sounds\english\audio/english_464.wav,"[[  0.         -23.34522256]
 [  0.1        -19.55225305]
 [  0.2        -17.46601835]
 [  0.3        -18.06083259]
 [  0.4         39.93999663]
 [  0.5         18.26379158]
 [  0.6         29.05119834]
 [  0.7        -59.7360239 ]
 [  0.8         88.20887552]
 [  0.9         -3.73411856]
 [  1.         -94.561572  ]
 [  1.09391667 -28.03048225]]","[[0.         1.83574023]
 [0.1        1.45464116]
 [0.2        0.96557802]
 [0.3        0.862048  ]
 [0.4        1.49154181]
 [0.5        0.8466408 ]
 [0.6        1.01287791]
 [0.7        0.24671588]
 [0.8        1.40889965]
 [0.9        0.91232797]
 [1.         0.94183149]
 [1.09391667 1.23465261]]",1,0.325
8773808799,f,21,english,5,3,english,2024-02-01 10:28:30.826823,False,2,338,sounds\english\audio/english_45.wav,"[[  0.         -55.14721801]
 [  0.1         57.09452307]
 [  0.2         -1.62499195]
 [  0.3        -13.00347301]
 [  0.4         13.64765964]
 [  0.5        -16.23645369]
 [  0.6         12.80202188]
 [  0.7         18.490615  ]
 [  0.8        -32.73911513]
 [  0.9         72.91810524]
 [  1.         -39.54069726]
 [  1.09391667   1.32954538]]","[[0.         0.29299266]
 [0.1        0.9247964 ]
 [0.2        1.0494158 ]
 [0.3        1.81345336]
 [0.4        1.7292362 ]
 [0.5        0.3059786 ]
 [0.6        1.60566624]
 [0.7        1.60640041]
 [0.8        0.6923723 ]
 [0.9        1.31031073]
 [1.         0.9624361 ]
 [1.09391667 1.523717  ]]",0,0.063
8773808799,f,21,english,5,3,english,2024-02-01 10:28:30.826823,False,2,339,sounds\english\audio/english_932.wav,"[[  0.          38.23438928]
 [  0.1        -58.10377529]
 [  0.2         91.68709635]
 [  0.3         43.08352003]
 [  0.4         89.28150272]
 [  0.5        -32.82905254]
 [  0.6        -27.89856156]
 [  0.7        -15.6368176 ]
 [  0.8        -47.50450916]
 [  0.9        -85.48225369]
 [  1.          26.29289849]
 [  1.09391667 -34.49542083]]","[[0.         1.12401337]
 [0.1        0.61932379]
 [0.2        1.42631679]
 [0.3        1.23008562]
 [0.4        1.74074376]
 [0.5        0.41912443]
 [0.6        1.78556309]
 [0.7        0.72255464]
 [0.8        1.47985237]
 [0.9        1.29316662]
 [1.         1.31994778]
 [1.09391667 1.97700851]]",0,1.117
8773808799,f,21,english,5,3,english,2024-02-01 10:28:30.826823,False,2,340,sounds\english\audio/english_721.wav,"[[  0.         -21.91327124]
 [  0.1        -90.20435546]
 [  0.2         95.69234683]
 [  0.3         22.1637049 ]
 [  0.4         11.60833415]
 [  0.5        -18.08358407]
 [  0.6        -18.19761364]
 [  0.7         68.04091508]
 [  0.8         78.50797801]
 [  0.9        -26.72259946]
 [  1.          -5.45523717]
 [  1.09391667   8.48352437]]","[[0.         0.70003707]
 [0.1        0.21927921]
 [0.2        1.46481191]
 [0.3        0.791078  ]
 [0.4        1.28893612]
 [0.5        1.03888409]
 [0.6        1.04801609]
 [0.7        1.56253366]
 [0.8        1.28640088]
 [0.9        0.27215185]
 [1.         0.551057  ]
 [1.09391667 1.19022125]]",0,0.346
8773808799,f,21,english,5,3,english,2024-02-01 10:28:30.826823,False,2,341,sounds\english\audio/english_445.wav,"[[  0.          76.42112213]
 [  0.1        -97.95203426]
 [  0.2        -59.82746333]
 [  0.3        -13.48573522]
 [  0.4         81.29973607]
 [  0.5         41.3671656 ]
 [  0.6        -85.98514438]
 [  0.7         57.90232239]
 [  0.8        -95.60547231]
 [  0.9         17.13362758]
 [  1.          46.54539843]
 [  1.09391667  43.78720367]]","[[0.         1.57802926]
 [0.1        1.29835175]
 [0.2        0.53636504]
 [0.3        1.2021667 ]
 [0.4        1.41426839]
 [0.5        1.60295296]
 [0.6        0.58159358]
 [0.7        0.76199649]
 [0.8        0.54097795]
 [0.9        0.00538706]
 [1.         0.3060589 ]
 [1.09391667 1.39576853]]",1,0.92
8773808799,f,21,english,5,3,english,2024-02-01 10:28:30.826823,False,2,342,sounds\english\audio/english_805.wav,"[[  0.          19.24000096]
 [  0.1        -57.56428934]
 [  0.2        -17.74165003]
 [  0.3         94.45114709]
 [  0.4         58.80414928]
 [  0.5         15.95265091]
 [  0.6        -64.01744173]
 [  0.7        -39.81720589]
 [  0.8         48.58222908]
 [  0.9         79.1348353 ]
 [  1.          66.03274921]
 [  1.09391667 -37.34721406]]","[[0.         0.52175854]
 [0.1        1.45107426]
 [0.2        1.66296684]
 [0.3        1.339528  ]
 [0.4        1.45905309]
 [0.5        0.95701688]
 [0.6        0.10004415]
 [0.7        1.33408917]
 [0.8        0.26158276]
 [0.9        0.78316965]
 [1.         0.77046412]
 [1.09391667 0.38567889]]",0,0.632
8773808799,f,21,english,5,3,english,2024-02-01 10:28:30.826823,False,2,343,sounds\english\audio/english_841.wav,"[[  0.          13.47649633]
 [  0.1         -4.31438018]
 [  0.2         33.0563647 ]
 [  0.3         86.84745786]
 [  0.4        -66.40745707]
 [  0.5        -45.55484269]
 [  0.6        -86.08753099]
 [  0.7        -95.45735959]
 [  0.8         23.86654109]
 [  0.9        -11.20743419]
 [  1.         -48.1272879 ]
 [  1.09391667  65.71403117]]","[[0.         0.2030304 ]
 [0.1        1.4654032 ]
 [0.2        0.99950721]
 [0.3        0.04710196]
 [0.4        1.47568135]
 [0.5        1.38964748]
 [0.6        1.63844318]
 [0.7        1.01920512]
 [0.8        1.35517017]
 [0.9        1.07128935]
 [1.         1.6005201 ]
 [1.09391667 1.58502918]]",0,1.023
8773808799,f,21,english,5,3,english,2024-02-01 10:28:30.826823,False,2,344,sounds\english\audio/english_57.wav,"[[  0.          69.92924321]
 [  0.1         50.83595835]
 [  0.2         72.89041726]
 [  0.3        -25.50577281]
 [  0.4        -12.89341009]
 [  0.5        -24.95937253]
 [  0.6         64.68704807]
 [  0.7         26.76917617]
 [  0.8        -85.40894658]
 [  0.9        -86.04927125]
 [  1.          86.88641586]
 [  1.09391667 -99.07725694]]","[[0.         1.37399784]
 [0.1        1.30125162]
 [0.2        0.76532722]
 [0.3        0.08256356]
 [0.4        1.10396563]
 [0.5        1.0000289 ]
 [0.6        0.6504756 ]
 [0.7        1.09615913]
 [0.8        0.70411597]
 [0.9        0.54802277]
 [1.         1.43991022]
 [1.09391667 1.41890007]]",1,0.213
8773808799,f,21,english,5,3,english,2024-02-01 10:28:30.826823,False,2,345,sounds\english\audio/english_719.wav,"[[  0.         -74.07322153]
 [  0.1         35.75598847]
 [  0.2         82.97271333]
 [  0.3         17.0497448 ]
 [  0.4         25.23097934]
 [  0.5          4.16668302]
 [  0.6        -83.53078486]
 [  0.7        -81.53905497]
 [  0.8         32.10709268]
 [  0.9          9.14404491]
 [  1.          56.09727313]
 [  1.09391667 -90.02311852]]","[[0.         0.85431966]
 [0.1        1.01181763]
 [0.2        0.92312945]
 [0.3        0.56497759]
 [0.4        0.45096397]
 [0.5        1.21193737]
 [0.6        0.96594203]
 [0.7        0.58708741]
 [0.8        1.06053437]
 [0.9        1.09641521]
 [1.         1.58822768]
 [1.09391667 0.88380828]]",0,1.348
8773808799,f,21,english,5,3,english,2024-02-01 10:28:30.826823,False,2,346,sounds\english\audio/english_802.wav,"[[  0.          59.91511279]
 [  0.1         12.24886821]
 [  0.2         96.02397802]
 [  0.3         13.76175382]
 [  0.4         61.38770088]
 [  0.5        -27.16563277]
 [  0.6        -56.7121097 ]
 [  0.7         -6.03893496]
 [  0.8        -52.64183472]
 [  0.9         20.48360961]
 [  1.          63.06136933]
 [  1.09391667  47.93084829]]","[[0.         1.85367275]
 [0.1        1.18024621]
 [0.2        1.49834519]
 [0.3        0.18406028]
 [0.4        0.92630848]
 [0.5        0.54382734]
 [0.6        1.05559663]
 [0.7        0.71322875]
 [0.8        0.836902  ]
 [0.9        1.2036053 ]
 [1.         1.08845051]
 [1.09391667 1.71595045]]",1,0.3
8773808799,f,21,english,5,3,english,2024-02-01 10:28:30.826823,False,2,347,sounds\english\audio/english_459.wav,"[[  0.          18.44381796]
 [  0.1         46.92875809]
 [  0.2         -3.83763253]
 [  0.3        -48.73372346]
 [  0.4        -14.92000294]
 [  0.5         80.1348202 ]
 [  0.6        -86.26167397]
 [  0.7         -1.56579515]
 [  0.8        -19.43568929]
 [  0.9          7.94105636]
 [  1.          85.15006258]
 [  1.09391667 -33.12026838]]","[[0.         0.62620118]
 [0.1        1.02677372]
 [0.2        0.887778  ]
 [0.3        0.9749461 ]
 [0.4        0.21389959]
 [0.5        0.5331643 ]
 [0.6        0.89101651]
 [0.7        1.30262719]
 [0.8        1.62880583]
 [0.9        1.73371658]
 [1.         0.16404372]
 [1.09391667 1.85143865]]",0,0.273
8773808799,f,21,english,5,3,english,2024-02-01 10:28:30.826823,False,2,348,sounds\english\audio/english_416.wav,"[[  0.          82.43182744]
 [  0.1         53.03166004]
 [  0.2         97.51798843]
 [  0.3         29.41957171]
 [  0.4        -25.73379092]
 [  0.5        -41.53228359]
 [  0.6        -18.26850451]
 [  0.7         36.25947798]
 [  0.8          3.82481386]
 [  0.9         51.45810025]
 [  1.           0.92473006]
 [  1.09391667  18.75162815]]","[[0.         0.48127721]
 [0.1        0.55506125]
 [0.2        1.10002465]
 [0.3        0.46187328]
 [0.4        1.80124094]
 [0.5        1.29733702]
 [0.6        0.88634114]
 [0.7        0.74571926]
 [0.8        0.12319745]
 [0.9        1.56017106]
 [1.         1.11470687]
 [1.09391667 1.36917422]]",1,0.403
8773808799,f,21,english,5,3,english,2024-02-01 10:28:30.826823,False,2,349,sounds\english\audio/english_300.wav,"[[  0.           2.79972232]
 [  0.1         -6.00092765]
 [  0.2          5.93513414]
 [  0.3         65.0106623 ]
 [  0.4        -35.27715369]
 [  0.5        -49.20910009]
 [  0.6         90.62348649]
 [  0.7        -62.79963136]
 [  0.8         41.66095929]
 [  0.9         -9.40303164]
 [  1.         -11.98915311]
 [  1.09391667  86.33383712]]","[[0.         1.53749115]
 [0.1        1.12105385]
 [0.2        1.21050577]
 [0.3        1.39038364]
 [0.4        0.59533856]
 [0.5        0.92189242]
 [0.6        1.12293969]
 [0.7        0.08212217]
 [0.8        0.24893909]
 [0.9        0.97640661]
 [1.         1.76885677]
 [1.09391667 1.97400425]]",0,0.665
8773808799,f,21,english,5,3,english,2024-02-01 10:28:30.826823,False,2,350,sounds\english\audio/english_547.wav,"[[  0.         -84.56242422]
 [  0.1         99.9800097 ]
 [  0.2        -74.27935954]
 [  0.3         89.44673422]
 [  0.4        -91.74996992]
 [  0.5        -18.76785599]
 [  0.6        -51.12732076]
 [  0.7         14.86623417]
 [  0.8         92.41843581]
 [  0.9         81.77291175]
 [  1.          63.1035346 ]
 [  1.09391667  48.67701743]]","[[0.         0.88058973]
 [0.1        1.57875619]
 [0.2        1.10539411]
 [0.3        1.02984743]
 [0.4        1.38707534]
 [0.5        1.26965367]
 [0.6        1.25509145]
 [0.7        1.52290103]
 [0.8        1.30528153]
 [0.9        0.94706354]
 [1.         1.72712252]
 [1.09391667 1.8227726 ]]",0,1.181
8773808799,f,21,english,5,3,english,2024-02-01 10:28:30.826823,False,2,351,sounds\english\audio/english_785.wav,"[[  0.         -73.74150429]
 [  0.1        -10.25262424]
 [  0.2        -91.38996228]
 [  0.3        -58.16150792]
 [  0.4         56.13851827]
 [  0.5        -53.87138426]
 [  0.6        -26.51328271]
 [  0.7         38.10109315]
 [  0.8        -52.27058488]
 [  0.9         61.81362114]
 [  1.         -48.3420263 ]
 [  1.09391667   5.55581958]]","[[0.         1.15978121]
 [0.1        1.76239803]
 [0.2        1.35267709]
 [0.3        0.50742704]
 [0.4        1.43887546]
 [0.5        0.30204401]
 [0.6        0.04616459]
 [0.7        0.31028806]
 [0.8        1.01215639]
 [0.9        1.14370061]
 [1.         1.51703025]
 [1.09391667 0.02011385]]",0,0.298
8773808799,f,21,english,5,3,english,2024-02-01 10:28:30.826823,False,2,352,sounds\english\audio/english_688.wav,"[[  0.         -29.94010546]
 [  0.1        -41.32005189]
 [  0.2         60.5114301 ]
 [  0.3        -11.57251233]
 [  0.4        -32.48909096]
 [  0.5         70.68045254]
 [  0.6        -93.57410751]
 [  0.7        -35.20217483]
 [  0.8        -56.48380795]
 [  0.9         29.31296217]
 [  1.         -66.64221323]
 [  1.09391667  61.92592934]]","[[0.         0.64779988]
 [0.1        0.86768487]
 [0.2        1.84873786]
 [0.3        1.12374148]
 [0.4        1.48328397]
 [0.5        0.61802845]
 [0.6        0.25217431]
 [0.7        0.64703385]
 [0.8        0.24929174]
 [0.9        0.36133188]
 [1.         0.49659231]
 [1.09391667 0.74443623]]",1,1.2
8773808799,f,21,english,5,3,english,2024-02-01 10:28:30.826823,False,2,353,sounds\english\audio/english_651.wav,"[[  0.         -91.34539462]
 [  0.1         -1.38504973]
 [  0.2          2.05125073]
 [  0.3         -5.20837211]
 [  0.4         30.89438942]
 [  0.5        -28.36589971]
 [  0.6        -42.97374851]
 [  0.7        -56.55365324]
 [  0.8          3.73861638]
 [  0.9         -2.43332653]
 [  1.         -73.16332477]
 [  1.09391667  61.30377091]]","[[0.         1.93962683]
 [0.1        0.25281252]
 [0.2        0.90917451]
 [0.3        0.6157456 ]
 [0.4        0.48487698]
 [0.5        1.14423933]
 [0.6        0.91557091]
 [0.7        1.50856564]
 [0.8        0.47177544]
 [0.9        0.09479279]
 [1.         0.24018528]
 [1.09391667 0.24667973]]",0,0.473
8773808799,f,21,english,5,3,english,2024-02-01 10:28:30.826823,False,2,354,sounds\english\audio/english_747.wav,"[[  0.          33.9885207 ]
 [  0.1        -71.14283381]
 [  0.2        -52.52906762]
 [  0.3         79.5756924 ]
 [  0.4        -13.30932063]
 [  0.5         25.54535415]
 [  0.6          8.02344494]
 [  0.7        -38.13543806]
 [  0.8         22.33599648]
 [  0.9        -26.77712134]
 [  1.          -6.09351927]
 [  1.09391667  43.23579595]]","[[0.         1.47964533]
 [0.1        1.57695323]
 [0.2        1.13707985]
 [0.3        1.65073603]
 [0.4        0.47172054]
 [0.5        1.37786003]
 [0.6        1.58889604]
 [0.7        1.29683876]
 [0.8        1.65514229]
 [0.9        1.18735968]
 [1.         1.37962036]
 [1.09391667 1.3791581 ]]",0,0.103
8773808799,f,21,english,5,3,english,2024-02-01 10:28:30.826823,False,2,355,sounds\english\audio/english_400.wav,"[[  0.         -25.02230777]
 [  0.1         49.22110948]
 [  0.2        -25.24422823]
 [  0.3        -67.45566663]
 [  0.4        -45.51948519]
 [  0.5        -18.6326315 ]
 [  0.6         39.79801231]
 [  0.7        -16.89099315]
 [  0.8         73.50338814]
 [  0.9         34.20665044]
 [  1.          43.60884608]
 [  1.09391667 -63.62307837]]","[[0.         0.48486425]
 [0.1        0.13954262]
 [0.2        0.30114108]
 [0.3        0.1192849 ]
 [0.4        1.32093998]
 [0.5        1.53333364]
 [0.6        1.63066866]
 [0.7        1.10413319]
 [0.8        1.82884713]
 [0.9        0.24999453]
 [1.         0.44753764]
 [1.09391667 1.09142561]]",0,0.274
8773808799,f,21,english,5,3,english,2024-02-01 10:28:30.826823,False,2,356,sounds\english\audio/english_58.wav,"[[  0.         -46.52390323]
 [  0.1         19.23789521]
 [  0.2         69.12106093]
 [  0.3        -43.53874687]
 [  0.4        -56.35842904]
 [  0.5          7.35134255]
 [  0.6        -28.20207265]
 [  0.7        -78.68633359]
 [  0.8         27.00073493]
 [  0.9        -36.58564369]
 [  1.           4.57816085]
 [  1.09391667  -5.20378192]]","[[0.         0.35126105]
 [0.1        1.12280932]
 [0.2        0.45102457]
 [0.3        1.46305127]
 [0.4        1.909583  ]
 [0.5        1.54363939]
 [0.6        0.80451607]
 [0.7        1.94404618]
 [0.8        0.82845057]
 [0.9        1.3978679 ]
 [1.         1.7044559 ]
 [1.09391667 0.16192575]]",0,0.078
8773808799,f,21,english,5,3,english,2024-02-01 10:28:30.826823,False,2,357,sounds\english\audio/english_36.wav,"[[  0.          -9.00477988]
 [  0.1        -13.45702302]
 [  0.2         -2.81727849]
 [  0.3        -29.71164893]
 [  0.4         95.72220786]
 [  0.5        -60.23405317]
 [  0.6        -99.2529621 ]
 [  0.7         -7.64791957]
 [  0.8        -68.45334788]
 [  0.9         91.90753039]
 [  1.          93.40110395]
 [  1.09391667 -27.95691035]]","[[0.         0.81327237]
 [0.1        0.45075004]
 [0.2        0.1663237 ]
 [0.3        1.57862109]
 [0.4        1.7254824 ]
 [0.5        1.10066579]
 [0.6        0.59792659]
 [0.7        1.42084394]
 [0.8        0.87400001]
 [0.9        1.522223  ]
 [1.         0.56951468]
 [1.09391667 1.01798822]]",0,0.346
8773808799,f,21,english,5,3,english,2024-02-01 10:28:30.826823,False,2,358,sounds\english\audio/english_734.wav,"[[  0.          37.80658654]
 [  0.1         90.1003789 ]
 [  0.2        -17.90602095]
 [  0.3        -31.44385996]
 [  0.4         44.9323419 ]
 [  0.5        -31.11774155]
 [  0.6         97.37077349]
 [  0.7         83.67731812]
 [  0.8        -92.96209535]
 [  0.9        -86.38679985]
 [  1.         -15.69243899]
 [  1.09391667 -68.67808483]]","[[0.         0.89840931]
 [0.1        1.2414915 ]
 [0.2        1.52855063]
 [0.3        0.60902156]
 [0.4        1.0676513 ]
 [0.5        0.47732506]
 [0.6        0.01117227]
 [0.7        1.95948527]
 [0.8        1.72730216]
 [0.9        0.10005855]
 [1.         1.31074677]
 [1.09391667 0.47077758]]",0,0.661
8773808799,f,21,english,5,3,english,2024-02-01 10:28:30.826823,False,2,359,sounds\english\audio/english_943.wav,"[[  0.          79.5890822 ]
 [  0.1         78.55264714]
 [  0.2         44.19658383]
 [  0.3        -16.14605168]
 [  0.4         46.84349784]
 [  0.5         67.29364224]
 [  0.6         62.75940247]
 [  0.7        -42.13911475]
 [  0.8        -19.02728939]
 [  0.9        -16.03900615]
 [  1.          15.22888591]
 [  1.09391667  60.70409514]]","[[0.         1.20824936]
 [0.1        0.88116928]
 [0.2        1.0423498 ]
 [0.3        1.30491636]
 [0.4        1.23781924]
 [0.5        1.19542323]
 [0.6        1.00041218]
 [0.7        1.18889719]
 [0.8        0.17654831]
 [0.9        0.65298118]
 [1.         0.96725626]
 [1.09391667 1.67455333]]",1,0.55
8773808799,f,21,english,5,3,english,2024-02-01 10:28:30.826823,False,2,360,sounds\english\audio/english_100.wav,"[[  0.         -24.42637315]
 [  0.1         47.77288594]
 [  0.2        -50.36782497]
 [  0.3          2.2842979 ]
 [  0.4        -15.6809061 ]
 [  0.5         12.92206519]
 [  0.6         58.2816769 ]
 [  0.7         48.23099815]
 [  0.8        -72.65138159]
 [  0.9         22.56578389]
 [  1.           5.8175855 ]
 [  1.09391667  54.85953581]]","[[0.         0.62540921]
 [0.1        1.22625666]
 [0.2        1.26348183]
 [0.3        0.25528387]
 [0.4        0.91288523]
 [0.5        1.75475855]
 [0.6        1.62969237]
 [0.7        0.00541247]
 [0.8        0.94746335]
 [0.9        0.25544392]
 [1.         1.63729526]
 [1.09391667 1.97415754]]",1,1.008
8773808799,f,21,english,5,3,english,2024-02-01 10:28:30.826823,False,2,361,sounds\english\audio/english_76.wav,"[[  0.          24.53692124]
 [  0.1          4.74525032]
 [  0.2        -11.73085706]
 [  0.3        -67.51409973]
 [  0.4         18.72894419]
 [  0.5        -87.08655703]
 [  0.6          8.86378377]
 [  0.7        -88.70159666]
 [  0.8        -19.63742154]
 [  0.9        -28.01043875]
 [  1.         -30.77636244]
 [  1.09391667 -23.02477644]]","[[0.         0.00919351]
 [0.1        1.89780668]
 [0.2        1.28424019]
 [0.3        0.97330389]
 [0.4        1.57704982]
 [0.5        0.6100989 ]
 [0.6        0.1303689 ]
 [0.7        1.07980698]
 [0.8        0.36042094]
 [0.9        1.46264173]
 [1.         0.93716424]
 [1.09391667 0.27656628]]",1,0.429
8773808799,f,21,english,5,3,english,2024-02-01 10:28:30.826823,False,2,362,sounds\english\audio/english_208.wav,"[[  0.          13.17731857]
 [  0.1         13.38844503]
 [  0.2         -2.93736893]
 [  0.3         65.128601  ]
 [  0.4         53.87360247]
 [  0.5         -0.34021564]
 [  0.6        -58.53870567]
 [  0.7        -81.74346202]
 [  0.8        -87.40484801]
 [  0.9         -0.74903693]
 [  1.          44.66507116]
 [  1.09391667  86.63877281]]","[[0.         0.34094022]
 [0.1        0.19016609]
 [0.2        0.78973148]
 [0.3        1.45881618]
 [0.4        1.41599405]
 [0.5        1.39781882]
 [0.6        0.32952238]
 [0.7        0.80753811]
 [0.8        0.14343543]
 [0.9        1.78385386]
 [1.         1.76017797]
 [1.09391667 0.82405184]]",0,0.261
8773808799,f,21,english,5,3,english,2024-02-01 10:28:30.826823,False,2,363,sounds\english\audio/english_178.wav,"[[  0.           5.42478923]
 [  0.1         66.71711881]
 [  0.2         25.13944125]
 [  0.3         95.56005782]
 [  0.4         16.85207382]
 [  0.5        -27.28270002]
 [  0.6         86.24132907]
 [  0.7        -67.08119727]
 [  0.8         -0.81610081]
 [  0.9        -32.08256077]
 [  1.          33.26765995]
 [  1.09391667  50.15163679]]","[[0.         1.01011156]
 [0.1        1.60637441]
 [0.2        0.85795496]
 [0.3        1.35214977]
 [0.4        0.61247399]
 [0.5        1.45555962]
 [0.6        0.34817024]
 [0.7        0.78995697]
 [0.8        1.09427424]
 [0.9        1.32224293]
 [1.         1.53013904]
 [1.09391667 1.40313699]]",0,0.26
8773808799,f,21,english,5,3,english,2024-02-01 10:28:30.826823,False,2,364,sounds\english\audio/english_974.wav,"[[  0.         -93.03864928]
 [  0.1        -77.75716604]
 [  0.2          0.69139929]
 [  0.3         26.0953238 ]
 [  0.4         98.53440651]
 [  0.5         92.94553081]
 [  0.6         -7.63804917]
 [  0.7          9.10874073]
 [  0.8        -89.79433239]
 [  0.9        -25.22506103]
 [  1.          90.91634132]
 [  1.09391667  96.1258414 ]]","[[0.         0.43845399]
 [0.1        1.6903579 ]
 [0.2        1.16063432]
 [0.3        1.86115796]
 [0.4        1.84489406]
 [0.5        1.48551441]
 [0.6        0.45444214]
 [0.7        0.66005011]
 [0.8        1.73425962]
 [0.9        0.5346903 ]
 [1.         1.12098349]
 [1.09391667 0.52486182]]",0,0.202
8773808799,f,21,english,5,3,english,2024-02-01 10:28:30.826823,False,2,365,sounds\english\audio/english_719.wav,"[[  0.         -74.07322153]
 [  0.1         35.75598847]
 [  0.2         82.97271333]
 [  0.3         17.0497448 ]
 [  0.4         25.23097934]
 [  0.5          4.16668302]
 [  0.6        -83.53078486]
 [  0.7        -81.53905497]
 [  0.8         32.10709268]
 [  0.9          9.14404491]
 [  1.          56.09727313]
 [  1.09391667 -90.02311852]]","[[0.         0.85431966]
 [0.1        1.01181763]
 [0.2        0.92312945]
 [0.3        0.56497759]
 [0.4        0.45096397]
 [0.5        1.21193737]
 [0.6        0.96594203]
 [0.7        0.58708741]
 [0.8        1.06053437]
 [0.9        1.09641521]
 [1.         1.58822768]
 [1.09391667 0.88380828]]",0,0.149
8773808799,f,21,english,5,3,english,2024-02-01 10:28:30.826823,False,2,366,sounds\english\audio/english_98.wav,"[[  0.         -38.17071081]
 [  0.1          3.99117813]
 [  0.2         76.94779223]
 [  0.3        -47.40720284]
 [  0.4         60.49673758]
 [  0.5        -72.0425771 ]
 [  0.6         75.35793907]
 [  0.7        -37.84878225]
 [  0.8         -2.2661701 ]
 [  0.9        -10.24921113]
 [  1.           2.65052449]
 [  1.09391667 -59.74440562]]","[[0.         1.32171021]
 [0.1        0.45941391]
 [0.2        1.60836627]
 [0.3        0.02861918]
 [0.4        0.62913144]
 [0.5        0.32921161]
 [0.6        0.47491973]
 [0.7        1.13024742]
 [0.8        1.3276578 ]
 [0.9        0.74289268]
 [1.         0.21343851]
 [1.09391667 0.54238322]]",0,0.269
8773808799,f,21,english,5,3,english,2024-02-01 10:28:30.826823,False,2,367,sounds\english\audio/english_912.wav,"[[  0.          83.45320293]
 [  0.1         47.1123547 ]
 [  0.2        -44.09395349]
 [  0.3         80.4089211 ]
 [  0.4        -65.95886508]
 [  0.5        -25.59965852]
 [  0.6         58.94865135]
 [  0.7        -95.38965028]
 [  0.8         10.68091992]
 [  0.9        -57.68744928]
 [  1.           5.39108627]
 [  1.09391667  37.38622487]]","[[0.         1.30725461]
 [0.1        0.36515134]
 [0.2        0.27834174]
 [0.3        1.38784543]
 [0.4        0.18344109]
 [0.5        0.42703515]
 [0.6        1.85819174]
 [0.7        1.3517083 ]
 [0.8        1.52712698]
 [0.9        1.44811226]
 [1.         1.0038839 ]
 [1.09391667 0.79645394]]",0,0.362
8773808799,f,21,english,5,3,english,2024-02-01 10:28:30.826823,False,2,368,sounds\english\audio/english_234.wav,"[[  0.          71.25344855]
 [  0.1          2.51724238]
 [  0.2         11.96692617]
 [  0.3         64.81737023]
 [  0.4         73.84050439]
 [  0.5        -23.01072055]
 [  0.6        -44.95387086]
 [  0.7        -11.63871465]
 [  0.8         88.55977512]
 [  0.9         51.63791617]
 [  1.         -71.95139975]
 [  1.09391667 -75.67665254]]","[[0.         1.77024373]
 [0.1        1.93450941]
 [0.2        1.39397551]
 [0.3        1.38496922]
 [0.4        1.81820251]
 [0.5        1.61085564]
 [0.6        1.3729139 ]
 [0.7        1.59939785]
 [0.8        0.08431317]
 [0.9        1.41302364]
 [1.         1.44509252]
 [1.09391667 0.88259776]]",1,0.237
8773808799,f,21,english,5,3,english,2024-02-01 10:28:30.826823,False,2,369,sounds\english\audio/english_356.wav,"[[  0.          32.76906958]
 [  0.1         -4.50463472]
 [  0.2         -3.50879641]
 [  0.3        -66.50182595]
 [  0.4        -41.87578379]
 [  0.5         15.06829484]
 [  0.6         -0.09178899]
 [  0.7        -46.92797448]
 [  0.8         77.06532678]
 [  0.9         26.9349071 ]
 [  1.           1.26347583]
 [  1.09391667 -52.5712343 ]]","[[0.         0.08562483]
 [0.1        0.71215991]
 [0.2        0.27192591]
 [0.3        1.84647675]
 [0.4        0.94018547]
 [0.5        0.35538969]
 [0.6        0.67852857]
 [0.7        1.60890004]
 [0.8        0.18175686]
 [0.9        1.60704056]
 [1.         0.84129373]
 [1.09391667 0.27010089]]",0,1.449
8773808799,f,21,english,5,3,english,2024-02-01 10:28:30.826823,False,2,370,sounds\english\audio/english_961.wav,"[[  0.          81.83147696]
 [  0.1        -55.44397817]
 [  0.2         88.24181947]
 [  0.3        -15.15816006]
 [  0.4        -50.45638081]
 [  0.5         69.96256983]
 [  0.6        -17.06813057]
 [  0.7         73.47800457]
 [  0.8        -64.26564282]
 [  0.9         75.43502269]
 [  1.           4.4137361 ]
 [  1.09391667 -27.6807027 ]]","[[0.         1.4308336 ]
 [0.1        0.90947764]
 [0.2        0.90243859]
 [0.3        0.46936311]
 [0.4        1.55927191]
 [0.5        0.75129721]
 [0.6        1.46735594]
 [0.7        1.92767727]
 [0.8        0.4665746 ]
 [0.9        1.80828177]
 [1.         1.76060205]
 [1.09391667 1.95049148]]",0,1.257
8773808799,f,21,english,5,3,english,2024-02-01 10:28:30.826823,False,2,371,sounds\english\audio/english_441.wav,"[[  0.          50.50255474]
 [  0.1        -64.78300632]
 [  0.2        -33.84229425]
 [  0.3         -1.98671345]
 [  0.4         42.73114644]
 [  0.5         42.14553529]
 [  0.6        -44.94303107]
 [  0.7         13.09989783]
 [  0.8        -41.80171469]
 [  0.9         54.31484613]
 [  1.          46.32391657]
 [  1.09391667  35.46886189]]","[[0.         0.8815455 ]
 [0.1        1.25615458]
 [0.2        1.89461417]
 [0.3        0.56042506]
 [0.4        0.74141977]
 [0.5        0.72181114]
 [0.6        0.25334865]
 [0.7        1.76130975]
 [0.8        0.91340104]
 [0.9        1.37487336]
 [1.         1.57808342]
 [1.09391667 1.31817522]]",0,0.634
8773808799,f,21,english,5,3,english,2024-02-01 10:28:30.826823,False,2,372,sounds\english\audio/english_78.wav,"[[  0.          42.39797886]
 [  0.1        -36.07857938]
 [  0.2        -66.49689514]
 [  0.3         52.41013344]
 [  0.4         60.05478812]
 [  0.5         -4.62250103]
 [  0.6        -80.28349147]
 [  0.7         83.57222547]
 [  0.8          7.4922518 ]
 [  0.9        -18.57317231]
 [  1.         -60.66079691]
 [  1.09391667  37.22949989]]","[[0.         1.50616235]
 [0.1        0.54303847]
 [0.2        0.95347503]
 [0.3        1.62003629]
 [0.4        1.61647939]
 [0.5        0.17410512]
 [0.6        0.43268803]
 [0.7        0.08104601]
 [0.8        1.61489209]
 [0.9        0.08012208]
 [1.         0.76901301]
 [1.09391667 1.86046092]]",0,0.744
8773808799,f,21,english,5,3,english,2024-02-01 10:28:30.826823,False,2,373,sounds\english\audio/english_128.wav,"[[  0.         -22.61942611]
 [  0.1         68.41227715]
 [  0.2        -54.10958419]
 [  0.3        -34.3976761 ]
 [  0.4        -80.35189368]
 [  0.5        -23.21922247]
 [  0.6         75.93285278]
 [  0.7        -25.01230628]
 [  0.8         23.78207095]
 [  0.9        -74.87827882]
 [  1.          74.39346852]
 [  1.09391667  30.71976897]]","[[0.         1.66721471]
 [0.1        1.06525369]
 [0.2        1.55278382]
 [0.3        1.27447121]
 [0.4        1.24533025]
 [0.5        0.40128709]
 [0.6        1.08908342]
 [0.7        1.52248699]
 [0.8        1.64911831]
 [0.9        0.03473392]
 [1.         1.99892406]
 [1.09391667 1.56565298]]",0,0.398
8773808799,f,21,english,5,3,english,2024-02-01 10:28:30.826823,False,2,374,sounds\english\audio/english_781.wav,"[[  0.          13.49860993]
 [  0.1         78.16193023]
 [  0.2         43.40540276]
 [  0.3         44.39381188]
 [  0.4          1.19618008]
 [  0.5         97.39796145]
 [  0.6        -80.74515196]
 [  0.7         24.03355654]
 [  0.8        -69.35175607]
 [  0.9         69.20236756]
 [  1.          35.51398516]
 [  1.09391667 -53.23346631]]","[[0.         0.0422445 ]
 [0.1        0.76912714]
 [0.2        1.16484067]
 [0.3        0.51341231]
 [0.4        0.61057315]
 [0.5        1.22595164]
 [0.6        0.0959771 ]
 [0.7        0.86869214]
 [0.8        1.17997392]
 [0.9        1.93834455]
 [1.         0.60620459]
 [1.09391667 1.46133915]]",1,0.736
8773808799,f,21,english,5,3,english,2024-02-01 10:28:30.826823,False,2,375,sounds\english\audio/english_417.wav,"[[  0.          29.37383655]
 [  0.1         23.19156398]
 [  0.2         85.81337763]
 [  0.3        -29.64908449]
 [  0.4          8.97904128]
 [  0.5         39.22706603]
 [  0.6         61.83715867]
 [  0.7        -85.41027475]
 [  0.8         73.95238576]
 [  0.9         27.80762862]
 [  1.         -27.42196196]
 [  1.09391667 -33.44848628]]","[[0.         1.92425936]
 [0.1        0.6229039 ]
 [0.2        1.36154183]
 [0.3        0.09031289]
 [0.4        0.90960709]
 [0.5        1.25920128]
 [0.6        1.48525242]
 [0.7        0.60232136]
 [0.8        0.50952592]
 [0.9        0.22145612]
 [1.         0.91644458]
 [1.09391667 1.07641807]]",1,0.579
8773808799,f,21,english,5,3,english,2024-02-01 10:28:30.826823,False,2,376,sounds\english\audio/english_127.wav,"[[  0.         -97.90087244]
 [  0.1        -36.95796642]
 [  0.2         33.65056974]
 [  0.3        -19.85406453]
 [  0.4        -42.6348027 ]
 [  0.5        -56.79071689]
 [  0.6         -5.36842737]
 [  0.7        -65.17730662]
 [  0.8         55.11157095]
 [  0.9         -6.91901103]
 [  1.          32.26051644]
 [  1.09391667  51.54181068]]","[[0.         0.58111051]
 [0.1        1.98466344]
 [0.2        0.66246338]
 [0.3        0.15661461]
 [0.4        1.74661521]
 [0.5        1.58365522]
 [0.6        0.14537305]
 [0.7        1.46904529]
 [0.8        1.23944377]
 [0.9        1.93001672]
 [1.         0.93435528]
 [1.09391667 1.6531459 ]]",0,0.246
8773808799,f,21,english,5,3,english,2024-02-01 10:28:30.826823,False,2,377,sounds\english\audio/english_669.wav,"[[  0.          63.63841723]
 [  0.1        -16.46655099]
 [  0.2         59.94652085]
 [  0.3         87.91202499]
 [  0.4         -9.72604882]
 [  0.5         72.16172308]
 [  0.6        -64.88013083]
 [  0.7         26.66035036]
 [  0.8        -43.66675722]
 [  0.9          4.29997564]
 [  1.         -68.31489554]
 [  1.09391667 -65.69487781]]","[[0.         1.21965741]
 [0.1        1.77063888]
 [0.2        1.19972221]
 [0.3        1.09192955]
 [0.4        0.69529064]
 [0.5        1.09710692]
 [0.6        1.91297745]
 [0.7        1.12487674]
 [0.8        0.95542007]
 [0.9        1.3922733 ]
 [1.         1.61053031]
 [1.09391667 0.28856802]]",0,0.259
8773808799,f,21,english,5,3,english,2024-02-01 10:28:30.826823,False,2,378,sounds\english\audio/english_896.wav,"[[  0.          15.15197213]
 [  0.1         12.09834356]
 [  0.2        -98.90945178]
 [  0.3         -7.24132806]
 [  0.4        -22.04912785]
 [  0.5         53.27175302]
 [  0.6         18.92228417]
 [  0.7         65.4652164 ]
 [  0.8         51.91420072]
 [  0.9         20.23549525]
 [  1.         -86.64191921]
 [  1.09391667 -62.9037571 ]]","[[0.         1.10343193]
 [0.1        1.24784569]
 [0.2        0.69536812]
 [0.3        1.50082123]
 [0.4        1.78962455]
 [0.5        0.59868421]
 [0.6        1.36027969]
 [0.7        1.44726147]
 [0.8        1.08983894]
 [0.9        0.07451316]
 [1.         0.79077881]
 [1.09391667 1.64262615]]",0,0.487
8773808799,f,21,english,5,3,english,2024-02-01 10:28:30.826823,False,2,379,sounds\english\audio/english_350.wav,"[[  0.         -49.74850435]
 [  0.1         68.30317627]
 [  0.2        -65.19955472]
 [  0.3         16.55905503]
 [  0.4        -91.2937095 ]
 [  0.5         15.43319067]
 [  0.6        -45.85963286]
 [  0.7         19.61186346]
 [  0.8        -16.08875957]
 [  0.9         46.96260951]
 [  1.          42.75278918]
 [  1.09391667 -15.03240418]]","[[0.         0.22554434]
 [0.1        1.05889666]
 [0.2        1.66837242]
 [0.3        1.26247407]
 [0.4        1.50505412]
 [0.5        1.94963106]
 [0.6        1.1132199 ]
 [0.7        0.36047723]
 [0.8        0.33369352]
 [0.9        0.35479608]
 [1.         0.24605451]
 [1.09391667 1.96587805]]",1,0.823
8773808799,f,21,english,5,3,english,2024-02-01 10:28:30.826823,False,2,380,sounds\english\audio/english_618.wav,"[[  0.         -79.9488622 ]
 [  0.1          0.24132163]
 [  0.2        -56.62295111]
 [  0.3        -72.03937353]
 [  0.4        -44.72303747]
 [  0.5        -96.08672425]
 [  0.6         63.06881346]
 [  0.7          7.33604436]
 [  0.8         76.47736911]
 [  0.9        -52.54898443]
 [  1.          33.73192618]
 [  1.09391667  31.05572927]]","[[0.         1.91362605]
 [0.1        0.6330552 ]
 [0.2        0.97728614]
 [0.3        0.96298019]
 [0.4        1.81673931]
 [0.5        0.35989287]
 [0.6        1.43341205]
 [0.7        1.78848637]
 [0.8        1.05646412]
 [0.9        0.998868  ]
 [1.         1.38011588]
 [1.09391667 1.5899218 ]]",1,0.224
8773808799,f,21,english,5,3,english,2024-02-01 10:28:30.826823,False,2,381,sounds\english\audio/english_944.wav,"[[  0.          15.60693819]
 [  0.1        -30.17366225]
 [  0.2        -74.98996265]
 [  0.3        -21.71143967]
 [  0.4        -71.17152847]
 [  0.5        -79.08347918]
 [  0.6         30.00213426]
 [  0.7        -95.66333823]
 [  0.8        -86.13874985]
 [  0.9        -92.76645644]
 [  1.         -60.06542453]
 [  1.09391667 -49.67322896]]","[[0.         1.52023204]
 [0.1        1.91331724]
 [0.2        0.77968244]
 [0.3        0.16568234]
 [0.4        0.05371195]
 [0.5        0.45619097]
 [0.6        0.51735739]
 [0.7        1.56234264]
 [0.8        1.61252587]
 [0.9        0.66568015]
 [1.         1.71575711]
 [1.09391667 1.10728615]]",1,0.611
