subj,sex,age,language,english,french,native_lang,date,practice,block,trial,stim,pitch,stretch,response,rt
8731029739,f,22,english,5,3,english,2024-02-01 10:30:09.474161,True,0,0,sounds\english\audio/english_802.wav,"[[  0.          59.91511279]
 [  0.1         12.24886821]
 [  0.2         96.02397802]
 [  0.3         13.76175382]
 [  0.4         61.38770088]
 [  0.5        -27.16563277]
 [  0.6        -56.7121097 ]
 [  0.7         -6.03893496]
 [  0.8        -52.64183472]
 [  0.9         20.48360961]
 [  1.          63.06136933]
 [  1.09391667  47.93084829]]","[[0.         1.85367275]
 [0.1        1.18024621]
 [0.2        1.49834519]
 [0.3        0.18406028]
 [0.4        0.92630848]
 [0.5        0.54382734]
 [0.6        1.05559663]
 [0.7        0.71322875]
 [0.8        0.836902  ]
 [0.9        1.2036053 ]
 [1.         1.08845051]
 [1.09391667 1.71595045]]",1,11.805
8731029739,f,22,english,5,3,english,2024-02-01 10:30:09.474161,True,0,1,sounds\english\audio/english_745.wav,"[[  0.         -47.9537983 ]
 [  0.1         10.59664377]
 [  0.2          3.22121318]
 [  0.3         66.38489409]
 [  0.4        -85.62638025]
 [  0.5         53.0870989 ]
 [  0.6         37.88737288]
 [  0.7        -50.87104403]
 [  0.8        -30.17524051]
 [  0.9         42.29036925]
 [  1.           6.95263715]
 [  1.09391667  -3.81320325]]","[[0.         1.262874  ]
 [0.1        0.45595153]
 [0.2        1.90154411]
 [0.3        1.18935698]
 [0.4        0.53454894]
 [0.5        0.07115633]
 [0.6        0.91558947]
 [0.7        0.71993263]
 [0.8        0.93591694]
 [0.9        0.99723137]
 [1.         0.85978939]
 [1.09391667 0.69941736]]",1,2.637
8731029739,f,22,english,5,3,english,2024-02-01 10:30:09.474161,True,0,2,sounds\english\audio/english_192.wav,"[[  0.         -44.06496916]
 [  0.1         -1.73373059]
 [  0.2        -29.10510113]
 [  0.3         71.54582207]
 [  0.4         47.17920128]
 [  0.5         46.36925649]
 [  0.6         34.98575102]
 [  0.7         51.8668686 ]
 [  0.8        -35.42178409]
 [  0.9        -56.11776415]
 [  1.         -44.79305263]
 [  1.09391667  37.72006641]]","[[0.         1.38059828]
 [0.1        0.79242211]
 [0.2        0.7213484 ]
 [0.3        1.27323666]
 [0.4        0.22557274]
 [0.5        1.52280769]
 [0.6        0.97358447]
 [0.7        0.90127966]
 [0.8        0.86874685]
 [0.9        1.58446024]
 [1.         1.51736237]
 [1.09391667 0.71870831]]",1,2.029
8731029739,f,22,english,5,3,english,2024-02-01 10:30:09.474161,False,1,3,sounds\english\audio/english_687.wav,"[[  0.         -35.70290508]
 [  0.1         96.19930643]
 [  0.2        -16.32623685]
 [  0.3         69.01262748]
 [  0.4        -86.96335793]
 [  0.5        -94.81036094]
 [  0.6         24.28115893]
 [  0.7        -73.50271946]
 [  0.8        -67.86786343]
 [  0.9        -59.44479717]
 [  1.           0.72231801]
 [  1.09391667  -0.70049857]]","[[0.         1.44721002]
 [0.1        1.66446564]
 [0.2        0.17388823]
 [0.3        0.9756111 ]
 [0.4        0.75788852]
 [0.5        1.04245625]
 [0.6        0.94679533]
 [0.7        1.98988769]
 [0.8        1.9531078 ]
 [0.9        1.90267124]
 [1.         1.17236586]
 [1.09391667 1.47850695]]",1,1.264
8731029739,f,22,english,5,3,english,2024-02-01 10:30:09.474161,False,1,4,sounds\english\audio/english_236.wav,"[[  0.         -58.47147348]
 [  0.1         25.25879028]
 [  0.2        -78.78616324]
 [  0.3         11.29938963]
 [  0.4         39.53352696]
 [  0.5         91.57483284]
 [  0.6         22.72019707]
 [  0.7         30.21012118]
 [  0.8        -41.20304871]
 [  0.9         28.6164571 ]
 [  1.          36.23029146]
 [  1.09391667 -21.60177346]]","[[0.         1.25570844]
 [0.1        1.3068123 ]
 [0.2        1.48831799]
 [0.3        0.34919936]
 [0.4        1.00725943]
 [0.5        1.25472599]
 [0.6        1.46652556]
 [0.7        0.98566412]
 [0.8        1.93402839]
 [0.9        1.61503367]
 [1.         0.92571768]
 [1.09391667 1.50534637]]",1,0.922
8731029739,f,22,english,5,3,english,2024-02-01 10:30:09.474161,False,1,5,sounds\english\audio/english_62.wav,"[[ 0.00000000e+00 -3.78920548e+00]
 [ 1.00000000e-01 -3.70955142e+01]
 [ 2.00000000e-01  9.54613550e+00]
 [ 3.00000000e-01 -4.85474303e-03]
 [ 4.00000000e-01 -4.90745054e+01]
 [ 5.00000000e-01 -7.23722832e+01]
 [ 6.00000000e-01  5.00416948e+00]
 [ 7.00000000e-01 -4.87629727e+00]
 [ 8.00000000e-01 -3.43659295e+01]
 [ 9.00000000e-01 -5.46881611e+01]
 [ 1.00000000e+00 -8.99071473e+01]
 [ 1.09391667e+00 -2.78378106e+01]]","[[0.         0.70082268]
 [0.1        1.73685238]
 [0.2        1.84078554]
 [0.3        1.14784738]
 [0.4        1.31722545]
 [0.5        1.67134304]
 [0.6        1.47221808]
 [0.7        1.69888672]
 [0.8        1.41102286]
 [0.9        1.6080508 ]
 [1.         1.84899912]
 [1.09391667 1.28379088]]",1,0.538
8731029739,f,22,english,5,3,english,2024-02-01 10:30:09.474161,False,1,6,sounds\english\audio/english_240.wav,"[[  0.          94.92487397]
 [  0.1         46.60086456]
 [  0.2        -85.09682287]
 [  0.3         61.23591388]
 [  0.4        -87.76590316]
 [  0.5        -26.78505593]
 [  0.6         79.97771783]
 [  0.7        -52.5823066 ]
 [  0.8        -50.02012697]
 [  0.9         92.54545653]
 [  1.         -31.99180963]
 [  1.09391667  16.04001658]]","[[0.         1.16173124]
 [0.1        0.28146868]
 [0.2        1.34805144]
 [0.3        0.20054267]
 [0.4        1.28124808]
 [0.5        0.75335144]
 [0.6        0.06187073]
 [0.7        0.9449402 ]
 [0.8        0.10878198]
 [0.9        1.66426768]
 [1.         1.44792205]
 [1.09391667 0.58420497]]",0,0.602
8731029739,f,22,english,5,3,english,2024-02-01 10:30:09.474161,False,1,7,sounds\english\audio/english_373.wav,"[[  0.          -9.94709743]
 [  0.1        -83.40421168]
 [  0.2        -22.83191441]
 [  0.3        -83.42374119]
 [  0.4        -39.99792882]
 [  0.5         86.85199712]
 [  0.6         -4.78975396]
 [  0.7        -15.74997845]
 [  0.8         29.79511399]
 [  0.9        -25.05254908]
 [  1.         -99.62886639]
 [  1.09391667  18.73159207]]","[[0.         0.51311979]
 [0.1        1.13344135]
 [0.2        0.32488715]
 [0.3        1.83619002]
 [0.4        1.43136972]
 [0.5        0.69456756]
 [0.6        1.06607271]
 [0.7        1.30605627]
 [0.8        0.03221072]
 [0.9        1.44985225]
 [1.         0.95503788]
 [1.09391667 0.95128528]]",0,2.336
8731029739,f,22,english,5,3,english,2024-02-01 10:30:09.474161,False,1,8,sounds\english\audio/english_95.wav,"[[  0.          82.38322646]
 [  0.1         32.52182657]
 [  0.2         30.87511863]
 [  0.3         67.9481844 ]
 [  0.4        -57.03879619]
 [  0.5         22.48665311]
 [  0.6         23.4373467 ]
 [  0.7        -61.78596911]
 [  0.8         75.30119174]
 [  0.9          6.10236792]
 [  1.          23.20518155]
 [  1.09391667 -62.32548974]]","[[0.         1.52040058]
 [0.1        0.22216464]
 [0.2        0.78160064]
 [0.3        0.58754621]
 [0.4        1.54090238]
 [0.5        0.52042561]
 [0.6        0.65328484]
 [0.7        0.2008644 ]
 [0.8        1.88966983]
 [0.9        1.34355427]
 [1.         0.09039365]
 [1.09391667 0.0245473 ]]",1,0.387
8731029739,f,22,english,5,3,english,2024-02-01 10:30:09.474161,False,1,9,sounds\english\audio/english_52.wav,"[[  0.          22.10137518]
 [  0.1         54.60808655]
 [  0.2        -19.2398092 ]
 [  0.3         51.72612617]
 [  0.4         48.42620238]
 [  0.5        -74.55875553]
 [  0.6         38.81047921]
 [  0.7        -10.61292931]
 [  0.8         57.32417171]
 [  0.9          1.80511965]
 [  1.          21.58974988]
 [  1.09391667 -49.54213801]]","[[0.         1.70966253]
 [0.1        0.73212315]
 [0.2        0.80628637]
 [0.3        0.90394386]
 [0.4        0.20122149]
 [0.5        0.79458017]
 [0.6        1.48954082]
 [0.7        0.49987231]
 [0.8        1.72417372]
 [0.9        1.29717669]
 [1.         1.53819456]
 [1.09391667 0.23189362]]",1,0.45
8731029739,f,22,english,5,3,english,2024-02-01 10:30:09.474161,False,1,10,sounds\english\audio/english_64.wav,"[[  0.          35.19701481]
 [  0.1         75.83495736]
 [  0.2        -57.84604767]
 [  0.3         18.18328311]
 [  0.4          2.5532884 ]
 [  0.5         24.93011402]
 [  0.6        -51.99875854]
 [  0.7         52.45873465]
 [  0.8         42.38876358]
 [  0.9         54.33691238]
 [  1.          27.02485659]
 [  1.09391667  58.99390703]]","[[0.         0.1517014 ]
 [0.1        1.3624391 ]
 [0.2        0.35043993]
 [0.3        1.06032252]
 [0.4        1.51833669]
 [0.5        0.65789286]
 [0.6        1.38401799]
 [0.7        1.62873445]
 [0.8        0.48968984]
 [0.9        0.64777192]
 [1.         0.8399807 ]
 [1.09391667 0.25985176]]",1,1.186
8731029739,f,22,english,5,3,english,2024-02-01 10:30:09.474161,False,1,11,sounds\english\audio/english_405.wav,"[[  0.         -78.42073653]
 [  0.1        -24.61205512]
 [  0.2        -11.84314917]
 [  0.3        -70.6403769 ]
 [  0.4        -46.85191634]
 [  0.5        -71.06093943]
 [  0.6         30.63391912]
 [  0.7        -74.22566174]
 [  0.8          7.48787405]
 [  0.9        -46.20513682]
 [  1.          49.04599402]
 [  1.09391667  -4.00470975]]","[[0.         1.26555168]
 [0.1        0.89640123]
 [0.2        0.55951574]
 [0.3        0.41074213]
 [0.4        0.16739124]
 [0.5        0.840879  ]
 [0.6        1.64487685]
 [0.7        0.4477739 ]
 [0.8        0.39629761]
 [0.9        1.07902243]
 [1.         1.30068101]
 [1.09391667 1.72481408]]",1,0.967
8731029739,f,22,english,5,3,english,2024-02-01 10:30:09.474161,False,1,12,sounds\english\audio/english_739.wav,"[[  0.           1.66907671]
 [  0.1         32.28194312]
 [  0.2         88.89595153]
 [  0.3         20.95779095]
 [  0.4         75.26857339]
 [  0.5         80.94392955]
 [  0.6         17.54887525]
 [  0.7         25.07377362]
 [  0.8         92.52917298]
 [  0.9          2.73629171]
 [  1.         -80.00700458]
 [  1.09391667 -87.47656885]]","[[0.         0.87693375]
 [0.1        0.65337813]
 [0.2        0.64089741]
 [0.3        1.8100412 ]
 [0.4        1.25976755]
 [0.5        0.9768095 ]
 [0.6        1.56119235]
 [0.7        0.95993111]
 [0.8        0.31388654]
 [0.9        1.55063506]
 [1.         1.57282249]
 [1.09391667 1.46307629]]",1,1.75
8731029739,f,22,english,5,3,english,2024-02-01 10:30:09.474161,False,1,13,sounds\english\audio/english_718.wav,"[[  0.          61.00269276]
 [  0.1         -4.74934843]
 [  0.2          9.01462899]
 [  0.3         79.23930225]
 [  0.4        -22.0403667 ]
 [  0.5        -60.9220938 ]
 [  0.6         36.91126826]
 [  0.7         23.15113788]
 [  0.8        -72.29830581]
 [  0.9        -56.27843268]
 [  1.         -20.76477327]
 [  1.09391667 -26.98598325]]","[[0.         1.9915537 ]
 [0.1        0.89410112]
 [0.2        1.56072611]
 [0.3        0.98422559]
 [0.4        1.91227381]
 [0.5        1.04807259]
 [0.6        0.76136187]
 [0.7        1.40698191]
 [0.8        0.19509634]
 [0.9        0.95755477]
 [1.         0.32836836]
 [1.09391667 1.63350278]]",1,0.936
8731029739,f,22,english,5,3,english,2024-02-01 10:30:09.474161,False,1,14,sounds\english\audio/english_502.wav,"[[  0.          57.69639955]
 [  0.1         28.96096349]
 [  0.2         -5.93680221]
 [  0.3         -9.12517159]
 [  0.4         44.04961264]
 [  0.5         84.4955788 ]
 [  0.6         97.09857183]
 [  0.7         99.13853902]
 [  0.8         91.26297662]
 [  0.9         17.95296758]
 [  1.         -98.67508596]
 [  1.09391667 -78.95703283]]","[[0.         1.15234611]
 [0.1        1.67970143]
 [0.2        0.71376986]
 [0.3        0.49125702]
 [0.4        0.39874308]
 [0.5        0.1440426 ]
 [0.6        1.53167879]
 [0.7        1.52730171]
 [0.8        0.65970293]
 [0.9        0.91797137]
 [1.         1.57983796]
 [1.09391667 0.77767597]]",1,0.34
8731029739,f,22,english,5,3,english,2024-02-01 10:30:09.474161,False,1,15,sounds\english\audio/english_518.wav,"[[  0.          22.01202895]
 [  0.1         84.85911905]
 [  0.2          6.76803646]
 [  0.3        -12.31334731]
 [  0.4         -5.3812793 ]
 [  0.5        -39.12372131]
 [  0.6        -19.59187687]
 [  0.7         30.09174406]
 [  0.8         12.21299005]
 [  0.9        -30.98849923]
 [  1.         -66.88783357]
 [  1.09391667 -47.66173225]]","[[0.         1.18568215]
 [0.1        1.27730104]
 [0.2        1.88343212]
 [0.3        1.70516568]
 [0.4        1.21188584]
 [0.5        1.55365309]
 [0.6        1.67380265]
 [0.7        1.67954719]
 [0.8        1.45293932]
 [0.9        1.42118442]
 [1.         1.84946345]
 [1.09391667 1.44146986]]",1,0.403
8731029739,f,22,english,5,3,english,2024-02-01 10:30:09.474161,False,1,16,sounds\english\audio/english_752.wav,"[[  0.          52.61686216]
 [  0.1        -18.45204241]
 [  0.2         -6.44553856]
 [  0.3         54.48685686]
 [  0.4        -14.12902415]
 [  0.5        -68.0514313 ]
 [  0.6        -35.48747748]
 [  0.7        -40.39140323]
 [  0.8        -44.26325446]
 [  0.9         18.34874791]
 [  1.         -42.03859304]
 [  1.09391667  68.7756392 ]]","[[0.         1.6341758 ]
 [0.1        0.5397069 ]
 [0.2        1.4905668 ]
 [0.3        0.49055919]
 [0.4        1.50348136]
 [0.5        0.53453917]
 [0.6        1.00064578]
 [0.7        0.9078798 ]
 [0.8        1.8374475 ]
 [0.9        0.61675218]
 [1.         0.24596276]
 [1.09391667 0.85105991]]",1,2.445
8731029739,f,22,english,5,3,english,2024-02-01 10:30:09.474161,False,1,17,sounds\english\audio/english_731.wav,"[[  0.          -7.36185514]
 [  0.1         90.53877185]
 [  0.2        -41.94407757]
 [  0.3         25.1521842 ]
 [  0.4         68.57946125]
 [  0.5         65.86891495]
 [  0.6        -52.28114947]
 [  0.7         15.16550818]
 [  0.8         25.27999627]
 [  0.9         11.70162838]
 [  1.         -94.01759602]
 [  1.09391667  -3.24792735]]","[[0.         1.393769  ]
 [0.1        0.98238467]
 [0.2        1.23695651]
 [0.3        1.19631379]
 [0.4        0.88911396]
 [0.5        1.98349596]
 [0.6        0.8296111 ]
 [0.7        0.44150217]
 [0.8        1.48173114]
 [0.9        1.09419359]
 [1.         0.20829797]
 [1.09391667 1.32232845]]",1,0.533
8731029739,f,22,english,5,3,english,2024-02-01 10:30:09.474161,False,1,18,sounds\english\audio/english_769.wav,"[[  0.          -5.59008464]
 [  0.1         23.87135474]
 [  0.2        -59.27059617]
 [  0.3         -3.79644123]
 [  0.4        -24.49258802]
 [  0.5         -9.70740252]
 [  0.6         93.2382904 ]
 [  0.7        -80.61523432]
 [  0.8        -68.01598802]
 [  0.9         62.98223399]
 [  1.         -20.64225602]
 [  1.09391667 -61.6915353 ]]","[[0.         1.9459955 ]
 [0.1        1.03760396]
 [0.2        0.52841708]
 [0.3        1.18808585]
 [0.4        1.53084487]
 [0.5        1.19743676]
 [0.6        1.07802649]
 [0.7        1.54041051]
 [0.8        0.02132601]
 [0.9        1.71898352]
 [1.         1.35496449]
 [1.09391667 1.18680032]]",1,0.498
8731029739,f,22,english,5,3,english,2024-02-01 10:30:09.474161,False,1,19,sounds\english\audio/english_969.wav,"[[  0.          29.09924348]
 [  0.1        -95.88090252]
 [  0.2         45.5103226 ]
 [  0.3         22.6688792 ]
 [  0.4         28.43861777]
 [  0.5        -64.30828006]
 [  0.6        -54.50431648]
 [  0.7         30.42451317]
 [  0.8        -91.90179979]
 [  0.9          4.36119227]
 [  1.         -67.80457813]
 [  1.09391667 -80.8303423 ]]","[[0.         1.53055803]
 [0.1        0.21771883]
 [0.2        0.6895083 ]
 [0.3        1.38165803]
 [0.4        1.43845422]
 [0.5        1.41047112]
 [0.6        1.45510114]
 [0.7        0.72825636]
 [0.8        1.35653581]
 [0.9        1.06956255]
 [1.         1.00621562]
 [1.09391667 1.05370229]]",1,0.44
8731029739,f,22,english,5,3,english,2024-02-01 10:30:09.474161,False,1,20,sounds\english\audio/english_797.wav,"[[  0.         -63.71190355]
 [  0.1        -50.79402881]
 [  0.2         32.30736556]
 [  0.3         64.02493123]
 [  0.4         33.19195817]
 [  0.5        -86.78102625]
 [  0.6         66.48077763]
 [  0.7         77.3640722 ]
 [  0.8        -43.13358698]
 [  0.9         16.8031196 ]
 [  1.         -24.13411638]
 [  1.09391667  -2.75355837]]","[[0.         0.64786632]
 [0.1        0.65066378]
 [0.2        0.25622374]
 [0.3        0.5898572 ]
 [0.4        0.35552041]
 [0.5        0.44475986]
 [0.6        1.98126615]
 [0.7        1.0037779 ]
 [0.8        1.93292513]
 [0.9        1.4698385 ]
 [1.         0.72715411]
 [1.09391667 1.46134136]]",1,1.302
8731029739,f,22,english,5,3,english,2024-02-01 10:30:09.474161,False,1,21,sounds\english\audio/english_727.wav,"[[  0.         -18.41371041]
 [  0.1        -63.10285802]
 [  0.2        -11.47868373]
 [  0.3         40.37675275]
 [  0.4        -77.12859483]
 [  0.5         92.73705719]
 [  0.6        -55.99534641]
 [  0.7        -55.52546335]
 [  0.8          6.97078157]
 [  0.9        -23.82740681]
 [  1.          16.85010217]
 [  1.09391667  12.17774436]]","[[0.         1.35764892]
 [0.1        1.30171306]
 [0.2        1.89832966]
 [0.3        1.96157356]
 [0.4        0.9069281 ]
 [0.5        1.12095366]
 [0.6        1.00983545]
 [0.7        0.3683737 ]
 [0.8        1.10707799]
 [0.9        1.05563912]
 [1.         1.15538622]
 [1.09391667 0.52815825]]",1,2.33
8731029739,f,22,english,5,3,english,2024-02-01 10:30:09.474161,False,1,22,sounds\english\audio/english_498.wav,"[[  0.          43.98055184]
 [  0.1         91.3545984 ]
 [  0.2        -25.91563113]
 [  0.3        -14.96140851]
 [  0.4         -8.05824247]
 [  0.5        -61.63888891]
 [  0.6         37.86658664]
 [  0.7        -97.52325855]
 [  0.8        -16.03910224]
 [  0.9         83.25609208]
 [  1.         -65.28300381]
 [  1.09391667  38.04109912]]","[[0.         1.94722798]
 [0.1        1.93048351]
 [0.2        0.27240706]
 [0.3        1.06623965]
 [0.4        1.41558656]
 [0.5        0.26700347]
 [0.6        0.54434522]
 [0.7        0.79258737]
 [0.8        1.13417158]
 [0.9        0.68565339]
 [1.         0.73020294]
 [1.09391667 1.48505369]]",1,1.815
8731029739,f,22,english,5,3,english,2024-02-01 10:30:09.474161,False,1,23,sounds\english\audio/english_589.wav,"[[  0.          69.60358053]
 [  0.1        -65.76586915]
 [  0.2         50.74096111]
 [  0.3        -96.7673569 ]
 [  0.4        -26.86757353]
 [  0.5        -10.06885571]
 [  0.6         63.05343757]
 [  0.7        -63.30132259]
 [  0.8        -47.99442538]
 [  0.9         57.19971628]
 [  1.         -48.99247717]
 [  1.09391667 -67.69648975]]","[[0.         1.2976065 ]
 [0.1        1.47951187]
 [0.2        1.3485394 ]
 [0.3        0.54528982]
 [0.4        1.27804734]
 [0.5        1.28037388]
 [0.6        0.75540581]
 [0.7        0.89000931]
 [0.8        0.42595149]
 [0.9        1.49547586]
 [1.         0.17298639]
 [1.09391667 0.58048161]]",1,1.598
8731029739,f,22,english,5,3,english,2024-02-01 10:30:09.474161,False,1,24,sounds\english\audio/english_224.wav,"[[  0.         -78.61506242]
 [  0.1         50.32903383]
 [  0.2         13.41609495]
 [  0.3        -65.62214638]
 [  0.4        -58.93648778]
 [  0.5         72.28111683]
 [  0.6        -46.77069374]
 [  0.7        -90.37193795]
 [  0.8         -0.43339445]
 [  0.9        -45.45823975]
 [  1.         -68.1553756 ]
 [  1.09391667 -50.27313826]]","[[0.         0.96291184]
 [0.1        1.02849412]
 [0.2        1.48046057]
 [0.3        0.95403391]
 [0.4        0.16536285]
 [0.5        1.42811474]
 [0.6        0.74831178]
 [0.7        1.44512366]
 [0.8        1.0370843 ]
 [0.9        0.73747726]
 [1.         0.53686902]
 [1.09391667 1.24590757]]",1,0.237
8731029739,f,22,english,5,3,english,2024-02-01 10:30:09.474161,False,1,25,sounds\english\audio/english_359.wav,"[[  0.          16.62356483]
 [  0.1        -64.66657599]
 [  0.2         20.81574107]
 [  0.3         62.21324861]
 [  0.4        -96.92379856]
 [  0.5        -63.09314604]
 [  0.6         85.3804948 ]
 [  0.7         -5.84073458]
 [  0.8          1.07766227]
 [  0.9         -3.48391837]
 [  1.           5.39755614]
 [  1.09391667  59.72301587]]","[[0.         0.11907426]
 [0.1        1.11022803]
 [0.2        1.93552837]
 [0.3        0.18628365]
 [0.4        1.68045213]
 [0.5        0.56124054]
 [0.6        1.40840471]
 [0.7        0.76045624]
 [0.8        0.79738911]
 [0.9        0.78873787]
 [1.         0.96854707]
 [1.09391667 0.15927381]]",1,0.243
8731029739,f,22,english,5,3,english,2024-02-01 10:30:09.474161,False,1,26,sounds\english\audio/english_182.wav,"[[  0.         -33.72839549]
 [  0.1         71.95583488]
 [  0.2         93.77497833]
 [  0.3        -96.3431589 ]
 [  0.4        -58.26438495]
 [  0.5         40.50395066]
 [  0.6        -57.53982371]
 [  0.7         19.26336492]
 [  0.8         53.61678759]
 [  0.9         33.80250156]
 [  1.          47.27321227]
 [  1.09391667  72.04949346]]","[[0.         0.64170462]
 [0.1        0.46910546]
 [0.2        1.36329359]
 [0.3        1.23106937]
 [0.4        1.40247691]
 [0.5        0.60520266]
 [0.6        0.0944441 ]
 [0.7        0.39825095]
 [0.8        0.94728121]
 [0.9        0.19803834]
 [1.         1.21672532]
 [1.09391667 0.20681806]]",1,1.998
8731029739,f,22,english,5,3,english,2024-02-01 10:30:09.474161,False,1,27,sounds\english\audio/english_538.wav,"[[  0.          10.61627961]
 [  0.1         -8.0929012 ]
 [  0.2          4.29598946]
 [  0.3        -22.12858968]
 [  0.4        -56.21885188]
 [  0.5         21.93376584]
 [  0.6        -68.32489038]
 [  0.7        -66.29674784]
 [  0.8        -74.72581258]
 [  0.9         14.86779264]
 [  1.          61.56126855]
 [  1.09391667 -58.45933513]]","[[0.         1.15184391]
 [0.1        1.50748819]
 [0.2        0.49576218]
 [0.3        1.003898  ]
 [0.4        1.76624867]
 [0.5        1.27574792]
 [0.6        0.1993111 ]
 [0.7        0.49400206]
 [0.8        0.32135859]
 [0.9        1.63136948]
 [1.         1.32900666]
 [1.09391667 1.2934419 ]]",1,0.462
8731029739,f,22,english,5,3,english,2024-02-01 10:30:09.474161,False,1,28,sounds\english\audio/english_766.wav,"[[  0.          42.94713727]
 [  0.1         28.30886199]
 [  0.2          1.2264226 ]
 [  0.3        -18.98827785]
 [  0.4         56.2842172 ]
 [  0.5        -36.10050509]
 [  0.6        -35.32176748]
 [  0.7        -60.08162155]
 [  0.8         89.09432849]
 [  0.9         19.08224966]
 [  1.         -35.22352631]
 [  1.09391667 -47.26773358]]","[[0.         0.47626881]
 [0.1        1.1713526 ]
 [0.2        1.74074018]
 [0.3        1.46451689]
 [0.4        1.82010581]
 [0.5        0.06402892]
 [0.6        1.19039401]
 [0.7        1.08978002]
 [0.8        1.1905248 ]
 [0.9        1.93919958]
 [1.         1.038365  ]
 [1.09391667 0.66318898]]",1,0.601
8731029739,f,22,english,5,3,english,2024-02-01 10:30:09.474161,False,1,29,sounds\english\audio/english_979.wav,"[[  0.          37.48457567]
 [  0.1        -37.02244062]
 [  0.2        -24.69283161]
 [  0.3        -46.06023598]
 [  0.4        -42.84074597]
 [  0.5         74.27862476]
 [  0.6         -8.30998961]
 [  0.7         58.9564601 ]
 [  0.8         -5.32034309]
 [  0.9         26.74044499]
 [  1.         -18.64517926]
 [  1.09391667  58.46936922]]","[[0.         1.4207367 ]
 [0.1        1.31079647]
 [0.2        0.99381913]
 [0.3        1.92885953]
 [0.4        1.90853779]
 [0.5        0.2569717 ]
 [0.6        0.19374483]
 [0.7        1.09057025]
 [0.8        1.33389295]
 [0.9        0.56327367]
 [1.         0.75332902]
 [1.09391667 0.45071064]]",1,1.329
8731029739,f,22,english,5,3,english,2024-02-01 10:30:09.474161,False,1,30,sounds\english\audio/english_5.wav,"[[  0.         -71.05887053]
 [  0.1        -36.04846502]
 [  0.2         68.09307416]
 [  0.3        -71.61609357]
 [  0.4        -14.92970524]
 [  0.5         36.04461977]
 [  0.6         61.01603353]
 [  0.7         22.04787058]
 [  0.8        -76.70141108]
 [  0.9         72.36411847]
 [  1.          -2.42248121]
 [  1.09391667 -45.78406478]]","[[0.         0.69305634]
 [0.1        1.95331705]
 [0.2        0.24939242]
 [0.3        1.30786136]
 [0.4        0.35721873]
 [0.5        1.66367269]
 [0.6        1.49043319]
 [0.7        1.08702194]
 [0.8        0.32363826]
 [0.9        0.22271442]
 [1.         1.0907403 ]
 [1.09391667 0.00462457]]",0,1.017
8731029739,f,22,english,5,3,english,2024-02-01 10:30:09.474161,False,1,31,sounds\english\audio/english_620.wav,"[[  0.          70.25249287]
 [  0.1        -54.17403538]
 [  0.2        -24.27909239]
 [  0.3        -72.34505274]
 [  0.4        -84.16228676]
 [  0.5        -50.29822256]
 [  0.6         87.34344189]
 [  0.7        -51.38543443]
 [  0.8         40.7028666 ]
 [  0.9        -95.70979416]
 [  1.          95.25950338]
 [  1.09391667 -68.50782959]]","[[0.         1.60927754]
 [0.1        0.35556605]
 [0.2        1.04145572]
 [0.3        1.98653049]
 [0.4        0.35027861]
 [0.5        1.43135392]
 [0.6        1.2880573 ]
 [0.7        1.68116405]
 [0.8        1.8236964 ]
 [0.9        0.04712506]
 [1.         1.86928379]
 [1.09391667 0.75081121]]",1,0.199
8731029739,f,22,english,5,3,english,2024-02-01 10:30:09.474161,False,1,32,sounds\english\audio/english_670.wav,"[[  0.          61.47755319]
 [  0.1         79.47502579]
 [  0.2         73.60091474]
 [  0.3         58.1460863 ]
 [  0.4         97.58712211]
 [  0.5        -25.3557345 ]
 [  0.6         -0.56542957]
 [  0.7         31.42903677]
 [  0.8         42.53271581]
 [  0.9         77.28375596]
 [  1.         -30.44711444]
 [  1.09391667  19.3107075 ]]","[[0.         1.45530198]
 [0.1        1.32139426]
 [0.2        0.78813228]
 [0.3        0.55211546]
 [0.4        0.66504483]
 [0.5        0.1283282 ]
 [0.6        1.41482601]
 [0.7        1.61871195]
 [0.8        1.01398737]
 [0.9        0.52342725]
 [1.         1.03483045]
 [1.09391667 0.15284579]]",1,1.215
8731029739,f,22,english,5,3,english,2024-02-01 10:30:09.474161,False,1,33,sounds\english\audio/english_222.wav,"[[  0.          96.40991371]
 [  0.1         44.65841575]
 [  0.2        -16.29621217]
 [  0.3        -48.55554978]
 [  0.4         26.12822135]
 [  0.5         56.43887594]
 [  0.6         -8.03605186]
 [  0.7         54.77211039]
 [  0.8         25.53059274]
 [  0.9        -58.35574141]
 [  1.         -61.20346584]
 [  1.09391667  99.40713186]]","[[0.         0.9507269 ]
 [0.1        1.79183575]
 [0.2        1.09244309]
 [0.3        1.6357802 ]
 [0.4        0.19893477]
 [0.5        0.38875901]
 [0.6        0.73216499]
 [0.7        1.11169146]
 [0.8        0.05558172]
 [0.9        0.18202708]
 [1.         0.44521291]
 [1.09391667 0.13186743]]",0,0.95
8731029739,f,22,english,5,3,english,2024-02-01 10:30:09.474161,False,1,34,sounds\english\audio/english_37.wav,"[[  0.          68.40782596]
 [  0.1         41.58379148]
 [  0.2         63.04378759]
 [  0.3         12.39470235]
 [  0.4        -38.69600303]
 [  0.5        -51.98957982]
 [  0.6         90.7945682 ]
 [  0.7         40.67115675]
 [  0.8         34.01498334]
 [  0.9        -88.26662934]
 [  1.         -41.35685221]
 [  1.09391667 -27.43470179]]","[[0.         0.52957209]
 [0.1        1.67320718]
 [0.2        1.31144487]
 [0.3        1.11254506]
 [0.4        0.57972705]
 [0.5        0.30651039]
 [0.6        0.45858619]
 [0.7        1.55641423]
 [0.8        1.01642962]
 [0.9        0.95850402]
 [1.         0.70833558]
 [1.09391667 0.55678167]]",1,0.783
8731029739,f,22,english,5,3,english,2024-02-01 10:30:09.474161,False,1,35,sounds\english\audio/english_683.wav,"[[  0.          34.23496856]
 [  0.1         81.31064479]
 [  0.2        -60.40458615]
 [  0.3        -62.54980461]
 [  0.4        -12.36553538]
 [  0.5        -34.77582481]
 [  0.6        -96.13838061]
 [  0.7        -24.06724676]
 [  0.8        -21.80988158]
 [  0.9         25.64503309]
 [  1.         -38.18547527]
 [  1.09391667 -68.93519132]]","[[0.         1.52890361]
 [0.1        1.93705935]
 [0.2        0.69433094]
 [0.3        1.53772514]
 [0.4        1.78596087]
 [0.5        1.63079743]
 [0.6        0.34418859]
 [0.7        0.7060728 ]
 [0.8        1.36877557]
 [0.9        0.99980175]
 [1.         1.47729865]
 [1.09391667 0.6697003 ]]",1,0.576
8731029739,f,22,english,5,3,english,2024-02-01 10:30:09.474161,False,1,36,sounds\english\audio/english_35.wav,"[[ 0.00000000e+00 -3.32471352e+01]
 [ 1.00000000e-01 -5.69991421e+01]
 [ 2.00000000e-01 -5.31410250e+01]
 [ 3.00000000e-01 -9.74707920e+01]
 [ 4.00000000e-01  2.52422215e+01]
 [ 5.00000000e-01 -3.90524292e+01]
 [ 6.00000000e-01 -9.90462998e+01]
 [ 7.00000000e-01  4.80059539e+01]
 [ 8.00000000e-01  7.34220257e+01]
 [ 9.00000000e-01 -4.18143130e+01]
 [ 1.00000000e+00  4.06702180e-02]
 [ 1.09391667e+00  3.42858519e+01]]","[[0.         0.63198815]
 [0.1        0.43394686]
 [0.2        1.61809769]
 [0.3        0.75167401]
 [0.4        0.72143441]
 [0.5        1.49847169]
 [0.6        0.81761607]
 [0.7        1.11392086]
 [0.8        1.25690952]
 [0.9        1.7324837 ]
 [1.         0.64426718]
 [1.09391667 1.0286628 ]]",1,0.675
8731029739,f,22,english,5,3,english,2024-02-01 10:30:09.474161,False,1,37,sounds\english\audio/english_200.wav,"[[  0.         -48.93101302]
 [  0.1         29.34121658]
 [  0.2         23.36197279]
 [  0.3         -1.20403398]
 [  0.4        -47.67478064]
 [  0.5         18.83507041]
 [  0.6        -17.22460439]
 [  0.7         95.20697574]
 [  0.8         -6.20708562]
 [  0.9        -37.25970541]
 [  1.           4.5592837 ]
 [  1.09391667  86.68415923]]","[[0.         1.76712635]
 [0.1        1.41196845]
 [0.2        0.60842774]
 [0.3        1.94277316]
 [0.4        1.4476438 ]
 [0.5        1.13791246]
 [0.6        1.88825133]
 [0.7        1.08026942]
 [0.8        0.16695357]
 [0.9        0.7312143 ]
 [1.         0.56031965]
 [1.09391667 0.70419729]]",1,1.006
8731029739,f,22,english,5,3,english,2024-02-01 10:30:09.474161,False,1,38,sounds\english\audio/english_966.wav,"[[  0.         -96.91789055]
 [  0.1        -64.86850103]
 [  0.2        -43.92628472]
 [  0.3        -93.7136214 ]
 [  0.4        -57.14902712]
 [  0.5        -12.68506719]
 [  0.6        -15.43922669]
 [  0.7         24.10386484]
 [  0.8          3.35646026]
 [  0.9         88.24028536]
 [  1.         -32.39213993]
 [  1.09391667  -1.72411588]]","[[0.         1.23686614]
 [0.1        0.67188965]
 [0.2        0.33271907]
 [0.3        1.62713329]
 [0.4        1.49154652]
 [0.5        1.31520623]
 [0.6        0.20724492]
 [0.7        0.13137995]
 [0.8        1.15134967]
 [0.9        0.75921019]
 [1.         0.67670762]
 [1.09391667 1.22586656]]",1,1.239
8731029739,f,22,english,5,3,english,2024-02-01 10:30:09.474161,False,1,39,sounds\english\audio/english_676.wav,"[[  0.          77.23951032]
 [  0.1         27.47427545]
 [  0.2         92.07370265]
 [  0.3        -39.62602007]
 [  0.4        -81.22107243]
 [  0.5        -99.04707649]
 [  0.6        -64.5180536 ]
 [  0.7         91.29392748]
 [  0.8         97.8635705 ]
 [  0.9        -84.2423741 ]
 [  1.         -76.68596269]
 [  1.09391667  65.10857552]]","[[0.         1.33259474]
 [0.1        0.90028372]
 [0.2        1.66717955]
 [0.3        0.42158585]
 [0.4        1.7878255 ]
 [0.5        1.33780608]
 [0.6        0.94548991]
 [0.7        1.43207041]
 [0.8        1.03085722]
 [0.9        0.34895699]
 [1.         0.83720355]
 [1.09391667 1.31764415]]",1,0.572
8731029739,f,22,english,5,3,english,2024-02-01 10:30:09.474161,False,1,40,sounds\english\audio/english_60.wav,"[[  0.          10.59186776]
 [  0.1         40.50364305]
 [  0.2        -14.0687602 ]
 [  0.3        -65.99656217]
 [  0.4         15.70320652]
 [  0.5        -30.42091681]
 [  0.6        -42.76109802]
 [  0.7         79.72211157]
 [  0.8        -76.06160398]
 [  0.9        -29.21518782]
 [  1.         -57.95886313]
 [  1.09391667  -5.07129897]]","[[0.         1.18276714]
 [0.1        1.35618457]
 [0.2        0.82779989]
 [0.3        0.57077879]
 [0.4        0.07108592]
 [0.5        0.69784791]
 [0.6        1.83211062]
 [0.7        1.14011333]
 [0.8        1.5550445 ]
 [0.9        0.72383993]
 [1.         1.31578319]
 [1.09391667 0.46327009]]",1,0.457
8731029739,f,22,english,5,3,english,2024-02-01 10:30:09.474161,False,1,41,sounds\english\audio/english_570.wav,"[[  0.           4.27892196]
 [  0.1        -65.10560908]
 [  0.2        -46.49099881]
 [  0.3         92.02313014]
 [  0.4        -62.36360028]
 [  0.5         -5.7481882 ]
 [  0.6        -29.57103274]
 [  0.7        -12.57991884]
 [  0.8         -0.28533532]
 [  0.9         70.53696138]
 [  1.         -21.79274863]
 [  1.09391667  77.34028184]]","[[0.         1.38341141]
 [0.1        0.63616801]
 [0.2        0.88657916]
 [0.3        1.65534728]
 [0.4        0.58832985]
 [0.5        0.35954779]
 [0.6        0.83826919]
 [0.7        1.34190797]
 [0.8        0.71480272]
 [0.9        1.84273358]
 [1.         1.41836707]
 [1.09391667 1.74855227]]",1,3.182
8731029739,f,22,english,5,3,english,2024-02-01 10:30:09.474161,False,1,42,sounds\english\audio/english_70.wav,"[[  0.          84.7445928 ]
 [  0.1        -17.05936153]
 [  0.2         48.77629579]
 [  0.3        -37.18095977]
 [  0.4         49.63064657]
 [  0.5        -62.82111716]
 [  0.6         35.10101602]
 [  0.7        -40.08264695]
 [  0.8         35.78231672]
 [  0.9        -49.57858266]
 [  1.         -49.37995814]
 [  1.09391667  20.96821744]]","[[0.         1.85159723]
 [0.1        0.49913073]
 [0.2        1.2524697 ]
 [0.3        1.90044367]
 [0.4        0.54300229]
 [0.5        1.34279252]
 [0.6        1.14641918]
 [0.7        0.66805918]
 [0.8        1.02673009]
 [0.9        1.60161004]
 [1.         1.69848543]
 [1.09391667 0.40967928]]",1,0.381
8731029739,f,22,english,5,3,english,2024-02-01 10:30:09.474161,False,1,43,sounds\english\audio/english_876.wav,"[[  0.         -22.28605272]
 [  0.1         88.07210504]
 [  0.2        -49.70957844]
 [  0.3        -15.12998944]
 [  0.4        -15.93875253]
 [  0.5        -25.52637737]
 [  0.6        -20.7469083 ]
 [  0.7         38.24982305]
 [  0.8         85.21823118]
 [  0.9          2.48963564]
 [  1.          33.93764026]
 [  1.09391667   1.12823357]]","[[0.         0.86114571]
 [0.1        1.97575965]
 [0.2        0.63948783]
 [0.3        0.79524936]
 [0.4        1.19082012]
 [0.5        0.64746998]
 [0.6        0.40627419]
 [0.7        0.95615642]
 [0.8        1.23938009]
 [0.9        0.97530307]
 [1.         0.65277391]
 [1.09391667 0.77957787]]",1,0.275
8731029739,f,22,english,5,3,english,2024-02-01 10:30:09.474161,False,1,44,sounds\english\audio/english_976.wav,"[[  0.          -7.94823885]
 [  0.1         96.34184584]
 [  0.2        -33.68410723]
 [  0.3         71.00734619]
 [  0.4        -73.42321757]
 [  0.5         68.14494718]
 [  0.6         72.66069131]
 [  0.7        -46.1327141 ]
 [  0.8        -13.93014286]
 [  0.9         53.41967838]
 [  1.         -12.62377888]
 [  1.09391667  -9.46767518]]","[[0.         1.93996979]
 [0.1        0.68967214]
 [0.2        1.52037239]
 [0.3        0.92144072]
 [0.4        1.16805043]
 [0.5        0.75881772]
 [0.6        0.99023479]
 [0.7        1.21750342]
 [0.8        1.7476055 ]
 [0.9        1.87214478]
 [1.         0.1004517 ]
 [1.09391667 1.64660027]]",1,0.763
8731029739,f,22,english,5,3,english,2024-02-01 10:30:09.474161,False,1,45,sounds\english\audio/english_572.wav,"[[  0.          74.87847498]
 [  0.1        -39.37509685]
 [  0.2         46.07522777]
 [  0.3        -26.59086479]
 [  0.4        -83.61712333]
 [  0.5         51.69873735]
 [  0.6        -66.29925424]
 [  0.7        -30.03465624]
 [  0.8         22.82757365]
 [  0.9        -30.60936999]
 [  1.         -46.60182678]
 [  1.09391667  37.1532128 ]]","[[0.         0.12348508]
 [0.1        1.01129589]
 [0.2        0.14453867]
 [0.3        0.66439835]
 [0.4        0.40930176]
 [0.5        1.64421854]
 [0.6        1.67109861]
 [0.7        1.00053383]
 [0.8        0.68839219]
 [0.9        0.08113885]
 [1.         0.16383696]
 [1.09391667 0.71948729]]",1,1.275
8731029739,f,22,english,5,3,english,2024-02-01 10:30:09.474161,False,1,46,sounds\english\audio/english_863.wav,"[[  0.           3.14313852]
 [  0.1        -23.21665248]
 [  0.2         94.57997372]
 [  0.3        -70.02674633]
 [  0.4         40.94796862]
 [  0.5         88.61836916]
 [  0.6         69.208784  ]
 [  0.7         77.12421504]
 [  0.8        -17.44873358]
 [  0.9        -87.01424673]
 [  1.         -56.04990787]
 [  1.09391667 -48.10301357]]","[[0.         1.16629305]
 [0.1        0.07060829]
 [0.2        0.73624632]
 [0.3        1.78608874]
 [0.4        1.19353904]
 [0.5        1.05800258]
 [0.6        1.13776513]
 [0.7        0.42226269]
 [0.8        1.07561455]
 [0.9        0.7154793 ]
 [1.         0.64178271]
 [1.09391667 1.63280959]]",1,0.918
8731029739,f,22,english,5,3,english,2024-02-01 10:30:09.474161,False,1,47,sounds\english\audio/english_461.wav,"[[  0.          20.40366348]
 [  0.1        -22.31307181]
 [  0.2        -89.37114144]
 [  0.3        -62.56780286]
 [  0.4         98.66430914]
 [  0.5         31.54001237]
 [  0.6        -32.39124998]
 [  0.7        -36.51161339]
 [  0.8         53.57144474]
 [  0.9        -58.15364794]
 [  1.          49.37662152]
 [  1.09391667 -58.25142674]]","[[0.         0.56042838]
 [0.1        0.54946445]
 [0.2        1.64772646]
 [0.3        1.49638786]
 [0.4        1.35717302]
 [0.5        1.77354921]
 [0.6        0.30044417]
 [0.7        0.61964528]
 [0.8        1.90165564]
 [0.9        1.196075  ]
 [1.         1.99169905]
 [1.09391667 0.63333461]]",1,0.425
8731029739,f,22,english,5,3,english,2024-02-01 10:30:09.474161,False,1,48,sounds\english\audio/english_969.wav,"[[  0.          29.09924348]
 [  0.1        -95.88090252]
 [  0.2         45.5103226 ]
 [  0.3         22.6688792 ]
 [  0.4         28.43861777]
 [  0.5        -64.30828006]
 [  0.6        -54.50431648]
 [  0.7         30.42451317]
 [  0.8        -91.90179979]
 [  0.9          4.36119227]
 [  1.         -67.80457813]
 [  1.09391667 -80.8303423 ]]","[[0.         1.53055803]
 [0.1        0.21771883]
 [0.2        0.6895083 ]
 [0.3        1.38165803]
 [0.4        1.43845422]
 [0.5        1.41047112]
 [0.6        1.45510114]
 [0.7        0.72825636]
 [0.8        1.35653581]
 [0.9        1.06956255]
 [1.         1.00621562]
 [1.09391667 1.05370229]]",1,0.386
8731029739,f,22,english,5,3,english,2024-02-01 10:30:09.474161,False,1,49,sounds\english\audio/english_478.wav,"[[  0.          49.52865222]
 [  0.1         12.15356225]
 [  0.2        -37.73778512]
 [  0.3        -10.50364884]
 [  0.4         38.58870475]
 [  0.5        -22.27355878]
 [  0.6        -48.47445884]
 [  0.7        -51.27115533]
 [  0.8         73.13710457]
 [  0.9          5.78656281]
 [  1.         -98.51331711]
 [  1.09391667  24.20472837]]","[[0.         0.59081153]
 [0.1        0.51284871]
 [0.2        1.1444407 ]
 [0.3        1.54775545]
 [0.4        1.52435775]
 [0.5        1.20325801]
 [0.6        0.62139426]
 [0.7        0.67212897]
 [0.8        1.21899898]
 [0.9        0.57488153]
 [1.         0.34521849]
 [1.09391667 1.9492818 ]]",0,0.836
8731029739,f,22,english,5,3,english,2024-02-01 10:30:09.474161,False,1,50,sounds\english\audio/english_292.wav,"[[  0.          25.72060653]
 [  0.1         -6.51251487]
 [  0.2          3.32661168]
 [  0.3         89.62386246]
 [  0.4         80.65433919]
 [  0.5         44.84771524]
 [  0.6         25.54437629]
 [  0.7        -12.49512251]
 [  0.8        -42.7769001 ]
 [  0.9        -50.66960292]
 [  1.         -26.28928757]
 [  1.09391667 -87.75283225]]","[[0.         1.17792554]
 [0.1        0.30252559]
 [0.2        1.09442145]
 [0.3        1.28448778]
 [0.4        1.02735441]
 [0.5        0.62410129]
 [0.6        1.60418481]
 [0.7        0.44189431]
 [0.8        1.24863789]
 [0.9        1.87159039]
 [1.         1.63743996]
 [1.09391667 0.32075193]]",1,0.282
8731029739,f,22,english,5,3,english,2024-02-01 10:30:09.474161,False,1,51,sounds\english\audio/english_318.wav,"[[  0.         -78.94407008]
 [  0.1        -91.43281566]
 [  0.2        -62.24141646]
 [  0.3         40.78211046]
 [  0.4          7.98778967]
 [  0.5        -60.8723057 ]
 [  0.6         42.28033673]
 [  0.7        -90.16378742]
 [  0.8        -93.15678143]
 [  0.9        -38.27194231]
 [  1.           2.04687585]
 [  1.09391667 -59.35018185]]","[[0.         1.36025181]
 [0.1        1.33485139]
 [0.2        0.43598096]
 [0.3        0.74688302]
 [0.4        1.69145296]
 [0.5        1.55878588]
 [0.6        0.6574677 ]
 [0.7        1.94941989]
 [0.8        1.19046703]
 [0.9        0.26844165]
 [1.         1.06188423]
 [1.09391667 1.54423822]]",1,1.566
8731029739,f,22,english,5,3,english,2024-02-01 10:30:09.474161,False,1,52,sounds\english\audio/english_780.wav,"[[  0.         -87.5022813 ]
 [  0.1         48.02010378]
 [  0.2         83.84572734]
 [  0.3          9.25847543]
 [  0.4         49.97347861]
 [  0.5        -60.69242488]
 [  0.6        -21.82497806]
 [  0.7         13.87798501]
 [  0.8         32.41479889]
 [  0.9         54.1006632 ]
 [  1.         -56.48325956]
 [  1.09391667  96.27244158]]","[[0.         1.98466869]
 [0.1        1.54311759]
 [0.2        0.61016867]
 [0.3        1.29361746]
 [0.4        0.77747475]
 [0.5        1.18422754]
 [0.6        0.82850866]
 [0.7        0.60760734]
 [0.8        0.87727466]
 [0.9        1.39371886]
 [1.         1.23252422]
 [1.09391667 0.39725777]]",1,0.847
8731029739,f,22,english,5,3,english,2024-02-01 10:30:09.474161,False,1,53,sounds\english\audio/english_356.wav,"[[  0.          32.76906958]
 [  0.1         -4.50463472]
 [  0.2         -3.50879641]
 [  0.3        -66.50182595]
 [  0.4        -41.87578379]
 [  0.5         15.06829484]
 [  0.6         -0.09178899]
 [  0.7        -46.92797448]
 [  0.8         77.06532678]
 [  0.9         26.9349071 ]
 [  1.           1.26347583]
 [  1.09391667 -52.5712343 ]]","[[0.         0.08562483]
 [0.1        0.71215991]
 [0.2        0.27192591]
 [0.3        1.84647675]
 [0.4        0.94018547]
 [0.5        0.35538969]
 [0.6        0.67852857]
 [0.7        1.60890004]
 [0.8        0.18175686]
 [0.9        1.60704056]
 [1.         0.84129373]
 [1.09391667 0.27010089]]",0,0.728
8731029739,f,22,english,5,3,english,2024-02-01 10:30:09.474161,False,1,54,sounds\english\audio/english_550.wav,"[[  0.          85.56762679]
 [  0.1        -46.94203093]
 [  0.2         10.19407412]
 [  0.3          1.47506103]
 [  0.4         18.20902046]
 [  0.5         -9.07211541]
 [  0.6         68.24492246]
 [  0.7        -55.39194289]
 [  0.8         17.18108307]
 [  0.9         23.42877298]
 [  1.           2.91525796]
 [  1.09391667  84.75217651]]","[[0.         1.30256716]
 [0.1        1.73510164]
 [0.2        0.89036326]
 [0.3        0.09950504]
 [0.4        0.7123978 ]
 [0.5        0.78286675]
 [0.6        1.57257447]
 [0.7        0.50906814]
 [0.8        0.32905773]
 [0.9        1.19492705]
 [1.         1.53585055]
 [1.09391667 0.16869385]]",1,0.578
8731029739,f,22,english,5,3,english,2024-02-01 10:30:09.474161,False,1,55,sounds\english\audio/english_611.wav,"[[  0.         -44.03154286]
 [  0.1         43.53292368]
 [  0.2        -39.32029451]
 [  0.3         56.48937501]
 [  0.4         79.97019062]
 [  0.5        -25.23129683]
 [  0.6         14.98640169]
 [  0.7         23.2049895 ]
 [  0.8        -71.91072082]
 [  0.9        -47.29216682]
 [  1.          71.77208334]
 [  1.09391667 -64.89664383]]","[[0.         0.78645575]
 [0.1        1.64980838]
 [0.2        0.9179457 ]
 [0.3        1.56943765]
 [0.4        0.89618619]
 [0.5        1.22477339]
 [0.6        1.05903803]
 [0.7        0.37835505]
 [0.8        1.6139649 ]
 [0.9        1.9176564 ]
 [1.         1.62142696]
 [1.09391667 1.10334919]]",1,0.262
8731029739,f,22,english,5,3,english,2024-02-01 10:30:09.474161,False,1,56,sounds\english\audio/english_569.wav,"[[  0.          80.86242067]
 [  0.1        -36.85440805]
 [  0.2         55.48604093]
 [  0.3        -32.48832212]
 [  0.4         34.47022209]
 [  0.5         23.79827115]
 [  0.6        -29.60411728]
 [  0.7         -3.34902879]
 [  0.8        -24.14207397]
 [  0.9         49.40170215]
 [  1.          34.30113072]
 [  1.09391667 -89.06013863]]","[[0.         1.33421849]
 [0.1        1.5057291 ]
 [0.2        1.7838276 ]
 [0.3        0.34502948]
 [0.4        1.33242051]
 [0.5        0.68239412]
 [0.6        1.41145095]
 [0.7        0.70703372]
 [0.8        0.57539158]
 [0.9        1.31553206]
 [1.         0.57675215]
 [1.09391667 1.91555697]]",1,1.649
8731029739,f,22,english,5,3,english,2024-02-01 10:30:09.474161,False,1,57,sounds\english\audio/english_732.wav,"[[  0.          -6.1655518 ]
 [  0.1        -21.68268247]
 [  0.2        -44.18505393]
 [  0.3        -99.08787178]
 [  0.4         52.69419041]
 [  0.5        -22.76801282]
 [  0.6        -68.37024344]
 [  0.7         99.79862575]
 [  0.8        -45.96985204]
 [  0.9         34.4904792 ]
 [  1.         -81.20928849]
 [  1.09391667  -1.26617119]]","[[0.         1.83743041]
 [0.1        0.45034165]
 [0.2        1.43977044]
 [0.3        1.63276402]
 [0.4        1.14410498]
 [0.5        0.80499942]
 [0.6        0.00488355]
 [0.7        1.08087267]
 [0.8        0.60546967]
 [0.9        1.53964006]
 [1.         0.59388625]
 [1.09391667 1.72169188]]",1,0.606
8731029739,f,22,english,5,3,english,2024-02-01 10:30:09.474161,False,1,58,sounds\english\audio/english_371.wav,"[[  0.          99.9242386 ]
 [  0.1         22.83023049]
 [  0.2         91.55037371]
 [  0.3          5.76311401]
 [  0.4          4.70890445]
 [  0.5        -99.6762273 ]
 [  0.6        -44.58037386]
 [  0.7        -30.18832908]
 [  0.8         69.47065737]
 [  0.9        -91.54025657]
 [  1.          20.04839549]
 [  1.09391667  43.26134408]]","[[0.         0.39669775]
 [0.1        0.78709847]
 [0.2        1.18432294]
 [0.3        0.89768316]
 [0.4        0.28448655]
 [0.5        1.11635531]
 [0.6        0.70262912]
 [0.7        1.50477642]
 [0.8        1.93681172]
 [0.9        1.02826785]
 [1.         1.64700674]
 [1.09391667 0.44264614]]",1,0.388
8731029739,f,22,english,5,3,english,2024-02-01 10:30:09.474161,False,1,59,sounds\english\audio/english_654.wav,"[[  0.         -60.45158089]
 [  0.1          9.53392367]
 [  0.2         75.34484554]
 [  0.3        -77.95617505]
 [  0.4         45.13912589]
 [  0.5        -50.515313  ]
 [  0.6          9.32431964]
 [  0.7        -34.09762813]
 [  0.8        -21.66012002]
 [  0.9        -34.25563526]
 [  1.          63.7959229 ]
 [  1.09391667 -58.04833316]]","[[0.         1.67384998]
 [0.1        1.95158047]
 [0.2        0.15197486]
 [0.3        1.81249974]
 [0.4        1.69970503]
 [0.5        0.99652043]
 [0.6        0.79094839]
 [0.7        1.33338821]
 [0.8        1.37263534]
 [0.9        0.62767279]
 [1.         1.72608881]
 [1.09391667 0.85441877]]",1,0.503
8731029739,f,22,english,5,3,english,2024-02-01 10:30:09.474161,False,1,60,sounds\english\audio/english_561.wav,"[[  0.         -40.74145274]
 [  0.1         73.1709151 ]
 [  0.2        -76.97322172]
 [  0.3        -33.73958817]
 [  0.4        -60.0926115 ]
 [  0.5         17.46588089]
 [  0.6         74.1182297 ]
 [  0.7         96.50181715]
 [  0.8         72.92112675]
 [  0.9         -4.13482892]
 [  1.          68.85388576]
 [  1.09391667 -59.51051487]]","[[0.         1.68424793]
 [0.1        1.15723577]
 [0.2        0.16061562]
 [0.3        0.71161921]
 [0.4        0.40520901]
 [0.5        1.58164625]
 [0.6        0.61549977]
 [0.7        1.28562209]
 [0.8        0.3725745 ]
 [0.9        0.83114042]
 [1.         1.94100595]
 [1.09391667 0.22020615]]",1,1.727
8731029739,f,22,english,5,3,english,2024-02-01 10:30:09.474161,False,1,61,sounds\english\audio/english_610.wav,"[[  0.         -92.84300711]
 [  0.1         84.93303095]
 [  0.2         80.17137486]
 [  0.3        -20.18134966]
 [  0.4        -20.20363531]
 [  0.5        -69.79247274]
 [  0.6         33.10957698]
 [  0.7        -20.50322303]
 [  0.8        -72.05825618]
 [  0.9          1.26743028]
 [  1.          17.12915034]
 [  1.09391667  64.76618694]]","[[0.         0.87509592]
 [0.1        1.15799642]
 [0.2        0.35067597]
 [0.3        0.73569606]
 [0.4        1.23116766]
 [0.5        0.29684789]
 [0.6        0.98948574]
 [0.7        0.76787478]
 [0.8        0.48117832]
 [0.9        0.47321928]
 [1.         0.17126553]
 [1.09391667 1.04318183]]",0,0.619
8731029739,f,22,english,5,3,english,2024-02-01 10:30:09.474161,False,1,62,sounds\english\audio/english_972.wav,"[[  0.         -23.39425143]
 [  0.1         35.85055319]
 [  0.2         67.19735569]
 [  0.3        -48.3142237 ]
 [  0.4         98.37530376]
 [  0.5         49.57162288]
 [  0.6         57.60699349]
 [  0.7        -63.06687642]
 [  0.8         66.62148397]
 [  0.9         25.13322135]
 [  1.         -29.0922144 ]
 [  1.09391667 -22.18125143]]","[[0.         1.25085973]
 [0.1        1.0698884 ]
 [0.2        1.90990051]
 [0.3        1.50553478]
 [0.4        1.59397111]
 [0.5        0.74863955]
 [0.6        0.82823128]
 [0.7        0.17780137]
 [0.8        0.09555814]
 [0.9        1.59117444]
 [1.         1.44799229]
 [1.09391667 1.21058423]]",0,0.62
8731029739,f,22,english,5,3,english,2024-02-01 10:30:09.474161,False,1,63,sounds\english\audio/english_203.wav,"[[  0.         -95.15502969]
 [  0.1         -9.00046759]
 [  0.2        -46.05673343]
 [  0.3        -80.20455434]
 [  0.4         69.34929809]
 [  0.5         52.23432308]
 [  0.6        -15.81323993]
 [  0.7         37.6557434 ]
 [  0.8         17.28698378]
 [  0.9         49.30427287]
 [  1.          75.36526211]
 [  1.09391667 -92.86270005]]","[[0.         0.13261154]
 [0.1        0.68737046]
 [0.2        1.04752223]
 [0.3        1.42056073]
 [0.4        1.98486552]
 [0.5        0.94146217]
 [0.6        0.9157491 ]
 [0.7        1.05147425]
 [0.8        0.64444213]
 [0.9        0.93595102]
 [1.         0.02848654]
 [1.09391667 1.21065321]]",0,0.899
8731029739,f,22,english,5,3,english,2024-02-01 10:30:09.474161,False,1,64,sounds\english\audio/english_392.wav,"[[  0.         -70.59184809]
 [  0.1         20.01491038]
 [  0.2         95.98809517]
 [  0.3         21.94648666]
 [  0.4         71.03226698]
 [  0.5        -27.3636698 ]
 [  0.6         41.54107295]
 [  0.7         55.82041059]
 [  0.8        -12.2991889 ]
 [  0.9        -43.37866007]
 [  1.         -72.71846832]
 [  1.09391667  17.46673253]]","[[0.         1.01325522]
 [0.1        0.99685804]
 [0.2        1.2085184 ]
 [0.3        0.87362666]
 [0.4        0.83196355]
 [0.5        1.3261039 ]
 [0.6        0.73205001]
 [0.7        1.07805115]
 [0.8        0.81193203]
 [0.9        0.58657928]
 [1.         1.75756764]
 [1.09391667 0.10018242]]",1,0.611
8731029739,f,22,english,5,3,english,2024-02-01 10:30:09.474161,False,1,65,sounds\english\audio/english_512.wav,"[[  0.         -23.56559233]
 [  0.1         44.15406219]
 [  0.2         90.2297784 ]
 [  0.3         31.62400251]
 [  0.4        -71.52797272]
 [  0.5        -17.92560707]
 [  0.6         78.14138422]
 [  0.7         -0.55474778]
 [  0.8         -0.96763975]
 [  0.9         18.83454105]
 [  1.           3.09463475]
 [  1.09391667  65.7955852 ]]","[[0.         0.34737706]
 [0.1        1.80415703]
 [0.2        1.77401658]
 [0.3        0.80962243]
 [0.4        0.21525837]
 [0.5        0.09930304]
 [0.6        0.93763429]
 [0.7        0.07747984]
 [0.8        1.28799801]
 [0.9        0.32721238]
 [1.         0.68607536]
 [1.09391667 1.62840549]]",1,0.958
8731029739,f,22,english,5,3,english,2024-02-01 10:30:09.474161,False,1,66,sounds\english\audio/english_349.wav,"[[  0.          78.21791369]
 [  0.1          9.4630269 ]
 [  0.2         -3.29994587]
 [  0.3         13.5324371 ]
 [  0.4         88.19527441]
 [  0.5          1.7504357 ]
 [  0.6        -42.50120826]
 [  0.7        -43.9320192 ]
 [  0.8        -72.26393539]
 [  0.9        -37.61612777]
 [  1.           9.822435  ]
 [  1.09391667 -46.39218801]]","[[0.         0.37053366]
 [0.1        0.06190409]
 [0.2        0.20284396]
 [0.3        0.23510746]
 [0.4        1.05287262]
 [0.5        1.51424362]
 [0.6        0.74446718]
 [0.7        1.35303028]
 [0.8        1.8690989 ]
 [0.9        1.42604643]
 [1.         1.6879771 ]
 [1.09391667 0.80624402]]",1,0.507
8731029739,f,22,english,5,3,english,2024-02-01 10:30:09.474161,False,1,67,sounds\english\audio/english_521.wav,"[[  0.           5.37787975]
 [  0.1          9.32249591]
 [  0.2          4.19745407]
 [  0.3        -75.18613478]
 [  0.4         87.02780947]
 [  0.5        -73.26225675]
 [  0.6         66.15406762]
 [  0.7         -9.80579818]
 [  0.8         17.20812603]
 [  0.9         21.88979452]
 [  1.         -69.39969828]
 [  1.09391667 -64.03153918]]","[[0.         1.11621025]
 [0.1        0.69917502]
 [0.2        0.1199413 ]
 [0.3        1.762579  ]
 [0.4        1.43452798]
 [0.5        0.23094002]
 [0.6        1.51181612]
 [0.7        1.4155143 ]
 [0.8        1.82718341]
 [0.9        1.93759588]
 [1.         1.70606784]
 [1.09391667 0.09885652]]",1,0.682
8731029739,f,22,english,5,3,english,2024-02-01 10:30:09.474161,False,1,68,sounds\english\audio/english_649.wav,"[[  0.          54.13337143]
 [  0.1         51.13672213]
 [  0.2        -46.53747516]
 [  0.3         -5.04561857]
 [  0.4        -96.10296837]
 [  0.5         91.1633791 ]
 [  0.6         40.43734858]
 [  0.7         -6.34456649]
 [  0.8        -47.75781838]
 [  0.9        -30.94847666]
 [  1.         -10.84084503]
 [  1.09391667  16.60657514]]","[[0.         0.90685718]
 [0.1        0.97028986]
 [0.2        0.5338014 ]
 [0.3        1.37151822]
 [0.4        1.19898074]
 [0.5        0.83288569]
 [0.6        1.46195871]
 [0.7        0.52535218]
 [0.8        0.56197414]
 [0.9        1.41697717]
 [1.         1.24330897]
 [1.09391667 0.55891177]]",1,0.715
8731029739,f,22,english,5,3,english,2024-02-01 10:30:09.474161,False,1,69,sounds\english\audio/english_655.wav,"[[  0.         -90.05217159]
 [  0.1        -51.53203878]
 [  0.2        -18.56413276]
 [  0.3        -32.31488117]
 [  0.4         49.43339315]
 [  0.5        -67.53322914]
 [  0.6         90.11454302]
 [  0.7         98.57977716]
 [  0.8         29.43352269]
 [  0.9         91.08820104]
 [  1.          -3.70059628]
 [  1.09391667  30.30784512]]","[[0.         1.15438405]
 [0.1        1.12188764]
 [0.2        0.95676367]
 [0.3        0.61420414]
 [0.4        0.76264188]
 [0.5        1.45400352]
 [0.6        0.06830652]
 [0.7        0.91955523]
 [0.8        0.33519017]
 [0.9        0.7797243 ]
 [1.         1.01878467]
 [1.09391667 1.55349389]]",1,0.583
8731029739,f,22,english,5,3,english,2024-02-01 10:30:09.474161,False,1,70,sounds\english\audio/english_339.wav,"[[  0.          60.63219511]
 [  0.1        -12.18568345]
 [  0.2         23.58983997]
 [  0.3        -59.19633042]
 [  0.4        -43.20945626]
 [  0.5        -32.55639825]
 [  0.6         -3.49407884]
 [  0.7         91.66463762]
 [  0.8        -80.14131412]
 [  0.9         86.26968254]
 [  1.         -20.69851377]
 [  1.09391667 -11.06601383]]","[[0.         0.54338949]
 [0.1        0.21495144]
 [0.2        0.44775719]
 [0.3        1.56952392]
 [0.4        0.76217709]
 [0.5        1.99954478]
 [0.6        0.09545273]
 [0.7        1.65140919]
 [0.8        1.37862303]
 [0.9        1.5118574 ]
 [1.         0.21342111]
 [1.09391667 1.19470184]]",0,1.156
8731029739,f,22,english,5,3,english,2024-02-01 10:30:09.474161,False,1,71,sounds\english\audio/english_505.wav,"[[  0.          91.23085556]
 [  0.1        -15.55826488]
 [  0.2         12.35940028]
 [  0.3         -0.93203898]
 [  0.4         98.55638555]
 [  0.5         89.84667018]
 [  0.6         61.88853531]
 [  0.7         19.66566337]
 [  0.8        -99.77897317]
 [  0.9        -24.29755532]
 [  1.          67.47807651]
 [  1.09391667  13.49034132]]","[[0.         0.82413934]
 [0.1        0.35004659]
 [0.2        1.21560266]
 [0.3        1.75278196]
 [0.4        1.03675584]
 [0.5        1.84604412]
 [0.6        0.6105869 ]
 [0.7        1.77513514]
 [0.8        0.3232423 ]
 [0.9        0.91185212]
 [1.         1.75020631]
 [1.09391667 1.09867425]]",1,0.506
8731029739,f,22,english,5,3,english,2024-02-01 10:30:09.474161,False,1,72,sounds\english\audio/english_707.wav,"[[  0.           7.00891716]
 [  0.1         74.96034683]
 [  0.2        -68.0333814 ]
 [  0.3         58.29848436]
 [  0.4        -84.31982667]
 [  0.5         35.8298309 ]
 [  0.6        -38.90477455]
 [  0.7         82.66036962]
 [  0.8        -14.24432163]
 [  0.9         25.44052546]
 [  1.         -83.90842928]
 [  1.09391667 -32.29890156]]","[[0.         0.72720076]
 [0.1        1.51197727]
 [0.2        0.14777377]
 [0.3        0.12739287]
 [0.4        0.76569704]
 [0.5        0.136889  ]
 [0.6        1.7747503 ]
 [0.7        1.07544151]
 [0.8        1.02550143]
 [0.9        1.01640219]
 [1.         0.78720721]
 [1.09391667 1.33640167]]",1,0.378
8731029739,f,22,english,5,3,english,2024-02-01 10:30:09.474161,False,1,73,sounds\english\audio/english_18.wav,"[[  0.         -34.26622777]
 [  0.1        -75.64955683]
 [  0.2        -27.92679038]
 [  0.3        -19.62027656]
 [  0.4        -20.32459895]
 [  0.5          0.79905947]
 [  0.6          8.10958223]
 [  0.7        -12.88361986]
 [  0.8         74.6796053 ]
 [  0.9         13.61359807]
 [  1.         -21.69070415]
 [  1.09391667 -57.34652915]]","[[0.         1.34360385]
 [0.1        1.57489552]
 [0.2        0.39363555]
 [0.3        0.89611778]
 [0.4        1.50747647]
 [0.5        0.43558214]
 [0.6        1.91834816]
 [0.7        0.90012517]
 [0.8        0.69419363]
 [0.9        0.27849068]
 [1.         0.10490824]
 [1.09391667 1.33460981]]",1,0.623
8731029739,f,22,english,5,3,english,2024-02-01 10:30:09.474161,False,1,74,sounds\english\audio/english_864.wav,"[[ 0.00000000e+00 -3.87960156e-02]
 [ 1.00000000e-01  3.81316994e+01]
 [ 2.00000000e-01 -2.70649645e+01]
 [ 3.00000000e-01  4.86299289e+01]
 [ 4.00000000e-01 -7.31690056e+01]
 [ 5.00000000e-01 -2.81080401e+01]
 [ 6.00000000e-01  4.73805694e+01]
 [ 7.00000000e-01 -9.14211748e+01]
 [ 8.00000000e-01  5.88699375e+00]
 [ 9.00000000e-01  8.83416583e+01]
 [ 1.00000000e+00 -3.67945697e+01]
 [ 1.09391667e+00 -6.07645339e+01]]","[[0.         1.23414585]
 [0.1        0.9307675 ]
 [0.2        0.03913176]
 [0.3        0.1581059 ]
 [0.4        1.26848515]
 [0.5        1.70642176]
 [0.6        1.16045112]
 [0.7        1.92718933]
 [0.8        0.86462582]
 [0.9        0.91973589]
 [1.         0.59650291]
 [1.09391667 0.61493886]]",1,1.124
8731029739,f,22,english,5,3,english,2024-02-01 10:30:09.474161,False,1,75,sounds\english\audio/english_711.wav,"[[  0.           5.56697991]
 [  0.1        -24.51973587]
 [  0.2         14.74252879]
 [  0.3         62.90835999]
 [  0.4        -30.148836  ]
 [  0.5        -90.0367138 ]
 [  0.6         23.29272454]
 [  0.7         51.00007107]
 [  0.8         -5.61877019]
 [  0.9          4.00444287]
 [  1.          81.75034051]
 [  1.09391667 -78.99678836]]","[[0.         1.20296493]
 [0.1        1.05892315]
 [0.2        0.52339911]
 [0.3        1.255633  ]
 [0.4        1.66876465]
 [0.5        0.2337908 ]
 [0.6        0.4494252 ]
 [0.7        1.6594433 ]
 [0.8        1.49925628]
 [0.9        1.73015634]
 [1.         1.46308192]
 [1.09391667 1.6603821 ]]",1,0.722
8731029739,f,22,english,5,3,english,2024-02-01 10:30:09.474161,False,1,76,sounds\english\audio/english_4.wav,"[[  0.         -33.3305161 ]
 [  0.1        -23.37326796]
 [  0.2        -42.80660343]
 [  0.3        -85.97409915]
 [  0.4         51.28251826]
 [  0.5         20.44685701]
 [  0.6         23.55063394]
 [  0.7        -22.02944006]
 [  0.8         55.64002673]
 [  0.9         43.82412807]
 [  1.          96.09742447]
 [  1.09391667  94.89276626]]","[[0.         1.1805291 ]
 [0.1        0.77631495]
 [0.2        1.23796573]
 [0.3        0.59874379]
 [0.4        0.69643725]
 [0.5        0.26804311]
 [0.6        0.13974856]
 [0.7        0.25652729]
 [0.8        0.69877455]
 [0.9        0.73036563]
 [1.         1.13065304]
 [1.09391667 0.42036746]]",1,0.711
8731029739,f,22,english,5,3,english,2024-02-01 10:30:09.474161,False,1,77,sounds\english\audio/english_921.wav,"[[  0.          31.46476347]
 [  0.1        -97.58408055]
 [  0.2         54.67506657]
 [  0.3         22.21056557]
 [  0.4          0.8393727 ]
 [  0.5        -71.57742702]
 [  0.6        -21.98162251]
 [  0.7        -45.34354294]
 [  0.8        -54.46580015]
 [  0.9        -33.00243687]
 [  1.          45.39245913]
 [  1.09391667 -24.69054897]]","[[0.         1.40929115]
 [0.1        0.95578469]
 [0.2        1.08840418]
 [0.3        0.27152021]
 [0.4        1.01175766]
 [0.5        0.91544212]
 [0.6        1.03161778]
 [0.7        1.69417828]
 [0.8        1.14800845]
 [0.9        1.17008377]
 [1.         0.19449602]
 [1.09391667 1.58975603]]",1,1.44
8731029739,f,22,english,5,3,english,2024-02-01 10:30:09.474161,False,1,78,sounds\english\audio/english_939.wav,"[[  0.         -33.98482441]
 [  0.1        -89.17430955]
 [  0.2        -37.97345474]
 [  0.3         79.55409604]
 [  0.4         80.35845891]
 [  0.5         57.74967943]
 [  0.6         95.331824  ]
 [  0.7        -67.43467621]
 [  0.8         77.22109969]
 [  0.9        -97.02318178]
 [  1.         -34.43908678]
 [  1.09391667  23.56960938]]","[[0.         0.57866671]
 [0.1        0.900261  ]
 [0.2        1.71108651]
 [0.3        0.87209051]
 [0.4        1.24315258]
 [0.5        1.96157144]
 [0.6        0.09903489]
 [0.7        1.02492766]
 [0.8        0.39705746]
 [0.9        0.35581275]
 [1.         0.10216324]
 [1.09391667 1.85713461]]",1,2.161
8731029739,f,22,english,5,3,english,2024-02-01 10:30:09.474161,False,1,79,sounds\english\audio/english_367.wav,"[[  0.          40.69288354]
 [  0.1        -87.28554983]
 [  0.2        -64.50130746]
 [  0.3         65.0554957 ]
 [  0.4        -34.90387066]
 [  0.5         29.56597753]
 [  0.6         36.50215848]
 [  0.7        -55.69798386]
 [  0.8         12.84757482]
 [  0.9        -23.54866279]
 [  1.         -55.73647309]
 [  1.09391667  79.84600893]]","[[0.         1.09000391]
 [0.1        0.74880644]
 [0.2        0.58255578]
 [0.3        0.66468618]
 [0.4        1.54627645]
 [0.5        0.56660027]
 [0.6        0.69792946]
 [0.7        1.00541299]
 [0.8        0.65534854]
 [0.9        1.89531092]
 [1.         0.87598705]
 [1.09391667 1.75535151]]",1,1.371
8731029739,f,22,english,5,3,english,2024-02-01 10:30:09.474161,False,1,80,sounds\english\audio/english_476.wav,"[[  0.          44.69659717]
 [  0.1        -34.716814  ]
 [  0.2        -37.83043351]
 [  0.3        -62.93772859]
 [  0.4         29.80105548]
 [  0.5        -19.93397346]
 [  0.6        -81.51838574]
 [  0.7        -13.12417842]
 [  0.8        -49.11622946]
 [  0.9        -40.62215118]
 [  1.         -29.85989769]
 [  1.09391667 -46.8973955 ]]","[[0.         1.41297837]
 [0.1        1.05145195]
 [0.2        0.94681533]
 [0.3        1.38886049]
 [0.4        0.50983073]
 [0.5        0.87963627]
 [0.6        0.37083783]
 [0.7        1.60201274]
 [0.8        0.02246419]
 [0.9        1.35146298]
 [1.         1.39707139]
 [1.09391667 0.19828042]]",0,1.389
8731029739,f,22,english,5,3,english,2024-02-01 10:30:09.474161,False,1,81,sounds\english\audio/english_308.wav,"[[  0.          52.24903485]
 [  0.1        -23.64626196]
 [  0.2        -51.25656168]
 [  0.3         22.90973994]
 [  0.4        -77.18224056]
 [  0.5        -15.74058407]
 [  0.6         68.28336148]
 [  0.7        -68.00125418]
 [  0.8        -28.10684377]
 [  0.9        -21.57286012]
 [  1.         -67.0126828 ]
 [  1.09391667  18.53594423]]","[[0.         1.51474705]
 [0.1        0.52665811]
 [0.2        1.02671755]
 [0.3        1.37852638]
 [0.4        1.59017097]
 [0.5        1.0350591 ]
 [0.6        1.54938004]
 [0.7        1.20956018]
 [0.8        0.88397822]
 [0.9        0.33660763]
 [1.         1.47798938]
 [1.09391667 0.24191373]]",1,0.388
8731029739,f,22,english,5,3,english,2024-02-01 10:30:09.474161,False,1,82,sounds\english\audio/english_258.wav,"[[  0.          25.58821978]
 [  0.1          7.03087627]
 [  0.2        -15.91116386]
 [  0.3        -10.18288773]
 [  0.4         -1.03622481]
 [  0.5          7.08237834]
 [  0.6        -65.85616389]
 [  0.7         61.11432003]
 [  0.8         62.35570806]
 [  0.9         64.93681849]
 [  1.         -37.74920533]
 [  1.09391667 -81.90690998]]","[[0.         1.29707378]
 [0.1        0.49566701]
 [0.2        0.43385518]
 [0.3        0.30166849]
 [0.4        0.40418484]
 [0.5        0.97614875]
 [0.6        0.50782257]
 [0.7        1.26334363]
 [0.8        1.6928405 ]
 [0.9        1.97714506]
 [1.         1.10059348]
 [1.09391667 1.23409369]]",1,1.107
8731029739,f,22,english,5,3,english,2024-02-01 10:30:09.474161,False,1,83,sounds\english\audio/english_429.wav,"[[  0.          35.99149225]
 [  0.1        -74.15243919]
 [  0.2        -66.98958389]
 [  0.3        -17.85195751]
 [  0.4        -73.89259621]
 [  0.5         79.15421071]
 [  0.6        -46.04257139]
 [  0.7        -20.15951385]
 [  0.8        -88.88014071]
 [  0.9         85.9209564 ]
 [  1.         -45.56975308]
 [  1.09391667 -32.13799224]]","[[0.         1.15996834]
 [0.1        1.78612781]
 [0.2        1.07132938]
 [0.3        0.01687876]
 [0.4        0.18602523]
 [0.5        1.63202806]
 [0.6        0.71186645]
 [0.7        1.59705108]
 [0.8        0.92556725]
 [0.9        1.19440403]
 [1.         1.44802402]
 [1.09391667 1.37788661]]",1,1.453
8731029739,f,22,english,5,3,english,2024-02-01 10:30:09.474161,False,1,84,sounds\english\audio/english_39.wav,"[[  0.          34.55093166]
 [  0.1         -1.41260387]
 [  0.2         91.9059208 ]
 [  0.3         67.91256725]
 [  0.4        -65.38565065]
 [  0.5        -78.2257863 ]
 [  0.6        -21.37966567]
 [  0.7         29.85741907]
 [  0.8        -64.93181205]
 [  0.9         27.95057541]
 [  1.           5.43341778]
 [  1.09391667 -89.64672073]]","[[0.         1.34796705]
 [0.1        0.08491471]
 [0.2        1.67265438]
 [0.3        0.89650698]
 [0.4        0.64014049]
 [0.5        1.50034896]
 [0.6        0.90896714]
 [0.7        1.5349886 ]
 [0.8        0.91983464]
 [0.9        1.17583732]
 [1.         1.89111311]
 [1.09391667 1.19651243]]",1,1.587
8731029739,f,22,english,5,3,english,2024-02-01 10:30:09.474161,False,1,85,sounds\english\audio/english_565.wav,"[[  0.          90.76087004]
 [  0.1         90.93114699]
 [  0.2        -32.37019607]
 [  0.3         77.30434891]
 [  0.4         -9.73234267]
 [  0.5        -83.24650182]
 [  0.6         21.51683352]
 [  0.7         88.66647516]
 [  0.8         21.52943084]
 [  0.9          0.60796245]
 [  1.           9.87605239]
 [  1.09391667  92.11409348]]","[[0.         0.64245812]
 [0.1        0.32525734]
 [0.2        1.091812  ]
 [0.3        0.92230791]
 [0.4        0.30031599]
 [0.5        0.39093775]
 [0.6        0.75549465]
 [0.7        1.68865449]
 [0.8        0.98033477]
 [0.9        1.75979764]
 [1.         1.41337712]
 [1.09391667 0.97633592]]",1,0.33
8731029739,f,22,english,5,3,english,2024-02-01 10:30:09.474161,False,1,86,sounds\english\audio/english_696.wav,"[[  0.          80.76263908]
 [  0.1        -81.05122768]
 [  0.2         25.61500263]
 [  0.3         25.88663843]
 [  0.4        -95.94910221]
 [  0.5        -72.42601444]
 [  0.6         24.16177071]
 [  0.7         64.95279218]
 [  0.8         52.94859059]
 [  0.9        -62.75879423]
 [  1.          30.29085573]
 [  1.09391667  95.60067697]]","[[0.         0.91509798]
 [0.1        1.74478529]
 [0.2        0.26644886]
 [0.3        1.54651286]
 [0.4        0.7055337 ]
 [0.5        0.71467656]
 [0.6        0.57693313]
 [0.7        1.47925574]
 [0.8        0.57583693]
 [0.9        1.82750547]
 [1.         0.4690012 ]
 [1.09391667 1.32087167]]",1,1.481
8731029739,f,22,english,5,3,english,2024-02-01 10:30:09.474161,False,1,87,sounds\english\audio/english_906.wav,"[[  0.          64.42168111]
 [  0.1        -75.32695158]
 [  0.2        -55.78357421]
 [  0.3         26.12850677]
 [  0.4         29.10012221]
 [  0.5          7.95357938]
 [  0.6        -42.71112843]
 [  0.7        -60.64092572]
 [  0.8        -45.42100425]
 [  0.9         59.9641991 ]
 [  1.          50.66532668]
 [  1.09391667 -51.29146387]]","[[0.         1.18257449]
 [0.1        0.45696721]
 [0.2        1.62263234]
 [0.3        0.83346952]
 [0.4        0.76465534]
 [0.5        1.66892635]
 [0.6        1.28815297]
 [0.7        1.91632775]
 [0.8        1.00822189]
 [0.9        0.39736855]
 [1.         0.09371369]
 [1.09391667 1.05932382]]",1,0.538
8731029739,f,22,english,5,3,english,2024-02-01 10:30:09.474161,False,1,88,sounds\english\audio/english_455.wav,"[[  0.          26.42834913]
 [  0.1         -7.65720218]
 [  0.2        -36.03524122]
 [  0.3         -9.36591816]
 [  0.4         74.01503077]
 [  0.5        -66.92719297]
 [  0.6        -30.7057444 ]
 [  0.7         40.84752834]
 [  0.8         15.65936383]
 [  0.9        -13.21472975]
 [  1.          44.82999828]
 [  1.09391667 -79.02570563]]","[[0.         1.62221941]
 [0.1        1.46036611]
 [0.2        1.24406571]
 [0.3        1.98304613]
 [0.4        0.42616314]
 [0.5        0.24476163]
 [0.6        1.77552442]
 [0.7        1.05242247]
 [0.8        0.70330742]
 [0.9        0.60059781]
 [1.         0.40485906]
 [1.09391667 1.70610938]]",1,1.213
8731029739,f,22,english,5,3,english,2024-02-01 10:30:09.474161,False,1,89,sounds\english\audio/english_63.wav,"[[  0.          48.80645604]
 [  0.1          3.74871088]
 [  0.2         36.66338235]
 [  0.3          0.45158548]
 [  0.4        -34.50897998]
 [  0.5         21.44979621]
 [  0.6        -13.42489637]
 [  0.7          3.18187359]
 [  0.8        -14.80243304]
 [  0.9         76.25105629]
 [  1.         -29.02472721]
 [  1.09391667 -75.42163707]]","[[0.         0.56207448]
 [0.1        0.93485315]
 [0.2        1.21075073]
 [0.3        1.91331277]
 [0.4        0.52750999]
 [0.5        1.42707635]
 [0.6        1.96742567]
 [0.7        1.57355325]
 [0.8        0.94386171]
 [0.9        0.6095205 ]
 [1.         0.97846037]
 [1.09391667 1.94412545]]",1,2.249
8731029739,f,22,english,5,3,english,2024-02-01 10:30:09.474161,False,1,90,sounds\english\audio/english_106.wav,"[[  0.          49.34223169]
 [  0.1        -45.57503338]
 [  0.2        -15.08492624]
 [  0.3        -19.8979669 ]
 [  0.4        -25.53796799]
 [  0.5         88.30993321]
 [  0.6        -64.76962788]
 [  0.7        -39.71315935]
 [  0.8         92.87896843]
 [  0.9        -52.99965121]
 [  1.          37.25809924]
 [  1.09391667  83.50306975]]","[[0.         0.13389709]
 [0.1        0.25174437]
 [0.2        0.82402432]
 [0.3        0.82208583]
 [0.4        1.38135822]
 [0.5        0.76093903]
 [0.6        0.57981415]
 [0.7        1.62636068]
 [0.8        1.17795772]
 [0.9        0.06230935]
 [1.         0.54036795]
 [1.09391667 1.72343759]]",1,1.642
8731029739,f,22,english,5,3,english,2024-02-01 10:30:09.474161,False,1,91,sounds\english\audio/english_2.wav,"[[  0.          41.22215969]
 [  0.1         63.4325041 ]
 [  0.2         30.26698033]
 [  0.3        -42.97414703]
 [  0.4         78.73420301]
 [  0.5         98.07294335]
 [  0.6        -11.43066233]
 [  0.7         98.59484661]
 [  0.8          5.98934189]
 [  0.9         12.71998757]
 [  1.          80.81444137]
 [  1.09391667 -65.72418196]]","[[0.         0.59226954]
 [0.1        1.70689004]
 [0.2        1.70278764]
 [0.3        0.93211278]
 [0.4        0.75985414]
 [0.5        1.00279357]
 [0.6        1.68044469]
 [0.7        1.4408376 ]
 [0.8        0.34467269]
 [0.9        0.3933307 ]
 [1.         0.30092676]
 [1.09391667 0.87599386]]",1,0.588
8731029739,f,22,english,5,3,english,2024-02-01 10:30:09.474161,False,1,92,sounds\english\audio/english_820.wav,"[[  0.         -90.13612519]
 [  0.1        -50.72556256]
 [  0.2        -79.00829797]
 [  0.3        -14.44339945]
 [  0.4         25.9456349 ]
 [  0.5        -28.76259068]
 [  0.6        -20.65873648]
 [  0.7         19.30633091]
 [  0.8          6.01129625]
 [  0.9        -10.90113074]
 [  1.          -2.19154449]
 [  1.09391667 -66.85311594]]","[[0.         0.91151007]
 [0.1        1.30362027]
 [0.2        0.25855126]
 [0.3        1.8078566 ]
 [0.4        1.15063196]
 [0.5        1.03640346]
 [0.6        1.10712464]
 [0.7        1.58948272]
 [0.8        1.36569453]
 [0.9        0.84663536]
 [1.         1.67108309]
 [1.09391667 1.79051546]]",1,1.131
8731029739,f,22,english,5,3,english,2024-02-01 10:30:09.474161,False,1,93,sounds\english\audio/english_504.wav,"[[  0.         -66.23189197]
 [  0.1         -7.28081394]
 [  0.2        -74.05426979]
 [  0.3         -2.17834407]
 [  0.4        -44.29553612]
 [  0.5        -21.93882769]
 [  0.6         -6.80381408]
 [  0.7          9.00050206]
 [  0.8        -19.58321875]
 [  0.9        -97.27632106]
 [  1.          94.36582119]
 [  1.09391667 -77.55415354]]","[[0.         1.64024725]
 [0.1        1.33861833]
 [0.2        0.21996253]
 [0.3        0.9295354 ]
 [0.4        0.18867482]
 [0.5        0.17745141]
 [0.6        1.36415298]
 [0.7        1.08571676]
 [0.8        1.38544941]
 [0.9        0.33380342]
 [1.         0.16971293]
 [1.09391667 0.89224977]]",1,0.536
8731029739,f,22,english,5,3,english,2024-02-01 10:30:09.474161,False,1,94,sounds\english\audio/english_132.wav,"[[  0.           0.80878803]
 [  0.1        -89.46369243]
 [  0.2        -42.02740452]
 [  0.3        -31.54071999]
 [  0.4          0.25010778]
 [  0.5         58.11815913]
 [  0.6         81.96461668]
 [  0.7        -44.50191201]
 [  0.8        -95.34081409]
 [  0.9        -97.06518429]
 [  1.           9.04827132]
 [  1.09391667  76.3058936 ]]","[[0.         1.8484575 ]
 [0.1        0.19659267]
 [0.2        0.98704764]
 [0.3        0.90975168]
 [0.4        1.48690857]
 [0.5        1.16973021]
 [0.6        0.00206468]
 [0.7        0.61136538]
 [0.8        0.53595083]
 [0.9        0.1294964 ]
 [1.         0.71465456]
 [1.09391667 0.51987053]]",1,0.641
8731029739,f,22,english,5,3,english,2024-02-01 10:30:09.474161,False,1,95,sounds\english\audio/english_163.wav,"[[  0.         -75.52696483]
 [  0.1        -50.94410786]
 [  0.2        -38.29944429]
 [  0.3        -32.57127411]
 [  0.4        -30.55941116]
 [  0.5        -14.52407307]
 [  0.6         28.48601544]
 [  0.7        -14.30599007]
 [  0.8         38.98323909]
 [  0.9        -70.97720427]
 [  1.         -31.77991107]
 [  1.09391667 -57.22342155]]","[[0.         0.21633828]
 [0.1        0.31603177]
 [0.2        1.04333718]
 [0.3        1.57763682]
 [0.4        0.14485533]
 [0.5        1.53043555]
 [0.6        0.0734581 ]
 [0.7        1.19104414]
 [0.8        0.4056819 ]
 [0.9        1.30823112]
 [1.         1.63835528]
 [1.09391667 1.03131117]]",1,0.562
8731029739,f,22,english,5,3,english,2024-02-01 10:30:09.474161,False,1,96,sounds\english\audio/english_675.wav,"[[  0.         -55.70103266]
 [  0.1        -28.01284425]
 [  0.2          7.20629908]
 [  0.3        -88.65707162]
 [  0.4        -27.84357002]
 [  0.5        -20.24546059]
 [  0.6         20.54719109]
 [  0.7        -91.70059837]
 [  0.8        -73.21008585]
 [  0.9         41.37635308]
 [  1.           8.96435743]
 [  1.09391667 -83.64569899]]","[[0.         0.31166963]
 [0.1        0.86348118]
 [0.2        0.70830416]
 [0.3        1.06551889]
 [0.4        1.20889774]
 [0.5        1.96243663]
 [0.6        0.99424305]
 [0.7        1.67190932]
 [0.8        0.91833311]
 [0.9        1.02826617]
 [1.         1.43882248]
 [1.09391667 1.75988721]]",1,0.9
8731029739,f,22,english,5,3,english,2024-02-01 10:30:09.474161,False,1,97,sounds\english\audio/english_674.wav,"[[  0.         -98.04630788]
 [  0.1        -67.7388386 ]
 [  0.2         42.66102915]
 [  0.3        -47.4601568 ]
 [  0.4         19.12628611]
 [  0.5        -84.54204909]
 [  0.6        -71.85903786]
 [  0.7         83.31217322]
 [  0.8        -12.56030822]
 [  0.9          2.8176003 ]
 [  1.          36.77486132]
 [  1.09391667  32.03385029]]","[[0.         1.00959277]
 [0.1        1.32906917]
 [0.2        0.34524669]
 [0.3        1.53911224]
 [0.4        0.37006092]
 [0.5        0.51745569]
 [0.6        0.24033901]
 [0.7        0.56180337]
 [0.8        0.37273026]
 [0.9        0.28626573]
 [1.         1.87627127]
 [1.09391667 1.91315754]]",1,3.51
8731029739,f,22,english,5,3,english,2024-02-01 10:30:09.474161,False,1,98,sounds\english\audio/english_477.wav,"[[  0.          44.11369928]
 [  0.1        -49.72421876]
 [  0.2         37.81687243]
 [  0.3        -52.5290051 ]
 [  0.4         42.12087864]
 [  0.5         -3.66730799]
 [  0.6         34.46605835]
 [  0.7         92.87725089]
 [  0.8        -80.85076749]
 [  0.9         -9.36766275]
 [  1.          76.24737873]
 [  1.09391667 -13.80306297]]","[[0.         1.39445147]
 [0.1        1.98393148]
 [0.2        1.85807547]
 [0.3        0.71490172]
 [0.4        0.37809407]
 [0.5        0.12826759]
 [0.6        0.32776618]
 [0.7        0.64947081]
 [0.8        1.06355304]
 [0.9        1.32938803]
 [1.         1.22597552]
 [1.09391667 1.00606008]]",1,0.449
8731029739,f,22,english,5,3,english,2024-02-01 10:30:09.474161,False,1,99,sounds\english\audio/english_378.wav,"[[  0.          -6.75592408]
 [  0.1        -33.28558439]
 [  0.2        -96.71642688]
 [  0.3         70.45646645]
 [  0.4         20.01443052]
 [  0.5        -69.62604827]
 [  0.6        -82.6103386 ]
 [  0.7        -53.90394432]
 [  0.8         75.60526061]
 [  0.9        -65.71007404]
 [  1.         -82.95728524]
 [  1.09391667  40.19708488]]","[[0.         1.57446733]
 [0.1        0.29285803]
 [0.2        0.09494473]
 [0.3        0.09114875]
 [0.4        0.12099564]
 [0.5        0.06996617]
 [0.6        0.89001983]
 [0.7        1.80047075]
 [0.8        1.92282567]
 [0.9        0.07000512]
 [1.         0.51793223]
 [1.09391667 1.33854892]]",1,1.228
8731029739,f,22,english,5,3,english,2024-02-01 10:30:09.474161,False,1,100,sounds\english\audio/english_196.wav,"[[ 0.00000000e+00  2.02767746e+00]
 [ 1.00000000e-01 -3.38864136e+01]
 [ 2.00000000e-01  2.22108892e+01]
 [ 3.00000000e-01  2.68443858e+01]
 [ 4.00000000e-01  5.45751314e+01]
 [ 5.00000000e-01  1.77209079e+01]
 [ 6.00000000e-01  4.64311721e+01]
 [ 7.00000000e-01  7.43025548e+01]
 [ 8.00000000e-01  2.42178378e+01]
 [ 9.00000000e-01 -1.17232829e-02]
 [ 1.00000000e+00 -5.53381983e+01]
 [ 1.09391667e+00 -5.12005151e+01]]","[[0.         0.52488194]
 [0.1        0.07938129]
 [0.2        1.27880301]
 [0.3        0.8345871 ]
 [0.4        1.20448566]
 [0.5        1.38294306]
 [0.6        1.20996935]
 [0.7        0.87104857]
 [0.8        0.98676135]
 [0.9        0.71720025]
 [1.         1.3134078 ]
 [1.09391667 0.6531164 ]]",0,0.795
8731029739,f,22,english,5,3,english,2024-02-01 10:30:09.474161,False,1,101,sounds\english\audio/english_102.wav,"[[  0.          63.84613738]
 [  0.1        -19.50774511]
 [  0.2          8.66527759]
 [  0.3         11.48698438]
 [  0.4         31.94885704]
 [  0.5        -38.92668569]
 [  0.6        -49.51123853]
 [  0.7         61.27640526]
 [  0.8        -26.83244911]
 [  0.9         49.29328507]
 [  1.          88.72427416]
 [  1.09391667  44.23475018]]","[[0.         0.68072363]
 [0.1        0.78322964]
 [0.2        1.38231374]
 [0.3        0.72244783]
 [0.4        0.35985071]
 [0.5        0.73914497]
 [0.6        1.62389413]
 [0.7        1.34969733]
 [0.8        0.03321173]
 [0.9        0.74119752]
 [1.         0.40516815]
 [1.09391667 1.39286308]]",0,0.758
8731029739,f,22,english,5,3,english,2024-02-01 10:30:09.474161,False,1,102,sounds\english\audio/english_204.wav,"[[  0.         -54.18548322]
 [  0.1        -11.27218157]
 [  0.2         57.70913134]
 [  0.3        -85.27797026]
 [  0.4         28.61054009]
 [  0.5        -36.71816677]
 [  0.6        -27.72446487]
 [  0.7         14.69142801]
 [  0.8          9.61746044]
 [  0.9         22.67127582]
 [  1.          69.36328148]
 [  1.09391667 -44.4283226 ]]","[[0.         0.4935822 ]
 [0.1        1.37686427]
 [0.2        1.17627269]
 [0.3        1.14645494]
 [0.4        1.61303053]
 [0.5        0.72559221]
 [0.6        1.95000364]
 [0.7        0.06695508]
 [0.8        1.52094915]
 [0.9        0.41034945]
 [1.         0.4470276 ]
 [1.09391667 1.93225144]]",1,1.751
8731029739,f,22,english,5,3,english,2024-02-01 10:30:09.474161,False,1,103,sounds\english\audio/english_327.wav,"[[  0.          68.47046609]
 [  0.1         85.76832326]
 [  0.2        -75.98339762]
 [  0.3         74.12796235]
 [  0.4         11.46376172]
 [  0.5         -5.50560149]
 [  0.6         27.1504605 ]
 [  0.7         27.2911911 ]
 [  0.8        -20.36547399]
 [  0.9        -51.25849452]
 [  1.          79.11844333]
 [  1.09391667 -53.98607147]]","[[0.         1.54763433]
 [0.1        1.83635771]
 [0.2        0.3050113 ]
 [0.3        0.70474203]
 [0.4        0.8224078 ]
 [0.5        0.00526041]
 [0.6        0.35213553]
 [0.7        1.7713752 ]
 [0.8        1.08380037]
 [0.9        0.55113913]
 [1.         0.59854608]
 [1.09391667 1.65860026]]",1,2.314
8731029739,f,22,english,5,3,english,2024-02-01 10:30:09.474161,False,1,104,sounds\english\audio/english_935.wav,"[[  0.         -66.017305  ]
 [  0.1        -96.46975552]
 [  0.2         41.01490818]
 [  0.3         -8.07360152]
 [  0.4         43.89693233]
 [  0.5        -91.80623652]
 [  0.6         20.19515947]
 [  0.7        -99.45471076]
 [  0.8         15.46433912]
 [  0.9         29.18172842]
 [  1.          64.82314597]
 [  1.09391667  43.21629408]]","[[0.         0.5568005 ]
 [0.1        0.64067821]
 [0.2        1.2239279 ]
 [0.3        1.1472743 ]
 [0.4        0.40023778]
 [0.5        1.34831364]
 [0.6        1.39566251]
 [0.7        0.66795844]
 [0.8        1.24993732]
 [0.9        0.82560858]
 [1.         1.15031979]
 [1.09391667 1.54604581]]",0,1.197
8731029739,f,22,english,5,3,english,2024-02-01 10:30:09.474161,False,1,105,sounds\english\audio/english_467.wav,"[[  0.          84.73520447]
 [  0.1         88.96200227]
 [  0.2         72.63675829]
 [  0.3        -11.47164633]
 [  0.4        -15.99279105]
 [  0.5        -43.82437563]
 [  0.6         43.03099958]
 [  0.7        -45.22330674]
 [  0.8         76.52363546]
 [  0.9        -64.57143565]
 [  1.         -23.20829111]
 [  1.09391667  90.56201043]]","[[0.         0.80775308]
 [0.1        0.60891261]
 [0.2        1.71596765]
 [0.3        0.15084523]
 [0.4        1.25287304]
 [0.5        1.40086837]
 [0.6        0.418933  ]
 [0.7        1.80339492]
 [0.8        0.77008525]
 [0.9        1.13088524]
 [1.         0.17124527]
 [1.09391667 1.41524886]]",0,1.013
8731029739,f,22,english,5,3,english,2024-02-01 10:30:09.474161,False,1,106,sounds\english\audio/english_438.wav,"[[  0.          91.86272704]
 [  0.1        -44.43630423]
 [  0.2         72.37874658]
 [  0.3        -59.64407805]
 [  0.4          3.98283537]
 [  0.5        -96.02756859]
 [  0.6        -93.99408703]
 [  0.7        -23.90252883]
 [  0.8        -21.6037345 ]
 [  0.9          5.15930496]
 [  1.         -88.86892037]
 [  1.09391667   6.8489947 ]]","[[0.         0.9386026 ]
 [0.1        0.33540843]
 [0.2        1.56241731]
 [0.3        1.95211947]
 [0.4        1.78538666]
 [0.5        1.14694298]
 [0.6        0.91873994]
 [0.7        0.98699904]
 [0.8        0.66470347]
 [0.9        0.74579671]
 [1.         1.08133319]
 [1.09391667 0.0772073 ]]",0,1.629
8731029739,f,22,english,5,3,english,2024-02-01 10:30:09.474161,False,1,107,sounds\english\audio/english_460.wav,"[[  0.          93.59161919]
 [  0.1        -36.24487207]
 [  0.2         34.29182357]
 [  0.3        -43.77936624]
 [  0.4         69.60343368]
 [  0.5         56.68710737]
 [  0.6        -24.24220062]
 [  0.7        -78.58314977]
 [  0.8        -13.26257127]
 [  0.9         33.19824363]
 [  1.         -40.08512875]
 [  1.09391667  22.89045037]]","[[0.         1.32448893]
 [0.1        0.9079638 ]
 [0.2        1.36589638]
 [0.3        1.17890341]
 [0.4        0.38929886]
 [0.5        0.99526671]
 [0.6        0.46581759]
 [0.7        0.29943683]
 [0.8        1.99375882]
 [0.9        1.82666883]
 [1.         1.5352094 ]
 [1.09391667 1.53552889]]",1,0.369
8731029739,f,22,english,5,3,english,2024-02-01 10:30:09.474161,False,1,108,sounds\english\audio/english_909.wav,"[[  0.          10.71027544]
 [  0.1        -48.99679887]
 [  0.2          0.10936675]
 [  0.3         -9.5972352 ]
 [  0.4         41.63700809]
 [  0.5        -54.98653808]
 [  0.6        -79.93461055]
 [  0.7        -18.97053935]
 [  0.8        -79.95487678]
 [  0.9         48.57972969]
 [  1.          81.75147214]
 [  1.09391667 -81.8755088 ]]","[[0.         0.31194576]
 [0.1        0.75562572]
 [0.2        1.15361909]
 [0.3        1.70848665]
 [0.4        1.17263968]
 [0.5        1.91472761]
 [0.6        0.74389201]
 [0.7        0.87039019]
 [0.8        0.69566776]
 [0.9        0.96721203]
 [1.         1.53411622]
 [1.09391667 1.74360808]]",1,1.062
8731029739,f,22,english,5,3,english,2024-02-01 10:30:09.474161,False,1,109,sounds\english\audio/english_206.wav,"[[  0.         -99.12855739]
 [  0.1        -89.51576504]
 [  0.2        -90.40464902]
 [  0.3        -70.32755561]
 [  0.4         78.03699917]
 [  0.5          8.07565508]
 [  0.6         38.18456427]
 [  0.7        -75.53493724]
 [  0.8         54.10683872]
 [  0.9        -40.64897969]
 [  1.          -1.29434589]
 [  1.09391667  55.83604692]]","[[0.         1.20636597]
 [0.1        0.87803278]
 [0.2        1.07282405]
 [0.3        1.36131617]
 [0.4        0.62923097]
 [0.5        1.02359746]
 [0.6        0.86752629]
 [0.7        1.35404338]
 [0.8        1.4732865 ]
 [0.9        0.47250575]
 [1.         1.31829488]
 [1.09391667 0.97831941]]",1,0.548
8731029739,f,22,english,5,3,english,2024-02-01 10:30:09.474161,False,1,110,sounds\english\audio/english_244.wav,"[[  0.         -16.89000739]
 [  0.1         13.88621899]
 [  0.2         19.5320734 ]
 [  0.3         77.5555311 ]
 [  0.4         -1.54182751]
 [  0.5        -50.64945855]
 [  0.6        -35.36321005]
 [  0.7        -43.62157267]
 [  0.8          3.96205992]
 [  0.9         54.24324678]
 [  1.          76.68152807]
 [  1.09391667 -97.15661366]]","[[0.         1.36645613]
 [0.1        0.22689892]
 [0.2        0.7498897 ]
 [0.3        0.5439009 ]
 [0.4        1.43453656]
 [0.5        1.75844179]
 [0.6        1.54599597]
 [0.7        0.6923522 ]
 [0.8        0.7002794 ]
 [0.9        1.06972568]
 [1.         1.30720641]
 [1.09391667 0.50703606]]",0,3.213
8731029739,f,22,english,5,3,english,2024-02-01 10:30:09.474161,False,1,111,sounds\english\audio/english_607.wav,"[[  0.           0.27599318]
 [  0.1         61.54655284]
 [  0.2        -45.68438061]
 [  0.3        -56.50831868]
 [  0.4         15.2577286 ]
 [  0.5        -52.12017374]
 [  0.6         97.83272545]
 [  0.7          7.21834566]
 [  0.8          8.71902974]
 [  0.9         84.51998902]
 [  1.         -21.50673836]
 [  1.09391667  68.90809966]]","[[0.         1.85195662]
 [0.1        0.01211705]
 [0.2        1.01527113]
 [0.3        0.58104245]
 [0.4        0.36467608]
 [0.5        0.76758339]
 [0.6        1.21313057]
 [0.7        1.69539972]
 [0.8        0.38171646]
 [0.9        1.4848349 ]
 [1.         0.84163241]
 [1.09391667 0.34247873]]",1,0.466
8731029739,f,22,english,5,3,english,2024-02-01 10:30:09.474161,False,1,112,sounds\english\audio/english_817.wav,"[[  0.          39.93653704]
 [  0.1        -44.37889142]
 [  0.2        -71.95009912]
 [  0.3          0.10723305]
 [  0.4         32.85070006]
 [  0.5         84.39314217]
 [  0.6        -27.64718927]
 [  0.7        -96.89614882]
 [  0.8         78.14592137]
 [  0.9        -23.71803159]
 [  1.         -89.09326047]
 [  1.09391667  -7.75099391]]","[[0.         0.59804512]
 [0.1        1.22051814]
 [0.2        1.02272202]
 [0.3        0.82768739]
 [0.4        0.75023907]
 [0.5        1.45571946]
 [0.6        1.19333558]
 [0.7        0.88124366]
 [0.8        1.40555944]
 [0.9        0.40947716]
 [1.         0.89036455]
 [1.09391667 1.8115698 ]]",1,1.008
8731029739,f,22,english,5,3,english,2024-02-01 10:30:09.474161,False,1,113,sounds\english\audio/english_998.wav,"[[  0.         -83.67346728]
 [  0.1        -68.43297462]
 [  0.2         47.84560439]
 [  0.3         71.43971258]
 [  0.4        -30.40941836]
 [  0.5         69.31214212]
 [  0.6        -95.04564508]
 [  0.7        -61.88405175]
 [  0.8         11.43915949]
 [  0.9         79.6365109 ]
 [  1.          58.29305302]
 [  1.09391667  44.0288717 ]]","[[0.         1.27391906]
 [0.1        0.75913393]
 [0.2        1.02363825]
 [0.3        1.78775676]
 [0.4        0.0961221 ]
 [0.5        1.18933693]
 [0.6        1.9379163 ]
 [0.7        1.91389769]
 [0.8        1.08895614]
 [0.9        1.52042952]
 [1.         0.38016323]
 [1.09391667 1.77799574]]",1,1.074
8731029739,f,22,english,5,3,english,2024-02-01 10:30:09.474161,False,1,114,sounds\english\audio/english_488.wav,"[[  0.          55.6354899 ]
 [  0.1        -10.72836947]
 [  0.2        -46.3197066 ]
 [  0.3         14.14356253]
 [  0.4         63.48594027]
 [  0.5        -15.52389471]
 [  0.6          1.31987166]
 [  0.7          3.643619  ]
 [  0.8          1.08608347]
 [  0.9         18.4969296 ]
 [  1.           6.83798229]
 [  1.09391667  65.10535749]]","[[0.         0.91537893]
 [0.1        1.07736676]
 [0.2        1.00419914]
 [0.3        1.03753512]
 [0.4        0.37720192]
 [0.5        1.44514108]
 [0.6        1.5314543 ]
 [0.7        1.0492436 ]
 [0.8        0.46166861]
 [0.9        1.40405736]
 [1.         1.0046827 ]
 [1.09391667 0.03299625]]",1,0.491
8731029739,f,22,english,5,3,english,2024-02-01 10:30:09.474161,False,1,115,sounds\english\audio/english_17.wav,"[[  0.         -41.3657541 ]
 [  0.1         18.52407521]
 [  0.2         28.83660917]
 [  0.3        -68.73925871]
 [  0.4         16.38358539]
 [  0.5         10.80665977]
 [  0.6        -96.31867509]
 [  0.7          3.37543051]
 [  0.8        -54.88657906]
 [  0.9         -8.55837904]
 [  1.          90.97556366]
 [  1.09391667 -99.26558204]]","[[0.         0.93042496]
 [0.1        0.57556252]
 [0.2        1.05825244]
 [0.3        1.61296419]
 [0.4        1.88532434]
 [0.5        0.93003826]
 [0.6        1.71319597]
 [0.7        0.84201525]
 [0.8        0.38884428]
 [0.9        0.28018269]
 [1.         1.36723804]
 [1.09391667 0.42314615]]",1,1.241
8731029739,f,22,english,5,3,english,2024-02-01 10:30:09.474161,False,1,116,sounds\english\audio/english_197.wav,"[[  0.          -0.52164664]
 [  0.1        -87.40194418]
 [  0.2        -52.79027246]
 [  0.3        -48.86802506]
 [  0.4         81.82701326]
 [  0.5        -49.36038243]
 [  0.6         60.40718162]
 [  0.7         23.14241749]
 [  0.8          6.00272562]
 [  0.9        -33.15203134]
 [  1.          87.44378179]
 [  1.09391667 -36.11997575]]","[[0.         0.76048058]
 [0.1        1.46601293]
 [0.2        1.17311431]
 [0.3        0.52190861]
 [0.4        0.75360033]
 [0.5        0.57280926]
 [0.6        1.08660509]
 [0.7        1.00122778]
 [0.8        0.93136252]
 [0.9        1.24898943]
 [1.         1.94648397]
 [1.09391667 0.88926449]]",1,1.343
8731029739,f,22,english,5,3,english,2024-02-01 10:30:09.474161,False,1,117,sounds\english\audio/english_959.wav,"[[  0.         -72.11702721]
 [  0.1        -40.70802273]
 [  0.2         87.64553822]
 [  0.3        -48.2331893 ]
 [  0.4        -95.5440406 ]
 [  0.5         59.94111347]
 [  0.6         91.02979874]
 [  0.7         19.11555726]
 [  0.8         75.67996803]
 [  0.9         92.01217726]
 [  1.         -10.30028839]
 [  1.09391667 -99.09748483]]","[[0.         0.58402208]
 [0.1        1.62475599]
 [0.2        1.65188883]
 [0.3        0.55484279]
 [0.4        0.6061604 ]
 [0.5        1.49451004]
 [0.6        0.05914992]
 [0.7        1.4845686 ]
 [0.8        1.97323442]
 [0.9        0.84762709]
 [1.         0.74785562]
 [1.09391667 1.91422779]]",1,0.366
8731029739,f,22,english,5,3,english,2024-02-01 10:30:09.474161,False,1,118,sounds\english\audio/english_367.wav,"[[  0.          40.69288354]
 [  0.1        -87.28554983]
 [  0.2        -64.50130746]
 [  0.3         65.0554957 ]
 [  0.4        -34.90387066]
 [  0.5         29.56597753]
 [  0.6         36.50215848]
 [  0.7        -55.69798386]
 [  0.8         12.84757482]
 [  0.9        -23.54866279]
 [  1.         -55.73647309]
 [  1.09391667  79.84600893]]","[[0.         1.09000391]
 [0.1        0.74880644]
 [0.2        0.58255578]
 [0.3        0.66468618]
 [0.4        1.54627645]
 [0.5        0.56660027]
 [0.6        0.69792946]
 [0.7        1.00541299]
 [0.8        0.65534854]
 [0.9        1.89531092]
 [1.         0.87598705]
 [1.09391667 1.75535151]]",0,0.874
8731029739,f,22,english,5,3,english,2024-02-01 10:30:09.474161,False,1,119,sounds\english\audio/english_908.wav,"[[  0.          79.90322555]
 [  0.1        -35.21263137]
 [  0.2        -45.3814443 ]
 [  0.3         27.76250809]
 [  0.4         88.9030614 ]
 [  0.5        -61.85553308]
 [  0.6        -81.1964681 ]
 [  0.7          5.34087676]
 [  0.8         54.78811936]
 [  0.9        -31.27071111]
 [  1.         -53.95963771]
 [  1.09391667  80.48331988]]","[[0.         1.59871196]
 [0.1        0.28479508]
 [0.2        1.09874794]
 [0.3        0.00174433]
 [0.4        0.67512833]
 [0.5        0.00194264]
 [0.6        0.8304753 ]
 [0.7        1.28348369]
 [0.8        0.55017108]
 [0.9        1.59638521]
 [1.         1.63592826]
 [1.09391667 1.14767612]]",1,3.162
8731029739,f,22,english,5,3,english,2024-02-01 10:30:09.474161,False,1,120,sounds\english\audio/english_411.wav,"[[  0.         -19.70973195]
 [  0.1         35.06337641]
 [  0.2        -47.07660398]
 [  0.3        -98.68669902]
 [  0.4          2.91607837]
 [  0.5         -8.99732851]
 [  0.6         57.60803457]
 [  0.7          1.53142899]
 [  0.8        -32.18919875]
 [  0.9        -92.02235415]
 [  1.          33.72578798]
 [  1.09391667  81.16053662]]","[[0.         0.11468893]
 [0.1        1.30305137]
 [0.2        1.23342094]
 [0.3        0.59067951]
 [0.4        0.74798004]
 [0.5        0.55407034]
 [0.6        1.68778529]
 [0.7        0.22674115]
 [0.8        0.93004634]
 [0.9        1.85827411]
 [1.         0.07029884]
 [1.09391667 1.14058722]]",1,1.2
8731029739,f,22,english,5,3,english,2024-02-01 10:30:09.474161,False,1,121,sounds\english\audio/english_906.wav,"[[  0.          64.42168111]
 [  0.1        -75.32695158]
 [  0.2        -55.78357421]
 [  0.3         26.12850677]
 [  0.4         29.10012221]
 [  0.5          7.95357938]
 [  0.6        -42.71112843]
 [  0.7        -60.64092572]
 [  0.8        -45.42100425]
 [  0.9         59.9641991 ]
 [  1.          50.66532668]
 [  1.09391667 -51.29146387]]","[[0.         1.18257449]
 [0.1        0.45696721]
 [0.2        1.62263234]
 [0.3        0.83346952]
 [0.4        0.76465534]
 [0.5        1.66892635]
 [0.6        1.28815297]
 [0.7        1.91632775]
 [0.8        1.00822189]
 [0.9        0.39736855]
 [1.         0.09371369]
 [1.09391667 1.05932382]]",1,0.957
8731029739,f,22,english,5,3,english,2024-02-01 10:30:09.474161,False,1,122,sounds\english\audio/english_866.wav,"[[  0.          32.13948388]
 [  0.1         38.60075831]
 [  0.2        -79.61982729]
 [  0.3        -60.72840424]
 [  0.4        -37.10812529]
 [  0.5         20.23366157]
 [  0.6        -58.420194  ]
 [  0.7         10.40447232]
 [  0.8        -52.83849426]
 [  0.9         32.83340069]
 [  1.           9.31901299]
 [  1.09391667 -17.41907809]]","[[0.         0.64921597]
 [0.1        1.48742897]
 [0.2        0.28495491]
 [0.3        0.9139307 ]
 [0.4        1.2771469 ]
 [0.5        0.5381413 ]
 [0.6        0.14669297]
 [0.7        0.11342134]
 [0.8        1.53208977]
 [0.9        0.84107623]
 [1.         1.05202157]
 [1.09391667 1.86418674]]",1,1.387
8731029739,f,22,english,5,3,english,2024-02-01 10:30:09.474161,False,1,123,sounds\english\audio/english_903.wav,"[[  0.          74.40610552]
 [  0.1        -14.0058198 ]
 [  0.2        -43.18870249]
 [  0.3         85.51038869]
 [  0.4          8.36930428]
 [  0.5        -11.10468326]
 [  0.6          0.77760872]
 [  0.7         61.82804998]
 [  0.8        -21.718638  ]
 [  0.9        -41.58529941]
 [  1.          22.99211782]
 [  1.09391667 -96.82772328]]","[[0.         1.10397813]
 [0.1        0.67044391]
 [0.2        1.06331023]
 [0.3        0.60586728]
 [0.4        0.11380816]
 [0.5        1.21530961]
 [0.6        1.48658081]
 [0.7        1.41412243]
 [0.8        0.93606202]
 [0.9        0.40038549]
 [1.         0.6748387 ]
 [1.09391667 0.72929926]]",1,0.391
8731029739,f,22,english,5,3,english,2024-02-01 10:30:09.474161,False,1,124,sounds\english\audio/english_882.wav,"[[  0.          -7.05979315]
 [  0.1         11.12287517]
 [  0.2         28.5672698 ]
 [  0.3         16.48717496]
 [  0.4          6.46389904]
 [  0.5        -33.62191601]
 [  0.6         24.95644847]
 [  0.7        -38.16076581]
 [  0.8        -79.20201093]
 [  0.9        -71.11539398]
 [  1.         -86.32031944]
 [  1.09391667 -43.4557724 ]]","[[0.         0.25493427]
 [0.1        1.40090196]
 [0.2        0.1131803 ]
 [0.3        1.17672005]
 [0.4        1.65791719]
 [0.5        1.48549593]
 [0.6        0.02678123]
 [0.7        0.84885904]
 [0.8        0.30029844]
 [0.9        0.49544308]
 [1.         0.41090122]
 [1.09391667 0.68463909]]",1,2.273
8731029739,f,22,english,5,3,english,2024-02-01 10:30:09.474161,False,1,125,sounds\english\audio/english_745.wav,"[[  0.         -47.9537983 ]
 [  0.1         10.59664377]
 [  0.2          3.22121318]
 [  0.3         66.38489409]
 [  0.4        -85.62638025]
 [  0.5         53.0870989 ]
 [  0.6         37.88737288]
 [  0.7        -50.87104403]
 [  0.8        -30.17524051]
 [  0.9         42.29036925]
 [  1.           6.95263715]
 [  1.09391667  -3.81320325]]","[[0.         1.262874  ]
 [0.1        0.45595153]
 [0.2        1.90154411]
 [0.3        1.18935698]
 [0.4        0.53454894]
 [0.5        0.07115633]
 [0.6        0.91558947]
 [0.7        0.71993263]
 [0.8        0.93591694]
 [0.9        0.99723137]
 [1.         0.85978939]
 [1.09391667 0.69941736]]",1,0.68
8731029739,f,22,english,5,3,english,2024-02-01 10:30:09.474161,False,1,126,sounds\english\audio/english_935.wav,"[[  0.         -66.017305  ]
 [  0.1        -96.46975552]
 [  0.2         41.01490818]
 [  0.3         -8.07360152]
 [  0.4         43.89693233]
 [  0.5        -91.80623652]
 [  0.6         20.19515947]
 [  0.7        -99.45471076]
 [  0.8         15.46433912]
 [  0.9         29.18172842]
 [  1.          64.82314597]
 [  1.09391667  43.21629408]]","[[0.         0.5568005 ]
 [0.1        0.64067821]
 [0.2        1.2239279 ]
 [0.3        1.1472743 ]
 [0.4        0.40023778]
 [0.5        1.34831364]
 [0.6        1.39566251]
 [0.7        0.66795844]
 [0.8        1.24993732]
 [0.9        0.82560858]
 [1.         1.15031979]
 [1.09391667 1.54604581]]",0,1.166
8731029739,f,22,english,5,3,english,2024-02-01 10:30:09.474161,False,1,127,sounds\english\audio/english_795.wav,"[[  0.          87.97989278]
 [  0.1        -23.39853739]
 [  0.2         85.15897758]
 [  0.3         30.45214085]
 [  0.4         25.21841082]
 [  0.5         36.10678603]
 [  0.6         61.48762219]
 [  0.7         14.5754085 ]
 [  0.8        -57.54329739]
 [  0.9        -73.09117399]
 [  1.          77.49994784]
 [  1.09391667  89.63116882]]","[[0.         1.59591128]
 [0.1        1.94488646]
 [0.2        0.62481037]
 [0.3        0.56488466]
 [0.4        0.81270144]
 [0.5        1.54003491]
 [0.6        1.21959161]
 [0.7        0.84714061]
 [0.8        1.28928587]
 [0.9        1.61523869]
 [1.         1.68827262]
 [1.09391667 1.85702814]]",1,1.039
8731029739,f,22,english,5,3,english,2024-02-01 10:30:09.474161,False,1,128,sounds\english\audio/english_337.wav,"[[  0.          63.30955307]
 [  0.1        -16.2405627 ]
 [  0.2        -94.40154866]
 [  0.3         75.21778114]
 [  0.4         25.54945434]
 [  0.5        -24.8991059 ]
 [  0.6         41.94064473]
 [  0.7        -52.88941207]
 [  0.8         34.33759816]
 [  0.9         11.89714474]
 [  1.         -68.13632942]
 [  1.09391667  47.32266625]]","[[0.         1.05146316]
 [0.1        1.82422784]
 [0.2        0.58494816]
 [0.3        1.0983984 ]
 [0.4        0.15013246]
 [0.5        0.80312612]
 [0.6        0.26635056]
 [0.7        1.56094221]
