subj,sex,age,language,english,french,native_lang,date,practice,block,trial,stim,pitch,stretch,response,rt
2,f,31,english,5,3,english,2024-02-07 14:23:06.611782,False,2,303,sounds\english\audio/english_412.wav,"[[  0.          26.80121406]
 [  0.1         42.5524274 ]
 [  0.2         38.73121894]
 [  0.3         55.35824973]
 [  0.4        -87.34208499]
 [  0.5         91.77879658]
 [  0.6        -99.58264321]
 [  0.7         89.55239913]
 [  0.8        -28.13161571]
 [  0.9         19.27007549]
 [  1.          60.0301485 ]
 [  1.09391667  67.95145907]]","[[0.         1.83350646]
 [0.1        0.85761925]
 [0.2        0.81318793]
 [0.3        1.83972978]
 [0.4        0.56193469]
 [0.5        1.27086462]
 [0.6        1.22553346]
 [0.7        0.34439159]
 [0.8        1.78223109]
 [0.9        1.75477532]
 [1.         0.33667923]
 [1.09391667 1.7966079 ]]",0,4.807
2,f,31,english,5,3,english,2024-02-07 14:23:06.611782,False,2,304,sounds\english\audio/english_278.wav,"[[  0.         -96.72610313]
 [  0.1        -36.86809982]
 [  0.2        -84.24626192]
 [  0.3        -29.99363641]
 [  0.4         21.41897552]
 [  0.5        -73.7985343 ]
 [  0.6        -83.05174317]
 [  0.7        -43.48487906]
 [  0.8        -48.22741203]
 [  0.9        -30.73203826]
 [  1.          22.54361358]
 [  1.09391667 -65.2249662 ]]","[[0.         0.83439052]
 [0.1        1.21055498]
 [0.2        0.05488492]
 [0.3        1.47058347]
 [0.4        0.68142996]
 [0.5        0.65955027]
 [0.6        1.54634177]
 [0.7        1.03072417]
 [0.8        0.15769377]
 [0.9        0.79374536]
 [1.         0.9877131 ]
 [1.09391667 1.82414956]]",1,1.362
2,f,31,english,5,3,english,2024-02-07 14:23:06.611782,False,2,305,sounds\english\audio/english_217.wav,"[[  0.          49.03427647]
 [  0.1         55.51339481]
 [  0.2          8.85342812]
 [  0.3         38.54994366]
 [  0.4         -2.70833959]
 [  0.5         70.3938548 ]
 [  0.6          5.12480722]
 [  0.7        -74.03796069]
 [  0.8        -33.3486243 ]
 [  0.9        -40.28599149]
 [  1.          19.2288181 ]
 [  1.09391667  28.27107092]]","[[0.         0.32664973]
 [0.1        1.39032489]
 [0.2        0.17335256]
 [0.3        0.12434027]
 [0.4        1.97912601]
 [0.5        0.49508024]
 [0.6        1.41080808]
 [0.7        0.59237566]
 [0.8        0.51007366]
 [0.9        0.60232464]
 [1.         0.62471618]
 [1.09391667 0.07651966]]",1,0.503
2,f,31,english,5,3,english,2024-02-07 14:23:06.611782,False,2,306,sounds\english\audio/english_425.wav,"[[  0.          85.86099955]
 [  0.1        -74.24278906]
 [  0.2         66.63239561]
 [  0.3         48.1989772 ]
 [  0.4        -24.59174715]
 [  0.5        -13.08814226]
 [  0.6          3.3813436 ]
 [  0.7        -77.57885428]
 [  0.8         64.2992526 ]
 [  0.9        -69.82436983]
 [  1.         -17.74567454]
 [  1.09391667  34.86644748]]","[[0.         1.60253472]
 [0.1        1.17756514]
 [0.2        1.35741875]
 [0.3        1.41012003]
 [0.4        0.10488559]
 [0.5        1.84558303]
 [0.6        1.65169658]
 [0.7        0.99070069]
 [0.8        1.03905924]
 [0.9        1.4199326 ]
 [1.         1.83949921]
 [1.09391667 1.32096962]]",0,0.395
2,f,31,english,5,3,english,2024-02-07 14:23:06.611782,False,2,307,sounds\english\audio/english_955.wav,"[[  0.          38.31421616]
 [  0.1         -0.24395343]
 [  0.2        -30.85408012]
 [  0.3         73.34311783]
 [  0.4        -91.5837752 ]
 [  0.5         57.97712299]
 [  0.6          6.73272041]
 [  0.7         -3.5280389 ]
 [  0.8        -53.89604604]
 [  0.9         42.44442799]
 [  1.         -51.31943535]
 [  1.09391667 -10.15737525]]","[[0.         0.40317625]
 [0.1        1.41770308]
 [0.2        0.82154239]
 [0.3        1.53285595]
 [0.4        0.89318017]
 [0.5        1.16313419]
 [0.6        0.62969855]
 [0.7        1.12563056]
 [0.8        0.39704544]
 [0.9        0.50354627]
 [1.         0.66246368]
 [1.09391667 0.25441039]]",1,0.222
2,f,31,english,5,3,english,2024-02-07 14:23:06.611782,False,2,308,sounds\english\audio/english_882.wav,"[[  0.          -7.05979315]
 [  0.1         11.12287517]
 [  0.2         28.5672698 ]
 [  0.3         16.48717496]
 [  0.4          6.46389904]
 [  0.5        -33.62191601]
 [  0.6         24.95644847]
 [  0.7        -38.16076581]
 [  0.8        -79.20201093]
 [  0.9        -71.11539398]
 [  1.         -86.32031944]
 [  1.09391667 -43.4557724 ]]","[[0.         0.25493427]
 [0.1        1.40090196]
 [0.2        0.1131803 ]
 [0.3        1.17672005]
 [0.4        1.65791719]
 [0.5        1.48549593]
 [0.6        0.02678123]
 [0.7        0.84885904]
 [0.8        0.30029844]
 [0.9        0.49544308]
 [1.         0.41090122]
 [1.09391667 0.68463909]]",1,0.658
2,f,31,english,5,3,english,2024-02-07 14:23:06.611782,False,2,309,sounds\english\audio/english_367.wav,"[[  0.          40.69288354]
 [  0.1        -87.28554983]
 [  0.2        -64.50130746]
 [  0.3         65.0554957 ]
 [  0.4        -34.90387066]
 [  0.5         29.56597753]
 [  0.6         36.50215848]
 [  0.7        -55.69798386]
 [  0.8         12.84757482]
 [  0.9        -23.54866279]
 [  1.         -55.73647309]
 [  1.09391667  79.84600893]]","[[0.         1.09000391]
 [0.1        0.74880644]
 [0.2        0.58255578]
 [0.3        0.66468618]
 [0.4        1.54627645]
 [0.5        0.56660027]
 [0.6        0.69792946]
 [0.7        1.00541299]
 [0.8        0.65534854]
 [0.9        1.89531092]
 [1.         0.87598705]
 [1.09391667 1.75535151]]",0,0.587
2,f,31,english,5,3,english,2024-02-07 14:23:06.611782,False,2,310,sounds\english\audio/english_462.wav,"[[  0.          78.76621738]
 [  0.1         31.47495931]
 [  0.2        -13.74936046]
 [  0.3        -80.17251448]
 [  0.4        -78.67939132]
 [  0.5         43.51355655]
 [  0.6          3.64631971]
 [  0.7        -45.69022839]
 [  0.8        -12.47954209]
 [  0.9        -13.33411056]
 [  1.          14.72637348]
 [  1.09391667 -47.88617719]]","[[0.         0.83121963]
 [0.1        1.43506309]
 [0.2        0.97721307]
 [0.3        0.92562125]
 [0.4        0.04016866]
 [0.5        0.46288791]
 [0.6        1.76703425]
 [0.7        1.40353438]
 [0.8        0.01443424]
 [0.9        0.75223744]
 [1.         0.69611535]
 [1.09391667 0.81633503]]",0,1.241
2,f,31,english,5,3,english,2024-02-07 14:23:06.611782,False,2,311,sounds\english\audio/english_201.wav,"[[  0.          38.80737773]
 [  0.1        -19.59989916]
 [  0.2         66.60738163]
 [  0.3        -56.04483053]
 [  0.4         70.74519799]
 [  0.5        -47.08782515]
 [  0.6        -82.17312899]
 [  0.7          4.63557835]
 [  0.8         13.50311248]
 [  0.9         50.05274214]
 [  1.         -76.13616328]
 [  1.09391667   8.54722281]]","[[0.         0.9006916 ]
 [0.1        0.40577957]
 [0.2        0.32844259]
 [0.3        1.02628552]
 [0.4        1.24548515]
 [0.5        0.07505998]
 [0.6        0.1226459 ]
 [0.7        1.79532837]
 [0.8        1.69109423]
 [0.9        0.91883167]
 [1.         0.81807561]
 [1.09391667 1.88316121]]",1,2.719
2,f,31,english,5,3,english,2024-02-07 14:23:06.611782,False,2,312,sounds\english\audio/english_566.wav,"[[  0.         -62.56630806]
 [  0.1        -47.88948562]
 [  0.2         32.64151801]
 [  0.3        -32.06511913]
 [  0.4         93.60270043]
 [  0.5         26.08771786]
 [  0.6         -3.7007295 ]
 [  0.7         58.86956752]
 [  0.8        -75.73304048]
 [  0.9        -35.43253665]
 [  1.         -21.03744822]
 [  1.09391667 -19.58423429]]","[[0.         1.86832625]
 [0.1        0.16089863]
 [0.2        0.0444821 ]
 [0.3        1.57257602]
 [0.4        1.42885531]
 [0.5        1.38538324]
 [0.6        1.01058653]
 [0.7        0.52217054]
 [0.8        1.32659726]
 [0.9        0.88864926]
 [1.         1.19784945]
 [1.09391667 0.92748285]]",0,0.658
2,f,31,english,5,3,english,2024-02-07 14:23:06.611782,False,2,313,sounds\english\audio/english_897.wav,"[[  0.          91.54141142]
 [  0.1         20.06999674]
 [  0.2        -60.17862007]
 [  0.3         22.55775305]
 [  0.4        -29.18349392]
 [  0.5         -4.34715828]
 [  0.6          3.54639982]
 [  0.7         14.95981451]
 [  0.8         79.03500803]
 [  0.9         89.82097388]
 [  1.         -18.02507746]
 [  1.09391667 -21.60386418]]","[[0.         0.1445201 ]
 [0.1        1.86000345]
 [0.2        0.67850772]
 [0.3        0.042785  ]
 [0.4        0.33792534]
 [0.5        1.54286554]
 [0.6        1.41726271]
 [0.7        0.22962892]
 [0.8        0.98987379]
 [0.9        0.31366212]
 [1.         0.34929613]
 [1.09391667 1.95291291]]",1,0.22
2,f,31,english,5,3,english,2024-02-07 14:23:06.611782,False,2,314,sounds\english\audio/english_757.wav,"[[  0.          26.0154679 ]
 [  0.1        -81.78316815]
 [  0.2         24.8129191 ]
 [  0.3        -92.40862689]
 [  0.4         75.32531846]
 [  0.5        -66.35281637]
 [  0.6         -7.38230753]
 [  0.7         87.06226271]
 [  0.8         39.69275954]
 [  0.9        -78.28701329]
 [  1.         -77.31255291]
 [  1.09391667  70.90825389]]","[[0.         0.86626914]
 [0.1        1.8292062 ]
 [0.2        0.11166618]
 [0.3        1.6321581 ]
 [0.4        1.47340274]
 [0.5        0.8022413 ]
 [0.6        0.64841019]
 [0.7        0.78666377]
 [0.8        0.73828249]
 [0.9        1.08245488]
 [1.         1.44296588]
 [1.09391667 0.56236939]]",0,0.312
2,f,31,english,5,3,english,2024-02-07 14:23:06.611782,False,2,315,sounds\english\audio/english_242.wav,"[[  0.         -30.80596233]
 [  0.1         81.43519329]
 [  0.2          0.15400576]
 [  0.3        -28.81783402]
 [  0.4        -61.37671682]
 [  0.5         91.85520167]
 [  0.6        -31.54320731]
 [  0.7        -13.97670537]
 [  0.8         70.42044267]
 [  0.9        -90.04203145]
 [  1.         -39.83004077]
 [  1.09391667 -14.25442636]]","[[0.         1.80753385]
 [0.1        0.97833747]
 [0.2        1.3926845 ]
 [0.3        1.42545381]
 [0.4        0.1849233 ]
 [0.5        1.35548931]
 [0.6        1.15661389]
 [0.7        1.66148537]
 [0.8        1.4780344 ]
 [0.9        1.37692841]
 [1.         0.38948234]
 [1.09391667 1.25473686]]",0,0.139
2,f,31,english,5,3,english,2024-02-07 14:23:06.611782,False,2,316,sounds\english\audio/english_567.wav,"[[  0.         -50.9933631 ]
 [  0.1         31.36220977]
 [  0.2         13.5680641 ]
 [  0.3        -18.75410864]
 [  0.4        -57.83772282]
 [  0.5         90.76203665]
 [  0.6        -98.97367079]
 [  0.7         53.61923561]
 [  0.8         -3.57099992]
 [  0.9         94.7090793 ]
 [  1.          93.07088687]
 [  1.09391667 -71.18485827]]","[[0.         1.16123569]
 [0.1        0.07564958]
 [0.2        0.67264934]
 [0.3        0.76417436]
 [0.4        0.9716426 ]
 [0.5        1.19685833]
 [0.6        0.6509574 ]
 [0.7        1.78514313]
 [0.8        1.44408837]
 [0.9        0.5179509 ]
 [1.         1.46519298]
 [1.09391667 0.55032839]]",0,0.67
2,f,31,english,5,3,english,2024-02-07 14:23:06.611782,False,2,317,sounds\english\audio/english_50.wav,"[[  0.         -32.36494138]
 [  0.1         76.6244439 ]
 [  0.2        -16.62217643]
 [  0.3         63.40850527]
 [  0.4         68.81783594]
 [  0.5        -35.17384088]
 [  0.6         42.93688325]
 [  0.7        -82.21044816]
 [  0.8        -42.73245843]
 [  0.9         -3.13393134]
 [  1.         -86.41078269]
 [  1.09391667  14.80187439]]","[[0.         1.37054129]
 [0.1        1.57215181]
 [0.2        1.07317842]
 [0.3        0.82623857]
 [0.4        0.72038729]
 [0.5        1.90936147]
 [0.6        0.3744962 ]
 [0.7        0.69245834]
 [0.8        0.60585647]
 [0.9        1.24840552]
 [1.         0.02488175]
 [1.09391667 1.59728167]]",1,0.296
2,f,31,english,5,3,english,2024-02-07 14:23:06.611782,False,2,318,sounds\english\audio/english_721.wav,"[[  0.         -21.91327124]
 [  0.1        -90.20435546]
 [  0.2         95.69234683]
 [  0.3         22.1637049 ]
 [  0.4         11.60833415]
 [  0.5        -18.08358407]
 [  0.6        -18.19761364]
 [  0.7         68.04091508]
 [  0.8         78.50797801]
 [  0.9        -26.72259946]
 [  1.          -5.45523717]
 [  1.09391667   8.48352437]]","[[0.         0.70003707]
 [0.1        0.21927921]
 [0.2        1.46481191]
 [0.3        0.791078  ]
 [0.4        1.28893612]
 [0.5        1.03888409]
 [0.6        1.04801609]
 [0.7        1.56253366]
 [0.8        1.28640088]
 [0.9        0.27215185]
 [1.         0.551057  ]
 [1.09391667 1.19022125]]",0,0.982
2,f,31,english,5,3,english,2024-02-07 14:23:06.611782,False,2,319,sounds\english\audio/english_741.wav,"[[  0.         -52.58118809]
 [  0.1         12.25497131]
 [  0.2        -66.99465096]
 [  0.3         33.21075969]
 [  0.4        -80.7229313 ]
 [  0.5         33.52953563]
 [  0.6        -70.06014591]
 [  0.7         74.24671254]
 [  0.8        -72.74719072]
 [  0.9         -6.6044487 ]
 [  1.          14.62137165]
 [  1.09391667  -3.50523329]]","[[0.         0.04069066]
 [0.1        1.79280913]
 [0.2        1.62861486]
 [0.3        1.99142518]
 [0.4        0.68846699]
 [0.5        0.95565852]
 [0.6        1.55389223]
 [0.7        0.39415735]
 [0.8        1.19562483]
 [0.9        1.16664034]
 [1.         0.62122377]
 [1.09391667 0.83751938]]",0,2.709
2,f,31,english,5,3,english,2024-02-07 14:23:06.611782,False,2,320,sounds\english\audio/english_556.wav,"[[  0.         -68.09670747]
 [  0.1          8.96692918]
 [  0.2        -46.83531772]
 [  0.3        -87.32202155]
 [  0.4         49.65406328]
 [  0.5         92.65716025]
 [  0.6        -17.76161657]
 [  0.7        -85.77085821]
 [  0.8        -31.44799715]
 [  0.9        -32.59755967]
 [  1.         -96.2091504 ]
 [  1.09391667  -0.57982779]]","[[0.         1.3485974 ]
 [0.1        0.84698507]
 [0.2        0.06218337]
 [0.3        0.66181265]
 [0.4        1.9600464 ]
 [0.5        0.67849191]
 [0.6        0.9118753 ]
 [0.7        0.73811047]
 [0.8        0.91861979]
 [0.9        1.18816365]
 [1.         1.86623217]
 [1.09391667 0.61760757]]",1,0.444
2,f,31,english,5,3,english,2024-02-07 14:23:06.611782,False,2,321,sounds\english\audio/english_151.wav,"[[  0.         -96.58356516]
 [  0.1         53.33507439]
 [  0.2         23.26881474]
 [  0.3         89.03249778]
 [  0.4        -38.82793041]
 [  0.5        -36.66004779]
 [  0.6         67.28889671]
 [  0.7         -0.40239481]
 [  0.8        -91.46427785]
 [  0.9         42.06624713]
 [  1.         -44.58654352]
 [  1.09391667  65.09222406]]","[[0.         1.19663116]
 [0.1        0.02049529]
 [0.2        0.86701839]
 [0.3        0.68926078]
 [0.4        0.60287098]
 [0.5        1.21623164]
 [0.6        0.80619928]
 [0.7        0.32656555]
 [0.8        1.24233336]
 [0.9        0.88095947]
 [1.         1.51580141]
 [1.09391667 0.37134413]]",1,0.231
2,f,31,english,5,3,english,2024-02-07 14:23:06.611782,False,2,322,sounds\english\audio/english_822.wav,"[[  0.         -57.24532264]
 [  0.1         -0.6561153 ]
 [  0.2         20.41316559]
 [  0.3         41.70802905]
 [  0.4        -77.9443686 ]
 [  0.5         63.06825284]
 [  0.6        -26.82945761]
 [  0.7        -92.61277401]
 [  0.8        -55.75237854]
 [  0.9        -53.36958595]
 [  1.          65.67162204]
 [  1.09391667  97.68319671]]","[[0.         1.07162112]
 [0.1        1.88043926]
 [0.2        0.90199971]
 [0.3        0.26893632]
 [0.4        1.26571685]
 [0.5        1.37105199]
 [0.6        1.3296767 ]
 [0.7        1.89258001]
 [0.8        1.15705119]
 [0.9        0.11001008]
 [1.         0.72053282]
 [1.09391667 1.63006682]]",1,0.348
2,f,31,english,5,3,english,2024-02-07 14:23:06.611782,False,2,323,sounds\english\audio/english_434.wav,"[[  0.          50.47761392]
 [  0.1        -33.38487677]
 [  0.2         -6.35895817]
 [  0.3         58.81206484]
 [  0.4          2.00815972]
 [  0.5        -28.96305016]
 [  0.6        -44.65800209]
 [  0.7         -3.89112712]
 [  0.8        -49.09619099]
 [  0.9        -79.81092904]
 [  1.          72.91556136]
 [  1.09391667  -8.48383865]]","[[0.         1.72511711]
 [0.1        0.67409863]
 [0.2        0.85225266]
 [0.3        1.03084546]
 [0.4        0.30841411]
 [0.5        0.11116274]
 [0.6        0.82038961]
 [0.7        1.79901884]
 [0.8        1.01461121]
 [0.9        1.16161114]
 [1.         1.34038877]
 [1.09391667 1.19926856]]",1,0.667
2,f,31,english,5,3,english,2024-02-07 14:23:06.611782,False,2,324,sounds\english\audio/english_272.wav,"[[  0.         -52.99211904]
 [  0.1        -25.71564607]
 [  0.2        -56.58642074]
 [  0.3        -87.92268727]
 [  0.4        -77.06370831]
 [  0.5         85.07000432]
 [  0.6         13.520854  ]
 [  0.7         85.24542971]
 [  0.8         21.00568548]
 [  0.9         47.91949332]
 [  1.          -9.98443485]
 [  1.09391667  -3.7192884 ]]","[[0.         1.4863423 ]
 [0.1        1.69746599]
 [0.2        0.8962104 ]
 [0.3        1.48386127]
 [0.4        1.12180502]
 [0.5        1.22395179]
 [0.6        1.22503653]
 [0.7        0.66217064]
 [0.8        1.40926924]
 [0.9        0.42323382]
 [1.         1.68730728]
 [1.09391667 1.76864858]]",0,0.599
2,f,31,english,5,3,english,2024-02-07 14:23:06.611782,False,2,325,sounds\english\audio/english_605.wav,"[[  0.          -8.49945262]
 [  0.1         78.59318703]
 [  0.2          5.51226276]
 [  0.3        -57.71623977]
 [  0.4        -16.40155513]
 [  0.5         65.3464243 ]
 [  0.6         75.43847502]
 [  0.7        -23.5169708 ]
 [  0.8         90.90480097]
 [  0.9          2.3218264 ]
 [  1.         -54.16543883]
 [  1.09391667 -30.94766284]]","[[0.         0.18632105]
 [0.1        0.57386106]
 [0.2        1.08904108]
 [0.3        1.06659478]
 [0.4        1.07197466]
 [0.5        0.99856442]
 [0.6        1.20108487]
 [0.7        0.82408686]
 [0.8        1.4403859 ]
 [0.9        1.38639998]
 [1.         0.92793051]
 [1.09391667 1.95794577]]",0,1.563
2,f,31,english,5,3,english,2024-02-07 14:23:06.611782,False,2,326,sounds\english\audio/english_480.wav,"[[  0.           9.88794778]
 [  0.1        -95.33959947]
 [  0.2        -71.35423478]
 [  0.3        -83.02465504]
 [  0.4         44.94534434]
 [  0.5         90.60802244]
 [  0.6        -21.26982867]
 [  0.7          9.71569321]
 [  0.8        -55.27404123]
 [  0.9         -2.41346819]
 [  1.          56.20871311]
 [  1.09391667 -52.83193459]]","[[0.         0.87231247]
 [0.1        0.98456716]
 [0.2        0.16901934]
 [0.3        0.73359769]
 [0.4        1.77352581]
 [0.5        0.80191765]
 [0.6        1.98344476]
 [0.7        1.54524915]
 [0.8        1.67546329]
 [0.9        1.13666865]
 [1.         1.61861075]
 [1.09391667 1.31490021]]",0,0.195
2,f,31,english,5,3,english,2024-02-07 14:23:06.611782,False,2,327,sounds\english\audio/english_910.wav,"[[  0.          93.46024718]
 [  0.1        -38.0106705 ]
 [  0.2        -30.70791106]
 [  0.3        -49.1070975 ]
 [  0.4         91.46247689]
 [  0.5         78.82386136]
 [  0.6         -6.45155929]
 [  0.7        -83.2103546 ]
 [  0.8        -83.88050829]
 [  0.9        -99.45548406]
 [  1.          66.97768693]
 [  1.09391667  38.56846955]]","[[0.         0.69074333]
 [0.1        0.32933862]
 [0.2        1.76708997]
 [0.3        0.49648564]
 [0.4        1.45285745]
 [0.5        1.00544929]
 [0.6        1.307348  ]
 [0.7        0.52979989]
 [0.8        1.11439341]
 [0.9        1.95169189]
 [1.         1.74620984]
 [1.09391667 0.09671244]]",1,0.057
2,f,31,english,5,3,english,2024-02-07 14:23:06.611782,False,2,328,sounds\english\audio/english_761.wav,"[[  0.         -80.97330145]
 [  0.1        -87.8498671 ]
 [  0.2        -46.50669934]
 [  0.3         59.20965722]
 [  0.4        -35.71104214]
 [  0.5        -52.81542402]
 [  0.6         31.64937697]
 [  0.7         29.30310565]
 [  0.8        -83.11546178]
 [  0.9          4.4057425 ]
 [  1.          40.14606476]
 [  1.09391667 -16.15452459]]","[[0.         0.75841869]
 [0.1        0.93275546]
 [0.2        1.71329225]
 [0.3        1.0347089 ]
 [0.4        1.01687932]
 [0.5        0.41101951]
 [0.6        0.68065775]
 [0.7        1.83101612]
 [0.8        0.13402502]
 [0.9        1.22130523]
 [1.         0.44607754]
 [1.09391667 1.73687105]]",1,0.2
2,f,31,english,5,3,english,2024-02-07 14:23:06.611782,False,2,329,sounds\english\audio/english_115.wav,"[[  0.         -26.06400201]
 [  0.1         28.0769801 ]
 [  0.2          0.22454624]
 [  0.3         56.47311496]
 [  0.4         -7.56064775]
 [  0.5        -63.44787447]
 [  0.6        -52.68338839]
 [  0.7         37.43443466]
 [  0.8        -32.93332061]
 [  0.9         74.83402321]
 [  1.         -11.65316277]
 [  1.09391667 -63.92247639]]","[[0.         1.03170605]
 [0.1        0.8133226 ]
 [0.2        0.23304389]
 [0.3        0.50394373]
 [0.4        1.43876449]
 [0.5        0.35899171]
 [0.6        1.5505321 ]
 [0.7        0.2049404 ]
 [0.8        0.392349  ]
 [0.9        1.84542686]
 [1.         0.75053433]
 [1.09391667 1.42014848]]",1,0.224
2,f,31,english,5,3,english,2024-02-07 14:23:06.611782,False,2,330,sounds\english\audio/english_387.wav,"[[  0.          67.80075556]
 [  0.1          2.91528807]
 [  0.2        -96.71759945]
 [  0.3          0.93195301]
 [  0.4         64.10102677]
 [  0.5         50.38025389]
 [  0.6         73.00593199]
 [  0.7         18.93402178]
 [  0.8         35.76134207]
 [  0.9         32.66910334]
 [  1.          89.60787906]
 [  1.09391667   4.26061553]]","[[0.00000000e+00 1.22772109e-03]
 [1.00000000e-01 1.63436641e+00]
 [2.00000000e-01 9.42533102e-01]
 [3.00000000e-01 6.58001898e-01]
 [4.00000000e-01 1.57469290e+00]
 [5.00000000e-01 7.11925794e-01]
 [6.00000000e-01 1.61187408e+00]
 [7.00000000e-01 1.34608703e+00]
 [8.00000000e-01 1.45549790e+00]
 [9.00000000e-01 1.18157589e-01]
 [1.00000000e+00 9.29482496e-01]
 [1.09391667e+00 1.40897442e+00]]",1,5.123
2,f,31,english,5,3,english,2024-02-07 14:23:06.611782,False,2,331,sounds\english\audio/english_406.wav,"[[  0.          16.41054839]
 [  0.1        -23.44264217]
 [  0.2         67.00437835]
 [  0.3         32.24147439]
 [  0.4        -69.94095423]
 [  0.5        -75.95608649]
 [  0.6         26.64856795]
 [  0.7         28.46707033]
 [  0.8          8.57252797]
 [  0.9        -43.42045484]
 [  1.         -38.23728815]
 [  1.09391667 -48.66780803]]","[[0.         1.82011871]
 [0.1        1.5788444 ]
 [0.2        0.98241909]
 [0.3        1.73565394]
 [0.4        0.23880913]
 [0.5        1.64825439]
 [0.6        1.51416343]
 [0.7        0.23765412]
 [0.8        0.78664096]
 [0.9        1.03412093]
 [1.         1.06202892]
 [1.09391667 0.40663901]]",0,2.336
2,f,31,english,5,3,english,2024-02-07 14:23:06.611782,False,2,332,sounds\english\audio/english_693.wav,"[[  0.         -75.67975091]
 [  0.1         -0.67488573]
 [  0.2          8.83748606]
 [  0.3         46.84016051]
 [  0.4        -13.00761781]
 [  0.5         14.23719318]
 [  0.6         42.52615101]
 [  0.7         65.43388412]
 [  0.8         -9.43344372]
 [  0.9        -30.43290339]
 [  1.         -71.43466109]
 [  1.09391667  22.00910114]]","[[0.         0.6706819 ]
 [0.1        0.70747017]
 [0.2        1.043537  ]
 [0.3        1.06639289]
 [0.4        1.65543462]
 [0.5        1.13988087]
 [0.6        0.88807521]
 [0.7        1.6314593 ]
 [0.8        1.91739549]
 [0.9        1.30579352]
 [1.         1.06179133]
 [1.09391667 0.90887908]]",0,0.156
2,f,31,english,5,3,english,2024-02-07 14:23:06.611782,False,2,333,sounds\english\audio/english_686.wav,"[[  0.         -67.05425971]
 [  0.1        -39.97086024]
 [  0.2        -95.68334926]
 [  0.3         95.25173903]
 [  0.4        -32.8311948 ]
 [  0.5        -48.95766653]
 [  0.6          1.46673541]
 [  0.7          2.82521342]
 [  0.8        -50.40490355]
 [  0.9        -13.31081272]
 [  1.          86.45331077]
 [  1.09391667  27.45785802]]","[[0.         1.70124543]
 [0.1        0.46826984]
 [0.2        0.38007699]
 [0.3        1.75748907]
 [0.4        0.73728226]
 [0.5        0.66391126]
 [0.6        0.49234924]
 [0.7        1.58569933]
 [0.8        0.73602174]
 [0.9        0.69160948]
 [1.         1.60918627]
 [1.09391667 0.82158227]]",1,1.894
2,f,31,english,5,3,english,2024-02-07 14:23:06.611782,False,2,334,sounds\english\audio/english_806.wav,"[[  0.          43.54674573]
 [  0.1        -68.74197722]
 [  0.2        -23.84581235]
 [  0.3        -72.86002473]
 [  0.4        -35.27978776]
 [  0.5         -2.08559415]
 [  0.6        -68.55515823]
 [  0.7        -32.41040243]
 [  0.8         43.35004903]
 [  0.9         -2.04848196]
 [  1.           6.21691759]
 [  1.09391667 -62.57800707]]","[[0.         1.38359874]
 [0.1        1.64152579]
 [0.2        1.16928597]
 [0.3        0.86357206]
 [0.4        0.73652759]
 [0.5        0.11615926]
 [0.6        0.96374449]
 [0.7        1.00194659]
 [0.8        0.5470064 ]
 [0.9        0.25999945]
 [1.         0.37115798]
 [1.09391667 1.34941772]]",1,0.292
2,f,31,english,5,3,english,2024-02-07 14:23:06.611782,False,2,335,sounds\english\audio/english_35.wav,"[[ 0.00000000e+00 -3.32471352e+01]
 [ 1.00000000e-01 -5.69991421e+01]
 [ 2.00000000e-01 -5.31410250e+01]
 [ 3.00000000e-01 -9.74707920e+01]
 [ 4.00000000e-01  2.52422215e+01]
 [ 5.00000000e-01 -3.90524292e+01]
 [ 6.00000000e-01 -9.90462998e+01]
 [ 7.00000000e-01  4.80059539e+01]
 [ 8.00000000e-01  7.34220257e+01]
 [ 9.00000000e-01 -4.18143130e+01]
 [ 1.00000000e+00  4.06702180e-02]
 [ 1.09391667e+00  3.42858519e+01]]","[[0.         0.63198815]
 [0.1        0.43394686]
 [0.2        1.61809769]
 [0.3        0.75167401]
 [0.4        0.72143441]
 [0.5        1.49847169]
 [0.6        0.81761607]
 [0.7        1.11392086]
 [0.8        1.25690952]
 [0.9        1.7324837 ]
 [1.         0.64426718]
 [1.09391667 1.0286628 ]]",0,0.631
2,f,31,english,5,3,english,2024-02-07 14:23:06.611782,False,2,336,sounds\english\audio/english_559.wav,"[[  0.         -22.58359419]
 [  0.1        -30.96921825]
 [  0.2        -86.1378048 ]
 [  0.3         29.82360498]
 [  0.4         38.1322139 ]
 [  0.5         58.32762061]
 [  0.6         22.70409536]
 [  0.7        -21.11680564]
 [  0.8         76.91113815]
 [  0.9        -79.88102102]
 [  1.          83.63275499]
 [  1.09391667 -89.81944345]]","[[0.         0.41474403]
 [0.1        0.71205907]
 [0.2        1.69519751]
 [0.3        1.01062692]
 [0.4        1.05592913]
 [0.5        0.6684902 ]
 [0.6        0.92808907]
 [0.7        1.67728702]
 [0.8        0.99155685]
 [0.9        1.28910569]
 [1.         1.70810559]
 [1.09391667 1.28508404]]",0,0.101
2,f,31,english,5,3,english,2024-02-07 14:23:06.611782,False,2,337,sounds\english\audio/english_915.wav,"[[  0.         -21.98271396]
 [  0.1          1.0207487 ]
 [  0.2         23.02274493]
 [  0.3         85.32608832]
 [  0.4        -33.34189035]
 [  0.5         29.21421043]
 [  0.6         56.26543798]
 [  0.7          7.71467122]
 [  0.8         88.21567756]
 [  0.9        -50.54904275]
 [  1.         -64.3056321 ]
 [  1.09391667 -64.41259803]]","[[0.         1.11106838]
 [0.1        1.44455779]
 [0.2        1.42587556]
 [0.3        1.47521249]
 [0.4        1.68905856]
 [0.5        1.40181913]
 [0.6        1.46869984]
 [0.7        0.70433786]
 [0.8        1.11015014]
 [0.9        0.72100932]
 [1.         1.02681764]
 [1.09391667 0.869897  ]]",1,1.848
2,f,31,english,5,3,english,2024-02-07 14:23:06.611782,False,2,338,sounds\english\audio/english_153.wav,"[[  0.         -22.0137653 ]
 [  0.1         21.87420495]
 [  0.2         78.88032694]
 [  0.3         68.02596654]
 [  0.4         52.06150723]
 [  0.5        -15.64198183]
 [  0.6        -55.92218577]
 [  0.7         45.74926524]
 [  0.8         13.43145428]
 [  0.9        -40.59369693]
 [  1.          14.2660924 ]
 [  1.09391667  62.05558257]]","[[0.         0.27160884]
 [0.1        0.44150389]
 [0.2        1.08191418]
 [0.3        0.18142841]
 [0.4        0.17455202]
 [0.5        1.88425449]
 [0.6        1.64687285]
 [0.7        1.52678411]
 [0.8        1.81629534]
 [0.9        0.8186826 ]
 [1.         0.36511419]
 [1.09391667 1.38161287]]",0,0.707
2,f,31,english,5,3,english,2024-02-07 14:23:06.611782,False,2,339,sounds\english\audio/english_909.wav,"[[  0.          10.71027544]
 [  0.1        -48.99679887]
 [  0.2          0.10936675]
 [  0.3         -9.5972352 ]
 [  0.4         41.63700809]
 [  0.5        -54.98653808]
 [  0.6        -79.93461055]
 [  0.7        -18.97053935]
 [  0.8        -79.95487678]
 [  0.9         48.57972969]
 [  1.          81.75147214]
 [  1.09391667 -81.8755088 ]]","[[0.         0.31194576]
 [0.1        0.75562572]
 [0.2        1.15361909]
 [0.3        1.70848665]
 [0.4        1.17263968]
 [0.5        1.91472761]
 [0.6        0.74389201]
 [0.7        0.87039019]
 [0.8        0.69566776]
 [0.9        0.96721203]
 [1.         1.53411622]
 [1.09391667 1.74360808]]",1,0.273
2,f,31,english,5,3,english,2024-02-07 14:23:06.611782,False,2,340,sounds\english\audio/english_608.wav,"[[  0.          51.7664081 ]
 [  0.1        -80.54246428]
 [  0.2        -77.98130797]
 [  0.3         25.40612748]
 [  0.4        -25.13261416]
 [  0.5        -47.23330204]
 [  0.6         80.77508225]
 [  0.7        -91.19719701]
 [  0.8        -56.07696763]
 [  0.9        -57.98593589]
 [  1.          87.03595353]
 [  1.09391667 -36.96026424]]","[[0.         1.51537713]
 [0.1        0.15028224]
 [0.2        1.81254149]
 [0.3        1.88904665]
 [0.4        0.02307613]
 [0.5        1.59293411]
 [0.6        1.34709582]
 [0.7        0.43937258]
 [0.8        1.30698023]
 [0.9        1.72852212]
 [1.         1.13440146]
 [1.09391667 1.09789882]]",1,0.152
2,f,31,english,5,3,english,2024-02-07 14:23:06.611782,False,2,341,sounds\english\audio/english_459.wav,"[[  0.          18.44381796]
 [  0.1         46.92875809]
 [  0.2         -3.83763253]
 [  0.3        -48.73372346]
 [  0.4        -14.92000294]
 [  0.5         80.1348202 ]
 [  0.6        -86.26167397]
 [  0.7         -1.56579515]
 [  0.8        -19.43568929]
 [  0.9          7.94105636]
 [  1.          85.15006258]
 [  1.09391667 -33.12026838]]","[[0.         0.62620118]
 [0.1        1.02677372]
 [0.2        0.887778  ]
 [0.3        0.9749461 ]
 [0.4        0.21389959]
 [0.5        0.5331643 ]
 [0.6        0.89101651]
 [0.7        1.30262719]
 [0.8        1.62880583]
 [0.9        1.73371658]
 [1.         0.16404372]
 [1.09391667 1.85143865]]",0,0.15
2,f,31,english,5,3,english,2024-02-07 14:23:06.611782,False,2,342,sounds\english\audio/english_798.wav,"[[  0.         -67.02841194]
 [  0.1        -61.53416047]
 [  0.2         58.59657868]
 [  0.3         29.19204806]
 [  0.4         23.45650743]
 [  0.5         68.99571545]
 [  0.6        -55.06633408]
 [  0.7        -84.88813755]
 [  0.8        -86.25019985]
 [  0.9         32.09324542]
 [  1.         -18.86097807]
 [  1.09391667  -0.34975855]]","[[0.         0.33593724]
 [0.1        1.45592665]
 [0.2        0.89843982]
 [0.3        0.82315135]
 [0.4        1.88697526]
 [0.5        0.96876146]
 [0.6        0.51998357]
 [0.7        0.83848957]
 [0.8        0.75519813]
 [0.9        0.08799146]
 [1.         1.1327065 ]
 [1.09391667 0.30601278]]",1,1.384
2,f,31,english,5,3,english,2024-02-07 14:23:06.611782,False,2,343,sounds\english\audio/english_511.wav,"[[  0.         -85.91778387]
 [  0.1         45.98194985]
 [  0.2        -52.53895344]
 [  0.3         98.13831198]
 [  0.4         49.65682047]
 [  0.5        -29.41075208]
 [  0.6        -30.04012094]
 [  0.7         37.41853206]
 [  0.8         23.33118627]
 [  0.9        -72.81592551]
 [  1.          22.84370031]
 [  1.09391667  31.18033436]]","[[0.         1.81402398]
 [0.1        0.85637973]
 [0.2        1.26858723]
 [0.3        1.07634076]
 [0.4        1.31800961]
 [0.5        1.42436558]
 [0.6        1.22174941]
 [0.7        1.40902868]
 [0.8        1.14954472]
 [0.9        0.62932842]
 [1.         1.0343403 ]
 [1.09391667 1.81184982]]",0,1.129
2,f,31,english,5,3,english,2024-02-07 14:23:06.611782,False,2,344,sounds\english\audio/english_317.wav,"[[  0.          35.80517537]
 [  0.1        -47.20528256]
 [  0.2         10.16864163]
 [  0.3         32.59206289]
 [  0.4         20.53754814]
 [  0.5        -78.8593211 ]
 [  0.6        -97.96541086]
 [  0.7         49.60543729]
 [  0.8        -69.92457952]
 [  0.9         -3.69767957]
 [  1.          -3.35302539]
 [  1.09391667  29.32411719]]","[[0.         1.51358533]
 [0.1        0.29972078]
 [0.2        1.18281069]
 [0.3        1.39231518]
 [0.4        1.77974686]
 [0.5        1.1695001 ]
 [0.6        1.77666203]
 [0.7        0.8164879 ]
 [0.8        0.08502592]
 [0.9        1.29069951]
 [1.         0.64002495]
 [1.09391667 1.74584587]]",1,0.158
2,f,31,english,5,3,english,2024-02-07 14:23:06.611782,False,2,345,sounds\english\audio/english_389.wav,"[[  0.         -27.92030451]
 [  0.1        -46.10796153]
 [  0.2         29.27243325]
 [  0.3        -81.13766006]
 [  0.4        -25.00115648]
 [  0.5        -17.10951233]
 [  0.6         15.83507298]
 [  0.7         79.29241289]
 [  0.8         27.96570621]
 [  0.9        -91.92786914]
 [  1.          39.38033895]
 [  1.09391667 -32.92969944]]","[[0.         1.81186154]
 [0.1        1.54804085]
 [0.2        0.55488288]
 [0.3        1.00824624]
 [0.4        1.07224035]
 [0.5        0.42212287]
 [0.6        1.0440142 ]
 [0.7        1.00958508]
 [0.8        0.92707182]
 [0.9        1.30621654]
 [1.         1.4968603 ]
 [1.09391667 0.53867672]]",0,0.234
2,f,31,english,5,3,english,2024-02-07 14:23:06.611782,False,2,346,sounds\english\audio/english_90.wav,"[[  0.          63.54924995]
 [  0.1        -59.21327506]
 [  0.2         34.58495613]
 [  0.3          3.2427236 ]
 [  0.4          1.17936493]
 [  0.5         50.51297544]
 [  0.6         61.04656064]
 [  0.7        -96.36424089]
 [  0.8          9.94738881]
 [  0.9        -95.56108651]
 [  1.         -78.91453265]
 [  1.09391667  57.06664979]]","[[0.         1.34228215]
 [0.1        1.34732724]
 [0.2        1.75147993]
 [0.3        0.03089284]
 [0.4        1.52341973]
 [0.5        0.97925583]
 [0.6        1.17642538]
 [0.7        1.13367306]
 [0.8        1.45431282]
 [0.9        0.56738547]
 [1.         1.10123663]
 [1.09391667 0.76686745]]",1,0.356
2,f,31,english,5,3,english,2024-02-07 14:23:06.611782,False,2,347,sounds\english\audio/english_582.wav,"[[  0.         -92.78340469]
 [  0.1         42.51344298]
 [  0.2        -42.63495555]
 [  0.3         52.58085474]
 [  0.4        -78.11848263]
 [  0.5        -34.20952238]
 [  0.6        -86.64412457]
 [  0.7         26.30632387]
 [  0.8        -34.45754989]
 [  0.9        -45.78416277]
 [  1.         -16.65162857]
 [  1.09391667   7.21919156]]","[[0.         1.00518837]
 [0.1        1.30114299]
 [0.2        1.27031636]
 [0.3        1.12025144]
 [0.4        0.79798268]
 [0.5        0.6293022 ]
 [0.6        1.95773952]
 [0.7        0.97092523]
 [0.8        1.38286632]
 [0.9        1.31952832]
 [1.         1.84309931]
 [1.09391667 1.34013439]]",0,1.149
2,f,31,english,5,3,english,2024-02-07 14:23:06.611782,False,2,348,sounds\english\audio/english_117.wav,"[[  0.         -28.38275439]
 [  0.1         98.42008379]
 [  0.2         41.31206558]
 [  0.3        -83.83183678]
 [  0.4         98.21463791]
 [  0.5         -2.48578352]
 [  0.6         -4.17640124]
 [  0.7         96.23712421]
 [  0.8         58.96351824]
 [  0.9         45.91477825]
 [  1.         -11.19499605]
 [  1.09391667 -21.37390064]]","[[0.         0.21519039]
 [0.1        0.51040987]
 [0.2        0.4102792 ]
 [0.3        1.46073806]
 [0.4        0.64884847]
 [0.5        0.03709947]
 [0.6        1.54490713]
 [0.7        1.91280324]
 [0.8        1.06675457]
 [0.9        1.30412923]
 [1.         1.45368514]
 [1.09391667 0.12058037]]",1,0.234
2,f,31,english,5,3,english,2024-02-07 14:23:06.611782,False,2,349,sounds\english\audio/english_944.wav,"[[  0.          15.60693819]
 [  0.1        -30.17366225]
 [  0.2        -74.98996265]
 [  0.3        -21.71143967]
 [  0.4        -71.17152847]
 [  0.5        -79.08347918]
 [  0.6         30.00213426]
 [  0.7        -95.66333823]
 [  0.8        -86.13874985]
 [  0.9        -92.76645644]
 [  1.         -60.06542453]
 [  1.09391667 -49.67322896]]","[[0.         1.52023204]
 [0.1        1.91331724]
 [0.2        0.77968244]
 [0.3        0.16568234]
 [0.4        0.05371195]
 [0.5        0.45619097]
 [0.6        0.51735739]
 [0.7        1.56234264]
 [0.8        1.61252587]
 [0.9        0.66568015]
 [1.         1.71575711]
 [1.09391667 1.10728615]]",0,0.424
2,f,31,english,5,3,english,2024-02-07 14:23:06.611782,False,2,350,sounds\english\audio/english_284.wav,"[[  0.         -64.32327457]
 [  0.1        -67.89025783]
 [  0.2         63.39804367]
 [  0.3        -47.8895651 ]
 [  0.4         27.68105964]
 [  0.5         58.35244252]
 [  0.6        -24.74070708]
 [  0.7        -82.19387926]
 [  0.8        -97.32479033]
 [  0.9         99.46728609]
 [  1.         -92.70862536]
 [  1.09391667  47.98339035]]","[[0.         0.91308262]
 [0.1        0.76791564]
 [0.2        0.83095971]
 [0.3        1.79742446]
 [0.4        1.18503846]
 [0.5        1.29913938]
 [0.6        1.72192785]
 [0.7        1.7387844 ]
 [0.8        1.05930336]
 [0.9        0.10150249]
 [1.         0.67687392]
 [1.09391667 1.83996488]]",1,2.946
2,f,31,english,5,3,english,2024-02-07 14:23:06.611782,False,2,351,sounds\english\audio/english_571.wav,"[[  0.          66.27002453]
 [  0.1         72.56873765]
 [  0.2        -47.18075811]
 [  0.3        -50.2773596 ]
 [  0.4        -37.39995802]
 [  0.5         44.57144772]
 [  0.6        -77.42232626]
 [  0.7        -61.53894289]
 [  0.8         57.25780133]
 [  0.9        -53.9092717 ]
 [  1.          79.641801  ]
 [  1.09391667  81.23373834]]","[[0.         0.70496708]
 [0.1        1.41341806]
 [0.2        1.56676293]
 [0.3        1.96972076]
 [0.4        1.04150982]
 [0.5        0.64987665]
 [0.6        0.50073604]
 [0.7        1.36720733]
 [0.8        0.69150917]
 [0.9        0.1917381 ]
 [1.         1.04532949]
 [1.09391667 0.53527151]]",1,0.369
2,f,31,english,5,3,english,2024-02-07 14:23:06.611782,False,2,352,sounds\english\audio/english_201.wav,"[[  0.          38.80737773]
 [  0.1        -19.59989916]
 [  0.2         66.60738163]
 [  0.3        -56.04483053]
 [  0.4         70.74519799]
 [  0.5        -47.08782515]
 [  0.6        -82.17312899]
 [  0.7          4.63557835]
 [  0.8         13.50311248]
 [  0.9         50.05274214]
 [  1.         -76.13616328]
 [  1.09391667   8.54722281]]","[[0.         0.9006916 ]
 [0.1        0.40577957]
 [0.2        0.32844259]
 [0.3        1.02628552]
 [0.4        1.24548515]
 [0.5        0.07505998]
 [0.6        0.1226459 ]
 [0.7        1.79532837]
 [0.8        1.69109423]
 [0.9        0.91883167]
 [1.         0.81807561]
 [1.09391667 1.88316121]]",0,0.063
2,f,31,english,5,3,english,2024-02-07 14:23:06.611782,False,2,353,sounds\english\audio/english_821.wav,"[[  0.          60.02897282]
 [  0.1        -31.71016541]
 [  0.2         65.3097336 ]
 [  0.3         39.90488009]
 [  0.4         65.66520818]
 [  0.5        -73.56912207]
 [  0.6          0.74999233]
 [  0.7         64.12769535]
 [  0.8        -79.18665898]
 [  0.9        -84.62050136]
 [  1.          99.19624858]
 [  1.09391667  71.58670695]]","[[0.         0.81118736]
 [0.1        1.4887669 ]
 [0.2        0.65578563]
 [0.3        0.99843063]
 [0.4        0.54862628]
 [0.5        0.9620802 ]
 [0.6        1.96570853]
 [0.7        1.86660776]
 [0.8        0.48590566]
 [0.9        1.1315153 ]
 [1.         1.62744853]
 [1.09391667 1.94836872]]",0,0.342
2,f,31,english,5,3,english,2024-02-07 14:23:06.611782,False,2,354,sounds\english\audio/english_959.wav,"[[  0.         -72.11702721]
 [  0.1        -40.70802273]
 [  0.2         87.64553822]
 [  0.3        -48.2331893 ]
 [  0.4        -95.5440406 ]
 [  0.5         59.94111347]
 [  0.6         91.02979874]
 [  0.7         19.11555726]
 [  0.8         75.67996803]
 [  0.9         92.01217726]
 [  1.         -10.30028839]
 [  1.09391667 -99.09748483]]","[[0.         0.58402208]
 [0.1        1.62475599]
 [0.2        1.65188883]
 [0.3        0.55484279]
 [0.4        0.6061604 ]
 [0.5        1.49451004]
 [0.6        0.05914992]
 [0.7        1.4845686 ]
 [0.8        1.97323442]
 [0.9        0.84762709]
 [1.         0.74785562]
 [1.09391667 1.91422779]]",1,2.441
2,f,31,english,5,3,english,2024-02-07 14:23:06.611782,False,2,355,sounds\english\audio/english_916.wav,"[[  0.         -75.50139917]
 [  0.1         87.74693423]
 [  0.2         31.07453941]
 [  0.3        -54.74808786]
 [  0.4         22.76610273]
 [  0.5         11.00268218]
 [  0.6         51.91753819]
 [  0.7         14.6363884 ]
 [  0.8         81.83938772]
 [  0.9         -6.69300519]
 [  1.          48.70423214]
 [  1.09391667 -75.62542255]]","[[0.         0.33116573]
 [0.1        0.79085074]
 [0.2        1.46577933]
 [0.3        0.46369868]
 [0.4        1.13985244]
 [0.5        0.7460079 ]
 [0.6        0.81938326]
 [0.7        1.36585166]
 [0.8        0.74190137]
 [0.9        1.01772596]
 [1.         1.52043816]
 [1.09391667 1.80998289]]",0,0.402
2,f,31,english,5,3,english,2024-02-07 14:23:06.611782,False,2,356,sounds\english\audio/english_318.wav,"[[  0.         -78.94407008]
 [  0.1        -91.43281566]
 [  0.2        -62.24141646]
 [  0.3         40.78211046]
 [  0.4          7.98778967]
 [  0.5        -60.8723057 ]
 [  0.6         42.28033673]
 [  0.7        -90.16378742]
 [  0.8        -93.15678143]
 [  0.9        -38.27194231]
 [  1.           2.04687585]
 [  1.09391667 -59.35018185]]","[[0.         1.36025181]
 [0.1        1.33485139]
 [0.2        0.43598096]
 [0.3        0.74688302]
 [0.4        1.69145296]
 [0.5        1.55878588]
 [0.6        0.6574677 ]
 [0.7        1.94941989]
 [0.8        1.19046703]
 [0.9        0.26844165]
 [1.         1.06188423]
 [1.09391667 1.54423822]]",1,3.324
2,f,31,english,5,3,english,2024-02-07 14:23:06.611782,False,2,357,sounds\english\audio/english_572.wav,"[[  0.          74.87847498]
 [  0.1        -39.37509685]
 [  0.2         46.07522777]
 [  0.3        -26.59086479]
 [  0.4        -83.61712333]
 [  0.5         51.69873735]
 [  0.6        -66.29925424]
 [  0.7        -30.03465624]
 [  0.8         22.82757365]
 [  0.9        -30.60936999]
 [  1.         -46.60182678]
 [  1.09391667  37.1532128 ]]","[[0.         0.12348508]
 [0.1        1.01129589]
 [0.2        0.14453867]
 [0.3        0.66439835]
 [0.4        0.40930176]
 [0.5        1.64421854]
 [0.6        1.67109861]
 [0.7        1.00053383]
 [0.8        0.68839219]
 [0.9        0.08113885]
 [1.         0.16383696]
 [1.09391667 0.71948729]]",1,1.727
2,f,31,english,5,3,english,2024-02-07 14:23:06.611782,False,2,358,sounds\english\audio/english_489.wav,"[[  0.          34.87513384]
 [  0.1        -56.49709653]
 [  0.2        -69.32456338]
 [  0.3         53.20706346]
 [  0.4         66.8977185 ]
 [  0.5         47.95425842]
 [  0.6         18.45634507]
 [  0.7        -35.00488862]
 [  0.8         41.56892466]
 [  0.9         -9.61579481]
 [  1.         -77.26438838]
 [  1.09391667 -34.81016687]]","[[0.         0.04879029]
 [0.1        0.42206675]
 [0.2        1.77329015]
 [0.3        0.48934341]
 [0.4        1.53841919]
 [0.5        1.90609151]
 [0.6        1.04648426]
 [0.7        0.7592551 ]
 [0.8        1.06956744]
 [0.9        0.57636466]
 [1.         0.72315176]
 [1.09391667 0.99781533]]",1,0.521
2,f,31,english,5,3,english,2024-02-07 14:23:06.611782,False,2,359,sounds\english\audio/english_701.wav,"[[  0.         -93.84804117]
 [  0.1        -77.23912918]
 [  0.2        -45.57356693]
 [  0.3        -80.33366172]
 [  0.4         95.38038132]
 [  0.5         43.37257018]
 [  0.6         20.80863296]
 [  0.7        -74.49587502]
 [  0.8         53.82285156]
 [  0.9         86.20229822]
 [  1.         -84.46214873]
 [  1.09391667   1.75691035]]","[[0.         0.47905205]
 [0.1        0.43335114]
 [0.2        0.98258142]
 [0.3        1.56424934]
 [0.4        1.99053476]
 [0.5        1.06230172]
 [0.6        1.81617496]
 [0.7        0.70378114]
 [0.8        1.40362465]
 [0.9        0.70617413]
 [1.         0.74798843]
 [1.09391667 0.6850293 ]]",1,1.51
2,f,31,english,5,3,english,2024-02-07 14:23:06.611782,False,2,360,sounds\english\audio/english_102.wav,"[[  0.          63.84613738]
 [  0.1        -19.50774511]
 [  0.2          8.66527759]
 [  0.3         11.48698438]
 [  0.4         31.94885704]
 [  0.5        -38.92668569]
 [  0.6        -49.51123853]
 [  0.7         61.27640526]
 [  0.8        -26.83244911]
 [  0.9         49.29328507]
 [  1.          88.72427416]
 [  1.09391667  44.23475018]]","[[0.         0.68072363]
 [0.1        0.78322964]
 [0.2        1.38231374]
 [0.3        0.72244783]
 [0.4        0.35985071]
 [0.5        0.73914497]
 [0.6        1.62389413]
 [0.7        1.34969733]
 [0.8        0.03321173]
 [0.9        0.74119752]
 [1.         0.40516815]
 [1.09391667 1.39286308]]",1,0.77
2,f,31,english,5,3,english,2024-02-07 14:23:06.611782,False,2,361,sounds\english\audio/english_198.wav,"[[  0.          51.36253455]
 [  0.1         -1.79808666]
 [  0.2        -53.25635357]
 [  0.3         92.04905147]
 [  0.4        -90.57518695]
 [  0.5         60.37120744]
 [  0.6        -93.94505953]
 [  0.7          1.88310477]
 [  0.8        -23.01531969]
 [  0.9        -70.16036682]
 [  1.         -26.79565184]
 [  1.09391667  30.40332279]]","[[0.         0.9480924 ]
 [0.1        1.89932886]
 [0.2        1.74507587]
 [0.3        0.26533823]
 [0.4        0.16174051]
 [0.5        0.96723602]
 [0.6        1.36968268]
 [0.7        0.12063159]
 [0.8        1.46254302]
 [0.9        1.09212546]
 [1.         1.75188749]
 [1.09391667 1.41042335]]",0,0.293
2,f,31,english,5,3,english,2024-02-07 14:23:06.611782,False,2,362,sounds\english\audio/english_998.wav,"[[  0.         -83.67346728]
 [  0.1        -68.43297462]
 [  0.2         47.84560439]
 [  0.3         71.43971258]
 [  0.4        -30.40941836]
 [  0.5         69.31214212]
 [  0.6        -95.04564508]
 [  0.7        -61.88405175]
 [  0.8         11.43915949]
 [  0.9         79.6365109 ]
 [  1.          58.29305302]
 [  1.09391667  44.0288717 ]]","[[0.         1.27391906]
 [0.1        0.75913393]
 [0.2        1.02363825]
 [0.3        1.78775676]
 [0.4        0.0961221 ]
 [0.5        1.18933693]
 [0.6        1.9379163 ]
 [0.7        1.91389769]
 [0.8        1.08895614]
 [0.9        1.52042952]
 [1.         0.38016323]
 [1.09391667 1.77799574]]",0,0.19
2,f,31,english,5,3,english,2024-02-07 14:23:06.611782,False,2,363,sounds\english\audio/english_142.wav,"[[  0.          31.11671536]
 [  0.1         14.00827892]
 [  0.2         90.23748413]
 [  0.3         82.30944071]
 [  0.4         -1.47145923]
 [  0.5         55.17460753]
 [  0.6         26.61999518]
 [  0.7         -9.70687044]
 [  0.8         45.29559585]
 [  0.9        -14.38709872]
 [  1.         -22.51804374]
 [  1.09391667  56.35505814]]","[[0.         1.24679721]
 [0.1        0.65366655]
 [0.2        1.20113331]
 [0.3        1.60444487]
 [0.4        1.29279254]
 [0.5        0.91831488]
 [0.6        0.78219664]
 [0.7        0.08870339]
 [0.8        1.29591766]
 [0.9        0.90292953]
 [1.         0.84738987]
 [1.09391667 0.22793797]]",0,0.246
2,f,31,english,5,3,english,2024-02-07 14:23:06.611782,False,2,364,sounds\english\audio/english_291.wav,"[[  0.         -35.42543517]
 [  0.1        -58.51846155]
 [  0.2        -22.76348489]
 [  0.3         19.21250817]
 [  0.4         10.39547897]
 [  0.5        -11.61823126]
 [  0.6        -78.73745365]
 [  0.7        -83.41752971]
 [  0.8         27.65579478]
 [  0.9        -91.79765348]
 [  1.          39.55856781]
 [  1.09391667  64.357963  ]]","[[0.         1.79657699]
 [0.1        0.45193929]
 [0.2        1.43927243]
 [0.3        0.51811893]
 [0.4        0.67991537]
 [0.5        1.97176362]
 [0.6        1.52786701]
 [0.7        0.24358096]
 [0.8        0.76180969]
 [0.9        0.40398826]
 [1.         0.49665503]
 [1.09391667 1.15353833]]",1,1.947
2,f,31,english,5,3,english,2024-02-07 14:23:06.611782,False,2,365,sounds\english\audio/english_615.wav,"[[  0.         -59.46419525]
 [  0.1         57.8993682 ]
 [  0.2         96.50473449]
 [  0.3         70.35497861]
 [  0.4         41.87750843]
 [  0.5        -81.49095224]
 [  0.6         57.42750946]
 [  0.7          4.11503666]
 [  0.8        -69.97079252]
 [  0.9         35.15344639]
 [  1.         -81.03238812]
 [  1.09391667 -73.59723868]]","[[0.         1.45272118]
 [0.1        1.05218588]
 [0.2        0.16877242]
 [0.3        0.80491698]
 [0.4        0.90543026]
 [0.5        1.05177913]
 [0.6        0.09637859]
 [0.7        0.17788962]
 [0.8        0.7335246 ]
 [0.9        1.1040214 ]
 [1.         0.9742901 ]
 [1.09391667 0.84036339]]",1,0.275
2,f,31,english,5,3,english,2024-02-07 14:23:06.611782,False,2,366,sounds\english\audio/english_880.wav,"[[  0.         -41.47628357]
 [  0.1         65.54296858]
 [  0.2        -39.31347774]
 [  0.3         61.98950127]
 [  0.4         -3.60095554]
 [  0.5        -14.51452604]
 [  0.6         37.32728479]
 [  0.7        -80.65072298]
 [  0.8        -45.95652934]
 [  0.9         58.7720162 ]
 [  1.         -45.80137343]
 [  1.09391667 -30.61117418]]","[[0.         0.55394603]
 [0.1        0.9616183 ]
 [0.2        0.19888821]
 [0.3        0.57394663]
 [0.4        0.13686424]
 [0.5        1.28705149]
 [0.6        1.1695459 ]
 [0.7        0.87953448]
 [0.8        1.16448852]
 [0.9        1.15057409]
 [1.         0.15999969]
 [1.09391667 1.26319269]]",0,1.46
2,f,31,english,5,3,english,2024-02-07 14:23:06.611782,False,2,367,sounds\english\audio/english_463.wav,"[[  0.          10.50801154]
 [  0.1         53.01075337]
 [  0.2        -45.92576003]
 [  0.3         19.52430908]
 [  0.4        -49.30728031]
 [  0.5         14.12996474]
 [  0.6        -38.56124135]
 [  0.7         60.51994471]
 [  0.8        -80.92150268]
 [  0.9         77.91302957]
 [  1.         -17.96219129]
 [  1.09391667  -4.0549477 ]]","[[0.         1.17811947]
 [0.1        0.17767022]
 [0.2        0.48691175]
 [0.3        0.61421231]
 [0.4        1.08242916]
 [0.5        0.36464212]
 [0.6        1.11640778]
 [0.7        0.46617429]
 [0.8        1.24207175]
 [0.9        1.740718  ]
 [1.         0.97634615]
 [1.09391667 0.84642764]]",0,0.112
2,f,31,english,5,3,english,2024-02-07 14:23:06.611782,False,2,368,sounds\english\audio/english_202.wav,"[[  0.         -55.5835629 ]
 [  0.1        -74.17222211]
 [  0.2         32.91988816]
 [  0.3        -61.08726633]
 [  0.4         74.28120307]
 [  0.5         27.15782783]
 [  0.6        -31.42828759]
 [  0.7        -85.57803202]
 [  0.8         -8.83313062]
 [  0.9         75.88912897]
 [  1.         -46.89935533]
 [  1.09391667   1.73094833]]","[[0.         1.42115323]
 [0.1        1.11230171]
 [0.2        1.2604868 ]
 [0.3        1.38170621]
 [0.4        1.19502306]
 [0.5        1.3290301 ]
 [0.6        1.43273837]
 [0.7        0.23505516]
 [0.8        0.8306151 ]
 [0.9        1.14421979]
 [1.         1.72535261]
 [1.09391667 1.37481935]]",1,0.347
2,f,31,english,5,3,english,2024-02-07 14:23:06.611782,False,2,369,sounds\english\audio/english_42.wav,"[[  0.         -12.35235723]
 [  0.1        -31.30593397]
 [  0.2         93.22547931]
 [  0.3          3.55661221]
 [  0.4        -65.82574245]
 [  0.5         29.87364381]
 [  0.6        -76.70361056]
 [  0.7        -29.10356368]
 [  0.8        -52.57981462]
 [  0.9          3.2621499 ]
 [  1.         -86.59512904]
 [  1.09391667  39.23696044]]","[[0.         0.89110064]
 [0.1        0.38934259]
 [0.2        1.45440232]
 [0.3        0.25584691]
 [0.4        1.05295351]
 [0.5        0.59087155]
 [0.6        0.12112438]
 [0.7        0.72116868]
 [0.8        0.07340316]
 [0.9        1.9617885 ]
 [1.         0.50342264]
 [1.09391667 1.24684981]]",1,0.235
2,f,31,english,5,3,english,2024-02-07 14:23:06.611782,False,2,370,sounds\english\audio/english_698.wav,"[[  0.         -98.49976842]
 [  0.1         97.00885889]
 [  0.2         54.87082892]
 [  0.3        -24.25113459]
 [  0.4        -19.41361559]
 [  0.5         38.63477703]
 [  0.6        -31.74740997]
 [  0.7         75.16156156]
 [  0.8         41.06057046]
 [  0.9        -30.65402234]
 [  1.         -13.5987644 ]
 [  1.09391667 -10.25655958]]","[[0.         0.43179997]
 [0.1        1.41337894]
 [0.2        1.17184634]
 [0.3        0.60534302]
 [0.4        1.24831976]
 [0.5        1.39113252]
 [0.6        1.28562889]
 [0.7        1.10433052]
 [0.8        1.08053659]
 [0.9        1.52582563]
 [1.         0.95244876]
 [1.09391667 1.39681887]]",0,0.133
2,f,31,english,5,3,english,2024-02-07 14:23:06.611782,False,2,371,sounds\english\audio/english_881.wav,"[[  0.          -6.48543923]
 [  0.1         52.42470042]
 [  0.2         27.22865134]
 [  0.3        -26.12053543]
 [  0.4         80.9200248 ]
 [  0.5         91.13618142]
 [  0.6         72.82749112]
 [  0.7          4.61309193]
 [  0.8          6.14992629]
 [  0.9        -73.40306534]
 [  1.         -18.81910787]
 [  1.09391667 -70.65652208]]","[[0.         0.68458474]
 [0.1        1.23345655]
 [0.2        1.03441451]
 [0.3        0.51926044]
 [0.4        1.84993398]
 [0.5        0.2782437 ]
 [0.6        1.43037542]
 [0.7        1.82353332]
 [0.8        1.39771107]
 [0.9        0.81234613]
 [1.         0.47215555]
 [1.09391667 1.77841719]]",0,1.113
2,f,31,english,5,3,english,2024-02-07 14:23:06.611782,False,2,372,sounds\english\audio/english_184.wav,"[[  0.         -74.14199581]
 [  0.1         89.94537867]
 [  0.2        -97.85495654]
 [  0.3         32.1848514 ]
 [  0.4        -18.16351382]
 [  0.5         45.53126648]
 [  0.6        -65.36095863]
 [  0.7        -40.1441705 ]
 [  0.8         67.58790179]
 [  0.9         83.12820885]
 [  1.          51.68582171]
 [  1.09391667  49.78372489]]","[[0.         0.56604578]
 [0.1        0.76750271]
 [0.2        1.21496016]
 [0.3        1.29013374]
 [0.4        0.9359149 ]
 [0.5        0.64815145]
 [0.6        1.94413917]
 [0.7        0.65249887]
 [0.8        1.32844944]
 [0.9        0.04188573]
 [1.         1.11136781]
 [1.09391667 0.42919135]]",1,0.32
2,f,31,english,5,3,english,2024-02-07 14:23:06.611782,False,2,373,sounds\english\audio/english_433.wav,"[[  0.         -74.5918135 ]
 [  0.1         28.79821434]
 [  0.2         97.27836698]
 [  0.3         70.33680468]
 [  0.4         14.06818155]
 [  0.5        -16.97736982]
 [  0.6         75.14922554]
 [  0.7         23.29055894]
 [  0.8        -26.03253211]
 [  0.9         28.95520226]
 [  1.         -61.82682237]
 [  1.09391667  47.27585079]]","[[0.         1.01979496]
 [0.1        0.80806248]
 [0.2        0.68923441]
 [0.3        0.29842911]
 [0.4        1.28851822]
 [0.5        0.93328677]
 [0.6        0.10219622]
 [0.7        1.41929067]
 [0.8        0.8010075 ]
 [0.9        0.76563128]
 [1.         0.36703777]
 [1.09391667 0.80268974]]",1,0.997
2,f,31,english,5,3,english,2024-02-07 14:23:06.611782,False,2,374,sounds\english\audio/english_146.wav,"[[  0.          56.30698685]
 [  0.1         33.76808102]
 [  0.2          7.3416935 ]
 [  0.3         54.00115317]
 [  0.4         60.50079064]
 [  0.5         93.58064811]
 [  0.6         16.38414301]
 [  0.7         53.45076847]
 [  0.8         57.56482396]
 [  0.9        -28.26782972]
 [  1.          79.66793606]
 [  1.09391667  23.81863578]]","[[0.         0.40218926]
 [0.1        1.30498568]
 [0.2        1.88518083]
 [0.3        0.73939723]
 [0.4        1.18416515]
 [0.5        0.74397262]
 [0.6        1.77833366]
 [0.7        0.98273851]
 [0.8        1.41119053]
 [0.9        0.90766435]
 [1.         0.33691203]
 [1.09391667 1.86488134]]",0,1.757
2,f,31,english,5,3,english,2024-02-07 14:23:06.611782,False,2,375,sounds\english\audio/english_183.wav,"[[  0.          56.94082111]
 [  0.1         23.76823823]
 [  0.2        -72.77208824]
 [  0.3        -26.01651227]
 [  0.4         97.95217456]
 [  0.5        -88.35240054]
 [  0.6          8.20957713]
 [  0.7         -0.21457891]
 [  0.8        -22.50054627]
 [  0.9        -26.93782132]
 [  1.          -9.93952746]
 [  1.09391667  16.7040789 ]]","[[0.         1.46471885]
 [0.1        0.27157125]
 [0.2        0.89995591]
 [0.3        0.86595775]
 [0.4        0.99665554]
 [0.5        1.5130978 ]
 [0.6        0.89371921]
 [0.7        0.60499738]
 [0.8        0.6752389 ]
 [0.9        0.26345185]
 [1.         0.41919446]
 [1.09391667 0.61479122]]",1,0.221
2,f,31,english,5,3,english,2024-02-07 14:23:06.611782,False,2,376,sounds\english\audio/english_284.wav,"[[  0.         -64.32327457]
 [  0.1        -67.89025783]
 [  0.2         63.39804367]
 [  0.3        -47.8895651 ]
 [  0.4         27.68105964]
 [  0.5         58.35244252]
 [  0.6        -24.74070708]
 [  0.7        -82.19387926]
 [  0.8        -97.32479033]
 [  0.9         99.46728609]
 [  1.         -92.70862536]
 [  1.09391667  47.98339035]]","[[0.         0.91308262]
 [0.1        0.76791564]
 [0.2        0.83095971]
 [0.3        1.79742446]
 [0.4        1.18503846]
 [0.5        1.29913938]
 [0.6        1.72192785]
 [0.7        1.7387844 ]
 [0.8        1.05930336]
 [0.9        0.10150249]
 [1.         0.67687392]
 [1.09391667 1.83996488]]",1,0.865
2,f,31,english,5,3,english,2024-02-07 14:23:06.611782,False,2,377,sounds\english\audio/english_58.wav,"[[  0.         -46.52390323]
 [  0.1         19.23789521]
 [  0.2         69.12106093]
 [  0.3        -43.53874687]
 [  0.4        -56.35842904]
 [  0.5          7.35134255]
 [  0.6        -28.20207265]
 [  0.7        -78.68633359]
 [  0.8         27.00073493]
 [  0.9        -36.58564369]
 [  1.           4.57816085]
 [  1.09391667  -5.20378192]]","[[0.         0.35126105]
 [0.1        1.12280932]
 [0.2        0.45102457]
 [0.3        1.46305127]
 [0.4        1.909583  ]
 [0.5        1.54363939]
 [0.6        0.80451607]
 [0.7        1.94404618]
 [0.8        0.82845057]
 [0.9        1.3978679 ]
 [1.         1.7044559 ]
 [1.09391667 0.16192575]]",0,1.62
2,f,31,english,5,3,english,2024-02-07 14:23:06.611782,False,2,378,sounds\english\audio/english_44.wav,"[[  0.           4.31802361]
 [  0.1         47.0728406 ]
 [  0.2        -14.77115386]
 [  0.3         48.30959917]
 [  0.4        -48.39525922]
 [  0.5        -15.20190814]
 [  0.6         -7.79536513]
 [  0.7        -57.36737228]
 [  0.8         -4.58128381]
 [  0.9        -46.69208344]
 [  1.         -83.85792586]
 [  1.09391667  -0.53505125]]","[[0.         1.29887764]
 [0.1        1.11913745]
 [0.2        1.22583552]
 [0.3        1.94992967]
 [0.4        1.60078026]
 [0.5        1.61096713]
 [0.6        0.91293866]
 [0.7        1.91414895]
 [0.8        0.38490234]
 [0.9        1.07535839]
 [1.         1.14300315]
 [1.09391667 0.87829704]]",0,0.628
2,f,31,english,5,3,english,2024-02-07 14:23:06.611782,False,2,379,sounds\english\audio/english_999.wav,"[[  0.          -8.27619319]
 [  0.1        -49.3883822 ]
 [  0.2         97.54217101]
 [  0.3        -49.81406735]
 [  0.4         46.43683506]
 [  0.5         89.32784762]
 [  0.6        -55.73277594]
 [  0.7         49.38462906]
 [  0.8         85.41123264]
 [  0.9        -58.86557708]
 [  1.          99.11766896]
 [  1.09391667  28.82385918]]","[[0.00000000e+00 1.48642599e-04]
 [1.00000000e-01 1.22232627e+00]
 [2.00000000e-01 1.11749330e+00]
 [3.00000000e-01 1.80111229e+00]
 [4.00000000e-01 5.52807392e-01]
 [5.00000000e-01 1.53319988e+00]
 [6.00000000e-01 1.76164420e+00]
 [7.00000000e-01 7.72486607e-02]
 [8.00000000e-01 1.00258630e+00]
 [9.00000000e-01 3.29932429e-01]
 [1.00000000e+00 1.88826288e+00]
 [1.09391667e+00 1.88223689e+00]]",1,2.12
2,f,31,english,5,3,english,2024-02-07 14:23:06.611782,False,2,380,sounds\english\audio/english_292.wav,"[[  0.          25.72060653]
 [  0.1         -6.51251487]
 [  0.2          3.32661168]
 [  0.3         89.62386246]
 [  0.4         80.65433919]
 [  0.5         44.84771524]
 [  0.6         25.54437629]
 [  0.7        -12.49512251]
 [  0.8        -42.7769001 ]
 [  0.9        -50.66960292]
 [  1.         -26.28928757]
 [  1.09391667 -87.75283225]]","[[0.         1.17792554]
 [0.1        0.30252559]
 [0.2        1.09442145]
 [0.3        1.28448778]
 [0.4        1.02735441]
 [0.5        0.62410129]
 [0.6        1.60418481]
 [0.7        0.44189431]
 [0.8        1.24863789]
 [0.9        1.87159039]
 [1.         1.63743996]
 [1.09391667 0.32075193]]",0,2.433
2,f,31,english,5,3,english,2024-02-07 14:23:06.611782,False,2,381,sounds\english\audio/english_260.wav,"[[  0.          15.97763116]
 [  0.1        -13.3847134 ]
 [  0.2        -29.63675022]
 [  0.3        -94.12252117]
 [  0.4         37.44404644]
 [  0.5        -13.47562993]
 [  0.6         28.72077468]
 [  0.7        -25.31213713]
 [  0.8         12.33791488]
 [  0.9          1.56732473]
 [  1.         -29.87361041]
 [  1.09391667   9.56042619]]","[[0.         1.94177241]
 [0.1        0.74015027]
 [0.2        0.26772348]
 [0.3        0.24482628]
 [0.4        0.73676391]
 [0.5        0.3869803 ]
 [0.6        0.62582606]
 [0.7        0.50244213]
 [0.8        0.1260874 ]
 [0.9        0.8031848 ]
 [1.         1.5387452 ]
 [1.09391667 0.69389389]]",0,0.682
2,f,31,english,5,3,english,2024-02-07 14:23:06.611782,False,2,382,sounds\english\audio/english_107.wav,"[[  0.          14.75106281]
 [  0.1         61.55616618]
 [  0.2        -53.67988365]
 [  0.3        -26.40552644]
 [  0.4        -39.74978172]
 [  0.5         59.30152115]
 [  0.6         47.78500901]
 [  0.7        -56.28829924]
 [  0.8        -27.92998764]
 [  0.9        -79.09348068]
 [  1.         -12.41548757]
 [  1.09391667  52.16057728]]","[[0.         1.14538344]
 [0.1        1.63691709]
 [0.2        1.34954163]
 [0.3        0.87865188]
 [0.4        0.87105183]
 [0.5        0.97837698]
 [0.6        0.24331513]
 [0.7        1.31332622]
 [0.8        1.65018095]
 [0.9        0.9374591 ]
 [1.         1.20965119]
 [1.09391667 1.85980397]]",0,0.183
2,f,31,english,5,3,english,2024-02-07 14:23:06.611782,False,2,383,sounds\english\audio/english_791.wav,"[[  0.         -46.06630558]
 [  0.1        -10.41029295]
 [  0.2         46.47346809]
 [  0.3        -10.43860287]
 [  0.4        -38.16717219]
 [  0.5         44.56559314]
 [  0.6         43.70696978]
 [  0.7         -5.54884815]
 [  0.8         89.91059564]
 [  0.9         90.72111025]
 [  1.           4.8020349 ]
 [  1.09391667   7.87463746]]","[[0.         1.16002163]
 [0.1        1.31545425]
 [0.2        0.89173565]
 [0.3        0.05427007]
 [0.4        1.4017057 ]
 [0.5        0.47849772]
 [0.6        1.59729287]
 [0.7        1.50901191]
 [0.8        0.68083576]
 [0.9        1.62669182]
 [1.         1.81653342]
 [1.09391667 1.33572141]]",1,0.37
2,f,31,english,5,3,english,2024-02-07 14:23:06.611782,False,2,384,sounds\english\audio/english_887.wav,"[[  0.          -3.44900861]
 [  0.1        -17.8432189 ]
 [  0.2         -6.85827808]
 [  0.3         45.65439731]
 [  0.4        -45.51901732]
 [  0.5        -48.46749348]
 [  0.6         61.02871352]
 [  0.7         88.88451803]
 [  0.8        -62.50472578]
 [  0.9        -72.54245457]
 [  1.          69.58025846]
 [  1.09391667 -27.66978609]]","[[0.         0.51239927]
 [0.1        1.03264561]
 [0.2        0.34600943]
 [0.3        0.47649702]
 [0.4        1.73458193]
 [0.5        0.81561736]
 [0.6        1.13461249]
 [0.7        0.39624217]
 [0.8        0.97607282]
 [0.9        0.43830143]
 [1.         1.14588811]
 [1.09391667 0.14331088]]",1,0.158
2,f,31,english,5,3,english,2024-02-07 14:23:06.611782,False,2,385,sounds\english\audio/english_152.wav,"[[  0.         -10.34550429]
 [  0.1        -43.66558153]
 [  0.2         56.2217474 ]
 [  0.3        -27.44048298]
 [  0.4         17.92439762]
 [  0.5         82.51468432]
 [  0.6          8.54715681]
 [  0.7        -94.9804546 ]
 [  0.8         43.42849193]
 [  0.9          1.5194414 ]
 [  1.          20.77451489]
 [  1.09391667  95.7342738 ]]","[[0.         1.84986994]
 [0.1        0.90615496]
 [0.2        0.59286193]
 [0.3        0.85505555]
 [0.4        0.56649727]
 [0.5        0.6043893 ]
 [0.6        1.72413787]
 [0.7        0.10144569]
 [0.8        1.50321153]
 [0.9        0.78421076]
 [1.         1.65129885]
 [1.09391667 1.8248214 ]]",0,0.17
2,f,31,english,5,3,english,2024-02-07 14:23:06.611782,False,2,386,sounds\english\audio/english_133.wav,"[[  0.          10.63343709]
 [  0.1         24.84890696]
 [  0.2        -34.79554397]
 [  0.3        -18.60172977]
 [  0.4        -98.89022724]
 [  0.5         23.30800479]
 [  0.6         30.70048396]
 [  0.7        -76.25426305]
 [  0.8         14.35819181]
 [  0.9        -62.19404817]
 [  1.          77.39529663]
 [  1.09391667  16.52655074]]","[[0.         0.76476464]
 [0.1        1.29515793]
 [0.2        1.91673142]
 [0.3        1.0879203 ]
 [0.4        1.20589026]
 [0.5        1.56284498]
 [0.6        0.05267283]
 [0.7        1.08371144]
 [0.8        0.48506717]
 [0.9        1.72104901]
 [1.         1.20839478]
 [1.09391667 0.51907939]]",1,1.191
2,f,31,english,5,3,english,2024-02-07 14:23:06.611782,False,2,387,sounds\english\audio/english_744.wav,"[[  0.          68.01647572]
 [  0.1        -94.84396495]
 [  0.2         -7.3752647 ]
 [  0.3        -81.08479212]
 [  0.4        -44.66331389]
 [  0.5        -77.45989494]
 [  0.6         19.1026234 ]
 [  0.7         -0.63798112]
 [  0.8         74.86031238]
 [  0.9        -35.9107796 ]
 [  1.          -6.98299608]
 [  1.09391667 -12.26999011]]","[[0.         0.92301697]
 [0.1        1.7240092 ]
 [0.2        0.78395161]
 [0.3        1.15168853]
 [0.4        0.98824464]
 [0.5        1.26560798]
 [0.6        0.20042884]
 [0.7        1.76365186]
 [0.8        1.68948901]
 [0.9        0.81659748]
 [1.         1.14393897]
 [1.09391667 0.86480781]]",0,0.276
2,f,31,english,5,3,english,2024-02-07 14:23:06.611782,False,2,388,sounds\english\audio/english_532.wav,"[[  0.          60.85707462]
 [  0.1         13.03416057]
 [  0.2        -48.45411351]
 [  0.3         16.77450497]
 [  0.4         -7.6707259 ]
 [  0.5        -84.48187603]
 [  0.6         -5.50880589]
 [  0.7        -53.77002933]
 [  0.8         11.75325856]
 [  0.9         41.28277306]
 [  1.          14.79272929]
 [  1.09391667 -15.59183139]]","[[0.         0.2444237 ]
 [0.1        1.53493401]
 [0.2        1.45787945]
 [0.3        0.11915761]
 [0.4        0.99575033]
 [0.5        1.34203353]
 [0.6        0.42679286]
 [0.7        1.97733711]
 [0.8        0.79534295]
 [0.9        0.9990701 ]
 [1.         1.48802156]
 [1.09391667 0.74270144]]",1,0.395
2,f,31,english,5,3,english,2024-02-07 14:23:06.611782,False,2,389,sounds\english\audio/english_13.wav,"[[  0.          64.38962342]
 [  0.1        -51.8551163 ]
 [  0.2         -2.17663011]
 [  0.3         58.1527086 ]
 [  0.4        -46.96650895]
 [  0.5        -16.57361125]
 [  0.6         75.93348377]
 [  0.7         19.1912547 ]
 [  0.8        -13.17481254]
 [  0.9         82.06501342]
 [  1.          98.060651  ]
 [  1.09391667 -65.93265282]]","[[0.         1.00112645]
 [0.1        1.06925212]
 [0.2        1.94512736]
 [0.3        1.38458927]
 [0.4        1.28889459]
 [0.5        1.54024857]
 [0.6        1.09201657]
 [0.7        0.41927036]
 [0.8        0.35094068]
 [0.9        1.95646908]
 [1.         0.64409889]
 [1.09391667 0.45282126]]",1,0.466
2,f,31,english,5,3,english,2024-02-07 14:23:06.611782,False,2,390,sounds\english\audio/english_330.wav,"[[  0.           2.24171654]
 [  0.1        -47.25901686]
 [  0.2        -45.6229367 ]
 [  0.3        -66.26500136]
 [  0.4         13.126007  ]
 [  0.5        -55.3162329 ]
 [  0.6        -44.94887053]
 [  0.7         21.08483531]
 [  0.8        -37.88434209]
 [  0.9          4.20371748]
 [  1.          80.65582765]
 [  1.09391667  87.33082059]]","[[0.         0.54683967]
 [0.1        1.92392168]
 [0.2        0.88546949]
 [0.3        1.41106585]
 [0.4        1.87683818]
 [0.5        1.08870848]
 [0.6        0.98346159]
 [0.7        0.45031197]
 [0.8        1.40044514]
 [0.9        0.75112893]
 [1.         0.77181744]
 [1.09391667 0.38922024]]",0,0.538
2,f,31,english,5,3,english,2024-02-07 14:23:06.611782,False,2,391,sounds\english\audio/english_243.wav,"[[  0.           1.09956789]
 [  0.1        -22.83463898]
 [  0.2         13.77208665]
 [  0.3          1.02247931]
 [  0.4         31.9920667 ]
 [  0.5          9.99181732]
 [  0.6        -33.71646342]
 [  0.7         -6.54057261]
 [  0.8         -2.31664571]
 [  0.9         70.47747211]
 [  1.         -48.69389072]
 [  1.09391667  42.51272765]]","[[0.         0.70602276]
 [0.1        1.70434147]
 [0.2        0.73580693]
 [0.3        0.55351417]
 [0.4        1.46766687]
 [0.5        0.90352786]
 [0.6        1.00907427]
 [0.7        1.8747172 ]
 [0.8        0.4015936 ]
 [0.9        1.66098364]
 [1.         0.37128843]
 [1.09391667 0.54561956]]",1,1.653
2,f,31,english,5,3,english,2024-02-07 14:23:06.611782,False,2,392,sounds\english\audio/english_604.wav,"[[  0.          -7.32786977]
 [  0.1        -57.46968162]
 [  0.2        -51.48206507]
 [  0.3         77.63466913]
 [  0.4         45.22839705]
 [  0.5        -27.78980975]
 [  0.6        -14.67402927]
 [  0.7         66.92200223]
 [  0.8         44.7359597 ]
 [  0.9         87.34456413]
 [  1.          37.61860755]
 [  1.09391667  91.85438616]]","[[0.         0.45756233]
 [0.1        0.00297482]
 [0.2        1.19670532]
 [0.3        0.65081773]
 [0.4        0.22469511]
 [0.5        0.33338284]
 [0.6        1.91381058]
 [0.7        0.36993011]
 [0.8        1.21459689]
 [0.9        1.1126352 ]
 [1.         1.39772335]
 [1.09391667 1.16252792]]",0,0.178
2,f,31,english,5,3,english,2024-02-07 14:23:06.611782,False,2,393,sounds\english\audio/english_246.wav,"[[  0.          65.19555702]
 [  0.1        -88.31116696]
 [  0.2        -87.15645837]
 [  0.3         57.84934166]
 [  0.4        -76.45557784]
 [  0.5         66.32688278]
 [  0.6         93.44738027]
 [  0.7         54.7923908 ]
 [  0.8         -1.38437059]
 [  0.9          5.22264847]
 [  1.         -11.85909484]
 [  1.09391667  65.00290812]]","[[0.         1.04626937]
 [0.1        1.63597079]
 [0.2        1.95419498]
 [0.3        0.56872665]
 [0.4        0.40309221]
 [0.5        1.93282921]
 [0.6        1.28213971]
 [0.7        1.70127241]
 [0.8        0.15014799]
 [0.9        1.21649106]
 [1.         1.48942771]
 [1.09391667 0.35768018]]",1,0.387
2,f,31,english,5,3,english,2024-02-07 14:23:06.611782,False,2,394,sounds\english\audio/english_792.wav,"[[  0.         -53.21610879]
 [  0.1         32.15976894]
 [  0.2         11.67164647]
 [  0.3         78.41102069]
 [  0.4         57.86075133]
 [  0.5         26.57758322]
 [  0.6        -19.90648144]
 [  0.7         -5.80202054]
 [  0.8        -79.72401374]
 [  0.9        -39.61261559]
 [  1.          87.31929903]
 [  1.09391667  10.49178802]]","[[0.         1.55385175]
 [0.1        0.65373426]
 [0.2        0.07623644]
 [0.3        0.81063335]
 [0.4        1.61919716]
 [0.5        1.49931194]
 [0.6        0.76960145]
 [0.7        0.41164506]
 [0.8        1.42613076]
 [0.9        0.70792196]
 [1.         1.13611226]
 [1.09391667 0.18326108]]",0,1.184
2,f,31,english,5,3,english,2024-02-07 14:23:06.611782,False,2,395,sounds\english\audio/english_135.wav,"[[  0.           1.52771956]
 [  0.1         87.85930758]
 [  0.2         10.69232429]
 [  0.3        -30.56293348]
 [  0.4         18.68768105]
 [  0.5         83.74749446]
 [  0.6          2.30267465]
 [  0.7         10.55624665]
 [  0.8        -52.17497639]
 [  0.9         63.1552018 ]
 [  1.          32.56027872]
 [  1.09391667  49.01841871]]","[[0.         1.05574256]
 [0.1        0.07400982]
 [0.2        1.27555025]
 [0.3        1.65548466]
 [0.4        0.65488565]
 [0.5        1.6850938 ]
 [0.6        0.17916719]
 [0.7        0.7091252 ]
 [0.8        1.14424326]
 [0.9        0.08021557]
 [1.         1.28558373]
 [1.09391667 0.80254185]]",1,0.874
2,f,31,english,5,3,english,2024-02-07 14:23:06.611782,False,2,396,sounds\english\audio/english_782.wav,"[[  0.         -78.57843069]
 [  0.1         18.46693427]
 [  0.2         97.99884289]
 [  0.3         62.25752433]
 [  0.4         52.39970151]
 [  0.5        -14.50018957]
 [  0.6        -27.56562213]
 [  0.7         45.71631019]
 [  0.8        -34.89121843]
 [  0.9         23.54778787]
 [  1.         -69.46242817]
 [  1.09391667  95.32757353]]","[[0.         1.03549732]
 [0.1        1.37171195]
 [0.2        0.49308363]
 [0.3        1.45239523]
 [0.4        1.75992902]
 [0.5        1.61112401]
 [0.6        0.55174203]
 [0.7        1.83852108]
 [0.8        1.53242335]
 [0.9        0.19128353]
 [1.         0.08422805]
 [1.09391667 0.55022533]]",1,0.355
2,f,31,english,5,3,english,2024-02-07 14:23:06.611782,False,2,397,sounds\english\audio/english_709.wav,"[[  0.          54.89445194]
 [  0.1        -13.90675493]
 [  0.2         17.54151592]
 [  0.3        -21.79257769]
 [  0.4         55.10787635]
 [  0.5        -57.13962404]
 [  0.6         -5.37289715]
 [  0.7         27.40236622]
 [  0.8         12.19670027]
 [  0.9         91.20271112]
 [  1.          89.17036871]
 [  1.09391667  50.36439179]]","[[0.         0.75029311]
 [0.1        1.75887389]
 [0.2        1.84695168]
 [0.3        0.96071145]
 [0.4        1.22566663]
 [0.5        1.94059393]
 [0.6        0.52219194]
 [0.7        0.9142424 ]
 [0.8        1.75067757]
 [0.9        0.7385059 ]
 [1.         1.92412986]
 [1.09391667 0.79240238]]",1,1.795
2,f,31,english,5,3,english,2024-02-07 14:23:06.611782,False,2,398,sounds\english\audio/english_536.wav,"[[  0.          12.53985852]
 [  0.1         21.99103782]
 [  0.2         62.33634556]
 [  0.3        -74.90025976]
 [  0.4         32.85398174]
 [  0.5        -33.4537755 ]
 [  0.6        -42.71623429]
 [  0.7         -1.00699642]
 [  0.8        -25.01596186]
 [  0.9        -49.31989542]
 [  1.          38.02707377]
 [  1.09391667  50.96675347]]","[[0.         0.4318111 ]
 [0.1        1.06422616]
 [0.2        1.97390757]
 [0.3        0.26817195]
 [0.4        0.16804155]
 [0.5        0.37593725]
 [0.6        1.32070102]
 [0.7        0.04715572]
 [0.8        1.04948049]
 [0.9        0.94782972]
 [1.         1.69951962]
 [1.09391667 1.16734118]]",1,0.295
2,f,31,english,5,3,english,2024-02-07 14:23:06.611782,False,2,399,sounds\english\audio/english_346.wav,"[[  0.          24.07666509]
 [  0.1        -87.64157913]
 [  0.2        -51.3970499 ]
 [  0.3         79.45874018]
 [  0.4        -74.83031912]
 [  0.5         -2.98294823]
 [  0.6        -32.38946294]
 [  0.7        -24.81590652]
 [  0.8        -13.90891955]
 [  0.9        -33.49626836]
 [  1.         -23.2144111 ]
 [  1.09391667  -9.66358574]]","[[0.         0.66537663]
 [0.1        1.54123619]
 [0.2        0.92348631]
 [0.3        0.33920207]
 [0.4        0.94433533]
 [0.5        0.8352321 ]
 [0.6        0.95810053]
 [0.7        0.99822629]
 [0.8        0.18782062]
 [0.9        1.6271571 ]
 [1.         1.67158741]
 [1.09391667 1.16169049]]",1,0.129
2,f,31,english,5,3,english,2024-02-07 14:23:06.611782,False,2,400,sounds\english\audio/english_913.wav,"[[  0.         -12.70990623]
 [  0.1        -17.89686071]
 [  0.2         58.24027697]
 [  0.3         71.96751717]
 [  0.4         22.83880081]
 [  0.5         74.23310268]
 [  0.6         23.98451607]
 [  0.7        -29.568704  ]
 [  0.8         19.11592867]
 [  0.9         54.77477233]
 [  1.           9.76021826]
 [  1.09391667 -30.35128441]]","[[0.         1.14486928]
 [0.1        0.94187729]
 [0.2        0.43978781]
 [0.3        0.86816184]
 [0.4        0.47286583]
 [0.5        0.4719667 ]
 [0.6        1.54190919]
 [0.7        1.67539159]
 [0.8        1.16448364]
 [0.9        1.68418537]
 [1.         1.91621277]
 [1.09391667 1.40243908]]",0,0.721
2,f,31,english,5,3,english,2024-02-07 14:23:06.611782,False,2,401,sounds\english\audio/english_400.wav,"[[  0.         -25.02230777]
 [  0.1         49.22110948]
 [  0.2        -25.24422823]
 [  0.3        -67.45566663]
 [  0.4        -45.51948519]
 [  0.5        -18.6326315 ]
 [  0.6         39.79801231]
 [  0.7        -16.89099315]
 [  0.8         73.50338814]
 [  0.9         34.20665044]
 [  1.          43.60884608]
 [  1.09391667 -63.62307837]]","[[0.         0.48486425]
 [0.1        0.13954262]
 [0.2        0.30114108]
 [0.3        0.1192849 ]
 [0.4        1.32093998]
 [0.5        1.53333364]
 [0.6        1.63066866]
 [0.7        1.10413319]
 [0.8        1.82884713]
 [0.9        0.24999453]
 [1.         0.44753764]
 [1.09391667 1.09142561]]",1,2.495
2,f,31,english,5,3,english,2024-02-07 14:23:06.611782,False,2,402,sounds\english\audio/english_135.wav,"[[  0.           1.52771956]
 [  0.1         87.85930758]
 [  0.2         10.69232429]
 [  0.3        -30.56293348]
 [  0.4         18.68768105]
 [  0.5         83.74749446]
 [  0.6          2.30267465]
 [  0.7         10.55624665]
 [  0.8        -52.17497639]
 [  0.9         63.1552018 ]
 [  1.          32.56027872]
 [  1.09391667  49.01841871]]","[[0.         1.05574256]
 [0.1        0.07400982]
 [0.2        1.27555025]
 [0.3        1.65548466]
 [0.4        0.65488565]
 [0.5        1.6850938 ]
 [0.6        0.17916719]
 [0.7        0.7091252 ]
 [0.8        1.14424326]
 [0.9        0.08021557]
 [1.         1.28558373]
 [1.09391667 0.80254185]]",1,0.355
2,f,31,english,5,3,english,2024-02-07 14:23:06.611782,False,2,403,sounds\english\audio/english_416.wav,"[[  0.          82.43182744]
 [  0.1         53.03166004]
 [  0.2         97.51798843]
 [  0.3         29.41957171]
 [  0.4        -25.73379092]
 [  0.5        -41.53228359]
 [  0.6        -18.26850451]
 [  0.7         36.25947798]
 [  0.8          3.82481386]
 [  0.9         51.45810025]
 [  1.           0.92473006]
 [  1.09391667  18.75162815]]","[[0.         0.48127721]
 [0.1        0.55506125]
 [0.2        1.10002465]
 [0.3        0.46187328]
 [0.4        1.80124094]
 [0.5        1.29733702]
 [0.6        0.88634114]
 [0.7        0.74571926]
 [0.8        0.12319745]
 [0.9        1.56017106]
 [1.         1.11470687]
 [1.09391667 1.36917422]]",1,0.17
2,f,31,english,5,3,english,2024-02-07 14:23:06.611782,False,2,404,sounds\english\audio/english_269.wav,"[[  0.         -83.93501444]
 [  0.1         88.09879619]
 [  0.2        -88.94573115]
 [  0.3        -19.78587184]
 [  0.4         69.53650184]
 [  0.5        -12.80260332]
 [  0.6         37.86483682]
 [  0.7         20.748183  ]
 [  0.8         68.31338511]
 [  0.9        -95.26136032]
 [  1.          60.98745535]
 [  1.09391667  -4.34526385]]","[[0.         0.85151873]
 [0.1        0.93284173]
 [0.2        0.56585091]
 [0.3        1.66708848]
 [0.4        0.92160414]
 [0.5        0.96478354]
 [0.6        0.12392918]
 [0.7        0.94784748]
 [0.8        0.83939678]
 [0.9        1.67634699]
 [1.         1.66934281]
 [1.09391667 1.1076262 ]]",0,1.433
2,f,31,english,5,3,english,2024-02-07 14:23:06.611782,False,2,405,sounds\english\audio/english_544.wav,"[[  0.         -12.83752334]
 [  0.1         18.81551767]
 [  0.2        -29.56712799]
 [  0.3        -88.71669508]
 [  0.4         60.52504719]
 [  0.5        -63.41119431]
 [  0.6          8.79618234]
 [  0.7        -45.10475513]
 [  0.8        -50.11360918]
 [  0.9         24.528145  ]
 [  1.          39.08857689]
 [  1.09391667  16.62790968]]","[[0.         0.26746705]
 [0.1        0.28928579]
 [0.2        1.1529058 ]
 [0.3        0.71030524]
 [0.4        1.2257672 ]
 [0.5        1.58517904]
 [0.6        0.02752012]
 [0.7        0.40266107]
 [0.8        1.24234406]
 [0.9        0.82116457]
 [1.         0.0963448 ]
 [1.09391667 0.38181462]]",1,0.212
2,f,31,english,5,3,english,2024-02-07 14:23:06.611782,False,2,406,sounds\english\audio/english_507.wav,"[[  0.         -12.02429693]
 [  0.1         23.48023528]
 [  0.2         75.86591316]
 [  0.3        -83.47756384]
 [  0.4         81.92852434]
 [  0.5         87.67744716]
 [  0.6        -16.33781488]
 [  0.7        -17.50205237]
 [  0.8         45.24056119]
 [  0.9        -41.17324019]
 [  1.         -35.51150679]
 [  1.09391667 -42.23976402]]","[[0.         0.63959218]
 [0.1        0.78683895]
 [0.2        1.2814873 ]
 [0.3        0.67977555]
 [0.4        0.92992814]
 [0.5        1.13175549]
 [0.6        0.10459473]
 [0.7        1.89307031]
 [0.8        1.08894135]
 [0.9        1.66565612]
 [1.         1.23960277]
 [1.09391667 0.80282923]]",0,1.111
2,f,31,english,5,3,english,2024-02-07 14:23:06.611782,False,2,407,sounds\english\audio/english_484.wav,"[[  0.           2.0569585 ]
 [  0.1        -79.1484241 ]
 [  0.2         30.9033229 ]
 [  0.3         12.05929197]
 [  0.4        -72.8204973 ]
 [  0.5        -89.96387514]
 [  0.6        -22.94210609]
 [  0.7         17.91925192]
 [  0.8        -62.01555508]
 [  0.9        -43.27412131]
 [  1.           0.91553281]
 [  1.09391667 -32.68645572]]","[[0.         0.34651955]
 [0.1        1.84776357]
 [0.2        1.82203066]
 [0.3        1.56778111]
 [0.4        1.22252397]
 [0.5        1.78789861]
 [0.6        0.02218534]
 [0.7        1.7744569 ]
 [0.8        1.27917124]
 [0.9        1.76665807]
 [1.         1.1189794 ]
 [1.09391667 0.68984214]]",1,0.277
2,f,31,english,5,3,english,2024-02-07 14:23:06.611782,False,2,408,sounds\english\audio/english_513.wav,"[[  0.          69.69423026]
 [  0.1        -61.65221054]
 [  0.2         12.06620713]
 [  0.3         68.31024972]
 [  0.4         74.12641094]
 [  0.5          6.77833978]
 [  0.6         -4.07072349]
 [  0.7        -75.18978196]
 [  0.8        -25.44315508]
 [  0.9          1.64473536]
 [  1.         -82.34234751]
 [  1.09391667 -17.87879592]]","[[0.         1.14751405]
 [0.1        0.70036193]
 [0.2        1.7124885 ]
 [0.3        0.98016869]
 [0.4        0.11366006]
 [0.5        0.43979592]
 [0.6        1.91776754]
 [0.7        0.49107068]
 [0.8        0.92055325]
 [0.9        0.8410121 ]
 [1.         0.34671239]
 [1.09391667 1.52659427]]",1,0.893
2,f,31,english,5,3,english,2024-02-07 14:23:06.611782,False,2,409,sounds\english\audio/english_983.wav,"[[  0.         -50.22823897]
 [  0.1         -4.67437073]
 [  0.2        -31.6094098 ]
 [  0.3         25.42275216]
 [  0.4         79.9624674 ]
 [  0.5         11.84827872]
 [  0.6        -53.41316004]
 [  0.7         -2.37481813]
 [  0.8         81.38125647]
 [  0.9        -62.03068284]
 [  1.         -64.21224493]
 [  1.09391667  38.19793451]]","[[0.         0.88633634]
 [0.1        1.28034271]
 [0.2        0.94172266]
 [0.3        0.73344406]
 [0.4        1.78223604]
 [0.5        1.04715588]
 [0.6        1.93599287]
 [0.7        0.44413806]
 [0.8        0.67013669]
 [0.9        1.03528206]
 [1.         0.12422577]
 [1.09391667 1.50859084]]",0,1.493
2,f,31,english,5,3,english,2024-02-07 14:23:06.611782,False,2,410,sounds\english\audio/english_90.wav,"[[  0.          63.54924995]
 [  0.1        -59.21327506]
 [  0.2         34.58495613]
 [  0.3          3.2427236 ]
 [  0.4          1.17936493]
 [  0.5         50.51297544]
 [  0.6         61.04656064]
 [  0.7        -96.36424089]
 [  0.8          9.94738881]
 [  0.9        -95.56108651]
 [  1.         -78.91453265]
 [  1.09391667  57.06664979]]","[[0.         1.34228215]
 [0.1        1.34732724]
 [0.2        1.75147993]
 [0.3        0.03089284]
 [0.4        1.52341973]
 [0.5        0.97925583]
 [0.6        1.17642538]
 [0.7        1.13367306]
 [0.8        1.45431282]
 [0.9        0.56738547]
 [1.         1.10123663]
 [1.09391667 0.76686745]]",0,0.39
2,f,31,english,5,3,english,2024-02-07 14:23:06.611782,False,2,411,sounds\english\audio/english_314.wav,"[[  0.         -72.77248659]
 [  0.1        -16.3777023 ]
 [  0.2        -54.89367252]
 [  0.3        -94.61910998]
 [  0.4        -16.43986335]
 [  0.5         22.95549902]
 [  0.6        -38.50046808]
 [  0.7         94.4546569 ]
 [  0.8        -37.64043119]
 [  0.9         48.39030237]
 [  1.         -45.26638295]
 [  1.09391667 -45.55554074]]","[[0.         0.8900907 ]
 [0.1        0.59416925]
 [0.2        1.27689755]
 [0.3        0.70275331]
 [0.4        1.42732001]
 [0.5        0.51357734]
 [0.6        1.78706659]
 [0.7        0.51196802]
 [0.8        0.29950004]
 [0.9        0.69158189]
 [1.         0.28421865]
 [1.09391667 1.42591163]]",1,0.336
2,f,31,english,5,3,english,2024-02-07 14:23:06.611782,False,2,412,sounds\english\audio/english_571.wav,"[[  0.          66.27002453]
 [  0.1         72.56873765]
 [  0.2        -47.18075811]
 [  0.3        -50.2773596 ]
 [  0.4        -37.39995802]
 [  0.5         44.57144772]
 [  0.6        -77.42232626]
 [  0.7        -61.53894289]
 [  0.8         57.25780133]
 [  0.9        -53.9092717 ]
 [  1.          79.641801  ]
 [  1.09391667  81.23373834]]","[[0.         0.70496708]
 [0.1        1.41341806]
 [0.2        1.56676293]
 [0.3        1.96972076]
 [0.4        1.04150982]
 [0.5        0.64987665]
 [0.6        0.50073604]
 [0.7        1.36720733]
 [0.8        0.69150917]
 [0.9        0.1917381 ]
 [1.         1.04532949]
 [1.09391667 0.53527151]]",1,0.621
2,f,31,english,5,3,english,2024-02-07 14:23:06.611782,False,2,413,sounds\english\audio/english_566.wav,"[[  0.         -62.56630806]
 [  0.1        -47.88948562]
 [  0.2         32.64151801]
 [  0.3        -32.06511913]
 [  0.4         93.60270043]
 [  0.5         26.08771786]
 [  0.6         -3.7007295 ]
 [  0.7         58.86956752]
 [  0.8        -75.73304048]
 [  0.9        -35.43253665]
 [  1.         -21.03744822]
 [  1.09391667 -19.58423429]]","[[0.         1.86832625]
 [0.1        0.16089863]
 [0.2        0.0444821 ]
 [0.3        1.57257602]
 [0.4        1.42885531]
 [0.5        1.38538324]
 [0.6        1.01058653]
 [0.7        0.52217054]
 [0.8        1.32659726]
 [0.9        0.88864926]
 [1.         1.19784945]
 [1.09391667 0.92748285]]",0,0.7
2,f,31,english,5,3,english,2024-02-07 14:23:06.611782,False,2,414,sounds\english\audio/english_931.wav,"[[  0.         -48.18620988]
 [  0.1         93.34540741]
 [  0.2        -88.99120058]
 [  0.3         67.25284663]
 [  0.4        -10.35682297]
 [  0.5        -25.57246183]
 [  0.6        -89.21725543]
 [  0.7         48.14137998]
 [  0.8         15.08583038]
 [  0.9        -21.24642179]
 [  1.         -61.3036155 ]
 [  1.09391667  -1.60302041]]","[[0.         1.69837389]
 [0.1        1.28970497]
 [0.2        1.49371187]
 [0.3        0.85799596]
 [0.4        1.16281473]
 [0.5        1.03469104]
 [0.6        1.18976364]
 [0.7        0.15613957]
 [0.8        0.89546931]
 [0.9        1.04801932]
 [1.         0.54320379]
 [1.09391667 1.57083838]]",1,0.192
2,f,31,english,5,3,english,2024-02-07 14:23:06.611782,False,2,415,sounds\english\audio/english_952.wav,"[[  0.          54.55896485]
 [  0.1        -84.703617  ]
 [  0.2        -45.52691842]
 [  0.3         30.90198875]
 [  0.4         69.36903556]
 [  0.5        -77.32429823]
 [  0.6        -36.56393573]
 [  0.7        -54.92203019]
 [  0.8         63.95367778]
 [  0.9        -73.16013867]
 [  1.          86.56813229]
 [  1.09391667 -21.53870741]]","[[0.         0.17002178]
 [0.1        0.57357602]
 [0.2        0.18029925]
 [0.3        0.59395627]
 [0.4        1.72997597]
 [0.5        1.46184146]
 [0.6        1.64193231]
 [0.7        0.7720156 ]
 [0.8        1.56938558]
 [0.9        0.55739545]
 [1.         0.52583185]
 [1.09391667 1.37102022]]",1,0.353
2,f,31,english,5,3,english,2024-02-07 14:23:06.611782,False,2,416,sounds\english\audio/english_776.wav,"[[  0.          87.36983695]
 [  0.1         -7.36044234]
 [  0.2        -78.22847681]
 [  0.3        -28.99379036]
 [  0.4         76.19445877]
 [  0.5        -43.33414   ]
 [  0.6        -77.80909366]
 [  0.7        -63.14510086]
 [  0.8         70.29145503]
 [  0.9         46.24407769]
 [  1.         -23.45182889]
 [  1.09391667  72.2860477 ]]","[[0.         0.99012423]
 [0.1        0.99897732]
 [0.2        1.18840119]
 [0.3        1.28345901]
 [0.4        0.93018475]
 [0.5        1.3758077 ]
 [0.6        0.61279661]
 [0.7        1.13295599]
 [0.8        0.21705032]
 [0.9        1.45577739]
 [1.         1.82818043]
 [1.09391667 0.32191232]]",1,0.078
2,f,31,english,5,3,english,2024-02-07 14:23:06.611782,False,2,417,sounds\english\audio/english_851.wav,"[[  0.         -45.21125718]
 [  0.1        -85.75475475]
 [  0.2        -73.09455341]
 [  0.3          1.17370607]
 [  0.4        -11.35992748]
 [  0.5         42.80073602]
 [  0.6         45.07360169]
 [  0.7        -42.16100478]
 [  0.8        -19.59764742]
 [  0.9        -56.7450747 ]
 [  1.          78.71604463]
 [  1.09391667  96.78573361]]","[[0.         1.95103615]
 [0.1        0.03053554]
 [0.2        0.63850244]
 [0.3        0.96719068]
 [0.4        0.02484013]
 [0.5        0.41750072]
 [0.6        1.17324743]
 [0.7        0.99186788]
 [0.8        1.3258141 ]
 [0.9        1.2279363 ]
 [1.         1.72539035]
 [1.09391667 1.236894  ]]",0,1.705
2,f,31,english,5,3,english,2024-02-07 14:23:06.611782,False,2,418,sounds\english\audio/english_419.wav,"[[  0.         -43.56677124]
 [  0.1        -83.21546868]
 [  0.2        -41.54064667]
 [  0.3        -35.81330599]
 [  0.4        -43.55129097]
 [  0.5        -33.79077662]
 [  0.6         70.44881048]
 [  0.7          3.24826562]
 [  0.8         34.80296655]
 [  0.9         -7.36062238]
 [  1.          41.00092789]
 [  1.09391667 -17.62948534]]","[[0.         1.2135263 ]
 [0.1        0.41335372]
 [0.2        1.17083651]
 [0.3        0.87264028]
 [0.4        0.34128763]
 [0.5        1.24788402]
 [0.6        0.43489623]
 [0.7        0.29781148]
 [0.8        1.73156921]
 [0.9        1.52997649]
 [1.         0.32887005]
 [1.09391667 0.83665111]]",0,0.354
2,f,31,english,5,3,english,2024-02-07 14:23:06.611782,False,2,419,sounds\english\audio/english_933.wav,"[[  0.         -32.55224072]
 [  0.1         59.44257797]
 [  0.2         17.39690353]
 [  0.3        -22.68529576]
 [  0.4        -75.07818399]
 [  0.5        -42.21384225]
 [  0.6         88.28795698]
 [  0.7        -93.76467276]
 [  0.8        -63.09167857]
 [  0.9         42.2087571 ]
 [  1.          48.07358396]
 [  1.09391667  62.42851897]]","[[0.         0.19221515]
 [0.1        1.43025401]
 [0.2        1.54503316]
 [0.3        0.8626505 ]
 [0.4        0.16630427]
 [0.5        0.04785165]
 [0.6        0.15375828]
 [0.7        0.19154161]
 [0.8        1.95653775]
 [0.9        0.40020781]
 [1.         0.86859993]
 [1.09391667 1.49244645]]",0,1.878
2,f,31,english,5,3,english,2024-02-07 14:23:06.611782,False,2,420,sounds\english\audio/english_935.wav,"[[  0.         -66.017305  ]
 [  0.1        -96.46975552]
 [  0.2         41.01490818]
 [  0.3         -8.07360152]
 [  0.4         43.89693233]
 [  0.5        -91.80623652]
 [  0.6         20.19515947]
 [  0.7        -99.45471076]
 [  0.8         15.46433912]
 [  0.9         29.18172842]
 [  1.          64.82314597]
 [  1.09391667  43.21629408]]","[[0.         0.5568005 ]
 [0.1        0.64067821]
 [0.2        1.2239279 ]
 [0.3        1.1472743 ]
 [0.4        0.40023778]
 [0.5        1.34831364]
 [0.6        1.39566251]
 [0.7        0.66795844]
 [0.8        1.24993732]
 [0.9        0.82560858]
 [1.         1.15031979]
 [1.09391667 1.54604581]]",0,1.013
2,f,31,english,5,3,english,2024-02-07 14:23:06.611782,False,2,421,sounds\english\audio/english_113.wav,"[[  0.          15.28166422]
 [  0.1         47.09879561]
 [  0.2         30.55065419]
 [  0.3         60.74459651]
 [  0.4        -80.73338373]
 [  0.5        -58.25545597]
 [  0.6         82.81118061]
 [  0.7        -61.4933419 ]
 [  0.8         15.22379089]
 [  0.9        -30.23460484]
 [  1.          29.92994598]
 [  1.09391667  22.43308389]]","[[0.         0.55667307]
 [0.1        0.58592964]
 [0.2        1.23790542]
 [0.3        0.97364291]
 [0.4        0.01252312]
 [0.5        0.68334247]
 [0.6        0.36908508]
 [0.7        0.9756346 ]
 [0.8        1.72445689]
 [0.9        0.62749292]
 [1.         0.55530103]
 [1.09391667 0.65235156]]",0,0.847
2,f,31,english,5,3,english,2024-02-07 14:23:06.611782,False,2,422,sounds\english\audio/english_871.wav,"[[  0.         -17.51935002]
 [  0.1         48.49295959]
 [  0.2         58.25436474]
 [  0.3         19.88257457]
 [  0.4         50.10507231]
 [  0.5        -56.4846044 ]
 [  0.6        -59.75963758]
 [  0.7        -99.92210917]
 [  0.8        -47.06603955]
 [  0.9        -51.36141327]
 [  1.         -80.2024198 ]
 [  1.09391667 -23.03879421]]","[[0.         0.96351457]
 [0.1        1.65140424]
 [0.2        0.10129148]
 [0.3        1.12009066]
 [0.4        1.6763055 ]
 [0.5        1.91634806]
 [0.6        0.79788864]
 [0.7        1.02975972]
 [0.8        0.06596749]
 [0.9        0.92212705]
 [1.         1.99068199]
 [1.09391667 0.00440735]]",1,0.067
2,f,31,english,5,3,english,2024-02-07 14:23:06.611782,False,2,423,sounds\english\audio/english_361.wav,"[[  0.          20.84328773]
 [  0.1         31.97314279]
 [  0.2          0.96518171]
 [  0.3         76.6061975 ]
 [  0.4        -77.10206306]
 [  0.5         23.53898445]
 [  0.6        -12.32061179]
 [  0.7         28.9259581 ]
 [  0.8        -94.91860317]
 [  0.9        -45.1021446 ]
 [  1.          37.31543609]
 [  1.09391667 -48.80421802]]","[[0.         1.90680099]
 [0.1        0.60095823]
 [0.2        1.38207831]
 [0.3        1.17298151]
 [0.4        1.57242958]
 [0.5        0.07487762]
 [0.6        1.72866781]
 [0.7        0.62365339]
 [0.8        0.31926535]
 [0.9        1.82585567]
 [1.         1.81117851]
 [1.09391667 0.64368516]]",1,1.0
2,f,31,english,5,3,english,2024-02-07 14:23:06.611782,False,2,424,sounds\english\audio/english_743.wav,"[[  0.          97.77122609]
 [  0.1         75.39760322]
 [  0.2        -92.56300928]
 [  0.3         73.60734954]
 [  0.4         84.82420222]
 [  0.5        -57.35733587]
 [  0.6         36.05799571]
 [  0.7        -80.10781894]
 [  0.8         79.81818761]
 [  0.9         71.53815245]
 [  1.          39.3075371 ]
 [  1.09391667  85.61049635]]","[[0.         0.40936323]
 [0.1        0.83333714]
 [0.2        1.9299588 ]
 [0.3        0.31044819]
 [0.4        1.11112706]
 [0.5        0.30641345]
 [0.6        1.79191215]
 [0.7        1.43353199]
 [0.8        0.61341243]
 [0.9        1.6920607 ]
 [1.         0.85862509]
 [1.09391667 0.78833379]]",0,1.64
2,f,31,english,5,3,english,2024-02-07 14:23:06.611782,False,2,425,sounds\english\audio/english_54.wav,"[[  0.         -21.96933263]
 [  0.1         21.34738665]
 [  0.2         31.11757961]
 [  0.3        -97.99268721]
 [  0.4         -9.10924424]
 [  0.5          6.54964279]
 [  0.6        -88.03304288]
 [  0.7        -43.35008219]
 [  0.8         96.98577024]
 [  0.9         50.71384678]
 [  1.         -60.40662606]
 [  1.09391667  58.67238149]]","[[0.         0.48716735]
 [0.1        1.05776716]
 [0.2        1.06204204]
 [0.3        1.04698992]
 [0.4        1.4258698 ]
 [0.5        0.044516  ]
 [0.6        1.54012871]
 [0.7        0.40475238]
 [0.8        1.50449696]
 [0.9        0.29484315]
 [1.         1.60594219]
 [1.09391667 0.44012247]]",1,1.728
2,f,31,english,5,3,english,2024-02-07 14:23:06.611782,False,2,426,sounds\english\audio/english_683.wav,"[[  0.          34.23496856]
 [  0.1         81.31064479]
 [  0.2        -60.40458615]
 [  0.3        -62.54980461]
 [  0.4        -12.36553538]
 [  0.5        -34.77582481]
 [  0.6        -96.13838061]
 [  0.7        -24.06724676]
 [  0.8        -21.80988158]
 [  0.9         25.64503309]
 [  1.         -38.18547527]
 [  1.09391667 -68.93519132]]","[[0.         1.52890361]
 [0.1        1.93705935]
 [0.2        0.69433094]
 [0.3        1.53772514]
 [0.4        1.78596087]
 [0.5        1.63079743]
 [0.6        0.34418859]
 [0.7        0.7060728 ]
 [0.8        1.36877557]
 [0.9        0.99980175]
 [1.         1.47729865]
 [1.09391667 0.6697003 ]]",0,0.601
2,f,31,english,5,3,english,2024-02-07 14:23:06.611782,False,2,427,sounds\english\audio/english_5.wav,"[[  0.         -71.05887053]
 [  0.1        -36.04846502]
 [  0.2         68.09307416]
 [  0.3        -71.61609357]
 [  0.4        -14.92970524]
 [  0.5         36.04461977]
 [  0.6         61.01603353]
 [  0.7         22.04787058]
 [  0.8        -76.70141108]
 [  0.9         72.36411847]
 [  1.          -2.42248121]
 [  1.09391667 -45.78406478]]","[[0.         0.69305634]
 [0.1        1.95331705]
 [0.2        0.24939242]
 [0.3        1.30786136]
 [0.4        0.35721873]
 [0.5        1.66367269]
 [0.6        1.49043319]
 [0.7        1.08702194]
 [0.8        0.32363826]
 [0.9        0.22271442]
 [1.         1.0907403 ]
 [1.09391667 0.00462457]]",1,0.479
2,f,31,english,5,3,english,2024-02-07 14:23:06.611782,False,2,428,sounds\english\audio/english_567.wav,"[[  0.         -50.9933631 ]
 [  0.1         31.36220977]
 [  0.2         13.5680641 ]
 [  0.3        -18.75410864]
 [  0.4        -57.83772282]
 [  0.5         90.76203665]
 [  0.6        -98.97367079]
 [  0.7         53.61923561]
 [  0.8         -3.57099992]
 [  0.9         94.7090793 ]
 [  1.          93.07088687]
 [  1.09391667 -71.18485827]]","[[0.         1.16123569]
 [0.1        0.07564958]
 [0.2        0.67264934]
 [0.3        0.76417436]
 [0.4        0.9716426 ]
 [0.5        1.19685833]
 [0.6        0.6509574 ]
 [0.7        1.78514313]
 [0.8        1.44408837]
 [0.9        0.5179509 ]
 [1.         1.46519298]
 [1.09391667 0.55032839]]",0,0.853
2,f,31,english,5,3,english,2024-02-07 14:23:06.611782,False,2,429,sounds\english\audio/english_293.wav,"[[  0.         -41.6717185 ]
 [  0.1         80.2291893 ]
 [  0.2        -71.0140068 ]
 [  0.3        -90.64066123]
 [  0.4         -6.53332233]
 [  0.5         -9.32979117]
 [  0.6         53.89735235]
 [  0.7        -63.4364313 ]
 [  0.8        -96.19547901]
 [  0.9        -36.41686224]
 [  1.          99.46412477]
 [  1.09391667  17.36040502]]","[[0.         1.35571263]
 [0.1        0.51147984]
 [0.2        0.41951934]
 [0.3        0.6442562 ]
 [0.4        0.98522539]
 [0.5        0.92132945]
 [0.6        1.4753131 ]
 [0.7        0.11499708]
 [0.8        1.03841664]
 [0.9        1.94583411]
 [1.         0.65545153]
 [1.09391667 1.59979165]]",0,0.15
2,f,31,english,5,3,english,2024-02-07 14:23:06.611782,False,2,430,sounds\english\audio/english_536.wav,"[[  0.          12.53985852]
 [  0.1         21.99103782]
 [  0.2         62.33634556]
 [  0.3        -74.90025976]
 [  0.4         32.85398174]
 [  0.5        -33.4537755 ]
 [  0.6        -42.71623429]
 [  0.7         -1.00699642]
 [  0.8        -25.01596186]
 [  0.9        -49.31989542]
 [  1.          38.02707377]
 [  1.09391667  50.96675347]]","[[0.         0.4318111 ]
 [0.1        1.06422616]
 [0.2        1.97390757]
 [0.3        0.26817195]
 [0.4        0.16804155]
 [0.5        0.37593725]
 [0.6        1.32070102]
 [0.7        0.04715572]
 [0.8        1.04948049]
 [0.9        0.94782972]
 [1.         1.69951962]
 [1.09391667 1.16734118]]",1,0.504
2,f,31,english,5,3,english,2024-02-07 14:23:06.611782,False,2,431,sounds\english\audio/english_103.wav,"[[  0.          48.6835233 ]
 [  0.1         36.55238137]
 [  0.2         48.06121709]
 [  0.3        -53.21418968]
 [  0.4        -84.49986715]
 [  0.5          2.274647  ]
 [  0.6         65.76169241]
 [  0.7        -54.56461338]
 [  0.8         -9.60778265]
 [  0.9         20.85441667]
 [  1.         -75.91935247]
 [  1.09391667 -89.16544197]]","[[0.         0.31659488]
 [0.1        0.91966706]
 [0.2        0.7088313 ]
 [0.3        0.61655079]
 [0.4        0.3504638 ]
 [0.5        0.15173733]
 [0.6        0.65986716]
 [0.7        1.01542857]
 [0.8        0.43719066]
 [0.9        1.38316606]
 [1.         1.2339212 ]
 [1.09391667 1.84830476]]",1,0.223
2,f,31,english,5,3,english,2024-02-07 14:23:06.611782,False,2,432,sounds\english\audio/english_919.wav,"[[  0.         -38.5670272 ]
 [  0.1          2.77922896]
 [  0.2         49.85197562]
 [  0.3         77.76044208]
 [  0.4        -29.8394914 ]
 [  0.5         -0.49098681]
 [  0.6        -75.25398624]
 [  0.7        -69.6637691 ]
 [  0.8         72.91981936]
 [  0.9        -53.88815215]
 [  1.           0.89047902]
 [  1.09391667 -50.064946  ]]","[[0.         0.46903116]
 [0.1        1.08350321]
 [0.2        1.32793945]
 [0.3        0.31154992]
 [0.4        0.67118234]
 [0.5        0.74590894]
 [0.6        1.99224787]
 [0.7        0.78909547]
 [0.8        0.46679106]
 [0.9        0.60556238]
 [1.         0.47961855]
 [1.09391667 1.09390391]]",1,0.215
2,f,31,english,5,3,english,2024-02-07 14:23:06.611782,False,2,433,sounds\english\audio/english_368.wav,"[[  0.         -21.74410199]
 [  0.1        -54.46820056]
 [  0.2         36.37288824]
