subj,sex,age,language,english,french,native_lang,date,practice,block,trial,stim,pitch,stretch,response,rt
8729820499,f,20,english,5,3,english,2024-01-25 10:40:18.164074,False,2,253,sounds\english\audio/english_459.wav,"[[  0.          18.44381796]
 [  0.1         46.92875809]
 [  0.2         -3.83763253]
 [  0.3        -48.73372346]
 [  0.4        -14.92000294]
 [  0.5         80.1348202 ]
 [  0.6        -86.26167397]
 [  0.7         -1.56579515]
 [  0.8        -19.43568929]
 [  0.9          7.94105636]
 [  1.          85.15006258]
 [  1.09391667 -33.12026838]]","[[0.         0.62620118]
 [0.1        1.02677372]
 [0.2        0.887778  ]
 [0.3        0.9749461 ]
 [0.4        0.21389959]
 [0.5        0.5331643 ]
 [0.6        0.89101651]
 [0.7        1.30262719]
 [0.8        1.62880583]
 [0.9        1.73371658]
 [1.         0.16404372]
 [1.09391667 1.85143865]]",1,7.024
8729820499,f,20,english,5,3,english,2024-01-25 10:40:18.164074,False,2,254,sounds\english\audio/english_966.wav,"[[  0.         -96.91789055]
 [  0.1        -64.86850103]
 [  0.2        -43.92628472]
 [  0.3        -93.7136214 ]
 [  0.4        -57.14902712]
 [  0.5        -12.68506719]
 [  0.6        -15.43922669]
 [  0.7         24.10386484]
 [  0.8          3.35646026]
 [  0.9         88.24028536]
 [  1.         -32.39213993]
 [  1.09391667  -1.72411588]]","[[0.         1.23686614]
 [0.1        0.67188965]
 [0.2        0.33271907]
 [0.3        1.62713329]
 [0.4        1.49154652]
 [0.5        1.31520623]
 [0.6        0.20724492]
 [0.7        0.13137995]
 [0.8        1.15134967]
 [0.9        0.75921019]
 [1.         0.67670762]
 [1.09391667 1.22586656]]",1,18.059
8729820499,f,20,english,5,3,english,2024-01-25 10:40:18.164074,False,2,255,sounds\english\audio/english_290.wav,"[[  0.           4.14643055]
 [  0.1         55.79753149]
 [  0.2        -63.42272798]
 [  0.3        -40.60813041]
 [  0.4        -85.79001431]
 [  0.5        -31.93461576]
 [  0.6        -73.76037774]
 [  0.7        -54.82415725]
 [  0.8         85.10642222]
 [  0.9        -54.96930538]
 [  1.          41.58093041]
 [  1.09391667  28.32805855]]","[[0.         1.34304487]
 [0.1        1.94828155]
 [0.2        1.81846113]
 [0.3        0.06068854]
 [0.4        0.95997788]
 [0.5        0.98743905]
 [0.6        0.49081153]
 [0.7        1.93641378]
 [0.8        0.02141652]
 [0.9        1.82619941]
 [1.         0.02158423]
 [1.09391667 1.73531275]]",0,1.137
8729820499,f,20,english,5,3,english,2024-01-25 10:40:18.164074,False,2,256,sounds\english\audio/english_194.wav,"[[  0.          56.78701541]
 [  0.1        -17.75053988]
 [  0.2         33.25886054]
 [  0.3        -36.30427417]
 [  0.4         87.2538064 ]
 [  0.5        -35.38798336]
 [  0.6        -16.86822867]
 [  0.7          3.74513195]
 [  0.8        -97.03953589]
 [  0.9        -34.95000954]
 [  1.          41.79469937]
 [  1.09391667 -99.09961294]]","[[0.         1.42004802]
 [0.1        0.01035796]
 [0.2        1.01435424]
 [0.3        0.10390295]
 [0.4        0.79219746]
 [0.5        0.28919857]
 [0.6        1.14065301]
 [0.7        1.55329947]
 [0.8        1.8735666 ]
 [0.9        1.68004219]
 [1.         0.7970796 ]
 [1.09391667 1.89727803]]",1,0.713
8729820499,f,20,english,5,3,english,2024-01-25 10:40:18.164074,False,2,257,sounds\english\audio/english_970.wav,"[[  0.         -54.89447986]
 [  0.1         25.1169893 ]
 [  0.2        -40.43511265]
 [  0.3        -62.36717191]
 [  0.4        -52.87769156]
 [  0.5        -60.51030312]
 [  0.6        -20.66217752]
 [  0.7         39.3890126 ]
 [  0.8        -42.20316614]
 [  0.9         -5.07453967]
 [  1.          63.70783578]
 [  1.09391667  15.89619138]]","[[0.         0.81951556]
 [0.1        1.67117432]
 [0.2        1.15867829]
 [0.3        1.19627059]
 [0.4        1.65204518]
 [0.5        1.89905296]
 [0.6        1.49874094]
 [0.7        1.49402448]
 [0.8        0.52089687]
 [0.9        0.54496633]
 [1.         0.14699143]
 [1.09391667 0.8383136 ]]",0,0.812
8729820499,f,20,english,5,3,english,2024-01-25 10:40:18.164074,False,2,258,sounds\english\audio/english_554.wav,"[[  0.          68.06713434]
 [  0.1         51.53363243]
 [  0.2         96.79789275]
 [  0.3        -32.97805092]
 [  0.4         38.32175517]
 [  0.5        -48.79684279]
 [  0.6          6.57101052]
 [  0.7         30.34426539]
 [  0.8         57.10485473]
 [  0.9        -93.21826179]
 [  1.          58.97430912]
 [  1.09391667  32.65345188]]","[[0.         1.26196428]
 [0.1        1.49608983]
 [0.2        1.01925431]
 [0.3        1.27259864]
 [0.4        0.99325409]
 [0.5        1.83296218]
 [0.6        1.99419824]
 [0.7        1.31395906]
 [0.8        1.83167901]
 [0.9        1.93422624]
 [1.         1.62256756]
 [1.09391667 0.90589094]]",0,0.736
8729820499,f,20,english,5,3,english,2024-01-25 10:40:18.164074,False,2,259,sounds\english\audio/english_478.wav,"[[  0.          49.52865222]
 [  0.1         12.15356225]
 [  0.2        -37.73778512]
 [  0.3        -10.50364884]
 [  0.4         38.58870475]
 [  0.5        -22.27355878]
 [  0.6        -48.47445884]
 [  0.7        -51.27115533]
 [  0.8         73.13710457]
 [  0.9          5.78656281]
 [  1.         -98.51331711]
 [  1.09391667  24.20472837]]","[[0.         0.59081153]
 [0.1        0.51284871]
 [0.2        1.1444407 ]
 [0.3        1.54775545]
 [0.4        1.52435775]
 [0.5        1.20325801]
 [0.6        0.62139426]
 [0.7        0.67212897]
 [0.8        1.21899898]
 [0.9        0.57488153]
 [1.         0.34521849]
 [1.09391667 1.9492818 ]]",1,0.89
8729820499,f,20,english,5,3,english,2024-01-25 10:40:18.164074,False,2,260,sounds\english\audio/english_475.wav,"[[  0.          29.80961577]
 [  0.1         48.86857013]
 [  0.2        -75.87963709]
 [  0.3         30.73642142]
 [  0.4        -47.77384215]
 [  0.5         95.74069733]
 [  0.6         49.89153758]
 [  0.7        -93.96412935]
 [  0.8        -13.00332235]
 [  0.9         80.99885276]
 [  1.         -12.77273084]
 [  1.09391667  -3.9803657 ]]","[[0.         0.43821818]
 [0.1        0.91916023]
 [0.2        1.43870603]
 [0.3        0.67232978]
 [0.4        0.927705  ]
 [0.5        0.04190462]
 [0.6        1.51758055]
 [0.7        1.81908107]
 [0.8        1.60949708]
 [0.9        1.9985333 ]
 [1.         1.07792874]
 [1.09391667 1.55358956]]",1,3.047
8729820499,f,20,english,5,3,english,2024-01-25 10:40:18.164074,False,2,261,sounds\english\audio/english_98.wav,"[[  0.         -38.17071081]
 [  0.1          3.99117813]
 [  0.2         76.94779223]
 [  0.3        -47.40720284]
 [  0.4         60.49673758]
 [  0.5        -72.0425771 ]
 [  0.6         75.35793907]
 [  0.7        -37.84878225]
 [  0.8         -2.2661701 ]
 [  0.9        -10.24921113]
 [  1.           2.65052449]
 [  1.09391667 -59.74440562]]","[[0.         1.32171021]
 [0.1        0.45941391]
 [0.2        1.60836627]
 [0.3        0.02861918]
 [0.4        0.62913144]
 [0.5        0.32921161]
 [0.6        0.47491973]
 [0.7        1.13024742]
 [0.8        1.3276578 ]
 [0.9        0.74289268]
 [1.         0.21343851]
 [1.09391667 0.54238322]]",0,1.462
8729820499,f,20,english,5,3,english,2024-01-25 10:40:18.164074,False,2,262,sounds\english\audio/english_756.wav,"[[  0.         -32.70542045]
 [  0.1         62.91454888]
 [  0.2         -9.17678833]
 [  0.3         16.28624283]
 [  0.4        -33.51792534]
 [  0.5         88.01648813]
 [  0.6         62.37064714]
 [  0.7        -52.3683359 ]
 [  0.8         56.37360277]
 [  0.9        -54.86484941]
 [  1.          91.23924333]
 [  1.09391667 -26.61223969]]","[[0.         0.92316539]
 [0.1        0.37547917]
 [0.2        1.92598223]
 [0.3        0.89010875]
 [0.4        0.38662098]
 [0.5        1.17672662]
 [0.6        0.21957896]
 [0.7        1.78953747]
 [0.8        1.89812903]
 [0.9        1.43873799]
 [1.         1.51351367]
 [1.09391667 1.73327561]]",0,0.344
8729820499,f,20,english,5,3,english,2024-01-25 10:40:18.164074,False,2,263,sounds\english\audio/english_482.wav,"[[  0.          20.07417146]
 [  0.1        -12.82737333]
 [  0.2         46.60771192]
 [  0.3         92.39920005]
 [  0.4         96.99690807]
 [  0.5         12.60829295]
 [  0.6        -23.92845314]
 [  0.7        -47.3765233 ]
 [  0.8         55.97987906]
 [  0.9         22.28704579]
 [  1.          67.15676761]
 [  1.09391667  46.69344931]]","[[0.         1.35721439]
 [0.1        1.71306389]
 [0.2        0.15096255]
 [0.3        1.17077369]
 [0.4        0.74035243]
 [0.5        1.34523093]
 [0.6        0.96774723]
 [0.7        1.67491069]
 [0.8        1.90247302]
 [0.9        1.31919575]
 [1.         1.48251796]
 [1.09391667 0.85176568]]",0,0.166
8729820499,f,20,english,5,3,english,2024-01-25 10:40:18.164074,False,2,264,sounds\english\audio/english_369.wav,"[[  0.         -98.51702781]
 [  0.1        -77.74164505]
 [  0.2         13.86053007]
 [  0.3         94.45294859]
 [  0.4        -68.44131684]
 [  0.5        -11.02159052]
 [  0.6        -93.03562761]
 [  0.7         92.19991551]
 [  0.8         44.28946949]
 [  0.9        -36.54704406]
 [  1.          75.92915306]
 [  1.09391667  43.6375557 ]]","[[0.         1.05319591]
 [0.1        0.35563608]
 [0.2        0.74921535]
 [0.3        1.88151113]
 [0.4        1.38340448]
 [0.5        1.0971757 ]
 [0.6        0.74102815]
 [0.7        0.86578633]
 [0.8        0.42333119]
 [0.9        1.30148328]
 [1.         0.13274677]
 [1.09391667 0.3552412 ]]",0,0.937
8729820499,f,20,english,5,3,english,2024-01-25 10:40:18.164074,False,2,265,sounds\english\audio/english_478.wav,"[[  0.          49.52865222]
 [  0.1         12.15356225]
 [  0.2        -37.73778512]
 [  0.3        -10.50364884]
 [  0.4         38.58870475]
 [  0.5        -22.27355878]
 [  0.6        -48.47445884]
 [  0.7        -51.27115533]
 [  0.8         73.13710457]
 [  0.9          5.78656281]
 [  1.         -98.51331711]
 [  1.09391667  24.20472837]]","[[0.         0.59081153]
 [0.1        0.51284871]
 [0.2        1.1444407 ]
 [0.3        1.54775545]
 [0.4        1.52435775]
 [0.5        1.20325801]
 [0.6        0.62139426]
 [0.7        0.67212897]
 [0.8        1.21899898]
 [0.9        0.57488153]
 [1.         0.34521849]
 [1.09391667 1.9492818 ]]",0,1.054
8729820499,f,20,english,5,3,english,2024-01-25 10:40:18.164074,False,2,266,sounds\english\audio/english_943.wav,"[[  0.          79.5890822 ]
 [  0.1         78.55264714]
 [  0.2         44.19658383]
 [  0.3        -16.14605168]
 [  0.4         46.84349784]
 [  0.5         67.29364224]
 [  0.6         62.75940247]
 [  0.7        -42.13911475]
 [  0.8        -19.02728939]
 [  0.9        -16.03900615]
 [  1.          15.22888591]
 [  1.09391667  60.70409514]]","[[0.         1.20824936]
 [0.1        0.88116928]
 [0.2        1.0423498 ]
 [0.3        1.30491636]
 [0.4        1.23781924]
 [0.5        1.19542323]
 [0.6        1.00041218]
 [0.7        1.18889719]
 [0.8        0.17654831]
 [0.9        0.65298118]
 [1.         0.96725626]
 [1.09391667 1.67455333]]",0,0.37
8729820499,f,20,english,5,3,english,2024-01-25 10:40:18.164074,False,2,267,sounds\english\audio/english_255.wav,"[[  0.          94.72265592]
 [  0.1          1.10845293]
 [  0.2         -1.90413972]
 [  0.3        -45.9655603 ]
 [  0.4         -6.89013944]
 [  0.5          3.45085104]
 [  0.6        -68.66949423]
 [  0.7        -22.56077648]
 [  0.8        -32.1394332 ]
 [  0.9         56.48595448]
 [  1.         -33.08950479]
 [  1.09391667  55.58931482]]","[[0.         1.19967406]
 [0.1        1.25035485]
 [0.2        1.85398204]
 [0.3        0.56259094]
 [0.4        1.07948955]
 [0.5        0.7328114 ]
 [0.6        0.49197221]
 [0.7        1.14850602]
 [0.8        1.46654584]
 [0.9        0.34163334]
 [1.         0.52219351]
 [1.09391667 1.18693331]]",0,1.624
8729820499,f,20,english,5,3,english,2024-01-25 10:40:18.164074,False,2,268,sounds\english\audio/english_150.wav,"[[  0.         -50.54232549]
 [  0.1         34.32153656]
 [  0.2        -10.92395048]
 [  0.3         53.72738624]
 [  0.4         62.41801081]
 [  0.5        -32.60317387]
 [  0.6        -14.80411838]
 [  0.7         55.20966729]
 [  0.8        -74.0684305 ]
 [  0.9         -4.87965611]
 [  1.         -79.50813125]
 [  1.09391667  24.9492826 ]]","[[0.         1.16258998]
 [0.1        0.79689364]
 [0.2        0.16790755]
 [0.3        0.35039588]
 [0.4        0.24836215]
 [0.5        0.38408886]
 [0.6        0.47894499]
 [0.7        1.81942338]
 [0.8        1.36079379]
 [0.9        1.63972786]
 [1.         1.65428446]
 [1.09391667 1.31063675]]",0,0.608
8729820499,f,20,english,5,3,english,2024-01-25 10:40:18.164074,False,2,269,sounds\english\audio/english_230.wav,"[[  0.          33.38389537]
 [  0.1        -34.15374901]
 [  0.2        -17.15972141]
 [  0.3         -8.06213265]
 [  0.4         10.20192226]
 [  0.5        -58.60843687]
 [  0.6         79.76687213]
 [  0.7        -68.85443864]
 [  0.8        -14.23970475]
 [  0.9        -88.80466565]
 [  1.         -64.76676699]
 [  1.09391667 -85.72124736]]","[[0.         1.56748289]
 [0.1        0.35840318]
 [0.2        0.69573927]
 [0.3        1.48062695]
 [0.4        1.80584749]
 [0.5        0.27713833]
 [0.6        0.54911174]
 [0.7        0.47648858]
 [0.8        1.61704234]
 [0.9        1.41921333]
 [1.         0.47778277]
 [1.09391667 0.86213517]]",0,0.567
8729820499,f,20,english,5,3,english,2024-01-25 10:40:18.164074,False,2,270,sounds\english\audio/english_513.wav,"[[  0.          69.69423026]
 [  0.1        -61.65221054]
 [  0.2         12.06620713]
 [  0.3         68.31024972]
 [  0.4         74.12641094]
 [  0.5          6.77833978]
 [  0.6         -4.07072349]
 [  0.7        -75.18978196]
 [  0.8        -25.44315508]
 [  0.9          1.64473536]
 [  1.         -82.34234751]
 [  1.09391667 -17.87879592]]","[[0.         1.14751405]
 [0.1        0.70036193]
 [0.2        1.7124885 ]
 [0.3        0.98016869]
 [0.4        0.11366006]
 [0.5        0.43979592]
 [0.6        1.91776754]
 [0.7        0.49107068]
 [0.8        0.92055325]
 [0.9        0.8410121 ]
 [1.         0.34671239]
 [1.09391667 1.52659427]]",0,0.314
8729820499,f,20,english,5,3,english,2024-01-25 10:40:18.164074,False,2,271,sounds\english\audio/english_795.wav,"[[  0.          87.97989278]
 [  0.1        -23.39853739]
 [  0.2         85.15897758]
 [  0.3         30.45214085]
 [  0.4         25.21841082]
 [  0.5         36.10678603]
 [  0.6         61.48762219]
 [  0.7         14.5754085 ]
 [  0.8        -57.54329739]
 [  0.9        -73.09117399]
 [  1.          77.49994784]
 [  1.09391667  89.63116882]]","[[0.         1.59591128]
 [0.1        1.94488646]
 [0.2        0.62481037]
 [0.3        0.56488466]
 [0.4        0.81270144]
 [0.5        1.54003491]
 [0.6        1.21959161]
 [0.7        0.84714061]
 [0.8        1.28928587]
 [0.9        1.61523869]
 [1.         1.68827262]
 [1.09391667 1.85702814]]",0,0.145
8729820499,f,20,english,5,3,english,2024-01-25 10:40:18.164074,False,2,272,sounds\english\audio/english_393.wav,"[[  0.         -58.74313134]
 [  0.1         46.38152714]
 [  0.2         -5.44961594]
 [  0.3         51.05560406]
 [  0.4         48.86629046]
 [  0.5         -0.66798529]
 [  0.6          8.72000336]
 [  0.7         67.13946978]
 [  0.8         18.17496414]
 [  0.9        -78.16206847]
 [  1.          26.35406132]
 [  1.09391667  94.49751902]]","[[0.         0.16237212]
 [0.1        1.56085016]
 [0.2        0.52643067]
 [0.3        0.88104135]
 [0.4        0.28565075]
 [0.5        1.31813369]
 [0.6        1.65879699]
 [0.7        1.88209371]
 [0.8        0.89524583]
 [0.9        0.64742398]
 [1.         0.57671432]
 [1.09391667 1.24089852]]",0,0.475
8729820499,f,20,english,5,3,english,2024-01-25 10:40:18.164074,False,2,273,sounds\english\audio/english_56.wav,"[[  0.          94.56130546]
 [  0.1         98.82920217]
 [  0.2        -30.68243792]
 [  0.3        -48.75978293]
 [  0.4        -79.08505246]
 [  0.5         18.07000914]
 [  0.6         57.19590548]
 [  0.7          6.7178476 ]
 [  0.8        -59.05070955]
 [  0.9        -76.10802368]
 [  1.         -28.87948521]
 [  1.09391667   8.04938486]]","[[0.         1.78248544]
 [0.1        0.32774506]
 [0.2        0.4010142 ]
 [0.3        0.84475133]
 [0.4        1.07558594]
 [0.5        1.2644329 ]
 [0.6        1.63811398]
 [0.7        1.3488209 ]
 [0.8        0.73862335]
 [0.9        0.85331353]
 [1.         1.24951522]
 [1.09391667 0.68295905]]",0,0.072
8729820499,f,20,english,5,3,english,2024-01-25 10:40:18.164074,False,2,274,sounds\english\audio/english_719.wav,"[[  0.         -74.07322153]
 [  0.1         35.75598847]
 [  0.2         82.97271333]
 [  0.3         17.0497448 ]
 [  0.4         25.23097934]
 [  0.5          4.16668302]
 [  0.6        -83.53078486]
 [  0.7        -81.53905497]
 [  0.8         32.10709268]
 [  0.9          9.14404491]
 [  1.          56.09727313]
 [  1.09391667 -90.02311852]]","[[0.         0.85431966]
 [0.1        1.01181763]
 [0.2        0.92312945]
 [0.3        0.56497759]
 [0.4        0.45096397]
 [0.5        1.21193737]
 [0.6        0.96594203]
 [0.7        0.58708741]
 [0.8        1.06053437]
 [0.9        1.09641521]
 [1.         1.58822768]
 [1.09391667 0.88380828]]",0,0.111
8729820499,f,20,english,5,3,english,2024-01-25 10:40:18.164074,False,2,275,sounds\english\audio/english_24.wav,"[[  0.          19.80934614]
 [  0.1         18.47296287]
 [  0.2        -87.44087303]
 [  0.3        -24.76838412]
 [  0.4         28.54854922]
 [  0.5        -93.00925389]
 [  0.6         43.83851229]
 [  0.7         56.50445967]
 [  0.8        -34.51680679]
 [  0.9         77.91008798]
 [  1.          22.21951013]
 [  1.09391667  44.21755505]]","[[0.         1.72303363]
 [0.1        1.17223446]
 [0.2        0.32252022]
 [0.3        1.29113778]
 [0.4        1.23026356]
 [0.5        1.272094  ]
 [0.6        1.03857334]
 [0.7        0.04355902]
 [0.8        1.12262583]
 [0.9        0.83275479]
 [1.         0.49987962]
 [1.09391667 0.6404637 ]]",0,0.206
8729820499,f,20,english,5,3,english,2024-01-25 10:40:18.164074,False,2,276,sounds\english\audio/english_728.wav,"[[  0.          86.97428458]
 [  0.1         68.85214371]
 [  0.2        -97.98565906]
 [  0.3         35.07930547]
 [  0.4        -30.18374109]
 [  0.5        -82.66469876]
 [  0.6         23.39578652]
 [  0.7         26.21600665]
 [  0.8         40.56146868]
 [  0.9          8.84190716]
 [  1.          42.34962336]
 [  1.09391667 -32.07226286]]","[[0.         1.28134459]
 [0.1        0.92040862]
 [0.2        0.75536346]
 [0.3        1.26670058]
 [0.4        0.22005976]
 [0.5        1.42168107]
 [0.6        1.49957944]
 [0.7        0.84685957]
 [0.8        0.54890831]
 [0.9        1.06754414]
 [1.         0.96376908]
 [1.09391667 0.10029528]]",0,0.242
8729820499,f,20,english,5,3,english,2024-01-25 10:40:18.164074,False,2,277,sounds\english\audio/english_439.wav,"[[  0.          65.61179343]
 [  0.1        -39.97146472]
 [  0.2        -86.73516171]
 [  0.3        -74.3506223 ]
 [  0.4        -81.32603757]
 [  0.5        -10.38113119]
 [  0.6        -69.09018152]
 [  0.7        -89.25700292]
 [  0.8         19.63434649]
 [  0.9        -97.86540823]
 [  1.          14.21326079]
 [  1.09391667 -79.27637989]]","[[0.         0.83700943]
 [0.1        0.2618818 ]
 [0.2        1.31905662]
 [0.3        1.4582753 ]
 [0.4        1.31458936]
 [0.5        1.35802682]
 [0.6        0.4851906 ]
 [0.7        1.37617677]
 [0.8        1.69244764]
 [0.9        0.50733375]
 [1.         1.77327588]
 [1.09391667 0.89651159]]",0,2.015
8729820499,f,20,english,5,3,english,2024-01-25 10:40:18.164074,False,2,278,sounds\english\audio/english_187.wav,"[[  0.          55.99370729]
 [  0.1        -13.74585555]
 [  0.2         -0.42640895]
 [  0.3        -47.34493384]
 [  0.4          1.27244399]
 [  0.5        -51.74565009]
 [  0.6        -77.25155481]
 [  0.7         69.19112944]
 [  0.8        -97.84143732]
 [  0.9          5.06490506]
 [  1.          67.30450542]
 [  1.09391667  44.03847764]]","[[0.         1.82256068]
 [0.1        1.69505517]
 [0.2        1.33791079]
 [0.3        0.12415078]
 [0.4        1.40350832]
 [0.5        1.6134035 ]
 [0.6        1.12966524]
 [0.7        0.02740784]
 [0.8        1.26777643]
 [0.9        1.52431862]
 [1.         1.3588447 ]
 [1.09391667 1.80453633]]",0,0.071
8729820499,f,20,english,5,3,english,2024-01-25 10:40:18.164074,False,2,279,sounds\english\audio/english_764.wav,"[[  0.         -83.00734362]
 [  0.1         84.10171544]
 [  0.2         49.2008901 ]
 [  0.3        -10.6841825 ]
 [  0.4         -4.51825693]
 [  0.5         13.05855171]
 [  0.6        -89.35484482]
 [  0.7         31.98534685]
 [  0.8        -75.69390241]
 [  0.9         27.20832849]
 [  1.          56.31930051]
 [  1.09391667 -35.91935055]]","[[0.00000000e+00 1.43154352e+00]
 [1.00000000e-01 1.56325347e+00]
 [2.00000000e-01 1.26543708e+00]
 [3.00000000e-01 4.23798415e-01]
 [4.00000000e-01 1.27376863e+00]
 [5.00000000e-01 7.58380694e-01]
 [6.00000000e-01 1.00351200e-03]
 [7.00000000e-01 8.99071383e-01]
 [8.00000000e-01 1.10287579e+00]
 [9.00000000e-01 1.25133293e+00]
 [1.00000000e+00 1.83305733e+00]
 [1.09391667e+00 1.51505239e+00]]",0,0.984
8729820499,f,20,english,5,3,english,2024-01-25 10:40:18.164074,False,2,280,sounds\english\audio/english_208.wav,"[[  0.          13.17731857]
 [  0.1         13.38844503]
 [  0.2         -2.93736893]
 [  0.3         65.128601  ]
 [  0.4         53.87360247]
 [  0.5         -0.34021564]
 [  0.6        -58.53870567]
 [  0.7        -81.74346202]
 [  0.8        -87.40484801]
 [  0.9         -0.74903693]
 [  1.          44.66507116]
 [  1.09391667  86.63877281]]","[[0.         0.34094022]
 [0.1        0.19016609]
 [0.2        0.78973148]
 [0.3        1.45881618]
 [0.4        1.41599405]
 [0.5        1.39781882]
 [0.6        0.32952238]
 [0.7        0.80753811]
 [0.8        0.14343543]
 [0.9        1.78385386]
 [1.         1.76017797]
 [1.09391667 0.82405184]]",0,0.211
8729820499,f,20,english,5,3,english,2024-01-25 10:40:18.164074,False,2,281,sounds\english\audio/english_605.wav,"[[  0.          -8.49945262]
 [  0.1         78.59318703]
 [  0.2          5.51226276]
 [  0.3        -57.71623977]
 [  0.4        -16.40155513]
 [  0.5         65.3464243 ]
 [  0.6         75.43847502]
 [  0.7        -23.5169708 ]
 [  0.8         90.90480097]
 [  0.9          2.3218264 ]
 [  1.         -54.16543883]
 [  1.09391667 -30.94766284]]","[[0.         0.18632105]
 [0.1        0.57386106]
 [0.2        1.08904108]
 [0.3        1.06659478]
 [0.4        1.07197466]
 [0.5        0.99856442]
 [0.6        1.20108487]
 [0.7        0.82408686]
 [0.8        1.4403859 ]
 [0.9        1.38639998]
 [1.         0.92793051]
 [1.09391667 1.95794577]]",0,0.79
8729820499,f,20,english,5,3,english,2024-01-25 10:40:18.164074,False,2,282,sounds\english\audio/english_404.wav,"[[  0.          51.0629149 ]
 [  0.1        -20.11660717]
 [  0.2        -24.08850376]
 [  0.3        -31.42467522]
 [  0.4         53.01415625]
 [  0.5        -45.18749729]
 [  0.6         75.22262363]
 [  0.7         53.71694776]
 [  0.8        -31.94049291]
 [  0.9         64.49384663]
 [  1.         -87.57862232]
 [  1.09391667 -93.26487386]]","[[0.         0.92872816]
 [0.1        1.09197178]
 [0.2        1.28516423]
 [0.3        0.67196706]
 [0.4        0.26298551]
 [0.5        0.832552  ]
 [0.6        0.94238773]
 [0.7        0.97166455]
 [0.8        0.24504   ]
 [0.9        1.54934709]
 [1.         0.71675997]
 [1.09391667 1.21108184]]",1,0.901
8729820499,f,20,english,5,3,english,2024-01-25 10:40:18.164074,False,2,283,sounds\english\audio/english_105.wav,"[[  0.          -2.78582129]
 [  0.1        -47.38376557]
 [  0.2        -34.39843647]
 [  0.3         46.98736853]
 [  0.4        -49.43003963]
 [  0.5         38.45298993]
 [  0.6        -40.48082685]
 [  0.7        -51.12213105]
 [  0.8         21.68306499]
 [  0.9         47.55235399]
 [  1.          34.72628387]
 [  1.09391667 -48.05463592]]","[[0.         1.58600254]
 [0.1        1.11025346]
 [0.2        0.10251387]
 [0.3        1.2200198 ]
 [0.4        1.30093265]
 [0.5        0.48849845]
 [0.6        0.43711301]
 [0.7        1.15590429]
 [0.8        1.91934773]
 [0.9        0.93806277]
 [1.         0.69549788]
 [1.09391667 1.35655827]]",0,0.175
8729820499,f,20,english,5,3,english,2024-01-25 10:40:18.164074,False,2,284,sounds\english\audio/english_604.wav,"[[  0.          -7.32786977]
 [  0.1        -57.46968162]
 [  0.2        -51.48206507]
 [  0.3         77.63466913]
 [  0.4         45.22839705]
 [  0.5        -27.78980975]
 [  0.6        -14.67402927]
 [  0.7         66.92200223]
 [  0.8         44.7359597 ]
 [  0.9         87.34456413]
 [  1.          37.61860755]
 [  1.09391667  91.85438616]]","[[0.         0.45756233]
 [0.1        0.00297482]
 [0.2        1.19670532]
 [0.3        0.65081773]
 [0.4        0.22469511]
 [0.5        0.33338284]
 [0.6        1.91381058]
 [0.7        0.36993011]
 [0.8        1.21459689]
 [0.9        1.1126352 ]
 [1.         1.39772335]
 [1.09391667 1.16252792]]",0,0.258
8729820499,f,20,english,5,3,english,2024-01-25 10:40:18.164074,False,2,285,sounds\english\audio/english_283.wav,"[[  0.         -12.90091121]
 [  0.1         42.27249946]
 [  0.2          5.12381798]
 [  0.3          1.7675065 ]
 [  0.4        -21.55461961]
 [  0.5        -31.65586282]
 [  0.6         20.15160145]
 [  0.7         82.41987013]
 [  0.8         59.09454669]
 [  0.9         36.30583869]
 [  1.         -40.78038553]
 [  1.09391667  39.65520312]]","[[0.         0.5789399 ]
 [0.1        1.95381107]
 [0.2        1.0168321 ]
 [0.3        0.61202955]
 [0.4        0.89680875]
 [0.5        1.15056599]
 [0.6        0.34242076]
 [0.7        1.76180701]
 [0.8        0.95604839]
 [0.9        1.86733505]
 [1.         1.17388738]
 [1.09391667 1.73016304]]",0,0.821
8729820499,f,20,english,5,3,english,2024-01-25 10:40:18.164074,False,2,286,sounds\english\audio/english_685.wav,"[[  0.          62.22235335]
 [  0.1        -97.11025465]
 [  0.2         72.03160739]
 [  0.3         40.47895004]
 [  0.4        -75.64985874]
 [  0.5        -62.21115329]
 [  0.6         34.38722215]
 [  0.7         96.86141958]
 [  0.8         52.32592552]
 [  0.9         47.74773781]
 [  1.          37.75239805]
 [  1.09391667 -10.16077912]]","[[0.         0.91642602]
 [0.1        1.72329218]
 [0.2        1.99088782]
 [0.3        0.00501952]
 [0.4        1.41330373]
 [0.5        0.58310659]
 [0.6        1.5248844 ]
 [0.7        0.15841589]
 [0.8        1.39576372]
 [0.9        1.97205737]
 [1.         1.24408728]
 [1.09391667 1.54258522]]",0,0.412
8729820499,f,20,english,5,3,english,2024-01-25 10:40:18.164074,False,2,287,sounds\english\audio/english_102.wav,"[[  0.          63.84613738]
 [  0.1        -19.50774511]
 [  0.2          8.66527759]
 [  0.3         11.48698438]
 [  0.4         31.94885704]
 [  0.5        -38.92668569]
 [  0.6        -49.51123853]
 [  0.7         61.27640526]
 [  0.8        -26.83244911]
 [  0.9         49.29328507]
 [  1.          88.72427416]
 [  1.09391667  44.23475018]]","[[0.         0.68072363]
 [0.1        0.78322964]
 [0.2        1.38231374]
 [0.3        0.72244783]
 [0.4        0.35985071]
 [0.5        0.73914497]
 [0.6        1.62389413]
 [0.7        1.34969733]
 [0.8        0.03321173]
 [0.9        0.74119752]
 [1.         0.40516815]
 [1.09391667 1.39286308]]",1,2.106
8729820499,f,20,english,5,3,english,2024-01-25 10:40:18.164074,False,2,288,sounds\english\audio/english_119.wav,"[[  0.          98.57605275]
 [  0.1         48.19569196]
 [  0.2         96.20670949]
 [  0.3        -19.19200662]
 [  0.4         52.83768905]
 [  0.5          1.85412636]
 [  0.6         37.01820811]
 [  0.7         29.79521621]
 [  0.8        -57.64713834]
 [  0.9         35.78201522]
 [  1.          49.99655896]
 [  1.09391667   7.1972062 ]]","[[0.         0.1031314 ]
 [0.1        0.53372727]
 [0.2        1.31286157]
 [0.3        0.99072858]
 [0.4        0.59990508]
 [0.5        1.80726182]
 [0.6        1.09281433]
 [0.7        0.09331625]
 [0.8        0.67056306]
 [0.9        1.21362775]
 [1.         0.49048318]
 [1.09391667 0.07431613]]",0,0.505
8729820499,f,20,english,5,3,english,2024-01-25 10:40:18.164074,False,2,289,sounds\english\audio/english_23.wav,"[[  0.         -81.37820874]
 [  0.1         78.5335862 ]
 [  0.2          2.49490295]
 [  0.3        -86.79579175]
 [  0.4         67.70163639]
 [  0.5         15.95354821]
 [  0.6         39.96363373]
 [  0.7         26.12658962]
 [  0.8        -97.91039736]
 [  0.9        -31.02807756]
 [  1.         -20.21947661]
 [  1.09391667 -62.16065677]]","[[0.         0.766267  ]
 [0.1        0.99963617]
 [0.2        0.86356333]
 [0.3        1.2935249 ]
 [0.4        1.06200742]
 [0.5        0.35652914]
 [0.6        0.94623028]
 [0.7        1.75391992]
 [0.8        0.51382587]
 [0.9        0.42089134]
 [1.         0.35251111]
 [1.09391667 0.28724109]]",0,0.278
8729820499,f,20,english,5,3,english,2024-01-25 10:40:18.164074,False,2,290,sounds\english\audio/english_37.wav,"[[  0.          68.40782596]
 [  0.1         41.58379148]
 [  0.2         63.04378759]
 [  0.3         12.39470235]
 [  0.4        -38.69600303]
 [  0.5        -51.98957982]
 [  0.6         90.7945682 ]
 [  0.7         40.67115675]
 [  0.8         34.01498334]
 [  0.9        -88.26662934]
 [  1.         -41.35685221]
 [  1.09391667 -27.43470179]]","[[0.         0.52957209]
 [0.1        1.67320718]
 [0.2        1.31144487]
 [0.3        1.11254506]
 [0.4        0.57972705]
 [0.5        0.30651039]
 [0.6        0.45858619]
 [0.7        1.55641423]
 [0.8        1.01642962]
 [0.9        0.95850402]
 [1.         0.70833558]
 [1.09391667 0.55678167]]",0,0.15
8729820499,f,20,english,5,3,english,2024-01-25 10:40:18.164074,False,2,291,sounds\english\audio/english_598.wav,"[[  0.          66.59254232]
 [  0.1         -0.16294116]
 [  0.2         87.91623233]
 [  0.3          4.78179149]
 [  0.4         87.27330533]
 [  0.5         15.94205468]
 [  0.6        -57.72302194]
 [  0.7        -11.53545195]
 [  0.8        -97.23766847]
 [  0.9        -89.11050407]
 [  1.          -7.65193873]
 [  1.09391667  -0.117565  ]]","[[0.         1.11503085]
 [0.1        1.29891619]
 [0.2        0.04302605]
 [0.3        1.90355783]
 [0.4        0.66957129]
 [0.5        1.28062406]
 [0.6        0.15067731]
 [0.7        0.37044447]
 [0.8        0.00668091]
 [0.9        1.24076678]
 [1.         0.4751477 ]
 [1.09391667 1.3589293 ]]",0,1.713
8729820499,f,20,english,5,3,english,2024-01-25 10:40:18.164074,False,2,292,sounds\english\audio/english_981.wav,"[[  0.          24.3055989 ]
 [  0.1         28.97891723]
 [  0.2         51.4418758 ]
 [  0.3        -41.6425055 ]
 [  0.4         -6.63622722]
 [  0.5         90.98935315]
 [  0.6        -91.30627378]
 [  0.7        -70.54702949]
 [  0.8         37.31249144]
 [  0.9         44.20519134]
 [  1.         -85.22636705]
 [  1.09391667  33.48956199]]","[[0.         1.29303253]
 [0.1        1.06779992]
 [0.2        1.11588817]
 [0.3        1.45059858]
 [0.4        0.93926956]
 [0.5        0.09427917]
 [0.6        0.99584654]
 [0.7        1.20164622]
 [0.8        1.37323006]
 [0.9        0.98395355]
 [1.         0.17020531]
 [1.09391667 0.83321676]]",0,0.496
8729820499,f,20,english,5,3,english,2024-01-25 10:40:18.164074,False,2,293,sounds\english\audio/english_974.wav,"[[  0.         -93.03864928]
 [  0.1        -77.75716604]
 [  0.2          0.69139929]
 [  0.3         26.0953238 ]
 [  0.4         98.53440651]
 [  0.5         92.94553081]
 [  0.6         -7.63804917]
 [  0.7          9.10874073]
 [  0.8        -89.79433239]
 [  0.9        -25.22506103]
 [  1.          90.91634132]
 [  1.09391667  96.1258414 ]]","[[0.         0.43845399]
 [0.1        1.6903579 ]
 [0.2        1.16063432]
 [0.3        1.86115796]
 [0.4        1.84489406]
 [0.5        1.48551441]
 [0.6        0.45444214]
 [0.7        0.66005011]
 [0.8        1.73425962]
 [0.9        0.5346903 ]
 [1.         1.12098349]
 [1.09391667 0.52486182]]",0,0.768
8729820499,f,20,english,5,3,english,2024-01-25 10:40:18.164074,False,2,294,sounds\english\audio/english_926.wav,"[[  0.          53.49151787]
 [  0.1         10.58129761]
 [  0.2         10.53773661]
 [  0.3         41.27195991]
 [  0.4        -17.37234578]
 [  0.5         66.8871695 ]
 [  0.6         69.01436048]
 [  0.7         89.40824761]
 [  0.8        -98.42632437]
 [  0.9         27.58055205]
 [  1.         -11.99004947]
 [  1.09391667  15.35572308]]","[[0.00000000e+00 2.26364497e-01]
 [1.00000000e-01 7.21176289e-04]
 [2.00000000e-01 8.75811779e-01]
 [3.00000000e-01 1.25055456e+00]
 [4.00000000e-01 5.46896354e-01]
 [5.00000000e-01 1.08222942e+00]
 [6.00000000e-01 8.38599058e-01]
 [7.00000000e-01 6.26338416e-01]
 [8.00000000e-01 1.27601453e+00]
 [9.00000000e-01 1.32538862e+00]
 [1.00000000e+00 1.73191108e+00]
 [1.09391667e+00 6.29016927e-01]]",0,1.167
8729820499,f,20,english,5,3,english,2024-01-25 10:40:18.164074,False,2,295,sounds\english\audio/english_140.wav,"[[  0.           3.17682923]
 [  0.1          6.35877152]
 [  0.2         -9.02165969]
 [  0.3        -36.47269085]
 [  0.4        -72.32699921]
 [  0.5        -28.69942826]
 [  0.6         68.422362  ]
 [  0.7        -32.97741766]
 [  0.8        -98.50350873]
 [  0.9          4.47546112]
 [  1.         -70.93750026]
 [  1.09391667  36.42764636]]","[[0.         0.87887046]
 [0.1        0.507187  ]
 [0.2        0.30654511]
 [0.3        0.61695793]
 [0.4        1.67577575]
 [0.5        0.30689604]
 [0.6        1.73923813]
 [0.7        1.33940979]
 [0.8        1.86246524]
 [0.9        0.68629119]
 [1.         1.82050493]
 [1.09391667 1.04858085]]",0,1.991
8729820499,f,20,english,5,3,english,2024-01-25 10:40:18.164074,False,2,296,sounds\english\audio/english_422.wav,"[[  0.          15.30476558]
 [  0.1         46.85469973]
 [  0.2        -55.01275076]
 [  0.3        -88.68955981]
 [  0.4         69.37127288]
 [  0.5         19.59216644]
 [  0.6         -6.38015959]
 [  0.7        -75.18241686]
 [  0.8         53.59227304]
 [  0.9        -58.58137106]
 [  1.         -12.61550451]
 [  1.09391667 -47.53760567]]","[[0.         1.12660373]
 [0.1        1.77150152]
 [0.2        0.07610986]
 [0.3        1.87054914]
 [0.4        0.4194099 ]
 [0.5        1.01013961]
 [0.6        1.42576712]
 [0.7        0.77140618]
 [0.8        0.92977939]
 [0.9        0.22126866]
 [1.         1.35947282]
 [1.09391667 0.9860846 ]]",0,1.008
8729820499,f,20,english,5,3,english,2024-01-25 10:40:18.164074,False,2,297,sounds\english\audio/english_749.wav,"[[  0.         -98.755033  ]
 [  0.1         42.65363822]
 [  0.2         26.16294791]
 [  0.3        -49.82375857]
 [  0.4        -23.36229669]
 [  0.5         35.77035363]
 [  0.6          7.03000202]
 [  0.7         35.98122364]
 [  0.8         28.50180833]
 [  0.9          7.93583133]
 [  1.          35.65640922]
 [  1.09391667  51.80769378]]","[[0.         1.96334233]
 [0.1        1.48975569]
 [0.2        0.57355189]
 [0.3        1.77057057]
 [0.4        0.88660826]
 [0.5        1.64369118]
 [0.6        1.42265123]
 [0.7        1.36887772]
 [0.8        0.73095149]
 [0.9        1.72699402]
 [1.         1.24379364]
 [1.09391667 0.86036236]]",0,0.551
8729820499,f,20,english,5,3,english,2024-01-25 10:40:18.164074,False,2,298,sounds\english\audio/english_363.wav,"[[  0.          -5.66534259]
 [  0.1         96.57780227]
 [  0.2          8.75498082]
 [  0.3        -62.00877197]
 [  0.4         55.64754403]
 [  0.5         60.40753337]
 [  0.6         28.13214645]
 [  0.7         80.12225937]
 [  0.8         96.25782192]
 [  0.9        -69.76671387]
 [  1.          60.27804949]
 [  1.09391667  31.6619376 ]]","[[0.         1.60513634]
 [0.1        0.93762693]
 [0.2        1.53396088]
 [0.3        1.61687943]
 [0.4        0.81027283]
 [0.5        0.96421289]
 [0.6        0.44675755]
 [0.7        1.7907484 ]
 [0.8        1.63025461]
 [0.9        1.21594348]
 [1.         1.84929312]
 [1.09391667 0.74880834]]",0,0.116
8729820499,f,20,english,5,3,english,2024-01-25 10:40:18.164074,False,2,299,sounds\english\audio/english_470.wav,"[[  0.           7.37990413]
 [  0.1         87.94942489]
 [  0.2         10.38249529]
 [  0.3        -58.07329771]
 [  0.4         23.85321855]
 [  0.5          6.8444155 ]
 [  0.6        -98.77408233]
 [  0.7         31.31374825]
 [  0.8         48.11301354]
 [  0.9         41.85545408]
 [  1.         -24.66275902]
 [  1.09391667 -90.92929456]]","[[0.         0.50795653]
 [0.1        0.30691906]
 [0.2        0.98636118]
 [0.3        1.21445168]
 [0.4        1.48681533]
 [0.5        0.97810489]
 [0.6        1.43803165]
 [0.7        0.53571114]
 [0.8        0.52187188]
 [0.9        0.48211822]
 [1.         1.48098769]
 [1.09391667 1.20326113]]",0,0.103
8729820499,f,20,english,5,3,english,2024-01-25 10:40:18.164074,False,2,300,sounds\english\audio/english_396.wav,"[[  0.          84.93727222]
 [  0.1        -63.66791866]
 [  0.2         14.45946743]
 [  0.3         -3.11232885]
 [  0.4        -24.43595518]
 [  0.5        -51.99030464]
 [  0.6         79.76166554]
 [  0.7         57.3813763 ]
 [  0.8         31.81531803]
 [  0.9         63.48869565]
 [  1.          71.83555581]
 [  1.09391667  -2.44249492]]","[[0.         0.86172546]
 [0.1        1.32010306]
 [0.2        1.92977093]
 [0.3        1.56073736]
 [0.4        0.53468527]
 [0.5        1.39813115]
 [0.6        0.18875949]
 [0.7        0.18509546]
 [0.8        0.3363238 ]
 [0.9        0.50261655]
 [1.         1.79852856]
 [1.09391667 0.37213294]]",0,0.43
8729820499,f,20,english,5,3,english,2024-01-25 10:40:18.164074,False,2,301,sounds\english\audio/english_186.wav,"[[  0.          34.67628328]
 [  0.1        -19.53122367]
 [  0.2         31.036007  ]
 [  0.3        -94.39309916]
 [  0.4          2.96716774]
 [  0.5         44.13973284]
 [  0.6         41.34226894]
 [  0.7         89.79294986]
 [  0.8          5.87570889]
 [  0.9        -94.07260309]
 [  1.          56.55218839]
 [  1.09391667 -18.95393722]]","[[0.         1.75816844]
 [0.1        1.94712822]
 [0.2        0.76716396]
 [0.3        1.39701873]
 [0.4        1.30823473]
 [0.5        0.38912271]
 [0.6        0.09265328]
 [0.7        1.13224893]
 [0.8        0.32682785]
 [0.9        0.08299448]
 [1.         0.76365709]
 [1.09391667 1.25330528]]",1,1.66
8729820499,f,20,english,5,3,english,2024-01-25 10:40:18.164074,False,2,302,sounds\english\audio/english_239.wav,"[[ 0.00000000e+00 -3.05267656e+01]
 [ 1.00000000e-01  8.69253709e+01]
 [ 2.00000000e-01  9.81444663e+01]
 [ 3.00000000e-01  3.73344739e+00]
 [ 4.00000000e-01  9.37963197e+01]
 [ 5.00000000e-01  3.55240778e+00]
 [ 6.00000000e-01  6.80566249e+01]
 [ 7.00000000e-01 -8.62323076e-02]
 [ 8.00000000e-01 -2.03909635e+01]
 [ 9.00000000e-01  1.40711591e+01]
 [ 1.00000000e+00 -8.12414996e+00]
 [ 1.09391667e+00  5.71088195e+01]]","[[0.         1.39175326]
 [0.1        0.20187761]
 [0.2        0.94285365]
 [0.3        0.80472341]
 [0.4        1.04208815]
 [0.5        1.26812124]
 [0.6        0.21560502]
 [0.7        1.00669433]
 [0.8        0.33435282]
 [0.9        1.80648064]
 [1.         0.53666305]
 [1.09391667 0.81763806]]",0,0.138
8729820499,f,20,english,5,3,english,2024-01-25 10:40:18.164074,False,2,303,sounds\english\audio/english_206.wav,"[[  0.         -99.12855739]
 [  0.1        -89.51576504]
 [  0.2        -90.40464902]
 [  0.3        -70.32755561]
 [  0.4         78.03699917]
 [  0.5          8.07565508]
 [  0.6         38.18456427]
 [  0.7        -75.53493724]
 [  0.8         54.10683872]
 [  0.9        -40.64897969]
 [  1.          -1.29434589]
 [  1.09391667  55.83604692]]","[[0.         1.20636597]
 [0.1        0.87803278]
 [0.2        1.07282405]
 [0.3        1.36131617]
 [0.4        0.62923097]
 [0.5        1.02359746]
 [0.6        0.86752629]
 [0.7        1.35404338]
 [0.8        1.4732865 ]
 [0.9        0.47250575]
 [1.         1.31829488]
 [1.09391667 0.97831941]]",0,0.176
8729820499,f,20,english,5,3,english,2024-01-25 10:40:18.164074,False,2,304,sounds\english\audio/english_609.wav,"[[  0.          45.1693917 ]
 [  0.1        -72.3247495 ]
 [  0.2         18.68361548]
 [  0.3        -27.6682302 ]
 [  0.4          3.63671522]
 [  0.5         21.21340101]
 [  0.6         15.49381211]
 [  0.7          1.52669615]
 [  0.8         25.44993701]
 [  0.9        -58.9173922 ]
 [  1.           4.8985277 ]
 [  1.09391667 -19.12587244]]","[[0.         1.16218677]
 [0.1        1.56939275]
 [0.2        1.47980491]
 [0.3        1.03639669]
 [0.4        0.81396394]
 [0.5        1.33770591]
 [0.6        1.85408959]
 [0.7        0.1270649 ]
 [0.8        0.72088093]
 [0.9        1.10933741]
 [1.         0.9989657 ]
 [1.09391667 1.15972192]]",0,0.198
8729820499,f,20,english,5,3,english,2024-01-25 10:40:18.164074,False,2,305,sounds\english\audio/english_954.wav,"[[  0.          -5.86860432]
 [  0.1         38.42724969]
 [  0.2         83.51680292]
 [  0.3        -25.06032499]
 [  0.4        -17.48975264]
 [  0.5         95.06102198]
 [  0.6          0.80140457]
 [  0.7        -41.69263262]
 [  0.8         18.46045351]
 [  0.9         -7.88727361]
 [  1.         -34.36872213]
 [  1.09391667  40.0906943 ]]","[[0.         0.02682789]
 [0.1        1.50907573]
 [0.2        1.17187714]
 [0.3        1.88473576]
 [0.4        0.3035603 ]
 [0.5        1.35082964]
 [0.6        0.63281948]
 [0.7        0.91375779]
 [0.8        0.80486046]
 [0.9        0.18383046]
 [1.         1.25307449]
 [1.09391667 0.22905501]]",0,0.118
8729820499,f,20,english,5,3,english,2024-01-25 10:40:18.164074,False,2,306,sounds\english\audio/english_79.wav,"[[  0.          27.97817784]
 [  0.1         71.46944993]
 [  0.2         89.05489336]
 [  0.3        -19.05433113]
 [  0.4        -69.45960299]
 [  0.5         73.78187689]
 [  0.6         45.30424973]
 [  0.7        -12.3964906 ]
 [  0.8         -6.65615849]
 [  0.9         20.78943027]
 [  1.         -67.05166292]
 [  1.09391667 -53.62396235]]","[[0.         0.84571494]
 [0.1        1.27709221]
 [0.2        1.27075812]
 [0.3        1.99746898]
 [0.4        0.86632135]
 [0.5        1.18439274]
 [0.6        0.05743494]
 [0.7        1.88609771]
 [0.8        1.07546111]
 [0.9        0.97034818]
 [1.         0.94663039]
 [1.09391667 0.1925317 ]]",1,1.788
8729820499,f,20,english,5,3,english,2024-01-25 10:40:18.164074,False,2,307,sounds\english\audio/english_382.wav,"[[  0.          51.10840748]
 [  0.1        -91.92289356]
 [  0.2        -79.84820622]
 [  0.3         77.1343998 ]
 [  0.4        -28.37542717]
 [  0.5        -45.23452982]
 [  0.6        -99.13090952]
 [  0.7         78.74968094]
 [  0.8        -29.18128543]
 [  0.9          2.6821327 ]
 [  1.          72.60334223]
 [  1.09391667 -39.78930979]]","[[0.         1.50482446]
 [0.1        1.64118974]
 [0.2        1.27294553]
 [0.3        1.68382972]
 [0.4        0.77725399]
 [0.5        0.19931522]
 [0.6        1.54066958]
 [0.7        1.92796372]
 [0.8        1.53197117]
 [0.9        0.33786537]
 [1.         0.41937099]
 [1.09391667 0.9246019 ]]",0,1.12
8729820499,f,20,english,5,3,english,2024-01-25 10:40:18.164074,False,2,308,sounds\english\audio/english_736.wav,"[[  0.         -40.28778627]
 [  0.1        -59.09726207]
 [  0.2         98.49969238]
 [  0.3         46.0778128 ]
 [  0.4        -55.04304699]
 [  0.5         34.12740936]
 [  0.6         54.26275803]
 [  0.7        -55.98308326]
 [  0.8         59.79863481]
 [  0.9         88.14503005]
 [  1.          91.37007784]
 [  1.09391667  76.63160817]]","[[0.         1.23426282]
 [0.1        0.97807774]
 [0.2        0.54049946]
 [0.3        1.1691641 ]
 [0.4        1.22843398]
 [0.5        0.9861662 ]
 [0.6        0.17445904]
 [0.7        1.1578723 ]
 [0.8        1.37075184]
 [0.9        1.47849055]
 [1.         0.08571689]
 [1.09391667 1.4768314 ]]",0,0.442
8729820499,f,20,english,5,3,english,2024-01-25 10:40:18.164074,False,2,309,sounds\english\audio/english_624.wav,"[[  0.          34.76400378]
 [  0.1        -36.42076645]
 [  0.2        -52.38985079]
 [  0.3         98.14853718]
 [  0.4         97.5674754 ]
 [  0.5        -80.04687885]
 [  0.6         -8.81047571]
 [  0.7        -78.45129318]
 [  0.8         39.54454361]
 [  0.9         32.62160332]
 [  1.         -98.98158135]
 [  1.09391667  19.08613563]]","[[0.         1.78994994]
 [0.1        1.4795907 ]
 [0.2        1.80721514]
 [0.3        1.70059719]
 [0.4        0.69719837]
 [0.5        1.37290399]
 [0.6        1.53741575]
 [0.7        1.54350611]
 [0.8        0.49170725]
 [0.9        1.04663897]
 [1.         0.63020253]
 [1.09391667 0.96318783]]",0,1.021
8729820499,f,20,english,5,3,english,2024-01-25 10:40:18.164074,False,2,310,sounds\english\audio/english_469.wav,"[[  0.         -33.27051151]
 [  0.1        -94.55728016]
 [  0.2        -24.34554111]
 [  0.3         16.33493977]
 [  0.4        -66.14325269]
 [  0.5         -2.40335162]
 [  0.6        -87.80607373]
 [  0.7         34.04653441]
 [  0.8         53.31501889]
 [  0.9        -70.89291525]
 [  1.          35.01344624]
 [  1.09391667  15.03691984]]","[[0.         1.91972156]
 [0.1        0.89758894]
 [0.2        0.14767308]
 [0.3        0.88925412]
 [0.4        0.02970636]
 [0.5        0.16070031]
 [0.6        0.0970541 ]
 [0.7        1.25032873]
 [0.8        1.92087852]
 [0.9        0.56083362]
 [1.         0.78804248]
 [1.09391667 0.71632164]]",0,1.16
8729820499,f,20,english,5,3,english,2024-01-25 10:40:18.164074,False,2,311,sounds\english\audio/english_268.wav,"[[  0.         -10.36348141]
 [  0.1         83.25825445]
 [  0.2         90.11608715]
 [  0.3         32.1996215 ]
 [  0.4          8.976783  ]
 [  0.5         -6.95203106]
 [  0.6         67.82169398]
 [  0.7         50.85858074]
 [  0.8         11.07143565]
 [  0.9         40.44499652]
 [  1.          87.615801  ]
 [  1.09391667 -54.91088926]]","[[0.         0.34238631]
 [0.1        0.93968033]
 [0.2        0.03117119]
 [0.3        0.99400779]
 [0.4        0.56090086]
 [0.5        0.18644764]
 [0.6        1.05098713]
 [0.7        0.33151379]
 [0.8        0.1498151 ]
 [0.9        0.7130759 ]
 [1.         0.85732073]
 [1.09391667 1.8995277 ]]",0,0.23
8729820499,f,20,english,5,3,english,2024-01-25 10:40:18.164074,False,2,312,sounds\english\audio/english_378.wav,"[[  0.          -6.75592408]
 [  0.1        -33.28558439]
 [  0.2        -96.71642688]
 [  0.3         70.45646645]
 [  0.4         20.01443052]
 [  0.5        -69.62604827]
 [  0.6        -82.6103386 ]
 [  0.7        -53.90394432]
 [  0.8         75.60526061]
 [  0.9        -65.71007404]
 [  1.         -82.95728524]
 [  1.09391667  40.19708488]]","[[0.         1.57446733]
 [0.1        0.29285803]
 [0.2        0.09494473]
 [0.3        0.09114875]
 [0.4        0.12099564]
 [0.5        0.06996617]
 [0.6        0.89001983]
 [0.7        1.80047075]
 [0.8        1.92282567]
 [0.9        0.07000512]
 [1.         0.51793223]
 [1.09391667 1.33854892]]",0,1.69
8729820499,f,20,english,5,3,english,2024-01-25 10:40:18.164074,False,2,313,sounds\english\audio/english_927.wav,"[[  0.         -59.83926294]
 [  0.1        -55.07345908]
 [  0.2         23.01792414]
 [  0.3         79.95942336]
 [  0.4        -17.18079026]
 [  0.5        -63.61008443]
 [  0.6         89.30642255]
 [  0.7        -30.45736296]
 [  0.8        -34.22678019]
 [  0.9        -97.1214348 ]
 [  1.         -70.92857542]
 [  1.09391667  48.94211635]]","[[0.         0.47046778]
 [0.1        0.3359419 ]
 [0.2        0.47092449]
 [0.3        0.24313159]
 [0.4        1.33138527]
 [0.5        0.70267187]
 [0.6        1.06517667]
 [0.7        1.53858916]
 [0.8        0.26895536]
 [0.9        1.04309053]
 [1.         1.24996871]
 [1.09391667 1.20293368]]",0,0.069
8729820499,f,20,english,5,3,english,2024-01-25 10:40:18.164074,False,2,314,sounds\english\audio/english_62.wav,"[[ 0.00000000e+00 -3.78920548e+00]
 [ 1.00000000e-01 -3.70955142e+01]
 [ 2.00000000e-01  9.54613550e+00]
 [ 3.00000000e-01 -4.85474303e-03]
 [ 4.00000000e-01 -4.90745054e+01]
 [ 5.00000000e-01 -7.23722832e+01]
 [ 6.00000000e-01  5.00416948e+00]
 [ 7.00000000e-01 -4.87629727e+00]
 [ 8.00000000e-01 -3.43659295e+01]
 [ 9.00000000e-01 -5.46881611e+01]
 [ 1.00000000e+00 -8.99071473e+01]
 [ 1.09391667e+00 -2.78378106e+01]]","[[0.         0.70082268]
 [0.1        1.73685238]
 [0.2        1.84078554]
 [0.3        1.14784738]
 [0.4        1.31722545]
 [0.5        1.67134304]
 [0.6        1.47221808]
 [0.7        1.69888672]
 [0.8        1.41102286]
 [0.9        1.6080508 ]
 [1.         1.84899912]
 [1.09391667 1.28379088]]",1,1.389
8729820499,f,20,english,5,3,english,2024-01-25 10:40:18.164074,False,2,315,sounds\english\audio/english_264.wav,"[[  0.          -7.97071304]
 [  0.1          5.26810794]
 [  0.2         42.90180093]
 [  0.3         32.54664666]
 [  0.4        -75.33920427]
 [  0.5        -92.87225366]
 [  0.6          1.54584209]
 [  0.7        -61.85301996]
 [  0.8        -59.27209487]
 [  0.9         -3.4044868 ]
 [  1.          20.29119999]
 [  1.09391667  76.66199878]]","[[0.         0.52584892]
 [0.1        0.35098417]
 [0.2        0.87826506]
 [0.3        0.85267403]
 [0.4        0.05665148]
 [0.5        0.902019  ]
 [0.6        0.36999328]
 [0.7        1.87523396]
 [0.8        0.99775271]
 [0.9        0.18460265]
 [1.         0.05992377]
 [1.09391667 1.79844018]]",0,0.216
8729820499,f,20,english,5,3,english,2024-01-25 10:40:18.164074,False,2,316,sounds\english\audio/english_448.wav,"[[  0.         -36.42010561]
 [  0.1         47.73001377]
 [  0.2         93.59806646]
 [  0.3        -71.28004739]
 [  0.4        -73.37708676]
 [  0.5         74.57279085]
 [  0.6         93.06132311]
 [  0.7         53.53303026]
 [  0.8        -57.75366267]
 [  0.9        -26.4449428 ]
 [  1.         -31.70641096]
 [  1.09391667 -10.08807531]]","[[0.         0.75921607]
 [0.1        0.95293974]
 [0.2        0.22586708]
 [0.3        1.48750577]
 [0.4        0.17134927]
 [0.5        1.2791033 ]
 [0.6        0.73590712]
 [0.7        1.42606803]
 [0.8        1.73700286]
 [0.9        1.39235574]
 [1.         0.50787566]
 [1.09391667 1.19414628]]",0,0.245
8729820499,f,20,english,5,3,english,2024-01-25 10:40:18.164074,False,2,317,sounds\english\audio/english_616.wav,"[[  0.         -58.43899918]
 [  0.1         91.54551443]
 [  0.2        -72.76331238]
 [  0.3         98.66983591]
 [  0.4         30.89695447]
 [  0.5         95.21036015]
 [  0.6         38.34251154]
 [  0.7         53.37022057]
 [  0.8         64.27718414]
 [  0.9        -47.15745764]
 [  1.          61.31789033]
 [  1.09391667 -28.29544228]]","[[0.         1.31887323]
 [0.1        1.19326366]
 [0.2        1.15507306]
 [0.3        1.15408068]
 [0.4        1.80966351]
 [0.5        0.8568389 ]
 [0.6        0.52507159]
 [0.7        1.38987598]
 [0.8        1.91003383]
 [0.9        1.62420327]
 [1.         1.95831122]
 [1.09391667 0.95794745]]",0,0.238
8729820499,f,20,english,5,3,english,2024-01-25 10:40:18.164074,False,2,318,sounds\english\audio/english_189.wav,"[[  0.          38.06728106]
 [  0.1         -1.4916867 ]
 [  0.2         43.23022726]
 [  0.3         70.52777392]
 [  0.4        -59.79939787]
 [  0.5          5.41678611]
 [  0.6         44.76349545]
 [  0.7        -14.25166989]
 [  0.8        -20.12101429]
 [  0.9        -43.3681134 ]
 [  1.         -43.09833267]
 [  1.09391667 -43.67138872]]","[[0.         1.56553487]
 [0.1        1.31424407]
 [0.2        1.86938367]
 [0.3        0.10876999]
 [0.4        1.05429822]
 [0.5        0.01998106]
 [0.6        0.98555546]
 [0.7        1.99583415]
 [0.8        0.39293902]
 [0.9        0.55662411]
 [1.         0.66082483]
 [1.09391667 0.74070611]]",0,0.707
8729820499,f,20,english,5,3,english,2024-01-25 10:40:18.164074,False,2,319,sounds\english\audio/english_479.wav,"[[  0.         -34.7893931 ]
 [  0.1        -71.34069905]
 [  0.2         58.87573247]
 [  0.3        -54.09913821]
 [  0.4         43.12020224]
 [  0.5        -44.41654249]
 [  0.6         57.88290142]
 [  0.7         -1.44997962]
 [  0.8         89.72797502]
 [  0.9         97.22467665]
 [  1.          52.11815336]
 [  1.09391667  71.23188895]]","[[0.         1.93393565]
 [0.1        0.26573691]
 [0.2        0.73981952]
 [0.3        1.46667746]
 [0.4        0.55048015]
 [0.5        0.62176048]
 [0.6        0.05220831]
 [0.7        0.21971087]
 [0.8        0.30059048]
 [0.9        0.39403565]
 [1.         1.20859565]
 [1.09391667 0.36818185]]",0,0.323
8729820499,f,20,english,5,3,english,2024-01-25 10:40:18.164074,False,2,320,sounds\english\audio/english_653.wav,"[[  0.          41.8259341 ]
 [  0.1         17.38671322]
 [  0.2         86.12532741]
 [  0.3        -33.72650973]
 [  0.4        -40.64508362]
 [  0.5         29.34700904]
 [  0.6        -10.62645481]
 [  0.7        -39.23364733]
 [  0.8          1.23936202]
 [  0.9         54.61023708]
 [  1.          68.93146106]
 [  1.09391667  98.0100566 ]]","[[0.         0.17533452]
 [0.1        1.08757539]
 [0.2        1.96334993]
 [0.3        1.47062591]
 [0.4        1.06368379]
 [0.5        1.07766545]
 [0.6        1.32143854]
 [0.7        0.74682372]
 [0.8        0.56607345]
 [0.9        0.97558446]
 [1.         0.53847025]
 [1.09391667 0.14439152]]",0,0.657
8729820499,f,20,english,5,3,english,2024-01-25 10:40:18.164074,False,2,321,sounds\english\audio/english_117.wav,"[[  0.         -28.38275439]
 [  0.1         98.42008379]
 [  0.2         41.31206558]
 [  0.3        -83.83183678]
 [  0.4         98.21463791]
 [  0.5         -2.48578352]
 [  0.6         -4.17640124]
 [  0.7         96.23712421]
 [  0.8         58.96351824]
 [  0.9         45.91477825]
 [  1.         -11.19499605]
 [  1.09391667 -21.37390064]]","[[0.         0.21519039]
 [0.1        0.51040987]
 [0.2        0.4102792 ]
 [0.3        1.46073806]
 [0.4        0.64884847]
 [0.5        0.03709947]
 [0.6        1.54490713]
 [0.7        1.91280324]
 [0.8        1.06675457]
 [0.9        1.30412923]
 [1.         1.45368514]
 [1.09391667 0.12058037]]",0,1.039
8729820499,f,20,english,5,3,english,2024-01-25 10:40:18.164074,False,2,322,sounds\english\audio/english_629.wav,"[[  0.         -98.30964243]
 [  0.1         -5.62970232]
 [  0.2         20.69990793]
 [  0.3         -4.68954038]
 [  0.4        -82.80499964]
 [  0.5         68.80297029]
 [  0.6        -24.62615081]
 [  0.7        -86.27878454]
 [  0.8        -88.66663155]
 [  0.9          8.97030431]
 [  1.         -94.86018334]
 [  1.09391667  10.00961885]]","[[0.         0.81771725]
 [0.1        0.80248144]
 [0.2        1.65272957]
 [0.3        0.79587507]
 [0.4        0.51843323]
 [0.5        1.06630495]
 [0.6        0.85921764]
 [0.7        1.30572182]
 [0.8        0.67243508]
 [0.9        0.68958588]
 [1.         0.23451131]
 [1.09391667 1.91010728]]",0,0.114
8729820499,f,20,english,5,3,english,2024-01-25 10:40:18.164074,False,2,323,sounds\english\audio/english_948.wav,"[[  0.          70.08788288]
 [  0.1          9.51278832]
 [  0.2        -59.8724706 ]
 [  0.3         -7.8364385 ]
 [  0.4        -78.88155559]
 [  0.5         68.60860792]
 [  0.6        -33.65925785]
 [  0.7        -55.41448182]
 [  0.8         50.68602882]
 [  0.9         61.97320966]
 [  1.         -81.646441  ]
 [  1.09391667 -76.82315441]]","[[0.         1.73905021]
 [0.1        0.0665574 ]
 [0.2        1.97257093]
 [0.3        0.54442479]
 [0.4        0.88565994]
 [0.5        1.07148871]
 [0.6        0.5392424 ]
 [0.7        0.22870417]
 [0.8        0.62800338]
 [0.9        0.19317235]
 [1.         0.59223908]
 [1.09391667 1.64165992]]",0,1.165
8729820499,f,20,english,5,3,english,2024-01-25 10:40:18.164074,False,2,324,sounds\english\audio/english_492.wav,"[[  0.         -29.9472328 ]
 [  0.1         35.33010824]
 [  0.2         -3.45968041]
 [  0.3         59.06456756]
 [  0.4         98.23949624]
 [  0.5         -1.48270349]
 [  0.6         -1.72219507]
 [  0.7         12.69106909]
 [  0.8        -21.74180351]
 [  0.9        -33.92370757]
 [  1.          37.93162517]
 [  1.09391667 -90.75179354]]","[[0.         1.28534899]
 [0.1        1.03908978]
 [0.2        1.26033893]
 [0.3        0.39463808]
 [0.4        0.21276087]
 [0.5        0.25205409]
 [0.6        0.58596557]
 [0.7        1.49088879]
 [0.8        1.5225112 ]
 [0.9        0.13189423]
 [1.         0.89918189]
 [1.09391667 1.07142866]]",0,0.148
8729820499,f,20,english,5,3,english,2024-01-25 10:40:18.164074,False,2,325,sounds\english\audio/english_452.wav,"[[  0.         -16.61864147]
 [  0.1        -22.13078498]
 [  0.2        -16.24569285]
 [  0.3          2.20276296]
 [  0.4         38.28427002]
 [  0.5        -18.79047659]
 [  0.6         78.89075327]
 [  0.7         92.92821396]
 [  0.8         97.94945302]
 [  0.9         87.69669084]
 [  1.          59.46975303]
 [  1.09391667  33.32060313]]","[[0.         1.17401117]
 [0.1        0.56539659]
 [0.2        0.39679082]
 [0.3        1.32249954]
 [0.4        1.17645405]
 [0.5        1.63330715]
 [0.6        1.91411401]
 [0.7        1.71360753]
 [0.8        1.56668356]
 [0.9        1.33916848]
 [1.         0.94959461]
 [1.09391667 0.70317006]]",0,0.629
8729820499,f,20,english,5,3,english,2024-01-25 10:40:18.164074,False,2,326,sounds\english\audio/english_932.wav,"[[  0.          38.23438928]
 [  0.1        -58.10377529]
 [  0.2         91.68709635]
 [  0.3         43.08352003]
 [  0.4         89.28150272]
 [  0.5        -32.82905254]
 [  0.6        -27.89856156]
 [  0.7        -15.6368176 ]
 [  0.8        -47.50450916]
 [  0.9        -85.48225369]
 [  1.          26.29289849]
 [  1.09391667 -34.49542083]]","[[0.         1.12401337]
 [0.1        0.61932379]
 [0.2        1.42631679]
 [0.3        1.23008562]
 [0.4        1.74074376]
 [0.5        0.41912443]
 [0.6        1.78556309]
 [0.7        0.72255464]
 [0.8        1.47985237]
 [0.9        1.29316662]
 [1.         1.31994778]
 [1.09391667 1.97700851]]",0,0.805
8729820499,f,20,english,5,3,english,2024-01-25 10:40:18.164074,False,2,327,sounds\english\audio/english_924.wav,"[[  0.         -34.16359775]
 [  0.1         95.89868764]
 [  0.2         -7.67474925]
 [  0.3        -21.77911834]
 [  0.4         31.17946122]
 [  0.5          0.48616436]
 [  0.6         56.04156449]
 [  0.7         79.12331334]
 [  0.8         58.34446187]
 [  0.9         51.02751352]
 [  1.          59.10490512]
 [  1.09391667  60.06487251]]","[[0.         0.79366522]
 [0.1        0.73795008]
 [0.2        0.39139015]
 [0.3        0.47707552]
 [0.4        0.09637783]
 [0.5        1.58696559]
 [0.6        1.87427133]
 [0.7        0.57578157]
 [0.8        1.11639403]
 [0.9        1.98577552]
 [1.         0.22580189]
 [1.09391667 1.66820152]]",0,0.21
8729820499,f,20,english,5,3,english,2024-01-25 10:40:18.164074,False,2,328,sounds\english\audio/english_230.wav,"[[  0.          33.38389537]
 [  0.1        -34.15374901]
 [  0.2        -17.15972141]
 [  0.3         -8.06213265]
 [  0.4         10.20192226]
 [  0.5        -58.60843687]
 [  0.6         79.76687213]
 [  0.7        -68.85443864]
 [  0.8        -14.23970475]
 [  0.9        -88.80466565]
 [  1.         -64.76676699]
 [  1.09391667 -85.72124736]]","[[0.         1.56748289]
 [0.1        0.35840318]
 [0.2        0.69573927]
 [0.3        1.48062695]
 [0.4        1.80584749]
 [0.5        0.27713833]
 [0.6        0.54911174]
 [0.7        0.47648858]
 [0.8        1.61704234]
 [0.9        1.41921333]
 [1.         0.47778277]
 [1.09391667 0.86213517]]",0,0.32
8729820499,f,20,english,5,3,english,2024-01-25 10:40:18.164074,False,2,329,sounds\english\audio/english_577.wav,"[[  0.         -76.85094523]
 [  0.1         94.91365435]
 [  0.2         32.9651173 ]
 [  0.3         97.44139815]
 [  0.4        -92.85161712]
 [  0.5        -28.41231643]
 [  0.6         19.38479245]
 [  0.7         49.58285772]
 [  0.8         92.79445105]
 [  0.9        -51.23747257]
 [  1.         -16.84554087]
 [  1.09391667 -72.32540524]]","[[0.         0.20458554]
 [0.1        0.06228827]
 [0.2        1.08516977]
 [0.3        1.03608724]
 [0.4        1.39749402]
 [0.5        0.64758682]
 [0.6        0.95032341]
 [0.7        1.2742538 ]
 [0.8        1.48392176]
 [0.9        0.56445321]
 [1.         1.53283339]
 [1.09391667 1.57768455]]",0,1.21
8729820499,f,20,english,5,3,english,2024-01-25 10:40:18.164074,False,2,330,sounds\english\audio/english_579.wav,"[[  0.          -6.35392527]
 [  0.1          5.78092652]
 [  0.2         55.74149698]
 [  0.3         64.66054606]
 [  0.4        -20.37343055]
 [  0.5         97.55604333]
 [  0.6         -7.40313463]
 [  0.7         -9.7199121 ]
 [  0.8        -43.88557754]
 [  0.9         89.28129007]
 [  1.          21.49927336]
 [  1.09391667  85.53999973]]","[[0.         1.17195822]
 [0.1        1.67817047]
 [0.2        0.96512057]
 [0.3        0.73760998]
 [0.4        0.24043414]
 [0.5        0.0297902 ]
 [0.6        0.83835869]
 [0.7        0.36547932]
 [0.8        1.0786992 ]
 [0.9        1.76340712]
 [1.         0.94339598]
 [1.09391667 1.1220246 ]]",1,0.984
8729820499,f,20,english,5,3,english,2024-01-25 10:40:18.164074,False,2,331,sounds\english\audio/english_664.wav,"[[  0.          87.83799753]
 [  0.1         93.07880912]
 [  0.2        -21.43792859]
 [  0.3         54.61607152]
 [  0.4         63.53186125]
 [  0.5         69.57332079]
 [  0.6        -98.283012  ]
 [  0.7          3.96514961]
 [  0.8        -68.49765079]
 [  0.9         22.71561052]
 [  1.          62.92065682]
 [  1.09391667   7.64063367]]","[[0.         0.80622544]
 [0.1        0.71131531]
 [0.2        0.52490717]
 [0.3        0.79105774]
 [0.4        0.74894626]
 [0.5        0.96341942]
 [0.6        0.12490453]
 [0.7        1.772086  ]
 [0.8        1.2138043 ]
 [0.9        1.03968333]
 [1.         1.01702127]
 [1.09391667 1.88905221]]",0,0.056
8729820499,f,20,english,5,3,english,2024-01-25 10:40:18.164074,False,2,332,sounds\english\audio/english_558.wav,"[[  0.           9.45595183]
 [  0.1        -66.91447075]
 [  0.2          5.01642616]
 [  0.3        -82.30049302]
 [  0.4        -10.29129966]
 [  0.5         99.14240741]
 [  0.6         34.85025227]
 [  0.7         43.44441895]
 [  0.8        -97.39694164]
 [  0.9        -31.97632868]
 [  1.         -74.01115338]
 [  1.09391667  43.18570617]]","[[0.         1.13403788]
 [0.1        1.18278708]
 [0.2        1.11112331]
 [0.3        0.91283519]
 [0.4        0.71678122]
 [0.5        1.64554748]
 [0.6        0.99485251]
 [0.7        0.12536515]
 [0.8        0.12044716]
 [0.9        0.33780284]
 [1.         0.39284816]
 [1.09391667 1.38494175]]",0,1.03
8729820499,f,20,english,5,3,english,2024-01-25 10:40:18.164074,False,2,333,sounds\english\audio/english_831.wav,"[[  0.         -21.16656573]
 [  0.1         29.76214341]
 [  0.2         61.45359844]
 [  0.3          6.67004895]
 [  0.4         26.70370751]
 [  0.5        -40.62935301]
 [  0.6         99.09256776]
 [  0.7         79.82257267]
 [  0.8         42.46181289]
 [  0.9          2.20427108]
 [  1.          64.59275416]
 [  1.09391667 -21.96543836]]","[[0.         0.86887876]
 [0.1        1.37629655]
 [0.2        0.63499907]
 [0.3        0.11279763]
 [0.4        0.87092561]
 [0.5        1.90700704]
 [0.6        0.52454597]
 [0.7        0.72073711]
 [0.8        0.80064374]
 [0.9        1.04408214]
 [1.         0.45079877]
 [1.09391667 1.2652147 ]]",0,0.342
8729820499,f,20,english,5,3,english,2024-01-25 10:40:18.164074,False,2,334,sounds\english\audio/english_839.wav,"[[  0.          25.22327534]
 [  0.1         65.97179868]
 [  0.2         36.46298268]
 [  0.3          0.36789595]
 [  0.4         37.25543056]
 [  0.5         13.61304399]
 [  0.6         40.85367399]
 [  0.7         92.87994107]
 [  0.8         40.19777361]
 [  0.9        -27.70209944]
 [  1.         -75.44304357]
 [  1.09391667  15.82899147]]","[[0.         0.79021115]
 [0.1        1.36275453]
 [0.2        0.56940252]
 [0.3        1.38606336]
 [0.4        1.49876521]
 [0.5        1.33513266]
 [0.6        0.34922841]
 [0.7        1.58402098]
 [0.8        0.73275133]
 [0.9        1.05467816]
 [1.         1.81419779]
 [1.09391667 1.89560881]]",0,0.99
8729820499,f,20,english,5,3,english,2024-01-25 10:40:18.164074,False,2,335,sounds\english\audio/english_487.wav,"[[  0.          83.9506825 ]
 [  0.1        -73.0195282 ]
 [  0.2         98.61971221]
 [  0.3         66.30731889]
 [  0.4         22.93795287]
 [  0.5        -81.70494499]
 [  0.6        -70.3149209 ]
 [  0.7        -54.70127166]
 [  0.8        -60.23299302]
 [  0.9         90.25511794]
 [  1.          63.36569824]
 [  1.09391667  47.37946456]]","[[0.         1.20569128]
 [0.1        0.75422979]
 [0.2        0.70340278]
 [0.3        1.25861502]
 [0.4        1.76994668]
 [0.5        1.09959608]
 [0.6        1.93360086]
 [0.7        0.32077076]
 [0.8        0.62494976]
 [0.9        1.062642  ]
 [1.         1.45529395]
 [1.09391667 1.97435305]]",0,0.493
8729820499,f,20,english,5,3,english,2024-01-25 10:40:18.164074,False,2,336,sounds\english\audio/english_203.wav,"[[  0.         -95.15502969]
 [  0.1         -9.00046759]
 [  0.2        -46.05673343]
 [  0.3        -80.20455434]
 [  0.4         69.34929809]
 [  0.5         52.23432308]
 [  0.6        -15.81323993]
 [  0.7         37.6557434 ]
 [  0.8         17.28698378]
 [  0.9         49.30427287]
 [  1.          75.36526211]
 [  1.09391667 -92.86270005]]","[[0.         0.13261154]
 [0.1        0.68737046]
 [0.2        1.04752223]
 [0.3        1.42056073]
 [0.4        1.98486552]
 [0.5        0.94146217]
 [0.6        0.9157491 ]
 [0.7        1.05147425]
 [0.8        0.64444213]
 [0.9        0.93595102]
 [1.         0.02848654]
 [1.09391667 1.21065321]]",0,0.957
8729820499,f,20,english,5,3,english,2024-01-25 10:40:18.164074,False,2,337,sounds\english\audio/english_909.wav,"[[  0.          10.71027544]
 [  0.1        -48.99679887]
 [  0.2          0.10936675]
 [  0.3         -9.5972352 ]
 [  0.4         41.63700809]
 [  0.5        -54.98653808]
 [  0.6        -79.93461055]
 [  0.7        -18.97053935]
 [  0.8        -79.95487678]
 [  0.9         48.57972969]
 [  1.          81.75147214]
 [  1.09391667 -81.8755088 ]]","[[0.         0.31194576]
 [0.1        0.75562572]
 [0.2        1.15361909]
 [0.3        1.70848665]
 [0.4        1.17263968]
 [0.5        1.91472761]
 [0.6        0.74389201]
 [0.7        0.87039019]
 [0.8        0.69566776]
 [0.9        0.96721203]
 [1.         1.53411622]
 [1.09391667 1.74360808]]",0,0.191
8729820499,f,20,english,5,3,english,2024-01-25 10:40:18.164074,False,2,338,sounds\english\audio/english_215.wav,"[[  0.         -99.5332925 ]
 [  0.1          1.45242975]
 [  0.2        -64.33425221]
 [  0.3         94.32501829]
 [  0.4        -24.96285319]
 [  0.5         24.44115024]
 [  0.6         88.75353775]
 [  0.7         84.15272448]
 [  0.8         64.6545326 ]
 [  0.9        -74.06978327]
 [  1.         -77.05086555]
 [  1.09391667  82.12012488]]","[[0.         0.28465119]
 [0.1        1.8088146 ]
 [0.2        1.50664885]
 [0.3        1.24738647]
 [0.4        1.99674836]
 [0.5        1.0963611 ]
 [0.6        1.91027181]
 [0.7        1.87676127]
 [0.8        1.65561874]
 [0.9        1.63896442]
 [1.         0.85126523]
 [1.09391667 1.4630733 ]]",0,0.129
8729820499,f,20,english,5,3,english,2024-01-25 10:40:18.164074,False,2,339,sounds\english\audio/english_190.wav,"[[  0.          68.06436233]
 [  0.1         24.19088811]
 [  0.2        -65.11888028]
 [  0.3         32.33155843]
 [  0.4        -73.69082424]
 [  0.5          2.10243169]
 [  0.6         28.92667908]
 [  0.7         34.75610328]
 [  0.8         31.4188322 ]
 [  0.9        -96.94690026]
 [  1.          53.11864997]
 [  1.09391667 -92.72540724]]","[[0.         1.70360444]
 [0.1        1.35006329]
 [0.2        0.62623632]
 [0.3        0.74087673]
 [0.4        1.65268471]
 [0.5        0.89116286]
 [0.6        1.98709983]
 [0.7        1.82073469]
 [0.8        0.29012773]
 [0.9        0.16914855]
 [1.         1.64341156]
 [1.09391667 1.35295698]]",0,0.784
8729820499,f,20,english,5,3,english,2024-01-25 10:40:18.164074,False,2,340,sounds\english\audio/english_880.wav,"[[  0.         -41.47628357]
 [  0.1         65.54296858]
 [  0.2        -39.31347774]
 [  0.3         61.98950127]
 [  0.4         -3.60095554]
 [  0.5        -14.51452604]
 [  0.6         37.32728479]
 [  0.7        -80.65072298]
 [  0.8        -45.95652934]
 [  0.9         58.7720162 ]
 [  1.         -45.80137343]
 [  1.09391667 -30.61117418]]","[[0.         0.55394603]
 [0.1        0.9616183 ]
 [0.2        0.19888821]
 [0.3        0.57394663]
 [0.4        0.13686424]
 [0.5        1.28705149]
 [0.6        1.1695459 ]
 [0.7        0.87953448]
 [0.8        1.16448852]
 [0.9        1.15057409]
 [1.         0.15999969]
 [1.09391667 1.26319269]]",0,0.538
8729820499,f,20,english,5,3,english,2024-01-25 10:40:18.164074,False,2,341,sounds\english\audio/english_541.wav,"[[  0.         -82.81265179]
 [  0.1         18.23831049]
 [  0.2        -76.96396075]
 [  0.3         86.02032489]
 [  0.4         57.7574695 ]
 [  0.5        -18.45048615]
 [  0.6         -3.56295596]
 [  0.7         30.63851894]
 [  0.8        -39.32138092]
 [  0.9         87.82943792]
 [  1.         -83.54766347]
 [  1.09391667 -65.29737413]]","[[0.         1.86592143]
 [0.1        0.0388768 ]
 [0.2        1.09878478]
 [0.3        0.28431894]
 [0.4        0.60530487]
 [0.5        0.68867988]
 [0.6        0.07188907]
 [0.7        1.28694892]
 [0.8        0.37107191]
 [0.9        0.0101762 ]
 [1.         1.03448412]
 [1.09391667 1.0808851 ]]",0,0.117
8729820499,f,20,english,5,3,english,2024-01-25 10:40:18.164074,False,2,342,sounds\english\audio/english_784.wav,"[[  0.          50.65373777]
 [  0.1         90.51346558]
 [  0.2         -3.41025776]
 [  0.3         79.17419675]
 [  0.4        -50.25718644]
 [  0.5         46.55817424]
 [  0.6        -17.22874602]
 [  0.7         33.77400964]
 [  0.8         27.87922438]
 [  0.9        -62.41006325]
 [  1.         -38.19594807]
 [  1.09391667 -79.50097589]]","[[0.         1.66186365]
 [0.1        0.51528757]
 [0.2        1.39494677]
 [0.3        0.6474703 ]
 [0.4        0.6204281 ]
 [0.5        0.42566736]
 [0.6        0.08592081]
 [0.7        0.74713982]
 [0.8        1.1744845 ]
 [0.9        0.06945236]
 [1.         1.4856768 ]
 [1.09391667 1.99616285]]",0,0.75
8729820499,f,20,english,5,3,english,2024-01-25 10:40:18.164074,False,2,343,sounds\english\audio/english_524.wav,"[[  0.         -30.25985822]
 [  0.1        -25.72639464]
 [  0.2        -19.31311579]
 [  0.3         75.52996736]
 [  0.4         95.21234869]
 [  0.5        -71.1057772 ]
 [  0.6        -19.64273872]
 [  0.7         -1.31214815]
 [  0.8         64.64076703]
 [  0.9        -18.69724377]
 [  1.         -40.5043492 ]
 [  1.09391667 -72.71091187]]","[[0.         0.34793973]
 [0.1        1.18810863]
 [0.2        0.08692409]
 [0.3        0.42169144]
 [0.4        0.91790301]
 [0.5        1.60079155]
 [0.6        0.41126457]
 [0.7        0.20209882]
 [0.8        1.03575809]
 [0.9        0.43486471]
 [1.         0.51132712]
 [1.09391667 0.92380924]]",0,0.242
8729820499,f,20,english,5,3,english,2024-01-25 10:40:18.164074,False,2,344,sounds\english\audio/english_21.wav,"[[  0.         -92.93238975]
 [  0.1         28.88119071]
 [  0.2         26.75659422]
 [  0.3         84.25033289]
 [  0.4        -63.52476529]
 [  0.5         17.24927989]
 [  0.6         51.24429763]
 [  0.7        -49.66599845]
 [  0.8         63.10207102]
 [  0.9         10.69932434]
 [  1.          77.88197251]
 [  1.09391667 -71.28425317]]","[[0.         1.42780018]
 [0.1        1.12059603]
 [0.2        0.11228596]
 [0.3        1.44253616]
 [0.4        0.8833185 ]
 [0.5        1.19555363]
 [0.6        1.82378504]
 [0.7        0.34338191]
 [0.8        1.63020131]
 [0.9        0.5370763 ]
 [1.         1.08980212]
 [1.09391667 0.35221603]]",0,0.074
8729820499,f,20,english,5,3,english,2024-01-25 10:40:18.164074,False,2,345,sounds\english\audio/english_649.wav,"[[  0.          54.13337143]
 [  0.1         51.13672213]
 [  0.2        -46.53747516]
 [  0.3         -5.04561857]
 [  0.4        -96.10296837]
 [  0.5         91.1633791 ]
 [  0.6         40.43734858]
 [  0.7         -6.34456649]
 [  0.8        -47.75781838]
 [  0.9        -30.94847666]
 [  1.         -10.84084503]
 [  1.09391667  16.60657514]]","[[0.         0.90685718]
 [0.1        0.97028986]
 [0.2        0.5338014 ]
 [0.3        1.37151822]
 [0.4        1.19898074]
 [0.5        0.83288569]
 [0.6        1.46195871]
 [0.7        0.52535218]
 [0.8        0.56197414]
 [0.9        1.41697717]
 [1.         1.24330897]
 [1.09391667 0.55891177]]",0,1.235
8729820499,f,20,english,5,3,english,2024-01-25 10:40:18.164074,False,2,346,sounds\english\audio/english_888.wav,"[[  0.         -39.7925546 ]
 [  0.1        -49.30113257]
 [  0.2          5.97243806]
 [  0.3         16.41276851]
 [  0.4         72.72751695]
 [  0.5         30.43059144]
 [  0.6        -50.61460993]
 [  0.7         27.35581245]
 [  0.8        -42.43293374]
 [  0.9         65.78948432]
 [  1.          10.78660964]
 [  1.09391667 -21.51817703]]","[[0.         0.13458958]
 [0.1        1.48324952]
 [0.2        0.77423602]
 [0.3        0.11110742]
 [0.4        0.50050507]
 [0.5        1.62800327]
 [0.6        0.52150538]
 [0.7        1.33185555]
 [0.8        1.57744059]
 [0.9        0.93033448]
 [1.         1.1520653 ]
 [1.09391667 1.84815249]]",0,1.079
8729820499,f,20,english,5,3,english,2024-01-25 10:40:18.164074,False,2,347,sounds\english\audio/english_692.wav,"[[  0.          17.01173199]
 [  0.1        -83.06969334]
 [  0.2        -58.44100575]
 [  0.3        -91.32119293]
 [  0.4        -39.52405727]
 [  0.5        -40.26958375]
 [  0.6         55.4362835 ]
 [  0.7         20.27621399]
 [  0.8        -86.30023131]
 [  0.9          6.83955759]
 [  1.           6.70379303]
 [  1.09391667  92.50690067]]","[[0.         0.47550749]
 [0.1        1.08739119]
 [0.2        1.75941989]
 [0.3        0.308091  ]
 [0.4        0.34371229]
 [0.5        0.85553053]
 [0.6        1.67285815]
 [0.7        1.37569405]
 [0.8        1.97676153]
 [0.9        0.86697186]
 [1.         1.63903464]
 [1.09391667 0.89498599]]",0,0.257
8729820499,f,20,english,5,3,english,2024-01-25 10:40:18.164074,False,2,348,sounds\english\audio/english_368.wav,"[[  0.         -21.74410199]
 [  0.1        -54.46820056]
 [  0.2         36.37288824]
 [  0.3         28.79669065]
 [  0.4         64.63914759]
 [  0.5        -47.48725989]
 [  0.6        -56.63725257]
 [  0.7        -15.67963737]
 [  0.8        -67.03077711]
 [  0.9        -87.98164929]
 [  1.          66.360443  ]
 [  1.09391667  86.76512067]]","[[0.         1.11444004]
 [0.1        1.02689489]
 [0.2        1.84847876]
 [0.3        1.32768322]
 [0.4        1.2143292 ]
 [0.5        1.4175641 ]
 [0.6        0.26859899]
 [0.7        1.20913194]
 [0.8        0.71725489]
 [0.9        0.61705061]
 [1.         1.87423649]
 [1.09391667 0.90814369]]",0,1.453
8729820499,f,20,english,5,3,english,2024-01-25 10:40:18.164074,False,2,349,sounds\english\audio/english_899.wav,"[[  0.          36.05043058]
 [  0.1         33.3197066 ]
 [  0.2        -89.01295916]
 [  0.3         98.52221139]
 [  0.4        -46.63657868]
 [  0.5        -65.65669191]
 [  0.6         76.90163594]
 [  0.7         36.98286823]
 [  0.8         58.54417199]
 [  0.9         37.91895182]
 [  1.         -84.2401269 ]
 [  1.09391667  -3.10665722]]","[[0.         0.90588284]
 [0.1        1.60760833]
 [0.2        1.45467369]
 [0.3        0.4019209 ]
 [0.4        1.10920818]
 [0.5        1.04007942]
 [0.6        0.20562094]
 [0.7        0.26673383]
 [0.8        0.17186704]
 [0.9        1.28815156]
 [1.         0.03412997]
 [1.09391667 1.51688145]]",0,0.233
8729820499,f,20,english,5,3,english,2024-01-25 10:40:18.164074,False,2,350,sounds\english\audio/english_789.wav,"[[  0.          50.62849976]
 [  0.1         46.39641285]
 [  0.2        -17.70636983]
 [  0.3        -70.54012265]
 [  0.4        -41.61831808]
 [  0.5          6.76921547]
 [  0.6        -23.06076299]
 [  0.7         12.0616888 ]
 [  0.8         -0.46236059]
 [  0.9          1.32265195]
 [  1.         -42.41851316]
 [  1.09391667  16.23009632]]","[[0.         1.65376855]
 [0.1        0.25516595]
 [0.2        1.77379995]
 [0.3        1.01588482]
 [0.4        0.40942594]
 [0.5        0.77453827]
 [0.6        0.48985142]
 [0.7        0.23736517]
 [0.8        1.96173919]
 [0.9        1.17779465]
 [1.         1.11577027]
 [1.09391667 0.26104585]]",0,0.301
8729820499,f,20,english,5,3,english,2024-01-25 10:40:18.164074,False,2,351,sounds\english\audio/english_434.wav,"[[  0.          50.47761392]
 [  0.1        -33.38487677]
 [  0.2         -6.35895817]
 [  0.3         58.81206484]
 [  0.4          2.00815972]
 [  0.5        -28.96305016]
 [  0.6        -44.65800209]
 [  0.7         -3.89112712]
 [  0.8        -49.09619099]
 [  0.9        -79.81092904]
 [  1.          72.91556136]
 [  1.09391667  -8.48383865]]","[[0.         1.72511711]
 [0.1        0.67409863]
 [0.2        0.85225266]
 [0.3        1.03084546]
 [0.4        0.30841411]
 [0.5        0.11116274]
 [0.6        0.82038961]
 [0.7        1.79901884]
 [0.8        1.01461121]
 [0.9        1.16161114]
 [1.         1.34038877]
 [1.09391667 1.19926856]]",0,0.021
8729820499,f,20,english,5,3,english,2024-01-25 10:40:18.164074,False,2,352,sounds\english\audio/english_726.wav,"[[  0.          23.35137092]
 [  0.1         76.34325819]
 [  0.2         77.87153215]
 [  0.3         45.89033074]
 [  0.4        -92.46008591]
 [  0.5        -89.27810563]
 [  0.6         61.30206765]
 [  0.7         68.07705407]
 [  0.8         47.81218941]
 [  0.9         85.67647673]
 [  1.          69.08166842]
 [  1.09391667  71.61978118]]","[[0.         0.15397845]
 [0.1        1.80908671]
 [0.2        0.91237222]
 [0.3        0.3916486 ]
 [0.4        1.60354114]
 [0.5        0.90173572]
 [0.6        1.86939155]
 [0.7        0.57523975]
 [0.8        0.88835081]
 [0.9        0.33175344]
 [1.         0.8335266 ]
 [1.09391667 0.36613886]]",0,0.258
8729820499,f,20,english,5,3,english,2024-01-25 10:40:18.164074,False,2,353,sounds\english\audio/english_990.wav,"[[  0.         -41.91954114]
 [  0.1        -81.73689018]
 [  0.2         -8.6439495 ]
 [  0.3        -35.79468829]
 [  0.4        -15.71846635]
 [  0.5         30.29696997]
 [  0.6         58.5778321 ]
 [  0.7        -55.43771635]
 [  0.8         -4.04287403]
 [  0.9         96.7741085 ]
 [  1.          73.27929718]
 [  1.09391667 -50.83652549]]","[[0.         1.07016473]
 [0.1        0.80416299]
 [0.2        1.27361164]
 [0.3        0.8357561 ]
 [0.4        0.68387575]
 [0.5        0.51659091]
 [0.6        0.86090319]
 [0.7        1.86495605]
 [0.8        0.50523281]
 [0.9        0.60576665]
 [1.         1.38942897]
 [1.09391667 0.62697308]]",0,0.232
8729820499,f,20,english,5,3,english,2024-01-25 10:40:18.164074,False,2,354,sounds\english\audio/english_981.wav,"[[  0.          24.3055989 ]
 [  0.1         28.97891723]
 [  0.2         51.4418758 ]
 [  0.3        -41.6425055 ]
 [  0.4         -6.63622722]
 [  0.5         90.98935315]
 [  0.6        -91.30627378]
 [  0.7        -70.54702949]
 [  0.8         37.31249144]
 [  0.9         44.20519134]
 [  1.         -85.22636705]
 [  1.09391667  33.48956199]]","[[0.         1.29303253]
 [0.1        1.06779992]
 [0.2        1.11588817]
 [0.3        1.45059858]
 [0.4        0.93926956]
 [0.5        0.09427917]
 [0.6        0.99584654]
 [0.7        1.20164622]
 [0.8        1.37323006]
 [0.9        0.98395355]
 [1.         0.17020531]
 [1.09391667 0.83321676]]",0,0.775
8729820499,f,20,english,5,3,english,2024-01-25 10:40:18.164074,False,2,355,sounds\english\audio/english_985.wav,"[[  0.         -83.24919271]
 [  0.1        -61.40218693]
 [  0.2         75.6831096 ]
 [  0.3        -83.55103169]
 [  0.4        -76.60569971]
 [  0.5         93.43834668]
 [  0.6         46.86841289]
 [  0.7         11.38653049]
 [  0.8          5.98716874]
 [  0.9          6.47503028]
 [  1.          53.75316558]
 [  1.09391667 -17.57703362]]","[[0.         0.45698213]
 [0.1        1.0383787 ]
 [0.2        1.83439409]
 [0.3        1.46493433]
 [0.4        0.92668276]
 [0.5        1.27852145]
 [0.6        1.04356397]
 [0.7        1.03370788]
 [0.8        0.43255879]
 [0.9        0.84647211]
 [1.         1.92237121]
 [1.09391667 0.19853323]]",0,0.251
8729820499,f,20,english,5,3,english,2024-01-25 10:40:18.164074,False,2,356,sounds\english\audio/english_617.wav,"[[  0.          10.93227953]
 [  0.1        -59.2478864 ]
 [  0.2        -60.98157443]
 [  0.3        -98.20098641]
 [  0.4        -27.56878422]
 [  0.5        -16.62879698]
 [  0.6        -85.18504197]
 [  0.7         65.935133  ]
 [  0.8        -49.35852621]
 [  0.9        -79.82823856]
 [  1.         -43.72382152]
 [  1.09391667 -81.76136352]]","[[0.         0.72387338]
 [0.1        1.78831672]
 [0.2        0.6179467 ]
 [0.3        0.63320585]
 [0.4        0.42531965]
 [0.5        1.05036122]
 [0.6        1.22550457]
 [0.7        0.87185678]
 [0.8        1.19822477]
 [0.9        0.11933649]
 [1.         1.37889257]
 [1.09391667 0.25359551]]",0,1.091
8729820499,f,20,english,5,3,english,2024-01-25 10:40:18.164074,False,2,357,sounds\english\audio/english_744.wav,"[[  0.          68.01647572]
 [  0.1        -94.84396495]
 [  0.2         -7.3752647 ]
 [  0.3        -81.08479212]
 [  0.4        -44.66331389]
 [  0.5        -77.45989494]
 [  0.6         19.1026234 ]
 [  0.7         -0.63798112]
 [  0.8         74.86031238]
 [  0.9        -35.9107796 ]
 [  1.          -6.98299608]
 [  1.09391667 -12.26999011]]","[[0.         0.92301697]
 [0.1        1.7240092 ]
 [0.2        0.78395161]
 [0.3        1.15168853]
 [0.4        0.98824464]
 [0.5        1.26560798]
 [0.6        0.20042884]
 [0.7        1.76365186]
 [0.8        1.68948901]
 [0.9        0.81659748]
 [1.         1.14393897]
 [1.09391667 0.86480781]]",0,0.112
8729820499,f,20,english,5,3,english,2024-01-25 10:40:18.164074,False,2,358,sounds\english\audio/english_126.wav,"[[  0.          17.23277349]
 [  0.1        -82.02564831]
 [  0.2        -89.77449202]
 [  0.3        -51.19975639]
 [  0.4        -15.70542785]
 [  0.5        -86.49178279]
 [  0.6        -63.9993416 ]
 [  0.7         15.94919888]
 [  0.8         14.83212149]
 [  0.9         89.46410037]
 [  1.          -9.32479478]
 [  1.09391667  36.75071045]]","[[0.         0.07681875]
 [0.1        1.15308157]
 [0.2        0.24325653]
 [0.3        0.26308615]
 [0.4        1.15666053]
 [0.5        0.93452427]
 [0.6        1.80863716]
 [0.7        1.09862854]
 [0.8        1.20748097]
 [0.9        1.44558157]
 [1.         0.49090758]
 [1.09391667 0.88504815]]",0,0.98
8729820499,f,20,english,5,3,english,2024-01-25 10:40:18.164074,False,2,359,sounds\english\audio/english_73.wav,"[[  0.          38.52625464]
 [  0.1         17.92930882]
 [  0.2        -38.01807157]
 [  0.3         85.72989632]
 [  0.4         64.07938426]
 [  0.5         35.13086045]
 [  0.6        -51.81368524]
 [  0.7         67.25389113]
 [  0.8        -86.27446695]
 [  0.9        -27.14939681]
 [  1.          96.8565589 ]
 [  1.09391667  51.55403573]]","[[0.         1.16533306]
 [0.1        0.44885559]
 [0.2        0.25634763]
 [0.3        0.76435582]
 [0.4        0.66279224]
 [0.5        0.74817845]
 [0.6        1.61498224]
 [0.7        0.87077327]
 [0.8        1.49803977]
 [0.9        1.76361979]
 [1.         0.06686871]
 [1.09391667 1.63588343]]",0,0.438
8729820499,f,20,english,5,3,english,2024-01-25 10:40:18.164074,False,2,360,sounds\english\audio/english_720.wav,"[[  0.          46.77057766]
 [  0.1          6.53423564]
 [  0.2         87.60072251]
 [  0.3         96.80442869]
 [  0.4        -66.64150433]
 [  0.5        -65.5107245 ]
 [  0.6        -89.05316387]
 [  0.7        -94.07157603]
 [  0.8         -1.26954852]
 [  0.9        -25.92154029]
 [  1.          24.94515678]
 [  1.09391667 -38.69158076]]","[[0.         0.94113564]
 [0.1        0.426958  ]
 [0.2        0.98755995]
 [0.3        1.5976329 ]
 [0.4        0.77306227]
 [0.5        0.84513323]
 [0.6        1.55668389]
 [0.7        0.13811629]
 [0.8        1.01089963]
 [0.9        1.10803593]
 [1.         1.26621877]
 [1.09391667 0.96623921]]",0,0.403
8729820499,f,20,english,5,3,english,2024-01-25 10:40:18.164074,False,2,361,sounds\english\audio/english_694.wav,"[[  0.          28.89643962]
 [  0.1        -44.49941165]
 [  0.2         60.6754056 ]
 [  0.3         72.66869222]
 [  0.4         26.91102981]
 [  0.5        -19.36398165]
 [  0.6         83.61982614]
 [  0.7        -93.83830037]
 [  0.8        -41.75440855]
 [  0.9        -17.17525064]
 [  1.           5.88397372]
 [  1.09391667  84.29938157]]","[[0.         0.23097519]
 [0.1        1.12594213]
 [0.2        1.01502789]
 [0.3        0.55545347]
 [0.4        0.313515  ]
 [0.5        0.8133174 ]
 [0.6        0.08479119]
 [0.7        1.36590055]
 [0.8        1.50882856]
 [0.9        1.54263899]
 [1.         1.28663395]
 [1.09391667 0.05122723]]",0,0.321
8729820499,f,20,english,5,3,english,2024-01-25 10:40:18.164074,False,2,362,sounds\english\audio/english_86.wav,"[[  0.          -3.72553925]
 [  0.1        -41.77635103]
 [  0.2        -64.64581593]
 [  0.3         -0.78514906]
 [  0.4        -70.50997039]
 [  0.5        -34.81986123]
 [  0.6        -59.46042522]
 [  0.7         29.81407596]
 [  0.8        -52.11647052]
 [  0.9         98.4622519 ]
 [  1.          58.6455937 ]
 [  1.09391667  89.20517371]]","[[0.         0.66197281]
 [0.1        0.38892539]
 [0.2        1.26355648]
 [0.3        0.34485331]
 [0.4        0.98807129]
 [0.5        0.56904936]
 [0.6        0.23018048]
 [0.7        1.60610688]
 [0.8        1.58476743]
 [0.9        0.26441475]
 [1.         0.54392284]
 [1.09391667 0.04911314]]",0,0.267
8729820499,f,20,english,5,3,english,2024-01-25 10:40:18.164074,False,2,363,sounds\english\audio/english_925.wav,"[[  0.         -84.57233467]
 [  0.1        -44.7314948 ]
 [  0.2        -21.76001852]
 [  0.3         58.94026315]
 [  0.4         68.109547  ]
 [  0.5         49.84786379]
 [  0.6         60.87486089]
 [  0.7         50.05197286]
 [  0.8         83.62089831]
 [  0.9         -6.54901241]
 [  1.          59.32339342]
 [  1.09391667 -66.08603468]]","[[0.         1.00848694]
 [0.1        0.79986677]
 [0.2        1.01395723]
 [0.3        0.40578686]
 [0.4        1.18343794]
 [0.5        0.73791716]
 [0.6        0.58895249]
 [0.7        0.92214068]
 [0.8        1.8971644 ]
 [0.9        1.57717007]
 [1.         1.06930768]
 [1.09391667 1.74149988]]",1,1.169
8729820499,f,20,english,5,3,english,2024-01-25 10:40:18.164074,False,2,364,sounds\english\audio/english_858.wav,"[[  0.         -15.37505572]
 [  0.1         47.09921101]
 [  0.2        -76.0790668 ]
 [  0.3        -80.27517843]
 [  0.4        -25.73472899]
 [  0.5         -3.51621139]
 [  0.6        -42.58463449]
 [  0.7        -98.39604525]
 [  0.8         89.96106068]
 [  0.9         77.78135143]
 [  1.         -48.66962061]
 [  1.09391667 -42.55835381]]","[[0.         0.64393049]
 [0.1        1.19859165]
 [0.2        1.93258785]
 [0.3        0.51921333]
 [0.4        0.72976133]
 [0.5        1.3656743 ]
 [0.6        1.33625445]
 [0.7        1.13554824]
 [0.8        1.47590746]
 [0.9        1.4256977 ]
 [1.         0.99815363]
 [1.09391667 1.06699265]]",0,0.109
8729820499,f,20,english,5,3,english,2024-01-25 10:40:18.164074,False,2,365,sounds\english\audio/english_597.wav,"[[  0.         -67.67099002]
 [  0.1        -46.13734067]
 [  0.2          8.53827294]
 [  0.3         10.29364975]
 [  0.4         90.70511651]
 [  0.5        -85.6547255 ]
 [  0.6        -55.29379698]
 [  0.7        -36.34265525]
 [  0.8        -73.30529238]
 [  0.9         47.92763573]
 [  1.          68.39969631]
 [  1.09391667 -54.84039666]]","[[0.         1.63271305]
 [0.1        1.53444126]
 [0.2        0.45354979]
 [0.3        0.94704096]
 [0.4        1.59618965]
 [0.5        1.87985709]
 [0.6        1.26591303]
 [0.7        1.16675578]
 [0.8        1.37898637]
 [0.9        1.11636219]
 [1.         0.24288005]
 [1.09391667 1.68900271]]",0,1.329
8729820499,f,20,english,5,3,english,2024-01-25 10:40:18.164074,False,2,366,sounds\english\audio/english_959.wav,"[[  0.         -72.11702721]
 [  0.1        -40.70802273]
 [  0.2         87.64553822]
 [  0.3        -48.2331893 ]
 [  0.4        -95.5440406 ]
 [  0.5         59.94111347]
 [  0.6         91.02979874]
 [  0.7         19.11555726]
 [  0.8         75.67996803]
 [  0.9         92.01217726]
 [  1.         -10.30028839]
 [  1.09391667 -99.09748483]]","[[0.         0.58402208]
 [0.1        1.62475599]
 [0.2        1.65188883]
 [0.3        0.55484279]
 [0.4        0.6061604 ]
 [0.5        1.49451004]
 [0.6        0.05914992]
 [0.7        1.4845686 ]
 [0.8        1.97323442]
 [0.9        0.84762709]
 [1.         0.74785562]
 [1.09391667 1.91422779]]",1,4.7
8729820499,f,20,english,5,3,english,2024-01-25 10:40:18.164074,False,2,367,sounds\english\audio/english_193.wav,"[[  0.         -79.19298438]
 [  0.1         83.18398782]
 [  0.2         41.62817707]
 [  0.3        -63.57509965]
 [  0.4         84.76628996]
 [  0.5         10.12738943]
 [  0.6        -37.32432508]
 [  0.7          4.93485207]
 [  0.8         34.87911105]
 [  0.9        -39.85363935]
 [  1.          34.81523129]
 [  1.09391667  72.77087749]]","[[0.         1.8278475 ]
 [0.1        1.66141822]
 [0.2        0.29384933]
 [0.3        0.14342966]
 [0.4        1.0428664 ]
 [0.5        1.69229155]
 [0.6        0.16574738]
 [0.7        1.7490427 ]
 [0.8        0.62073431]
 [0.9        0.72815791]
 [1.         1.27219327]
 [1.09391667 1.22929628]]",1,0.899
8729820499,f,20,english,5,3,english,2024-01-25 10:40:18.164074,False,2,368,sounds\english\audio/english_356.wav,"[[  0.          32.76906958]
 [  0.1         -4.50463472]
 [  0.2         -3.50879641]
 [  0.3        -66.50182595]
 [  0.4        -41.87578379]
 [  0.5         15.06829484]
 [  0.6         -0.09178899]
 [  0.7        -46.92797448]
 [  0.8         77.06532678]
 [  0.9         26.9349071 ]
 [  1.           1.26347583]
 [  1.09391667 -52.5712343 ]]","[[0.         0.08562483]
 [0.1        0.71215991]
 [0.2        0.27192591]
 [0.3        1.84647675]
 [0.4        0.94018547]
 [0.5        0.35538969]
 [0.6        0.67852857]
 [0.7        1.60890004]
 [0.8        0.18175686]
 [0.9        1.60704056]
 [1.         0.84129373]
 [1.09391667 0.27010089]]",1,0.841
8729820499,f,20,english,5,3,english,2024-01-25 10:40:18.164074,False,2,369,sounds\english\audio/english_529.wav,"[[  0.         -75.44052411]
 [  0.1         73.68823703]
 [  0.2         35.88983091]
 [  0.3         74.9860534 ]
 [  0.4         39.79761308]
 [  0.5         87.56894365]
 [  0.6        -70.18354505]
 [  0.7         30.14757838]
 [  0.8        -85.67720686]
 [  0.9         -5.22909547]
 [  1.         -29.17041088]
 [  1.09391667  91.40497623]]","[[0.         0.27425441]
 [0.1        1.79894556]
 [0.2        1.38498362]
 [0.3        1.12136542]
 [0.4        0.69021564]
 [0.5        1.32432139]
 [0.6        0.62496123]
 [0.7        0.16694554]
 [0.8        1.72485798]
 [0.9        0.11317639]
 [1.         1.97903266]
 [1.09391667 0.92289832]]",1,0.263
8729820499,f,20,english,5,3,english,2024-01-25 10:40:18.164074,False,2,370,sounds\english\audio/english_828.wav,"[[  0.          44.40736288]
 [  0.1        -42.04416601]
 [  0.2        -20.29293086]
 [  0.3         92.4837764 ]
 [  0.4         -9.06614004]
 [  0.5        -13.57134894]
 [  0.6        -35.94091013]
 [  0.7        -16.77232099]
 [  0.8        -37.97296566]
 [  0.9        -82.27097072]
 [  1.          58.44690016]
 [  1.09391667  80.21996359]]","[[0.         0.6854481 ]
 [0.1        0.68064333]
 [0.2        0.81685259]
 [0.3        1.64535042]
 [0.4        1.05789966]
 [0.5        0.50783684]
 [0.6        0.44879888]
 [0.7        1.56814335]
 [0.8        1.89886882]
 [0.9        0.04070617]
 [1.         0.64400746]
 [1.09391667 0.77415838]]",0,1.538
8729820499,f,20,english,5,3,english,2024-01-25 10:40:18.164074,False,2,371,sounds\english\audio/english_124.wav,"[[  0.           5.35510852]
 [  0.1         82.22763866]
 [  0.2         78.44526729]
 [  0.3         -3.07690156]
 [  0.4        -26.87127611]
 [  0.5         -1.1256219 ]
 [  0.6        -86.86575837]
 [  0.7         73.06997556]
 [  0.8         48.90999268]
 [  0.9         52.65203742]
 [  1.         -49.74668146]
 [  1.09391667 -71.87075445]]","[[0.         0.99413203]
 [0.1        0.35886786]
 [0.2        0.68901736]
 [0.3        1.32582542]
 [0.4        1.93650033]
 [0.5        1.64621245]
 [0.6        1.68793936]
 [0.7        1.14468764]
 [0.8        1.13594555]
 [0.9        0.473778  ]
 [1.         1.84215607]
 [1.09391667 0.96391319]]",0,3.485
8729820499,f,20,english,5,3,english,2024-01-25 10:40:18.164074,False,2,372,sounds\english\audio/english_701.wav,"[[  0.         -93.84804117]
 [  0.1        -77.23912918]
 [  0.2        -45.57356693]
 [  0.3        -80.33366172]
 [  0.4         95.38038132]
 [  0.5         43.37257018]
 [  0.6         20.80863296]
 [  0.7        -74.49587502]
 [  0.8         53.82285156]
 [  0.9         86.20229822]
 [  1.         -84.46214873]
 [  1.09391667   1.75691035]]","[[0.         0.47905205]
 [0.1        0.43335114]
 [0.2        0.98258142]
 [0.3        1.56424934]
 [0.4        1.99053476]
 [0.5        1.06230172]
 [0.6        1.81617496]
 [0.7        0.70378114]
 [0.8        1.40362465]
 [0.9        0.70617413]
 [1.         0.74798843]
 [1.09391667 0.6850293 ]]",1,0.136
8729820499,f,20,english,5,3,english,2024-01-25 10:40:18.164074,False,2,373,sounds\english\audio/english_556.wav,"[[  0.         -68.09670747]
 [  0.1          8.96692918]
 [  0.2        -46.83531772]
 [  0.3        -87.32202155]
 [  0.4         49.65406328]
 [  0.5         92.65716025]
 [  0.6        -17.76161657]
 [  0.7        -85.77085821]
 [  0.8        -31.44799715]
 [  0.9        -32.59755967]
 [  1.         -96.2091504 ]
 [  1.09391667  -0.57982779]]","[[0.         1.3485974 ]
 [0.1        0.84698507]
 [0.2        0.06218337]
 [0.3        0.66181265]
 [0.4        1.9600464 ]
 [0.5        0.67849191]
 [0.6        0.9118753 ]
 [0.7        0.73811047]
 [0.8        0.91861979]
 [0.9        1.18816365]
 [1.         1.86623217]
 [1.09391667 0.61760757]]",1,0.699
8729820499,f,20,english,5,3,english,2024-01-25 10:40:18.164074,False,2,374,sounds\english\audio/english_197.wav,"[[  0.          -0.52164664]
 [  0.1        -87.40194418]
 [  0.2        -52.79027246]
 [  0.3        -48.86802506]
 [  0.4         81.82701326]
 [  0.5        -49.36038243]
 [  0.6         60.40718162]
 [  0.7         23.14241749]
 [  0.8          6.00272562]
 [  0.9        -33.15203134]
 [  1.          87.44378179]
 [  1.09391667 -36.11997575]]","[[0.         0.76048058]
 [0.1        1.46601293]
 [0.2        1.17311431]
 [0.3        0.52190861]
 [0.4        0.75360033]
 [0.5        0.57280926]
 [0.6        1.08660509]
 [0.7        1.00122778]
 [0.8        0.93136252]
 [0.9        1.24898943]
 [1.         1.94648397]
 [1.09391667 0.88926449]]",1,0.774
8729820499,f,20,english,5,3,english,2024-01-25 10:40:18.164074,False,2,375,sounds\english\audio/english_670.wav,"[[  0.          61.47755319]
 [  0.1         79.47502579]
 [  0.2         73.60091474]
 [  0.3         58.1460863 ]
 [  0.4         97.58712211]
 [  0.5        -25.3557345 ]
 [  0.6         -0.56542957]
 [  0.7         31.42903677]
 [  0.8         42.53271581]
 [  0.9         77.28375596]
 [  1.         -30.44711444]
 [  1.09391667  19.3107075 ]]","[[0.         1.45530198]
 [0.1        1.32139426]
 [0.2        0.78813228]
 [0.3        0.55211546]
 [0.4        0.66504483]
 [0.5        0.1283282 ]
 [0.6        1.41482601]
 [0.7        1.61871195]
 [0.8        1.01398737]
 [0.9        0.52342725]
 [1.         1.03483045]
 [1.09391667 0.15284579]]",1,0.122
8729820499,f,20,english,5,3,english,2024-01-25 10:40:18.164074,False,2,376,sounds\english\audio/english_419.wav,"[[  0.         -43.56677124]
 [  0.1        -83.21546868]
 [  0.2        -41.54064667]
 [  0.3        -35.81330599]
 [  0.4        -43.55129097]
 [  0.5        -33.79077662]
 [  0.6         70.44881048]
 [  0.7          3.24826562]
 [  0.8         34.80296655]
 [  0.9         -7.36062238]
 [  1.          41.00092789]
 [  1.09391667 -17.62948534]]","[[0.         1.2135263 ]
 [0.1        0.41335372]
 [0.2        1.17083651]
 [0.3        0.87264028]
 [0.4        0.34128763]
 [0.5        1.24788402]
 [0.6        0.43489623]
 [0.7        0.29781148]
 [0.8        1.73156921]
 [0.9        1.52997649]
 [1.         0.32887005]
 [1.09391667 0.83665111]]",1,0.229
8729820499,f,20,english,5,3,english,2024-01-25 10:40:18.164074,False,2,377,sounds\english\audio/english_123.wav,"[[  0.         -32.38117679]
 [  0.1        -64.71485254]
 [  0.2        -18.01291226]
 [  0.3        -79.77518117]
 [  0.4        -61.15753939]
 [  0.5          5.43029515]
 [  0.6        -66.97873388]
 [  0.7          5.34490813]
 [  0.8          4.4190052 ]
 [  0.9        -81.7992949 ]
 [  1.          16.85173502]
 [  1.09391667  68.10720927]]","[[0.         1.9386571 ]
 [0.1        0.09408227]
 [0.2        0.88874753]
 [0.3        1.32217329]
 [0.4        0.99742331]
 [0.5        0.11774982]
 [0.6        0.31317678]
 [0.7        0.67167814]
 [0.8        1.13014618]
 [0.9        1.16110431]
 [1.         1.02455086]
 [1.09391667 1.2246775 ]]",1,0.728
8729820499,f,20,english,5,3,english,2024-01-25 10:40:18.164074,False,2,378,sounds\english\audio/english_630.wav,"[[  0.          78.75492265]
 [  0.1        -83.58930578]
 [  0.2        -79.71821409]
 [  0.3        -40.02519871]
 [  0.4         28.39164799]
 [  0.5        -22.91010751]
 [  0.6         66.99878234]
 [  0.7        -67.03907611]
 [  0.8        -31.68288064]
 [  0.9        -92.36791787]
 [  1.         -47.34450832]
 [  1.09391667 -92.12755103]]","[[0.         1.14018337]
 [0.1        0.42247423]
 [0.2        1.15399078]
 [0.3        1.63118088]
 [0.4        0.60995737]
 [0.5        1.14933658]
 [0.6        1.58053618]
 [0.7        1.44408005]
 [0.8        0.22921488]
 [0.9        1.99244959]
 [1.         1.8016164 ]
 [1.09391667 1.49248838]]",1,0.14
8729820499,f,20,english,5,3,english,2024-01-25 10:40:18.164074,False,2,379,sounds\english\audio/english_435.wav,"[[  0.         -31.13269848]
 [  0.1         92.06970246]
 [  0.2        -23.49616722]
 [  0.3         28.69293566]
 [  0.4         91.13017666]
 [  0.5         73.01983282]
 [  0.6         26.94870672]
 [  0.7        -17.86331575]
 [  0.8        -12.47586644]
 [  0.9        -45.803678  ]
 [  1.          12.54092013]
 [  1.09391667  96.00954818]]","[[0.         0.87360856]
 [0.1        0.90374027]
 [0.2        0.13869042]
 [0.3        0.36148201]
 [0.4        1.64954246]
 [0.5        0.8333488 ]
 [0.6        0.92769237]
 [0.7        0.23890126]
 [0.8        0.53709856]
 [0.9        1.33606874]
 [1.         1.23901183]
 [1.09391667 0.13308527]]",1,0.48
8729820499,f,20,english,5,3,english,2024-01-25 10:40:18.164074,False,2,380,sounds\english\audio/english_855.wav,"[[  0.         -13.47347562]
 [  0.1        -80.05914573]
 [  0.2        -72.26699248]
 [  0.3        -58.92718016]
 [  0.4        -26.10050626]
 [  0.5         52.49716227]
 [  0.6        -60.2709564 ]
 [  0.7         99.6254906 ]
 [  0.8         96.73720775]
 [  0.9         38.62507801]
 [  1.         -58.05029263]
 [  1.09391667 -97.63647514]]","[[0.         1.00059458]
 [0.1        0.50263337]
 [0.2        0.84336515]
 [0.3        1.88793301]
 [0.4        0.44425999]
 [0.5        1.63024313]
 [0.6        0.11111393]
 [0.7        1.35713378]
 [0.8        0.79488914]
 [0.9        1.22496373]
 [1.         1.90547482]
 [1.09391667 0.01778788]]",1,0.124
8729820499,f,20,english,5,3,english,2024-01-25 10:40:18.164074,False,2,381,sounds\english\audio/english_355.wav,"[[  0.         -17.98441337]
 [  0.1         -3.7927165 ]
 [  0.2         49.96307457]
 [  0.3        -15.53125152]
 [  0.4        -84.8102411 ]
 [  0.5        -28.25718679]
 [  0.6        -58.3999431 ]
 [  0.7        -22.66304052]
 [  0.8        -95.1511219 ]
 [  0.9         82.90101198]
 [  1.          11.18923061]
 [  1.09391667  39.40210676]]","[[0.         0.63443376]
 [0.1        0.81098104]
