subj,sex,age,language,english,french,native_lang,date,practice,block,trial,stim,pitch,stretch,response,rt
8731382169,f,20,english,5,4,english,2024-02-01 10:33:02.802936,True,0,0,sounds\english\audio/english_688.wav,"[[  0.         -29.94010546]
 [  0.1        -41.32005189]
 [  0.2         60.5114301 ]
 [  0.3        -11.57251233]
 [  0.4        -32.48909096]
 [  0.5         70.68045254]
 [  0.6        -93.57410751]
 [  0.7        -35.20217483]
 [  0.8        -56.48380795]
 [  0.9         29.31296217]
 [  1.         -66.64221323]
 [  1.09391667  61.92592934]]","[[0.         0.64779988]
 [0.1        0.86768487]
 [0.2        1.84873786]
 [0.3        1.12374148]
 [0.4        1.48328397]
 [0.5        0.61802845]
 [0.6        0.25217431]
 [0.7        0.64703385]
 [0.8        0.24929174]
 [0.9        0.36133188]
 [1.         0.49659231]
 [1.09391667 0.74443623]]",0,1.361
8731382169,f,20,english,5,4,english,2024-02-01 10:33:02.802936,True,0,1,sounds\english\audio/english_134.wav,"[[  0.         -24.26834644]
 [  0.1          0.87898814]
 [  0.2         29.43994061]
 [  0.3         21.82945731]
 [  0.4         49.09743773]
 [  0.5        -15.97258886]
 [  0.6         13.73233931]
 [  0.7        -18.88709324]
 [  0.8         13.58093601]
 [  0.9         74.79947006]
 [  1.         -49.15519577]
 [  1.09391667  18.17659257]]","[[0.         1.03045274]
 [0.1        1.86888255]
 [0.2        1.70405425]
 [0.3        1.34767033]
 [0.4        0.8443881 ]
 [0.5        1.38979788]
 [0.6        1.1830035 ]
 [0.7        1.43950556]
 [0.8        1.18211722]
 [0.9        0.44903969]
 [1.         0.93357228]
 [1.09391667 1.8466086 ]]",0,1.395
8731382169,f,20,english,5,4,english,2024-02-01 10:33:02.802936,True,0,2,sounds\english\audio/english_357.wav,"[[  0.         -87.96365185]
 [  0.1         -8.5190019 ]
 [  0.2         34.94660595]
 [  0.3         74.01534503]
 [  0.4         13.59562063]
 [  0.5        -84.64423503]
 [  0.6        -29.1291793 ]
 [  0.7        -52.42503967]
 [  0.8         21.24796122]
 [  0.9         32.72205185]
 [  1.         -96.5222269 ]
 [  1.09391667  30.40810686]]","[[0.         1.52852124]
 [0.1        1.93288072]
 [0.2        1.80201728]
 [0.3        0.94192251]
 [0.4        1.02469598]
 [0.5        1.61646509]
 [0.6        0.27950667]
 [0.7        1.30320323]
 [0.8        1.07824702]
 [0.9        0.68433039]
 [1.         1.27621022]
 [1.09391667 1.23591368]]",1,0.586
8731382169,f,20,english,5,4,english,2024-02-01 10:33:02.802936,False,1,3,sounds\english\audio/english_463.wav,"[[  0.          10.50801154]
 [  0.1         53.01075337]
 [  0.2        -45.92576003]
 [  0.3         19.52430908]
 [  0.4        -49.30728031]
 [  0.5         14.12996474]
 [  0.6        -38.56124135]
 [  0.7         60.51994471]
 [  0.8        -80.92150268]
 [  0.9         77.91302957]
 [  1.         -17.96219129]
 [  1.09391667  -4.0549477 ]]","[[0.         1.17811947]
 [0.1        0.17767022]
 [0.2        0.48691175]
 [0.3        0.61421231]
 [0.4        1.08242916]
 [0.5        0.36464212]
 [0.6        1.11640778]
 [0.7        0.46617429]
 [0.8        1.24207175]
 [0.9        1.740718  ]
 [1.         0.97634615]
 [1.09391667 0.84642764]]",0,1.277
8731382169,f,20,english,5,4,english,2024-02-01 10:33:02.802936,False,1,4,sounds\english\audio/english_555.wav,"[[  0.         -34.01174322]
 [  0.1        -25.89446117]
 [  0.2         75.37641555]
 [  0.3          3.6750175 ]
 [  0.4        -77.72739176]
 [  0.5        -17.06538868]
 [  0.6        -37.567139  ]
 [  0.7        -79.94552452]
 [  0.8         29.48505151]
 [  0.9        -58.857953  ]
 [  1.         -46.0054019 ]
 [  1.09391667 -89.97133458]]","[[0.         1.1718484 ]
 [0.1        1.62544238]
 [0.2        1.85861965]
 [0.3        1.93143492]
 [0.4        0.30173375]
 [0.5        1.28363733]
 [0.6        0.51060309]
 [0.7        0.80092252]
 [0.8        1.44732027]
 [0.9        0.65157835]
 [1.         1.65986599]
 [1.09391667 1.34311871]]",1,0.659
8731382169,f,20,english,5,4,english,2024-02-01 10:33:02.802936,False,1,5,sounds\english\audio/english_642.wav,"[[ 0.         91.32452464]
 [ 0.1        25.50334758]
 [ 0.2        16.65062249]
 [ 0.3        59.49550973]
 [ 0.4        71.09902   ]
 [ 0.5        32.48084173]
 [ 0.6        -3.97213515]
 [ 0.7        -1.84724139]
 [ 0.8        94.84850521]
 [ 0.9        -6.66803952]
 [ 1.         95.32562857]
 [ 1.09391667 43.75707904]]","[[0.         1.47199137]
 [0.1        0.86889355]
 [0.2        0.12872518]
 [0.3        0.72033949]
 [0.4        1.524748  ]
 [0.5        1.90798091]
 [0.6        1.71709986]
 [0.7        1.47754373]
 [0.8        1.43391033]
 [0.9        1.68537408]
 [1.         1.1201051 ]
 [1.09391667 1.27926817]]",1,0.952
8731382169,f,20,english,5,4,english,2024-02-01 10:33:02.802936,False,1,6,sounds\english\audio/english_178.wav,"[[  0.           5.42478923]
 [  0.1         66.71711881]
 [  0.2         25.13944125]
 [  0.3         95.56005782]
 [  0.4         16.85207382]
 [  0.5        -27.28270002]
 [  0.6         86.24132907]
 [  0.7        -67.08119727]
 [  0.8         -0.81610081]
 [  0.9        -32.08256077]
 [  1.          33.26765995]
 [  1.09391667  50.15163679]]","[[0.         1.01011156]
 [0.1        1.60637441]
 [0.2        0.85795496]
 [0.3        1.35214977]
 [0.4        0.61247399]
 [0.5        1.45555962]
 [0.6        0.34817024]
 [0.7        0.78995697]
 [0.8        1.09427424]
 [0.9        1.32224293]
 [1.         1.53013904]
 [1.09391667 1.40313699]]",1,0.54
8731382169,f,20,english,5,4,english,2024-02-01 10:33:02.802936,False,1,7,sounds\english\audio/english_91.wav,"[[  0.          90.30305792]
 [  0.1         56.18894947]
 [  0.2        -58.19739478]
 [  0.3         79.028897  ]
 [  0.4          7.81343209]
 [  0.5         28.60271905]
 [  0.6         14.99037293]
 [  0.7         -0.25615484]
 [  0.8         86.53655438]
 [  0.9        -90.65230495]
 [  1.          95.15657265]
 [  1.09391667 -56.87677847]]","[[0.         1.1938068 ]
 [0.1        1.20808781]
 [0.2        0.13849828]
 [0.3        0.94138732]
 [0.4        0.4665442 ]
 [0.5        1.77893908]
 [0.6        0.39545287]
 [0.7        1.77472074]
 [0.8        1.9424725 ]
 [0.9        1.79603275]
 [1.         1.28685544]
 [1.09391667 0.36998726]]",1,0.7
8731382169,f,20,english,5,4,english,2024-02-01 10:33:02.802936,False,1,8,sounds\english\audio/english_587.wav,"[[  0.         -43.40275294]
 [  0.1        -37.77994111]
 [  0.2         83.99553821]
 [  0.3        -96.01654656]
 [  0.4         -9.71349701]
 [  0.5        -47.87514317]
 [  0.6         12.68053189]
 [  0.7         47.90702589]
 [  0.8        -78.79796743]
 [  0.9         -5.96294959]
 [  1.          11.2587131 ]
 [  1.09391667 -13.10275262]]","[[0.         0.40076924]
 [0.1        1.21668484]
 [0.2        1.2277233 ]
 [0.3        0.71292194]
 [0.4        0.26055353]
 [0.5        1.66513876]
 [0.6        0.2591497 ]
 [0.7        0.90449777]
 [0.8        0.87118045]
 [0.9        1.32264247]
 [1.         1.86277567]
 [1.09391667 0.24936359]]",0,0.902
8731382169,f,20,english,5,4,english,2024-02-01 10:33:02.802936,False,1,9,sounds\english\audio/english_753.wav,"[[  0.         -37.70671017]
 [  0.1        -51.92629572]
 [  0.2         93.98068105]
 [  0.3        -51.39932121]
 [  0.4         95.80116655]
 [  0.5         54.2507311 ]
 [  0.6         20.30160244]
 [  0.7         55.46646904]
 [  0.8        -44.46613041]
 [  0.9         32.26226525]
 [  1.          94.05472838]
 [  1.09391667  42.98878145]]","[[0.         1.74884561]
 [0.1        0.91942072]
 [0.2        1.59964549]
 [0.3        1.12825203]
 [0.4        1.21219761]
 [0.5        1.26026343]
 [0.6        1.5757537 ]
 [0.7        0.16664365]
 [0.8        1.11726469]
 [0.9        1.53816652]
 [1.         0.62126972]
 [1.09391667 0.46411799]]",1,0.698
8731382169,f,20,english,5,4,english,2024-02-01 10:33:02.802936,False,1,10,sounds\english\audio/english_45.wav,"[[  0.         -55.14721801]
 [  0.1         57.09452307]
 [  0.2         -1.62499195]
 [  0.3        -13.00347301]
 [  0.4         13.64765964]
 [  0.5        -16.23645369]
 [  0.6         12.80202188]
 [  0.7         18.490615  ]
 [  0.8        -32.73911513]
 [  0.9         72.91810524]
 [  1.         -39.54069726]
 [  1.09391667   1.32954538]]","[[0.         0.29299266]
 [0.1        0.9247964 ]
 [0.2        1.0494158 ]
 [0.3        1.81345336]
 [0.4        1.7292362 ]
 [0.5        0.3059786 ]
 [0.6        1.60566624]
 [0.7        1.60640041]
 [0.8        0.6923723 ]
 [0.9        1.31031073]
 [1.         0.9624361 ]
 [1.09391667 1.523717  ]]",0,0.462
8731382169,f,20,english,5,4,english,2024-02-01 10:33:02.802936,False,1,11,sounds\english\audio/english_257.wav,"[[  0.          40.54895098]
 [  0.1         40.15801064]
 [  0.2        -24.20266722]
 [  0.3         -7.17661388]
 [  0.4        -28.64234321]
 [  0.5         21.61308764]
 [  0.6         53.78152607]
 [  0.7          7.01627137]
 [  0.8         35.40837973]
 [  0.9        -20.07672714]
 [  1.          -5.14564183]
 [  1.09391667 -39.03797323]]","[[0.         0.78978042]
 [0.1        1.47705853]
 [0.2        0.45256837]
 [0.3        1.62604433]
 [0.4        1.35763463]
 [0.5        0.40071863]
 [0.6        1.66804391]
 [0.7        0.9369016 ]
 [0.8        1.28942555]
 [0.9        0.91090345]
 [1.         1.13070963]
 [1.09391667 1.90359161]]",1,0.567
8731382169,f,20,english,5,4,english,2024-02-01 10:33:02.802936,False,1,12,sounds\english\audio/english_603.wav,"[[  0.         -92.82127988]
 [  0.1        -10.8879853 ]
 [  0.2         87.07339117]
 [  0.3         94.16233181]
 [  0.4         41.70993127]
 [  0.5         -9.49662532]
 [  0.6          0.93436069]
 [  0.7        -31.16965002]
 [  0.8         22.515306  ]
 [  0.9         39.07324   ]
 [  1.         -34.19262646]
 [  1.09391667   7.30050377]]","[[0.         0.46202599]
 [0.1        0.04069155]
 [0.2        0.53206278]
 [0.3        1.44505889]
 [0.4        1.73804989]
 [0.5        0.79060569]
 [0.6        1.79017292]
 [0.7        1.60375186]
 [0.8        1.61763715]
 [0.9        1.44528026]
 [1.         0.82648617]
 [1.09391667 1.94101738]]",1,0.519
8731382169,f,20,english,5,4,english,2024-02-01 10:33:02.802936,False,1,13,sounds\english\audio/english_285.wav,"[[  0.          48.62119612]
 [  0.1        -77.49487419]
 [  0.2        -92.74855632]
 [  0.3         -5.04409868]
 [  0.4        -37.04184738]
 [  0.5         93.82836291]
 [  0.6         46.80360504]
 [  0.7         99.71187558]
 [  0.8         70.29725425]
 [  0.9          2.68384344]
 [  1.          33.86757162]
 [  1.09391667  28.22402765]]","[[0.         1.78431697]
 [0.1        0.21017115]
 [0.2        0.90754364]
 [0.3        0.79299305]
 [0.4        0.73704045]
 [0.5        1.49438795]
 [0.6        1.8666859 ]
 [0.7        1.28156013]
 [0.8        0.27278766]
 [0.9        1.64624   ]
 [1.         0.38779205]
 [1.09391667 0.9971565 ]]",1,0.502
8731382169,f,20,english,5,4,english,2024-02-01 10:33:02.802936,False,1,14,sounds\english\audio/english_431.wav,"[[  0.          80.69254561]
 [  0.1        -59.39729579]
 [  0.2         32.8562558 ]
 [  0.3        -22.29744676]
 [  0.4         31.71546531]
 [  0.5         26.68689131]
 [  0.6        -67.6485219 ]
 [  0.7         27.20384073]
 [  0.8        -89.82269949]
 [  0.9        -57.22282633]
 [  1.          66.80474658]
 [  1.09391667  -8.50085654]]","[[0.         1.28844059]
 [0.1        0.02904499]
 [0.2        0.95132877]
 [0.3        1.51616745]
 [0.4        1.13295381]
 [0.5        0.76516543]
 [0.6        0.83201004]
 [0.7        0.376561  ]
 [0.8        1.59621374]
 [0.9        0.7949968 ]
 [1.         1.43069985]
 [1.09391667 0.47836789]]",1,1.179
8731382169,f,20,english,5,4,english,2024-02-01 10:33:02.802936,False,1,15,sounds\english\audio/english_626.wav,"[[  0.          -0.56370029]
 [  0.1        -99.91896683]
 [  0.2         71.91666298]
 [  0.3          5.93440056]
 [  0.4         30.6659702 ]
 [  0.5         50.2345252 ]
 [  0.6         26.80081253]
 [  0.7         57.01154581]
 [  0.8        -79.56021694]
 [  0.9         19.7734095 ]
 [  1.          24.01737707]
 [  1.09391667 -71.48633622]]","[[0.         1.601019  ]
 [0.1        1.02479774]
 [0.2        1.56428022]
 [0.3        1.41456241]
 [0.4        1.90457562]
 [0.5        1.04545234]
 [0.6        1.05575336]
 [0.7        1.40636518]
 [0.8        1.56161819]
 [0.9        0.61190755]
 [1.         0.77515613]
 [1.09391667 1.93548934]]",1,1.064
8731382169,f,20,english,5,4,english,2024-02-01 10:33:02.802936,False,1,16,sounds\english\audio/english_63.wav,"[[  0.          48.80645604]
 [  0.1          3.74871088]
 [  0.2         36.66338235]
 [  0.3          0.45158548]
 [  0.4        -34.50897998]
 [  0.5         21.44979621]
 [  0.6        -13.42489637]
 [  0.7          3.18187359]
 [  0.8        -14.80243304]
 [  0.9         76.25105629]
 [  1.         -29.02472721]
 [  1.09391667 -75.42163707]]","[[0.         0.56207448]
 [0.1        0.93485315]
 [0.2        1.21075073]
 [0.3        1.91331277]
 [0.4        0.52750999]
 [0.5        1.42707635]
 [0.6        1.96742567]
 [0.7        1.57355325]
 [0.8        0.94386171]
 [0.9        0.6095205 ]
 [1.         0.97846037]
 [1.09391667 1.94412545]]",1,0.455
8731382169,f,20,english,5,4,english,2024-02-01 10:33:02.802936,False,1,17,sounds\english\audio/english_976.wav,"[[  0.          -7.94823885]
 [  0.1         96.34184584]
 [  0.2        -33.68410723]
 [  0.3         71.00734619]
 [  0.4        -73.42321757]
 [  0.5         68.14494718]
 [  0.6         72.66069131]
 [  0.7        -46.1327141 ]
 [  0.8        -13.93014286]
 [  0.9         53.41967838]
 [  1.         -12.62377888]
 [  1.09391667  -9.46767518]]","[[0.         1.93996979]
 [0.1        0.68967214]
 [0.2        1.52037239]
 [0.3        0.92144072]
 [0.4        1.16805043]
 [0.5        0.75881772]
 [0.6        0.99023479]
 [0.7        1.21750342]
 [0.8        1.7476055 ]
 [0.9        1.87214478]
 [1.         0.1004517 ]
 [1.09391667 1.64660027]]",1,0.282
8731382169,f,20,english,5,4,english,2024-02-01 10:33:02.802936,False,1,18,sounds\english\audio/english_858.wav,"[[  0.         -15.37505572]
 [  0.1         47.09921101]
 [  0.2        -76.0790668 ]
 [  0.3        -80.27517843]
 [  0.4        -25.73472899]
 [  0.5         -3.51621139]
 [  0.6        -42.58463449]
 [  0.7        -98.39604525]
 [  0.8         89.96106068]
 [  0.9         77.78135143]
 [  1.         -48.66962061]
 [  1.09391667 -42.55835381]]","[[0.         0.64393049]
 [0.1        1.19859165]
 [0.2        1.93258785]
 [0.3        0.51921333]
 [0.4        0.72976133]
 [0.5        1.3656743 ]
 [0.6        1.33625445]
 [0.7        1.13554824]
 [0.8        1.47590746]
 [0.9        1.4256977 ]
 [1.         0.99815363]
 [1.09391667 1.06699265]]",1,0.441
8731382169,f,20,english,5,4,english,2024-02-01 10:33:02.802936,False,1,19,sounds\english\audio/english_96.wav,"[[  0.         -65.02634732]
 [  0.1         26.89498136]
 [  0.2         43.91987782]
 [  0.3        -59.57375142]
 [  0.4        -60.38364834]
 [  0.5         44.26176545]
 [  0.6        -64.04538638]
 [  0.7        -45.23049702]
 [  0.8        -76.14418672]
 [  0.9         28.81354354]
 [  1.          56.5836812 ]
 [  1.09391667  88.01492367]]","[[0.         0.97232816]
 [0.1        0.38357595]
 [0.2        1.32659615]
 [0.3        1.36640746]
 [0.4        1.49535362]
 [0.5        0.82408653]
 [0.6        0.04141002]
 [0.7        0.9269043 ]
 [0.8        1.44350466]
 [0.9        0.19413347]
 [1.         0.94594394]
 [1.09391667 1.65487259]]",1,0.507
8731382169,f,20,english,5,4,english,2024-02-01 10:33:02.802936,False,1,20,sounds\english\audio/english_829.wav,"[[  0.          -7.89955856]
 [  0.1        -18.01769042]
 [  0.2         57.48418942]
 [  0.3         41.9687918 ]
 [  0.4        -61.64702177]
 [  0.5        -20.29007911]
 [  0.6         93.24496902]
 [  0.7        -32.99482484]
 [  0.8          6.59233546]
 [  0.9        -90.87646181]
 [  1.           9.72736643]
 [  1.09391667 -11.26207351]]","[[0.         0.852516  ]
 [0.1        0.97788956]
 [0.2        1.32810397]
 [0.3        0.18108064]
 [0.4        0.15705118]
 [0.5        0.66571436]
 [0.6        0.20869504]
 [0.7        1.27621492]
 [0.8        1.10768251]
 [0.9        1.10361444]
 [1.         0.98320382]
 [1.09391667 1.01672444]]",1,0.796
8731382169,f,20,english,5,4,english,2024-02-01 10:33:02.802936,False,1,21,sounds\english\audio/english_242.wav,"[[  0.         -30.80596233]
 [  0.1         81.43519329]
 [  0.2          0.15400576]
 [  0.3        -28.81783402]
 [  0.4        -61.37671682]
 [  0.5         91.85520167]
 [  0.6        -31.54320731]
 [  0.7        -13.97670537]
 [  0.8         70.42044267]
 [  0.9        -90.04203145]
 [  1.         -39.83004077]
 [  1.09391667 -14.25442636]]","[[0.         1.80753385]
 [0.1        0.97833747]
 [0.2        1.3926845 ]
 [0.3        1.42545381]
 [0.4        0.1849233 ]
 [0.5        1.35548931]
 [0.6        1.15661389]
 [0.7        1.66148537]
 [0.8        1.4780344 ]
 [0.9        1.37692841]
 [1.         0.38948234]
 [1.09391667 1.25473686]]",1,0.581
8731382169,f,20,english,5,4,english,2024-02-01 10:33:02.802936,False,1,22,sounds\english\audio/english_469.wav,"[[  0.         -33.27051151]
 [  0.1        -94.55728016]
 [  0.2        -24.34554111]
 [  0.3         16.33493977]
 [  0.4        -66.14325269]
 [  0.5         -2.40335162]
 [  0.6        -87.80607373]
 [  0.7         34.04653441]
 [  0.8         53.31501889]
 [  0.9        -70.89291525]
 [  1.          35.01344624]
 [  1.09391667  15.03691984]]","[[0.         1.91972156]
 [0.1        0.89758894]
 [0.2        0.14767308]
 [0.3        0.88925412]
 [0.4        0.02970636]
 [0.5        0.16070031]
 [0.6        0.0970541 ]
 [0.7        1.25032873]
 [0.8        1.92087852]
 [0.9        0.56083362]
 [1.         0.78804248]
 [1.09391667 0.71632164]]",1,1.933
8731382169,f,20,english,5,4,english,2024-02-01 10:33:02.802936,False,1,23,sounds\english\audio/english_494.wav,"[[  0.          -0.71105911]
 [  0.1         -4.76372759]
 [  0.2         66.89870616]
 [  0.3         43.91062915]
 [  0.4        -57.8545691 ]
 [  0.5        -82.5179259 ]
 [  0.6         80.42837684]
 [  0.7         96.180933  ]
 [  0.8         17.6398549 ]
 [  0.9        -72.53927607]
 [  1.         -51.27052229]
 [  1.09391667  16.38241645]]","[[0.         1.19698802]
 [0.1        0.64302423]
 [0.2        0.88986983]
 [0.3        0.33391225]
 [0.4        0.78562285]
 [0.5        1.92178158]
 [0.6        0.82903442]
 [0.7        0.59414127]
 [0.8        1.2399684 ]
 [0.9        0.09321319]
 [1.         0.68716523]
 [1.09391667 1.81410855]]",0,0.708
8731382169,f,20,english,5,4,english,2024-02-01 10:33:02.802936,False,1,24,sounds\english\audio/english_620.wav,"[[  0.          70.25249287]
 [  0.1        -54.17403538]
 [  0.2        -24.27909239]
 [  0.3        -72.34505274]
 [  0.4        -84.16228676]
 [  0.5        -50.29822256]
 [  0.6         87.34344189]
 [  0.7        -51.38543443]
 [  0.8         40.7028666 ]
 [  0.9        -95.70979416]
 [  1.          95.25950338]
 [  1.09391667 -68.50782959]]","[[0.         1.60927754]
 [0.1        0.35556605]
 [0.2        1.04145572]
 [0.3        1.98653049]
 [0.4        0.35027861]
 [0.5        1.43135392]
 [0.6        1.2880573 ]
 [0.7        1.68116405]
 [0.8        1.8236964 ]
 [0.9        0.04712506]
 [1.         1.86928379]
 [1.09391667 0.75081121]]",1,0.699
8731382169,f,20,english,5,4,english,2024-02-01 10:33:02.802936,False,1,25,sounds\english\audio/english_1000.wav,"[[  0.          -1.5072561 ]
 [  0.1         39.79014661]
 [  0.2         58.76846959]
 [  0.3         28.54889901]
 [  0.4        -74.34288484]
 [  0.5          7.94862856]
 [  0.6         75.96899765]
 [  0.7         20.32286843]
 [  0.8          6.51139675]
 [  0.9         95.873103  ]
 [  1.          76.48547212]
 [  1.09391667  42.88935731]]","[[0.         0.91946401]
 [0.1        1.39592101]
 [0.2        0.5487596 ]
 [0.3        1.20778852]
 [0.4        0.05870568]
 [0.5        1.40576818]
 [0.6        0.56511458]
 [0.7        0.44257477]
 [0.8        0.97037601]
 [0.9        1.4916368 ]
 [1.         1.12595485]
 [1.09391667 1.31879984]]",1,1.431
8731382169,f,20,english,5,4,english,2024-02-01 10:33:02.802936,False,1,26,sounds\english\audio/english_574.wav,"[[  0.          30.16253717]
 [  0.1        -51.87995618]
 [  0.2         24.46456732]
 [  0.3        -94.35752884]
 [  0.4         64.35841576]
 [  0.5        -49.28362763]
 [  0.6         14.18269939]
 [  0.7        -50.86809752]
 [  0.8         53.84502892]
 [  0.9        -66.65469805]
 [  1.         -86.96769925]
 [  1.09391667 -53.07810136]]","[[0.         0.985146  ]
 [0.1        1.53182158]
 [0.2        1.42910062]
 [0.3        0.82906666]
 [0.4        1.00783528]
 [0.5        1.2732344 ]
 [0.6        1.27248482]
 [0.7        0.5240718 ]
 [0.8        0.53991613]
 [0.9        0.74966761]
 [1.         0.29132247]
 [1.09391667 0.5179051 ]]",0,1.948
8731382169,f,20,english,5,4,english,2024-02-01 10:33:02.802936,False,1,27,sounds\english\audio/english_752.wav,"[[  0.          52.61686216]
 [  0.1        -18.45204241]
 [  0.2         -6.44553856]
 [  0.3         54.48685686]
 [  0.4        -14.12902415]
 [  0.5        -68.0514313 ]
 [  0.6        -35.48747748]
 [  0.7        -40.39140323]
 [  0.8        -44.26325446]
 [  0.9         18.34874791]
 [  1.         -42.03859304]
 [  1.09391667  68.7756392 ]]","[[0.         1.6341758 ]
 [0.1        0.5397069 ]
 [0.2        1.4905668 ]
 [0.3        0.49055919]
 [0.4        1.50348136]
 [0.5        0.53453917]
 [0.6        1.00064578]
 [0.7        0.9078798 ]
 [0.8        1.8374475 ]
 [0.9        0.61675218]
 [1.         0.24596276]
 [1.09391667 0.85105991]]",1,0.431
8731382169,f,20,english,5,4,english,2024-02-01 10:33:02.802936,False,1,28,sounds\english\audio/english_882.wav,"[[  0.          -7.05979315]
 [  0.1         11.12287517]
 [  0.2         28.5672698 ]
 [  0.3         16.48717496]
 [  0.4          6.46389904]
 [  0.5        -33.62191601]
 [  0.6         24.95644847]
 [  0.7        -38.16076581]
 [  0.8        -79.20201093]
 [  0.9        -71.11539398]
 [  1.         -86.32031944]
 [  1.09391667 -43.4557724 ]]","[[0.         0.25493427]
 [0.1        1.40090196]
 [0.2        0.1131803 ]
 [0.3        1.17672005]
 [0.4        1.65791719]
 [0.5        1.48549593]
 [0.6        0.02678123]
 [0.7        0.84885904]
 [0.8        0.30029844]
 [0.9        0.49544308]
 [1.         0.41090122]
 [1.09391667 0.68463909]]",0,1.987
8731382169,f,20,english,5,4,english,2024-02-01 10:33:02.802936,False,1,29,sounds\english\audio/english_943.wav,"[[  0.          79.5890822 ]
 [  0.1         78.55264714]
 [  0.2         44.19658383]
 [  0.3        -16.14605168]
 [  0.4         46.84349784]
 [  0.5         67.29364224]
 [  0.6         62.75940247]
 [  0.7        -42.13911475]
 [  0.8        -19.02728939]
 [  0.9        -16.03900615]
 [  1.          15.22888591]
 [  1.09391667  60.70409514]]","[[0.         1.20824936]
 [0.1        0.88116928]
 [0.2        1.0423498 ]
 [0.3        1.30491636]
 [0.4        1.23781924]
 [0.5        1.19542323]
 [0.6        1.00041218]
 [0.7        1.18889719]
 [0.8        0.17654831]
 [0.9        0.65298118]
 [1.         0.96725626]
 [1.09391667 1.67455333]]",0,1.545
8731382169,f,20,english,5,4,english,2024-02-01 10:33:02.802936,False,1,30,sounds\english\audio/english_292.wav,"[[  0.          25.72060653]
 [  0.1         -6.51251487]
 [  0.2          3.32661168]
 [  0.3         89.62386246]
 [  0.4         80.65433919]
 [  0.5         44.84771524]
 [  0.6         25.54437629]
 [  0.7        -12.49512251]
 [  0.8        -42.7769001 ]
 [  0.9        -50.66960292]
 [  1.         -26.28928757]
 [  1.09391667 -87.75283225]]","[[0.         1.17792554]
 [0.1        0.30252559]
 [0.2        1.09442145]
 [0.3        1.28448778]
 [0.4        1.02735441]
 [0.5        0.62410129]
 [0.6        1.60418481]
 [0.7        0.44189431]
 [0.8        1.24863789]
 [0.9        1.87159039]
 [1.         1.63743996]
 [1.09391667 0.32075193]]",0,0.797
8731382169,f,20,english,5,4,english,2024-02-01 10:33:02.802936,False,1,31,sounds\english\audio/english_998.wav,"[[  0.         -83.67346728]
 [  0.1        -68.43297462]
 [  0.2         47.84560439]
 [  0.3         71.43971258]
 [  0.4        -30.40941836]
 [  0.5         69.31214212]
 [  0.6        -95.04564508]
 [  0.7        -61.88405175]
 [  0.8         11.43915949]
 [  0.9         79.6365109 ]
 [  1.          58.29305302]
 [  1.09391667  44.0288717 ]]","[[0.         1.27391906]
 [0.1        0.75913393]
 [0.2        1.02363825]
 [0.3        1.78775676]
 [0.4        0.0961221 ]
 [0.5        1.18933693]
 [0.6        1.9379163 ]
 [0.7        1.91389769]
 [0.8        1.08895614]
 [0.9        1.52042952]
 [1.         0.38016323]
 [1.09391667 1.77799574]]",0,1.424
8731382169,f,20,english,5,4,english,2024-02-01 10:33:02.802936,False,1,32,sounds\english\audio/english_868.wav,"[[  0.           8.81168197]
 [  0.1         28.82624603]
 [  0.2        -13.41860503]
 [  0.3         -3.78239355]
 [  0.4        -99.28888376]
 [  0.5         97.17399406]
 [  0.6         -7.91387191]
 [  0.7         60.9049728 ]
 [  0.8        -11.98639675]
 [  0.9         -1.38257528]
 [  1.          25.89344048]
 [  1.09391667 -40.04347975]]","[[0.         0.91928245]
 [0.1        1.1322176 ]
 [0.2        0.903902  ]
 [0.3        0.85237712]
 [0.4        0.30528578]
 [0.5        0.73312891]
 [0.6        1.49247212]
 [0.7        1.20652206]
 [0.8        1.13523652]
 [0.9        0.60296342]
 [1.         0.75702193]
 [1.09391667 0.87917509]]",1,0.964
8731382169,f,20,english,5,4,english,2024-02-01 10:33:02.802936,False,1,33,sounds\english\audio/english_364.wav,"[[  0.          83.865778  ]
 [  0.1         63.76779424]
 [  0.2         76.73494008]
 [  0.3         63.04278033]
 [  0.4        -55.03833232]
 [  0.5         57.11242427]
 [  0.6         15.41108418]
 [  0.7          3.11298983]
 [  0.8         15.49246741]
 [  0.9        -76.70109977]
 [  1.          21.21406375]
 [  1.09391667  20.91306008]]","[[0.         0.64688834]
 [0.1        1.36525912]
 [0.2        0.98445588]
 [0.3        1.58126378]
 [0.4        1.2558055 ]
 [0.5        1.01407945]
 [0.6        1.72440997]
 [0.7        1.75247835]
 [0.8        0.306912  ]
 [0.9        1.65351594]
 [1.         0.67540521]
 [1.09391667 0.2382038 ]]",1,1.065
8731382169,f,20,english,5,4,english,2024-02-01 10:33:02.802936,False,1,34,sounds\english\audio/english_94.wav,"[[  0.         -69.13613192]
 [  0.1        -53.91573564]
 [  0.2         88.54569891]
 [  0.3         47.91558238]
 [  0.4         46.13883045]
 [  0.5          0.71209955]
 [  0.6         53.89774049]
 [  0.7         37.22112319]
 [  0.8          8.13348347]
 [  0.9        -10.35793642]
 [  1.          75.25647247]
 [  1.09391667 -70.34686187]]","[[0.         0.71683615]
 [0.1        1.64130178]
 [0.2        1.41561382]
 [0.3        0.72478091]
 [0.4        1.21480875]
 [0.5        0.13058063]
 [0.6        1.07607775]
 [0.7        0.10112022]
 [0.8        0.91343474]
 [0.9        0.77751528]
 [1.         0.57088528]
 [1.09391667 0.98841109]]",0,2.007
8731382169,f,20,english,5,4,english,2024-02-01 10:33:02.802936,False,1,35,sounds\english\audio/english_624.wav,"[[  0.          34.76400378]
 [  0.1        -36.42076645]
 [  0.2        -52.38985079]
 [  0.3         98.14853718]
 [  0.4         97.5674754 ]
 [  0.5        -80.04687885]
 [  0.6         -8.81047571]
 [  0.7        -78.45129318]
 [  0.8         39.54454361]
 [  0.9         32.62160332]
 [  1.         -98.98158135]
 [  1.09391667  19.08613563]]","[[0.         1.78994994]
 [0.1        1.4795907 ]
 [0.2        1.80721514]
 [0.3        1.70059719]
 [0.4        0.69719837]
 [0.5        1.37290399]
 [0.6        1.53741575]
 [0.7        1.54350611]
 [0.8        0.49170725]
 [0.9        1.04663897]
 [1.         0.63020253]
 [1.09391667 0.96318783]]",1,1.916
8731382169,f,20,english,5,4,english,2024-02-01 10:33:02.802936,False,1,36,sounds\english\audio/english_522.wav,"[[  0.         -41.53907187]
 [  0.1        -34.77242331]
 [  0.2         44.84688975]
 [  0.3          0.52781467]
 [  0.4        -85.49095183]
 [  0.5         49.75805681]
 [  0.6        -34.01238983]
 [  0.7        -76.80695945]
 [  0.8         57.48181657]
 [  0.9        -42.740182  ]
 [  1.          76.48970234]
 [  1.09391667 -24.33451257]]","[[0.         0.57004443]
 [0.1        0.9419408 ]
 [0.2        1.66104168]
 [0.3        0.91446022]
 [0.4        1.87910308]
 [0.5        1.6772423 ]
 [0.6        1.00245935]
 [0.7        1.44049733]
 [0.8        0.74965877]
 [0.9        1.30386633]
 [1.         1.30270801]
 [1.09391667 0.47933239]]",0,1.297
8731382169,f,20,english,5,4,english,2024-02-01 10:33:02.802936,False,1,37,sounds\english\audio/english_333.wav,"[[  0.         -77.09264939]
 [  0.1         -5.78875624]
 [  0.2        -83.87680905]
 [  0.3         28.79088839]
 [  0.4         -8.31834177]
 [  0.5        -89.41834338]
 [  0.6         26.9852541 ]
 [  0.7         33.61847072]
 [  0.8         46.07239873]
 [  0.9         28.18917884]
 [  1.         -44.50200932]
 [  1.09391667  47.37913403]]","[[0.         1.23191038]
 [0.1        1.45836537]
 [0.2        1.0531546 ]
 [0.3        0.44111738]
 [0.4        1.38984954]
 [0.5        0.9205918 ]
 [0.6        0.41991315]
 [0.7        1.33278744]
 [0.8        1.39586389]
 [0.9        1.14407521]
 [1.         1.34818546]
 [1.09391667 0.31125762]]",1,0.392
8731382169,f,20,english,5,4,english,2024-02-01 10:33:02.802936,False,1,38,sounds\english\audio/english_106.wav,"[[  0.          49.34223169]
 [  0.1        -45.57503338]
 [  0.2        -15.08492624]
 [  0.3        -19.8979669 ]
 [  0.4        -25.53796799]
 [  0.5         88.30993321]
 [  0.6        -64.76962788]
 [  0.7        -39.71315935]
 [  0.8         92.87896843]
 [  0.9        -52.99965121]
 [  1.          37.25809924]
 [  1.09391667  83.50306975]]","[[0.         0.13389709]
 [0.1        0.25174437]
 [0.2        0.82402432]
 [0.3        0.82208583]
 [0.4        1.38135822]
 [0.5        0.76093903]
 [0.6        0.57981415]
 [0.7        1.62636068]
 [0.8        1.17795772]
 [0.9        0.06230935]
 [1.         0.54036795]
 [1.09391667 1.72343759]]",1,0.917
8731382169,f,20,english,5,4,english,2024-02-01 10:33:02.802936,False,1,39,sounds\english\audio/english_756.wav,"[[  0.         -32.70542045]
 [  0.1         62.91454888]
 [  0.2         -9.17678833]
 [  0.3         16.28624283]
 [  0.4        -33.51792534]
 [  0.5         88.01648813]
 [  0.6         62.37064714]
 [  0.7        -52.3683359 ]
 [  0.8         56.37360277]
 [  0.9        -54.86484941]
 [  1.          91.23924333]
 [  1.09391667 -26.61223969]]","[[0.         0.92316539]
 [0.1        0.37547917]
 [0.2        1.92598223]
 [0.3        0.89010875]
 [0.4        0.38662098]
 [0.5        1.17672662]
 [0.6        0.21957896]
 [0.7        1.78953747]
 [0.8        1.89812903]
 [0.9        1.43873799]
 [1.         1.51351367]
 [1.09391667 1.73327561]]",1,2.006
8731382169,f,20,english,5,4,english,2024-02-01 10:33:02.802936,False,1,40,sounds\english\audio/english_427.wav,"[[  0.         -34.05157895]
 [  0.1         58.19153473]
 [  0.2        -48.12257975]
 [  0.3         49.89061623]
 [  0.4         34.36154687]
 [  0.5         -5.3172375 ]
 [  0.6         22.96924358]
 [  0.7        -97.31174849]
 [  0.8        -28.90224272]
 [  0.9        -26.24845885]
 [  1.          92.28378811]
 [  1.09391667 -48.38945182]]","[[0.         1.0004529 ]
 [0.1        1.21096565]
 [0.2        0.11590133]
 [0.3        1.91629618]
 [0.4        1.2268838 ]
 [0.5        1.50953507]
 [0.6        0.88661312]
 [0.7        0.11078335]
 [0.8        0.79636785]
 [0.9        0.27345116]
 [1.         0.14785478]
 [1.09391667 0.43629002]]",0,1.703
8731382169,f,20,english,5,4,english,2024-02-01 10:33:02.802936,False,1,41,sounds\english\audio/english_65.wav,"[[  0.         -44.08652709]
 [  0.1          3.68023197]
 [  0.2        -19.05866896]
 [  0.3         12.87316772]
 [  0.4        -96.16119339]
 [  0.5        -80.0946771 ]
 [  0.6         69.71447188]
 [  0.7         31.09176238]
 [  0.8          5.95151439]
 [  0.9        -95.02350092]
 [  1.          40.23975653]
 [  1.09391667  55.65657795]]","[[0.         1.3840041 ]
 [0.1        1.67820436]
 [0.2        1.58939797]
 [0.3        0.13316714]
 [0.4        0.86814229]
 [0.5        0.41459676]
 [0.6        1.482845  ]
 [0.7        0.500881  ]
 [0.8        1.54890047]
 [0.9        0.653854  ]
 [1.         1.48515765]
 [1.09391667 1.57918375]]",1,0.579
8731382169,f,20,english,5,4,english,2024-02-01 10:33:02.802936,False,1,42,sounds\english\audio/english_126.wav,"[[  0.          17.23277349]
 [  0.1        -82.02564831]
 [  0.2        -89.77449202]
 [  0.3        -51.19975639]
 [  0.4        -15.70542785]
 [  0.5        -86.49178279]
 [  0.6        -63.9993416 ]
 [  0.7         15.94919888]
 [  0.8         14.83212149]
 [  0.9         89.46410037]
 [  1.          -9.32479478]
 [  1.09391667  36.75071045]]","[[0.         0.07681875]
 [0.1        1.15308157]
 [0.2        0.24325653]
 [0.3        0.26308615]
 [0.4        1.15666053]
 [0.5        0.93452427]
 [0.6        1.80863716]
 [0.7        1.09862854]
 [0.8        1.20748097]
 [0.9        1.44558157]
 [1.         0.49090758]
 [1.09391667 0.88504815]]",0,1.026
8731382169,f,20,english,5,4,english,2024-02-01 10:33:02.802936,False,1,43,sounds\english\audio/english_655.wav,"[[  0.         -90.05217159]
 [  0.1        -51.53203878]
 [  0.2        -18.56413276]
 [  0.3        -32.31488117]
 [  0.4         49.43339315]
 [  0.5        -67.53322914]
 [  0.6         90.11454302]
 [  0.7         98.57977716]
 [  0.8         29.43352269]
 [  0.9         91.08820104]
 [  1.          -3.70059628]
 [  1.09391667  30.30784512]]","[[0.         1.15438405]
 [0.1        1.12188764]
 [0.2        0.95676367]
 [0.3        0.61420414]
 [0.4        0.76264188]
 [0.5        1.45400352]
 [0.6        0.06830652]
 [0.7        0.91955523]
 [0.8        0.33519017]
 [0.9        0.7797243 ]
 [1.         1.01878467]
 [1.09391667 1.55349389]]",1,0.338
8731382169,f,20,english,5,4,english,2024-02-01 10:33:02.802936,False,1,44,sounds\english\audio/english_858.wav,"[[  0.         -15.37505572]
 [  0.1         47.09921101]
 [  0.2        -76.0790668 ]
 [  0.3        -80.27517843]
 [  0.4        -25.73472899]
 [  0.5         -3.51621139]
 [  0.6        -42.58463449]
 [  0.7        -98.39604525]
 [  0.8         89.96106068]
 [  0.9         77.78135143]
 [  1.         -48.66962061]
 [  1.09391667 -42.55835381]]","[[0.         0.64393049]
 [0.1        1.19859165]
 [0.2        1.93258785]
 [0.3        0.51921333]
 [0.4        0.72976133]
 [0.5        1.3656743 ]
 [0.6        1.33625445]
 [0.7        1.13554824]
 [0.8        1.47590746]
 [0.9        1.4256977 ]
 [1.         0.99815363]
 [1.09391667 1.06699265]]",1,0.619
8731382169,f,20,english,5,4,english,2024-02-01 10:33:02.802936,False,1,45,sounds\english\audio/english_946.wav,"[[  0.          64.77326428]
 [  0.1         83.01050603]
 [  0.2        -18.1066925 ]
 [  0.3        -62.75831505]
 [  0.4          9.04734604]
 [  0.5        -25.58838755]
 [  0.6        -72.0222926 ]
 [  0.7        -19.61477429]
 [  0.8          1.83164611]
 [  0.9        -34.17634966]
 [  1.          30.56107889]
 [  1.09391667 -39.05107126]]","[[0.         1.10052187]
 [0.1        1.05470968]
 [0.2        0.88696068]
 [0.3        1.38728313]
 [0.4        0.6245758 ]
 [0.5        0.89042851]
 [0.6        1.00619957]
 [0.7        0.8429427 ]
 [0.8        0.85928866]
 [0.9        1.55488052]
 [1.         1.59418996]
 [1.09391667 1.69142345]]",0,1.754
8731382169,f,20,english,5,4,english,2024-02-01 10:33:02.802936,False,1,46,sounds\english\audio/english_858.wav,"[[  0.         -15.37505572]
 [  0.1         47.09921101]
 [  0.2        -76.0790668 ]
 [  0.3        -80.27517843]
 [  0.4        -25.73472899]
 [  0.5         -3.51621139]
 [  0.6        -42.58463449]
 [  0.7        -98.39604525]
 [  0.8         89.96106068]
 [  0.9         77.78135143]
 [  1.         -48.66962061]
 [  1.09391667 -42.55835381]]","[[0.         0.64393049]
 [0.1        1.19859165]
 [0.2        1.93258785]
 [0.3        0.51921333]
 [0.4        0.72976133]
 [0.5        1.3656743 ]
 [0.6        1.33625445]
 [0.7        1.13554824]
 [0.8        1.47590746]
 [0.9        1.4256977 ]
 [1.         0.99815363]
 [1.09391667 1.06699265]]",0,1.125
8731382169,f,20,english,5,4,english,2024-02-01 10:33:02.802936,False,1,47,sounds\english\audio/english_958.wav,"[[  0.          82.24324258]
 [  0.1         80.86962612]
 [  0.2        -72.80020936]
 [  0.3         76.49424807]
 [  0.4        -64.96103848]
 [  0.5        -28.48200693]
 [  0.6         36.24392724]
 [  0.7         61.50604074]
 [  0.8        -15.49344292]
 [  0.9         94.8143858 ]
 [  1.         -29.01167878]
 [  1.09391667  29.83149857]]","[[0.         1.82058144]
 [0.1        1.23603782]
 [0.2        0.454026  ]
 [0.3        0.0052754 ]
 [0.4        1.08282214]
 [0.5        1.85144542]
 [0.6        1.26196062]
 [0.7        1.03215922]
 [0.8        0.62598284]
 [0.9        0.44294081]
 [1.         0.91164636]
 [1.09391667 0.09783427]]",1,0.447
8731382169,f,20,english,5,4,english,2024-02-01 10:33:02.802936,False,1,48,sounds\english\audio/english_477.wav,"[[  0.          44.11369928]
 [  0.1        -49.72421876]
 [  0.2         37.81687243]
 [  0.3        -52.5290051 ]
 [  0.4         42.12087864]
 [  0.5         -3.66730799]
 [  0.6         34.46605835]
 [  0.7         92.87725089]
 [  0.8        -80.85076749]
 [  0.9         -9.36766275]
 [  1.          76.24737873]
 [  1.09391667 -13.80306297]]","[[0.         1.39445147]
 [0.1        1.98393148]
 [0.2        1.85807547]
 [0.3        0.71490172]
 [0.4        0.37809407]
 [0.5        0.12826759]
 [0.6        0.32776618]
 [0.7        0.64947081]
 [0.8        1.06355304]
 [0.9        1.32938803]
 [1.         1.22597552]
 [1.09391667 1.00606008]]",0,0.845
8731382169,f,20,english,5,4,english,2024-02-01 10:33:02.802936,False,1,49,sounds\english\audio/english_771.wav,"[[  0.         -36.50619676]
 [  0.1         14.7541205 ]
 [  0.2        -52.38540711]
 [  0.3        -44.85491202]
 [  0.4        -95.75173067]
 [  0.5         80.62781484]
 [  0.6         73.74351295]
 [  0.7        -36.03140148]
 [  0.8        -29.08842157]
 [  0.9         81.37771219]
 [  1.           2.32979024]
 [  1.09391667 -15.5068463 ]]","[[0.         0.84712365]
 [0.1        1.2125626 ]
 [0.2        1.26925878]
 [0.3        0.42277432]
 [0.4        1.76146367]
 [0.5        1.97802023]
 [0.6        1.00927999]
 [0.7        0.74378616]
 [0.8        1.61654752]
 [0.9        0.74494496]
 [1.         0.15244903]
 [1.09391667 0.47232317]]",1,0.429
8731382169,f,20,english,5,4,english,2024-02-01 10:33:02.802936,False,1,50,sounds\english\audio/english_542.wav,"[[  0.          77.25836123]
 [  0.1          4.96687677]
 [  0.2        -69.63893361]
 [  0.3         36.13476154]
 [  0.4         29.93419476]
 [  0.5        -71.22267205]
 [  0.6        -30.36103617]
 [  0.7        -14.05066862]
 [  0.8         21.39979207]
 [  0.9          0.74742826]
 [  1.          44.77375782]
 [  1.09391667 -66.5594785 ]]","[[0.         0.87207269]
 [0.1        0.90240888]
 [0.2        0.25644456]
 [0.3        0.86696527]
 [0.4        1.70387716]
 [0.5        1.80144796]
 [0.6        0.29401729]
 [0.7        1.14442321]
 [0.8        1.80586802]
 [0.9        1.77494895]
 [1.         0.36146727]
 [1.09391667 1.85294654]]",1,0.441
8731382169,f,20,english,5,4,english,2024-02-01 10:33:02.802936,False,1,51,sounds\english\audio/english_500.wav,"[[  0.          66.22088329]
 [  0.1         -5.13412803]
 [  0.2         -6.11874153]
 [  0.3        -90.40360626]
 [  0.4         32.06545372]
 [  0.5        -65.0306572 ]
 [  0.6         -6.23225895]
 [  0.7        -23.5823243 ]
 [  0.8         77.81337781]
 [  0.9        -20.41987669]
 [  1.          21.49612229]
 [  1.09391667   9.32174873]]","[[0.         0.53820699]
 [0.1        0.50417448]
 [0.2        1.24224985]
 [0.3        1.39300909]
 [0.4        1.26037646]
 [0.5        1.07818355]
 [0.6        1.23543803]
 [0.7        1.80782898]
 [0.8        0.94957733]
 [0.9        0.60641079]
 [1.         1.83181528]
 [1.09391667 0.67500242]]",0,0.484
8731382169,f,20,english,5,4,english,2024-02-01 10:33:02.802936,False,1,52,sounds\english\audio/english_929.wav,"[[  0.         -18.74393268]
 [  0.1         33.5098218 ]
 [  0.2        -29.94782209]
 [  0.3        -33.25977884]
 [  0.4         -9.01985938]
 [  0.5        -82.73987875]
 [  0.6         48.07587241]
 [  0.7        -43.15088987]
 [  0.8         82.92488977]
 [  0.9        -60.38444868]
 [  1.          27.71416794]
 [  1.09391667  21.92497573]]","[[0.         1.03205893]
 [0.1        1.56324899]
 [0.2        1.48903241]
 [0.3        0.12654912]
 [0.4        0.84484029]
 [0.5        0.94715121]
 [0.6        1.69154368]
 [0.7        0.81126675]
 [0.8        0.36905029]
 [0.9        0.50874334]
 [1.         0.95284967]
 [1.09391667 0.65099343]]",0,1.16
8731382169,f,20,english,5,4,english,2024-02-01 10:33:02.802936,False,1,53,sounds\english\audio/english_727.wav,"[[  0.         -18.41371041]
 [  0.1        -63.10285802]
 [  0.2        -11.47868373]
 [  0.3         40.37675275]
 [  0.4        -77.12859483]
 [  0.5         92.73705719]
 [  0.6        -55.99534641]
 [  0.7        -55.52546335]
 [  0.8          6.97078157]
 [  0.9        -23.82740681]
 [  1.          16.85010217]
 [  1.09391667  12.17774436]]","[[0.         1.35764892]
 [0.1        1.30171306]
 [0.2        1.89832966]
 [0.3        1.96157356]
 [0.4        0.9069281 ]
 [0.5        1.12095366]
 [0.6        1.00983545]
 [0.7        0.3683737 ]
 [0.8        1.10707799]
 [0.9        1.05563912]
 [1.         1.15538622]
 [1.09391667 0.52815825]]",0,0.575
8731382169,f,20,english,5,4,english,2024-02-01 10:33:02.802936,False,1,54,sounds\english\audio/english_912.wav,"[[  0.          83.45320293]
 [  0.1         47.1123547 ]
 [  0.2        -44.09395349]
 [  0.3         80.4089211 ]
 [  0.4        -65.95886508]
 [  0.5        -25.59965852]
 [  0.6         58.94865135]
 [  0.7        -95.38965028]
 [  0.8         10.68091992]
 [  0.9        -57.68744928]
 [  1.           5.39108627]
 [  1.09391667  37.38622487]]","[[0.         1.30725461]
 [0.1        0.36515134]
 [0.2        0.27834174]
 [0.3        1.38784543]
 [0.4        0.18344109]
 [0.5        0.42703515]
 [0.6        1.85819174]
 [0.7        1.3517083 ]
 [0.8        1.52712698]
 [0.9        1.44811226]
 [1.         1.0038839 ]
 [1.09391667 0.79645394]]",1,0.284
8731382169,f,20,english,5,4,english,2024-02-01 10:33:02.802936,False,1,55,sounds\english\audio/english_180.wav,"[[  0.          42.85478744]
 [  0.1         11.60642133]
 [  0.2        -27.38772625]
 [  0.3         80.41560742]
 [  0.4        -67.11843031]
 [  0.5         25.47679572]
 [  0.6         29.48556379]
 [  0.7        -62.53851543]
 [  0.8        -49.48041885]
 [  0.9         29.80835172]
 [  1.          83.85336689]
 [  1.09391667 -22.17498974]]","[[0.         0.49645543]
 [0.1        1.40377655]
 [0.2        0.70453688]
 [0.3        1.01697082]
 [0.4        0.59692665]
 [0.5        0.43242047]
 [0.6        0.65503898]
 [0.7        1.14916488]
 [0.8        0.12826618]
 [0.9        1.82068044]
 [1.         1.93281092]
 [1.09391667 1.38105191]]",0,0.3
8731382169,f,20,english,5,4,english,2024-02-01 10:33:02.802936,False,1,56,sounds\english\audio/english_798.wav,"[[  0.         -67.02841194]
 [  0.1        -61.53416047]
 [  0.2         58.59657868]
 [  0.3         29.19204806]
 [  0.4         23.45650743]
 [  0.5         68.99571545]
 [  0.6        -55.06633408]
 [  0.7        -84.88813755]
 [  0.8        -86.25019985]
 [  0.9         32.09324542]
 [  1.         -18.86097807]
 [  1.09391667  -0.34975855]]","[[0.         0.33593724]
 [0.1        1.45592665]
 [0.2        0.89843982]
 [0.3        0.82315135]
 [0.4        1.88697526]
 [0.5        0.96876146]
 [0.6        0.51998357]
 [0.7        0.83848957]
 [0.8        0.75519813]
 [0.9        0.08799146]
 [1.         1.1327065 ]
 [1.09391667 0.30601278]]",0,1.079
8731382169,f,20,english,5,4,english,2024-02-01 10:33:02.802936,False,1,57,sounds\english\audio/english_840.wav,"[[  0.          26.56026625]
 [  0.1        -45.76742425]
 [  0.2         58.26038182]
 [  0.3        -41.91368618]
 [  0.4         51.82879955]
 [  0.5        -58.1814991 ]
 [  0.6         -6.21480863]
 [  0.7        -38.35463557]
 [  0.8         62.53471627]
 [  0.9         -5.88618506]
 [  1.         -22.96620486]
 [  1.09391667  38.90401131]]","[[0.         0.58802825]
 [0.1        0.34012551]
 [0.2        1.59409568]
 [0.3        1.45145116]
 [0.4        1.12346348]
 [0.5        0.72614378]
 [0.6        0.0561304 ]
 [0.7        1.05027211]
 [0.8        0.63772174]
 [0.9        0.79180252]
 [1.         0.08952915]
 [1.09391667 0.46969462]]",1,0.565
8731382169,f,20,english,5,4,english,2024-02-01 10:33:02.802936,False,1,58,sounds\english\audio/english_143.wav,"[[  0.          49.57787404]
 [  0.1         18.07857637]
 [  0.2         -4.95603362]
 [  0.3         -9.7553448 ]
 [  0.4         61.69368854]
 [  0.5         50.12830069]
 [  0.6         61.18653055]
 [  0.7         14.45494157]
 [  0.8        -10.6333814 ]
 [  0.9        -91.12009128]
 [  1.         -92.0599703 ]
 [  1.09391667  65.42121395]]","[[0.         1.32411669]
 [0.1        1.28938823]
 [0.2        1.776944  ]
 [0.3        0.84910797]
 [0.4        1.3085087 ]
 [0.5        1.88982163]
 [0.6        1.48457271]
 [0.7        1.24491043]
 [0.8        0.24786477]
 [0.9        0.10794868]
 [1.         0.66722176]
 [1.09391667 1.367479  ]]",0,0.965
8731382169,f,20,english,5,4,english,2024-02-01 10:33:02.802936,False,1,59,sounds\english\audio/english_341.wav,"[[  0.          84.90072142]
 [  0.1        -41.07989328]
 [  0.2         26.53456805]
 [  0.3         48.49138907]
 [  0.4         86.79887094]
 [  0.5        -87.48501221]
 [  0.6         83.61398115]
 [  0.7        -67.9208707 ]
 [  0.8         65.07099719]
 [  0.9        -55.2468851 ]
 [  1.          49.35589772]
 [  1.09391667 -44.5684473 ]]","[[0.         0.12314254]
 [0.1        1.47173023]
 [0.2        0.93931176]
 [0.3        1.34001736]
 [0.4        1.64463799]
 [0.5        0.04293941]
 [0.6        1.19650865]
 [0.7        1.38443351]
 [0.8        0.78972481]
 [0.9        0.37997082]
 [1.         1.80858647]
 [1.09391667 0.47955849]]",0,2.464
8731382169,f,20,english,5,4,english,2024-02-01 10:33:02.802936,False,1,60,sounds\english\audio/english_576.wav,"[[  0.         -58.66306645]
 [  0.1        -48.85456955]
 [  0.2         29.24978703]
 [  0.3         -4.57987844]
 [  0.4         17.09511918]
 [  0.5        -36.28101864]
 [  0.6         16.68992844]
 [  0.7         41.08024696]
 [  0.8         84.11774755]
 [  0.9         37.20407844]
 [  1.          -6.74453613]
 [  1.09391667   8.90716527]]","[[0.         1.71561025]
 [0.1        1.69080607]
 [0.2        1.36521175]
 [0.3        0.87715483]
 [0.4        0.38991217]
 [0.5        0.94074697]
 [0.6        0.21735662]
 [0.7        0.2928344 ]
 [0.8        1.75349185]
 [0.9        0.5790335 ]
 [1.         0.77029309]
 [1.09391667 0.55391499]]",1,0.403
8731382169,f,20,english,5,4,english,2024-02-01 10:33:02.802936,False,1,61,sounds\english\audio/english_200.wav,"[[  0.         -48.93101302]
 [  0.1         29.34121658]
 [  0.2         23.36197279]
 [  0.3         -1.20403398]
 [  0.4        -47.67478064]
 [  0.5         18.83507041]
 [  0.6        -17.22460439]
 [  0.7         95.20697574]
 [  0.8         -6.20708562]
 [  0.9        -37.25970541]
 [  1.           4.5592837 ]
 [  1.09391667  86.68415923]]","[[0.         1.76712635]
 [0.1        1.41196845]
 [0.2        0.60842774]
 [0.3        1.94277316]
 [0.4        1.4476438 ]
 [0.5        1.13791246]
 [0.6        1.88825133]
 [0.7        1.08026942]
 [0.8        0.16695357]
 [0.9        0.7312143 ]
 [1.         0.56031965]
 [1.09391667 0.70419729]]",0,1.427
8731382169,f,20,english,5,4,english,2024-02-01 10:33:02.802936,False,1,62,sounds\english\audio/english_320.wav,"[[  0.          44.47796626]
 [  0.1         72.35684443]
 [  0.2        -17.68947707]
 [  0.3         70.79565504]
 [  0.4        -42.99608759]
 [  0.5         31.43453027]
 [  0.6        -18.00256732]
 [  0.7         43.1706274 ]
 [  0.8        -37.59278076]
 [  0.9          7.82795904]
 [  1.          39.02364152]
 [  1.09391667 -63.74950888]]","[[0.         1.16365892]
 [0.1        1.32074679]
 [0.2        0.98723075]
 [0.3        1.34736881]
 [0.4        1.9395238 ]
 [0.5        1.00857384]
 [0.6        0.72649141]
 [0.7        0.12011257]
 [0.8        0.44120338]
 [0.9        0.10933434]
 [1.         0.34432793]
 [1.09391667 1.78306962]]",0,0.573
8731382169,f,20,english,5,4,english,2024-02-01 10:33:02.802936,False,1,63,sounds\english\audio/english_745.wav,"[[  0.         -47.9537983 ]
 [  0.1         10.59664377]
 [  0.2          3.22121318]
 [  0.3         66.38489409]
 [  0.4        -85.62638025]
 [  0.5         53.0870989 ]
 [  0.6         37.88737288]
 [  0.7        -50.87104403]
 [  0.8        -30.17524051]
 [  0.9         42.29036925]
 [  1.           6.95263715]
 [  1.09391667  -3.81320325]]","[[0.         1.262874  ]
 [0.1        0.45595153]
 [0.2        1.90154411]
 [0.3        1.18935698]
 [0.4        0.53454894]
 [0.5        0.07115633]
 [0.6        0.91558947]
 [0.7        0.71993263]
 [0.8        0.93591694]
 [0.9        0.99723137]
 [1.         0.85978939]
 [1.09391667 0.69941736]]",0,0.94
8731382169,f,20,english,5,4,english,2024-02-01 10:33:02.802936,False,1,64,sounds\english\audio/english_256.wav,"[[  0.          19.13786367]
 [  0.1         78.7613355 ]
 [  0.2        -10.99930376]
 [  0.3         -4.24203719]
 [  0.4        -18.22969313]
 [  0.5         -1.97438764]
 [  0.6         58.65018523]
 [  0.7        -44.17944685]
 [  0.8        -19.76307931]
 [  0.9         51.42512852]
 [  1.          29.86121545]
 [  1.09391667  94.6134288 ]]","[[0.         0.71756401]
 [0.1        1.21129656]
 [0.2        0.86820307]
 [0.3        0.23513199]
 [0.4        1.96127331]
 [0.5        1.02094295]
 [0.6        0.44586948]
 [0.7        0.67070074]
 [0.8        0.92528927]
 [0.9        0.89913532]
 [1.         1.8576014 ]
 [1.09391667 1.03800996]]",1,0.54
8731382169,f,20,english,5,4,english,2024-02-01 10:33:02.802936,False,1,65,sounds\english\audio/english_961.wav,"[[  0.          81.83147696]
 [  0.1        -55.44397817]
 [  0.2         88.24181947]
 [  0.3        -15.15816006]
 [  0.4        -50.45638081]
 [  0.5         69.96256983]
 [  0.6        -17.06813057]
 [  0.7         73.47800457]
 [  0.8        -64.26564282]
 [  0.9         75.43502269]
 [  1.           4.4137361 ]
 [  1.09391667 -27.6807027 ]]","[[0.         1.4308336 ]
 [0.1        0.90947764]
 [0.2        0.90243859]
 [0.3        0.46936311]
 [0.4        1.55927191]
 [0.5        0.75129721]
 [0.6        1.46735594]
 [0.7        1.92767727]
 [0.8        0.4665746 ]
 [0.9        1.80828177]
 [1.         1.76060205]
 [1.09391667 1.95049148]]",0,0.95
8731382169,f,20,english,5,4,english,2024-02-01 10:33:02.802936,False,1,66,sounds\english\audio/english_998.wav,"[[  0.         -83.67346728]
 [  0.1        -68.43297462]
 [  0.2         47.84560439]
 [  0.3         71.43971258]
 [  0.4        -30.40941836]
 [  0.5         69.31214212]
 [  0.6        -95.04564508]
 [  0.7        -61.88405175]
 [  0.8         11.43915949]
 [  0.9         79.6365109 ]
 [  1.          58.29305302]
 [  1.09391667  44.0288717 ]]","[[0.         1.27391906]
 [0.1        0.75913393]
 [0.2        1.02363825]
 [0.3        1.78775676]
 [0.4        0.0961221 ]
 [0.5        1.18933693]
 [0.6        1.9379163 ]
 [0.7        1.91389769]
 [0.8        1.08895614]
 [0.9        1.52042952]
 [1.         0.38016323]
 [1.09391667 1.77799574]]",0,1.633
8731382169,f,20,english,5,4,english,2024-02-01 10:33:02.802936,False,1,67,sounds\english\audio/english_516.wav,"[[  0.          65.27468838]
 [  0.1         28.38678538]
 [  0.2        -16.29491298]
 [  0.3         29.01072094]
 [  0.4        -47.32267929]
 [  0.5        -47.60418852]
 [  0.6         19.91194594]
 [  0.7        -28.9289623 ]
 [  0.8          5.6204603 ]
 [  0.9         55.47321842]
 [  1.          12.03381774]
 [  1.09391667 -64.39892236]]","[[0.         0.72548384]
 [0.1        1.78002716]
 [0.2        1.52601333]
 [0.3        0.22704286]
 [0.4        1.00592853]
 [0.5        0.3740999 ]
 [0.6        1.89933748]
 [0.7        0.62297075]
 [0.8        1.26182982]
 [0.9        0.11401837]
 [1.         0.27832104]
 [1.09391667 1.09838576]]",1,0.646
8731382169,f,20,english,5,4,english,2024-02-01 10:33:02.802936,False,1,68,sounds\english\audio/english_241.wav,"[[  0.         -97.22432216]
 [  0.1        -28.14905208]
 [  0.2         47.39910383]
 [  0.3         62.74698337]
 [  0.4         42.69629452]
 [  0.5        -28.86057988]
 [  0.6         47.37469517]
 [  0.7         19.60148675]
 [  0.8         25.28127543]
 [  0.9        -90.65530928]
 [  1.          58.14244463]
 [  1.09391667  33.70088271]]","[[0.         1.35478851]
 [0.1        0.42795765]
 [0.2        0.77593108]
 [0.3        1.52084491]
 [0.4        1.0423858 ]
 [0.5        0.26192027]
 [0.6        1.65360196]
 [0.7        1.3989631 ]
 [0.8        0.94780347]
 [0.9        1.1797356 ]
 [1.         1.19530939]
 [1.09391667 0.5415955 ]]",0,0.419
8731382169,f,20,english,5,4,english,2024-02-01 10:33:02.802936,False,1,69,sounds\english\audio/english_908.wav,"[[  0.          79.90322555]
 [  0.1        -35.21263137]
 [  0.2        -45.3814443 ]
 [  0.3         27.76250809]
 [  0.4         88.9030614 ]
 [  0.5        -61.85553308]
 [  0.6        -81.1964681 ]
 [  0.7          5.34087676]
 [  0.8         54.78811936]
 [  0.9        -31.27071111]
 [  1.         -53.95963771]
 [  1.09391667  80.48331988]]","[[0.         1.59871196]
 [0.1        0.28479508]
 [0.2        1.09874794]
 [0.3        0.00174433]
 [0.4        0.67512833]
 [0.5        0.00194264]
 [0.6        0.8304753 ]
 [0.7        1.28348369]
 [0.8        0.55017108]
 [0.9        1.59638521]
 [1.         1.63592826]
 [1.09391667 1.14767612]]",0,4.955
8731382169,f,20,english,5,4,english,2024-02-01 10:33:02.802936,False,1,70,sounds\english\audio/english_175.wav,"[[  0.          38.44646754]
 [  0.1        -23.00340035]
 [  0.2        -30.61543139]
 [  0.3         99.83965835]
 [  0.4        -46.63956487]
 [  0.5        -59.37007197]
 [  0.6         82.40355982]
 [  0.7        -46.17826166]
 [  0.8          9.80730277]
 [  0.9         74.64832737]
 [  1.         -39.17791416]
 [  1.09391667 -90.85337976]]","[[0.         1.34207659]
 [0.1        1.41404042]
 [0.2        1.49080674]
 [0.3        0.72740359]
 [0.4        1.0197188 ]
 [0.5        0.62236458]
 [0.6        1.36261766]
 [0.7        0.8547614 ]
 [0.8        0.21399821]
 [0.9        1.05176786]
 [1.         0.6104539 ]
 [1.09391667 1.60893412]]",0,0.521
8731382169,f,20,english,5,4,english,2024-02-01 10:33:02.802936,False,1,71,sounds\english\audio/english_195.wav,"[[  0.         -84.31811629]
 [  0.1        -40.4937686 ]
 [  0.2         43.37920818]
 [  0.3         89.86748729]
 [  0.4         24.49320863]
 [  0.5        -46.40835892]
 [  0.6         35.9505397 ]
 [  0.7         62.43082011]
 [  0.8         85.56276985]
 [  0.9         52.49119502]
 [  1.         -55.346187  ]
 [  1.09391667 -71.70758722]]","[[0.         1.00245815]
 [0.1        0.37362225]
 [0.2        1.2771314 ]
 [0.3        0.32946516]
 [0.4        1.39441943]
 [0.5        1.30540336]
 [0.6        0.00236394]
 [0.7        1.39191992]
 [0.8        0.22399256]
 [0.9        0.98445346]
 [1.         1.43930771]
 [1.09391667 1.96006647]]",1,0.987
8731382169,f,20,english,5,4,english,2024-02-01 10:33:02.802936,False,1,72,sounds\english\audio/english_959.wav,"[[  0.         -72.11702721]
 [  0.1        -40.70802273]
 [  0.2         87.64553822]
 [  0.3        -48.2331893 ]
 [  0.4        -95.5440406 ]
 [  0.5         59.94111347]
 [  0.6         91.02979874]
 [  0.7         19.11555726]
 [  0.8         75.67996803]
 [  0.9         92.01217726]
 [  1.         -10.30028839]
 [  1.09391667 -99.09748483]]","[[0.         0.58402208]
 [0.1        1.62475599]
 [0.2        1.65188883]
 [0.3        0.55484279]
 [0.4        0.6061604 ]
 [0.5        1.49451004]
 [0.6        0.05914992]
 [0.7        1.4845686 ]
 [0.8        1.97323442]
 [0.9        0.84762709]
 [1.         0.74785562]
 [1.09391667 1.91422779]]",1,0.552
8731382169,f,20,english,5,4,english,2024-02-01 10:33:02.802936,False,1,73,sounds\english\audio/english_375.wav,"[[  0.         -66.54027977]
 [  0.1         72.08787066]
 [  0.2        -56.77584869]
 [  0.3        -36.97947012]
 [  0.4         43.73402827]
 [  0.5         19.53034116]
 [  0.6        -35.65016919]
 [  0.7         12.37356045]
 [  0.8        -24.97795402]
 [  0.9         57.77915604]
 [  1.         -30.716589  ]
 [  1.09391667  78.48935482]]","[[0.         1.30902013]
 [0.1        1.77420651]
 [0.2        1.24550761]
 [0.3        0.68148521]
 [0.4        1.5097978 ]
 [0.5        0.87895003]
 [0.6        0.57287352]
 [0.7        0.19847139]
 [0.8        1.57884859]
 [0.9        1.32641243]
 [1.         0.36090675]
 [1.09391667 1.90030926]]",1,0.414
8731382169,f,20,english,5,4,english,2024-02-01 10:33:02.802936,False,1,74,sounds\english\audio/english_398.wav,"[[  0.          58.43536872]
 [  0.1        -82.57908231]
 [  0.2         -3.40439415]
 [  0.3        -83.74176257]
 [  0.4         38.89596711]
 [  0.5         63.49142751]
 [  0.6         64.24765223]
 [  0.7         24.37031282]
 [  0.8         18.2651004 ]
 [  0.9         -3.768449  ]
 [  1.          55.48069175]
 [  1.09391667  -2.34176887]]","[[0.         0.19891774]
 [0.1        0.03529734]
 [0.2        1.69592316]
 [0.3        0.07086845]
 [0.4        0.77458748]
 [0.5        1.25980126]
 [0.6        1.54445807]
 [0.7        0.23015685]
 [0.8        0.80693823]
 [0.9        0.61010049]
 [1.         0.09811637]
 [1.09391667 1.22967895]]",0,1.14
8731382169,f,20,english,5,4,english,2024-02-01 10:33:02.802936,False,1,75,sounds\english\audio/english_388.wav,"[[  0.         -41.72152619]
 [  0.1         16.10845718]
 [  0.2         56.96293644]
 [  0.3        -95.24889342]
 [  0.4        -92.06058204]
 [  0.5        -66.79451415]
 [  0.6         31.29945158]
 [  0.7         52.76870029]
 [  0.8        -83.90415266]
 [  0.9         16.41554992]
 [  1.          44.20651848]
 [  1.09391667 -53.31309565]]","[[0.         1.04150919]
 [0.1        1.44420011]
 [0.2        1.65872581]
 [0.3        1.66380946]
 [0.4        1.25967223]
 [0.5        1.01005139]
 [0.6        0.59386887]
 [0.7        1.783647  ]
 [0.8        0.30560863]
 [0.9        0.09885056]
 [1.         0.45485887]
 [1.09391667 1.06517725]]",1,0.478
8731382169,f,20,english,5,4,english,2024-02-01 10:33:02.802936,False,1,76,sounds\english\audio/english_802.wav,"[[  0.          59.91511279]
 [  0.1         12.24886821]
 [  0.2         96.02397802]
 [  0.3         13.76175382]
 [  0.4         61.38770088]
 [  0.5        -27.16563277]
 [  0.6        -56.7121097 ]
 [  0.7         -6.03893496]
 [  0.8        -52.64183472]
 [  0.9         20.48360961]
 [  1.          63.06136933]
 [  1.09391667  47.93084829]]","[[0.         1.85367275]
 [0.1        1.18024621]
 [0.2        1.49834519]
 [0.3        0.18406028]
 [0.4        0.92630848]
 [0.5        0.54382734]
 [0.6        1.05559663]
 [0.7        0.71322875]
 [0.8        0.836902  ]
 [0.9        1.2036053 ]
 [1.         1.08845051]
 [1.09391667 1.71595045]]",0,1.01
8731382169,f,20,english,5,4,english,2024-02-01 10:33:02.802936,False,1,77,sounds\english\audio/english_517.wav,"[[  0.          66.65099922]
 [  0.1        -25.70388075]
 [  0.2        -22.37896652]
 [  0.3         -6.57908025]
 [  0.4         14.90197081]
 [  0.5         28.13310888]
 [  0.6         67.72161666]
 [  0.7        -79.77738636]
 [  0.8         -9.62789869]
 [  0.9        -43.36595112]
 [  1.         -65.22090713]
 [  1.09391667  93.99451349]]","[[0.         0.14059347]
 [0.1        0.04284068]
 [0.2        0.61477249]
 [0.3        0.586151  ]
 [0.4        0.82467301]
 [0.5        1.4846696 ]
 [0.6        1.87560286]
 [0.7        0.86888635]
 [0.8        0.65753642]
 [0.9        1.72637139]
 [1.         0.00479054]
 [1.09391667 1.63350936]]",1,0.479
8731382169,f,20,english,5,4,english,2024-02-01 10:33:02.802936,False,1,78,sounds\english\audio/english_332.wav,"[[  0.          53.78872747]
 [  0.1        -31.30231847]
 [  0.2        -95.20758858]
 [  0.3        -77.87616394]
 [  0.4          4.48979234]
 [  0.5        -76.42784497]
 [  0.6          6.07718634]
 [  0.7        -41.20247157]
 [  0.8        -17.3481238 ]
 [  0.9        -17.17913846]
 [  1.          18.70166714]
 [  1.09391667  50.68092334]]","[[0.         0.07590352]
 [0.1        0.7087577 ]
 [0.2        1.45218303]
 [0.3        0.80997209]
 [0.4        1.75678136]
 [0.5        1.99645024]
 [0.6        1.82588157]
 [0.7        0.2120908 ]
 [0.8        0.72760948]
 [0.9        0.31892552]
 [1.         0.40752537]
 [1.09391667 0.76645959]]",1,0.536
8731382169,f,20,english,5,4,english,2024-02-01 10:33:02.802936,False,1,79,sounds\english\audio/english_288.wav,"[[  0.         -10.61246008]
 [  0.1        -77.3112588 ]
 [  0.2         12.30562344]
 [  0.3        -36.70742639]
 [  0.4         41.04793924]
 [  0.5        -35.19832077]
 [  0.6        -67.76212828]
 [  0.7        -31.76962834]
 [  0.8         52.35478753]
 [  0.9        -75.48042215]
 [  1.          62.21198268]
 [  1.09391667 -19.37131538]]","[[0.         0.04412775]
 [0.1        0.21847975]
 [0.2        1.50294944]
 [0.3        1.12595953]
 [0.4        1.62688255]
 [0.5        1.25280317]
 [0.6        1.61760302]
 [0.7        1.08014254]
 [0.8        0.46218832]
 [0.9        1.57844793]
 [1.         0.42631449]
 [1.09391667 1.42176412]]",1,0.695
8731382169,f,20,english,5,4,english,2024-02-01 10:33:02.802936,False,1,80,sounds\english\audio/english_880.wav,"[[  0.         -41.47628357]
 [  0.1         65.54296858]
 [  0.2        -39.31347774]
 [  0.3         61.98950127]
 [  0.4         -3.60095554]
 [  0.5        -14.51452604]
 [  0.6         37.32728479]
 [  0.7        -80.65072298]
 [  0.8        -45.95652934]
 [  0.9         58.7720162 ]
 [  1.         -45.80137343]
 [  1.09391667 -30.61117418]]","[[0.         0.55394603]
 [0.1        0.9616183 ]
 [0.2        0.19888821]
 [0.3        0.57394663]
 [0.4        0.13686424]
 [0.5        1.28705149]
 [0.6        1.1695459 ]
 [0.7        0.87953448]
 [0.8        1.16448852]
 [0.9        1.15057409]
 [1.         0.15999969]
 [1.09391667 1.26319269]]",0,1.688
8731382169,f,20,english,5,4,english,2024-02-01 10:33:02.802936,False,1,81,sounds\english\audio/english_934.wav,"[[  0.         -11.34943225]
 [  0.1         65.85322301]
 [  0.2        -85.4605192 ]
 [  0.3         13.55265206]
 [  0.4          0.50969379]
 [  0.5         69.19486286]
 [  0.6        -98.42209139]
 [  0.7        -96.61496438]
 [  0.8        -65.00160108]
 [  0.9         48.73056023]
 [  1.          10.84569579]
 [  1.09391667  97.87119684]]","[[0.         0.24415631]
 [0.1        1.37961224]
 [0.2        1.63298201]
 [0.3        0.01798396]
 [0.4        0.66397169]
 [0.5        0.2241268 ]
 [0.6        1.8505399 ]
 [0.7        1.29472214]
 [0.8        0.83065813]
 [0.9        1.34944931]
 [1.         1.40216081]
 [1.09391667 1.98377201]]",1,0.494
8731382169,f,20,english,5,4,english,2024-02-01 10:33:02.802936,False,1,82,sounds\english\audio/english_676.wav,"[[  0.          77.23951032]
 [  0.1         27.47427545]
 [  0.2         92.07370265]
 [  0.3        -39.62602007]
 [  0.4        -81.22107243]
 [  0.5        -99.04707649]
 [  0.6        -64.5180536 ]
 [  0.7         91.29392748]
 [  0.8         97.8635705 ]
 [  0.9        -84.2423741 ]
 [  1.         -76.68596269]
 [  1.09391667  65.10857552]]","[[0.         1.33259474]
 [0.1        0.90028372]
 [0.2        1.66717955]
 [0.3        0.42158585]
 [0.4        1.7878255 ]
 [0.5        1.33780608]
 [0.6        0.94548991]
 [0.7        1.43207041]
 [0.8        1.03085722]
 [0.9        0.34895699]
 [1.         0.83720355]
 [1.09391667 1.31764415]]",1,1.271
8731382169,f,20,english,5,4,english,2024-02-01 10:33:02.802936,False,1,83,sounds\english\audio/english_77.wav,"[[  0.          14.85901356]
 [  0.1        -14.38598058]
 [  0.2        -43.69728494]
 [  0.3        -19.24854373]
 [  0.4          4.73942442]
 [  0.5          6.08734895]
 [  0.6          2.07981921]
 [  0.7         -3.22152689]
 [  0.8        -81.97912938]
 [  0.9          9.14807536]
 [  1.         -30.52937586]
 [  1.09391667  17.14336326]]","[[0.         0.93801636]
 [0.1        1.78480039]
 [0.2        1.59819809]
 [0.3        0.89560743]
 [0.4        0.68128783]
 [0.5        1.19225119]
 [0.6        1.49267812]
 [0.7        1.83354621]
 [0.8        0.65715704]
 [0.9        1.29592629]
 [1.         1.03409297]
 [1.09391667 1.45456337]]",1,0.65
8731382169,f,20,english,5,4,english,2024-02-01 10:33:02.802936,False,1,84,sounds\english\audio/english_567.wav,"[[  0.         -50.9933631 ]
 [  0.1         31.36220977]
 [  0.2         13.5680641 ]
 [  0.3        -18.75410864]
 [  0.4        -57.83772282]
 [  0.5         90.76203665]
 [  0.6        -98.97367079]
 [  0.7         53.61923561]
 [  0.8         -3.57099992]
 [  0.9         94.7090793 ]
 [  1.          93.07088687]
 [  1.09391667 -71.18485827]]","[[0.         1.16123569]
 [0.1        0.07564958]
 [0.2        0.67264934]
 [0.3        0.76417436]
 [0.4        0.9716426 ]
 [0.5        1.19685833]
 [0.6        0.6509574 ]
 [0.7        1.78514313]
 [0.8        1.44408837]
 [0.9        0.5179509 ]
 [1.         1.46519298]
 [1.09391667 0.55032839]]",0,1.679
8731382169,f,20,english,5,4,english,2024-02-01 10:33:02.802936,False,1,85,sounds\english\audio/english_90.wav,"[[  0.          63.54924995]
 [  0.1        -59.21327506]
 [  0.2         34.58495613]
 [  0.3          3.2427236 ]
 [  0.4          1.17936493]
 [  0.5         50.51297544]
 [  0.6         61.04656064]
 [  0.7        -96.36424089]
 [  0.8          9.94738881]
 [  0.9        -95.56108651]
 [  1.         -78.91453265]
 [  1.09391667  57.06664979]]","[[0.         1.34228215]
 [0.1        1.34732724]
 [0.2        1.75147993]
 [0.3        0.03089284]
 [0.4        1.52341973]
 [0.5        0.97925583]
 [0.6        1.17642538]
 [0.7        1.13367306]
 [0.8        1.45431282]
 [0.9        0.56738547]
 [1.         1.10123663]
 [1.09391667 0.76686745]]",1,1.272
8731382169,f,20,english,5,4,english,2024-02-01 10:33:02.802936,False,1,86,sounds\english\audio/english_127.wav,"[[  0.         -97.90087244]
 [  0.1        -36.95796642]
 [  0.2         33.65056974]
 [  0.3        -19.85406453]
 [  0.4        -42.6348027 ]
 [  0.5        -56.79071689]
 [  0.6         -5.36842737]
 [  0.7        -65.17730662]
 [  0.8         55.11157095]
 [  0.9         -6.91901103]
 [  1.          32.26051644]
 [  1.09391667  51.54181068]]","[[0.         0.58111051]
 [0.1        1.98466344]
 [0.2        0.66246338]
 [0.3        0.15661461]
 [0.4        1.74661521]
 [0.5        1.58365522]
 [0.6        0.14537305]
 [0.7        1.46904529]
 [0.8        1.23944377]
 [0.9        1.93001672]
 [1.         0.93435528]
 [1.09391667 1.6531459 ]]",0,0.885
8731382169,f,20,english,5,4,english,2024-02-01 10:33:02.802936,False,1,87,sounds\english\audio/english_369.wav,"[[  0.         -98.51702781]
 [  0.1        -77.74164505]
 [  0.2         13.86053007]
 [  0.3         94.45294859]
 [  0.4        -68.44131684]
 [  0.5        -11.02159052]
 [  0.6        -93.03562761]
 [  0.7         92.19991551]
 [  0.8         44.28946949]
 [  0.9        -36.54704406]
 [  1.          75.92915306]
 [  1.09391667  43.6375557 ]]","[[0.         1.05319591]
 [0.1        0.35563608]
 [0.2        0.74921535]
 [0.3        1.88151113]
 [0.4        1.38340448]
 [0.5        1.0971757 ]
 [0.6        0.74102815]
 [0.7        0.86578633]
 [0.8        0.42333119]
 [0.9        1.30148328]
 [1.         0.13274677]
 [1.09391667 0.3552412 ]]",0,0.586
8731382169,f,20,english,5,4,english,2024-02-01 10:33:02.802936,False,1,88,sounds\english\audio/english_68.wav,"[[  0.          26.58837816]
 [  0.1        -30.26201774]
 [  0.2        -90.31994669]
 [  0.3        -80.73820175]
 [  0.4        -81.40390329]
 [  0.5        -53.94630637]
 [  0.6         54.33124478]
 [  0.7        -19.04235486]
 [  0.8        -60.29150312]
 [  0.9        -10.04711988]
 [  1.          14.48015304]
 [  1.09391667 -61.29871008]]","[[0.         1.41652886]
 [0.1        1.6821225 ]
 [0.2        0.24298021]
 [0.3        0.67959509]
 [0.4        1.6191627 ]
 [0.5        0.53489657]
 [0.6        1.08896417]
 [0.7        1.94234514]
 [0.8        1.53460069]
 [0.9        1.76859618]
 [1.         0.93905077]
 [1.09391667 1.70593474]]",0,1.369
8731382169,f,20,english,5,4,english,2024-02-01 10:33:02.802936,False,1,89,sounds\english\audio/english_676.wav,"[[  0.          77.23951032]
 [  0.1         27.47427545]
 [  0.2         92.07370265]
 [  0.3        -39.62602007]
 [  0.4        -81.22107243]
 [  0.5        -99.04707649]
 [  0.6        -64.5180536 ]
 [  0.7         91.29392748]
 [  0.8         97.8635705 ]
 [  0.9        -84.2423741 ]
 [  1.         -76.68596269]
 [  1.09391667  65.10857552]]","[[0.         1.33259474]
 [0.1        0.90028372]
 [0.2        1.66717955]
 [0.3        0.42158585]
 [0.4        1.7878255 ]
 [0.5        1.33780608]
 [0.6        0.94548991]
 [0.7        1.43207041]
 [0.8        1.03085722]
 [0.9        0.34895699]
 [1.         0.83720355]
 [1.09391667 1.31764415]]",1,0.744
8731382169,f,20,english,5,4,english,2024-02-01 10:33:02.802936,False,1,90,sounds\english\audio/english_172.wav,"[[  0.         -67.89328127]
 [  0.1        -98.24711177]
 [  0.2         49.39394348]
 [  0.3         76.5993294 ]
 [  0.4        -22.3707882 ]
 [  0.5        -81.77647202]
 [  0.6         14.32482273]
 [  0.7        -55.4844165 ]
 [  0.8          3.0799131 ]
 [  0.9        -69.51196042]
 [  1.          75.4726198 ]
 [  1.09391667   0.51193247]]","[[0.         0.87390127]
 [0.1        0.45073311]
 [0.2        1.74616009]
 [0.3        0.92964788]
 [0.4        0.40511794]
 [0.5        1.07981793]
 [0.6        0.29673002]
 [0.7        1.5346781 ]
 [0.8        0.29263687]
 [0.9        0.8048794 ]
 [1.         0.86167059]
 [1.09391667 0.22289692]]",0,1.042
8731382169,f,20,english,5,4,english,2024-02-01 10:33:02.802936,False,1,91,sounds\english\audio/english_677.wav,"[[  0.          35.18766114]
 [  0.1          3.82449325]
 [  0.2        -81.73229082]
 [  0.3         -1.54015563]
 [  0.4        -45.59201538]
 [  0.5         26.20010581]
 [  0.6        -19.9162202 ]
 [  0.7         41.69291663]
 [  0.8        -68.08590586]
 [  0.9        -52.35020304]
 [  1.          55.76687311]
 [  1.09391667  26.15340501]]","[[0.         1.46418541]
 [0.1        0.62060775]
 [0.2        1.63148334]
 [0.3        0.52758496]
 [0.4        0.80943231]
 [0.5        1.10411223]
 [0.6        0.62014779]
 [0.7        0.65910672]
 [0.8        1.69273141]
 [0.9        1.22000106]
 [1.         0.67614262]
 [1.09391667 1.44243981]]",0,0.728
8731382169,f,20,english,5,4,english,2024-02-01 10:33:02.802936,False,1,92,sounds\english\audio/english_858.wav,"[[  0.         -15.37505572]
 [  0.1         47.09921101]
 [  0.2        -76.0790668 ]
 [  0.3        -80.27517843]
 [  0.4        -25.73472899]
 [  0.5         -3.51621139]
 [  0.6        -42.58463449]
 [  0.7        -98.39604525]
 [  0.8         89.96106068]
 [  0.9         77.78135143]
 [  1.         -48.66962061]
 [  1.09391667 -42.55835381]]","[[0.         0.64393049]
 [0.1        1.19859165]
 [0.2        1.93258785]
 [0.3        0.51921333]
 [0.4        0.72976133]
 [0.5        1.3656743 ]
 [0.6        1.33625445]
 [0.7        1.13554824]
 [0.8        1.47590746]
 [0.9        1.4256977 ]
 [1.         0.99815363]
 [1.09391667 1.06699265]]",0,1.307
8731382169,f,20,english,5,4,english,2024-02-01 10:33:02.802936,False,1,93,sounds\english\audio/english_782.wav,"[[  0.         -78.57843069]
 [  0.1         18.46693427]
 [  0.2         97.99884289]
 [  0.3         62.25752433]
 [  0.4         52.39970151]
 [  0.5        -14.50018957]
 [  0.6        -27.56562213]
 [  0.7         45.71631019]
 [  0.8        -34.89121843]
 [  0.9         23.54778787]
 [  1.         -69.46242817]
 [  1.09391667  95.32757353]]","[[0.         1.03549732]
 [0.1        1.37171195]
 [0.2        0.49308363]
 [0.3        1.45239523]
 [0.4        1.75992902]
 [0.5        1.61112401]
 [0.6        0.55174203]
 [0.7        1.83852108]
 [0.8        1.53242335]
 [0.9        0.19128353]
 [1.         0.08422805]
 [1.09391667 0.55022533]]",1,0.401
8731382169,f,20,english,5,4,english,2024-02-01 10:33:02.802936,False,1,94,sounds\english\audio/english_545.wav,"[[  0.         -99.01008517]
 [  0.1         65.47335851]
 [  0.2        -84.28840174]
 [  0.3        -53.2257253 ]
 [  0.4        -67.85056043]
 [  0.5        -22.57245088]
 [  0.6         -0.78864791]
 [  0.7         17.40611159]
 [  0.8         62.9168566 ]
 [  0.9         32.36790846]
 [  1.         -91.70599266]
 [  1.09391667  50.31108328]]","[[0.         0.51580829]
 [0.1        0.53489733]
 [0.2        1.28091178]
 [0.3        1.83272888]
 [0.4        0.88291171]
 [0.5        0.35382027]
 [0.6        1.57508052]
 [0.7        0.29019895]
 [0.8        1.37661243]
 [0.9        0.94083914]
 [1.         1.54827837]
 [1.09391667 0.28023548]]",0,0.804
8731382169,f,20,english,5,4,english,2024-02-01 10:33:02.802936,False,1,95,sounds\english\audio/english_515.wav,"[[  0.         -58.23176372]
 [  0.1        -76.45173976]
 [  0.2         25.49902523]
 [  0.3          5.27103545]
 [  0.4        -41.64983344]
 [  0.5        -51.29888172]
 [  0.6         65.36966432]
 [  0.7        -56.17839976]
 [  0.8        -12.23547481]
 [  0.9        -89.1418522 ]
 [  1.           8.96872742]
 [  1.09391667 -18.30503433]]","[[0.         1.22843541]
 [0.1        1.63015901]
 [0.2        1.20813881]
 [0.3        0.47612476]
 [0.4        0.26545174]
 [0.5        1.8557412 ]
 [0.6        0.81547092]
 [0.7        1.63185656]
 [0.8        0.09263004]
 [0.9        1.76127396]
 [1.         0.57224671]
 [1.09391667 1.26155121]]",0,0.684
8731382169,f,20,english,5,4,english,2024-02-01 10:33:02.802936,False,1,96,sounds\english\audio/english_713.wav,"[[  0.         -93.47933458]
 [  0.1         17.56811932]
 [  0.2         35.67998285]
 [  0.3         22.32245501]
 [  0.4        -55.00810372]
 [  0.5        -25.94753581]
 [  0.6         12.36521929]
 [  0.7         42.68303221]
 [  0.8         68.77442649]
 [  0.9        -39.13144034]
 [  1.          48.51746803]
 [  1.09391667 -19.71329918]]","[[0.         1.62613831]
 [0.1        0.15624323]
 [0.2        1.16642221]
 [0.3        1.85687669]
 [0.4        0.77296433]
 [0.5        0.17905086]
 [0.6        0.48201302]
 [0.7        0.74996995]
 [0.8        1.90885108]
 [0.9        0.17419233]
 [1.         1.84801942]
 [1.09391667 0.87144157]]",1,0.459
8731382169,f,20,english,5,4,english,2024-02-01 10:33:02.802936,False,1,97,sounds\english\audio/english_452.wav,"[[  0.         -16.61864147]
 [  0.1        -22.13078498]
 [  0.2        -16.24569285]
 [  0.3          2.20276296]
 [  0.4         38.28427002]
 [  0.5        -18.79047659]
 [  0.6         78.89075327]
 [  0.7         92.92821396]
 [  0.8         97.94945302]
 [  0.9         87.69669084]
 [  1.          59.46975303]
 [  1.09391667  33.32060313]]","[[0.         1.17401117]
 [0.1        0.56539659]
 [0.2        0.39679082]
 [0.3        1.32249954]
 [0.4        1.17645405]
 [0.5        1.63330715]
 [0.6        1.91411401]
 [0.7        1.71360753]
 [0.8        1.56668356]
 [0.9        1.33916848]
 [1.         0.94959461]
 [1.09391667 0.70317006]]",1,1.169
8731382169,f,20,english,5,4,english,2024-02-01 10:33:02.802936,False,1,98,sounds\english\audio/english_939.wav,"[[  0.         -33.98482441]
 [  0.1        -89.17430955]
 [  0.2        -37.97345474]
 [  0.3         79.55409604]
 [  0.4         80.35845891]
 [  0.5         57.74967943]
 [  0.6         95.331824  ]
 [  0.7        -67.43467621]
 [  0.8         77.22109969]
 [  0.9        -97.02318178]
 [  1.         -34.43908678]
 [  1.09391667  23.56960938]]","[[0.         0.57866671]
 [0.1        0.900261  ]
 [0.2        1.71108651]
 [0.3        0.87209051]
 [0.4        1.24315258]
 [0.5        1.96157144]
 [0.6        0.09903489]
 [0.7        1.02492766]
 [0.8        0.39705746]
 [0.9        0.35581275]
 [1.         0.10216324]
 [1.09391667 1.85713461]]",0,0.706
8731382169,f,20,english,5,4,english,2024-02-01 10:33:02.802936,False,1,99,sounds\english\audio/english_743.wav,"[[  0.          97.77122609]
 [  0.1         75.39760322]
 [  0.2        -92.56300928]
 [  0.3         73.60734954]
 [  0.4         84.82420222]
 [  0.5        -57.35733587]
 [  0.6         36.05799571]
 [  0.7        -80.10781894]
 [  0.8         79.81818761]
 [  0.9         71.53815245]
 [  1.          39.3075371 ]
 [  1.09391667  85.61049635]]","[[0.         0.40936323]
 [0.1        0.83333714]
 [0.2        1.9299588 ]
 [0.3        0.31044819]
 [0.4        1.11112706]
 [0.5        0.30641345]
 [0.6        1.79191215]
 [0.7        1.43353199]
 [0.8        0.61341243]
 [0.9        1.6920607 ]
 [1.         0.85862509]
 [1.09391667 0.78833379]]",0,0.77
8731382169,f,20,english,5,4,english,2024-02-01 10:33:02.802936,False,1,100,sounds\english\audio/english_378.wav,"[[  0.          -6.75592408]
 [  0.1        -33.28558439]
 [  0.2        -96.71642688]
 [  0.3         70.45646645]
 [  0.4         20.01443052]
 [  0.5        -69.62604827]
 [  0.6        -82.6103386 ]
 [  0.7        -53.90394432]
 [  0.8         75.60526061]
 [  0.9        -65.71007404]
 [  1.         -82.95728524]
 [  1.09391667  40.19708488]]","[[0.         1.57446733]
 [0.1        0.29285803]
 [0.2        0.09494473]
 [0.3        0.09114875]
 [0.4        0.12099564]
 [0.5        0.06996617]
 [0.6        0.89001983]
 [0.7        1.80047075]
 [0.8        1.92282567]
 [0.9        0.07000512]
 [1.         0.51793223]
 [1.09391667 1.33854892]]",0,1.579
8731382169,f,20,english,5,4,english,2024-02-01 10:33:02.802936,False,1,101,sounds\english\audio/english_626.wav,"[[  0.          -0.56370029]
 [  0.1        -99.91896683]
 [  0.2         71.91666298]
 [  0.3          5.93440056]
 [  0.4         30.6659702 ]
 [  0.5         50.2345252 ]
 [  0.6         26.80081253]
 [  0.7         57.01154581]
 [  0.8        -79.56021694]
 [  0.9         19.7734095 ]
 [  1.          24.01737707]
 [  1.09391667 -71.48633622]]","[[0.         1.601019  ]
 [0.1        1.02479774]
 [0.2        1.56428022]
 [0.3        1.41456241]
 [0.4        1.90457562]
 [0.5        1.04545234]
 [0.6        1.05575336]
 [0.7        1.40636518]
 [0.8        1.56161819]
 [0.9        0.61190755]
 [1.         0.77515613]
 [1.09391667 1.93548934]]",1,0.285
8731382169,f,20,english,5,4,english,2024-02-01 10:33:02.802936,False,1,102,sounds\english\audio/english_668.wav,"[[  0.          24.30500843]
 [  0.1         57.57377678]
 [  0.2        -95.42785245]
 [  0.3        -42.97336145]
 [  0.4        -27.66393175]
 [  0.5         77.20765179]
 [  0.6         83.13326456]
 [  0.7        -32.13348901]
 [  0.8         68.31202494]
 [  0.9         19.90764766]
 [  1.          67.85742397]
 [  1.09391667  89.08528759]]","[[0.         1.5693483 ]
 [0.1        1.68368473]
 [0.2        0.73781789]
 [0.3        0.35418693]
 [0.4        0.0078487 ]
 [0.5        1.54548252]
 [0.6        1.19620748]
 [0.7        1.89254879]
 [0.8        0.72669061]
 [0.9        1.22099256]
 [1.         1.73789428]
 [1.09391667 1.66641406]]",0,0.396
8731382169,f,20,english,5,4,english,2024-02-01 10:33:02.802936,False,1,103,sounds\english\audio/english_679.wav,"[[  0.          76.35427363]
 [  0.1        -50.0846889 ]
 [  0.2         79.70250944]
 [  0.3         81.01080403]
 [  0.4         83.79560208]
 [  0.5         50.36804925]
 [  0.6         40.56025904]
 [  0.7         61.04999163]
 [  0.8         30.26013895]
 [  0.9         -2.00132525]
 [  1.          61.28738914]
 [  1.09391667 -32.08611222]]","[[0.         0.61802324]
 [0.1        0.37453971]
 [0.2        0.85876035]
 [0.3        1.8566793 ]
 [0.4        1.28706844]
 [0.5        1.04354471]
 [0.6        1.21986253]
 [0.7        0.6187735 ]
 [0.8        1.74062644]
 [0.9        0.86694999]
 [1.         1.26165824]
 [1.09391667 0.66731925]]",1,0.266
8731382169,f,20,english,5,4,english,2024-02-01 10:33:02.802936,False,1,104,sounds\english\audio/english_512.wav,"[[  0.         -23.56559233]
 [  0.1         44.15406219]
 [  0.2         90.2297784 ]
 [  0.3         31.62400251]
 [  0.4        -71.52797272]
 [  0.5        -17.92560707]
 [  0.6         78.14138422]
 [  0.7         -0.55474778]
 [  0.8         -0.96763975]
 [  0.9         18.83454105]
 [  1.           3.09463475]
 [  1.09391667  65.7955852 ]]","[[0.         0.34737706]
 [0.1        1.80415703]
 [0.2        1.77401658]
 [0.3        0.80962243]
 [0.4        0.21525837]
 [0.5        0.09930304]
 [0.6        0.93763429]
 [0.7        0.07747984]
 [0.8        1.28799801]
 [0.9        0.32721238]
 [1.         0.68607536]
 [1.09391667 1.62840549]]",0,1.662
8731382169,f,20,english,5,4,english,2024-02-01 10:33:02.802936,False,1,105,sounds\english\audio/english_83.wav,"[[  0.         -13.2041621 ]
 [  0.1         72.11694132]
 [  0.2         72.29533823]
 [  0.3         27.12463377]
 [  0.4         -0.51668001]
 [  0.5         95.33803701]
 [  0.6         29.01440832]
 [  0.7         95.49757562]
 [  0.8         73.0572007 ]
 [  0.9        -51.56555772]
 [  1.          75.9566984 ]
 [  1.09391667 -25.09105013]]","[[0.         1.43008508]
 [0.1        0.66721453]
 [0.2        0.92720226]
 [0.3        1.5008618 ]
 [0.4        0.92612905]
 [0.5        1.15889455]
 [0.6        1.69874537]
 [0.7        1.82400366]
 [0.8        0.49276816]
 [0.9        1.24642372]
 [1.         1.81994123]
 [1.09391667 1.274738  ]]",0,1.462
8731382169,f,20,english,5,4,english,2024-02-01 10:33:02.802936,False,1,106,sounds\english\audio/english_579.wav,"[[  0.          -6.35392527]
 [  0.1          5.78092652]
 [  0.2         55.74149698]
 [  0.3         64.66054606]
 [  0.4        -20.37343055]
 [  0.5         97.55604333]
 [  0.6         -7.40313463]
 [  0.7         -9.7199121 ]
 [  0.8        -43.88557754]
 [  0.9         89.28129007]
 [  1.          21.49927336]
 [  1.09391667  85.53999973]]","[[0.         1.17195822]
 [0.1        1.67817047]
 [0.2        0.96512057]
 [0.3        0.73760998]
 [0.4        0.24043414]
 [0.5        0.0297902 ]
 [0.6        0.83835869]
 [0.7        0.36547932]
 [0.8        1.0786992 ]
 [0.9        1.76340712]
 [1.         0.94339598]
 [1.09391667 1.1220246 ]]",1,0.704
8731382169,f,20,english,5,4,english,2024-02-01 10:33:02.802936,False,1,107,sounds\english\audio/english_704.wav,"[[  0.         -66.86347245]
 [  0.1        -33.45070856]
 [  0.2         98.95748792]
 [  0.3         40.39124026]
 [  0.4         76.62361043]
 [  0.5         61.00109246]
 [  0.6         24.61875858]
 [  0.7         32.51289689]
 [  0.8         93.51972076]
 [  0.9         43.30633586]
 [  1.           5.62352462]
 [  1.09391667  87.81172513]]","[[0.         1.10852805]
 [0.1        1.50534643]
 [0.2        1.36402955]
 [0.3        1.09402875]
 [0.4        0.97410313]
 [0.5        1.19276443]
 [0.6        0.71178311]
 [0.7        1.62027576]
 [0.8        1.01576623]
 [0.9        0.07371268]
 [1.         0.93560494]
 [1.09391667 0.13780059]]",1,0.927
8731382169,f,20,english,5,4,english,2024-02-01 10:33:02.802936,False,1,108,sounds\english\audio/english_282.wav,"[[  0.          79.51809952]
 [  0.1         55.92109115]
 [  0.2         36.01060515]
 [  0.3          4.60281664]
 [  0.4         35.69966579]
 [  0.5        -79.87721836]
 [  0.6         -3.98252218]
 [  0.7        -78.10052274]
 [  0.8         69.1474283 ]
 [  0.9         58.09261901]
 [  1.          94.50826365]
 [  1.09391667  71.90418642]]","[[0.         1.2792911 ]
 [0.1        0.93344042]
 [0.2        1.94968889]
 [0.3        1.12428424]
 [0.4        0.7610034 ]
 [0.5        0.66186596]
 [0.6        0.57211865]
 [0.7        0.40544896]
 [0.8        0.68156422]
 [0.9        0.87028019]
 [1.         1.91563213]
 [1.09391667 1.01931827]]",0,0.324
8731382169,f,20,english,5,4,english,2024-02-01 10:33:02.802936,False,1,109,sounds\english\audio/english_312.wav,"[[  0.         -44.20026349]
 [  0.1         37.14552062]
 [  0.2         18.3582365 ]
 [  0.3         77.7774411 ]
 [  0.4        -78.31932482]
 [  0.5        -58.95150344]
 [  0.6         89.34504931]
 [  0.7         88.15541314]
 [  0.8         -8.94977512]
 [  0.9        -51.17539316]
 [  1.         -56.97812864]
 [  1.09391667  78.26932654]]","[[0.         0.70172327]
 [0.1        1.15664492]
 [0.2        0.90621855]
 [0.3        1.08976836]
 [0.4        1.02467386]
 [0.5        0.3820111 ]
 [0.6        1.09647863]
 [0.7        1.49721146]
 [0.8        1.78917626]
 [0.9        0.56099976]
 [1.         1.16855683]
 [1.09391667 0.99548906]]",1,0.493
8731382169,f,20,english,5,4,english,2024-02-01 10:33:02.802936,False,1,110,sounds\english\audio/english_783.wav,"[[  0.         -86.56228458]
 [  0.1         33.36869343]
 [  0.2          9.6331017 ]
 [  0.3         -0.10370099]
 [  0.4         37.9043983 ]
 [  0.5          3.6685029 ]
 [  0.6         70.42333637]
 [  0.7        -15.16907184]
 [  0.8         55.24698517]
 [  0.9          2.94553427]
 [  1.         -22.42195587]
 [  1.09391667  45.66016172]]","[[0.         1.19165513]
 [0.1        0.83777852]
 [0.2        0.11846308]
 [0.3        1.66137382]
 [0.4        0.58882923]
 [0.5        0.46184707]
 [0.6        1.82009688]
 [0.7        1.46902062]
 [0.8        1.68658026]
 [0.9        1.05395717]
 [1.         1.93905679]
 [1.09391667 0.09684568]]",1,1.09
8731382169,f,20,english,5,4,english,2024-02-01 10:33:02.802936,False,1,111,sounds\english\audio/english_738.wav,"[[  0.          40.29848329]
 [  0.1         66.12105636]
 [  0.2        -12.57692477]
 [  0.3        -81.4028628 ]
 [  0.4         83.16146046]
 [  0.5         59.80662428]
 [  0.6         40.28369402]
 [  0.7         70.16502192]
 [  0.8         33.24952129]
 [  0.9        -77.78198323]
 [  1.           6.29614131]
 [  1.09391667  60.18727711]]","[[0.         1.14824707]
 [0.1        1.60387601]
 [0.2        1.084542  ]
 [0.3        1.81856642]
 [0.4        1.62922567]
 [0.5        0.86427283]
 [0.6        0.1736944 ]
 [0.7        0.66918612]
 [0.8        1.29313609]
 [0.9        0.37962966]
 [1.         0.80178577]
 [1.09391667 0.93492505]]",1,0.45
8731382169,f,20,english,5,4,english,2024-02-01 10:33:02.802936,False,1,112,sounds\english\audio/english_533.wav,"[[  0.          82.3150146 ]
 [  0.1        -62.65263441]
 [  0.2         35.24658043]
 [  0.3        -92.25963636]
 [  0.4         55.18355153]
 [  0.5         42.19734794]
 [  0.6         26.84517853]
 [  0.7        -96.44791366]
 [  0.8        -32.52364266]
 [  0.9         72.77745032]
 [  1.          -8.5096212 ]
 [  1.09391667  -5.91345178]]","[[0.         1.74351328]
 [0.1        1.01143167]
 [0.2        1.89837562]
 [0.3        0.63714559]
 [0.4        1.6894321 ]
 [0.5        0.54282928]
 [0.6        1.89183876]
 [0.7        0.53977312]
 [0.8        1.51379003]
 [0.9        1.26846018]
 [1.         0.77810192]
 [1.09391667 1.56024291]]",0,1.107
8731382169,f,20,english,5,4,english,2024-02-01 10:33:02.802936,False,1,113,sounds\english\audio/english_542.wav,"[[  0.          77.25836123]
 [  0.1          4.96687677]
 [  0.2        -69.63893361]
 [  0.3         36.13476154]
 [  0.4         29.93419476]
 [  0.5        -71.22267205]
 [  0.6        -30.36103617]
 [  0.7        -14.05066862]
 [  0.8         21.39979207]
 [  0.9          0.74742826]
 [  1.          44.77375782]
 [  1.09391667 -66.5594785 ]]","[[0.         0.87207269]
 [0.1        0.90240888]
 [0.2        0.25644456]
 [0.3        0.86696527]
 [0.4        1.70387716]
 [0.5        1.80144796]
 [0.6        0.29401729]
 [0.7        1.14442321]
 [0.8        1.80586802]
 [0.9        1.77494895]
 [1.         0.36146727]
 [1.09391667 1.85294654]]",0,0.606
8731382169,f,20,english,5,4,english,2024-02-01 10:33:02.802936,False,1,114,sounds\english\audio/english_55.wav,"[[  0.          55.67307479]
 [  0.1        -68.77763233]
 [  0.2        -65.56479824]
 [  0.3        -28.17507295]
 [  0.4         12.71546493]
 [  0.5         79.84163838]
 [  0.6        -44.12045936]
 [  0.7        -80.03895773]
 [  0.8         89.560279  ]
 [  0.9        -86.43761931]
 [  1.          26.43928763]
 [  1.09391667  35.34186428]]","[[0.         0.52782995]
 [0.1        1.04888997]
 [0.2        1.48348863]
 [0.3        0.48831434]
 [0.4        0.57381204]
 [0.5        0.45321787]
 [0.6        1.63628375]
 [0.7        1.60012046]
 [0.8        1.77258714]
 [0.9        0.52302607]
 [1.         1.59376443]
 [1.09391667 1.33420322]]",1,1.646
8731382169,f,20,english,5,4,english,2024-02-01 10:33:02.802936,False,1,115,sounds\english\audio/english_990.wav,"[[  0.         -41.91954114]
 [  0.1        -81.73689018]
 [  0.2         -8.6439495 ]
 [  0.3        -35.79468829]
 [  0.4        -15.71846635]
 [  0.5         30.29696997]
 [  0.6         58.5778321 ]
 [  0.7        -55.43771635]
 [  0.8         -4.04287403]
 [  0.9         96.7741085 ]
 [  1.          73.27929718]
 [  1.09391667 -50.83652549]]","[[0.         1.07016473]
 [0.1        0.80416299]
 [0.2        1.27361164]
 [0.3        0.8357561 ]
 [0.4        0.68387575]
 [0.5        0.51659091]
 [0.6        0.86090319]
 [0.7        1.86495605]
 [0.8        0.50523281]
 [0.9        0.60576665]
 [1.         1.38942897]
 [1.09391667 0.62697308]]",1,0.273
8731382169,f,20,english,5,4,english,2024-02-01 10:33:02.802936,False,1,116,sounds\english\audio/english_236.wav,"[[  0.         -58.47147348]
 [  0.1         25.25879028]
 [  0.2        -78.78616324]
 [  0.3         11.29938963]
 [  0.4         39.53352696]
 [  0.5         91.57483284]
 [  0.6         22.72019707]
 [  0.7         30.21012118]
 [  0.8        -41.20304871]
 [  0.9         28.6164571 ]
 [  1.          36.23029146]
 [  1.09391667 -21.60177346]]","[[0.         1.25570844]
 [0.1        1.3068123 ]
 [0.2        1.48831799]
 [0.3        0.34919936]
 [0.4        1.00725943]
 [0.5        1.25472599]
 [0.6        1.46652556]
 [0.7        0.98566412]
 [0.8        1.93402839]
 [0.9        1.61503367]
 [1.         0.92571768]
 [1.09391667 1.50534637]]",1,0.137
8731382169,f,20,english,5,4,english,2024-02-01 10:33:02.802936,False,1,117,sounds\english\audio/english_607.wav,"[[  0.           0.27599318]
 [  0.1         61.54655284]
 [  0.2        -45.68438061]
 [  0.3        -56.50831868]
 [  0.4         15.2577286 ]
 [  0.5        -52.12017374]
 [  0.6         97.83272545]
 [  0.7          7.21834566]
 [  0.8          8.71902974]
 [  0.9         84.51998902]
 [  1.         -21.50673836]
 [  1.09391667  68.90809966]]","[[0.         1.85195662]
 [0.1        0.01211705]
 [0.2        1.01527113]
 [0.3        0.58104245]
 [0.4        0.36467608]
 [0.5        0.76758339]
 [0.6        1.21313057]
 [0.7        1.69539972]
 [0.8        0.38171646]
 [0.9        1.4848349 ]
 [1.         0.84163241]
 [1.09391667 0.34247873]]",1,1.898
8731382169,f,20,english,5,4,english,2024-02-01 10:33:02.802936,False,1,118,sounds\english\audio/english_896.wav,"[[  0.          15.15197213]
 [  0.1         12.09834356]
 [  0.2        -98.90945178]
 [  0.3         -7.24132806]
 [  0.4        -22.04912785]
 [  0.5         53.27175302]
 [  0.6         18.92228417]
 [  0.7         65.4652164 ]
 [  0.8         51.91420072]
 [  0.9         20.23549525]
 [  1.         -86.64191921]
 [  1.09391667 -62.9037571 ]]","[[0.         1.10343193]
 [0.1        1.24784569]
 [0.2        0.69536812]
 [0.3        1.50082123]
 [0.4        1.78962455]
 [0.5        0.59868421]
 [0.6        1.36027969]
 [0.7        1.44726147]
 [0.8        1.08983894]
 [0.9        0.07451316]
 [1.         0.79077881]
 [1.09391667 1.64262615]]",1,1.266
8731382169,f,20,english,5,4,english,2024-02-01 10:33:02.802936,False,1,119,sounds\english\audio/english_508.wav,"[[  0.          29.95487344]
 [  0.1        -43.56994085]
 [  0.2         95.99440846]
 [  0.3         96.63128694]
 [  0.4         81.88240965]
 [  0.5        -30.32405698]
 [  0.6        -70.6760635 ]
 [  0.7        -36.19238407]
 [  0.8         18.2315003 ]
 [  0.9        -71.56865734]
 [  1.         -72.78274833]
 [  1.09391667  51.72471755]]","[[0.         1.28947786]
 [0.1        0.45872669]
 [0.2        1.02864136]
 [0.3        1.38697031]
 [0.4        0.48619633]
 [0.5        1.35316712]
 [0.6        0.61818132]
 [0.7        0.31535759]
 [0.8        1.60240226]
 [0.9        1.17638413]
 [1.         0.8457368 ]
 [1.09391667 0.31851434]]",0,0.558
8731382169,f,20,english,5,4,english,2024-02-01 10:33:02.802936,False,1,120,sounds\english\audio/english_159.wav,"[[  0.         -27.71132793]
 [  0.1          5.67043956]
 [  0.2        -56.04116861]
 [  0.3        -60.647669  ]
 [  0.4        -31.28235293]
 [  0.5        -41.95968639]
 [  0.6        -46.83352467]
 [  0.7         -6.87168688]
 [  0.8        -38.22542966]
 [  0.9         29.71030145]
 [  1.         -44.77576274]
 [  1.09391667  46.77490147]]","[[0.         0.45552689]
 [0.1        1.85865221]
 [0.2        1.36292014]
 [0.3        0.8196748 ]
 [0.4        1.14454104]
 [0.5        0.2708192 ]
 [0.6        0.67466027]
 [0.7        0.75914602]
 [0.8        0.8772758 ]
 [0.9        1.24753926]
 [1.         1.52106538]
 [1.09391667 1.15996843]]",1,0.452
8731382169,f,20,english,5,4,english,2024-02-01 10:33:02.802936,False,1,121,sounds\english\audio/english_352.wav,"[[  0.          84.78119141]
 [  0.1         88.75454048]
 [  0.2         23.94901813]
 [  0.3        -18.90676095]
 [  0.4         60.06070111]
 [  0.5         62.40800149]
 [  0.6          3.12749593]
 [  0.7         56.86714317]
 [  0.8        -52.83270381]
 [  0.9        -40.5099806 ]
 [  1.         -16.36538997]
 [  1.09391667  22.50184759]]","[[0.         1.3229017 ]
 [0.1        0.55829323]
 [0.2        0.0402509 ]
 [0.3        0.61640233]
 [0.4        0.96654272]
 [0.5        0.92098566]
 [0.6        1.84821975]
 [0.7        0.23838951]
 [0.8        0.65493925]
 [0.9        1.28053314]
 [1.         0.87321298]
 [1.09391667 0.74058038]]",0,1.136
8731382169,f,20,english,5,4,english,2024-02-01 10:33:02.802936,False,1,122,sounds\english\audio/english_668.wav,"[[  0.          24.30500843]
 [  0.1         57.57377678]
 [  0.2        -95.42785245]
 [  0.3        -42.97336145]
 [  0.4        -27.66393175]
 [  0.5         77.20765179]
 [  0.6         83.13326456]
 [  0.7        -32.13348901]
 [  0.8         68.31202494]
 [  0.9         19.90764766]
 [  1.          67.85742397]
 [  1.09391667  89.08528759]]","[[0.         1.5693483 ]
 [0.1        1.68368473]
 [0.2        0.73781789]
 [0.3        0.35418693]
 [0.4        0.0078487 ]
 [0.5        1.54548252]
 [0.6        1.19620748]
 [0.7        1.89254879]
 [0.8        0.72669061]
 [0.9        1.22099256]
 [1.         1.73789428]
 [1.09391667 1.66641406]]",0,0.59
8731382169,f,20,english,5,4,english,2024-02-01 10:33:02.802936,False,1,123,sounds\english\audio/english_714.wav,"[[  0.          79.0390651 ]
 [  0.1         36.23720606]
 [  0.2         59.88505324]
 [  0.3         35.79437608]
 [  0.4          1.83402307]
 [  0.5         73.3370193 ]
 [  0.6        -82.63220087]
 [  0.7         49.23957633]
 [  0.8         10.5160274 ]
 [  0.9        -94.9780405 ]
 [  1.          20.48401592]
 [  1.09391667  -2.68158482]]","[[0.         0.49033963]
 [0.1        1.92693389]
 [0.2        0.63464649]
 [0.3        0.92002545]
 [0.4        0.7042678 ]
 [0.5        0.59965101]
 [0.6        0.57753473]
 [0.7        1.31617156]
 [0.8        1.11503481]
 [0.9        1.71749538]
 [1.         0.94991936]
 [1.09391667 0.61904564]]",0,0.796
8731382169,f,20,english,5,4,english,2024-02-01 10:33:02.802936,False,1,124,sounds\english\audio/english_642.wav,"[[ 0.         91.32452464]
 [ 0.1        25.50334758]
 [ 0.2        16.65062249]
 [ 0.3        59.49550973]
 [ 0.4        71.09902   ]
 [ 0.5        32.48084173]
 [ 0.6        -3.97213515]
 [ 0.7        -1.84724139]
 [ 0.8        94.84850521]
 [ 0.9        -6.66803952]
 [ 1.         95.32562857]
 [ 1.09391667 43.75707904]]","[[0.         1.47199137]
 [0.1        0.86889355]
 [0.2        0.12872518]
 [0.3        0.72033949]
 [0.4        1.524748  ]
 [0.5        1.90798091]
 [0.6        1.71709986]
 [0.7        1.47754373]
 [0.8        1.43391033]
 [0.9        1.68537408]
 [1.         1.1201051 ]
 [1.09391667 1.27926817]]",1,0.121
8731382169,f,20,english,5,4,english,2024-02-01 10:33:02.802936,False,1,125,sounds\english\audio/english_605.wav,"[[  0.          -8.49945262]
 [  0.1         78.59318703]
 [  0.2          5.51226276]
 [  0.3        -57.71623977]
 [  0.4        -16.40155513]
 [  0.5         65.3464243 ]
 [  0.6         75.43847502]
 [  0.7        -23.5169708 ]
 [  0.8         90.90480097]
 [  0.9          2.3218264 ]
 [  1.         -54.16543883]
 [  1.09391667 -30.94766284]]","[[0.         0.18632105]
 [0.1        0.57386106]
 [0.2        1.08904108]
 [0.3        1.06659478]
 [0.4        1.07197466]
 [0.5        0.99856442]
 [0.6        1.20108487]
 [0.7        0.82408686]
 [0.8        1.4403859 ]
 [0.9        1.38639998]
 [1.         0.92793051]
 [1.09391667 1.95794577]]",1,0.1
8731382169,f,20,english,5,4,english,2024-02-01 10:33:02.802936,False,1,126,sounds\english\audio/english_496.wav,"[[  0.          71.48836841]
 [  0.1         15.20852814]
 [  0.2        -96.44274776]
 [  0.3        -60.77213324]
 [  0.4         51.84358461]
 [  0.5        -29.81815899]
 [  0.6         68.78610252]
 [  0.7         -7.56844822]
 [  0.8         77.81323141]
 [  0.9        -20.60892305]
 [  1.         -49.14310168]
 [  1.09391667  12.76376139]]","[[0.         0.54791396]
 [0.1        0.58485485]
 [0.2        0.36991182]
 [0.3        0.28046451]
 [0.4        1.3513408 ]
 [0.5        0.81550086]
 [0.6        1.72009229]
 [0.7        0.3057716 ]
 [0.8        0.47124655]
 [0.9        1.72803136]
 [1.         0.96978589]
 [1.09391667 1.35172816]]",0,1.063
8731382169,f,20,english,5,4,english,2024-02-01 10:33:02.802936,False,1,127,sounds\english\audio/english_313.wav,"[[  0.         -22.0180916 ]
 [  0.1         96.16831441]
 [  0.2        -45.33444961]
 [  0.3        -30.76295123]
 [  0.4         27.42080434]
 [  0.5         96.50313713]
 [  0.6         -0.94763764]
 [  0.7         67.04457313]
 [  0.8          2.6862445 ]
 [  0.9         47.07555832]
 [  1.         -32.41079138]
 [  1.09391667  11.15794631]]","[[0.         0.52298953]
 [0.1        0.58043298]
 [0.2        0.43861373]
 [0.3        0.29063093]
 [0.4        1.23880448]
 [0.5        0.08705859]
 [0.6        1.32086894]
 [0.7        1.2914561 ]
 [0.8        0.44865702]
 [0.9        1.89388378]
 [1.         1.69735018]
 [1.09391667 1.75721469]]",0,0.503
8731382169,f,20,english,5,4,english,2024-02-01 10:33:02.802936,False,1,128,sounds\english\audio/english_580.wav,"[[  0.          13.25816798]
 [  0.1          5.77647533]
 [  0.2         72.78999168]
 [  0.3        -47.92422824]
 [  0.4        -43.47633617]
 [  0.5         77.25010358]
 [  0.6          3.91161984]
 [  0.7         81.00627676]
 [  0.8        -33.28825485]
 [  0.9         -0.84600443]
 [  1.         -76.41274274]
 [  1.09391667 -41.12581414]]","[[0.         1.08575691]
 [0.1        0.54086757]
 [0.2        0.73021835]
 [0.3        1.37147127]
 [0.4        0.74349833]
 [0.5        1.2598917 ]
 [0.6        0.03492262]
 [0.7        1.8293003 ]
 [0.8        0.6502698 ]
 [0.9        1.16525453]
 [1.         1.3130508 ]
 [1.09391667 1.44461782]]",0,1.247
8731382169,f,20,english,5,4,english,2024-02-01 10:33:02.802936,False,1,129,sounds\english\audio/english_408.wav,"[[  0.          -0.56649463]
 [  0.1         13.00923979]
 [  0.2        -71.83469139]
 [  0.3        -46.43306622]
