subj,sex,age,language,english,french,native_lang,date,practice,block,trial,stim,pitch,stretch,response,rt
8768944929,m,21,english,5,4,english,2024-01-25 10:40:13.581798,True,0,0,sounds\english\audio/english_865.wav,"[[  0.          86.1163895 ]
 [  0.1         69.95513589]
 [  0.2        -13.94671811]
 [  0.3        -33.10342907]
 [  0.4        -76.59504937]
 [  0.5         -3.51899048]
 [  0.6         30.42015795]
 [  0.7        -55.73707392]
 [  0.8         54.32986928]
 [  0.9        -94.25719672]
 [  1.          52.44088275]
 [  1.09391667 -37.34958779]]","[[0.         0.19420048]
 [0.1        1.46581666]
 [0.2        1.09876795]
 [0.3        0.83580859]
 [0.4        0.7375784 ]
 [0.5        1.73720254]
 [0.6        0.47612768]
 [0.7        0.34287239]
 [0.8        1.39046848]
 [0.9        0.32361365]
 [1.         0.4960331 ]
 [1.09391667 0.90913699]]",0,6.74
8768944929,m,21,english,5,4,english,2024-01-25 10:40:13.581798,True,0,1,sounds\english\audio/english_50.wav,"[[  0.         -32.36494138]
 [  0.1         76.6244439 ]
 [  0.2        -16.62217643]
 [  0.3         63.40850527]
 [  0.4         68.81783594]
 [  0.5        -35.17384088]
 [  0.6         42.93688325]
 [  0.7        -82.21044816]
 [  0.8        -42.73245843]
 [  0.9         -3.13393134]
 [  1.         -86.41078269]
 [  1.09391667  14.80187439]]","[[0.         1.37054129]
 [0.1        1.57215181]
 [0.2        1.07317842]
 [0.3        0.82623857]
 [0.4        0.72038729]
 [0.5        1.90936147]
 [0.6        0.3744962 ]
 [0.7        0.69245834]
 [0.8        0.60585647]
 [0.9        1.24840552]
 [1.         0.02488175]
 [1.09391667 1.59728167]]",0,4.976
8768944929,m,21,english,5,4,english,2024-01-25 10:40:13.581798,True,0,2,sounds\english\audio/english_516.wav,"[[  0.          65.27468838]
 [  0.1         28.38678538]
 [  0.2        -16.29491298]
 [  0.3         29.01072094]
 [  0.4        -47.32267929]
 [  0.5        -47.60418852]
 [  0.6         19.91194594]
 [  0.7        -28.9289623 ]
 [  0.8          5.6204603 ]
 [  0.9         55.47321842]
 [  1.          12.03381774]
 [  1.09391667 -64.39892236]]","[[0.         0.72548384]
 [0.1        1.78002716]
 [0.2        1.52601333]
 [0.3        0.22704286]
 [0.4        1.00592853]
 [0.5        0.3740999 ]
 [0.6        1.89933748]
 [0.7        0.62297075]
 [0.8        1.26182982]
 [0.9        0.11401837]
 [1.         0.27832104]
 [1.09391667 1.09838576]]",1,0.845
8768944929,m,21,english,5,4,english,2024-01-25 10:40:13.581798,False,1,3,sounds\english\audio/english_178.wav,"[[  0.           5.42478923]
 [  0.1         66.71711881]
 [  0.2         25.13944125]
 [  0.3         95.56005782]
 [  0.4         16.85207382]
 [  0.5        -27.28270002]
 [  0.6         86.24132907]
 [  0.7        -67.08119727]
 [  0.8         -0.81610081]
 [  0.9        -32.08256077]
 [  1.          33.26765995]
 [  1.09391667  50.15163679]]","[[0.         1.01011156]
 [0.1        1.60637441]
 [0.2        0.85795496]
 [0.3        1.35214977]
 [0.4        0.61247399]
 [0.5        1.45555962]
 [0.6        0.34817024]
 [0.7        0.78995697]
 [0.8        1.09427424]
 [0.9        1.32224293]
 [1.         1.53013904]
 [1.09391667 1.40313699]]",1,0.89
8768944929,m,21,english,5,4,english,2024-01-25 10:40:13.581798,False,1,4,sounds\english\audio/english_992.wav,"[[  0.          -5.15788791]
 [  0.1         87.86739991]
 [  0.2        -74.96538965]
 [  0.3         51.5508712 ]
 [  0.4         55.84577921]
 [  0.5        -73.81356171]
 [  0.6        -70.33946252]
 [  0.7        -76.12910815]
 [  0.8        -38.0545779 ]
 [  0.9         -5.26509044]
 [  1.          33.43231637]
 [  1.09391667 -37.46452433]]","[[0.         0.02044401]
 [0.1        0.14748193]
 [0.2        1.08794539]
 [0.3        1.90839795]
 [0.4        0.11098659]
 [0.5        1.14044774]
 [0.6        0.24836029]
 [0.7        1.64559676]
 [0.8        1.57501427]
 [0.9        0.82338834]
 [1.         0.44386037]
 [1.09391667 0.70783957]]",1,2.785
8768944929,m,21,english,5,4,english,2024-01-25 10:40:13.581798,False,1,5,sounds\english\audio/english_74.wav,"[[  0.          24.65162801]
 [  0.1        -30.39880554]
 [  0.2        -41.38450202]
 [  0.3         31.11276598]
 [  0.4        -57.65294567]
 [  0.5        -51.69576528]
 [  0.6         24.90932223]
 [  0.7        -33.10450871]
 [  0.8        -69.97293112]
 [  0.9         88.74386832]
 [  1.         -68.30431972]
 [  1.09391667 -30.20733398]]","[[0.         0.19950325]
 [0.1        1.43111439]
 [0.2        0.7414266 ]
 [0.3        1.07627737]
 [0.4        1.92323622]
 [0.5        1.17854767]
 [0.6        0.17974996]
 [0.7        0.92482308]
 [0.8        0.31413891]
 [0.9        1.87630938]
 [1.         1.39265686]
 [1.09391667 0.32158433]]",0,0.298
8768944929,m,21,english,5,4,english,2024-01-25 10:40:13.581798,False,1,6,sounds\english\audio/english_290.wav,"[[  0.           4.14643055]
 [  0.1         55.79753149]
 [  0.2        -63.42272798]
 [  0.3        -40.60813041]
 [  0.4        -85.79001431]
 [  0.5        -31.93461576]
 [  0.6        -73.76037774]
 [  0.7        -54.82415725]
 [  0.8         85.10642222]
 [  0.9        -54.96930538]
 [  1.          41.58093041]
 [  1.09391667  28.32805855]]","[[0.         1.34304487]
 [0.1        1.94828155]
 [0.2        1.81846113]
 [0.3        0.06068854]
 [0.4        0.95997788]
 [0.5        0.98743905]
 [0.6        0.49081153]
 [0.7        1.93641378]
 [0.8        0.02141652]
 [0.9        1.82619941]
 [1.         0.02158423]
 [1.09391667 1.73531275]]",1,0.21
8768944929,m,21,english,5,4,english,2024-01-25 10:40:13.581798,False,1,7,sounds\english\audio/english_15.wav,"[[  0.          62.7654015 ]
 [  0.1         72.90081021]
 [  0.2        -27.13813981]
 [  0.3         46.15025154]
 [  0.4         82.82691944]
 [  0.5        -11.77094526]
 [  0.6          7.10565833]
 [  0.7         95.94707331]
 [  0.8         45.63799677]
 [  0.9        -92.00814549]
 [  1.          63.89035204]
 [  1.09391667   2.5390803 ]]","[[0.         0.64461989]
 [0.1        0.87486851]
 [0.2        0.76068215]
 [0.3        1.07697628]
 [0.4        1.41242613]
 [0.5        0.34527471]
 [0.6        1.49976623]
 [0.7        0.60499577]
 [0.8        1.54166411]
 [0.9        0.43181907]
 [1.         1.01946416]
 [1.09391667 1.42183406]]",1,0.442
8768944929,m,21,english,5,4,english,2024-01-25 10:40:13.581798,False,1,8,sounds\english\audio/english_370.wav,"[[  0.          91.45146765]
 [  0.1        -35.10409157]
 [  0.2         94.76486666]
 [  0.3        -53.94210215]
 [  0.4         84.25045535]
 [  0.5         23.38990659]
 [  0.6        -19.20564455]
 [  0.7         79.34721748]
 [  0.8        -19.93049437]
 [  0.9        -60.8441274 ]
 [  1.          -1.38990897]
 [  1.09391667  24.56704264]]","[[0.         1.23282005]
 [0.1        0.25999131]
 [0.2        1.34886846]
 [0.3        0.83234793]
 [0.4        0.3574364 ]
 [0.5        1.13678853]
 [0.6        1.71477151]
 [0.7        0.6734852 ]
 [0.8        1.07446176]
 [0.9        1.23242025]
 [1.         1.52786138]
 [1.09391667 1.4714842 ]]",1,0.44
8768944929,m,21,english,5,4,english,2024-01-25 10:40:13.581798,False,1,9,sounds\english\audio/english_321.wav,"[[  0.         -77.41334575]
 [  0.1        -61.98635838]
 [  0.2         63.85195092]
 [  0.3         29.6904451 ]
 [  0.4        -43.5045078 ]
 [  0.5         62.57170592]
 [  0.6         28.41559033]
 [  0.7         57.20206106]
 [  0.8         21.76754783]
 [  0.9        -93.37290208]
 [  1.         -66.78585721]
 [  1.09391667  79.62121497]]","[[0.         1.30726178]
 [0.1        0.09021545]
 [0.2        1.50183321]
 [0.3        0.65065228]
 [0.4        1.45081069]
 [0.5        1.7661601 ]
 [0.6        0.98052074]
 [0.7        1.50508218]
 [0.8        1.92892589]
 [0.9        0.5132303 ]
 [1.         1.33865757]
 [1.09391667 0.23870746]]",1,0.429
8768944929,m,21,english,5,4,english,2024-01-25 10:40:13.581798,False,1,10,sounds\english\audio/english_210.wav,"[[  0.         -22.3598959 ]
 [  0.1         82.81767229]
 [  0.2         64.75592146]
 [  0.3         38.64105246]
 [  0.4        -56.81269148]
 [  0.5         55.50536216]
 [  0.6        -90.16901587]
 [  0.7         -5.65019453]
 [  0.8        -52.20950635]
 [  0.9          2.11037441]
 [  1.         -72.63173863]
 [  1.09391667 -28.48995406]]","[[0.         0.75499894]
 [0.1        1.61294131]
 [0.2        0.96857287]
 [0.3        1.31710082]
 [0.4        0.48607374]
 [0.5        0.56849668]
 [0.6        0.68954785]
 [0.7        1.61518036]
 [0.8        0.58148747]
 [0.9        1.45053329]
 [1.         1.53157276]
 [1.09391667 1.31948045]]",1,0.85
8768944929,m,21,english,5,4,english,2024-01-25 10:40:13.581798,False,1,11,sounds\english\audio/english_359.wav,"[[  0.          16.62356483]
 [  0.1        -64.66657599]
 [  0.2         20.81574107]
 [  0.3         62.21324861]
 [  0.4        -96.92379856]
 [  0.5        -63.09314604]
 [  0.6         85.3804948 ]
 [  0.7         -5.84073458]
 [  0.8          1.07766227]
 [  0.9         -3.48391837]
 [  1.           5.39755614]
 [  1.09391667  59.72301587]]","[[0.         0.11907426]
 [0.1        1.11022803]
 [0.2        1.93552837]
 [0.3        0.18628365]
 [0.4        1.68045213]
 [0.5        0.56124054]
 [0.6        1.40840471]
 [0.7        0.76045624]
 [0.8        0.79738911]
 [0.9        0.78873787]
 [1.         0.96854707]
 [1.09391667 0.15927381]]",1,0.503
8768944929,m,21,english,5,4,english,2024-01-25 10:40:13.581798,False,1,12,sounds\english\audio/english_398.wav,"[[  0.          58.43536872]
 [  0.1        -82.57908231]
 [  0.2         -3.40439415]
 [  0.3        -83.74176257]
 [  0.4         38.89596711]
 [  0.5         63.49142751]
 [  0.6         64.24765223]
 [  0.7         24.37031282]
 [  0.8         18.2651004 ]
 [  0.9         -3.768449  ]
 [  1.          55.48069175]
 [  1.09391667  -2.34176887]]","[[0.         0.19891774]
 [0.1        0.03529734]
 [0.2        1.69592316]
 [0.3        0.07086845]
 [0.4        0.77458748]
 [0.5        1.25980126]
 [0.6        1.54445807]
 [0.7        0.23015685]
 [0.8        0.80693823]
 [0.9        0.61010049]
 [1.         0.09811637]
 [1.09391667 1.22967895]]",0,0.708
8768944929,m,21,english,5,4,english,2024-01-25 10:40:13.581798,False,1,13,sounds\english\audio/english_428.wav,"[[  0.          81.83092524]
 [  0.1        -80.13069751]
 [  0.2        -11.65632902]
 [  0.3        -46.08084266]
 [  0.4          3.29741478]
 [  0.5         38.2144639 ]
 [  0.6        -36.34649143]
 [  0.7        -64.94911042]
 [  0.8         55.28808141]
 [  0.9        -85.65631623]
 [  1.          45.03584187]
 [  1.09391667 -22.28745039]]","[[0.         1.65195738]
 [0.1        1.50342219]
 [0.2        1.06152039]
 [0.3        0.87273268]
 [0.4        1.30041173]
 [0.5        1.27181021]
 [0.6        1.2829939 ]
 [0.7        0.80379216]
 [0.8        0.54976242]
 [0.9        1.4846347 ]
 [1.         0.86531381]
 [1.09391667 0.63375774]]",1,1.205
8768944929,m,21,english,5,4,english,2024-01-25 10:40:13.581798,False,1,14,sounds\english\audio/english_775.wav,"[[  0.         -31.43099856]
 [  0.1          8.65477654]
 [  0.2        -52.28282098]
 [  0.3         91.1008366 ]
 [  0.4         -9.23078544]
 [  0.5        -48.12825779]
 [  0.6         31.75901499]
 [  0.7         26.51097314]
 [  0.8         -0.94893242]
 [  0.9        -80.42410318]
 [  1.         -37.42269733]
 [  1.09391667 -30.31023423]]","[[0.         1.38428974]
 [0.1        1.381989  ]
 [0.2        0.85842321]
 [0.3        0.86053133]
 [0.4        0.18720345]
 [0.5        1.02834673]
 [0.6        0.26507894]
 [0.7        0.89767529]
 [0.8        1.04721154]
 [0.9        1.94213174]
 [1.         0.45384942]
 [1.09391667 1.30082565]]",1,0.369
8768944929,m,21,english,5,4,english,2024-01-25 10:40:13.581798,False,1,15,sounds\english\audio/english_717.wav,"[[  0.          80.79953087]
 [  0.1         -1.75275742]
 [  0.2         12.73700345]
 [  0.3        -58.06023579]
 [  0.4        -93.68141032]
 [  0.5        -35.69500064]
 [  0.6         23.08040277]
 [  0.7        -73.54652945]
 [  0.8         43.65281286]
 [  0.9         99.54987208]
 [  1.          85.80896401]
 [  1.09391667   7.78107645]]","[[0.         1.86526645]
 [0.1        1.92589165]
 [0.2        1.47472052]
 [0.3        1.92992484]
 [0.4        1.20356957]
 [0.5        0.92496825]
 [0.6        1.84550356]
 [0.7        0.83429079]
 [0.8        0.04489088]
 [0.9        1.24125202]
 [1.         1.39190792]
 [1.09391667 0.20374713]]",0,1.877
8768944929,m,21,english,5,4,english,2024-01-25 10:40:13.581798,False,1,16,sounds\english\audio/english_46.wav,"[[  0.         -14.7704521 ]
 [  0.1         44.71982886]
 [  0.2         54.31186901]
 [  0.3         49.55617509]
 [  0.4         13.89468732]
 [  0.5         -5.62181735]
 [  0.6         46.1003591 ]
 [  0.7         44.70422333]
 [  0.8        -14.85596588]
 [  0.9        -30.71855866]
 [  1.         -75.55345039]
 [  1.09391667   6.43312975]]","[[0.         0.66460672]
 [0.1        0.16115308]
 [0.2        0.69883722]
 [0.3        0.91276183]
 [0.4        1.97897865]
 [0.5        1.5047395 ]
 [0.6        1.97786281]
 [0.7        1.91807099]
 [0.8        0.25212674]
 [0.9        1.85861414]
 [1.         0.72903252]
 [1.09391667 1.80431148]]",1,0.442
8768944929,m,21,english,5,4,english,2024-01-25 10:40:13.581798,False,1,17,sounds\english\audio/english_885.wav,"[[  0.          54.55471531]
 [  0.1         -9.45538995]
 [  0.2         51.71669589]
 [  0.3         35.30778931]
 [  0.4         20.62870104]
 [  0.5         45.97492152]
 [  0.6         57.72908242]
 [  0.7         -7.90762664]
 [  0.8        -27.43803549]
 [  0.9        -45.75999486]
 [  1.          65.06809526]
 [  1.09391667  85.31433116]]","[[0.         1.33761042]
 [0.1        0.16839263]
 [0.2        0.15282828]
 [0.3        0.93528856]
 [0.4        0.42450529]
 [0.5        1.13086713]
 [0.6        1.16302136]
 [0.7        1.12991064]
 [0.8        0.98725245]
 [0.9        0.61152154]
 [1.         0.86912983]
 [1.09391667 0.92468658]]",1,1.421
8768944929,m,21,english,5,4,english,2024-01-25 10:40:13.581798,False,1,18,sounds\english\audio/english_673.wav,"[[  0.          90.76839252]
 [  0.1          6.046272  ]
 [  0.2        -87.83071151]
 [  0.3         36.6509823 ]
 [  0.4        -32.18158433]
 [  0.5        -19.24802142]
 [  0.6         48.91730907]
 [  0.7         69.64943754]
 [  0.8         -5.12989182]
 [  0.9         -9.26659316]
 [  1.         -16.89337836]
 [  1.09391667 -23.27882447]]","[[0.         1.23453875]
 [0.1        1.03311149]
 [0.2        1.26397394]
 [0.3        1.9126635 ]
 [0.4        1.72280276]
 [0.5        0.25348074]
 [0.6        1.44743683]
 [0.7        1.155997  ]
 [0.8        0.33674768]
 [0.9        0.68600318]
 [1.         1.11619923]
 [1.09391667 0.1262035 ]]",1,1.128
8768944929,m,21,english,5,4,english,2024-01-25 10:40:13.581798,False,1,19,sounds\english\audio/english_72.wav,"[[  0.          25.66196689]
 [  0.1         91.6871729 ]
 [  0.2         20.71991496]
 [  0.3         25.2834681 ]
 [  0.4         58.88880859]
 [  0.5         33.55084541]
 [  0.6         58.54373553]
 [  0.7        -85.40468838]
 [  0.8         27.70213239]
 [  0.9         14.78832573]
 [  1.          43.85438073]
 [  1.09391667 -19.73458621]]","[[0.         1.61992503]
 [0.1        1.16223347]
 [0.2        0.76041055]
 [0.3        1.27583567]
 [0.4        1.53150699]
 [0.5        0.86195905]
 [0.6        0.4732401 ]
 [0.7        1.47524268]
 [0.8        0.5818617 ]
 [0.9        1.26843549]
 [1.         0.6029755 ]
 [1.09391667 0.39538299]]",1,0.498
8768944929,m,21,english,5,4,english,2024-01-25 10:40:13.581798,False,1,20,sounds\english\audio/english_885.wav,"[[  0.          54.55471531]
 [  0.1         -9.45538995]
 [  0.2         51.71669589]
 [  0.3         35.30778931]
 [  0.4         20.62870104]
 [  0.5         45.97492152]
 [  0.6         57.72908242]
 [  0.7         -7.90762664]
 [  0.8        -27.43803549]
 [  0.9        -45.75999486]
 [  1.          65.06809526]
 [  1.09391667  85.31433116]]","[[0.         1.33761042]
 [0.1        0.16839263]
 [0.2        0.15282828]
 [0.3        0.93528856]
 [0.4        0.42450529]
 [0.5        1.13086713]
 [0.6        1.16302136]
 [0.7        1.12991064]
 [0.8        0.98725245]
 [0.9        0.61152154]
 [1.         0.86912983]
 [1.09391667 0.92468658]]",1,0.283
8768944929,m,21,english,5,4,english,2024-01-25 10:40:13.581798,False,1,21,sounds\english\audio/english_416.wav,"[[  0.          82.43182744]
 [  0.1         53.03166004]
 [  0.2         97.51798843]
 [  0.3         29.41957171]
 [  0.4        -25.73379092]
 [  0.5        -41.53228359]
 [  0.6        -18.26850451]
 [  0.7         36.25947798]
 [  0.8          3.82481386]
 [  0.9         51.45810025]
 [  1.           0.92473006]
 [  1.09391667  18.75162815]]","[[0.         0.48127721]
 [0.1        0.55506125]
 [0.2        1.10002465]
 [0.3        0.46187328]
 [0.4        1.80124094]
 [0.5        1.29733702]
 [0.6        0.88634114]
 [0.7        0.74571926]
 [0.8        0.12319745]
 [0.9        1.56017106]
 [1.         1.11470687]
 [1.09391667 1.36917422]]",1,0.66
8768944929,m,21,english,5,4,english,2024-01-25 10:40:13.581798,False,1,22,sounds\english\audio/english_788.wav,"[[  0.          17.89309058]
 [  0.1         71.29743237]
 [  0.2        -58.86773575]
 [  0.3        -79.26718247]
 [  0.4         35.72874859]
 [  0.5        -14.77309026]
 [  0.6        -78.45807111]
 [  0.7         40.66379457]
 [  0.8         51.99524397]
 [  0.9         23.30304068]
 [  1.          87.05916465]
 [  1.09391667 -42.18000877]]","[[0.         1.04861509]
 [0.1        1.67595733]
 [0.2        0.86315506]
 [0.3        0.41984481]
 [0.4        0.95404094]
 [0.5        0.45544588]
 [0.6        0.07788433]
 [0.7        0.7267532 ]
 [0.8        1.61048189]
 [0.9        1.83471325]
 [1.         1.60214946]
 [1.09391667 1.51632908]]",1,5.149
8768944929,m,21,english,5,4,english,2024-01-25 10:40:13.581798,False,1,23,sounds\english\audio/english_983.wav,"[[  0.         -50.22823897]
 [  0.1         -4.67437073]
 [  0.2        -31.6094098 ]
 [  0.3         25.42275216]
 [  0.4         79.9624674 ]
 [  0.5         11.84827872]
 [  0.6        -53.41316004]
 [  0.7         -2.37481813]
 [  0.8         81.38125647]
 [  0.9        -62.03068284]
 [  1.         -64.21224493]
 [  1.09391667  38.19793451]]","[[0.         0.88633634]
 [0.1        1.28034271]
 [0.2        0.94172266]
 [0.3        0.73344406]
 [0.4        1.78223604]
 [0.5        1.04715588]
 [0.6        1.93599287]
 [0.7        0.44413806]
 [0.8        0.67013669]
 [0.9        1.03528206]
 [1.         0.12422577]
 [1.09391667 1.50859084]]",0,1.779
8768944929,m,21,english,5,4,english,2024-01-25 10:40:13.581798,False,1,24,sounds\english\audio/english_976.wav,"[[  0.          -7.94823885]
 [  0.1         96.34184584]
 [  0.2        -33.68410723]
 [  0.3         71.00734619]
 [  0.4        -73.42321757]
 [  0.5         68.14494718]
 [  0.6         72.66069131]
 [  0.7        -46.1327141 ]
 [  0.8        -13.93014286]
 [  0.9         53.41967838]
 [  1.         -12.62377888]
 [  1.09391667  -9.46767518]]","[[0.         1.93996979]
 [0.1        0.68967214]
 [0.2        1.52037239]
 [0.3        0.92144072]
 [0.4        1.16805043]
 [0.5        0.75881772]
 [0.6        0.99023479]
 [0.7        1.21750342]
 [0.8        1.7476055 ]
 [0.9        1.87214478]
 [1.         0.1004517 ]
 [1.09391667 1.64660027]]",1,0.714
8768944929,m,21,english,5,4,english,2024-01-25 10:40:13.581798,False,1,25,sounds\english\audio/english_194.wav,"[[  0.          56.78701541]
 [  0.1        -17.75053988]
 [  0.2         33.25886054]
 [  0.3        -36.30427417]
 [  0.4         87.2538064 ]
 [  0.5        -35.38798336]
 [  0.6        -16.86822867]
 [  0.7          3.74513195]
 [  0.8        -97.03953589]
 [  0.9        -34.95000954]
 [  1.          41.79469937]
 [  1.09391667 -99.09961294]]","[[0.         1.42004802]
 [0.1        0.01035796]
 [0.2        1.01435424]
 [0.3        0.10390295]
 [0.4        0.79219746]
 [0.5        0.28919857]
 [0.6        1.14065301]
 [0.7        1.55329947]
 [0.8        1.8735666 ]
 [0.9        1.68004219]
 [1.         0.7970796 ]
 [1.09391667 1.89727803]]",1,0.509
8768944929,m,21,english,5,4,english,2024-01-25 10:40:13.581798,False,1,26,sounds\english\audio/english_672.wav,"[[  0.          43.22685975]
 [  0.1        -54.22036803]
 [  0.2         47.19502214]
 [  0.3         29.48399108]
 [  0.4        -37.13401682]
 [  0.5        -82.77781933]
 [  0.6         26.5489707 ]
 [  0.7        -82.12818914]
 [  0.8          0.43149331]
 [  0.9         36.27396929]
 [  1.         -33.62939759]
 [  1.09391667 -60.08189446]]","[[0.         1.16062379]
 [0.1        1.05074454]
 [0.2        0.58565022]
 [0.3        0.69010583]
 [0.4        1.10560462]
 [0.5        0.90912981]
 [0.6        1.72329615]
 [0.7        1.29141175]
 [0.8        0.15835131]
 [0.9        0.77804924]
 [1.         0.05373679]
 [1.09391667 0.92241163]]",0,0.672
8768944929,m,21,english,5,4,english,2024-01-25 10:40:13.581798,False,1,27,sounds\english\audio/english_247.wav,"[[  0.          25.0451381 ]
 [  0.1         -0.42762512]
 [  0.2          6.28793154]
 [  0.3         -3.67285953]
 [  0.4         72.86099671]
 [  0.5          4.14559404]
 [  0.6         25.40906202]
 [  0.7         -4.12042736]
 [  0.8         34.39220846]
 [  0.9        -47.96329468]
 [  1.          84.41515092]
 [  1.09391667  76.12511321]]","[[0.         1.47539451]
 [0.1        0.00273089]
 [0.2        1.08361758]
 [0.3        1.41054103]
 [0.4        0.74915888]
 [0.5        1.69392232]
 [0.6        1.26493683]
 [0.7        0.1138778 ]
 [0.8        1.15663669]
 [0.9        1.48677288]
 [1.         0.39384904]
 [1.09391667 0.02417049]]",1,2.147
8768944929,m,21,english,5,4,english,2024-01-25 10:40:13.581798,False,1,28,sounds\english\audio/english_985.wav,"[[  0.         -83.24919271]
 [  0.1        -61.40218693]
 [  0.2         75.6831096 ]
 [  0.3        -83.55103169]
 [  0.4        -76.60569971]
 [  0.5         93.43834668]
 [  0.6         46.86841289]
 [  0.7         11.38653049]
 [  0.8          5.98716874]
 [  0.9          6.47503028]
 [  1.          53.75316558]
 [  1.09391667 -17.57703362]]","[[0.         0.45698213]
 [0.1        1.0383787 ]
 [0.2        1.83439409]
 [0.3        1.46493433]
 [0.4        0.92668276]
 [0.5        1.27852145]
 [0.6        1.04356397]
 [0.7        1.03370788]
 [0.8        0.43255879]
 [0.9        0.84647211]
 [1.         1.92237121]
 [1.09391667 0.19853323]]",1,1.93
8768944929,m,21,english,5,4,english,2024-01-25 10:40:13.581798,False,1,29,sounds\english\audio/english_484.wav,"[[  0.           2.0569585 ]
 [  0.1        -79.1484241 ]
 [  0.2         30.9033229 ]
 [  0.3         12.05929197]
 [  0.4        -72.8204973 ]
 [  0.5        -89.96387514]
 [  0.6        -22.94210609]
 [  0.7         17.91925192]
 [  0.8        -62.01555508]
 [  0.9        -43.27412131]
 [  1.           0.91553281]
 [  1.09391667 -32.68645572]]","[[0.         0.34651955]
 [0.1        1.84776357]
 [0.2        1.82203066]
 [0.3        1.56778111]
 [0.4        1.22252397]
 [0.5        1.78789861]
 [0.6        0.02218534]
 [0.7        1.7744569 ]
 [0.8        1.27917124]
 [0.9        1.76665807]
 [1.         1.1189794 ]
 [1.09391667 0.68984214]]",1,1.421
8768944929,m,21,english,5,4,english,2024-01-25 10:40:13.581798,False,1,30,sounds\english\audio/english_151.wav,"[[  0.         -96.58356516]
 [  0.1         53.33507439]
 [  0.2         23.26881474]
 [  0.3         89.03249778]
 [  0.4        -38.82793041]
 [  0.5        -36.66004779]
 [  0.6         67.28889671]
 [  0.7         -0.40239481]
 [  0.8        -91.46427785]
 [  0.9         42.06624713]
 [  1.         -44.58654352]
 [  1.09391667  65.09222406]]","[[0.         1.19663116]
 [0.1        0.02049529]
 [0.2        0.86701839]
 [0.3        0.68926078]
 [0.4        0.60287098]
 [0.5        1.21623164]
 [0.6        0.80619928]
 [0.7        0.32656555]
 [0.8        1.24233336]
 [0.9        0.88095947]
 [1.         1.51580141]
 [1.09391667 0.37134413]]",1,0.417
8768944929,m,21,english,5,4,english,2024-01-25 10:40:13.581798,False,1,31,sounds\english\audio/english_472.wav,"[[  0.         -23.72821767]
 [  0.1          7.29471696]
 [  0.2        -58.55005371]
 [  0.3         77.0504256 ]
 [  0.4         87.29275565]
 [  0.5        -70.9646192 ]
 [  0.6         72.82743185]
 [  0.7        -40.27439915]
 [  0.8        -15.91396931]
 [  0.9         27.40014094]
 [  1.         -13.69917785]
 [  1.09391667  26.78237701]]","[[0.         0.96911452]
 [0.1        0.40121138]
 [0.2        1.15410482]
 [0.3        1.91400861]
 [0.4        0.05830067]
 [0.5        0.87176087]
 [0.6        0.23371631]
 [0.7        1.66198616]
 [0.8        0.22492459]
 [0.9        0.55757982]
 [1.         1.15387827]
 [1.09391667 1.85526867]]",0,2.157
8768944929,m,21,english,5,4,english,2024-01-25 10:40:13.581798,False,1,32,sounds\english\audio/english_599.wav,"[[  0.          68.55754102]
 [  0.1         -7.26037981]
 [  0.2         92.88050494]
 [  0.3        -30.01198602]
 [  0.4        -12.83448782]
 [  0.5         95.18827309]
 [  0.6         76.69886181]
 [  0.7        -88.96581396]
 [  0.8          6.31748227]
 [  0.9        -93.23103284]
 [  1.          52.23538248]
 [  1.09391667  80.6723105 ]]","[[0.         0.43315889]
 [0.1        0.25693118]
 [0.2        0.63718224]
 [0.3        0.72589136]
 [0.4        1.41268703]
 [0.5        1.68026213]
 [0.6        1.35988865]
 [0.7        1.48925284]
 [0.8        0.8159251 ]
 [0.9        0.71703188]
 [1.         0.37366583]
 [1.09391667 0.06283904]]",1,0.538
8768944929,m,21,english,5,4,english,2024-01-25 10:40:13.581798,False,1,33,sounds\english\audio/english_729.wav,"[[  0.         -26.87736921]
 [  0.1        -38.78454806]
 [  0.2        -69.72148419]
 [  0.3         56.72097213]
 [  0.4        -88.39667283]
 [  0.5         45.22282249]
 [  0.6        -11.07444694]
 [  0.7        -30.98601297]
 [  0.8         49.05819927]
 [  0.9         95.08611162]
 [  1.         -80.37669622]
 [  1.09391667  -0.64736784]]","[[0.         0.37881467]
 [0.1        0.37257789]
 [0.2        1.48940085]
 [0.3        1.14518806]
 [0.4        1.2314091 ]
 [0.5        0.53736575]
 [0.6        1.57677514]
 [0.7        1.78543206]
 [0.8        0.9243348 ]
 [0.9        1.43220062]
 [1.         1.4106878 ]
 [1.09391667 0.37073527]]",1,0.552
8768944929,m,21,english,5,4,english,2024-01-25 10:40:13.581798,False,1,34,sounds\english\audio/english_282.wav,"[[  0.          79.51809952]
 [  0.1         55.92109115]
 [  0.2         36.01060515]
 [  0.3          4.60281664]
 [  0.4         35.69966579]
 [  0.5        -79.87721836]
 [  0.6         -3.98252218]
 [  0.7        -78.10052274]
 [  0.8         69.1474283 ]
 [  0.9         58.09261901]
 [  1.          94.50826365]
 [  1.09391667  71.90418642]]","[[0.         1.2792911 ]
 [0.1        0.93344042]
 [0.2        1.94968889]
 [0.3        1.12428424]
 [0.4        0.7610034 ]
 [0.5        0.66186596]
 [0.6        0.57211865]
 [0.7        0.40544896]
 [0.8        0.68156422]
 [0.9        0.87028019]
 [1.         1.91563213]
 [1.09391667 1.01931827]]",0,0.969
8768944929,m,21,english,5,4,english,2024-01-25 10:40:13.581798,False,1,35,sounds\english\audio/english_303.wav,"[[  0.           0.14016308]
 [  0.1        -44.5758284 ]
 [  0.2         40.18240402]
 [  0.3        -39.07989996]
 [  0.4         67.80800806]
 [  0.5         17.65490848]
 [  0.6         58.57137806]
 [  0.7         -9.36157139]
 [  0.8        -59.59223338]
 [  0.9        -85.34182112]
 [  1.          98.58496987]
 [  1.09391667   0.30898467]]","[[0.         1.85835187]
 [0.1        0.39450132]
 [0.2        0.24238742]
 [0.3        0.56764068]
 [0.4        1.20233096]
 [0.5        0.74682504]
 [0.6        1.26635068]
 [0.7        0.78955625]
 [0.8        0.64317534]
 [0.9        0.64803316]
 [1.         0.59787494]
 [1.09391667 1.47452335]]",1,0.44
8768944929,m,21,english,5,4,english,2024-01-25 10:40:13.581798,False,1,36,sounds\english\audio/english_510.wav,"[[  0.         -64.82277941]
 [  0.1         67.50018906]
 [  0.2         83.11599323]
 [  0.3        -40.68058334]
 [  0.4        -20.66274727]
 [  0.5         57.39601347]
 [  0.6         26.65395964]
 [  0.7         -1.22309803]
 [  0.8         91.87113136]
 [  0.9         59.67411659]
 [  1.           9.25675614]
 [  1.09391667 -85.2659012 ]]","[[0.         1.74799884]
 [0.1        1.7328265 ]
 [0.2        1.53243167]
 [0.3        0.93226309]
 [0.4        0.97994595]
 [0.5        1.11050562]
 [0.6        0.07038292]
 [0.7        0.34804353]
 [0.8        1.43252604]
 [0.9        0.49156131]
 [1.         0.83882448]
 [1.09391667 1.33145629]]",1,0.515
8768944929,m,21,english,5,4,english,2024-01-25 10:40:13.581798,False,1,37,sounds\english\audio/english_556.wav,"[[  0.         -68.09670747]
 [  0.1          8.96692918]
 [  0.2        -46.83531772]
 [  0.3        -87.32202155]
 [  0.4         49.65406328]
 [  0.5         92.65716025]
 [  0.6        -17.76161657]
 [  0.7        -85.77085821]
 [  0.8        -31.44799715]
 [  0.9        -32.59755967]
 [  1.         -96.2091504 ]
 [  1.09391667  -0.57982779]]","[[0.         1.3485974 ]
 [0.1        0.84698507]
 [0.2        0.06218337]
 [0.3        0.66181265]
 [0.4        1.9600464 ]
 [0.5        0.67849191]
 [0.6        0.9118753 ]
 [0.7        0.73811047]
 [0.8        0.91861979]
 [0.9        1.18816365]
 [1.         1.86623217]
 [1.09391667 0.61760757]]",1,0.291
8768944929,m,21,english,5,4,english,2024-01-25 10:40:13.581798,False,1,38,sounds\english\audio/english_827.wav,"[[  0.          68.00908508]
 [  0.1         62.86337393]
 [  0.2        -78.66229145]
 [  0.3         22.2543924 ]
 [  0.4        -38.38701394]
 [  0.5         42.22150711]
 [  0.6        -45.69118252]
 [  0.7         -2.62995829]
 [  0.8         -5.53100906]
 [  0.9        -28.52107901]
 [  1.          49.22868474]
 [  1.09391667 -68.48939537]]","[[0.         0.75704727]
 [0.1        1.26162294]
 [0.2        0.12232387]
 [0.3        1.21737576]
 [0.4        0.91087215]
 [0.5        0.43725261]
 [0.6        1.41339021]
 [0.7        0.84435274]
 [0.8        1.45939376]
 [0.9        0.25757528]
 [1.         0.16904312]
 [1.09391667 1.55565222]]",1,2.625
8768944929,m,21,english,5,4,english,2024-01-25 10:40:13.581798,False,1,39,sounds\english\audio/english_588.wav,"[[  0.          29.91091742]
 [  0.1         29.9060619 ]
 [  0.2        -35.2299782 ]
 [  0.3         33.93454747]
 [  0.4         16.01664829]
 [  0.5        -18.70778189]
 [  0.6        -97.06291502]
 [  0.7         13.076942  ]
 [  0.8         50.92498955]
 [  0.9         53.17318001]
 [  1.          52.34619788]
 [  1.09391667   1.61294986]]","[[0.         1.28287681]
 [0.1        1.09118729]
 [0.2        0.95294685]
 [0.3        1.46022219]
 [0.4        1.6252916 ]
 [0.5        1.19035327]
 [0.6        0.90275631]
 [0.7        0.534144  ]
 [0.8        0.26255875]
 [0.9        0.29008288]
 [1.         0.99016986]
 [1.09391667 0.96989244]]",0,0.574
8768944929,m,21,english,5,4,english,2024-01-25 10:40:13.581798,False,1,40,sounds\english\audio/english_474.wav,"[[  0.          90.33187361]
 [  0.1         -6.84069755]
 [  0.2        -57.72482016]
 [  0.3        -31.39067157]
 [  0.4         81.36101502]
 [  0.5         86.28648359]
 [  0.6         59.24078698]
 [  0.7         83.65694144]
 [  0.8         -5.88526163]
 [  0.9         -0.83528638]
 [  1.          93.70431835]
 [  1.09391667  -9.99550439]]","[[0.         1.64439586]
 [0.1        1.97409516]
 [0.2        1.83394357]
 [0.3        1.91918891]
 [0.4        1.89552465]
 [0.5        1.60591709]
 [0.6        1.87570248]
 [0.7        0.05909507]
 [0.8        0.13266254]
 [0.9        1.2446593 ]
 [1.         0.47044402]
 [1.09391667 1.70719202]]",0,0.739
8768944929,m,21,english,5,4,english,2024-01-25 10:40:13.581798,False,1,41,sounds\english\audio/english_547.wav,"[[  0.         -84.56242422]
 [  0.1         99.9800097 ]
 [  0.2        -74.27935954]
 [  0.3         89.44673422]
 [  0.4        -91.74996992]
 [  0.5        -18.76785599]
 [  0.6        -51.12732076]
 [  0.7         14.86623417]
 [  0.8         92.41843581]
 [  0.9         81.77291175]
 [  1.          63.1035346 ]
 [  1.09391667  48.67701743]]","[[0.         0.88058973]
 [0.1        1.57875619]
 [0.2        1.10539411]
 [0.3        1.02984743]
 [0.4        1.38707534]
 [0.5        1.26965367]
 [0.6        1.25509145]
 [0.7        1.52290103]
 [0.8        1.30528153]
 [0.9        0.94706354]
 [1.         1.72712252]
 [1.09391667 1.8227726 ]]",1,2.045
8768944929,m,21,english,5,4,english,2024-01-25 10:40:13.581798,False,1,42,sounds\english\audio/english_15.wav,"[[  0.          62.7654015 ]
 [  0.1         72.90081021]
 [  0.2        -27.13813981]
 [  0.3         46.15025154]
 [  0.4         82.82691944]
 [  0.5        -11.77094526]
 [  0.6          7.10565833]
 [  0.7         95.94707331]
 [  0.8         45.63799677]
 [  0.9        -92.00814549]
 [  1.          63.89035204]
 [  1.09391667   2.5390803 ]]","[[0.         0.64461989]
 [0.1        0.87486851]
 [0.2        0.76068215]
 [0.3        1.07697628]
 [0.4        1.41242613]
 [0.5        0.34527471]
 [0.6        1.49976623]
 [0.7        0.60499577]
 [0.8        1.54166411]
 [0.9        0.43181907]
 [1.         1.01946416]
 [1.09391667 1.42183406]]",1,0.539
8768944929,m,21,english,5,4,english,2024-01-25 10:40:13.581798,False,1,43,sounds\english\audio/english_119.wav,"[[  0.          98.57605275]
 [  0.1         48.19569196]
 [  0.2         96.20670949]
 [  0.3        -19.19200662]
 [  0.4         52.83768905]
 [  0.5          1.85412636]
 [  0.6         37.01820811]
 [  0.7         29.79521621]
 [  0.8        -57.64713834]
 [  0.9         35.78201522]
 [  1.          49.99655896]
 [  1.09391667   7.1972062 ]]","[[0.         0.1031314 ]
 [0.1        0.53372727]
 [0.2        1.31286157]
 [0.3        0.99072858]
 [0.4        0.59990508]
 [0.5        1.80726182]
 [0.6        1.09281433]
 [0.7        0.09331625]
 [0.8        0.67056306]
 [0.9        1.21362775]
 [1.         0.49048318]
 [1.09391667 0.07431613]]",0,1.361
8768944929,m,21,english,5,4,english,2024-01-25 10:40:13.581798,False,1,44,sounds\english\audio/english_724.wav,"[[  0.         -56.76875747]
 [  0.1        -86.21406354]
 [  0.2         60.18994207]
 [  0.3        -73.18576328]
 [  0.4          9.02898682]
 [  0.5          0.09152752]
 [  0.6        -45.20734969]
 [  0.7         41.14572905]
 [  0.8         -8.90641818]
 [  0.9         16.12067161]
 [  1.          72.53679682]
 [  1.09391667  17.69672556]]","[[0.         1.98134375]
 [0.1        1.3755847 ]
 [0.2        0.59510503]
 [0.3        0.94085573]
 [0.4        1.58537713]
 [0.5        0.37644638]
 [0.6        0.99166811]
 [0.7        0.69217337]
 [0.8        0.6776497 ]
 [0.9        0.10142147]
 [1.         1.80502318]
 [1.09391667 1.15790189]]",1,1.397
8768944929,m,21,english,5,4,english,2024-01-25 10:40:13.581798,False,1,45,sounds\english\audio/english_155.wav,"[[ 0.00000000e+00  2.16550533e+01]
 [ 1.00000000e-01 -1.67941280e-03]
 [ 2.00000000e-01 -7.75292073e+01]
 [ 3.00000000e-01 -4.49313065e+01]
 [ 4.00000000e-01 -3.37969309e+01]
 [ 5.00000000e-01  4.62285188e+01]
 [ 6.00000000e-01  9.30191022e+01]
 [ 7.00000000e-01  8.06417886e+01]
 [ 8.00000000e-01 -7.64782648e+01]
 [ 9.00000000e-01 -3.59649270e+01]
 [ 1.00000000e+00  9.03757390e+01]
 [ 1.09391667e+00  6.64760030e+01]]","[[0.         0.01570598]
 [0.1        1.76749017]
 [0.2        1.37583653]
 [0.3        0.19365623]
 [0.4        1.34202306]
 [0.5        1.87351349]
 [0.6        1.89118344]
 [0.7        1.25713993]
 [0.8        1.84259347]
 [0.9        0.04007403]
 [1.         1.64837519]
 [1.09391667 1.87071869]]",1,1.406
8768944929,m,21,english,5,4,english,2024-01-25 10:40:13.581798,False,1,46,sounds\english\audio/english_598.wav,"[[  0.          66.59254232]
 [  0.1         -0.16294116]
 [  0.2         87.91623233]
 [  0.3          4.78179149]
 [  0.4         87.27330533]
 [  0.5         15.94205468]
 [  0.6        -57.72302194]
 [  0.7        -11.53545195]
 [  0.8        -97.23766847]
 [  0.9        -89.11050407]
 [  1.          -7.65193873]
 [  1.09391667  -0.117565  ]]","[[0.         1.11503085]
 [0.1        1.29891619]
 [0.2        0.04302605]
 [0.3        1.90355783]
 [0.4        0.66957129]
 [0.5        1.28062406]
 [0.6        0.15067731]
 [0.7        0.37044447]
 [0.8        0.00668091]
 [0.9        1.24076678]
 [1.         0.4751477 ]
 [1.09391667 1.3589293 ]]",0,1.376
8768944929,m,21,english,5,4,english,2024-01-25 10:40:13.581798,False,1,47,sounds\english\audio/english_758.wav,"[[  0.          44.67997232]
 [  0.1         27.10099403]
 [  0.2        -48.30493583]
 [  0.3        -73.5260898 ]
 [  0.4         19.32057449]
 [  0.5        -32.65273306]
 [  0.6        -67.58997162]
 [  0.7        -76.10184919]
 [  0.8         55.20632284]
 [  0.9          3.61347388]
 [  1.         -39.33689268]
 [  1.09391667  44.43004874]]","[[0.         1.19309781]
 [0.1        0.27221696]
 [0.2        0.58591156]
 [0.3        1.06118241]
 [0.4        1.53382291]
 [0.5        1.10934516]
 [0.6        1.53621874]
 [0.7        0.32907917]
 [0.8        0.47500698]
 [0.9        1.81944253]
 [1.         1.02148435]
 [1.09391667 0.12347796]]",1,0.535
8768944929,m,21,english,5,4,english,2024-01-25 10:40:13.581798,False,1,48,sounds\english\audio/english_818.wav,"[[  0.         -53.85801374]
 [  0.1        -93.19772639]
 [  0.2         36.0949282 ]
 [  0.3        -47.55219442]
 [  0.4         17.01171479]
 [  0.5         29.09646454]
 [  0.6         48.56925167]
 [  0.7         44.28631241]
 [  0.8         29.63703739]
 [  0.9        -81.11114494]
 [  1.          36.27214607]
 [  1.09391667  10.20011282]]","[[0.         1.92122954]
 [0.1        0.02572463]
 [0.2        1.37895456]
 [0.3        1.64642832]
 [0.4        0.12526848]
 [0.5        1.76409188]
 [0.6        0.03435044]
 [0.7        1.81061652]
 [0.8        0.88793726]
 [0.9        1.44811096]
 [1.         1.53494249]
 [1.09391667 1.88236128]]",1,0.151
8768944929,m,21,english,5,4,english,2024-01-25 10:40:13.581798,False,1,49,sounds\english\audio/english_759.wav,"[[  0.         -17.33169853]
 [  0.1         46.34111356]
 [  0.2        -71.7209183 ]
 [  0.3        -52.63168455]
 [  0.4        -68.41292565]
 [  0.5          0.91746702]
 [  0.6         12.19475856]
 [  0.7         76.90509926]
 [  0.8         46.23586418]
 [  0.9         20.85455152]
 [  1.         -48.8693925 ]
 [  1.09391667  -3.22971396]]","[[0.         1.81535326]
 [0.1        1.35139774]
 [0.2        0.5699054 ]
 [0.3        1.64756314]
 [0.4        0.90731091]
 [0.5        0.92295566]
 [0.6        0.56476821]
 [0.7        1.11964502]
 [0.8        0.03868528]
 [0.9        0.66706937]
 [1.         1.91928995]
 [1.09391667 0.4347557 ]]",1,1.344
8768944929,m,21,english,5,4,english,2024-01-25 10:40:13.581798,False,1,50,sounds\english\audio/english_555.wav,"[[  0.         -34.01174322]
 [  0.1        -25.89446117]
 [  0.2         75.37641555]
 [  0.3          3.6750175 ]
 [  0.4        -77.72739176]
 [  0.5        -17.06538868]
 [  0.6        -37.567139  ]
 [  0.7        -79.94552452]
 [  0.8         29.48505151]
 [  0.9        -58.857953  ]
 [  1.         -46.0054019 ]
 [  1.09391667 -89.97133458]]","[[0.         1.1718484 ]
 [0.1        1.62544238]
 [0.2        1.85861965]
 [0.3        1.93143492]
 [0.4        0.30173375]
 [0.5        1.28363733]
 [0.6        0.51060309]
 [0.7        0.80092252]
 [0.8        1.44732027]
 [0.9        0.65157835]
 [1.         1.65986599]
 [1.09391667 1.34311871]]",0,1.826
8768944929,m,21,english,5,4,english,2024-01-25 10:40:13.581798,False,1,51,sounds\english\audio/english_532.wav,"[[  0.          60.85707462]
 [  0.1         13.03416057]
 [  0.2        -48.45411351]
 [  0.3         16.77450497]
 [  0.4         -7.6707259 ]
 [  0.5        -84.48187603]
 [  0.6         -5.50880589]
 [  0.7        -53.77002933]
 [  0.8         11.75325856]
 [  0.9         41.28277306]
 [  1.          14.79272929]
 [  1.09391667 -15.59183139]]","[[0.         0.2444237 ]
 [0.1        1.53493401]
 [0.2        1.45787945]
 [0.3        0.11915761]
 [0.4        0.99575033]
 [0.5        1.34203353]
 [0.6        0.42679286]
 [0.7        1.97733711]
 [0.8        0.79534295]
 [0.9        0.9990701 ]
 [1.         1.48802156]
 [1.09391667 0.74270144]]",0,1.482
8768944929,m,21,english,5,4,english,2024-01-25 10:40:13.581798,False,1,52,sounds\english\audio/english_643.wav,"[[  0.         -28.71923325]
 [  0.1        -41.33033256]
 [  0.2         14.60836996]
 [  0.3         24.53811626]
 [  0.4          7.82813988]
 [  0.5         31.13275889]
 [  0.6          9.00223054]
 [  0.7         65.97905996]
 [  0.8          3.77456402]
 [  0.9         20.70026816]
 [  1.          98.54762674]
 [  1.09391667  74.26815163]]","[[0.         0.05998695]
 [0.1        1.69509995]
 [0.2        1.2304272 ]
 [0.3        1.46168191]
 [0.4        1.6429412 ]
 [0.5        1.01913146]
 [0.6        0.81472246]
 [0.7        0.51197957]
 [0.8        0.97348527]
 [0.9        0.6370084 ]
 [1.         0.00532383]
 [1.09391667 1.21089253]]",0,0.718
8768944929,m,21,english,5,4,english,2024-01-25 10:40:13.581798,False,1,53,sounds\english\audio/english_600.wav,"[[  0.          54.02401202]
 [  0.1         52.55241108]
 [  0.2        -17.52140944]
 [  0.3        -39.51158997]
 [  0.4        -76.99480414]
 [  0.5        -69.00053843]
 [  0.6         69.67412094]
 [  0.7         42.48437255]
 [  0.8        -15.33622164]
 [  0.9        -55.53099045]
 [  1.         -56.79297969]
 [  1.09391667  25.01258484]]","[[0.         1.74963926]
 [0.1        1.86361288]
 [0.2        1.08718427]
 [0.3        1.33817406]
 [0.4        0.48398336]
 [0.5        0.58536734]
 [0.6        1.17578893]
 [0.7        1.61345559]
 [0.8        1.78194792]
 [0.9        0.88901516]
 [1.         1.65574545]
 [1.09391667 1.81372246]]",1,0.643
8768944929,m,21,english,5,4,english,2024-01-25 10:40:13.581798,False,1,54,sounds\english\audio/english_284.wav,"[[  0.         -64.32327457]
 [  0.1        -67.89025783]
 [  0.2         63.39804367]
 [  0.3        -47.8895651 ]
 [  0.4         27.68105964]
 [  0.5         58.35244252]
 [  0.6        -24.74070708]
 [  0.7        -82.19387926]
 [  0.8        -97.32479033]
 [  0.9         99.46728609]
 [  1.         -92.70862536]
 [  1.09391667  47.98339035]]","[[0.         0.91308262]
 [0.1        0.76791564]
 [0.2        0.83095971]
 [0.3        1.79742446]
 [0.4        1.18503846]
 [0.5        1.29913938]
 [0.6        1.72192785]
 [0.7        1.7387844 ]
 [0.8        1.05930336]
 [0.9        0.10150249]
 [1.         0.67687392]
 [1.09391667 1.83996488]]",0,0.647
8768944929,m,21,english,5,4,english,2024-01-25 10:40:13.581798,False,1,55,sounds\english\audio/english_20.wav,"[[  0.          63.0600358 ]
 [  0.1        -51.01536648]
 [  0.2        -79.38394235]
 [  0.3         18.37962799]
 [  0.4        -93.10550864]
 [  0.5        -34.41615075]
 [  0.6        -59.60856077]
 [  0.7         -5.91904512]
 [  0.8        -91.08119021]
 [  0.9        -45.35675883]
 [  1.         -19.89168543]
 [  1.09391667  49.76773146]]","[[0.         0.86275217]
 [0.1        0.66446023]
 [0.2        0.76617276]
 [0.3        1.08107646]
 [0.4        0.88129698]
 [0.5        1.16389527]
 [0.6        1.73817265]
 [0.7        1.94089825]
 [0.8        0.88467755]
 [0.9        1.32628719]
 [1.         0.31006302]
 [1.09391667 0.42478041]]",0,1.311
8768944929,m,21,english,5,4,english,2024-01-25 10:40:13.581798,False,1,56,sounds\english\audio/english_916.wav,"[[  0.         -75.50139917]
 [  0.1         87.74693423]
 [  0.2         31.07453941]
 [  0.3        -54.74808786]
 [  0.4         22.76610273]
 [  0.5         11.00268218]
 [  0.6         51.91753819]
 [  0.7         14.6363884 ]
 [  0.8         81.83938772]
 [  0.9         -6.69300519]
 [  1.          48.70423214]
 [  1.09391667 -75.62542255]]","[[0.         0.33116573]
 [0.1        0.79085074]
 [0.2        1.46577933]
 [0.3        0.46369868]
 [0.4        1.13985244]
 [0.5        0.7460079 ]
 [0.6        0.81938326]
 [0.7        1.36585166]
 [0.8        0.74190137]
 [0.9        1.01772596]
 [1.         1.52043816]
 [1.09391667 1.80998289]]",1,1.208
8768944929,m,21,english,5,4,english,2024-01-25 10:40:13.581798,False,1,57,sounds\english\audio/english_418.wav,"[[  0.          17.48179392]
 [  0.1        -20.93259057]
 [  0.2         38.48191575]
 [  0.3        -43.04758346]
 [  0.4        -27.49631219]
 [  0.5        -43.30662093]
 [  0.6        -11.80067145]
 [  0.7        -65.69750473]
 [  0.8         36.09713106]
 [  0.9        -89.16917769]
 [  1.         -11.53730863]
 [  1.09391667  91.60971419]]","[[0.         1.16767435]
 [0.1        1.12895723]
 [0.2        0.3034601 ]
 [0.3        1.48058882]
 [0.4        0.85133692]
 [0.5        1.76317004]
 [0.6        0.40561242]
 [0.7        0.69119528]
 [0.8        0.70403422]
 [0.9        0.50785509]
 [1.         0.15277714]
 [1.09391667 0.42464397]]",0,0.499
8768944929,m,21,english,5,4,english,2024-01-25 10:40:13.581798,False,1,58,sounds\english\audio/english_517.wav,"[[  0.          66.65099922]
 [  0.1        -25.70388075]
 [  0.2        -22.37896652]
 [  0.3         -6.57908025]
 [  0.4         14.90197081]
 [  0.5         28.13310888]
 [  0.6         67.72161666]
 [  0.7        -79.77738636]
 [  0.8         -9.62789869]
 [  0.9        -43.36595112]
 [  1.         -65.22090713]
 [  1.09391667  93.99451349]]","[[0.         0.14059347]
 [0.1        0.04284068]
 [0.2        0.61477249]
 [0.3        0.586151  ]
 [0.4        0.82467301]
 [0.5        1.4846696 ]
 [0.6        1.87560286]
 [0.7        0.86888635]
 [0.8        0.65753642]
 [0.9        1.72637139]
 [1.         0.00479054]
 [1.09391667 1.63350936]]",1,1.645
8768944929,m,21,english,5,4,english,2024-01-25 10:40:13.581798,False,1,59,sounds\english\audio/english_60.wav,"[[  0.          10.59186776]
 [  0.1         40.50364305]
 [  0.2        -14.0687602 ]
 [  0.3        -65.99656217]
 [  0.4         15.70320652]
 [  0.5        -30.42091681]
 [  0.6        -42.76109802]
 [  0.7         79.72211157]
 [  0.8        -76.06160398]
 [  0.9        -29.21518782]
 [  1.         -57.95886313]
 [  1.09391667  -5.07129897]]","[[0.         1.18276714]
 [0.1        1.35618457]
 [0.2        0.82779989]
 [0.3        0.57077879]
 [0.4        0.07108592]
 [0.5        0.69784791]
 [0.6        1.83211062]
 [0.7        1.14011333]
 [0.8        1.5550445 ]
 [0.9        0.72383993]
 [1.         1.31578319]
 [1.09391667 0.46327009]]",0,0.336
8768944929,m,21,english,5,4,english,2024-01-25 10:40:13.581798,False,1,60,sounds\english\audio/english_349.wav,"[[  0.          78.21791369]
 [  0.1          9.4630269 ]
 [  0.2         -3.29994587]
 [  0.3         13.5324371 ]
 [  0.4         88.19527441]
 [  0.5          1.7504357 ]
 [  0.6        -42.50120826]
 [  0.7        -43.9320192 ]
 [  0.8        -72.26393539]
 [  0.9        -37.61612777]
 [  1.           9.822435  ]
 [  1.09391667 -46.39218801]]","[[0.         0.37053366]
 [0.1        0.06190409]
 [0.2        0.20284396]
 [0.3        0.23510746]
 [0.4        1.05287262]
 [0.5        1.51424362]
 [0.6        0.74446718]
 [0.7        1.35303028]
 [0.8        1.8690989 ]
 [0.9        1.42604643]
 [1.         1.6879771 ]
 [1.09391667 0.80624402]]",0,0.587
8768944929,m,21,english,5,4,english,2024-01-25 10:40:13.581798,False,1,61,sounds\english\audio/english_487.wav,"[[  0.          83.9506825 ]
 [  0.1        -73.0195282 ]
 [  0.2         98.61971221]
 [  0.3         66.30731889]
 [  0.4         22.93795287]
 [  0.5        -81.70494499]
 [  0.6        -70.3149209 ]
 [  0.7        -54.70127166]
 [  0.8        -60.23299302]
 [  0.9         90.25511794]
 [  1.          63.36569824]
 [  1.09391667  47.37946456]]","[[0.         1.20569128]
 [0.1        0.75422979]
 [0.2        0.70340278]
 [0.3        1.25861502]
 [0.4        1.76994668]
 [0.5        1.09959608]
 [0.6        1.93360086]
 [0.7        0.32077076]
 [0.8        0.62494976]
 [0.9        1.062642  ]
 [1.         1.45529395]
 [1.09391667 1.97435305]]",0,0.471
8768944929,m,21,english,5,4,english,2024-01-25 10:40:13.581798,False,1,62,sounds\english\audio/english_428.wav,"[[  0.          81.83092524]
 [  0.1        -80.13069751]
 [  0.2        -11.65632902]
 [  0.3        -46.08084266]
 [  0.4          3.29741478]
 [  0.5         38.2144639 ]
 [  0.6        -36.34649143]
 [  0.7        -64.94911042]
 [  0.8         55.28808141]
 [  0.9        -85.65631623]
 [  1.          45.03584187]
 [  1.09391667 -22.28745039]]","[[0.         1.65195738]
 [0.1        1.50342219]
 [0.2        1.06152039]
 [0.3        0.87273268]
 [0.4        1.30041173]
 [0.5        1.27181021]
 [0.6        1.2829939 ]
 [0.7        0.80379216]
 [0.8        0.54976242]
 [0.9        1.4846347 ]
 [1.         0.86531381]
 [1.09391667 0.63375774]]",0,0.34
8768944929,m,21,english,5,4,english,2024-01-25 10:40:13.581798,False,1,63,sounds\english\audio/english_220.wav,"[[  0.         -71.93993547]
 [  0.1         -1.62152464]
 [  0.2         50.61668834]
 [  0.3        -81.57207342]
 [  0.4         25.23040328]
 [  0.5        -31.83310786]
 [  0.6        -66.5422469 ]
 [  0.7         42.39816589]
 [  0.8          6.21411894]
 [  0.9         64.95547395]
 [  1.         -81.60559831]
 [  1.09391667 -34.61937884]]","[[0.         1.17959242]
 [0.1        1.60180584]
 [0.2        0.65172432]
 [0.3        1.31776936]
 [0.4        0.27212312]
 [0.5        0.63067237]
 [0.6        0.24736815]
 [0.7        1.98971363]
 [0.8        1.78438062]
 [0.9        0.78537094]
 [1.         1.30952979]
 [1.09391667 0.30452812]]",1,0.435
8768944929,m,21,english,5,4,english,2024-01-25 10:40:13.581798,False,1,64,sounds\english\audio/english_777.wav,"[[  0.          77.7553974 ]
 [  0.1         88.6430253 ]
 [  0.2          5.54652951]
 [  0.3         11.99584501]
 [  0.4        -44.68936207]
 [  0.5        -18.49311275]
 [  0.6        -54.40171159]
 [  0.7        -57.33128005]
 [  0.8         14.03341313]
 [  0.9         18.82152763]
 [  1.          22.39033388]
 [  1.09391667  52.67090174]]","[[0.         0.31196703]
 [0.1        0.69611643]
 [0.2        0.87210572]
 [0.3        1.73935874]
 [0.4        0.75260602]
 [0.5        0.63970678]
 [0.6        1.12530391]
 [0.7        1.17239371]
 [0.8        0.53671495]
 [0.9        1.4475438 ]
 [1.         1.78069419]
 [1.09391667 0.83009886]]",1,1.696
8768944929,m,21,english,5,4,english,2024-01-25 10:40:13.581798,False,1,65,sounds\english\audio/english_194.wav,"[[  0.          56.78701541]
 [  0.1        -17.75053988]
 [  0.2         33.25886054]
 [  0.3        -36.30427417]
 [  0.4         87.2538064 ]
 [  0.5        -35.38798336]
 [  0.6        -16.86822867]
 [  0.7          3.74513195]
 [  0.8        -97.03953589]
 [  0.9        -34.95000954]
 [  1.          41.79469937]
 [  1.09391667 -99.09961294]]","[[0.         1.42004802]
 [0.1        0.01035796]
 [0.2        1.01435424]
 [0.3        0.10390295]
 [0.4        0.79219746]
 [0.5        0.28919857]
 [0.6        1.14065301]
 [0.7        1.55329947]
 [0.8        1.8735666 ]
 [0.9        1.68004219]
 [1.         0.7970796 ]
 [1.09391667 1.89727803]]",0,2.552
8768944929,m,21,english,5,4,english,2024-01-25 10:40:13.581798,False,1,66,sounds\english\audio/english_73.wav,"[[  0.          38.52625464]
 [  0.1         17.92930882]
 [  0.2        -38.01807157]
 [  0.3         85.72989632]
 [  0.4         64.07938426]
 [  0.5         35.13086045]
 [  0.6        -51.81368524]
 [  0.7         67.25389113]
 [  0.8        -86.27446695]
 [  0.9        -27.14939681]
 [  1.          96.8565589 ]
 [  1.09391667  51.55403573]]","[[0.         1.16533306]
 [0.1        0.44885559]
 [0.2        0.25634763]
 [0.3        0.76435582]
 [0.4        0.66279224]
 [0.5        0.74817845]
 [0.6        1.61498224]
 [0.7        0.87077327]
 [0.8        1.49803977]
 [0.9        1.76361979]
 [1.         0.06686871]
 [1.09391667 1.63588343]]",1,0.636
8768944929,m,21,english,5,4,english,2024-01-25 10:40:13.581798,False,1,67,sounds\english\audio/english_547.wav,"[[  0.         -84.56242422]
 [  0.1         99.9800097 ]
 [  0.2        -74.27935954]
 [  0.3         89.44673422]
 [  0.4        -91.74996992]
 [  0.5        -18.76785599]
 [  0.6        -51.12732076]
 [  0.7         14.86623417]
 [  0.8         92.41843581]
 [  0.9         81.77291175]
 [  1.          63.1035346 ]
 [  1.09391667  48.67701743]]","[[0.         0.88058973]
 [0.1        1.57875619]
 [0.2        1.10539411]
 [0.3        1.02984743]
 [0.4        1.38707534]
 [0.5        1.26965367]
 [0.6        1.25509145]
 [0.7        1.52290103]
 [0.8        1.30528153]
 [0.9        0.94706354]
 [1.         1.72712252]
 [1.09391667 1.8227726 ]]",1,0.616
8768944929,m,21,english,5,4,english,2024-01-25 10:40:13.581798,False,1,68,sounds\english\audio/english_948.wav,"[[  0.          70.08788288]
 [  0.1          9.51278832]
 [  0.2        -59.8724706 ]
 [  0.3         -7.8364385 ]
 [  0.4        -78.88155559]
 [  0.5         68.60860792]
 [  0.6        -33.65925785]
 [  0.7        -55.41448182]
 [  0.8         50.68602882]
 [  0.9         61.97320966]
 [  1.         -81.646441  ]
 [  1.09391667 -76.82315441]]","[[0.         1.73905021]
 [0.1        0.0665574 ]
 [0.2        1.97257093]
 [0.3        0.54442479]
 [0.4        0.88565994]
 [0.5        1.07148871]
 [0.6        0.5392424 ]
 [0.7        0.22870417]
 [0.8        0.62800338]
 [0.9        0.19317235]
 [1.         0.59223908]
 [1.09391667 1.64165992]]",0,1.46
8768944929,m,21,english,5,4,english,2024-01-25 10:40:13.581798,False,1,69,sounds\english\audio/english_679.wav,"[[  0.          76.35427363]
 [  0.1        -50.0846889 ]
 [  0.2         79.70250944]
 [  0.3         81.01080403]
 [  0.4         83.79560208]
 [  0.5         50.36804925]
 [  0.6         40.56025904]
 [  0.7         61.04999163]
 [  0.8         30.26013895]
 [  0.9         -2.00132525]
 [  1.          61.28738914]
 [  1.09391667 -32.08611222]]","[[0.         0.61802324]
 [0.1        0.37453971]
 [0.2        0.85876035]
 [0.3        1.8566793 ]
 [0.4        1.28706844]
 [0.5        1.04354471]
 [0.6        1.21986253]
 [0.7        0.6187735 ]
 [0.8        1.74062644]
 [0.9        0.86694999]
 [1.         1.26165824]
 [1.09391667 0.66731925]]",0,1.011
8768944929,m,21,english,5,4,english,2024-01-25 10:40:13.581798,False,1,70,sounds\english\audio/english_45.wav,"[[  0.         -55.14721801]
 [  0.1         57.09452307]
 [  0.2         -1.62499195]
 [  0.3        -13.00347301]
 [  0.4         13.64765964]
 [  0.5        -16.23645369]
 [  0.6         12.80202188]
 [  0.7         18.490615  ]
 [  0.8        -32.73911513]
 [  0.9         72.91810524]
 [  1.         -39.54069726]
 [  1.09391667   1.32954538]]","[[0.         0.29299266]
 [0.1        0.9247964 ]
 [0.2        1.0494158 ]
 [0.3        1.81345336]
 [0.4        1.7292362 ]
 [0.5        0.3059786 ]
 [0.6        1.60566624]
 [0.7        1.60640041]
 [0.8        0.6923723 ]
 [0.9        1.31031073]
 [1.         0.9624361 ]
 [1.09391667 1.523717  ]]",0,0.475
8768944929,m,21,english,5,4,english,2024-01-25 10:40:13.581798,False,1,71,sounds\english\audio/english_635.wav,"[[  0.         -41.6388758 ]
 [  0.1        -11.25355895]
 [  0.2         29.06457521]
 [  0.3         33.43535693]
 [  0.4        -80.91767575]
 [  0.5         27.23293816]
 [  0.6         37.31603404]
 [  0.7        -20.25902841]
 [  0.8         91.76121844]
 [  0.9         18.10072646]
 [  1.         -34.91216452]
 [  1.09391667  73.01340773]]","[[0.         1.40170403]
 [0.1        0.13720713]
 [0.2        0.8768091 ]
 [0.3        0.4792802 ]
 [0.4        1.34026296]
 [0.5        0.71042457]
 [0.6        1.12917353]
 [0.7        1.54130177]
 [0.8        1.57938519]
 [0.9        1.51480287]
 [1.         1.85110037]
 [1.09391667 0.29889363]]",0,0.312
8768944929,m,21,english,5,4,english,2024-01-25 10:40:13.581798,False,1,72,sounds\english\audio/english_826.wav,"[[  0.         -48.66820204]
 [  0.1         15.87758798]
 [  0.2        -81.06156605]
 [  0.3        -38.67543271]
 [  0.4          8.70050458]
 [  0.5        -12.50279128]
 [  0.6         53.18940921]
 [  0.7         25.51770895]
 [  0.8         -2.14290614]
 [  0.9         59.43969754]
 [  1.          36.73554264]
 [  1.09391667  99.18694211]]","[[0.         0.50881221]
 [0.1        1.7988984 ]
 [0.2        0.35571274]
 [0.3        0.88871824]
 [0.4        0.81611388]
 [0.5        1.15396637]
 [0.6        0.06242761]
 [0.7        0.35293371]
 [0.8        1.13493967]
 [0.9        1.56070885]
 [1.         1.2686095 ]
 [1.09391667 1.14436626]]",0,0.309
8768944929,m,21,english,5,4,english,2024-01-25 10:40:13.581798,False,1,73,sounds\english\audio/english_804.wav,"[[  0.          12.60054447]
 [  0.1        -24.04730937]
 [  0.2        -96.55390316]
 [  0.3         -0.0991441 ]
 [  0.4         -4.22567636]
 [  0.5         70.60990728]
 [  0.6        -70.63369163]
 [  0.7          9.74055236]
 [  0.8         30.38077192]
 [  0.9        -59.11296325]
 [  1.          43.99527933]
 [  1.09391667  50.55732952]]","[[0.         1.79447267]
 [0.1        0.19342468]
 [0.2        1.90657737]
 [0.3        0.96962123]
 [0.4        1.3580225 ]
 [0.5        1.75244202]
 [0.6        1.0415074 ]
 [0.7        0.51929492]
 [0.8        0.12110661]
 [0.9        0.62938559]
 [1.         1.09820629]
 [1.09391667 0.96550638]]",1,0.602
8768944929,m,21,english,5,4,english,2024-01-25 10:40:13.581798,False,1,74,sounds\english\audio/english_59.wav,"[[  0.          13.6818357 ]
 [  0.1        -62.28772111]
 [  0.2         49.12418905]
 [  0.3        -11.37021527]
 [  0.4        -54.18333873]
 [  0.5         89.00177849]
 [  0.6        -39.13145847]
 [  0.7         -8.40184911]
 [  0.8        -34.91016987]
 [  0.9         92.47037208]
 [  1.          91.56160698]
 [  1.09391667 -64.52293265]]","[[0.         1.39102809]
 [0.1        1.7641323 ]
 [0.2        1.93370096]
 [0.3        1.41546104]
 [0.4        1.8712645 ]
 [0.5        1.58142361]
 [0.6        1.31038649]
 [0.7        1.79881342]
 [0.8        0.00761053]
 [0.9        0.77279167]
 [1.         0.86326769]
 [1.09391667 1.19458968]]",0,0.792
8768944929,m,21,english,5,4,english,2024-01-25 10:40:13.581798,False,1,75,sounds\english\audio/english_298.wav,"[[  0.          -6.27155647]
 [  0.1         48.93550058]
 [  0.2         13.84285521]
 [  0.3         97.15977737]
 [  0.4         79.76715629]
 [  0.5        -41.84976134]
 [  0.6         11.37121721]
 [  0.7          1.57706146]
 [  0.8         14.4430887 ]
 [  0.9         22.32733409]
 [  1.           4.8370979 ]
 [  1.09391667  33.89493251]]","[[0.         1.61849335]
 [0.1        0.35596491]
 [0.2        0.30396033]
 [0.3        1.90931563]
 [0.4        0.00976952]
 [0.5        1.7369795 ]
 [0.6        1.54006257]
 [0.7        0.39135251]
 [0.8        1.45560385]
 [0.9        1.43660254]
 [1.         1.96857338]
 [1.09391667 1.91654431]]",1,0.359
8768944929,m,21,english,5,4,english,2024-01-25 10:40:13.581798,False,1,76,sounds\english\audio/english_151.wav,"[[  0.         -96.58356516]
 [  0.1         53.33507439]
 [  0.2         23.26881474]
 [  0.3         89.03249778]
 [  0.4        -38.82793041]
 [  0.5        -36.66004779]
 [  0.6         67.28889671]
 [  0.7         -0.40239481]
 [  0.8        -91.46427785]
 [  0.9         42.06624713]
 [  1.         -44.58654352]
 [  1.09391667  65.09222406]]","[[0.         1.19663116]
 [0.1        0.02049529]
 [0.2        0.86701839]
 [0.3        0.68926078]
 [0.4        0.60287098]
 [0.5        1.21623164]
 [0.6        0.80619928]
 [0.7        0.32656555]
 [0.8        1.24233336]
 [0.9        0.88095947]
 [1.         1.51580141]
 [1.09391667 0.37134413]]",0,0.223
8768944929,m,21,english,5,4,english,2024-01-25 10:40:13.581798,False,1,77,sounds\english\audio/english_475.wav,"[[  0.          29.80961577]
 [  0.1         48.86857013]
 [  0.2        -75.87963709]
 [  0.3         30.73642142]
 [  0.4        -47.77384215]
 [  0.5         95.74069733]
 [  0.6         49.89153758]
 [  0.7        -93.96412935]
 [  0.8        -13.00332235]
 [  0.9         80.99885276]
 [  1.         -12.77273084]
 [  1.09391667  -3.9803657 ]]","[[0.         0.43821818]
 [0.1        0.91916023]
 [0.2        1.43870603]
 [0.3        0.67232978]
 [0.4        0.927705  ]
 [0.5        0.04190462]
 [0.6        1.51758055]
 [0.7        1.81908107]
 [0.8        1.60949708]
 [0.9        1.9985333 ]
 [1.         1.07792874]
 [1.09391667 1.55358956]]",1,0.069
8768944929,m,21,english,5,4,english,2024-01-25 10:40:13.581798,False,1,78,sounds\english\audio/english_246.wav,"[[  0.          65.19555702]
 [  0.1        -88.31116696]
 [  0.2        -87.15645837]
 [  0.3         57.84934166]
 [  0.4        -76.45557784]
 [  0.5         66.32688278]
 [  0.6         93.44738027]
 [  0.7         54.7923908 ]
 [  0.8         -1.38437059]
 [  0.9          5.22264847]
 [  1.         -11.85909484]
 [  1.09391667  65.00290812]]","[[0.         1.04626937]
 [0.1        1.63597079]
 [0.2        1.95419498]
 [0.3        0.56872665]
 [0.4        0.40309221]
 [0.5        1.93282921]
 [0.6        1.28213971]
 [0.7        1.70127241]
 [0.8        0.15014799]
 [0.9        1.21649106]
 [1.         1.48942771]
 [1.09391667 0.35768018]]",0,0.36
8768944929,m,21,english,5,4,english,2024-01-25 10:40:13.581798,False,1,79,sounds\english\audio/english_204.wav,"[[  0.         -54.18548322]
 [  0.1        -11.27218157]
 [  0.2         57.70913134]
 [  0.3        -85.27797026]
 [  0.4         28.61054009]
 [  0.5        -36.71816677]
 [  0.6        -27.72446487]
 [  0.7         14.69142801]
 [  0.8          9.61746044]
 [  0.9         22.67127582]
 [  1.          69.36328148]
 [  1.09391667 -44.4283226 ]]","[[0.         0.4935822 ]
 [0.1        1.37686427]
 [0.2        1.17627269]
 [0.3        1.14645494]
 [0.4        1.61303053]
 [0.5        0.72559221]
 [0.6        1.95000364]
 [0.7        0.06695508]
 [0.8        1.52094915]
 [0.9        0.41034945]
 [1.         0.4470276 ]
 [1.09391667 1.93225144]]",0,0.291
8768944929,m,21,english,5,4,english,2024-01-25 10:40:13.581798,False,1,80,sounds\english\audio/english_586.wav,"[[  0.          19.9692207 ]
 [  0.1         22.22606315]
 [  0.2         44.76083147]
 [  0.3         30.56518658]
 [  0.4         70.50807044]
 [  0.5        -99.40073456]
 [  0.6        -34.76596453]
 [  0.7         -7.2574162 ]
 [  0.8        -34.51491792]
 [  0.9         40.55984504]
 [  1.          43.92860722]
 [  1.09391667  97.81958787]]","[[0.00000000e+00 1.34383916e+00]
 [1.00000000e-01 1.96847498e-02]
 [2.00000000e-01 1.32604329e+00]
 [3.00000000e-01 4.57164903e-01]
 [4.00000000e-01 8.62218031e-01]
 [5.00000000e-01 1.19900353e+00]
 [6.00000000e-01 1.85917609e+00]
 [7.00000000e-01 5.99282433e-01]
 [8.00000000e-01 4.20457526e-01]
 [9.00000000e-01 1.44903206e+00]
 [1.00000000e+00 5.69773480e-04]
 [1.09391667e+00 1.67148022e+00]]",1,0.233
8768944929,m,21,english,5,4,english,2024-01-25 10:40:13.581798,False,1,81,sounds\english\audio/english_295.wav,"[[  0.         -21.33588045]
 [  0.1         28.18111365]
 [  0.2        -11.21795953]
 [  0.3        -75.82203472]
 [  0.4         36.75980824]
 [  0.5         82.52508149]
 [  0.6         -2.95672331]
 [  0.7         78.98755658]
 [  0.8         34.02541903]
 [  0.9         40.25185798]
 [  1.         -23.49198504]
 [  1.09391667  43.4619086 ]]","[[0.         0.64007693]
 [0.1        0.36210443]
 [0.2        0.97510536]
 [0.3        1.22570619]
 [0.4        1.08813481]
 [0.5        1.82668288]
 [0.6        0.03453598]
 [0.7        1.07945409]
 [0.8        0.06380248]
 [0.9        0.46673817]
 [1.         0.55804019]
 [1.09391667 0.67911388]]",1,0.749
8768944929,m,21,english,5,4,english,2024-01-25 10:40:13.581798,False,1,82,sounds\english\audio/english_76.wav,"[[  0.          24.53692124]
 [  0.1          4.74525032]
 [  0.2        -11.73085706]
 [  0.3        -67.51409973]
 [  0.4         18.72894419]
 [  0.5        -87.08655703]
 [  0.6          8.86378377]
 [  0.7        -88.70159666]
 [  0.8        -19.63742154]
 [  0.9        -28.01043875]
 [  1.         -30.77636244]
 [  1.09391667 -23.02477644]]","[[0.         0.00919351]
 [0.1        1.89780668]
 [0.2        1.28424019]
 [0.3        0.97330389]
 [0.4        1.57704982]
 [0.5        0.6100989 ]
 [0.6        0.1303689 ]
 [0.7        1.07980698]
 [0.8        0.36042094]
 [0.9        1.46264173]
 [1.         0.93716424]
 [1.09391667 0.27656628]]",0,0.838
8768944929,m,21,english,5,4,english,2024-01-25 10:40:13.581798,False,1,83,sounds\english\audio/english_940.wav,"[[  0.         -74.78707904]
 [  0.1        -17.41948052]
 [  0.2         18.32757183]
 [  0.3         49.59676146]
 [  0.4         89.11302511]
 [  0.5        -54.90271493]
 [  0.6          5.52128104]
 [  0.7          6.34300122]
 [  0.8        -52.23900499]
 [  0.9        -91.70083374]
 [  1.         -59.86037194]
 [  1.09391667  44.21269836]]","[[0.         1.32849745]
 [0.1        0.12464251]
 [0.2        1.60919877]
 [0.3        1.26515186]
 [0.4        0.36425632]
 [0.5        0.18773625]
 [0.6        1.95544511]
 [0.7        0.05018426]
 [0.8        0.91238744]
 [0.9        1.89571163]
 [1.         1.52579837]
 [1.09391667 0.42550386]]",0,0.841
8768944929,m,21,english,5,4,english,2024-01-25 10:40:13.581798,False,1,84,sounds\english\audio/english_229.wav,"[[  0.         -79.04304689]
 [  0.1        -33.27907889]
 [  0.2        -48.38559405]
 [  0.3        -41.35801628]
 [  0.4        -26.02502446]
 [  0.5         13.55019155]
 [  0.6         18.26415136]
 [  0.7        -44.56995302]
 [  0.8          9.70532855]
 [  0.9        -87.31769778]
 [  1.          71.16611241]
 [  1.09391667 -73.56487105]]","[[0.         0.75524208]
 [0.1        1.36191913]
 [0.2        0.27826927]
 [0.3        1.07720363]
 [0.4        1.01002639]
 [0.5        0.44849721]
 [0.6        0.65469054]
 [0.7        0.24060095]
 [0.8        1.46400581]
 [0.9        0.19595273]
 [1.         1.05591567]
 [1.09391667 1.79159402]]",1,0.529
8768944929,m,21,english,5,4,english,2024-01-25 10:40:13.581798,False,1,85,sounds\english\audio/english_411.wav,"[[  0.         -19.70973195]
 [  0.1         35.06337641]
 [  0.2        -47.07660398]
 [  0.3        -98.68669902]
 [  0.4          2.91607837]
 [  0.5         -8.99732851]
 [  0.6         57.60803457]
 [  0.7          1.53142899]
 [  0.8        -32.18919875]
 [  0.9        -92.02235415]
 [  1.          33.72578798]
 [  1.09391667  81.16053662]]","[[0.         0.11468893]
 [0.1        1.30305137]
 [0.2        1.23342094]
 [0.3        0.59067951]
 [0.4        0.74798004]
 [0.5        0.55407034]
 [0.6        1.68778529]
 [0.7        0.22674115]
 [0.8        0.93004634]
 [0.9        1.85827411]
 [1.         0.07029884]
 [1.09391667 1.14058722]]",1,0.535
8768944929,m,21,english,5,4,english,2024-01-25 10:40:13.581798,False,1,86,sounds\english\audio/english_986.wav,"[[  0.          66.66952336]
 [  0.1         96.9530251 ]
 [  0.2         75.3477354 ]
 [  0.3        -56.79707668]
 [  0.4         68.50410973]
 [  0.5          5.80156778]
 [  0.6        -59.00857509]
 [  0.7         23.78788766]
 [  0.8          8.31255478]
 [  0.9        -23.40072537]
 [  1.          36.6022418 ]
 [  1.09391667 -51.87443186]]","[[0.         1.97934099]
 [0.1        1.29460225]
 [0.2        1.53421825]
 [0.3        1.45039514]
 [0.4        0.98893675]
 [0.5        1.73927101]
 [0.6        1.32684672]
 [0.7        1.65077043]
 [0.8        1.05904427]
 [0.9        0.79622744]
 [1.         1.94329627]
 [1.09391667 1.45912014]]",1,0.26
8768944929,m,21,english,5,4,english,2024-01-25 10:40:13.581798,False,1,87,sounds\english\audio/english_878.wav,"[[  0.         -93.54916279]
 [  0.1         34.21390888]
 [  0.2        -58.82294687]
 [  0.3         10.18768241]
 [  0.4        -49.52140337]
 [  0.5        -71.54422434]
 [  0.6         58.16145178]
 [  0.7        -74.84169027]
 [  0.8        -47.28121675]
 [  0.9         17.04020125]
 [  1.         -15.84668216]
 [  1.09391667  15.68838881]]","[[0.         0.97267647]
 [0.1        0.02715416]
 [0.2        0.28996928]
 [0.3        1.11808931]
 [0.4        1.8324871 ]
 [0.5        1.79950878]
 [0.6        1.12806689]
 [0.7        0.34574191]
 [0.8        1.0964165 ]
 [0.9        0.06170949]
 [1.         1.1582617 ]
 [1.09391667 0.39253234]]",1,0.458
8768944929,m,21,english,5,4,english,2024-01-25 10:40:13.581798,False,1,88,sounds\english\audio/english_805.wav,"[[  0.          19.24000096]
 [  0.1        -57.56428934]
 [  0.2        -17.74165003]
 [  0.3         94.45114709]
 [  0.4         58.80414928]
 [  0.5         15.95265091]
 [  0.6        -64.01744173]
 [  0.7        -39.81720589]
 [  0.8         48.58222908]
 [  0.9         79.1348353 ]
 [  1.          66.03274921]
 [  1.09391667 -37.34721406]]","[[0.         0.52175854]
 [0.1        1.45107426]
 [0.2        1.66296684]
 [0.3        1.339528  ]
 [0.4        1.45905309]
 [0.5        0.95701688]
 [0.6        0.10004415]
 [0.7        1.33408917]
 [0.8        0.26158276]
 [0.9        0.78316965]
 [1.         0.77046412]
 [1.09391667 0.38567889]]",1,0.604
8768944929,m,21,english,5,4,english,2024-01-25 10:40:13.581798,False,1,89,sounds\english\audio/english_665.wav,"[[  0.         -16.81613766]
 [  0.1          6.45802089]
 [  0.2        -39.14767358]
 [  0.3        -59.56196692]
 [  0.4        -22.80702259]
 [  0.5         48.84600095]
 [  0.6        -22.22311015]
 [  0.7        -21.08263431]
 [  0.8        -18.22407764]
 [  0.9        -61.53900162]
 [  1.         -19.08536635]
 [  1.09391667 -43.46705032]]","[[0.         1.57148085]
 [0.1        1.67314542]
 [0.2        1.64833963]
 [0.3        0.04709433]
 [0.4        1.1795503 ]
 [0.5        1.10369045]
 [0.6        1.02368727]
 [0.7        1.75922585]
 [0.8        1.40227071]
 [0.9        1.50722495]
 [1.         0.46597225]
 [1.09391667 0.63106716]]",1,0.577
8768944929,m,21,english,5,4,english,2024-01-25 10:40:13.581798,False,1,90,sounds\english\audio/english_623.wav,"[[  0.         -95.51114939]
 [  0.1        -44.73326339]
 [  0.2         86.94238373]
 [  0.3         62.89198917]
 [  0.4         61.79447234]
 [  0.5        -17.85583206]
 [  0.6         46.68097598]
 [  0.7         11.14385485]
 [  0.8         14.54716464]
 [  0.9         20.67291456]
 [  1.         -77.15406541]
 [  1.09391667  25.21504883]]","[[0.         1.63535186]
 [0.1        1.6177623 ]
 [0.2        0.65497932]
 [0.3        1.58469953]
 [0.4        1.31412999]
 [0.5        0.01127437]
 [0.6        1.28486064]
 [0.7        1.18855794]
 [0.8        1.11974397]
 [0.9        0.2762628 ]
 [1.         1.27890635]
 [1.09391667 0.35112304]]",1,0.345
8768944929,m,21,english,5,4,english,2024-01-25 10:40:13.581798,False,1,91,sounds\english\audio/english_347.wav,"[[  0.         -77.92779138]
 [  0.1        -64.69220677]
 [  0.2        -52.71418659]
 [  0.3         63.39772469]
 [  0.4         28.65691045]
 [  0.5        -54.91733511]
 [  0.6         28.83719113]
 [  0.7         71.325035  ]
 [  0.8         64.29714523]
 [  0.9        -52.51835147]
 [  1.         -41.65784487]
 [  1.09391667 -56.27332848]]","[[0.         1.02669822]
 [0.1        0.41696548]
 [0.2        1.03112891]
 [0.3        0.20004082]
 [0.4        0.24296187]
 [0.5        0.01939813]
 [0.6        1.71588951]
 [0.7        0.13307252]
 [0.8        0.90631223]
 [0.9        1.74084271]
 [1.         0.63465457]
 [1.09391667 1.27137416]]",1,0.474
8768944929,m,21,english,5,4,english,2024-01-25 10:40:13.581798,False,1,92,sounds\english\audio/english_967.wav,"[[  0.         -95.01579597]
 [  0.1        -83.85694312]
 [  0.2        -85.29120752]
 [  0.3         39.64714204]
 [  0.4         57.5109199 ]
 [  0.5         17.84726357]
 [  0.6         72.49898727]
 [  0.7        -49.28489837]
 [  0.8         27.76319329]
 [  0.9         40.88732144]
 [  1.          25.08094833]
 [  1.09391667 -11.2848797 ]]","[[0.         1.84793029]
 [0.1        0.58680999]
 [0.2        1.7718572 ]
 [0.3        1.16952376]
 [0.4        0.26483397]
 [0.5        0.70174807]
 [0.6        1.00653378]
 [0.7        0.37312662]
 [0.8        0.21661179]
 [0.9        1.37557681]
 [1.         0.83851773]
 [1.09391667 1.10196179]]",0,0.871
8768944929,m,21,english,5,4,english,2024-01-25 10:40:13.581798,False,1,93,sounds\english\audio/english_379.wav,"[[  0.          49.53215273]
 [  0.1          9.27522888]
 [  0.2         37.03122757]
 [  0.3         99.63155139]
 [  0.4         33.35011574]
 [  0.5         -7.70874078]
 [  0.6         46.33326353]
 [  0.7         41.12969148]
 [  0.8        -55.78540597]
 [  0.9        -84.4527127 ]
 [  1.          13.84600332]
 [  1.09391667  82.55643163]]","[[0.         0.78528704]
 [0.1        1.81748923]
 [0.2        0.92030015]
 [0.3        1.45290857]
 [0.4        1.06621496]
 [0.5        1.14308429]
 [0.6        0.43706451]
 [0.7        0.56663738]
 [0.8        1.37256697]
 [0.9        0.4510475 ]
 [1.         1.31801048]
 [1.09391667 0.64535043]]",1,0.177
8768944929,m,21,english,5,4,english,2024-01-25 10:40:13.581798,False,1,94,sounds\english\audio/english_76.wav,"[[  0.          24.53692124]
 [  0.1          4.74525032]
 [  0.2        -11.73085706]
 [  0.3        -67.51409973]
 [  0.4         18.72894419]
 [  0.5        -87.08655703]
 [  0.6          8.86378377]
 [  0.7        -88.70159666]
 [  0.8        -19.63742154]
 [  0.9        -28.01043875]
 [  1.         -30.77636244]
 [  1.09391667 -23.02477644]]","[[0.         0.00919351]
 [0.1        1.89780668]
 [0.2        1.28424019]
 [0.3        0.97330389]
 [0.4        1.57704982]
 [0.5        0.6100989 ]
 [0.6        0.1303689 ]
 [0.7        1.07980698]
 [0.8        0.36042094]
 [0.9        1.46264173]
 [1.         0.93716424]
 [1.09391667 0.27656628]]",0,1.835
8768944929,m,21,english,5,4,english,2024-01-25 10:40:13.581798,False,1,95,sounds\english\audio/english_771.wav,"[[  0.         -36.50619676]
 [  0.1         14.7541205 ]
 [  0.2        -52.38540711]
 [  0.3        -44.85491202]
 [  0.4        -95.75173067]
 [  0.5         80.62781484]
 [  0.6         73.74351295]
 [  0.7        -36.03140148]
 [  0.8        -29.08842157]
 [  0.9         81.37771219]
 [  1.           2.32979024]
 [  1.09391667 -15.5068463 ]]","[[0.         0.84712365]
 [0.1        1.2125626 ]
 [0.2        1.26925878]
 [0.3        0.42277432]
 [0.4        1.76146367]
 [0.5        1.97802023]
 [0.6        1.00927999]
 [0.7        0.74378616]
 [0.8        1.61654752]
 [0.9        0.74494496]
 [1.         0.15244903]
 [1.09391667 0.47232317]]",1,0.418
8768944929,m,21,english,5,4,english,2024-01-25 10:40:13.581798,False,1,96,sounds\english\audio/english_965.wav,"[[  0.          71.26903742]
 [  0.1        -85.67215002]
 [  0.2         62.40796955]
 [  0.3        -42.43885851]
 [  0.4        -43.47145803]
 [  0.5          0.87364752]
 [  0.6         11.44276141]
 [  0.7         13.05816489]
 [  0.8         36.18570215]
 [  0.9        -15.51832256]
 [  1.         -23.27462527]
 [  1.09391667  27.24750983]]","[[0.         0.78069471]
 [0.1        0.96385913]
 [0.2        1.23622138]
 [0.3        0.08139119]
 [0.4        1.30827212]
 [0.5        0.40087686]
 [0.6        0.69003786]
 [0.7        0.53329387]
 [0.8        0.06218309]
 [0.9        1.41722428]
 [1.         1.1054453 ]
 [1.09391667 1.42098641]]",0,0.388
8768944929,m,21,english,5,4,english,2024-01-25 10:40:13.581798,False,1,97,sounds\english\audio/english_244.wav,"[[  0.         -16.89000739]
 [  0.1         13.88621899]
 [  0.2         19.5320734 ]
 [  0.3         77.5555311 ]
 [  0.4         -1.54182751]
 [  0.5        -50.64945855]
 [  0.6        -35.36321005]
 [  0.7        -43.62157267]
 [  0.8          3.96205992]
 [  0.9         54.24324678]
 [  1.          76.68152807]
 [  1.09391667 -97.15661366]]","[[0.         1.36645613]
 [0.1        0.22689892]
 [0.2        0.7498897 ]
 [0.3        0.5439009 ]
 [0.4        1.43453656]
 [0.5        1.75844179]
 [0.6        1.54599597]
 [0.7        0.6923522 ]
 [0.8        0.7002794 ]
 [0.9        1.06972568]
 [1.         1.30720641]
 [1.09391667 0.50703606]]",1,0.567
8768944929,m,21,english,5,4,english,2024-01-25 10:40:13.581798,False,1,98,sounds\english\audio/english_770.wav,"[[  0.          91.12421142]
 [  0.1        -19.58540638]
 [  0.2        -79.28932671]
 [  0.3         84.41656944]
 [  0.4         -7.14437585]
 [  0.5        -65.427815  ]
 [  0.6         24.29112002]
 [  0.7        -96.64014953]
 [  0.8        -19.88619379]
 [  0.9          6.75538061]
 [  1.          -9.4599271 ]
 [  1.09391667  37.64052975]]","[[0.         0.39537222]
 [0.1        0.64754321]
 [0.2        1.33811004]
 [0.3        0.79999887]
 [0.4        0.34341238]
 [0.5        0.89137249]
 [0.6        1.67993341]
 [0.7        1.65600172]
 [0.8        0.2664894 ]
 [0.9        1.80740877]
 [1.         0.27817675]
 [1.09391667 0.07045036]]",1,0.234
8768944929,m,21,english,5,4,english,2024-01-25 10:40:13.581798,False,1,99,sounds\english\audio/english_763.wav,"[[  0.          -3.64613535]
 [  0.1         86.84394447]
 [  0.2         48.90447279]
 [  0.3         81.52724945]
 [  0.4         38.37028175]
 [  0.5         -1.05640966]
 [  0.6         92.75218552]
 [  0.7         25.6384544 ]
 [  0.8         39.31857394]
 [  0.9        -39.8545052 ]
 [  1.         -46.14237673]
 [  1.09391667   4.92972848]]","[[0.         1.37294904]
 [0.1        1.4753173 ]
 [0.2        1.11933896]
 [0.3        0.74342717]
 [0.4        1.29789975]
 [0.5        0.71005602]
 [0.6        1.1127111 ]
 [0.7        0.88036435]
 [0.8        0.01207507]
 [0.9        1.55647861]
 [1.         1.32252767]
 [1.09391667 1.12126405]]",0,0.425
8768944929,m,21,english,5,4,english,2024-01-25 10:40:13.581798,False,1,100,sounds\english\audio/english_800.wav,"[[  0.          35.31456444]
 [  0.1         32.41521545]
 [  0.2        -54.21409297]
 [  0.3        -42.78782363]
 [  0.4         54.56880631]
 [  0.5        -47.76201321]
 [  0.6         21.101395  ]
 [  0.7        -85.00905452]
 [  0.8         89.73188045]
 [  0.9         58.36158131]
 [  1.          82.86297317]
 [  1.09391667  50.19485525]]","[[0.         1.69516606]
 [0.1        0.23308544]
 [0.2        0.95659058]
 [0.3        1.51885901]
 [0.4        1.37866605]
 [0.5        0.13843314]
 [0.6        0.69869138]
 [0.7        1.55469424]
 [0.8        1.19022687]
 [0.9        1.40913395]
 [1.         1.54823015]
 [1.09391667 1.45235784]]",0,0.759
8768944929,m,21,english,5,4,english,2024-01-25 10:40:13.581798,False,1,101,sounds\english\audio/english_473.wav,"[[  0.          34.16652782]
 [  0.1        -54.30241254]
 [  0.2         68.49127604]
 [  0.3        -13.36842793]
 [  0.4         44.07944523]
 [  0.5        -89.72603501]
 [  0.6        -81.86028748]
 [  0.7        -91.3095106 ]
 [  0.8         98.81807411]
 [  0.9        -68.88676759]
 [  1.          72.77796498]
 [  1.09391667  55.96804174]]","[[0.         1.17233757]
 [0.1        0.18073836]
 [0.2        0.50191646]
 [0.3        1.67378041]
 [0.4        1.50905301]
 [0.5        0.15702334]
 [0.6        1.34472247]
 [0.7        1.62088857]
 [0.8        0.94454058]
 [0.9        0.56012654]
 [1.         0.62880925]
 [1.09391667 1.11353678]]",1,0.185
8768944929,m,21,english,5,4,english,2024-01-25 10:40:13.581798,False,1,102,sounds\english\audio/english_412.wav,"[[  0.          26.80121406]
 [  0.1         42.5524274 ]
 [  0.2         38.73121894]
 [  0.3         55.35824973]
 [  0.4        -87.34208499]
 [  0.5         91.77879658]
 [  0.6        -99.58264321]
 [  0.7         89.55239913]
 [  0.8        -28.13161571]
 [  0.9         19.27007549]
 [  1.          60.0301485 ]
 [  1.09391667  67.95145907]]","[[0.         1.83350646]
 [0.1        0.85761925]
 [0.2        0.81318793]
 [0.3        1.83972978]
 [0.4        0.56193469]
 [0.5        1.27086462]
 [0.6        1.22553346]
 [0.7        0.34439159]
 [0.8        1.78223109]
 [0.9        1.75477532]
 [1.         0.33667923]
 [1.09391667 1.7966079 ]]",1,0.474
8768944929,m,21,english,5,4,english,2024-01-25 10:40:13.581798,False,1,103,sounds\english\audio/english_619.wav,"[[  0.         -41.0924044 ]
 [  0.1         -7.96280913]
 [  0.2        -87.23866402]
 [  0.3        -49.33627733]
 [  0.4         -9.049641  ]
 [  0.5        -44.96771142]
 [  0.6        -40.79885207]
 [  0.7         40.82825876]
 [  0.8        -20.59710474]
 [  0.9         39.88878166]
 [  1.          26.7856421 ]
 [  1.09391667  40.93095409]]","[[0.         1.71942116]
 [0.1        1.03534148]
 [0.2        1.90474628]
 [0.3        1.25465254]
 [0.4        0.872658  ]
 [0.5        0.88442624]
 [0.6        0.90889779]
 [0.7        0.65121567]
 [0.8        0.05436153]
 [0.9        1.54961319]
 [1.         0.36194851]
 [1.09391667 0.79464548]]",0,1.687
8768944929,m,21,english,5,4,english,2024-01-25 10:40:13.581798,False,1,104,sounds\english\audio/english_600.wav,"[[  0.          54.02401202]
 [  0.1         52.55241108]
 [  0.2        -17.52140944]
 [  0.3        -39.51158997]
 [  0.4        -76.99480414]
 [  0.5        -69.00053843]
 [  0.6         69.67412094]
 [  0.7         42.48437255]
 [  0.8        -15.33622164]
 [  0.9        -55.53099045]
 [  1.         -56.79297969]
 [  1.09391667  25.01258484]]","[[0.         1.74963926]
 [0.1        1.86361288]
 [0.2        1.08718427]
 [0.3        1.33817406]
 [0.4        0.48398336]
 [0.5        0.58536734]
 [0.6        1.17578893]
 [0.7        1.61345559]
 [0.8        1.78194792]
 [0.9        0.88901516]
 [1.         1.65574545]
 [1.09391667 1.81372246]]",0,1.138
8768944929,m,21,english,5,4,english,2024-01-25 10:40:13.581798,False,1,105,sounds\english\audio/english_330.wav,"[[  0.           2.24171654]
 [  0.1        -47.25901686]
 [  0.2        -45.6229367 ]
 [  0.3        -66.26500136]
 [  0.4         13.126007  ]
 [  0.5        -55.3162329 ]
 [  0.6        -44.94887053]
 [  0.7         21.08483531]
 [  0.8        -37.88434209]
 [  0.9          4.20371748]
 [  1.          80.65582765]
 [  1.09391667  87.33082059]]","[[0.         0.54683967]
 [0.1        1.92392168]
 [0.2        0.88546949]
 [0.3        1.41106585]
 [0.4        1.87683818]
 [0.5        1.08870848]
 [0.6        0.98346159]
 [0.7        0.45031197]
 [0.8        1.40044514]
 [0.9        0.75112893]
 [1.         0.77181744]
 [1.09391667 0.38922024]]",1,0.583
8768944929,m,21,english,5,4,english,2024-01-25 10:40:13.581798,False,1,106,sounds\english\audio/english_465.wav,"[[  0.          32.62808343]
 [  0.1        -19.45954063]
 [  0.2         31.8583501 ]
 [  0.3         62.10393883]
 [  0.4         18.6647785 ]
 [  0.5         60.37095119]
 [  0.6        -66.90125798]
 [  0.7        -81.40602189]
 [  0.8         50.53882687]
 [  0.9        -56.46028762]
 [  1.          17.60561432]
 [  1.09391667  99.29101089]]","[[0.         1.95674705]
 [0.1        0.2020369 ]
 [0.2        0.52421729]
 [0.3        0.65974817]
 [0.4        0.39728546]
 [0.5        0.37134149]
 [0.6        0.92371442]
 [0.7        0.31310251]
 [0.8        1.13414137]
 [0.9        0.34422608]
 [1.         1.91257156]
 [1.09391667 1.23959362]]",1,0.763
8768944929,m,21,english,5,4,english,2024-01-25 10:40:13.581798,False,1,107,sounds\english\audio/english_708.wav,"[[  0.          51.90512372]
 [  0.1         26.85875961]
 [  0.2         69.50769052]
 [  0.3          2.73798265]
 [  0.4         19.91752894]
 [  0.5         84.74462974]
 [  0.6         48.1433783 ]
 [  0.7         62.38973842]
 [  0.8        -28.25964696]
 [  0.9          1.39285788]
 [  1.         -27.01293378]
 [  1.09391667 -26.97031791]]","[[0.         0.68267885]
 [0.1        1.28009677]
 [0.2        0.67214969]
 [0.3        1.87173266]
 [0.4        1.28139012]
 [0.5        1.50975007]
 [0.6        0.29459019]
 [0.7        0.69646694]
 [0.8        0.8036912 ]
 [0.9        0.28906304]
 [1.         1.49505706]
 [1.09391667 1.88331259]]",1,0.354
8768944929,m,21,english,5,4,english,2024-01-25 10:40:13.581798,False,1,108,sounds\english\audio/english_953.wav,"[[  0.          66.99743889]
 [  0.1        -76.84252631]
 [  0.2        -45.49309493]
 [  0.3         55.46461894]
 [  0.4         81.99201124]
 [  0.5          1.34607331]
 [  0.6         50.45029952]
 [  0.7         74.64893983]
 [  0.8         26.00448077]
 [  0.9        -99.39894728]
 [  1.         -16.71063882]
 [  1.09391667  53.60095231]]","[[0.         1.15286604]
 [0.1        1.84100888]
 [0.2        0.29896559]
 [0.3        0.47017465]
 [0.4        0.15248902]
 [0.5        1.13290225]
 [0.6        0.34595451]
 [0.7        0.44244875]
 [0.8        0.8076701 ]
 [0.9        1.93347558]
 [1.         1.69365872]
 [1.09391667 1.16220812]]",1,0.208
8768944929,m,21,english,5,4,english,2024-01-25 10:40:13.581798,False,1,109,sounds\english\audio/english_791.wav,"[[  0.         -46.06630558]
 [  0.1        -10.41029295]
 [  0.2         46.47346809]
 [  0.3        -10.43860287]
 [  0.4        -38.16717219]
 [  0.5         44.56559314]
 [  0.6         43.70696978]
 [  0.7         -5.54884815]
 [  0.8         89.91059564]
 [  0.9         90.72111025]
 [  1.           4.8020349 ]
 [  1.09391667   7.87463746]]","[[0.         1.16002163]
 [0.1        1.31545425]
 [0.2        0.89173565]
 [0.3        0.05427007]
 [0.4        1.4017057 ]
 [0.5        0.47849772]
 [0.6        1.59729287]
 [0.7        1.50901191]
 [0.8        0.68083576]
 [0.9        1.62669182]
 [1.         1.81653342]
 [1.09391667 1.33572141]]",0,0.597
8768944929,m,21,english,5,4,english,2024-01-25 10:40:13.581798,False,1,110,sounds\english\audio/english_552.wav,"[[  0.          24.23901763]
 [  0.1        -68.29569332]
 [  0.2        -76.60440788]
 [  0.3        -14.28309722]
 [  0.4          7.45259631]
 [  0.5        -96.79412631]
 [  0.6         19.00121721]
 [  0.7         28.47093687]
 [  0.8        -28.36467118]
 [  0.9         27.37810517]
 [  1.          -1.36668835]
 [  1.09391667 -10.50305513]]","[[0.         1.612105  ]
 [0.1        0.23755281]
 [0.2        1.12644766]
 [0.3        1.6498911 ]
 [0.4        1.62705162]
 [0.5        0.02108582]
 [0.6        0.46250888]
 [0.7        0.61388361]
 [0.8        1.42538322]
 [0.9        1.50029895]
 [1.         0.7956711 ]
 [1.09391667 0.62245048]]",0,0.308
8768944929,m,21,english,5,4,english,2024-01-25 10:40:13.581798,False,1,111,sounds\english\audio/english_10.wav,"[[  0.         -15.04153425]
 [  0.1        -57.22263716]
 [  0.2         27.92618044]
 [  0.3         25.5799778 ]
 [  0.4         30.11064479]
 [  0.5         -7.71764525]
 [  0.6         27.65902171]
 [  0.7        -47.57621095]
 [  0.8         43.99977355]
 [  0.9        -15.79441044]
 [  1.         -34.81966507]
 [  1.09391667  60.77971601]]","[[0.         1.52083452]
 [0.1        1.29896522]
 [0.2        0.38561389]
 [0.3        0.99686674]
 [0.4        0.6118482 ]
 [0.5        1.86037541]
 [0.6        0.71941397]
 [0.7        1.21671158]
 [0.8        1.36149686]
 [0.9        0.57839438]
 [1.         0.86495111]
 [1.09391667 0.19592518]]",1,0.225
8768944929,m,21,english,5,4,english,2024-01-25 10:40:13.581798,False,1,112,sounds\english\audio/english_442.wav,"[[  0.         -82.79812385]
 [  0.1         13.26533661]
 [  0.2        -27.77858548]
 [  0.3         -8.21179447]
 [  0.4         42.22985327]
 [  0.5         28.42887923]
 [  0.6         80.44970592]
 [  0.7         21.26225147]
 [  0.8        -37.93625661]
 [  0.9        -26.7095537 ]
 [  1.         -21.16506099]
 [  1.09391667   7.34933703]]","[[0.         1.11396114]
 [0.1        1.75736632]
 [0.2        0.50029201]
 [0.3        0.94281284]
 [0.4        0.51943545]
 [0.5        1.6869371 ]
 [0.6        0.17301415]
 [0.7        1.48852219]
 [0.8        1.01404105]
 [0.9        1.17770211]
 [1.         1.73105649]
 [1.09391667 1.8720967 ]]",1,0.594
8768944929,m,21,english,5,4,english,2024-01-25 10:40:13.581798,False,1,113,sounds\english\audio/english_912.wav,"[[  0.          83.45320293]
 [  0.1         47.1123547 ]
 [  0.2        -44.09395349]
 [  0.3         80.4089211 ]
 [  0.4        -65.95886508]
 [  0.5        -25.59965852]
 [  0.6         58.94865135]
 [  0.7        -95.38965028]
 [  0.8         10.68091992]
 [  0.9        -57.68744928]
 [  1.           5.39108627]
 [  1.09391667  37.38622487]]","[[0.         1.30725461]
 [0.1        0.36515134]
 [0.2        0.27834174]
 [0.3        1.38784543]
 [0.4        0.18344109]
 [0.5        0.42703515]
 [0.6        1.85819174]
 [0.7        1.3517083 ]
 [0.8        1.52712698]
 [0.9        1.44811226]
 [1.         1.0038839 ]
 [1.09391667 0.79645394]]",0,0.208
8768944929,m,21,english,5,4,english,2024-01-25 10:40:13.581798,False,1,114,sounds\english\audio/english_543.wav,"[[  0.         -38.60842869]
 [  0.1         53.1018826 ]
 [  0.2         21.93281072]
 [  0.3        -40.4815272 ]
 [  0.4          2.89670018]
 [  0.5         31.11758458]
 [  0.6          1.30911675]
 [  0.7         46.76912586]
 [  0.8        -75.40535735]
 [  0.9         57.91130712]
 [  1.         -90.16753315]
 [  1.09391667 -42.19615814]]","[[0.         0.01455056]
 [0.1        1.33130856]
 [0.2        0.07852499]
 [0.3        1.77861337]
 [0.4        1.72434721]
 [0.5        1.53256383]
 [0.6        1.33712035]
 [0.7        0.29783205]
 [0.8        1.43997323]
 [0.9        0.04561747]
 [1.         1.78781135]
 [1.09391667 1.03895071]]",1,0.534
8768944929,m,21,english,5,4,english,2024-01-25 10:40:13.581798,False,1,115,sounds\english\audio/english_582.wav,"[[  0.         -92.78340469]
 [  0.1         42.51344298]
 [  0.2        -42.63495555]
 [  0.3         52.58085474]
 [  0.4        -78.11848263]
 [  0.5        -34.20952238]
 [  0.6        -86.64412457]
 [  0.7         26.30632387]
 [  0.8        -34.45754989]
 [  0.9        -45.78416277]
 [  1.         -16.65162857]
 [  1.09391667   7.21919156]]","[[0.         1.00518837]
 [0.1        1.30114299]
 [0.2        1.27031636]
 [0.3        1.12025144]
 [0.4        0.79798268]
 [0.5        0.6293022 ]
 [0.6        1.95773952]
 [0.7        0.97092523]
 [0.8        1.38286632]
 [0.9        1.31952832]
 [1.         1.84309931]
 [1.09391667 1.34013439]]",1,0.182
8768944929,m,21,english,5,4,english,2024-01-25 10:40:13.581798,False,1,116,sounds\english\audio/english_991.wav,"[[  0.          -1.1896089 ]
 [  0.1        -96.26402249]
 [  0.2         35.13230964]
 [  0.3         16.47291022]
 [  0.4        -88.97016612]
 [  0.5        -18.26917978]
 [  0.6        -86.44611587]
 [  0.7        -23.18394533]
 [  0.8        -34.88810698]
 [  0.9         58.2484142 ]
 [  1.          13.64122516]
 [  1.09391667 -13.61979163]]","[[0.         1.11058757]
 [0.1        0.1672209 ]
 [0.2        1.95155766]
 [0.3        0.04651437]
 [0.4        1.74859016]
 [0.5        1.4122656 ]
 [0.6        0.52281086]
 [0.7        1.29572944]
 [0.8        1.11115335]
 [0.9        1.29146841]
 [1.         1.37847477]
 [1.09391667 0.12249008]]",0,0.193
8768944929,m,21,english,5,4,english,2024-01-25 10:40:13.581798,False,1,117,sounds\english\audio/english_30.wav,"[[  0.           7.20305011]
 [  0.1         40.54252217]
 [  0.2        -27.16756142]
 [  0.3        -47.4542684 ]
 [  0.4         16.89492576]
 [  0.5         -3.45231142]
 [  0.6        -55.37795964]
 [  0.7         94.81526788]
 [  0.8          4.42136383]
 [  0.9        -28.73125868]
 [  1.         -43.27093622]
 [  1.09391667   0.63608962]]","[[0.         0.62248381]
 [0.1        1.3534175 ]
 [0.2        1.93672018]
 [0.3        1.80613869]
 [0.4        1.17778721]
 [0.5        1.26050698]
 [0.6        0.40567716]
 [0.7        1.85712714]
 [0.8        0.11089582]
 [0.9        1.52275562]
 [1.         0.4081166 ]
 [1.09391667 1.00698649]]",0,0.265
8768944929,m,21,english,5,4,english,2024-01-25 10:40:13.581798,False,1,118,sounds\english\audio/english_702.wav,"[[  0.          -2.41900738]
 [  0.1        -65.10936104]
 [  0.2        -27.82316235]
 [  0.3         41.61212407]
 [  0.4        -37.59716444]
 [  0.5         84.73262552]
 [  0.6         34.73400205]
 [  0.7        -30.1082561 ]
 [  0.8        -63.0729989 ]
 [  0.9        -90.77732933]
 [  1.          -4.9487879 ]
 [  1.09391667 -47.54503703]]","[[0.         1.81607637]
 [0.1        1.79791742]
 [0.2        1.28936134]
 [0.3        1.13263155]
 [0.4        0.61084433]
 [0.5        1.50612828]
 [0.6        1.99649644]
 [0.7        0.56234564]
 [0.8        0.4625337 ]
 [0.9        0.98197063]
 [1.         0.31924939]
 [1.09391667 0.55890029]]",0,0.54
8768944929,m,21,english,5,4,english,2024-01-25 10:40:13.581798,False,1,119,sounds\english\audio/english_876.wav,"[[  0.         -22.28605272]
 [  0.1         88.07210504]
 [  0.2        -49.70957844]
 [  0.3        -15.12998944]
 [  0.4        -15.93875253]
 [  0.5        -25.52637737]
 [  0.6        -20.7469083 ]
 [  0.7         38.24982305]
 [  0.8         85.21823118]
 [  0.9          2.48963564]
 [  1.          33.93764026]
 [  1.09391667   1.12823357]]","[[0.         0.86114571]
 [0.1        1.97575965]
 [0.2        0.63948783]
 [0.3        0.79524936]
 [0.4        1.19082012]
 [0.5        0.64746998]
 [0.6        0.40627419]
 [0.7        0.95615642]
 [0.8        1.23938009]
 [0.9        0.97530307]
 [1.         0.65277391]
 [1.09391667 0.77957787]]",1,0.333
8768944929,m,21,english,5,4,english,2024-01-25 10:40:13.581798,False,1,120,sounds\english\audio/english_269.wav,"[[  0.         -83.93501444]
 [  0.1         88.09879619]
 [  0.2        -88.94573115]
 [  0.3        -19.78587184]
 [  0.4         69.53650184]
 [  0.5        -12.80260332]
 [  0.6         37.86483682]
 [  0.7         20.748183  ]
 [  0.8         68.31338511]
 [  0.9        -95.26136032]
 [  1.          60.98745535]
 [  1.09391667  -4.34526385]]","[[0.         0.85151873]
 [0.1        0.93284173]
 [0.2        0.56585091]
 [0.3        1.66708848]
 [0.4        0.92160414]
 [0.5        0.96478354]
 [0.6        0.12392918]
 [0.7        0.94784748]
 [0.8        0.83939678]
 [0.9        1.67634699]
 [1.         1.66934281]
 [1.09391667 1.1076262 ]]",0,1.189
8768944929,m,21,english,5,4,english,2024-01-25 10:40:13.581798,False,1,121,sounds\english\audio/english_614.wav,"[[  0.         -82.48035623]
 [  0.1         79.46307131]
 [  0.2        -34.63501936]
 [  0.3        -36.11573217]
 [  0.4         28.60715933]
 [  0.5        -48.6136036 ]
 [  0.6         -7.2226969 ]
 [  0.7        -29.94263831]
 [  0.8        -84.37614436]
 [  0.9          6.08502503]
 [  1.          89.45930015]
 [  1.09391667 -99.05808014]]","[[0.         0.71590115]
 [0.1        0.88553055]
 [0.2        0.6127243 ]
 [0.3        1.30048752]
 [0.4        0.96267967]
 [0.5        0.63406811]
 [0.6        1.30483529]
 [0.7        0.38784821]
 [0.8        0.63559187]
 [0.9        0.26922563]
 [1.         0.19525475]
 [1.09391667 1.74947328]]",1,0.199
8768944929,m,21,english,5,4,english,2024-01-25 10:40:13.581798,False,1,122,sounds\english\audio/english_490.wav,"[[  0.         -25.51056644]
 [  0.1         24.49853402]
 [  0.2        -56.61781422]
 [  0.3         -3.53667819]
 [  0.4        -52.83448461]
 [  0.5        -52.04613243]
 [  0.6        -48.85197311]
 [  0.7         60.10857272]
 [  0.8         21.00041812]
 [  0.9        -82.17328802]
 [  1.         -22.08282028]
 [  1.09391667 -78.3378291 ]]","[[0.         0.58140065]
 [0.1        0.04023283]
 [0.2        0.26091541]
 [0.3        1.44138465]
 [0.4        1.89510699]
 [0.5        0.42289317]
 [0.6        0.07435824]
 [0.7        0.40624812]
 [0.8        0.68841403]
 [0.9        1.98707284]
 [1.         1.23402261]
 [1.09391667 1.02333517]]",0,0.972
8768944929,m,21,english,5,4,english,2024-01-25 10:40:13.581798,False,1,123,sounds\english\audio/english_521.wav,"[[  0.           5.37787975]
 [  0.1          9.32249591]
 [  0.2          4.19745407]
 [  0.3        -75.18613478]
 [  0.4         87.02780947]
 [  0.5        -73.26225675]
 [  0.6         66.15406762]
 [  0.7         -9.80579818]
 [  0.8         17.20812603]
 [  0.9         21.88979452]
 [  1.         -69.39969828]
 [  1.09391667 -64.03153918]]","[[0.         1.11621025]
 [0.1        0.69917502]
 [0.2        0.1199413 ]
 [0.3        1.762579  ]
 [0.4        1.43452798]
 [0.5        0.23094002]
 [0.6        1.51181612]
 [0.7        1.4155143 ]
 [0.8        1.82718341]
 [0.9        1.93759588]
 [1.         1.70606784]
 [1.09391667 0.09885652]]",1,0.142
8768944929,m,21,english,5,4,english,2024-01-25 10:40:13.581798,False,1,124,sounds\english\audio/english_909.wav,"[[  0.          10.71027544]
 [  0.1        -48.99679887]
 [  0.2          0.10936675]
 [  0.3         -9.5972352 ]
 [  0.4         41.63700809]
 [  0.5        -54.98653808]
 [  0.6        -79.93461055]
 [  0.7        -18.97053935]
 [  0.8        -79.95487678]
 [  0.9         48.57972969]
 [  1.          81.75147214]
 [  1.09391667 -81.8755088 ]]","[[0.         0.31194576]
 [0.1        0.75562572]
 [0.2        1.15361909]
 [0.3        1.70848665]
 [0.4        1.17263968]
 [0.5        1.91472761]
 [0.6        0.74389201]
 [0.7        0.87039019]
 [0.8        0.69566776]
 [0.9        0.96721203]
 [1.         1.53411622]
 [1.09391667 1.74360808]]",0,0.309
8768944929,m,21,english,5,4,english,2024-01-25 10:40:13.581798,False,1,125,sounds\english\audio/english_607.wav,"[[  0.           0.27599318]
 [  0.1         61.54655284]
 [  0.2        -45.68438061]
 [  0.3        -56.50831868]
 [  0.4         15.2577286 ]
 [  0.5        -52.12017374]
 [  0.6         97.83272545]
 [  0.7          7.21834566]
 [  0.8          8.71902974]
 [  0.9         84.51998902]
 [  1.         -21.50673836]
 [  1.09391667  68.90809966]]","[[0.         1.85195662]
 [0.1        0.01211705]
 [0.2        1.01527113]
 [0.3        0.58104245]
 [0.4        0.36467608]
 [0.5        0.76758339]
 [0.6        1.21313057]
 [0.7        1.69539972]
 [0.8        0.38171646]
 [0.9        1.4848349 ]
 [1.         0.84163241]
 [1.09391667 0.34247873]]",1,1.973
8768944929,m,21,english,5,4,english,2024-01-25 10:40:13.581798,False,1,126,sounds\english\audio/english_477.wav,"[[  0.          44.11369928]
 [  0.1        -49.72421876]
 [  0.2         37.81687243]
 [  0.3        -52.5290051 ]
 [  0.4         42.12087864]
 [  0.5         -3.66730799]
 [  0.6         34.46605835]
 [  0.7         92.87725089]
 [  0.8        -80.85076749]
 [  0.9         -9.36766275]
 [  1.          76.24737873]
 [  1.09391667 -13.80306297]]","[[0.         1.39445147]
 [0.1        1.98393148]
 [0.2        1.85807547]
 [0.3        0.71490172]
 [0.4        0.37809407]
 [0.5        0.12826759]
 [0.6        0.32776618]
 [0.7        0.64947081]
 [0.8        1.06355304]
 [0.9        1.32938803]
 [1.         1.22597552]
 [1.09391667 1.00606008]]",0,1.531
8768944929,m,21,english,5,4,english,2024-01-25 10:40:13.581798,False,1,127,sounds\english\audio/english_192.wav,"[[  0.         -44.06496916]
 [  0.1         -1.73373059]
 [  0.2        -29.10510113]
 [  0.3         71.54582207]
 [  0.4         47.17920128]
 [  0.5         46.36925649]
 [  0.6         34.98575102]
 [  0.7         51.8668686 ]
 [  0.8        -35.42178409]
 [  0.9        -56.11776415]
 [  1.         -44.79305263]
 [  1.09391667  37.72006641]]","[[0.         1.38059828]
 [0.1        0.79242211]
 [0.2        0.7213484 ]
 [0.3        1.27323666]
 [0.4        0.22557274]
 [0.5        1.52280769]
 [0.6        0.97358447]
 [0.7        0.90127966]
 [0.8        0.86874685]
 [0.9        1.58446024]
 [1.         1.51736237]
 [1.09391667 0.71870831]]",1,0.234
8768944929,m,21,english,5,4,english,2024-01-25 10:40:13.581798,False,1,128,sounds\english\audio/english_751.wav,"[[  0.         -66.06272789]
 [  0.1        -35.39424596]
 [  0.2         -5.06217065]
 [  0.3         34.9656481 ]
 [  0.4         21.23436914]
 [  0.5         82.13600136]
 [  0.6         31.75524198]
 [  0.7         25.74157906]
 [  0.8          0.71739343]
 [  0.9        -48.73723386]
 [  1.         -45.00388336]
 [  1.09391667 -22.7557427 ]]","[[0.         0.8938032 ]
 [0.1        0.85096145]
 [0.2        0.63682042]
 [0.3        0.66546542]
 [0.4        1.36528552]
 [0.5        1.24494727]
 [0.6        1.91319775]
 [0.7        1.46839197]
 [0.8        1.22847184]
 [0.9        1.68139256]
 [1.         0.62568337]
 [1.09391667 0.09425642]]",1,0.501
