subj,sex,age,language,english,french,native_lang,date,practice,block,trial,stim,pitch,stretch,response,rt
5,m,38,english,5,3,english,2024-02-13 18:25:01.646341,True,0,0,sounds\english\audio/english_183.wav,"[[  0.          56.94082111]
 [  0.1         23.76823823]
 [  0.2        -72.77208824]
 [  0.3        -26.01651227]
 [  0.4         97.95217456]
 [  0.5        -88.35240054]
 [  0.6          8.20957713]
 [  0.7         -0.21457891]
 [  0.8        -22.50054627]
 [  0.9        -26.93782132]
 [  1.          -9.93952746]
 [  1.09391667  16.7040789 ]]","[[0.         1.46471885]
 [0.1        0.27157125]
 [0.2        0.89995591]
 [0.3        0.86595775]
 [0.4        0.99665554]
 [0.5        1.5130978 ]
 [0.6        0.89371921]
 [0.7        0.60499738]
 [0.8        0.6752389 ]
 [0.9        0.26345185]
 [1.         0.41919446]
 [1.09391667 0.61479122]]",0,4.765
5,m,38,english,5,3,english,2024-02-13 18:25:01.646341,True,0,1,sounds\english\audio/english_347.wav,"[[  0.         -77.92779138]
 [  0.1        -64.69220677]
 [  0.2        -52.71418659]
 [  0.3         63.39772469]
 [  0.4         28.65691045]
 [  0.5        -54.91733511]
 [  0.6         28.83719113]
 [  0.7         71.325035  ]
 [  0.8         64.29714523]
 [  0.9        -52.51835147]
 [  1.         -41.65784487]
 [  1.09391667 -56.27332848]]","[[0.         1.02669822]
 [0.1        0.41696548]
 [0.2        1.03112891]
 [0.3        0.20004082]
 [0.4        0.24296187]
 [0.5        0.01939813]
 [0.6        1.71588951]
 [0.7        0.13307252]
 [0.8        0.90631223]
 [0.9        1.74084271]
 [1.         0.63465457]
 [1.09391667 1.27137416]]",0,2.101
5,m,38,english,5,3,english,2024-02-13 18:25:01.646341,True,0,2,sounds\english\audio/english_460.wav,"[[  0.          93.59161919]
 [  0.1        -36.24487207]
 [  0.2         34.29182357]
 [  0.3        -43.77936624]
 [  0.4         69.60343368]
 [  0.5         56.68710737]
 [  0.6        -24.24220062]
 [  0.7        -78.58314977]
 [  0.8        -13.26257127]
 [  0.9         33.19824363]
 [  1.         -40.08512875]
 [  1.09391667  22.89045037]]","[[0.         1.32448893]
 [0.1        0.9079638 ]
 [0.2        1.36589638]
 [0.3        1.17890341]
 [0.4        0.38929886]
 [0.5        0.99526671]
 [0.6        0.46581759]
 [0.7        0.29943683]
 [0.8        1.99375882]
 [0.9        1.82666883]
 [1.         1.5352094 ]
 [1.09391667 1.53552889]]",1,2.471
5,m,38,english,5,3,english,2024-02-13 18:25:01.646341,False,1,3,sounds\english\audio/english_606.wav,"[[  0.          72.77252021]
 [  0.1         22.60713343]
 [  0.2         30.91882808]
 [  0.3        -48.84223864]
 [  0.4        -29.82386042]
 [  0.5         82.48397831]
 [  0.6        -18.49396427]
 [  0.7         26.88567381]
 [  0.8        -18.34346668]
 [  0.9         10.06544583]
 [  1.         -89.88083722]
 [  1.09391667  66.64968825]]","[[0.         1.14271188]
 [0.1        1.41897374]
 [0.2        1.73372854]
 [0.3        1.07065865]
 [0.4        0.5542197 ]
 [0.5        0.65978179]
 [0.6        0.64487358]
 [0.7        1.50533402]
 [0.8        1.51615031]
 [0.9        0.11673085]
 [1.         0.60775024]
 [1.09391667 0.13627416]]",1,0.923
5,m,38,english,5,3,english,2024-02-13 18:25:01.646341,False,1,4,sounds\english\audio/english_730.wav,"[[  0.          98.7829688 ]
 [  0.1        -67.9329994 ]
 [  0.2        -35.4157721 ]
 [  0.3          8.75583116]
 [  0.4        -60.72300086]
 [  0.5        -43.53238385]
 [  0.6          7.41942565]
 [  0.7        -30.23988593]
 [  0.8         98.85106115]
 [  0.9         11.8745124 ]
 [  1.         -15.67114445]
 [  1.09391667 -67.06238252]]","[[0.         0.6873965 ]
 [0.1        0.65236597]
 [0.2        1.04626144]
 [0.3        1.65669948]
 [0.4        1.8622585 ]
 [0.5        1.86205359]
 [0.6        1.2731877 ]
 [0.7        0.2835626 ]
 [0.8        0.42372638]
 [0.9        1.35675351]
 [1.         1.03423815]
 [1.09391667 0.63701046]]",0,1.238
5,m,38,english,5,3,english,2024-02-13 18:25:01.646341,False,1,5,sounds\english\audio/english_917.wav,"[[ 0.00000000e+00 -3.53182661e+01]
 [ 1.00000000e-01 -2.17738587e+01]
 [ 2.00000000e-01  8.21428169e+01]
 [ 3.00000000e-01 -1.22731677e+01]
 [ 4.00000000e-01  4.83424811e+00]
 [ 5.00000000e-01 -8.54945092e-02]
 [ 6.00000000e-01 -9.26938160e+01]
 [ 7.00000000e-01 -9.15131295e+01]
 [ 8.00000000e-01  5.80373061e+01]
 [ 9.00000000e-01 -2.86534312e+01]
 [ 1.00000000e+00  4.54510696e+01]
 [ 1.09391667e+00  4.83165221e+01]]","[[0.         1.27669121]
 [0.1        1.4602349 ]
 [0.2        0.09750383]
 [0.3        0.51655458]
 [0.4        1.15347497]
 [0.5        1.01469442]
 [0.6        0.31102011]
 [0.7        1.44230515]
 [0.8        0.03377485]
 [0.9        0.48994194]
 [1.         0.17679016]
 [1.09391667 0.94650881]]",0,0.538
5,m,38,english,5,3,english,2024-02-13 18:25:01.646341,False,1,6,sounds\english\audio/english_668.wav,"[[  0.          24.30500843]
 [  0.1         57.57377678]
 [  0.2        -95.42785245]
 [  0.3        -42.97336145]
 [  0.4        -27.66393175]
 [  0.5         77.20765179]
 [  0.6         83.13326456]
 [  0.7        -32.13348901]
 [  0.8         68.31202494]
 [  0.9         19.90764766]
 [  1.          67.85742397]
 [  1.09391667  89.08528759]]","[[0.         1.5693483 ]
 [0.1        1.68368473]
 [0.2        0.73781789]
 [0.3        0.35418693]
 [0.4        0.0078487 ]
 [0.5        1.54548252]
 [0.6        1.19620748]
 [0.7        1.89254879]
 [0.8        0.72669061]
 [0.9        1.22099256]
 [1.         1.73789428]
 [1.09391667 1.66641406]]",1,0.406
5,m,38,english,5,3,english,2024-02-13 18:25:01.646341,False,1,7,sounds\english\audio/english_212.wav,"[[  0.           7.28178662]
 [  0.1         53.30309055]
 [  0.2          9.81131056]
 [  0.3        -90.32961485]
 [  0.4         16.20847807]
 [  0.5        -12.76815096]
 [  0.6         93.86097069]
 [  0.7         39.57297318]
 [  0.8        -19.22688735]
 [  0.9        -71.99383643]
 [  1.           5.42324024]
 [  1.09391667 -66.1565739 ]]","[[0.         1.69718484]
 [0.1        0.86840916]
 [0.2        0.62741544]
 [0.3        1.93796864]
 [0.4        1.96151684]
 [0.5        0.98998478]
 [0.6        1.74396039]
 [0.7        1.59359998]
 [0.8        1.3284153 ]
 [0.9        1.90824048]
 [1.         1.38687745]
 [1.09391667 0.48487656]]",1,0.663
5,m,38,english,5,3,english,2024-02-13 18:25:01.646341,False,1,8,sounds\english\audio/english_472.wav,"[[  0.         -23.72821767]
 [  0.1          7.29471696]
 [  0.2        -58.55005371]
 [  0.3         77.0504256 ]
 [  0.4         87.29275565]
 [  0.5        -70.9646192 ]
 [  0.6         72.82743185]
 [  0.7        -40.27439915]
 [  0.8        -15.91396931]
 [  0.9         27.40014094]
 [  1.         -13.69917785]
 [  1.09391667  26.78237701]]","[[0.         0.96911452]
 [0.1        0.40121138]
 [0.2        1.15410482]
 [0.3        1.91400861]
 [0.4        0.05830067]
 [0.5        0.87176087]
 [0.6        0.23371631]
 [0.7        1.66198616]
 [0.8        0.22492459]
 [0.9        0.55757982]
 [1.         1.15387827]
 [1.09391667 1.85526867]]",0,0.644
5,m,38,english,5,3,english,2024-02-13 18:25:01.646341,False,1,9,sounds\english\audio/english_294.wav,"[[  0.         -35.26170476]
 [  0.1        -68.79847515]
 [  0.2         21.65443345]
 [  0.3         18.61336719]
 [  0.4         29.14118392]
 [  0.5         -0.79474297]
 [  0.6        -83.10715175]
 [  0.7        -22.63410673]
 [  0.8        -21.26415856]
 [  0.9         47.90727918]
 [  1.         -39.88232682]
 [  1.09391667 -74.09279353]]","[[0.         0.76895084]
 [0.1        0.42345848]
 [0.2        1.88759315]
 [0.3        0.20743541]
 [0.4        0.10193981]
 [0.5        0.31438326]
 [0.6        1.2995954 ]
 [0.7        1.94703728]
 [0.8        0.92366458]
 [0.9        1.04223302]
 [1.         1.01801331]
 [1.09391667 0.911147  ]]",1,0.526
5,m,38,english,5,3,english,2024-02-13 18:25:01.646341,False,1,10,sounds\english\audio/english_164.wav,"[[  0.          25.67612046]
 [  0.1        -73.22421847]
 [  0.2         45.60415064]
 [  0.3         93.27879502]
 [  0.4         33.1762566 ]
 [  0.5         47.64320434]
 [  0.6        -19.19510789]
 [  0.7        -33.42680653]
 [  0.8         47.71435933]
 [  0.9          5.90681892]
 [  1.          42.52423942]
 [  1.09391667  43.22160039]]","[[0.         1.60368468]
 [0.1        0.71109799]
 [0.2        0.65921899]
 [0.3        1.59053842]
 [0.4        0.71799916]
 [0.5        1.2187377 ]
 [0.6        1.25318934]
 [0.7        0.56903982]
 [0.8        0.44355463]
 [0.9        1.65481096]
 [1.         0.56871191]
 [1.09391667 0.29440298]]",0,0.684
5,m,38,english,5,3,english,2024-02-13 18:25:01.646341,False,1,11,sounds\english\audio/english_55.wav,"[[  0.          55.67307479]
 [  0.1        -68.77763233]
 [  0.2        -65.56479824]
 [  0.3        -28.17507295]
 [  0.4         12.71546493]
 [  0.5         79.84163838]
 [  0.6        -44.12045936]
 [  0.7        -80.03895773]
 [  0.8         89.560279  ]
 [  0.9        -86.43761931]
 [  1.          26.43928763]
 [  1.09391667  35.34186428]]","[[0.         0.52782995]
 [0.1        1.04888997]
 [0.2        1.48348863]
 [0.3        0.48831434]
 [0.4        0.57381204]
 [0.5        0.45321787]
 [0.6        1.63628375]
 [0.7        1.60012046]
 [0.8        1.77258714]
 [0.9        0.52302607]
 [1.         1.59376443]
 [1.09391667 1.33420322]]",1,0.3
5,m,38,english,5,3,english,2024-02-13 18:25:01.646341,False,1,12,sounds\english\audio/english_493.wav,"[[  0.          -8.91567992]
 [  0.1         -2.81052192]
 [  0.2          0.93987988]
 [  0.3        -44.0664777 ]
 [  0.4         12.64172921]
 [  0.5         38.10396852]
 [  0.6         51.1275002 ]
 [  0.7        -51.72089694]
 [  0.8        -22.89469136]
 [  0.9         55.14015253]
 [  1.          69.89984763]
 [  1.09391667   7.83521283]]","[[0.         0.90906845]
 [0.1        1.82277729]
 [0.2        1.85575617]
 [0.3        0.198144  ]
 [0.4        0.31833397]
 [0.5        0.16370317]
 [0.6        0.48830507]
 [0.7        0.59724282]
 [0.8        0.45798431]
 [0.9        1.24461858]
 [1.         1.33195334]
 [1.09391667 1.92068406]]",0,0.758
5,m,38,english,5,3,english,2024-02-13 18:25:01.646341,False,1,13,sounds\english\audio/english_361.wav,"[[  0.          20.84328773]
 [  0.1         31.97314279]
 [  0.2          0.96518171]
 [  0.3         76.6061975 ]
 [  0.4        -77.10206306]
 [  0.5         23.53898445]
 [  0.6        -12.32061179]
 [  0.7         28.9259581 ]
 [  0.8        -94.91860317]
 [  0.9        -45.1021446 ]
 [  1.          37.31543609]
 [  1.09391667 -48.80421802]]","[[0.         1.90680099]
 [0.1        0.60095823]
 [0.2        1.38207831]
 [0.3        1.17298151]
 [0.4        1.57242958]
 [0.5        0.07487762]
 [0.6        1.72866781]
 [0.7        0.62365339]
 [0.8        0.31926535]
 [0.9        1.82585567]
 [1.         1.81117851]
 [1.09391667 0.64368516]]",1,0.808
5,m,38,english,5,3,english,2024-02-13 18:25:01.646341,False,1,14,sounds\english\audio/english_650.wav,"[[  0.          84.72208984]
 [  0.1        -25.46570276]
 [  0.2        -14.49877792]
 [  0.3         92.39693734]
 [  0.4        -32.47071196]
 [  0.5         57.90191837]
 [  0.6        -80.89557153]
 [  0.7        -42.41945014]
 [  0.8        -93.95714217]
 [  0.9         72.90615392]
 [  1.          69.05005157]
 [  1.09391667  82.64627583]]","[[0.         1.44671944]
 [0.1        0.96213955]
 [0.2        0.60880641]
 [0.3        0.82954369]
 [0.4        0.31003161]
 [0.5        1.04774221]
 [0.6        1.35433017]
 [0.7        0.91007785]
 [0.8        1.66906144]
 [0.9        0.82431   ]
 [1.         0.70002504]
 [1.09391667 0.57122533]]",0,0.519
5,m,38,english,5,3,english,2024-02-13 18:25:01.646341,False,1,15,sounds\english\audio/english_797.wav,"[[  0.         -63.71190355]
 [  0.1        -50.79402881]
 [  0.2         32.30736556]
 [  0.3         64.02493123]
 [  0.4         33.19195817]
 [  0.5        -86.78102625]
 [  0.6         66.48077763]
 [  0.7         77.3640722 ]
 [  0.8        -43.13358698]
 [  0.9         16.8031196 ]
 [  1.         -24.13411638]
 [  1.09391667  -2.75355837]]","[[0.         0.64786632]
 [0.1        0.65066378]
 [0.2        0.25622374]
 [0.3        0.5898572 ]
 [0.4        0.35552041]
 [0.5        0.44475986]
 [0.6        1.98126615]
 [0.7        1.0037779 ]
 [0.8        1.93292513]
 [0.9        1.4698385 ]
 [1.         0.72715411]
 [1.09391667 1.46134136]]",0,0.719
5,m,38,english,5,3,english,2024-02-13 18:25:01.646341,False,1,16,sounds\english\audio/english_684.wav,"[[ 0.00000000e+00  4.46488214e+01]
 [ 1.00000000e-01  9.68442182e+00]
 [ 2.00000000e-01 -4.50587890e+01]
 [ 3.00000000e-01  9.29989294e+00]
 [ 4.00000000e-01 -9.33818257e+01]
 [ 5.00000000e-01 -1.86654658e+01]
 [ 6.00000000e-01 -3.61937511e+01]
 [ 7.00000000e-01 -2.27796988e-02]
 [ 8.00000000e-01 -8.19835579e+01]
 [ 9.00000000e-01  6.67026535e+01]
 [ 1.00000000e+00 -2.81669756e+01]
 [ 1.09391667e+00 -3.11571246e+01]]","[[0.         0.31150518]
 [0.1        0.4998365 ]
 [0.2        0.24275602]
 [0.3        1.63678411]
 [0.4        1.55347247]
 [0.5        0.93326504]
 [0.6        1.36007358]
 [0.7        0.52423503]
 [0.8        1.47566928]
 [0.9        1.32008624]
 [1.         1.00236166]
 [1.09391667 1.13724252]]",1,0.256
5,m,38,english,5,3,english,2024-02-13 18:25:01.646341,False,1,17,sounds\english\audio/english_563.wav,"[[  0.          97.71228094]
 [  0.1        -46.61979444]
 [  0.2          2.79591849]
 [  0.3        -24.69974698]
 [  0.4        -33.21670204]
 [  0.5        -22.29161776]
 [  0.6         -9.78409371]
 [  0.7         22.41186375]
 [  0.8        -16.19600926]
 [  0.9         96.89254029]
 [  1.          -8.68448167]
 [  1.09391667  22.23097911]]","[[0.         1.26204961]
 [0.1        1.17265915]
 [0.2        0.73553811]
 [0.3        1.75222103]
 [0.4        1.16360082]
 [0.5        0.78496451]
 [0.6        0.25812971]
 [0.7        1.68001513]
 [0.8        1.88614824]
 [0.9        0.22022692]
 [1.         0.44747932]
 [1.09391667 1.70220981]]",0,0.488
5,m,38,english,5,3,english,2024-02-13 18:25:01.646341,False,1,18,sounds\english\audio/english_428.wav,"[[  0.          81.83092524]
 [  0.1        -80.13069751]
 [  0.2        -11.65632902]
 [  0.3        -46.08084266]
 [  0.4          3.29741478]
 [  0.5         38.2144639 ]
 [  0.6        -36.34649143]
 [  0.7        -64.94911042]
 [  0.8         55.28808141]
 [  0.9        -85.65631623]
 [  1.          45.03584187]
 [  1.09391667 -22.28745039]]","[[0.         1.65195738]
 [0.1        1.50342219]
 [0.2        1.06152039]
 [0.3        0.87273268]
 [0.4        1.30041173]
 [0.5        1.27181021]
 [0.6        1.2829939 ]
 [0.7        0.80379216]
 [0.8        0.54976242]
 [0.9        1.4846347 ]
 [1.         0.86531381]
 [1.09391667 0.63375774]]",1,1.22
5,m,38,english,5,3,english,2024-02-13 18:25:01.646341,False,1,19,sounds\english\audio/english_206.wav,"[[  0.         -99.12855739]
 [  0.1        -89.51576504]
 [  0.2        -90.40464902]
 [  0.3        -70.32755561]
 [  0.4         78.03699917]
 [  0.5          8.07565508]
 [  0.6         38.18456427]
 [  0.7        -75.53493724]
 [  0.8         54.10683872]
 [  0.9        -40.64897969]
 [  1.          -1.29434589]
 [  1.09391667  55.83604692]]","[[0.         1.20636597]
 [0.1        0.87803278]
 [0.2        1.07282405]
 [0.3        1.36131617]
 [0.4        0.62923097]
 [0.5        1.02359746]
 [0.6        0.86752629]
 [0.7        1.35404338]
 [0.8        1.4732865 ]
 [0.9        0.47250575]
 [1.         1.31829488]
 [1.09391667 0.97831941]]",1,0.495
5,m,38,english,5,3,english,2024-02-13 18:25:01.646341,False,1,20,sounds\english\audio/english_794.wav,"[[  0.         -94.32956865]
 [  0.1        -54.44529308]
 [  0.2         41.27752313]
 [  0.3        -24.41011935]
 [  0.4        -17.86009113]
 [  0.5         70.96620098]
 [  0.6         -6.92588192]
 [  0.7          1.86567935]
 [  0.8         85.29780195]
 [  0.9         66.99714839]
 [  1.          34.72052642]
 [  1.09391667  18.1862992 ]]","[[0.         0.17232345]
 [0.1        0.63768668]
 [0.2        0.54334699]
 [0.3        0.41814183]
 [0.4        0.83205575]
 [0.5        1.38587001]
 [0.6        0.50257762]
 [0.7        1.6396819 ]
 [0.8        1.19491374]
 [0.9        0.22376499]
 [1.         0.81945326]
 [1.09391667 1.51337696]]",0,0.225
5,m,38,english,5,3,english,2024-02-13 18:25:01.646341,False,1,21,sounds\english\audio/english_619.wav,"[[  0.         -41.0924044 ]
 [  0.1         -7.96280913]
 [  0.2        -87.23866402]
 [  0.3        -49.33627733]
 [  0.4         -9.049641  ]
 [  0.5        -44.96771142]
 [  0.6        -40.79885207]
 [  0.7         40.82825876]
 [  0.8        -20.59710474]
 [  0.9         39.88878166]
 [  1.          26.7856421 ]
 [  1.09391667  40.93095409]]","[[0.         1.71942116]
 [0.1        1.03534148]
 [0.2        1.90474628]
 [0.3        1.25465254]
 [0.4        0.872658  ]
 [0.5        0.88442624]
 [0.6        0.90889779]
 [0.7        0.65121567]
 [0.8        0.05436153]
 [0.9        1.54961319]
 [1.         0.36194851]
 [1.09391667 0.79464548]]",0,0.885
5,m,38,english,5,3,english,2024-02-13 18:25:01.646341,False,1,22,sounds\english\audio/english_50.wav,"[[  0.         -32.36494138]
 [  0.1         76.6244439 ]
 [  0.2        -16.62217643]
 [  0.3         63.40850527]
 [  0.4         68.81783594]
 [  0.5        -35.17384088]
 [  0.6         42.93688325]
 [  0.7        -82.21044816]
 [  0.8        -42.73245843]
 [  0.9         -3.13393134]
 [  1.         -86.41078269]
 [  1.09391667  14.80187439]]","[[0.         1.37054129]
 [0.1        1.57215181]
 [0.2        1.07317842]
 [0.3        0.82623857]
 [0.4        0.72038729]
 [0.5        1.90936147]
 [0.6        0.3744962 ]
 [0.7        0.69245834]
 [0.8        0.60585647]
 [0.9        1.24840552]
 [1.         0.02488175]
 [1.09391667 1.59728167]]",0,0.962
5,m,38,english,5,3,english,2024-02-13 18:25:01.646341,False,1,23,sounds\english\audio/english_672.wav,"[[  0.          43.22685975]
 [  0.1        -54.22036803]
 [  0.2         47.19502214]
 [  0.3         29.48399108]
 [  0.4        -37.13401682]
 [  0.5        -82.77781933]
 [  0.6         26.5489707 ]
 [  0.7        -82.12818914]
 [  0.8          0.43149331]
 [  0.9         36.27396929]
 [  1.         -33.62939759]
 [  1.09391667 -60.08189446]]","[[0.         1.16062379]
 [0.1        1.05074454]
 [0.2        0.58565022]
 [0.3        0.69010583]
 [0.4        1.10560462]
 [0.5        0.90912981]
 [0.6        1.72329615]
 [0.7        1.29141175]
 [0.8        0.15835131]
 [0.9        0.77804924]
 [1.         0.05373679]
 [1.09391667 0.92241163]]",1,0.606
5,m,38,english,5,3,english,2024-02-13 18:25:01.646341,False,1,24,sounds\english\audio/english_193.wav,"[[  0.         -79.19298438]
 [  0.1         83.18398782]
 [  0.2         41.62817707]
 [  0.3        -63.57509965]
 [  0.4         84.76628996]
 [  0.5         10.12738943]
 [  0.6        -37.32432508]
 [  0.7          4.93485207]
 [  0.8         34.87911105]
 [  0.9        -39.85363935]
 [  1.          34.81523129]
 [  1.09391667  72.77087749]]","[[0.         1.8278475 ]
 [0.1        1.66141822]
 [0.2        0.29384933]
 [0.3        0.14342966]
 [0.4        1.0428664 ]
 [0.5        1.69229155]
 [0.6        0.16574738]
 [0.7        1.7490427 ]
 [0.8        0.62073431]
 [0.9        0.72815791]
 [1.         1.27219327]
 [1.09391667 1.22929628]]",1,1.025
5,m,38,english,5,3,english,2024-02-13 18:25:01.646341,False,1,25,sounds\english\audio/english_45.wav,"[[  0.         -55.14721801]
 [  0.1         57.09452307]
 [  0.2         -1.62499195]
 [  0.3        -13.00347301]
 [  0.4         13.64765964]
 [  0.5        -16.23645369]
 [  0.6         12.80202188]
 [  0.7         18.490615  ]
 [  0.8        -32.73911513]
 [  0.9         72.91810524]
 [  1.         -39.54069726]
 [  1.09391667   1.32954538]]","[[0.         0.29299266]
 [0.1        0.9247964 ]
 [0.2        1.0494158 ]
 [0.3        1.81345336]
 [0.4        1.7292362 ]
 [0.5        0.3059786 ]
 [0.6        1.60566624]
 [0.7        1.60640041]
 [0.8        0.6923723 ]
 [0.9        1.31031073]
 [1.         0.9624361 ]
 [1.09391667 1.523717  ]]",0,0.613
5,m,38,english,5,3,english,2024-02-13 18:25:01.646341,False,1,26,sounds\english\audio/english_224.wav,"[[  0.         -78.61506242]
 [  0.1         50.32903383]
 [  0.2         13.41609495]
 [  0.3        -65.62214638]
 [  0.4        -58.93648778]
 [  0.5         72.28111683]
 [  0.6        -46.77069374]
 [  0.7        -90.37193795]
 [  0.8         -0.43339445]
 [  0.9        -45.45823975]
 [  1.         -68.1553756 ]
 [  1.09391667 -50.27313826]]","[[0.         0.96291184]
 [0.1        1.02849412]
 [0.2        1.48046057]
 [0.3        0.95403391]
 [0.4        0.16536285]
 [0.5        1.42811474]
 [0.6        0.74831178]
 [0.7        1.44512366]
 [0.8        1.0370843 ]
 [0.9        0.73747726]
 [1.         0.53686902]
 [1.09391667 1.24590757]]",1,0.284
5,m,38,english,5,3,english,2024-02-13 18:25:01.646341,False,1,27,sounds\english\audio/english_253.wav,"[[  0.         -76.54232622]
 [  0.1         23.75797542]
 [  0.2        -82.53055468]
 [  0.3         19.65476927]
 [  0.4        -55.81107988]
 [  0.5         73.24574297]
 [  0.6        -22.29926161]
 [  0.7        -11.91242057]
 [  0.8        -33.99896833]
 [  0.9         32.30473406]
 [  1.          68.10745133]
 [  1.09391667 -22.82824608]]","[[0.         1.69452202]
 [0.1        0.94155674]
 [0.2        0.70353207]
 [0.3        1.42331271]
 [0.4        1.11334266]
 [0.5        1.34927457]
 [0.6        0.26375751]
 [0.7        0.63100518]
 [0.8        0.22145521]
 [0.9        0.69052847]
 [1.         1.32352728]
 [1.09391667 0.79605757]]",0,0.455
5,m,38,english,5,3,english,2024-02-13 18:25:01.646341,False,1,28,sounds\english\audio/english_849.wav,"[[  0.           3.14918828]
 [  0.1        -23.77765777]
 [  0.2         33.06216364]
 [  0.3        -62.11705981]
 [  0.4          7.17201603]
 [  0.5        -75.75571993]
 [  0.6        -11.73418988]
 [  0.7        -67.42384643]
 [  0.8         50.24136352]
 [  0.9        -60.42241677]
 [  1.          70.30658547]
 [  1.09391667  -8.44903954]]","[[0.         0.91646938]
 [0.1        0.05935653]
 [0.2        1.47739407]
 [0.3        0.33072981]
 [0.4        0.11578877]
 [0.5        1.27391033]
 [0.6        0.32212457]
 [0.7        1.51956894]
 [0.8        0.3318501 ]
 [0.9        0.78089197]
 [1.         0.6122717 ]
 [1.09391667 1.08036793]]",0,17.594
5,m,38,english,5,3,english,2024-02-13 18:25:01.646341,False,1,29,sounds\english\audio/english_750.wav,"[[  0.         -25.16303224]
 [  0.1        -14.02768866]
 [  0.2         69.31394604]
 [  0.3         90.85453111]
 [  0.4        -11.11189664]
 [  0.5         99.7192225 ]
 [  0.6         59.23899804]
 [  0.7         61.96409814]
 [  0.8         86.60257641]
 [  0.9         26.97835103]
 [  1.         -29.13235822]
 [  1.09391667 -49.9357994 ]]","[[0.         0.86862278]
 [0.1        0.53645709]
 [0.2        1.09554837]
 [0.3        0.97960852]
 [0.4        1.14883971]
 [0.5        0.16341609]
 [0.6        1.34227106]
 [0.7        1.64659331]
 [0.8        0.80940412]
 [0.9        1.55602713]
 [1.         0.0040181 ]
 [1.09391667 1.03656175]]",0,0.849
5,m,38,english,5,3,english,2024-02-13 18:25:01.646341,False,1,30,sounds\english\audio/english_184.wav,"[[  0.         -74.14199581]
 [  0.1         89.94537867]
 [  0.2        -97.85495654]
 [  0.3         32.1848514 ]
 [  0.4        -18.16351382]
 [  0.5         45.53126648]
 [  0.6        -65.36095863]
 [  0.7        -40.1441705 ]
 [  0.8         67.58790179]
 [  0.9         83.12820885]
 [  1.          51.68582171]
 [  1.09391667  49.78372489]]","[[0.         0.56604578]
 [0.1        0.76750271]
 [0.2        1.21496016]
 [0.3        1.29013374]
 [0.4        0.9359149 ]
 [0.5        0.64815145]
 [0.6        1.94413917]
 [0.7        0.65249887]
 [0.8        1.32844944]
 [0.9        0.04188573]
 [1.         1.11136781]
 [1.09391667 0.42919135]]",1,9.591
5,m,38,english,5,3,english,2024-02-13 18:25:01.646341,False,1,31,sounds\english\audio/english_928.wav,"[[  0.          10.59611368]
 [  0.1        -58.33970814]
 [  0.2         48.21332553]
 [  0.3          8.01473442]
 [  0.4          1.23446692]
 [  0.5         75.4888235 ]
 [  0.6        -71.96113636]
 [  0.7        -73.39552856]
 [  0.8        -33.53378549]
 [  0.9          1.07873632]
 [  1.          58.06405964]
 [  1.09391667  15.92112733]]","[[0.         0.70098124]
 [0.1        0.81482125]
 [0.2        0.85809581]
 [0.3        1.28695487]
 [0.4        0.84694823]
 [0.5        0.86088631]
 [0.6        0.91068844]
 [0.7        1.800813  ]
 [0.8        0.14082097]
 [0.9        0.95279098]
 [1.         0.96841151]
 [1.09391667 0.90966091]]",0,0.414
5,m,38,english,5,3,english,2024-02-13 18:25:01.646341,False,1,32,sounds\english\audio/english_80.wav,"[[  0.          15.98753908]
 [  0.1        -56.19575542]
 [  0.2         -3.20238754]
 [  0.3         78.26727965]
 [  0.4        -34.16157501]
 [  0.5        -80.06220611]
 [  0.6         26.74823286]
 [  0.7         37.47089689]
 [  0.8         26.79850159]
 [  0.9        -24.50397544]
 [  1.          43.76607114]
 [  1.09391667  10.09103426]]","[[0.         1.07609062]
 [0.1        0.12895948]
 [0.2        1.07538029]
 [0.3        0.04332835]
 [0.4        1.09018765]
 [0.5        0.93581394]
 [0.6        0.96811326]
 [0.7        0.66776739]
 [0.8        0.56521885]
 [0.9        1.65043275]
 [1.         1.48241079]
 [1.09391667 1.57868315]]",1,0.624
5,m,38,english,5,3,english,2024-02-13 18:25:01.646341,False,1,33,sounds\english\audio/english_327.wav,"[[  0.          68.47046609]
 [  0.1         85.76832326]
 [  0.2        -75.98339762]
 [  0.3         74.12796235]
 [  0.4         11.46376172]
 [  0.5         -5.50560149]
 [  0.6         27.1504605 ]
 [  0.7         27.2911911 ]
 [  0.8        -20.36547399]
 [  0.9        -51.25849452]
 [  1.          79.11844333]
 [  1.09391667 -53.98607147]]","[[0.         1.54763433]
 [0.1        1.83635771]
 [0.2        0.3050113 ]
 [0.3        0.70474203]
 [0.4        0.8224078 ]
 [0.5        0.00526041]
 [0.6        0.35213553]
 [0.7        1.7713752 ]
 [0.8        1.08380037]
 [0.9        0.55113913]
 [1.         0.59854608]
 [1.09391667 1.65860026]]",1,0.342
5,m,38,english,5,3,english,2024-02-13 18:25:01.646341,False,1,34,sounds\english\audio/english_50.wav,"[[  0.         -32.36494138]
 [  0.1         76.6244439 ]
 [  0.2        -16.62217643]
 [  0.3         63.40850527]
 [  0.4         68.81783594]
 [  0.5        -35.17384088]
 [  0.6         42.93688325]
 [  0.7        -82.21044816]
 [  0.8        -42.73245843]
 [  0.9         -3.13393134]
 [  1.         -86.41078269]
 [  1.09391667  14.80187439]]","[[0.         1.37054129]
 [0.1        1.57215181]
 [0.2        1.07317842]
 [0.3        0.82623857]
 [0.4        0.72038729]
 [0.5        1.90936147]
 [0.6        0.3744962 ]
 [0.7        0.69245834]
 [0.8        0.60585647]
 [0.9        1.24840552]
 [1.         0.02488175]
 [1.09391667 1.59728167]]",0,1.018
5,m,38,english,5,3,english,2024-02-13 18:25:01.646341,False,1,35,sounds\english\audio/english_197.wav,"[[  0.          -0.52164664]
 [  0.1        -87.40194418]
 [  0.2        -52.79027246]
 [  0.3        -48.86802506]
 [  0.4         81.82701326]
 [  0.5        -49.36038243]
 [  0.6         60.40718162]
 [  0.7         23.14241749]
 [  0.8          6.00272562]
 [  0.9        -33.15203134]
 [  1.          87.44378179]
 [  1.09391667 -36.11997575]]","[[0.         0.76048058]
 [0.1        1.46601293]
 [0.2        1.17311431]
 [0.3        0.52190861]
 [0.4        0.75360033]
 [0.5        0.57280926]
 [0.6        1.08660509]
 [0.7        1.00122778]
 [0.8        0.93136252]
 [0.9        1.24898943]
 [1.         1.94648397]
 [1.09391667 0.88926449]]",1,0.285
5,m,38,english,5,3,english,2024-02-13 18:25:01.646341,False,1,36,sounds\english\audio/english_930.wav,"[[  0.          19.45977217]
 [  0.1        -80.07863209]
 [  0.2         45.52554026]
 [  0.3         15.52716044]
 [  0.4        -83.05812581]
 [  0.5        -71.84540183]
 [  0.6        -43.21972941]
 [  0.7         24.79128716]
 [  0.8        -16.02759849]
 [  0.9          5.32070927]
 [  1.          41.16408732]
 [  1.09391667  45.49028899]]","[[0.         0.84483281]
 [0.1        1.28415243]
 [0.2        0.42013726]
 [0.3        0.73216184]
 [0.4        0.68838287]
 [0.5        1.12855875]
 [0.6        1.19871165]
 [0.7        1.34030412]
 [0.8        0.99943393]
 [0.9        1.01667004]
 [1.         1.52152501]
 [1.09391667 0.12802686]]",0,0.517
5,m,38,english,5,3,english,2024-02-13 18:25:01.646341,False,1,37,sounds\english\audio/english_799.wav,"[[  0.          20.93448877]
 [  0.1         74.90549066]
 [  0.2         79.35216778]
 [  0.3        -10.62506754]
 [  0.4          6.33564747]
 [  0.5         90.41443979]
 [  0.6        -60.57880503]
 [  0.7          9.86229071]
 [  0.8        -45.57695026]
 [  0.9          4.80419962]
 [  1.          49.35310044]
 [  1.09391667  82.63345718]]","[[0.         0.48820712]
 [0.1        0.80562581]
 [0.2        1.19822254]
 [0.3        1.60128914]
 [0.4        0.01319764]
 [0.5        1.72553046]
 [0.6        1.2547609 ]
 [0.7        0.74830712]
 [0.8        0.71080767]
 [0.9        0.83933205]
 [1.         0.24394342]
 [1.09391667 0.9569793 ]]",1,0.853
5,m,38,english,5,3,english,2024-02-13 18:25:01.646341,False,1,38,sounds\english\audio/english_670.wav,"[[  0.          61.47755319]
 [  0.1         79.47502579]
 [  0.2         73.60091474]
 [  0.3         58.1460863 ]
 [  0.4         97.58712211]
 [  0.5        -25.3557345 ]
 [  0.6         -0.56542957]
 [  0.7         31.42903677]
 [  0.8         42.53271581]
 [  0.9         77.28375596]
 [  1.         -30.44711444]
 [  1.09391667  19.3107075 ]]","[[0.         1.45530198]
 [0.1        1.32139426]
 [0.2        0.78813228]
 [0.3        0.55211546]
 [0.4        0.66504483]
 [0.5        0.1283282 ]
 [0.6        1.41482601]
 [0.7        1.61871195]
 [0.8        1.01398737]
 [0.9        0.52342725]
 [1.         1.03483045]
 [1.09391667 0.15284579]]",0,1.921
5,m,38,english,5,3,english,2024-02-13 18:25:01.646341,False,1,39,sounds\english\audio/english_489.wav,"[[  0.          34.87513384]
 [  0.1        -56.49709653]
 [  0.2        -69.32456338]
 [  0.3         53.20706346]
 [  0.4         66.8977185 ]
 [  0.5         47.95425842]
 [  0.6         18.45634507]
 [  0.7        -35.00488862]
 [  0.8         41.56892466]
 [  0.9         -9.61579481]
 [  1.         -77.26438838]
 [  1.09391667 -34.81016687]]","[[0.         0.04879029]
 [0.1        0.42206675]
 [0.2        1.77329015]
 [0.3        0.48934341]
 [0.4        1.53841919]
 [0.5        1.90609151]
 [0.6        1.04648426]
 [0.7        0.7592551 ]
 [0.8        1.06956744]
 [0.9        0.57636466]
 [1.         0.72315176]
 [1.09391667 0.99781533]]",1,0.631
5,m,38,english,5,3,english,2024-02-13 18:25:01.646341,False,1,40,sounds\english\audio/english_962.wav,"[[  0.         -16.60048673]
 [  0.1         86.97119881]
 [  0.2         60.43507778]
 [  0.3         34.28838618]
 [  0.4         -3.8203387 ]
 [  0.5         82.49891636]
 [  0.6         22.18578672]
 [  0.7         20.13766391]
 [  0.8         74.50191695]
 [  0.9         68.04596391]
 [  1.         -41.45827676]
 [  1.09391667 -81.40338911]]","[[0.         0.55938727]
 [0.1        1.40731286]
 [0.2        0.29415182]
 [0.3        0.53536257]
 [0.4        0.38742579]
 [0.5        0.91323434]
 [0.6        0.69102333]
 [0.7        0.47321431]
 [0.8        1.91525386]
 [0.9        0.05569164]
 [1.         1.5038001 ]
 [1.09391667 1.11433977]]",1,0.518
5,m,38,english,5,3,english,2024-02-13 18:25:01.646341,False,1,41,sounds\english\audio/english_465.wav,"[[  0.          32.62808343]
 [  0.1        -19.45954063]
 [  0.2         31.8583501 ]
 [  0.3         62.10393883]
 [  0.4         18.6647785 ]
 [  0.5         60.37095119]
 [  0.6        -66.90125798]
 [  0.7        -81.40602189]
 [  0.8         50.53882687]
 [  0.9        -56.46028762]
 [  1.          17.60561432]
 [  1.09391667  99.29101089]]","[[0.         1.95674705]
 [0.1        0.2020369 ]
 [0.2        0.52421729]
 [0.3        0.65974817]
 [0.4        0.39728546]
 [0.5        0.37134149]
 [0.6        0.92371442]
 [0.7        0.31310251]
 [0.8        1.13414137]
 [0.9        0.34422608]
 [1.         1.91257156]
 [1.09391667 1.23959362]]",1,0.499
5,m,38,english,5,3,english,2024-02-13 18:25:01.646341,False,1,42,sounds\english\audio/english_167.wav,"[[  0.          24.63183347]
 [  0.1         13.73246145]
 [  0.2        -60.43880616]
 [  0.3          7.09789875]
 [  0.4        -33.19551678]
 [  0.5         95.64356753]
 [  0.6        -14.26788655]
 [  0.7         66.37452918]
 [  0.8         21.11990371]
 [  0.9         91.73440173]
 [  1.          98.54474933]
 [  1.09391667  47.66166762]]","[[0.         0.27443004]
 [0.1        1.84171745]
 [0.2        1.67288004]
 [0.3        0.06788145]
 [0.4        0.85380936]
 [0.5        0.74095746]
 [0.6        0.50118345]
 [0.7        0.34417323]
 [0.8        0.18827799]
 [0.9        1.5764248 ]
 [1.         1.57665407]
 [1.09391667 0.79567252]]",0,0.447
5,m,38,english,5,3,english,2024-02-13 18:25:01.646341,False,1,43,sounds\english\audio/english_483.wav,"[[  0.          81.48477159]
 [  0.1        -89.60480044]
 [  0.2         34.01203533]
 [  0.3        -53.73578063]
 [  0.4         84.54249603]
 [  0.5        -37.49389681]
 [  0.6         15.30386948]
 [  0.7        -61.92265371]
 [  0.8         -8.76713856]
 [  0.9        -10.35003035]
 [  1.          30.44811047]
 [  1.09391667  58.404663  ]]","[[0.         0.74240463]
 [0.1        0.55858717]
 [0.2        0.25858635]
 [0.3        0.09361457]
 [0.4        1.33981299]
 [0.5        0.4736205 ]
 [0.6        0.19064795]
 [0.7        0.85022642]
 [0.8        0.89668703]
 [0.9        0.92354333]
 [1.         0.32093747]
 [1.09391667 0.85640019]]",1,0.633
5,m,38,english,5,3,english,2024-02-13 18:25:01.646341,False,1,44,sounds\english\audio/english_611.wav,"[[  0.         -44.03154286]
 [  0.1         43.53292368]
 [  0.2        -39.32029451]
 [  0.3         56.48937501]
 [  0.4         79.97019062]
 [  0.5        -25.23129683]
 [  0.6         14.98640169]
 [  0.7         23.2049895 ]
 [  0.8        -71.91072082]
 [  0.9        -47.29216682]
 [  1.          71.77208334]
 [  1.09391667 -64.89664383]]","[[0.         0.78645575]
 [0.1        1.64980838]
 [0.2        0.9179457 ]
 [0.3        1.56943765]
 [0.4        0.89618619]
 [0.5        1.22477339]
 [0.6        1.05903803]
 [0.7        0.37835505]
 [0.8        1.6139649 ]
 [0.9        1.9176564 ]
 [1.         1.62142696]
 [1.09391667 1.10334919]]",0,0.684
5,m,38,english,5,3,english,2024-02-13 18:25:01.646341,False,1,45,sounds\english\audio/english_814.wav,"[[  0.           6.17101413]
 [  0.1        -73.16524248]
 [  0.2         75.95050712]
 [  0.3         18.00105888]
 [  0.4         -9.94456811]
 [  0.5        -40.2453021 ]
 [  0.6        -85.66564926]
 [  0.7         96.74750881]
 [  0.8        -81.535142  ]
 [  0.9        -37.96849285]
 [  1.         -95.58506563]
 [  1.09391667 -59.97632547]]","[[0.         0.43334786]
 [0.1        0.17683142]
 [0.2        0.19921398]
 [0.3        1.00421484]
 [0.4        1.44070159]
 [0.5        0.92750762]
 [0.6        1.52273218]
 [0.7        0.90944184]
 [0.8        0.73937443]
 [0.9        0.85755882]
 [1.         0.57947926]
 [1.09391667 0.18234787]]",0,0.695
5,m,38,english,5,3,english,2024-02-13 18:25:01.646341,False,1,46,sounds\english\audio/english_352.wav,"[[  0.          84.78119141]
 [  0.1         88.75454048]
 [  0.2         23.94901813]
 [  0.3        -18.90676095]
 [  0.4         60.06070111]
 [  0.5         62.40800149]
 [  0.6          3.12749593]
 [  0.7         56.86714317]
 [  0.8        -52.83270381]
 [  0.9        -40.5099806 ]
 [  1.         -16.36538997]
 [  1.09391667  22.50184759]]","[[0.         1.3229017 ]
 [0.1        0.55829323]
 [0.2        0.0402509 ]
 [0.3        0.61640233]
 [0.4        0.96654272]
 [0.5        0.92098566]
 [0.6        1.84821975]
 [0.7        0.23838951]
 [0.8        0.65493925]
 [0.9        1.28053314]
 [1.         0.87321298]
 [1.09391667 0.74058038]]",1,0.516
5,m,38,english,5,3,english,2024-02-13 18:25:01.646341,False,1,47,sounds\english\audio/english_548.wav,"[[  0.         -24.88128465]
 [  0.1          1.54687273]
 [  0.2         58.02940435]
 [  0.3         -2.90148727]
 [  0.4          9.31686881]
 [  0.5        -62.70026351]
 [  0.6        -56.6580034 ]
 [  0.7         14.62965286]
 [  0.8        -14.87483285]
 [  0.9         69.23683794]
 [  1.         -42.98683333]
 [  1.09391667  67.19958302]]","[[0.         1.63350405]
 [0.1        0.1653087 ]
 [0.2        0.01517729]
 [0.3        1.81666457]
 [0.4        0.9208407 ]
 [0.5        1.35074745]
 [0.6        0.86467249]
 [0.7        1.73416909]
 [0.8        1.42113571]
 [0.9        0.95555023]
 [1.         1.22888343]
 [1.09391667 1.18114311]]",1,0.297
5,m,38,english,5,3,english,2024-02-13 18:25:01.646341,False,1,48,sounds\english\audio/english_829.wav,"[[  0.          -7.89955856]
 [  0.1        -18.01769042]
 [  0.2         57.48418942]
 [  0.3         41.9687918 ]
 [  0.4        -61.64702177]
 [  0.5        -20.29007911]
 [  0.6         93.24496902]
 [  0.7        -32.99482484]
 [  0.8          6.59233546]
 [  0.9        -90.87646181]
 [  1.           9.72736643]
 [  1.09391667 -11.26207351]]","[[0.         0.852516  ]
 [0.1        0.97788956]
 [0.2        1.32810397]
 [0.3        0.18108064]
 [0.4        0.15705118]
 [0.5        0.66571436]
 [0.6        0.20869504]
 [0.7        1.27621492]
 [0.8        1.10768251]
 [0.9        1.10361444]
 [1.         0.98320382]
 [1.09391667 1.01672444]]",0,2.764
5,m,38,english,5,3,english,2024-02-13 18:25:01.646341,False,1,49,sounds\english\audio/english_725.wav,"[[  0.          -9.03644008]
 [  0.1         17.25768585]
 [  0.2         31.80596944]
 [  0.3        -37.53705258]
 [  0.4        -72.83315878]
 [  0.5        -86.89655244]
 [  0.6        -41.36643193]
 [  0.7        -24.29547068]
 [  0.8        -10.26201034]
 [  0.9        -84.73732243]
 [  1.          29.57592595]
 [  1.09391667 -31.00210879]]","[[0.         1.33439085]
 [0.1        1.14250237]
 [0.2        1.31071592]
 [0.3        0.64785465]
 [0.4        1.42686134]
 [0.5        1.9351134 ]
 [0.6        0.6329639 ]
 [0.7        1.12609379]
 [0.8        0.4317144 ]
 [0.9        0.11714111]
 [1.         1.51572797]
 [1.09391667 0.75437121]]",1,3.734
5,m,38,english,5,3,english,2024-02-13 18:25:01.646341,False,1,50,sounds\english\audio/english_149.wav,"[[  0.         -53.20573735]
 [  0.1        -90.4921868 ]
 [  0.2        -21.57127114]
 [  0.3        -29.49661343]
 [  0.4        -77.75712455]
 [  0.5        -23.65011592]
 [  0.6         -4.31853851]
 [  0.7         95.2447513 ]
 [  0.8        -64.13043019]
 [  0.9         20.09083708]
 [  1.          47.07706549]
 [  1.09391667 -54.30871038]]","[[0.         0.95670134]
 [0.1        0.5519459 ]
 [0.2        0.68228705]
 [0.3        0.40950451]
 [0.4        1.98655192]
 [0.5        0.22349442]
 [0.6        1.34559787]
 [0.7        0.78513236]
 [0.8        1.81674813]
 [0.9        1.85324621]
 [1.         1.9199937 ]
 [1.09391667 0.6097093 ]]",1,0.072
5,m,38,english,5,3,english,2024-02-13 18:25:01.646341,False,1,51,sounds\english\audio/english_73.wav,"[[  0.          38.52625464]
 [  0.1         17.92930882]
 [  0.2        -38.01807157]
 [  0.3         85.72989632]
 [  0.4         64.07938426]
 [  0.5         35.13086045]
 [  0.6        -51.81368524]
 [  0.7         67.25389113]
 [  0.8        -86.27446695]
 [  0.9        -27.14939681]
 [  1.          96.8565589 ]
 [  1.09391667  51.55403573]]","[[0.         1.16533306]
 [0.1        0.44885559]
 [0.2        0.25634763]
 [0.3        0.76435582]
 [0.4        0.66279224]
 [0.5        0.74817845]
 [0.6        1.61498224]
 [0.7        0.87077327]
 [0.8        1.49803977]
 [0.9        1.76361979]
 [1.         0.06686871]
 [1.09391667 1.63588343]]",0,0.343
5,m,38,english,5,3,english,2024-02-13 18:25:01.646341,False,1,52,sounds\english\audio/english_857.wav,"[[  0.         -56.93168928]
 [  0.1        -40.57515649]
 [  0.2        -26.26283105]
 [  0.3        -49.62797955]
 [  0.4         47.07146778]
 [  0.5        -96.41882062]
 [  0.6         63.09662026]
 [  0.7         98.67053018]
 [  0.8        -56.85749065]
 [  0.9        -18.03690135]
 [  1.          52.13097753]
 [  1.09391667  52.54650928]]","[[0.         1.92395656]
 [0.1        1.41156549]
 [0.2        0.14185194]
 [0.3        1.1985334 ]
 [0.4        0.83326814]
 [0.5        0.71224123]
 [0.6        1.58040322]
 [0.7        1.02327595]
 [0.8        1.48703987]
 [0.9        0.70290333]
 [1.         0.53460392]
 [1.09391667 1.10851945]]",1,0.44
5,m,38,english,5,3,english,2024-02-13 18:25:01.646341,False,1,53,sounds\english\audio/english_380.wav,"[[  0.         -98.28114878]
 [  0.1         56.78361718]
 [  0.2         85.44160667]
 [  0.3        -84.55731912]
 [  0.4         49.20342555]
 [  0.5        -52.595959  ]
 [  0.6         98.42131641]
 [  0.7          9.72308327]
 [  0.8         12.04937736]
 [  0.9        -39.23819918]
 [  1.          44.86165429]
 [  1.09391667  -9.34942597]]","[[0.         1.65071685]
 [0.1        0.83910099]
 [0.2        0.37505411]
 [0.3        1.88837589]
 [0.4        1.08728138]
 [0.5        1.97160724]
 [0.6        1.47544821]
 [0.7        1.24926611]
 [0.8        0.22244064]
 [0.9        0.47451493]
 [1.         1.20182695]
 [1.09391667 1.47839352]]",1,0.667
5,m,38,english,5,3,english,2024-02-13 18:25:01.646341,False,1,54,sounds\english\audio/english_758.wav,"[[  0.          44.67997232]
 [  0.1         27.10099403]
 [  0.2        -48.30493583]
 [  0.3        -73.5260898 ]
 [  0.4         19.32057449]
 [  0.5        -32.65273306]
 [  0.6        -67.58997162]
 [  0.7        -76.10184919]
 [  0.8         55.20632284]
 [  0.9          3.61347388]
 [  1.         -39.33689268]
 [  1.09391667  44.43004874]]","[[0.         1.19309781]
 [0.1        0.27221696]
 [0.2        0.58591156]
 [0.3        1.06118241]
 [0.4        1.53382291]
 [0.5        1.10934516]
 [0.6        1.53621874]
 [0.7        0.32907917]
 [0.8        0.47500698]
 [0.9        1.81944253]
 [1.         1.02148435]
 [1.09391667 0.12347796]]",0,0.407
5,m,38,english,5,3,english,2024-02-13 18:25:01.646341,False,1,55,sounds\english\audio/english_852.wav,"[[  0.         -72.43588369]
 [  0.1        -98.6251287 ]
 [  0.2        -89.42746768]
 [  0.3        -34.62530113]
 [  0.4         30.41205687]
 [  0.5          2.837509  ]
 [  0.6        -71.5278257 ]
 [  0.7         49.48057975]
 [  0.8         88.19174023]
 [  0.9         20.52660859]
 [  1.         -18.49679028]
 [  1.09391667  15.64652165]]","[[0.         0.36787591]
 [0.1        1.73505489]
 [0.2        1.62660713]
 [0.3        0.43311906]
 [0.4        0.44776213]
 [0.5        1.35793831]
 [0.6        0.32605315]
 [0.7        0.34111515]
 [0.8        1.45336533]
 [0.9        1.82703196]
 [1.         0.13003363]
 [1.09391667 0.89322684]]",1,0.511
5,m,38,english,5,3,english,2024-02-13 18:25:01.646341,False,1,56,sounds\english\audio/english_422.wav,"[[  0.          15.30476558]
 [  0.1         46.85469973]
 [  0.2        -55.01275076]
 [  0.3        -88.68955981]
 [  0.4         69.37127288]
 [  0.5         19.59216644]
 [  0.6         -6.38015959]
 [  0.7        -75.18241686]
 [  0.8         53.59227304]
 [  0.9        -58.58137106]
 [  1.         -12.61550451]
 [  1.09391667 -47.53760567]]","[[0.         1.12660373]
 [0.1        1.77150152]
 [0.2        0.07610986]
 [0.3        1.87054914]
 [0.4        0.4194099 ]
 [0.5        1.01013961]
 [0.6        1.42576712]
 [0.7        0.77140618]
 [0.8        0.92977939]
 [0.9        0.22126866]
 [1.         1.35947282]
 [1.09391667 0.9860846 ]]",1,0.476
5,m,38,english,5,3,english,2024-02-13 18:25:01.646341,False,1,57,sounds\english\audio/english_931.wav,"[[  0.         -48.18620988]
 [  0.1         93.34540741]
 [  0.2        -88.99120058]
 [  0.3         67.25284663]
 [  0.4        -10.35682297]
 [  0.5        -25.57246183]
 [  0.6        -89.21725543]
 [  0.7         48.14137998]
 [  0.8         15.08583038]
 [  0.9        -21.24642179]
 [  1.         -61.3036155 ]
 [  1.09391667  -1.60302041]]","[[0.         1.69837389]
 [0.1        1.28970497]
 [0.2        1.49371187]
 [0.3        0.85799596]
 [0.4        1.16281473]
 [0.5        1.03469104]
 [0.6        1.18976364]
 [0.7        0.15613957]
 [0.8        0.89546931]
 [0.9        1.04801932]
 [1.         0.54320379]
 [1.09391667 1.57083838]]",1,0.671
5,m,38,english,5,3,english,2024-02-13 18:25:01.646341,False,1,58,sounds\english\audio/english_896.wav,"[[  0.          15.15197213]
 [  0.1         12.09834356]
 [  0.2        -98.90945178]
 [  0.3         -7.24132806]
 [  0.4        -22.04912785]
 [  0.5         53.27175302]
 [  0.6         18.92228417]
 [  0.7         65.4652164 ]
 [  0.8         51.91420072]
 [  0.9         20.23549525]
 [  1.         -86.64191921]
 [  1.09391667 -62.9037571 ]]","[[0.         1.10343193]
 [0.1        1.24784569]
 [0.2        0.69536812]
 [0.3        1.50082123]
 [0.4        1.78962455]
 [0.5        0.59868421]
 [0.6        1.36027969]
 [0.7        1.44726147]
 [0.8        1.08983894]
 [0.9        0.07451316]
 [1.         0.79077881]
 [1.09391667 1.64262615]]",0,2.194
5,m,38,english,5,3,english,2024-02-13 18:25:01.646341,False,1,59,sounds\english\audio/english_294.wav,"[[  0.         -35.26170476]
 [  0.1        -68.79847515]
 [  0.2         21.65443345]
 [  0.3         18.61336719]
 [  0.4         29.14118392]
 [  0.5         -0.79474297]
 [  0.6        -83.10715175]
 [  0.7        -22.63410673]
 [  0.8        -21.26415856]
 [  0.9         47.90727918]
 [  1.         -39.88232682]
 [  1.09391667 -74.09279353]]","[[0.         0.76895084]
 [0.1        0.42345848]
 [0.2        1.88759315]
 [0.3        0.20743541]
 [0.4        0.10193981]
 [0.5        0.31438326]
 [0.6        1.2995954 ]
 [0.7        1.94703728]
 [0.8        0.92366458]
 [0.9        1.04223302]
 [1.         1.01801331]
 [1.09391667 0.911147  ]]",1,0.406
5,m,38,english,5,3,english,2024-02-13 18:25:01.646341,False,1,60,sounds\english\audio/english_320.wav,"[[  0.          44.47796626]
 [  0.1         72.35684443]
 [  0.2        -17.68947707]
 [  0.3         70.79565504]
 [  0.4        -42.99608759]
 [  0.5         31.43453027]
 [  0.6        -18.00256732]
 [  0.7         43.1706274 ]
 [  0.8        -37.59278076]
 [  0.9          7.82795904]
 [  1.          39.02364152]
 [  1.09391667 -63.74950888]]","[[0.         1.16365892]
 [0.1        1.32074679]
 [0.2        0.98723075]
 [0.3        1.34736881]
 [0.4        1.9395238 ]
 [0.5        1.00857384]
 [0.6        0.72649141]
 [0.7        0.12011257]
 [0.8        0.44120338]
 [0.9        0.10933434]
 [1.         0.34432793]
 [1.09391667 1.78306962]]",0,0.753
5,m,38,english,5,3,english,2024-02-13 18:25:01.646341,False,1,61,sounds\english\audio/english_566.wav,"[[  0.         -62.56630806]
 [  0.1        -47.88948562]
 [  0.2         32.64151801]
 [  0.3        -32.06511913]
 [  0.4         93.60270043]
 [  0.5         26.08771786]
 [  0.6         -3.7007295 ]
 [  0.7         58.86956752]
 [  0.8        -75.73304048]
 [  0.9        -35.43253665]
 [  1.         -21.03744822]
 [  1.09391667 -19.58423429]]","[[0.         1.86832625]
 [0.1        0.16089863]
 [0.2        0.0444821 ]
 [0.3        1.57257602]
 [0.4        1.42885531]
 [0.5        1.38538324]
 [0.6        1.01058653]
 [0.7        0.52217054]
 [0.8        1.32659726]
 [0.9        0.88864926]
 [1.         1.19784945]
 [1.09391667 0.92748285]]",1,0.397
5,m,38,english,5,3,english,2024-02-13 18:25:01.646341,False,1,62,sounds\english\audio/english_320.wav,"[[  0.          44.47796626]
 [  0.1         72.35684443]
 [  0.2        -17.68947707]
 [  0.3         70.79565504]
 [  0.4        -42.99608759]
 [  0.5         31.43453027]
 [  0.6        -18.00256732]
 [  0.7         43.1706274 ]
 [  0.8        -37.59278076]
 [  0.9          7.82795904]
 [  1.          39.02364152]
 [  1.09391667 -63.74950888]]","[[0.         1.16365892]
 [0.1        1.32074679]
 [0.2        0.98723075]
 [0.3        1.34736881]
 [0.4        1.9395238 ]
 [0.5        1.00857384]
 [0.6        0.72649141]
 [0.7        0.12011257]
 [0.8        0.44120338]
 [0.9        0.10933434]
 [1.         0.34432793]
 [1.09391667 1.78306962]]",0,0.361
5,m,38,english,5,3,english,2024-02-13 18:25:01.646341,False,1,63,sounds\english\audio/english_454.wav,"[[  0.         -40.724684  ]
 [  0.1         68.37921334]
 [  0.2        -30.05855576]
 [  0.3        -38.49973025]
 [  0.4         20.79675368]
 [  0.5         97.95643376]
 [  0.6         60.86620442]
 [  0.7         79.81874649]
 [  0.8          3.83765836]
 [  0.9         67.59623448]
 [  1.         -91.57077167]
 [  1.09391667  10.80867564]]","[[0.         1.6228839 ]
 [0.1        0.13004392]
 [0.2        0.71367383]
 [0.3        0.85329946]
 [0.4        1.21776669]
 [0.5        0.59038082]
 [0.6        0.28627533]
 [0.7        1.2119593 ]
 [0.8        0.67514721]
 [0.9        0.51660642]
 [1.         0.97010822]
 [1.09391667 1.23476154]]",1,0.642
5,m,38,english,5,3,english,2024-02-13 18:25:01.646341,False,1,64,sounds\english\audio/english_639.wav,"[[  0.           5.56347498]
 [  0.1         75.73661073]
 [  0.2        -90.85300276]
 [  0.3        -28.02471483]
 [  0.4        -62.26468724]
 [  0.5         17.80250947]
 [  0.6         29.29879682]
 [  0.7         -6.14897809]
 [  0.8        -11.9254819 ]
 [  0.9          6.20327944]
 [  1.         -44.51875699]
 [  1.09391667  52.00361599]]","[[0.         1.83509432]
 [0.1        0.44211572]
 [0.2        1.03578017]
 [0.3        0.46973677]
 [0.4        0.54820752]
 [0.5        0.51964922]
 [0.6        0.06117772]
 [0.7        0.67480304]
 [0.8        0.85869346]
 [0.9        1.90136883]
 [1.         1.31276151]
 [1.09391667 1.93524577]]",1,0.307
5,m,38,english,5,3,english,2024-02-13 18:25:01.646341,False,1,65,sounds\english\audio/english_130.wav,"[[  0.          63.22786083]
 [  0.1         87.85722404]
 [  0.2        -11.67996756]
 [  0.3        -61.23287213]
 [  0.4         31.74111168]
 [  0.5         33.84141617]
 [  0.6         19.96692936]
 [  0.7        -37.06015238]
 [  0.8         53.30817693]
 [  0.9         56.319569  ]
 [  1.          38.79278484]
 [  1.09391667  -4.91911249]]","[[0.         1.15410046]
 [0.1        0.37024368]
 [0.2        1.81334   ]
 [0.3        1.04249546]
 [0.4        0.8243923 ]
 [0.5        1.89113742]
 [0.6        0.69337223]
 [0.7        1.01307283]
 [0.8        0.67908163]
 [0.9        0.07541053]
 [1.         1.95325555]
 [1.09391667 0.98387982]]",0,0.366
5,m,38,english,5,3,english,2024-02-13 18:25:01.646341,False,1,66,sounds\english\audio/english_697.wav,"[[  0.         -28.25272972]
 [  0.1          9.35350144]
 [  0.2         -7.31902563]
 [  0.3        -28.05711443]
 [  0.4        -24.84079268]
 [  0.5        -11.64681016]
 [  0.6        -31.01161183]
 [  0.7          8.33198828]
 [  0.8          2.96881997]
 [  0.9          1.22757185]
 [  1.          14.4901502 ]
 [  1.09391667 -93.23839425]]","[[0.         0.74562658]
 [0.1        1.65036421]
 [0.2        0.51352458]
 [0.3        1.22091514]
 [0.4        0.19652908]
 [0.5        1.30348786]
 [0.6        0.73369273]
 [0.7        1.45670074]
 [0.8        0.3217924 ]
 [0.9        0.26155094]
 [1.         1.78541804]
 [1.09391667 0.76602212]]",1,0.402
5,m,38,english,5,3,english,2024-02-13 18:25:01.646341,False,1,67,sounds\english\audio/english_310.wav,"[[ 0.00000000e+00 -7.30364012e+01]
 [ 1.00000000e-01 -2.21461231e+01]
 [ 2.00000000e-01 -6.87915777e+01]
 [ 3.00000000e-01  1.59567541e+01]
 [ 4.00000000e-01  6.90214219e-02]
 [ 5.00000000e-01  1.10751916e+01]
 [ 6.00000000e-01 -4.73549816e+00]
 [ 7.00000000e-01  8.94133264e+01]
 [ 8.00000000e-01  8.59912910e+00]
 [ 9.00000000e-01 -4.29855425e+01]
 [ 1.00000000e+00  2.17690352e+01]
 [ 1.09391667e+00 -6.85633248e+01]]","[[0.         1.20427188]
 [0.1        0.93293509]
 [0.2        0.44843766]
 [0.3        1.947333  ]
 [0.4        0.80984127]
 [0.5        0.49483553]
 [0.6        1.63471819]
 [0.7        0.6439244 ]
 [0.8        1.83711469]
 [0.9        1.01800117]
 [1.         0.59348897]
 [1.09391667 1.68402605]]",1,0.126
5,m,38,english,5,3,english,2024-02-13 18:25:01.646341,False,1,68,sounds\english\audio/english_267.wav,"[[  0.         -20.34373052]
 [  0.1         -8.01422086]
 [  0.2         93.04230665]
 [  0.3         41.74649662]
 [  0.4        -13.67169735]
 [  0.5         42.92753135]
 [  0.6        -31.66614436]
 [  0.7        -46.69110061]
 [  0.8         96.69640531]
 [  0.9        -51.1349073 ]
 [  1.         -31.48458059]
 [  1.09391667  82.51520959]]","[[0.         1.22339913]
 [0.1        0.37157124]
 [0.2        0.88881734]
 [0.3        0.98806935]
 [0.4        1.63374899]
 [0.5        1.27803897]
 [0.6        0.65843477]
 [0.7        1.12503577]
 [0.8        1.26069156]
 [0.9        0.35873403]
 [1.         1.24202174]
 [1.09391667 1.58881388]]",0,0.369
5,m,38,english,5,3,english,2024-02-13 18:25:01.646341,False,1,69,sounds\english\audio/english_704.wav,"[[  0.         -66.86347245]
 [  0.1        -33.45070856]
 [  0.2         98.95748792]
 [  0.3         40.39124026]
 [  0.4         76.62361043]
 [  0.5         61.00109246]
 [  0.6         24.61875858]
 [  0.7         32.51289689]
 [  0.8         93.51972076]
 [  0.9         43.30633586]
 [  1.           5.62352462]
 [  1.09391667  87.81172513]]","[[0.         1.10852805]
 [0.1        1.50534643]
 [0.2        1.36402955]
 [0.3        1.09402875]
 [0.4        0.97410313]
 [0.5        1.19276443]
 [0.6        0.71178311]
 [0.7        1.62027576]
 [0.8        1.01576623]
 [0.9        0.07371268]
 [1.         0.93560494]
 [1.09391667 0.13780059]]",1,0.619
5,m,38,english,5,3,english,2024-02-13 18:25:01.646341,False,1,70,sounds\english\audio/english_747.wav,"[[  0.          33.9885207 ]
 [  0.1        -71.14283381]
 [  0.2        -52.52906762]
 [  0.3         79.5756924 ]
 [  0.4        -13.30932063]
 [  0.5         25.54535415]
 [  0.6          8.02344494]
 [  0.7        -38.13543806]
 [  0.8         22.33599648]
 [  0.9        -26.77712134]
 [  1.          -6.09351927]
 [  1.09391667  43.23579595]]","[[0.         1.47964533]
 [0.1        1.57695323]
 [0.2        1.13707985]
 [0.3        1.65073603]
 [0.4        0.47172054]
 [0.5        1.37786003]
 [0.6        1.58889604]
 [0.7        1.29683876]
 [0.8        1.65514229]
 [0.9        1.18735968]
 [1.         1.37962036]
 [1.09391667 1.3791581 ]]",1,0.365
5,m,38,english,5,3,english,2024-02-13 18:25:01.646341,False,1,71,sounds\english\audio/english_875.wav,"[[  0.          96.8338791 ]
 [  0.1         37.68794022]
 [  0.2         13.97824571]
 [  0.3         18.96990702]
 [  0.4         63.2084655 ]
 [  0.5        -98.93629382]
 [  0.6         81.29612198]
 [  0.7         50.14728488]
 [  0.8         13.48666865]
 [  0.9          9.04770509]
 [  1.          37.35188663]
 [  1.09391667  68.7171347 ]]","[[0.         1.90969426]
 [0.1        1.00034929]
 [0.2        1.17763903]
 [0.3        0.35889427]
 [0.4        0.91300026]
 [0.5        1.19226844]
 [0.6        1.44163348]
 [0.7        1.08588615]
 [0.8        1.80200416]
 [0.9        0.81736325]
 [1.         1.15050925]
 [1.09391667 1.96049823]]",0,0.377
5,m,38,english,5,3,english,2024-02-13 18:25:01.646341,False,1,72,sounds\english\audio/english_308.wav,"[[  0.          52.24903485]
 [  0.1        -23.64626196]
 [  0.2        -51.25656168]
 [  0.3         22.90973994]
 [  0.4        -77.18224056]
 [  0.5        -15.74058407]
 [  0.6         68.28336148]
 [  0.7        -68.00125418]
 [  0.8        -28.10684377]
 [  0.9        -21.57286012]
 [  1.         -67.0126828 ]
 [  1.09391667  18.53594423]]","[[0.         1.51474705]
 [0.1        0.52665811]
 [0.2        1.02671755]
 [0.3        1.37852638]
 [0.4        1.59017097]
 [0.5        1.0350591 ]
 [0.6        1.54938004]
 [0.7        1.20956018]
 [0.8        0.88397822]
 [0.9        0.33660763]
 [1.         1.47798938]
 [1.09391667 0.24191373]]",1,0.557
5,m,38,english,5,3,english,2024-02-13 18:25:01.646341,False,1,73,sounds\english\audio/english_989.wav,"[[  0.          82.98869891]
 [  0.1         24.01311559]
 [  0.2         71.48528654]
 [  0.3         82.44483013]
 [  0.4         98.48869079]
 [  0.5         52.58496553]
 [  0.6        -12.54848129]
 [  0.7        -85.91000404]
 [  0.8        -71.42298859]
 [  0.9         25.94025435]
 [  1.          87.85887099]
 [  1.09391667  -0.32541585]]","[[0.         0.1174877 ]
 [0.1        0.45178594]
 [0.2        1.23946025]
 [0.3        1.76656678]
 [0.4        0.06101367]
 [0.5        0.35631173]
 [0.6        0.41315994]
 [0.7        1.50303793]
 [0.8        0.56943281]
 [0.9        1.73902477]
 [1.         1.10677421]
 [1.09391667 1.65366883]]",0,0.254
5,m,38,english,5,3,english,2024-02-13 18:25:01.646341,False,1,74,sounds\english\audio/english_510.wav,"[[  0.         -64.82277941]
 [  0.1         67.50018906]
 [  0.2         83.11599323]
 [  0.3        -40.68058334]
 [  0.4        -20.66274727]
 [  0.5         57.39601347]
 [  0.6         26.65395964]
 [  0.7         -1.22309803]
 [  0.8         91.87113136]
 [  0.9         59.67411659]
 [  1.           9.25675614]
 [  1.09391667 -85.2659012 ]]","[[0.         1.74799884]
 [0.1        1.7328265 ]
 [0.2        1.53243167]
 [0.3        0.93226309]
 [0.4        0.97994595]
 [0.5        1.11050562]
 [0.6        0.07038292]
 [0.7        0.34804353]
 [0.8        1.43252604]
 [0.9        0.49156131]
 [1.         0.83882448]
 [1.09391667 1.33145629]]",0,0.346
5,m,38,english,5,3,english,2024-02-13 18:25:01.646341,False,1,75,sounds\english\audio/english_317.wav,"[[  0.          35.80517537]
 [  0.1        -47.20528256]
 [  0.2         10.16864163]
 [  0.3         32.59206289]
 [  0.4         20.53754814]
 [  0.5        -78.8593211 ]
 [  0.6        -97.96541086]
 [  0.7         49.60543729]
 [  0.8        -69.92457952]
 [  0.9         -3.69767957]
 [  1.          -3.35302539]
 [  1.09391667  29.32411719]]","[[0.         1.51358533]
 [0.1        0.29972078]
 [0.2        1.18281069]
 [0.3        1.39231518]
 [0.4        1.77974686]
 [0.5        1.1695001 ]
 [0.6        1.77666203]
 [0.7        0.8164879 ]
 [0.8        0.08502592]
 [0.9        1.29069951]
 [1.         0.64002495]
 [1.09391667 1.74584587]]",0,0.634
5,m,38,english,5,3,english,2024-02-13 18:25:01.646341,False,1,76,sounds\english\audio/english_579.wav,"[[  0.          -6.35392527]
 [  0.1          5.78092652]
 [  0.2         55.74149698]
 [  0.3         64.66054606]
 [  0.4        -20.37343055]
 [  0.5         97.55604333]
 [  0.6         -7.40313463]
 [  0.7         -9.7199121 ]
 [  0.8        -43.88557754]
 [  0.9         89.28129007]
 [  1.          21.49927336]
 [  1.09391667  85.53999973]]","[[0.         1.17195822]
 [0.1        1.67817047]
 [0.2        0.96512057]
 [0.3        0.73760998]
 [0.4        0.24043414]
 [0.5        0.0297902 ]
 [0.6        0.83835869]
 [0.7        0.36547932]
 [0.8        1.0786992 ]
 [0.9        1.76340712]
 [1.         0.94339598]
 [1.09391667 1.1220246 ]]",1,0.54
5,m,38,english,5,3,english,2024-02-13 18:25:01.646341,False,1,77,sounds\english\audio/english_125.wav,"[[  0.          37.27554733]
 [  0.1         24.29830201]
 [  0.2        -43.3040728 ]
 [  0.3         32.63559677]
 [  0.4         65.75819377]
 [  0.5         93.24268126]
 [  0.6        -15.30697981]
 [  0.7         92.42760244]
 [  0.8         43.95412796]
 [  0.9         15.32237433]
 [  1.         -94.44407427]
 [  1.09391667  87.09346239]]","[[0.         0.5612227 ]
 [0.1        1.75747345]
 [0.2        1.33602667]
 [0.3        0.25379983]
 [0.4        0.46765889]
 [0.5        0.0945868 ]
 [0.6        1.31767057]
 [0.7        0.46721292]
 [0.8        1.38944415]
 [0.9        1.70361777]
 [1.         0.93528665]
 [1.09391667 1.20335548]]",1,0.319
5,m,38,english,5,3,english,2024-02-13 18:25:01.646341,False,1,78,sounds\english\audio/english_222.wav,"[[  0.          96.40991371]
 [  0.1         44.65841575]
 [  0.2        -16.29621217]
 [  0.3        -48.55554978]
 [  0.4         26.12822135]
 [  0.5         56.43887594]
 [  0.6         -8.03605186]
 [  0.7         54.77211039]
 [  0.8         25.53059274]
 [  0.9        -58.35574141]
 [  1.         -61.20346584]
 [  1.09391667  99.40713186]]","[[0.         0.9507269 ]
 [0.1        1.79183575]
 [0.2        1.09244309]
 [0.3        1.6357802 ]
 [0.4        0.19893477]
 [0.5        0.38875901]
 [0.6        0.73216499]
 [0.7        1.11169146]
 [0.8        0.05558172]
 [0.9        0.18202708]
 [1.         0.44521291]
 [1.09391667 0.13186743]]",0,0.396
5,m,38,english,5,3,english,2024-02-13 18:25:01.646341,False,1,79,sounds\english\audio/english_358.wav,"[[  0.          92.28677649]
 [  0.1        -12.9582866 ]
 [  0.2        -98.82534689]
 [  0.3        -63.08847482]
 [  0.4         92.88960715]
 [  0.5         40.59705886]
 [  0.6        -76.45051274]
 [  0.7        -92.98382241]
 [  0.8        -79.17872568]
 [  0.9         63.6003007 ]
 [  1.         -21.46486279]
 [  1.09391667  94.02075741]]","[[0.         0.81523353]
 [0.1        0.40862617]
 [0.2        0.64915378]
 [0.3        1.66113288]
 [0.4        0.52783471]
 [0.5        0.06151942]
 [0.6        0.90334042]
 [0.7        0.974558  ]
 [0.8        1.86712718]
 [0.9        1.75794987]
 [1.         1.76155667]
 [1.09391667 1.61274026]]",1,0.046
5,m,38,english,5,3,english,2024-02-13 18:25:01.646341,False,1,80,sounds\english\audio/english_962.wav,"[[  0.         -16.60048673]
 [  0.1         86.97119881]
 [  0.2         60.43507778]
 [  0.3         34.28838618]
 [  0.4         -3.8203387 ]
 [  0.5         82.49891636]
 [  0.6         22.18578672]
 [  0.7         20.13766391]
 [  0.8         74.50191695]
 [  0.9         68.04596391]
 [  1.         -41.45827676]
 [  1.09391667 -81.40338911]]","[[0.         0.55938727]
 [0.1        1.40731286]
 [0.2        0.29415182]
 [0.3        0.53536257]
 [0.4        0.38742579]
 [0.5        0.91323434]
 [0.6        0.69102333]
 [0.7        0.47321431]
 [0.8        1.91525386]
 [0.9        0.05569164]
 [1.         1.5038001 ]
 [1.09391667 1.11433977]]",1,0.4
5,m,38,english,5,3,english,2024-02-13 18:25:01.646341,False,1,81,sounds\english\audio/english_35.wav,"[[ 0.00000000e+00 -3.32471352e+01]
 [ 1.00000000e-01 -5.69991421e+01]
 [ 2.00000000e-01 -5.31410250e+01]
 [ 3.00000000e-01 -9.74707920e+01]
 [ 4.00000000e-01  2.52422215e+01]
 [ 5.00000000e-01 -3.90524292e+01]
 [ 6.00000000e-01 -9.90462998e+01]
 [ 7.00000000e-01  4.80059539e+01]
 [ 8.00000000e-01  7.34220257e+01]
 [ 9.00000000e-01 -4.18143130e+01]
 [ 1.00000000e+00  4.06702180e-02]
 [ 1.09391667e+00  3.42858519e+01]]","[[0.         0.63198815]
 [0.1        0.43394686]
 [0.2        1.61809769]
 [0.3        0.75167401]
 [0.4        0.72143441]
 [0.5        1.49847169]
 [0.6        0.81761607]
 [0.7        1.11392086]
 [0.8        1.25690952]
 [0.9        1.7324837 ]
 [1.         0.64426718]
 [1.09391667 1.0286628 ]]",0,0.316
5,m,38,english,5,3,english,2024-02-13 18:25:01.646341,False,1,82,sounds\english\audio/english_646.wav,"[[  0.         -72.16367523]
 [  0.1         89.23048569]
 [  0.2          3.93643173]
 [  0.3         32.33211102]
 [  0.4         57.94131679]
 [  0.5          3.36702109]
 [  0.6         61.97454592]
 [  0.7        -38.94515992]
 [  0.8         18.02819855]
 [  0.9         -7.01403953]
 [  1.          22.99913436]
 [  1.09391667 -15.24744046]]","[[0.         1.23252036]
 [0.1        0.41153547]
 [0.2        1.30500866]
 [0.3        0.16779894]
 [0.4        1.44956343]
 [0.5        0.43462   ]
 [0.6        1.17161273]
 [0.7        1.33009112]
 [0.8        1.9601355 ]
 [0.9        1.16018484]
 [1.         0.4872476 ]
 [1.09391667 0.4931797 ]]",0,0.772
5,m,38,english,5,3,english,2024-02-13 18:25:01.646341,False,1,83,sounds\english\audio/english_97.wav,"[[  0.          76.37857638]
 [  0.1         -4.28991847]
 [  0.2         47.01039737]
 [  0.3         78.99599817]
 [  0.4        -74.44800797]
 [  0.5         -0.92525099]
 [  0.6         49.24834696]
 [  0.7         54.51821925]
 [  0.8         21.55646095]
 [  0.9         38.61141557]
 [  1.         -51.21992239]
 [  1.09391667 -54.62741944]]","[[0.         1.79294701]
 [0.1        0.18306204]
 [0.2        1.8440549 ]
 [0.3        1.28830428]
 [0.4        0.92549922]
 [0.5        1.98803443]
 [0.6        1.73109288]
 [0.7        0.57923617]
 [0.8        1.43675725]
 [0.9        0.35677857]
 [1.         0.21609993]
 [1.09391667 0.92594918]]",0,0.61
5,m,38,english,5,3,english,2024-02-13 18:25:01.646341,False,1,84,sounds\english\audio/english_868.wav,"[[  0.           8.81168197]
 [  0.1         28.82624603]
 [  0.2        -13.41860503]
 [  0.3         -3.78239355]
 [  0.4        -99.28888376]
 [  0.5         97.17399406]
 [  0.6         -7.91387191]
 [  0.7         60.9049728 ]
 [  0.8        -11.98639675]
 [  0.9         -1.38257528]
 [  1.          25.89344048]
 [  1.09391667 -40.04347975]]","[[0.         0.91928245]
 [0.1        1.1322176 ]
 [0.2        0.903902  ]
 [0.3        0.85237712]
 [0.4        0.30528578]
 [0.5        0.73312891]
 [0.6        1.49247212]
 [0.7        1.20652206]
 [0.8        1.13523652]
 [0.9        0.60296342]
 [1.         0.75702193]
 [1.09391667 0.87917509]]",0,0.506
5,m,38,english,5,3,english,2024-02-13 18:25:01.646341,False,1,85,sounds\english\audio/english_194.wav,"[[  0.          56.78701541]
 [  0.1        -17.75053988]
 [  0.2         33.25886054]
 [  0.3        -36.30427417]
 [  0.4         87.2538064 ]
 [  0.5        -35.38798336]
 [  0.6        -16.86822867]
 [  0.7          3.74513195]
 [  0.8        -97.03953589]
 [  0.9        -34.95000954]
 [  1.          41.79469937]
 [  1.09391667 -99.09961294]]","[[0.         1.42004802]
 [0.1        0.01035796]
 [0.2        1.01435424]
 [0.3        0.10390295]
 [0.4        0.79219746]
 [0.5        0.28919857]
 [0.6        1.14065301]
 [0.7        1.55329947]
 [0.8        1.8735666 ]
 [0.9        1.68004219]
 [1.         0.7970796 ]
 [1.09391667 1.89727803]]",1,0.289
5,m,38,english,5,3,english,2024-02-13 18:25:01.646341,False,1,86,sounds\english\audio/english_565.wav,"[[  0.          90.76087004]
 [  0.1         90.93114699]
 [  0.2        -32.37019607]
 [  0.3         77.30434891]
 [  0.4         -9.73234267]
 [  0.5        -83.24650182]
 [  0.6         21.51683352]
 [  0.7         88.66647516]
 [  0.8         21.52943084]
 [  0.9          0.60796245]
 [  1.           9.87605239]
 [  1.09391667  92.11409348]]","[[0.         0.64245812]
 [0.1        0.32525734]
 [0.2        1.091812  ]
 [0.3        0.92230791]
 [0.4        0.30031599]
 [0.5        0.39093775]
 [0.6        0.75549465]
 [0.7        1.68865449]
 [0.8        0.98033477]
 [0.9        1.75979764]
 [1.         1.41337712]
 [1.09391667 0.97633592]]",0,1.022
5,m,38,english,5,3,english,2024-02-13 18:25:01.646341,False,1,87,sounds\english\audio/english_94.wav,"[[  0.         -69.13613192]
 [  0.1        -53.91573564]
 [  0.2         88.54569891]
 [  0.3         47.91558238]
 [  0.4         46.13883045]
 [  0.5          0.71209955]
 [  0.6         53.89774049]
 [  0.7         37.22112319]
 [  0.8          8.13348347]
 [  0.9        -10.35793642]
 [  1.          75.25647247]
 [  1.09391667 -70.34686187]]","[[0.         0.71683615]
 [0.1        1.64130178]
 [0.2        1.41561382]
 [0.3        0.72478091]
 [0.4        1.21480875]
 [0.5        0.13058063]
 [0.6        1.07607775]
 [0.7        0.10112022]
 [0.8        0.91343474]
 [0.9        0.77751528]
 [1.         0.57088528]
 [1.09391667 0.98841109]]",1,2.109
5,m,38,english,5,3,english,2024-02-13 18:25:01.646341,False,1,88,sounds\english\audio/english_113.wav,"[[  0.          15.28166422]
 [  0.1         47.09879561]
 [  0.2         30.55065419]
 [  0.3         60.74459651]
 [  0.4        -80.73338373]
 [  0.5        -58.25545597]
 [  0.6         82.81118061]
 [  0.7        -61.4933419 ]
 [  0.8         15.22379089]
 [  0.9        -30.23460484]
 [  1.          29.92994598]
 [  1.09391667  22.43308389]]","[[0.         0.55667307]
 [0.1        0.58592964]
 [0.2        1.23790542]
 [0.3        0.97364291]
 [0.4        0.01252312]
 [0.5        0.68334247]
 [0.6        0.36908508]
 [0.7        0.9756346 ]
 [0.8        1.72445689]
 [0.9        0.62749292]
 [1.         0.55530103]
 [1.09391667 0.65235156]]",0,2.548
5,m,38,english,5,3,english,2024-02-13 18:25:01.646341,False,1,89,sounds\english\audio/english_933.wav,"[[  0.         -32.55224072]
 [  0.1         59.44257797]
 [  0.2         17.39690353]
 [  0.3        -22.68529576]
 [  0.4        -75.07818399]
 [  0.5        -42.21384225]
 [  0.6         88.28795698]
 [  0.7        -93.76467276]
 [  0.8        -63.09167857]
 [  0.9         42.2087571 ]
 [  1.          48.07358396]
 [  1.09391667  62.42851897]]","[[0.         0.19221515]
 [0.1        1.43025401]
 [0.2        1.54503316]
 [0.3        0.8626505 ]
 [0.4        0.16630427]
 [0.5        0.04785165]
 [0.6        0.15375828]
 [0.7        0.19154161]
 [0.8        1.95653775]
 [0.9        0.40020781]
 [1.         0.86859993]
 [1.09391667 1.49244645]]",1,1.221
5,m,38,english,5,3,english,2024-02-13 18:25:01.646341,False,1,90,sounds\english\audio/english_680.wav,"[[  0.          34.87100104]
 [  0.1        -42.78152033]
 [  0.2         53.30670494]
 [  0.3        -19.15351041]
 [  0.4         81.43981803]
 [  0.5        -40.3529223 ]
 [  0.6        -80.08540334]
 [  0.7        -59.88446673]
 [  0.8         14.21531263]
 [  0.9         39.26105915]
 [  1.         -43.76684188]
 [  1.09391667 -17.50761484]]","[[0.         0.28324866]
 [0.1        0.8126674 ]
 [0.2        0.29371905]
 [0.3        0.35755618]
 [0.4        1.51227527]
 [0.5        1.96868376]
 [0.6        0.83617015]
 [0.7        0.96819403]
 [0.8        0.41039135]
 [0.9        0.45984498]
 [1.         0.60924907]
 [1.09391667 0.18151502]]",0,0.502
5,m,38,english,5,3,english,2024-02-13 18:25:01.646341,False,1,91,sounds\english\audio/english_219.wav,"[[  0.         -71.22269302]
 [  0.1         81.0106601 ]
 [  0.2         57.89841848]
 [  0.3        -20.90242642]
 [  0.4        -14.30711836]
 [  0.5        -91.16050531]
 [  0.6        -51.25509361]
 [  0.7        -32.58617714]
 [  0.8         -1.65304819]
 [  0.9        -46.25752807]
 [  1.         -57.14980858]
 [  1.09391667  -0.56518547]]","[[0.         0.64229707]
 [0.1        0.83761643]
 [0.2        0.27469413]
 [0.3        1.66128254]
 [0.4        1.11706047]
 [0.5        0.71185951]
 [0.6        0.78321207]
 [0.7        1.3379864 ]
 [0.8        1.4411775 ]
 [0.9        1.25595477]
 [1.         0.30425647]
 [1.09391667 1.82291256]]",1,0.324
5,m,38,english,5,3,english,2024-02-13 18:25:01.646341,False,1,92,sounds\english\audio/english_53.wav,"[[  0.          -9.98510741]
 [  0.1         90.79697624]
 [  0.2        -13.66139315]
 [  0.3        -58.03832427]
 [  0.4        -14.2879771 ]
 [  0.5         -9.92334291]
 [  0.6         48.00852586]
 [  0.7         -7.96828411]
 [  0.8          3.91211897]
 [  0.9          9.32007469]
 [  1.         -65.1483507 ]
 [  1.09391667 -31.85609608]]","[[0.         0.74460472]
 [0.1        1.15408397]
 [0.2        1.79328536]
 [0.3        1.05093724]
 [0.4        0.44247057]
 [0.5        0.88826362]
 [0.6        1.51515328]
 [0.7        1.78598668]
 [0.8        0.80456615]
 [0.9        0.44108586]
 [1.         1.43639609]
 [1.09391667 1.915162  ]]",0,0.502
5,m,38,english,5,3,english,2024-02-13 18:25:01.646341,False,1,93,sounds\english\audio/english_324.wav,"[[  0.          17.54140289]
 [  0.1         71.06846472]
 [  0.2        -58.0756972 ]
 [  0.3         21.96350357]
 [  0.4          8.51736718]
 [  0.5         54.10034556]
 [  0.6        -45.23490782]
 [  0.7        -47.50195247]
 [  0.8         90.23201078]
 [  0.9        -25.79699052]
 [  1.         -46.49971987]
 [  1.09391667  53.98083149]]","[[0.         0.28643924]
 [0.1        0.89310243]
 [0.2        0.19434283]
 [0.3        1.40300385]
 [0.4        0.22031138]
 [0.5        1.10087032]
 [0.6        0.61239123]
 [0.7        0.50887139]
 [0.8        1.93720132]
 [0.9        1.9219801 ]
 [1.         0.58550327]
 [1.09391667 0.44963146]]",1,0.071
5,m,38,english,5,3,english,2024-02-13 18:25:01.646341,False,1,94,sounds\english\audio/english_718.wav,"[[  0.          61.00269276]
 [  0.1         -4.74934843]
 [  0.2          9.01462899]
 [  0.3         79.23930225]
 [  0.4        -22.0403667 ]
 [  0.5        -60.9220938 ]
 [  0.6         36.91126826]
 [  0.7         23.15113788]
 [  0.8        -72.29830581]
 [  0.9        -56.27843268]
 [  1.         -20.76477327]
 [  1.09391667 -26.98598325]]","[[0.         1.9915537 ]
 [0.1        0.89410112]
 [0.2        1.56072611]
 [0.3        0.98422559]
 [0.4        1.91227381]
 [0.5        1.04807259]
 [0.6        0.76136187]
 [0.7        1.40698191]
 [0.8        0.19509634]
 [0.9        0.95755477]
 [1.         0.32836836]
 [1.09391667 1.63350278]]",0,0.406
5,m,38,english,5,3,english,2024-02-13 18:25:01.646341,False,1,95,sounds\english\audio/english_594.wav,"[[  0.          -6.10063938]
 [  0.1        -56.51028651]
 [  0.2        -40.09571675]
 [  0.3         61.97563687]
 [  0.4        -85.53288451]
 [  0.5          6.67279942]
 [  0.6         48.92783255]
 [  0.7        -71.33031091]
 [  0.8          8.29148897]
 [  0.9         42.69425852]
 [  1.         -32.82046223]
 [  1.09391667 -55.40353935]]","[[0.         0.03940385]
 [0.1        0.67979763]
 [0.2        0.90921071]
 [0.3        0.53210088]
 [0.4        0.284195  ]
 [0.5        0.75512393]
 [0.6        0.67826493]
 [0.7        0.91947698]
 [0.8        0.21678931]
 [0.9        1.1378317 ]
 [1.         1.58275183]
 [1.09391667 1.87399103]]",1,0.35
5,m,38,english,5,3,english,2024-02-13 18:25:01.646341,False,1,96,sounds\english\audio/english_636.wav,"[[  0.          67.71914356]
 [  0.1         73.23750135]
 [  0.2        -94.77637622]
 [  0.3         41.8095849 ]
 [  0.4         44.54848263]
 [  0.5        -87.10854597]
 [  0.6         12.76932042]
 [  0.7        -15.47844842]
 [  0.8        -27.08826091]
 [  0.9         -8.55837042]
 [  1.          62.11399846]
 [  1.09391667   1.57014334]]","[[0.         0.71351394]
 [0.1        0.58810626]
 [0.2        0.12310704]
 [0.3        0.24518537]
 [0.4        1.96939905]
 [0.5        1.82615159]
 [0.6        0.20211228]
 [0.7        0.69598299]
 [0.8        0.43499073]
 [0.9        1.83264506]
 [1.         0.36387194]
 [1.09391667 0.65195864]]",0,1.302
5,m,38,english,5,3,english,2024-02-13 18:25:01.646341,False,1,97,sounds\english\audio/english_423.wav,"[[  0.          14.97587968]
 [  0.1        -34.63148268]
 [  0.2        -90.26081714]
 [  0.3        -14.58803961]
 [  0.4         -7.22387104]
 [  0.5         35.53049233]
 [  0.6         25.60413331]
 [  0.7        -14.11667201]
 [  0.8        -92.20277353]
 [  0.9        -87.07796468]
 [  1.          29.59041747]
 [  1.09391667 -44.50154925]]","[[0.         1.13809389]
 [0.1        0.13664932]
 [0.2        1.51640257]
 [0.3        0.57152823]
 [0.4        1.59105038]
 [0.5        1.75239153]
 [0.6        0.92175269]
 [0.7        0.83955403]
 [0.8        1.39265863]
 [0.9        1.53990744]
 [1.         0.81858977]
 [1.09391667 1.48480195]]",1,1.981
5,m,38,english,5,3,english,2024-02-13 18:25:01.646341,False,1,98,sounds\english\audio/english_268.wav,"[[  0.         -10.36348141]
 [  0.1         83.25825445]
 [  0.2         90.11608715]
 [  0.3         32.1996215 ]
 [  0.4          8.976783  ]
 [  0.5         -6.95203106]
 [  0.6         67.82169398]
 [  0.7         50.85858074]
 [  0.8         11.07143565]
 [  0.9         40.44499652]
 [  1.          87.615801  ]
 [  1.09391667 -54.91088926]]","[[0.         0.34238631]
 [0.1        0.93968033]
 [0.2        0.03117119]
 [0.3        0.99400779]
 [0.4        0.56090086]
 [0.5        0.18644764]
 [0.6        1.05098713]
 [0.7        0.33151379]
 [0.8        0.1498151 ]
 [0.9        0.7130759 ]
 [1.         0.85732073]
 [1.09391667 1.8995277 ]]",0,15.223
5,m,38,english,5,3,english,2024-02-13 18:25:01.646341,False,1,99,sounds\english\audio/english_934.wav,"[[  0.         -11.34943225]
 [  0.1         65.85322301]
 [  0.2        -85.4605192 ]
 [  0.3         13.55265206]
 [  0.4          0.50969379]
 [  0.5         69.19486286]
 [  0.6        -98.42209139]
 [  0.7        -96.61496438]
 [  0.8        -65.00160108]
 [  0.9         48.73056023]
 [  1.          10.84569579]
 [  1.09391667  97.87119684]]","[[0.         0.24415631]
 [0.1        1.37961224]
 [0.2        1.63298201]
 [0.3        0.01798396]
 [0.4        0.66397169]
 [0.5        0.2241268 ]
 [0.6        1.8505399 ]
 [0.7        1.29472214]
 [0.8        0.83065813]
 [0.9        1.34944931]
 [1.         1.40216081]
 [1.09391667 1.98377201]]",0,0.579
5,m,38,english,5,3,english,2024-02-13 18:25:01.646341,False,1,100,sounds\english\audio/english_853.wav,"[[  0.          73.80957671]
 [  0.1         37.61319896]
 [  0.2         66.36541624]
 [  0.3         52.83840981]
 [  0.4        -44.13201993]
 [  0.5         78.92983873]
 [  0.6         81.37511439]
 [  0.7        -17.4677503 ]
 [  0.8         -1.76399053]
 [  0.9         46.72276769]
 [  1.         -99.76046779]
 [  1.09391667 -16.24419339]]","[[0.         0.26230627]
 [0.1        1.27859335]
 [0.2        1.90614201]
 [0.3        1.77793473]
 [0.4        1.82128224]
 [0.5        0.37682562]
 [0.6        0.77805764]
 [0.7        1.13496325]
 [0.8        0.96839897]
 [0.9        1.53181919]
 [1.         0.67948754]
 [1.09391667 1.26605171]]",0,0.488
5,m,38,english,5,3,english,2024-02-13 18:25:01.646341,False,1,101,sounds\english\audio/english_349.wav,"[[  0.          78.21791369]
 [  0.1          9.4630269 ]
 [  0.2         -3.29994587]
 [  0.3         13.5324371 ]
 [  0.4         88.19527441]
 [  0.5          1.7504357 ]
 [  0.6        -42.50120826]
 [  0.7        -43.9320192 ]
 [  0.8        -72.26393539]
 [  0.9        -37.61612777]
 [  1.           9.822435  ]
 [  1.09391667 -46.39218801]]","[[0.         0.37053366]
 [0.1        0.06190409]
 [0.2        0.20284396]
 [0.3        0.23510746]
 [0.4        1.05287262]
 [0.5        1.51424362]
 [0.6        0.74446718]
 [0.7        1.35303028]
 [0.8        1.8690989 ]
 [0.9        1.42604643]
 [1.         1.6879771 ]
 [1.09391667 0.80624402]]",0,2.879
5,m,38,english,5,3,english,2024-02-13 18:25:01.646341,False,1,102,sounds\english\audio/english_842.wav,"[[  0.         -81.72100022]
 [  0.1         18.84637506]
 [  0.2        -80.18621681]
 [  0.3         38.99509662]
 [  0.4         24.76840986]
 [  0.5        -19.71585535]
 [  0.6         69.03077802]
 [  0.7         35.91349986]
 [  0.8        -27.17447615]
 [  0.9        -26.64790606]
 [  1.          27.41987323]
 [  1.09391667  30.72990316]]","[[0.         1.05096469]
 [0.1        0.68369723]
 [0.2        1.52749806]
 [0.3        0.81526033]
 [0.4        1.70702662]
 [0.5        1.05576458]
 [0.6        0.15620837]
 [0.7        1.43624924]
 [0.8        0.34293919]
 [0.9        1.32305508]
 [1.         1.04384127]
 [1.09391667 1.55933633]]",0,0.313
5,m,38,english,5,3,english,2024-02-13 18:25:01.646341,False,1,103,sounds\english\audio/english_436.wav,"[[  0.          -5.79676766]
 [  0.1         -7.88979016]
 [  0.2        -30.02673636]
 [  0.3         10.91379363]
 [  0.4          1.79762369]
 [  0.5         73.94991314]
 [  0.6         77.03109361]
 [  0.7        -48.27841607]
 [  0.8         57.26579501]
 [  0.9        -80.56784579]
 [  1.          64.74546515]
 [  1.09391667   5.24901362]]","[[0.         0.51982844]
 [0.1        1.6050725 ]
 [0.2        1.59647027]
 [0.3        1.97742112]
 [0.4        1.85601804]
 [0.5        1.38993988]
 [0.6        1.43065154]
 [0.7        0.14937688]
 [0.8        1.65528817]
 [0.9        1.0202375 ]
 [1.         1.82414723]
 [1.09391667 1.00971458]]",1,0.733
5,m,38,english,5,3,english,2024-02-13 18:25:01.646341,False,1,104,sounds\english\audio/english_816.wav,"[[  0.         -17.35587933]
 [  0.1          0.95768859]
 [  0.2         47.37608494]
 [  0.3        -29.30928245]
 [  0.4          0.3886714 ]
 [  0.5         11.78751261]
 [  0.6         -3.17696206]
 [  0.7        -19.53944189]
 [  0.8         -7.70582249]
 [  0.9        -20.54964166]
 [  1.         -60.75740285]
 [  1.09391667 -12.71558958]]","[[0.         1.80713615]
 [0.1        0.65818518]
 [0.2        0.13743933]
 [0.3        0.63156649]
 [0.4        0.74841843]
 [0.5        1.47868634]
 [0.6        1.19861887]
 [0.7        0.27488431]
 [0.8        0.84423799]
 [0.9        0.77450003]
 [1.         1.95248665]
 [1.09391667 0.720403  ]]",0,0.421
5,m,38,english,5,3,english,2024-02-13 18:25:01.646341,False,1,105,sounds\english\audio/english_595.wav,"[[  0.          22.66066479]
 [  0.1         84.39995443]
 [  0.2         19.72307996]
 [  0.3        -75.24605749]
 [  0.4        -67.45783177]
 [  0.5        -37.47794161]
 [  0.6         11.08818928]
 [  0.7         46.85817265]
 [  0.8         -2.92238114]
 [  0.9         58.48560552]
 [  1.         -52.60786122]
 [  1.09391667  16.6492661 ]]","[[0.         1.33322286]
 [0.1        0.79225642]
 [0.2        0.78213906]
 [0.3        0.04755157]
 [0.4        1.8774159 ]
 [0.5        0.68932381]
 [0.6        1.24235148]
 [0.7        1.6524831 ]
 [0.8        0.95449466]
 [0.9        1.23515898]
 [1.         1.92684196]
 [1.09391667 0.85611045]]",0,0.351
5,m,38,english,5,3,english,2024-02-13 18:25:01.646341,False,1,106,sounds\english\audio/english_685.wav,"[[  0.          62.22235335]
 [  0.1        -97.11025465]
 [  0.2         72.03160739]
 [  0.3         40.47895004]
 [  0.4        -75.64985874]
 [  0.5        -62.21115329]
 [  0.6         34.38722215]
 [  0.7         96.86141958]
 [  0.8         52.32592552]
 [  0.9         47.74773781]
 [  1.          37.75239805]
 [  1.09391667 -10.16077912]]","[[0.         0.91642602]
 [0.1        1.72329218]
 [0.2        1.99088782]
 [0.3        0.00501952]
 [0.4        1.41330373]
 [0.5        0.58310659]
 [0.6        1.5248844 ]
 [0.7        0.15841589]
 [0.8        1.39576372]
 [0.9        1.97205737]
 [1.         1.24408728]
 [1.09391667 1.54258522]]",0,0.364
5,m,38,english,5,3,english,2024-02-13 18:25:01.646341,False,1,107,sounds\english\audio/english_465.wav,"[[  0.          32.62808343]
 [  0.1        -19.45954063]
 [  0.2         31.8583501 ]
 [  0.3         62.10393883]
 [  0.4         18.6647785 ]
 [  0.5         60.37095119]
 [  0.6        -66.90125798]
 [  0.7        -81.40602189]
 [  0.8         50.53882687]
 [  0.9        -56.46028762]
 [  1.          17.60561432]
 [  1.09391667  99.29101089]]","[[0.         1.95674705]
 [0.1        0.2020369 ]
 [0.2        0.52421729]
 [0.3        0.65974817]
 [0.4        0.39728546]
 [0.5        0.37134149]
 [0.6        0.92371442]
 [0.7        0.31310251]
 [0.8        1.13414137]
 [0.9        0.34422608]
 [1.         1.91257156]
 [1.09391667 1.23959362]]",1,0.327
5,m,38,english,5,3,english,2024-02-13 18:25:01.646341,False,1,108,sounds\english\audio/english_197.wav,"[[  0.          -0.52164664]
 [  0.1        -87.40194418]
 [  0.2        -52.79027246]
 [  0.3        -48.86802506]
 [  0.4         81.82701326]
 [  0.5        -49.36038243]
 [  0.6         60.40718162]
 [  0.7         23.14241749]
 [  0.8          6.00272562]
 [  0.9        -33.15203134]
 [  1.          87.44378179]
 [  1.09391667 -36.11997575]]","[[0.         0.76048058]
 [0.1        1.46601293]
 [0.2        1.17311431]
 [0.3        0.52190861]
 [0.4        0.75360033]
 [0.5        0.57280926]
 [0.6        1.08660509]
 [0.7        1.00122778]
 [0.8        0.93136252]
 [0.9        1.24898943]
 [1.         1.94648397]
 [1.09391667 0.88926449]]",0,0.171
5,m,38,english,5,3,english,2024-02-13 18:25:01.646341,False,1,109,sounds\english\audio/english_415.wav,"[[  0.          84.16048874]
 [  0.1         56.88803289]
 [  0.2        -77.93771944]
 [  0.3         33.37600363]
 [  0.4        -61.82656021]
 [  0.5        -67.90016523]
 [  0.6         96.16166422]
 [  0.7        -50.86749148]
 [  0.8         55.29150844]
 [  0.9         -2.61257825]
 [  1.         -83.3993401 ]
 [  1.09391667  24.68732816]]","[[0.         1.30136544]
 [0.1        0.47786549]
 [0.2        0.87690241]
 [0.3        1.56003174]
 [0.4        0.56797275]
 [0.5        1.69402787]
 [0.6        0.32249707]
 [0.7        0.03139967]
 [0.8        1.30261133]
 [0.9        0.40350463]
 [1.         1.74375152]
 [1.09391667 0.25871995]]",0,0.903
5,m,38,english,5,3,english,2024-02-13 18:25:01.646341,False,1,110,sounds\english\audio/english_350.wav,"[[  0.         -49.74850435]
 [  0.1         68.30317627]
 [  0.2        -65.19955472]
 [  0.3         16.55905503]
 [  0.4        -91.2937095 ]
 [  0.5         15.43319067]
 [  0.6        -45.85963286]
 [  0.7         19.61186346]
 [  0.8        -16.08875957]
 [  0.9         46.96260951]
 [  1.          42.75278918]
 [  1.09391667 -15.03240418]]","[[0.         0.22554434]
 [0.1        1.05889666]
 [0.2        1.66837242]
 [0.3        1.26247407]
 [0.4        1.50505412]
 [0.5        1.94963106]
 [0.6        1.1132199 ]
 [0.7        0.36047723]
 [0.8        0.33369352]
 [0.9        0.35479608]
 [1.         0.24605451]
 [1.09391667 1.96587805]]",0,0.677
5,m,38,english,5,3,english,2024-02-13 18:25:01.646341,False,1,111,sounds\english\audio/english_898.wav,"[[  0.         -34.72631164]
 [  0.1         67.7212699 ]
 [  0.2         92.06316774]
 [  0.3        -76.73151606]
 [  0.4         97.93920214]
 [  0.5         99.11447245]
 [  0.6         83.05225532]
 [  0.7        -27.3520563 ]
 [  0.8         40.20374668]
 [  0.9        -11.73877097]
 [  1.         -73.8798446 ]
 [  1.09391667  81.33954877]]","[[0.         0.55709283]
 [0.1        1.5055727 ]
 [0.2        1.25694743]
 [0.3        1.78673408]
 [0.4        0.88325681]
 [0.5        1.91785586]
 [0.6        1.93702091]
 [0.7        1.06642546]
 [0.8        1.06201677]
 [0.9        0.68712783]
 [1.         0.31583941]
 [1.09391667 1.03949418]]",0,0.602
5,m,38,english,5,3,english,2024-02-13 18:25:01.646341,False,1,112,sounds\english\audio/english_264.wav,"[[  0.          -7.97071304]
 [  0.1          5.26810794]
 [  0.2         42.90180093]
 [  0.3         32.54664666]
 [  0.4        -75.33920427]
 [  0.5        -92.87225366]
 [  0.6          1.54584209]
 [  0.7        -61.85301996]
 [  0.8        -59.27209487]
 [  0.9         -3.4044868 ]
 [  1.          20.29119999]
 [  1.09391667  76.66199878]]","[[0.         0.52584892]
 [0.1        0.35098417]
 [0.2        0.87826506]
 [0.3        0.85267403]
 [0.4        0.05665148]
 [0.5        0.902019  ]
 [0.6        0.36999328]
 [0.7        1.87523396]
 [0.8        0.99775271]
 [0.9        0.18460265]
 [1.         0.05992377]
 [1.09391667 1.79844018]]",1,15.362
5,m,38,english,5,3,english,2024-02-13 18:25:01.646341,False,1,113,sounds\english\audio/english_106.wav,"[[  0.          49.34223169]
 [  0.1        -45.57503338]
 [  0.2        -15.08492624]
 [  0.3        -19.8979669 ]
 [  0.4        -25.53796799]
 [  0.5         88.30993321]
 [  0.6        -64.76962788]
 [  0.7        -39.71315935]
 [  0.8         92.87896843]
 [  0.9        -52.99965121]
 [  1.          37.25809924]
 [  1.09391667  83.50306975]]","[[0.         0.13389709]
 [0.1        0.25174437]
 [0.2        0.82402432]
 [0.3        0.82208583]
 [0.4        1.38135822]
 [0.5        0.76093903]
 [0.6        0.57981415]
 [0.7        1.62636068]
 [0.8        1.17795772]
 [0.9        0.06230935]
 [1.         0.54036795]
 [1.09391667 1.72343759]]",0,11.268
5,m,38,english,5,3,english,2024-02-13 18:25:01.646341,False,1,114,sounds\english\audio/english_114.wav,"[[  0.         -38.33361484]
 [  0.1        -12.76602364]
 [  0.2          0.32729235]
 [  0.3        -29.2958396 ]
 [  0.4        -44.05321795]
 [  0.5         77.26891482]
 [  0.6        -80.80990528]
 [  0.7        -78.02585179]
 [  0.8         14.37560873]
 [  0.9        -41.68954869]
 [  1.         -51.42719285]
 [  1.09391667  29.02505558]]","[[0.         0.25479749]
 [0.1        1.23857364]
 [0.2        0.44881648]
 [0.3        1.47628631]
 [0.4        1.29960212]
 [0.5        0.86625142]
 [0.6        1.18678323]
 [0.7        0.40341658]
 [0.8        0.69236485]
 [0.9        0.99173078]
 [1.         0.71091923]
 [1.09391667 1.73837671]]",0,0.374
5,m,38,english,5,3,english,2024-02-13 18:25:01.646341,False,1,115,sounds\english\audio/english_842.wav,"[[  0.         -81.72100022]
 [  0.1         18.84637506]
 [  0.2        -80.18621681]
 [  0.3         38.99509662]
 [  0.4         24.76840986]
 [  0.5        -19.71585535]
 [  0.6         69.03077802]
 [  0.7         35.91349986]
 [  0.8        -27.17447615]
 [  0.9        -26.64790606]
 [  1.          27.41987323]
 [  1.09391667  30.72990316]]","[[0.         1.05096469]
 [0.1        0.68369723]
 [0.2        1.52749806]
 [0.3        0.81526033]
 [0.4        1.70702662]
 [0.5        1.05576458]
 [0.6        0.15620837]
 [0.7        1.43624924]
 [0.8        0.34293919]
 [0.9        1.32305508]
 [1.         1.04384127]
 [1.09391667 1.55933633]]",0,0.513
5,m,38,english,5,3,english,2024-02-13 18:25:01.646341,False,1,116,sounds\english\audio/english_495.wav,"[[  0.          94.59077128]
 [  0.1        -55.76476968]
 [  0.2         85.25239669]
 [  0.3         70.1736543 ]
 [  0.4         19.94350226]
 [  0.5         54.47178353]
 [  0.6        -87.09076246]
 [  0.7        -72.04241592]
 [  0.8         25.07065193]
 [  0.9         90.72301547]
 [  1.          24.05757485]
 [  1.09391667 -32.87582459]]","[[0.         0.77928027]
 [0.1        0.9821174 ]
 [0.2        1.84587448]
 [0.3        0.98653196]
 [0.4        1.73373308]
 [0.5        1.46449203]
 [0.6        0.51679657]
 [0.7        0.83282116]
 [0.8        0.91008341]
 [0.9        1.90880083]
 [1.         1.11137725]
 [1.09391667 1.50541044]]",1,0.337
5,m,38,english,5,3,english,2024-02-13 18:25:01.646341,False,1,117,sounds\english\audio/english_495.wav,"[[  0.          94.59077128]
 [  0.1        -55.76476968]
 [  0.2         85.25239669]
 [  0.3         70.1736543 ]
 [  0.4         19.94350226]
 [  0.5         54.47178353]
 [  0.6        -87.09076246]
 [  0.7        -72.04241592]
 [  0.8         25.07065193]
 [  0.9         90.72301547]
 [  1.          24.05757485]
 [  1.09391667 -32.87582459]]","[[0.         0.77928027]
 [0.1        0.9821174 ]
 [0.2        1.84587448]
 [0.3        0.98653196]
 [0.4        1.73373308]
 [0.5        1.46449203]
 [0.6        0.51679657]
 [0.7        0.83282116]
 [0.8        0.91008341]
 [0.9        1.90880083]
 [1.         1.11137725]
 [1.09391667 1.50541044]]",0,0.257
5,m,38,english,5,3,english,2024-02-13 18:25:01.646341,False,1,118,sounds\english\audio/english_903.wav,"[[  0.          74.40610552]
 [  0.1        -14.0058198 ]
 [  0.2        -43.18870249]
 [  0.3         85.51038869]
 [  0.4          8.36930428]
 [  0.5        -11.10468326]
 [  0.6          0.77760872]
 [  0.7         61.82804998]
 [  0.8        -21.718638  ]
 [  0.9        -41.58529941]
 [  1.          22.99211782]
 [  1.09391667 -96.82772328]]","[[0.         1.10397813]
 [0.1        0.67044391]
 [0.2        1.06331023]
 [0.3        0.60586728]
 [0.4        0.11380816]
 [0.5        1.21530961]
 [0.6        1.48658081]
 [0.7        1.41412243]
 [0.8        0.93606202]
 [0.9        0.40038549]
 [1.         0.6748387 ]
 [1.09391667 0.72929926]]",0,0.562
5,m,38,english,5,3,english,2024-02-13 18:25:01.646341,False,1,119,sounds\english\audio/english_751.wav,"[[  0.         -66.06272789]
 [  0.1        -35.39424596]
 [  0.2         -5.06217065]
 [  0.3         34.9656481 ]
 [  0.4         21.23436914]
 [  0.5         82.13600136]
 [  0.6         31.75524198]
 [  0.7         25.74157906]
 [  0.8          0.71739343]
 [  0.9        -48.73723386]
 [  1.         -45.00388336]
 [  1.09391667 -22.7557427 ]]","[[0.         0.8938032 ]
 [0.1        0.85096145]
 [0.2        0.63682042]
 [0.3        0.66546542]
 [0.4        1.36528552]
 [0.5        1.24494727]
 [0.6        1.91319775]
 [0.7        1.46839197]
 [0.8        1.22847184]
 [0.9        1.68139256]
 [1.         0.62568337]
 [1.09391667 0.09425642]]",1,0.29
5,m,38,english,5,3,english,2024-02-13 18:25:01.646341,False,1,120,sounds\english\audio/english_346.wav,"[[  0.          24.07666509]
 [  0.1        -87.64157913]
 [  0.2        -51.3970499 ]
 [  0.3         79.45874018]
 [  0.4        -74.83031912]
 [  0.5         -2.98294823]
 [  0.6        -32.38946294]
 [  0.7        -24.81590652]
 [  0.8        -13.90891955]
 [  0.9        -33.49626836]
 [  1.         -23.2144111 ]
 [  1.09391667  -9.66358574]]","[[0.         0.66537663]
 [0.1        1.54123619]
 [0.2        0.92348631]
 [0.3        0.33920207]
 [0.4        0.94433533]
 [0.5        0.8352321 ]
 [0.6        0.95810053]
 [0.7        0.99822629]
 [0.8        0.18782062]
 [0.9        1.6271571 ]
 [1.         1.67158741]
 [1.09391667 1.16169049]]",0,0.47
5,m,38,english,5,3,english,2024-02-13 18:25:01.646341,False,1,121,sounds\english\audio/english_10.wav,"[[  0.         -15.04153425]
 [  0.1        -57.22263716]
 [  0.2         27.92618044]
 [  0.3         25.5799778 ]
 [  0.4         30.11064479]
 [  0.5         -7.71764525]
 [  0.6         27.65902171]
 [  0.7        -47.57621095]
 [  0.8         43.99977355]
 [  0.9        -15.79441044]
 [  1.         -34.81966507]
 [  1.09391667  60.77971601]]","[[0.         1.52083452]
 [0.1        1.29896522]
 [0.2        0.38561389]
 [0.3        0.99686674]
 [0.4        0.6118482 ]
 [0.5        1.86037541]
 [0.6        0.71941397]
 [0.7        1.21671158]
 [0.8        1.36149686]
 [0.9        0.57839438]
 [1.         0.86495111]
 [1.09391667 0.19592518]]",0,0.416
5,m,38,english,5,3,english,2024-02-13 18:25:01.646341,False,1,122,sounds\english\audio/english_604.wav,"[[  0.          -7.32786977]
 [  0.1        -57.46968162]
 [  0.2        -51.48206507]
 [  0.3         77.63466913]
 [  0.4         45.22839705]
 [  0.5        -27.78980975]
 [  0.6        -14.67402927]
 [  0.7         66.92200223]
 [  0.8         44.7359597 ]
 [  0.9         87.34456413]
 [  1.          37.61860755]
 [  1.09391667  91.85438616]]","[[0.         0.45756233]
 [0.1        0.00297482]
 [0.2        1.19670532]
 [0.3        0.65081773]
 [0.4        0.22469511]
 [0.5        0.33338284]
 [0.6        1.91381058]
 [0.7        0.36993011]
 [0.8        1.21459689]
 [0.9        1.1126352 ]
 [1.         1.39772335]
 [1.09391667 1.16252792]]",1,0.034
5,m,38,english,5,3,english,2024-02-13 18:25:01.646341,False,1,123,sounds\english\audio/english_109.wav,"[[  0.         -85.35755776]
 [  0.1         24.87794389]
 [  0.2         88.66282845]
 [  0.3         53.91159302]
 [  0.4         -2.76092074]
 [  0.5         79.99538148]
 [  0.6        -42.31150981]
 [  0.7         -5.15781481]
 [  0.8         31.3978044 ]
 [  0.9         46.94636463]
 [  1.          63.69340257]
 [  1.09391667  10.97812261]]","[[0.         0.86429356]
 [0.1        1.54320329]
 [0.2        0.73186937]
 [0.3        0.759779  ]
 [0.4        1.4946261 ]
 [0.5        1.48350308]
 [0.6        1.90894472]
 [0.7        0.02998442]
 [0.8        0.89047781]
 [0.9        1.05504638]
 [1.         0.96709735]
 [1.09391667 0.43676298]]",0,0.285
5,m,38,english,5,3,english,2024-02-13 18:25:01.646341,False,1,124,sounds\english\audio/english_755.wav,"[[  0.         -75.26385552]
 [  0.1        -77.54873454]
 [  0.2         13.4311812 ]
 [  0.3          7.92656706]
 [  0.4         43.04088715]
 [  0.5        -52.66329155]
 [  0.6         84.44946609]
 [  0.7         35.14899848]
 [  0.8        -13.90496644]
 [  0.9         10.2251388 ]
 [  1.         -36.70454503]
 [  1.09391667  11.3834831 ]]","[[0.         0.09689384]
 [0.1        0.88213328]
 [0.2        0.06512801]
 [0.3        1.12427914]
 [0.4        0.73534916]
 [0.5        0.96891313]
 [0.6        0.99997318]
 [0.7        1.2765527 ]
 [0.8        1.38017734]
 [0.9        1.18692736]
 [1.         0.69548573]
 [1.09391667 0.72968454]]",1,0.49
5,m,38,english,5,3,english,2024-02-13 18:25:01.646341,False,1,125,sounds\english\audio/english_129.wav,"[[  0.         -44.56015923]
 [  0.1        -58.7339049 ]
 [  0.2          4.64427176]
 [  0.3         36.13533526]
 [  0.4         49.60525777]
 [  0.5         66.06381969]
 [  0.6        -22.87129592]
 [  0.7         88.56170171]
 [  0.8         17.84118116]
 [  0.9        -28.77319114]
 [  1.          86.03376827]
 [  1.09391667  39.56098905]]","[[0.         0.4294496 ]
 [0.1        1.17691203]
 [0.2        0.00792795]
 [0.3        1.62066926]
 [0.4        0.46131477]
 [0.5        0.9562515 ]
 [0.6        0.58790942]
 [0.7        0.99020247]
 [0.8        0.9945804 ]
 [0.9        1.36695424]
 [1.         0.72564016]
 [1.09391667 1.15202696]]",0,0.091
5,m,38,english,5,3,english,2024-02-13 18:25:01.646341,False,1,126,sounds\english\audio/english_183.wav,"[[  0.          56.94082111]
 [  0.1         23.76823823]
 [  0.2        -72.77208824]
 [  0.3        -26.01651227]
 [  0.4         97.95217456]
 [  0.5        -88.35240054]
 [  0.6          8.20957713]
 [  0.7         -0.21457891]
 [  0.8        -22.50054627]
 [  0.9        -26.93782132]
 [  1.          -9.93952746]
 [  1.09391667  16.7040789 ]]","[[0.         1.46471885]
 [0.1        0.27157125]
 [0.2        0.89995591]
 [0.3        0.86595775]
 [0.4        0.99665554]
 [0.5        1.5130978 ]
 [0.6        0.89371921]
 [0.7        0.60499738]
 [0.8        0.6752389 ]
 [0.9        0.26345185]
 [1.         0.41919446]
 [1.09391667 0.61479122]]",0,0.414
5,m,38,english,5,3,english,2024-02-13 18:25:01.646341,False,1,127,sounds\english\audio/english_959.wav,"[[  0.         -72.11702721]
 [  0.1        -40.70802273]
 [  0.2         87.64553822]
 [  0.3        -48.2331893 ]
 [  0.4        -95.5440406 ]
 [  0.5         59.94111347]
 [  0.6         91.02979874]
 [  0.7         19.11555726]
 [  0.8         75.67996803]
 [  0.9         92.01217726]
 [  1.         -10.30028839]
 [  1.09391667 -99.09748483]]","[[0.         0.58402208]
 [0.1        1.62475599]
 [0.2        1.65188883]
 [0.3        0.55484279]
 [0.4        0.6061604 ]
 [0.5        1.49451004]
 [0.6        0.05914992]
 [0.7        1.4845686 ]
 [0.8        1.97323442]
 [0.9        0.84762709]
 [1.         0.74785562]
 [1.09391667 1.91422779]]",1,0.22
5,m,38,english,5,3,english,2024-02-13 18:25:01.646341,False,1,128,sounds\english\audio/english_746.wav,"[[  0.         -17.85129661]
 [  0.1         44.49284576]
 [  0.2        -28.07602373]
 [  0.3         80.79649727]
 [  0.4        -35.87476706]
 [  0.5        -13.61927607]
 [  0.6        -13.45090469]
 [  0.7         74.7415388 ]
 [  0.8        -73.80839868]
 [  0.9         16.67710805]
 [  1.          90.26780737]
 [  1.09391667 -18.98803571]]","[[0.         0.72236584]
 [0.1        1.69903141]
 [0.2        1.83658278]
 [0.3        0.38437005]
 [0.4        0.19777168]
 [0.5        0.81094496]
 [0.6        0.04159101]
 [0.7        0.34194607]
 [0.8        1.34456722]
 [0.9        0.32922526]
 [1.         0.60956501]
 [1.09391667 1.98648295]]",0,0.544
5,m,38,english,5,3,english,2024-02-13 18:25:01.646341,False,1,129,sounds\english\audio/english_923.wav,"[[  0.          93.2289474 ]
 [  0.1        -90.20705496]
 [  0.2        -39.60180218]
 [  0.3         80.82184167]
 [  0.4         -9.151808  ]
 [  0.5         26.58775585]
 [  0.6          6.23734234]
 [  0.7         72.65407882]
 [  0.8        -19.39856568]
 [  0.9        -78.04150402]
 [  1.          32.81309653]
 [  1.09391667  90.62685446]]","[[0.         1.70020423]
 [0.1        1.01222006]
 [0.2        0.78975297]
 [0.3        0.55346402]
 [0.4        0.82944294]
 [0.5        1.08031611]
 [0.6        0.85830077]
 [0.7        1.16981472]
 [0.8        1.72430236]
 [0.9        0.87754791]
 [1.         1.2494211 ]
 [1.09391667 1.97603122]]",0,0.231
5,m,38,english,5,3,english,2024-02-13 18:25:01.646341,False,1,130,sounds\english\audio/english_671.wav,"[[  0.         -45.93815434]
 [  0.1         -9.85133236]
 [  0.2        -90.27584827]
 [  0.3        -12.62569024]
 [  0.4        -25.02264323]
 [  0.5        -73.63967284]
