subj,sex,age,language,english,french,native_lang,date,practice,block,trial,stim,pitch,stretch,response,rt
8782735929,f,25,english,5,4,french,2024-02-13 10:39:26.615494,True,0,0,sounds\english\audio/english_260.wav,"[[  0.          15.97763116]
 [  0.1        -13.3847134 ]
 [  0.2        -29.63675022]
 [  0.3        -94.12252117]
 [  0.4         37.44404644]
 [  0.5        -13.47562993]
 [  0.6         28.72077468]
 [  0.7        -25.31213713]
 [  0.8         12.33791488]
 [  0.9          1.56732473]
 [  1.         -29.87361041]
 [  1.09391667   9.56042619]]","[[0.         1.94177241]
 [0.1        0.74015027]
 [0.2        0.26772348]
 [0.3        0.24482628]
 [0.4        0.73676391]
 [0.5        0.3869803 ]
 [0.6        0.62582606]
 [0.7        0.50244213]
 [0.8        0.1260874 ]
 [0.9        0.8031848 ]
 [1.         1.5387452 ]
 [1.09391667 0.69389389]]",1,1.59
8782735929,f,25,english,5,4,french,2024-02-13 10:39:26.615494,True,0,1,sounds\english\audio/english_512.wav,"[[  0.         -23.56559233]
 [  0.1         44.15406219]
 [  0.2         90.2297784 ]
 [  0.3         31.62400251]
 [  0.4        -71.52797272]
 [  0.5        -17.92560707]
 [  0.6         78.14138422]
 [  0.7         -0.55474778]
 [  0.8         -0.96763975]
 [  0.9         18.83454105]
 [  1.           3.09463475]
 [  1.09391667  65.7955852 ]]","[[0.         0.34737706]
 [0.1        1.80415703]
 [0.2        1.77401658]
 [0.3        0.80962243]
 [0.4        0.21525837]
 [0.5        0.09930304]
 [0.6        0.93763429]
 [0.7        0.07747984]
 [0.8        1.28799801]
 [0.9        0.32721238]
 [1.         0.68607536]
 [1.09391667 1.62840549]]",0,0.173
8782735929,f,25,english,5,4,french,2024-02-13 10:39:26.615494,True,0,2,sounds\english\audio/english_891.wav,"[[  0.         -51.94899703]
 [  0.1        -40.85786471]
 [  0.2        -13.56091334]
 [  0.3         13.09065144]
 [  0.4         -0.86453478]
 [  0.5         31.90721085]
 [  0.6        -27.60460343]
 [  0.7         85.79516825]
 [  0.8         83.05957198]
 [  0.9        -61.83196055]
 [  1.         -69.67221927]
 [  1.09391667   4.62166255]]","[[0.         0.42846165]
 [0.1        0.93876637]
 [0.2        1.78643125]
 [0.3        1.47761109]
 [0.4        1.66653353]
 [0.5        1.63856449]
 [0.6        1.17540335]
 [0.7        1.60236138]
 [0.8        0.96737739]
 [0.9        1.42758327]
 [1.         0.19704513]
 [1.09391667 0.91556812]]",1,0.478
8782735929,f,25,english,5,4,french,2024-02-13 10:39:26.615494,False,1,3,sounds\english\audio/english_492.wav,"[[  0.         -29.9472328 ]
 [  0.1         35.33010824]
 [  0.2         -3.45968041]
 [  0.3         59.06456756]
 [  0.4         98.23949624]
 [  0.5         -1.48270349]
 [  0.6         -1.72219507]
 [  0.7         12.69106909]
 [  0.8        -21.74180351]
 [  0.9        -33.92370757]
 [  1.          37.93162517]
 [  1.09391667 -90.75179354]]","[[0.         1.28534899]
 [0.1        1.03908978]
 [0.2        1.26033893]
 [0.3        0.39463808]
 [0.4        0.21276087]
 [0.5        0.25205409]
 [0.6        0.58596557]
 [0.7        1.49088879]
 [0.8        1.5225112 ]
 [0.9        0.13189423]
 [1.         0.89918189]
 [1.09391667 1.07142866]]",1,0.714
8782735929,f,25,english,5,4,french,2024-02-13 10:39:26.615494,False,1,4,sounds\english\audio/english_436.wav,"[[  0.          -5.79676766]
 [  0.1         -7.88979016]
 [  0.2        -30.02673636]
 [  0.3         10.91379363]
 [  0.4          1.79762369]
 [  0.5         73.94991314]
 [  0.6         77.03109361]
 [  0.7        -48.27841607]
 [  0.8         57.26579501]
 [  0.9        -80.56784579]
 [  1.          64.74546515]
 [  1.09391667   5.24901362]]","[[0.         0.51982844]
 [0.1        1.6050725 ]
 [0.2        1.59647027]
 [0.3        1.97742112]
 [0.4        1.85601804]
 [0.5        1.38993988]
 [0.6        1.43065154]
 [0.7        0.14937688]
 [0.8        1.65528817]
 [0.9        1.0202375 ]
 [1.         1.82414723]
 [1.09391667 1.00971458]]",1,0.287
8782735929,f,25,english,5,4,french,2024-02-13 10:39:26.615494,False,1,5,sounds\english\audio/english_452.wav,"[[  0.         -16.61864147]
 [  0.1        -22.13078498]
 [  0.2        -16.24569285]
 [  0.3          2.20276296]
 [  0.4         38.28427002]
 [  0.5        -18.79047659]
 [  0.6         78.89075327]
 [  0.7         92.92821396]
 [  0.8         97.94945302]
 [  0.9         87.69669084]
 [  1.          59.46975303]
 [  1.09391667  33.32060313]]","[[0.         1.17401117]
 [0.1        0.56539659]
 [0.2        0.39679082]
 [0.3        1.32249954]
 [0.4        1.17645405]
 [0.5        1.63330715]
 [0.6        1.91411401]
 [0.7        1.71360753]
 [0.8        1.56668356]
 [0.9        1.33916848]
 [1.         0.94959461]
 [1.09391667 0.70317006]]",1,0.198
8782735929,f,25,english,5,4,french,2024-02-13 10:39:26.615494,False,1,6,sounds\english\audio/english_826.wav,"[[  0.         -48.66820204]
 [  0.1         15.87758798]
 [  0.2        -81.06156605]
 [  0.3        -38.67543271]
 [  0.4          8.70050458]
 [  0.5        -12.50279128]
 [  0.6         53.18940921]
 [  0.7         25.51770895]
 [  0.8         -2.14290614]
 [  0.9         59.43969754]
 [  1.          36.73554264]
 [  1.09391667  99.18694211]]","[[0.         0.50881221]
 [0.1        1.7988984 ]
 [0.2        0.35571274]
 [0.3        0.88871824]
 [0.4        0.81611388]
 [0.5        1.15396637]
 [0.6        0.06242761]
 [0.7        0.35293371]
 [0.8        1.13493967]
 [0.9        1.56070885]
 [1.         1.2686095 ]
 [1.09391667 1.14436626]]",0,0.388
8782735929,f,25,english,5,4,french,2024-02-13 10:39:26.615494,False,1,7,sounds\english\audio/english_905.wav,"[[  0.         -38.82719082]
 [  0.1         91.73556094]
 [  0.2        -44.32627421]
 [  0.3        -65.11156064]
 [  0.4        -48.38956406]
 [  0.5        -66.93781594]
 [  0.6        -31.37264091]
 [  0.7        -76.42119949]
 [  0.8         90.55453052]
 [  0.9        -13.8538154 ]
 [  1.          10.60108282]
 [  1.09391667 -16.89815331]]","[[0.         0.64550094]
 [0.1        1.31053491]
 [0.2        0.47707545]
 [0.3        0.49456239]
 [0.4        0.97248604]
 [0.5        0.82967407]
 [0.6        0.41334293]
 [0.7        0.8386705 ]
 [0.8        0.29898441]
 [0.9        0.28325918]
 [1.         0.58400342]
 [1.09391667 0.41677525]]",1,0.384
8782735929,f,25,english,5,4,french,2024-02-13 10:39:26.615494,False,1,8,sounds\english\audio/english_664.wav,"[[  0.          87.83799753]
 [  0.1         93.07880912]
 [  0.2        -21.43792859]
 [  0.3         54.61607152]
 [  0.4         63.53186125]
 [  0.5         69.57332079]
 [  0.6        -98.283012  ]
 [  0.7          3.96514961]
 [  0.8        -68.49765079]
 [  0.9         22.71561052]
 [  1.          62.92065682]
 [  1.09391667   7.64063367]]","[[0.         0.80622544]
 [0.1        0.71131531]
 [0.2        0.52490717]
 [0.3        0.79105774]
 [0.4        0.74894626]
 [0.5        0.96341942]
 [0.6        0.12490453]
 [0.7        1.772086  ]
 [0.8        1.2138043 ]
 [0.9        1.03968333]
 [1.         1.01702127]
 [1.09391667 1.88905221]]",1,0.16
8782735929,f,25,english,5,4,french,2024-02-13 10:39:26.615494,False,1,9,sounds\english\audio/english_484.wav,"[[  0.           2.0569585 ]
 [  0.1        -79.1484241 ]
 [  0.2         30.9033229 ]
 [  0.3         12.05929197]
 [  0.4        -72.8204973 ]
 [  0.5        -89.96387514]
 [  0.6        -22.94210609]
 [  0.7         17.91925192]
 [  0.8        -62.01555508]
 [  0.9        -43.27412131]
 [  1.           0.91553281]
 [  1.09391667 -32.68645572]]","[[0.         0.34651955]
 [0.1        1.84776357]
 [0.2        1.82203066]
 [0.3        1.56778111]
 [0.4        1.22252397]
 [0.5        1.78789861]
 [0.6        0.02218534]
 [0.7        1.7744569 ]
 [0.8        1.27917124]
 [0.9        1.76665807]
 [1.         1.1189794 ]
 [1.09391667 0.68984214]]",1,0.308
8782735929,f,25,english,5,4,french,2024-02-13 10:39:26.615494,False,1,10,sounds\english\audio/english_769.wav,"[[  0.          -5.59008464]
 [  0.1         23.87135474]
 [  0.2        -59.27059617]
 [  0.3         -3.79644123]
 [  0.4        -24.49258802]
 [  0.5         -9.70740252]
 [  0.6         93.2382904 ]
 [  0.7        -80.61523432]
 [  0.8        -68.01598802]
 [  0.9         62.98223399]
 [  1.         -20.64225602]
 [  1.09391667 -61.6915353 ]]","[[0.         1.9459955 ]
 [0.1        1.03760396]
 [0.2        0.52841708]
 [0.3        1.18808585]
 [0.4        1.53084487]
 [0.5        1.19743676]
 [0.6        1.07802649]
 [0.7        1.54041051]
 [0.8        0.02132601]
 [0.9        1.71898352]
 [1.         1.35496449]
 [1.09391667 1.18680032]]",0,0.294
8782735929,f,25,english,5,4,french,2024-02-13 10:39:26.615494,False,1,11,sounds\english\audio/english_542.wav,"[[  0.          77.25836123]
 [  0.1          4.96687677]
 [  0.2        -69.63893361]
 [  0.3         36.13476154]
 [  0.4         29.93419476]
 [  0.5        -71.22267205]
 [  0.6        -30.36103617]
 [  0.7        -14.05066862]
 [  0.8         21.39979207]
 [  0.9          0.74742826]
 [  1.          44.77375782]
 [  1.09391667 -66.5594785 ]]","[[0.         0.87207269]
 [0.1        0.90240888]
 [0.2        0.25644456]
 [0.3        0.86696527]
 [0.4        1.70387716]
 [0.5        1.80144796]
 [0.6        0.29401729]
 [0.7        1.14442321]
 [0.8        1.80586802]
 [0.9        1.77494895]
 [1.         0.36146727]
 [1.09391667 1.85294654]]",0,0.355
8782735929,f,25,english,5,4,french,2024-02-13 10:39:26.615494,False,1,12,sounds\english\audio/english_709.wav,"[[  0.          54.89445194]
 [  0.1        -13.90675493]
 [  0.2         17.54151592]
 [  0.3        -21.79257769]
 [  0.4         55.10787635]
 [  0.5        -57.13962404]
 [  0.6         -5.37289715]
 [  0.7         27.40236622]
 [  0.8         12.19670027]
 [  0.9         91.20271112]
 [  1.          89.17036871]
 [  1.09391667  50.36439179]]","[[0.         0.75029311]
 [0.1        1.75887389]
 [0.2        1.84695168]
 [0.3        0.96071145]
 [0.4        1.22566663]
 [0.5        1.94059393]
 [0.6        0.52219194]
 [0.7        0.9142424 ]
 [0.8        1.75067757]
 [0.9        0.7385059 ]
 [1.         1.92412986]
 [1.09391667 0.79240238]]",1,0.179
8782735929,f,25,english,5,4,french,2024-02-13 10:39:26.615494,False,1,13,sounds\english\audio/english_848.wav,"[[  0.          16.27018666]
 [  0.1        -74.75395213]
 [  0.2         55.44859949]
 [  0.3        -32.83945411]
 [  0.4         30.01434436]
 [  0.5         48.58281319]
 [  0.6        -85.68192699]
 [  0.7         27.03943406]
 [  0.8         14.64264022]
 [  0.9        -60.92798451]
 [  1.         -13.82637474]
 [  1.09391667 -65.39894946]]","[[0.         0.42429773]
 [0.1        0.55671169]
 [0.2        0.96508228]
 [0.3        0.7665276 ]
 [0.4        0.96341741]
 [0.5        0.06275252]
 [0.6        0.89297301]
 [0.7        0.16213779]
 [0.8        1.88232235]
 [0.9        1.9298227 ]
 [1.         0.08076178]
 [1.09391667 1.11155621]]",0,1.14
8782735929,f,25,english,5,4,french,2024-02-13 10:39:26.615494,False,1,14,sounds\english\audio/english_999.wav,"[[  0.          -8.27619319]
 [  0.1        -49.3883822 ]
 [  0.2         97.54217101]
 [  0.3        -49.81406735]
 [  0.4         46.43683506]
 [  0.5         89.32784762]
 [  0.6        -55.73277594]
 [  0.7         49.38462906]
 [  0.8         85.41123264]
 [  0.9        -58.86557708]
 [  1.          99.11766896]
 [  1.09391667  28.82385918]]","[[0.00000000e+00 1.48642599e-04]
 [1.00000000e-01 1.22232627e+00]
 [2.00000000e-01 1.11749330e+00]
 [3.00000000e-01 1.80111229e+00]
 [4.00000000e-01 5.52807392e-01]
 [5.00000000e-01 1.53319988e+00]
 [6.00000000e-01 1.76164420e+00]
 [7.00000000e-01 7.72486607e-02]
 [8.00000000e-01 1.00258630e+00]
 [9.00000000e-01 3.29932429e-01]
 [1.00000000e+00 1.88826288e+00]
 [1.09391667e+00 1.88223689e+00]]",1,1.721
8782735929,f,25,english,5,4,french,2024-02-13 10:39:26.615494,False,1,15,sounds\english\audio/english_327.wav,"[[  0.          68.47046609]
 [  0.1         85.76832326]
 [  0.2        -75.98339762]
 [  0.3         74.12796235]
 [  0.4         11.46376172]
 [  0.5         -5.50560149]
 [  0.6         27.1504605 ]
 [  0.7         27.2911911 ]
 [  0.8        -20.36547399]
 [  0.9        -51.25849452]
 [  1.          79.11844333]
 [  1.09391667 -53.98607147]]","[[0.         1.54763433]
 [0.1        1.83635771]
 [0.2        0.3050113 ]
 [0.3        0.70474203]
 [0.4        0.8224078 ]
 [0.5        0.00526041]
 [0.6        0.35213553]
 [0.7        1.7713752 ]
 [0.8        1.08380037]
 [0.9        0.55113913]
 [1.         0.59854608]
 [1.09391667 1.65860026]]",1,0.79
8782735929,f,25,english,5,4,french,2024-02-13 10:39:26.615494,False,1,16,sounds\english\audio/english_160.wav,"[[  0.          54.87282188]
 [  0.1         38.39559314]
 [  0.2         45.94024754]
 [  0.3         23.2538411 ]
 [  0.4        -76.36457338]
 [  0.5         -7.52503837]
 [  0.6        -67.2018033 ]
 [  0.7         40.79859053]
 [  0.8        -54.00476677]
 [  0.9        -39.47782367]
 [  1.          13.27455738]
 [  1.09391667  82.72582228]]","[[0.         1.23358014]
 [0.1        0.90117281]
 [0.2        1.29672558]
 [0.3        1.0625388 ]
 [0.4        1.82179424]
 [0.5        0.15771982]
 [0.6        1.20020733]
 [0.7        1.72655744]
 [0.8        1.68926394]
 [0.9        0.81447331]
 [1.         0.52461363]
 [1.09391667 1.24111221]]",0,0.595
8782735929,f,25,english,5,4,french,2024-02-13 10:39:26.615494,False,1,17,sounds\english\audio/english_366.wav,"[[  0.         -51.97670193]
 [  0.1        -66.3802986 ]
 [  0.2        -43.44577517]
 [  0.3        -27.66745881]
 [  0.4        -24.71146446]
 [  0.5          7.18823907]
 [  0.6         -1.04467208]
 [  0.7        -90.31563808]
 [  0.8        -10.23526275]
 [  0.9         47.79218582]
 [  1.           3.55736556]
 [  1.09391667 -83.88061388]]","[[0.         0.41387665]
 [0.1        1.82440093]
 [0.2        1.51666721]
 [0.3        0.79221573]
 [0.4        1.07358208]
 [0.5        0.88629464]
 [0.6        1.421231  ]
 [0.7        0.93675223]
 [0.8        1.47759882]
 [0.9        1.29623614]
 [1.         1.92903866]
 [1.09391667 1.30968338]]",0,0.028
8782735929,f,25,english,5,4,french,2024-02-13 10:39:26.615494,False,1,18,sounds\english\audio/english_886.wav,"[[  0.         -16.36651411]
 [  0.1         94.81992149]
 [  0.2        -83.66014359]
 [  0.3         66.57072673]
 [  0.4        -30.10881228]
 [  0.5         29.87535156]
 [  0.6         -5.84374474]
 [  0.7        -37.08874517]
 [  0.8        -37.71419391]
 [  0.9         81.54676756]
 [  1.          34.24528544]
 [  1.09391667 -36.87365079]]","[[0.         1.8465656 ]
 [0.1        0.03609627]
 [0.2        0.10032261]
 [0.3        0.61597825]
 [0.4        1.8473118 ]
 [0.5        0.22794276]
 [0.6        1.70663056]
 [0.7        1.00704844]
 [0.8        1.51514851]
 [0.9        0.33267442]
 [1.         1.39448041]
 [1.09391667 0.32097187]]",1,0.209
8782735929,f,25,english,5,4,french,2024-02-13 10:39:26.615494,False,1,19,sounds\english\audio/english_891.wav,"[[  0.         -51.94899703]
 [  0.1        -40.85786471]
 [  0.2        -13.56091334]
 [  0.3         13.09065144]
 [  0.4         -0.86453478]
 [  0.5         31.90721085]
 [  0.6        -27.60460343]
 [  0.7         85.79516825]
 [  0.8         83.05957198]
 [  0.9        -61.83196055]
 [  1.         -69.67221927]
 [  1.09391667   4.62166255]]","[[0.         0.42846165]
 [0.1        0.93876637]
 [0.2        1.78643125]
 [0.3        1.47761109]
 [0.4        1.66653353]
 [0.5        1.63856449]
 [0.6        1.17540335]
 [0.7        1.60236138]
 [0.8        0.96737739]
 [0.9        1.42758327]
 [1.         0.19704513]
 [1.09391667 0.91556812]]",0,0.276
8782735929,f,25,english,5,4,french,2024-02-13 10:39:26.615494,False,1,20,sounds\english\audio/english_539.wav,"[[  0.         -94.17846062]
 [  0.1         -5.02019603]
 [  0.2        -69.32919076]
 [  0.3         80.71922828]
 [  0.4        -44.41930109]
 [  0.5         60.55312323]
 [  0.6        -22.38704472]
 [  0.7         42.18310052]
 [  0.8         -3.23406116]
 [  0.9         86.87834775]
 [  1.          -2.56962664]
 [  1.09391667  13.84279534]]","[[0.         0.79705309]
 [0.1        0.75034459]
 [0.2        1.92009714]
 [0.3        1.69419261]
 [0.4        1.08134057]
 [0.5        0.26247587]
 [0.6        1.40392738]
 [0.7        0.38201887]
 [0.8        1.79513964]
 [0.9        0.10058598]
 [1.         1.19776684]
 [1.09391667 1.72675702]]",1,0.045
8782735929,f,25,english,5,4,french,2024-02-13 10:39:26.615494,False,1,21,sounds\english\audio/english_94.wav,"[[  0.         -69.13613192]
 [  0.1        -53.91573564]
 [  0.2         88.54569891]
 [  0.3         47.91558238]
 [  0.4         46.13883045]
 [  0.5          0.71209955]
 [  0.6         53.89774049]
 [  0.7         37.22112319]
 [  0.8          8.13348347]
 [  0.9        -10.35793642]
 [  1.          75.25647247]
 [  1.09391667 -70.34686187]]","[[0.         0.71683615]
 [0.1        1.64130178]
 [0.2        1.41561382]
 [0.3        0.72478091]
 [0.4        1.21480875]
 [0.5        0.13058063]
 [0.6        1.07607775]
 [0.7        0.10112022]
 [0.8        0.91343474]
 [0.9        0.77751528]
 [1.         0.57088528]
 [1.09391667 0.98841109]]",0,0.223
8782735929,f,25,english,5,4,french,2024-02-13 10:39:26.615494,False,1,22,sounds\english\audio/english_68.wav,"[[  0.          26.58837816]
 [  0.1        -30.26201774]
 [  0.2        -90.31994669]
 [  0.3        -80.73820175]
 [  0.4        -81.40390329]
 [  0.5        -53.94630637]
 [  0.6         54.33124478]
 [  0.7        -19.04235486]
 [  0.8        -60.29150312]
 [  0.9        -10.04711988]
 [  1.          14.48015304]
 [  1.09391667 -61.29871008]]","[[0.         1.41652886]
 [0.1        1.6821225 ]
 [0.2        0.24298021]
 [0.3        0.67959509]
 [0.4        1.6191627 ]
 [0.5        0.53489657]
 [0.6        1.08896417]
 [0.7        1.94234514]
 [0.8        1.53460069]
 [0.9        1.76859618]
 [1.         0.93905077]
 [1.09391667 1.70593474]]",1,0.384
8782735929,f,25,english,5,4,french,2024-02-13 10:39:26.615494,False,1,23,sounds\english\audio/english_600.wav,"[[  0.          54.02401202]
 [  0.1         52.55241108]
 [  0.2        -17.52140944]
 [  0.3        -39.51158997]
 [  0.4        -76.99480414]
 [  0.5        -69.00053843]
 [  0.6         69.67412094]
 [  0.7         42.48437255]
 [  0.8        -15.33622164]
 [  0.9        -55.53099045]
 [  1.         -56.79297969]
 [  1.09391667  25.01258484]]","[[0.         1.74963926]
 [0.1        1.86361288]
 [0.2        1.08718427]
 [0.3        1.33817406]
 [0.4        0.48398336]
 [0.5        0.58536734]
 [0.6        1.17578893]
 [0.7        1.61345559]
 [0.8        1.78194792]
 [0.9        0.88901516]
 [1.         1.65574545]
 [1.09391667 1.81372246]]",0,0.588
8782735929,f,25,english,5,4,french,2024-02-13 10:39:26.615494,False,1,24,sounds\english\audio/english_839.wav,"[[  0.          25.22327534]
 [  0.1         65.97179868]
 [  0.2         36.46298268]
 [  0.3          0.36789595]
 [  0.4         37.25543056]
 [  0.5         13.61304399]
 [  0.6         40.85367399]
 [  0.7         92.87994107]
 [  0.8         40.19777361]
 [  0.9        -27.70209944]
 [  1.         -75.44304357]
 [  1.09391667  15.82899147]]","[[0.         0.79021115]
 [0.1        1.36275453]
 [0.2        0.56940252]
 [0.3        1.38606336]
 [0.4        1.49876521]
 [0.5        1.33513266]
 [0.6        0.34922841]
 [0.7        1.58402098]
 [0.8        0.73275133]
 [0.9        1.05467816]
 [1.         1.81419779]
 [1.09391667 1.89560881]]",1,0.802
8782735929,f,25,english,5,4,french,2024-02-13 10:39:26.615494,False,1,25,sounds\english\audio/english_654.wav,"[[  0.         -60.45158089]
 [  0.1          9.53392367]
 [  0.2         75.34484554]
 [  0.3        -77.95617505]
 [  0.4         45.13912589]
 [  0.5        -50.515313  ]
 [  0.6          9.32431964]
 [  0.7        -34.09762813]
 [  0.8        -21.66012002]
 [  0.9        -34.25563526]
 [  1.          63.7959229 ]
 [  1.09391667 -58.04833316]]","[[0.         1.67384998]
 [0.1        1.95158047]
 [0.2        0.15197486]
 [0.3        1.81249974]
 [0.4        1.69970503]
 [0.5        0.99652043]
 [0.6        0.79094839]
 [0.7        1.33338821]
 [0.8        1.37263534]
 [0.9        0.62767279]
 [1.         1.72608881]
 [1.09391667 0.85441877]]",1,0.085
8782735929,f,25,english,5,4,french,2024-02-13 10:39:26.615494,False,1,26,sounds\english\audio/english_111.wav,"[[  0.          -7.89423459]
 [  0.1        -50.39853442]
 [  0.2         85.22773015]
 [  0.3         -7.88513069]
 [  0.4        -36.68324303]
 [  0.5         -4.8649615 ]
 [  0.6        -92.19494919]
 [  0.7         -6.11032283]
 [  0.8         41.34470973]
 [  0.9        -73.07088632]
 [  1.          50.36502587]
 [  1.09391667 -49.90215361]]","[[0.         1.73172447]
 [0.1        1.30536321]
 [0.2        0.28962065]
 [0.3        1.6166787 ]
 [0.4        0.55677008]
 [0.5        1.31756148]
 [0.6        1.4789538 ]
 [0.7        0.53950686]
 [0.8        0.89868821]
 [0.9        0.90401257]
 [1.         0.61580764]
 [1.09391667 1.87610476]]",1,0.319
8782735929,f,25,english,5,4,french,2024-02-13 10:39:26.615494,False,1,27,sounds\english\audio/english_937.wav,"[[  0.          48.31161741]
 [  0.1         94.31178096]
 [  0.2         43.82009927]
 [  0.3         34.87322119]
 [  0.4         62.02386853]
 [  0.5        -76.91099942]
 [  0.6         85.65284811]
 [  0.7         16.74886634]
 [  0.8        -83.35160832]
 [  0.9         99.3500254 ]
 [  1.         -72.7605227 ]
 [  1.09391667 -40.54115445]]","[[0.         0.20999663]
 [0.1        0.73195695]
 [0.2        0.70757327]
 [0.3        0.54050489]
 [0.4        0.53879588]
 [0.5        0.40459306]
 [0.6        1.92541325]
 [0.7        1.53445282]
 [0.8        0.38375611]
 [0.9        0.09137971]
 [1.         0.90026455]
 [1.09391667 0.89252671]]",0,0.307
8782735929,f,25,english,5,4,french,2024-02-13 10:39:26.615494,False,1,28,sounds\english\audio/english_362.wav,"[[ 0.00000000e+00 -2.50436392e+00]
 [ 1.00000000e-01  1.04378628e-02]
 [ 2.00000000e-01  1.18772332e+01]
 [ 3.00000000e-01 -6.76668863e+00]
 [ 4.00000000e-01  4.80667468e+01]
 [ 5.00000000e-01  4.78220700e+01]
 [ 6.00000000e-01  7.10515441e+01]
 [ 7.00000000e-01  1.60380094e+01]
 [ 8.00000000e-01  7.65389373e+01]
 [ 9.00000000e-01  3.37838449e+01]
 [ 1.00000000e+00 -8.13464293e+01]
 [ 1.09391667e+00 -3.89826037e+00]]","[[0.         0.54146841]
 [0.1        1.24688309]
 [0.2        0.3557669 ]
 [0.3        0.8130148 ]
 [0.4        0.53456903]
 [0.5        0.25808446]
 [0.6        0.46779047]
 [0.7        1.05295189]
 [0.8        0.192545  ]
 [0.9        0.76311718]
 [1.         1.48955345]
 [1.09391667 1.4188577 ]]",1,0.532
8782735929,f,25,english,5,4,french,2024-02-13 10:39:26.615494,False,1,29,sounds\english\audio/english_841.wav,"[[  0.          13.47649633]
 [  0.1         -4.31438018]
 [  0.2         33.0563647 ]
 [  0.3         86.84745786]
 [  0.4        -66.40745707]
 [  0.5        -45.55484269]
 [  0.6        -86.08753099]
 [  0.7        -95.45735959]
 [  0.8         23.86654109]
 [  0.9        -11.20743419]
 [  1.         -48.1272879 ]
 [  1.09391667  65.71403117]]","[[0.         0.2030304 ]
 [0.1        1.4654032 ]
 [0.2        0.99950721]
 [0.3        0.04710196]
 [0.4        1.47568135]
 [0.5        1.38964748]
 [0.6        1.63844318]
 [0.7        1.01920512]
 [0.8        1.35517017]
 [0.9        1.07128935]
 [1.         1.6005201 ]
 [1.09391667 1.58502918]]",1,0.446
8782735929,f,25,english,5,4,french,2024-02-13 10:39:26.615494,False,1,30,sounds\english\audio/english_682.wav,"[[  0.         -53.22260556]
 [  0.1         86.77650228]
 [  0.2          9.77253821]
 [  0.3         11.03493207]
 [  0.4        -49.40991028]
 [  0.5         40.78961249]
 [  0.6          0.17613347]
 [  0.7        -59.60480948]
 [  0.8        -70.7429322 ]
 [  0.9         73.80660993]
 [  1.          20.51556505]
 [  1.09391667  45.26798103]]","[[0.         0.39279529]
 [0.1        0.89629602]
 [0.2        1.02748966]
 [0.3        0.21487606]
 [0.4        0.85817313]
 [0.5        0.23854774]
 [0.6        1.76515504]
 [0.7        0.66287763]
 [0.8        0.73367901]
 [0.9        0.47936557]
 [1.         1.06722754]
 [1.09391667 1.8777792 ]]",0,0.64
8782735929,f,25,english,5,4,french,2024-02-13 10:39:26.615494,False,1,31,sounds\english\audio/english_545.wav,"[[  0.         -99.01008517]
 [  0.1         65.47335851]
 [  0.2        -84.28840174]
 [  0.3        -53.2257253 ]
 [  0.4        -67.85056043]
 [  0.5        -22.57245088]
 [  0.6         -0.78864791]
 [  0.7         17.40611159]
 [  0.8         62.9168566 ]
 [  0.9         32.36790846]
 [  1.         -91.70599266]
 [  1.09391667  50.31108328]]","[[0.         0.51580829]
 [0.1        0.53489733]
 [0.2        1.28091178]
 [0.3        1.83272888]
 [0.4        0.88291171]
 [0.5        0.35382027]
 [0.6        1.57508052]
 [0.7        0.29019895]
 [0.8        1.37661243]
 [0.9        0.94083914]
 [1.         1.54827837]
 [1.09391667 0.28023548]]",1,0.163
8782735929,f,25,english,5,4,french,2024-02-13 10:39:26.615494,False,1,32,sounds\english\audio/english_260.wav,"[[  0.          15.97763116]
 [  0.1        -13.3847134 ]
 [  0.2        -29.63675022]
 [  0.3        -94.12252117]
 [  0.4         37.44404644]
 [  0.5        -13.47562993]
 [  0.6         28.72077468]
 [  0.7        -25.31213713]
 [  0.8         12.33791488]
 [  0.9          1.56732473]
 [  1.         -29.87361041]
 [  1.09391667   9.56042619]]","[[0.         1.94177241]
 [0.1        0.74015027]
 [0.2        0.26772348]
 [0.3        0.24482628]
 [0.4        0.73676391]
 [0.5        0.3869803 ]
 [0.6        0.62582606]
 [0.7        0.50244213]
 [0.8        0.1260874 ]
 [0.9        0.8031848 ]
 [1.         1.5387452 ]
 [1.09391667 0.69389389]]",0,0.076
8782735929,f,25,english,5,4,french,2024-02-13 10:39:26.615494,False,1,33,sounds\english\audio/english_792.wav,"[[  0.         -53.21610879]
 [  0.1         32.15976894]
 [  0.2         11.67164647]
 [  0.3         78.41102069]
 [  0.4         57.86075133]
 [  0.5         26.57758322]
 [  0.6        -19.90648144]
 [  0.7         -5.80202054]
 [  0.8        -79.72401374]
 [  0.9        -39.61261559]
 [  1.          87.31929903]
 [  1.09391667  10.49178802]]","[[0.         1.55385175]
 [0.1        0.65373426]
 [0.2        0.07623644]
 [0.3        0.81063335]
 [0.4        1.61919716]
 [0.5        1.49931194]
 [0.6        0.76960145]
 [0.7        0.41164506]
 [0.8        1.42613076]
 [0.9        0.70792196]
 [1.         1.13611226]
 [1.09391667 0.18326108]]",1,0.409
8782735929,f,25,english,5,4,french,2024-02-13 10:39:26.615494,False,1,34,sounds\english\audio/english_890.wav,"[[  0.          31.44625075]
 [  0.1        -90.32825643]
 [  0.2        -64.7017166 ]
 [  0.3         15.62340259]
 [  0.4        -79.4752192 ]
 [  0.5         74.79009283]
 [  0.6        -57.91380652]
 [  0.7         92.43048613]
 [  0.8         -1.35432996]
 [  0.9         -1.4007117 ]
 [  1.         -22.8275935 ]
 [  1.09391667 -34.82288483]]","[[0.         1.15032127]
 [0.1        0.20043056]
 [0.2        0.4631213 ]
 [0.3        1.29891642]
 [0.4        0.6480645 ]
 [0.5        0.81505597]
 [0.6        1.23579114]
 [0.7        0.16251602]
 [0.8        0.74439657]
 [0.9        1.69626999]
 [1.         0.07593713]
 [1.09391667 0.22950927]]",0,0.278
8782735929,f,25,english,5,4,french,2024-02-13 10:39:26.615494,False,1,35,sounds\english\audio/english_22.wav,"[[  0.          70.18292814]
 [  0.1        -80.96999494]
 [  0.2        -35.97807487]
 [  0.3        -50.77912628]
 [  0.4         45.67027718]
 [  0.5         93.75980346]
 [  0.6        -60.5710335 ]
 [  0.7        -35.42669747]
 [  0.8         84.37918603]
 [  0.9         -3.38291766]
 [  1.         -36.07509244]
 [  1.09391667 -43.05429972]]","[[0.         0.28551441]
 [0.1        0.4027703 ]
 [0.2        0.92085021]
 [0.3        0.28132548]
 [0.4        1.60569992]
 [0.5        1.16285663]
 [0.6        1.00744398]
 [0.7        0.58521518]
 [0.8        0.90086295]
 [0.9        0.69217241]
 [1.         1.456266  ]
 [1.09391667 0.26376925]]",1,0.169
8782735929,f,25,english,5,4,french,2024-02-13 10:39:26.615494,False,1,36,sounds\english\audio/english_498.wav,"[[  0.          43.98055184]
 [  0.1         91.3545984 ]
 [  0.2        -25.91563113]
 [  0.3        -14.96140851]
 [  0.4         -8.05824247]
 [  0.5        -61.63888891]
 [  0.6         37.86658664]
 [  0.7        -97.52325855]
 [  0.8        -16.03910224]
 [  0.9         83.25609208]
 [  1.         -65.28300381]
 [  1.09391667  38.04109912]]","[[0.         1.94722798]
 [0.1        1.93048351]
 [0.2        0.27240706]
 [0.3        1.06623965]
 [0.4        1.41558656]
 [0.5        0.26700347]
 [0.6        0.54434522]
 [0.7        0.79258737]
 [0.8        1.13417158]
 [0.9        0.68565339]
 [1.         0.73020294]
 [1.09391667 1.48505369]]",0,0.127
8782735929,f,25,english,5,4,french,2024-02-13 10:39:26.615494,False,1,37,sounds\english\audio/english_117.wav,"[[  0.         -28.38275439]
 [  0.1         98.42008379]
 [  0.2         41.31206558]
 [  0.3        -83.83183678]
 [  0.4         98.21463791]
 [  0.5         -2.48578352]
 [  0.6         -4.17640124]
 [  0.7         96.23712421]
 [  0.8         58.96351824]
 [  0.9         45.91477825]
 [  1.         -11.19499605]
 [  1.09391667 -21.37390064]]","[[0.         0.21519039]
 [0.1        0.51040987]
 [0.2        0.4102792 ]
 [0.3        1.46073806]
 [0.4        0.64884847]
 [0.5        0.03709947]
 [0.6        1.54490713]
 [0.7        1.91280324]
 [0.8        1.06675457]
 [0.9        1.30412923]
 [1.         1.45368514]
 [1.09391667 0.12058037]]",1,0.113
8782735929,f,25,english,5,4,french,2024-02-13 10:39:26.615494,False,1,38,sounds\english\audio/english_789.wav,"[[  0.          50.62849976]
 [  0.1         46.39641285]
 [  0.2        -17.70636983]
 [  0.3        -70.54012265]
 [  0.4        -41.61831808]
 [  0.5          6.76921547]
 [  0.6        -23.06076299]
 [  0.7         12.0616888 ]
 [  0.8         -0.46236059]
 [  0.9          1.32265195]
 [  1.         -42.41851316]
 [  1.09391667  16.23009632]]","[[0.         1.65376855]
 [0.1        0.25516595]
 [0.2        1.77379995]
 [0.3        1.01588482]
 [0.4        0.40942594]
 [0.5        0.77453827]
 [0.6        0.48985142]
 [0.7        0.23736517]
 [0.8        1.96173919]
 [0.9        1.17779465]
 [1.         1.11577027]
 [1.09391667 0.26104585]]",0,0.093
8782735929,f,25,english,5,4,french,2024-02-13 10:39:26.615494,False,1,39,sounds\english\audio/english_850.wav,"[[ 0.00000000e+00  8.84841053e+01]
 [ 1.00000000e-01  4.40356076e+01]
 [ 2.00000000e-01  3.67211438e+01]
 [ 3.00000000e-01  7.12842206e-02]
 [ 4.00000000e-01 -6.05109130e+01]
 [ 5.00000000e-01  1.86261702e+01]
 [ 6.00000000e-01  2.80848248e+01]
 [ 7.00000000e-01  7.70757469e+01]
 [ 8.00000000e-01  4.44763904e+00]
 [ 9.00000000e-01 -7.85523864e+01]
 [ 1.00000000e+00 -4.70846658e+01]
 [ 1.09391667e+00  9.80288694e+01]]","[[0.         1.0516167 ]
 [0.1        0.93870726]
 [0.2        0.35713104]
 [0.3        0.75335241]
 [0.4        0.4836317 ]
 [0.5        1.19329581]
 [0.6        0.49505096]
 [0.7        0.01443344]
 [0.8        1.44754501]
 [0.9        1.7444195 ]
 [1.         1.61305952]
 [1.09391667 0.78368458]]",1,0.331
8782735929,f,25,english,5,4,french,2024-02-13 10:39:26.615494,False,1,40,sounds\english\audio/english_278.wav,"[[  0.         -96.72610313]
 [  0.1        -36.86809982]
 [  0.2        -84.24626192]
 [  0.3        -29.99363641]
 [  0.4         21.41897552]
 [  0.5        -73.7985343 ]
 [  0.6        -83.05174317]
 [  0.7        -43.48487906]
 [  0.8        -48.22741203]
 [  0.9        -30.73203826]
 [  1.          22.54361358]
 [  1.09391667 -65.2249662 ]]","[[0.         0.83439052]
 [0.1        1.21055498]
 [0.2        0.05488492]
 [0.3        1.47058347]
 [0.4        0.68142996]
 [0.5        0.65955027]
 [0.6        1.54634177]
 [0.7        1.03072417]
 [0.8        0.15769377]
 [0.9        0.79374536]
 [1.         0.9877131 ]
 [1.09391667 1.82414956]]",0,0.328
8782735929,f,25,english,5,4,french,2024-02-13 10:39:26.615494,False,1,41,sounds\english\audio/english_368.wav,"[[  0.         -21.74410199]
 [  0.1        -54.46820056]
 [  0.2         36.37288824]
 [  0.3         28.79669065]
 [  0.4         64.63914759]
 [  0.5        -47.48725989]
 [  0.6        -56.63725257]
 [  0.7        -15.67963737]
 [  0.8        -67.03077711]
 [  0.9        -87.98164929]
 [  1.          66.360443  ]
 [  1.09391667  86.76512067]]","[[0.         1.11444004]
 [0.1        1.02689489]
 [0.2        1.84847876]
 [0.3        1.32768322]
 [0.4        1.2143292 ]
 [0.5        1.4175641 ]
 [0.6        0.26859899]
 [0.7        1.20913194]
 [0.8        0.71725489]
 [0.9        0.61705061]
 [1.         1.87423649]
 [1.09391667 0.90814369]]",1,0.121
8782735929,f,25,english,5,4,french,2024-02-13 10:39:26.615494,False,1,42,sounds\english\audio/english_767.wav,"[[  0.         -51.82889882]
 [  0.1         51.01701548]
 [  0.2        -33.49871036]
 [  0.3         35.0661797 ]
 [  0.4        -66.76498728]
 [  0.5        -60.63649878]
 [  0.6        -66.50688625]
 [  0.7        -70.17128926]
 [  0.8         32.8869854 ]
 [  0.9         21.57035996]
 [  1.         -36.26911366]
 [  1.09391667  -1.05523753]]","[[0.         0.85849805]
 [0.1        0.56470658]
 [0.2        1.12840655]
 [0.3        0.30358847]
 [0.4        1.98047846]
 [0.5        1.15215796]
 [0.6        0.97775859]
 [0.7        0.81197732]
 [0.8        1.74118297]
 [0.9        1.09937379]
 [1.         1.31196256]
 [1.09391667 0.54391414]]",1,0.055
8782735929,f,25,english,5,4,french,2024-02-13 10:39:26.615494,False,1,43,sounds\english\audio/english_903.wav,"[[  0.          74.40610552]
 [  0.1        -14.0058198 ]
 [  0.2        -43.18870249]
 [  0.3         85.51038869]
 [  0.4          8.36930428]
 [  0.5        -11.10468326]
 [  0.6          0.77760872]
 [  0.7         61.82804998]
 [  0.8        -21.718638  ]
 [  0.9        -41.58529941]
 [  1.          22.99211782]
 [  1.09391667 -96.82772328]]","[[0.         1.10397813]
 [0.1        0.67044391]
 [0.2        1.06331023]
 [0.3        0.60586728]
 [0.4        0.11380816]
 [0.5        1.21530961]
 [0.6        1.48658081]
 [0.7        1.41412243]
 [0.8        0.93606202]
 [0.9        0.40038549]
 [1.         0.6748387 ]
 [1.09391667 0.72929926]]",1,0.168
8782735929,f,25,english,5,4,french,2024-02-13 10:39:26.615494,False,1,44,sounds\english\audio/english_883.wav,"[[  0.         -84.46412598]
 [  0.1        -48.29800463]
 [  0.2        -81.14674871]
 [  0.3        -14.72052063]
 [  0.4         84.15645486]
 [  0.5        -46.7306994 ]
 [  0.6        -55.92753429]
 [  0.7         69.20414462]
 [  0.8         42.35113705]
 [  0.9         68.93741473]
 [  1.           5.16727893]
 [  1.09391667 -87.05225408]]","[[0.         0.36586486]
 [0.1        1.2838589 ]
 [0.2        0.35124497]
 [0.3        0.55313004]
 [0.4        1.38696071]
 [0.5        0.05285084]
 [0.6        0.33437309]
 [0.7        0.05014106]
 [0.8        1.1093355 ]
 [0.9        1.05755937]
 [1.         0.06749628]
 [1.09391667 1.22701865]]",1,0.694
8782735929,f,25,english,5,4,french,2024-02-13 10:39:26.615494,False,1,45,sounds\english\audio/english_482.wav,"[[  0.          20.07417146]
 [  0.1        -12.82737333]
 [  0.2         46.60771192]
 [  0.3         92.39920005]
 [  0.4         96.99690807]
 [  0.5         12.60829295]
 [  0.6        -23.92845314]
 [  0.7        -47.3765233 ]
 [  0.8         55.97987906]
 [  0.9         22.28704579]
 [  1.          67.15676761]
 [  1.09391667  46.69344931]]","[[0.         1.35721439]
 [0.1        1.71306389]
 [0.2        0.15096255]
 [0.3        1.17077369]
 [0.4        0.74035243]
 [0.5        1.34523093]
 [0.6        0.96774723]
 [0.7        1.67491069]
 [0.8        1.90247302]
 [0.9        1.31919575]
 [1.         1.48251796]
 [1.09391667 0.85176568]]",1,0.504
8782735929,f,25,english,5,4,french,2024-02-13 10:39:26.615494,False,1,46,sounds\english\audio/english_816.wav,"[[  0.         -17.35587933]
 [  0.1          0.95768859]
 [  0.2         47.37608494]
 [  0.3        -29.30928245]
 [  0.4          0.3886714 ]
 [  0.5         11.78751261]
 [  0.6         -3.17696206]
 [  0.7        -19.53944189]
 [  0.8         -7.70582249]
 [  0.9        -20.54964166]
 [  1.         -60.75740285]
 [  1.09391667 -12.71558958]]","[[0.         1.80713615]
 [0.1        0.65818518]
 [0.2        0.13743933]
 [0.3        0.63156649]
 [0.4        0.74841843]
 [0.5        1.47868634]
 [0.6        1.19861887]
 [0.7        0.27488431]
 [0.8        0.84423799]
 [0.9        0.77450003]
 [1.         1.95248665]
 [1.09391667 0.720403  ]]",1,0.12
8782735929,f,25,english,5,4,french,2024-02-13 10:39:26.615494,False,1,47,sounds\english\audio/english_917.wav,"[[ 0.00000000e+00 -3.53182661e+01]
 [ 1.00000000e-01 -2.17738587e+01]
 [ 2.00000000e-01  8.21428169e+01]
 [ 3.00000000e-01 -1.22731677e+01]
 [ 4.00000000e-01  4.83424811e+00]
 [ 5.00000000e-01 -8.54945092e-02]
 [ 6.00000000e-01 -9.26938160e+01]
 [ 7.00000000e-01 -9.15131295e+01]
 [ 8.00000000e-01  5.80373061e+01]
 [ 9.00000000e-01 -2.86534312e+01]
 [ 1.00000000e+00  4.54510696e+01]
 [ 1.09391667e+00  4.83165221e+01]]","[[0.         1.27669121]
 [0.1        1.4602349 ]
 [0.2        0.09750383]
 [0.3        0.51655458]
 [0.4        1.15347497]
 [0.5        1.01469442]
 [0.6        0.31102011]
 [0.7        1.44230515]
 [0.8        0.03377485]
 [0.9        0.48994194]
 [1.         0.17679016]
 [1.09391667 0.94650881]]",1,1.332
8782735929,f,25,english,5,4,french,2024-02-13 10:39:26.615494,False,1,48,sounds\english\audio/english_141.wav,"[[  0.         -25.96524021]
 [  0.1        -11.44118441]
 [  0.2        -66.44014101]
 [  0.3         30.66990272]
 [  0.4        -49.39763787]
 [  0.5         71.82875968]
 [  0.6         50.32312506]
 [  0.7         83.58769319]
 [  0.8        -69.87735782]
 [  0.9         56.37127437]
 [  1.          68.13119407]
 [  1.09391667  53.90803302]]","[[0.         0.14393867]
 [0.1        1.79797632]
 [0.2        0.67919643]
 [0.3        0.9819906 ]
 [0.4        1.78886462]
 [0.5        1.83801705]
 [0.6        1.16009946]
 [0.7        0.83834581]
 [0.8        0.15042094]
 [0.9        0.30059528]
 [1.         1.31059528]
 [1.09391667 1.79436216]]",0,0.202
8782735929,f,25,english,5,4,french,2024-02-13 10:39:26.615494,False,1,49,sounds\english\audio/english_354.wav,"[[  0.         -28.87420486]
 [  0.1        -23.35112853]
 [  0.2          5.36311679]
 [  0.3         88.42745553]
 [  0.4          2.47520697]
 [  0.5         46.1200008 ]
 [  0.6        -18.78131858]
 [  0.7        -50.4047441 ]
 [  0.8         70.60844452]
 [  0.9        -79.1017332 ]
 [  1.         -66.82350364]
 [  1.09391667 -48.20226443]]","[[0.         0.20754018]
 [0.1        1.88177303]
 [0.2        1.60863404]
 [0.3        0.83478671]
 [0.4        1.51310965]
 [0.5        1.04317866]
 [0.6        0.09474749]
 [0.7        1.6889762 ]
 [0.8        0.35231613]
 [0.9        0.20561504]
 [1.         0.40462269]
 [1.09391667 0.51831425]]",1,0.321
8782735929,f,25,english,5,4,french,2024-02-13 10:39:26.615494,False,1,50,sounds\english\audio/english_34.wav,"[[  0.           9.71692873]
 [  0.1        -32.4765448 ]
 [  0.2         15.43761556]
 [  0.3         58.61018381]
 [  0.4         25.83507297]
 [  0.5        -56.32199776]
 [  0.6        -56.68859517]
 [  0.7        -35.23691581]
 [  0.8        -38.05292499]
 [  0.9        -19.80503333]
 [  1.          18.63515133]
 [  1.09391667  20.3470687 ]]","[[0.         1.51290073]
 [0.1        1.69209185]
 [0.2        1.03006511]
 [0.3        0.24425739]
 [0.4        1.41814457]
 [0.5        1.04050252]
 [0.6        0.2977066 ]
 [0.7        0.84278016]
 [0.8        1.02765016]
 [0.9        1.82923519]
 [1.         1.36188649]
 [1.09391667 1.04188566]]",1,0.056
8782735929,f,25,english,5,4,french,2024-02-13 10:39:26.615494,False,1,51,sounds\english\audio/english_628.wav,"[[  0.          34.12444542]
 [  0.1         74.48031141]
 [  0.2        -19.43129602]
 [  0.3        -92.54731656]
 [  0.4        -58.49891228]
 [  0.5         94.39851276]
 [  0.6         89.36062337]
 [  0.7        -34.72831932]
 [  0.8        -41.3084128 ]
 [  0.9        -12.31772149]
 [  1.         -54.36940291]
 [  1.09391667  25.60798008]]","[[0.         1.40815308]
 [0.1        0.59085662]
 [0.2        1.62308244]
 [0.3        0.88278885]
 [0.4        1.88399598]
 [0.5        0.89763536]
 [0.6        0.99460468]
 [0.7        0.78525958]
 [0.8        1.26727053]
 [0.9        0.55653785]
 [1.         1.19130102]
 [1.09391667 1.74925418]]",1,0.109
8782735929,f,25,english,5,4,french,2024-02-13 10:39:26.615494,False,1,52,sounds\english\audio/english_949.wav,"[[  0.          54.61462209]
 [  0.1        -50.15567249]
 [  0.2        -79.16450403]
 [  0.3        -44.83948747]
 [  0.4        -72.5668355 ]
 [  0.5         23.11693261]
 [  0.6         55.55317843]
 [  0.7         59.5386341 ]
 [  0.8         67.81612368]
 [  0.9        -21.79138996]
 [  1.         -21.61100123]
 [  1.09391667  60.1714172 ]]","[[0.         1.24439385]
 [0.1        1.34534032]
 [0.2        1.77870323]
 [0.3        0.1999312 ]
 [0.4        0.37427324]
 [0.5        0.13497677]
 [0.6        0.61790997]
 [0.7        0.95689705]
 [0.8        0.69621675]
 [0.9        1.43619216]
 [1.         0.99379929]
 [1.09391667 0.04897066]]",1,0.313
8782735929,f,25,english,5,4,french,2024-02-13 10:39:26.615494,False,1,53,sounds\english\audio/english_178.wav,"[[  0.           5.42478923]
 [  0.1         66.71711881]
 [  0.2         25.13944125]
 [  0.3         95.56005782]
 [  0.4         16.85207382]
 [  0.5        -27.28270002]
 [  0.6         86.24132907]
 [  0.7        -67.08119727]
 [  0.8         -0.81610081]
 [  0.9        -32.08256077]
 [  1.          33.26765995]
 [  1.09391667  50.15163679]]","[[0.         1.01011156]
 [0.1        1.60637441]
 [0.2        0.85795496]
 [0.3        1.35214977]
 [0.4        0.61247399]
 [0.5        1.45555962]
 [0.6        0.34817024]
 [0.7        0.78995697]
 [0.8        1.09427424]
 [0.9        1.32224293]
 [1.         1.53013904]
 [1.09391667 1.40313699]]",0,0.661
8782735929,f,25,english,5,4,french,2024-02-13 10:39:26.615494,False,1,54,sounds\english\audio/english_90.wav,"[[  0.          63.54924995]
 [  0.1        -59.21327506]
 [  0.2         34.58495613]
 [  0.3          3.2427236 ]
 [  0.4          1.17936493]
 [  0.5         50.51297544]
 [  0.6         61.04656064]
 [  0.7        -96.36424089]
 [  0.8          9.94738881]
 [  0.9        -95.56108651]
 [  1.         -78.91453265]
 [  1.09391667  57.06664979]]","[[0.         1.34228215]
 [0.1        1.34732724]
 [0.2        1.75147993]
 [0.3        0.03089284]
 [0.4        1.52341973]
 [0.5        0.97925583]
 [0.6        1.17642538]
 [0.7        1.13367306]
 [0.8        1.45431282]
 [0.9        0.56738547]
 [1.         1.10123663]
 [1.09391667 0.76686745]]",0,0.788
8782735929,f,25,english,5,4,french,2024-02-13 10:39:26.615494,False,1,55,sounds\english\audio/english_888.wav,"[[  0.         -39.7925546 ]
 [  0.1        -49.30113257]
 [  0.2          5.97243806]
 [  0.3         16.41276851]
 [  0.4         72.72751695]
 [  0.5         30.43059144]
 [  0.6        -50.61460993]
 [  0.7         27.35581245]
 [  0.8        -42.43293374]
 [  0.9         65.78948432]
 [  1.          10.78660964]
 [  1.09391667 -21.51817703]]","[[0.         0.13458958]
 [0.1        1.48324952]
 [0.2        0.77423602]
 [0.3        0.11110742]
 [0.4        0.50050507]
 [0.5        1.62800327]
 [0.6        0.52150538]
 [0.7        1.33185555]
 [0.8        1.57744059]
 [0.9        0.93033448]
 [1.         1.1520653 ]
 [1.09391667 1.84815249]]",0,0.303
8782735929,f,25,english,5,4,french,2024-02-13 10:39:26.615494,False,1,56,sounds\english\audio/english_680.wav,"[[  0.          34.87100104]
 [  0.1        -42.78152033]
 [  0.2         53.30670494]
 [  0.3        -19.15351041]
 [  0.4         81.43981803]
 [  0.5        -40.3529223 ]
 [  0.6        -80.08540334]
 [  0.7        -59.88446673]
 [  0.8         14.21531263]
 [  0.9         39.26105915]
 [  1.         -43.76684188]
 [  1.09391667 -17.50761484]]","[[0.         0.28324866]
 [0.1        0.8126674 ]
 [0.2        0.29371905]
 [0.3        0.35755618]
 [0.4        1.51227527]
 [0.5        1.96868376]
 [0.6        0.83617015]
 [0.7        0.96819403]
 [0.8        0.41039135]
 [0.9        0.45984498]
 [1.         0.60924907]
 [1.09391667 0.18151502]]",1,0.533
8782735929,f,25,english,5,4,french,2024-02-13 10:39:26.615494,False,1,57,sounds\english\audio/english_758.wav,"[[  0.          44.67997232]
 [  0.1         27.10099403]
 [  0.2        -48.30493583]
 [  0.3        -73.5260898 ]
 [  0.4         19.32057449]
 [  0.5        -32.65273306]
 [  0.6        -67.58997162]
 [  0.7        -76.10184919]
 [  0.8         55.20632284]
 [  0.9          3.61347388]
 [  1.         -39.33689268]
 [  1.09391667  44.43004874]]","[[0.         1.19309781]
 [0.1        0.27221696]
 [0.2        0.58591156]
 [0.3        1.06118241]
 [0.4        1.53382291]
 [0.5        1.10934516]
 [0.6        1.53621874]
 [0.7        0.32907917]
 [0.8        0.47500698]
 [0.9        1.81944253]
 [1.         1.02148435]
 [1.09391667 0.12347796]]",1,0.224
8782735929,f,25,english,5,4,french,2024-02-13 10:39:26.615494,False,1,58,sounds\english\audio/english_131.wav,"[[  0.           0.31363537]
 [  0.1         36.71486201]
 [  0.2        -43.77123754]
 [  0.3        -25.02514695]
 [  0.4        -57.33579205]
 [  0.5        -86.86546268]
 [  0.6         34.68309006]
 [  0.7        -54.571254  ]
 [  0.8         15.2602828 ]
 [  0.9         37.40968803]
 [  1.         -75.44923375]
 [  1.09391667  22.36121129]]","[[0.         1.18724551]
 [0.1        1.11707061]
 [0.2        0.00275246]
 [0.3        1.15512468]
 [0.4        1.12677457]
 [0.5        1.05779514]
 [0.6        1.76361287]
 [0.7        1.49422438]
 [0.8        0.77084465]
 [0.9        0.77617306]
 [1.         0.87602882]
 [1.09391667 1.56580011]]",0,0.132
8782735929,f,25,english,5,4,french,2024-02-13 10:39:26.615494,False,1,59,sounds\english\audio/english_329.wav,"[[  0.         -73.5267518 ]
 [  0.1         26.40936661]
 [  0.2         95.94954551]
 [  0.3        -92.18268605]
 [  0.4        -98.10910069]
 [  0.5        -61.34103681]
 [  0.6         34.88723994]
 [  0.7         66.83835425]
 [  0.8        -67.43059972]
 [  0.9         51.12526405]
 [  1.         -25.5134348 ]
 [  1.09391667 -82.24978729]]","[[0.         0.87153309]
 [0.1        1.24873758]
 [0.2        0.87594124]
 [0.3        0.88012103]
 [0.4        1.62824367]
 [0.5        1.41725229]
 [0.6        1.27607992]
 [0.7        0.30685243]
 [0.8        0.43279956]
 [0.9        0.74557381]
 [1.         0.84179224]
 [1.09391667 0.84260005]]",0,0.526
8782735929,f,25,english,5,4,french,2024-02-13 10:39:26.615494,False,1,60,sounds\english\audio/english_990.wav,"[[  0.         -41.91954114]
 [  0.1        -81.73689018]
 [  0.2         -8.6439495 ]
 [  0.3        -35.79468829]
 [  0.4        -15.71846635]
 [  0.5         30.29696997]
 [  0.6         58.5778321 ]
 [  0.7        -55.43771635]
 [  0.8         -4.04287403]
 [  0.9         96.7741085 ]
 [  1.          73.27929718]
 [  1.09391667 -50.83652549]]","[[0.         1.07016473]
 [0.1        0.80416299]
 [0.2        1.27361164]
 [0.3        0.8357561 ]
 [0.4        0.68387575]
 [0.5        0.51659091]
 [0.6        0.86090319]
 [0.7        1.86495605]
 [0.8        0.50523281]
 [0.9        0.60576665]
 [1.         1.38942897]
 [1.09391667 0.62697308]]",1,0.32
8782735929,f,25,english,5,4,french,2024-02-13 10:39:26.615494,False,1,61,sounds\english\audio/english_138.wav,"[[  0.          84.66208912]
 [  0.1        -96.9061077 ]
 [  0.2         56.17770157]
 [  0.3        -78.07946429]
 [  0.4         91.20181194]
 [  0.5        -30.87660198]
 [  0.6         27.3117693 ]
 [  0.7        -99.12692265]
 [  0.8        -51.46520236]
 [  0.9         -3.34321361]
 [  1.          -7.25861447]
 [  1.09391667  -2.49487658]]","[[0.         1.51830246]
 [0.1        0.02156416]
 [0.2        1.9703834 ]
 [0.3        1.25545273]
 [0.4        0.91568969]
 [0.5        1.83228794]
 [0.6        1.04000857]
 [0.7        1.75318047]
 [0.8        0.69204702]
 [0.9        0.65368484]
 [1.         0.00684889]
 [1.09391667 0.43470638]]",1,0.384
8782735929,f,25,english,5,4,french,2024-02-13 10:39:26.615494,False,1,62,sounds\english\audio/english_526.wav,"[[  0.           8.34861985]
 [  0.1          4.68771873]
 [  0.2         53.60731048]
 [  0.3         59.31550311]
 [  0.4         72.50237706]
 [  0.5         35.8849844 ]
 [  0.6         74.11215821]
 [  0.7         55.59683057]
 [  0.8        -27.47924079]
 [  0.9          6.32801867]
 [  1.          17.73622103]
 [  1.09391667  57.44538819]]","[[0.00000000e+00 8.18467978e-01]
 [1.00000000e-01 1.47842566e+00]
 [2.00000000e-01 1.29193120e+00]
 [3.00000000e-01 3.67292410e-06]
 [4.00000000e-01 1.30202935e+00]
 [5.00000000e-01 4.36504023e-01]
 [6.00000000e-01 1.72509944e+00]
 [7.00000000e-01 5.55064149e-01]
 [8.00000000e-01 3.22124551e-01]
 [9.00000000e-01 2.03468589e-01]
 [1.00000000e+00 8.14562372e-01]
 [1.09391667e+00 1.24257204e+00]]",1,0.416
8782735929,f,25,english,5,4,french,2024-02-13 10:39:26.615494,False,1,63,sounds\english\audio/english_794.wav,"[[  0.         -94.32956865]
 [  0.1        -54.44529308]
 [  0.2         41.27752313]
 [  0.3        -24.41011935]
 [  0.4        -17.86009113]
 [  0.5         70.96620098]
 [  0.6         -6.92588192]
 [  0.7          1.86567935]
 [  0.8         85.29780195]
 [  0.9         66.99714839]
 [  1.          34.72052642]
 [  1.09391667  18.1862992 ]]","[[0.         0.17232345]
 [0.1        0.63768668]
 [0.2        0.54334699]
 [0.3        0.41814183]
 [0.4        0.83205575]
 [0.5        1.38587001]
 [0.6        0.50257762]
 [0.7        1.6396819 ]
 [0.8        1.19491374]
 [0.9        0.22376499]
 [1.         0.81945326]
 [1.09391667 1.51337696]]",0,0.232
8782735929,f,25,english,5,4,french,2024-02-13 10:39:26.615494,False,1,64,sounds\english\audio/english_607.wav,"[[  0.           0.27599318]
 [  0.1         61.54655284]
 [  0.2        -45.68438061]
 [  0.3        -56.50831868]
 [  0.4         15.2577286 ]
 [  0.5        -52.12017374]
 [  0.6         97.83272545]
 [  0.7          7.21834566]
 [  0.8          8.71902974]
 [  0.9         84.51998902]
 [  1.         -21.50673836]
 [  1.09391667  68.90809966]]","[[0.         1.85195662]
 [0.1        0.01211705]
 [0.2        1.01527113]
 [0.3        0.58104245]
 [0.4        0.36467608]
 [0.5        0.76758339]
 [0.6        1.21313057]
 [0.7        1.69539972]
 [0.8        0.38171646]
 [0.9        1.4848349 ]
 [1.         0.84163241]
 [1.09391667 0.34247873]]",1,0.321
8782735929,f,25,english,5,4,french,2024-02-13 10:39:26.615494,False,1,65,sounds\english\audio/english_727.wav,"[[  0.         -18.41371041]
 [  0.1        -63.10285802]
 [  0.2        -11.47868373]
 [  0.3         40.37675275]
 [  0.4        -77.12859483]
 [  0.5         92.73705719]
 [  0.6        -55.99534641]
 [  0.7        -55.52546335]
 [  0.8          6.97078157]
 [  0.9        -23.82740681]
 [  1.          16.85010217]
 [  1.09391667  12.17774436]]","[[0.         1.35764892]
 [0.1        1.30171306]
 [0.2        1.89832966]
 [0.3        1.96157356]
 [0.4        0.9069281 ]
 [0.5        1.12095366]
 [0.6        1.00983545]
 [0.7        0.3683737 ]
 [0.8        1.10707799]
 [0.9        1.05563912]
 [1.         1.15538622]
 [1.09391667 0.52815825]]",0,0.153
8782735929,f,25,english,5,4,french,2024-02-13 10:39:26.615494,False,1,66,sounds\english\audio/english_429.wav,"[[  0.          35.99149225]
 [  0.1        -74.15243919]
 [  0.2        -66.98958389]
 [  0.3        -17.85195751]
 [  0.4        -73.89259621]
 [  0.5         79.15421071]
 [  0.6        -46.04257139]
 [  0.7        -20.15951385]
 [  0.8        -88.88014071]
 [  0.9         85.9209564 ]
 [  1.         -45.56975308]
 [  1.09391667 -32.13799224]]","[[0.         1.15996834]
 [0.1        1.78612781]
 [0.2        1.07132938]
 [0.3        0.01687876]
 [0.4        0.18602523]
 [0.5        1.63202806]
 [0.6        0.71186645]
 [0.7        1.59705108]
 [0.8        0.92556725]
 [0.9        1.19440403]
 [1.         1.44802402]
 [1.09391667 1.37788661]]",1,0.172
8782735929,f,25,english,5,4,french,2024-02-13 10:39:26.615494,False,1,67,sounds\english\audio/english_305.wav,"[[  0.          17.49267602]
 [  0.1         17.59035292]
 [  0.2         83.12376417]
 [  0.3        -81.59474703]
 [  0.4        -99.63264863]
 [  0.5         42.69289025]
 [  0.6         82.55548118]
 [  0.7         15.87479687]
 [  0.8        -15.6323718 ]
 [  0.9         98.18396958]
 [  1.          52.83112054]
 [  1.09391667  33.63343534]]","[[0.         0.00977258]
 [0.1        1.17585195]
 [0.2        1.66932103]
 [0.3        0.83160233]
 [0.4        1.05024367]
 [0.5        1.13369845]
 [0.6        0.21867151]
 [0.7        0.32447169]
 [0.8        1.86350195]
 [0.9        0.82463705]
 [1.         0.94709308]
 [1.09391667 0.36254065]]",1,0.456
8782735929,f,25,english,5,4,french,2024-02-13 10:39:26.615494,False,1,68,sounds\english\audio/english_52.wav,"[[  0.          22.10137518]
 [  0.1         54.60808655]
 [  0.2        -19.2398092 ]
 [  0.3         51.72612617]
 [  0.4         48.42620238]
 [  0.5        -74.55875553]
 [  0.6         38.81047921]
 [  0.7        -10.61292931]
 [  0.8         57.32417171]
 [  0.9          1.80511965]
 [  1.          21.58974988]
 [  1.09391667 -49.54213801]]","[[0.         1.70966253]
 [0.1        0.73212315]
 [0.2        0.80628637]
 [0.3        0.90394386]
 [0.4        0.20122149]
 [0.5        0.79458017]
 [0.6        1.48954082]
 [0.7        0.49987231]
 [0.8        1.72417372]
 [0.9        1.29717669]
 [1.         1.53819456]
 [1.09391667 0.23189362]]",1,0.1
8782735929,f,25,english,5,4,french,2024-02-13 10:39:26.615494,False,1,69,sounds\english\audio/english_613.wav,"[[  0.          56.02417359]
 [  0.1        -15.12096295]
 [  0.2         24.11599025]
 [  0.3        -98.52161237]
 [  0.4        -83.03822249]
 [  0.5         21.43017138]
 [  0.6         63.83169659]
 [  0.7         20.52778074]
 [  0.8         94.54806404]
 [  0.9         22.39216261]
 [  1.         -21.9484098 ]
 [  1.09391667 -64.50590256]]","[[0.         1.45969094]
 [0.1        0.70307333]
 [0.2        1.55595157]
 [0.3        0.89820675]
 [0.4        1.36107021]
 [0.5        0.16432707]
 [0.6        0.04833877]
 [0.7        0.40598637]
 [0.8        1.56556559]
 [0.9        0.73835637]
 [1.         1.13631796]
 [1.09391667 0.17382409]]",0,0.234
8782735929,f,25,english,5,4,french,2024-02-13 10:39:26.615494,False,1,70,sounds\english\audio/english_449.wav,"[[  0.         -44.55388373]
 [  0.1         -6.72313799]
 [  0.2         79.06263513]
 [  0.3        -55.67409496]
 [  0.4        -98.00845055]
 [  0.5         11.95490186]
 [  0.6         61.24554038]
 [  0.7         22.84997393]
 [  0.8        -43.41021729]
 [  0.9         -0.66438627]
 [  1.          97.92538247]
 [  1.09391667 -73.561514  ]]","[[0.         1.29710548]
 [0.1        1.06558485]
 [0.2        1.64594706]
 [0.3        0.52101608]
 [0.4        1.47445199]
 [0.5        0.94544277]
 [0.6        1.90306494]
 [0.7        1.15810732]
 [0.8        0.26889852]
 [0.9        1.02983536]
 [1.         1.13790703]
 [1.09391667 0.97073961]]",1,0.186
8782735929,f,25,english,5,4,french,2024-02-13 10:39:26.615494,False,1,71,sounds\english\audio/english_12.wav,"[[  0.          42.97445599]
 [  0.1        -13.36169143]
 [  0.2         95.55347712]
 [  0.3         25.38194066]
 [  0.4          7.99263567]
 [  0.5        -99.22256454]
 [  0.6        -40.78265899]
 [  0.7          6.53756305]
 [  0.8        -20.69460066]
 [  0.9        -61.55291704]
 [  1.         -41.80363085]
 [  1.09391667 -15.66743162]]","[[0.         0.55669558]
 [0.1        0.58156084]
 [0.2        1.49895361]
 [0.3        1.21133401]
 [0.4        1.29255802]
 [0.5        0.60717751]
 [0.6        1.53494704]
 [0.7        0.96428077]
 [0.8        0.42904798]
 [0.9        1.90575432]
 [1.         0.98826975]
 [1.09391667 0.15634055]]",0,0.143
8782735929,f,25,english,5,4,french,2024-02-13 10:39:26.615494,False,1,72,sounds\english\audio/english_337.wav,"[[  0.          63.30955307]
 [  0.1        -16.2405627 ]
 [  0.2        -94.40154866]
 [  0.3         75.21778114]
 [  0.4         25.54945434]
 [  0.5        -24.8991059 ]
 [  0.6         41.94064473]
 [  0.7        -52.88941207]
 [  0.8         34.33759816]
 [  0.9         11.89714474]
 [  1.         -68.13632942]
 [  1.09391667  47.32266625]]","[[0.         1.05146316]
 [0.1        1.82422784]
 [0.2        0.58494816]
 [0.3        1.0983984 ]
 [0.4        0.15013246]
 [0.5        0.80312612]
 [0.6        0.26635056]
 [0.7        1.56094221]
 [0.8        1.1585981 ]
 [0.9        1.8876465 ]
 [1.         1.89794163]
 [1.09391667 0.59037239]]",1,0.863
8782735929,f,25,english,5,4,french,2024-02-13 10:39:26.615494,False,1,73,sounds\english\audio/english_895.wav,"[[  0.         -68.00198949]
 [  0.1        -51.96003104]
 [  0.2        -27.5678987 ]
 [  0.3          1.37769692]
 [  0.4        -19.54713895]
 [  0.5         32.4870356 ]
 [  0.6         73.95431589]
 [  0.7        -60.0683904 ]
 [  0.8        -32.74215808]
 [  0.9        -18.7791301 ]
 [  1.           4.0520504 ]
 [  1.09391667  54.70777064]]","[[0.         0.4596857 ]
 [0.1        1.9086695 ]
 [0.2        1.58013593]
 [0.3        1.02012083]
 [0.4        0.3764367 ]
 [0.5        0.56957954]
 [0.6        0.55471434]
 [0.7        1.19362941]
 [0.8        1.07008524]
 [0.9        0.94538114]
 [1.         0.21197649]
 [1.09391667 1.70514148]]",0,0.192
8782735929,f,25,english,5,4,french,2024-02-13 10:39:26.615494,False,1,74,sounds\english\audio/english_937.wav,"[[  0.          48.31161741]
 [  0.1         94.31178096]
 [  0.2         43.82009927]
 [  0.3         34.87322119]
 [  0.4         62.02386853]
 [  0.5        -76.91099942]
 [  0.6         85.65284811]
 [  0.7         16.74886634]
 [  0.8        -83.35160832]
 [  0.9         99.3500254 ]
 [  1.         -72.7605227 ]
 [  1.09391667 -40.54115445]]","[[0.         0.20999663]
 [0.1        0.73195695]
 [0.2        0.70757327]
 [0.3        0.54050489]
 [0.4        0.53879588]
 [0.5        0.40459306]
 [0.6        1.92541325]
 [0.7        1.53445282]
 [0.8        0.38375611]
 [0.9        0.09137971]
 [1.         0.90026455]
 [1.09391667 0.89252671]]",1,0.167
8782735929,f,25,english,5,4,french,2024-02-13 10:39:26.615494,False,1,75,sounds\english\audio/english_50.wav,"[[  0.         -32.36494138]
 [  0.1         76.6244439 ]
 [  0.2        -16.62217643]
 [  0.3         63.40850527]
 [  0.4         68.81783594]
 [  0.5        -35.17384088]
 [  0.6         42.93688325]
 [  0.7        -82.21044816]
 [  0.8        -42.73245843]
 [  0.9         -3.13393134]
 [  1.         -86.41078269]
 [  1.09391667  14.80187439]]","[[0.         1.37054129]
 [0.1        1.57215181]
 [0.2        1.07317842]
 [0.3        0.82623857]
 [0.4        0.72038729]
 [0.5        1.90936147]
 [0.6        0.3744962 ]
 [0.7        0.69245834]
 [0.8        0.60585647]
 [0.9        1.24840552]
 [1.         0.02488175]
 [1.09391667 1.59728167]]",0,0.189
8782735929,f,25,english,5,4,french,2024-02-13 10:39:26.615494,False,1,76,sounds\english\audio/english_815.wav,"[[  0.          13.37098153]
 [  0.1         65.78624278]
 [  0.2         66.40667823]
 [  0.3        -44.62639189]
 [  0.4        -51.75725077]
 [  0.5        -79.21957107]
 [  0.6        -56.86584236]
 [  0.7         42.29244477]
 [  0.8        -94.28545135]
 [  0.9        -14.77734417]
 [  1.          55.50770682]
 [  1.09391667   3.0451597 ]]","[[0.         0.8883119 ]
 [0.1        0.67980941]
 [0.2        0.95780133]
 [0.3        1.51398111]
 [0.4        1.4565051 ]
 [0.5        0.83683567]
 [0.6        0.38900819]
 [0.7        1.92415526]
 [0.8        0.30571249]
 [0.9        0.35189603]
 [1.         0.8512317 ]
 [1.09391667 1.01865879]]",1,0.135
8782735929,f,25,english,5,4,french,2024-02-13 10:39:26.615494,False,1,77,sounds\english\audio/english_529.wav,"[[  0.         -75.44052411]
 [  0.1         73.68823703]
 [  0.2         35.88983091]
 [  0.3         74.9860534 ]
 [  0.4         39.79761308]
 [  0.5         87.56894365]
 [  0.6        -70.18354505]
 [  0.7         30.14757838]
 [  0.8        -85.67720686]
 [  0.9         -5.22909547]
 [  1.         -29.17041088]
 [  1.09391667  91.40497623]]","[[0.         0.27425441]
 [0.1        1.79894556]
 [0.2        1.38498362]
 [0.3        1.12136542]
 [0.4        0.69021564]
 [0.5        1.32432139]
 [0.6        0.62496123]
 [0.7        0.16694554]
 [0.8        1.72485798]
 [0.9        0.11317639]
 [1.         1.97903266]
 [1.09391667 0.92289832]]",0,0.163
8782735929,f,25,english,5,4,french,2024-02-13 10:39:26.615494,False,1,78,sounds\english\audio/english_684.wav,"[[ 0.00000000e+00  4.46488214e+01]
 [ 1.00000000e-01  9.68442182e+00]
 [ 2.00000000e-01 -4.50587890e+01]
 [ 3.00000000e-01  9.29989294e+00]
 [ 4.00000000e-01 -9.33818257e+01]
 [ 5.00000000e-01 -1.86654658e+01]
 [ 6.00000000e-01 -3.61937511e+01]
 [ 7.00000000e-01 -2.27796988e-02]
 [ 8.00000000e-01 -8.19835579e+01]
 [ 9.00000000e-01  6.67026535e+01]
 [ 1.00000000e+00 -2.81669756e+01]
 [ 1.09391667e+00 -3.11571246e+01]]","[[0.         0.31150518]
 [0.1        0.4998365 ]
 [0.2        0.24275602]
 [0.3        1.63678411]
 [0.4        1.55347247]
 [0.5        0.93326504]
 [0.6        1.36007358]
 [0.7        0.52423503]
 [0.8        1.47566928]
 [0.9        1.32008624]
 [1.         1.00236166]
 [1.09391667 1.13724252]]",1,0.164
8782735929,f,25,english,5,4,french,2024-02-13 10:39:26.615494,False,1,79,sounds\english\audio/english_958.wav,"[[  0.          82.24324258]
 [  0.1         80.86962612]
 [  0.2        -72.80020936]
 [  0.3         76.49424807]
 [  0.4        -64.96103848]
 [  0.5        -28.48200693]
 [  0.6         36.24392724]
 [  0.7         61.50604074]
 [  0.8        -15.49344292]
 [  0.9         94.8143858 ]
 [  1.         -29.01167878]
 [  1.09391667  29.83149857]]","[[0.         1.82058144]
 [0.1        1.23603782]
 [0.2        0.454026  ]
 [0.3        0.0052754 ]
 [0.4        1.08282214]
 [0.5        1.85144542]
 [0.6        1.26196062]
 [0.7        1.03215922]
 [0.8        0.62598284]
 [0.9        0.44294081]
 [1.         0.91164636]
 [1.09391667 0.09783427]]",1,0.3
8782735929,f,25,english,5,4,french,2024-02-13 10:39:26.615494,False,1,80,sounds\english\audio/english_676.wav,"[[  0.          77.23951032]
 [  0.1         27.47427545]
 [  0.2         92.07370265]
 [  0.3        -39.62602007]
 [  0.4        -81.22107243]
 [  0.5        -99.04707649]
 [  0.6        -64.5180536 ]
 [  0.7         91.29392748]
 [  0.8         97.8635705 ]
 [  0.9        -84.2423741 ]
 [  1.         -76.68596269]
 [  1.09391667  65.10857552]]","[[0.         1.33259474]
 [0.1        0.90028372]
 [0.2        1.66717955]
 [0.3        0.42158585]
 [0.4        1.7878255 ]
 [0.5        1.33780608]
 [0.6        0.94548991]
 [0.7        1.43207041]
 [0.8        1.03085722]
 [0.9        0.34895699]
 [1.         0.83720355]
 [1.09391667 1.31764415]]",0,0.218
8782735929,f,25,english,5,4,french,2024-02-13 10:39:26.615494,False,1,81,sounds\english\audio/english_540.wav,"[[  0.          56.3389614 ]
 [  0.1         15.5810044 ]
 [  0.2        -57.00882779]
 [  0.3        -38.51831774]
 [  0.4         -2.48649571]
 [  0.5         47.94489788]
 [  0.6        -25.26992134]
 [  0.7         71.13867004]
 [  0.8        -84.74018584]
 [  0.9         36.45045372]
 [  1.          21.99011702]
 [  1.09391667  81.39151634]]","[[0.         0.35919702]
 [0.1        0.12290397]
 [0.2        0.4388906 ]
 [0.3        1.4101729 ]
 [0.4        1.50441402]
 [0.5        0.12973549]
 [0.6        1.5432215 ]
 [0.7        0.81755123]
 [0.8        1.08085579]
 [0.9        1.434422  ]
 [1.         0.97494001]
 [1.09391667 0.80759169]]",1,0.293
8782735929,f,25,english,5,4,french,2024-02-13 10:39:26.615494,False,1,82,sounds\english\audio/english_249.wav,"[[  0.          76.25739469]
 [  0.1        -72.9034905 ]
 [  0.2        -34.31284512]
 [  0.3         23.60127817]
 [  0.4         51.01923595]
 [  0.5        -89.59911495]
 [  0.6         34.41203989]
 [  0.7         52.60913862]
 [  0.8        -90.65371811]
 [  0.9        -64.64204846]
 [  1.         -86.58401711]
 [  1.09391667 -34.03680634]]","[[0.         0.56602806]
 [0.1        1.86013856]
 [0.2        1.49321079]
 [0.3        0.47941188]
 [0.4        0.65185377]
 [0.5        1.3750676 ]
 [0.6        1.54319682]
 [0.7        0.09952226]
 [0.8        0.08638802]
 [0.9        1.60736563]
 [1.         0.42122312]
 [1.09391667 0.01186603]]",0,0.288
8782735929,f,25,english,5,4,french,2024-02-13 10:39:26.615494,False,1,83,sounds\english\audio/english_333.wav,"[[  0.         -77.09264939]
 [  0.1         -5.78875624]
 [  0.2        -83.87680905]
 [  0.3         28.79088839]
 [  0.4         -8.31834177]
 [  0.5        -89.41834338]
 [  0.6         26.9852541 ]
 [  0.7         33.61847072]
 [  0.8         46.07239873]
 [  0.9         28.18917884]
 [  1.         -44.50200932]
 [  1.09391667  47.37913403]]","[[0.         1.23191038]
 [0.1        1.45836537]
 [0.2        1.0531546 ]
 [0.3        0.44111738]
 [0.4        1.38984954]
 [0.5        0.9205918 ]
 [0.6        0.41991315]
 [0.7        1.33278744]
 [0.8        1.39586389]
 [0.9        1.14407521]
 [1.         1.34818546]
 [1.09391667 0.31125762]]",1,0.224
8782735929,f,25,english,5,4,french,2024-02-13 10:39:26.615494,False,1,84,sounds\english\audio/english_602.wav,"[[  0.          68.03651569]
 [  0.1         45.80270737]
 [  0.2         40.05084495]
 [  0.3         48.64089828]
 [  0.4         24.15305268]
 [  0.5         51.63059478]
 [  0.6         84.11339373]
 [  0.7         22.39119116]
 [  0.8        -41.26651668]
 [  0.9         -2.28056387]
 [  1.         -50.54956883]
 [  1.09391667 -93.08298628]]","[[0.         0.44361931]
 [0.1        1.54062364]
 [0.2        1.57634207]
 [0.3        0.03645506]
 [0.4        1.06145672]
 [0.5        0.59279659]
 [0.6        1.68063549]
 [0.7        0.09041329]
 [0.8        1.8261536 ]
 [0.9        1.1974799 ]
 [1.         1.84366918]
 [1.09391667 1.00091384]]",0,0.113
8782735929,f,25,english,5,4,french,2024-02-13 10:39:26.615494,False,1,85,sounds\english\audio/english_883.wav,"[[  0.         -84.46412598]
 [  0.1        -48.29800463]
 [  0.2        -81.14674871]
 [  0.3        -14.72052063]
 [  0.4         84.15645486]
 [  0.5        -46.7306994 ]
 [  0.6        -55.92753429]
 [  0.7         69.20414462]
 [  0.8         42.35113705]
 [  0.9         68.93741473]
 [  1.           5.16727893]
 [  1.09391667 -87.05225408]]","[[0.         0.36586486]
 [0.1        1.2838589 ]
 [0.2        0.35124497]
 [0.3        0.55313004]
 [0.4        1.38696071]
 [0.5        0.05285084]
 [0.6        0.33437309]
 [0.7        0.05014106]
 [0.8        1.1093355 ]
 [0.9        1.05755937]
 [1.         0.06749628]
 [1.09391667 1.22701865]]",1,0.341
8782735929,f,25,english,5,4,french,2024-02-13 10:39:26.615494,False,1,86,sounds\english\audio/english_705.wav,"[[  0.          94.0253211 ]
 [  0.1        -84.5444617 ]
 [  0.2         70.19977298]
 [  0.3          2.19370509]
 [  0.4        -19.63697013]
 [  0.5        -84.4931522 ]
 [  0.6        -85.03717111]
 [  0.7        -41.91445316]
 [  0.8         84.41486289]
 [  0.9         18.1621282 ]
 [  1.          14.92247564]
 [  1.09391667   8.36562591]]","[[0.         0.90857368]
 [0.1        1.76203374]
 [0.2        0.0745524 ]
 [0.3        1.11616576]
 [0.4        0.64300797]
 [0.5        1.25671361]
 [0.6        0.57308662]
 [0.7        1.15914167]
 [0.8        1.00421815]
 [0.9        0.6158783 ]
 [1.         1.53499835]
 [1.09391667 1.78270824]]",1,0.29
8782735929,f,25,english,5,4,french,2024-02-13 10:39:26.615494,False,1,87,sounds\english\audio/english_308.wav,"[[  0.          52.24903485]
 [  0.1        -23.64626196]
 [  0.2        -51.25656168]
 [  0.3         22.90973994]
 [  0.4        -77.18224056]
 [  0.5        -15.74058407]
 [  0.6         68.28336148]
 [  0.7        -68.00125418]
 [  0.8        -28.10684377]
 [  0.9        -21.57286012]
 [  1.         -67.0126828 ]
 [  1.09391667  18.53594423]]","[[0.         1.51474705]
 [0.1        0.52665811]
 [0.2        1.02671755]
 [0.3        1.37852638]
 [0.4        1.59017097]
 [0.5        1.0350591 ]
 [0.6        1.54938004]
 [0.7        1.20956018]
 [0.8        0.88397822]
 [0.9        0.33660763]
 [1.         1.47798938]
 [1.09391667 0.24191373]]",1,0.404
8782735929,f,25,english,5,4,french,2024-02-13 10:39:26.615494,False,1,88,sounds\english\audio/english_398.wav,"[[  0.          58.43536872]
 [  0.1        -82.57908231]
 [  0.2         -3.40439415]
 [  0.3        -83.74176257]
 [  0.4         38.89596711]
 [  0.5         63.49142751]
 [  0.6         64.24765223]
 [  0.7         24.37031282]
 [  0.8         18.2651004 ]
 [  0.9         -3.768449  ]
 [  1.          55.48069175]
 [  1.09391667  -2.34176887]]","[[0.         0.19891774]
 [0.1        0.03529734]
 [0.2        1.69592316]
 [0.3        0.07086845]
 [0.4        0.77458748]
 [0.5        1.25980126]
 [0.6        1.54445807]
 [0.7        0.23015685]
 [0.8        0.80693823]
 [0.9        0.61010049]
 [1.         0.09811637]
 [1.09391667 1.22967895]]",0,0.327
8782735929,f,25,english,5,4,french,2024-02-13 10:39:26.615494,False,1,89,sounds\english\audio/english_268.wav,"[[  0.         -10.36348141]
 [  0.1         83.25825445]
 [  0.2         90.11608715]
 [  0.3         32.1996215 ]
 [  0.4          8.976783  ]
 [  0.5         -6.95203106]
 [  0.6         67.82169398]
 [  0.7         50.85858074]
 [  0.8         11.07143565]
 [  0.9         40.44499652]
 [  1.          87.615801  ]
 [  1.09391667 -54.91088926]]","[[0.         0.34238631]
 [0.1        0.93968033]
 [0.2        0.03117119]
 [0.3        0.99400779]
 [0.4        0.56090086]
 [0.5        0.18644764]
 [0.6        1.05098713]
 [0.7        0.33151379]
 [0.8        0.1498151 ]
 [0.9        0.7130759 ]
 [1.         0.85732073]
 [1.09391667 1.8995277 ]]",1,0.317
8782735929,f,25,english,5,4,french,2024-02-13 10:39:26.615494,False,1,90,sounds\english\audio/english_586.wav,"[[  0.          19.9692207 ]
 [  0.1         22.22606315]
 [  0.2         44.76083147]
 [  0.3         30.56518658]
 [  0.4         70.50807044]
 [  0.5        -99.40073456]
 [  0.6        -34.76596453]
 [  0.7         -7.2574162 ]
 [  0.8        -34.51491792]
 [  0.9         40.55984504]
 [  1.          43.92860722]
 [  1.09391667  97.81958787]]","[[0.00000000e+00 1.34383916e+00]
 [1.00000000e-01 1.96847498e-02]
 [2.00000000e-01 1.32604329e+00]
 [3.00000000e-01 4.57164903e-01]
 [4.00000000e-01 8.62218031e-01]
 [5.00000000e-01 1.19900353e+00]
 [6.00000000e-01 1.85917609e+00]
 [7.00000000e-01 5.99282433e-01]
 [8.00000000e-01 4.20457526e-01]
 [9.00000000e-01 1.44903206e+00]
 [1.00000000e+00 5.69773480e-04]
 [1.09391667e+00 1.67148022e+00]]",0,0.327
8782735929,f,25,english,5,4,french,2024-02-13 10:39:26.615494,False,1,91,sounds\english\audio/english_486.wav,"[[  0.          14.09044268]
 [  0.1         28.13825665]
 [  0.2        -40.21559781]
 [  0.3          9.13288013]
 [  0.4         89.32859242]
 [  0.5        -17.87642912]
 [  0.6         80.16824269]
 [  0.7         40.51786148]
 [  0.8        -19.91774538]
 [  0.9         -8.63425979]
 [  1.         -22.84814304]
 [  1.09391667  36.71518597]]","[[0.         1.6475495 ]
 [0.1        1.6255176 ]
 [0.2        1.99682212]
 [0.3        0.39670369]
 [0.4        1.34395023]
 [0.5        0.55691658]
 [0.6        1.45409657]
 [0.7        1.8204099 ]
 [0.8        0.51861004]
 [0.9        0.91268117]
 [1.         1.67784611]
 [1.09391667 0.60064436]]",1,0.148
8782735929,f,25,english,5,4,french,2024-02-13 10:39:26.615494,False,1,92,sounds\english\audio/english_581.wav,"[[  0.          73.66932606]
 [  0.1        -66.94779644]
 [  0.2         17.54153331]
 [  0.3        -33.4804178 ]
 [  0.4        -75.87348007]
 [  0.5        -19.3699166 ]
 [  0.6         44.64649322]
 [  0.7         49.72085551]
 [  0.8        -60.52101801]
 [  0.9        -63.98249467]
 [  1.         -38.32664081]
 [  1.09391667  93.53202253]]","[[0.         1.55016183]
 [0.1        0.89838662]
 [0.2        0.42808685]
 [0.3        0.92207517]
 [0.4        0.40201435]
 [0.5        0.78725452]
 [0.6        0.99552959]
 [0.7        1.64481575]
 [0.8        1.59282789]
 [0.9        0.98679066]
 [1.         1.29384626]
 [1.09391667 1.70769846]]",0,0.089
8782735929,f,25,english,5,4,french,2024-02-13 10:39:26.615494,False,1,93,sounds\english\audio/english_166.wav,"[[  0.         -22.47224396]
 [  0.1          8.34418228]
 [  0.2        -26.80375044]
 [  0.3        -25.22426401]
 [  0.4        -44.17860095]
 [  0.5         -7.8395137 ]
 [  0.6         42.03338864]
 [  0.7         50.48936268]
 [  0.8        -79.33283531]
 [  0.9         57.67304972]
 [  1.          75.92662412]
 [  1.09391667  -5.06556073]]","[[0.         0.79935629]
 [0.1        1.08766258]
 [0.2        0.88793969]
 [0.3        1.85581966]
 [0.4        1.74261815]
 [0.5        0.67828824]
 [0.6        0.30993225]
 [0.7        1.83209491]
 [0.8        1.96795539]
 [0.9        0.73278394]
 [1.         1.69577801]
 [1.09391667 0.31756742]]",1,0.055
8782735929,f,25,english,5,4,french,2024-02-13 10:39:26.615494,False,1,94,sounds\english\audio/english_40.wav,"[[  0.          48.02478729]
 [  0.1        -63.01746301]
 [  0.2         99.88373943]
 [  0.3        -35.62748252]
 [  0.4         22.54548674]
 [  0.5         64.17300345]
 [  0.6        -98.43334374]
 [  0.7        -29.30341943]
 [  0.8        -86.78861614]
 [  0.9        -30.45625268]
 [  1.         -71.34202466]
 [  1.09391667 -99.87345526]]","[[0.         1.95808972]
 [0.1        0.59596382]
 [0.2        1.52240022]
 [0.3        1.96915834]
 [0.4        0.95314863]
 [0.5        0.51463989]
 [0.6        0.71558666]
 [0.7        1.3085379 ]
 [0.8        0.72652205]
 [0.9        0.70559874]
 [1.         1.16093561]
 [1.09391667 1.23446985]]",0,0.106
8782735929,f,25,english,5,4,french,2024-02-13 10:39:26.615494,False,1,95,sounds\english\audio/english_701.wav,"[[  0.         -93.84804117]
 [  0.1        -77.23912918]
 [  0.2        -45.57356693]
 [  0.3        -80.33366172]
 [  0.4         95.38038132]
 [  0.5         43.37257018]
 [  0.6         20.80863296]
 [  0.7        -74.49587502]
 [  0.8         53.82285156]
 [  0.9         86.20229822]
 [  1.         -84.46214873]
 [  1.09391667   1.75691035]]","[[0.         0.47905205]
 [0.1        0.43335114]
 [0.2        0.98258142]
 [0.3        1.56424934]
 [0.4        1.99053476]
 [0.5        1.06230172]
 [0.6        1.81617496]
 [0.7        0.70378114]
 [0.8        1.40362465]
 [0.9        0.70617413]
 [1.         0.74798843]
 [1.09391667 0.6850293 ]]",1,0.166
8782735929,f,25,english,5,4,french,2024-02-13 10:39:26.615494,False,1,96,sounds\english\audio/english_339.wav,"[[  0.          60.63219511]
 [  0.1        -12.18568345]
 [  0.2         23.58983997]
 [  0.3        -59.19633042]
 [  0.4        -43.20945626]
 [  0.5        -32.55639825]
 [  0.6         -3.49407884]
 [  0.7         91.66463762]
 [  0.8        -80.14131412]
 [  0.9         86.26968254]
 [  1.         -20.69851377]
 [  1.09391667 -11.06601383]]","[[0.         0.54338949]
 [0.1        0.21495144]
 [0.2        0.44775719]
 [0.3        1.56952392]
 [0.4        0.76217709]
 [0.5        1.99954478]
 [0.6        0.09545273]
 [0.7        1.65140919]
 [0.8        1.37862303]
 [0.9        1.5118574 ]
 [1.         0.21342111]
 [1.09391667 1.19470184]]",1,0.214
8782735929,f,25,english,5,4,french,2024-02-13 10:39:26.615494,False,1,97,sounds\english\audio/english_300.wav,"[[  0.           2.79972232]
 [  0.1         -6.00092765]
 [  0.2          5.93513414]
 [  0.3         65.0106623 ]
 [  0.4        -35.27715369]
 [  0.5        -49.20910009]
 [  0.6         90.62348649]
 [  0.7        -62.79963136]
 [  0.8         41.66095929]
 [  0.9         -9.40303164]
 [  1.         -11.98915311]
 [  1.09391667  86.33383712]]","[[0.         1.53749115]
 [0.1        1.12105385]
 [0.2        1.21050577]
 [0.3        1.39038364]
 [0.4        0.59533856]
 [0.5        0.92189242]
 [0.6        1.12293969]
 [0.7        0.08212217]
 [0.8        0.24893909]
 [0.9        0.97640661]
 [1.         1.76885677]
 [1.09391667 1.97400425]]",1,0.183
8782735929,f,25,english,5,4,french,2024-02-13 10:39:26.615494,False,1,98,sounds\english\audio/english_919.wav,"[[  0.         -38.5670272 ]
 [  0.1          2.77922896]
 [  0.2         49.85197562]
 [  0.3         77.76044208]
 [  0.4        -29.8394914 ]
 [  0.5         -0.49098681]
 [  0.6        -75.25398624]
 [  0.7        -69.6637691 ]
 [  0.8         72.91981936]
 [  0.9        -53.88815215]
 [  1.           0.89047902]
 [  1.09391667 -50.064946  ]]","[[0.         0.46903116]
 [0.1        1.08350321]
 [0.2        1.32793945]
 [0.3        0.31154992]
 [0.4        0.67118234]
 [0.5        0.74590894]
 [0.6        1.99224787]
 [0.7        0.78909547]
 [0.8        0.46679106]
 [0.9        0.60556238]
 [1.         0.47961855]
 [1.09391667 1.09390391]]",1,0.227
8782735929,f,25,english,5,4,french,2024-02-13 10:39:26.615494,False,1,99,sounds\english\audio/english_162.wav,"[[  0.          26.55716136]
 [  0.1         11.82804586]
 [  0.2        -23.9414726 ]
 [  0.3         -1.71566049]
 [  0.4        -19.44382046]
 [  0.5         -4.89650776]
 [  0.6        -86.90887997]
 [  0.7         -2.56378327]
 [  0.8          6.4232906 ]
 [  0.9         85.15737342]
 [  1.          86.70536365]
 [  1.09391667  85.58259912]]","[[0.         1.5554451 ]
 [0.1        0.73276272]
 [0.2        1.80328422]
 [0.3        0.92347316]
 [0.4        0.80698984]
 [0.5        1.82055232]
 [0.6        1.9917578 ]
 [0.7        0.80582965]
 [0.8        1.51404022]
 [0.9        0.66169756]
 [1.         0.35533471]
 [1.09391667 1.22719758]]",1,0.617
8782735929,f,25,english,5,4,french,2024-02-13 10:39:26.615494,False,1,100,sounds\english\audio/english_976.wav,"[[  0.          -7.94823885]
 [  0.1         96.34184584]
 [  0.2        -33.68410723]
 [  0.3         71.00734619]
 [  0.4        -73.42321757]
 [  0.5         68.14494718]
 [  0.6         72.66069131]
 [  0.7        -46.1327141 ]
 [  0.8        -13.93014286]
 [  0.9         53.41967838]
 [  1.         -12.62377888]
 [  1.09391667  -9.46767518]]","[[0.         1.93996979]
 [0.1        0.68967214]
 [0.2        1.52037239]
 [0.3        0.92144072]
 [0.4        1.16805043]
 [0.5        0.75881772]
 [0.6        0.99023479]
 [0.7        1.21750342]
 [0.8        1.7476055 ]
 [0.9        1.87214478]
 [1.         0.1004517 ]
 [1.09391667 1.64660027]]",1,0.304
8782735929,f,25,english,5,4,french,2024-02-13 10:39:26.615494,False,1,101,sounds\english\audio/english_947.wav,"[[  0.          30.31601864]
 [  0.1        -75.95641423]
 [  0.2         54.94521645]
 [  0.3         26.24562162]
 [  0.4         54.40237068]
 [  0.5         40.82679184]
 [  0.6         77.31299723]
 [  0.7          1.15315344]
 [  0.8         73.19645095]
 [  0.9          6.20643858]
 [  1.          28.66234598]
 [  1.09391667   7.34981137]]","[[0.         1.90953585]
 [0.1        1.97785982]
 [0.2        0.82379025]
 [0.3        0.15379293]
 [0.4        1.01827888]
 [0.5        1.47839937]
 [0.6        1.20847868]
 [0.7        0.14564675]
 [0.8        0.87070751]
 [0.9        0.13653501]
 [1.         0.34449422]
 [1.09391667 1.34190112]]",0,0.302
8782735929,f,25,english,5,4,french,2024-02-13 10:39:26.615494,False,1,102,sounds\english\audio/english_877.wav,"[[  0.         -79.4269128 ]
 [  0.1        -42.40916555]
 [  0.2         84.72383025]
 [  0.3        -35.54848219]
 [  0.4        -35.20052766]
 [  0.5         57.63879902]
 [  0.6        -50.34738089]
 [  0.7         35.50935182]
 [  0.8        -13.54053645]
 [  0.9         38.29355396]
 [  1.         -90.75099287]
 [  1.09391667  11.78460722]]","[[0.         0.17316108]
 [0.1        0.86989438]
 [0.2        1.02258728]
 [0.3        0.92677034]
 [0.4        0.70533019]
 [0.5        1.77292228]
 [0.6        1.28323574]
 [0.7        1.91968405]
 [0.8        1.52549813]
 [0.9        1.27055267]
 [1.         0.7500836 ]
 [1.09391667 0.69644161]]",1,0.589
8782735929,f,25,english,5,4,french,2024-02-13 10:39:26.615494,False,1,103,sounds\english\audio/english_593.wav,"[[  0.          13.70313969]
 [  0.1        -26.02533881]
 [  0.2         50.8702686 ]
 [  0.3         26.063803  ]
 [  0.4        -79.95092445]
 [  0.5        -94.01020979]
 [  0.6        -33.71882566]
 [  0.7        -16.71092424]
 [  0.8        -31.84366891]
 [  0.9        -64.24810633]
 [  1.          73.5130108 ]
 [  1.09391667   1.16296444]]","[[0.         0.31776168]
 [0.1        1.39381701]
 [0.2        0.5191281 ]
 [0.3        0.69401342]
 [0.4        0.71717885]
 [0.5        0.74327862]
 [0.6        1.75165486]
 [0.7        0.78541269]
 [0.8        0.5067154 ]
 [0.9        1.19882101]
 [1.         0.30708851]
 [1.09391667 1.70447125]]",0,0.362
8782735929,f,25,english,5,4,french,2024-02-13 10:39:26.615494,False,1,104,sounds\english\audio/english_336.wav,"[[  0.          81.71607603]
 [  0.1        -15.78086785]
 [  0.2         23.7073003 ]
 [  0.3        -55.22954441]
 [  0.4        -82.40927831]
 [  0.5         18.45613874]
 [  0.6         -8.80089887]
 [  0.7         19.65234969]
 [  0.8         69.92960645]
 [  0.9         -8.61589223]
 [  1.          73.7587051 ]
 [  1.09391667  23.54589263]]","[[0.         0.24645368]
 [0.1        1.53225808]
 [0.2        0.72747831]
 [0.3        1.13985004]
 [0.4        1.08390501]
 [0.5        1.68458766]
 [0.6        0.21615576]
 [0.7        0.20974011]
 [0.8        0.419805  ]
 [0.9        0.51685969]
 [1.         1.09673706]
 [1.09391667 1.85023779]]",1,0.251
8782735929,f,25,english,5,4,french,2024-02-13 10:39:26.615494,False,1,105,sounds\english\audio/english_899.wav,"[[  0.          36.05043058]
 [  0.1         33.3197066 ]
 [  0.2        -89.01295916]
 [  0.3         98.52221139]
 [  0.4        -46.63657868]
 [  0.5        -65.65669191]
 [  0.6         76.90163594]
 [  0.7         36.98286823]
 [  0.8         58.54417199]
 [  0.9         37.91895182]
 [  1.         -84.2401269 ]
 [  1.09391667  -3.10665722]]","[[0.         0.90588284]
 [0.1        1.60760833]
 [0.2        1.45467369]
 [0.3        0.4019209 ]
 [0.4        1.10920818]
 [0.5        1.04007942]
 [0.6        0.20562094]
 [0.7        0.26673383]
 [0.8        0.17186704]
 [0.9        1.28815156]
 [1.         0.03412997]
 [1.09391667 1.51688145]]",0,0.38
8782735929,f,25,english,5,4,french,2024-02-13 10:39:26.615494,False,1,106,sounds\english\audio/english_140.wav,"[[  0.           3.17682923]
 [  0.1          6.35877152]
 [  0.2         -9.02165969]
 [  0.3        -36.47269085]
 [  0.4        -72.32699921]
 [  0.5        -28.69942826]
 [  0.6         68.422362  ]
 [  0.7        -32.97741766]
 [  0.8        -98.50350873]
 [  0.9          4.47546112]
 [  1.         -70.93750026]
 [  1.09391667  36.42764636]]","[[0.         0.87887046]
 [0.1        0.507187  ]
 [0.2        0.30654511]
 [0.3        0.61695793]
 [0.4        1.67577575]
 [0.5        0.30689604]
 [0.6        1.73923813]
 [0.7        1.33940979]
 [0.8        1.86246524]
 [0.9        0.68629119]
 [1.         1.82050493]
 [1.09391667 1.04858085]]",1,1.636
8782735929,f,25,english,5,4,french,2024-02-13 10:39:26.615494,False,1,107,sounds\english\audio/english_750.wav,"[[  0.         -25.16303224]
 [  0.1        -14.02768866]
 [  0.2         69.31394604]
 [  0.3         90.85453111]
 [  0.4        -11.11189664]
 [  0.5         99.7192225 ]
 [  0.6         59.23899804]
 [  0.7         61.96409814]
 [  0.8         86.60257641]
 [  0.9         26.97835103]
 [  1.         -29.13235822]
 [  1.09391667 -49.9357994 ]]","[[0.         0.86862278]
 [0.1        0.53645709]
 [0.2        1.09554837]
 [0.3        0.97960852]
 [0.4        1.14883971]
 [0.5        0.16341609]
 [0.6        1.34227106]
 [0.7        1.64659331]
 [0.8        0.80940412]
 [0.9        1.55602713]
 [1.         0.0040181 ]
 [1.09391667 1.03656175]]",0,0.252
8782735929,f,25,english,5,4,french,2024-02-13 10:39:26.615494,False,1,108,sounds\english\audio/english_899.wav,"[[  0.          36.05043058]
 [  0.1         33.3197066 ]
 [  0.2        -89.01295916]
 [  0.3         98.52221139]
 [  0.4        -46.63657868]
 [  0.5        -65.65669191]
 [  0.6         76.90163594]
 [  0.7         36.98286823]
 [  0.8         58.54417199]
 [  0.9         37.91895182]
 [  1.         -84.2401269 ]
 [  1.09391667  -3.10665722]]","[[0.         0.90588284]
 [0.1        1.60760833]
 [0.2        1.45467369]
 [0.3        0.4019209 ]
 [0.4        1.10920818]
 [0.5        1.04007942]
 [0.6        0.20562094]
 [0.7        0.26673383]
 [0.8        0.17186704]
 [0.9        1.28815156]
 [1.         0.03412997]
 [1.09391667 1.51688145]]",1,0.212
8782735929,f,25,english,5,4,french,2024-02-13 10:39:26.615494,False,1,109,sounds\english\audio/english_982.wav,"[[  0.          69.76944056]
 [  0.1        -42.93548761]
 [  0.2         36.82283162]
 [  0.3         32.72805269]
 [  0.4         59.91100813]
 [  0.5        -67.75715394]
 [  0.6        -89.50145132]
 [  0.7        -26.70280059]
 [  0.8         64.77389449]
 [  0.9        -30.11635891]
 [  1.         -16.70024332]
 [  1.09391667  69.17887886]]","[[0.         0.99276477]
 [0.1        1.13394656]
 [0.2        0.8882043 ]
 [0.3        0.48588646]
 [0.4        0.19309887]
 [0.5        0.28513591]
 [0.6        0.07898736]
 [0.7        0.13233941]
 [0.8        0.72291483]
 [0.9        0.45053492]
 [1.         0.51435491]
 [1.09391667 0.97661721]]",0,0.211
8782735929,f,25,english,5,4,french,2024-02-13 10:39:26.615494,False,1,110,sounds\english\audio/english_895.wav,"[[  0.         -68.00198949]
 [  0.1        -51.96003104]
 [  0.2        -27.5678987 ]
 [  0.3          1.37769692]
 [  0.4        -19.54713895]
 [  0.5         32.4870356 ]
 [  0.6         73.95431589]
 [  0.7        -60.0683904 ]
 [  0.8        -32.74215808]
 [  0.9        -18.7791301 ]
 [  1.           4.0520504 ]
 [  1.09391667  54.70777064]]","[[0.         0.4596857 ]
 [0.1        1.9086695 ]
 [0.2        1.58013593]
 [0.3        1.02012083]
 [0.4        0.3764367 ]
 [0.5        0.56957954]
 [0.6        0.55471434]
 [0.7        1.19362941]
 [0.8        1.07008524]
 [0.9        0.94538114]
 [1.         0.21197649]
 [1.09391667 1.70514148]]",1,0.071
8782735929,f,25,english,5,4,french,2024-02-13 10:39:26.615494,False,1,111,sounds\english\audio/english_557.wav,"[[  0.         -36.00437951]
 [  0.1        -36.18192477]
 [  0.2        -76.46214854]
 [  0.3         -9.78546514]
 [  0.4        -53.27937245]
 [  0.5         14.69737181]
 [  0.6        -76.22217722]
 [  0.7         76.26393568]
 [  0.8        -62.02007028]
 [  0.9         73.18804903]
 [  1.          75.91755358]
 [  1.09391667 -37.39944408]]","[[0.         0.86268568]
 [0.1        0.78818346]
 [0.2        0.88104775]
 [0.3        0.51957323]
 [0.4        1.84624381]
 [0.5        0.53524469]
 [0.6        0.83895898]
 [0.7        0.4548877 ]
 [0.8        1.59917341]
 [0.9        0.63690232]
 [1.         1.04600017]
 [1.09391667 0.42796411]]",0,0.083
8782735929,f,25,english,5,4,french,2024-02-13 10:39:26.615494,False,1,112,sounds\english\audio/english_405.wav,"[[  0.         -78.42073653]
 [  0.1        -24.61205512]
 [  0.2        -11.84314917]
 [  0.3        -70.6403769 ]
 [  0.4        -46.85191634]
 [  0.5        -71.06093943]
 [  0.6         30.63391912]
 [  0.7        -74.22566174]
 [  0.8          7.48787405]
 [  0.9        -46.20513682]
 [  1.          49.04599402]
 [  1.09391667  -4.00470975]]","[[0.         1.26555168]
 [0.1        0.89640123]
 [0.2        0.55951574]
 [0.3        0.41074213]
 [0.4        0.16739124]
 [0.5        0.840879  ]
 [0.6        1.64487685]
 [0.7        0.4477739 ]
 [0.8        0.39629761]
 [0.9        1.07902243]
 [1.         1.30068101]
 [1.09391667 1.72481408]]",1,0.625
8782735929,f,25,english,5,4,french,2024-02-13 10:39:26.615494,False,1,113,sounds\english\audio/english_872.wav,"[[  0.          -4.42672904]
 [  0.1        -45.54953548]
 [  0.2         61.94236328]
 [  0.3         -6.76881519]
 [  0.4         70.60925321]
 [  0.5         61.83462206]
 [  0.6         80.97898291]
 [  0.7         85.22540412]
 [  0.8          0.99054443]
 [  0.9          4.65362218]
 [  1.         -50.74375514]
 [  1.09391667 -72.71002663]]","[[0.         1.38946162]
 [0.1        1.85362479]
 [0.2        1.40120351]
 [0.3        0.73681545]
 [0.4        1.34579028]
 [0.5        0.03433947]
 [0.6        0.00901878]
 [0.7        0.90232531]
 [0.8        1.1650967 ]
 [0.9        1.94757047]
 [1.         1.11012852]
 [1.09391667 1.91238116]]",0,0.308
8782735929,f,25,english,5,4,french,2024-02-13 10:39:26.615494,False,1,114,sounds\english\audio/english_794.wav,"[[  0.         -94.32956865]
 [  0.1        -54.44529308]
 [  0.2         41.27752313]
 [  0.3        -24.41011935]
 [  0.4        -17.86009113]
 [  0.5         70.96620098]
 [  0.6         -6.92588192]
 [  0.7          1.86567935]
 [  0.8         85.29780195]
 [  0.9         66.99714839]
 [  1.          34.72052642]
 [  1.09391667  18.1862992 ]]","[[0.         0.17232345]
 [0.1        0.63768668]
 [0.2        0.54334699]
 [0.3        0.41814183]
 [0.4        0.83205575]
 [0.5        1.38587001]
 [0.6        0.50257762]
 [0.7        1.6396819 ]
 [0.8        1.19491374]
 [0.9        0.22376499]
 [1.         0.81945326]
 [1.09391667 1.51337696]]",1,0.029
8782735929,f,25,english,5,4,french,2024-02-13 10:39:26.615494,False,1,115,sounds\english\audio/english_911.wav,"[[  0.          97.74431138]
 [  0.1         63.25353714]
 [  0.2         31.76873058]
 [  0.3        -80.65515271]
 [  0.4         87.72308134]
 [  0.5        -43.90030619]
 [  0.6        -96.43392939]
 [  0.7        -95.09691132]
 [  0.8          7.77484736]
 [  0.9         12.16907111]
 [  1.          33.87787458]
 [  1.09391667  10.13841493]]","[[0.         1.45295226]
 [0.1        0.52934156]
 [0.2        1.12978313]
 [0.3        0.46492479]
 [0.4        1.65576631]
 [0.5        0.95301179]
 [0.6        1.98033305]
 [0.7        0.56650122]
 [0.8        1.59543029]
 [0.9        1.97260423]
 [1.         1.68149339]
 [1.09391667 1.03055348]]",0,0.185
8782735929,f,25,english,5,4,french,2024-02-13 10:39:26.615494,False,1,116,sounds\english\audio/english_40.wav,"[[  0.          48.02478729]
 [  0.1        -63.01746301]
 [  0.2         99.88373943]
 [  0.3        -35.62748252]
 [  0.4         22.54548674]
 [  0.5         64.17300345]
 [  0.6        -98.43334374]
 [  0.7        -29.30341943]
 [  0.8        -86.78861614]
 [  0.9        -30.45625268]
 [  1.         -71.34202466]
 [  1.09391667 -99.87345526]]","[[0.         1.95808972]
 [0.1        0.59596382]
 [0.2        1.52240022]
 [0.3        1.96915834]
 [0.4        0.95314863]
 [0.5        0.51463989]
 [0.6        0.71558666]
 [0.7        1.3085379 ]
 [0.8        0.72652205]
 [0.9        0.70559874]
 [1.         1.16093561]
 [1.09391667 1.23446985]]",1,0.1
8782735929,f,25,english,5,4,french,2024-02-13 10:39:26.615494,False,1,117,sounds\english\audio/english_825.wav,"[[  0.          64.76464638]
 [  0.1        -51.3470416 ]
 [  0.2          9.90918002]
 [  0.3         63.24486906]
 [  0.4        -95.411726  ]
 [  0.5         17.77962704]
 [  0.6         23.26529379]
 [  0.7         37.62422032]
 [  0.8        -26.41359823]
 [  0.9        -38.32396509]
 [  1.          63.21192295]
 [  1.09391667 -24.29267242]]","[[0.         1.23145085]
 [0.1        0.79492421]
 [0.2        0.48314333]
 [0.3        0.28861919]
 [0.4        1.05525194]
 [0.5        1.51076591]
 [0.6        1.04212622]
 [0.7        0.64232838]
 [0.8        1.11700907]
 [0.9        1.02326758]
 [1.         0.3631898 ]
 [1.09391667 1.01931794]]",0,0.132
8782735929,f,25,english,5,4,french,2024-02-13 10:39:26.615494,False,1,118,sounds\english\audio/english_320.wav,"[[  0.          44.47796626]
 [  0.1         72.35684443]
 [  0.2        -17.68947707]
 [  0.3         70.79565504]
 [  0.4        -42.99608759]
 [  0.5         31.43453027]
 [  0.6        -18.00256732]
 [  0.7         43.1706274 ]
 [  0.8        -37.59278076]
 [  0.9          7.82795904]
 [  1.          39.02364152]
 [  1.09391667 -63.74950888]]","[[0.         1.16365892]
 [0.1        1.32074679]
 [0.2        0.98723075]
 [0.3        1.34736881]
 [0.4        1.9395238 ]
 [0.5        1.00857384]
 [0.6        0.72649141]
 [0.7        0.12011257]
 [0.8        0.44120338]
 [0.9        0.10933434]
 [1.         0.34432793]
 [1.09391667 1.78306962]]",1,0.238
8782735929,f,25,english,5,4,french,2024-02-13 10:39:26.615494,False,1,119,sounds\english\audio/english_206.wav,"[[  0.         -99.12855739]
 [  0.1        -89.51576504]
 [  0.2        -90.40464902]
 [  0.3        -70.32755561]
 [  0.4         78.03699917]
 [  0.5          8.07565508]
 [  0.6         38.18456427]
 [  0.7        -75.53493724]
 [  0.8         54.10683872]
 [  0.9        -40.64897969]
 [  1.          -1.29434589]
 [  1.09391667  55.83604692]]","[[0.         1.20636597]
 [0.1        0.87803278]
 [0.2        1.07282405]
 [0.3        1.36131617]
 [0.4        0.62923097]
 [0.5        1.02359746]
 [0.6        0.86752629]
 [0.7        1.35404338]
 [0.8        1.4732865 ]
 [0.9        0.47250575]
 [1.         1.31829488]
 [1.09391667 0.97831941]]",1,0.351
8782735929,f,25,english,5,4,french,2024-02-13 10:39:26.615494,False,1,120,sounds\english\audio/english_311.wav,"[[  0.          64.66080996]
 [  0.1        -69.02575999]
 [  0.2        -67.68739859]
 [  0.3         44.13725608]
 [  0.4         93.17105676]
 [  0.5         84.82973528]
 [  0.6        -34.91706274]
 [  0.7        -93.26420788]
 [  0.8         78.86658017]
 [  0.9        -56.88823021]
 [  1.          16.33779759]
 [  1.09391667  54.14062415]]","[[0.         0.82460416]
 [0.1        0.36483522]
 [0.2        0.7494254 ]
 [0.3        0.5130867 ]
 [0.4        0.37208425]
 [0.5        1.19695655]
 [0.6        0.97358849]
 [0.7        1.42777336]
 [0.8        1.14684196]
 [0.9        0.88829321]
 [1.         0.74783525]
 [1.09391667 1.42501308]]",0,0.078
8782735929,f,25,english,5,4,french,2024-02-13 10:39:26.615494,False,1,121,sounds\english\audio/english_759.wav,"[[  0.         -17.33169853]
 [  0.1         46.34111356]
 [  0.2        -71.7209183 ]
 [  0.3        -52.63168455]
 [  0.4        -68.41292565]
 [  0.5          0.91746702]
 [  0.6         12.19475856]
 [  0.7         76.90509926]
 [  0.8         46.23586418]
 [  0.9         20.85455152]
 [  1.         -48.8693925 ]
 [  1.09391667  -3.22971396]]","[[0.         1.81535326]
 [0.1        1.35139774]
 [0.2        0.5699054 ]
 [0.3        1.64756314]
 [0.4        0.90731091]
 [0.5        0.92295566]
 [0.6        0.56476821]
 [0.7        1.11964502]
 [0.8        0.03868528]
 [0.9        0.66706937]
 [1.         1.91928995]
 [1.09391667 0.4347557 ]]",1,0.127
8782735929,f,25,english,5,4,french,2024-02-13 10:39:26.615494,False,1,122,sounds\english\audio/english_601.wav,"[[  0.         -27.72780098]
 [  0.1         51.56349227]
 [  0.2        -30.24590837]
 [  0.3        -73.97880656]
 [  0.4         -2.25523595]
 [  0.5        -30.15739329]
 [  0.6        -26.45428241]
 [  0.7        -98.06133759]
 [  0.8          5.27582611]
 [  0.9         81.45966426]
 [  1.          21.92696124]
 [  1.09391667 -86.33242355]]","[[0.         0.09196254]
 [0.1        1.85324858]
 [0.2        0.5611499 ]
 [0.3        0.48638388]
 [0.4        0.72682426]
 [0.5        0.02882605]
 [0.6        0.44853458]
 [0.7        1.63868559]
 [0.8        1.86240344]
 [0.9        0.90381109]
 [1.         1.07749357]
 [1.09391667 0.98518899]]",0,0.053
8782735929,f,25,english,5,4,french,2024-02-13 10:39:26.615494,False,1,123,sounds\english\audio/english_191.wav,"[[  0.         -24.02277358]
 [  0.1         63.4439463 ]
 [  0.2        -22.47731103]
 [  0.3         -9.99025732]
 [  0.4         58.56180387]
 [  0.5         62.8001027 ]
 [  0.6         15.39253294]
 [  0.7         56.82172684]
 [  0.8        -77.92272587]
 [  0.9        -72.7474465 ]
 [  1.         -73.86130367]
 [  1.09391667 -78.65780479]]","[[0.         1.0914461 ]
 [0.1        0.33098092]
 [0.2        1.86196051]
 [0.3        0.09450542]
 [0.4        1.1158369 ]
 [0.5        0.90347235]
 [0.6        1.55895669]
 [0.7        1.11486536]
 [0.8        0.70296155]
 [0.9        1.56868029]
 [1.         1.33347033]
 [1.09391667 1.27370222]]",0,0.049
8782735929,f,25,english,5,4,french,2024-02-13 10:39:26.615494,False,1,124,sounds\english\audio/english_575.wav,"[[  0.         -28.55246959]
 [  0.1        -59.77879939]
 [  0.2          2.26003832]
 [  0.3        -92.4918711 ]
 [  0.4          9.61640334]
 [  0.5         41.99109137]
 [  0.6        -61.89931175]
 [  0.7        -44.26761436]
 [  0.8         64.04805114]
 [  0.9         -1.378942  ]
 [  1.          15.99079472]
 [  1.09391667 -36.72459502]]","[[0.         0.34827421]
 [0.1        1.97158185]
 [0.2        1.72673863]
 [0.3        1.89863573]
 [0.4        0.88005593]
 [0.5        0.43110597]
 [0.6        0.53238875]
 [0.7        1.80705755]
 [0.8        0.17311477]
 [0.9        0.39040882]
 [1.         1.45544499]
 [1.09391667 0.54722728]]",1,0.02
8782735929,f,25,english,5,4,french,2024-02-13 10:39:26.615494,False,1,125,sounds\english\audio/english_881.wav,"[[  0.          -6.48543923]
 [  0.1         52.42470042]
 [  0.2         27.22865134]
 [  0.3        -26.12053543]
 [  0.4         80.9200248 ]
 [  0.5         91.13618142]
 [  0.6         72.82749112]
 [  0.7          4.61309193]
 [  0.8          6.14992629]
 [  0.9        -73.40306534]
 [  1.         -18.81910787]
 [  1.09391667 -70.65652208]]","[[0.         0.68458474]
 [0.1        1.23345655]
 [0.2        1.03441451]
 [0.3        0.51926044]
 [0.4        1.84993398]
 [0.5        0.2782437 ]
 [0.6        1.43037542]
 [0.7        1.82353332]
 [0.8        1.39771107]
 [0.9        0.81234613]
 [1.         0.47215555]
 [1.09391667 1.77841719]]",0,0.144
8782735929,f,25,english,5,4,french,2024-02-13 10:39:26.615494,False,1,126,sounds\english\audio/english_763.wav,"[[  0.          -3.64613535]
 [  0.1         86.84394447]
 [  0.2         48.90447279]
 [  0.3         81.52724945]
 [  0.4         38.37028175]
 [  0.5         -1.05640966]
 [  0.6         92.75218552]
 [  0.7         25.6384544 ]
 [  0.8         39.31857394]
 [  0.9        -39.8545052 ]
 [  1.         -46.14237673]
 [  1.09391667   4.92972848]]","[[0.         1.37294904]
 [0.1        1.4753173 ]
 [0.2        1.11933896]
 [0.3        0.74342717]
 [0.4        1.29789975]
 [0.5        0.71005602]
 [0.6        1.1127111 ]
 [0.7        0.88036435]
 [0.8        0.01207507]
 [0.9        1.55647861]
 [1.         1.32252767]
 [1.09391667 1.12126405]]",1,0.275
8782735929,f,25,english,5,4,french,2024-02-13 10:39:26.615494,False,1,127,sounds\english\audio/english_43.wav,"[[  0.          35.0853305 ]
 [  0.1        -82.31052455]
 [  0.2        -87.01844832]
 [  0.3         35.19386066]
 [  0.4         -6.50663416]
 [  0.5        -43.93611532]
 [  0.6        -73.49805581]
 [  0.7         65.62731204]
 [  0.8        -40.13292878]
 [  0.9        -82.04161205]
 [  1.          51.94207196]
 [  1.09391667 -30.06023569]]","[[0.         0.26027887]
 [0.1        0.68956967]
 [0.2        1.59168544]
 [0.3        0.50064201]
 [0.4        1.69386915]
 [0.5        1.13933047]
 [0.6        1.51065435]
 [0.7        0.46562499]
 [0.8        1.37756628]
 [0.9        0.8121578 ]
 [1.         0.36046396]
 [1.09391667 0.31346917]]",1,0.525
8782735929,f,25,english,5,4,french,2024-02-13 10:39:26.615494,False,1,128,sounds\english\audio/english_690.wav,"[[  0.          17.55747423]
 [  0.1         23.93305712]
 [  0.2         64.00076059]
 [  0.3        -94.30848537]
 [  0.4          6.99210774]
 [  0.5         85.90585052]
 [  0.6         87.05779363]
 [  0.7        -33.56142867]
 [  0.8          3.23139144]
 [  0.9        -81.40386669]
 [  1.         -73.94182177]
 [  1.09391667  93.27821127]]","[[0.         0.76835561]
 [0.1        0.92260391]
