subj,sex,age,language,english,french,native_lang,date,practice,block,trial,stim,pitch,stretch,response,rt
8734529389,f,24,english,5,4,english,2024-02-01 10:33:19.008934,True,0,0,sounds\english\audio/english_781.wav,"[[  0.          13.49860993]
 [  0.1         78.16193023]
 [  0.2         43.40540276]
 [  0.3         44.39381188]
 [  0.4          1.19618008]
 [  0.5         97.39796145]
 [  0.6        -80.74515196]
 [  0.7         24.03355654]
 [  0.8        -69.35175607]
 [  0.9         69.20236756]
 [  1.          35.51398516]
 [  1.09391667 -53.23346631]]","[[0.         0.0422445 ]
 [0.1        0.76912714]
 [0.2        1.16484067]
 [0.3        0.51341231]
 [0.4        0.61057315]
 [0.5        1.22595164]
 [0.6        0.0959771 ]
 [0.7        0.86869214]
 [0.8        1.17997392]
 [0.9        1.93834455]
 [1.         0.60620459]
 [1.09391667 1.46133915]]",0,5.309
8734529389,f,24,english,5,4,english,2024-02-01 10:33:19.008934,True,0,1,sounds\english\audio/english_198.wav,"[[  0.          51.36253455]
 [  0.1         -1.79808666]
 [  0.2        -53.25635357]
 [  0.3         92.04905147]
 [  0.4        -90.57518695]
 [  0.5         60.37120744]
 [  0.6        -93.94505953]
 [  0.7          1.88310477]
 [  0.8        -23.01531969]
 [  0.9        -70.16036682]
 [  1.         -26.79565184]
 [  1.09391667  30.40332279]]","[[0.         0.9480924 ]
 [0.1        1.89932886]
 [0.2        1.74507587]
 [0.3        0.26533823]
 [0.4        0.16174051]
 [0.5        0.96723602]
 [0.6        1.36968268]
 [0.7        0.12063159]
 [0.8        1.46254302]
 [0.9        1.09212546]
 [1.         1.75188749]
 [1.09391667 1.41042335]]",1,0.778
8734529389,f,24,english,5,4,english,2024-02-01 10:33:19.008934,True,0,2,sounds\english\audio/english_581.wav,"[[  0.          73.66932606]
 [  0.1        -66.94779644]
 [  0.2         17.54153331]
 [  0.3        -33.4804178 ]
 [  0.4        -75.87348007]
 [  0.5        -19.3699166 ]
 [  0.6         44.64649322]
 [  0.7         49.72085551]
 [  0.8        -60.52101801]
 [  0.9        -63.98249467]
 [  1.         -38.32664081]
 [  1.09391667  93.53202253]]","[[0.         1.55016183]
 [0.1        0.89838662]
 [0.2        0.42808685]
 [0.3        0.92207517]
 [0.4        0.40201435]
 [0.5        0.78725452]
 [0.6        0.99552959]
 [0.7        1.64481575]
 [0.8        1.59282789]
 [0.9        0.98679066]
 [1.         1.29384626]
 [1.09391667 1.70769846]]",1,0.505
8734529389,f,24,english,5,4,english,2024-02-01 10:33:19.008934,False,1,3,sounds\english\audio/english_335.wav,"[[  0.          41.80743468]
 [  0.1        -95.17376615]
 [  0.2         39.98208272]
 [  0.3        -46.35703256]
 [  0.4         24.82145544]
 [  0.5        -31.00133873]
 [  0.6        -26.38344945]
 [  0.7         86.60347   ]
 [  0.8        -70.37080157]
 [  0.9         61.18063824]
 [  1.         -30.21404124]
 [  1.09391667 -36.90555067]]","[[0.         1.01381682]
 [0.1        1.5620604 ]
 [0.2        0.19265383]
 [0.3        1.42247653]
 [0.4        0.70328136]
 [0.5        1.01966488]
 [0.6        1.23451824]
 [0.7        0.55082158]
 [0.8        0.451758  ]
 [0.9        0.68398752]
 [1.         0.79476381]
 [1.09391667 1.69556673]]",0,1.343
8734529389,f,24,english,5,4,english,2024-02-01 10:33:19.008934,False,1,4,sounds\english\audio/english_702.wav,"[[  0.          -2.41900738]
 [  0.1        -65.10936104]
 [  0.2        -27.82316235]
 [  0.3         41.61212407]
 [  0.4        -37.59716444]
 [  0.5         84.73262552]
 [  0.6         34.73400205]
 [  0.7        -30.1082561 ]
 [  0.8        -63.0729989 ]
 [  0.9        -90.77732933]
 [  1.          -4.9487879 ]
 [  1.09391667 -47.54503703]]","[[0.         1.81607637]
 [0.1        1.79791742]
 [0.2        1.28936134]
 [0.3        1.13263155]
 [0.4        0.61084433]
 [0.5        1.50612828]
 [0.6        1.99649644]
 [0.7        0.56234564]
 [0.8        0.4625337 ]
 [0.9        0.98197063]
 [1.         0.31924939]
 [1.09391667 0.55890029]]",1,0.423
8734529389,f,24,english,5,4,english,2024-02-01 10:33:19.008934,False,1,5,sounds\english\audio/english_696.wav,"[[  0.          80.76263908]
 [  0.1        -81.05122768]
 [  0.2         25.61500263]
 [  0.3         25.88663843]
 [  0.4        -95.94910221]
 [  0.5        -72.42601444]
 [  0.6         24.16177071]
 [  0.7         64.95279218]
 [  0.8         52.94859059]
 [  0.9        -62.75879423]
 [  1.          30.29085573]
 [  1.09391667  95.60067697]]","[[0.         0.91509798]
 [0.1        1.74478529]
 [0.2        0.26644886]
 [0.3        1.54651286]
 [0.4        0.7055337 ]
 [0.5        0.71467656]
 [0.6        0.57693313]
 [0.7        1.47925574]
 [0.8        0.57583693]
 [0.9        1.82750547]
 [1.         0.4690012 ]
 [1.09391667 1.32087167]]",0,0.86
8734529389,f,24,english,5,4,english,2024-02-01 10:33:19.008934,False,1,6,sounds\english\audio/english_94.wav,"[[  0.         -69.13613192]
 [  0.1        -53.91573564]
 [  0.2         88.54569891]
 [  0.3         47.91558238]
 [  0.4         46.13883045]
 [  0.5          0.71209955]
 [  0.6         53.89774049]
 [  0.7         37.22112319]
 [  0.8          8.13348347]
 [  0.9        -10.35793642]
 [  1.          75.25647247]
 [  1.09391667 -70.34686187]]","[[0.         0.71683615]
 [0.1        1.64130178]
 [0.2        1.41561382]
 [0.3        0.72478091]
 [0.4        1.21480875]
 [0.5        0.13058063]
 [0.6        1.07607775]
 [0.7        0.10112022]
 [0.8        0.91343474]
 [0.9        0.77751528]
 [1.         0.57088528]
 [1.09391667 0.98841109]]",1,0.271
8734529389,f,24,english,5,4,english,2024-02-01 10:33:19.008934,False,1,7,sounds\english\audio/english_688.wav,"[[  0.         -29.94010546]
 [  0.1        -41.32005189]
 [  0.2         60.5114301 ]
 [  0.3        -11.57251233]
 [  0.4        -32.48909096]
 [  0.5         70.68045254]
 [  0.6        -93.57410751]
 [  0.7        -35.20217483]
 [  0.8        -56.48380795]
 [  0.9         29.31296217]
 [  1.         -66.64221323]
 [  1.09391667  61.92592934]]","[[0.         0.64779988]
 [0.1        0.86768487]
 [0.2        1.84873786]
 [0.3        1.12374148]
 [0.4        1.48328397]
 [0.5        0.61802845]
 [0.6        0.25217431]
 [0.7        0.64703385]
 [0.8        0.24929174]
 [0.9        0.36133188]
 [1.         0.49659231]
 [1.09391667 0.74443623]]",0,0.423
8734529389,f,24,english,5,4,english,2024-02-01 10:33:19.008934,False,1,8,sounds\english\audio/english_823.wav,"[[  0.         -70.10603849]
 [  0.1        -45.04517839]
 [  0.2        -42.2492944 ]
 [  0.3        -45.84544369]
 [  0.4         -4.98008302]
 [  0.5         20.34475247]
 [  0.6         84.8573305 ]
 [  0.7        -53.89632844]
 [  0.8        -37.28575357]
 [  0.9         13.94407457]
 [  1.          24.32776485]
 [  1.09391667  93.11083292]]","[[0.         1.91255795]
 [0.1        0.74599838]
 [0.2        1.31380905]
 [0.3        1.72599054]
 [0.4        1.26451187]
 [0.5        1.72804797]
 [0.6        0.52348254]
 [0.7        1.631088  ]
 [0.8        0.82823054]
 [0.9        0.05356388]
 [1.         1.39749703]
 [1.09391667 0.95992964]]",1,0.425
8734529389,f,24,english,5,4,english,2024-02-01 10:33:19.008934,False,1,9,sounds\english\audio/english_831.wav,"[[  0.         -21.16656573]
 [  0.1         29.76214341]
 [  0.2         61.45359844]
 [  0.3          6.67004895]
 [  0.4         26.70370751]
 [  0.5        -40.62935301]
 [  0.6         99.09256776]
 [  0.7         79.82257267]
 [  0.8         42.46181289]
 [  0.9          2.20427108]
 [  1.          64.59275416]
 [  1.09391667 -21.96543836]]","[[0.         0.86887876]
 [0.1        1.37629655]
 [0.2        0.63499907]
 [0.3        0.11279763]
 [0.4        0.87092561]
 [0.5        1.90700704]
 [0.6        0.52454597]
 [0.7        0.72073711]
 [0.8        0.80064374]
 [0.9        1.04408214]
 [1.         0.45079877]
 [1.09391667 1.2652147 ]]",0,0.301
8734529389,f,24,english,5,4,english,2024-02-01 10:33:19.008934,False,1,10,sounds\english\audio/english_583.wav,"[[  0.         -89.46926799]
 [  0.1        -21.95760647]
 [  0.2         51.54638902]
 [  0.3        -19.59460838]
 [  0.4        -80.65157181]
 [  0.5         13.46564549]
 [  0.6         -1.99224774]
 [  0.7         96.26030273]
 [  0.8        -75.70856073]
 [  0.9         40.78035579]
 [  1.           3.65984432]
 [  1.09391667 -26.98513255]]","[[0.         1.93205848]
 [0.1        0.52539253]
 [0.2        0.25359823]
 [0.3        0.46642282]
 [0.4        0.25879931]
 [0.5        0.54774352]
 [0.6        1.89783447]
 [0.7        0.46572744]
 [0.8        0.69184565]
 [0.9        1.20488206]
 [1.         1.22997803]
 [1.09391667 1.99403249]]",1,1.057
8734529389,f,24,english,5,4,english,2024-02-01 10:33:19.008934,False,1,11,sounds\english\audio/english_565.wav,"[[  0.          90.76087004]
 [  0.1         90.93114699]
 [  0.2        -32.37019607]
 [  0.3         77.30434891]
 [  0.4         -9.73234267]
 [  0.5        -83.24650182]
 [  0.6         21.51683352]
 [  0.7         88.66647516]
 [  0.8         21.52943084]
 [  0.9          0.60796245]
 [  1.           9.87605239]
 [  1.09391667  92.11409348]]","[[0.         0.64245812]
 [0.1        0.32525734]
 [0.2        1.091812  ]
 [0.3        0.92230791]
 [0.4        0.30031599]
 [0.5        0.39093775]
 [0.6        0.75549465]
 [0.7        1.68865449]
 [0.8        0.98033477]
 [0.9        1.75979764]
 [1.         1.41337712]
 [1.09391667 0.97633592]]",0,0.68
8734529389,f,24,english,5,4,english,2024-02-01 10:33:19.008934,False,1,12,sounds\english\audio/english_708.wav,"[[  0.          51.90512372]
 [  0.1         26.85875961]
 [  0.2         69.50769052]
 [  0.3          2.73798265]
 [  0.4         19.91752894]
 [  0.5         84.74462974]
 [  0.6         48.1433783 ]
 [  0.7         62.38973842]
 [  0.8        -28.25964696]
 [  0.9          1.39285788]
 [  1.         -27.01293378]
 [  1.09391667 -26.97031791]]","[[0.         0.68267885]
 [0.1        1.28009677]
 [0.2        0.67214969]
 [0.3        1.87173266]
 [0.4        1.28139012]
 [0.5        1.50975007]
 [0.6        0.29459019]
 [0.7        0.69646694]
 [0.8        0.8036912 ]
 [0.9        0.28906304]
 [1.         1.49505706]
 [1.09391667 1.88331259]]",1,0.119
8734529389,f,24,english,5,4,english,2024-02-01 10:33:19.008934,False,1,13,sounds\english\audio/english_152.wav,"[[  0.         -10.34550429]
 [  0.1        -43.66558153]
 [  0.2         56.2217474 ]
 [  0.3        -27.44048298]
 [  0.4         17.92439762]
 [  0.5         82.51468432]
 [  0.6          8.54715681]
 [  0.7        -94.9804546 ]
 [  0.8         43.42849193]
 [  0.9          1.5194414 ]
 [  1.          20.77451489]
 [  1.09391667  95.7342738 ]]","[[0.         1.84986994]
 [0.1        0.90615496]
 [0.2        0.59286193]
 [0.3        0.85505555]
 [0.4        0.56649727]
 [0.5        0.6043893 ]
 [0.6        1.72413787]
 [0.7        0.10144569]
 [0.8        1.50321153]
 [0.9        0.78421076]
 [1.         1.65129885]
 [1.09391667 1.8248214 ]]",0,0.103
8734529389,f,24,english,5,4,english,2024-02-01 10:33:19.008934,False,1,14,sounds\english\audio/english_493.wav,"[[  0.          -8.91567992]
 [  0.1         -2.81052192]
 [  0.2          0.93987988]
 [  0.3        -44.0664777 ]
 [  0.4         12.64172921]
 [  0.5         38.10396852]
 [  0.6         51.1275002 ]
 [  0.7        -51.72089694]
 [  0.8        -22.89469136]
 [  0.9         55.14015253]
 [  1.          69.89984763]
 [  1.09391667   7.83521283]]","[[0.         0.90906845]
 [0.1        1.82277729]
 [0.2        1.85575617]
 [0.3        0.198144  ]
 [0.4        0.31833397]
 [0.5        0.16370317]
 [0.6        0.48830507]
 [0.7        0.59724282]
 [0.8        0.45798431]
 [0.9        1.24461858]
 [1.         1.33195334]
 [1.09391667 1.92068406]]",1,0.093
8734529389,f,24,english,5,4,english,2024-02-01 10:33:19.008934,False,1,15,sounds\english\audio/english_90.wav,"[[  0.          63.54924995]
 [  0.1        -59.21327506]
 [  0.2         34.58495613]
 [  0.3          3.2427236 ]
 [  0.4          1.17936493]
 [  0.5         50.51297544]
 [  0.6         61.04656064]
 [  0.7        -96.36424089]
 [  0.8          9.94738881]
 [  0.9        -95.56108651]
 [  1.         -78.91453265]
 [  1.09391667  57.06664979]]","[[0.         1.34228215]
 [0.1        1.34732724]
 [0.2        1.75147993]
 [0.3        0.03089284]
 [0.4        1.52341973]
 [0.5        0.97925583]
 [0.6        1.17642538]
 [0.7        1.13367306]
 [0.8        1.45431282]
 [0.9        0.56738547]
 [1.         1.10123663]
 [1.09391667 0.76686745]]",1,0.225
8734529389,f,24,english,5,4,english,2024-02-01 10:33:19.008934,False,1,16,sounds\english\audio/english_167.wav,"[[  0.          24.63183347]
 [  0.1         13.73246145]
 [  0.2        -60.43880616]
 [  0.3          7.09789875]
 [  0.4        -33.19551678]
 [  0.5         95.64356753]
 [  0.6        -14.26788655]
 [  0.7         66.37452918]
 [  0.8         21.11990371]
 [  0.9         91.73440173]
 [  1.          98.54474933]
 [  1.09391667  47.66166762]]","[[0.         0.27443004]
 [0.1        1.84171745]
 [0.2        1.67288004]
 [0.3        0.06788145]
 [0.4        0.85380936]
 [0.5        0.74095746]
 [0.6        0.50118345]
 [0.7        0.34417323]
 [0.8        0.18827799]
 [0.9        1.5764248 ]
 [1.         1.57665407]
 [1.09391667 0.79567252]]",0,0.083
8734529389,f,24,english,5,4,english,2024-02-01 10:33:19.008934,False,1,17,sounds\english\audio/english_377.wav,"[[  0.          73.04653382]
 [  0.1         61.01214683]
 [  0.2        -82.4479578 ]
 [  0.3         -6.35059144]
 [  0.4         58.86113959]
 [  0.5         19.19354738]
 [  0.6        -31.09076765]
 [  0.7        -78.80759367]
 [  0.8         40.88540154]
 [  0.9          2.78755214]
 [  1.         -65.38807899]
 [  1.09391667  58.80108337]]","[[0.         1.47836601]
 [0.1        1.01623989]
 [0.2        1.48528015]
 [0.3        0.37422398]
 [0.4        0.85864758]
 [0.5        0.94448051]
 [0.6        1.48225941]
 [0.7        0.12460905]
 [0.8        0.28155513]
 [0.9        0.51707897]
 [1.         0.25575056]
 [1.09391667 0.70835394]]",1,0.54
8734529389,f,24,english,5,4,english,2024-02-01 10:33:19.008934,False,1,18,sounds\english\audio/english_910.wav,"[[  0.          93.46024718]
 [  0.1        -38.0106705 ]
 [  0.2        -30.70791106]
 [  0.3        -49.1070975 ]
 [  0.4         91.46247689]
 [  0.5         78.82386136]
 [  0.6         -6.45155929]
 [  0.7        -83.2103546 ]
 [  0.8        -83.88050829]
 [  0.9        -99.45548406]
 [  1.          66.97768693]
 [  1.09391667  38.56846955]]","[[0.         0.69074333]
 [0.1        0.32933862]
 [0.2        1.76708997]
 [0.3        0.49648564]
 [0.4        1.45285745]
 [0.5        1.00544929]
 [0.6        1.307348  ]
 [0.7        0.52979989]
 [0.8        1.11439341]
 [0.9        1.95169189]
 [1.         1.74620984]
 [1.09391667 0.09671244]]",0,0.366
8734529389,f,24,english,5,4,english,2024-02-01 10:33:19.008934,False,1,19,sounds\english\audio/english_421.wav,"[[  0.         -77.37875109]
 [  0.1         21.68470971]
 [  0.2         25.95594031]
 [  0.3        -54.56850785]
 [  0.4         24.0018444 ]
 [  0.5        -47.82681182]
 [  0.6        -46.58707105]
 [  0.7         77.25272005]
 [  0.8         77.76425926]
 [  0.9         25.41801762]
 [  1.          38.43952496]
 [  1.09391667  67.75811728]]","[[0.         0.40906671]
 [0.1        0.10764534]
 [0.2        0.09890733]
 [0.3        1.06704705]
 [0.4        0.2085299 ]
 [0.5        0.29426066]
 [0.6        1.5200041 ]
 [0.7        0.50765671]
 [0.8        0.03381604]
 [0.9        1.11402173]
 [1.         1.16253286]
 [1.09391667 1.4554509 ]]",0,0.173
8734529389,f,24,english,5,4,english,2024-02-01 10:33:19.008934,False,1,20,sounds\english\audio/english_589.wav,"[[  0.          69.60358053]
 [  0.1        -65.76586915]
 [  0.2         50.74096111]
 [  0.3        -96.7673569 ]
 [  0.4        -26.86757353]
 [  0.5        -10.06885571]
 [  0.6         63.05343757]
 [  0.7        -63.30132259]
 [  0.8        -47.99442538]
 [  0.9         57.19971628]
 [  1.         -48.99247717]
 [  1.09391667 -67.69648975]]","[[0.         1.2976065 ]
 [0.1        1.47951187]
 [0.2        1.3485394 ]
 [0.3        0.54528982]
 [0.4        1.27804734]
 [0.5        1.28037388]
 [0.6        0.75540581]
 [0.7        0.89000931]
 [0.8        0.42595149]
 [0.9        1.49547586]
 [1.         0.17298639]
 [1.09391667 0.58048161]]",0,0.173
8734529389,f,24,english,5,4,english,2024-02-01 10:33:19.008934,False,1,21,sounds\english\audio/english_626.wav,"[[  0.          -0.56370029]
 [  0.1        -99.91896683]
 [  0.2         71.91666298]
 [  0.3          5.93440056]
 [  0.4         30.6659702 ]
 [  0.5         50.2345252 ]
 [  0.6         26.80081253]
 [  0.7         57.01154581]
 [  0.8        -79.56021694]
 [  0.9         19.7734095 ]
 [  1.          24.01737707]
 [  1.09391667 -71.48633622]]","[[0.         1.601019  ]
 [0.1        1.02479774]
 [0.2        1.56428022]
 [0.3        1.41456241]
 [0.4        1.90457562]
 [0.5        1.04545234]
 [0.6        1.05575336]
 [0.7        1.40636518]
 [0.8        1.56161819]
 [0.9        0.61190755]
 [1.         0.77515613]
 [1.09391667 1.93548934]]",1,0.084
8734529389,f,24,english,5,4,english,2024-02-01 10:33:19.008934,False,1,22,sounds\english\audio/english_710.wav,"[[  0.         -39.30636168]
 [  0.1        -97.6674904 ]
 [  0.2         64.09122161]
 [  0.3         75.88571101]
 [  0.4        -88.52762731]
 [  0.5         82.62720899]
 [  0.6        -76.34366579]
 [  0.7         -8.69440278]
 [  0.8        -70.02409217]
 [  0.9         57.25294742]
 [  1.         -12.57900879]
 [  1.09391667  58.69693709]]","[[0.         1.80624949]
 [0.1        0.47182227]
 [0.2        0.70971527]
 [0.3        0.05116828]
 [0.4        1.76085876]
 [0.5        0.52858011]
 [0.6        0.11108823]
 [0.7        1.51710045]
 [0.8        1.27546604]
 [0.9        0.25600017]
 [1.         0.70194387]
 [1.09391667 0.08256398]]",0,0.542
8734529389,f,24,english,5,4,english,2024-02-01 10:33:19.008934,False,1,23,sounds\english\audio/english_727.wav,"[[  0.         -18.41371041]
 [  0.1        -63.10285802]
 [  0.2        -11.47868373]
 [  0.3         40.37675275]
 [  0.4        -77.12859483]
 [  0.5         92.73705719]
 [  0.6        -55.99534641]
 [  0.7        -55.52546335]
 [  0.8          6.97078157]
 [  0.9        -23.82740681]
 [  1.          16.85010217]
 [  1.09391667  12.17774436]]","[[0.         1.35764892]
 [0.1        1.30171306]
 [0.2        1.89832966]
 [0.3        1.96157356]
 [0.4        0.9069281 ]
 [0.5        1.12095366]
 [0.6        1.00983545]
 [0.7        0.3683737 ]
 [0.8        1.10707799]
 [0.9        1.05563912]
 [1.         1.15538622]
 [1.09391667 0.52815825]]",0,0.449
8734529389,f,24,english,5,4,english,2024-02-01 10:33:19.008934,False,1,24,sounds\english\audio/english_70.wav,"[[  0.          84.7445928 ]
 [  0.1        -17.05936153]
 [  0.2         48.77629579]
 [  0.3        -37.18095977]
 [  0.4         49.63064657]
 [  0.5        -62.82111716]
 [  0.6         35.10101602]
 [  0.7        -40.08264695]
 [  0.8         35.78231672]
 [  0.9        -49.57858266]
 [  1.         -49.37995814]
 [  1.09391667  20.96821744]]","[[0.         1.85159723]
 [0.1        0.49913073]
 [0.2        1.2524697 ]
 [0.3        1.90044367]
 [0.4        0.54300229]
 [0.5        1.34279252]
 [0.6        1.14641918]
 [0.7        0.66805918]
 [0.8        1.02673009]
 [0.9        1.60161004]
 [1.         1.69848543]
 [1.09391667 0.40967928]]",1,1.532
8734529389,f,24,english,5,4,english,2024-02-01 10:33:19.008934,False,1,25,sounds\english\audio/english_966.wav,"[[  0.         -96.91789055]
 [  0.1        -64.86850103]
 [  0.2        -43.92628472]
 [  0.3        -93.7136214 ]
 [  0.4        -57.14902712]
 [  0.5        -12.68506719]
 [  0.6        -15.43922669]
 [  0.7         24.10386484]
 [  0.8          3.35646026]
 [  0.9         88.24028536]
 [  1.         -32.39213993]
 [  1.09391667  -1.72411588]]","[[0.         1.23686614]
 [0.1        0.67188965]
 [0.2        0.33271907]
 [0.3        1.62713329]
 [0.4        1.49154652]
 [0.5        1.31520623]
 [0.6        0.20724492]
 [0.7        0.13137995]
 [0.8        1.15134967]
 [0.9        0.75921019]
 [1.         0.67670762]
 [1.09391667 1.22586656]]",0,0.334
8734529389,f,24,english,5,4,english,2024-02-01 10:33:19.008934,False,1,26,sounds\english\audio/english_698.wav,"[[  0.         -98.49976842]
 [  0.1         97.00885889]
 [  0.2         54.87082892]
 [  0.3        -24.25113459]
 [  0.4        -19.41361559]
 [  0.5         38.63477703]
 [  0.6        -31.74740997]
 [  0.7         75.16156156]
 [  0.8         41.06057046]
 [  0.9        -30.65402234]
 [  1.         -13.5987644 ]
 [  1.09391667 -10.25655958]]","[[0.         0.43179997]
 [0.1        1.41337894]
 [0.2        1.17184634]
 [0.3        0.60534302]
 [0.4        1.24831976]
 [0.5        1.39113252]
 [0.6        1.28562889]
 [0.7        1.10433052]
 [0.8        1.08053659]
 [0.9        1.52582563]
 [1.         0.95244876]
 [1.09391667 1.39681887]]",1,0.323
8734529389,f,24,english,5,4,english,2024-02-01 10:33:19.008934,False,1,27,sounds\english\audio/english_376.wav,"[[  0.         -22.52600132]
 [  0.1         29.36992487]
 [  0.2         26.35975313]
 [  0.3         22.46882007]
 [  0.4        -26.33536786]
 [  0.5        -27.32741376]
 [  0.6          4.49813396]
 [  0.7        -47.02321994]
 [  0.8        -61.17584125]
 [  0.9        -52.37587082]
 [  1.          53.16500273]
 [  1.09391667  31.59148057]]","[[0.         1.13600224]
 [0.1        0.82385101]
 [0.2        0.21812262]
 [0.3        1.22545345]
 [0.4        0.68217052]
 [0.5        1.80813558]
 [0.6        0.4048305 ]
 [0.7        1.72982043]
 [0.8        0.03977306]
 [0.9        0.16832119]
 [1.         1.81503166]
 [1.09391667 0.61812074]]",0,0.104
8734529389,f,24,english,5,4,english,2024-02-01 10:33:19.008934,False,1,28,sounds\english\audio/english_294.wav,"[[  0.         -35.26170476]
 [  0.1        -68.79847515]
 [  0.2         21.65443345]
 [  0.3         18.61336719]
 [  0.4         29.14118392]
 [  0.5         -0.79474297]
 [  0.6        -83.10715175]
 [  0.7        -22.63410673]
 [  0.8        -21.26415856]
 [  0.9         47.90727918]
 [  1.         -39.88232682]
 [  1.09391667 -74.09279353]]","[[0.         0.76895084]
 [0.1        0.42345848]
 [0.2        1.88759315]
 [0.3        0.20743541]
 [0.4        0.10193981]
 [0.5        0.31438326]
 [0.6        1.2995954 ]
 [0.7        1.94703728]
 [0.8        0.92366458]
 [0.9        1.04223302]
 [1.         1.01801331]
 [1.09391667 0.911147  ]]",1,0.018
8734529389,f,24,english,5,4,english,2024-02-01 10:33:19.008934,False,1,29,sounds\english\audio/english_130.wav,"[[  0.          63.22786083]
 [  0.1         87.85722404]
 [  0.2        -11.67996756]
 [  0.3        -61.23287213]
 [  0.4         31.74111168]
 [  0.5         33.84141617]
 [  0.6         19.96692936]
 [  0.7        -37.06015238]
 [  0.8         53.30817693]
 [  0.9         56.319569  ]
 [  1.          38.79278484]
 [  1.09391667  -4.91911249]]","[[0.         1.15410046]
 [0.1        0.37024368]
 [0.2        1.81334   ]
 [0.3        1.04249546]
 [0.4        0.8243923 ]
 [0.5        1.89113742]
 [0.6        0.69337223]
 [0.7        1.01307283]
 [0.8        0.67908163]
 [0.9        0.07541053]
 [1.         1.95325555]
 [1.09391667 0.98387982]]",1,0.605
8734529389,f,24,english,5,4,english,2024-02-01 10:33:19.008934,False,1,30,sounds\english\audio/english_14.wav,"[[  0.          -5.69961552]
 [  0.1        -17.69328861]
 [  0.2        -45.6905252 ]
 [  0.3        -40.89378138]
 [  0.4        -36.19831956]
 [  0.5         13.76556606]
 [  0.6         51.91139139]
 [  0.7         22.36023261]
 [  0.8         -6.30606285]
 [  0.9         44.07295662]
 [  1.          49.08865221]
 [  1.09391667 -15.23758706]]","[[0.         1.552338  ]
 [0.1        0.71654176]
 [0.2        1.07785173]
 [0.3        1.31161341]
 [0.4        0.28947894]
 [0.5        0.6738955 ]
 [0.6        1.18134596]
 [0.7        0.36193456]
 [0.8        1.01055915]
 [0.9        1.51598154]
 [1.         1.55420583]
 [1.09391667 0.88497418]]",0,0.135
8734529389,f,24,english,5,4,english,2024-02-01 10:33:19.008934,False,1,31,sounds\english\audio/english_630.wav,"[[  0.          78.75492265]
 [  0.1        -83.58930578]
 [  0.2        -79.71821409]
 [  0.3        -40.02519871]
 [  0.4         28.39164799]
 [  0.5        -22.91010751]
 [  0.6         66.99878234]
 [  0.7        -67.03907611]
 [  0.8        -31.68288064]
 [  0.9        -92.36791787]
 [  1.         -47.34450832]
 [  1.09391667 -92.12755103]]","[[0.         1.14018337]
 [0.1        0.42247423]
 [0.2        1.15399078]
 [0.3        1.63118088]
 [0.4        0.60995737]
 [0.5        1.14933658]
 [0.6        1.58053618]
 [0.7        1.44408005]
 [0.8        0.22921488]
 [0.9        1.99244959]
 [1.         1.8016164 ]
 [1.09391667 1.49248838]]",1,0.106
8734529389,f,24,english,5,4,english,2024-02-01 10:33:19.008934,False,1,32,sounds\english\audio/english_241.wav,"[[  0.         -97.22432216]
 [  0.1        -28.14905208]
 [  0.2         47.39910383]
 [  0.3         62.74698337]
 [  0.4         42.69629452]
 [  0.5        -28.86057988]
 [  0.6         47.37469517]
 [  0.7         19.60148675]
 [  0.8         25.28127543]
 [  0.9        -90.65530928]
 [  1.          58.14244463]
 [  1.09391667  33.70088271]]","[[0.         1.35478851]
 [0.1        0.42795765]
 [0.2        0.77593108]
 [0.3        1.52084491]
 [0.4        1.0423858 ]
 [0.5        0.26192027]
 [0.6        1.65360196]
 [0.7        1.3989631 ]
 [0.8        0.94780347]
 [0.9        1.1797356 ]
 [1.         1.19530939]
 [1.09391667 0.5415955 ]]",1,0.163
8734529389,f,24,english,5,4,english,2024-02-01 10:33:19.008934,False,1,33,sounds\english\audio/english_929.wav,"[[  0.         -18.74393268]
 [  0.1         33.5098218 ]
 [  0.2        -29.94782209]
 [  0.3        -33.25977884]
 [  0.4         -9.01985938]
 [  0.5        -82.73987875]
 [  0.6         48.07587241]
 [  0.7        -43.15088987]
 [  0.8         82.92488977]
 [  0.9        -60.38444868]
 [  1.          27.71416794]
 [  1.09391667  21.92497573]]","[[0.         1.03205893]
 [0.1        1.56324899]
 [0.2        1.48903241]
 [0.3        0.12654912]
 [0.4        0.84484029]
 [0.5        0.94715121]
 [0.6        1.69154368]
 [0.7        0.81126675]
 [0.8        0.36905029]
 [0.9        0.50874334]
 [1.         0.95284967]
 [1.09391667 0.65099343]]",0,0.334
8734529389,f,24,english,5,4,english,2024-02-01 10:33:19.008934,False,1,34,sounds\english\audio/english_82.wav,"[[  0.         -50.65944843]
 [  0.1         -8.30198342]
 [  0.2         28.238309  ]
 [  0.3        -35.80408689]
 [  0.4         80.50699914]
 [  0.5        -99.69979401]
 [  0.6         30.38876845]
 [  0.7         -2.76434691]
 [  0.8        -19.59960586]
 [  0.9        -93.26966696]
 [  1.          64.56379815]
 [  1.09391667 -59.79308705]]","[[0.         0.53695405]
 [0.1        1.68823048]
 [0.2        0.29560695]
 [0.3        0.83443164]
 [0.4        0.87894934]
 [0.5        1.46703122]
 [0.6        0.23248639]
 [0.7        1.71572221]
 [0.8        1.24729907]
 [0.9        0.75753981]
 [1.         1.65214627]
 [1.09391667 0.40383656]]",1,0.531
8734529389,f,24,english,5,4,english,2024-02-01 10:33:19.008934,False,1,35,sounds\english\audio/english_650.wav,"[[  0.          84.72208984]
 [  0.1        -25.46570276]
 [  0.2        -14.49877792]
 [  0.3         92.39693734]
 [  0.4        -32.47071196]
 [  0.5         57.90191837]
 [  0.6        -80.89557153]
 [  0.7        -42.41945014]
 [  0.8        -93.95714217]
 [  0.9         72.90615392]
 [  1.          69.05005157]
 [  1.09391667  82.64627583]]","[[0.         1.44671944]
 [0.1        0.96213955]
 [0.2        0.60880641]
 [0.3        0.82954369]
 [0.4        0.31003161]
 [0.5        1.04774221]
 [0.6        1.35433017]
 [0.7        0.91007785]
 [0.8        1.66906144]
 [0.9        0.82431   ]
 [1.         0.70002504]
 [1.09391667 0.57122533]]",0,0.179
8734529389,f,24,english,5,4,english,2024-02-01 10:33:19.008934,False,1,36,sounds\english\audio/english_578.wav,"[[  0.         -75.00897619]
 [  0.1        -99.92599168]
 [  0.2        -41.97852884]
 [  0.3        -44.5286304 ]
 [  0.4         33.7471246 ]
 [  0.5        -20.55369632]
 [  0.6         80.47589593]
 [  0.7        -14.97727246]
 [  0.8        -21.44814327]
 [  0.9        -62.07774638]
 [  1.         -99.81693505]
 [  1.09391667 -93.56727968]]","[[0.         0.74810011]
 [0.1        1.6653295 ]
 [0.2        0.86958953]
 [0.3        1.82114948]
 [0.4        1.20682151]
 [0.5        0.95346463]
 [0.6        1.35013789]
 [0.7        1.4182331 ]
 [0.8        1.48872207]
 [0.9        0.52217737]
 [1.         1.9830309 ]
 [1.09391667 1.11565266]]",1,0.053
8734529389,f,24,english,5,4,english,2024-02-01 10:33:19.008934,False,1,37,sounds\english\audio/english_55.wav,"[[  0.          55.67307479]
 [  0.1        -68.77763233]
 [  0.2        -65.56479824]
 [  0.3        -28.17507295]
 [  0.4         12.71546493]
 [  0.5         79.84163838]
 [  0.6        -44.12045936]
 [  0.7        -80.03895773]
 [  0.8         89.560279  ]
 [  0.9        -86.43761931]
 [  1.          26.43928763]
 [  1.09391667  35.34186428]]","[[0.         0.52782995]
 [0.1        1.04888997]
 [0.2        1.48348863]
 [0.3        0.48831434]
 [0.4        0.57381204]
 [0.5        0.45321787]
 [0.6        1.63628375]
 [0.7        1.60012046]
 [0.8        1.77258714]
 [0.9        0.52302607]
 [1.         1.59376443]
 [1.09391667 1.33420322]]",0,0.077
8734529389,f,24,english,5,4,english,2024-02-01 10:33:19.008934,False,1,38,sounds\english\audio/english_314.wav,"[[  0.         -72.77248659]
 [  0.1        -16.3777023 ]
 [  0.2        -54.89367252]
 [  0.3        -94.61910998]
 [  0.4        -16.43986335]
 [  0.5         22.95549902]
 [  0.6        -38.50046808]
 [  0.7         94.4546569 ]
 [  0.8        -37.64043119]
 [  0.9         48.39030237]
 [  1.         -45.26638295]
 [  1.09391667 -45.55554074]]","[[0.         0.8900907 ]
 [0.1        0.59416925]
 [0.2        1.27689755]
 [0.3        0.70275331]
 [0.4        1.42732001]
 [0.5        0.51357734]
 [0.6        1.78706659]
 [0.7        0.51196802]
 [0.8        0.29950004]
 [0.9        0.69158189]
 [1.         0.28421865]
 [1.09391667 1.42591163]]",1,0.252
8734529389,f,24,english,5,4,english,2024-02-01 10:33:19.008934,False,1,39,sounds\english\audio/english_624.wav,"[[  0.          34.76400378]
 [  0.1        -36.42076645]
 [  0.2        -52.38985079]
 [  0.3         98.14853718]
 [  0.4         97.5674754 ]
 [  0.5        -80.04687885]
 [  0.6         -8.81047571]
 [  0.7        -78.45129318]
 [  0.8         39.54454361]
 [  0.9         32.62160332]
 [  1.         -98.98158135]
 [  1.09391667  19.08613563]]","[[0.         1.78994994]
 [0.1        1.4795907 ]
 [0.2        1.80721514]
 [0.3        1.70059719]
 [0.4        0.69719837]
 [0.5        1.37290399]
 [0.6        1.53741575]
 [0.7        1.54350611]
 [0.8        0.49170725]
 [0.9        1.04663897]
 [1.         0.63020253]
 [1.09391667 0.96318783]]",0,2.288
8734529389,f,24,english,5,4,english,2024-02-01 10:33:19.008934,False,1,40,sounds\english\audio/english_296.wav,"[[  0.          80.48782258]
 [  0.1         10.56122862]
 [  0.2         -8.93820662]
 [  0.3        -54.86681614]
 [  0.4          4.93462284]
 [  0.5         35.74757504]
 [  0.6         68.8469079 ]
 [  0.7        -14.27123589]
 [  0.8        -28.29587023]
 [  0.9         95.64907093]
 [  1.         -72.41595419]
 [  1.09391667  67.53861485]]","[[0.         1.56514642]
 [0.1        0.84129395]
 [0.2        0.06138073]
 [0.3        0.69727856]
 [0.4        1.5884292 ]
 [0.5        1.04892583]
 [0.6        1.9689775 ]
 [0.7        0.88805601]
 [0.8        1.96809087]
 [0.9        1.8332122 ]
 [1.         0.12281215]
 [1.09391667 0.22120187]]",1,0.172
8734529389,f,24,english,5,4,english,2024-02-01 10:33:19.008934,False,1,41,sounds\english\audio/english_598.wav,"[[  0.          66.59254232]
 [  0.1         -0.16294116]
 [  0.2         87.91623233]
 [  0.3          4.78179149]
 [  0.4         87.27330533]
 [  0.5         15.94205468]
 [  0.6        -57.72302194]
 [  0.7        -11.53545195]
 [  0.8        -97.23766847]
 [  0.9        -89.11050407]
 [  1.          -7.65193873]
 [  1.09391667  -0.117565  ]]","[[0.         1.11503085]
 [0.1        1.29891619]
 [0.2        0.04302605]
 [0.3        1.90355783]
 [0.4        0.66957129]
 [0.5        1.28062406]
 [0.6        0.15067731]
 [0.7        0.37044447]
 [0.8        0.00668091]
 [0.9        1.24076678]
 [1.         0.4751477 ]
 [1.09391667 1.3589293 ]]",0,0.216
8734529389,f,24,english,5,4,english,2024-02-01 10:33:19.008934,False,1,42,sounds\english\audio/english_590.wav,"[[  0.          24.53986414]
 [  0.1         62.74729121]
 [  0.2         -6.99692864]
 [  0.3         32.91070415]
 [  0.4         54.80975448]
 [  0.5         24.32530029]
 [  0.6         16.29432048]
 [  0.7        -66.06817006]
 [  0.8        -90.96676801]
 [  0.9         -4.67977612]
 [  1.         -25.79105575]
 [  1.09391667 -43.70584136]]","[[0.         1.78897409]
 [0.1        1.71743114]
 [0.2        1.45844579]
 [0.3        0.05079794]
 [0.4        1.44685897]
 [0.5        0.6322235 ]
 [0.6        1.01805408]
 [0.7        0.32502854]
 [0.8        1.20600442]
 [0.9        0.69143843]
 [1.         0.12523546]
 [1.09391667 1.95537842]]",1,0.205
8734529389,f,24,english,5,4,english,2024-02-01 10:33:19.008934,False,1,43,sounds\english\audio/english_145.wav,"[[  0.          33.46233159]
 [  0.1        -61.60936231]
 [  0.2         77.17787096]
 [  0.3         52.31633647]
 [  0.4         50.97764834]
 [  0.5         94.06594582]
 [  0.6        -40.82786952]
 [  0.7        -67.26734542]
 [  0.8         59.11900107]
 [  0.9        -56.17437001]
 [  1.         -15.19613378]
 [  1.09391667  90.15311402]]","[[0.         0.5633393 ]
 [0.1        1.7411418 ]
 [0.2        1.3932683 ]
 [0.3        0.64008683]
 [0.4        0.69845382]
 [0.5        1.78155535]
 [0.6        0.94197467]
 [0.7        0.64900441]
 [0.8        1.89522637]
 [0.9        0.96282543]
 [1.         0.73054996]
 [1.09391667 0.69896131]]",1,0.279
8734529389,f,24,english,5,4,english,2024-02-01 10:33:19.008934,False,1,44,sounds\english\audio/english_527.wav,"[[  0.          -1.3381573 ]
 [  0.1         58.15701777]
 [  0.2          8.11788849]
 [  0.3         44.39731413]
 [  0.4        -87.54788147]
 [  0.5        -93.25195843]
 [  0.6         93.45473079]
 [  0.7         47.10175622]
 [  0.8         40.24548325]
 [  0.9         26.99431972]
 [  1.          23.18417948]
 [  1.09391667   1.05655255]]","[[0.         0.84142087]
 [0.1        0.45178491]
 [0.2        1.20075359]
 [0.3        0.65328865]
 [0.4        0.96835908]
 [0.5        0.53512631]
 [0.6        1.66257619]
 [0.7        1.10602602]
 [0.8        0.88440787]
 [0.9        1.16792169]
 [1.         1.44045273]
 [1.09391667 0.83626501]]",1,0.104
8734529389,f,24,english,5,4,english,2024-02-01 10:33:19.008934,False,1,45,sounds\english\audio/english_163.wav,"[[  0.         -75.52696483]
 [  0.1        -50.94410786]
 [  0.2        -38.29944429]
 [  0.3        -32.57127411]
 [  0.4        -30.55941116]
 [  0.5        -14.52407307]
 [  0.6         28.48601544]
 [  0.7        -14.30599007]
 [  0.8         38.98323909]
 [  0.9        -70.97720427]
 [  1.         -31.77991107]
 [  1.09391667 -57.22342155]]","[[0.         0.21633828]
 [0.1        0.31603177]
 [0.2        1.04333718]
 [0.3        1.57763682]
 [0.4        0.14485533]
 [0.5        1.53043555]
 [0.6        0.0734581 ]
 [0.7        1.19104414]
 [0.8        0.4056819 ]
 [0.9        1.30823112]
 [1.         1.63835528]
 [1.09391667 1.03131117]]",0,0.971
8734529389,f,24,english,5,4,english,2024-02-01 10:33:19.008934,False,1,46,sounds\english\audio/english_232.wav,"[[  0.         -26.51940276]
 [  0.1         80.97161113]
 [  0.2        -59.14883297]
 [  0.3         25.03200804]
 [  0.4         20.05380764]
 [  0.5         56.28196281]
 [  0.6         50.47197961]
 [  0.7         52.11037309]
 [  0.8         88.23327143]
 [  0.9         37.32869559]
 [  1.         -23.53745861]
 [  1.09391667  93.83220457]]","[[0.         0.21059611]
 [0.1        0.68519171]
 [0.2        1.41170079]
 [0.3        1.73443495]
 [0.4        0.29201417]
 [0.5        0.54790335]
 [0.6        1.77444553]
 [0.7        1.99008741]
 [0.8        0.74569824]
 [0.9        0.18993344]
 [1.         0.72085595]
 [1.09391667 1.92388819]]",1,0.272
8734529389,f,24,english,5,4,english,2024-02-01 10:33:19.008934,False,1,47,sounds\english\audio/english_315.wav,"[[  0.          20.11963367]
 [  0.1        -30.87144334]
 [  0.2         39.10248869]
 [  0.3        -19.08604714]
 [  0.4         90.41461318]
 [  0.5        -82.87118979]
 [  0.6        -12.30252898]
 [  0.7          9.37098005]
 [  0.8        -86.3809894 ]
 [  0.9          2.03064205]
 [  1.          99.30710259]
 [  1.09391667  58.65294367]]","[[0.         1.15782854]
 [0.1        1.37599817]
 [0.2        1.4514196 ]
 [0.3        1.32135016]
 [0.4        1.69132556]
 [0.5        0.65296677]
 [0.6        1.40058812]
 [0.7        0.87815256]
 [0.8        0.15444706]
 [0.9        1.46097728]
 [1.         0.37640447]
 [1.09391667 1.18518174]]",0,0.104
8734529389,f,24,english,5,4,english,2024-02-01 10:33:19.008934,False,1,48,sounds\english\audio/english_422.wav,"[[  0.          15.30476558]
 [  0.1         46.85469973]
 [  0.2        -55.01275076]
 [  0.3        -88.68955981]
 [  0.4         69.37127288]
 [  0.5         19.59216644]
 [  0.6         -6.38015959]
 [  0.7        -75.18241686]
 [  0.8         53.59227304]
 [  0.9        -58.58137106]
 [  1.         -12.61550451]
 [  1.09391667 -47.53760567]]","[[0.         1.12660373]
 [0.1        1.77150152]
 [0.2        0.07610986]
 [0.3        1.87054914]
 [0.4        0.4194099 ]
 [0.5        1.01013961]
 [0.6        1.42576712]
 [0.7        0.77140618]
 [0.8        0.92977939]
 [0.9        0.22126866]
 [1.         1.35947282]
 [1.09391667 0.9860846 ]]",1,0.295
8734529389,f,24,english,5,4,english,2024-02-01 10:33:19.008934,False,1,49,sounds\english\audio/english_88.wav,"[[  0.         -71.9844785 ]
 [  0.1        -49.01939905]
 [  0.2         50.12381506]
 [  0.3        -84.58055822]
 [  0.4        -75.77840035]
 [  0.5        -24.7911267 ]
 [  0.6        -23.67428976]
 [  0.7        -54.46174988]
 [  0.8         17.41292988]
 [  0.9        -76.44908604]
 [  1.          -2.36913576]
 [  1.09391667 -39.62259758]]","[[0.         0.53660294]
 [0.1        1.47642874]
 [0.2        0.52511459]
 [0.3        1.50109779]
 [0.4        0.97976024]
 [0.5        0.85239994]
 [0.6        1.05191942]
 [0.7        0.4066024 ]
 [0.8        0.004424  ]
 [0.9        1.90836134]
 [1.         1.74184755]
 [1.09391667 0.66301055]]",0,0.526
8734529389,f,24,english,5,4,english,2024-02-01 10:33:19.008934,False,1,50,sounds\english\audio/english_560.wav,"[[  0.         -58.05020857]
 [  0.1          0.75359215]
 [  0.2        -63.0427696 ]
 [  0.3        -80.65695741]
 [  0.4         30.22073259]
 [  0.5         78.65082856]
 [  0.6        -21.87019315]
 [  0.7        -81.08775569]
 [  0.8        -85.95097006]
 [  0.9         55.61706947]
 [  1.          78.8186599 ]
 [  1.09391667 -38.99290187]]","[[0.         1.72720005]
 [0.1        0.87170151]
 [0.2        1.11137899]
 [0.3        1.61210877]
 [0.4        0.77402776]
 [0.5        1.41240522]
 [0.6        1.5310865 ]
 [0.7        0.91259008]
 [0.8        0.61355253]
 [0.9        0.53974683]
 [1.         1.30815579]
 [1.09391667 1.62027104]]",0,0.729
8734529389,f,24,english,5,4,english,2024-02-01 10:33:19.008934,False,1,51,sounds\english\audio/english_711.wav,"[[  0.           5.56697991]
 [  0.1        -24.51973587]
 [  0.2         14.74252879]
 [  0.3         62.90835999]
 [  0.4        -30.148836  ]
 [  0.5        -90.0367138 ]
 [  0.6         23.29272454]
 [  0.7         51.00007107]
 [  0.8         -5.61877019]
 [  0.9          4.00444287]
 [  1.          81.75034051]
 [  1.09391667 -78.99678836]]","[[0.         1.20296493]
 [0.1        1.05892315]
 [0.2        0.52339911]
 [0.3        1.255633  ]
 [0.4        1.66876465]
 [0.5        0.2337908 ]
 [0.6        0.4494252 ]
 [0.7        1.6594433 ]
 [0.8        1.49925628]
 [0.9        1.73015634]
 [1.         1.46308192]
 [1.09391667 1.6603821 ]]",1,2.106
8734529389,f,24,english,5,4,english,2024-02-01 10:33:19.008934,False,1,52,sounds\english\audio/english_938.wav,"[[  0.         -53.63878643]
 [  0.1        -38.8400944 ]
 [  0.2         -9.87265498]
 [  0.3         16.2059687 ]
 [  0.4        -90.53563301]
 [  0.5         64.72350929]
 [  0.6        -52.05654387]
 [  0.7        -42.35049902]
 [  0.8         32.88204039]
 [  0.9        -86.42075109]
 [  1.          31.2389269 ]
 [  1.09391667 -10.13697021]]","[[0.         0.25625638]
 [0.1        1.23524187]
 [0.2        0.81990957]
 [0.3        1.45712995]
 [0.4        0.4819737 ]
 [0.5        0.32505179]
 [0.6        1.44150274]
 [0.7        1.58605202]
 [0.8        0.48300943]
 [0.9        1.19049872]
 [1.         1.85243238]
 [1.09391667 0.92208217]]",0,0.263
8734529389,f,24,english,5,4,english,2024-02-01 10:33:19.008934,False,1,53,sounds\english\audio/english_105.wav,"[[  0.          -2.78582129]
 [  0.1        -47.38376557]
 [  0.2        -34.39843647]
 [  0.3         46.98736853]
 [  0.4        -49.43003963]
 [  0.5         38.45298993]
 [  0.6        -40.48082685]
 [  0.7        -51.12213105]
 [  0.8         21.68306499]
 [  0.9         47.55235399]
 [  1.          34.72628387]
 [  1.09391667 -48.05463592]]","[[0.         1.58600254]
 [0.1        1.11025346]
 [0.2        0.10251387]
 [0.3        1.2200198 ]
 [0.4        1.30093265]
 [0.5        0.48849845]
 [0.6        0.43711301]
 [0.7        1.15590429]
 [0.8        1.91934773]
 [0.9        0.93806277]
 [1.         0.69549788]
 [1.09391667 1.35655827]]",1,0.105
8734529389,f,24,english,5,4,english,2024-02-01 10:33:19.008934,False,1,54,sounds\english\audio/english_643.wav,"[[  0.         -28.71923325]
 [  0.1        -41.33033256]
 [  0.2         14.60836996]
 [  0.3         24.53811626]
 [  0.4          7.82813988]
 [  0.5         31.13275889]
 [  0.6          9.00223054]
 [  0.7         65.97905996]
 [  0.8          3.77456402]
 [  0.9         20.70026816]
 [  1.          98.54762674]
 [  1.09391667  74.26815163]]","[[0.         0.05998695]
 [0.1        1.69509995]
 [0.2        1.2304272 ]
 [0.3        1.46168191]
 [0.4        1.6429412 ]
 [0.5        1.01913146]
 [0.6        0.81472246]
 [0.7        0.51197957]
 [0.8        0.97348527]
 [0.9        0.6370084 ]
 [1.         0.00532383]
 [1.09391667 1.21089253]]",0,1.61
8734529389,f,24,english,5,4,english,2024-02-01 10:33:19.008934,False,1,55,sounds\english\audio/english_606.wav,"[[  0.          72.77252021]
 [  0.1         22.60713343]
 [  0.2         30.91882808]
 [  0.3        -48.84223864]
 [  0.4        -29.82386042]
 [  0.5         82.48397831]
 [  0.6        -18.49396427]
 [  0.7         26.88567381]
 [  0.8        -18.34346668]
 [  0.9         10.06544583]
 [  1.         -89.88083722]
 [  1.09391667  66.64968825]]","[[0.         1.14271188]
 [0.1        1.41897374]
 [0.2        1.73372854]
 [0.3        1.07065865]
 [0.4        0.5542197 ]
 [0.5        0.65978179]
 [0.6        0.64487358]
 [0.7        1.50533402]
 [0.8        1.51615031]
 [0.9        0.11673085]
 [1.         0.60775024]
 [1.09391667 0.13627416]]",1,0.241
8734529389,f,24,english,5,4,english,2024-02-01 10:33:19.008934,False,1,56,sounds\english\audio/english_273.wav,"[[  0.          98.52666227]
 [  0.1        -14.53697977]
 [  0.2        -27.73641003]
 [  0.3        -33.00016706]
 [  0.4        -94.64333813]
 [  0.5        -41.61617203]
 [  0.6         49.41815244]
 [  0.7        -30.32061772]
 [  0.8        -35.74709192]
 [  0.9        -13.60946608]
 [  1.         -32.82037382]
 [  1.09391667  33.32212964]]","[[0.         0.76053605]
 [0.1        1.55944865]
 [0.2        1.1926207 ]
 [0.3        0.4837488 ]
 [0.4        0.26449836]
 [0.5        0.91523242]
 [0.6        1.22186228]
 [0.7        1.22601092]
 [0.8        0.47362103]
 [0.9        1.12741722]
 [1.         1.62942093]
 [1.09391667 0.13586673]]",0,0.309
8734529389,f,24,english,5,4,english,2024-02-01 10:33:19.008934,False,1,57,sounds\english\audio/english_25.wav,"[[  0.          -3.04072315]
 [  0.1         -7.71178933]
 [  0.2        -42.18636208]
 [  0.3        -34.45077435]
 [  0.4        -84.66227969]
 [  0.5        -92.64439035]
 [  0.6        -61.14666871]
 [  0.7         -3.59823801]
 [  0.8        -55.86599887]
 [  0.9         70.71897097]
 [  1.         -41.59717756]
 [  1.09391667  45.33564492]]","[[0.         0.82619881]
 [0.1        0.19533878]
 [0.2        1.08277914]
 [0.3        1.14412535]
 [0.4        1.20529311]
 [0.5        1.74650044]
 [0.6        0.43899038]
 [0.7        0.82830315]
 [0.8        0.29447237]
 [0.9        0.99577412]
 [1.         1.79017757]
 [1.09391667 1.70871786]]",0,0.364
8734529389,f,24,english,5,4,english,2024-02-01 10:33:19.008934,False,1,58,sounds\english\audio/english_507.wav,"[[  0.         -12.02429693]
 [  0.1         23.48023528]
 [  0.2         75.86591316]
 [  0.3        -83.47756384]
 [  0.4         81.92852434]
 [  0.5         87.67744716]
 [  0.6        -16.33781488]
 [  0.7        -17.50205237]
 [  0.8         45.24056119]
 [  0.9        -41.17324019]
 [  1.         -35.51150679]
 [  1.09391667 -42.23976402]]","[[0.         0.63959218]
 [0.1        0.78683895]
 [0.2        1.2814873 ]
 [0.3        0.67977555]
 [0.4        0.92992814]
 [0.5        1.13175549]
 [0.6        0.10459473]
 [0.7        1.89307031]
 [0.8        1.08894135]
 [0.9        1.66565612]
 [1.         1.23960277]
 [1.09391667 0.80282923]]",1,0.014
8734529389,f,24,english,5,4,english,2024-02-01 10:33:19.008934,False,1,59,sounds\english\audio/english_751.wav,"[[  0.         -66.06272789]
 [  0.1        -35.39424596]
 [  0.2         -5.06217065]
 [  0.3         34.9656481 ]
 [  0.4         21.23436914]
 [  0.5         82.13600136]
 [  0.6         31.75524198]
 [  0.7         25.74157906]
 [  0.8          0.71739343]
 [  0.9        -48.73723386]
 [  1.         -45.00388336]
 [  1.09391667 -22.7557427 ]]","[[0.         0.8938032 ]
 [0.1        0.85096145]
 [0.2        0.63682042]
 [0.3        0.66546542]
 [0.4        1.36528552]
 [0.5        1.24494727]
 [0.6        1.91319775]
 [0.7        1.46839197]
 [0.8        1.22847184]
 [0.9        1.68139256]
 [1.         0.62568337]
 [1.09391667 0.09425642]]",0,1.229
8734529389,f,24,english,5,4,english,2024-02-01 10:33:19.008934,False,1,60,sounds\english\audio/english_799.wav,"[[  0.          20.93448877]
 [  0.1         74.90549066]
 [  0.2         79.35216778]
 [  0.3        -10.62506754]
 [  0.4          6.33564747]
 [  0.5         90.41443979]
 [  0.6        -60.57880503]
 [  0.7          9.86229071]
 [  0.8        -45.57695026]
 [  0.9          4.80419962]
 [  1.          49.35310044]
 [  1.09391667  82.63345718]]","[[0.         0.48820712]
 [0.1        0.80562581]
 [0.2        1.19822254]
 [0.3        1.60128914]
 [0.4        0.01319764]
 [0.5        1.72553046]
 [0.6        1.2547609 ]
 [0.7        0.74830712]
 [0.8        0.71080767]
 [0.9        0.83933205]
 [1.         0.24394342]
 [1.09391667 0.9569793 ]]",1,0.177
8734529389,f,24,english,5,4,english,2024-02-01 10:33:19.008934,False,1,61,sounds\english\audio/english_150.wav,"[[  0.         -50.54232549]
 [  0.1         34.32153656]
 [  0.2        -10.92395048]
 [  0.3         53.72738624]
 [  0.4         62.41801081]
 [  0.5        -32.60317387]
 [  0.6        -14.80411838]
 [  0.7         55.20966729]
 [  0.8        -74.0684305 ]
 [  0.9         -4.87965611]
 [  1.         -79.50813125]
 [  1.09391667  24.9492826 ]]","[[0.         1.16258998]
 [0.1        0.79689364]
 [0.2        0.16790755]
 [0.3        0.35039588]
 [0.4        0.24836215]
 [0.5        0.38408886]
 [0.6        0.47894499]
 [0.7        1.81942338]
 [0.8        1.36079379]
 [0.9        1.63972786]
 [1.         1.65428446]
 [1.09391667 1.31063675]]",1,1.201
8734529389,f,24,english,5,4,english,2024-02-01 10:33:19.008934,False,1,62,sounds\english\audio/english_912.wav,"[[  0.          83.45320293]
 [  0.1         47.1123547 ]
 [  0.2        -44.09395349]
 [  0.3         80.4089211 ]
 [  0.4        -65.95886508]
 [  0.5        -25.59965852]
 [  0.6         58.94865135]
 [  0.7        -95.38965028]
 [  0.8         10.68091992]
 [  0.9        -57.68744928]
 [  1.           5.39108627]
 [  1.09391667  37.38622487]]","[[0.         1.30725461]
 [0.1        0.36515134]
 [0.2        0.27834174]
 [0.3        1.38784543]
 [0.4        0.18344109]
 [0.5        0.42703515]
 [0.6        1.85819174]
 [0.7        1.3517083 ]
 [0.8        1.52712698]
 [0.9        1.44811226]
 [1.         1.0038839 ]
 [1.09391667 0.79645394]]",0,0.568
8734529389,f,24,english,5,4,english,2024-02-01 10:33:19.008934,False,1,63,sounds\english\audio/english_980.wav,"[[  0.         -89.21120638]
 [  0.1        -61.94586113]
 [  0.2         66.92224931]
 [  0.3         -8.83169244]
 [  0.4        -62.26224073]
 [  0.5        -40.69471865]
 [  0.6        -55.09323572]
 [  0.7        -85.76938639]
 [  0.8        -61.73931362]
 [  0.9         29.10621895]
 [  1.         -54.92010394]
 [  1.09391667 -99.59524777]]","[[0.         0.86013949]
 [0.1        1.20415769]
 [0.2        1.12519254]
 [0.3        1.93563119]
 [0.4        1.36290277]
 [0.5        0.31823405]
 [0.6        1.64522851]
 [0.7        0.41705872]
 [0.8        0.77550812]
 [0.9        0.71060598]
 [1.         0.25781542]
 [1.09391667 0.26651543]]",0,0.49
8734529389,f,24,english,5,4,english,2024-02-01 10:33:19.008934,False,1,64,sounds\english\audio/english_866.wav,"[[  0.          32.13948388]
 [  0.1         38.60075831]
 [  0.2        -79.61982729]
 [  0.3        -60.72840424]
 [  0.4        -37.10812529]
 [  0.5         20.23366157]
 [  0.6        -58.420194  ]
 [  0.7         10.40447232]
 [  0.8        -52.83849426]
 [  0.9         32.83340069]
 [  1.           9.31901299]
 [  1.09391667 -17.41907809]]","[[0.         0.64921597]
 [0.1        1.48742897]
 [0.2        0.28495491]
 [0.3        0.9139307 ]
 [0.4        1.2771469 ]
 [0.5        0.5381413 ]
 [0.6        0.14669297]
 [0.7        0.11342134]
 [0.8        1.53208977]
 [0.9        0.84107623]
 [1.         1.05202157]
 [1.09391667 1.86418674]]",1,0.161
8734529389,f,24,english,5,4,english,2024-02-01 10:33:19.008934,False,1,65,sounds\english\audio/english_389.wav,"[[  0.         -27.92030451]
 [  0.1        -46.10796153]
 [  0.2         29.27243325]
 [  0.3        -81.13766006]
 [  0.4        -25.00115648]
 [  0.5        -17.10951233]
 [  0.6         15.83507298]
 [  0.7         79.29241289]
 [  0.8         27.96570621]
 [  0.9        -91.92786914]
 [  1.          39.38033895]
 [  1.09391667 -32.92969944]]","[[0.         1.81186154]
 [0.1        1.54804085]
 [0.2        0.55488288]
 [0.3        1.00824624]
 [0.4        1.07224035]
 [0.5        0.42212287]
 [0.6        1.0440142 ]
 [0.7        1.00958508]
 [0.8        0.92707182]
 [0.9        1.30621654]
 [1.         1.4968603 ]
 [1.09391667 0.53867672]]",0,0.552
8734529389,f,24,english,5,4,english,2024-02-01 10:33:19.008934,False,1,66,sounds\english\audio/english_293.wav,"[[  0.         -41.6717185 ]
 [  0.1         80.2291893 ]
 [  0.2        -71.0140068 ]
 [  0.3        -90.64066123]
 [  0.4         -6.53332233]
 [  0.5         -9.32979117]
 [  0.6         53.89735235]
 [  0.7        -63.4364313 ]
 [  0.8        -96.19547901]
 [  0.9        -36.41686224]
 [  1.          99.46412477]
 [  1.09391667  17.36040502]]","[[0.         1.35571263]
 [0.1        0.51147984]
 [0.2        0.41951934]
 [0.3        0.6442562 ]
 [0.4        0.98522539]
 [0.5        0.92132945]
 [0.6        1.4753131 ]
 [0.7        0.11499708]
 [0.8        1.03841664]
 [0.9        1.94583411]
 [1.         0.65545153]
 [1.09391667 1.59979165]]",1,0.076
8734529389,f,24,english,5,4,english,2024-02-01 10:33:19.008934,False,1,67,sounds\english\audio/english_258.wav,"[[  0.          25.58821978]
 [  0.1          7.03087627]
 [  0.2        -15.91116386]
 [  0.3        -10.18288773]
 [  0.4         -1.03622481]
 [  0.5          7.08237834]
 [  0.6        -65.85616389]
 [  0.7         61.11432003]
 [  0.8         62.35570806]
 [  0.9         64.93681849]
 [  1.         -37.74920533]
 [  1.09391667 -81.90690998]]","[[0.         1.29707378]
 [0.1        0.49566701]
 [0.2        0.43385518]
 [0.3        0.30166849]
 [0.4        0.40418484]
 [0.5        0.97614875]
 [0.6        0.50782257]
 [0.7        1.26334363]
 [0.8        1.6928405 ]
 [0.9        1.97714506]
 [1.         1.10059348]
 [1.09391667 1.23409369]]",0,1.03
8734529389,f,24,english,5,4,english,2024-02-01 10:33:19.008934,False,1,68,sounds\english\audio/english_662.wav,"[[  0.          31.31886637]
 [  0.1        -45.58012984]
 [  0.2        -36.67335117]
 [  0.3         91.68908931]
 [  0.4         99.42890358]
 [  0.5        -75.06867948]
 [  0.6        -53.3060983 ]
 [  0.7         66.7707286 ]
 [  0.8         69.18702853]
 [  0.9        -16.72052533]
 [  1.          16.50634939]
 [  1.09391667  79.32738685]]","[[0.         0.51844492]
 [0.1        1.26337535]
 [0.2        1.47948125]
 [0.3        1.54973702]
 [0.4        1.40573319]
 [0.5        0.46765036]
 [0.6        1.29577772]
 [0.7        1.28176027]
 [0.8        1.79426909]
 [0.9        0.76623174]
 [1.         1.90203541]
 [1.09391667 1.85204165]]",1,0.269
8734529389,f,24,english,5,4,english,2024-02-01 10:33:19.008934,False,1,69,sounds\english\audio/english_525.wav,"[[  0.         -85.30144906]
 [  0.1         40.69478692]
 [  0.2         27.58167259]
 [  0.3         -9.65414258]
 [  0.4        -92.26214691]
 [  0.5          1.87368715]
 [  0.6         84.67723439]
 [  0.7        -37.99334031]
 [  0.8         91.90351479]
 [  0.9         51.5107545 ]
 [  1.         -23.16743883]
 [  1.09391667 -40.96893152]]","[[0.         1.21891661]
 [0.1        0.63566771]
 [0.2        1.09185932]
 [0.3        1.3630453 ]
 [0.4        0.47547332]
 [0.5        0.98334241]
 [0.6        1.24273573]
 [0.7        1.29787156]
 [0.8        1.39013402]
 [0.9        0.19016555]
 [1.         0.57102757]
 [1.09391667 0.41777753]]",0,0.318
8734529389,f,24,english,5,4,english,2024-02-01 10:33:19.008934,False,1,70,sounds\english\audio/english_94.wav,"[[  0.         -69.13613192]
 [  0.1        -53.91573564]
 [  0.2         88.54569891]
 [  0.3         47.91558238]
 [  0.4         46.13883045]
 [  0.5          0.71209955]
 [  0.6         53.89774049]
 [  0.7         37.22112319]
 [  0.8          8.13348347]
 [  0.9        -10.35793642]
 [  1.          75.25647247]
 [  1.09391667 -70.34686187]]","[[0.         0.71683615]
 [0.1        1.64130178]
 [0.2        1.41561382]
 [0.3        0.72478091]
 [0.4        1.21480875]
 [0.5        0.13058063]
 [0.6        1.07607775]
 [0.7        0.10112022]
 [0.8        0.91343474]
 [0.9        0.77751528]
 [1.         0.57088528]
 [1.09391667 0.98841109]]",0,0.533
8734529389,f,24,english,5,4,english,2024-02-01 10:33:19.008934,False,1,71,sounds\english\audio/english_92.wav,"[[  0.          11.31108637]
 [  0.1         68.41269988]
 [  0.2         -5.85446567]
 [  0.3        -56.17314857]
 [  0.4        -61.8847044 ]
 [  0.5         11.37598658]
 [  0.6         19.4709674 ]
 [  0.7        -11.82404326]
 [  0.8        -12.10341162]
 [  0.9          2.74595363]
 [  1.          41.36202449]
 [  1.09391667 -69.11430068]]","[[0.         1.92205207]
 [0.1        0.65302474]
 [0.2        1.94520229]
 [0.3        1.28044043]
 [0.4        0.6978833 ]
 [0.5        1.39245958]
 [0.6        1.41686082]
 [0.7        0.26269969]
 [0.8        0.56613425]
 [0.9        0.73944091]
 [1.         1.55048139]
 [1.09391667 1.16346143]]",0,0.334
8734529389,f,24,english,5,4,english,2024-02-01 10:33:19.008934,False,1,72,sounds\english\audio/english_566.wav,"[[  0.         -62.56630806]
 [  0.1        -47.88948562]
 [  0.2         32.64151801]
 [  0.3        -32.06511913]
 [  0.4         93.60270043]
 [  0.5         26.08771786]
 [  0.6         -3.7007295 ]
 [  0.7         58.86956752]
 [  0.8        -75.73304048]
 [  0.9        -35.43253665]
 [  1.         -21.03744822]
 [  1.09391667 -19.58423429]]","[[0.         1.86832625]
 [0.1        0.16089863]
 [0.2        0.0444821 ]
 [0.3        1.57257602]
 [0.4        1.42885531]
 [0.5        1.38538324]
 [0.6        1.01058653]
 [0.7        0.52217054]
 [0.8        1.32659726]
 [0.9        0.88864926]
 [1.         1.19784945]
 [1.09391667 0.92748285]]",1,0.549
8734529389,f,24,english,5,4,english,2024-02-01 10:33:19.008934,False,1,73,sounds\english\audio/english_388.wav,"[[  0.         -41.72152619]
 [  0.1         16.10845718]
 [  0.2         56.96293644]
 [  0.3        -95.24889342]
 [  0.4        -92.06058204]
 [  0.5        -66.79451415]
 [  0.6         31.29945158]
 [  0.7         52.76870029]
 [  0.8        -83.90415266]
 [  0.9         16.41554992]
 [  1.          44.20651848]
 [  1.09391667 -53.31309565]]","[[0.         1.04150919]
 [0.1        1.44420011]
 [0.2        1.65872581]
 [0.3        1.66380946]
 [0.4        1.25967223]
 [0.5        1.01005139]
 [0.6        0.59386887]
 [0.7        1.783647  ]
 [0.8        0.30560863]
 [0.9        0.09885056]
 [1.         0.45485887]
 [1.09391667 1.06517725]]",0,0.198
8734529389,f,24,english,5,4,english,2024-02-01 10:33:19.008934,False,1,74,sounds\english\audio/english_403.wav,"[[ 0.00000000e+00  1.55370236e-02]
 [ 1.00000000e-01 -4.64270355e+00]
 [ 2.00000000e-01 -8.67611077e+01]
 [ 3.00000000e-01 -8.66854854e+01]
 [ 4.00000000e-01 -7.43205589e+01]
 [ 5.00000000e-01  5.61207621e+01]
 [ 6.00000000e-01  1.50235235e+01]
 [ 7.00000000e-01  2.58783198e+01]
 [ 8.00000000e-01  2.13726461e+01]
 [ 9.00000000e-01  8.69816794e+01]
 [ 1.00000000e+00 -5.61900631e+01]
 [ 1.09391667e+00  5.92986673e+01]]","[[0.         1.50775741]
 [0.1        1.88632048]
 [0.2        1.79027228]
 [0.3        0.9708058 ]
 [0.4        1.26833926]
 [0.5        0.98662828]
 [0.6        1.65364002]
 [0.7        1.52514764]
 [0.8        1.10599603]
 [0.9        1.01372586]
 [1.         1.1928159 ]
 [1.09391667 0.36234179]]",0,0.426
8734529389,f,24,english,5,4,english,2024-02-01 10:33:19.008934,False,1,75,sounds\english\audio/english_891.wav,"[[  0.         -51.94899703]
 [  0.1        -40.85786471]
 [  0.2        -13.56091334]
 [  0.3         13.09065144]
 [  0.4         -0.86453478]
 [  0.5         31.90721085]
 [  0.6        -27.60460343]
 [  0.7         85.79516825]
 [  0.8         83.05957198]
 [  0.9        -61.83196055]
 [  1.         -69.67221927]
 [  1.09391667   4.62166255]]","[[0.         0.42846165]
 [0.1        0.93876637]
 [0.2        1.78643125]
 [0.3        1.47761109]
 [0.4        1.66653353]
 [0.5        1.63856449]
 [0.6        1.17540335]
 [0.7        1.60236138]
 [0.8        0.96737739]
 [0.9        1.42758327]
 [1.         0.19704513]
 [1.09391667 0.91556812]]",1,0.379
8734529389,f,24,english,5,4,english,2024-02-01 10:33:19.008934,False,1,76,sounds\english\audio/english_91.wav,"[[  0.          90.30305792]
 [  0.1         56.18894947]
 [  0.2        -58.19739478]
 [  0.3         79.028897  ]
 [  0.4          7.81343209]
 [  0.5         28.60271905]
 [  0.6         14.99037293]
 [  0.7         -0.25615484]
 [  0.8         86.53655438]
 [  0.9        -90.65230495]
 [  1.          95.15657265]
 [  1.09391667 -56.87677847]]","[[0.         1.1938068 ]
 [0.1        1.20808781]
 [0.2        0.13849828]
 [0.3        0.94138732]
 [0.4        0.4665442 ]
 [0.5        1.77893908]
 [0.6        0.39545287]
 [0.7        1.77472074]
 [0.8        1.9424725 ]
 [0.9        1.79603275]
 [1.         1.28685544]
 [1.09391667 0.36998726]]",1,0.212
8734529389,f,24,english,5,4,english,2024-02-01 10:33:19.008934,False,1,77,sounds\english\audio/english_685.wav,"[[  0.          62.22235335]
 [  0.1        -97.11025465]
 [  0.2         72.03160739]
 [  0.3         40.47895004]
 [  0.4        -75.64985874]
 [  0.5        -62.21115329]
 [  0.6         34.38722215]
 [  0.7         96.86141958]
 [  0.8         52.32592552]
 [  0.9         47.74773781]
 [  1.          37.75239805]
 [  1.09391667 -10.16077912]]","[[0.         0.91642602]
 [0.1        1.72329218]
 [0.2        1.99088782]
 [0.3        0.00501952]
 [0.4        1.41330373]
 [0.5        0.58310659]
 [0.6        1.5248844 ]
 [0.7        0.15841589]
 [0.8        1.39576372]
 [0.9        1.97205737]
 [1.         1.24408728]
 [1.09391667 1.54258522]]",0,1.945
8734529389,f,24,english,5,4,english,2024-02-01 10:33:19.008934,False,1,78,sounds\english\audio/english_32.wav,"[[  0.         -30.37103026]
 [  0.1         48.19693032]
 [  0.2         60.21879648]
 [  0.3        -12.9108181 ]
 [  0.4         61.17128835]
 [  0.5         19.24517735]
 [  0.6         41.79476445]
 [  0.7         96.88218939]
 [  0.8        -23.72521723]
 [  0.9         33.3965621 ]
 [  1.           9.85905215]
 [  1.09391667 -87.41832761]]","[[0.         1.56358407]
 [0.1        0.66938937]
 [0.2        0.62318935]
 [0.3        0.13798643]
 [0.4        1.67432231]
 [0.5        1.91695281]
 [0.6        1.90714452]
 [0.7        0.54460332]
 [0.8        0.86040489]
 [0.9        1.76371179]
 [1.         1.54546749]
 [1.09391667 0.75722411]]",1,1.9
8734529389,f,24,english,5,4,english,2024-02-01 10:33:19.008934,False,1,79,sounds\english\audio/english_25.wav,"[[  0.          -3.04072315]
 [  0.1         -7.71178933]
 [  0.2        -42.18636208]
 [  0.3        -34.45077435]
 [  0.4        -84.66227969]
 [  0.5        -92.64439035]
 [  0.6        -61.14666871]
 [  0.7         -3.59823801]
 [  0.8        -55.86599887]
 [  0.9         70.71897097]
 [  1.         -41.59717756]
 [  1.09391667  45.33564492]]","[[0.         0.82619881]
 [0.1        0.19533878]
 [0.2        1.08277914]
 [0.3        1.14412535]
 [0.4        1.20529311]
 [0.5        1.74650044]
 [0.6        0.43899038]
 [0.7        0.82830315]
 [0.8        0.29447237]
 [0.9        0.99577412]
 [1.         1.79017757]
 [1.09391667 1.70871786]]",0,0.175
8734529389,f,24,english,5,4,english,2024-02-01 10:33:19.008934,False,1,80,sounds\english\audio/english_182.wav,"[[  0.         -33.72839549]
 [  0.1         71.95583488]
 [  0.2         93.77497833]
 [  0.3        -96.3431589 ]
 [  0.4        -58.26438495]
 [  0.5         40.50395066]
 [  0.6        -57.53982371]
 [  0.7         19.26336492]
 [  0.8         53.61678759]
 [  0.9         33.80250156]
 [  1.          47.27321227]
 [  1.09391667  72.04949346]]","[[0.         0.64170462]
 [0.1        0.46910546]
 [0.2        1.36329359]
 [0.3        1.23106937]
 [0.4        1.40247691]
 [0.5        0.60520266]
 [0.6        0.0944441 ]
 [0.7        0.39825095]
 [0.8        0.94728121]
 [0.9        0.19803834]
 [1.         1.21672532]
 [1.09391667 0.20681806]]",1,0.237
8734529389,f,24,english,5,4,english,2024-02-01 10:33:19.008934,False,1,81,sounds\english\audio/english_493.wav,"[[  0.          -8.91567992]
 [  0.1         -2.81052192]
 [  0.2          0.93987988]
 [  0.3        -44.0664777 ]
 [  0.4         12.64172921]
 [  0.5         38.10396852]
 [  0.6         51.1275002 ]
 [  0.7        -51.72089694]
 [  0.8        -22.89469136]
 [  0.9         55.14015253]
 [  1.          69.89984763]
 [  1.09391667   7.83521283]]","[[0.         0.90906845]
 [0.1        1.82277729]
 [0.2        1.85575617]
 [0.3        0.198144  ]
 [0.4        0.31833397]
 [0.5        0.16370317]
 [0.6        0.48830507]
 [0.7        0.59724282]
 [0.8        0.45798431]
 [0.9        1.24461858]
 [1.         1.33195334]
 [1.09391667 1.92068406]]",0,0.062
8734529389,f,24,english,5,4,english,2024-02-01 10:33:19.008934,False,1,82,sounds\english\audio/english_596.wav,"[[  0.         -42.68859768]
 [  0.1         67.29414518]
 [  0.2        -56.57562289]
 [  0.3         71.30769152]
 [  0.4         95.1886681 ]
 [  0.5         72.69751936]
 [  0.6         62.43561612]
 [  0.7        -87.58634469]
 [  0.8        -28.77393345]
 [  0.9        -89.27970112]
 [  1.         -11.13754725]
 [  1.09391667 -71.54799937]]","[[0.         1.28071693]
 [0.1        0.77411838]
 [0.2        1.32627092]
 [0.3        0.49089119]
 [0.4        0.72473062]
 [0.5        1.52798236]
 [0.6        1.79088814]
 [0.7        1.96984618]
 [0.8        1.38508216]
 [0.9        1.05217053]
 [1.         1.15113027]
 [1.09391667 0.49767302]]",1,0.086
8734529389,f,24,english,5,4,english,2024-02-01 10:33:19.008934,False,1,83,sounds\english\audio/english_733.wav,"[[  0.          60.12911829]
 [  0.1         -6.07350544]
 [  0.2        -97.34447637]
 [  0.3         13.91289177]
 [  0.4         24.58615212]
 [  0.5         -0.46947401]
 [  0.6        -95.42432467]
 [  0.7        -12.42368325]
 [  0.8        -68.21201108]
 [  0.9         80.23434779]
 [  1.          37.72859174]
 [  1.09391667  99.34819771]]","[[0.         1.17715688]
 [0.1        0.73101999]
 [0.2        0.23762906]
 [0.3        0.47801532]
 [0.4        1.00660929]
 [0.5        0.69954151]
 [0.6        0.66296436]
 [0.7        0.8353001 ]
 [0.8        0.93210743]
 [0.9        0.7426454 ]
 [1.         1.31979312]
 [1.09391667 0.72211033]]",0,0.068
8734529389,f,24,english,5,4,english,2024-02-01 10:33:19.008934,False,1,84,sounds\english\audio/english_263.wav,"[[  0.          60.54836266]
 [  0.1         -7.25947701]
 [  0.2         57.3147166 ]
 [  0.3        -54.27216299]
 [  0.4        -55.29215067]
 [  0.5        -35.67260064]
 [  0.6         64.27930659]
 [  0.7         39.11312223]
 [  0.8        -36.26628423]
 [  0.9         24.26738527]
 [  1.          43.73514677]
 [  1.09391667 -15.47335433]]","[[0.         0.88286661]
 [0.1        0.15523443]
 [0.2        0.89947763]
 [0.3        1.94594407]
 [0.4        0.36252841]
 [0.5        0.43064253]
 [0.6        0.12649613]
 [0.7        0.99935682]
 [0.8        0.98138808]
 [0.9        1.68351405]
 [1.         0.97417267]
 [1.09391667 0.42659576]]",1,0.138
8734529389,f,24,english,5,4,english,2024-02-01 10:33:19.008934,False,1,85,sounds\english\audio/english_214.wav,"[[  0.          77.66249847]
 [  0.1        -66.26077856]
 [  0.2        -51.4922282 ]
 [  0.3         14.18659261]
 [  0.4        -48.84743407]
 [  0.5         19.47798934]
 [  0.6         30.92446632]
 [  0.7        -20.72955743]
 [  0.8        -84.03788896]
 [  0.9          1.19993411]
 [  1.         -10.67189742]
 [  1.09391667  76.51495677]]","[[0.         1.66443393]
 [0.1        1.37654428]
 [0.2        1.40712663]
 [0.3        0.14412451]
 [0.4        0.91551293]
 [0.5        0.32690142]
 [0.6        1.55465622]
 [0.7        0.81533764]
 [0.8        1.36872512]
 [0.9        0.61257248]
 [1.         1.2492197 ]
 [1.09391667 1.13872638]]",0,0.324
8734529389,f,24,english,5,4,english,2024-02-01 10:33:19.008934,False,1,86,sounds\english\audio/english_972.wav,"[[  0.         -23.39425143]
 [  0.1         35.85055319]
 [  0.2         67.19735569]
 [  0.3        -48.3142237 ]
 [  0.4         98.37530376]
 [  0.5         49.57162288]
 [  0.6         57.60699349]
 [  0.7        -63.06687642]
 [  0.8         66.62148397]
 [  0.9         25.13322135]
 [  1.         -29.0922144 ]
 [  1.09391667 -22.18125143]]","[[0.         1.25085973]
 [0.1        1.0698884 ]
 [0.2        1.90990051]
 [0.3        1.50553478]
 [0.4        1.59397111]
 [0.5        0.74863955]
 [0.6        0.82823128]
 [0.7        0.17780137]
 [0.8        0.09555814]
 [0.9        1.59117444]
 [1.         1.44799229]
 [1.09391667 1.21058423]]",0,0.274
8734529389,f,24,english,5,4,english,2024-02-01 10:33:19.008934,False,1,87,sounds\english\audio/english_756.wav,"[[  0.         -32.70542045]
 [  0.1         62.91454888]
 [  0.2         -9.17678833]
 [  0.3         16.28624283]
 [  0.4        -33.51792534]
 [  0.5         88.01648813]
 [  0.6         62.37064714]
 [  0.7        -52.3683359 ]
 [  0.8         56.37360277]
 [  0.9        -54.86484941]
 [  1.          91.23924333]
 [  1.09391667 -26.61223969]]","[[0.         0.92316539]
 [0.1        0.37547917]
 [0.2        1.92598223]
 [0.3        0.89010875]
 [0.4        0.38662098]
 [0.5        1.17672662]
 [0.6        0.21957896]
 [0.7        1.78953747]
 [0.8        1.89812903]
 [0.9        1.43873799]
 [1.         1.51351367]
 [1.09391667 1.73327561]]",1,1.125
8734529389,f,24,english,5,4,english,2024-02-01 10:33:19.008934,False,1,88,sounds\english\audio/english_355.wav,"[[  0.         -17.98441337]
 [  0.1         -3.7927165 ]
 [  0.2         49.96307457]
 [  0.3        -15.53125152]
 [  0.4        -84.8102411 ]
 [  0.5        -28.25718679]
 [  0.6        -58.3999431 ]
 [  0.7        -22.66304052]
 [  0.8        -95.1511219 ]
 [  0.9         82.90101198]
 [  1.          11.18923061]
 [  1.09391667  39.40210676]]","[[0.         0.63443376]
 [0.1        0.81098104]
 [0.2        0.15990124]
 [0.3        1.19729275]
 [0.4        1.78081856]
 [0.5        0.04344096]
 [0.6        1.99949459]
 [0.7        0.79420627]
 [0.8        0.51429102]
 [0.9        0.31900629]
 [1.         1.55539218]
 [1.09391667 0.94266916]]",1,1.11
8734529389,f,24,english,5,4,english,2024-02-01 10:33:19.008934,False,1,89,sounds\english\audio/english_998.wav,"[[  0.         -83.67346728]
 [  0.1        -68.43297462]
 [  0.2         47.84560439]
 [  0.3         71.43971258]
 [  0.4        -30.40941836]
 [  0.5         69.31214212]
 [  0.6        -95.04564508]
 [  0.7        -61.88405175]
 [  0.8         11.43915949]
 [  0.9         79.6365109 ]
 [  1.          58.29305302]
 [  1.09391667  44.0288717 ]]","[[0.         1.27391906]
 [0.1        0.75913393]
 [0.2        1.02363825]
 [0.3        1.78775676]
 [0.4        0.0961221 ]
 [0.5        1.18933693]
 [0.6        1.9379163 ]
 [0.7        1.91389769]
 [0.8        1.08895614]
 [0.9        1.52042952]
 [1.         0.38016323]
 [1.09391667 1.77799574]]",0,0.143
8734529389,f,24,english,5,4,english,2024-02-01 10:33:19.008934,False,1,90,sounds\english\audio/english_3.wav,"[[  0.          46.12890401]
 [  0.1        -46.79234899]
 [  0.2         43.27356125]
 [  0.3        -72.16670898]
 [  0.4        -20.43688573]
 [  0.5         47.47685518]
 [  0.6        -99.10404807]
 [  0.7         26.000254  ]
 [  0.8         -7.26217139]
 [  0.9        -22.74562987]
 [  1.         -68.2177704 ]
 [  1.09391667  25.12417325]]","[[0.         1.26973721]
 [0.1        0.81563074]
 [0.2        1.94124466]
 [0.3        0.70667384]
 [0.4        1.08403016]
 [0.5        0.3642344 ]
 [0.6        0.99174199]
 [0.7        0.55041702]
 [0.8        0.75824974]
 [0.9        0.866985  ]
 [1.         1.56473108]
 [1.09391667 0.96011667]]",1,0.346
8734529389,f,24,english,5,4,english,2024-02-01 10:33:19.008934,False,1,91,sounds\english\audio/english_908.wav,"[[  0.          79.90322555]
 [  0.1        -35.21263137]
 [  0.2        -45.3814443 ]
 [  0.3         27.76250809]
 [  0.4         88.9030614 ]
 [  0.5        -61.85553308]
 [  0.6        -81.1964681 ]
 [  0.7          5.34087676]
 [  0.8         54.78811936]
 [  0.9        -31.27071111]
 [  1.         -53.95963771]
 [  1.09391667  80.48331988]]","[[0.         1.59871196]
 [0.1        0.28479508]
 [0.2        1.09874794]
 [0.3        0.00174433]
 [0.4        0.67512833]
 [0.5        0.00194264]
 [0.6        0.8304753 ]
 [0.7        1.28348369]
 [0.8        0.55017108]
 [0.9        1.59638521]
 [1.         1.63592826]
 [1.09391667 1.14767612]]",0,1.375
8734529389,f,24,english,5,4,english,2024-02-01 10:33:19.008934,False,1,92,sounds\english\audio/english_871.wav,"[[  0.         -17.51935002]
 [  0.1         48.49295959]
 [  0.2         58.25436474]
 [  0.3         19.88257457]
 [  0.4         50.10507231]
 [  0.5        -56.4846044 ]
 [  0.6        -59.75963758]
 [  0.7        -99.92210917]
 [  0.8        -47.06603955]
 [  0.9        -51.36141327]
 [  1.         -80.2024198 ]
 [  1.09391667 -23.03879421]]","[[0.         0.96351457]
 [0.1        1.65140424]
 [0.2        0.10129148]
 [0.3        1.12009066]
 [0.4        1.6763055 ]
 [0.5        1.91634806]
 [0.6        0.79788864]
 [0.7        1.02975972]
 [0.8        0.06596749]
 [0.9        0.92212705]
 [1.         1.99068199]
 [1.09391667 0.00440735]]",0,1.288
8734529389,f,24,english,5,4,english,2024-02-01 10:33:19.008934,False,1,93,sounds\english\audio/english_509.wav,"[[  0.         -60.47633283]
 [  0.1         62.43182062]
 [  0.2        -89.10254598]
 [  0.3        -56.00324349]
 [  0.4        -22.97503075]
 [  0.5        -10.58010289]
 [  0.6         41.52809509]
 [  0.7         11.42336317]
 [  0.8        -33.49389875]
 [  0.9        -76.54160855]
 [  1.          67.53120636]
 [  1.09391667  52.42137891]]","[[0.         1.8433091 ]
 [0.1        0.67753575]
 [0.2        0.6228286 ]
 [0.3        1.20175852]
 [0.4        0.68327781]
 [0.5        1.6981399 ]
 [0.6        1.77808046]
 [0.7        0.9915964 ]
 [0.8        1.58247003]
 [0.9        0.51702523]
 [1.         1.67242009]
 [1.09391667 0.41732509]]",1,0.028
8734529389,f,24,english,5,4,english,2024-02-01 10:33:19.008934,False,1,94,sounds\english\audio/english_167.wav,"[[  0.          24.63183347]
 [  0.1         13.73246145]
 [  0.2        -60.43880616]
 [  0.3          7.09789875]
 [  0.4        -33.19551678]
 [  0.5         95.64356753]
 [  0.6        -14.26788655]
 [  0.7         66.37452918]
 [  0.8         21.11990371]
 [  0.9         91.73440173]
 [  1.          98.54474933]
 [  1.09391667  47.66166762]]","[[0.         0.27443004]
 [0.1        1.84171745]
 [0.2        1.67288004]
 [0.3        0.06788145]
 [0.4        0.85380936]
 [0.5        0.74095746]
 [0.6        0.50118345]
 [0.7        0.34417323]
 [0.8        0.18827799]
 [0.9        1.5764248 ]
 [1.         1.57665407]
 [1.09391667 0.79567252]]",0,0.027
8734529389,f,24,english,5,4,english,2024-02-01 10:33:19.008934,False,1,95,sounds\english\audio/english_93.wav,"[[  0.          -5.64044051]
 [  0.1        -71.62427253]
 [  0.2         44.8568839 ]
 [  0.3         13.73699883]
 [  0.4         -9.51130818]
 [  0.5         25.73719345]
 [  0.6         -9.54816374]
 [  0.7        -99.85495199]
 [  0.8         26.311999  ]
 [  0.9         37.40170351]
 [  1.         -54.32300287]
 [  1.09391667 -13.38941708]]","[[0.         0.93985767]
 [0.1        1.9578989 ]
 [0.2        1.04309205]
 [0.3        1.22075438]
 [0.4        1.24468343]
 [0.5        1.1802762 ]
 [0.6        1.78615262]
 [0.7        1.82361192]
 [0.8        0.83873706]
 [0.9        1.41980792]
 [1.         0.16266534]
 [1.09391667 1.86742119]]",1,0.233
8734529389,f,24,english,5,4,english,2024-02-01 10:33:19.008934,False,1,96,sounds\english\audio/english_604.wav,"[[  0.          -7.32786977]
 [  0.1        -57.46968162]
 [  0.2        -51.48206507]
 [  0.3         77.63466913]
 [  0.4         45.22839705]
 [  0.5        -27.78980975]
 [  0.6        -14.67402927]
 [  0.7         66.92200223]
 [  0.8         44.7359597 ]
 [  0.9         87.34456413]
 [  1.          37.61860755]
 [  1.09391667  91.85438616]]","[[0.         0.45756233]
 [0.1        0.00297482]
 [0.2        1.19670532]
 [0.3        0.65081773]
 [0.4        0.22469511]
 [0.5        0.33338284]
 [0.6        1.91381058]
 [0.7        0.36993011]
 [0.8        1.21459689]
 [0.9        1.1126352 ]
 [1.         1.39772335]
 [1.09391667 1.16252792]]",1,0.087
8734529389,f,24,english,5,4,english,2024-02-01 10:33:19.008934,False,1,97,sounds\english\audio/english_745.wav,"[[  0.         -47.9537983 ]
 [  0.1         10.59664377]
 [  0.2          3.22121318]
 [  0.3         66.38489409]
 [  0.4        -85.62638025]
 [  0.5         53.0870989 ]
 [  0.6         37.88737288]
 [  0.7        -50.87104403]
 [  0.8        -30.17524051]
 [  0.9         42.29036925]
 [  1.           6.95263715]
 [  1.09391667  -3.81320325]]","[[0.         1.262874  ]
 [0.1        0.45595153]
 [0.2        1.90154411]
 [0.3        1.18935698]
 [0.4        0.53454894]
 [0.5        0.07115633]
 [0.6        0.91558947]
 [0.7        0.71993263]
 [0.8        0.93591694]
 [0.9        0.99723137]
 [1.         0.85978939]
 [1.09391667 0.69941736]]",0,0.964
8734529389,f,24,english,5,4,english,2024-02-01 10:33:19.008934,False,1,98,sounds\english\audio/english_499.wav,"[[  0.          -7.75302897]
 [  0.1         23.88086762]
 [  0.2         -0.54854112]
 [  0.3         11.38417001]
 [  0.4         76.48373601]
 [  0.5         34.68075028]
 [  0.6        -14.34298834]
 [  0.7         26.82043511]
 [  0.8         60.32593039]
 [  0.9        -38.40765739]
 [  1.           7.55243951]
 [  1.09391667 -96.29085545]]","[[0.         0.29368166]
 [0.1        1.58141682]
 [0.2        0.68322719]
 [0.3        1.0607803 ]
 [0.4        0.5459371 ]
 [0.5        1.82829661]
 [0.6        1.23009433]
 [0.7        1.38131853]
 [0.8        0.45099226]
 [0.9        1.79672484]
 [1.         0.11050545]
 [1.09391667 0.98124995]]",0,1.262
8734529389,f,24,english,5,4,english,2024-02-01 10:33:19.008934,False,1,99,sounds\english\audio/english_368.wav,"[[  0.         -21.74410199]
 [  0.1        -54.46820056]
 [  0.2         36.37288824]
 [  0.3         28.79669065]
 [  0.4         64.63914759]
 [  0.5        -47.48725989]
 [  0.6        -56.63725257]
 [  0.7        -15.67963737]
 [  0.8        -67.03077711]
 [  0.9        -87.98164929]
 [  1.          66.360443  ]
 [  1.09391667  86.76512067]]","[[0.         1.11444004]
 [0.1        1.02689489]
 [0.2        1.84847876]
 [0.3        1.32768322]
 [0.4        1.2143292 ]
 [0.5        1.4175641 ]
 [0.6        0.26859899]
 [0.7        1.20913194]
 [0.8        0.71725489]
 [0.9        0.61705061]
 [1.         1.87423649]
 [1.09391667 0.90814369]]",1,0.845
8734529389,f,24,english,5,4,english,2024-02-01 10:33:19.008934,False,1,100,sounds\english\audio/english_582.wav,"[[  0.         -92.78340469]
 [  0.1         42.51344298]
 [  0.2        -42.63495555]
 [  0.3         52.58085474]
 [  0.4        -78.11848263]
 [  0.5        -34.20952238]
 [  0.6        -86.64412457]
 [  0.7         26.30632387]
 [  0.8        -34.45754989]
 [  0.9        -45.78416277]
 [  1.         -16.65162857]
 [  1.09391667   7.21919156]]","[[0.         1.00518837]
 [0.1        1.30114299]
 [0.2        1.27031636]
 [0.3        1.12025144]
 [0.4        0.79798268]
 [0.5        0.6293022 ]
 [0.6        1.95773952]
 [0.7        0.97092523]
 [0.8        1.38286632]
 [0.9        1.31952832]
 [1.         1.84309931]
 [1.09391667 1.34013439]]",0,1.447
8734529389,f,24,english,5,4,english,2024-02-01 10:33:19.008934,False,1,101,sounds\english\audio/english_513.wav,"[[  0.          69.69423026]
 [  0.1        -61.65221054]
 [  0.2         12.06620713]
 [  0.3         68.31024972]
 [  0.4         74.12641094]
 [  0.5          6.77833978]
 [  0.6         -4.07072349]
 [  0.7        -75.18978196]
 [  0.8        -25.44315508]
 [  0.9          1.64473536]
 [  1.         -82.34234751]
 [  1.09391667 -17.87879592]]","[[0.         1.14751405]
 [0.1        0.70036193]
 [0.2        1.7124885 ]
 [0.3        0.98016869]
 [0.4        0.11366006]
 [0.5        0.43979592]
 [0.6        1.91776754]
 [0.7        0.49107068]
 [0.8        0.92055325]
 [0.9        0.8410121 ]
 [1.         0.34671239]
 [1.09391667 1.52659427]]",0,0.091
8734529389,f,24,english,5,4,english,2024-02-01 10:33:19.008934,False,1,102,sounds\english\audio/english_539.wav,"[[  0.         -94.17846062]
 [  0.1         -5.02019603]
 [  0.2        -69.32919076]
 [  0.3         80.71922828]
 [  0.4        -44.41930109]
 [  0.5         60.55312323]
 [  0.6        -22.38704472]
 [  0.7         42.18310052]
 [  0.8         -3.23406116]
 [  0.9         86.87834775]
 [  1.          -2.56962664]
 [  1.09391667  13.84279534]]","[[0.         0.79705309]
 [0.1        0.75034459]
 [0.2        1.92009714]
 [0.3        1.69419261]
 [0.4        1.08134057]
 [0.5        0.26247587]
 [0.6        1.40392738]
 [0.7        0.38201887]
 [0.8        1.79513964]
 [0.9        0.10058598]
 [1.         1.19776684]
 [1.09391667 1.72675702]]",1,1.963
8734529389,f,24,english,5,4,english,2024-02-01 10:33:19.008934,False,1,103,sounds\english\audio/english_324.wav,"[[  0.          17.54140289]
 [  0.1         71.06846472]
 [  0.2        -58.0756972 ]
 [  0.3         21.96350357]
 [  0.4          8.51736718]
 [  0.5         54.10034556]
 [  0.6        -45.23490782]
 [  0.7        -47.50195247]
 [  0.8         90.23201078]
 [  0.9        -25.79699052]
 [  1.         -46.49971987]
 [  1.09391667  53.98083149]]","[[0.         0.28643924]
 [0.1        0.89310243]
 [0.2        0.19434283]
 [0.3        1.40300385]
 [0.4        0.22031138]
 [0.5        1.10087032]
 [0.6        0.61239123]
 [0.7        0.50887139]
 [0.8        1.93720132]
 [0.9        1.9219801 ]
 [1.         0.58550327]
 [1.09391667 0.44963146]]",0,0.344
8734529389,f,24,english,5,4,english,2024-02-01 10:33:19.008934,False,1,104,sounds\english\audio/english_431.wav,"[[  0.          80.69254561]
 [  0.1        -59.39729579]
 [  0.2         32.8562558 ]
 [  0.3        -22.29744676]
 [  0.4         31.71546531]
 [  0.5         26.68689131]
 [  0.6        -67.6485219 ]
 [  0.7         27.20384073]
 [  0.8        -89.82269949]
 [  0.9        -57.22282633]
 [  1.          66.80474658]
 [  1.09391667  -8.50085654]]","[[0.         1.28844059]
 [0.1        0.02904499]
 [0.2        0.95132877]
 [0.3        1.51616745]
 [0.4        1.13295381]
 [0.5        0.76516543]
 [0.6        0.83201004]
 [0.7        0.376561  ]
 [0.8        1.59621374]
 [0.9        0.7949968 ]
 [1.         1.43069985]
 [1.09391667 0.47836789]]",1,0.067
8734529389,f,24,english,5,4,english,2024-02-01 10:33:19.008934,False,1,105,sounds\english\audio/english_983.wav,"[[  0.         -50.22823897]
 [  0.1         -4.67437073]
 [  0.2        -31.6094098 ]
 [  0.3         25.42275216]
 [  0.4         79.9624674 ]
 [  0.5         11.84827872]
 [  0.6        -53.41316004]
 [  0.7         -2.37481813]
 [  0.8         81.38125647]
 [  0.9        -62.03068284]
 [  1.         -64.21224493]
 [  1.09391667  38.19793451]]","[[0.         0.88633634]
 [0.1        1.28034271]
 [0.2        0.94172266]
 [0.3        0.73344406]
 [0.4        1.78223604]
 [0.5        1.04715588]
 [0.6        1.93599287]
 [0.7        0.44413806]
 [0.8        0.67013669]
 [0.9        1.03528206]
 [1.         0.12422577]
 [1.09391667 1.50859084]]",0,0.403
8734529389,f,24,english,5,4,english,2024-02-01 10:33:19.008934,False,1,106,sounds\english\audio/english_15.wav,"[[  0.          62.7654015 ]
 [  0.1         72.90081021]
 [  0.2        -27.13813981]
 [  0.3         46.15025154]
 [  0.4         82.82691944]
 [  0.5        -11.77094526]
 [  0.6          7.10565833]
 [  0.7         95.94707331]
 [  0.8         45.63799677]
 [  0.9        -92.00814549]
 [  1.          63.89035204]
 [  1.09391667   2.5390803 ]]","[[0.         0.64461989]
 [0.1        0.87486851]
 [0.2        0.76068215]
 [0.3        1.07697628]
 [0.4        1.41242613]
 [0.5        0.34527471]
 [0.6        1.49976623]
 [0.7        0.60499577]
 [0.8        1.54166411]
 [0.9        0.43181907]
 [1.         1.01946416]
 [1.09391667 1.42183406]]",1,0.236
8734529389,f,24,english,5,4,english,2024-02-01 10:33:19.008934,False,1,107,sounds\english\audio/english_201.wav,"[[  0.          38.80737773]
 [  0.1        -19.59989916]
 [  0.2         66.60738163]
 [  0.3        -56.04483053]
 [  0.4         70.74519799]
 [  0.5        -47.08782515]
 [  0.6        -82.17312899]
 [  0.7          4.63557835]
 [  0.8         13.50311248]
 [  0.9         50.05274214]
 [  1.         -76.13616328]
 [  1.09391667   8.54722281]]","[[0.         0.9006916 ]
 [0.1        0.40577957]
 [0.2        0.32844259]
 [0.3        1.02628552]
 [0.4        1.24548515]
 [0.5        0.07505998]
 [0.6        0.1226459 ]
 [0.7        1.79532837]
 [0.8        1.69109423]
 [0.9        0.91883167]
 [1.         0.81807561]
 [1.09391667 1.88316121]]",0,0.245
8734529389,f,24,english,5,4,english,2024-02-01 10:33:19.008934,False,1,108,sounds\english\audio/english_466.wav,"[[  0.          29.78122055]
 [  0.1          1.00212309]
 [  0.2         84.88341441]
 [  0.3         18.0671926 ]
 [  0.4        -63.20091068]
 [  0.5         -1.15346207]
 [  0.6         -1.70645236]
 [  0.7         37.24590025]
 [  0.8        -40.92862731]
 [  0.9        -58.08317272]
 [  1.         -59.75718078]
 [  1.09391667  13.82760032]]","[[0.         0.08614047]
 [0.1        0.60651355]
 [0.2        0.95660543]
 [0.3        0.08485907]
 [0.4        0.78105645]
 [0.5        0.10730209]
 [0.6        1.7980607 ]
 [0.7        1.48241485]
 [0.8        0.1626415 ]
 [0.9        1.43527927]
 [1.         0.97707475]
 [1.09391667 1.6467926 ]]",1,0.915
8734529389,f,24,english,5,4,english,2024-02-01 10:33:19.008934,False,1,109,sounds\english\audio/english_180.wav,"[[  0.          42.85478744]
 [  0.1         11.60642133]
 [  0.2        -27.38772625]
 [  0.3         80.41560742]
 [  0.4        -67.11843031]
 [  0.5         25.47679572]
 [  0.6         29.48556379]
 [  0.7        -62.53851543]
 [  0.8        -49.48041885]
 [  0.9         29.80835172]
 [  1.          83.85336689]
 [  1.09391667 -22.17498974]]","[[0.         0.49645543]
 [0.1        1.40377655]
 [0.2        0.70453688]
 [0.3        1.01697082]
 [0.4        0.59692665]
 [0.5        0.43242047]
 [0.6        0.65503898]
 [0.7        1.14916488]
 [0.8        0.12826618]
 [0.9        1.82068044]
 [1.         1.93281092]
 [1.09391667 1.38105191]]",0,0.054
8734529389,f,24,english,5,4,english,2024-02-01 10:33:19.008934,False,1,110,sounds\english\audio/english_224.wav,"[[  0.         -78.61506242]
 [  0.1         50.32903383]
 [  0.2         13.41609495]
 [  0.3        -65.62214638]
 [  0.4        -58.93648778]
 [  0.5         72.28111683]
 [  0.6        -46.77069374]
 [  0.7        -90.37193795]
 [  0.8         -0.43339445]
 [  0.9        -45.45823975]
 [  1.         -68.1553756 ]
 [  1.09391667 -50.27313826]]","[[0.         0.96291184]
 [0.1        1.02849412]
 [0.2        1.48046057]
 [0.3        0.95403391]
 [0.4        0.16536285]
 [0.5        1.42811474]
 [0.6        0.74831178]
 [0.7        1.44512366]
 [0.8        1.0370843 ]
 [0.9        0.73747726]
 [1.         0.53686902]
 [1.09391667 1.24590757]]",1,0.014
8734529389,f,24,english,5,4,english,2024-02-01 10:33:19.008934,False,1,111,sounds\english\audio/english_171.wav,"[[  0.          57.16640714]
 [  0.1         74.54839728]
 [  0.2         95.75678202]
 [  0.3         39.99051632]
 [  0.4         -6.66803256]
 [  0.5        -11.42556478]
 [  0.6        -61.08204703]
 [  0.7        -47.00718825]
 [  0.8        -62.88052724]
 [  0.9        -55.43761186]
 [  1.         -25.22707532]
 [  1.09391667  72.94956576]]","[[0.         0.48953769]
 [0.1        1.15474794]
 [0.2        1.06369724]
 [0.3        0.94070076]
 [0.4        0.05995963]
 [0.5        0.94038212]
 [0.6        1.30766084]
 [0.7        1.96472455]
 [0.8        0.35350446]
 [0.9        0.65278216]
 [1.         1.06452254]
 [1.09391667 0.49293676]]",1,0.571
8734529389,f,24,english,5,4,english,2024-02-01 10:33:19.008934,False,1,112,sounds\english\audio/english_895.wav,"[[  0.         -68.00198949]
 [  0.1        -51.96003104]
 [  0.2        -27.5678987 ]
 [  0.3          1.37769692]
 [  0.4        -19.54713895]
 [  0.5         32.4870356 ]
 [  0.6         73.95431589]
 [  0.7        -60.0683904 ]
 [  0.8        -32.74215808]
 [  0.9        -18.7791301 ]
 [  1.           4.0520504 ]
 [  1.09391667  54.70777064]]","[[0.         0.4596857 ]
 [0.1        1.9086695 ]
 [0.2        1.58013593]
 [0.3        1.02012083]
 [0.4        0.3764367 ]
 [0.5        0.56957954]
 [0.6        0.55471434]
 [0.7        1.19362941]
 [0.8        1.07008524]
 [0.9        0.94538114]
 [1.         0.21197649]
 [1.09391667 1.70514148]]",0,0.418
8734529389,f,24,english,5,4,english,2024-02-01 10:33:19.008934,False,1,113,sounds\english\audio/english_733.wav,"[[  0.          60.12911829]
 [  0.1         -6.07350544]
 [  0.2        -97.34447637]
 [  0.3         13.91289177]
 [  0.4         24.58615212]
 [  0.5         -0.46947401]
 [  0.6        -95.42432467]
 [  0.7        -12.42368325]
 [  0.8        -68.21201108]
 [  0.9         80.23434779]
 [  1.          37.72859174]
 [  1.09391667  99.34819771]]","[[0.         1.17715688]
 [0.1        0.73101999]
 [0.2        0.23762906]
 [0.3        0.47801532]
 [0.4        1.00660929]
 [0.5        0.69954151]
 [0.6        0.66296436]
 [0.7        0.8353001 ]
 [0.8        0.93210743]
 [0.9        0.7426454 ]
 [1.         1.31979312]
 [1.09391667 0.72211033]]",0,0.394
8734529389,f,24,english,5,4,english,2024-02-01 10:33:19.008934,False,1,114,sounds\english\audio/english_38.wav,"[[  0.          84.84297862]
 [  0.1        -41.13766339]
 [  0.2         31.0243005 ]
 [  0.3         51.71643077]
 [  0.4        -15.52187673]
 [  0.5         37.47478577]
 [  0.6         27.01527087]
 [  0.7         44.60136097]
 [  0.8        -52.37417606]
 [  0.9        -48.58777174]
 [  1.           7.20305444]
 [  1.09391667 -74.66052111]]","[[0.         0.12127835]
 [0.1        0.39553601]
 [0.2        1.29400733]
 [0.3        0.38578685]
 [0.4        0.67216324]
 [0.5        0.61922356]
 [0.6        0.0538602 ]
 [0.7        0.56901487]
 [0.8        1.28646438]
 [0.9        0.80149466]
 [1.         1.28981754]
 [1.09391667 0.46742112]]",0,0.5
8734529389,f,24,english,5,4,english,2024-02-01 10:33:19.008934,False,1,115,sounds\english\audio/english_805.wav,"[[  0.          19.24000096]
 [  0.1        -57.56428934]
 [  0.2        -17.74165003]
 [  0.3         94.45114709]
 [  0.4         58.80414928]
 [  0.5         15.95265091]
 [  0.6        -64.01744173]
 [  0.7        -39.81720589]
 [  0.8         48.58222908]
 [  0.9         79.1348353 ]
 [  1.          66.03274921]
 [  1.09391667 -37.34721406]]","[[0.         0.52175854]
 [0.1        1.45107426]
 [0.2        1.66296684]
 [0.3        1.339528  ]
 [0.4        1.45905309]
 [0.5        0.95701688]
 [0.6        0.10004415]
 [0.7        1.33408917]
 [0.8        0.26158276]
 [0.9        0.78316965]
 [1.         0.77046412]
 [1.09391667 0.38567889]]",1,0.509
8734529389,f,24,english,5,4,english,2024-02-01 10:33:19.008934,False,1,116,sounds\english\audio/english_927.wav,"[[  0.         -59.83926294]
 [  0.1        -55.07345908]
 [  0.2         23.01792414]
 [  0.3         79.95942336]
 [  0.4        -17.18079026]
 [  0.5        -63.61008443]
 [  0.6         89.30642255]
 [  0.7        -30.45736296]
 [  0.8        -34.22678019]
 [  0.9        -97.1214348 ]
 [  1.         -70.92857542]
 [  1.09391667  48.94211635]]","[[0.         0.47046778]
 [0.1        0.3359419 ]
 [0.2        0.47092449]
 [0.3        0.24313159]
 [0.4        1.33138527]
 [0.5        0.70267187]
 [0.6        1.06517667]
 [0.7        1.53858916]
 [0.8        0.26895536]
 [0.9        1.04309053]
 [1.         1.24996871]
 [1.09391667 1.20293368]]",1,0.577
8734529389,f,24,english,5,4,english,2024-02-01 10:33:19.008934,False,1,117,sounds\english\audio/english_233.wav,"[[  0.         -12.45233214]
 [  0.1        -33.20786902]
 [  0.2         -3.84628349]
 [  0.3         52.58812425]
 [  0.4        -82.78729146]
 [  0.5        -90.93928836]
 [  0.6         91.49342166]
 [  0.7         39.27925393]
 [  0.8         -0.66571259]
 [  0.9         50.1456693 ]
 [  1.          -6.64277825]
 [  1.09391667   8.91074874]]","[[0.         1.31283544]
 [0.1        0.09471032]
 [0.2        1.88233627]
 [0.3        1.21028248]
 [0.4        0.9101705 ]
 [0.5        1.74264946]
 [0.6        1.34024886]
 [0.7        0.33883292]
 [0.8        1.35075989]
 [0.9        1.4470152 ]
 [1.         1.15231478]
 [1.09391667 1.87164883]]",0,0.019
8734529389,f,24,english,5,4,english,2024-02-01 10:33:19.008934,False,1,118,sounds\english\audio/english_452.wav,"[[  0.         -16.61864147]
 [  0.1        -22.13078498]
 [  0.2        -16.24569285]
 [  0.3          2.20276296]
 [  0.4         38.28427002]
 [  0.5        -18.79047659]
 [  0.6         78.89075327]
 [  0.7         92.92821396]
 [  0.8         97.94945302]
 [  0.9         87.69669084]
 [  1.          59.46975303]
 [  1.09391667  33.32060313]]","[[0.         1.17401117]
 [0.1        0.56539659]
 [0.2        0.39679082]
 [0.3        1.32249954]
 [0.4        1.17645405]
 [0.5        1.63330715]
 [0.6        1.91411401]
 [0.7        1.71360753]
 [0.8        1.56668356]
 [0.9        1.33916848]
 [1.         0.94959461]
 [1.09391667 0.70317006]]",1,0.501
8734529389,f,24,english,5,4,english,2024-02-01 10:33:19.008934,False,1,119,sounds\english\audio/english_834.wav,"[[  0.         -86.16375599]
 [  0.1        -22.09919923]
 [  0.2         63.82090938]
 [  0.3         38.26115817]
 [  0.4         15.19654457]
 [  0.5         78.054871  ]
 [  0.6         63.1081572 ]
 [  0.7         43.43236214]
 [  0.8        -74.3897683 ]
 [  0.9         40.24285486]
 [  1.         -67.71571624]
 [  1.09391667  40.03958616]]","[[0.         1.62153397]
 [0.1        1.42577166]
 [0.2        1.22840095]
 [0.3        1.977843  ]
 [0.4        0.63466945]
 [0.5        1.94429469]
 [0.6        0.531594  ]
 [0.7        1.34157161]
 [0.8        1.32269287]
 [0.9        1.75386624]
 [1.         1.01238939]
 [1.09391667 1.44306133]]",0,0.231
8734529389,f,24,english,5,4,english,2024-02-01 10:33:19.008934,False,1,120,sounds\english\audio/english_782.wav,"[[  0.         -78.57843069]
 [  0.1         18.46693427]
 [  0.2         97.99884289]
 [  0.3         62.25752433]
 [  0.4         52.39970151]
 [  0.5        -14.50018957]
 [  0.6        -27.56562213]
 [  0.7         45.71631019]
 [  0.8        -34.89121843]
 [  0.9         23.54778787]
 [  1.         -69.46242817]
 [  1.09391667  95.32757353]]","[[0.         1.03549732]
 [0.1        1.37171195]
 [0.2        0.49308363]
 [0.3        1.45239523]
 [0.4        1.75992902]
 [0.5        1.61112401]
 [0.6        0.55174203]
 [0.7        1.83852108]
 [0.8        1.53242335]
 [0.9        0.19128353]
 [1.         0.08422805]
 [1.09391667 0.55022533]]",0,0.88
8734529389,f,24,english,5,4,english,2024-02-01 10:33:19.008934,False,1,121,sounds\english\audio/english_646.wav,"[[  0.         -72.16367523]
 [  0.1         89.23048569]
 [  0.2          3.93643173]
 [  0.3         32.33211102]
 [  0.4         57.94131679]
 [  0.5          3.36702109]
 [  0.6         61.97454592]
 [  0.7        -38.94515992]
 [  0.8         18.02819855]
 [  0.9         -7.01403953]
 [  1.          22.99913436]
 [  1.09391667 -15.24744046]]","[[0.         1.23252036]
 [0.1        0.41153547]
 [0.2        1.30500866]
 [0.3        0.16779894]
 [0.4        1.44956343]
 [0.5        0.43462   ]
 [0.6        1.17161273]
 [0.7        1.33009112]
 [0.8        1.9601355 ]
 [0.9        1.16018484]
 [1.         0.4872476 ]
 [1.09391667 0.4931797 ]]",0,0.395
8734529389,f,24,english,5,4,english,2024-02-01 10:33:19.008934,False,1,122,sounds\english\audio/english_624.wav,"[[  0.          34.76400378]
 [  0.1        -36.42076645]
 [  0.2        -52.38985079]
 [  0.3         98.14853718]
 [  0.4         97.5674754 ]
 [  0.5        -80.04687885]
 [  0.6         -8.81047571]
 [  0.7        -78.45129318]
 [  0.8         39.54454361]
 [  0.9         32.62160332]
 [  1.         -98.98158135]
 [  1.09391667  19.08613563]]","[[0.         1.78994994]
 [0.1        1.4795907 ]
 [0.2        1.80721514]
 [0.3        1.70059719]
 [0.4        0.69719837]
 [0.5        1.37290399]
 [0.6        1.53741575]
 [0.7        1.54350611]
 [0.8        0.49170725]
 [0.9        1.04663897]
 [1.         0.63020253]
 [1.09391667 0.96318783]]",1,0.423
8734529389,f,24,english,5,4,english,2024-02-01 10:33:19.008934,False,1,123,sounds\english\audio/english_759.wav,"[[  0.         -17.33169853]
 [  0.1         46.34111356]
 [  0.2        -71.7209183 ]
 [  0.3        -52.63168455]
 [  0.4        -68.41292565]
 [  0.5          0.91746702]
 [  0.6         12.19475856]
 [  0.7         76.90509926]
 [  0.8         46.23586418]
 [  0.9         20.85455152]
 [  1.         -48.8693925 ]
 [  1.09391667  -3.22971396]]","[[0.         1.81535326]
 [0.1        1.35139774]
 [0.2        0.5699054 ]
 [0.3        1.64756314]
 [0.4        0.90731091]
 [0.5        0.92295566]
 [0.6        0.56476821]
 [0.7        1.11964502]
 [0.8        0.03868528]
 [0.9        0.66706937]
 [1.         1.91928995]
 [1.09391667 0.4347557 ]]",0,0.533
8734529389,f,24,english,5,4,english,2024-02-01 10:33:19.008934,False,1,124,sounds\english\audio/english_608.wav,"[[  0.          51.7664081 ]
 [  0.1        -80.54246428]
 [  0.2        -77.98130797]
 [  0.3         25.40612748]
 [  0.4        -25.13261416]
 [  0.5        -47.23330204]
 [  0.6         80.77508225]
 [  0.7        -91.19719701]
 [  0.8        -56.07696763]
 [  0.9        -57.98593589]
 [  1.          87.03595353]
 [  1.09391667 -36.96026424]]","[[0.         1.51537713]
 [0.1        0.15028224]
 [0.2        1.81254149]
 [0.3        1.88904665]
 [0.4        0.02307613]
 [0.5        1.59293411]
 [0.6        1.34709582]
 [0.7        0.43937258]
 [0.8        1.30698023]
 [0.9        1.72852212]
 [1.         1.13440146]
 [1.09391667 1.09789882]]",0,1.377
8734529389,f,24,english,5,4,english,2024-02-01 10:33:19.008934,False,1,125,sounds\english\audio/english_654.wav,"[[  0.         -60.45158089]
 [  0.1          9.53392367]
 [  0.2         75.34484554]
 [  0.3        -77.95617505]
 [  0.4         45.13912589]
 [  0.5        -50.515313  ]
 [  0.6          9.32431964]
 [  0.7        -34.09762813]
 [  0.8        -21.66012002]
 [  0.9        -34.25563526]
 [  1.          63.7959229 ]
 [  1.09391667 -58.04833316]]","[[0.         1.67384998]
 [0.1        1.95158047]
 [0.2        0.15197486]
 [0.3        1.81249974]
 [0.4        1.69970503]
 [0.5        0.99652043]
 [0.6        0.79094839]
 [0.7        1.33338821]
 [0.8        1.37263534]
 [0.9        0.62767279]
 [1.         1.72608881]
 [1.09391667 0.85441877]]",0,0.29
8734529389,f,24,english,5,4,english,2024-02-01 10:33:19.008934,False,1,126,sounds\english\audio/english_42.wav,"[[  0.         -12.35235723]
 [  0.1        -31.30593397]
 [  0.2         93.22547931]
 [  0.3          3.55661221]
 [  0.4        -65.82574245]
 [  0.5         29.87364381]
 [  0.6        -76.70361056]
 [  0.7        -29.10356368]
 [  0.8        -52.57981462]
 [  0.9          3.2621499 ]
 [  1.         -86.59512904]
 [  1.09391667  39.23696044]]","[[0.         0.89110064]
 [0.1        0.38934259]
 [0.2        1.45440232]
 [0.3        0.25584691]
 [0.4        1.05295351]
 [0.5        0.59087155]
 [0.6        0.12112438]
 [0.7        0.72116868]
 [0.8        0.07340316]
 [0.9        1.9617885 ]
 [1.         0.50342264]
 [1.09391667 1.24684981]]",0,0.187
8734529389,f,24,english,5,4,english,2024-02-01 10:33:19.008934,False,1,127,sounds\english\audio/english_89.wav,"[[  0.          44.55560521]
 [  0.1        -38.12575075]
 [  0.2        -85.08741113]
 [  0.3        -34.51149373]
 [  0.4         91.4200198 ]
 [  0.5        -88.24762839]
 [  0.6        -12.15976794]
 [  0.7          8.11504905]
 [  0.8         48.7516223 ]
 [  0.9        -61.89417078]
 [  1.          70.08039029]
 [  1.09391667  73.1109171 ]]","[[0.         0.83141016]
 [0.1        0.73728779]
 [0.2        0.76468972]
 [0.3        1.40220205]
 [0.4        1.40801955]
 [0.5        0.24508348]
 [0.6        0.73331541]
 [0.7        1.14258486]
 [0.8        0.28719695]
 [0.9        1.82425172]
 [1.         1.66848997]
 [1.09391667 1.25647122]]",0,0.222
8734529389,f,24,english,5,4,english,2024-02-01 10:33:19.008934,False,1,128,sounds\english\audio/english_141.wav,"[[  0.         -25.96524021]
 [  0.1        -11.44118441]
 [  0.2        -66.44014101]
 [  0.3         30.66990272]
 [  0.4        -49.39763787]
 [  0.5         71.82875968]
 [  0.6         50.32312506]
 [  0.7         83.58769319]
 [  0.8        -69.87735782]
 [  0.9         56.37127437]
 [  1.          68.13119407]
 [  1.09391667  53.90803302]]","[[0.         0.14393867]
 [0.1        1.79797632]
 [0.2        0.67919643]
 [0.3        0.9819906 ]
 [0.4        1.78886462]
 [0.5        1.83801705]
 [0.6        1.16009946]
 [0.7        0.83834581]
 [0.8        0.15042094]
 [0.9        0.30059528]
 [1.         1.31059528]
 [1.09391667 1.79436216]]",0,0.334
