subj,sex,age,language,english,french,native_lang,date,practice,block,trial,stim,pitch,stretch,response,rt
4,f,40,english,5,4,english,2024-02-09 19:58:32.528132,True,0,0,sounds\english\audio/english_346.wav,"[[  0.          24.07666509]
 [  0.1        -87.64157913]
 [  0.2        -51.3970499 ]
 [  0.3         79.45874018]
 [  0.4        -74.83031912]
 [  0.5         -2.98294823]
 [  0.6        -32.38946294]
 [  0.7        -24.81590652]
 [  0.8        -13.90891955]
 [  0.9        -33.49626836]
 [  1.         -23.2144111 ]
 [  1.09391667  -9.66358574]]","[[0.         0.66537663]
 [0.1        1.54123619]
 [0.2        0.92348631]
 [0.3        0.33920207]
 [0.4        0.94433533]
 [0.5        0.8352321 ]
 [0.6        0.95810053]
 [0.7        0.99822629]
 [0.8        0.18782062]
 [0.9        1.6271571 ]
 [1.         1.67158741]
 [1.09391667 1.16169049]]",0,2.528
4,f,40,english,5,4,english,2024-02-09 19:58:32.528132,True,0,1,sounds\english\audio/english_426.wav,"[[  0.         -67.17987083]
 [  0.1         70.02176421]
 [  0.2         82.2704811 ]
 [  0.3         -4.42560713]
 [  0.4        -22.03224373]
 [  0.5        -71.21536039]
 [  0.6         23.47193627]
 [  0.7        -95.21485964]
 [  0.8         76.54647   ]
 [  0.9         67.43828429]
 [  1.         -41.3478141 ]
 [  1.09391667  -8.81391429]]","[[0.         1.61589393]
 [0.1        1.03467422]
 [0.2        1.69488483]
 [0.3        0.26984678]
 [0.4        1.53427209]
 [0.5        1.44135847]
 [0.6        0.91698709]
 [0.7        0.33548871]
 [0.8        1.77334308]
 [0.9        1.62177199]
 [1.         0.29474728]
 [1.09391667 0.79627592]]",1,1.604
4,f,40,english,5,4,english,2024-02-09 19:58:32.528132,True,0,2,sounds\english\audio/english_627.wav,"[[  0.          61.61292799]
 [  0.1         56.33641902]
 [  0.2        -89.79026277]
 [  0.3        -79.74264658]
 [  0.4         23.07538857]
 [  0.5        -10.76343706]
 [  0.6         -5.69473489]
 [  0.7         -7.26950502]
 [  0.8         15.57475433]
 [  0.9          3.14852465]
 [  1.          33.23262787]
 [  1.09391667 -88.39615435]]","[[0.         1.38806705]
 [0.1        0.72797241]
 [0.2        1.31326188]
 [0.3        1.97676424]
 [0.4        1.13729178]
 [0.5        0.13245486]
 [0.6        0.69323738]
 [0.7        1.4848786 ]
 [0.8        1.9356485 ]
 [0.9        1.60625319]
 [1.         0.88492326]
 [1.09391667 1.31394344]]",1,0.912
4,f,40,english,5,4,english,2024-02-09 19:58:32.528132,False,1,3,sounds\english\audio/english_163.wav,"[[  0.         -75.52696483]
 [  0.1        -50.94410786]
 [  0.2        -38.29944429]
 [  0.3        -32.57127411]
 [  0.4        -30.55941116]
 [  0.5        -14.52407307]
 [  0.6         28.48601544]
 [  0.7        -14.30599007]
 [  0.8         38.98323909]
 [  0.9        -70.97720427]
 [  1.         -31.77991107]
 [  1.09391667 -57.22342155]]","[[0.         0.21633828]
 [0.1        0.31603177]
 [0.2        1.04333718]
 [0.3        1.57763682]
 [0.4        0.14485533]
 [0.5        1.53043555]
 [0.6        0.0734581 ]
 [0.7        1.19104414]
 [0.8        0.4056819 ]
 [0.9        1.30823112]
 [1.         1.63835528]
 [1.09391667 1.03131117]]",0,0.93
4,f,40,english,5,4,english,2024-02-09 19:58:32.528132,False,1,4,sounds\english\audio/english_832.wav,"[[  0.         -88.58549248]
 [  0.1          8.34347478]
 [  0.2        -33.69240403]
 [  0.3        -38.19874018]
 [  0.4         69.91001741]
 [  0.5         76.9560892 ]
 [  0.6         32.91071569]
 [  0.7        -13.39927827]
 [  0.8         44.52631215]
 [  0.9         45.29069076]
 [  1.         -68.4923338 ]
 [  1.09391667 -25.64660407]]","[[0.         0.22284511]
 [0.1        1.43554353]
 [0.2        1.25168829]
 [0.3        1.76549117]
 [0.4        0.48241117]
 [0.5        1.98484056]
 [0.6        0.38621033]
 [0.7        0.77915885]
 [0.8        0.49939301]
 [0.9        1.70508711]
 [1.         1.07362721]
 [1.09391667 1.64737721]]",0,0.53
4,f,40,english,5,4,english,2024-02-09 19:58:32.528132,False,1,5,sounds\english\audio/english_994.wav,"[[  0.          36.98660599]
 [  0.1        -60.95311815]
 [  0.2         71.26510733]
 [  0.3         11.062559  ]
 [  0.4         70.6179669 ]
 [  0.5        -52.90665563]
 [  0.6         78.12480734]
 [  0.7         46.03409877]
 [  0.8        -66.74754668]
 [  0.9         56.18548234]
 [  1.         -83.86573512]
 [  1.09391667  32.71445858]]","[[0.         0.81226984]
 [0.1        1.65591745]
 [0.2        0.7009818 ]
 [0.3        1.67859876]
 [0.4        1.05248669]
 [0.5        0.39767772]
 [0.6        1.01059837]
 [0.7        0.20028443]
 [0.8        0.75506808]
 [0.9        1.57615428]
 [1.         0.51140578]
 [1.09391667 1.06238543]]",1,0.321
4,f,40,english,5,4,english,2024-02-09 19:58:32.528132,False,1,6,sounds\english\audio/english_730.wav,"[[  0.          98.7829688 ]
 [  0.1        -67.9329994 ]
 [  0.2        -35.4157721 ]
 [  0.3          8.75583116]
 [  0.4        -60.72300086]
 [  0.5        -43.53238385]
 [  0.6          7.41942565]
 [  0.7        -30.23988593]
 [  0.8         98.85106115]
 [  0.9         11.8745124 ]
 [  1.         -15.67114445]
 [  1.09391667 -67.06238252]]","[[0.         0.6873965 ]
 [0.1        0.65236597]
 [0.2        1.04626144]
 [0.3        1.65669948]
 [0.4        1.8622585 ]
 [0.5        1.86205359]
 [0.6        1.2731877 ]
 [0.7        0.2835626 ]
 [0.8        0.42372638]
 [0.9        1.35675351]
 [1.         1.03423815]
 [1.09391667 0.63701046]]",0,0.677
4,f,40,english,5,4,english,2024-02-09 19:58:32.528132,False,1,7,sounds\english\audio/english_859.wav,"[[  0.          31.07114651]
 [  0.1        -28.29036268]
 [  0.2        -99.32977332]
 [  0.3         24.56403326]
 [  0.4         13.96924155]
 [  0.5         -7.10648456]
 [  0.6         16.2139947 ]
 [  0.7        -63.09488954]
 [  0.8         32.97149002]
 [  0.9         73.86440675]
 [  1.          18.08685772]
 [  1.09391667  63.56526174]]","[[0.         1.62014662]
 [0.1        0.23536516]
 [0.2        1.20919843]
 [0.3        1.87022771]
 [0.4        1.25340901]
 [0.5        1.24145487]
 [0.6        0.16688969]
 [0.7        1.9877967 ]
 [0.8        1.05528454]
 [0.9        1.04254929]
 [1.         0.40355025]
 [1.09391667 1.52495745]]",1,0.381
4,f,40,english,5,4,english,2024-02-09 19:58:32.528132,False,1,8,sounds\english\audio/english_375.wav,"[[  0.         -66.54027977]
 [  0.1         72.08787066]
 [  0.2        -56.77584869]
 [  0.3        -36.97947012]
 [  0.4         43.73402827]
 [  0.5         19.53034116]
 [  0.6        -35.65016919]
 [  0.7         12.37356045]
 [  0.8        -24.97795402]
 [  0.9         57.77915604]
 [  1.         -30.716589  ]
 [  1.09391667  78.48935482]]","[[0.         1.30902013]
 [0.1        1.77420651]
 [0.2        1.24550761]
 [0.3        0.68148521]
 [0.4        1.5097978 ]
 [0.5        0.87895003]
 [0.6        0.57287352]
 [0.7        0.19847139]
 [0.8        1.57884859]
 [0.9        1.32641243]
 [1.         0.36090675]
 [1.09391667 1.90030926]]",1,0.48
4,f,40,english,5,4,english,2024-02-09 19:58:32.528132,False,1,9,sounds\english\audio/english_918.wav,"[[  0.           7.81141633]
 [  0.1         82.72316881]
 [  0.2         30.05807571]
 [  0.3        -70.58941721]
 [  0.4        -65.52419577]
 [  0.5         -8.01629029]
 [  0.6         16.78163005]
 [  0.7         72.93916831]
 [  0.8         -2.28760557]
 [  0.9        -18.70975913]
 [  1.           1.09551631]
 [  1.09391667  -2.64797824]]","[[0.         1.24491342]
 [0.1        0.03757961]
 [0.2        1.14238595]
 [0.3        0.04886902]
 [0.4        0.89349405]
 [0.5        0.46427507]
 [0.6        1.22953669]
 [0.7        1.878364  ]
 [0.8        0.42759123]
 [0.9        0.20519841]
 [1.         1.09007735]
 [1.09391667 0.32770208]]",0,1.407
4,f,40,english,5,4,english,2024-02-09 19:58:32.528132,False,1,10,sounds\english\audio/english_574.wav,"[[  0.          30.16253717]
 [  0.1        -51.87995618]
 [  0.2         24.46456732]
 [  0.3        -94.35752884]
 [  0.4         64.35841576]
 [  0.5        -49.28362763]
 [  0.6         14.18269939]
 [  0.7        -50.86809752]
 [  0.8         53.84502892]
 [  0.9        -66.65469805]
 [  1.         -86.96769925]
 [  1.09391667 -53.07810136]]","[[0.         0.985146  ]
 [0.1        1.53182158]
 [0.2        1.42910062]
 [0.3        0.82906666]
 [0.4        1.00783528]
 [0.5        1.2732344 ]
 [0.6        1.27248482]
 [0.7        0.5240718 ]
 [0.8        0.53991613]
 [0.9        0.74966761]
 [1.         0.29132247]
 [1.09391667 0.5179051 ]]",1,0.566
4,f,40,english,5,4,english,2024-02-09 19:58:32.528132,False,1,11,sounds\english\audio/english_172.wav,"[[  0.         -67.89328127]
 [  0.1        -98.24711177]
 [  0.2         49.39394348]
 [  0.3         76.5993294 ]
 [  0.4        -22.3707882 ]
 [  0.5        -81.77647202]
 [  0.6         14.32482273]
 [  0.7        -55.4844165 ]
 [  0.8          3.0799131 ]
 [  0.9        -69.51196042]
 [  1.          75.4726198 ]
 [  1.09391667   0.51193247]]","[[0.         0.87390127]
 [0.1        0.45073311]
 [0.2        1.74616009]
 [0.3        0.92964788]
 [0.4        0.40511794]
 [0.5        1.07981793]
 [0.6        0.29673002]
 [0.7        1.5346781 ]
 [0.8        0.29263687]
 [0.9        0.8048794 ]
 [1.         0.86167059]
 [1.09391667 0.22289692]]",0,0.607
4,f,40,english,5,4,english,2024-02-09 19:58:32.528132,False,1,12,sounds\english\audio/english_458.wav,"[[  0.         -17.35193705]
 [  0.1         76.25272333]
 [  0.2         66.551046  ]
 [  0.3        -95.41815816]
 [  0.4         -5.20731416]
 [  0.5        -15.31002561]
 [  0.6         63.5103627 ]
 [  0.7        -32.19044721]
 [  0.8          9.85446701]
 [  0.9        -64.97569882]
 [  1.          59.10726436]
 [  1.09391667  60.50538111]]","[[0.         0.22923126]
 [0.1        1.42441377]
 [0.2        0.60732538]
 [0.3        0.4830802 ]
 [0.4        0.7532548 ]
 [0.5        1.81914976]
 [0.6        1.22838438]
 [0.7        0.06067943]
 [0.8        0.231332  ]
 [0.9        1.40147857]
 [1.         0.29468522]
 [1.09391667 0.47293516]]",1,0.399
4,f,40,english,5,4,english,2024-02-09 19:58:32.528132,False,1,13,sounds\english\audio/english_309.wav,"[[  0.         -34.14852999]
 [  0.1        -60.02804827]
 [  0.2          6.0299745 ]
 [  0.3         65.21163803]
 [  0.4         70.66724966]
 [  0.5         45.99109365]
 [  0.6        -19.50247914]
 [  0.7         -1.40871488]
 [  0.8         76.93262372]
 [  0.9         -6.89150381]
 [  1.         -55.94090841]
 [  1.09391667  80.41347419]]","[[0.         1.21753296]
 [0.1        1.49982591]
 [0.2        1.91679373]
 [0.3        0.32322976]
 [0.4        1.88516358]
 [0.5        1.4437576 ]
 [0.6        1.34394651]
 [0.7        0.70865896]
 [0.8        0.16374417]
 [0.9        0.04755869]
 [1.         0.82149119]
 [1.09391667 0.6378001 ]]",0,0.721
4,f,40,english,5,4,english,2024-02-09 19:58:32.528132,False,1,14,sounds\english\audio/english_248.wav,"[[  0.         -77.65935665]
 [  0.1         13.01307899]
 [  0.2         -6.27197977]
 [  0.3         99.77801709]
 [  0.4         -3.73096601]
 [  0.5         48.17717711]
 [  0.6        -36.84313939]
 [  0.7        -61.99766544]
 [  0.8        -76.82864618]
 [  0.9        -38.01252631]
 [  1.          85.29761704]
 [  1.09391667  46.87388229]]","[[0.         1.91143756]
 [0.1        0.95656899]
 [0.2        0.05318577]
 [0.3        1.67121165]
 [0.4        0.67240869]
 [0.5        1.00234822]
 [0.6        0.30376957]
 [0.7        1.01064126]
 [0.8        1.57737707]
 [0.9        0.84763517]
 [1.         1.67346182]
 [1.09391667 0.28083573]]",1,0.149
4,f,40,english,5,4,english,2024-02-09 19:58:32.528132,False,1,15,sounds\english\audio/english_370.wav,"[[  0.          91.45146765]
 [  0.1        -35.10409157]
 [  0.2         94.76486666]
 [  0.3        -53.94210215]
 [  0.4         84.25045535]
 [  0.5         23.38990659]
 [  0.6        -19.20564455]
 [  0.7         79.34721748]
 [  0.8        -19.93049437]
 [  0.9        -60.8441274 ]
 [  1.          -1.38990897]
 [  1.09391667  24.56704264]]","[[0.         1.23282005]
 [0.1        0.25999131]
 [0.2        1.34886846]
 [0.3        0.83234793]
 [0.4        0.3574364 ]
 [0.5        1.13678853]
 [0.6        1.71477151]
 [0.7        0.6734852 ]
 [0.8        1.07446176]
 [0.9        1.23242025]
 [1.         1.52786138]
 [1.09391667 1.4714842 ]]",1,1.114
4,f,40,english,5,4,english,2024-02-09 19:58:32.528132,False,1,16,sounds\english\audio/english_411.wav,"[[  0.         -19.70973195]
 [  0.1         35.06337641]
 [  0.2        -47.07660398]
 [  0.3        -98.68669902]
 [  0.4          2.91607837]
 [  0.5         -8.99732851]
 [  0.6         57.60803457]
 [  0.7          1.53142899]
 [  0.8        -32.18919875]
 [  0.9        -92.02235415]
 [  1.          33.72578798]
 [  1.09391667  81.16053662]]","[[0.         0.11468893]
 [0.1        1.30305137]
 [0.2        1.23342094]
 [0.3        0.59067951]
 [0.4        0.74798004]
 [0.5        0.55407034]
 [0.6        1.68778529]
 [0.7        0.22674115]
 [0.8        0.93004634]
 [0.9        1.85827411]
 [1.         0.07029884]
 [1.09391667 1.14058722]]",1,0.465
4,f,40,english,5,4,english,2024-02-09 19:58:32.528132,False,1,17,sounds\english\audio/english_627.wav,"[[  0.          61.61292799]
 [  0.1         56.33641902]
 [  0.2        -89.79026277]
 [  0.3        -79.74264658]
 [  0.4         23.07538857]
 [  0.5        -10.76343706]
 [  0.6         -5.69473489]
 [  0.7         -7.26950502]
 [  0.8         15.57475433]
 [  0.9          3.14852465]
 [  1.          33.23262787]
 [  1.09391667 -88.39615435]]","[[0.         1.38806705]
 [0.1        0.72797241]
 [0.2        1.31326188]
 [0.3        1.97676424]
 [0.4        1.13729178]
 [0.5        0.13245486]
 [0.6        0.69323738]
 [0.7        1.4848786 ]
 [0.8        1.9356485 ]
 [0.9        1.60625319]
 [1.         0.88492326]
 [1.09391667 1.31394344]]",1,0.253
4,f,40,english,5,4,english,2024-02-09 19:58:32.528132,False,1,18,sounds\english\audio/english_737.wav,"[[  0.          56.78568271]
 [  0.1        -38.71611428]
 [  0.2        -64.59845133]
 [  0.3          1.39086409]
 [  0.4         26.86370756]
 [  0.5        -27.73552672]
 [  0.6        -81.13907874]
 [  0.7         43.5553465 ]
 [  0.8        -20.1583688 ]
 [  0.9        -25.05937779]
 [  1.          27.91315488]
 [  1.09391667 -84.10219284]]","[[0.         0.30173789]
 [0.1        1.82600994]
 [0.2        0.49162542]
 [0.3        0.66978122]
 [0.4        1.86119765]
 [0.5        0.4187604 ]
 [0.6        0.96095639]
 [0.7        0.3936239 ]
 [0.8        0.49545956]
 [0.9        1.76958981]
 [1.         1.1243255 ]
 [1.09391667 1.22358717]]",0,0.259
4,f,40,english,5,4,english,2024-02-09 19:58:32.528132,False,1,19,sounds\english\audio/english_936.wav,"[[  0.          36.31221715]
 [  0.1        -44.47492587]
 [  0.2         -4.14718789]
 [  0.3        -65.70158372]
 [  0.4         76.09968898]
 [  0.5         52.5413509 ]
 [  0.6          5.38506085]
 [  0.7         -9.33856544]
 [  0.8        -79.6079489 ]
 [  0.9        -51.30915368]
 [  1.         -23.2662762 ]
 [  1.09391667  10.041916  ]]","[[0.         1.2887877 ]
 [0.1        1.4589685 ]
 [0.2        0.18405876]
 [0.3        0.27129686]
 [0.4        0.60039507]
 [0.5        0.83949142]
 [0.6        0.92420877]
 [0.7        0.31849757]
 [0.8        1.55991954]
 [0.9        1.32485451]
 [1.         1.1603689 ]
 [1.09391667 0.29288231]]",0,0.384
4,f,40,english,5,4,english,2024-02-09 19:58:32.528132,False,1,20,sounds\english\audio/english_367.wav,"[[  0.          40.69288354]
 [  0.1        -87.28554983]
 [  0.2        -64.50130746]
 [  0.3         65.0554957 ]
 [  0.4        -34.90387066]
 [  0.5         29.56597753]
 [  0.6         36.50215848]
 [  0.7        -55.69798386]
 [  0.8         12.84757482]
 [  0.9        -23.54866279]
 [  1.         -55.73647309]
 [  1.09391667  79.84600893]]","[[0.         1.09000391]
 [0.1        0.74880644]
 [0.2        0.58255578]
 [0.3        0.66468618]
 [0.4        1.54627645]
 [0.5        0.56660027]
 [0.6        0.69792946]
 [0.7        1.00541299]
 [0.8        0.65534854]
 [0.9        1.89531092]
 [1.         0.87598705]
 [1.09391667 1.75535151]]",0,0.2
4,f,40,english,5,4,english,2024-02-09 19:58:32.528132,False,1,21,sounds\english\audio/english_743.wav,"[[  0.          97.77122609]
 [  0.1         75.39760322]
 [  0.2        -92.56300928]
 [  0.3         73.60734954]
 [  0.4         84.82420222]
 [  0.5        -57.35733587]
 [  0.6         36.05799571]
 [  0.7        -80.10781894]
 [  0.8         79.81818761]
 [  0.9         71.53815245]
 [  1.          39.3075371 ]
 [  1.09391667  85.61049635]]","[[0.         0.40936323]
 [0.1        0.83333714]
 [0.2        1.9299588 ]
 [0.3        0.31044819]
 [0.4        1.11112706]
 [0.5        0.30641345]
 [0.6        1.79191215]
 [0.7        1.43353199]
 [0.8        0.61341243]
 [0.9        1.6920607 ]
 [1.         0.85862509]
 [1.09391667 0.78833379]]",0,4.016
4,f,40,english,5,4,english,2024-02-09 19:58:32.528132,False,1,22,sounds\english\audio/english_588.wav,"[[  0.          29.91091742]
 [  0.1         29.9060619 ]
 [  0.2        -35.2299782 ]
 [  0.3         33.93454747]
 [  0.4         16.01664829]
 [  0.5        -18.70778189]
 [  0.6        -97.06291502]
 [  0.7         13.076942  ]
 [  0.8         50.92498955]
 [  0.9         53.17318001]
 [  1.          52.34619788]
 [  1.09391667   1.61294986]]","[[0.         1.28287681]
 [0.1        1.09118729]
 [0.2        0.95294685]
 [0.3        1.46022219]
 [0.4        1.6252916 ]
 [0.5        1.19035327]
 [0.6        0.90275631]
 [0.7        0.534144  ]
 [0.8        0.26255875]
 [0.9        0.29008288]
 [1.         0.99016986]
 [1.09391667 0.96989244]]",0,0.319
4,f,40,english,5,4,english,2024-02-09 19:58:32.528132,False,1,23,sounds\english\audio/english_594.wav,"[[  0.          -6.10063938]
 [  0.1        -56.51028651]
 [  0.2        -40.09571675]
 [  0.3         61.97563687]
 [  0.4        -85.53288451]
 [  0.5          6.67279942]
 [  0.6         48.92783255]
 [  0.7        -71.33031091]
 [  0.8          8.29148897]
 [  0.9         42.69425852]
 [  1.         -32.82046223]
 [  1.09391667 -55.40353935]]","[[0.         0.03940385]
 [0.1        0.67979763]
 [0.2        0.90921071]
 [0.3        0.53210088]
 [0.4        0.284195  ]
 [0.5        0.75512393]
 [0.6        0.67826493]
 [0.7        0.91947698]
 [0.8        0.21678931]
 [0.9        1.1378317 ]
 [1.         1.58275183]
 [1.09391667 1.87399103]]",0,0.239
4,f,40,english,5,4,english,2024-02-09 19:58:32.528132,False,1,24,sounds\english\audio/english_287.wav,"[[  0.          10.36471628]
 [  0.1        -58.57729137]
 [  0.2        -27.93575021]
 [  0.3         33.78979174]
 [  0.4        -33.15491758]
 [  0.5         -5.38281254]
 [  0.6        -58.09969762]
 [  0.7         93.46336641]
 [  0.8         27.63578773]
 [  0.9         44.41136417]
 [  1.          -2.08272126]
 [  1.09391667  72.82755357]]","[[0.         0.01185683]
 [0.1        1.45020857]
 [0.2        0.19382892]
 [0.3        0.71448768]
 [0.4        0.01801383]
 [0.5        0.74544811]
 [0.6        0.45979971]
 [0.7        0.55925931]
 [0.8        1.84211482]
 [0.9        0.07395401]
 [1.         0.05656785]
 [1.09391667 1.60760225]]",1,0.912
4,f,40,english,5,4,english,2024-02-09 19:58:32.528132,False,1,25,sounds\english\audio/english_585.wav,"[[  0.         -86.93944466]
 [  0.1        -97.95669785]
 [  0.2         35.19908461]
 [  0.3         66.00378301]
 [  0.4         10.9229126 ]
 [  0.5         72.37678619]
 [  0.6        -57.08192974]
 [  0.7        -77.39915084]
 [  0.8         38.55710496]
 [  0.9        -27.16276528]
 [  1.          46.25769813]
 [  1.09391667 -14.18587881]]","[[0.         0.1588986 ]
 [0.1        0.38183266]
 [0.2        0.20642212]
 [0.3        1.21146119]
 [0.4        0.35502735]
 [0.5        1.56586524]
 [0.6        1.83214489]
 [0.7        0.43697271]
 [0.8        0.35169773]
 [0.9        1.49983702]
 [1.         0.51254386]
 [1.09391667 0.12379544]]",0,0.474
4,f,40,english,5,4,english,2024-02-09 19:58:32.528132,False,1,26,sounds\english\audio/english_842.wav,"[[  0.         -81.72100022]
 [  0.1         18.84637506]
 [  0.2        -80.18621681]
 [  0.3         38.99509662]
 [  0.4         24.76840986]
 [  0.5        -19.71585535]
 [  0.6         69.03077802]
 [  0.7         35.91349986]
 [  0.8        -27.17447615]
 [  0.9        -26.64790606]
 [  1.          27.41987323]
 [  1.09391667  30.72990316]]","[[0.         1.05096469]
 [0.1        0.68369723]
 [0.2        1.52749806]
 [0.3        0.81526033]
 [0.4        1.70702662]
 [0.5        1.05576458]
 [0.6        0.15620837]
 [0.7        1.43624924]
 [0.8        0.34293919]
 [0.9        1.32305508]
 [1.         1.04384127]
 [1.09391667 1.55933633]]",1,1.134
4,f,40,english,5,4,english,2024-02-09 19:58:32.528132,False,1,27,sounds\english\audio/english_11.wav,"[[  0.          54.56080353]
 [  0.1        -83.87228419]
 [  0.2        -61.53925714]
 [  0.3        -23.71141184]
 [  0.4         85.16808592]
 [  0.5         -4.98332447]
 [  0.6         10.34089151]
 [  0.7        -78.53726298]
 [  0.8         50.83234719]
 [  0.9         -4.0093207 ]
 [  1.          -9.65462756]
 [  1.09391667  58.44851678]]","[[0.         0.32515428]
 [0.1        1.52115417]
 [0.2        0.25420302]
 [0.3        0.57547438]
 [0.4        1.45332803]
 [0.5        0.76503735]
 [0.6        0.14014492]
 [0.7        1.07694112]
 [0.8        0.6442665 ]
 [0.9        0.01049254]
 [1.         0.40097789]
 [1.09391667 0.23650396]]",0,0.597
4,f,40,english,5,4,english,2024-02-09 19:58:32.528132,False,1,28,sounds\english\audio/english_792.wav,"[[  0.         -53.21610879]
 [  0.1         32.15976894]
 [  0.2         11.67164647]
 [  0.3         78.41102069]
 [  0.4         57.86075133]
 [  0.5         26.57758322]
 [  0.6        -19.90648144]
 [  0.7         -5.80202054]
 [  0.8        -79.72401374]
 [  0.9        -39.61261559]
 [  1.          87.31929903]
 [  1.09391667  10.49178802]]","[[0.         1.55385175]
 [0.1        0.65373426]
 [0.2        0.07623644]
 [0.3        0.81063335]
 [0.4        1.61919716]
 [0.5        1.49931194]
 [0.6        0.76960145]
 [0.7        0.41164506]
 [0.8        1.42613076]
 [0.9        0.70792196]
 [1.         1.13611226]
 [1.09391667 0.18326108]]",1,0.199
4,f,40,english,5,4,english,2024-02-09 19:58:32.528132,False,1,29,sounds\english\audio/english_278.wav,"[[  0.         -96.72610313]
 [  0.1        -36.86809982]
 [  0.2        -84.24626192]
 [  0.3        -29.99363641]
 [  0.4         21.41897552]
 [  0.5        -73.7985343 ]
 [  0.6        -83.05174317]
 [  0.7        -43.48487906]
 [  0.8        -48.22741203]
 [  0.9        -30.73203826]
 [  1.          22.54361358]
 [  1.09391667 -65.2249662 ]]","[[0.         0.83439052]
 [0.1        1.21055498]
 [0.2        0.05488492]
 [0.3        1.47058347]
 [0.4        0.68142996]
 [0.5        0.65955027]
 [0.6        1.54634177]
 [0.7        1.03072417]
 [0.8        0.15769377]
 [0.9        0.79374536]
 [1.         0.9877131 ]
 [1.09391667 1.82414956]]",0,0.175
4,f,40,english,5,4,english,2024-02-09 19:58:32.528132,False,1,30,sounds\english\audio/english_532.wav,"[[  0.          60.85707462]
 [  0.1         13.03416057]
 [  0.2        -48.45411351]
 [  0.3         16.77450497]
 [  0.4         -7.6707259 ]
 [  0.5        -84.48187603]
 [  0.6         -5.50880589]
 [  0.7        -53.77002933]
 [  0.8         11.75325856]
 [  0.9         41.28277306]
 [  1.          14.79272929]
 [  1.09391667 -15.59183139]]","[[0.         0.2444237 ]
 [0.1        1.53493401]
 [0.2        1.45787945]
 [0.3        0.11915761]
 [0.4        0.99575033]
 [0.5        1.34203353]
 [0.6        0.42679286]
 [0.7        1.97733711]
 [0.8        0.79534295]
 [0.9        0.9990701 ]
 [1.         1.48802156]
 [1.09391667 0.74270144]]",1,0.229
4,f,40,english,5,4,english,2024-02-09 19:58:32.528132,False,1,31,sounds\english\audio/english_71.wav,"[[  0.          30.10636139]
 [  0.1          3.0816021 ]
 [  0.2         66.18138618]
 [  0.3         48.30744502]
 [  0.4         76.92572471]
 [  0.5        -25.53426936]
 [  0.6         50.68511548]
 [  0.7        -55.42199264]
 [  0.8        -37.57822881]
 [  0.9         93.39435099]
 [  1.          84.87822391]
 [  1.09391667 -75.5815668 ]]","[[0.         0.62946654]
 [0.1        1.50453007]
 [0.2        0.98046708]
 [0.3        0.69034505]
 [0.4        0.92028911]
 [0.5        0.29314993]
 [0.6        0.30848008]
 [0.7        0.91569305]
 [0.8        1.44666992]
 [0.9        1.1812526 ]
 [1.         0.81790169]
 [1.09391667 1.06314532]]",1,0.934
4,f,40,english,5,4,english,2024-02-09 19:58:32.528132,False,1,32,sounds\english\audio/english_431.wav,"[[  0.          80.69254561]
 [  0.1        -59.39729579]
 [  0.2         32.8562558 ]
 [  0.3        -22.29744676]
 [  0.4         31.71546531]
 [  0.5         26.68689131]
 [  0.6        -67.6485219 ]
 [  0.7         27.20384073]
 [  0.8        -89.82269949]
 [  0.9        -57.22282633]
 [  1.          66.80474658]
 [  1.09391667  -8.50085654]]","[[0.         1.28844059]
 [0.1        0.02904499]
 [0.2        0.95132877]
 [0.3        1.51616745]
 [0.4        1.13295381]
 [0.5        0.76516543]
 [0.6        0.83201004]
 [0.7        0.376561  ]
 [0.8        1.59621374]
 [0.9        0.7949968 ]
 [1.         1.43069985]
 [1.09391667 0.47836789]]",1,0.668
4,f,40,english,5,4,english,2024-02-09 19:58:32.528132,False,1,33,sounds\english\audio/english_51.wav,"[[  0.           4.82438937]
 [  0.1        -25.96164734]
 [  0.2         69.41579929]
 [  0.3        -53.59443599]
 [  0.4         -3.65182133]
 [  0.5        -31.28869864]
 [  0.6         61.83683128]
 [  0.7         21.64373061]
 [  0.8         63.25865389]
 [  0.9        -40.06070135]
 [  1.          68.22105394]
 [  1.09391667  -1.01243895]]","[[0.         1.72214018]
 [0.1        0.88661189]
 [0.2        0.13058188]
 [0.3        0.95728679]
 [0.4        1.79715226]
 [0.5        0.9981941 ]
 [0.6        0.02786947]
 [0.7        0.63001571]
 [0.8        1.19147023]
 [0.9        0.58040848]
 [1.         1.03101423]
 [1.09391667 0.89107538]]",1,0.605
4,f,40,english,5,4,english,2024-02-09 19:58:32.528132,False,1,34,sounds\english\audio/english_918.wav,"[[  0.           7.81141633]
 [  0.1         82.72316881]
 [  0.2         30.05807571]
 [  0.3        -70.58941721]
 [  0.4        -65.52419577]
 [  0.5         -8.01629029]
 [  0.6         16.78163005]
 [  0.7         72.93916831]
 [  0.8         -2.28760557]
 [  0.9        -18.70975913]
 [  1.           1.09551631]
 [  1.09391667  -2.64797824]]","[[0.         1.24491342]
 [0.1        0.03757961]
 [0.2        1.14238595]
 [0.3        0.04886902]
 [0.4        0.89349405]
 [0.5        0.46427507]
 [0.6        1.22953669]
 [0.7        1.878364  ]
 [0.8        0.42759123]
 [0.9        0.20519841]
 [1.         1.09007735]
 [1.09391667 0.32770208]]",0,0.305
4,f,40,english,5,4,english,2024-02-09 19:58:32.528132,False,1,35,sounds\english\audio/english_256.wav,"[[  0.          19.13786367]
 [  0.1         78.7613355 ]
 [  0.2        -10.99930376]
 [  0.3         -4.24203719]
 [  0.4        -18.22969313]
 [  0.5         -1.97438764]
 [  0.6         58.65018523]
 [  0.7        -44.17944685]
 [  0.8        -19.76307931]
 [  0.9         51.42512852]
 [  1.          29.86121545]
 [  1.09391667  94.6134288 ]]","[[0.         0.71756401]
 [0.1        1.21129656]
 [0.2        0.86820307]
 [0.3        0.23513199]
 [0.4        1.96127331]
 [0.5        1.02094295]
 [0.6        0.44586948]
 [0.7        0.67070074]
 [0.8        0.92528927]
 [0.9        0.89913532]
 [1.         1.8576014 ]
 [1.09391667 1.03800996]]",0,0.134
4,f,40,english,5,4,english,2024-02-09 19:58:32.528132,False,1,36,sounds\english\audio/english_934.wav,"[[  0.         -11.34943225]
 [  0.1         65.85322301]
 [  0.2        -85.4605192 ]
 [  0.3         13.55265206]
 [  0.4          0.50969379]
 [  0.5         69.19486286]
 [  0.6        -98.42209139]
 [  0.7        -96.61496438]
 [  0.8        -65.00160108]
 [  0.9         48.73056023]
 [  1.          10.84569579]
 [  1.09391667  97.87119684]]","[[0.         0.24415631]
 [0.1        1.37961224]
 [0.2        1.63298201]
 [0.3        0.01798396]
 [0.4        0.66397169]
 [0.5        0.2241268 ]
 [0.6        1.8505399 ]
 [0.7        1.29472214]
 [0.8        0.83065813]
 [0.9        1.34944931]
 [1.         1.40216081]
 [1.09391667 1.98377201]]",1,0.068
4,f,40,english,5,4,english,2024-02-09 19:58:32.528132,False,1,37,sounds\english\audio/english_897.wav,"[[  0.          91.54141142]
 [  0.1         20.06999674]
 [  0.2        -60.17862007]
 [  0.3         22.55775305]
 [  0.4        -29.18349392]
 [  0.5         -4.34715828]
 [  0.6          3.54639982]
 [  0.7         14.95981451]
 [  0.8         79.03500803]
 [  0.9         89.82097388]
 [  1.         -18.02507746]
 [  1.09391667 -21.60386418]]","[[0.         0.1445201 ]
 [0.1        1.86000345]
 [0.2        0.67850772]
 [0.3        0.042785  ]
 [0.4        0.33792534]
 [0.5        1.54286554]
 [0.6        1.41726271]
 [0.7        0.22962892]
 [0.8        0.98987379]
 [0.9        0.31366212]
 [1.         0.34929613]
 [1.09391667 1.95291291]]",0,0.591
4,f,40,english,5,4,english,2024-02-09 19:58:32.528132,False,1,38,sounds\english\audio/english_688.wav,"[[  0.         -29.94010546]
 [  0.1        -41.32005189]
 [  0.2         60.5114301 ]
 [  0.3        -11.57251233]
 [  0.4        -32.48909096]
 [  0.5         70.68045254]
 [  0.6        -93.57410751]
 [  0.7        -35.20217483]
 [  0.8        -56.48380795]
 [  0.9         29.31296217]
 [  1.         -66.64221323]
 [  1.09391667  61.92592934]]","[[0.         0.64779988]
 [0.1        0.86768487]
 [0.2        1.84873786]
 [0.3        1.12374148]
 [0.4        1.48328397]
 [0.5        0.61802845]
 [0.6        0.25217431]
 [0.7        0.64703385]
 [0.8        0.24929174]
 [0.9        0.36133188]
 [1.         0.49659231]
 [1.09391667 0.74443623]]",0,0.398
4,f,40,english,5,4,english,2024-02-09 19:58:32.528132,False,1,39,sounds\english\audio/english_222.wav,"[[  0.          96.40991371]
 [  0.1         44.65841575]
 [  0.2        -16.29621217]
 [  0.3        -48.55554978]
 [  0.4         26.12822135]
 [  0.5         56.43887594]
 [  0.6         -8.03605186]
 [  0.7         54.77211039]
 [  0.8         25.53059274]
 [  0.9        -58.35574141]
 [  1.         -61.20346584]
 [  1.09391667  99.40713186]]","[[0.         0.9507269 ]
 [0.1        1.79183575]
 [0.2        1.09244309]
 [0.3        1.6357802 ]
 [0.4        0.19893477]
 [0.5        0.38875901]
 [0.6        0.73216499]
 [0.7        1.11169146]
 [0.8        0.05558172]
 [0.9        0.18202708]
 [1.         0.44521291]
 [1.09391667 0.13186743]]",0,0.802
4,f,40,english,5,4,english,2024-02-09 19:58:32.528132,False,1,40,sounds\english\audio/english_633.wav,"[[  0.         -29.53329055]
 [  0.1        -55.17737052]
 [  0.2         58.22185342]
 [  0.3        -43.06637085]
 [  0.4         76.59680907]
 [  0.5         52.74440756]
 [  0.6        -26.52378851]
 [  0.7        -16.86813106]
 [  0.8          7.65419617]
 [  0.9          2.97223231]
 [  1.         -42.35584202]
 [  1.09391667 -84.52233477]]","[[0.         1.81413682]
 [0.1        1.23507598]
 [0.2        1.2508175 ]
 [0.3        0.42299618]
 [0.4        0.12183449]
 [0.5        0.93446119]
 [0.6        1.44820206]
 [0.7        0.73029459]
 [0.8        0.16870505]
 [0.9        1.17828847]
 [1.         0.62674429]
 [1.09391667 0.94849203]]",1,0.296
4,f,40,english,5,4,english,2024-02-09 19:58:32.528132,False,1,41,sounds\english\audio/english_455.wav,"[[  0.          26.42834913]
 [  0.1         -7.65720218]
 [  0.2        -36.03524122]
 [  0.3         -9.36591816]
 [  0.4         74.01503077]
 [  0.5        -66.92719297]
 [  0.6        -30.7057444 ]
 [  0.7         40.84752834]
 [  0.8         15.65936383]
 [  0.9        -13.21472975]
 [  1.          44.82999828]
 [  1.09391667 -79.02570563]]","[[0.         1.62221941]
 [0.1        1.46036611]
 [0.2        1.24406571]
 [0.3        1.98304613]
 [0.4        0.42616314]
 [0.5        0.24476163]
 [0.6        1.77552442]
 [0.7        1.05242247]
 [0.8        0.70330742]
 [0.9        0.60059781]
 [1.         0.40485906]
 [1.09391667 1.70610938]]",1,1.068
4,f,40,english,5,4,english,2024-02-09 19:58:32.528132,False,1,42,sounds\english\audio/english_979.wav,"[[  0.          37.48457567]
 [  0.1        -37.02244062]
 [  0.2        -24.69283161]
 [  0.3        -46.06023598]
 [  0.4        -42.84074597]
 [  0.5         74.27862476]
 [  0.6         -8.30998961]
 [  0.7         58.9564601 ]
 [  0.8         -5.32034309]
 [  0.9         26.74044499]
 [  1.         -18.64517926]
 [  1.09391667  58.46936922]]","[[0.         1.4207367 ]
 [0.1        1.31079647]
 [0.2        0.99381913]
 [0.3        1.92885953]
 [0.4        1.90853779]
 [0.5        0.2569717 ]
 [0.6        0.19374483]
 [0.7        1.09057025]
 [0.8        1.33389295]
 [0.9        0.56327367]
 [1.         0.75332902]
 [1.09391667 0.45071064]]",1,0.323
4,f,40,english,5,4,english,2024-02-09 19:58:32.528132,False,1,43,sounds\english\audio/english_275.wav,"[[  0.         -31.53954932]
 [  0.1         67.55550323]
 [  0.2         55.26204535]
 [  0.3        -80.01639585]
 [  0.4         94.9520187 ]
 [  0.5         14.34639333]
 [  0.6         86.55683539]
 [  0.7        -89.78552737]
 [  0.8         -1.72373159]
 [  0.9        -17.62384296]
 [  1.         -77.59342149]
 [  1.09391667 -62.03983535]]","[[0.         1.11178535]
 [0.1        1.43872854]
 [0.2        1.00652784]
 [0.3        1.88859993]
 [0.4        1.11098418]
 [0.5        0.053376  ]
 [0.6        0.64698711]
 [0.7        0.30486873]
 [0.8        1.76121679]
 [0.9        1.26518318]
 [1.         0.9746017 ]
 [1.09391667 0.80300486]]",1,0.559
4,f,40,english,5,4,english,2024-02-09 19:58:32.528132,False,1,44,sounds\english\audio/english_293.wav,"[[  0.         -41.6717185 ]
 [  0.1         80.2291893 ]
 [  0.2        -71.0140068 ]
 [  0.3        -90.64066123]
 [  0.4         -6.53332233]
 [  0.5         -9.32979117]
 [  0.6         53.89735235]
 [  0.7        -63.4364313 ]
 [  0.8        -96.19547901]
 [  0.9        -36.41686224]
 [  1.          99.46412477]
 [  1.09391667  17.36040502]]","[[0.         1.35571263]
 [0.1        0.51147984]
 [0.2        0.41951934]
 [0.3        0.6442562 ]
 [0.4        0.98522539]
 [0.5        0.92132945]
 [0.6        1.4753131 ]
 [0.7        0.11499708]
 [0.8        1.03841664]
 [0.9        1.94583411]
 [1.         0.65545153]
 [1.09391667 1.59979165]]",0,2.052
4,f,40,english,5,4,english,2024-02-09 19:58:32.528132,False,1,45,sounds\english\audio/english_95.wav,"[[  0.          82.38322646]
 [  0.1         32.52182657]
 [  0.2         30.87511863]
 [  0.3         67.9481844 ]
 [  0.4        -57.03879619]
 [  0.5         22.48665311]
 [  0.6         23.4373467 ]
 [  0.7        -61.78596911]
 [  0.8         75.30119174]
 [  0.9          6.10236792]
 [  1.          23.20518155]
 [  1.09391667 -62.32548974]]","[[0.         1.52040058]
 [0.1        0.22216464]
 [0.2        0.78160064]
 [0.3        0.58754621]
 [0.4        1.54090238]
 [0.5        0.52042561]
 [0.6        0.65328484]
 [0.7        0.2008644 ]
 [0.8        1.88966983]
 [0.9        1.34355427]
 [1.         0.09039365]
 [1.09391667 0.0245473 ]]",1,0.813
4,f,40,english,5,4,english,2024-02-09 19:58:32.528132,False,1,46,sounds\english\audio/english_896.wav,"[[  0.          15.15197213]
 [  0.1         12.09834356]
 [  0.2        -98.90945178]
 [  0.3         -7.24132806]
 [  0.4        -22.04912785]
 [  0.5         53.27175302]
 [  0.6         18.92228417]
 [  0.7         65.4652164 ]
 [  0.8         51.91420072]
 [  0.9         20.23549525]
 [  1.         -86.64191921]
 [  1.09391667 -62.9037571 ]]","[[0.         1.10343193]
 [0.1        1.24784569]
 [0.2        0.69536812]
 [0.3        1.50082123]
 [0.4        1.78962455]
 [0.5        0.59868421]
 [0.6        1.36027969]
 [0.7        1.44726147]
 [0.8        1.08983894]
 [0.9        0.07451316]
 [1.         0.79077881]
 [1.09391667 1.64262615]]",0,0.592
4,f,40,english,5,4,english,2024-02-09 19:58:32.528132,False,1,47,sounds\english\audio/english_655.wav,"[[  0.         -90.05217159]
 [  0.1        -51.53203878]
 [  0.2        -18.56413276]
 [  0.3        -32.31488117]
 [  0.4         49.43339315]
 [  0.5        -67.53322914]
 [  0.6         90.11454302]
 [  0.7         98.57977716]
 [  0.8         29.43352269]
 [  0.9         91.08820104]
 [  1.          -3.70059628]
 [  1.09391667  30.30784512]]","[[0.         1.15438405]
 [0.1        1.12188764]
 [0.2        0.95676367]
 [0.3        0.61420414]
 [0.4        0.76264188]
 [0.5        1.45400352]
 [0.6        0.06830652]
 [0.7        0.91955523]
 [0.8        0.33519017]
 [0.9        0.7797243 ]
 [1.         1.01878467]
 [1.09391667 1.55349389]]",0,0.582
4,f,40,english,5,4,english,2024-02-09 19:58:32.528132,False,1,48,sounds\english\audio/english_831.wav,"[[  0.         -21.16656573]
 [  0.1         29.76214341]
 [  0.2         61.45359844]
 [  0.3          6.67004895]
 [  0.4         26.70370751]
 [  0.5        -40.62935301]
 [  0.6         99.09256776]
 [  0.7         79.82257267]
 [  0.8         42.46181289]
 [  0.9          2.20427108]
 [  1.          64.59275416]
 [  1.09391667 -21.96543836]]","[[0.         0.86887876]
 [0.1        1.37629655]
 [0.2        0.63499907]
 [0.3        0.11279763]
 [0.4        0.87092561]
 [0.5        1.90700704]
 [0.6        0.52454597]
 [0.7        0.72073711]
 [0.8        0.80064374]
 [0.9        1.04408214]
 [1.         0.45079877]
 [1.09391667 1.2652147 ]]",0,0.463
4,f,40,english,5,4,english,2024-02-09 19:58:32.528132,False,1,49,sounds\english\audio/english_273.wav,"[[  0.          98.52666227]
 [  0.1        -14.53697977]
 [  0.2        -27.73641003]
 [  0.3        -33.00016706]
 [  0.4        -94.64333813]
 [  0.5        -41.61617203]
 [  0.6         49.41815244]
 [  0.7        -30.32061772]
 [  0.8        -35.74709192]
 [  0.9        -13.60946608]
 [  1.         -32.82037382]
 [  1.09391667  33.32212964]]","[[0.         0.76053605]
 [0.1        1.55944865]
 [0.2        1.1926207 ]
 [0.3        0.4837488 ]
 [0.4        0.26449836]
 [0.5        0.91523242]
 [0.6        1.22186228]
 [0.7        1.22601092]
 [0.8        0.47362103]
 [0.9        1.12741722]
 [1.         1.62942093]
 [1.09391667 0.13586673]]",0,1.195
4,f,40,english,5,4,english,2024-02-09 19:58:32.528132,False,1,50,sounds\english\audio/english_33.wav,"[[  0.         -39.58082457]
 [  0.1         30.52342894]
 [  0.2         23.47265499]
 [  0.3         35.06724548]
 [  0.4         68.41384456]
 [  0.5         91.35527089]
 [  0.6         45.24436298]
 [  0.7        -95.9941639 ]
 [  0.8         52.18884155]
 [  0.9        -59.5821221 ]
 [  1.         -35.64274737]
 [  1.09391667 -73.32122587]]","[[0.         0.53160826]
 [0.1        0.02130102]
 [0.2        1.79968549]
 [0.3        1.77904441]
 [0.4        0.50678762]
 [0.5        1.72631603]
 [0.6        0.90579128]
 [0.7        1.42335886]
 [0.8        1.10708789]
 [0.9        1.04407415]
 [1.         1.58844638]
 [1.09391667 0.94640907]]",1,0.304
4,f,40,english,5,4,english,2024-02-09 19:58:32.528132,False,1,51,sounds\english\audio/english_229.wav,"[[  0.         -79.04304689]
 [  0.1        -33.27907889]
 [  0.2        -48.38559405]
 [  0.3        -41.35801628]
 [  0.4        -26.02502446]
 [  0.5         13.55019155]
 [  0.6         18.26415136]
 [  0.7        -44.56995302]
 [  0.8          9.70532855]
 [  0.9        -87.31769778]
 [  1.          71.16611241]
 [  1.09391667 -73.56487105]]","[[0.         0.75524208]
 [0.1        1.36191913]
 [0.2        0.27826927]
 [0.3        1.07720363]
 [0.4        1.01002639]
 [0.5        0.44849721]
 [0.6        0.65469054]
 [0.7        0.24060095]
 [0.8        1.46400581]
 [0.9        0.19595273]
 [1.         1.05591567]
 [1.09391667 1.79159402]]",1,0.203
4,f,40,english,5,4,english,2024-02-09 19:58:32.528132,False,1,52,sounds\english\audio/english_364.wav,"[[  0.          83.865778  ]
 [  0.1         63.76779424]
 [  0.2         76.73494008]
 [  0.3         63.04278033]
 [  0.4        -55.03833232]
 [  0.5         57.11242427]
 [  0.6         15.41108418]
 [  0.7          3.11298983]
 [  0.8         15.49246741]
 [  0.9        -76.70109977]
 [  1.          21.21406375]
 [  1.09391667  20.91306008]]","[[0.         0.64688834]
 [0.1        1.36525912]
 [0.2        0.98445588]
 [0.3        1.58126378]
 [0.4        1.2558055 ]
 [0.5        1.01407945]
 [0.6        1.72440997]
 [0.7        1.75247835]
 [0.8        0.306912  ]
 [0.9        1.65351594]
 [1.         0.67540521]
 [1.09391667 0.2382038 ]]",0,1.176
4,f,40,english,5,4,english,2024-02-09 19:58:32.528132,False,1,53,sounds\english\audio/english_969.wav,"[[  0.          29.09924348]
 [  0.1        -95.88090252]
 [  0.2         45.5103226 ]
 [  0.3         22.6688792 ]
 [  0.4         28.43861777]
 [  0.5        -64.30828006]
 [  0.6        -54.50431648]
 [  0.7         30.42451317]
 [  0.8        -91.90179979]
 [  0.9          4.36119227]
 [  1.         -67.80457813]
 [  1.09391667 -80.8303423 ]]","[[0.         1.53055803]
 [0.1        0.21771883]
 [0.2        0.6895083 ]
 [0.3        1.38165803]
 [0.4        1.43845422]
 [0.5        1.41047112]
 [0.6        1.45510114]
 [0.7        0.72825636]
 [0.8        1.35653581]
 [0.9        1.06956255]
 [1.         1.00621562]
 [1.09391667 1.05370229]]",0,0.478
4,f,40,english,5,4,english,2024-02-09 19:58:32.528132,False,1,54,sounds\english\audio/english_50.wav,"[[  0.         -32.36494138]
 [  0.1         76.6244439 ]
 [  0.2        -16.62217643]
 [  0.3         63.40850527]
 [  0.4         68.81783594]
 [  0.5        -35.17384088]
 [  0.6         42.93688325]
 [  0.7        -82.21044816]
 [  0.8        -42.73245843]
 [  0.9         -3.13393134]
 [  1.         -86.41078269]
 [  1.09391667  14.80187439]]","[[0.         1.37054129]
 [0.1        1.57215181]
 [0.2        1.07317842]
 [0.3        0.82623857]
 [0.4        0.72038729]
 [0.5        1.90936147]
 [0.6        0.3744962 ]
 [0.7        0.69245834]
 [0.8        0.60585647]
 [0.9        1.24840552]
 [1.         0.02488175]
 [1.09391667 1.59728167]]",0,0.439
4,f,40,english,5,4,english,2024-02-09 19:58:32.528132,False,1,55,sounds\english\audio/english_634.wav,"[[  0.          64.72558427]
 [  0.1         89.90901107]
 [  0.2         81.42978407]
 [  0.3        -10.43897534]
 [  0.4         43.00975077]
 [  0.5        -54.25678595]
 [  0.6         62.84702282]
 [  0.7         -6.57558609]
 [  0.8         14.82558761]
 [  0.9        -96.64026407]
 [  1.         -32.22519468]
 [  1.09391667  15.06988784]]","[[0.         1.10878065]
 [0.1        0.64399172]
 [0.2        1.22080944]
 [0.3        0.11214204]
 [0.4        0.83352272]
 [0.5        0.01534265]
 [0.6        0.46262621]
 [0.7        1.34444527]
 [0.8        1.35254429]
 [0.9        1.9141104 ]
 [1.         1.83780596]
 [1.09391667 1.20703097]]",1,1.107
4,f,40,english,5,4,english,2024-02-09 19:58:32.528132,False,1,56,sounds\english\audio/english_367.wav,"[[  0.          40.69288354]
 [  0.1        -87.28554983]
 [  0.2        -64.50130746]
 [  0.3         65.0554957 ]
 [  0.4        -34.90387066]
 [  0.5         29.56597753]
 [  0.6         36.50215848]
 [  0.7        -55.69798386]
 [  0.8         12.84757482]
 [  0.9        -23.54866279]
 [  1.         -55.73647309]
 [  1.09391667  79.84600893]]","[[0.         1.09000391]
 [0.1        0.74880644]
 [0.2        0.58255578]
 [0.3        0.66468618]
 [0.4        1.54627645]
 [0.5        0.56660027]
 [0.6        0.69792946]
 [0.7        1.00541299]
 [0.8        0.65534854]
 [0.9        1.89531092]
 [1.         0.87598705]
 [1.09391667 1.75535151]]",0,0.852
4,f,40,english,5,4,english,2024-02-09 19:58:32.528132,False,1,57,sounds\english\audio/english_401.wav,"[[ 0.00000000e+00 -3.61059854e+01]
 [ 1.00000000e-01  3.86051330e+01]
 [ 2.00000000e-01  6.46138816e+00]
 [ 3.00000000e-01 -7.68629005e+01]
 [ 4.00000000e-01  5.39378868e+01]
 [ 5.00000000e-01  2.83848957e+01]
 [ 6.00000000e-01  4.95351020e+01]
 [ 7.00000000e-01 -6.47881021e+01]
 [ 8.00000000e-01 -9.89667189e+01]
 [ 9.00000000e-01 -2.63257976e-02]
 [ 1.00000000e+00 -1.47031707e-01]
 [ 1.09391667e+00 -8.36458716e+01]]","[[0.         1.51802818]
 [0.1        1.15871841]
 [0.2        1.08082563]
 [0.3        0.42984112]
 [0.4        1.24745689]
 [0.5        0.52889601]
 [0.6        1.52039951]
 [0.7        1.59778592]
 [0.8        0.63237027]
 [0.9        0.3603848 ]
 [1.         0.91165557]
 [1.09391667 1.59350312]]",0,0.366
4,f,40,english,5,4,english,2024-02-09 19:58:32.528132,False,1,58,sounds\english\audio/english_22.wav,"[[  0.          70.18292814]
 [  0.1        -80.96999494]
 [  0.2        -35.97807487]
 [  0.3        -50.77912628]
 [  0.4         45.67027718]
 [  0.5         93.75980346]
 [  0.6        -60.5710335 ]
 [  0.7        -35.42669747]
 [  0.8         84.37918603]
 [  0.9         -3.38291766]
 [  1.         -36.07509244]
 [  1.09391667 -43.05429972]]","[[0.         0.28551441]
 [0.1        0.4027703 ]
 [0.2        0.92085021]
 [0.3        0.28132548]
 [0.4        1.60569992]
 [0.5        1.16285663]
 [0.6        1.00744398]
 [0.7        0.58521518]
 [0.8        0.90086295]
 [0.9        0.69217241]
 [1.         1.456266  ]
 [1.09391667 0.26376925]]",1,0.47
4,f,40,english,5,4,english,2024-02-09 19:58:32.528132,False,1,59,sounds\english\audio/english_470.wav,"[[  0.           7.37990413]
 [  0.1         87.94942489]
 [  0.2         10.38249529]
 [  0.3        -58.07329771]
 [  0.4         23.85321855]
 [  0.5          6.8444155 ]
 [  0.6        -98.77408233]
 [  0.7         31.31374825]
 [  0.8         48.11301354]
 [  0.9         41.85545408]
 [  1.         -24.66275902]
 [  1.09391667 -90.92929456]]","[[0.         0.50795653]
 [0.1        0.30691906]
 [0.2        0.98636118]
 [0.3        1.21445168]
 [0.4        1.48681533]
 [0.5        0.97810489]
 [0.6        1.43803165]
 [0.7        0.53571114]
 [0.8        0.52187188]
 [0.9        0.48211822]
 [1.         1.48098769]
 [1.09391667 1.20326113]]",0,0.489
4,f,40,english,5,4,english,2024-02-09 19:58:32.528132,False,1,60,sounds\english\audio/english_506.wav,"[[  0.         -13.3952031 ]
 [  0.1          8.8632007 ]
 [  0.2        -83.95985859]
 [  0.3         38.02193565]
 [  0.4         29.61638046]
 [  0.5         91.08087873]
 [  0.6         45.85080553]
 [  0.7         15.18618823]
 [  0.8          7.43914734]
 [  0.9         90.87583829]
 [  1.         -85.58318538]
 [  1.09391667 -68.83720883]]","[[0.         0.85990944]
 [0.1        0.40173642]
 [0.2        0.03154553]
 [0.3        0.39528278]
 [0.4        0.64999614]
 [0.5        0.76132632]
 [0.6        0.84020916]
 [0.7        1.25961369]
 [0.8        1.02786985]
 [0.9        1.37241819]
 [1.         0.76507647]
 [1.09391667 1.93766079]]",0,0.545
4,f,40,english,5,4,english,2024-02-09 19:58:32.528132,False,1,61,sounds\english\audio/english_806.wav,"[[  0.          43.54674573]
 [  0.1        -68.74197722]
 [  0.2        -23.84581235]
 [  0.3        -72.86002473]
 [  0.4        -35.27978776]
 [  0.5         -2.08559415]
 [  0.6        -68.55515823]
 [  0.7        -32.41040243]
 [  0.8         43.35004903]
 [  0.9         -2.04848196]
 [  1.           6.21691759]
 [  1.09391667 -62.57800707]]","[[0.         1.38359874]
 [0.1        1.64152579]
 [0.2        1.16928597]
 [0.3        0.86357206]
 [0.4        0.73652759]
 [0.5        0.11615926]
 [0.6        0.96374449]
 [0.7        1.00194659]
 [0.8        0.5470064 ]
 [0.9        0.25999945]
 [1.         0.37115798]
 [1.09391667 1.34941772]]",0,0.795
4,f,40,english,5,4,english,2024-02-09 19:58:32.528132,False,1,62,sounds\english\audio/english_94.wav,"[[  0.         -69.13613192]
 [  0.1        -53.91573564]
 [  0.2         88.54569891]
 [  0.3         47.91558238]
 [  0.4         46.13883045]
 [  0.5          0.71209955]
 [  0.6         53.89774049]
 [  0.7         37.22112319]
 [  0.8          8.13348347]
 [  0.9        -10.35793642]
 [  1.          75.25647247]
 [  1.09391667 -70.34686187]]","[[0.         0.71683615]
 [0.1        1.64130178]
 [0.2        1.41561382]
 [0.3        0.72478091]
 [0.4        1.21480875]
 [0.5        0.13058063]
 [0.6        1.07607775]
 [0.7        0.10112022]
 [0.8        0.91343474]
 [0.9        0.77751528]
 [1.         0.57088528]
 [1.09391667 0.98841109]]",1,0.582
4,f,40,english,5,4,english,2024-02-09 19:58:32.528132,False,1,63,sounds\english\audio/english_39.wav,"[[  0.          34.55093166]
 [  0.1         -1.41260387]
 [  0.2         91.9059208 ]
 [  0.3         67.91256725]
 [  0.4        -65.38565065]
 [  0.5        -78.2257863 ]
 [  0.6        -21.37966567]
 [  0.7         29.85741907]
 [  0.8        -64.93181205]
 [  0.9         27.95057541]
 [  1.           5.43341778]
 [  1.09391667 -89.64672073]]","[[0.         1.34796705]
 [0.1        0.08491471]
 [0.2        1.67265438]
 [0.3        0.89650698]
 [0.4        0.64014049]
 [0.5        1.50034896]
 [0.6        0.90896714]
 [0.7        1.5349886 ]
 [0.8        0.91983464]
 [0.9        1.17583732]
 [1.         1.89111311]
 [1.09391667 1.19651243]]",0,1.425
4,f,40,english,5,4,english,2024-02-09 19:58:32.528132,False,1,64,sounds\english\audio/english_331.wav,"[[  0.         -64.72276527]
 [  0.1        -64.60107944]
 [  0.2         43.10237597]
 [  0.3          3.97944271]
 [  0.4         53.93002911]
 [  0.5        -98.69413197]
 [  0.6         76.42202474]
 [  0.7        -50.14036669]
 [  0.8         61.5779926 ]
 [  0.9        -56.16895328]
 [  1.           5.62439148]
 [  1.09391667 -39.06443994]]","[[0.         1.69014175]
 [0.1        0.93306192]
 [0.2        1.51219836]
 [0.3        1.83280239]
 [0.4        0.32272679]
 [0.5        0.14451959]
 [0.6        0.4727661 ]
 [0.7        0.90462805]
 [0.8        1.98401372]
 [0.9        0.59081959]
 [1.         1.38184498]
 [1.09391667 0.44356806]]",1,0.631
4,f,40,english,5,4,english,2024-02-09 19:58:32.528132,False,1,65,sounds\english\audio/english_224.wav,"[[  0.         -78.61506242]
 [  0.1         50.32903383]
 [  0.2         13.41609495]
 [  0.3        -65.62214638]
 [  0.4        -58.93648778]
 [  0.5         72.28111683]
 [  0.6        -46.77069374]
 [  0.7        -90.37193795]
 [  0.8         -0.43339445]
 [  0.9        -45.45823975]
 [  1.         -68.1553756 ]
 [  1.09391667 -50.27313826]]","[[0.         0.96291184]
 [0.1        1.02849412]
 [0.2        1.48046057]
 [0.3        0.95403391]
 [0.4        0.16536285]
 [0.5        1.42811474]
 [0.6        0.74831178]
 [0.7        1.44512366]
 [0.8        1.0370843 ]
 [0.9        0.73747726]
 [1.         0.53686902]
 [1.09391667 1.24590757]]",1,0.495
4,f,40,english,5,4,english,2024-02-09 19:58:32.528132,False,1,66,sounds\english\audio/english_128.wav,"[[  0.         -22.61942611]
 [  0.1         68.41227715]
 [  0.2        -54.10958419]
 [  0.3        -34.3976761 ]
 [  0.4        -80.35189368]
 [  0.5        -23.21922247]
 [  0.6         75.93285278]
 [  0.7        -25.01230628]
 [  0.8         23.78207095]
 [  0.9        -74.87827882]
 [  1.          74.39346852]
 [  1.09391667  30.71976897]]","[[0.         1.66721471]
 [0.1        1.06525369]
 [0.2        1.55278382]
 [0.3        1.27447121]
 [0.4        1.24533025]
 [0.5        0.40128709]
 [0.6        1.08908342]
 [0.7        1.52248699]
 [0.8        1.64911831]
 [0.9        0.03473392]
 [1.         1.99892406]
 [1.09391667 1.56565298]]",1,0.235
4,f,40,english,5,4,english,2024-02-09 19:58:32.528132,False,1,67,sounds\english\audio/english_403.wav,"[[ 0.00000000e+00  1.55370236e-02]
 [ 1.00000000e-01 -4.64270355e+00]
 [ 2.00000000e-01 -8.67611077e+01]
 [ 3.00000000e-01 -8.66854854e+01]
 [ 4.00000000e-01 -7.43205589e+01]
 [ 5.00000000e-01  5.61207621e+01]
 [ 6.00000000e-01  1.50235235e+01]
 [ 7.00000000e-01  2.58783198e+01]
 [ 8.00000000e-01  2.13726461e+01]
 [ 9.00000000e-01  8.69816794e+01]
 [ 1.00000000e+00 -5.61900631e+01]
 [ 1.09391667e+00  5.92986673e+01]]","[[0.         1.50775741]
 [0.1        1.88632048]
 [0.2        1.79027228]
 [0.3        0.9708058 ]
 [0.4        1.26833926]
 [0.5        0.98662828]
 [0.6        1.65364002]
 [0.7        1.52514764]
 [0.8        1.10599603]
 [0.9        1.01372586]
 [1.         1.1928159 ]
 [1.09391667 0.36234179]]",0,1.268
4,f,40,english,5,4,english,2024-02-09 19:58:32.528132,False,1,68,sounds\english\audio/english_898.wav,"[[  0.         -34.72631164]
 [  0.1         67.7212699 ]
 [  0.2         92.06316774]
 [  0.3        -76.73151606]
 [  0.4         97.93920214]
 [  0.5         99.11447245]
 [  0.6         83.05225532]
 [  0.7        -27.3520563 ]
 [  0.8         40.20374668]
 [  0.9        -11.73877097]
 [  1.         -73.8798446 ]
 [  1.09391667  81.33954877]]","[[0.         0.55709283]
 [0.1        1.5055727 ]
 [0.2        1.25694743]
 [0.3        1.78673408]
 [0.4        0.88325681]
 [0.5        1.91785586]
 [0.6        1.93702091]
 [0.7        1.06642546]
 [0.8        1.06201677]
 [0.9        0.68712783]
 [1.         0.31583941]
 [1.09391667 1.03949418]]",1,0.994
4,f,40,english,5,4,english,2024-02-09 19:58:32.528132,False,1,69,sounds\english\audio/english_910.wav,"[[  0.          93.46024718]
 [  0.1        -38.0106705 ]
 [  0.2        -30.70791106]
 [  0.3        -49.1070975 ]
 [  0.4         91.46247689]
 [  0.5         78.82386136]
 [  0.6         -6.45155929]
 [  0.7        -83.2103546 ]
 [  0.8        -83.88050829]
 [  0.9        -99.45548406]
 [  1.          66.97768693]
 [  1.09391667  38.56846955]]","[[0.         0.69074333]
 [0.1        0.32933862]
 [0.2        1.76708997]
 [0.3        0.49648564]
 [0.4        1.45285745]
 [0.5        1.00544929]
 [0.6        1.307348  ]
 [0.7        0.52979989]
 [0.8        1.11439341]
 [0.9        1.95169189]
 [1.         1.74620984]
 [1.09391667 0.09671244]]",0,0.857
4,f,40,english,5,4,english,2024-02-09 19:58:32.528132,False,1,70,sounds\english\audio/english_567.wav,"[[  0.         -50.9933631 ]
 [  0.1         31.36220977]
 [  0.2         13.5680641 ]
 [  0.3        -18.75410864]
 [  0.4        -57.83772282]
 [  0.5         90.76203665]
 [  0.6        -98.97367079]
 [  0.7         53.61923561]
 [  0.8         -3.57099992]
 [  0.9         94.7090793 ]
 [  1.          93.07088687]
 [  1.09391667 -71.18485827]]","[[0.         1.16123569]
 [0.1        0.07564958]
 [0.2        0.67264934]
 [0.3        0.76417436]
 [0.4        0.9716426 ]
 [0.5        1.19685833]
 [0.6        0.6509574 ]
 [0.7        1.78514313]
 [0.8        1.44408837]
 [0.9        0.5179509 ]
 [1.         1.46519298]
 [1.09391667 0.55032839]]",1,0.518
4,f,40,english,5,4,english,2024-02-09 19:58:32.528132,False,1,71,sounds\english\audio/english_274.wav,"[[  0.          90.15852298]
 [  0.1         54.46178194]
 [  0.2         92.29787974]
 [  0.3         56.79856413]
 [  0.4          6.80655331]
 [  0.5         85.98039627]
 [  0.6         79.54748497]
 [  0.7        -50.26158779]
 [  0.8         46.33910856]
 [  0.9        -52.2237302 ]
 [  1.          14.53688649]
 [  1.09391667  26.74527789]]","[[0.         1.09879686]
 [0.1        1.93033732]
 [0.2        1.35119606]
 [0.3        1.49147937]
 [0.4        1.75081802]
 [0.5        0.26277184]
 [0.6        1.06227003]
 [0.7        0.06438964]
 [0.8        0.88741243]
 [0.9        0.12141514]
 [1.         1.07853955]
 [1.09391667 0.24561082]]",0,0.616
4,f,40,english,5,4,english,2024-02-09 19:58:32.528132,False,1,72,sounds\english\audio/english_557.wav,"[[  0.         -36.00437951]
 [  0.1        -36.18192477]
 [  0.2        -76.46214854]
 [  0.3         -9.78546514]
 [  0.4        -53.27937245]
 [  0.5         14.69737181]
 [  0.6        -76.22217722]
 [  0.7         76.26393568]
 [  0.8        -62.02007028]
 [  0.9         73.18804903]
 [  1.          75.91755358]
 [  1.09391667 -37.39944408]]","[[0.         0.86268568]
 [0.1        0.78818346]
 [0.2        0.88104775]
 [0.3        0.51957323]
 [0.4        1.84624381]
 [0.5        0.53524469]
 [0.6        0.83895898]
 [0.7        0.4548877 ]
 [0.8        1.59917341]
 [0.9        0.63690232]
 [1.         1.04600017]
 [1.09391667 0.42796411]]",0,0.754
4,f,40,english,5,4,english,2024-02-09 19:58:32.528132,False,1,73,sounds\english\audio/english_890.wav,"[[  0.          31.44625075]
 [  0.1        -90.32825643]
 [  0.2        -64.7017166 ]
 [  0.3         15.62340259]
 [  0.4        -79.4752192 ]
 [  0.5         74.79009283]
 [  0.6        -57.91380652]
 [  0.7         92.43048613]
 [  0.8         -1.35432996]
 [  0.9         -1.4007117 ]
 [  1.         -22.8275935 ]
 [  1.09391667 -34.82288483]]","[[0.         1.15032127]
 [0.1        0.20043056]
 [0.2        0.4631213 ]
 [0.3        1.29891642]
 [0.4        0.6480645 ]
 [0.5        0.81505597]
 [0.6        1.23579114]
 [0.7        0.16251602]
 [0.8        0.74439657]
 [0.9        1.69626999]
 [1.         0.07593713]
 [1.09391667 0.22950927]]",0,0.449
4,f,40,english,5,4,english,2024-02-09 19:58:32.528132,False,1,74,sounds\english\audio/english_249.wav,"[[  0.          76.25739469]
 [  0.1        -72.9034905 ]
 [  0.2        -34.31284512]
 [  0.3         23.60127817]
 [  0.4         51.01923595]
 [  0.5        -89.59911495]
 [  0.6         34.41203989]
 [  0.7         52.60913862]
 [  0.8        -90.65371811]
 [  0.9        -64.64204846]
 [  1.         -86.58401711]
 [  1.09391667 -34.03680634]]","[[0.         0.56602806]
 [0.1        1.86013856]
 [0.2        1.49321079]
 [0.3        0.47941188]
 [0.4        0.65185377]
 [0.5        1.3750676 ]
 [0.6        1.54319682]
 [0.7        0.09952226]
 [0.8        0.08638802]
 [0.9        1.60736563]
 [1.         0.42122312]
 [1.09391667 0.01186603]]",0,0.306
4,f,40,english,5,4,english,2024-02-09 19:58:32.528132,False,1,75,sounds\english\audio/english_955.wav,"[[  0.          38.31421616]
 [  0.1         -0.24395343]
 [  0.2        -30.85408012]
 [  0.3         73.34311783]
 [  0.4        -91.5837752 ]
 [  0.5         57.97712299]
 [  0.6          6.73272041]
 [  0.7         -3.5280389 ]
 [  0.8        -53.89604604]
 [  0.9         42.44442799]
 [  1.         -51.31943535]
 [  1.09391667 -10.15737525]]","[[0.         0.40317625]
 [0.1        1.41770308]
 [0.2        0.82154239]
 [0.3        1.53285595]
 [0.4        0.89318017]
 [0.5        1.16313419]
 [0.6        0.62969855]
 [0.7        1.12563056]
 [0.8        0.39704544]
 [0.9        0.50354627]
 [1.         0.66246368]
 [1.09391667 0.25441039]]",0,0.304
4,f,40,english,5,4,english,2024-02-09 19:58:32.528132,False,1,76,sounds\english\audio/english_20.wav,"[[  0.          63.0600358 ]
 [  0.1        -51.01536648]
 [  0.2        -79.38394235]
 [  0.3         18.37962799]
 [  0.4        -93.10550864]
 [  0.5        -34.41615075]
 [  0.6        -59.60856077]
 [  0.7         -5.91904512]
 [  0.8        -91.08119021]
 [  0.9        -45.35675883]
 [  1.         -19.89168543]
 [  1.09391667  49.76773146]]","[[0.         0.86275217]
 [0.1        0.66446023]
 [0.2        0.76617276]
 [0.3        1.08107646]
 [0.4        0.88129698]
 [0.5        1.16389527]
 [0.6        1.73817265]
 [0.7        1.94089825]
 [0.8        0.88467755]
 [0.9        1.32628719]
 [1.         0.31006302]
 [1.09391667 0.42478041]]",0,0.428
4,f,40,english,5,4,english,2024-02-09 19:58:32.528132,False,1,77,sounds\english\audio/english_315.wav,"[[  0.          20.11963367]
 [  0.1        -30.87144334]
 [  0.2         39.10248869]
 [  0.3        -19.08604714]
 [  0.4         90.41461318]
 [  0.5        -82.87118979]
 [  0.6        -12.30252898]
 [  0.7          9.37098005]
 [  0.8        -86.3809894 ]
 [  0.9          2.03064205]
 [  1.          99.30710259]
 [  1.09391667  58.65294367]]","[[0.         1.15782854]
 [0.1        1.37599817]
 [0.2        1.4514196 ]
 [0.3        1.32135016]
 [0.4        1.69132556]
 [0.5        0.65296677]
 [0.6        1.40058812]
 [0.7        0.87815256]
 [0.8        0.15444706]
 [0.9        1.46097728]
 [1.         0.37640447]
 [1.09391667 1.18518174]]",0,0.881
4,f,40,english,5,4,english,2024-02-09 19:58:32.528132,False,1,78,sounds\english\audio/english_626.wav,"[[  0.          -0.56370029]
 [  0.1        -99.91896683]
 [  0.2         71.91666298]
 [  0.3          5.93440056]
 [  0.4         30.6659702 ]
 [  0.5         50.2345252 ]
 [  0.6         26.80081253]
 [  0.7         57.01154581]
 [  0.8        -79.56021694]
 [  0.9         19.7734095 ]
 [  1.          24.01737707]
 [  1.09391667 -71.48633622]]","[[0.         1.601019  ]
 [0.1        1.02479774]
 [0.2        1.56428022]
 [0.3        1.41456241]
 [0.4        1.90457562]
 [0.5        1.04545234]
 [0.6        1.05575336]
 [0.7        1.40636518]
 [0.8        1.56161819]
 [0.9        0.61190755]
 [1.         0.77515613]
 [1.09391667 1.93548934]]",1,0.319
4,f,40,english,5,4,english,2024-02-09 19:58:32.528132,False,1,79,sounds\english\audio/english_202.wav,"[[  0.         -55.5835629 ]
 [  0.1        -74.17222211]
 [  0.2         32.91988816]
 [  0.3        -61.08726633]
 [  0.4         74.28120307]
 [  0.5         27.15782783]
 [  0.6        -31.42828759]
 [  0.7        -85.57803202]
 [  0.8         -8.83313062]
 [  0.9         75.88912897]
 [  1.         -46.89935533]
 [  1.09391667   1.73094833]]","[[0.         1.42115323]
 [0.1        1.11230171]
 [0.2        1.2604868 ]
 [0.3        1.38170621]
 [0.4        1.19502306]
 [0.5        1.3290301 ]
 [0.6        1.43273837]
 [0.7        0.23505516]
 [0.8        0.8306151 ]
 [0.9        1.14421979]
 [1.         1.72535261]
 [1.09391667 1.37481935]]",0,0.235
4,f,40,english,5,4,english,2024-02-09 19:58:32.528132,False,1,80,sounds\english\audio/english_482.wav,"[[  0.          20.07417146]
 [  0.1        -12.82737333]
 [  0.2         46.60771192]
 [  0.3         92.39920005]
 [  0.4         96.99690807]
 [  0.5         12.60829295]
 [  0.6        -23.92845314]
 [  0.7        -47.3765233 ]
 [  0.8         55.97987906]
 [  0.9         22.28704579]
 [  1.          67.15676761]
 [  1.09391667  46.69344931]]","[[0.         1.35721439]
 [0.1        1.71306389]
 [0.2        0.15096255]
 [0.3        1.17077369]
 [0.4        0.74035243]
 [0.5        1.34523093]
 [0.6        0.96774723]
 [0.7        1.67491069]
 [0.8        1.90247302]
 [0.9        1.31919575]
 [1.         1.48251796]
 [1.09391667 0.85176568]]",1,0.264
4,f,40,english,5,4,english,2024-02-09 19:58:32.528132,False,1,81,sounds\english\audio/english_653.wav,"[[  0.          41.8259341 ]
 [  0.1         17.38671322]
 [  0.2         86.12532741]
 [  0.3        -33.72650973]
 [  0.4        -40.64508362]
 [  0.5         29.34700904]
 [  0.6        -10.62645481]
 [  0.7        -39.23364733]
 [  0.8          1.23936202]
 [  0.9         54.61023708]
 [  1.          68.93146106]
 [  1.09391667  98.0100566 ]]","[[0.         0.17533452]
 [0.1        1.08757539]
 [0.2        1.96334993]
 [0.3        1.47062591]
 [0.4        1.06368379]
 [0.5        1.07766545]
 [0.6        1.32143854]
 [0.7        0.74682372]
 [0.8        0.56607345]
 [0.9        0.97558446]
 [1.         0.53847025]
 [1.09391667 0.14439152]]",0,0.308
4,f,40,english,5,4,english,2024-02-09 19:58:32.528132,False,1,82,sounds\english\audio/english_166.wav,"[[  0.         -22.47224396]
 [  0.1          8.34418228]
 [  0.2        -26.80375044]
 [  0.3        -25.22426401]
 [  0.4        -44.17860095]
 [  0.5         -7.8395137 ]
 [  0.6         42.03338864]
 [  0.7         50.48936268]
 [  0.8        -79.33283531]
 [  0.9         57.67304972]
 [  1.          75.92662412]
 [  1.09391667  -5.06556073]]","[[0.         0.79935629]
 [0.1        1.08766258]
 [0.2        0.88793969]
 [0.3        1.85581966]
 [0.4        1.74261815]
 [0.5        0.67828824]
 [0.6        0.30993225]
 [0.7        1.83209491]
 [0.8        1.96795539]
 [0.9        0.73278394]
 [1.         1.69577801]
 [1.09391667 0.31756742]]",1,0.244
4,f,40,english,5,4,english,2024-02-09 19:58:32.528132,False,1,83,sounds\english\audio/english_428.wav,"[[  0.          81.83092524]
 [  0.1        -80.13069751]
 [  0.2        -11.65632902]
 [  0.3        -46.08084266]
 [  0.4          3.29741478]
 [  0.5         38.2144639 ]
 [  0.6        -36.34649143]
 [  0.7        -64.94911042]
 [  0.8         55.28808141]
 [  0.9        -85.65631623]
 [  1.          45.03584187]
 [  1.09391667 -22.28745039]]","[[0.         1.65195738]
 [0.1        1.50342219]
 [0.2        1.06152039]
 [0.3        0.87273268]
 [0.4        1.30041173]
 [0.5        1.27181021]
 [0.6        1.2829939 ]
 [0.7        0.80379216]
 [0.8        0.54976242]
 [0.9        1.4846347 ]
 [1.         0.86531381]
 [1.09391667 0.63375774]]",0,0.453
4,f,40,english,5,4,english,2024-02-09 19:58:32.528132,False,1,84,sounds\english\audio/english_785.wav,"[[  0.         -73.74150429]
 [  0.1        -10.25262424]
 [  0.2        -91.38996228]
 [  0.3        -58.16150792]
 [  0.4         56.13851827]
 [  0.5        -53.87138426]
 [  0.6        -26.51328271]
 [  0.7         38.10109315]
 [  0.8        -52.27058488]
 [  0.9         61.81362114]
 [  1.         -48.3420263 ]
 [  1.09391667   5.55581958]]","[[0.         1.15978121]
 [0.1        1.76239803]
 [0.2        1.35267709]
 [0.3        0.50742704]
 [0.4        1.43887546]
 [0.5        0.30204401]
 [0.6        0.04616459]
 [0.7        0.31028806]
 [0.8        1.01215639]
 [0.9        1.14370061]
 [1.         1.51703025]
 [1.09391667 0.02011385]]",0,0.454
4,f,40,english,5,4,english,2024-02-09 19:58:32.528132,False,1,85,sounds\english\audio/english_342.wav,"[[  0.          41.55644967]
 [  0.1         67.8619368 ]
 [  0.2        -84.54944787]
 [  0.3        -13.40526133]
 [  0.4         84.55980061]
 [  0.5        -73.66695786]
 [  0.6         32.1068808 ]
 [  0.7         96.14629479]
 [  0.8         55.28291813]
 [  0.9         35.51210396]
 [  1.          29.41468439]
 [  1.09391667  39.84982535]]","[[0.         0.78446862]
 [0.1        0.85565407]
 [0.2        1.8318275 ]
 [0.3        1.61118522]
 [0.4        0.75274568]
 [0.5        0.63423277]
 [0.6        1.74871382]
 [0.7        0.40859241]
 [0.8        1.57798181]
 [0.9        1.87430569]
 [1.         1.15438502]
 [1.09391667 1.30694685]]",1,0.02
4,f,40,english,5,4,english,2024-02-09 19:58:32.528132,False,1,86,sounds\english\audio/english_817.wav,"[[  0.          39.93653704]
 [  0.1        -44.37889142]
 [  0.2        -71.95009912]
 [  0.3          0.10723305]
 [  0.4         32.85070006]
 [  0.5         84.39314217]
 [  0.6        -27.64718927]
 [  0.7        -96.89614882]
 [  0.8         78.14592137]
 [  0.9        -23.71803159]
 [  1.         -89.09326047]
 [  1.09391667  -7.75099391]]","[[0.         0.59804512]
 [0.1        1.22051814]
 [0.2        1.02272202]
 [0.3        0.82768739]
 [0.4        0.75023907]
 [0.5        1.45571946]
 [0.6        1.19333558]
 [0.7        0.88124366]
 [0.8        1.40555944]
 [0.9        0.40947716]
 [1.         0.89036455]
 [1.09391667 1.8115698 ]]",1,0.344
4,f,40,english,5,4,english,2024-02-09 19:58:32.528132,False,1,87,sounds\english\audio/english_198.wav,"[[  0.          51.36253455]
 [  0.1         -1.79808666]
 [  0.2        -53.25635357]
 [  0.3         92.04905147]
 [  0.4        -90.57518695]
 [  0.5         60.37120744]
 [  0.6        -93.94505953]
 [  0.7          1.88310477]
 [  0.8        -23.01531969]
 [  0.9        -70.16036682]
 [  1.         -26.79565184]
 [  1.09391667  30.40332279]]","[[0.         0.9480924 ]
 [0.1        1.89932886]
 [0.2        1.74507587]
 [0.3        0.26533823]
 [0.4        0.16174051]
 [0.5        0.96723602]
 [0.6        1.36968268]
 [0.7        0.12063159]
 [0.8        1.46254302]
 [0.9        1.09212546]
 [1.         1.75188749]
 [1.09391667 1.41042335]]",1,1.381
4,f,40,english,5,4,english,2024-02-09 19:58:32.528132,False,1,88,sounds\english\audio/english_834.wav,"[[  0.         -86.16375599]
 [  0.1        -22.09919923]
 [  0.2         63.82090938]
 [  0.3         38.26115817]
 [  0.4         15.19654457]
 [  0.5         78.054871  ]
 [  0.6         63.1081572 ]
 [  0.7         43.43236214]
 [  0.8        -74.3897683 ]
 [  0.9         40.24285486]
 [  1.         -67.71571624]
 [  1.09391667  40.03958616]]","[[0.         1.62153397]
 [0.1        1.42577166]
 [0.2        1.22840095]
 [0.3        1.977843  ]
 [0.4        0.63466945]
 [0.5        1.94429469]
 [0.6        0.531594  ]
 [0.7        1.34157161]
 [0.8        1.32269287]
 [0.9        1.75386624]
 [1.         1.01238939]
 [1.09391667 1.44306133]]",0,0.504
4,f,40,english,5,4,english,2024-02-09 19:58:32.528132,False,1,89,sounds\english\audio/english_924.wav,"[[  0.         -34.16359775]
 [  0.1         95.89868764]
 [  0.2         -7.67474925]
 [  0.3        -21.77911834]
 [  0.4         31.17946122]
 [  0.5          0.48616436]
 [  0.6         56.04156449]
 [  0.7         79.12331334]
 [  0.8         58.34446187]
 [  0.9         51.02751352]
 [  1.          59.10490512]
 [  1.09391667  60.06487251]]","[[0.         0.79366522]
 [0.1        0.73795008]
 [0.2        0.39139015]
 [0.3        0.47707552]
 [0.4        0.09637783]
 [0.5        1.58696559]
 [0.6        1.87427133]
 [0.7        0.57578157]
 [0.8        1.11639403]
 [0.9        1.98577552]
 [1.         0.22580189]
 [1.09391667 1.66820152]]",0,0.479
4,f,40,english,5,4,english,2024-02-09 19:58:32.528132,False,1,90,sounds\english\audio/english_608.wav,"[[  0.          51.7664081 ]
 [  0.1        -80.54246428]
 [  0.2        -77.98130797]
 [  0.3         25.40612748]
 [  0.4        -25.13261416]
 [  0.5        -47.23330204]
 [  0.6         80.77508225]
 [  0.7        -91.19719701]
 [  0.8        -56.07696763]
 [  0.9        -57.98593589]
 [  1.          87.03595353]
 [  1.09391667 -36.96026424]]","[[0.         1.51537713]
 [0.1        0.15028224]
 [0.2        1.81254149]
 [0.3        1.88904665]
 [0.4        0.02307613]
 [0.5        1.59293411]
 [0.6        1.34709582]
 [0.7        0.43937258]
 [0.8        1.30698023]
 [0.9        1.72852212]
 [1.         1.13440146]
 [1.09391667 1.09789882]]",0,0.289
4,f,40,english,5,4,english,2024-02-09 19:58:32.528132,False,1,91,sounds\english\audio/english_412.wav,"[[  0.          26.80121406]
 [  0.1         42.5524274 ]
 [  0.2         38.73121894]
 [  0.3         55.35824973]
 [  0.4        -87.34208499]
 [  0.5         91.77879658]
 [  0.6        -99.58264321]
 [  0.7         89.55239913]
 [  0.8        -28.13161571]
 [  0.9         19.27007549]
 [  1.          60.0301485 ]
 [  1.09391667  67.95145907]]","[[0.         1.83350646]
 [0.1        0.85761925]
 [0.2        0.81318793]
 [0.3        1.83972978]
 [0.4        0.56193469]
 [0.5        1.27086462]
 [0.6        1.22553346]
 [0.7        0.34439159]
 [0.8        1.78223109]
 [0.9        1.75477532]
 [1.         0.33667923]
 [1.09391667 1.7966079 ]]",0,0.138
4,f,40,english,5,4,english,2024-02-09 19:58:32.528132,False,1,92,sounds\english\audio/english_345.wav,"[[  0.         -34.02990991]
 [  0.1        -88.27975281]
 [  0.2         -1.56807316]
 [  0.3        -28.98585365]
 [  0.4         83.28491736]
 [  0.5        -16.11421398]
 [  0.6        -92.22378926]
 [  0.7         50.09737337]
 [  0.8         11.89135809]
 [  0.9         86.57873929]
 [  1.          15.84417261]
 [  1.09391667  22.95884771]]","[[0.         1.8609144 ]
 [0.1        1.48233205]
 [0.2        0.71166641]
 [0.3        0.21699581]
 [0.4        1.65978529]
 [0.5        0.84551922]
 [0.6        0.60808254]
 [0.7        1.24136652]
 [0.8        0.61250032]
 [0.9        0.42246236]
 [1.         0.8731046 ]
 [1.09391667 1.62586913]]",0,0.275
4,f,40,english,5,4,english,2024-02-09 19:58:32.528132,False,1,93,sounds\english\audio/english_674.wav,"[[  0.         -98.04630788]
 [  0.1        -67.7388386 ]
 [  0.2         42.66102915]
 [  0.3        -47.4601568 ]
 [  0.4         19.12628611]
 [  0.5        -84.54204909]
 [  0.6        -71.85903786]
 [  0.7         83.31217322]
 [  0.8        -12.56030822]
 [  0.9          2.8176003 ]
 [  1.          36.77486132]
 [  1.09391667  32.03385029]]","[[0.         1.00959277]
 [0.1        1.32906917]
 [0.2        0.34524669]
 [0.3        1.53911224]
 [0.4        0.37006092]
 [0.5        0.51745569]
 [0.6        0.24033901]
 [0.7        0.56180337]
 [0.8        0.37273026]
 [0.9        0.28626573]
 [1.         1.87627127]
 [1.09391667 1.91315754]]",0,0.248
4,f,40,english,5,4,english,2024-02-09 19:58:32.528132,False,1,94,sounds\english\audio/english_428.wav,"[[  0.          81.83092524]
 [  0.1        -80.13069751]
 [  0.2        -11.65632902]
 [  0.3        -46.08084266]
 [  0.4          3.29741478]
 [  0.5         38.2144639 ]
 [  0.6        -36.34649143]
 [  0.7        -64.94911042]
 [  0.8         55.28808141]
 [  0.9        -85.65631623]
 [  1.          45.03584187]
 [  1.09391667 -22.28745039]]","[[0.         1.65195738]
 [0.1        1.50342219]
 [0.2        1.06152039]
 [0.3        0.87273268]
 [0.4        1.30041173]
 [0.5        1.27181021]
 [0.6        1.2829939 ]
 [0.7        0.80379216]
 [0.8        0.54976242]
 [0.9        1.4846347 ]
 [1.         0.86531381]
 [1.09391667 0.63375774]]",0,0.249
4,f,40,english,5,4,english,2024-02-09 19:58:32.528132,False,1,95,sounds\english\audio/english_778.wav,"[[ 0.00000000e+00  8.20288253e+01]
 [ 1.00000000e-01 -2.03816384e+01]
 [ 2.00000000e-01  2.01187508e+01]
 [ 3.00000000e-01 -6.73840406e+01]
 [ 4.00000000e-01  4.17924950e+01]
 [ 5.00000000e-01  6.92908492e+01]
 [ 6.00000000e-01 -4.19809295e+01]
 [ 7.00000000e-01  9.30761369e+01]
 [ 8.00000000e-01  4.08814008e+00]
 [ 9.00000000e-01 -3.75531871e-02]
 [ 1.00000000e+00 -7.90647822e+01]
 [ 1.09391667e+00 -5.30664028e+01]]","[[0.         1.66099758]
 [0.1        0.6394452 ]
 [0.2        1.73198521]
 [0.3        1.63414449]
 [0.4        0.91528965]
 [0.5        1.84340145]
 [0.6        0.70098427]
 [0.7        1.59677801]
 [0.8        0.75626513]
 [0.9        1.05104073]
 [1.         0.42401001]
 [1.09391667 1.42241932]]",0,0.192
4,f,40,english,5,4,english,2024-02-09 19:58:32.528132,False,1,96,sounds\english\audio/english_24.wav,"[[  0.          19.80934614]
 [  0.1         18.47296287]
 [  0.2        -87.44087303]
 [  0.3        -24.76838412]
 [  0.4         28.54854922]
 [  0.5        -93.00925389]
 [  0.6         43.83851229]
 [  0.7         56.50445967]
 [  0.8        -34.51680679]
 [  0.9         77.91008798]
 [  1.          22.21951013]
 [  1.09391667  44.21755505]]","[[0.         1.72303363]
 [0.1        1.17223446]
 [0.2        0.32252022]
 [0.3        1.29113778]
 [0.4        1.23026356]
 [0.5        1.272094  ]
 [0.6        1.03857334]
 [0.7        0.04355902]
 [0.8        1.12262583]
 [0.9        0.83275479]
 [1.         0.49987962]
 [1.09391667 0.6404637 ]]",0,0.353
4,f,40,english,5,4,english,2024-02-09 19:58:32.528132,False,1,97,sounds\english\audio/english_80.wav,"[[  0.          15.98753908]
 [  0.1        -56.19575542]
 [  0.2         -3.20238754]
 [  0.3         78.26727965]
 [  0.4        -34.16157501]
 [  0.5        -80.06220611]
 [  0.6         26.74823286]
 [  0.7         37.47089689]
 [  0.8         26.79850159]
 [  0.9        -24.50397544]
 [  1.          43.76607114]
 [  1.09391667  10.09103426]]","[[0.         1.07609062]
 [0.1        0.12895948]
 [0.2        1.07538029]
 [0.3        0.04332835]
 [0.4        1.09018765]
 [0.5        0.93581394]
 [0.6        0.96811326]
 [0.7        0.66776739]
 [0.8        0.56521885]
 [0.9        1.65043275]
 [1.         1.48241079]
 [1.09391667 1.57868315]]",0,0.174
4,f,40,english,5,4,english,2024-02-09 19:58:32.528132,False,1,98,sounds\english\audio/english_885.wav,"[[  0.          54.55471531]
 [  0.1         -9.45538995]
 [  0.2         51.71669589]
 [  0.3         35.30778931]
 [  0.4         20.62870104]
 [  0.5         45.97492152]
 [  0.6         57.72908242]
 [  0.7         -7.90762664]
 [  0.8        -27.43803549]
 [  0.9        -45.75999486]
 [  1.          65.06809526]
 [  1.09391667  85.31433116]]","[[0.         1.33761042]
 [0.1        0.16839263]
 [0.2        0.15282828]
 [0.3        0.93528856]
 [0.4        0.42450529]
 [0.5        1.13086713]
 [0.6        1.16302136]
 [0.7        1.12991064]
 [0.8        0.98725245]
 [0.9        0.61152154]
 [1.         0.86912983]
 [1.09391667 0.92468658]]",0,4.218
4,f,40,english,5,4,english,2024-02-09 19:58:32.528132,False,1,99,sounds\english\audio/english_593.wav,"[[  0.          13.70313969]
 [  0.1        -26.02533881]
 [  0.2         50.8702686 ]
 [  0.3         26.063803  ]
 [  0.4        -79.95092445]
 [  0.5        -94.01020979]
 [  0.6        -33.71882566]
 [  0.7        -16.71092424]
 [  0.8        -31.84366891]
 [  0.9        -64.24810633]
 [  1.          73.5130108 ]
 [  1.09391667   1.16296444]]","[[0.         0.31776168]
 [0.1        1.39381701]
 [0.2        0.5191281 ]
 [0.3        0.69401342]
 [0.4        0.71717885]
 [0.5        0.74327862]
 [0.6        1.75165486]
 [0.7        0.78541269]
 [0.8        0.5067154 ]
 [0.9        1.19882101]
 [1.         0.30708851]
 [1.09391667 1.70447125]]",0,0.412
4,f,40,english,5,4,english,2024-02-09 19:58:32.528132,False,1,100,sounds\english\audio/english_593.wav,"[[  0.          13.70313969]
 [  0.1        -26.02533881]
 [  0.2         50.8702686 ]
 [  0.3         26.063803  ]
 [  0.4        -79.95092445]
 [  0.5        -94.01020979]
 [  0.6        -33.71882566]
 [  0.7        -16.71092424]
 [  0.8        -31.84366891]
 [  0.9        -64.24810633]
 [  1.          73.5130108 ]
 [  1.09391667   1.16296444]]","[[0.         0.31776168]
 [0.1        1.39381701]
 [0.2        0.5191281 ]
 [0.3        0.69401342]
 [0.4        0.71717885]
 [0.5        0.74327862]
 [0.6        1.75165486]
 [0.7        0.78541269]
 [0.8        0.5067154 ]
 [0.9        1.19882101]
 [1.         0.30708851]
 [1.09391667 1.70447125]]",0,0.167
4,f,40,english,5,4,english,2024-02-09 19:58:32.528132,False,1,101,sounds\english\audio/english_624.wav,"[[  0.          34.76400378]
 [  0.1        -36.42076645]
 [  0.2        -52.38985079]
 [  0.3         98.14853718]
 [  0.4         97.5674754 ]
 [  0.5        -80.04687885]
 [  0.6         -8.81047571]
 [  0.7        -78.45129318]
 [  0.8         39.54454361]
 [  0.9         32.62160332]
 [  1.         -98.98158135]
 [  1.09391667  19.08613563]]","[[0.         1.78994994]
 [0.1        1.4795907 ]
 [0.2        1.80721514]
 [0.3        1.70059719]
 [0.4        0.69719837]
 [0.5        1.37290399]
 [0.6        1.53741575]
 [0.7        1.54350611]
 [0.8        0.49170725]
 [0.9        1.04663897]
 [1.         0.63020253]
 [1.09391667 0.96318783]]",0,0.286
4,f,40,english,5,4,english,2024-02-09 19:58:32.528132,False,1,102,sounds\english\audio/english_334.wav,"[[  0.          96.16486857]
 [  0.1        -86.51500024]
 [  0.2         -9.37257187]
 [  0.3         72.06266942]
 [  0.4         11.10798007]
 [  0.5        -81.04621106]
 [  0.6        -50.80034191]
 [  0.7         40.96771285]
 [  0.8         92.51105292]
 [  0.9          6.87694398]
 [  1.           8.2337815 ]
 [  1.09391667 -26.51950547]]","[[0.         1.13651221]
 [0.1        1.49269335]
 [0.2        0.61460927]
 [0.3        0.5407499 ]
 [0.4        1.09788414]
 [0.5        1.18897069]
 [0.6        1.05502288]
 [0.7        1.84226931]
 [0.8        0.15122728]
 [0.9        1.31717853]
 [1.         0.71137381]
 [1.09391667 0.47666491]]",0,0.327
4,f,40,english,5,4,english,2024-02-09 19:58:32.528132,False,1,103,sounds\english\audio/english_361.wav,"[[  0.          20.84328773]
 [  0.1         31.97314279]
 [  0.2          0.96518171]
 [  0.3         76.6061975 ]
 [  0.4        -77.10206306]
 [  0.5         23.53898445]
 [  0.6        -12.32061179]
 [  0.7         28.9259581 ]
 [  0.8        -94.91860317]
 [  0.9        -45.1021446 ]
 [  1.          37.31543609]
 [  1.09391667 -48.80421802]]","[[0.         1.90680099]
 [0.1        0.60095823]
 [0.2        1.38207831]
 [0.3        1.17298151]
 [0.4        1.57242958]
 [0.5        0.07487762]
 [0.6        1.72866781]
 [0.7        0.62365339]
 [0.8        0.31926535]
 [0.9        1.82585567]
 [1.         1.81117851]
 [1.09391667 0.64368516]]",0,0.239
4,f,40,english,5,4,english,2024-02-09 19:58:32.528132,False,1,104,sounds\english\audio/english_106.wav,"[[  0.          49.34223169]
 [  0.1        -45.57503338]
 [  0.2        -15.08492624]
 [  0.3        -19.8979669 ]
 [  0.4        -25.53796799]
 [  0.5         88.30993321]
 [  0.6        -64.76962788]
 [  0.7        -39.71315935]
 [  0.8         92.87896843]
 [  0.9        -52.99965121]
 [  1.          37.25809924]
 [  1.09391667  83.50306975]]","[[0.         0.13389709]
 [0.1        0.25174437]
 [0.2        0.82402432]
 [0.3        0.82208583]
 [0.4        1.38135822]
 [0.5        0.76093903]
 [0.6        0.57981415]
 [0.7        1.62636068]
 [0.8        1.17795772]
 [0.9        0.06230935]
 [1.         0.54036795]
 [1.09391667 1.72343759]]",1,1.574
4,f,40,english,5,4,english,2024-02-09 19:58:32.528132,False,1,105,sounds\english\audio/english_677.wav,"[[  0.          35.18766114]
 [  0.1          3.82449325]
 [  0.2        -81.73229082]
 [  0.3         -1.54015563]
 [  0.4        -45.59201538]
 [  0.5         26.20010581]
 [  0.6        -19.9162202 ]
 [  0.7         41.69291663]
 [  0.8        -68.08590586]
 [  0.9        -52.35020304]
 [  1.          55.76687311]
 [  1.09391667  26.15340501]]","[[0.         1.46418541]
 [0.1        0.62060775]
 [0.2        1.63148334]
 [0.3        0.52758496]
 [0.4        0.80943231]
 [0.5        1.10411223]
 [0.6        0.62014779]
 [0.7        0.65910672]
 [0.8        1.69273141]
 [0.9        1.22000106]
 [1.         0.67614262]
 [1.09391667 1.44243981]]",0,0.601
4,f,40,english,5,4,english,2024-02-09 19:58:32.528132,False,1,106,sounds\english\audio/english_47.wav,"[[  0.          68.198191  ]
 [  0.1         94.43921987]
 [  0.2         71.99565581]
 [  0.3         -2.50267609]
 [  0.4        -27.23226475]
 [  0.5        -34.1635894 ]
 [  0.6        -43.16759163]
 [  0.7        -66.57434159]
 [  0.8         28.48495109]
 [  0.9         -2.22339421]
 [  1.         -87.95517187]
 [  1.09391667  64.08418893]]","[[0.         0.3166901 ]
 [0.1        0.04644968]
 [0.2        0.20202276]
 [0.3        0.13324084]
 [0.4        1.85081006]
 [0.5        1.50387921]
 [0.6        1.62546743]
 [0.7        1.04862791]
 [0.8        1.96555665]
 [0.9        1.0927937 ]
 [1.         0.42699379]
 [1.09391667 1.59110451]]",0,0.308
4,f,40,english,5,4,english,2024-02-09 19:58:32.528132,False,1,107,sounds\english\audio/english_355.wav,"[[  0.         -17.98441337]
 [  0.1         -3.7927165 ]
 [  0.2         49.96307457]
 [  0.3        -15.53125152]
 [  0.4        -84.8102411 ]
 [  0.5        -28.25718679]
 [  0.6        -58.3999431 ]
 [  0.7        -22.66304052]
 [  0.8        -95.1511219 ]
 [  0.9         82.90101198]
 [  1.          11.18923061]
 [  1.09391667  39.40210676]]","[[0.         0.63443376]
 [0.1        0.81098104]
 [0.2        0.15990124]
 [0.3        1.19729275]
 [0.4        1.78081856]
 [0.5        0.04344096]
 [0.6        1.99949459]
 [0.7        0.79420627]
 [0.8        0.51429102]
 [0.9        0.31900629]
 [1.         1.55539218]
 [1.09391667 0.94266916]]",0,1.299
4,f,40,english,5,4,english,2024-02-09 19:58:32.528132,False,1,108,sounds\english\audio/english_53.wav,"[[  0.          -9.98510741]
 [  0.1         90.79697624]
 [  0.2        -13.66139315]
 [  0.3        -58.03832427]
 [  0.4        -14.2879771 ]
 [  0.5         -9.92334291]
 [  0.6         48.00852586]
 [  0.7         -7.96828411]
 [  0.8          3.91211897]
 [  0.9          9.32007469]
 [  1.         -65.1483507 ]
 [  1.09391667 -31.85609608]]","[[0.         0.74460472]
 [0.1        1.15408397]
 [0.2        1.79328536]
 [0.3        1.05093724]
 [0.4        0.44247057]
 [0.5        0.88826362]
 [0.6        1.51515328]
 [0.7        1.78598668]
 [0.8        0.80456615]
 [0.9        0.44108586]
 [1.         1.43639609]
 [1.09391667 1.915162  ]]",0,0.338
4,f,40,english,5,4,english,2024-02-09 19:58:32.528132,False,1,109,sounds\english\audio/english_424.wav,"[[  0.         -17.35907603]
 [  0.1         18.81369918]
 [  0.2         55.92500366]
 [  0.3         45.08785435]
 [  0.4          3.17174712]
 [  0.5        -30.69278374]
 [  0.6         41.43178992]
 [  0.7        -46.28602692]
 [  0.8        -38.81280045]
 [  0.9        -42.19882472]
 [  1.         -88.98684391]
 [  1.09391667 -92.81820885]]","[[0.         1.03823748]
 [0.1        0.96868976]
 [0.2        1.67797376]
 [0.3        1.44469234]
 [0.4        0.62957499]
 [0.5        1.7765397 ]
 [0.6        1.27231114]
 [0.7        0.02713593]
 [0.8        0.44344556]
 [0.9        0.86812909]
 [1.         1.07480581]
 [1.09391667 0.17756303]]",0,0.384
4,f,40,english,5,4,english,2024-02-09 19:58:32.528132,False,1,110,sounds\english\audio/english_879.wav,"[[  0.         -41.71376067]
 [  0.1          5.81272632]
 [  0.2        -22.32054487]
 [  0.3         93.64091385]
 [  0.4        -40.92402167]
 [  0.5         13.45427288]
 [  0.6        -86.15210755]
 [  0.7        -20.9667874 ]
 [  0.8        -18.58842444]
 [  0.9        -72.1364449 ]
 [  1.         -83.06025628]
 [  1.09391667  76.41221389]]","[[0.         1.10654485]
 [0.1        1.32832236]
 [0.2        1.5555922 ]
 [0.3        0.11041486]
 [0.4        1.31993608]
 [0.5        1.7629303 ]
 [0.6        1.83129602]
 [0.7        1.42589619]
 [0.8        0.74351112]
 [0.9        0.32763887]
 [1.         1.7749803 ]
 [1.09391667 1.6164567 ]]",0,0.266
4,f,40,english,5,4,english,2024-02-09 19:58:32.528132,False,1,111,sounds\english\audio/english_113.wav,"[[  0.          15.28166422]
 [  0.1         47.09879561]
 [  0.2         30.55065419]
 [  0.3         60.74459651]
 [  0.4        -80.73338373]
 [  0.5        -58.25545597]
 [  0.6         82.81118061]
 [  0.7        -61.4933419 ]
 [  0.8         15.22379089]
 [  0.9        -30.23460484]
 [  1.          29.92994598]
 [  1.09391667  22.43308389]]","[[0.         0.55667307]
 [0.1        0.58592964]
 [0.2        1.23790542]
 [0.3        0.97364291]
 [0.4        0.01252312]
 [0.5        0.68334247]
 [0.6        0.36908508]
 [0.7        0.9756346 ]
 [0.8        1.72445689]
 [0.9        0.62749292]
 [1.         0.55530103]
 [1.09391667 0.65235156]]",1,0.22
4,f,40,english,5,4,english,2024-02-09 19:58:32.528132,False,1,112,sounds\english\audio/english_159.wav,"[[  0.         -27.71132793]
 [  0.1          5.67043956]
 [  0.2        -56.04116861]
 [  0.3        -60.647669  ]
 [  0.4        -31.28235293]
 [  0.5        -41.95968639]
 [  0.6        -46.83352467]
 [  0.7         -6.87168688]
 [  0.8        -38.22542966]
 [  0.9         29.71030145]
 [  1.         -44.77576274]
 [  1.09391667  46.77490147]]","[[0.         0.45552689]
 [0.1        1.85865221]
 [0.2        1.36292014]
 [0.3        0.8196748 ]
 [0.4        1.14454104]
 [0.5        0.2708192 ]
 [0.6        0.67466027]
 [0.7        0.75914602]
 [0.8        0.8772758 ]
 [0.9        1.24753926]
 [1.         1.52106538]
 [1.09391667 1.15996843]]",0,0.358
4,f,40,english,5,4,english,2024-02-09 19:58:32.528132,False,1,113,sounds\english\audio/english_363.wav,"[[  0.          -5.66534259]
 [  0.1         96.57780227]
 [  0.2          8.75498082]
 [  0.3        -62.00877197]
 [  0.4         55.64754403]
 [  0.5         60.40753337]
 [  0.6         28.13214645]
 [  0.7         80.12225937]
 [  0.8         96.25782192]
 [  0.9        -69.76671387]
 [  1.          60.27804949]
 [  1.09391667  31.6619376 ]]","[[0.         1.60513634]
 [0.1        0.93762693]
 [0.2        1.53396088]
 [0.3        1.61687943]
 [0.4        0.81027283]
 [0.5        0.96421289]
 [0.6        0.44675755]
 [0.7        1.7907484 ]
 [0.8        1.63025461]
 [0.9        1.21594348]
 [1.         1.84929312]
 [1.09391667 0.74880834]]",1,1.066
4,f,40,english,5,4,english,2024-02-09 19:58:32.528132,False,1,114,sounds\english\audio/english_776.wav,"[[  0.          87.36983695]
 [  0.1         -7.36044234]
 [  0.2        -78.22847681]
 [  0.3        -28.99379036]
 [  0.4         76.19445877]
 [  0.5        -43.33414   ]
 [  0.6        -77.80909366]
 [  0.7        -63.14510086]
 [  0.8         70.29145503]
 [  0.9         46.24407769]
 [  1.         -23.45182889]
 [  1.09391667  72.2860477 ]]","[[0.         0.99012423]
 [0.1        0.99897732]
 [0.2        1.18840119]
 [0.3        1.28345901]
 [0.4        0.93018475]
 [0.5        1.3758077 ]
 [0.6        0.61279661]
 [0.7        1.13295599]
 [0.8        0.21705032]
 [0.9        1.45577739]
 [1.         1.82818043]
 [1.09391667 0.32191232]]",0,0.119
4,f,40,english,5,4,english,2024-02-09 19:58:32.528132,False,1,115,sounds\english\audio/english_444.wav,"[[  0.         -22.35255086]
 [  0.1        -38.39735659]
 [  0.2         81.84483339]
 [  0.3         89.66951187]
 [  0.4         78.72815519]
 [  0.5        -52.70100407]
 [  0.6        -16.77558941]
 [  0.7         74.67924026]
 [  0.8         58.06859333]
 [  0.9         62.1778936 ]
 [  1.         -11.97095728]
 [  1.09391667  61.96058284]]","[[0.         1.17037243]
 [0.1        0.80831945]
 [0.2        1.07936497]
 [0.3        1.80338122]
 [0.4        1.1980111 ]
 [0.5        1.57414757]
 [0.6        1.54546577]
 [0.7        0.86646901]
 [0.8        1.76340154]
 [0.9        1.16134605]
 [1.         0.83068954]
 [1.09391667 1.94365144]]",1,0.148
4,f,40,english,5,4,english,2024-02-09 19:58:32.528132,False,1,116,sounds\english\audio/english_156.wav,"[[  0.          67.80241824]
 [  0.1         29.99846692]
 [  0.2        -57.62339124]
 [  0.3         87.84697028]
 [  0.4         85.25466999]
 [  0.5         21.68559313]
 [  0.6         25.36322325]
 [  0.7        -63.0463062 ]
 [  0.8         55.51522375]
 [  0.9         84.28688223]
 [  1.          75.12562412]
 [  1.09391667   1.86074779]]","[[0.         1.86846381]
 [0.1        0.17784513]
 [0.2        0.792312  ]
 [0.3        1.20922302]
 [0.4        1.15380481]
 [0.5        1.34214235]
 [0.6        0.12119946]
 [0.7        0.90660735]
 [0.8        0.02485499]
 [0.9        1.43158428]
 [1.         1.49951226]
 [1.09391667 1.07671063]]",0,0.357
4,f,40,english,5,4,english,2024-02-09 19:58:32.528132,False,1,117,sounds\english\audio/english_280.wav,"[[  0.          88.39262763]
 [  0.1        -30.0419816 ]
 [  0.2        -70.85942958]
 [  0.3        -46.07032191]
 [  0.4         22.37889655]
 [  0.5         47.83072725]
 [  0.6         22.02613007]
 [  0.7        -10.57655449]
 [  0.8         78.01759084]
 [  0.9         38.41828257]
 [  1.          88.43566384]
 [  1.09391667 -41.21843243]]","[[0.         0.21682945]
 [0.1        1.88667459]
 [0.2        0.16117743]
 [0.3        0.35719266]
 [0.4        1.6700127 ]
 [0.5        1.73336776]
 [0.6        0.653825  ]
 [0.7        1.99113264]
 [0.8        1.83439976]
 [0.9        1.29158868]
 [1.         1.21494043]
 [1.09391667 1.43203323]]",1,0.193
4,f,40,english,5,4,english,2024-02-09 19:58:32.528132,False,1,118,sounds\english\audio/english_208.wav,"[[  0.          13.17731857]
 [  0.1         13.38844503]
 [  0.2         -2.93736893]
 [  0.3         65.128601  ]
 [  0.4         53.87360247]
 [  0.5         -0.34021564]
 [  0.6        -58.53870567]
 [  0.7        -81.74346202]
 [  0.8        -87.40484801]
 [  0.9         -0.74903693]
 [  1.          44.66507116]
 [  1.09391667  86.63877281]]","[[0.         0.34094022]
 [0.1        0.19016609]
 [0.2        0.78973148]
 [0.3        1.45881618]
 [0.4        1.41599405]
 [0.5        1.39781882]
 [0.6        0.32952238]
 [0.7        0.80753811]
 [0.8        0.14343543]
 [0.9        1.78385386]
 [1.         1.76017797]
 [1.09391667 0.82405184]]",0,0.204
4,f,40,english,5,4,english,2024-02-09 19:58:32.528132,False,1,119,sounds\english\audio/english_960.wav,"[[  0.          -2.34292173]
 [  0.1        -14.33809381]
 [  0.2         23.80635185]
 [  0.3        -47.8246654 ]
 [  0.4         37.72126587]
 [  0.5         52.9199081 ]
 [  0.6          7.44982422]
 [  0.7         -7.86948203]
 [  0.8         72.23117138]
 [  0.9         44.79944131]
 [  1.           4.95796587]
 [  1.09391667  60.45608826]]","[[0.         0.04592369]
 [0.1        1.93256303]
 [0.2        1.63542615]
 [0.3        1.38214449]
 [0.4        0.23301782]
 [0.5        0.53692552]
 [0.6        1.02814311]
 [0.7        0.98154622]
 [0.8        0.31984479]
 [0.9        1.34408856]
 [1.         0.65666074]
 [1.09391667 0.78367591]]",0,0.22
4,f,40,english,5,4,english,2024-02-09 19:58:32.528132,False,1,120,sounds\english\audio/english_398.wav,"[[  0.          58.43536872]
 [  0.1        -82.57908231]
 [  0.2         -3.40439415]
 [  0.3        -83.74176257]
 [  0.4         38.89596711]
 [  0.5         63.49142751]
 [  0.6         64.24765223]
 [  0.7         24.37031282]
 [  0.8         18.2651004 ]
 [  0.9         -3.768449  ]
 [  1.          55.48069175]
 [  1.09391667  -2.34176887]]","[[0.         0.19891774]
 [0.1        0.03529734]
 [0.2        1.69592316]
 [0.3        0.07086845]
 [0.4        0.77458748]
 [0.5        1.25980126]
 [0.6        1.54445807]
 [0.7        0.23015685]
 [0.8        0.80693823]
 [0.9        0.61010049]
 [1.         0.09811637]
 [1.09391667 1.22967895]]",0,0.709
4,f,40,english,5,4,english,2024-02-09 19:58:32.528132,False,1,121,sounds\english\audio/english_251.wav,"[[  0.         -93.03805102]
 [  0.1         51.2655571 ]
 [  0.2         37.58283666]
 [  0.3        -55.53133441]
 [  0.4         98.21602679]
 [  0.5        -85.24256095]
 [  0.6        -76.0460332 ]
 [  0.7         26.51950349]
 [  0.8        -37.24987979]
 [  0.9        -60.42287441]
 [  1.          31.01216571]
 [  1.09391667  74.35472995]]","[[0.         1.12342723]
 [0.1        1.9149468 ]
 [0.2        1.73876516]
 [0.3        1.01047504]
 [0.4        0.87048418]
 [0.5        1.77281536]
 [0.6        1.29741372]
 [0.7        0.41684213]
 [0.8        1.13690271]
 [0.9        1.00770315]
 [1.         0.51077747]
 [1.09391667 0.89311028]]",0,0.288
4,f,40,english,5,4,english,2024-02-09 19:58:32.528132,False,1,122,sounds\english\audio/english_59.wav,"[[  0.          13.6818357 ]
 [  0.1        -62.28772111]
 [  0.2         49.12418905]
 [  0.3        -11.37021527]
 [  0.4        -54.18333873]
 [  0.5         89.00177849]
 [  0.6        -39.13145847]
 [  0.7         -8.40184911]
 [  0.8        -34.91016987]
 [  0.9         92.47037208]
 [  1.          91.56160698]
 [  1.09391667 -64.52293265]]","[[0.         1.39102809]
 [0.1        1.7641323 ]
 [0.2        1.93370096]
 [0.3        1.41546104]
 [0.4        1.8712645 ]
 [0.5        1.58142361]
 [0.6        1.31038649]
 [0.7        1.79881342]
 [0.8        0.00761053]
 [0.9        0.77279167]
 [1.         0.86326769]
 [1.09391667 1.19458968]]",0,0.308
4,f,40,english,5,4,english,2024-02-09 19:58:32.528132,False,1,123,sounds\english\audio/english_653.wav,"[[  0.          41.8259341 ]
 [  0.1         17.38671322]
 [  0.2         86.12532741]
 [  0.3        -33.72650973]
 [  0.4        -40.64508362]
 [  0.5         29.34700904]
 [  0.6        -10.62645481]
 [  0.7        -39.23364733]
 [  0.8          1.23936202]
 [  0.9         54.61023708]
 [  1.          68.93146106]
 [  1.09391667  98.0100566 ]]","[[0.         0.17533452]
 [0.1        1.08757539]
 [0.2        1.96334993]
 [0.3        1.47062591]
 [0.4        1.06368379]
 [0.5        1.07766545]
 [0.6        1.32143854]
 [0.7        0.74682372]
 [0.8        0.56607345]
 [0.9        0.97558446]
 [1.         0.53847025]
 [1.09391667 0.14439152]]",1,1.039
4,f,40,english,5,4,english,2024-02-09 19:58:32.528132,False,1,124,sounds\english\audio/english_237.wav,"[[  0.         -24.33351242]
 [  0.1        -30.25700372]
 [  0.2        -30.13382595]
 [  0.3         -9.60246818]
 [  0.4        -40.42162485]
 [  0.5         57.08355263]
 [  0.6         90.25216072]
 [  0.7         85.30493085]
 [  0.8        -32.5073614 ]
 [  0.9         26.39127281]
 [  1.           9.20254691]
 [  1.09391667 -73.51581894]]","[[0.         0.5798894 ]
 [0.1        1.5217244 ]
 [0.2        0.83018836]
 [0.3        0.61732459]
 [0.4        0.04187642]
 [0.5        1.52741907]
 [0.6        0.52793747]
 [0.7        1.06419231]
 [0.8        0.3844952 ]
 [0.9        0.20035849]
 [1.         0.39448392]
 [1.09391667 0.19327596]]",0,0.281
4,f,40,english,5,4,english,2024-02-09 19:58:32.528132,False,1,125,sounds\english\audio/english_42.wav,"[[  0.         -12.35235723]
 [  0.1        -31.30593397]
 [  0.2         93.22547931]
 [  0.3          3.55661221]
 [  0.4        -65.82574245]
 [  0.5         29.87364381]
 [  0.6        -76.70361056]
 [  0.7        -29.10356368]
 [  0.8        -52.57981462]
 [  0.9          3.2621499 ]
 [  1.         -86.59512904]
 [  1.09391667  39.23696044]]","[[0.         0.89110064]
 [0.1        0.38934259]
 [0.2        1.45440232]
 [0.3        0.25584691]
 [0.4        1.05295351]
 [0.5        0.59087155]
 [0.6        0.12112438]
 [0.7        0.72116868]
 [0.8        0.07340316]
 [0.9        1.9617885 ]
 [1.         0.50342264]
 [1.09391667 1.24684981]]",0,0.764
4,f,40,english,5,4,english,2024-02-09 19:58:32.528132,False,1,126,sounds\english\audio/english_578.wav,"[[  0.         -75.00897619]
 [  0.1        -99.92599168]
 [  0.2        -41.97852884]
 [  0.3        -44.5286304 ]
 [  0.4         33.7471246 ]
 [  0.5        -20.55369632]
 [  0.6         80.47589593]
 [  0.7        -14.97727246]
 [  0.8        -21.44814327]
 [  0.9        -62.07774638]
 [  1.         -99.81693505]
 [  1.09391667 -93.56727968]]","[[0.         0.74810011]
 [0.1        1.6653295 ]
 [0.2        0.86958953]
 [0.3        1.82114948]
 [0.4        1.20682151]
 [0.5        0.95346463]
 [0.6        1.35013789]
 [0.7        1.4182331 ]
 [0.8        1.48872207]
 [0.9        0.52217737]
 [1.         1.9830309 ]
 [1.09391667 1.11565266]]",1,0.391
4,f,40,english,5,4,english,2024-02-09 19:58:32.528132,False,1,127,sounds\english\audio/english_819.wav,"[[  0.           6.72623194]
 [  0.1        -24.07867569]
 [  0.2        -75.26306383]
 [  0.3         85.43148154]
 [  0.4        -22.40483415]
 [  0.5          1.97440144]
 [  0.6         75.70782388]
 [  0.7         95.57794207]
 [  0.8         65.41207774]
 [  0.9         20.80814343]
 [  1.          82.13081789]
 [  1.09391667   8.11322976]]","[[0.         0.10273963]
 [0.1        0.80237212]
 [0.2        1.8012582 ]
 [0.3        0.87923376]
 [0.4        1.38500076]
 [0.5        1.100674  ]
 [0.6        0.97376952]
 [0.7        0.98089121]
 [0.8        0.54459863]
 [0.9        0.87801334]
 [1.         1.51334628]
 [1.09391667 1.26475282]]",0,0.357
4,f,40,english,5,4,english,2024-02-09 19:58:32.528132,False,1,128,sounds\english\audio/english_889.wav,"[[  0.          79.20623471]
 [  0.1         15.95650002]
 [  0.2        -76.24687764]
 [  0.3        -99.60118401]
 [  0.4         78.05893195]
 [  0.5        -14.00699602]
 [  0.6        -89.17552829]
 [  0.7        -14.96184535]
 [  0.8         59.85859642]
 [  0.9         11.94153074]
 [  1.         -11.03565413]
 [  1.09391667  35.54802425]]","[[0.         0.68216584]
 [0.1        0.42686819]
 [0.2        0.02909108]
 [0.3        1.3182061 ]
 [0.4        0.10574875]
 [0.5        0.2853218 ]
 [0.6        1.14496721]
 [0.7        1.04613331]
 [0.8        1.03396969]
 [0.9        0.35198627]
 [1.         0.4382774 ]
 [1.09391667 1.08765543]]",1,0.244
4,f,40,english,5,4,english,2024-02-09 19:58:32.528132,False,1,129,sounds\english\audio/english_306.wav,"[[  0.         -95.03086766]
 [  0.1         -3.19440238]
 [  0.2        -39.72459624]
 [  0.3         15.36352601]
 [  0.4        -38.40390677]
 [  0.5        -49.79740584]
 [  0.6        -48.37651938]
 [  0.7        -33.05516854]
 [  0.8        -95.3817315 ]
 [  0.9        -37.53428143]
 [  1.          13.19585938]
 [  1.09391667  36.11780275]]","[[0.         1.30837938]
 [0.1        0.41482999]
 [0.2        1.62954212]
 [0.3        1.09402509]
 [0.4        0.25113187]
 [0.5        0.76399472]
 [0.6        1.73274833]
 [0.7        0.31535053]
 [0.8        0.01885302]
 [0.9        0.72130614]
 [1.         0.43232343]
 [1.09391667 1.20783491]]",0,0.962
4,f,40,english,5,4,english,2024-02-09 19:58:32.528132,False,1,130,sounds\english\audio/english_89.wav,"[[  0.          44.55560521]
 [  0.1        -38.12575075]
 [  0.2        -85.08741113]
 [  0.3        -34.51149373]
 [  0.4         91.4200198 ]
 [  0.5        -88.24762839]
 [  0.6        -12.15976794]
 [  0.7          8.11504905]
 [  0.8         48.7516223 ]
