subj,sex,age,language,english,french,native_lang,date,practice,block,trial,stim,pitch,stretch,response,rt
8760830999,f,19,english,5,5,english,2024-01-25 10:34:45.758114,True,0,0,sounds\english\audio/english_214.wav,"[[  0.          77.66249847]
 [  0.1        -66.26077856]
 [  0.2        -51.4922282 ]
 [  0.3         14.18659261]
 [  0.4        -48.84743407]
 [  0.5         19.47798934]
 [  0.6         30.92446632]
 [  0.7        -20.72955743]
 [  0.8        -84.03788896]
 [  0.9          1.19993411]
 [  1.         -10.67189742]
 [  1.09391667  76.51495677]]","[[0.         1.66443393]
 [0.1        1.37654428]
 [0.2        1.40712663]
 [0.3        0.14412451]
 [0.4        0.91551293]
 [0.5        0.32690142]
 [0.6        1.55465622]
 [0.7        0.81533764]
 [0.8        1.36872512]
 [0.9        0.61257248]
 [1.         1.2492197 ]
 [1.09391667 1.13872638]]",0,4.401
8760830999,f,19,english,5,5,english,2024-01-25 10:34:45.758114,True,0,1,sounds\english\audio/english_55.wav,"[[  0.          55.67307479]
 [  0.1        -68.77763233]
 [  0.2        -65.56479824]
 [  0.3        -28.17507295]
 [  0.4         12.71546493]
 [  0.5         79.84163838]
 [  0.6        -44.12045936]
 [  0.7        -80.03895773]
 [  0.8         89.560279  ]
 [  0.9        -86.43761931]
 [  1.          26.43928763]
 [  1.09391667  35.34186428]]","[[0.         0.52782995]
 [0.1        1.04888997]
 [0.2        1.48348863]
 [0.3        0.48831434]
 [0.4        0.57381204]
 [0.5        0.45321787]
 [0.6        1.63628375]
 [0.7        1.60012046]
 [0.8        1.77258714]
 [0.9        0.52302607]
 [1.         1.59376443]
 [1.09391667 1.33420322]]",1,1.853
8760830999,f,19,english,5,5,english,2024-01-25 10:34:45.758114,True,0,2,sounds\english\audio/english_810.wav,"[[  0.         -83.9281143 ]
 [  0.1         27.49266296]
 [  0.2        -79.7114404 ]
 [  0.3         88.86514055]
 [  0.4        -83.57104811]
 [  0.5         64.75337821]
 [  0.6        -39.25229813]
 [  0.7        -20.80683656]
 [  0.8         -8.25263634]
 [  0.9        -69.80984132]
 [  1.          12.24901577]
 [  1.09391667  84.4149929 ]]","[[0.         1.69146892]
 [0.1        0.58552036]
 [0.2        0.8081372 ]
 [0.3        1.52853197]
 [0.4        1.32903065]
 [0.5        0.44686923]
 [0.6        0.97314752]
 [0.7        1.28969147]
 [0.8        1.65843454]
 [0.9        1.6089276 ]
 [1.         1.8611166 ]
 [1.09391667 1.61125361]]",0,2.871
8760830999,f,19,english,5,5,english,2024-01-25 10:34:45.758114,False,1,3,sounds\english\audio/english_278.wav,"[[  0.         -96.72610313]
 [  0.1        -36.86809982]
 [  0.2        -84.24626192]
 [  0.3        -29.99363641]
 [  0.4         21.41897552]
 [  0.5        -73.7985343 ]
 [  0.6        -83.05174317]
 [  0.7        -43.48487906]
 [  0.8        -48.22741203]
 [  0.9        -30.73203826]
 [  1.          22.54361358]
 [  1.09391667 -65.2249662 ]]","[[0.         0.83439052]
 [0.1        1.21055498]
 [0.2        0.05488492]
 [0.3        1.47058347]
 [0.4        0.68142996]
 [0.5        0.65955027]
 [0.6        1.54634177]
 [0.7        1.03072417]
 [0.8        0.15769377]
 [0.9        0.79374536]
 [1.         0.9877131 ]
 [1.09391667 1.82414956]]",0,6.718
8760830999,f,19,english,5,5,english,2024-01-25 10:34:45.758114,False,1,4,sounds\english\audio/english_693.wav,"[[  0.         -75.67975091]
 [  0.1         -0.67488573]
 [  0.2          8.83748606]
 [  0.3         46.84016051]
 [  0.4        -13.00761781]
 [  0.5         14.23719318]
 [  0.6         42.52615101]
 [  0.7         65.43388412]
 [  0.8         -9.43344372]
 [  0.9        -30.43290339]
 [  1.         -71.43466109]
 [  1.09391667  22.00910114]]","[[0.         0.6706819 ]
 [0.1        0.70747017]
 [0.2        1.043537  ]
 [0.3        1.06639289]
 [0.4        1.65543462]
 [0.5        1.13988087]
 [0.6        0.88807521]
 [0.7        1.6314593 ]
 [0.8        1.91739549]
 [0.9        1.30579352]
 [1.         1.06179133]
 [1.09391667 0.90887908]]",1,1.477
8760830999,f,19,english,5,5,english,2024-01-25 10:34:45.758114,False,1,5,sounds\english\audio/english_517.wav,"[[  0.          66.65099922]
 [  0.1        -25.70388075]
 [  0.2        -22.37896652]
 [  0.3         -6.57908025]
 [  0.4         14.90197081]
 [  0.5         28.13310888]
 [  0.6         67.72161666]
 [  0.7        -79.77738636]
 [  0.8         -9.62789869]
 [  0.9        -43.36595112]
 [  1.         -65.22090713]
 [  1.09391667  93.99451349]]","[[0.         0.14059347]
 [0.1        0.04284068]
 [0.2        0.61477249]
 [0.3        0.586151  ]
 [0.4        0.82467301]
 [0.5        1.4846696 ]
 [0.6        1.87560286]
 [0.7        0.86888635]
 [0.8        0.65753642]
 [0.9        1.72637139]
 [1.         0.00479054]
 [1.09391667 1.63350936]]",1,1.697
8760830999,f,19,english,5,5,english,2024-01-25 10:34:45.758114,False,1,6,sounds\english\audio/english_132.wav,"[[  0.           0.80878803]
 [  0.1        -89.46369243]
 [  0.2        -42.02740452]
 [  0.3        -31.54071999]
 [  0.4          0.25010778]
 [  0.5         58.11815913]
 [  0.6         81.96461668]
 [  0.7        -44.50191201]
 [  0.8        -95.34081409]
 [  0.9        -97.06518429]
 [  1.           9.04827132]
 [  1.09391667  76.3058936 ]]","[[0.         1.8484575 ]
 [0.1        0.19659267]
 [0.2        0.98704764]
 [0.3        0.90975168]
 [0.4        1.48690857]
 [0.5        1.16973021]
 [0.6        0.00206468]
 [0.7        0.61136538]
 [0.8        0.53595083]
 [0.9        0.1294964 ]
 [1.         0.71465456]
 [1.09391667 0.51987053]]",1,1.771
8760830999,f,19,english,5,5,english,2024-01-25 10:34:45.758114,False,1,7,sounds\english\audio/english_672.wav,"[[  0.          43.22685975]
 [  0.1        -54.22036803]
 [  0.2         47.19502214]
 [  0.3         29.48399108]
 [  0.4        -37.13401682]
 [  0.5        -82.77781933]
 [  0.6         26.5489707 ]
 [  0.7        -82.12818914]
 [  0.8          0.43149331]
 [  0.9         36.27396929]
 [  1.         -33.62939759]
 [  1.09391667 -60.08189446]]","[[0.         1.16062379]
 [0.1        1.05074454]
 [0.2        0.58565022]
 [0.3        0.69010583]
 [0.4        1.10560462]
 [0.5        0.90912981]
 [0.6        1.72329615]
 [0.7        1.29141175]
 [0.8        0.15835131]
 [0.9        0.77804924]
 [1.         0.05373679]
 [1.09391667 0.92241163]]",1,0.82
8760830999,f,19,english,5,5,english,2024-01-25 10:34:45.758114,False,1,8,sounds\english\audio/english_454.wav,"[[  0.         -40.724684  ]
 [  0.1         68.37921334]
 [  0.2        -30.05855576]
 [  0.3        -38.49973025]
 [  0.4         20.79675368]
 [  0.5         97.95643376]
 [  0.6         60.86620442]
 [  0.7         79.81874649]
 [  0.8          3.83765836]
 [  0.9         67.59623448]
 [  1.         -91.57077167]
 [  1.09391667  10.80867564]]","[[0.         1.6228839 ]
 [0.1        0.13004392]
 [0.2        0.71367383]
 [0.3        0.85329946]
 [0.4        1.21776669]
 [0.5        0.59038082]
 [0.6        0.28627533]
 [0.7        1.2119593 ]
 [0.8        0.67514721]
 [0.9        0.51660642]
 [1.         0.97010822]
 [1.09391667 1.23476154]]",1,0.657
8760830999,f,19,english,5,5,english,2024-01-25 10:34:45.758114,False,1,9,sounds\english\audio/english_173.wav,"[[  0.          34.32682043]
 [  0.1        -35.22347769]
 [  0.2         15.69043139]
 [  0.3        -71.83777825]
 [  0.4        -96.81426106]
 [  0.5        -51.15803827]
 [  0.6        -12.70248505]
 [  0.7        -30.75730157]
 [  0.8         -5.0022938 ]
 [  0.9         41.07030003]
 [  1.          -5.319412  ]
 [  1.09391667  43.01251996]]","[[0.         0.82312646]
 [0.1        0.84965345]
 [0.2        0.84607348]
 [0.3        0.55995079]
 [0.4        0.51635348]
 [0.5        1.6072313 ]
 [0.6        1.25349503]
 [0.7        1.4731344 ]
 [0.8        0.28621328]
 [0.9        0.95942448]
 [1.         0.2847469 ]
 [1.09391667 0.4938404 ]]",1,0.732
8760830999,f,19,english,5,5,english,2024-01-25 10:34:45.758114,False,1,10,sounds\english\audio/english_606.wav,"[[  0.          72.77252021]
 [  0.1         22.60713343]
 [  0.2         30.91882808]
 [  0.3        -48.84223864]
 [  0.4        -29.82386042]
 [  0.5         82.48397831]
 [  0.6        -18.49396427]
 [  0.7         26.88567381]
 [  0.8        -18.34346668]
 [  0.9         10.06544583]
 [  1.         -89.88083722]
 [  1.09391667  66.64968825]]","[[0.         1.14271188]
 [0.1        1.41897374]
 [0.2        1.73372854]
 [0.3        1.07065865]
 [0.4        0.5542197 ]
 [0.5        0.65978179]
 [0.6        0.64487358]
 [0.7        1.50533402]
 [0.8        1.51615031]
 [0.9        0.11673085]
 [1.         0.60775024]
 [1.09391667 0.13627416]]",1,0.439
8760830999,f,19,english,5,5,english,2024-01-25 10:34:45.758114,False,1,11,sounds\english\audio/english_450.wav,"[[  0.         -40.47622517]
 [  0.1         32.74162238]
 [  0.2        -31.99785117]
 [  0.3         26.01051774]
 [  0.4         80.55211369]
 [  0.5         18.01549087]
 [  0.6         52.7809862 ]
 [  0.7         49.03700675]
 [  0.8        -27.91135425]
 [  0.9         36.58986798]
 [  1.         -73.7373691 ]
 [  1.09391667  98.91564747]]","[[0.         1.62313454]
 [0.1        1.28157799]
 [0.2        0.17374894]
 [0.3        1.33840529]
 [0.4        1.99443486]
 [0.5        1.3531925 ]
 [0.6        1.87514045]
 [0.7        0.88384361]
 [0.8        1.18722403]
 [0.9        1.83701617]
 [1.         1.36559917]
 [1.09391667 0.09127158]]",1,0.609
8760830999,f,19,english,5,5,english,2024-01-25 10:34:45.758114,False,1,12,sounds\english\audio/english_976.wav,"[[  0.          -7.94823885]
 [  0.1         96.34184584]
 [  0.2        -33.68410723]
 [  0.3         71.00734619]
 [  0.4        -73.42321757]
 [  0.5         68.14494718]
 [  0.6         72.66069131]
 [  0.7        -46.1327141 ]
 [  0.8        -13.93014286]
 [  0.9         53.41967838]
 [  1.         -12.62377888]
 [  1.09391667  -9.46767518]]","[[0.         1.93996979]
 [0.1        0.68967214]
 [0.2        1.52037239]
 [0.3        0.92144072]
 [0.4        1.16805043]
 [0.5        0.75881772]
 [0.6        0.99023479]
 [0.7        1.21750342]
 [0.8        1.7476055 ]
 [0.9        1.87214478]
 [1.         0.1004517 ]
 [1.09391667 1.64660027]]",1,1.171
8760830999,f,19,english,5,5,english,2024-01-25 10:34:45.758114,False,1,13,sounds\english\audio/english_261.wav,"[[  0.         -27.52136512]
 [  0.1          0.61437998]
 [  0.2        -46.52235109]
 [  0.3         56.30661769]
 [  0.4        -49.73275242]
 [  0.5        -64.77410303]
 [  0.6         39.3074822 ]
 [  0.7          4.26725729]
 [  0.8        -30.51931044]
 [  0.9        -97.5081801 ]
 [  1.         -12.98833839]
 [  1.09391667  84.00538191]]","[[0.         0.59079915]
 [0.1        0.59811004]
 [0.2        1.4163773 ]
 [0.3        0.56713827]
 [0.4        0.30837561]
 [0.5        1.11419611]
 [0.6        1.56193748]
 [0.7        1.05262718]
 [0.8        1.54107674]
 [0.9        0.13935509]
 [1.         1.48308864]
 [1.09391667 0.68332207]]",1,0.855
8760830999,f,19,english,5,5,english,2024-01-25 10:34:45.758114,False,1,14,sounds\english\audio/english_512.wav,"[[  0.         -23.56559233]
 [  0.1         44.15406219]
 [  0.2         90.2297784 ]
 [  0.3         31.62400251]
 [  0.4        -71.52797272]
 [  0.5        -17.92560707]
 [  0.6         78.14138422]
 [  0.7         -0.55474778]
 [  0.8         -0.96763975]
 [  0.9         18.83454105]
 [  1.           3.09463475]
 [  1.09391667  65.7955852 ]]","[[0.         0.34737706]
 [0.1        1.80415703]
 [0.2        1.77401658]
 [0.3        0.80962243]
 [0.4        0.21525837]
 [0.5        0.09930304]
 [0.6        0.93763429]
 [0.7        0.07747984]
 [0.8        1.28799801]
 [0.9        0.32721238]
 [1.         0.68607536]
 [1.09391667 1.62840549]]",1,1.136
8760830999,f,19,english,5,5,english,2024-01-25 10:34:45.758114,False,1,15,sounds\english\audio/english_180.wav,"[[  0.          42.85478744]
 [  0.1         11.60642133]
 [  0.2        -27.38772625]
 [  0.3         80.41560742]
 [  0.4        -67.11843031]
 [  0.5         25.47679572]
 [  0.6         29.48556379]
 [  0.7        -62.53851543]
 [  0.8        -49.48041885]
 [  0.9         29.80835172]
 [  1.          83.85336689]
 [  1.09391667 -22.17498974]]","[[0.         0.49645543]
 [0.1        1.40377655]
 [0.2        0.70453688]
 [0.3        1.01697082]
 [0.4        0.59692665]
 [0.5        0.43242047]
 [0.6        0.65503898]
 [0.7        1.14916488]
 [0.8        0.12826618]
 [0.9        1.82068044]
 [1.         1.93281092]
 [1.09391667 1.38105191]]",1,0.675
8760830999,f,19,english,5,5,english,2024-01-25 10:34:45.758114,False,1,16,sounds\english\audio/english_815.wav,"[[  0.          13.37098153]
 [  0.1         65.78624278]
 [  0.2         66.40667823]
 [  0.3        -44.62639189]
 [  0.4        -51.75725077]
 [  0.5        -79.21957107]
 [  0.6        -56.86584236]
 [  0.7         42.29244477]
 [  0.8        -94.28545135]
 [  0.9        -14.77734417]
 [  1.          55.50770682]
 [  1.09391667   3.0451597 ]]","[[0.         0.8883119 ]
 [0.1        0.67980941]
 [0.2        0.95780133]
 [0.3        1.51398111]
 [0.4        1.4565051 ]
 [0.5        0.83683567]
 [0.6        0.38900819]
 [0.7        1.92415526]
 [0.8        0.30571249]
 [0.9        0.35189603]
 [1.         0.8512317 ]
 [1.09391667 1.01865879]]",1,0.877
8760830999,f,19,english,5,5,english,2024-01-25 10:34:45.758114,False,1,17,sounds\english\audio/english_355.wav,"[[  0.         -17.98441337]
 [  0.1         -3.7927165 ]
 [  0.2         49.96307457]
 [  0.3        -15.53125152]
 [  0.4        -84.8102411 ]
 [  0.5        -28.25718679]
 [  0.6        -58.3999431 ]
 [  0.7        -22.66304052]
 [  0.8        -95.1511219 ]
 [  0.9         82.90101198]
 [  1.          11.18923061]
 [  1.09391667  39.40210676]]","[[0.         0.63443376]
 [0.1        0.81098104]
 [0.2        0.15990124]
 [0.3        1.19729275]
 [0.4        1.78081856]
 [0.5        0.04344096]
 [0.6        1.99949459]
 [0.7        0.79420627]
 [0.8        0.51429102]
 [0.9        0.31900629]
 [1.         1.55539218]
 [1.09391667 0.94266916]]",1,0.497
8760830999,f,19,english,5,5,english,2024-01-25 10:34:45.758114,False,1,18,sounds\english\audio/english_408.wav,"[[  0.          -0.56649463]
 [  0.1         13.00923979]
 [  0.2        -71.83469139]
 [  0.3        -46.43306622]
 [  0.4         57.51005943]
 [  0.5        -16.94006388]
 [  0.6         81.03561566]
 [  0.7        -97.26947589]
 [  0.8        -59.24275724]
 [  0.9         83.02020542]
 [  1.         -24.61759246]
 [  1.09391667  26.07197114]]","[[0.         0.16918067]
 [0.1        0.56010747]
 [0.2        0.19245092]
 [0.3        1.1181282 ]
 [0.4        1.74879815]
 [0.5        1.22782003]
 [0.6        0.47006698]
 [0.7        0.46279929]
 [0.8        1.0844665 ]
 [0.9        0.29234844]
 [1.         0.88583526]
 [1.09391667 1.9319493 ]]",1,0.676
8760830999,f,19,english,5,5,english,2024-01-25 10:34:45.758114,False,1,19,sounds\english\audio/english_555.wav,"[[  0.         -34.01174322]
 [  0.1        -25.89446117]
 [  0.2         75.37641555]
 [  0.3          3.6750175 ]
 [  0.4        -77.72739176]
 [  0.5        -17.06538868]
 [  0.6        -37.567139  ]
 [  0.7        -79.94552452]
 [  0.8         29.48505151]
 [  0.9        -58.857953  ]
 [  1.         -46.0054019 ]
 [  1.09391667 -89.97133458]]","[[0.         1.1718484 ]
 [0.1        1.62544238]
 [0.2        1.85861965]
 [0.3        1.93143492]
 [0.4        0.30173375]
 [0.5        1.28363733]
 [0.6        0.51060309]
 [0.7        0.80092252]
 [0.8        1.44732027]
 [0.9        0.65157835]
 [1.         1.65986599]
 [1.09391667 1.34311871]]",1,0.878
8760830999,f,19,english,5,5,english,2024-01-25 10:34:45.758114,False,1,20,sounds\english\audio/english_585.wav,"[[  0.         -86.93944466]
 [  0.1        -97.95669785]
 [  0.2         35.19908461]
 [  0.3         66.00378301]
 [  0.4         10.9229126 ]
 [  0.5         72.37678619]
 [  0.6        -57.08192974]
 [  0.7        -77.39915084]
 [  0.8         38.55710496]
 [  0.9        -27.16276528]
 [  1.          46.25769813]
 [  1.09391667 -14.18587881]]","[[0.         0.1588986 ]
 [0.1        0.38183266]
 [0.2        0.20642212]
 [0.3        1.21146119]
 [0.4        0.35502735]
 [0.5        1.56586524]
 [0.6        1.83214489]
 [0.7        0.43697271]
 [0.8        0.35169773]
 [0.9        1.49983702]
 [1.         0.51254386]
 [1.09391667 0.12379544]]",1,0.98
8760830999,f,19,english,5,5,english,2024-01-25 10:34:45.758114,False,1,21,sounds\english\audio/english_309.wav,"[[  0.         -34.14852999]
 [  0.1        -60.02804827]
 [  0.2          6.0299745 ]
 [  0.3         65.21163803]
 [  0.4         70.66724966]
 [  0.5         45.99109365]
 [  0.6        -19.50247914]
 [  0.7         -1.40871488]
 [  0.8         76.93262372]
 [  0.9         -6.89150381]
 [  1.         -55.94090841]
 [  1.09391667  80.41347419]]","[[0.         1.21753296]
 [0.1        1.49982591]
 [0.2        1.91679373]
 [0.3        0.32322976]
 [0.4        1.88516358]
 [0.5        1.4437576 ]
 [0.6        1.34394651]
 [0.7        0.70865896]
 [0.8        0.16374417]
 [0.9        0.04755869]
 [1.         0.82149119]
 [1.09391667 0.6378001 ]]",0,1.332
8760830999,f,19,english,5,5,english,2024-01-25 10:34:45.758114,False,1,22,sounds\english\audio/english_756.wav,"[[  0.         -32.70542045]
 [  0.1         62.91454888]
 [  0.2         -9.17678833]
 [  0.3         16.28624283]
 [  0.4        -33.51792534]
 [  0.5         88.01648813]
 [  0.6         62.37064714]
 [  0.7        -52.3683359 ]
 [  0.8         56.37360277]
 [  0.9        -54.86484941]
 [  1.          91.23924333]
 [  1.09391667 -26.61223969]]","[[0.         0.92316539]
 [0.1        0.37547917]
 [0.2        1.92598223]
 [0.3        0.89010875]
 [0.4        0.38662098]
 [0.5        1.17672662]
 [0.6        0.21957896]
 [0.7        1.78953747]
 [0.8        1.89812903]
 [0.9        1.43873799]
 [1.         1.51351367]
 [1.09391667 1.73327561]]",1,0.466
8760830999,f,19,english,5,5,english,2024-01-25 10:34:45.758114,False,1,23,sounds\english\audio/english_793.wav,"[[  0.         -39.70617561]
 [  0.1        -29.28823244]
 [  0.2        -89.65836103]
 [  0.3          9.66432805]
 [  0.4         46.78400104]
 [  0.5         77.17847788]
 [  0.6         65.90216738]
 [  0.7         19.02180402]
 [  0.8          4.99424524]
 [  0.9         95.94113908]
 [  1.           5.28849012]
 [  1.09391667 -28.1855206 ]]","[[0.         0.49970472]
 [0.1        0.64262829]
 [0.2        1.52317209]
 [0.3        0.03732268]
 [0.4        0.76197013]
 [0.5        1.20681543]
 [0.6        0.39643945]
 [0.7        0.55038392]
 [0.8        0.97724905]
 [0.9        1.29198989]
 [1.         1.94187371]
 [1.09391667 0.04726533]]",1,1.602
8760830999,f,19,english,5,5,english,2024-01-25 10:34:45.758114,False,1,24,sounds\english\audio/english_543.wav,"[[  0.         -38.60842869]
 [  0.1         53.1018826 ]
 [  0.2         21.93281072]
 [  0.3        -40.4815272 ]
 [  0.4          2.89670018]
 [  0.5         31.11758458]
 [  0.6          1.30911675]
 [  0.7         46.76912586]
 [  0.8        -75.40535735]
 [  0.9         57.91130712]
 [  1.         -90.16753315]
 [  1.09391667 -42.19615814]]","[[0.         0.01455056]
 [0.1        1.33130856]
 [0.2        0.07852499]
 [0.3        1.77861337]
 [0.4        1.72434721]
 [0.5        1.53256383]
 [0.6        1.33712035]
 [0.7        0.29783205]
 [0.8        1.43997323]
 [0.9        0.04561747]
 [1.         1.78781135]
 [1.09391667 1.03895071]]",1,0.806
8760830999,f,19,english,5,5,english,2024-01-25 10:34:45.758114,False,1,25,sounds\english\audio/english_414.wav,"[[  0.          -7.03040906]
 [  0.1         -5.82495626]
 [  0.2         -2.66835352]
 [  0.3        -59.72056864]
 [  0.4         44.4623709 ]
 [  0.5        -43.61302568]
 [  0.6         69.2168607 ]
 [  0.7         92.16151545]
 [  0.8         74.54688425]
 [  0.9          3.36775838]
 [  1.         -65.34358207]
 [  1.09391667  36.44921696]]","[[0.         1.53438074]
 [0.1        1.95928517]
 [0.2        1.73189387]
 [0.3        1.8329069 ]
 [0.4        1.79888129]
 [0.5        0.54974626]
 [0.6        1.59944318]
 [0.7        0.63993653]
 [0.8        0.28985998]
 [0.9        0.49016728]
 [1.         1.26877749]
 [1.09391667 1.3437293 ]]",1,0.467
8760830999,f,19,english,5,5,english,2024-01-25 10:34:45.758114,False,1,26,sounds\english\audio/english_917.wav,"[[ 0.00000000e+00 -3.53182661e+01]
 [ 1.00000000e-01 -2.17738587e+01]
 [ 2.00000000e-01  8.21428169e+01]
 [ 3.00000000e-01 -1.22731677e+01]
 [ 4.00000000e-01  4.83424811e+00]
 [ 5.00000000e-01 -8.54945092e-02]
 [ 6.00000000e-01 -9.26938160e+01]
 [ 7.00000000e-01 -9.15131295e+01]
 [ 8.00000000e-01  5.80373061e+01]
 [ 9.00000000e-01 -2.86534312e+01]
 [ 1.00000000e+00  4.54510696e+01]
 [ 1.09391667e+00  4.83165221e+01]]","[[0.         1.27669121]
 [0.1        1.4602349 ]
 [0.2        0.09750383]
 [0.3        0.51655458]
 [0.4        1.15347497]
 [0.5        1.01469442]
 [0.6        0.31102011]
 [0.7        1.44230515]
 [0.8        0.03377485]
 [0.9        0.48994194]
 [1.         0.17679016]
 [1.09391667 0.94650881]]",0,0.848
8760830999,f,19,english,5,5,english,2024-01-25 10:34:45.758114,False,1,27,sounds\english\audio/english_532.wav,"[[  0.          60.85707462]
 [  0.1         13.03416057]
 [  0.2        -48.45411351]
 [  0.3         16.77450497]
 [  0.4         -7.6707259 ]
 [  0.5        -84.48187603]
 [  0.6         -5.50880589]
 [  0.7        -53.77002933]
 [  0.8         11.75325856]
 [  0.9         41.28277306]
 [  1.          14.79272929]
 [  1.09391667 -15.59183139]]","[[0.         0.2444237 ]
 [0.1        1.53493401]
 [0.2        1.45787945]
 [0.3        0.11915761]
 [0.4        0.99575033]
 [0.5        1.34203353]
 [0.6        0.42679286]
 [0.7        1.97733711]
 [0.8        0.79534295]
 [0.9        0.9990701 ]
 [1.         1.48802156]
 [1.09391667 0.74270144]]",1,0.158
8760830999,f,19,english,5,5,english,2024-01-25 10:34:45.758114,False,1,28,sounds\english\audio/english_528.wav,"[[  0.          89.92931817]
 [  0.1         69.43761356]
 [  0.2        -74.63581074]
 [  0.3         66.94799646]
 [  0.4         93.4667874 ]
 [  0.5        -73.58583841]
 [  0.6         60.58074805]
 [  0.7        -19.51561534]
 [  0.8          1.50674214]
 [  0.9         -4.69145727]
 [  1.         -90.65001005]
 [  1.09391667  80.40130965]]","[[0.         1.55464654]
 [0.1        1.5693867 ]
 [0.2        0.24579909]
 [0.3        0.89003704]
 [0.4        0.02709789]
 [0.5        1.93159194]
 [0.6        1.21534299]
 [0.7        1.54968918]
 [0.8        1.22283315]
 [0.9        0.16463995]
 [1.         0.26004795]
 [1.09391667 0.00778095]]",1,0.811
8760830999,f,19,english,5,5,english,2024-01-25 10:34:45.758114,False,1,29,sounds\english\audio/english_66.wav,"[[  0.          73.54239792]
 [  0.1        -24.02007983]
 [  0.2         49.15082977]
 [  0.3         59.25187184]
 [  0.4        -38.45178026]
 [  0.5          4.75457438]
 [  0.6         46.25569394]
 [  0.7        -60.4256139 ]
 [  0.8         67.09047121]
 [  0.9         88.85676661]
 [  1.          69.83029982]
 [  1.09391667  35.36852194]]","[[0.         1.39962355]
 [0.1        0.40719393]
 [0.2        0.56009301]
 [0.3        0.88526938]
 [0.4        0.20167751]
 [0.5        0.49978963]
 [0.6        1.58181975]
 [0.7        0.73201225]
 [0.8        0.26938408]
 [0.9        1.15195977]
 [1.         1.10937983]
 [1.09391667 1.70850229]]",1,0.488
8760830999,f,19,english,5,5,english,2024-01-25 10:34:45.758114,False,1,30,sounds\english\audio/english_811.wav,"[[  0.         -74.87697924]
 [  0.1         96.86117413]
 [  0.2         10.72305858]
 [  0.3         48.56085209]
 [  0.4        -99.82729779]
 [  0.5         79.99074979]
 [  0.6         -9.67190631]
 [  0.7        -89.53034614]
 [  0.8         84.53947336]
 [  0.9        -76.82386536]
 [  1.         -19.04963958]
 [  1.09391667  78.79317252]]","[[0.         0.45507787]
 [0.1        1.76793824]
 [0.2        0.84862028]
 [0.3        0.62727309]
 [0.4        1.03490246]
 [0.5        1.90507478]
 [0.6        0.06135305]
 [0.7        0.24955368]
 [0.8        0.72917007]
 [0.9        1.5042388 ]
 [1.         1.60193394]
 [1.09391667 0.72084905]]",1,0.506
8760830999,f,19,english,5,5,english,2024-01-25 10:34:45.758114,False,1,31,sounds\english\audio/english_848.wav,"[[  0.          16.27018666]
 [  0.1        -74.75395213]
 [  0.2         55.44859949]
 [  0.3        -32.83945411]
 [  0.4         30.01434436]
 [  0.5         48.58281319]
 [  0.6        -85.68192699]
 [  0.7         27.03943406]
 [  0.8         14.64264022]
 [  0.9        -60.92798451]
 [  1.         -13.82637474]
 [  1.09391667 -65.39894946]]","[[0.         0.42429773]
 [0.1        0.55671169]
 [0.2        0.96508228]
 [0.3        0.7665276 ]
 [0.4        0.96341741]
 [0.5        0.06275252]
 [0.6        0.89297301]
 [0.7        0.16213779]
 [0.8        1.88232235]
 [0.9        1.9298227 ]
 [1.         0.08076178]
 [1.09391667 1.11155621]]",1,0.898
8760830999,f,19,english,5,5,english,2024-01-25 10:34:45.758114,False,1,32,sounds\english\audio/english_204.wav,"[[  0.         -54.18548322]
 [  0.1        -11.27218157]
 [  0.2         57.70913134]
 [  0.3        -85.27797026]
 [  0.4         28.61054009]
 [  0.5        -36.71816677]
 [  0.6        -27.72446487]
 [  0.7         14.69142801]
 [  0.8          9.61746044]
 [  0.9         22.67127582]
 [  1.          69.36328148]
 [  1.09391667 -44.4283226 ]]","[[0.         0.4935822 ]
 [0.1        1.37686427]
 [0.2        1.17627269]
 [0.3        1.14645494]
 [0.4        1.61303053]
 [0.5        0.72559221]
 [0.6        1.95000364]
 [0.7        0.06695508]
 [0.8        1.52094915]
 [0.9        0.41034945]
 [1.         0.4470276 ]
 [1.09391667 1.93225144]]",1,0.768
8760830999,f,19,english,5,5,english,2024-01-25 10:34:45.758114,False,1,33,sounds\english\audio/english_315.wav,"[[  0.          20.11963367]
 [  0.1        -30.87144334]
 [  0.2         39.10248869]
 [  0.3        -19.08604714]
 [  0.4         90.41461318]
 [  0.5        -82.87118979]
 [  0.6        -12.30252898]
 [  0.7          9.37098005]
 [  0.8        -86.3809894 ]
 [  0.9          2.03064205]
 [  1.          99.30710259]
 [  1.09391667  58.65294367]]","[[0.         1.15782854]
 [0.1        1.37599817]
 [0.2        1.4514196 ]
 [0.3        1.32135016]
 [0.4        1.69132556]
 [0.5        0.65296677]
 [0.6        1.40058812]
 [0.7        0.87815256]
 [0.8        0.15444706]
 [0.9        1.46097728]
 [1.         0.37640447]
 [1.09391667 1.18518174]]",1,0.535
8760830999,f,19,english,5,5,english,2024-01-25 10:34:45.758114,False,1,34,sounds\english\audio/english_195.wav,"[[  0.         -84.31811629]
 [  0.1        -40.4937686 ]
 [  0.2         43.37920818]
 [  0.3         89.86748729]
 [  0.4         24.49320863]
 [  0.5        -46.40835892]
 [  0.6         35.9505397 ]
 [  0.7         62.43082011]
 [  0.8         85.56276985]
 [  0.9         52.49119502]
 [  1.         -55.346187  ]
 [  1.09391667 -71.70758722]]","[[0.         1.00245815]
 [0.1        0.37362225]
 [0.2        1.2771314 ]
 [0.3        0.32946516]
 [0.4        1.39441943]
 [0.5        1.30540336]
 [0.6        0.00236394]
 [0.7        1.39191992]
 [0.8        0.22399256]
 [0.9        0.98445346]
 [1.         1.43930771]
 [1.09391667 1.96006647]]",1,0.378
8760830999,f,19,english,5,5,english,2024-01-25 10:34:45.758114,False,1,35,sounds\english\audio/english_894.wav,"[[  0.         -80.20723644]
 [  0.1         70.63971402]
 [  0.2        -37.49635732]
 [  0.3        -83.65831032]
 [  0.4        -33.74406965]
 [  0.5         51.66171184]
 [  0.6         19.47391611]
 [  0.7        -13.53975377]
 [  0.8        -20.28527638]
 [  0.9         -1.05192851]
 [  1.         -21.57661458]
 [  1.09391667  -6.12644826]]","[[0.         1.79346893]
 [0.1        0.36641107]
 [0.2        1.22262179]
 [0.3        1.81798895]
 [0.4        0.98569015]
 [0.5        1.39342992]
 [0.6        1.02882877]
 [0.7        0.49108551]
 [0.8        0.73422482]
 [0.9        1.80196554]
 [1.         0.14842719]
 [1.09391667 0.9088618 ]]",1,0.377
8760830999,f,19,english,5,5,english,2024-01-25 10:34:45.758114,False,1,36,sounds\english\audio/english_486.wav,"[[  0.          14.09044268]
 [  0.1         28.13825665]
 [  0.2        -40.21559781]
 [  0.3          9.13288013]
 [  0.4         89.32859242]
 [  0.5        -17.87642912]
 [  0.6         80.16824269]
 [  0.7         40.51786148]
 [  0.8        -19.91774538]
 [  0.9         -8.63425979]
 [  1.         -22.84814304]
 [  1.09391667  36.71518597]]","[[0.         1.6475495 ]
 [0.1        1.6255176 ]
 [0.2        1.99682212]
 [0.3        0.39670369]
 [0.4        1.34395023]
 [0.5        0.55691658]
 [0.6        1.45409657]
 [0.7        1.8204099 ]
 [0.8        0.51861004]
 [0.9        0.91268117]
 [1.         1.67784611]
 [1.09391667 0.60064436]]",1,0.442
8760830999,f,19,english,5,5,english,2024-01-25 10:34:45.758114,False,1,37,sounds\english\audio/english_889.wav,"[[  0.          79.20623471]
 [  0.1         15.95650002]
 [  0.2        -76.24687764]
 [  0.3        -99.60118401]
 [  0.4         78.05893195]
 [  0.5        -14.00699602]
 [  0.6        -89.17552829]
 [  0.7        -14.96184535]
 [  0.8         59.85859642]
 [  0.9         11.94153074]
 [  1.         -11.03565413]
 [  1.09391667  35.54802425]]","[[0.         0.68216584]
 [0.1        0.42686819]
 [0.2        0.02909108]
 [0.3        1.3182061 ]
 [0.4        0.10574875]
 [0.5        0.2853218 ]
 [0.6        1.14496721]
 [0.7        1.04613331]
 [0.8        1.03396969]
 [0.9        0.35198627]
 [1.         0.4382774 ]
 [1.09391667 1.08765543]]",1,1.074
8760830999,f,19,english,5,5,english,2024-01-25 10:34:45.758114,False,1,38,sounds\english\audio/english_975.wav,"[[  0.         -53.40155937]
 [  0.1        -46.7591449 ]
 [  0.2        -39.94858347]
 [  0.3          4.12816175]
 [  0.4         83.44282051]
 [  0.5         20.33193784]
 [  0.6        -92.84690604]
 [  0.7         69.62119896]
 [  0.8        -27.30637844]
 [  0.9         71.11664605]
 [  1.         -25.28708081]
 [  1.09391667 -18.06651804]]","[[0.         0.28931867]
 [0.1        0.26014098]
 [0.2        0.60863929]
 [0.3        1.96061536]
 [0.4        0.74428813]
 [0.5        1.01644474]
 [0.6        0.21290726]
 [0.7        0.78909982]
 [0.8        1.61436772]
 [0.9        0.92754286]
 [1.         1.92956557]
 [1.09391667 1.66494484]]",1,0.213
8760830999,f,19,english,5,5,english,2024-01-25 10:34:45.758114,False,1,39,sounds\english\audio/english_689.wav,"[[  0.          83.12133252]
 [  0.1        -80.97372196]
 [  0.2        -28.26528551]
 [  0.3         42.6688421 ]
 [  0.4          6.31951717]
 [  0.5         65.13167849]
 [  0.6        -21.58547915]
 [  0.7        -38.42350837]
 [  0.8         72.27336224]
 [  0.9        -22.08116071]
 [  1.          -2.34337227]
 [  1.09391667  32.05995553]]","[[0.         1.04214093]
 [0.1        0.40468985]
 [0.2        1.50877389]
 [0.3        1.67206734]
 [0.4        1.24892229]
 [0.5        0.38767445]
 [0.6        1.45702475]
 [0.7        0.16690889]
 [0.8        1.13554192]
 [0.9        0.21927817]
 [1.         0.41094591]
 [1.09391667 0.34398042]]",1,0.543
8760830999,f,19,english,5,5,english,2024-01-25 10:34:45.758114,False,1,40,sounds\english\audio/english_462.wav,"[[  0.          78.76621738]
 [  0.1         31.47495931]
 [  0.2        -13.74936046]
 [  0.3        -80.17251448]
 [  0.4        -78.67939132]
 [  0.5         43.51355655]
 [  0.6          3.64631971]
 [  0.7        -45.69022839]
 [  0.8        -12.47954209]
 [  0.9        -13.33411056]
 [  1.          14.72637348]
 [  1.09391667 -47.88617719]]","[[0.         0.83121963]
 [0.1        1.43506309]
 [0.2        0.97721307]
 [0.3        0.92562125]
 [0.4        0.04016866]
 [0.5        0.46288791]
 [0.6        1.76703425]
 [0.7        1.40353438]
 [0.8        0.01443424]
 [0.9        0.75223744]
 [1.         0.69611535]
 [1.09391667 0.81633503]]",1,0.865
8760830999,f,19,english,5,5,english,2024-01-25 10:34:45.758114,False,1,41,sounds\english\audio/english_722.wav,"[[  0.         -57.56576196]
 [  0.1        -19.70677764]
 [  0.2         83.71549809]
 [  0.3          0.72860566]
 [  0.4         23.57010212]
 [  0.5        -90.6432868 ]
 [  0.6          3.97952781]
 [  0.7         47.87385022]
 [  0.8        -10.29099789]
 [  0.9        -55.37554035]
 [  1.         -74.87108339]
 [  1.09391667  32.13407254]]","[[0.         0.04722973]
 [0.1        1.09555253]
 [0.2        0.8122888 ]
 [0.3        0.82350502]
 [0.4        0.7141467 ]
 [0.5        0.19918411]
 [0.6        0.04680372]
 [0.7        0.22857445]
 [0.8        1.06043027]
 [0.9        1.28411096]
 [1.         1.38807885]
 [1.09391667 0.54998416]]",1,0.948
8760830999,f,19,english,5,5,english,2024-01-25 10:34:45.758114,False,1,42,sounds\english\audio/english_721.wav,"[[  0.         -21.91327124]
 [  0.1        -90.20435546]
 [  0.2         95.69234683]
 [  0.3         22.1637049 ]
 [  0.4         11.60833415]
 [  0.5        -18.08358407]
 [  0.6        -18.19761364]
 [  0.7         68.04091508]
 [  0.8         78.50797801]
 [  0.9        -26.72259946]
 [  1.          -5.45523717]
 [  1.09391667   8.48352437]]","[[0.         0.70003707]
 [0.1        0.21927921]
 [0.2        1.46481191]
 [0.3        0.791078  ]
 [0.4        1.28893612]
 [0.5        1.03888409]
 [0.6        1.04801609]
 [0.7        1.56253366]
 [0.8        1.28640088]
 [0.9        0.27215185]
 [1.         0.551057  ]
 [1.09391667 1.19022125]]",1,0.342
8760830999,f,19,english,5,5,english,2024-01-25 10:34:45.758114,False,1,43,sounds\english\audio/english_233.wav,"[[  0.         -12.45233214]
 [  0.1        -33.20786902]
 [  0.2         -3.84628349]
 [  0.3         52.58812425]
 [  0.4        -82.78729146]
 [  0.5        -90.93928836]
 [  0.6         91.49342166]
 [  0.7         39.27925393]
 [  0.8         -0.66571259]
 [  0.9         50.1456693 ]
 [  1.          -6.64277825]
 [  1.09391667   8.91074874]]","[[0.         1.31283544]
 [0.1        0.09471032]
 [0.2        1.88233627]
 [0.3        1.21028248]
 [0.4        0.9101705 ]
 [0.5        1.74264946]
 [0.6        1.34024886]
 [0.7        0.33883292]
 [0.8        1.35075989]
 [0.9        1.4470152 ]
 [1.         1.15231478]
 [1.09391667 1.87164883]]",1,0.312
8760830999,f,19,english,5,5,english,2024-01-25 10:34:45.758114,False,1,44,sounds\english\audio/english_79.wav,"[[  0.          27.97817784]
 [  0.1         71.46944993]
 [  0.2         89.05489336]
 [  0.3        -19.05433113]
 [  0.4        -69.45960299]
 [  0.5         73.78187689]
 [  0.6         45.30424973]
 [  0.7        -12.3964906 ]
 [  0.8         -6.65615849]
 [  0.9         20.78943027]
 [  1.         -67.05166292]
 [  1.09391667 -53.62396235]]","[[0.         0.84571494]
 [0.1        1.27709221]
 [0.2        1.27075812]
 [0.3        1.99746898]
 [0.4        0.86632135]
 [0.5        1.18439274]
 [0.6        0.05743494]
 [0.7        1.88609771]
 [0.8        1.07546111]
 [0.9        0.97034818]
 [1.         0.94663039]
 [1.09391667 0.1925317 ]]",1,0.381
8760830999,f,19,english,5,5,english,2024-01-25 10:34:45.758114,False,1,45,sounds\english\audio/english_872.wav,"[[  0.          -4.42672904]
 [  0.1        -45.54953548]
 [  0.2         61.94236328]
 [  0.3         -6.76881519]
 [  0.4         70.60925321]
 [  0.5         61.83462206]
 [  0.6         80.97898291]
 [  0.7         85.22540412]
 [  0.8          0.99054443]
 [  0.9          4.65362218]
 [  1.         -50.74375514]
 [  1.09391667 -72.71002663]]","[[0.         1.38946162]
 [0.1        1.85362479]
 [0.2        1.40120351]
 [0.3        0.73681545]
 [0.4        1.34579028]
 [0.5        0.03433947]
 [0.6        0.00901878]
 [0.7        0.90232531]
 [0.8        1.1650967 ]
 [0.9        1.94757047]
 [1.         1.11012852]
 [1.09391667 1.91238116]]",1,0.424
8760830999,f,19,english,5,5,english,2024-01-25 10:34:45.758114,False,1,46,sounds\english\audio/english_97.wav,"[[  0.          76.37857638]
 [  0.1         -4.28991847]
 [  0.2         47.01039737]
 [  0.3         78.99599817]
 [  0.4        -74.44800797]
 [  0.5         -0.92525099]
 [  0.6         49.24834696]
 [  0.7         54.51821925]
 [  0.8         21.55646095]
 [  0.9         38.61141557]
 [  1.         -51.21992239]
 [  1.09391667 -54.62741944]]","[[0.         1.79294701]
 [0.1        0.18306204]
 [0.2        1.8440549 ]
 [0.3        1.28830428]
 [0.4        0.92549922]
 [0.5        1.98803443]
 [0.6        1.73109288]
 [0.7        0.57923617]
 [0.8        1.43675725]
 [0.9        0.35677857]
 [1.         0.21609993]
 [1.09391667 0.92594918]]",1,0.504
8760830999,f,19,english,5,5,english,2024-01-25 10:34:45.758114,False,1,47,sounds\english\audio/english_740.wav,"[[  0.          44.23615519]
 [  0.1         98.76848798]
 [  0.2        -87.19170744]
 [  0.3         17.94684961]
 [  0.4        -12.45304931]
 [  0.5        -75.39454761]
 [  0.6        -53.40311478]
 [  0.7        -59.89405571]
 [  0.8         75.23070465]
 [  0.9         -2.56343276]
 [  1.          -6.86096821]
 [  1.09391667 -15.16975803]]","[[0.         0.18420553]
 [0.1        0.33702749]
 [0.2        1.65487116]
 [0.3        1.85046367]
 [0.4        1.41062797]
 [0.5        0.63278533]
 [0.6        0.41831459]
 [0.7        0.99199332]
 [0.8        1.19341016]
 [0.9        1.12149102]
 [1.         0.55698581]
 [1.09391667 1.3020905 ]]",1,0.7
8760830999,f,19,english,5,5,english,2024-01-25 10:34:45.758114,False,1,48,sounds\english\audio/english_804.wav,"[[  0.          12.60054447]
 [  0.1        -24.04730937]
 [  0.2        -96.55390316]
 [  0.3         -0.0991441 ]
 [  0.4         -4.22567636]
 [  0.5         70.60990728]
 [  0.6        -70.63369163]
 [  0.7          9.74055236]
 [  0.8         30.38077192]
 [  0.9        -59.11296325]
 [  1.          43.99527933]
 [  1.09391667  50.55732952]]","[[0.         1.79447267]
 [0.1        0.19342468]
 [0.2        1.90657737]
 [0.3        0.96962123]
 [0.4        1.3580225 ]
 [0.5        1.75244202]
 [0.6        1.0415074 ]
 [0.7        0.51929492]
 [0.8        0.12110661]
 [0.9        0.62938559]
 [1.         1.09820629]
 [1.09391667 0.96550638]]",1,0.905
8760830999,f,19,english,5,5,english,2024-01-25 10:34:45.758114,False,1,49,sounds\english\audio/english_207.wav,"[[  0.         -47.42878523]
 [  0.1        -30.16645038]
 [  0.2        -86.67371718]
 [  0.3          8.55547349]
 [  0.4        -15.66190927]
 [  0.5        -49.49878386]
 [  0.6         45.53550585]
 [  0.7         40.09709087]
 [  0.8         68.69768753]
 [  0.9        -80.58352636]
 [  1.          11.66542456]
 [  1.09391667  21.41487197]]","[[0.         1.11335627]
 [0.1        1.13740889]
 [0.2        0.31622189]
 [0.3        1.41776127]
 [0.4        0.46326981]
 [0.5        1.61561224]
 [0.6        1.82492297]
 [0.7        1.16604802]
 [0.8        1.08414078]
 [0.9        0.66393703]
 [1.         0.81001911]
 [1.09391667 1.28611979]]",1,0.63
8760830999,f,19,english,5,5,english,2024-01-25 10:34:45.758114,False,1,50,sounds\english\audio/english_622.wav,"[[  0.          85.23778605]
 [  0.1        -65.052425  ]
 [  0.2         94.1080223 ]
 [  0.3         60.75067227]
 [  0.4         82.36087021]
 [  0.5         -1.2973795 ]
 [  0.6        -58.39763813]
 [  0.7         58.2192584 ]
 [  0.8        -34.88970136]
 [  0.9         58.73036873]
 [  1.         -83.0394786 ]
 [  1.09391667  11.79606421]]","[[0.         0.25362511]
 [0.1        0.70835512]
 [0.2        1.56739435]
 [0.3        0.57882882]
 [0.4        1.03820214]
 [0.5        0.49027556]
 [0.6        0.28856178]
 [0.7        1.06997695]
 [0.8        1.42411309]
 [0.9        1.57990687]
 [1.         0.97655658]
 [1.09391667 1.49131796]]",1,0.387
8760830999,f,19,english,5,5,english,2024-01-25 10:34:45.758114,False,1,51,sounds\english\audio/english_868.wav,"[[  0.           8.81168197]
 [  0.1         28.82624603]
 [  0.2        -13.41860503]
 [  0.3         -3.78239355]
 [  0.4        -99.28888376]
 [  0.5         97.17399406]
 [  0.6         -7.91387191]
 [  0.7         60.9049728 ]
 [  0.8        -11.98639675]
 [  0.9         -1.38257528]
 [  1.          25.89344048]
 [  1.09391667 -40.04347975]]","[[0.         0.91928245]
 [0.1        1.1322176 ]
 [0.2        0.903902  ]
 [0.3        0.85237712]
 [0.4        0.30528578]
 [0.5        0.73312891]
 [0.6        1.49247212]
 [0.7        1.20652206]
 [0.8        1.13523652]
 [0.9        0.60296342]
 [1.         0.75702193]
 [1.09391667 0.87917509]]",1,0.479
8760830999,f,19,english,5,5,english,2024-01-25 10:34:45.758114,False,1,52,sounds\english\audio/english_48.wav,"[[  0.          60.63460718]
 [  0.1        -63.25879977]
 [  0.2         72.16287223]
 [  0.3         56.56802271]
 [  0.4         90.70764649]
 [  0.5        -36.31712893]
 [  0.6         25.72223985]
 [  0.7        -14.91989637]
 [  0.8        -17.95558792]
 [  0.9         -5.44719263]
 [  1.         -94.92564537]
 [  1.09391667 -13.08808473]]","[[0.         0.33804588]
 [0.1        1.53774441]
 [0.2        0.96691945]
 [0.3        1.67994136]
 [0.4        1.00040305]
 [0.5        1.89041629]
 [0.6        0.11424734]
 [0.7        0.3528252 ]
 [0.8        0.85742963]
 [0.9        0.59657969]
 [1.         0.30631529]
 [1.09391667 1.45053444]]",1,1.317
8760830999,f,19,english,5,5,english,2024-01-25 10:34:45.758114,False,1,53,sounds\english\audio/english_516.wav,"[[  0.          65.27468838]
 [  0.1         28.38678538]
 [  0.2        -16.29491298]
 [  0.3         29.01072094]
 [  0.4        -47.32267929]
 [  0.5        -47.60418852]
 [  0.6         19.91194594]
 [  0.7        -28.9289623 ]
 [  0.8          5.6204603 ]
 [  0.9         55.47321842]
 [  1.          12.03381774]
 [  1.09391667 -64.39892236]]","[[0.         0.72548384]
 [0.1        1.78002716]
 [0.2        1.52601333]
 [0.3        0.22704286]
 [0.4        1.00592853]
 [0.5        0.3740999 ]
 [0.6        1.89933748]
 [0.7        0.62297075]
 [0.8        1.26182982]
 [0.9        0.11401837]
 [1.         0.27832104]
 [1.09391667 1.09838576]]",1,0.704
8760830999,f,19,english,5,5,english,2024-01-25 10:34:45.758114,False,1,54,sounds\english\audio/english_784.wav,"[[  0.          50.65373777]
 [  0.1         90.51346558]
 [  0.2         -3.41025776]
 [  0.3         79.17419675]
 [  0.4        -50.25718644]
 [  0.5         46.55817424]
 [  0.6        -17.22874602]
 [  0.7         33.77400964]
 [  0.8         27.87922438]
 [  0.9        -62.41006325]
 [  1.         -38.19594807]
 [  1.09391667 -79.50097589]]","[[0.         1.66186365]
 [0.1        0.51528757]
 [0.2        1.39494677]
 [0.3        0.6474703 ]
 [0.4        0.6204281 ]
 [0.5        0.42566736]
 [0.6        0.08592081]
 [0.7        0.74713982]
 [0.8        1.1744845 ]
 [0.9        0.06945236]
 [1.         1.4856768 ]
 [1.09391667 1.99616285]]",1,1.689
8760830999,f,19,english,5,5,english,2024-01-25 10:34:45.758114,False,1,55,sounds\english\audio/english_991.wav,"[[  0.          -1.1896089 ]
 [  0.1        -96.26402249]
 [  0.2         35.13230964]
 [  0.3         16.47291022]
 [  0.4        -88.97016612]
 [  0.5        -18.26917978]
 [  0.6        -86.44611587]
 [  0.7        -23.18394533]
 [  0.8        -34.88810698]
 [  0.9         58.2484142 ]
 [  1.          13.64122516]
 [  1.09391667 -13.61979163]]","[[0.         1.11058757]
 [0.1        0.1672209 ]
 [0.2        1.95155766]
 [0.3        0.04651437]
 [0.4        1.74859016]
 [0.5        1.4122656 ]
 [0.6        0.52281086]
 [0.7        1.29572944]
 [0.8        1.11115335]
 [0.9        1.29146841]
 [1.         1.37847477]
 [1.09391667 0.12249008]]",1,0.646
8760830999,f,19,english,5,5,english,2024-01-25 10:34:45.758114,False,1,56,sounds\english\audio/english_787.wav,"[[  0.          75.50983857]
 [  0.1         -1.58249906]
 [  0.2          3.57353021]
 [  0.3        -99.77057176]
 [  0.4        -38.99568239]
 [  0.5         15.30754913]
 [  0.6        -97.41525775]
 [  0.7         39.01293018]
 [  0.8         42.79848726]
 [  0.9          9.93276614]
 [  1.         -95.01180619]
 [  1.09391667 -15.9004552 ]]","[[0.         0.8452738 ]
 [0.1        0.76339694]
 [0.2        0.25803741]
 [0.3        1.65296212]
 [0.4        1.74214563]
 [0.5        0.91821048]
 [0.6        1.20673022]
 [0.7        1.21324632]
 [0.8        1.47465653]
 [0.9        0.97625714]
 [1.         1.17241626]
 [1.09391667 0.99284929]]",1,0.37
8760830999,f,19,english,5,5,english,2024-01-25 10:34:45.758114,False,1,57,sounds\english\audio/english_375.wav,"[[  0.         -66.54027977]
 [  0.1         72.08787066]
 [  0.2        -56.77584869]
 [  0.3        -36.97947012]
 [  0.4         43.73402827]
 [  0.5         19.53034116]
 [  0.6        -35.65016919]
 [  0.7         12.37356045]
 [  0.8        -24.97795402]
 [  0.9         57.77915604]
 [  1.         -30.716589  ]
 [  1.09391667  78.48935482]]","[[0.         1.30902013]
 [0.1        1.77420651]
 [0.2        1.24550761]
 [0.3        0.68148521]
 [0.4        1.5097978 ]
 [0.5        0.87895003]
 [0.6        0.57287352]
 [0.7        0.19847139]
 [0.8        1.57884859]
 [0.9        1.32641243]
 [1.         0.36090675]
 [1.09391667 1.90030926]]",1,1.049
8760830999,f,19,english,5,5,english,2024-01-25 10:34:45.758114,False,1,58,sounds\english\audio/english_842.wav,"[[  0.         -81.72100022]
 [  0.1         18.84637506]
 [  0.2        -80.18621681]
 [  0.3         38.99509662]
 [  0.4         24.76840986]
 [  0.5        -19.71585535]
 [  0.6         69.03077802]
 [  0.7         35.91349986]
 [  0.8        -27.17447615]
 [  0.9        -26.64790606]
 [  1.          27.41987323]
 [  1.09391667  30.72990316]]","[[0.         1.05096469]
 [0.1        0.68369723]
 [0.2        1.52749806]
 [0.3        0.81526033]
 [0.4        1.70702662]
 [0.5        1.05576458]
 [0.6        0.15620837]
 [0.7        1.43624924]
 [0.8        0.34293919]
 [0.9        1.32305508]
 [1.         1.04384127]
 [1.09391667 1.55933633]]",0,0.505
8760830999,f,19,english,5,5,english,2024-01-25 10:34:45.758114,False,1,59,sounds\english\audio/english_454.wav,"[[  0.         -40.724684  ]
 [  0.1         68.37921334]
 [  0.2        -30.05855576]
 [  0.3        -38.49973025]
 [  0.4         20.79675368]
 [  0.5         97.95643376]
 [  0.6         60.86620442]
 [  0.7         79.81874649]
 [  0.8          3.83765836]
 [  0.9         67.59623448]
 [  1.         -91.57077167]
 [  1.09391667  10.80867564]]","[[0.         1.6228839 ]
 [0.1        0.13004392]
 [0.2        0.71367383]
 [0.3        0.85329946]
 [0.4        1.21776669]
 [0.5        0.59038082]
 [0.6        0.28627533]
 [0.7        1.2119593 ]
 [0.8        0.67514721]
 [0.9        0.51660642]
 [1.         0.97010822]
 [1.09391667 1.23476154]]",0,0.537
8760830999,f,19,english,5,5,english,2024-01-25 10:34:45.758114,False,1,60,sounds\english\audio/english_306.wav,"[[  0.         -95.03086766]
 [  0.1         -3.19440238]
 [  0.2        -39.72459624]
 [  0.3         15.36352601]
 [  0.4        -38.40390677]
 [  0.5        -49.79740584]
 [  0.6        -48.37651938]
 [  0.7        -33.05516854]
 [  0.8        -95.3817315 ]
 [  0.9        -37.53428143]
 [  1.          13.19585938]
 [  1.09391667  36.11780275]]","[[0.         1.30837938]
 [0.1        0.41482999]
 [0.2        1.62954212]
 [0.3        1.09402509]
 [0.4        0.25113187]
 [0.5        0.76399472]
 [0.6        1.73274833]
 [0.7        0.31535053]
 [0.8        0.01885302]
 [0.9        0.72130614]
 [1.         0.43232343]
 [1.09391667 1.20783491]]",0,1.217
8760830999,f,19,english,5,5,english,2024-01-25 10:34:45.758114,False,1,61,sounds\english\audio/english_644.wav,"[[  0.          -7.74705656]
 [  0.1         13.74923295]
 [  0.2         40.16854527]
 [  0.3         16.95590876]
 [  0.4         92.94154477]
 [  0.5         56.03551628]
 [  0.6         38.20742884]
 [  0.7         77.59912579]
 [  0.8        -70.6366221 ]
 [  0.9         28.8352997 ]
 [  1.         -31.19037079]
 [  1.09391667 -96.94347339]]","[[0.         0.66688753]
 [0.1        1.25240531]
 [0.2        1.72800914]
 [0.3        1.901406  ]
 [0.4        1.33708406]
 [0.5        0.15832583]
 [0.6        0.92905529]
 [0.7        1.33051148]
 [0.8        1.52220135]
 [0.9        0.90700951]
 [1.         0.18646841]
 [1.09391667 1.53278214]]",1,0.309
8760830999,f,19,english,5,5,english,2024-01-25 10:34:45.758114,False,1,62,sounds\english\audio/english_39.wav,"[[  0.          34.55093166]
 [  0.1         -1.41260387]
 [  0.2         91.9059208 ]
 [  0.3         67.91256725]
 [  0.4        -65.38565065]
 [  0.5        -78.2257863 ]
 [  0.6        -21.37966567]
 [  0.7         29.85741907]
 [  0.8        -64.93181205]
 [  0.9         27.95057541]
 [  1.           5.43341778]
 [  1.09391667 -89.64672073]]","[[0.         1.34796705]
 [0.1        0.08491471]
 [0.2        1.67265438]
 [0.3        0.89650698]
 [0.4        0.64014049]
 [0.5        1.50034896]
 [0.6        0.90896714]
 [0.7        1.5349886 ]
 [0.8        0.91983464]
 [0.9        1.17583732]
 [1.         1.89111311]
 [1.09391667 1.19651243]]",1,0.467
8760830999,f,19,english,5,5,english,2024-01-25 10:34:45.758114,False,1,63,sounds\english\audio/english_314.wav,"[[  0.         -72.77248659]
 [  0.1        -16.3777023 ]
 [  0.2        -54.89367252]
 [  0.3        -94.61910998]
 [  0.4        -16.43986335]
 [  0.5         22.95549902]
 [  0.6        -38.50046808]
 [  0.7         94.4546569 ]
 [  0.8        -37.64043119]
 [  0.9         48.39030237]
 [  1.         -45.26638295]
 [  1.09391667 -45.55554074]]","[[0.         0.8900907 ]
 [0.1        0.59416925]
 [0.2        1.27689755]
 [0.3        0.70275331]
 [0.4        1.42732001]
 [0.5        0.51357734]
 [0.6        1.78706659]
 [0.7        0.51196802]
 [0.8        0.29950004]
 [0.9        0.69158189]
 [1.         0.28421865]
 [1.09391667 1.42591163]]",0,0.728
8760830999,f,19,english,5,5,english,2024-01-25 10:34:45.758114,False,1,64,sounds\english\audio/english_280.wav,"[[  0.          88.39262763]
 [  0.1        -30.0419816 ]
 [  0.2        -70.85942958]
 [  0.3        -46.07032191]
 [  0.4         22.37889655]
 [  0.5         47.83072725]
 [  0.6         22.02613007]
 [  0.7        -10.57655449]
 [  0.8         78.01759084]
 [  0.9         38.41828257]
 [  1.          88.43566384]
 [  1.09391667 -41.21843243]]","[[0.         0.21682945]
 [0.1        1.88667459]
 [0.2        0.16117743]
 [0.3        0.35719266]
 [0.4        1.6700127 ]
 [0.5        1.73336776]
 [0.6        0.653825  ]
 [0.7        1.99113264]
 [0.8        1.83439976]
 [0.9        1.29158868]
 [1.         1.21494043]
 [1.09391667 1.43203323]]",1,0.482
8760830999,f,19,english,5,5,english,2024-01-25 10:34:45.758114,False,1,65,sounds\english\audio/english_418.wav,"[[  0.          17.48179392]
 [  0.1        -20.93259057]
 [  0.2         38.48191575]
 [  0.3        -43.04758346]
 [  0.4        -27.49631219]
 [  0.5        -43.30662093]
 [  0.6        -11.80067145]
 [  0.7        -65.69750473]
 [  0.8         36.09713106]
 [  0.9        -89.16917769]
 [  1.         -11.53730863]
 [  1.09391667  91.60971419]]","[[0.         1.16767435]
 [0.1        1.12895723]
 [0.2        0.3034601 ]
 [0.3        1.48058882]
 [0.4        0.85133692]
 [0.5        1.76317004]
 [0.6        0.40561242]
 [0.7        0.69119528]
 [0.8        0.70403422]
 [0.9        0.50785509]
 [1.         0.15277714]
 [1.09391667 0.42464397]]",1,0.517
8760830999,f,19,english,5,5,english,2024-01-25 10:34:45.758114,False,1,66,sounds\english\audio/english_457.wav,"[[  0.          84.98139411]
 [  0.1         17.09678879]
 [  0.2         57.17804744]
 [  0.3         14.4816153 ]
 [  0.4        -95.87323345]
 [  0.5         72.05470838]
 [  0.6         30.06629286]
 [  0.7         -8.14218992]
 [  0.8         -4.76706145]
 [  0.9         60.66734428]
 [  1.         -30.19655674]
 [  1.09391667 -39.41077424]]","[[0.         1.86732056]
 [0.1        0.44857368]
 [0.2        1.73229159]
 [0.3        0.24838145]
 [0.4        1.53185401]
 [0.5        1.59335631]
 [0.6        0.96995374]
 [0.7        1.30472387]
 [0.8        1.4318374 ]
 [0.9        0.45428712]
 [1.         0.92562243]
 [1.09391667 0.45157817]]",1,0.477
8760830999,f,19,english,5,5,english,2024-01-25 10:34:45.758114,False,1,67,sounds\english\audio/english_403.wav,"[[ 0.00000000e+00  1.55370236e-02]
 [ 1.00000000e-01 -4.64270355e+00]
 [ 2.00000000e-01 -8.67611077e+01]
 [ 3.00000000e-01 -8.66854854e+01]
 [ 4.00000000e-01 -7.43205589e+01]
 [ 5.00000000e-01  5.61207621e+01]
 [ 6.00000000e-01  1.50235235e+01]
 [ 7.00000000e-01  2.58783198e+01]
 [ 8.00000000e-01  2.13726461e+01]
 [ 9.00000000e-01  8.69816794e+01]
 [ 1.00000000e+00 -5.61900631e+01]
 [ 1.09391667e+00  5.92986673e+01]]","[[0.         1.50775741]
 [0.1        1.88632048]
 [0.2        1.79027228]
 [0.3        0.9708058 ]
 [0.4        1.26833926]
 [0.5        0.98662828]
 [0.6        1.65364002]
 [0.7        1.52514764]
 [0.8        1.10599603]
 [0.9        1.01372586]
 [1.         1.1928159 ]
 [1.09391667 0.36234179]]",1,0.198
8760830999,f,19,english,5,5,english,2024-01-25 10:34:45.758114,False,1,68,sounds\english\audio/english_572.wav,"[[  0.          74.87847498]
 [  0.1        -39.37509685]
 [  0.2         46.07522777]
 [  0.3        -26.59086479]
 [  0.4        -83.61712333]
 [  0.5         51.69873735]
 [  0.6        -66.29925424]
 [  0.7        -30.03465624]
 [  0.8         22.82757365]
 [  0.9        -30.60936999]
 [  1.         -46.60182678]
 [  1.09391667  37.1532128 ]]","[[0.         0.12348508]
 [0.1        1.01129589]
 [0.2        0.14453867]
 [0.3        0.66439835]
 [0.4        0.40930176]
 [0.5        1.64421854]
 [0.6        1.67109861]
 [0.7        1.00053383]
 [0.8        0.68839219]
 [0.9        0.08113885]
 [1.         0.16383696]
 [1.09391667 0.71948729]]",1,1.724
8760830999,f,19,english,5,5,english,2024-01-25 10:34:45.758114,False,1,69,sounds\english\audio/english_859.wav,"[[  0.          31.07114651]
 [  0.1        -28.29036268]
 [  0.2        -99.32977332]
 [  0.3         24.56403326]
 [  0.4         13.96924155]
 [  0.5         -7.10648456]
 [  0.6         16.2139947 ]
 [  0.7        -63.09488954]
 [  0.8         32.97149002]
 [  0.9         73.86440675]
 [  1.          18.08685772]
 [  1.09391667  63.56526174]]","[[0.         1.62014662]
 [0.1        0.23536516]
 [0.2        1.20919843]
 [0.3        1.87022771]
 [0.4        1.25340901]
 [0.5        1.24145487]
 [0.6        0.16688969]
 [0.7        1.9877967 ]
 [0.8        1.05528454]
 [0.9        1.04254929]
 [1.         0.40355025]
 [1.09391667 1.52495745]]",1,0.763
8760830999,f,19,english,5,5,english,2024-01-25 10:34:45.758114,False,1,70,sounds\english\audio/english_144.wav,"[[  0.          31.57285019]
 [  0.1        -66.82367858]
 [  0.2         25.9026646 ]
 [  0.3        -73.3005143 ]
 [  0.4         44.123678  ]
 [  0.5         49.27770762]
 [  0.6         22.38256085]
 [  0.7         -9.16605426]
 [  0.8        -36.80428778]
 [  0.9         -3.57060361]
 [  1.         -56.05458997]
 [  1.09391667 -88.6470882 ]]","[[0.         1.02092862]
 [0.1        1.21687454]
 [0.2        0.83451974]
 [0.3        1.57454957]
 [0.4        0.07717076]
 [0.5        0.27181384]
 [0.6        1.7133157 ]
 [0.7        1.06775729]
 [0.8        1.42091993]
 [0.9        0.01524657]
 [1.         0.90246411]
 [1.09391667 1.74083532]]",1,0.218
8760830999,f,19,english,5,5,english,2024-01-25 10:34:45.758114,False,1,71,sounds\english\audio/english_404.wav,"[[  0.          51.0629149 ]
 [  0.1        -20.11660717]
 [  0.2        -24.08850376]
 [  0.3        -31.42467522]
 [  0.4         53.01415625]
 [  0.5        -45.18749729]
 [  0.6         75.22262363]
 [  0.7         53.71694776]
 [  0.8        -31.94049291]
 [  0.9         64.49384663]
 [  1.         -87.57862232]
 [  1.09391667 -93.26487386]]","[[0.         0.92872816]
 [0.1        1.09197178]
 [0.2        1.28516423]
 [0.3        0.67196706]
 [0.4        0.26298551]
 [0.5        0.832552  ]
 [0.6        0.94238773]
 [0.7        0.97166455]
 [0.8        0.24504   ]
 [0.9        1.54934709]
 [1.         0.71675997]
 [1.09391667 1.21108184]]",1,0.319
8760830999,f,19,english,5,5,english,2024-01-25 10:34:45.758114,False,1,72,sounds\english\audio/english_114.wav,"[[  0.         -38.33361484]
 [  0.1        -12.76602364]
 [  0.2          0.32729235]
 [  0.3        -29.2958396 ]
 [  0.4        -44.05321795]
 [  0.5         77.26891482]
 [  0.6        -80.80990528]
 [  0.7        -78.02585179]
 [  0.8         14.37560873]
 [  0.9        -41.68954869]
 [  1.         -51.42719285]
 [  1.09391667  29.02505558]]","[[0.         0.25479749]
 [0.1        1.23857364]
 [0.2        0.44881648]
 [0.3        1.47628631]
 [0.4        1.29960212]
 [0.5        0.86625142]
 [0.6        1.18678323]
 [0.7        0.40341658]
 [0.8        0.69236485]
 [0.9        0.99173078]
 [1.         0.71091923]
 [1.09391667 1.73837671]]",1,0.591
8760830999,f,19,english,5,5,english,2024-01-25 10:34:45.758114,False,1,73,sounds\english\audio/english_564.wav,"[[  0.         -34.60753541]
 [  0.1         34.71275865]
 [  0.2        -91.22234158]
 [  0.3        -30.94174796]
 [  0.4         19.1605329 ]
 [  0.5         25.6799548 ]
 [  0.6         47.93259791]
 [  0.7        -92.40390398]
 [  0.8        -11.90261917]
 [  0.9        -40.66911236]
 [  1.         -26.45898955]
 [  1.09391667 -54.09791647]]","[[0.         1.00141785]
 [0.1        0.68250136]
 [0.2        1.72992933]
 [0.3        1.35002318]
 [0.4        0.6468883 ]
 [0.5        0.91261052]
 [0.6        0.25016516]
 [0.7        0.90996222]
 [0.8        0.18937367]
 [0.9        1.89272817]
 [1.         0.47725067]
 [1.09391667 0.84194262]]",1,0.284
8760830999,f,19,english,5,5,english,2024-01-25 10:34:45.758114,False,1,74,sounds\english\audio/english_68.wav,"[[  0.          26.58837816]
 [  0.1        -30.26201774]
 [  0.2        -90.31994669]
 [  0.3        -80.73820175]
 [  0.4        -81.40390329]
 [  0.5        -53.94630637]
 [  0.6         54.33124478]
 [  0.7        -19.04235486]
 [  0.8        -60.29150312]
 [  0.9        -10.04711988]
 [  1.          14.48015304]
 [  1.09391667 -61.29871008]]","[[0.         1.41652886]
 [0.1        1.6821225 ]
 [0.2        0.24298021]
 [0.3        0.67959509]
 [0.4        1.6191627 ]
 [0.5        0.53489657]
 [0.6        1.08896417]
 [0.7        1.94234514]
 [0.8        1.53460069]
 [0.9        1.76859618]
 [1.         0.93905077]
 [1.09391667 1.70593474]]",1,0.203
8760830999,f,19,english,5,5,english,2024-01-25 10:34:45.758114,False,1,75,sounds\english\audio/english_109.wav,"[[  0.         -85.35755776]
 [  0.1         24.87794389]
 [  0.2         88.66282845]
 [  0.3         53.91159302]
 [  0.4         -2.76092074]
 [  0.5         79.99538148]
 [  0.6        -42.31150981]
 [  0.7         -5.15781481]
 [  0.8         31.3978044 ]
 [  0.9         46.94636463]
 [  1.          63.69340257]
 [  1.09391667  10.97812261]]","[[0.         0.86429356]
 [0.1        1.54320329]
 [0.2        0.73186937]
 [0.3        0.759779  ]
 [0.4        1.4946261 ]
 [0.5        1.48350308]
 [0.6        1.90894472]
 [0.7        0.02998442]
 [0.8        0.89047781]
 [0.9        1.05504638]
 [1.         0.96709735]
 [1.09391667 0.43676298]]",1,0.374
8760830999,f,19,english,5,5,english,2024-01-25 10:34:45.758114,False,1,76,sounds\english\audio/english_361.wav,"[[  0.          20.84328773]
 [  0.1         31.97314279]
 [  0.2          0.96518171]
 [  0.3         76.6061975 ]
 [  0.4        -77.10206306]
 [  0.5         23.53898445]
 [  0.6        -12.32061179]
 [  0.7         28.9259581 ]
 [  0.8        -94.91860317]
 [  0.9        -45.1021446 ]
 [  1.          37.31543609]
 [  1.09391667 -48.80421802]]","[[0.         1.90680099]
 [0.1        0.60095823]
 [0.2        1.38207831]
 [0.3        1.17298151]
 [0.4        1.57242958]
 [0.5        0.07487762]
 [0.6        1.72866781]
 [0.7        0.62365339]
 [0.8        0.31926535]
 [0.9        1.82585567]
 [1.         1.81117851]
 [1.09391667 0.64368516]]",1,0.184
8760830999,f,19,english,5,5,english,2024-01-25 10:34:45.758114,False,1,77,sounds\english\audio/english_210.wav,"[[  0.         -22.3598959 ]
 [  0.1         82.81767229]
 [  0.2         64.75592146]
 [  0.3         38.64105246]
 [  0.4        -56.81269148]
 [  0.5         55.50536216]
 [  0.6        -90.16901587]
 [  0.7         -5.65019453]
 [  0.8        -52.20950635]
 [  0.9          2.11037441]
 [  1.         -72.63173863]
 [  1.09391667 -28.48995406]]","[[0.         0.75499894]
 [0.1        1.61294131]
 [0.2        0.96857287]
 [0.3        1.31710082]
 [0.4        0.48607374]
 [0.5        0.56849668]
 [0.6        0.68954785]
 [0.7        1.61518036]
 [0.8        0.58148747]
 [0.9        1.45053329]
 [1.         1.53157276]
 [1.09391667 1.31948045]]",1,0.695
8760830999,f,19,english,5,5,english,2024-01-25 10:34:45.758114,False,1,78,sounds\english\audio/english_954.wav,"[[  0.          -5.86860432]
 [  0.1         38.42724969]
 [  0.2         83.51680292]
 [  0.3        -25.06032499]
 [  0.4        -17.48975264]
 [  0.5         95.06102198]
 [  0.6          0.80140457]
 [  0.7        -41.69263262]
 [  0.8         18.46045351]
 [  0.9         -7.88727361]
 [  1.         -34.36872213]
 [  1.09391667  40.0906943 ]]","[[0.         0.02682789]
 [0.1        1.50907573]
 [0.2        1.17187714]
 [0.3        1.88473576]
 [0.4        0.3035603 ]
 [0.5        1.35082964]
 [0.6        0.63281948]
 [0.7        0.91375779]
 [0.8        0.80486046]
 [0.9        0.18383046]
 [1.         1.25307449]
 [1.09391667 0.22905501]]",1,0.557
8760830999,f,19,english,5,5,english,2024-01-25 10:34:45.758114,False,1,79,sounds\english\audio/english_195.wav,"[[  0.         -84.31811629]
 [  0.1        -40.4937686 ]
 [  0.2         43.37920818]
 [  0.3         89.86748729]
 [  0.4         24.49320863]
 [  0.5        -46.40835892]
 [  0.6         35.9505397 ]
 [  0.7         62.43082011]
 [  0.8         85.56276985]
 [  0.9         52.49119502]
 [  1.         -55.346187  ]
 [  1.09391667 -71.70758722]]","[[0.         1.00245815]
 [0.1        0.37362225]
 [0.2        1.2771314 ]
 [0.3        0.32946516]
 [0.4        1.39441943]
 [0.5        1.30540336]
 [0.6        0.00236394]
 [0.7        1.39191992]
 [0.8        0.22399256]
 [0.9        0.98445346]
 [1.         1.43930771]
 [1.09391667 1.96006647]]",1,0.341
8760830999,f,19,english,5,5,english,2024-01-25 10:34:45.758114,False,1,80,sounds\english\audio/english_37.wav,"[[  0.          68.40782596]
 [  0.1         41.58379148]
 [  0.2         63.04378759]
 [  0.3         12.39470235]
 [  0.4        -38.69600303]
 [  0.5        -51.98957982]
 [  0.6         90.7945682 ]
 [  0.7         40.67115675]
 [  0.8         34.01498334]
 [  0.9        -88.26662934]
 [  1.         -41.35685221]
 [  1.09391667 -27.43470179]]","[[0.         0.52957209]
 [0.1        1.67320718]
 [0.2        1.31144487]
 [0.3        1.11254506]
 [0.4        0.57972705]
 [0.5        0.30651039]
 [0.6        0.45858619]
 [0.7        1.55641423]
 [0.8        1.01642962]
 [0.9        0.95850402]
 [1.         0.70833558]
 [1.09391667 0.55678167]]",1,0.931
8760830999,f,19,english,5,5,english,2024-01-25 10:34:45.758114,False,1,81,sounds\english\audio/english_257.wav,"[[  0.          40.54895098]
 [  0.1         40.15801064]
 [  0.2        -24.20266722]
 [  0.3         -7.17661388]
 [  0.4        -28.64234321]
 [  0.5         21.61308764]
 [  0.6         53.78152607]
 [  0.7          7.01627137]
 [  0.8         35.40837973]
 [  0.9        -20.07672714]
 [  1.          -5.14564183]
 [  1.09391667 -39.03797323]]","[[0.         0.78978042]
 [0.1        1.47705853]
 [0.2        0.45256837]
 [0.3        1.62604433]
 [0.4        1.35763463]
 [0.5        0.40071863]
 [0.6        1.66804391]
 [0.7        0.9369016 ]
 [0.8        1.28942555]
 [0.9        0.91090345]
 [1.         1.13070963]
 [1.09391667 1.90359161]]",1,0.354
8760830999,f,19,english,5,5,english,2024-01-25 10:34:45.758114,False,1,82,sounds\english\audio/english_445.wav,"[[  0.          76.42112213]
 [  0.1        -97.95203426]
 [  0.2        -59.82746333]
 [  0.3        -13.48573522]
 [  0.4         81.29973607]
 [  0.5         41.3671656 ]
 [  0.6        -85.98514438]
 [  0.7         57.90232239]
 [  0.8        -95.60547231]
 [  0.9         17.13362758]
 [  1.          46.54539843]
 [  1.09391667  43.78720367]]","[[0.         1.57802926]
 [0.1        1.29835175]
 [0.2        0.53636504]
 [0.3        1.2021667 ]
 [0.4        1.41426839]
 [0.5        1.60295296]
 [0.6        0.58159358]
 [0.7        0.76199649]
 [0.8        0.54097795]
 [0.9        0.00538706]
 [1.         0.3060589 ]
 [1.09391667 1.39576853]]",1,0.345
8760830999,f,19,english,5,5,english,2024-01-25 10:34:45.758114,False,1,83,sounds\english\audio/english_963.wav,"[[  0.          12.85572416]
 [  0.1        -76.17617766]
 [  0.2         42.35975093]
 [  0.3        -29.56352697]
 [  0.4          1.9048802 ]
 [  0.5        -59.42176318]
 [  0.6        -90.23873789]
 [  0.7         96.0492683 ]
 [  0.8        -14.96705396]
 [  0.9         53.28049668]
 [  1.         -50.64061571]
 [  1.09391667  33.50411271]]","[[0.         1.75469767]
 [0.1        0.88786329]
 [0.2        1.03977576]
 [0.3        0.40233076]
 [0.4        1.77716713]
 [0.5        1.22252544]
 [0.6        1.36334994]
 [0.7        0.19892648]
 [0.8        0.48578079]
 [0.9        0.49525144]
 [1.         1.97867338]
 [1.09391667 0.71277393]]",1,0.759
8760830999,f,19,english,5,5,english,2024-01-25 10:34:45.758114,False,1,84,sounds\english\audio/english_371.wav,"[[  0.          99.9242386 ]
 [  0.1         22.83023049]
 [  0.2         91.55037371]
 [  0.3          5.76311401]
 [  0.4          4.70890445]
 [  0.5        -99.6762273 ]
 [  0.6        -44.58037386]
 [  0.7        -30.18832908]
 [  0.8         69.47065737]
 [  0.9        -91.54025657]
 [  1.          20.04839549]
 [  1.09391667  43.26134408]]","[[0.         0.39669775]
 [0.1        0.78709847]
 [0.2        1.18432294]
 [0.3        0.89768316]
 [0.4        0.28448655]
 [0.5        1.11635531]
 [0.6        0.70262912]
 [0.7        1.50477642]
 [0.8        1.93681172]
 [0.9        1.02826785]
 [1.         1.64700674]
 [1.09391667 0.44264614]]",1,0.299
8760830999,f,19,english,5,5,english,2024-01-25 10:34:45.758114,False,1,85,sounds\english\audio/english_581.wav,"[[  0.          73.66932606]
 [  0.1        -66.94779644]
 [  0.2         17.54153331]
 [  0.3        -33.4804178 ]
 [  0.4        -75.87348007]
 [  0.5        -19.3699166 ]
 [  0.6         44.64649322]
 [  0.7         49.72085551]
 [  0.8        -60.52101801]
 [  0.9        -63.98249467]
 [  1.         -38.32664081]
 [  1.09391667  93.53202253]]","[[0.         1.55016183]
 [0.1        0.89838662]
 [0.2        0.42808685]
 [0.3        0.92207517]
 [0.4        0.40201435]
 [0.5        0.78725452]
 [0.6        0.99552959]
 [0.7        1.64481575]
 [0.8        1.59282789]
 [0.9        0.98679066]
 [1.         1.29384626]
 [1.09391667 1.70769846]]",1,0.732
8760830999,f,19,english,5,5,english,2024-01-25 10:34:45.758114,False,1,86,sounds\english\audio/english_516.wav,"[[  0.          65.27468838]
 [  0.1         28.38678538]
 [  0.2        -16.29491298]
 [  0.3         29.01072094]
 [  0.4        -47.32267929]
 [  0.5        -47.60418852]
 [  0.6         19.91194594]
 [  0.7        -28.9289623 ]
 [  0.8          5.6204603 ]
 [  0.9         55.47321842]
 [  1.          12.03381774]
 [  1.09391667 -64.39892236]]","[[0.         0.72548384]
 [0.1        1.78002716]
 [0.2        1.52601333]
 [0.3        0.22704286]
 [0.4        1.00592853]
 [0.5        0.3740999 ]
 [0.6        1.89933748]
 [0.7        0.62297075]
 [0.8        1.26182982]
 [0.9        0.11401837]
 [1.         0.27832104]
 [1.09391667 1.09838576]]",1,0.899
8760830999,f,19,english,5,5,english,2024-01-25 10:34:45.758114,False,1,87,sounds\english\audio/english_20.wav,"[[  0.          63.0600358 ]
 [  0.1        -51.01536648]
 [  0.2        -79.38394235]
 [  0.3         18.37962799]
 [  0.4        -93.10550864]
 [  0.5        -34.41615075]
 [  0.6        -59.60856077]
 [  0.7         -5.91904512]
 [  0.8        -91.08119021]
 [  0.9        -45.35675883]
 [  1.         -19.89168543]
 [  1.09391667  49.76773146]]","[[0.         0.86275217]
 [0.1        0.66446023]
 [0.2        0.76617276]
 [0.3        1.08107646]
 [0.4        0.88129698]
 [0.5        1.16389527]
 [0.6        1.73817265]
 [0.7        1.94089825]
 [0.8        0.88467755]
 [0.9        1.32628719]
 [1.         0.31006302]
 [1.09391667 0.42478041]]",1,0.677
8760830999,f,19,english,5,5,english,2024-01-25 10:34:45.758114,False,1,88,sounds\english\audio/english_872.wav,"[[  0.          -4.42672904]
 [  0.1        -45.54953548]
 [  0.2         61.94236328]
 [  0.3         -6.76881519]
 [  0.4         70.60925321]
 [  0.5         61.83462206]
 [  0.6         80.97898291]
 [  0.7         85.22540412]
 [  0.8          0.99054443]
 [  0.9          4.65362218]
 [  1.         -50.74375514]
 [  1.09391667 -72.71002663]]","[[0.         1.38946162]
 [0.1        1.85362479]
 [0.2        1.40120351]
 [0.3        0.73681545]
 [0.4        1.34579028]
 [0.5        0.03433947]
 [0.6        0.00901878]
 [0.7        0.90232531]
 [0.8        1.1650967 ]
 [0.9        1.94757047]
 [1.         1.11012852]
 [1.09391667 1.91238116]]",1,0.982
8760830999,f,19,english,5,5,english,2024-01-25 10:34:45.758114,False,1,89,sounds\english\audio/english_222.wav,"[[  0.          96.40991371]
 [  0.1         44.65841575]
 [  0.2        -16.29621217]
 [  0.3        -48.55554978]
 [  0.4         26.12822135]
 [  0.5         56.43887594]
 [  0.6         -8.03605186]
 [  0.7         54.77211039]
 [  0.8         25.53059274]
 [  0.9        -58.35574141]
 [  1.         -61.20346584]
 [  1.09391667  99.40713186]]","[[0.         0.9507269 ]
 [0.1        1.79183575]
 [0.2        1.09244309]
 [0.3        1.6357802 ]
 [0.4        0.19893477]
 [0.5        0.38875901]
 [0.6        0.73216499]
 [0.7        1.11169146]
 [0.8        0.05558172]
 [0.9        0.18202708]
 [1.         0.44521291]
 [1.09391667 0.13186743]]",1,0.699
8760830999,f,19,english,5,5,english,2024-01-25 10:34:45.758114,False,1,90,sounds\english\audio/english_731.wav,"[[  0.          -7.36185514]
 [  0.1         90.53877185]
 [  0.2        -41.94407757]
 [  0.3         25.1521842 ]
 [  0.4         68.57946125]
 [  0.5         65.86891495]
 [  0.6        -52.28114947]
 [  0.7         15.16550818]
 [  0.8         25.27999627]
 [  0.9         11.70162838]
 [  1.         -94.01759602]
 [  1.09391667  -3.24792735]]","[[0.         1.393769  ]
 [0.1        0.98238467]
 [0.2        1.23695651]
 [0.3        1.19631379]
 [0.4        0.88911396]
 [0.5        1.98349596]
 [0.6        0.8296111 ]
 [0.7        0.44150217]
 [0.8        1.48173114]
 [0.9        1.09419359]
 [1.         0.20829797]
 [1.09391667 1.32232845]]",1,0.181
8760830999,f,19,english,5,5,english,2024-01-25 10:34:45.758114,False,1,91,sounds\english\audio/english_324.wav,"[[  0.          17.54140289]
 [  0.1         71.06846472]
 [  0.2        -58.0756972 ]
 [  0.3         21.96350357]
 [  0.4          8.51736718]
 [  0.5         54.10034556]
 [  0.6        -45.23490782]
 [  0.7        -47.50195247]
 [  0.8         90.23201078]
 [  0.9        -25.79699052]
 [  1.         -46.49971987]
 [  1.09391667  53.98083149]]","[[0.         0.28643924]
 [0.1        0.89310243]
 [0.2        0.19434283]
 [0.3        1.40300385]
 [0.4        0.22031138]
 [0.5        1.10087032]
 [0.6        0.61239123]
 [0.7        0.50887139]
 [0.8        1.93720132]
 [0.9        1.9219801 ]
 [1.         0.58550327]
 [1.09391667 0.44963146]]",1,0.352
8760830999,f,19,english,5,5,english,2024-01-25 10:34:45.758114,False,1,92,sounds\english\audio/english_600.wav,"[[  0.          54.02401202]
 [  0.1         52.55241108]
 [  0.2        -17.52140944]
 [  0.3        -39.51158997]
 [  0.4        -76.99480414]
 [  0.5        -69.00053843]
 [  0.6         69.67412094]
 [  0.7         42.48437255]
 [  0.8        -15.33622164]
 [  0.9        -55.53099045]
 [  1.         -56.79297969]
 [  1.09391667  25.01258484]]","[[0.         1.74963926]
 [0.1        1.86361288]
 [0.2        1.08718427]
 [0.3        1.33817406]
 [0.4        0.48398336]
 [0.5        0.58536734]
 [0.6        1.17578893]
 [0.7        1.61345559]
 [0.8        1.78194792]
 [0.9        0.88901516]
 [1.         1.65574545]
 [1.09391667 1.81372246]]",1,0.243
8760830999,f,19,english,5,5,english,2024-01-25 10:34:45.758114,False,1,93,sounds\english\audio/english_269.wav,"[[  0.         -83.93501444]
 [  0.1         88.09879619]
 [  0.2        -88.94573115]
 [  0.3        -19.78587184]
 [  0.4         69.53650184]
 [  0.5        -12.80260332]
 [  0.6         37.86483682]
 [  0.7         20.748183  ]
 [  0.8         68.31338511]
 [  0.9        -95.26136032]
 [  1.          60.98745535]
 [  1.09391667  -4.34526385]]","[[0.         0.85151873]
 [0.1        0.93284173]
 [0.2        0.56585091]
 [0.3        1.66708848]
 [0.4        0.92160414]
 [0.5        0.96478354]
 [0.6        0.12392918]
 [0.7        0.94784748]
 [0.8        0.83939678]
 [0.9        1.67634699]
 [1.         1.66934281]
 [1.09391667 1.1076262 ]]",1,0.737
8760830999,f,19,english,5,5,english,2024-01-25 10:34:45.758114,False,1,94,sounds\english\audio/english_419.wav,"[[  0.         -43.56677124]
 [  0.1        -83.21546868]
 [  0.2        -41.54064667]
 [  0.3        -35.81330599]
 [  0.4        -43.55129097]
 [  0.5        -33.79077662]
 [  0.6         70.44881048]
 [  0.7          3.24826562]
 [  0.8         34.80296655]
 [  0.9         -7.36062238]
 [  1.          41.00092789]
 [  1.09391667 -17.62948534]]","[[0.         1.2135263 ]
 [0.1        0.41335372]
 [0.2        1.17083651]
 [0.3        0.87264028]
 [0.4        0.34128763]
 [0.5        1.24788402]
 [0.6        0.43489623]
 [0.7        0.29781148]
 [0.8        1.73156921]
 [0.9        1.52997649]
 [1.         0.32887005]
 [1.09391667 0.83665111]]",1,0.957
8760830999,f,19,english,5,5,english,2024-01-25 10:34:45.758114,False,1,95,sounds\english\audio/english_121.wav,"[[  0.         -45.47404613]
 [  0.1        -36.49769978]
 [  0.2        -66.69646717]
 [  0.3         56.76733216]
 [  0.4        -69.2204817 ]
 [  0.5         67.71926704]
 [  0.6        -20.18031628]
 [  0.7        -46.80295657]
 [  0.8        -30.65691434]
 [  0.9        -30.96173959]
 [  1.          69.71514833]
 [  1.09391667  14.56946925]]","[[0.         1.1666534 ]
 [0.1        1.03435239]
 [0.2        1.07224248]
 [0.3        1.62337858]
 [0.4        1.13623118]
 [0.5        0.1634934 ]
 [0.6        1.38272259]
 [0.7        1.3454344 ]
 [0.8        1.73628045]
 [0.9        0.71303122]
 [1.         1.56011323]
 [1.09391667 0.62204911]]",1,0.091
8760830999,f,19,english,5,5,english,2024-01-25 10:34:45.758114,False,1,96,sounds\english\audio/english_765.wav,"[[  0.         -46.53041628]
 [  0.1        -50.60278258]
 [  0.2         -7.48188076]
 [  0.3         -4.61052544]
 [  0.4         69.78049639]
 [  0.5        -53.58575129]
 [  0.6        -46.38219648]
 [  0.7         78.75215399]
 [  0.8         95.47520091]
 [  0.9         26.22396157]
 [  1.           3.12654745]
 [  1.09391667 -11.81611391]]","[[0.         0.24046298]
 [0.1        1.09360201]
 [0.2        0.57764993]
 [0.3        0.55520632]
 [0.4        0.44903327]
 [0.5        0.63867698]
 [0.6        0.56842849]
 [0.7        1.28188815]
 [0.8        0.91009427]
 [0.9        0.76285115]
 [1.         1.19675799]
 [1.09391667 0.81915378]]",1,0.419
8760830999,f,19,english,5,5,english,2024-01-25 10:34:45.758114,False,1,97,sounds\english\audio/english_50.wav,"[[  0.         -32.36494138]
 [  0.1         76.6244439 ]
 [  0.2        -16.62217643]
 [  0.3         63.40850527]
 [  0.4         68.81783594]
 [  0.5        -35.17384088]
 [  0.6         42.93688325]
 [  0.7        -82.21044816]
 [  0.8        -42.73245843]
 [  0.9         -3.13393134]
 [  1.         -86.41078269]
 [  1.09391667  14.80187439]]","[[0.         1.37054129]
 [0.1        1.57215181]
 [0.2        1.07317842]
 [0.3        0.82623857]
 [0.4        0.72038729]
 [0.5        1.90936147]
 [0.6        0.3744962 ]
 [0.7        0.69245834]
 [0.8        0.60585647]
 [0.9        1.24840552]
 [1.         0.02488175]
 [1.09391667 1.59728167]]",1,0.23
8760830999,f,19,english,5,5,english,2024-01-25 10:34:45.758114,False,1,98,sounds\english\audio/english_823.wav,"[[  0.         -70.10603849]
 [  0.1        -45.04517839]
 [  0.2        -42.2492944 ]
 [  0.3        -45.84544369]
 [  0.4         -4.98008302]
 [  0.5         20.34475247]
 [  0.6         84.8573305 ]
 [  0.7        -53.89632844]
 [  0.8        -37.28575357]
 [  0.9         13.94407457]
 [  1.          24.32776485]
 [  1.09391667  93.11083292]]","[[0.         1.91255795]
 [0.1        0.74599838]
 [0.2        1.31380905]
 [0.3        1.72599054]
 [0.4        1.26451187]
 [0.5        1.72804797]
 [0.6        0.52348254]
 [0.7        1.631088  ]
 [0.8        0.82823054]
 [0.9        0.05356388]
 [1.         1.39749703]
 [1.09391667 0.95992964]]",1,0.419
8760830999,f,19,english,5,5,english,2024-01-25 10:34:45.758114,False,1,99,sounds\english\audio/english_246.wav,"[[  0.          65.19555702]
 [  0.1        -88.31116696]
 [  0.2        -87.15645837]
 [  0.3         57.84934166]
 [  0.4        -76.45557784]
 [  0.5         66.32688278]
 [  0.6         93.44738027]
 [  0.7         54.7923908 ]
 [  0.8         -1.38437059]
 [  0.9          5.22264847]
 [  1.         -11.85909484]
 [  1.09391667  65.00290812]]","[[0.         1.04626937]
 [0.1        1.63597079]
 [0.2        1.95419498]
 [0.3        0.56872665]
 [0.4        0.40309221]
 [0.5        1.93282921]
 [0.6        1.28213971]
 [0.7        1.70127241]
 [0.8        0.15014799]
 [0.9        1.21649106]
 [1.         1.48942771]
 [1.09391667 0.35768018]]",1,0.337
8760830999,f,19,english,5,5,english,2024-01-25 10:34:45.758114,False,1,100,sounds\english\audio/english_366.wav,"[[  0.         -51.97670193]
 [  0.1        -66.3802986 ]
 [  0.2        -43.44577517]
 [  0.3        -27.66745881]
 [  0.4        -24.71146446]
 [  0.5          7.18823907]
 [  0.6         -1.04467208]
 [  0.7        -90.31563808]
 [  0.8        -10.23526275]
 [  0.9         47.79218582]
 [  1.           3.55736556]
 [  1.09391667 -83.88061388]]","[[0.         0.41387665]
 [0.1        1.82440093]
 [0.2        1.51666721]
 [0.3        0.79221573]
 [0.4        1.07358208]
 [0.5        0.88629464]
 [0.6        1.421231  ]
 [0.7        0.93675223]
 [0.8        1.47759882]
 [0.9        1.29623614]
 [1.         1.92903866]
 [1.09391667 1.30968338]]",1,0.173
8760830999,f,19,english,5,5,english,2024-01-25 10:34:45.758114,False,1,101,sounds\english\audio/english_815.wav,"[[  0.          13.37098153]
 [  0.1         65.78624278]
 [  0.2         66.40667823]
 [  0.3        -44.62639189]
 [  0.4        -51.75725077]
 [  0.5        -79.21957107]
 [  0.6        -56.86584236]
 [  0.7         42.29244477]
 [  0.8        -94.28545135]
 [  0.9        -14.77734417]
 [  1.          55.50770682]
 [  1.09391667   3.0451597 ]]","[[0.         0.8883119 ]
 [0.1        0.67980941]
 [0.2        0.95780133]
 [0.3        1.51398111]
 [0.4        1.4565051 ]
 [0.5        0.83683567]
 [0.6        0.38900819]
 [0.7        1.92415526]
 [0.8        0.30571249]
 [0.9        0.35189603]
 [1.         0.8512317 ]
 [1.09391667 1.01865879]]",1,0.978
8760830999,f,19,english,5,5,english,2024-01-25 10:34:45.758114,False,1,102,sounds\english\audio/english_9.wav,"[[  0.         -96.61203468]
 [  0.1         27.77418146]
 [  0.2        -42.79973111]
 [  0.3         52.67007286]
 [  0.4        -77.37689486]
 [  0.5         22.33265825]
 [  0.6        -21.53246611]
 [  0.7         11.78226484]
 [  0.8        -45.34236124]
 [  0.9         55.83053399]
 [  1.          -0.17077069]
 [  1.09391667 -99.58545301]]","[[0.         1.48407489]
 [0.1        0.71089129]
 [0.2        1.02276586]
 [0.3        0.94605025]
 [0.4        1.64255066]
 [0.5        1.1767353 ]
 [0.6        1.24238606]
 [0.7        0.92864334]
 [0.8        1.13602565]
 [0.9        1.46898539]
 [1.         1.30855548]
 [1.09391667 1.24881599]]",1,0.487
8760830999,f,19,english,5,5,english,2024-01-25 10:34:45.758114,False,1,103,sounds\english\audio/english_537.wav,"[[  0.          25.88544012]
 [  0.1         63.63390934]
 [  0.2        -38.93036314]
 [  0.3        -12.64573365]
 [  0.4         52.79705028]
 [  0.5         61.08523752]
 [  0.6        -57.84944614]
 [  0.7        -52.33335847]
 [  0.8        -67.65126846]
 [  0.9        -85.68414248]
 [  1.         -93.50354449]
 [  1.09391667  82.40982397]]","[[0.         0.61690243]
 [0.1        0.90177056]
 [0.2        0.07664126]
 [0.3        0.99300436]
 [0.4        1.13924036]
 [0.5        0.99509991]
 [0.6        0.07377403]
 [0.7        0.81215825]
 [0.8        0.21197166]
 [0.9        0.62739584]
 [1.         1.8723754 ]
 [1.09391667 0.03126294]]",1,0.316
8760830999,f,19,english,5,5,english,2024-01-25 10:34:45.758114,False,1,104,sounds\english\audio/english_134.wav,"[[  0.         -24.26834644]
 [  0.1          0.87898814]
 [  0.2         29.43994061]
 [  0.3         21.82945731]
 [  0.4         49.09743773]
 [  0.5        -15.97258886]
 [  0.6         13.73233931]
 [  0.7        -18.88709324]
 [  0.8         13.58093601]
 [  0.9         74.79947006]
 [  1.         -49.15519577]
 [  1.09391667  18.17659257]]","[[0.         1.03045274]
 [0.1        1.86888255]
 [0.2        1.70405425]
 [0.3        1.34767033]
 [0.4        0.8443881 ]
 [0.5        1.38979788]
 [0.6        1.1830035 ]
 [0.7        1.43950556]
 [0.8        1.18211722]
 [0.9        0.44903969]
 [1.         0.93357228]
 [1.09391667 1.8466086 ]]",1,0.49
8760830999,f,19,english,5,5,english,2024-01-25 10:34:45.758114,False,1,105,sounds\english\audio/english_125.wav,"[[  0.          37.27554733]
 [  0.1         24.29830201]
 [  0.2        -43.3040728 ]
 [  0.3         32.63559677]
 [  0.4         65.75819377]
 [  0.5         93.24268126]
 [  0.6        -15.30697981]
 [  0.7         92.42760244]
 [  0.8         43.95412796]
 [  0.9         15.32237433]
 [  1.         -94.44407427]
 [  1.09391667  87.09346239]]","[[0.         0.5612227 ]
 [0.1        1.75747345]
 [0.2        1.33602667]
 [0.3        0.25379983]
 [0.4        0.46765889]
 [0.5        0.0945868 ]
 [0.6        1.31767057]
 [0.7        0.46721292]
 [0.8        1.38944415]
 [0.9        1.70361777]
 [1.         0.93528665]
 [1.09391667 1.20335548]]",1,0.26
8760830999,f,19,english,5,5,english,2024-01-25 10:34:45.758114,False,1,106,sounds\english\audio/english_81.wav,"[[  0.          71.09666265]
 [  0.1        -38.93956525]
 [  0.2        -48.61950395]
 [  0.3         33.39514041]
 [  0.4         18.24180048]
 [  0.5        -45.85953695]
 [  0.6         -0.32699599]
 [  0.7        -32.78716597]
 [  0.8        -37.9267269 ]
 [  0.9         24.21331247]
 [  1.         -31.33871225]
 [  1.09391667 -77.74283174]]","[[0.         1.09569192]
 [0.1        1.65684188]
 [0.2        0.44216952]
 [0.3        1.72758961]
 [0.4        1.46257927]
 [0.5        1.53730542]
 [0.6        1.28818555]
 [0.7        1.19414744]
 [0.8        1.01923165]
 [0.9        1.67441048]
 [1.         1.88948336]
 [1.09391667 1.81428343]]",1,1.365
8760830999,f,19,english,5,5,english,2024-01-25 10:34:45.758114,False,1,107,sounds\english\audio/english_266.wav,"[[  0.          85.08589672]
 [  0.1        -31.38715876]
 [  0.2         12.76761621]
 [  0.3        -84.09112809]
 [  0.4        -35.65738205]
 [  0.5         -1.3575127 ]
 [  0.6         28.50579554]
 [  0.7        -64.0196403 ]
 [  0.8        -12.66471897]
 [  0.9         33.09789324]
 [  1.          96.55876506]
 [  1.09391667  86.66414538]]","[[0.         0.35806768]
 [0.1        1.30312729]
 [0.2        0.13135106]
 [0.3        1.10001243]
 [0.4        0.09400181]
 [0.5        1.62804367]
 [0.6        0.86420495]
 [0.7        0.86051542]
 [0.8        1.59602975]
 [0.9        1.84870637]
 [1.         1.74532524]
 [1.09391667 1.19425471]]",1,0.166
8760830999,f,19,english,5,5,english,2024-01-25 10:34:45.758114,False,1,108,sounds\english\audio/english_115.wav,"[[  0.         -26.06400201]
 [  0.1         28.0769801 ]
 [  0.2          0.22454624]
 [  0.3         56.47311496]
 [  0.4         -7.56064775]
 [  0.5        -63.44787447]
 [  0.6        -52.68338839]
 [  0.7         37.43443466]
 [  0.8        -32.93332061]
 [  0.9         74.83402321]
 [  1.         -11.65316277]
 [  1.09391667 -63.92247639]]","[[0.         1.03170605]
 [0.1        0.8133226 ]
 [0.2        0.23304389]
 [0.3        0.50394373]
 [0.4        1.43876449]
 [0.5        0.35899171]
 [0.6        1.5505321 ]
 [0.7        0.2049404 ]
 [0.8        0.392349  ]
 [0.9        1.84542686]
 [1.         0.75053433]
 [1.09391667 1.42014848]]",1,0.093
8760830999,f,19,english,5,5,english,2024-01-25 10:34:45.758114,False,1,109,sounds\english\audio/english_204.wav,"[[  0.         -54.18548322]
 [  0.1        -11.27218157]
 [  0.2         57.70913134]
 [  0.3        -85.27797026]
 [  0.4         28.61054009]
 [  0.5        -36.71816677]
 [  0.6        -27.72446487]
 [  0.7         14.69142801]
 [  0.8          9.61746044]
 [  0.9         22.67127582]
 [  1.          69.36328148]
 [  1.09391667 -44.4283226 ]]","[[0.         0.4935822 ]
 [0.1        1.37686427]
 [0.2        1.17627269]
 [0.3        1.14645494]
 [0.4        1.61303053]
 [0.5        0.72559221]
 [0.6        1.95000364]
 [0.7        0.06695508]
 [0.8        1.52094915]
 [0.9        0.41034945]
 [1.         0.4470276 ]
 [1.09391667 1.93225144]]",1,0.209
8760830999,f,19,english,5,5,english,2024-01-25 10:34:45.758114,False,1,110,sounds\english\audio/english_323.wav,"[[  0.          40.39415448]
 [  0.1         -3.9805302 ]
 [  0.2         -8.81191145]
 [  0.3         -8.61923754]
 [  0.4         25.51817053]
 [  0.5         37.95982404]
 [  0.6        -53.30444221]
 [  0.7         54.85383866]
 [  0.8         -9.4086646 ]
 [  0.9          8.91034325]
 [  1.         -45.44598831]
 [  1.09391667 -71.60554132]]","[[0.         1.89273291]
 [0.1        1.81857991]
 [0.2        0.58180431]
 [0.3        0.82209232]
 [0.4        1.26116311]
 [0.5        1.9312982 ]
 [0.6        0.90792138]
 [0.7        0.90655742]
 [0.8        0.85964648]
 [0.9        0.3422022 ]
 [1.         1.16277549]
 [1.09391667 1.39313179]]",1,1.028
8760830999,f,19,english,5,5,english,2024-01-25 10:34:45.758114,False,1,111,sounds\english\audio/english_744.wav,"[[  0.          68.01647572]
 [  0.1        -94.84396495]
 [  0.2         -7.3752647 ]
 [  0.3        -81.08479212]
 [  0.4        -44.66331389]
 [  0.5        -77.45989494]
 [  0.6         19.1026234 ]
 [  0.7         -0.63798112]
 [  0.8         74.86031238]
 [  0.9        -35.9107796 ]
 [  1.          -6.98299608]
 [  1.09391667 -12.26999011]]","[[0.         0.92301697]
 [0.1        1.7240092 ]
 [0.2        0.78395161]
 [0.3        1.15168853]
 [0.4        0.98824464]
 [0.5        1.26560798]
 [0.6        0.20042884]
 [0.7        1.76365186]
 [0.8        1.68948901]
 [0.9        0.81659748]
 [1.         1.14393897]
 [1.09391667 0.86480781]]",1,0.486
8760830999,f,19,english,5,5,english,2024-01-25 10:34:45.758114,False,1,112,sounds\english\audio/english_451.wav,"[[  0.         -86.97928696]
 [  0.1         35.46303065]
 [  0.2         -6.55574904]
 [  0.3        -70.24481901]
 [  0.4        -15.3143791 ]
 [  0.5        -46.78683141]
 [  0.6         30.57428638]
 [  0.7        -51.27590564]
 [  0.8        -57.45214614]
 [  0.9         43.47837492]
 [  1.          45.12702561]
 [  1.09391667 -26.34948453]]","[[0.         0.12091055]
 [0.1        0.11109609]
 [0.2        0.96762463]
 [0.3        0.33361345]
 [0.4        1.63079661]
 [0.5        1.71822711]
 [0.6        1.99896141]
 [0.7        1.31564503]
 [0.8        0.39748904]
 [0.9        0.70409186]
 [1.         0.48590378]
 [1.09391667 1.98999714]]",1,0.21
8760830999,f,19,english,5,5,english,2024-01-25 10:34:45.758114,False,1,113,sounds\english\audio/english_444.wav,"[[  0.         -22.35255086]
 [  0.1        -38.39735659]
 [  0.2         81.84483339]
 [  0.3         89.66951187]
 [  0.4         78.72815519]
 [  0.5        -52.70100407]
 [  0.6        -16.77558941]
 [  0.7         74.67924026]
 [  0.8         58.06859333]
 [  0.9         62.1778936 ]
 [  1.         -11.97095728]
 [  1.09391667  61.96058284]]","[[0.         1.17037243]
 [0.1        0.80831945]
 [0.2        1.07936497]
 [0.3        1.80338122]
 [0.4        1.1980111 ]
 [0.5        1.57414757]
 [0.6        1.54546577]
 [0.7        0.86646901]
 [0.8        1.76340154]
 [0.9        1.16134605]
 [1.         0.83068954]
 [1.09391667 1.94365144]]",1,0.333
8760830999,f,19,english,5,5,english,2024-01-25 10:34:45.758114,False,1,114,sounds\english\audio/english_978.wav,"[[  0.         -56.85728998]
 [  0.1         16.43364259]
 [  0.2         47.77326739]
 [  0.3         94.05967356]
 [  0.4        -76.48908754]
 [  0.5        -47.71848611]
 [  0.6        -17.07884838]
 [  0.7         50.2599466 ]
 [  0.8         83.04934383]
 [  0.9        -14.53932226]
 [  1.         -40.28373024]
 [  1.09391667  82.58821892]]","[[0.         1.17346596]
 [0.1        0.59297783]
 [0.2        0.67016687]
 [0.3        1.98266891]
 [0.4        0.86932432]
 [0.5        0.89103479]
 [0.6        1.65910536]
 [0.7        1.27682187]
 [0.8        0.051565  ]
 [0.9        0.45965995]
 [1.         1.12972823]
 [1.09391667 1.51179451]]",1,0.573
8760830999,f,19,english,5,5,english,2024-01-25 10:34:45.758114,False,1,115,sounds\english\audio/english_174.wav,"[[  0.          -1.27352161]
 [  0.1        -67.76486912]
 [  0.2         38.59821356]
 [  0.3        -68.30936474]
 [  0.4        -90.24428589]
 [  0.5        -78.84758788]
 [  0.6         82.67516556]
 [  0.7         27.65744762]
 [  0.8         82.5621195 ]
 [  0.9         22.03109017]
 [  1.          97.22651297]
 [  1.09391667   6.30116613]]","[[0.         1.81219165]
 [0.1        0.77028854]
 [0.2        0.44136445]
 [0.3        1.01129338]
 [0.4        0.76518489]
 [0.5        1.51905633]
 [0.6        0.9260744 ]
 [0.7        1.48661059]
 [0.8        0.13101211]
 [0.9        0.66605082]
 [1.         0.90549752]
 [1.09391667 1.52579229]]",1,0.823
8760830999,f,19,english,5,5,english,2024-01-25 10:34:45.758114,False,1,116,sounds\english\audio/english_836.wav,"[[  0.         -63.35061063]
 [  0.1        -12.99108937]
 [  0.2         82.76327371]
 [  0.3        -37.04296685]
 [  0.4         12.42823269]
 [  0.5         -3.53155132]
 [  0.6        -65.36206882]
 [  0.7         37.4940371 ]
 [  0.8         82.10669288]
 [  0.9         44.64707994]
 [  1.          19.81650131]
 [  1.09391667 -37.93998677]]","[[0.         0.08705993]
 [0.1        1.16779184]
 [0.2        1.21817992]
 [0.3        1.4013418 ]
 [0.4        0.6973531 ]
 [0.5        1.80885829]
 [0.6        1.88816728]
 [0.7        0.0831571 ]
 [0.8        1.479167  ]
 [0.9        1.19168264]
 [1.         1.28184293]
 [1.09391667 1.25532644]]",1,0.48
8760830999,f,19,english,5,5,english,2024-01-25 10:34:45.758114,False,1,117,sounds\english\audio/english_413.wav,"[[  0.          14.83112151]
 [  0.1         11.76914083]
 [  0.2         56.99835841]
 [  0.3        -91.21705368]
 [  0.4         45.54032704]
 [  0.5         27.79493499]
 [  0.6        -45.92047179]
 [  0.7         30.6901634 ]
 [  0.8         -6.79166087]
 [  0.9        -73.44231095]
 [  1.          72.98773842]
 [  1.09391667  -6.1173613 ]]","[[0.         0.44215223]
 [0.1        1.16902386]
 [0.2        1.34778137]
 [0.3        1.75286116]
 [0.4        0.59475232]
 [0.5        1.56815753]
 [0.6        1.45096495]
 [0.7        1.27145961]
 [0.8        1.53710405]
 [0.9        1.76487513]
 [1.         1.73986125]
 [1.09391667 0.92350985]]",1,0.417
8760830999,f,19,english,5,5,english,2024-01-25 10:34:45.758114,False,1,118,sounds\english\audio/english_268.wav,"[[  0.         -10.36348141]
 [  0.1         83.25825445]
 [  0.2         90.11608715]
 [  0.3         32.1996215 ]
 [  0.4          8.976783  ]
 [  0.5         -6.95203106]
 [  0.6         67.82169398]
 [  0.7         50.85858074]
 [  0.8         11.07143565]
 [  0.9         40.44499652]
 [  1.          87.615801  ]
 [  1.09391667 -54.91088926]]","[[0.         0.34238631]
 [0.1        0.93968033]
 [0.2        0.03117119]
 [0.3        0.99400779]
 [0.4        0.56090086]
 [0.5        0.18644764]
 [0.6        1.05098713]
 [0.7        0.33151379]
 [0.8        0.1498151 ]
 [0.9        0.7130759 ]
 [1.         0.85732073]
 [1.09391667 1.8995277 ]]",1,0.544
8760830999,f,19,english,5,5,english,2024-01-25 10:34:45.758114,False,1,119,sounds\english\audio/english_851.wav,"[[  0.         -45.21125718]
 [  0.1        -85.75475475]
 [  0.2        -73.09455341]
 [  0.3          1.17370607]
 [  0.4        -11.35992748]
 [  0.5         42.80073602]
 [  0.6         45.07360169]
 [  0.7        -42.16100478]
 [  0.8        -19.59764742]
 [  0.9        -56.7450747 ]
 [  1.          78.71604463]
 [  1.09391667  96.78573361]]","[[0.         1.95103615]
 [0.1        0.03053554]
 [0.2        0.63850244]
 [0.3        0.96719068]
 [0.4        0.02484013]
 [0.5        0.41750072]
 [0.6        1.17324743]
 [0.7        0.99186788]
 [0.8        1.3258141 ]
 [0.9        1.2279363 ]
 [1.         1.72539035]
 [1.09391667 1.236894  ]]",1,0.253
8760830999,f,19,english,5,5,english,2024-01-25 10:34:45.758114,False,1,120,sounds\english\audio/english_489.wav,"[[  0.          34.87513384]
 [  0.1        -56.49709653]
 [  0.2        -69.32456338]
 [  0.3         53.20706346]
 [  0.4         66.8977185 ]
 [  0.5         47.95425842]
 [  0.6         18.45634507]
 [  0.7        -35.00488862]
 [  0.8         41.56892466]
 [  0.9         -9.61579481]
 [  1.         -77.26438838]
 [  1.09391667 -34.81016687]]","[[0.         0.04879029]
 [0.1        0.42206675]
 [0.2        1.77329015]
 [0.3        0.48934341]
 [0.4        1.53841919]
 [0.5        1.90609151]
 [0.6        1.04648426]
 [0.7        0.7592551 ]
 [0.8        1.06956744]
 [0.9        0.57636466]
 [1.         0.72315176]
 [1.09391667 0.99781533]]",1,0.347
8760830999,f,19,english,5,5,english,2024-01-25 10:34:45.758114,False,1,121,sounds\english\audio/english_251.wav,"[[  0.         -93.03805102]
 [  0.1         51.2655571 ]
 [  0.2         37.58283666]
 [  0.3        -55.53133441]
 [  0.4         98.21602679]
 [  0.5        -85.24256095]
 [  0.6        -76.0460332 ]
 [  0.7         26.51950349]
 [  0.8        -37.24987979]
 [  0.9        -60.42287441]
 [  1.          31.01216571]
 [  1.09391667  74.35472995]]","[[0.         1.12342723]
 [0.1        1.9149468 ]
 [0.2        1.73876516]
 [0.3        1.01047504]
 [0.4        0.87048418]
 [0.5        1.77281536]
 [0.6        1.29741372]
 [0.7        0.41684213]
 [0.8        1.13690271]
 [0.9        1.00770315]
 [1.         0.51077747]
 [1.09391667 0.89311028]]",1,0.183
8760830999,f,19,english,5,5,english,2024-01-25 10:34:45.758114,False,1,122,sounds\english\audio/english_277.wav,"[[  0.         -44.33616139]
 [  0.1         44.35260019]
 [  0.2        -49.49233779]
 [  0.3        -85.34810724]
 [  0.4         28.63854814]
 [  0.5         67.28491477]
 [  0.6         56.85897208]
 [  0.7        -23.80647194]
 [  0.8        -34.73638316]
 [  0.9        -44.12670418]
 [  1.         -49.9038669 ]
 [  1.09391667 -45.21232541]]","[[0.         0.73788807]
 [0.1        1.74394891]
 [0.2        0.42488183]
 [0.3        1.67106469]
 [0.4        1.81238123]
 [0.5        1.08162705]
 [0.6        1.34108587]
 [0.7        0.83894526]
 [0.8        0.08057135]
 [0.9        0.78361609]
 [1.         1.89078492]
 [1.09391667 1.1409546 ]]",1,1.121
8760830999,f,19,english,5,5,english,2024-01-25 10:34:45.758114,False,1,123,sounds\english\audio/english_363.wav,"[[  0.          -5.66534259]
 [  0.1         96.57780227]
 [  0.2          8.75498082]
 [  0.3        -62.00877197]
 [  0.4         55.64754403]
 [  0.5         60.40753337]
 [  0.6         28.13214645]
 [  0.7         80.12225937]
 [  0.8         96.25782192]
 [  0.9        -69.76671387]
 [  1.          60.27804949]
 [  1.09391667  31.6619376 ]]","[[0.         1.60513634]
 [0.1        0.93762693]
 [0.2        1.53396088]
 [0.3        1.61687943]
 [0.4        0.81027283]
 [0.5        0.96421289]
 [0.6        0.44675755]
 [0.7        1.7907484 ]
 [0.8        1.63025461]
 [0.9        1.21594348]
 [1.         1.84929312]
 [1.09391667 0.74880834]]",1,0.098
8760830999,f,19,english,5,5,english,2024-01-25 10:34:45.758114,False,1,124,sounds\english\audio/english_263.wav,"[[  0.          60.54836266]
 [  0.1         -7.25947701]
 [  0.2         57.3147166 ]
 [  0.3        -54.27216299]
 [  0.4        -55.29215067]
 [  0.5        -35.67260064]
 [  0.6         64.27930659]
 [  0.7         39.11312223]
 [  0.8        -36.26628423]
 [  0.9         24.26738527]
 [  1.          43.73514677]
 [  1.09391667 -15.47335433]]","[[0.         0.88286661]
 [0.1        0.15523443]
 [0.2        0.89947763]
 [0.3        1.94594407]
 [0.4        0.36252841]
 [0.5        0.43064253]
 [0.6        0.12649613]
 [0.7        0.99935682]
 [0.8        0.98138808]
 [0.9        1.68351405]
 [1.         0.97417267]
 [1.09391667 0.42659576]]",1,0.417
8760830999,f,19,english,5,5,english,2024-01-25 10:34:45.758114,False,1,125,sounds\english\audio/english_431.wav,"[[  0.          80.69254561]
 [  0.1        -59.39729579]
 [  0.2         32.8562558 ]
 [  0.3        -22.29744676]
 [  0.4         31.71546531]
 [  0.5         26.68689131]
 [  0.6        -67.6485219 ]
 [  0.7         27.20384073]
 [  0.8        -89.82269949]
 [  0.9        -57.22282633]
 [  1.          66.80474658]
 [  1.09391667  -8.50085654]]","[[0.         1.28844059]
 [0.1        0.02904499]
 [0.2        0.95132877]
 [0.3        1.51616745]
 [0.4        1.13295381]
 [0.5        0.76516543]
 [0.6        0.83201004]
 [0.7        0.376561  ]
 [0.8        1.59621374]
 [0.9        0.7949968 ]
 [1.         1.43069985]
 [1.09391667 0.47836789]]",1,0.143
8760830999,f,19,english,5,5,english,2024-01-25 10:34:45.758114,False,1,126,sounds\english\audio/english_41.wav,"[[  0.          94.86935215]
 [  0.1         -7.05168928]
 [  0.2         83.29541273]
 [  0.3         -1.78314142]
 [  0.4         48.9333274 ]
 [  0.5        -37.7603382 ]
 [  0.6        -73.18439231]
 [  0.7         14.0804343 ]
 [  0.8        -63.54643631]
 [  0.9         15.76603415]
 [  1.           6.93433941]
 [  1.09391667 -37.21216737]]","[[0.         0.27348518]
 [0.1        1.18971652]
 [0.2        1.0683571 ]
 [0.3        1.37978433]
 [0.4        0.66104529]
 [0.5        1.58723319]
 [0.6        0.96658357]
 [0.7        1.12331941]
 [0.8        1.41064232]
 [0.9        0.93302581]
 [1.         0.83854769]
 [1.09391667 1.07714606]]",1,0.153
8760830999,f,19,english,5,5,english,2024-01-25 10:34:45.758114,False,1,127,sounds\english\audio/english_45.wav,"[[  0.         -55.14721801]
 [  0.1         57.09452307]
 [  0.2         -1.62499195]
 [  0.3        -13.00347301]
 [  0.4         13.64765964]
 [  0.5        -16.23645369]
 [  0.6         12.80202188]
 [  0.7         18.490615  ]
 [  0.8        -32.73911513]
 [  0.9         72.91810524]
 [  1.         -39.54069726]
 [  1.09391667   1.32954538]]","[[0.         0.29299266]
 [0.1        0.9247964 ]
 [0.2        1.0494158 ]
 [0.3        1.81345336]
 [0.4        1.7292362 ]
 [0.5        0.3059786 ]
 [0.6        1.60566624]
 [0.7        1.60640041]
 [0.8        0.6923723 ]
 [0.9        1.31031073]
 [1.         0.9624361 ]
 [1.09391667 1.523717  ]]",1,0.378
8760830999,f,19,english,5,5,english,2024-01-25 10:34:45.758114,False,1,128,sounds\english\audio/english_569.wav,"[[  0.          80.86242067]
 [  0.1        -36.85440805]
 [  0.2         55.48604093]
 [  0.3        -32.48832212]
 [  0.4         34.47022209]
 [  0.5         23.79827115]
 [  0.6        -29.60411728]
 [  0.7         -3.34902879]
 [  0.8        -24.14207397]
 [  0.9         49.40170215]
 [  1.          34.30113072]
 [  1.09391667 -89.06013863]]","[[0.         1.33421849]
 [0.1        1.5057291 ]
 [0.2        1.7838276 ]
 [0.3        0.34502948]
 [0.4        1.33242051]
 [0.5        0.68239412]
 [0.6        1.41145095]
 [0.7        0.70703372]
 [0.8        0.57539158]
 [0.9        1.31553206]
 [1.         0.57675215]
 [1.09391667 1.91555697]]",1,0.398
