subj,trial,block,date,stim,stim_order,response,rt,age,english,french,language,sex,param_index,segment,pitch,stretch
6534322b1c3b356fea530715,0,0,2024-02-24T08:32:43.973Z,french_673.wav,0,poule,1864,34,5,5,Français,m,0,0.0,97.1433432,1.2603
6534322b1c3b356fea530715,0,0,2024-02-24T08:32:43.973Z,french_673.wav,0,poule,1864,34,5,5,Français,m,1,0.1,1.59516127,0.42137615
6534322b1c3b356fea530715,0,0,2024-02-24T08:32:43.973Z,french_673.wav,0,poule,1864,34,5,5,Français,m,2,0.2,27.02161491,0.87652171
6534322b1c3b356fea530715,0,0,2024-02-24T08:32:43.973Z,french_673.wav,0,poule,1864,34,5,5,Français,m,3,0.25666667,62.92522021,1.1230089
6534322b1c3b356fea530715,1,0,2024-02-24T08:32:43.973Z,french_160.wav,0,poule,1784,34,5,5,Français,m,0,0.0,94.580754,1.48632924
6534322b1c3b356fea530715,1,0,2024-02-24T08:32:43.973Z,french_160.wav,0,poule,1784,34,5,5,Français,m,1,0.1,-77.59057929,0.83284567
6534322b1c3b356fea530715,1,0,2024-02-24T08:32:43.973Z,french_160.wav,0,poule,1784,34,5,5,Français,m,2,0.2,49.28871101,1.32543638
6534322b1c3b356fea530715,1,0,2024-02-24T08:32:43.973Z,french_160.wav,0,poule,1784,34,5,5,Français,m,3,0.25666667,54.34008904,1.18016963
6534322b1c3b356fea530715,2,0,2024-02-24T08:32:43.973Z,french_101.wav,0,poule,1638,34,5,5,Français,m,0,0.0,2.45558497,0.33272101
6534322b1c3b356fea530715,2,0,2024-02-24T08:32:43.973Z,french_101.wav,0,poule,1638,34,5,5,Français,m,1,0.1,-89.46857105,1.30167387
6534322b1c3b356fea530715,2,0,2024-02-24T08:32:43.973Z,french_101.wav,0,poule,1638,34,5,5,Français,m,2,0.2,26.84471845,0.45771198
6534322b1c3b356fea530715,2,0,2024-02-24T08:32:43.973Z,french_101.wav,0,poule,1638,34,5,5,Français,m,3,0.25666667,-40.2942876,1.30875705
6534322b1c3b356fea530715,3,0,2024-02-24T08:32:43.973Z,french_871.wav,0,poule,837,34,5,5,Français,m,0,0.0,-4.85456223,1.97775754
6534322b1c3b356fea530715,3,0,2024-02-24T08:32:43.973Z,french_871.wav,0,poule,837,34,5,5,Français,m,1,0.1,78.38715758,1.19373072
6534322b1c3b356fea530715,3,0,2024-02-24T08:32:43.973Z,french_871.wav,0,poule,837,34,5,5,Français,m,2,0.2,-65.12117647,1.5578529
6534322b1c3b356fea530715,3,0,2024-02-24T08:32:43.973Z,french_871.wav,0,poule,837,34,5,5,Français,m,3,0.25666667,96.09900544,1.61262149
6534322b1c3b356fea530715,4,0,2024-02-24T08:32:43.973Z,french_543.wav,0,pull,2675,34,5,5,Français,m,0,0.0,99.95964938,0.10365101
6534322b1c3b356fea530715,4,0,2024-02-24T08:32:43.973Z,french_543.wav,0,pull,2675,34,5,5,Français,m,1,0.1,62.1224346,1.02026934
6534322b1c3b356fea530715,4,0,2024-02-24T08:32:43.973Z,french_543.wav,0,pull,2675,34,5,5,Français,m,2,0.2,-10.06540024,0.56488883
6534322b1c3b356fea530715,4,0,2024-02-24T08:32:43.973Z,french_543.wav,0,pull,2675,34,5,5,Français,m,3,0.25666667,-5.35888672,0.3884986
6534322b1c3b356fea530715,5,0,2024-02-24T08:32:43.973Z,french_737.wav,0,poule,891,34,5,5,Français,m,0,0.0,13.02374388,1.19502519
6534322b1c3b356fea530715,5,0,2024-02-24T08:32:43.973Z,french_737.wav,0,poule,891,34,5,5,Français,m,1,0.1,-10.41694685,0.96501463
6534322b1c3b356fea530715,5,0,2024-02-24T08:32:43.973Z,french_737.wav,0,poule,891,34,5,5,Français,m,2,0.2,-16.29618142,0.50712422
6534322b1c3b356fea530715,5,0,2024-02-24T08:32:43.973Z,french_737.wav,0,poule,891,34,5,5,Français,m,3,0.25666667,15.62671798,0.54653665
6534322b1c3b356fea530715,6,0,2024-02-24T08:32:43.973Z,french_547.wav,0,poule,664,34,5,5,Français,m,0,0.0,-72.35697933,0.54090293
6534322b1c3b356fea530715,6,0,2024-02-24T08:32:43.973Z,french_547.wav,0,poule,664,34,5,5,Français,m,1,0.1,-74.8664908,1.21231176
6534322b1c3b356fea530715,6,0,2024-02-24T08:32:43.973Z,french_547.wav,0,poule,664,34,5,5,Français,m,2,0.2,67.97778582,1.67585204
6534322b1c3b356fea530715,6,0,2024-02-24T08:32:43.973Z,french_547.wav,0,poule,664,34,5,5,Français,m,3,0.25666667,23.13057238,0.28113426
6534322b1c3b356fea530715,7,0,2024-02-24T08:32:43.973Z,french_645.wav,0,poule,522,34,5,5,Français,m,0,0.0,39.28095882,1.44479402
6534322b1c3b356fea530715,7,0,2024-02-24T08:32:43.973Z,french_645.wav,0,poule,522,34,5,5,Français,m,1,0.1,36.97709506,1.97267477
6534322b1c3b356fea530715,7,0,2024-02-24T08:32:43.973Z,french_645.wav,0,poule,522,34,5,5,Français,m,2,0.2,-20.56368862,0.33303832
6534322b1c3b356fea530715,7,0,2024-02-24T08:32:43.973Z,french_645.wav,0,poule,522,34,5,5,Français,m,3,0.25666667,45.13755494,0.87530899
6534322b1c3b356fea530715,8,0,2024-02-24T08:32:43.973Z,french_219.wav,0,poule,834,34,5,5,Français,m,0,0.0,-98.78648146,1.35832625
6534322b1c3b356fea530715,8,0,2024-02-24T08:32:43.973Z,french_219.wav,0,poule,834,34,5,5,Français,m,1,0.1,-54.51672601,0.9105506
6534322b1c3b356fea530715,8,0,2024-02-24T08:32:43.973Z,french_219.wav,0,poule,834,34,5,5,Français,m,2,0.2,75.82451993,0.22027405
6534322b1c3b356fea530715,8,0,2024-02-24T08:32:43.973Z,french_219.wav,0,poule,834,34,5,5,Français,m,3,0.25666667,42.52821499,1.53742188
6534322b1c3b356fea530715,9,0,2024-02-24T08:32:43.973Z,french_779.wav,0,poule,668,34,5,5,Français,m,0,0.0,-23.73686582,0.65858767
6534322b1c3b356fea530715,9,0,2024-02-24T08:32:43.973Z,french_779.wav,0,poule,668,34,5,5,Français,m,1,0.1,96.23962081,1.55580865
6534322b1c3b356fea530715,9,0,2024-02-24T08:32:43.973Z,french_779.wav,0,poule,668,34,5,5,Français,m,2,0.2,19.26430851,1.22244229
6534322b1c3b356fea530715,9,0,2024-02-24T08:32:43.973Z,french_779.wav,0,poule,668,34,5,5,Français,m,3,0.25666667,-72.92378626,1.83333034
6534322b1c3b356fea530715,10,0,2024-02-24T08:32:43.973Z,french_782.wav,0,pull,685,34,5,5,Français,m,0,0.0,-22.12019493,0.33541309
6534322b1c3b356fea530715,10,0,2024-02-24T08:32:43.973Z,french_782.wav,0,pull,685,34,5,5,Français,m,1,0.1,4.49416446,0.60665876
6534322b1c3b356fea530715,10,0,2024-02-24T08:32:43.973Z,french_782.wav,0,pull,685,34,5,5,Français,m,2,0.2,95.81757258,0.65040298
6534322b1c3b356fea530715,10,0,2024-02-24T08:32:43.973Z,french_782.wav,0,pull,685,34,5,5,Français,m,3,0.25666667,37.17912971,0.93901734
6534322b1c3b356fea530715,11,0,2024-02-24T08:32:43.973Z,french_385.wav,0,poule,653,34,5,5,Français,m,0,0.0,-5.35501711,1.94967077
6534322b1c3b356fea530715,11,0,2024-02-24T08:32:43.973Z,french_385.wav,0,poule,653,34,5,5,Français,m,1,0.1,28.75563306,0.4629862
6534322b1c3b356fea530715,11,0,2024-02-24T08:32:43.973Z,french_385.wav,0,poule,653,34,5,5,Français,m,2,0.2,60.61846434,0.74478567
6534322b1c3b356fea530715,11,0,2024-02-24T08:32:43.973Z,french_385.wav,0,poule,653,34,5,5,Français,m,3,0.25666667,-78.89426498,0.69826307
6534322b1c3b356fea530715,12,0,2024-02-24T08:32:43.973Z,french_280.wav,0,poule,1160,34,5,5,Français,m,0,0.0,-67.41100242,0.87165921
6534322b1c3b356fea530715,12,0,2024-02-24T08:32:43.973Z,french_280.wav,0,poule,1160,34,5,5,Français,m,1,0.1,-0.65291527,0.40210454
6534322b1c3b356fea530715,12,0,2024-02-24T08:32:43.973Z,french_280.wav,0,poule,1160,34,5,5,Français,m,2,0.2,-45.07946214,0.8560963
6534322b1c3b356fea530715,12,0,2024-02-24T08:32:43.973Z,french_280.wav,0,poule,1160,34,5,5,Français,m,3,0.25666667,-37.24252155,1.09108247
6534322b1c3b356fea530715,13,0,2024-02-24T08:32:43.973Z,french_77.wav,0,poule,537,34,5,5,Français,m,0,0.0,-38.97456477,1.51906971
6534322b1c3b356fea530715,13,0,2024-02-24T08:32:43.973Z,french_77.wav,0,poule,537,34,5,5,Français,m,1,0.1,-27.77573133,1.43123518
6534322b1c3b356fea530715,13,0,2024-02-24T08:32:43.973Z,french_77.wav,0,poule,537,34,5,5,Français,m,2,0.2,62.31685549,1.04030098
6534322b1c3b356fea530715,13,0,2024-02-24T08:32:43.973Z,french_77.wav,0,poule,537,34,5,5,Français,m,3,0.25666667,13.7751853,1.45792424
6534322b1c3b356fea530715,14,0,2024-02-24T08:32:43.973Z,french_636.wav,0,poule,687,34,5,5,Français,m,0,0.0,79.1724471,0.8082817
6534322b1c3b356fea530715,14,0,2024-02-24T08:32:43.973Z,french_636.wav,0,poule,687,34,5,5,Français,m,1,0.1,25.25700376,1.50975093
6534322b1c3b356fea530715,14,0,2024-02-24T08:32:43.973Z,french_636.wav,0,poule,687,34,5,5,Français,m,2,0.2,72.37529148,0.99206968
6534322b1c3b356fea530715,14,0,2024-02-24T08:32:43.973Z,french_636.wav,0,poule,687,34,5,5,Français,m,3,0.25666667,12.21946345,0.17038819
6534322b1c3b356fea530715,15,0,2024-02-24T08:32:43.973Z,french_719.wav,0,poule,1398,34,5,5,Français,m,0,0.0,-0.39387326,0.47887204
6534322b1c3b356fea530715,15,0,2024-02-24T08:32:43.973Z,french_719.wav,0,poule,1398,34,5,5,Français,m,1,0.1,1.52424656,1.22874683
6534322b1c3b356fea530715,15,0,2024-02-24T08:32:43.973Z,french_719.wav,0,poule,1398,34,5,5,Français,m,2,0.2,34.63950895,0.97564384
6534322b1c3b356fea530715,15,0,2024-02-24T08:32:43.973Z,french_719.wav,0,poule,1398,34,5,5,Français,m,3,0.25666667,-19.23986751,0.79252429
6534322b1c3b356fea530715,16,0,2024-02-24T08:32:43.973Z,french_495.wav,0,poule,1667,34,5,5,Français,m,0,0.0,93.48002859,1.03648483
6534322b1c3b356fea530715,16,0,2024-02-24T08:32:43.973Z,french_495.wav,0,poule,1667,34,5,5,Français,m,1,0.1,99.142871,1.23043948
6534322b1c3b356fea530715,16,0,2024-02-24T08:32:43.973Z,french_495.wav,0,poule,1667,34,5,5,Français,m,2,0.2,-33.98102163,1.1332488
6534322b1c3b356fea530715,16,0,2024-02-24T08:32:43.973Z,french_495.wav,0,poule,1667,34,5,5,Français,m,3,0.25666667,38.68354094,0.62015381
6534322b1c3b356fea530715,17,0,2024-02-24T08:32:43.973Z,french_760.wav,0,poule,510,34,5,5,Français,m,0,0.0,-33.74521786,1.08104013
6534322b1c3b356fea530715,17,0,2024-02-24T08:32:43.973Z,french_760.wav,0,poule,510,34,5,5,Français,m,1,0.1,38.89159258,0.90085836
6534322b1c3b356fea530715,17,0,2024-02-24T08:32:43.973Z,french_760.wav,0,poule,510,34,5,5,Français,m,2,0.2,64.82772984,0.36080554
6534322b1c3b356fea530715,17,0,2024-02-24T08:32:43.973Z,french_760.wav,0,poule,510,34,5,5,Français,m,3,0.25666667,15.52705732,0.08393315
6534322b1c3b356fea530715,18,0,2024-02-24T08:32:43.973Z,french_991.wav,0,poule,454,34,5,5,Français,m,0,0.0,-95.18678644,1.24715664
6534322b1c3b356fea530715,18,0,2024-02-24T08:32:43.973Z,french_991.wav,0,poule,454,34,5,5,Français,m,1,0.1,-65.70936013,0.64410058
6534322b1c3b356fea530715,18,0,2024-02-24T08:32:43.973Z,french_991.wav,0,poule,454,34,5,5,Français,m,2,0.2,44.22545462,0.83152977
6534322b1c3b356fea530715,18,0,2024-02-24T08:32:43.973Z,french_991.wav,0,poule,454,34,5,5,Français,m,3,0.25666667,31.01090832,1.93309413
6534322b1c3b356fea530715,19,0,2024-02-24T08:32:43.973Z,french_287.wav,0,poule,1418,34,5,5,Français,m,0,0.0,-6.24804435,1.11596696
6534322b1c3b356fea530715,19,0,2024-02-24T08:32:43.973Z,french_287.wav,0,poule,1418,34,5,5,Français,m,1,0.1,-47.42967866,0.08887129
6534322b1c3b356fea530715,19,0,2024-02-24T08:32:43.973Z,french_287.wav,0,poule,1418,34,5,5,Français,m,2,0.2,-83.16585562,1.70974676
6534322b1c3b356fea530715,19,0,2024-02-24T08:32:43.973Z,french_287.wav,0,poule,1418,34,5,5,Français,m,3,0.25666667,77.49694817,0.42476907
6534322b1c3b356fea530715,20,0,2024-02-24T08:32:43.973Z,french_111.wav,0,poule,812,34,5,5,Français,m,0,0.0,1.59326178,0.67104434
6534322b1c3b356fea530715,20,0,2024-02-24T08:32:43.973Z,french_111.wav,0,poule,812,34,5,5,Français,m,1,0.1,-40.8911656,0.22448148
6534322b1c3b356fea530715,20,0,2024-02-24T08:32:43.973Z,french_111.wav,0,poule,812,34,5,5,Français,m,2,0.2,-66.59771714,1.3255008
6534322b1c3b356fea530715,20,0,2024-02-24T08:32:43.973Z,french_111.wav,0,poule,812,34,5,5,Français,m,3,0.25666667,93.67842788,0.49085037
6534322b1c3b356fea530715,21,0,2024-02-24T08:32:43.973Z,french_783.wav,0,poule,557,34,5,5,Français,m,0,0.0,-1.39366148,1.02261841
6534322b1c3b356fea530715,21,0,2024-02-24T08:32:43.973Z,french_783.wav,0,poule,557,34,5,5,Français,m,1,0.1,-51.98505422,1.36670641
6534322b1c3b356fea530715,21,0,2024-02-24T08:32:43.973Z,french_783.wav,0,poule,557,34,5,5,Français,m,2,0.2,-59.48644931,1.36831513
6534322b1c3b356fea530715,21,0,2024-02-24T08:32:43.973Z,french_783.wav,0,poule,557,34,5,5,Français,m,3,0.25666667,-72.0894269,1.17814646
6534322b1c3b356fea530715,22,0,2024-02-24T08:32:43.973Z,french_17.wav,0,poule,599,34,5,5,Français,m,0,0.0,61.86852427,1.05769551
6534322b1c3b356fea530715,22,0,2024-02-24T08:32:43.973Z,french_17.wav,0,poule,599,34,5,5,Français,m,1,0.1,14.81642836,0.81667418
6534322b1c3b356fea530715,22,0,2024-02-24T08:32:43.973Z,french_17.wav,0,poule,599,34,5,5,Français,m,2,0.2,-8.48865215,0.51249479
6534322b1c3b356fea530715,22,0,2024-02-24T08:32:43.973Z,french_17.wav,0,poule,599,34,5,5,Français,m,3,0.25666667,71.68336874,0.29939213
6534322b1c3b356fea530715,23,0,2024-02-24T08:32:43.973Z,french_808.wav,0,poule,443,34,5,5,Français,m,0,0.0,-62.09526538,1.28254738
6534322b1c3b356fea530715,23,0,2024-02-24T08:32:43.973Z,french_808.wav,0,poule,443,34,5,5,Français,m,1,0.1,21.23234707,0.50843795
6534322b1c3b356fea530715,23,0,2024-02-24T08:32:43.973Z,french_808.wav,0,poule,443,34,5,5,Français,m,2,0.2,-93.15759374,0.88416038
6534322b1c3b356fea530715,23,0,2024-02-24T08:32:43.973Z,french_808.wav,0,poule,443,34,5,5,Français,m,3,0.25666667,-35.4638748,1.60061847
6534322b1c3b356fea530715,24,0,2024-02-24T08:32:43.973Z,french_558.wav,0,poule,484,34,5,5,Français,m,0,0.0,-24.56305845,0.85912435
6534322b1c3b356fea530715,24,0,2024-02-24T08:32:43.973Z,french_558.wav,0,poule,484,34,5,5,Français,m,1,0.1,18.75830467,1.74056956
6534322b1c3b356fea530715,24,0,2024-02-24T08:32:43.973Z,french_558.wav,0,poule,484,34,5,5,Français,m,2,0.2,-0.86444976,0.35762899
6534322b1c3b356fea530715,24,0,2024-02-24T08:32:43.973Z,french_558.wav,0,poule,484,34,5,5,Français,m,3,0.25666667,-67.61408917,1.29508782
6534322b1c3b356fea530715,25,0,2024-02-24T08:32:43.973Z,french_612.wav,0,poule,619,34,5,5,Français,m,0,0.0,43.10783066,0.49686358
6534322b1c3b356fea530715,25,0,2024-02-24T08:32:43.973Z,french_612.wav,0,poule,619,34,5,5,Français,m,1,0.1,-4.14995098,1.10500502
6534322b1c3b356fea530715,25,0,2024-02-24T08:32:43.973Z,french_612.wav,0,poule,619,34,5,5,Français,m,2,0.2,22.17563662,0.22222502
6534322b1c3b356fea530715,25,0,2024-02-24T08:32:43.973Z,french_612.wav,0,poule,619,34,5,5,Français,m,3,0.25666667,-48.75850842,1.14111641
6534322b1c3b356fea530715,26,0,2024-02-24T08:32:43.973Z,french_571.wav,0,poule,507,34,5,5,Français,m,0,0.0,31.56469904,0.97268691
6534322b1c3b356fea530715,26,0,2024-02-24T08:32:43.973Z,french_571.wav,0,poule,507,34,5,5,Français,m,1,0.1,44.5277229,1.62706688
6534322b1c3b356fea530715,26,0,2024-02-24T08:32:43.973Z,french_571.wav,0,poule,507,34,5,5,Français,m,2,0.2,41.67262287,1.42821868
6534322b1c3b356fea530715,26,0,2024-02-24T08:32:43.973Z,french_571.wav,0,poule,507,34,5,5,Français,m,3,0.25666667,9.54247743,0.83693393
6534322b1c3b356fea530715,27,0,2024-02-24T08:32:43.973Z,french_693.wav,0,pull,3830,34,5,5,Français,m,0,0.0,-47.08934597,0.01342517
6534322b1c3b356fea530715,27,0,2024-02-24T08:32:43.973Z,french_693.wav,0,pull,3830,34,5,5,Français,m,1,0.1,72.6108529,0.89682207
6534322b1c3b356fea530715,27,0,2024-02-24T08:32:43.973Z,french_693.wav,0,pull,3830,34,5,5,Français,m,2,0.2,-29.7137536,1.48476447
6534322b1c3b356fea530715,27,0,2024-02-24T08:32:43.973Z,french_693.wav,0,pull,3830,34,5,5,Français,m,3,0.25666667,50.01737174,0.05087926
6534322b1c3b356fea530715,28,0,2024-02-24T08:32:43.973Z,french_297.wav,0,poule,1209,34,5,5,Français,m,0,0.0,66.56614261,0.35086225
6534322b1c3b356fea530715,28,0,2024-02-24T08:32:43.973Z,french_297.wav,0,poule,1209,34,5,5,Français,m,1,0.1,-3.32812159,1.7876007
6534322b1c3b356fea530715,28,0,2024-02-24T08:32:43.973Z,french_297.wav,0,poule,1209,34,5,5,Français,m,2,0.2,85.62103424,0.63077709
6534322b1c3b356fea530715,28,0,2024-02-24T08:32:43.973Z,french_297.wav,0,poule,1209,34,5,5,Français,m,3,0.25666667,92.99895728,0.65985351
6534322b1c3b356fea530715,29,0,2024-02-24T08:32:43.973Z,french_964.wav,0,poule,1494,34,5,5,Français,m,0,0.0,-56.07629317,1.19943116
6534322b1c3b356fea530715,29,0,2024-02-24T08:32:43.973Z,french_964.wav,0,poule,1494,34,5,5,Français,m,1,0.1,-19.45500988,0.89458005
6534322b1c3b356fea530715,29,0,2024-02-24T08:32:43.973Z,french_964.wav,0,poule,1494,34,5,5,Français,m,2,0.2,97.83653085,1.94180509
6534322b1c3b356fea530715,29,0,2024-02-24T08:32:43.973Z,french_964.wav,0,poule,1494,34,5,5,Français,m,3,0.25666667,70.5600413,0.3273771
6534322b1c3b356fea530715,30,0,2024-02-24T08:32:43.973Z,french_606.wav,0,poule,456,34,5,5,Français,m,0,0.0,-20.93687271,1.9895698
6534322b1c3b356fea530715,30,0,2024-02-24T08:32:43.973Z,french_606.wav,0,poule,456,34,5,5,Français,m,1,0.1,59.55385743,1.17728958
6534322b1c3b356fea530715,30,0,2024-02-24T08:32:43.973Z,french_606.wav,0,poule,456,34,5,5,Français,m,2,0.2,61.58713619,1.48827242
6534322b1c3b356fea530715,30,0,2024-02-24T08:32:43.973Z,french_606.wav,0,poule,456,34,5,5,Français,m,3,0.25666667,-92.8987734,0.79910733
6534322b1c3b356fea530715,31,0,2024-02-24T08:32:43.973Z,french_386.wav,0,poule,435,34,5,5,Français,m,0,0.0,50.68041389,0.75883449
6534322b1c3b356fea530715,31,0,2024-02-24T08:32:43.973Z,french_386.wav,0,poule,435,34,5,5,Français,m,1,0.1,19.37586599,1.33167931
6534322b1c3b356fea530715,31,0,2024-02-24T08:32:43.973Z,french_386.wav,0,poule,435,34,5,5,Français,m,2,0.2,0.19752764,0.89836148
6534322b1c3b356fea530715,31,0,2024-02-24T08:32:43.973Z,french_386.wav,0,poule,435,34,5,5,Français,m,3,0.25666667,-78.73875249,0.64515466
6534322b1c3b356fea530715,32,0,2024-02-24T08:32:43.973Z,french_352.wav,0,poule,779,34,5,5,Français,m,0,0.0,74.68489003,0.29948735
6534322b1c3b356fea530715,32,0,2024-02-24T08:32:43.973Z,french_352.wav,0,poule,779,34,5,5,Français,m,1,0.1,96.39949195,0.51724136
6534322b1c3b356fea530715,32,0,2024-02-24T08:32:43.973Z,french_352.wav,0,poule,779,34,5,5,Français,m,2,0.2,90.64764472,1.48158799
6534322b1c3b356fea530715,32,0,2024-02-24T08:32:43.973Z,french_352.wav,0,poule,779,34,5,5,Français,m,3,0.25666667,65.55341103,0.97952247
6534322b1c3b356fea530715,33,0,2024-02-24T08:32:43.973Z,french_351.wav,0,poule,1196,34,5,5,Français,m,0,0.0,-22.87012194,0.67033139
6534322b1c3b356fea530715,33,0,2024-02-24T08:32:43.973Z,french_351.wav,0,poule,1196,34,5,5,Français,m,1,0.1,10.68995272,0.80045466
6534322b1c3b356fea530715,33,0,2024-02-24T08:32:43.973Z,french_351.wav,0,poule,1196,34,5,5,Français,m,2,0.2,60.8101445,0.88778875
6534322b1c3b356fea530715,33,0,2024-02-24T08:32:43.973Z,french_351.wav,0,poule,1196,34,5,5,Français,m,3,0.25666667,32.12752515,0.26390259
6534322b1c3b356fea530715,34,0,2024-02-24T08:32:43.973Z,french_204.wav,0,poule,2629,34,5,5,Français,m,0,0.0,-28.36319627,0.07789368
6534322b1c3b356fea530715,34,0,2024-02-24T08:32:43.973Z,french_204.wav,0,poule,2629,34,5,5,Français,m,1,0.1,-92.66891013,0.00203791
6534322b1c3b356fea530715,34,0,2024-02-24T08:32:43.973Z,french_204.wav,0,poule,2629,34,5,5,Français,m,2,0.2,96.29592204,1.92374636
6534322b1c3b356fea530715,34,0,2024-02-24T08:32:43.973Z,french_204.wav,0,poule,2629,34,5,5,Français,m,3,0.25666667,-46.81515004,0.97947469
6534322b1c3b356fea530715,35,0,2024-02-24T08:32:43.973Z,french_473.wav,0,poule,2514,34,5,5,Français,m,0,0.0,-59.88543895,0.32878746
6534322b1c3b356fea530715,35,0,2024-02-24T08:32:43.973Z,french_473.wav,0,poule,2514,34,5,5,Français,m,1,0.1,36.52277503,0.29204452
6534322b1c3b356fea530715,35,0,2024-02-24T08:32:43.973Z,french_473.wav,0,poule,2514,34,5,5,Français,m,2,0.2,-76.47045714,0.65259503
6534322b1c3b356fea530715,35,0,2024-02-24T08:32:43.973Z,french_473.wav,0,poule,2514,34,5,5,Français,m,3,0.25666667,-69.05057232,0.35645849
6534322b1c3b356fea530715,36,0,2024-02-24T08:32:43.973Z,french_786.wav,0,poule,599,34,5,5,Français,m,0,0.0,46.81596915,0.36321177
6534322b1c3b356fea530715,36,0,2024-02-24T08:32:43.973Z,french_786.wav,0,poule,599,34,5,5,Français,m,1,0.1,35.10066142,1.24415108
6534322b1c3b356fea530715,36,0,2024-02-24T08:32:43.973Z,french_786.wav,0,poule,599,34,5,5,Français,m,2,0.2,15.54537814,1.19760647
6534322b1c3b356fea530715,36,0,2024-02-24T08:32:43.973Z,french_786.wav,0,poule,599,34,5,5,Français,m,3,0.25666667,97.25347056,0.79076548
6534322b1c3b356fea530715,37,0,2024-02-24T08:32:43.973Z,french_685.wav,0,poule,542,34,5,5,Français,m,0,0.0,-62.74714371,1.57330944
6534322b1c3b356fea530715,37,0,2024-02-24T08:32:43.973Z,french_685.wav,0,poule,542,34,5,5,Français,m,1,0.1,48.52467862,1.34151114
6534322b1c3b356fea530715,37,0,2024-02-24T08:32:43.973Z,french_685.wav,0,poule,542,34,5,5,Français,m,2,0.2,4.749694,0.18097188
6534322b1c3b356fea530715,37,0,2024-02-24T08:32:43.973Z,french_685.wav,0,poule,542,34,5,5,Français,m,3,0.25666667,88.03032973,0.30113467
6534322b1c3b356fea530715,38,0,2024-02-24T08:32:43.973Z,french_185.wav,0,poule,569,34,5,5,Français,m,0,0.0,61.04894301,1.56575395
6534322b1c3b356fea530715,38,0,2024-02-24T08:32:43.973Z,french_185.wav,0,poule,569,34,5,5,Français,m,1,0.1,4.55457692,1.97883698
6534322b1c3b356fea530715,38,0,2024-02-24T08:32:43.973Z,french_185.wav,0,poule,569,34,5,5,Français,m,2,0.2,51.77529612,1.92093932
6534322b1c3b356fea530715,38,0,2024-02-24T08:32:43.973Z,french_185.wav,0,poule,569,34,5,5,Français,m,3,0.25666667,-22.06501589,0.68389876
6534322b1c3b356fea530715,39,0,2024-02-24T08:32:43.973Z,french_399.wav,0,poule,459,34,5,5,Français,m,0,0.0,60.88638106,0.92905576
6534322b1c3b356fea530715,39,0,2024-02-24T08:32:43.973Z,french_399.wav,0,poule,459,34,5,5,Français,m,1,0.1,69.51712014,1.13956386
6534322b1c3b356fea530715,39,0,2024-02-24T08:32:43.973Z,french_399.wav,0,poule,459,34,5,5,Français,m,2,0.2,11.9354414,0.89341089
6534322b1c3b356fea530715,39,0,2024-02-24T08:32:43.973Z,french_399.wav,0,poule,459,34,5,5,Français,m,3,0.25666667,71.82951649,1.81253855
6534322b1c3b356fea530715,40,0,2024-02-24T08:32:43.973Z,french_843.wav,0,poule,653,34,5,5,Français,m,0,0.0,13.6803361,0.65425976
6534322b1c3b356fea530715,40,0,2024-02-24T08:32:43.973Z,french_843.wav,0,poule,653,34,5,5,Français,m,1,0.1,92.02668438,1.47814853
6534322b1c3b356fea530715,40,0,2024-02-24T08:32:43.973Z,french_843.wav,0,poule,653,34,5,5,Français,m,2,0.2,-93.52604538,0.78236369
6534322b1c3b356fea530715,40,0,2024-02-24T08:32:43.973Z,french_843.wav,0,poule,653,34,5,5,Français,m,3,0.25666667,-12.7136852,0.52413001
6534322b1c3b356fea530715,41,0,2024-02-24T08:32:43.973Z,french_268.wav,0,poule,527,34,5,5,Français,m,0,0.0,-31.22986491,0.61965618
6534322b1c3b356fea530715,41,0,2024-02-24T08:32:43.973Z,french_268.wav,0,poule,527,34,5,5,Français,m,1,0.1,85.41130684,0.43772331
6534322b1c3b356fea530715,41,0,2024-02-24T08:32:43.973Z,french_268.wav,0,poule,527,34,5,5,Français,m,2,0.2,51.81326747,0.97717852
6534322b1c3b356fea530715,41,0,2024-02-24T08:32:43.973Z,french_268.wav,0,poule,527,34,5,5,Français,m,3,0.25666667,-9.66270327,0.83042374
6534322b1c3b356fea530715,42,0,2024-02-24T08:32:43.973Z,french_493.wav,0,poule,875,34,5,5,Français,m,0,0.0,-68.32294441,0.52835731
6534322b1c3b356fea530715,42,0,2024-02-24T08:32:43.973Z,french_493.wav,0,poule,875,34,5,5,Français,m,1,0.1,-10.78892258,0.49612748
6534322b1c3b356fea530715,42,0,2024-02-24T08:32:43.973Z,french_493.wav,0,poule,875,34,5,5,Français,m,2,0.2,91.72278204,1.46473376
6534322b1c3b356fea530715,42,0,2024-02-24T08:32:43.973Z,french_493.wav,0,poule,875,34,5,5,Français,m,3,0.25666667,-45.09260027,1.2872874
6534322b1c3b356fea530715,43,0,2024-02-24T08:32:43.973Z,french_398.wav,0,poule,672,34,5,5,Français,m,0,0.0,6.24181165,1.03823517
6534322b1c3b356fea530715,43,0,2024-02-24T08:32:43.973Z,french_398.wav,0,poule,672,34,5,5,Français,m,1,0.1,-92.25652661,1.54229831
6534322b1c3b356fea530715,43,0,2024-02-24T08:32:43.973Z,french_398.wav,0,poule,672,34,5,5,Français,m,2,0.2,-10.16879246,1.61201148
6534322b1c3b356fea530715,43,0,2024-02-24T08:32:43.973Z,french_398.wav,0,poule,672,34,5,5,Français,m,3,0.25666667,42.06293659,1.50798312
6534322b1c3b356fea530715,44,0,2024-02-24T08:32:43.973Z,french_415.wav,0,poule,784,34,5,5,Français,m,0,0.0,-78.44301617,1.61962555
6534322b1c3b356fea530715,44,0,2024-02-24T08:32:43.973Z,french_415.wav,0,poule,784,34,5,5,Français,m,1,0.1,84.17180311,0.78674907
6534322b1c3b356fea530715,44,0,2024-02-24T08:32:43.973Z,french_415.wav,0,poule,784,34,5,5,Français,m,2,0.2,32.05176365,0.83302444
6534322b1c3b356fea530715,44,0,2024-02-24T08:32:43.973Z,french_415.wav,0,poule,784,34,5,5,Français,m,3,0.25666667,1.79049447,0.85177262
6534322b1c3b356fea530715,45,0,2024-02-24T08:32:43.973Z,french_784.wav,0,poule,445,34,5,5,Français,m,0,0.0,-39.52347826,1.29179639
6534322b1c3b356fea530715,45,0,2024-02-24T08:32:43.973Z,french_784.wav,0,poule,445,34,5,5,Français,m,1,0.1,-77.42465605,1.30882922
6534322b1c3b356fea530715,45,0,2024-02-24T08:32:43.973Z,french_784.wav,0,poule,445,34,5,5,Français,m,2,0.2,4.05747108,1.87909974
6534322b1c3b356fea530715,45,0,2024-02-24T08:32:43.973Z,french_784.wav,0,poule,445,34,5,5,Français,m,3,0.25666667,56.71695408,1.07202912
6534322b1c3b356fea530715,46,0,2024-02-24T08:32:43.973Z,french_485.wav,0,poule,371,34,5,5,Français,m,0,0.0,49.72116837,1.80184077
6534322b1c3b356fea530715,46,0,2024-02-24T08:32:43.973Z,french_485.wav,0,poule,371,34,5,5,Français,m,1,0.1,30.83147643,1.80095915
6534322b1c3b356fea530715,46,0,2024-02-24T08:32:43.973Z,french_485.wav,0,poule,371,34,5,5,Français,m,2,0.2,37.98454641,1.42682554
6534322b1c3b356fea530715,46,0,2024-02-24T08:32:43.973Z,french_485.wav,0,poule,371,34,5,5,Français,m,3,0.25666667,-93.0468476,0.86529676
6534322b1c3b356fea530715,47,0,2024-02-24T08:32:43.973Z,french_389.wav,0,poule,980,34,5,5,Français,m,0,0.0,69.62296415,1.67675408
6534322b1c3b356fea530715,47,0,2024-02-24T08:32:43.973Z,french_389.wav,0,poule,980,34,5,5,Français,m,1,0.1,-41.49433877,1.60540147
6534322b1c3b356fea530715,47,0,2024-02-24T08:32:43.973Z,french_389.wav,0,poule,980,34,5,5,Français,m,2,0.2,-65.025051,0.45817867
6534322b1c3b356fea530715,47,0,2024-02-24T08:32:43.973Z,french_389.wav,0,poule,980,34,5,5,Français,m,3,0.25666667,10.9117334,1.10562968
6534322b1c3b356fea530715,48,0,2024-02-24T08:32:43.973Z,french_432.wav,0,poule,534,34,5,5,Français,m,0,0.0,41.78718943,1.64767318
6534322b1c3b356fea530715,48,0,2024-02-24T08:32:43.973Z,french_432.wav,0,poule,534,34,5,5,Français,m,1,0.1,-73.8341876,1.66923601
6534322b1c3b356fea530715,48,0,2024-02-24T08:32:43.973Z,french_432.wav,0,poule,534,34,5,5,Français,m,2,0.2,2.46605077,1.63004177
6534322b1c3b356fea530715,48,0,2024-02-24T08:32:43.973Z,french_432.wav,0,poule,534,34,5,5,Français,m,3,0.25666667,-5.34058627,1.91522166
6534322b1c3b356fea530715,49,0,2024-02-24T08:32:43.973Z,french_842.wav,0,poule,747,34,5,5,Français,m,0,0.0,74.80920959,0.40194032
6534322b1c3b356fea530715,49,0,2024-02-24T08:32:43.973Z,french_842.wav,0,poule,747,34,5,5,Français,m,1,0.1,-40.95587484,0.66729024
6534322b1c3b356fea530715,49,0,2024-02-24T08:32:43.973Z,french_842.wav,0,poule,747,34,5,5,Français,m,2,0.2,40.36105872,0.3355789
6534322b1c3b356fea530715,49,0,2024-02-24T08:32:43.973Z,french_842.wav,0,poule,747,34,5,5,Français,m,3,0.25666667,-80.22764814,0.97335266
6534322b1c3b356fea530715,50,1,2024-02-24T08:32:43.973Z,french_118.wav,0,poule,431,34,5,5,Français,m,0,0.0,26.93316006,1.47067426
6534322b1c3b356fea530715,50,1,2024-02-24T08:32:43.973Z,french_118.wav,0,poule,431,34,5,5,Français,m,1,0.1,-22.92967869,1.58231537
6534322b1c3b356fea530715,50,1,2024-02-24T08:32:43.973Z,french_118.wav,0,poule,431,34,5,5,Français,m,2,0.2,-61.93287208,1.01494319
6534322b1c3b356fea530715,50,1,2024-02-24T08:32:43.973Z,french_118.wav,0,poule,431,34,5,5,Français,m,3,0.25666667,-97.08418949,0.71977579
6534322b1c3b356fea530715,51,1,2024-02-24T08:32:43.973Z,french_82.wav,0,poule,777,34,5,5,Français,m,0,0.0,82.26293442,0.95636636
6534322b1c3b356fea530715,51,1,2024-02-24T08:32:43.973Z,french_82.wav,0,poule,777,34,5,5,Français,m,1,0.1,-13.98955844,0.8765529
6534322b1c3b356fea530715,51,1,2024-02-24T08:32:43.973Z,french_82.wav,0,poule,777,34,5,5,Français,m,2,0.2,44.8739745,0.75785774
6534322b1c3b356fea530715,51,1,2024-02-24T08:32:43.973Z,french_82.wav,0,poule,777,34,5,5,Français,m,3,0.25666667,23.31967993,0.26363467
6534322b1c3b356fea530715,52,1,2024-02-24T08:32:43.973Z,french_355.wav,0,pull,1944,34,5,5,Français,m,0,0.0,-92.75119925,0.18544254
6534322b1c3b356fea530715,52,1,2024-02-24T08:32:43.973Z,french_355.wav,0,pull,1944,34,5,5,Français,m,1,0.1,77.20775246,0.07031399
6534322b1c3b356fea530715,52,1,2024-02-24T08:32:43.973Z,french_355.wav,0,pull,1944,34,5,5,Français,m,2,0.2,-51.05688592,0.46666342
6534322b1c3b356fea530715,52,1,2024-02-24T08:32:43.973Z,french_355.wav,0,pull,1944,34,5,5,Français,m,3,0.25666667,27.03743598,1.78468618
6534322b1c3b356fea530715,53,1,2024-02-24T08:32:43.973Z,french_143.wav,0,poule,1839,34,5,5,Français,m,0,0.0,-46.09253598,1.27633083
6534322b1c3b356fea530715,53,1,2024-02-24T08:32:43.973Z,french_143.wav,0,poule,1839,34,5,5,Français,m,1,0.1,41.21858491,0.28919458
6534322b1c3b356fea530715,53,1,2024-02-24T08:32:43.973Z,french_143.wav,0,poule,1839,34,5,5,Français,m,2,0.2,10.38405582,0.61917155
6534322b1c3b356fea530715,53,1,2024-02-24T08:32:43.973Z,french_143.wav,0,poule,1839,34,5,5,Français,m,3,0.25666667,-99.98168054,0.37925836
6534322b1c3b356fea530715,54,1,2024-02-24T08:32:43.973Z,french_788.wav,0,pull,2284,34,5,5,Français,m,0,0.0,-49.59093674,1.03975343
6534322b1c3b356fea530715,54,1,2024-02-24T08:32:43.973Z,french_788.wav,0,pull,2284,34,5,5,Français,m,1,0.1,-37.12859592,0.12530513
6534322b1c3b356fea530715,54,1,2024-02-24T08:32:43.973Z,french_788.wav,0,pull,2284,34,5,5,Français,m,2,0.2,78.06548219,0.40268526
6534322b1c3b356fea530715,54,1,2024-02-24T08:32:43.973Z,french_788.wav,0,pull,2284,34,5,5,Français,m,3,0.25666667,52.38730842,1.72021211
6534322b1c3b356fea530715,55,1,2024-02-24T08:32:43.973Z,french_200.wav,0,poule,822,34,5,5,Français,m,0,0.0,-10.65818699,0.95052916
6534322b1c3b356fea530715,55,1,2024-02-24T08:32:43.973Z,french_200.wav,0,poule,822,34,5,5,Français,m,1,0.1,-8.96413357,0.11424824
6534322b1c3b356fea530715,55,1,2024-02-24T08:32:43.973Z,french_200.wav,0,poule,822,34,5,5,Français,m,2,0.2,-78.89627616,1.718039
6534322b1c3b356fea530715,55,1,2024-02-24T08:32:43.973Z,french_200.wav,0,poule,822,34,5,5,Français,m,3,0.25666667,8.01745362,1.42690066
6534322b1c3b356fea530715,56,1,2024-02-24T08:32:43.973Z,french_300.wav,0,poule,492,34,5,5,Français,m,0,0.0,-13.28568226,1.4723541
6534322b1c3b356fea530715,56,1,2024-02-24T08:32:43.973Z,french_300.wav,0,poule,492,34,5,5,Français,m,1,0.1,80.95964609,1.07308012
6534322b1c3b356fea530715,56,1,2024-02-24T08:32:43.973Z,french_300.wav,0,poule,492,34,5,5,Français,m,2,0.2,97.81212175,1.14674573
6534322b1c3b356fea530715,56,1,2024-02-24T08:32:43.973Z,french_300.wav,0,poule,492,34,5,5,Français,m,3,0.25666667,60.85112551,1.78656344
6534322b1c3b356fea530715,57,1,2024-02-24T08:32:43.973Z,french_646.wav,0,poule,1536,34,5,5,Français,m,0,0.0,98.47808426,1.66300853
6534322b1c3b356fea530715,57,1,2024-02-24T08:32:43.973Z,french_646.wav,0,poule,1536,34,5,5,Français,m,1,0.1,98.7741611,0.58876545
6534322b1c3b356fea530715,57,1,2024-02-24T08:32:43.973Z,french_646.wav,0,poule,1536,34,5,5,Français,m,2,0.2,-51.76092723,0.47940067
6534322b1c3b356fea530715,57,1,2024-02-24T08:32:43.973Z,french_646.wav,0,poule,1536,34,5,5,Français,m,3,0.25666667,53.55118827,0.48942216
6534322b1c3b356fea530715,58,1,2024-02-24T08:32:43.973Z,french_816.wav,0,poule,468,34,5,5,Français,m,0,0.0,-39.39804621,1.26291691
6534322b1c3b356fea530715,58,1,2024-02-24T08:32:43.973Z,french_816.wav,0,poule,468,34,5,5,Français,m,1,0.1,14.23792488,1.60181117
6534322b1c3b356fea530715,58,1,2024-02-24T08:32:43.973Z,french_816.wav,0,poule,468,34,5,5,Français,m,2,0.2,-84.08825282,0.57012939
6534322b1c3b356fea530715,58,1,2024-02-24T08:32:43.973Z,french_816.wav,0,poule,468,34,5,5,Français,m,3,0.25666667,-46.46940665,1.06315664
6534322b1c3b356fea530715,59,1,2024-02-24T08:32:43.973Z,french_759.wav,0,poule,397,34,5,5,Français,m,0,0.0,43.66892012,0.9017147
6534322b1c3b356fea530715,59,1,2024-02-24T08:32:43.973Z,french_759.wav,0,poule,397,34,5,5,Français,m,1,0.1,28.75822808,1.01118462
6534322b1c3b356fea530715,59,1,2024-02-24T08:32:43.973Z,french_759.wav,0,poule,397,34,5,5,Français,m,2,0.2,-53.65094598,1.43326948
6534322b1c3b356fea530715,59,1,2024-02-24T08:32:43.973Z,french_759.wav,0,poule,397,34,5,5,Français,m,3,0.25666667,-79.66264825,0.32927354
6534322b1c3b356fea530715,60,1,2024-02-24T08:32:43.973Z,french_72.wav,0,poule,544,34,5,5,Français,m,0,0.0,87.98067932,1.39679477
6534322b1c3b356fea530715,60,1,2024-02-24T08:32:43.973Z,french_72.wav,0,poule,544,34,5,5,Français,m,1,0.1,-81.71579554,1.50716855
6534322b1c3b356fea530715,60,1,2024-02-24T08:32:43.973Z,french_72.wav,0,poule,544,34,5,5,Français,m,2,0.2,90.50171836,0.40298903
6534322b1c3b356fea530715,60,1,2024-02-24T08:32:43.973Z,french_72.wav,0,poule,544,34,5,5,Français,m,3,0.25666667,-62.13003885,0.67217346
6534322b1c3b356fea530715,61,1,2024-02-24T08:32:43.973Z,french_657.wav,0,poule,826,34,5,5,Français,m,0,0.0,99.76716584,0.85695778
6534322b1c3b356fea530715,61,1,2024-02-24T08:32:43.973Z,french_657.wav,0,poule,826,34,5,5,Français,m,1,0.1,11.51898435,1.00645436
6534322b1c3b356fea530715,61,1,2024-02-24T08:32:43.973Z,french_657.wav,0,poule,826,34,5,5,Français,m,2,0.2,-43.45408234,0.73989588
6534322b1c3b356fea530715,61,1,2024-02-24T08:32:43.973Z,french_657.wav,0,poule,826,34,5,5,Français,m,3,0.25666667,22.46427071,1.57217431
6534322b1c3b356fea530715,62,1,2024-02-24T08:32:43.973Z,french_330.wav,0,poule,1027,34,5,5,Français,m,0,0.0,-46.98301203,1.92315583
6534322b1c3b356fea530715,62,1,2024-02-24T08:32:43.973Z,french_330.wav,0,poule,1027,34,5,5,Français,m,1,0.1,55.18277966,0.64158591
6534322b1c3b356fea530715,62,1,2024-02-24T08:32:43.973Z,french_330.wav,0,poule,1027,34,5,5,Français,m,2,0.2,68.01781419,0.71457858
6534322b1c3b356fea530715,62,1,2024-02-24T08:32:43.973Z,french_330.wav,0,poule,1027,34,5,5,Français,m,3,0.25666667,-65.13341665,0.26661962
6534322b1c3b356fea530715,63,1,2024-02-24T08:32:43.973Z,french_316.wav,0,pull,2241,34,5,5,Français,m,0,0.0,71.43385859,0.02011656
6534322b1c3b356fea530715,63,1,2024-02-24T08:32:43.973Z,french_316.wav,0,pull,2241,34,5,5,Français,m,1,0.1,-31.05932013,1.43477753
6534322b1c3b356fea530715,63,1,2024-02-24T08:32:43.973Z,french_316.wav,0,pull,2241,34,5,5,Français,m,2,0.2,7.51523711,0.06852206
6534322b1c3b356fea530715,63,1,2024-02-24T08:32:43.973Z,french_316.wav,0,pull,2241,34,5,5,Français,m,3,0.25666667,-46.68412198,1.51807936
6534322b1c3b356fea530715,64,1,2024-02-24T08:32:43.973Z,french_271.wav,0,poule,499,34,5,5,Français,m,0,0.0,-86.49285917,1.06522616
6534322b1c3b356fea530715,64,1,2024-02-24T08:32:43.973Z,french_271.wav,0,poule,499,34,5,5,Français,m,1,0.1,54.15727338,1.2372135
6534322b1c3b356fea530715,64,1,2024-02-24T08:32:43.973Z,french_271.wav,0,poule,499,34,5,5,Français,m,2,0.2,-55.0986676,1.00925168
6534322b1c3b356fea530715,64,1,2024-02-24T08:32:43.973Z,french_271.wav,0,poule,499,34,5,5,Français,m,3,0.25666667,7.9559813,0.76785851
6534322b1c3b356fea530715,65,1,2024-02-24T08:32:43.973Z,french_550.wav,0,poule,671,34,5,5,Français,m,0,0.0,-75.40042164,1.22660115
6534322b1c3b356fea530715,65,1,2024-02-24T08:32:43.973Z,french_550.wav,0,poule,671,34,5,5,Français,m,1,0.1,3.66999977,1.1302768
6534322b1c3b356fea530715,65,1,2024-02-24T08:32:43.973Z,french_550.wav,0,poule,671,34,5,5,Français,m,2,0.2,-80.45508953,0.71194131
6534322b1c3b356fea530715,65,1,2024-02-24T08:32:43.973Z,french_550.wav,0,poule,671,34,5,5,Français,m,3,0.25666667,-81.93938104,1.14992067
6534322b1c3b356fea530715,66,1,2024-02-24T08:32:43.973Z,french_241.wav,0,poule,1427,34,5,5,Français,m,0,0.0,89.40240056,1.53101086
6534322b1c3b356fea530715,66,1,2024-02-24T08:32:43.973Z,french_241.wav,0,poule,1427,34,5,5,Français,m,1,0.1,40.19017079,0.22293869
6534322b1c3b356fea530715,66,1,2024-02-24T08:32:43.973Z,french_241.wav,0,poule,1427,34,5,5,Français,m,2,0.2,6.95264839,0.66477428
6534322b1c3b356fea530715,66,1,2024-02-24T08:32:43.973Z,french_241.wav,0,poule,1427,34,5,5,Français,m,3,0.25666667,60.0147698,1.1640228
6534322b1c3b356fea530715,67,1,2024-02-24T08:32:43.973Z,french_946.wav,0,poule,439,34,5,5,Français,m,0,0.0,-59.20376503,1.07432488
6534322b1c3b356fea530715,67,1,2024-02-24T08:32:43.973Z,french_946.wav,0,poule,439,34,5,5,Français,m,1,0.1,41.31347152,0.26624757
6534322b1c3b356fea530715,67,1,2024-02-24T08:32:43.973Z,french_946.wav,0,poule,439,34,5,5,Français,m,2,0.2,-58.18080138,0.53636085
6534322b1c3b356fea530715,67,1,2024-02-24T08:32:43.973Z,french_946.wav,0,poule,439,34,5,5,Français,m,3,0.25666667,-28.00273528,1.77786979
6534322b1c3b356fea530715,68,1,2024-02-24T08:32:43.973Z,french_132.wav,0,poule,425,34,5,5,Français,m,0,0.0,55.7159221,0.1336911
6534322b1c3b356fea530715,68,1,2024-02-24T08:32:43.973Z,french_132.wav,0,poule,425,34,5,5,Français,m,1,0.1,96.01047895,1.63690434
6534322b1c3b356fea530715,68,1,2024-02-24T08:32:43.973Z,french_132.wav,0,poule,425,34,5,5,Français,m,2,0.2,-30.71931346,0.7825174
6534322b1c3b356fea530715,68,1,2024-02-24T08:32:43.973Z,french_132.wav,0,poule,425,34,5,5,Français,m,3,0.25666667,34.53763016,1.49477333
6534322b1c3b356fea530715,69,1,2024-02-24T08:32:43.973Z,french_515.wav,0,poule,575,34,5,5,Français,m,0,0.0,90.1787868,1.05169603
6534322b1c3b356fea530715,69,1,2024-02-24T08:32:43.973Z,french_515.wav,0,poule,575,34,5,5,Français,m,1,0.1,95.19464712,0.16234368
6534322b1c3b356fea530715,69,1,2024-02-24T08:32:43.973Z,french_515.wav,0,poule,575,34,5,5,Français,m,2,0.2,-71.09612906,1.85560054
6534322b1c3b356fea530715,69,1,2024-02-24T08:32:43.973Z,french_515.wav,0,poule,575,34,5,5,Français,m,3,0.25666667,86.48037909,0.23492468
6534322b1c3b356fea530715,70,1,2024-02-24T08:32:43.973Z,french_479.wav,0,poule,761,34,5,5,Français,m,0,0.0,-77.56228832,0.23971003
6534322b1c3b356fea530715,70,1,2024-02-24T08:32:43.973Z,french_479.wav,0,poule,761,34,5,5,Français,m,1,0.1,-51.14246902,1.41057828
6534322b1c3b356fea530715,70,1,2024-02-24T08:32:43.973Z,french_479.wav,0,poule,761,34,5,5,Français,m,2,0.2,54.51803315,0.5803481
6534322b1c3b356fea530715,70,1,2024-02-24T08:32:43.973Z,french_479.wav,0,poule,761,34,5,5,Français,m,3,0.25666667,-8.31356421,0.39274068
6534322b1c3b356fea530715,71,1,2024-02-24T08:32:43.973Z,french_409.wav,0,poule,465,34,5,5,Français,m,0,0.0,-85.45925867,0.92391671
6534322b1c3b356fea530715,71,1,2024-02-24T08:32:43.973Z,french_409.wav,0,poule,465,34,5,5,Français,m,1,0.1,-75.83462931,0.55779761
6534322b1c3b356fea530715,71,1,2024-02-24T08:32:43.973Z,french_409.wav,0,poule,465,34,5,5,Français,m,2,0.2,-81.34632848,1.04156293
6534322b1c3b356fea530715,71,1,2024-02-24T08:32:43.973Z,french_409.wav,0,poule,465,34,5,5,Français,m,3,0.25666667,-4.23490283,0.8536223
6534322b1c3b356fea530715,72,1,2024-02-24T08:32:43.973Z,french_876.wav,0,poule,534,34,5,5,Français,m,0,0.0,-63.60663495,1.31328738
6534322b1c3b356fea530715,72,1,2024-02-24T08:32:43.973Z,french_876.wav,0,poule,534,34,5,5,Français,m,1,0.1,-33.069551,1.53761103
6534322b1c3b356fea530715,72,1,2024-02-24T08:32:43.973Z,french_876.wav,0,poule,534,34,5,5,Français,m,2,0.2,44.38072254,1.15738415
6534322b1c3b356fea530715,72,1,2024-02-24T08:32:43.973Z,french_876.wav,0,poule,534,34,5,5,Français,m,3,0.25666667,3.25210733,1.33428182
6534322b1c3b356fea530715,73,1,2024-02-24T08:32:43.973Z,french_655.wav,0,poule,398,34,5,5,Français,m,0,0.0,4.60078694,1.00375004
6534322b1c3b356fea530715,73,1,2024-02-24T08:32:43.973Z,french_655.wav,0,poule,398,34,5,5,Français,m,1,0.1,90.51966262,1.23726083
6534322b1c3b356fea530715,73,1,2024-02-24T08:32:43.973Z,french_655.wav,0,poule,398,34,5,5,Français,m,2,0.2,-72.80105835,1.08672065
6534322b1c3b356fea530715,73,1,2024-02-24T08:32:43.973Z,french_655.wav,0,poule,398,34,5,5,Français,m,3,0.25666667,32.46228297,0.32613357
6534322b1c3b356fea530715,74,1,2024-02-24T08:32:43.973Z,french_989.wav,0,poule,314,34,5,5,Français,m,0,0.0,9.12508282,1.4573698
6534322b1c3b356fea530715,74,1,2024-02-24T08:32:43.973Z,french_989.wav,0,poule,314,34,5,5,Français,m,1,0.1,-26.45358769,0.87656303
6534322b1c3b356fea530715,74,1,2024-02-24T08:32:43.973Z,french_989.wav,0,poule,314,34,5,5,Français,m,2,0.2,-51.08796106,0.58961018
6534322b1c3b356fea530715,74,1,2024-02-24T08:32:43.973Z,french_989.wav,0,poule,314,34,5,5,Français,m,3,0.25666667,-22.70445117,1.46090447
6534322b1c3b356fea530715,75,1,2024-02-24T08:32:43.973Z,french_113.wav,0,poule,432,34,5,5,Français,m,0,0.0,0.51528889,0.39555504
6534322b1c3b356fea530715,75,1,2024-02-24T08:32:43.973Z,french_113.wav,0,poule,432,34,5,5,Français,m,1,0.1,31.38938416,1.50115078
6534322b1c3b356fea530715,75,1,2024-02-24T08:32:43.973Z,french_113.wav,0,poule,432,34,5,5,Français,m,2,0.2,-56.71204584,1.00732686
6534322b1c3b356fea530715,75,1,2024-02-24T08:32:43.973Z,french_113.wav,0,poule,432,34,5,5,Français,m,3,0.25666667,95.05763822,0.59062761
6534322b1c3b356fea530715,76,1,2024-02-24T08:32:43.973Z,french_642.wav,0,poule,364,34,5,5,Français,m,0,0.0,94.74505174,1.94145252
6534322b1c3b356fea530715,76,1,2024-02-24T08:32:43.973Z,french_642.wav,0,poule,364,34,5,5,Français,m,1,0.1,-41.90916732,1.43327494
6534322b1c3b356fea530715,76,1,2024-02-24T08:32:43.973Z,french_642.wav,0,poule,364,34,5,5,Français,m,2,0.2,-70.07976965,0.59817774
6534322b1c3b356fea530715,76,1,2024-02-24T08:32:43.973Z,french_642.wav,0,poule,364,34,5,5,Français,m,3,0.25666667,42.72168091,1.11755549
6534322b1c3b356fea530715,77,1,2024-02-24T08:32:43.973Z,french_608.wav,0,poule,717,34,5,5,Français,m,0,0.0,-21.93815625,0.80217517
6534322b1c3b356fea530715,77,1,2024-02-24T08:32:43.973Z,french_608.wav,0,poule,717,34,5,5,Français,m,1,0.1,68.35071967,1.13802751
6534322b1c3b356fea530715,77,1,2024-02-24T08:32:43.973Z,french_608.wav,0,poule,717,34,5,5,Français,m,2,0.2,-10.44332041,0.09203458
6534322b1c3b356fea530715,77,1,2024-02-24T08:32:43.973Z,french_608.wav,0,poule,717,34,5,5,Français,m,3,0.25666667,-49.43801065,0.18129022
6534322b1c3b356fea530715,78,1,2024-02-24T08:32:43.973Z,french_525.wav,0,poule,564,34,5,5,Français,m,0,0.0,-55.71805546,1.48564319
6534322b1c3b356fea530715,78,1,2024-02-24T08:32:43.973Z,french_525.wav,0,poule,564,34,5,5,Français,m,1,0.1,69.57832018,0.7646222
6534322b1c3b356fea530715,78,1,2024-02-24T08:32:43.973Z,french_525.wav,0,poule,564,34,5,5,Français,m,2,0.2,-61.51619627,1.98360061
6534322b1c3b356fea530715,78,1,2024-02-24T08:32:43.973Z,french_525.wav,0,poule,564,34,5,5,Français,m,3,0.25666667,-40.26288332,1.91122687
6534322b1c3b356fea530715,79,1,2024-02-24T08:32:43.973Z,french_910.wav,0,poule,591,34,5,5,Français,m,0,0.0,-48.65293901,0.34246772
6534322b1c3b356fea530715,79,1,2024-02-24T08:32:43.973Z,french_910.wav,0,poule,591,34,5,5,Français,m,1,0.1,-4.89021115,1.03510625
6534322b1c3b356fea530715,79,1,2024-02-24T08:32:43.973Z,french_910.wav,0,poule,591,34,5,5,Français,m,2,0.2,-57.2651588,1.59317518
6534322b1c3b356fea530715,79,1,2024-02-24T08:32:43.973Z,french_910.wav,0,poule,591,34,5,5,Français,m,3,0.25666667,-57.53771148,0.91667414
6534322b1c3b356fea530715,80,1,2024-02-24T08:32:43.973Z,french_381.wav,0,pull,1859,34,5,5,Français,m,0,0.0,-36.22739734,0.39069554
6534322b1c3b356fea530715,80,1,2024-02-24T08:32:43.973Z,french_381.wav,0,pull,1859,34,5,5,Français,m,1,0.1,63.18659678,0.02424263
6534322b1c3b356fea530715,80,1,2024-02-24T08:32:43.973Z,french_381.wav,0,pull,1859,34,5,5,Français,m,2,0.2,-88.25823098,0.59540025
6534322b1c3b356fea530715,80,1,2024-02-24T08:32:43.973Z,french_381.wav,0,pull,1859,34,5,5,Français,m,3,0.25666667,39.00702017,0.84340327
6534322b1c3b356fea530715,81,1,2024-02-24T08:32:43.973Z,french_102.wav,0,poule,551,34,5,5,Français,m,0,0.0,-35.05732124,0.80503012
6534322b1c3b356fea530715,81,1,2024-02-24T08:32:43.973Z,french_102.wav,0,poule,551,34,5,5,Français,m,1,0.1,-31.3998515,0.92419399
6534322b1c3b356fea530715,81,1,2024-02-24T08:32:43.973Z,french_102.wav,0,poule,551,34,5,5,Français,m,2,0.2,50.13452687,0.90539345
6534322b1c3b356fea530715,81,1,2024-02-24T08:32:43.973Z,french_102.wav,0,poule,551,34,5,5,Français,m,3,0.25666667,-7.4892707,1.70363197
6534322b1c3b356fea530715,82,1,2024-02-24T08:32:43.973Z,french_356.wav,0,poule,425,34,5,5,Français,m,0,0.0,-28.24477507,0.35227097
6534322b1c3b356fea530715,82,1,2024-02-24T08:32:43.973Z,french_356.wav,0,poule,425,34,5,5,Français,m,1,0.1,-36.63699676,1.16218152
6534322b1c3b356fea530715,82,1,2024-02-24T08:32:43.973Z,french_356.wav,0,poule,425,34,5,5,Français,m,2,0.2,67.9524461,1.82395355
6534322b1c3b356fea530715,82,1,2024-02-24T08:32:43.973Z,french_356.wav,0,poule,425,34,5,5,Français,m,3,0.25666667,8.53170414,1.63669257
6534322b1c3b356fea530715,83,1,2024-02-24T08:32:43.973Z,french_93.wav,0,pull,2189,34,5,5,Français,m,0,0.0,23.57211404,0.62732128
6534322b1c3b356fea530715,83,1,2024-02-24T08:32:43.973Z,french_93.wav,0,pull,2189,34,5,5,Français,m,1,0.1,-16.15934767,0.10811818
6534322b1c3b356fea530715,83,1,2024-02-24T08:32:43.973Z,french_93.wav,0,pull,2189,34,5,5,Français,m,2,0.2,25.54711871,0.30787392
6534322b1c3b356fea530715,83,1,2024-02-24T08:32:43.973Z,french_93.wav,0,pull,2189,34,5,5,Français,m,3,0.25666667,65.09284613,1.57978374
6534322b1c3b356fea530715,84,1,2024-02-24T08:32:43.973Z,french_318.wav,0,pull,652,34,5,5,Français,m,0,0.0,51.46520294,0.36120202
6534322b1c3b356fea530715,84,1,2024-02-24T08:32:43.973Z,french_318.wav,0,pull,652,34,5,5,Français,m,1,0.1,86.78866558,0.00996795
6534322b1c3b356fea530715,84,1,2024-02-24T08:32:43.973Z,french_318.wav,0,pull,652,34,5,5,Français,m,2,0.2,-10.27725715,1.05940341
6534322b1c3b356fea530715,84,1,2024-02-24T08:32:43.973Z,french_318.wav,0,pull,652,34,5,5,Français,m,3,0.25666667,9.68065634,1.37923943
6534322b1c3b356fea530715,85,1,2024-02-24T08:32:43.973Z,french_619.wav,0,poule,2963,34,5,5,Français,m,0,0.0,-58.15289928,0.63115023
6534322b1c3b356fea530715,85,1,2024-02-24T08:32:43.973Z,french_619.wav,0,poule,2963,34,5,5,Français,m,1,0.1,30.86987971,0.12868397
6534322b1c3b356fea530715,85,1,2024-02-24T08:32:43.973Z,french_619.wav,0,poule,2963,34,5,5,Français,m,2,0.2,96.84221096,0.73139592
6534322b1c3b356fea530715,85,1,2024-02-24T08:32:43.973Z,french_619.wav,0,poule,2963,34,5,5,Français,m,3,0.25666667,69.41225319,1.17738103
6534322b1c3b356fea530715,86,1,2024-02-24T08:32:43.973Z,french_944.wav,0,poule,569,34,5,5,Français,m,0,0.0,-8.30121602,1.41077405
6534322b1c3b356fea530715,86,1,2024-02-24T08:32:43.973Z,french_944.wav,0,poule,569,34,5,5,Français,m,1,0.1,15.19990023,0.52690475
6534322b1c3b356fea530715,86,1,2024-02-24T08:32:43.973Z,french_944.wav,0,poule,569,34,5,5,Français,m,2,0.2,-34.54061483,0.23733031
6534322b1c3b356fea530715,86,1,2024-02-24T08:32:43.973Z,french_944.wav,0,poule,569,34,5,5,Français,m,3,0.25666667,-24.04483863,1.49354387
6534322b1c3b356fea530715,87,1,2024-02-24T08:32:43.973Z,french_563.wav,0,poule,409,34,5,5,Français,m,0,0.0,1.48089244,0.83142925
6534322b1c3b356fea530715,87,1,2024-02-24T08:32:43.973Z,french_563.wav,0,poule,409,34,5,5,Français,m,1,0.1,19.03426996,1.65727988
6534322b1c3b356fea530715,87,1,2024-02-24T08:32:43.973Z,french_563.wav,0,poule,409,34,5,5,Français,m,2,0.2,-28.07832236,1.36487064
6534322b1c3b356fea530715,87,1,2024-02-24T08:32:43.973Z,french_563.wav,0,poule,409,34,5,5,Français,m,3,0.25666667,33.25369521,0.18463038
6534322b1c3b356fea530715,88,1,2024-02-24T08:32:43.973Z,french_196.wav,0,poule,748,34,5,5,Français,m,0,0.0,-51.30508497,1.16005851
6534322b1c3b356fea530715,88,1,2024-02-24T08:32:43.973Z,french_196.wav,0,poule,748,34,5,5,Français,m,1,0.1,89.17651026,0.87725998
6534322b1c3b356fea530715,88,1,2024-02-24T08:32:43.973Z,french_196.wav,0,poule,748,34,5,5,Français,m,2,0.2,77.92993737,1.23506332
6534322b1c3b356fea530715,88,1,2024-02-24T08:32:43.973Z,french_196.wav,0,poule,748,34,5,5,Français,m,3,0.25666667,-86.11962375,1.33141167
6534322b1c3b356fea530715,89,1,2024-02-24T08:32:43.973Z,french_306.wav,0,poule,373,34,5,5,Français,m,0,0.0,22.4772117,0.91979461
6534322b1c3b356fea530715,89,1,2024-02-24T08:32:43.973Z,french_306.wav,0,poule,373,34,5,5,Français,m,1,0.1,-23.30683659,1.83006101
6534322b1c3b356fea530715,89,1,2024-02-24T08:32:43.973Z,french_306.wav,0,poule,373,34,5,5,Français,m,2,0.2,-85.44667034,1.25602607
6534322b1c3b356fea530715,89,1,2024-02-24T08:32:43.973Z,french_306.wav,0,poule,373,34,5,5,Français,m,3,0.25666667,-79.47374411,0.84497865
6534322b1c3b356fea530715,90,1,2024-02-24T08:32:43.973Z,french_234.wav,0,poule,241,34,5,5,Français,m,0,0.0,40.80444991,0.6735757
6534322b1c3b356fea530715,90,1,2024-02-24T08:32:43.973Z,french_234.wav,0,poule,241,34,5,5,Français,m,1,0.1,-12.8326651,0.4328315
6534322b1c3b356fea530715,90,1,2024-02-24T08:32:43.973Z,french_234.wav,0,poule,241,34,5,5,Français,m,2,0.2,35.77292413,1.793606
6534322b1c3b356fea530715,90,1,2024-02-24T08:32:43.973Z,french_234.wav,0,poule,241,34,5,5,Français,m,3,0.25666667,70.48005605,0.88572041
6534322b1c3b356fea530715,91,1,2024-02-24T08:32:43.973Z,french_36.wav,0,poule,375,34,5,5,Français,m,0,0.0,97.14143801,0.84704198
6534322b1c3b356fea530715,91,1,2024-02-24T08:32:43.973Z,french_36.wav,0,poule,375,34,5,5,Français,m,1,0.1,96.24936774,1.47086473
6534322b1c3b356fea530715,91,1,2024-02-24T08:32:43.973Z,french_36.wav,0,poule,375,34,5,5,Français,m,2,0.2,69.49703902,1.29858496
6534322b1c3b356fea530715,91,1,2024-02-24T08:32:43.973Z,french_36.wav,0,poule,375,34,5,5,Français,m,3,0.25666667,-77.37121036,1.24445776
6534322b1c3b356fea530715,92,1,2024-02-24T08:32:43.973Z,french_698.wav,0,poule,318,34,5,5,Français,m,0,0.0,77.87531809,1.86418809
6534322b1c3b356fea530715,92,1,2024-02-24T08:32:43.973Z,french_698.wav,0,poule,318,34,5,5,Français,m,1,0.1,-26.89699032,0.30357323
6534322b1c3b356fea530715,92,1,2024-02-24T08:32:43.973Z,french_698.wav,0,poule,318,34,5,5,Français,m,2,0.2,-54.93316964,1.97458381
6534322b1c3b356fea530715,92,1,2024-02-24T08:32:43.973Z,french_698.wav,0,poule,318,34,5,5,Français,m,3,0.25666667,-94.94644501,1.01877906
6534322b1c3b356fea530715,93,1,2024-02-24T08:32:43.973Z,french_86.wav,0,poule,412,34,5,5,Français,m,0,0.0,-13.34839912,1.5394535
6534322b1c3b356fea530715,93,1,2024-02-24T08:32:43.973Z,french_86.wav,0,poule,412,34,5,5,Français,m,1,0.1,-0.15074382,0.88064418
6534322b1c3b356fea530715,93,1,2024-02-24T08:32:43.973Z,french_86.wav,0,poule,412,34,5,5,Français,m,2,0.2,25.45831569,1.66652907
6534322b1c3b356fea530715,93,1,2024-02-24T08:32:43.973Z,french_86.wav,0,poule,412,34,5,5,Français,m,3,0.25666667,48.27326553,0.20293469
6534322b1c3b356fea530715,94,1,2024-02-24T08:32:43.973Z,french_682.wav,0,poule,385,34,5,5,Français,m,0,0.0,-16.33102186,0.79850708
6534322b1c3b356fea530715,94,1,2024-02-24T08:32:43.973Z,french_682.wav,0,poule,385,34,5,5,Français,m,1,0.1,-49.72009429,1.31273679
6534322b1c3b356fea530715,94,1,2024-02-24T08:32:43.973Z,french_682.wav,0,poule,385,34,5,5,Français,m,2,0.2,-23.39596266,1.51298147
6534322b1c3b356fea530715,94,1,2024-02-24T08:32:43.973Z,french_682.wav,0,poule,385,34,5,5,Français,m,3,0.25666667,-34.72439006,0.92861139
6534322b1c3b356fea530715,95,1,2024-02-24T08:32:43.973Z,french_516.wav,0,poule,339,34,5,5,Français,m,0,0.0,-18.05376101,1.88602221
6534322b1c3b356fea530715,95,1,2024-02-24T08:32:43.973Z,french_516.wav,0,poule,339,34,5,5,Français,m,1,0.1,46.96361083,1.82153179
6534322b1c3b356fea530715,95,1,2024-02-24T08:32:43.973Z,french_516.wav,0,poule,339,34,5,5,Français,m,2,0.2,63.85228851,1.94475993
6534322b1c3b356fea530715,95,1,2024-02-24T08:32:43.973Z,french_516.wav,0,poule,339,34,5,5,Français,m,3,0.25666667,-69.83202403,1.41132457
6534322b1c3b356fea530715,96,1,2024-02-24T08:32:43.973Z,french_744.wav,0,poule,438,34,5,5,Français,m,0,0.0,20.71284991,1.22360564
6534322b1c3b356fea530715,96,1,2024-02-24T08:32:43.973Z,french_744.wav,0,poule,438,34,5,5,Français,m,1,0.1,43.41893938,1.58460028
6534322b1c3b356fea530715,96,1,2024-02-24T08:32:43.973Z,french_744.wav,0,poule,438,34,5,5,Français,m,2,0.2,65.94530402,0.38406236
6534322b1c3b356fea530715,96,1,2024-02-24T08:32:43.973Z,french_744.wav,0,poule,438,34,5,5,Français,m,3,0.25666667,-59.234779,0.69273959
6534322b1c3b356fea530715,97,1,2024-02-24T08:32:43.973Z,french_697.wav,0,poule,321,34,5,5,Français,m,0,0.0,-19.8565912,1.89587242
6534322b1c3b356fea530715,97,1,2024-02-24T08:32:43.973Z,french_697.wav,0,poule,321,34,5,5,Français,m,1,0.1,-16.18456076,0.49072185
6534322b1c3b356fea530715,97,1,2024-02-24T08:32:43.973Z,french_697.wav,0,poule,321,34,5,5,Français,m,2,0.2,-70.77550193,1.8362568
6534322b1c3b356fea530715,97,1,2024-02-24T08:32:43.973Z,french_697.wav,0,poule,321,34,5,5,Français,m,3,0.25666667,-81.21106402,0.50078837
6534322b1c3b356fea530715,98,1,2024-02-24T08:32:43.973Z,french_647.wav,0,poule,321,34,5,5,Français,m,0,0.0,-41.18361869,1.9224231
6534322b1c3b356fea530715,98,1,2024-02-24T08:32:43.973Z,french_647.wav,0,poule,321,34,5,5,Français,m,1,0.1,11.48241437,1.96851625
6534322b1c3b356fea530715,98,1,2024-02-24T08:32:43.973Z,french_647.wav,0,poule,321,34,5,5,Français,m,2,0.2,60.38354651,1.74064919
6534322b1c3b356fea530715,98,1,2024-02-24T08:32:43.973Z,french_647.wav,0,poule,321,34,5,5,Français,m,3,0.25666667,15.78737628,1.76296374
6534322b1c3b356fea530715,99,1,2024-02-24T08:32:43.973Z,french_513.wav,0,poule,288,34,5,5,Français,m,0,0.0,84.63539274,1.68726635
6534322b1c3b356fea530715,99,1,2024-02-24T08:32:43.973Z,french_513.wav,0,poule,288,34,5,5,Français,m,1,0.1,36.6114333,0.88690679
6534322b1c3b356fea530715,99,1,2024-02-24T08:32:43.973Z,french_513.wav,0,poule,288,34,5,5,Français,m,2,0.2,14.49628471,0.37350839
6534322b1c3b356fea530715,99,1,2024-02-24T08:32:43.973Z,french_513.wav,0,poule,288,34,5,5,Français,m,3,0.25666667,-17.17346171,1.74122924
6534322b1c3b356fea530715,100,2,2024-02-24T08:32:43.973Z,french_909.wav,0,poule,274,34,5,5,Français,m,0,0.0,-17.91805132,1.11522258
6534322b1c3b356fea530715,100,2,2024-02-24T08:32:43.973Z,french_909.wav,0,poule,274,34,5,5,Français,m,1,0.1,-79.7145309,0.65372787
6534322b1c3b356fea530715,100,2,2024-02-24T08:32:43.973Z,french_909.wav,0,poule,274,34,5,5,Français,m,2,0.2,-13.28374128,0.18130759
6534322b1c3b356fea530715,100,2,2024-02-24T08:32:43.973Z,french_909.wav,0,poule,274,34,5,5,Français,m,3,0.25666667,80.91359626,1.7666171
6534322b1c3b356fea530715,101,2,2024-02-24T08:32:43.973Z,french_848.wav,0,poule,389,34,5,5,Français,m,0,0.0,-60.99605007,1.01059702
6534322b1c3b356fea530715,101,2,2024-02-24T08:32:43.973Z,french_848.wav,0,poule,389,34,5,5,Français,m,1,0.1,-27.05939135,1.98581859
6534322b1c3b356fea530715,101,2,2024-02-24T08:32:43.973Z,french_848.wav,0,poule,389,34,5,5,Français,m,2,0.2,-10.58439289,0.30142011
6534322b1c3b356fea530715,101,2,2024-02-24T08:32:43.973Z,french_848.wav,0,poule,389,34,5,5,Français,m,3,0.25666667,-17.47548333,1.16939553
6534322b1c3b356fea530715,102,2,2024-02-24T08:32:43.973Z,french_335.wav,0,poule,371,34,5,5,Français,m,0,0.0,-60.92786521,0.89558721
6534322b1c3b356fea530715,102,2,2024-02-24T08:32:43.973Z,french_335.wav,0,poule,371,34,5,5,Français,m,1,0.1,31.54292158,1.14451351
6534322b1c3b356fea530715,102,2,2024-02-24T08:32:43.973Z,french_335.wav,0,poule,371,34,5,5,Français,m,2,0.2,82.84770607,0.29770625
6534322b1c3b356fea530715,102,2,2024-02-24T08:32:43.973Z,french_335.wav,0,poule,371,34,5,5,Français,m,3,0.25666667,75.81016287,0.45932577
6534322b1c3b356fea530715,103,2,2024-02-24T08:32:43.973Z,french_148.wav,0,poule,469,34,5,5,Français,m,0,0.0,-65.76338754,1.63378801
6534322b1c3b356fea530715,103,2,2024-02-24T08:32:43.973Z,french_148.wav,0,poule,469,34,5,5,Français,m,1,0.1,-45.02607009,0.19427674
6534322b1c3b356fea530715,103,2,2024-02-24T08:32:43.973Z,french_148.wav,0,poule,469,34,5,5,Français,m,2,0.2,-4.18875901,1.20463049
6534322b1c3b356fea530715,103,2,2024-02-24T08:32:43.973Z,french_148.wav,0,poule,469,34,5,5,Français,m,3,0.25666667,85.40607693,0.17184116
6534322b1c3b356fea530715,104,2,2024-02-24T08:32:43.973Z,french_954.wav,0,poule,604,34,5,5,Français,m,0,0.0,-31.81965022,1.69468269
6534322b1c3b356fea530715,104,2,2024-02-24T08:32:43.973Z,french_954.wav,0,poule,604,34,5,5,Français,m,1,0.1,82.90828133,0.7734121
6534322b1c3b356fea530715,104,2,2024-02-24T08:32:43.973Z,french_954.wav,0,poule,604,34,5,5,Français,m,2,0.2,94.68318648,0.43346946
6534322b1c3b356fea530715,104,2,2024-02-24T08:32:43.973Z,french_954.wav,0,poule,604,34,5,5,Français,m,3,0.25666667,-42.01635115,0.14112827
6534322b1c3b356fea530715,105,2,2024-02-24T08:32:43.973Z,french_242.wav,0,poule,481,34,5,5,Français,m,0,0.0,19.1317605,0.13091957
6534322b1c3b356fea530715,105,2,2024-02-24T08:32:43.973Z,french_242.wav,0,poule,481,34,5,5,Français,m,1,0.1,-45.8995637,1.80487076
6534322b1c3b356fea530715,105,2,2024-02-24T08:32:43.973Z,french_242.wav,0,poule,481,34,5,5,Français,m,2,0.2,0.0160089686,1.56599149
6534322b1c3b356fea530715,105,2,2024-02-24T08:32:43.973Z,french_242.wav,0,poule,481,34,5,5,Français,m,3,0.256666667,88.294087,1.35043951
6534322b1c3b356fea530715,106,2,2024-02-24T08:32:43.973Z,french_459.wav,0,poule,713,34,5,5,Français,m,0,0.0,4.79398058,1.10654006
6534322b1c3b356fea530715,106,2,2024-02-24T08:32:43.973Z,french_459.wav,0,poule,713,34,5,5,Français,m,1,0.1,85.90612859,1.2996969
6534322b1c3b356fea530715,106,2,2024-02-24T08:32:43.973Z,french_459.wav,0,poule,713,34,5,5,Français,m,2,0.2,-69.41023595,0.20520219
6534322b1c3b356fea530715,106,2,2024-02-24T08:32:43.973Z,french_459.wav,0,poule,713,34,5,5,Français,m,3,0.25666667,-22.07588814,1.17361701
6534322b1c3b356fea530715,107,2,2024-02-24T08:32:43.973Z,french_92.wav,0,poule,386,34,5,5,Français,m,0,0.0,59.20081487,1.21926368
6534322b1c3b356fea530715,107,2,2024-02-24T08:32:43.973Z,french_92.wav,0,poule,386,34,5,5,Français,m,1,0.1,95.6548793,1.56053314
6534322b1c3b356fea530715,107,2,2024-02-24T08:32:43.973Z,french_92.wav,0,poule,386,34,5,5,Français,m,2,0.2,-36.19224385,1.38632022
6534322b1c3b356fea530715,107,2,2024-02-24T08:32:43.973Z,french_92.wav,0,poule,386,34,5,5,Français,m,3,0.25666667,68.24894855,1.29084252
6534322b1c3b356fea530715,108,2,2024-02-24T08:32:43.973Z,french_454.wav,0,poule,935,34,5,5,Français,m,0,0.0,-2.34959028,0.74247593
6534322b1c3b356fea530715,108,2,2024-02-24T08:32:43.973Z,french_454.wav,0,poule,935,34,5,5,Français,m,1,0.1,-12.00596157,1.74271244
6534322b1c3b356fea530715,108,2,2024-02-24T08:32:43.973Z,french_454.wav,0,poule,935,34,5,5,Français,m,2,0.2,53.09832594,0.67609159
6534322b1c3b356fea530715,108,2,2024-02-24T08:32:43.973Z,french_454.wav,0,poule,935,34,5,5,Français,m,3,0.25666667,2.06709411,1.84499539
6534322b1c3b356fea530715,109,2,2024-02-24T08:32:43.973Z,french_659.wav,0,poule,321,34,5,5,Français,m,0,0.0,85.50464417,1.33522586
6534322b1c3b356fea530715,109,2,2024-02-24T08:32:43.973Z,french_659.wav,0,poule,321,34,5,5,Français,m,1,0.1,65.46448613,1.79413259
6534322b1c3b356fea530715,109,2,2024-02-24T08:32:43.973Z,french_659.wav,0,poule,321,34,5,5,Français,m,2,0.2,39.40171471,1.57337642
6534322b1c3b356fea530715,109,2,2024-02-24T08:32:43.973Z,french_659.wav,0,poule,321,34,5,5,Français,m,3,0.25666667,-2.24011696,0.55895062
6534322b1c3b356fea530715,110,2,2024-02-24T08:32:43.973Z,french_471.wav,0,poule,237,34,5,5,Français,m,0,0.0,35.47460752,0.77553755
6534322b1c3b356fea530715,110,2,2024-02-24T08:32:43.973Z,french_471.wav,0,poule,237,34,5,5,Français,m,1,0.1,-49.00208302,1.38730058
6534322b1c3b356fea530715,110,2,2024-02-24T08:32:43.973Z,french_471.wav,0,poule,237,34,5,5,Français,m,2,0.2,47.17677121,0.98156507
6534322b1c3b356fea530715,110,2,2024-02-24T08:32:43.973Z,french_471.wav,0,poule,237,34,5,5,Français,m,3,0.25666667,64.34433074,0.66404961
6534322b1c3b356fea530715,111,2,2024-02-24T08:32:43.973Z,french_631.wav,0,poule,421,34,5,5,Français,m,0,0.0,87.50143958,0.46380881
6534322b1c3b356fea530715,111,2,2024-02-24T08:32:43.973Z,french_631.wav,0,poule,421,34,5,5,Français,m,1,0.1,43.81698528,0.9935464
6534322b1c3b356fea530715,111,2,2024-02-24T08:32:43.973Z,french_631.wav,0,poule,421,34,5,5,Français,m,2,0.2,97.72878597,1.55852459
6534322b1c3b356fea530715,111,2,2024-02-24T08:32:43.973Z,french_631.wav,0,poule,421,34,5,5,Français,m,3,0.25666667,25.13380659,0.71365297
6534322b1c3b356fea530715,112,2,2024-02-24T08:32:43.973Z,french_253.wav,0,poule,174,34,5,5,Français,m,0,0.0,46.57034738,1.71066879
6534322b1c3b356fea530715,112,2,2024-02-24T08:32:43.973Z,french_253.wav,0,poule,174,34,5,5,Français,m,1,0.1,95.71705704,0.77231307
6534322b1c3b356fea530715,112,2,2024-02-24T08:32:43.973Z,french_253.wav,0,poule,174,34,5,5,Français,m,2,0.2,-25.2299753,0.81370988
6534322b1c3b356fea530715,112,2,2024-02-24T08:32:43.973Z,french_253.wav,0,poule,174,34,5,5,Français,m,3,0.25666667,-10.51050389,1.71668189
6534322b1c3b356fea530715,113,2,2024-02-24T08:32:43.973Z,french_512.wav,0,poule,401,34,5,5,Français,m,0,0.0,-78.17864001,1.53776746
6534322b1c3b356fea530715,113,2,2024-02-24T08:32:43.973Z,french_512.wav,0,poule,401,34,5,5,Français,m,1,0.1,0.33316605,0.01358873
6534322b1c3b356fea530715,113,2,2024-02-24T08:32:43.973Z,french_512.wav,0,poule,401,34,5,5,Français,m,2,0.2,-88.66010948,0.2850161
6534322b1c3b356fea530715,113,2,2024-02-24T08:32:43.973Z,french_512.wav,0,poule,401,34,5,5,Français,m,3,0.25666667,-69.42732992,0.92419145
6534322b1c3b356fea530715,114,2,2024-02-24T08:32:43.973Z,french_780.wav,0,poule,365,34,5,5,Français,m,0,0.0,-26.4428256,1.10618342
6534322b1c3b356fea530715,114,2,2024-02-24T08:32:43.973Z,french_780.wav,0,poule,365,34,5,5,Français,m,1,0.1,71.38381251,1.00150251
6534322b1c3b356fea530715,114,2,2024-02-24T08:32:43.973Z,french_780.wav,0,poule,365,34,5,5,Français,m,2,0.2,23.58434052,0.69699056
6534322b1c3b356fea530715,114,2,2024-02-24T08:32:43.973Z,french_780.wav,0,poule,365,34,5,5,Français,m,3,0.25666667,-77.81567576,1.24957366
6534322b1c3b356fea530715,115,2,2024-02-24T08:32:43.973Z,french_465.wav,0,poule,409,34,5,5,Français,m,0,0.0,75.74191185,0.24775687
6534322b1c3b356fea530715,115,2,2024-02-24T08:32:43.973Z,french_465.wav,0,poule,409,34,5,5,Français,m,1,0.1,-78.40057178,0.61634124
6534322b1c3b356fea530715,115,2,2024-02-24T08:32:43.973Z,french_465.wav,0,poule,409,34,5,5,Français,m,2,0.2,-12.36406326,1.57309013
6534322b1c3b356fea530715,115,2,2024-02-24T08:32:43.973Z,french_465.wav,0,poule,409,34,5,5,Français,m,3,0.25666667,-26.5706303,0.56284004
6534322b1c3b356fea530715,116,2,2024-02-24T08:32:43.973Z,french_472.wav,0,poule,302,34,5,5,Français,m,0,0.0,-9.46806957,0.85855516
6534322b1c3b356fea530715,116,2,2024-02-24T08:32:43.973Z,french_472.wav,0,poule,302,34,5,5,Français,m,1,0.1,45.81973918,1.60383991
6534322b1c3b356fea530715,116,2,2024-02-24T08:32:43.973Z,french_472.wav,0,poule,302,34,5,5,Français,m,2,0.2,-32.95266456,0.80244772
6534322b1c3b356fea530715,116,2,2024-02-24T08:32:43.973Z,french_472.wav,0,poule,302,34,5,5,Français,m,3,0.25666667,-10.56557549,1.48234138
6534322b1c3b356fea530715,117,2,2024-02-24T08:32:43.973Z,french_429.wav,0,poule,385,34,5,5,Français,m,0,0.0,-86.61428582,0.48550144
6534322b1c3b356fea530715,117,2,2024-02-24T08:32:43.973Z,french_429.wav,0,poule,385,34,5,5,Français,m,1,0.1,-42.15720505,1.43221201
6534322b1c3b356fea530715,117,2,2024-02-24T08:32:43.973Z,french_429.wav,0,poule,385,34,5,5,Français,m,2,0.2,57.81850322,1.77393014
6534322b1c3b356fea530715,117,2,2024-02-24T08:32:43.973Z,french_429.wav,0,poule,385,34,5,5,Français,m,3,0.25666667,56.8864302,0.85506946
6534322b1c3b356fea530715,118,2,2024-02-24T08:32:43.973Z,french_23.wav,0,poule,225,34,5,5,Français,m,0,0.0,60.31001525,1.86606536
6534322b1c3b356fea530715,118,2,2024-02-24T08:32:43.973Z,french_23.wav,0,poule,225,34,5,5,Français,m,1,0.1,-66.5420171,0.5728784
6534322b1c3b356fea530715,118,2,2024-02-24T08:32:43.973Z,french_23.wav,0,poule,225,34,5,5,Français,m,2,0.2,63.07925381,0.71513043
6534322b1c3b356fea530715,118,2,2024-02-24T08:32:43.973Z,french_23.wav,0,poule,225,34,5,5,Français,m,3,0.25666667,-69.51509132,1.52612213
6534322b1c3b356fea530715,119,2,2024-02-24T08:32:43.973Z,french_304.wav,0,poule,377,34,5,5,Français,m,0,0.0,58.70341866,1.21350262
6534322b1c3b356fea530715,119,2,2024-02-24T08:32:43.973Z,french_304.wav,0,poule,377,34,5,5,Français,m,1,0.1,64.39481967,0.74970721
6534322b1c3b356fea530715,119,2,2024-02-24T08:32:43.973Z,french_304.wav,0,poule,377,34,5,5,Français,m,2,0.2,24.44185136,0.32537914
6534322b1c3b356fea530715,119,2,2024-02-24T08:32:43.973Z,french_304.wav,0,poule,377,34,5,5,Français,m,3,0.25666667,-92.24598877,0.12166717
6534322b1c3b356fea530715,120,2,2024-02-24T08:32:43.973Z,french_952.wav,0,poule,455,34,5,5,Français,m,0,0.0,89.6944408,1.65049473
6534322b1c3b356fea530715,120,2,2024-02-24T08:32:43.973Z,french_952.wav,0,poule,455,34,5,5,Français,m,1,0.1,29.6191185,0.9962644
6534322b1c3b356fea530715,120,2,2024-02-24T08:32:43.973Z,french_952.wav,0,poule,455,34,5,5,Français,m,2,0.2,82.60414553,0.25471402
6534322b1c3b356fea530715,120,2,2024-02-24T08:32:43.973Z,french_952.wav,0,poule,455,34,5,5,Français,m,3,0.25666667,-20.57336344,0.85149117
6534322b1c3b356fea530715,121,2,2024-02-24T08:32:43.973Z,french_553.wav,0,poule,281,34,5,5,Français,m,0,0.0,-1.38146628,0.44011383
6534322b1c3b356fea530715,121,2,2024-02-24T08:32:43.973Z,french_553.wav,0,poule,281,34,5,5,Français,m,1,0.1,-34.28745567,1.14829302
6534322b1c3b356fea530715,121,2,2024-02-24T08:32:43.973Z,french_553.wav,0,poule,281,34,5,5,Français,m,2,0.2,6.87532462,1.07508961
6534322b1c3b356fea530715,121,2,2024-02-24T08:32:43.973Z,french_553.wav,0,poule,281,34,5,5,Français,m,3,0.25666667,90.98690029,0.10252166
6534322b1c3b356fea530715,122,2,2024-02-24T08:32:43.973Z,french_600.wav,0,poule,351,34,5,5,Français,m,0,0.0,29.66563504,0.34173365
6534322b1c3b356fea530715,122,2,2024-02-24T08:32:43.973Z,french_600.wav,0,poule,351,34,5,5,Français,m,1,0.1,-8.64659381,0.28144694
6534322b1c3b356fea530715,122,2,2024-02-24T08:32:43.973Z,french_600.wav,0,poule,351,34,5,5,Français,m,2,0.2,-34.77347642,1.5541161
6534322b1c3b356fea530715,122,2,2024-02-24T08:32:43.973Z,french_600.wav,0,poule,351,34,5,5,Français,m,3,0.25666667,-62.75040759,1.60255421
6534322b1c3b356fea530715,123,2,2024-02-24T08:32:43.973Z,french_807.wav,0,poule,335,34,5,5,Français,m,0,0.0,41.22965042,0.26309645
6534322b1c3b356fea530715,123,2,2024-02-24T08:32:43.973Z,french_807.wav,0,poule,335,34,5,5,Français,m,1,0.1,55.45523643,0.30227962
6534322b1c3b356fea530715,123,2,2024-02-24T08:32:43.973Z,french_807.wav,0,poule,335,34,5,5,Français,m,2,0.2,-56.08981041,0.58983644
6534322b1c3b356fea530715,123,2,2024-02-24T08:32:43.973Z,french_807.wav,0,poule,335,34,5,5,Français,m,3,0.25666667,27.67304414,1.26996728
6534322b1c3b356fea530715,124,2,2024-02-24T08:32:43.973Z,french_61.wav,0,poule,309,34,5,5,Français,m,0,0.0,65.32887924,1.15653785
6534322b1c3b356fea530715,124,2,2024-02-24T08:32:43.973Z,french_61.wav,0,poule,309,34,5,5,Français,m,1,0.1,45.09641809,1.72373813
6534322b1c3b356fea530715,124,2,2024-02-24T08:32:43.973Z,french_61.wav,0,poule,309,34,5,5,Français,m,2,0.2,-37.75339878,1.38726196
6534322b1c3b356fea530715,124,2,2024-02-24T08:32:43.973Z,french_61.wav,0,poule,309,34,5,5,Français,m,3,0.25666667,87.5089899,0.41594812
6534322b1c3b356fea530715,125,2,2024-02-24T08:32:43.973Z,french_850.wav,0,poule,861,34,5,5,Français,m,0,0.0,-88.87179188,0.91597825
6534322b1c3b356fea530715,125,2,2024-02-24T08:32:43.973Z,french_850.wav,0,poule,861,34,5,5,Français,m,1,0.1,15.70736636,0.21425776
6534322b1c3b356fea530715,125,2,2024-02-24T08:32:43.973Z,french_850.wav,0,poule,861,34,5,5,Français,m,2,0.2,67.7730952,1.52338939
6534322b1c3b356fea530715,125,2,2024-02-24T08:32:43.973Z,french_850.wav,0,poule,861,34,5,5,Français,m,3,0.25666667,-20.3872908,0.55241946
6534322b1c3b356fea530715,126,2,2024-02-24T08:32:43.973Z,french_407.wav,0,poule,2884,34,5,5,Français,m,0,0.0,-57.6292462,1.8651924
6534322b1c3b356fea530715,126,2,2024-02-24T08:32:43.973Z,french_407.wav,0,poule,2884,34,5,5,Français,m,1,0.1,-25.10683904,1.55880725
6534322b1c3b356fea530715,126,2,2024-02-24T08:32:43.973Z,french_407.wav,0,poule,2884,34,5,5,Français,m,2,0.2,13.09742102,1.30220718
6534322b1c3b356fea530715,126,2,2024-02-24T08:32:43.973Z,french_407.wav,0,poule,2884,34,5,5,Français,m,3,0.25666667,-8.98604593,1.55663467
6534322b1c3b356fea530715,127,2,2024-02-24T08:32:43.973Z,french_145.wav,0,poule,358,34,5,5,Français,m,0,0.0,45.95226671,0.38136586
6534322b1c3b356fea530715,127,2,2024-02-24T08:32:43.973Z,french_145.wav,0,poule,358,34,5,5,Français,m,1,0.1,-66.66601381,1.38589502
6534322b1c3b356fea530715,127,2,2024-02-24T08:32:43.973Z,french_145.wav,0,poule,358,34,5,5,Français,m,2,0.2,-89.77596615,0.43712509
6534322b1c3b356fea530715,127,2,2024-02-24T08:32:43.973Z,french_145.wav,0,poule,358,34,5,5,Français,m,3,0.25666667,8.03115864,1.92826262
6534322b1c3b356fea530715,128,2,2024-02-24T08:32:43.973Z,french_936.wav,0,poule,380,34,5,5,Français,m,0,0.0,-20.69739044,1.81100612
6534322b1c3b356fea530715,128,2,2024-02-24T08:32:43.973Z,french_936.wav,0,poule,380,34,5,5,Français,m,1,0.1,11.25896305,0.34150345
6534322b1c3b356fea530715,128,2,2024-02-24T08:32:43.973Z,french_936.wav,0,poule,380,34,5,5,Français,m,2,0.2,-73.43688333,0.78598688
6534322b1c3b356fea530715,128,2,2024-02-24T08:32:43.973Z,french_936.wav,0,poule,380,34,5,5,Français,m,3,0.25666667,14.6038409,0.34536881
6534322b1c3b356fea530715,129,2,2024-02-24T08:32:43.973Z,french_510.wav,0,poule,474,34,5,5,Français,m,0,0.0,-82.87799208,0.24901575
6534322b1c3b356fea530715,129,2,2024-02-24T08:32:43.973Z,french_510.wav,0,poule,474,34,5,5,Français,m,1,0.1,65.34741866,0.57837344
6534322b1c3b356fea530715,129,2,2024-02-24T08:32:43.973Z,french_510.wav,0,poule,474,34,5,5,Français,m,2,0.2,-27.05880307,0.73430832
6534322b1c3b356fea530715,129,2,2024-02-24T08:32:43.973Z,french_510.wav,0,poule,474,34,5,5,Français,m,3,0.25666667,51.91290048,0.23551409
6534322b1c3b356fea530715,130,2,2024-02-24T08:32:43.973Z,french_974.wav,0,poule,385,34,5,5,Français,m,0,0.0,-56.73984936,0.20875225
6534322b1c3b356fea530715,130,2,2024-02-24T08:32:43.973Z,french_974.wav,0,poule,385,34,5,5,Français,m,1,0.1,32.58414802,0.25167591
6534322b1c3b356fea530715,130,2,2024-02-24T08:32:43.973Z,french_974.wav,0,poule,385,34,5,5,Français,m,2,0.2,-45.44939314,1.19458688
6534322b1c3b356fea530715,130,2,2024-02-24T08:32:43.973Z,french_974.wav,0,poule,385,34,5,5,Français,m,3,0.25666667,-96.65983196,0.25310381
6534322b1c3b356fea530715,131,2,2024-02-24T08:32:43.973Z,french_258.wav,0,poule,821,34,5,5,Français,m,0,0.0,49.87761594,0.27922365
6534322b1c3b356fea530715,131,2,2024-02-24T08:32:43.973Z,french_258.wav,0,poule,821,34,5,5,Français,m,1,0.1,-83.77774399,1.89432374
6534322b1c3b356fea530715,131,2,2024-02-24T08:32:43.973Z,french_258.wav,0,poule,821,34,5,5,Français,m,2,0.2,58.69904626,0.22934206
6534322b1c3b356fea530715,131,2,2024-02-24T08:32:43.973Z,french_258.wav,0,poule,821,34,5,5,Français,m,3,0.25666667,-57.68721695,0.35615934
6534322b1c3b356fea530715,132,2,2024-02-24T08:32:43.973Z,french_521.wav,0,poule,245,34,5,5,Français,m,0,0.0,11.04386286,1.73052604
6534322b1c3b356fea530715,132,2,2024-02-24T08:32:43.973Z,french_521.wav,0,poule,245,34,5,5,Français,m,1,0.1,-55.65083084,0.96564678
6534322b1c3b356fea530715,132,2,2024-02-24T08:32:43.973Z,french_521.wav,0,poule,245,34,5,5,Français,m,2,0.2,98.93037095,1.35299162
6534322b1c3b356fea530715,132,2,2024-02-24T08:32:43.973Z,french_521.wav,0,poule,245,34,5,5,Français,m,3,0.25666667,14.06437892,1.41353716
6534322b1c3b356fea530715,133,2,2024-02-24T08:32:43.973Z,french_751.wav,0,poule,259,34,5,5,Français,m,0,0.0,43.14158788,0.5897858
6534322b1c3b356fea530715,133,2,2024-02-24T08:32:43.973Z,french_751.wav,0,poule,259,34,5,5,Français,m,1,0.1,18.43858874,0.77618244
6534322b1c3b356fea530715,133,2,2024-02-24T08:32:43.973Z,french_751.wav,0,poule,259,34,5,5,Français,m,2,0.2,79.49995567,1.33641446
6534322b1c3b356fea530715,133,2,2024-02-24T08:32:43.973Z,french_751.wav,0,poule,259,34,5,5,Français,m,3,0.25666667,54.04463095,0.80537668
6534322b1c3b356fea530715,134,2,2024-02-24T08:32:43.973Z,french_743.wav,0,poule,375,34,5,5,Français,m,0,0.0,-33.29442342,0.17876133
6534322b1c3b356fea530715,134,2,2024-02-24T08:32:43.973Z,french_743.wav,0,poule,375,34,5,5,Français,m,1,0.1,66.78729562,1.55990879
6534322b1c3b356fea530715,134,2,2024-02-24T08:32:43.973Z,french_743.wav,0,poule,375,34,5,5,Français,m,2,0.2,-0.09457626,1.00824872
6534322b1c3b356fea530715,134,2,2024-02-24T08:32:43.973Z,french_743.wav,0,poule,375,34,5,5,Français,m,3,0.25666667,-6.43111547,1.50563658
6534322b1c3b356fea530715,135,2,2024-02-24T08:32:43.973Z,french_917.wav,0,poule,309,34,5,5,Français,m,0,0.0,50.57286357,1.65201844
6534322b1c3b356fea530715,135,2,2024-02-24T08:32:43.973Z,french_917.wav,0,poule,309,34,5,5,Français,m,1,0.1,-63.34867724,1.47811083
6534322b1c3b356fea530715,135,2,2024-02-24T08:32:43.973Z,french_917.wav,0,poule,309,34,5,5,Français,m,2,0.2,6.48628749,1.28993383
6534322b1c3b356fea530715,135,2,2024-02-24T08:32:43.973Z,french_917.wav,0,poule,309,34,5,5,Français,m,3,0.25666667,42.71671415,0.78276191
6534322b1c3b356fea530715,136,2,2024-02-24T08:32:43.973Z,french_872.wav,0,poule,259,34,5,5,Français,m,0,0.0,85.31192626,1.27180188
6534322b1c3b356fea530715,136,2,2024-02-24T08:32:43.973Z,french_872.wav,0,poule,259,34,5,5,Français,m,1,0.1,-62.96284321,0.82867252
6534322b1c3b356fea530715,136,2,2024-02-24T08:32:43.973Z,french_872.wav,0,poule,259,34,5,5,Français,m,2,0.2,93.26127986,1.69740624
6534322b1c3b356fea530715,136,2,2024-02-24T08:32:43.973Z,french_872.wav,0,poule,259,34,5,5,Français,m,3,0.25666667,48.13314647,0.31258738
6534322b1c3b356fea530715,137,2,2024-02-24T08:32:43.973Z,french_11.wav,0,poule,327,34,5,5,Français,m,0,0.0,-27.01625533,0.65463853
6534322b1c3b356fea530715,137,2,2024-02-24T08:32:43.973Z,french_11.wav,0,poule,327,34,5,5,Français,m,1,0.1,30.5454192,0.82547758
6534322b1c3b356fea530715,137,2,2024-02-24T08:32:43.973Z,french_11.wav,0,poule,327,34,5,5,Français,m,2,0.2,-10.3355652,1.18020414
6534322b1c3b356fea530715,137,2,2024-02-24T08:32:43.973Z,french_11.wav,0,poule,327,34,5,5,Français,m,3,0.25666667,-1.40658107,0.75245655
6534322b1c3b356fea530715,138,2,2024-02-24T08:32:43.973Z,french_770.wav,0,poule,1028,34,5,5,Français,m,0,0.0,28.65055954,1.27945621
6534322b1c3b356fea530715,138,2,2024-02-24T08:32:43.973Z,french_770.wav,0,poule,1028,34,5,5,Français,m,1,0.1,-72.95217839,1.48453538
6534322b1c3b356fea530715,138,2,2024-02-24T08:32:43.973Z,french_770.wav,0,poule,1028,34,5,5,Français,m,2,0.2,-37.01197006,1.47789059
6534322b1c3b356fea530715,138,2,2024-02-24T08:32:43.973Z,french_770.wav,0,poule,1028,34,5,5,Français,m,3,0.25666667,17.9887053,1.81501711
6534322b1c3b356fea530715,139,2,2024-02-24T08:32:43.973Z,french_906.wav,0,poule,343,34,5,5,Français,m,0,0.0,-13.49448879,0.31236465
6534322b1c3b356fea530715,139,2,2024-02-24T08:32:43.973Z,french_906.wav,0,poule,343,34,5,5,Français,m,1,0.1,31.46373863,1.12113229
6534322b1c3b356fea530715,139,2,2024-02-24T08:32:43.973Z,french_906.wav,0,poule,343,34,5,5,Français,m,2,0.2,-49.02376816,0.0749788
6534322b1c3b356fea530715,139,2,2024-02-24T08:32:43.973Z,french_906.wav,0,poule,343,34,5,5,Français,m,3,0.25666667,26.58933429,0.8331551
6534322b1c3b356fea530715,140,2,2024-02-24T08:32:43.973Z,french_502.wav,0,poule,263,34,5,5,Français,m,0,0.0,-20.79410197,1.55473715
6534322b1c3b356fea530715,140,2,2024-02-24T08:32:43.973Z,french_502.wav,0,poule,263,34,5,5,Français,m,1,0.1,-29.31354171,0.75660833
6534322b1c3b356fea530715,140,2,2024-02-24T08:32:43.973Z,french_502.wav,0,poule,263,34,5,5,Français,m,2,0.2,66.76157716,1.40053341
6534322b1c3b356fea530715,140,2,2024-02-24T08:32:43.973Z,french_502.wav,0,poule,263,34,5,5,Français,m,3,0.25666667,63.6653431,1.0602207
6534322b1c3b356fea530715,141,2,2024-02-24T08:32:43.973Z,french_342.wav,0,poule,289,34,5,5,Français,m,0,0.0,-84.22246184,0.80111929
6534322b1c3b356fea530715,141,2,2024-02-24T08:32:43.973Z,french_342.wav,0,poule,289,34,5,5,Français,m,1,0.1,-88.55202377,0.92289162
6534322b1c3b356fea530715,141,2,2024-02-24T08:32:43.973Z,french_342.wav,0,poule,289,34,5,5,Français,m,2,0.2,12.74462997,0.96187701
6534322b1c3b356fea530715,141,2,2024-02-24T08:32:43.973Z,french_342.wav,0,poule,289,34,5,5,Français,m,3,0.25666667,-73.67155113,0.57764427
6534322b1c3b356fea530715,142,2,2024-02-24T08:32:43.973Z,french_49.wav,0,poule,298,34,5,5,Français,m,0,0.0,-34.40531311,0.38592943
6534322b1c3b356fea530715,142,2,2024-02-24T08:32:43.973Z,french_49.wav,0,poule,298,34,5,5,Français,m,1,0.1,-47.89713654,0.82636765
6534322b1c3b356fea530715,142,2,2024-02-24T08:32:43.973Z,french_49.wav,0,poule,298,34,5,5,Français,m,2,0.2,1.74747298,1.60738751
6534322b1c3b356fea530715,142,2,2024-02-24T08:32:43.973Z,french_49.wav,0,poule,298,34,5,5,Français,m,3,0.25666667,24.1153847,0.61367061
6534322b1c3b356fea530715,143,2,2024-02-24T08:32:43.973Z,french_745.wav,0,poule,121,34,5,5,Français,m,0,0.0,-23.86566831,1.27696082
6534322b1c3b356fea530715,143,2,2024-02-24T08:32:43.973Z,french_745.wav,0,poule,121,34,5,5,Français,m,1,0.1,-33.24912316,1.44075169
6534322b1c3b356fea530715,143,2,2024-02-24T08:32:43.973Z,french_745.wav,0,poule,121,34,5,5,Français,m,2,0.2,45.69666298,0.50413087
6534322b1c3b356fea530715,143,2,2024-02-24T08:32:43.973Z,french_745.wav,0,poule,121,34,5,5,Français,m,3,0.25666667,-83.60192647,0.37289443
6534322b1c3b356fea530715,144,2,2024-02-24T08:32:43.973Z,french_617.wav,0,poule,225,34,5,5,Français,m,0,0.0,-34.18466024,0.10021852
6534322b1c3b356fea530715,144,2,2024-02-24T08:32:43.973Z,french_617.wav,0,poule,225,34,5,5,Français,m,1,0.1,35.41565559,0.72859392
6534322b1c3b356fea530715,144,2,2024-02-24T08:32:43.973Z,french_617.wav,0,poule,225,34,5,5,Français,m,2,0.2,59.04414741,0.77782194
6534322b1c3b356fea530715,144,2,2024-02-24T08:32:43.973Z,french_617.wav,0,poule,225,34,5,5,Français,m,3,0.25666667,80.0519445,1.13599019
6534322b1c3b356fea530715,145,2,2024-02-24T08:32:43.973Z,french_999.wav,0,poule,499,34,5,5,Français,m,0,0.0,47.65145935,0.42993564
6534322b1c3b356fea530715,145,2,2024-02-24T08:32:43.973Z,french_999.wav,0,poule,499,34,5,5,Français,m,1,0.1,64.90222313,1.41824969
6534322b1c3b356fea530715,145,2,2024-02-24T08:32:43.973Z,french_999.wav,0,poule,499,34,5,5,Français,m,2,0.2,79.66636989,1.25132817
6534322b1c3b356fea530715,145,2,2024-02-24T08:32:43.973Z,french_999.wav,0,poule,499,34,5,5,Français,m,3,0.25666667,-10.95327426,1.10016678
6534322b1c3b356fea530715,146,2,2024-02-24T08:32:43.973Z,french_931.wav,0,poule,628,34,5,5,Français,m,0,0.0,64.75046939,1.51932084
6534322b1c3b356fea530715,146,2,2024-02-24T08:32:43.973Z,french_931.wav,0,poule,628,34,5,5,Français,m,1,0.1,-55.9473081,1.08335674
6534322b1c3b356fea530715,146,2,2024-02-24T08:32:43.973Z,french_931.wav,0,poule,628,34,5,5,Français,m,2,0.2,32.85596214,0.78781639
6534322b1c3b356fea530715,146,2,2024-02-24T08:32:43.973Z,french_931.wav,0,poule,628,34,5,5,Français,m,3,0.25666667,-89.33798771,0.66435238
6534322b1c3b356fea530715,147,2,2024-02-24T08:32:43.973Z,french_791.wav,0,poule,514,34,5,5,Français,m,0,0.0,-81.64215326,0.09493453
6534322b1c3b356fea530715,147,2,2024-02-24T08:32:43.973Z,french_791.wav,0,poule,514,34,5,5,Français,m,1,0.1,84.74526907,0.0053506
6534322b1c3b356fea530715,147,2,2024-02-24T08:32:43.973Z,french_791.wav,0,poule,514,34,5,5,Français,m,2,0.2,-10.10354349,1.61132934
6534322b1c3b356fea530715,147,2,2024-02-24T08:32:43.973Z,french_791.wav,0,poule,514,34,5,5,Français,m,3,0.25666667,-10.14583619,1.39802197
6534322b1c3b356fea530715,148,2,2024-02-24T08:32:43.973Z,french_778.wav,0,poule,1672,34,5,5,Français,m,0,0.0,-2.76577218,0.74255963
6534322b1c3b356fea530715,148,2,2024-02-24T08:32:43.973Z,french_778.wav,0,poule,1672,34,5,5,Français,m,1,0.1,4.49344871,1.48176587
6534322b1c3b356fea530715,148,2,2024-02-24T08:32:43.973Z,french_778.wav,0,poule,1672,34,5,5,Français,m,2,0.2,68.81762054,1.59399306
6534322b1c3b356fea530715,148,2,2024-02-24T08:32:43.973Z,french_778.wav,0,poule,1672,34,5,5,Français,m,3,0.25666667,89.13075651,1.18058537
6534322b1c3b356fea530715,149,2,2024-02-24T08:32:43.973Z,french_641.wav,0,pull,1023,34,5,5,Français,m,0,0.0,-92.89939655,0.72916007
6534322b1c3b356fea530715,149,2,2024-02-24T08:32:43.973Z,french_641.wav,0,pull,1023,34,5,5,Français,m,1,0.1,80.14352585,1.01323436
6534322b1c3b356fea530715,149,2,2024-02-24T08:32:43.973Z,french_641.wav,0,pull,1023,34,5,5,Français,m,2,0.2,74.03041043,0.998205
6534322b1c3b356fea530715,149,2,2024-02-24T08:32:43.973Z,french_641.wav,0,pull,1023,34,5,5,Français,m,3,0.25666667,18.97683281,0.30086371
6534322b1c3b356fea530715,150,3,2024-02-24T08:32:43.973Z,french_734.wav,0,poule,263,34,5,5,Français,m,0,0.0,24.54171911,0.95806039
6534322b1c3b356fea530715,150,3,2024-02-24T08:32:43.973Z,french_734.wav,0,poule,263,34,5,5,Français,m,1,0.1,62.00217695,1.43009574
6534322b1c3b356fea530715,150,3,2024-02-24T08:32:43.973Z,french_734.wav,0,poule,263,34,5,5,Français,m,2,0.2,-55.547606,0.47319646
6534322b1c3b356fea530715,150,3,2024-02-24T08:32:43.973Z,french_734.wav,0,poule,263,34,5,5,Français,m,3,0.25666667,25.07561383,0.83118698
6534322b1c3b356fea530715,151,3,2024-02-24T08:32:43.973Z,french_796.wav,0,poule,209,34,5,5,Français,m,0,0.0,-38.09805788,1.93486201
6534322b1c3b356fea530715,151,3,2024-02-24T08:32:43.973Z,french_796.wav,0,poule,209,34,5,5,Français,m,1,0.1,-51.81358868,1.49994235
6534322b1c3b356fea530715,151,3,2024-02-24T08:32:43.973Z,french_796.wav,0,poule,209,34,5,5,Français,m,2,0.2,88.47322764,1.42581223
6534322b1c3b356fea530715,151,3,2024-02-24T08:32:43.973Z,french_796.wav,0,poule,209,34,5,5,Français,m,3,0.25666667,-34.90405205,0.47367866
6534322b1c3b356fea530715,152,3,2024-02-24T08:32:43.973Z,french_100.wav,0,poule,154,34,5,5,Français,m,0,0.0,-35.75508116,1.72997046
6534322b1c3b356fea530715,152,3,2024-02-24T08:32:43.973Z,french_100.wav,0,poule,154,34,5,5,Français,m,1,0.1,57.82815341,1.04300978
6534322b1c3b356fea530715,152,3,2024-02-24T08:32:43.973Z,french_100.wav,0,poule,154,34,5,5,Français,m,2,0.2,31.92112674,1.01595182
6534322b1c3b356fea530715,152,3,2024-02-24T08:32:43.973Z,french_100.wav,0,poule,154,34,5,5,Français,m,3,0.25666667,34.87308497,1.9286069
6534322b1c3b356fea530715,153,3,2024-02-24T08:32:43.973Z,french_67.wav,0,poule,255,34,5,5,Français,m,0,0.0,-85.58948589,0.63200809
6534322b1c3b356fea530715,153,3,2024-02-24T08:32:43.973Z,french_67.wav,0,poule,255,34,5,5,Français,m,1,0.1,13.09838054,1.95867716
6534322b1c3b356fea530715,153,3,2024-02-24T08:32:43.973Z,french_67.wav,0,poule,255,34,5,5,Français,m,2,0.2,-56.56906679,0.48937635
6534322b1c3b356fea530715,153,3,2024-02-24T08:32:43.973Z,french_67.wav,0,poule,255,34,5,5,Français,m,3,0.25666667,57.4599261,1.24156625
6534322b1c3b356fea530715,154,3,2024-02-24T08:32:43.973Z,french_220.wav,0,poule,333,34,5,5,Français,m,0,0.0,99.39862809,1.95391084
6534322b1c3b356fea530715,154,3,2024-02-24T08:32:43.973Z,french_220.wav,0,poule,333,34,5,5,Français,m,1,0.1,-16.44954754,1.60430152
6534322b1c3b356fea530715,154,3,2024-02-24T08:32:43.973Z,french_220.wav,0,poule,333,34,5,5,Français,m,2,0.2,-73.93109837,1.1953066
6534322b1c3b356fea530715,154,3,2024-02-24T08:32:43.973Z,french_220.wav,0,poule,333,34,5,5,Français,m,3,0.25666667,-37.75571533,0.34699919
6534322b1c3b356fea530715,155,3,2024-02-24T08:32:43.973Z,french_972.wav,0,poule,279,34,5,5,Français,m,0,0.0,10.38102426,0.90840989
6534322b1c3b356fea530715,155,3,2024-02-24T08:32:43.973Z,french_972.wav,0,poule,279,34,5,5,Français,m,1,0.1,-66.54271468,1.6485676
6534322b1c3b356fea530715,155,3,2024-02-24T08:32:43.973Z,french_972.wav,0,poule,279,34,5,5,Français,m,2,0.2,-2.89265523,0.79956718
6534322b1c3b356fea530715,155,3,2024-02-24T08:32:43.973Z,french_972.wav,0,poule,279,34,5,5,Français,m,3,0.25666667,-87.42126356,1.28352811
6534322b1c3b356fea530715,156,3,2024-02-24T08:32:43.973Z,french_613.wav,0,poule,300,34,5,5,Français,m,0,0.0,-39.45599103,0.33894647
6534322b1c3b356fea530715,156,3,2024-02-24T08:32:43.973Z,french_613.wav,0,poule,300,34,5,5,Français,m,1,0.1,37.73715393,0.28387009
6534322b1c3b356fea530715,156,3,2024-02-24T08:32:43.973Z,french_613.wav,0,poule,300,34,5,5,Français,m,2,0.2,-28.02237212,1.91952712
6534322b1c3b356fea530715,156,3,2024-02-24T08:32:43.973Z,french_613.wav,0,poule,300,34,5,5,Français,m,3,0.25666667,-24.74266242,0.2340562
6534322b1c3b356fea530715,157,3,2024-02-24T08:32:43.973Z,french_566.wav,0,poule,268,34,5,5,Français,m,0,0.0,64.79843522,1.40647024
6534322b1c3b356fea530715,157,3,2024-02-24T08:32:43.973Z,french_566.wav,0,poule,268,34,5,5,Français,m,1,0.1,34.55507538,1.25726542
6534322b1c3b356fea530715,157,3,2024-02-24T08:32:43.973Z,french_566.wav,0,poule,268,34,5,5,Français,m,2,0.2,88.9191899,0.22445964
6534322b1c3b356fea530715,157,3,2024-02-24T08:32:43.973Z,french_566.wav,0,poule,268,34,5,5,Français,m,3,0.25666667,20.7211509,0.73474601
6534322b1c3b356fea530715,158,3,2024-02-24T08:32:43.973Z,french_135.wav,0,poule,261,34,5,5,Français,m,0,0.0,-14.44114523,1.1198793
6534322b1c3b356fea530715,158,3,2024-02-24T08:32:43.973Z,french_135.wav,0,poule,261,34,5,5,Français,m,1,0.1,22.88033262,0.12707755
6534322b1c3b356fea530715,158,3,2024-02-24T08:32:43.973Z,french_135.wav,0,poule,261,34,5,5,Français,m,2,0.2,45.87784319,1.72429487
6534322b1c3b356fea530715,158,3,2024-02-24T08:32:43.973Z,french_135.wav,0,poule,261,34,5,5,Français,m,3,0.25666667,14.60103067,0.79769027
6534322b1c3b356fea530715,159,3,2024-02-24T08:32:43.973Z,french_573.wav,0,poule,259,34,5,5,Français,m,0,0.0,-82.60587544,1.7811252
6534322b1c3b356fea530715,159,3,2024-02-24T08:32:43.973Z,french_573.wav,0,poule,259,34,5,5,Français,m,1,0.1,24.10475325,1.67511136
6534322b1c3b356fea530715,159,3,2024-02-24T08:32:43.973Z,french_573.wav,0,poule,259,34,5,5,Français,m,2,0.2,12.83458345,1.07369657
6534322b1c3b356fea530715,159,3,2024-02-24T08:32:43.973Z,french_573.wav,0,poule,259,34,5,5,Français,m,3,0.25666667,-92.36985106,0.78659629
6534322b1c3b356fea530715,160,3,2024-02-24T08:32:43.973Z,french_63.wav,0,poule,269,34,5,5,Français,m,0,0.0,-81.8544396,0.29798693
6534322b1c3b356fea530715,160,3,2024-02-24T08:32:43.973Z,french_63.wav,0,poule,269,34,5,5,Français,m,1,0.1,15.35577337,0.29415435
6534322b1c3b356fea530715,160,3,2024-02-24T08:32:43.973Z,french_63.wav,0,poule,269,34,5,5,Français,m,2,0.2,-93.67975396,1.48728433
6534322b1c3b356fea530715,160,3,2024-02-24T08:32:43.973Z,french_63.wav,0,poule,269,34,5,5,Français,m,3,0.25666667,6.98256112,1.07216934
6534322b1c3b356fea530715,161,3,2024-02-24T08:32:43.973Z,french_926.wav,0,poule,463,34,5,5,Français,m,0,0.0,-38.30420493,1.0266732
6534322b1c3b356fea530715,161,3,2024-02-24T08:32:43.973Z,french_926.wav,0,poule,463,34,5,5,Français,m,1,0.1,-97.26803886,0.03873156
6534322b1c3b356fea530715,161,3,2024-02-24T08:32:43.973Z,french_926.wav,0,poule,463,34,5,5,Français,m,2,0.2,55.3544282,0.32593073
6534322b1c3b356fea530715,161,3,2024-02-24T08:32:43.973Z,french_926.wav,0,poule,463,34,5,5,Français,m,3,0.25666667,8.78644418,0.80695306
6534322b1c3b356fea530715,162,3,2024-02-24T08:32:43.973Z,french_208.wav,0,poule,1013,34,5,5,Français,m,0,0.0,8.68990421,0.76850137
6534322b1c3b356fea530715,162,3,2024-02-24T08:32:43.973Z,french_208.wav,0,poule,1013,34,5,5,Français,m,1,0.1,-43.18378372,1.33781212
6534322b1c3b356fea530715,162,3,2024-02-24T08:32:43.973Z,french_208.wav,0,poule,1013,34,5,5,Français,m,2,0.2,71.27860087,0.39946576
6534322b1c3b356fea530715,162,3,2024-02-24T08:32:43.973Z,french_208.wav,0,poule,1013,34,5,5,Français,m,3,0.25666667,-15.56799856,0.17788265
6534322b1c3b356fea530715,163,3,2024-02-24T08:32:43.973Z,french_803.wav,0,poule,969,34,5,5,Français,m,0,0.0,52.60083548,1.16065927
6534322b1c3b356fea530715,163,3,2024-02-24T08:32:43.973Z,french_803.wav,0,poule,969,34,5,5,Français,m,1,0.1,69.87806401,1.31848068
6534322b1c3b356fea530715,163,3,2024-02-24T08:32:43.973Z,french_803.wav,0,poule,969,34,5,5,Français,m,2,0.2,-5.78457695,1.09352717
6534322b1c3b356fea530715,163,3,2024-02-24T08:32:43.973Z,french_803.wav,0,poule,969,34,5,5,Français,m,3,0.25666667,80.81591727,0.48205773
6534322b1c3b356fea530715,164,3,2024-02-24T08:32:43.973Z,french_725.wav,0,poule,804,34,5,5,Français,m,0,0.0,61.28532458,0.86285292
6534322b1c3b356fea530715,164,3,2024-02-24T08:32:43.973Z,french_725.wav,0,poule,804,34,5,5,Français,m,1,0.1,25.43953492,0.5175718
6534322b1c3b356fea530715,164,3,2024-02-24T08:32:43.973Z,french_725.wav,0,poule,804,34,5,5,Français,m,2,0.2,31.92964858,1.72668514
6534322b1c3b356fea530715,164,3,2024-02-24T08:32:43.973Z,french_725.wav,0,poule,804,34,5,5,Français,m,3,0.25666667,-96.80759498,1.79225728
6534322b1c3b356fea530715,165,3,2024-02-24T08:32:43.973Z,french_892.wav,0,poule,418,34,5,5,Français,m,0,0.0,-9.89123065,1.43345907
6534322b1c3b356fea530715,165,3,2024-02-24T08:32:43.973Z,french_892.wav,0,poule,418,34,5,5,Français,m,1,0.1,-29.48301763,0.60115207
6534322b1c3b356fea530715,165,3,2024-02-24T08:32:43.973Z,french_892.wav,0,poule,418,34,5,5,Français,m,2,0.2,-20.12274852,0.51672516
6534322b1c3b356fea530715,165,3,2024-02-24T08:32:43.973Z,french_892.wav,0,poule,418,34,5,5,Français,m,3,0.25666667,-63.31716547,0.2983609
6534322b1c3b356fea530715,166,3,2024-02-24T08:32:43.973Z,french_195.wav,0,poule,340,34,5,5,Français,m,0,0.0,-1.90342588,0.62941576
6534322b1c3b356fea530715,166,3,2024-02-24T08:32:43.973Z,french_195.wav,0,poule,340,34,5,5,Français,m,1,0.1,-8.12665825,1.90753939
6534322b1c3b356fea530715,166,3,2024-02-24T08:32:43.973Z,french_195.wav,0,poule,340,34,5,5,Français,m,2,0.2,-5.61431002,1.47732259
6534322b1c3b356fea530715,166,3,2024-02-24T08:32:43.973Z,french_195.wav,0,poule,340,34,5,5,Français,m,3,0.25666667,-66.29175925,0.68212586
6534322b1c3b356fea530715,167,3,2024-02-24T08:32:43.973Z,french_108.wav,0,poule,239,34,5,5,Français,m,0,0.0,-38.50953818,1.14488094
6534322b1c3b356fea530715,167,3,2024-02-24T08:32:43.973Z,french_108.wav,0,poule,239,34,5,5,Français,m,1,0.1,44.47590219,1.3820118
6534322b1c3b356fea530715,167,3,2024-02-24T08:32:43.973Z,french_108.wav,0,poule,239,34,5,5,Français,m,2,0.2,35.73303492,1.04224754
6534322b1c3b356fea530715,167,3,2024-02-24T08:32:43.973Z,french_108.wav,0,poule,239,34,5,5,Français,m,3,0.25666667,-90.35369633,1.51933791
6534322b1c3b356fea530715,168,3,2024-02-24T08:32:43.973Z,french_8.wav,0,poule,311,34,5,5,Français,m,0,0.0,75.36204911,1.20802323
6534322b1c3b356fea530715,168,3,2024-02-24T08:32:43.973Z,french_8.wav,0,poule,311,34,5,5,Français,m,1,0.1,99.77980072,1.04694521
6534322b1c3b356fea530715,168,3,2024-02-24T08:32:43.973Z,french_8.wav,0,poule,311,34,5,5,Français,m,2,0.2,31.87407215,1.95307637
6534322b1c3b356fea530715,168,3,2024-02-24T08:32:43.973Z,french_8.wav,0,poule,311,34,5,5,Français,m,3,0.25666667,-3.14162979,0.34441347
6534322b1c3b356fea530715,169,3,2024-02-24T08:32:43.973Z,french_532.wav,0,poule,1995,34,5,5,Français,m,0,0.0,51.6664435,1.30171402
6534322b1c3b356fea530715,169,3,2024-02-24T08:32:43.973Z,french_532.wav,0,poule,1995,34,5,5,Français,m,1,0.1,12.38327687,0.03929558
6534322b1c3b356fea530715,169,3,2024-02-24T08:32:43.973Z,french_532.wav,0,poule,1995,34,5,5,Français,m,2,0.2,-89.35582175,1.38931331
6534322b1c3b356fea530715,169,3,2024-02-24T08:32:43.973Z,french_532.wav,0,poule,1995,34,5,5,Français,m,3,0.25666667,25.37493155,0.74157834
6534322b1c3b356fea530715,170,3,2024-02-24T08:32:43.973Z,french_197.wav,0,poule,1236,34,5,5,Français,m,0,0.0,-6.69305154,1.22063961
6534322b1c3b356fea530715,170,3,2024-02-24T08:32:43.973Z,french_197.wav,0,poule,1236,34,5,5,Français,m,1,0.1,23.33285596,0.20505699
6534322b1c3b356fea530715,170,3,2024-02-24T08:32:43.973Z,french_197.wav,0,poule,1236,34,5,5,Français,m,2,0.2,-47.26714808,1.45150796
6534322b1c3b356fea530715,170,3,2024-02-24T08:32:43.973Z,french_197.wav,0,poule,1236,34,5,5,Français,m,3,0.25666667,-64.80738279,0.00954455
6534322b1c3b356fea530715,171,3,2024-02-24T08:32:43.973Z,french_836.wav,0,poule,340,34,5,5,Français,m,0,0.0,40.23641464,0.42377088
6534322b1c3b356fea530715,171,3,2024-02-24T08:32:43.973Z,french_836.wav,0,poule,340,34,5,5,Français,m,1,0.1,53.79535187,0.63943013
6534322b1c3b356fea530715,171,3,2024-02-24T08:32:43.973Z,french_836.wav,0,poule,340,34,5,5,Français,m,2,0.2,-4.0789246,1.19242466
6534322b1c3b356fea530715,171,3,2024-02-24T08:32:43.973Z,french_836.wav,0,poule,340,34,5,5,Français,m,3,0.25666667,3.8536211,1.488673
6534322b1c3b356fea530715,172,3,2024-02-24T08:32:43.973Z,french_651.wav,0,poule,544,34,5,5,Français,m,0,0.0,-39.76270633,0.57054307
6534322b1c3b356fea530715,172,3,2024-02-24T08:32:43.973Z,french_651.wav,0,poule,544,34,5,5,Français,m,1,0.1,98.43983978,0.47887101
6534322b1c3b356fea530715,172,3,2024-02-24T08:32:43.973Z,french_651.wav,0,poule,544,34,5,5,Français,m,2,0.2,-35.93188367,1.36476361
6534322b1c3b356fea530715,172,3,2024-02-24T08:32:43.973Z,french_651.wav,0,poule,544,34,5,5,Français,m,3,0.25666667,-13.56550518,1.70592369
6534322b1c3b356fea530715,173,3,2024-02-24T08:32:43.973Z,french_995.wav,0,pull,1345,34,5,5,Français,m,0,0.0,-29.39777781,0.04069973
6534322b1c3b356fea530715,173,3,2024-02-24T08:32:43.973Z,french_995.wav,0,pull,1345,34,5,5,Français,m,1,0.1,22.57403903,0.75529124
6534322b1c3b356fea530715,173,3,2024-02-24T08:32:43.973Z,french_995.wav,0,pull,1345,34,5,5,Français,m,2,0.2,-65.41348422,0.72194837
6534322b1c3b356fea530715,173,3,2024-02-24T08:32:43.973Z,french_995.wav,0,pull,1345,34,5,5,Français,m,3,0.25666667,24.23364448,0.85657711
6534322b1c3b356fea530715,174,3,2024-02-24T08:32:43.973Z,french_688.wav,0,poule,3899,34,5,5,Français,m,0,0.0,-12.19437797,1.87578392
6534322b1c3b356fea530715,174,3,2024-02-24T08:32:43.973Z,french_688.wav,0,poule,3899,34,5,5,Français,m,1,0.1,-70.42225937,1.69222134
6534322b1c3b356fea530715,174,3,2024-02-24T08:32:43.973Z,french_688.wav,0,poule,3899,34,5,5,Français,m,2,0.2,-86.95466997,1.82069748
6534322b1c3b356fea530715,174,3,2024-02-24T08:32:43.973Z,french_688.wav,0,poule,3899,34,5,5,Français,m,3,0.25666667,-17.4398035,1.64542948
6534322b1c3b356fea530715,175,3,2024-02-24T08:32:43.973Z,french_798.wav,0,poule,170,34,5,5,Français,m,0,0.0,80.80013175,1.56222047
6534322b1c3b356fea530715,175,3,2024-02-24T08:32:43.973Z,french_798.wav,0,poule,170,34,5,5,Français,m,1,0.1,8.18850232,1.67765441
6534322b1c3b356fea530715,175,3,2024-02-24T08:32:43.973Z,french_798.wav,0,poule,170,34,5,5,Français,m,2,0.2,-10.54144101,1.93747014
6534322b1c3b356fea530715,175,3,2024-02-24T08:32:43.973Z,french_798.wav,0,poule,170,34,5,5,Français,m,3,0.25666667,26.86908184,1.76378238
6534322b1c3b356fea530715,176,3,2024-02-24T08:32:43.973Z,french_918.wav,0,poule,265,34,5,5,Français,m,0,0.0,73.93932449,1.12285198
6534322b1c3b356fea530715,176,3,2024-02-24T08:32:43.973Z,french_918.wav,0,poule,265,34,5,5,Français,m,1,0.1,-96.38016005,0.52569443
6534322b1c3b356fea530715,176,3,2024-02-24T08:32:43.973Z,french_918.wav,0,poule,265,34,5,5,Français,m,2,0.2,52.71903464,1.01384132
6534322b1c3b356fea530715,176,3,2024-02-24T08:32:43.973Z,french_918.wav,0,poule,265,34,5,5,Français,m,3,0.25666667,71.89996729,0.74683012
6534322b1c3b356fea530715,177,3,2024-02-24T08:32:43.973Z,french_611.wav,0,poule,373,34,5,5,Français,m,0,0.0,-21.77805362,0.549449
6534322b1c3b356fea530715,177,3,2024-02-24T08:32:43.973Z,french_611.wav,0,poule,373,34,5,5,Français,m,1,0.1,-45.2722057,0.20224538
6534322b1c3b356fea530715,177,3,2024-02-24T08:32:43.973Z,french_611.wav,0,poule,373,34,5,5,Français,m,2,0.2,67.02777506,1.0051208
6534322b1c3b356fea530715,177,3,2024-02-24T08:32:43.973Z,french_611.wav,0,poule,373,34,5,5,Français,m,3,0.25666667,-75.35716628,1.31223223
6534322b1c3b356fea530715,178,3,2024-02-24T08:32:43.973Z,french_536.wav,0,poule,415,34,5,5,Français,m,0,0.0,68.67423581,1.72386473
6534322b1c3b356fea530715,178,3,2024-02-24T08:32:43.973Z,french_536.wav,0,poule,415,34,5,5,Français,m,1,0.1,-41.0053329,0.5365144
6534322b1c3b356fea530715,178,3,2024-02-24T08:32:43.973Z,french_536.wav,0,poule,415,34,5,5,Français,m,2,0.2,83.63020031,1.03248729
6534322b1c3b356fea530715,178,3,2024-02-24T08:32:43.973Z,french_536.wav,0,poule,415,34,5,5,Français,m,3,0.25666667,91.23175369,0.91736707
6534322b1c3b356fea530715,179,3,2024-02-24T08:32:43.973Z,french_603.wav,0,poule,311,34,5,5,Français,m,0,0.0,59.84554137,1.0661988
6534322b1c3b356fea530715,179,3,2024-02-24T08:32:43.973Z,french_603.wav,0,poule,311,34,5,5,Français,m,1,0.1,16.50437024,1.9988244
6534322b1c3b356fea530715,179,3,2024-02-24T08:32:43.973Z,french_603.wav,0,poule,311,34,5,5,Français,m,2,0.2,38.82252298,0.61428719
6534322b1c3b356fea530715,179,3,2024-02-24T08:32:43.973Z,french_603.wav,0,poule,311,34,5,5,Français,m,3,0.25666667,25.72688984,0.58715273
6534322b1c3b356fea530715,180,3,2024-02-24T08:32:43.973Z,french_739.wav,0,poule,263,34,5,5,Français,m,0,0.0,-65.51142402,1.38110817
6534322b1c3b356fea530715,180,3,2024-02-24T08:32:43.973Z,french_739.wav,0,poule,263,34,5,5,Français,m,1,0.1,67.74002461,1.74639645
6534322b1c3b356fea530715,180,3,2024-02-24T08:32:43.973Z,french_739.wav,0,poule,263,34,5,5,Français,m,2,0.2,-44.34086757,0.59251892
6534322b1c3b356fea530715,180,3,2024-02-24T08:32:43.973Z,french_739.wav,0,poule,263,34,5,5,Français,m,3,0.25666667,26.46822732,0.96604097
6534322b1c3b356fea530715,181,3,2024-02-24T08:32:43.973Z,french_193.wav,0,poule,406,34,5,5,Français,m,0,0.0,-28.32639357,1.40536398
6534322b1c3b356fea530715,181,3,2024-02-24T08:32:43.973Z,french_193.wav,0,poule,406,34,5,5,Français,m,1,0.1,-28.26139456,0.96467568
6534322b1c3b356fea530715,181,3,2024-02-24T08:32:43.973Z,french_193.wav,0,poule,406,34,5,5,Français,m,2,0.2,-57.21870996,1.12687293
6534322b1c3b356fea530715,181,3,2024-02-24T08:32:43.973Z,french_193.wav,0,poule,406,34,5,5,Français,m,3,0.25666667,-51.4120543,0.49094377
6534322b1c3b356fea530715,182,3,2024-02-24T08:32:43.973Z,french_281.wav,0,poule,713,34,5,5,Français,m,0,0.0,4.01359856,1.28629226
6534322b1c3b356fea530715,182,3,2024-02-24T08:32:43.973Z,french_281.wav,0,poule,713,34,5,5,Français,m,1,0.1,1.45942388,0.42556587
6534322b1c3b356fea530715,182,3,2024-02-24T08:32:43.973Z,french_281.wav,0,poule,713,34,5,5,Français,m,2,0.2,95.6401263,0.86080411
6534322b1c3b356fea530715,182,3,2024-02-24T08:32:43.973Z,french_281.wav,0,poule,713,34,5,5,Français,m,3,0.25666667,25.46106052,1.04114743
6534322b1c3b356fea530715,183,3,2024-02-24T08:32:43.973Z,french_993.wav,0,poule,266,34,5,5,Français,m,0,0.0,3.12847982,1.75015027
6534322b1c3b356fea530715,183,3,2024-02-24T08:32:43.973Z,french_993.wav,0,poule,266,34,5,5,Français,m,1,0.1,-78.95304083,0.83743251
6534322b1c3b356fea530715,183,3,2024-02-24T08:32:43.973Z,french_993.wav,0,poule,266,34,5,5,Français,m,2,0.2,-13.84245357,0.53594991
6534322b1c3b356fea530715,183,3,2024-02-24T08:32:43.973Z,french_993.wav,0,poule,266,34,5,5,Français,m,3,0.25666667,66.66979397,1.46895698
6534322b1c3b356fea530715,184,3,2024-02-24T08:32:43.973Z,french_722.wav,0,pull,554,34,5,5,Français,m,0,0.0,60.56599831,1.86075077
6534322b1c3b356fea530715,184,3,2024-02-24T08:32:43.973Z,french_722.wav,0,pull,554,34,5,5,Français,m,1,0.1,-62.73703536,0.80738175
6534322b1c3b356fea530715,184,3,2024-02-24T08:32:43.973Z,french_722.wav,0,pull,554,34,5,5,Français,m,2,0.2,-66.13157344,0.80798992
6534322b1c3b356fea530715,184,3,2024-02-24T08:32:43.973Z,french_722.wav,0,pull,554,34,5,5,Français,m,3,0.25666667,59.05774632,0.27445487
6534322b1c3b356fea530715,185,3,2024-02-24T08:32:43.973Z,french_506.wav,0,poule,1087,34,5,5,Français,m,0,0.0,-29.72839746,0.56251
6534322b1c3b356fea530715,185,3,2024-02-24T08:32:43.973Z,french_506.wav,0,poule,1087,34,5,5,Français,m,1,0.1,-47.17385777,1.58526303
6534322b1c3b356fea530715,185,3,2024-02-24T08:32:43.973Z,french_506.wav,0,poule,1087,34,5,5,Français,m,2,0.2,-30.03244322,0.59604728
6534322b1c3b356fea530715,185,3,2024-02-24T08:32:43.973Z,french_506.wav,0,poule,1087,34,5,5,Français,m,3,0.25666667,17.7760196,1.67426799
6534322b1c3b356fea530715,186,3,2024-02-24T08:32:43.973Z,french_450.wav,0,poule,1017,34,5,5,Français,m,0,0.0,32.27162082,0.11495553
6534322b1c3b356fea530715,186,3,2024-02-24T08:32:43.973Z,french_450.wav,0,poule,1017,34,5,5,Français,m,1,0.1,-17.74326064,0.2876958
6534322b1c3b356fea530715,186,3,2024-02-24T08:32:43.973Z,french_450.wav,0,poule,1017,34,5,5,Français,m,2,0.2,22.97944113,0.75841823
6534322b1c3b356fea530715,186,3,2024-02-24T08:32:43.973Z,french_450.wav,0,poule,1017,34,5,5,Français,m,3,0.25666667,-64.06857585,0.46502657
6534322b1c3b356fea530715,187,3,2024-02-24T08:32:43.973Z,french_299.wav,0,pull,473,34,5,5,Français,m,0,0.0,12.52470623,1.64482663
6534322b1c3b356fea530715,187,3,2024-02-24T08:32:43.973Z,french_299.wav,0,pull,473,34,5,5,Français,m,1,0.1,-97.26544336,1.84069115
6534322b1c3b356fea530715,187,3,2024-02-24T08:32:43.973Z,french_299.wav,0,pull,473,34,5,5,Français,m,2,0.2,-80.62903972,0.25110426
6534322b1c3b356fea530715,187,3,2024-02-24T08:32:43.973Z,french_299.wav,0,pull,473,34,5,5,Français,m,3,0.25666667,73.47257664,1.45765737
6534322b1c3b356fea530715,188,3,2024-02-24T08:32:43.973Z,french_979.wav,0,poule,664,34,5,5,Français,m,0,0.0,58.05333973,1.60321768
6534322b1c3b356fea530715,188,3,2024-02-24T08:32:43.973Z,french_979.wav,0,poule,664,34,5,5,Français,m,1,0.1,-10.78982684,0.5155038
6534322b1c3b356fea530715,188,3,2024-02-24T08:32:43.973Z,french_979.wav,0,poule,664,34,5,5,Français,m,2,0.2,-1.76147191,0.80270828
6534322b1c3b356fea530715,188,3,2024-02-24T08:32:43.973Z,french_979.wav,0,poule,664,34,5,5,Français,m,3,0.25666667,35.54131035,0.30870089
6534322b1c3b356fea530715,189,3,2024-02-24T08:32:43.973Z,french_171.wav,0,poule,472,34,5,5,Français,m,0,0.0,13.3023016,1.00497926
6534322b1c3b356fea530715,189,3,2024-02-24T08:32:43.973Z,french_171.wav,0,poule,472,34,5,5,Français,m,1,0.1,25.29505215,0.58011724
6534322b1c3b356fea530715,189,3,2024-02-24T08:32:43.973Z,french_171.wav,0,poule,472,34,5,5,Français,m,2,0.2,-4.58061697,1.99843941
6534322b1c3b356fea530715,189,3,2024-02-24T08:32:43.973Z,french_171.wav,0,poule,472,34,5,5,Français,m,3,0.25666667,34.76288366,1.29013512
