subj,trial,block,date,stim,stim_order,response,rt,age,english,french,language,sex,param_index,segment,pitch,stretch
5cfd119645e1a20001883ee6,0,0,2024-02-24T08:49:47.512Z,french_242.wav,0,pull,5213,27,5,5,français,f,0,0.0,19.1317605,0.13091957
5cfd119645e1a20001883ee6,0,0,2024-02-24T08:49:47.512Z,french_242.wav,0,pull,5213,27,5,5,français,f,1,0.1,-45.8995637,1.80487076
5cfd119645e1a20001883ee6,0,0,2024-02-24T08:49:47.512Z,french_242.wav,0,pull,5213,27,5,5,français,f,2,0.2,0.0160089686,1.56599149
5cfd119645e1a20001883ee6,0,0,2024-02-24T08:49:47.512Z,french_242.wav,0,pull,5213,27,5,5,français,f,3,0.256666667,88.294087,1.35043951
5cfd119645e1a20001883ee6,1,0,2024-02-24T08:49:47.512Z,french_506.wav,0,pull,1453,27,5,5,français,f,0,0.0,-29.72839746,0.56251
5cfd119645e1a20001883ee6,1,0,2024-02-24T08:49:47.512Z,french_506.wav,0,pull,1453,27,5,5,français,f,1,0.1,-47.17385777,1.58526303
5cfd119645e1a20001883ee6,1,0,2024-02-24T08:49:47.512Z,french_506.wav,0,pull,1453,27,5,5,français,f,2,0.2,-30.03244322,0.59604728
5cfd119645e1a20001883ee6,1,0,2024-02-24T08:49:47.512Z,french_506.wav,0,pull,1453,27,5,5,français,f,3,0.25666667,17.7760196,1.67426799
5cfd119645e1a20001883ee6,2,0,2024-02-24T08:49:47.512Z,french_976.wav,0,poule,1949,27,5,5,français,f,0,0.0,-70.02335232,0.30263581
5cfd119645e1a20001883ee6,2,0,2024-02-24T08:49:47.512Z,french_976.wav,0,poule,1949,27,5,5,français,f,1,0.1,-61.25816472,1.77513966
5cfd119645e1a20001883ee6,2,0,2024-02-24T08:49:47.512Z,french_976.wav,0,poule,1949,27,5,5,français,f,2,0.2,38.21349803,0.48920434
5cfd119645e1a20001883ee6,2,0,2024-02-24T08:49:47.512Z,french_976.wav,0,poule,1949,27,5,5,français,f,3,0.25666667,27.10323863,1.97348905
5cfd119645e1a20001883ee6,3,0,2024-02-24T08:49:47.512Z,french_299.wav,0,poule,901,27,5,5,français,f,0,0.0,12.52470623,1.64482663
5cfd119645e1a20001883ee6,3,0,2024-02-24T08:49:47.512Z,french_299.wav,0,poule,901,27,5,5,français,f,1,0.1,-97.26544336,1.84069115
5cfd119645e1a20001883ee6,3,0,2024-02-24T08:49:47.512Z,french_299.wav,0,poule,901,27,5,5,français,f,2,0.2,-80.62903972,0.25110426
5cfd119645e1a20001883ee6,3,0,2024-02-24T08:49:47.512Z,french_299.wav,0,poule,901,27,5,5,français,f,3,0.25666667,73.47257664,1.45765737
5cfd119645e1a20001883ee6,4,0,2024-02-24T08:49:47.512Z,french_102.wav,0,poule,1219,27,5,5,français,f,0,0.0,-35.05732124,0.80503012
5cfd119645e1a20001883ee6,4,0,2024-02-24T08:49:47.512Z,french_102.wav,0,poule,1219,27,5,5,français,f,1,0.1,-31.3998515,0.92419399
5cfd119645e1a20001883ee6,4,0,2024-02-24T08:49:47.512Z,french_102.wav,0,poule,1219,27,5,5,français,f,2,0.2,50.13452687,0.90539345
5cfd119645e1a20001883ee6,4,0,2024-02-24T08:49:47.512Z,french_102.wav,0,poule,1219,27,5,5,français,f,3,0.25666667,-7.4892707,1.70363197
5cfd119645e1a20001883ee6,5,0,2024-02-24T08:49:47.512Z,french_540.wav,0,poule,871,27,5,5,français,f,0,0.0,64.41538276,0.51709462
5cfd119645e1a20001883ee6,5,0,2024-02-24T08:49:47.512Z,french_540.wav,0,poule,871,27,5,5,français,f,1,0.1,17.02048616,1.30376576
5cfd119645e1a20001883ee6,5,0,2024-02-24T08:49:47.512Z,french_540.wav,0,poule,871,27,5,5,français,f,2,0.2,-33.22379056,0.40148031
5cfd119645e1a20001883ee6,5,0,2024-02-24T08:49:47.512Z,french_540.wav,0,poule,871,27,5,5,français,f,3,0.25666667,6.66749413,1.14865781
5cfd119645e1a20001883ee6,6,0,2024-02-24T08:49:47.512Z,french_645.wav,0,poule,631,27,5,5,français,f,0,0.0,39.28095882,1.44479402
5cfd119645e1a20001883ee6,6,0,2024-02-24T08:49:47.512Z,french_645.wav,0,poule,631,27,5,5,français,f,1,0.1,36.97709506,1.97267477
5cfd119645e1a20001883ee6,6,0,2024-02-24T08:49:47.512Z,french_645.wav,0,poule,631,27,5,5,français,f,2,0.2,-20.56368862,0.33303832
5cfd119645e1a20001883ee6,6,0,2024-02-24T08:49:47.512Z,french_645.wav,0,poule,631,27,5,5,français,f,3,0.25666667,45.13755494,0.87530899
5cfd119645e1a20001883ee6,7,0,2024-02-24T08:49:47.512Z,french_824.wav,0,poule,699,27,5,5,français,f,0,0.0,95.58094713,1.84230129
5cfd119645e1a20001883ee6,7,0,2024-02-24T08:49:47.512Z,french_824.wav,0,poule,699,27,5,5,français,f,1,0.1,-47.05258515,1.74244762
5cfd119645e1a20001883ee6,7,0,2024-02-24T08:49:47.512Z,french_824.wav,0,poule,699,27,5,5,français,f,2,0.2,43.18521816,1.04703492
5cfd119645e1a20001883ee6,7,0,2024-02-24T08:49:47.512Z,french_824.wav,0,poule,699,27,5,5,français,f,3,0.25666667,-5.69582576,0.75358401
5cfd119645e1a20001883ee6,8,0,2024-02-24T08:49:47.512Z,french_65.wav,0,poule,690,27,5,5,français,f,0,0.0,-17.53877645,1.80859796
5cfd119645e1a20001883ee6,8,0,2024-02-24T08:49:47.512Z,french_65.wav,0,poule,690,27,5,5,français,f,1,0.1,77.85789868,1.24255314
5cfd119645e1a20001883ee6,8,0,2024-02-24T08:49:47.512Z,french_65.wav,0,poule,690,27,5,5,français,f,2,0.2,16.40180032,1.28894604
5cfd119645e1a20001883ee6,8,0,2024-02-24T08:49:47.512Z,french_65.wav,0,poule,690,27,5,5,français,f,3,0.25666667,56.20856175,0.80043142
5cfd119645e1a20001883ee6,9,0,2024-02-24T08:49:47.512Z,french_543.wav,0,pull,1379,27,5,5,français,f,0,0.0,99.95964938,0.10365101
5cfd119645e1a20001883ee6,9,0,2024-02-24T08:49:47.512Z,french_543.wav,0,pull,1379,27,5,5,français,f,1,0.1,62.1224346,1.02026934
5cfd119645e1a20001883ee6,9,0,2024-02-24T08:49:47.512Z,french_543.wav,0,pull,1379,27,5,5,français,f,2,0.2,-10.06540024,0.56488883
5cfd119645e1a20001883ee6,9,0,2024-02-24T08:49:47.512Z,french_543.wav,0,pull,1379,27,5,5,français,f,3,0.25666667,-5.35888672,0.3884986
5cfd119645e1a20001883ee6,10,0,2024-02-24T08:49:47.512Z,french_375.wav,0,pull,2353,27,5,5,français,f,0,0.0,25.91972282,0.89929791
5cfd119645e1a20001883ee6,10,0,2024-02-24T08:49:47.512Z,french_375.wav,0,pull,2353,27,5,5,français,f,1,0.1,-60.98407933,0.6101435
5cfd119645e1a20001883ee6,10,0,2024-02-24T08:49:47.512Z,french_375.wav,0,pull,2353,27,5,5,français,f,2,0.2,-55.02276561,1.65353502
5cfd119645e1a20001883ee6,10,0,2024-02-24T08:49:47.512Z,french_375.wav,0,pull,2353,27,5,5,français,f,3,0.25666667,50.70039074,0.66964756
5cfd119645e1a20001883ee6,11,0,2024-02-24T08:49:47.512Z,french_835.wav,0,pull,1687,27,5,5,français,f,0,0.0,-1.43190356,0.4805844
5cfd119645e1a20001883ee6,11,0,2024-02-24T08:49:47.512Z,french_835.wav,0,pull,1687,27,5,5,français,f,1,0.1,-99.33286499,1.12822193
5cfd119645e1a20001883ee6,11,0,2024-02-24T08:49:47.512Z,french_835.wav,0,pull,1687,27,5,5,français,f,2,0.2,34.34373885,1.41477947
5cfd119645e1a20001883ee6,11,0,2024-02-24T08:49:47.512Z,french_835.wav,0,pull,1687,27,5,5,français,f,3,0.25666667,39.86329231,0.63497531
5cfd119645e1a20001883ee6,12,0,2024-02-24T08:49:47.512Z,french_946.wav,0,poule,1037,27,5,5,français,f,0,0.0,-59.20376503,1.07432488
5cfd119645e1a20001883ee6,12,0,2024-02-24T08:49:47.512Z,french_946.wav,0,poule,1037,27,5,5,français,f,1,0.1,41.31347152,0.26624757
5cfd119645e1a20001883ee6,12,0,2024-02-24T08:49:47.512Z,french_946.wav,0,poule,1037,27,5,5,français,f,2,0.2,-58.18080138,0.53636085
5cfd119645e1a20001883ee6,12,0,2024-02-24T08:49:47.512Z,french_946.wav,0,poule,1037,27,5,5,français,f,3,0.25666667,-28.00273528,1.77786979
5cfd119645e1a20001883ee6,13,0,2024-02-24T08:49:47.512Z,french_399.wav,0,poule,811,27,5,5,français,f,0,0.0,60.88638106,0.92905576
5cfd119645e1a20001883ee6,13,0,2024-02-24T08:49:47.512Z,french_399.wav,0,poule,811,27,5,5,français,f,1,0.1,69.51712014,1.13956386
5cfd119645e1a20001883ee6,13,0,2024-02-24T08:49:47.512Z,french_399.wav,0,poule,811,27,5,5,français,f,2,0.2,11.9354414,0.89341089
5cfd119645e1a20001883ee6,13,0,2024-02-24T08:49:47.512Z,french_399.wav,0,poule,811,27,5,5,français,f,3,0.25666667,71.82951649,1.81253855
5cfd119645e1a20001883ee6,14,0,2024-02-24T08:49:47.512Z,french_393.wav,0,poule,2030,27,5,5,français,f,0,0.0,-4.17853165,1.11841435
5cfd119645e1a20001883ee6,14,0,2024-02-24T08:49:47.512Z,french_393.wav,0,poule,2030,27,5,5,français,f,1,0.1,-52.7672758,1.14982518
5cfd119645e1a20001883ee6,14,0,2024-02-24T08:49:47.512Z,french_393.wav,0,poule,2030,27,5,5,français,f,2,0.2,-35.65632354,1.99911749
5cfd119645e1a20001883ee6,14,0,2024-02-24T08:49:47.512Z,french_393.wav,0,poule,2030,27,5,5,français,f,3,0.25666667,-38.23501308,0.07284053
5cfd119645e1a20001883ee6,15,0,2024-02-24T08:49:47.512Z,french_111.wav,0,poule,847,27,5,5,français,f,0,0.0,1.59326178,0.67104434
5cfd119645e1a20001883ee6,15,0,2024-02-24T08:49:47.512Z,french_111.wav,0,poule,847,27,5,5,français,f,1,0.1,-40.8911656,0.22448148
5cfd119645e1a20001883ee6,15,0,2024-02-24T08:49:47.512Z,french_111.wav,0,poule,847,27,5,5,français,f,2,0.2,-66.59771714,1.3255008
5cfd119645e1a20001883ee6,15,0,2024-02-24T08:49:47.512Z,french_111.wav,0,poule,847,27,5,5,français,f,3,0.25666667,93.67842788,0.49085037
5cfd119645e1a20001883ee6,16,0,2024-02-24T08:49:47.512Z,french_387.wav,0,poule,1667,27,5,5,français,f,0,0.0,-24.2271051,0.1957751
5cfd119645e1a20001883ee6,16,0,2024-02-24T08:49:47.512Z,french_387.wav,0,poule,1667,27,5,5,français,f,1,0.1,-69.58889879,0.86781049
5cfd119645e1a20001883ee6,16,0,2024-02-24T08:49:47.512Z,french_387.wav,0,poule,1667,27,5,5,français,f,2,0.2,21.02997226,1.73501265
5cfd119645e1a20001883ee6,16,0,2024-02-24T08:49:47.512Z,french_387.wav,0,poule,1667,27,5,5,français,f,3,0.25666667,58.82746302,1.75042849
5cfd119645e1a20001883ee6,17,0,2024-02-24T08:49:47.512Z,french_371.wav,0,poule,687,27,5,5,français,f,0,0.0,31.80119749,0.65227963
5cfd119645e1a20001883ee6,17,0,2024-02-24T08:49:47.512Z,french_371.wav,0,poule,687,27,5,5,français,f,1,0.1,-38.52135119,1.80763105
5cfd119645e1a20001883ee6,17,0,2024-02-24T08:49:47.512Z,french_371.wav,0,poule,687,27,5,5,français,f,2,0.2,9.85895876,1.44692227
5cfd119645e1a20001883ee6,17,0,2024-02-24T08:49:47.512Z,french_371.wav,0,poule,687,27,5,5,français,f,3,0.25666667,79.11511398,1.12716888
5cfd119645e1a20001883ee6,18,0,2024-02-24T08:49:47.512Z,french_756.wav,0,pull,1637,27,5,5,français,f,0,0.0,35.62001521,0.86430693
5cfd119645e1a20001883ee6,18,0,2024-02-24T08:49:47.512Z,french_756.wav,0,pull,1637,27,5,5,français,f,1,0.1,29.8199127,1.17673467
5cfd119645e1a20001883ee6,18,0,2024-02-24T08:49:47.512Z,french_756.wav,0,pull,1637,27,5,5,français,f,2,0.2,-2.36977437,1.63370718
5cfd119645e1a20001883ee6,18,0,2024-02-24T08:49:47.512Z,french_756.wav,0,pull,1637,27,5,5,français,f,3,0.25666667,-73.14220453,1.98740672
5cfd119645e1a20001883ee6,19,0,2024-02-24T08:49:47.512Z,french_934.wav,0,pull,2771,27,5,5,français,f,0,0.0,-9.72159443,1.08583672
5cfd119645e1a20001883ee6,19,0,2024-02-24T08:49:47.512Z,french_934.wav,0,pull,2771,27,5,5,français,f,1,0.1,-11.38125641,0.99463139
5cfd119645e1a20001883ee6,19,0,2024-02-24T08:49:47.512Z,french_934.wav,0,pull,2771,27,5,5,français,f,2,0.2,-15.93762726,1.46206623
5cfd119645e1a20001883ee6,19,0,2024-02-24T08:49:47.512Z,french_934.wav,0,pull,2771,27,5,5,français,f,3,0.25666667,-19.962769,1.59629023
5cfd119645e1a20001883ee6,20,0,2024-02-24T08:49:47.512Z,french_1.wav,0,poule,1983,27,5,5,français,f,0,0.0,91.87409443,0.51984737
5cfd119645e1a20001883ee6,20,0,2024-02-24T08:49:47.512Z,french_1.wav,0,poule,1983,27,5,5,français,f,1,0.1,-48.89112434,0.07214845
5cfd119645e1a20001883ee6,20,0,2024-02-24T08:49:47.512Z,french_1.wav,0,poule,1983,27,5,5,français,f,2,0.2,27.67932603,1.75660136
5cfd119645e1a20001883ee6,20,0,2024-02-24T08:49:47.512Z,french_1.wav,0,poule,1983,27,5,5,français,f,3,0.25666667,13.64945055,0.58315139
5cfd119645e1a20001883ee6,21,0,2024-02-24T08:49:47.512Z,french_101.wav,0,poule,571,27,5,5,français,f,0,0.0,2.45558497,0.33272101
5cfd119645e1a20001883ee6,21,0,2024-02-24T08:49:47.512Z,french_101.wav,0,poule,571,27,5,5,français,f,1,0.1,-89.46857105,1.30167387
5cfd119645e1a20001883ee6,21,0,2024-02-24T08:49:47.512Z,french_101.wav,0,poule,571,27,5,5,français,f,2,0.2,26.84471845,0.45771198
5cfd119645e1a20001883ee6,21,0,2024-02-24T08:49:47.512Z,french_101.wav,0,poule,571,27,5,5,français,f,3,0.25666667,-40.2942876,1.30875705
5cfd119645e1a20001883ee6,22,0,2024-02-24T08:49:47.512Z,french_765.wav,0,poule,787,27,5,5,français,f,0,0.0,37.74619949,1.94846132
5cfd119645e1a20001883ee6,22,0,2024-02-24T08:49:47.512Z,french_765.wav,0,poule,787,27,5,5,français,f,1,0.1,35.79177818,0.74629838
5cfd119645e1a20001883ee6,22,0,2024-02-24T08:49:47.512Z,french_765.wav,0,poule,787,27,5,5,français,f,2,0.2,-4.82792988,1.12672767
5cfd119645e1a20001883ee6,22,0,2024-02-24T08:49:47.512Z,french_765.wav,0,poule,787,27,5,5,français,f,3,0.25666667,-29.99687949,0.50330326
5cfd119645e1a20001883ee6,23,0,2024-02-24T08:49:47.512Z,french_574.wav,0,poule,949,27,5,5,français,f,0,0.0,-78.43657591,1.27247015
5cfd119645e1a20001883ee6,23,0,2024-02-24T08:49:47.512Z,french_574.wav,0,poule,949,27,5,5,français,f,1,0.1,25.16959944,0.78898338
5cfd119645e1a20001883ee6,23,0,2024-02-24T08:49:47.512Z,french_574.wav,0,poule,949,27,5,5,français,f,2,0.2,42.97785019,1.49121094
5cfd119645e1a20001883ee6,23,0,2024-02-24T08:49:47.512Z,french_574.wav,0,poule,949,27,5,5,français,f,3,0.25666667,77.36764491,0.68004104
5cfd119645e1a20001883ee6,24,0,2024-02-24T08:49:47.512Z,french_568.wav,0,poule,577,27,5,5,français,f,0,0.0,-18.10302265,1.34189827
5cfd119645e1a20001883ee6,24,0,2024-02-24T08:49:47.512Z,french_568.wav,0,poule,577,27,5,5,français,f,1,0.1,9.93139794,1.47029794
5cfd119645e1a20001883ee6,24,0,2024-02-24T08:49:47.512Z,french_568.wav,0,poule,577,27,5,5,français,f,2,0.2,91.46195775,0.17269775
5cfd119645e1a20001883ee6,24,0,2024-02-24T08:49:47.512Z,french_568.wav,0,poule,577,27,5,5,français,f,3,0.25666667,56.10040773,1.22679594
5cfd119645e1a20001883ee6,25,0,2024-02-24T08:49:47.512Z,french_767.wav,0,pull,1370,27,5,5,français,f,0,0.0,91.79298807,1.15796888
5cfd119645e1a20001883ee6,25,0,2024-02-24T08:49:47.512Z,french_767.wav,0,pull,1370,27,5,5,français,f,1,0.1,-10.9319541,0.37743288
5cfd119645e1a20001883ee6,25,0,2024-02-24T08:49:47.512Z,french_767.wav,0,pull,1370,27,5,5,français,f,2,0.2,-18.13246944,1.06132115
5cfd119645e1a20001883ee6,25,0,2024-02-24T08:49:47.512Z,french_767.wav,0,pull,1370,27,5,5,français,f,3,0.25666667,-6.11346908,0.41668969
5cfd119645e1a20001883ee6,26,0,2024-02-24T08:49:47.512Z,french_415.wav,0,pull,1227,27,5,5,français,f,0,0.0,-78.44301617,1.61962555
5cfd119645e1a20001883ee6,26,0,2024-02-24T08:49:47.512Z,french_415.wav,0,pull,1227,27,5,5,français,f,1,0.1,84.17180311,0.78674907
5cfd119645e1a20001883ee6,26,0,2024-02-24T08:49:47.512Z,french_415.wav,0,pull,1227,27,5,5,français,f,2,0.2,32.05176365,0.83302444
5cfd119645e1a20001883ee6,26,0,2024-02-24T08:49:47.512Z,french_415.wav,0,pull,1227,27,5,5,français,f,3,0.25666667,1.79049447,0.85177262
5cfd119645e1a20001883ee6,27,0,2024-02-24T08:49:47.512Z,french_332.wav,0,pull,1232,27,5,5,français,f,0,0.0,-88.68220121,0.82286563
5cfd119645e1a20001883ee6,27,0,2024-02-24T08:49:47.512Z,french_332.wav,0,pull,1232,27,5,5,français,f,1,0.1,68.217882,1.40641777
5cfd119645e1a20001883ee6,27,0,2024-02-24T08:49:47.512Z,french_332.wav,0,pull,1232,27,5,5,français,f,2,0.2,-19.05049855,0.59183839
5cfd119645e1a20001883ee6,27,0,2024-02-24T08:49:47.512Z,french_332.wav,0,pull,1232,27,5,5,français,f,3,0.25666667,-98.47604088,0.80823464
5cfd119645e1a20001883ee6,28,0,2024-02-24T08:49:47.512Z,french_151.wav,0,pull,1323,27,5,5,français,f,0,0.0,71.76568175,1.0902049
5cfd119645e1a20001883ee6,28,0,2024-02-24T08:49:47.512Z,french_151.wav,0,pull,1323,27,5,5,français,f,1,0.1,-74.84502799,0.763019
5cfd119645e1a20001883ee6,28,0,2024-02-24T08:49:47.512Z,french_151.wav,0,pull,1323,27,5,5,français,f,2,0.2,-35.2682716,0.78938414
5cfd119645e1a20001883ee6,28,0,2024-02-24T08:49:47.512Z,french_151.wav,0,pull,1323,27,5,5,français,f,3,0.25666667,-20.9501034,0.23047004
5cfd119645e1a20001883ee6,29,0,2024-02-24T08:49:47.512Z,french_570.wav,0,poule,647,27,5,5,français,f,0,0.0,-73.07970403,1.97071113
5cfd119645e1a20001883ee6,29,0,2024-02-24T08:49:47.512Z,french_570.wav,0,poule,647,27,5,5,français,f,1,0.1,-29.06072458,1.64236312
5cfd119645e1a20001883ee6,29,0,2024-02-24T08:49:47.512Z,french_570.wav,0,poule,647,27,5,5,français,f,2,0.2,-25.44054287,0.27343611
5cfd119645e1a20001883ee6,29,0,2024-02-24T08:49:47.512Z,french_570.wav,0,poule,647,27,5,5,français,f,3,0.25666667,96.93308839,1.31029171
5cfd119645e1a20001883ee6,30,0,2024-02-24T08:49:47.512Z,french_686.wav,0,poule,493,27,5,5,français,f,0,0.0,20.49516986,1.86861476
5cfd119645e1a20001883ee6,30,0,2024-02-24T08:49:47.512Z,french_686.wav,0,poule,493,27,5,5,français,f,1,0.1,27.4040505,1.87689714
5cfd119645e1a20001883ee6,30,0,2024-02-24T08:49:47.512Z,french_686.wav,0,poule,493,27,5,5,français,f,2,0.2,31.96095965,0.80940067
5cfd119645e1a20001883ee6,30,0,2024-02-24T08:49:47.512Z,french_686.wav,0,poule,493,27,5,5,français,f,3,0.25666667,61.08066052,0.04075967
5cfd119645e1a20001883ee6,31,0,2024-02-24T08:49:47.512Z,french_280.wav,0,pull,907,27,5,5,français,f,0,0.0,-67.41100242,0.87165921
5cfd119645e1a20001883ee6,31,0,2024-02-24T08:49:47.512Z,french_280.wav,0,pull,907,27,5,5,français,f,1,0.1,-0.65291527,0.40210454
5cfd119645e1a20001883ee6,31,0,2024-02-24T08:49:47.512Z,french_280.wav,0,pull,907,27,5,5,français,f,2,0.2,-45.07946214,0.8560963
5cfd119645e1a20001883ee6,31,0,2024-02-24T08:49:47.512Z,french_280.wav,0,pull,907,27,5,5,français,f,3,0.25666667,-37.24252155,1.09108247
5cfd119645e1a20001883ee6,32,0,2024-02-24T08:49:47.512Z,french_213.wav,0,pull,1097,27,5,5,français,f,0,0.0,18.19792563,0.91602818
5cfd119645e1a20001883ee6,32,0,2024-02-24T08:49:47.512Z,french_213.wav,0,pull,1097,27,5,5,français,f,1,0.1,59.29536603,0.93215034
5cfd119645e1a20001883ee6,32,0,2024-02-24T08:49:47.512Z,french_213.wav,0,pull,1097,27,5,5,français,f,2,0.2,83.4693574,1.11468909
5cfd119645e1a20001883ee6,32,0,2024-02-24T08:49:47.512Z,french_213.wav,0,pull,1097,27,5,5,français,f,3,0.25666667,-3.87812814,1.61202928
5cfd119645e1a20001883ee6,33,0,2024-02-24T08:49:47.512Z,french_641.wav,0,pull,1519,27,5,5,français,f,0,0.0,-92.89939655,0.72916007
5cfd119645e1a20001883ee6,33,0,2024-02-24T08:49:47.512Z,french_641.wav,0,pull,1519,27,5,5,français,f,1,0.1,80.14352585,1.01323436
5cfd119645e1a20001883ee6,33,0,2024-02-24T08:49:47.512Z,french_641.wav,0,pull,1519,27,5,5,français,f,2,0.2,74.03041043,0.998205
5cfd119645e1a20001883ee6,33,0,2024-02-24T08:49:47.512Z,french_641.wav,0,pull,1519,27,5,5,français,f,3,0.25666667,18.97683281,0.30086371
5cfd119645e1a20001883ee6,34,0,2024-02-24T08:49:47.512Z,french_135.wav,0,pull,6545,27,5,5,français,f,0,0.0,-14.44114523,1.1198793
5cfd119645e1a20001883ee6,34,0,2024-02-24T08:49:47.512Z,french_135.wav,0,pull,6545,27,5,5,français,f,1,0.1,22.88033262,0.12707755
5cfd119645e1a20001883ee6,34,0,2024-02-24T08:49:47.512Z,french_135.wav,0,pull,6545,27,5,5,français,f,2,0.2,45.87784319,1.72429487
5cfd119645e1a20001883ee6,34,0,2024-02-24T08:49:47.512Z,french_135.wav,0,pull,6545,27,5,5,français,f,3,0.25666667,14.60103067,0.79769027
5cfd119645e1a20001883ee6,35,0,2024-02-24T08:49:47.512Z,french_6.wav,0,poule,718,27,5,5,français,f,0,0.0,67.46153681,1.53277947
5cfd119645e1a20001883ee6,35,0,2024-02-24T08:49:47.512Z,french_6.wav,0,poule,718,27,5,5,français,f,1,0.1,-88.84735091,1.45938327
5cfd119645e1a20001883ee6,35,0,2024-02-24T08:49:47.512Z,french_6.wav,0,poule,718,27,5,5,français,f,2,0.2,-91.91919173,0.73643418
5cfd119645e1a20001883ee6,35,0,2024-02-24T08:49:47.512Z,french_6.wav,0,poule,718,27,5,5,français,f,3,0.25666667,29.60258617,1.91810532
5cfd119645e1a20001883ee6,36,0,2024-02-24T08:49:47.512Z,french_446.wav,0,poule,659,27,5,5,français,f,0,0.0,-77.26428063,0.33935674
5cfd119645e1a20001883ee6,36,0,2024-02-24T08:49:47.512Z,french_446.wav,0,poule,659,27,5,5,français,f,1,0.1,-65.30305353,1.45146817
5cfd119645e1a20001883ee6,36,0,2024-02-24T08:49:47.512Z,french_446.wav,0,poule,659,27,5,5,français,f,2,0.2,-57.58787345,0.82478891
5cfd119645e1a20001883ee6,36,0,2024-02-24T08:49:47.512Z,french_446.wav,0,poule,659,27,5,5,français,f,3,0.25666667,16.67337698,1.36014186
5cfd119645e1a20001883ee6,37,0,2024-02-24T08:49:47.512Z,french_448.wav,0,poule,1053,27,5,5,français,f,0,0.0,31.66119151,0.87276462
5cfd119645e1a20001883ee6,37,0,2024-02-24T08:49:47.512Z,french_448.wav,0,poule,1053,27,5,5,français,f,1,0.1,20.17093967,1.08469616
5cfd119645e1a20001883ee6,37,0,2024-02-24T08:49:47.512Z,french_448.wav,0,poule,1053,27,5,5,français,f,2,0.2,-46.84568686,1.99629221
5cfd119645e1a20001883ee6,37,0,2024-02-24T08:49:47.512Z,french_448.wav,0,poule,1053,27,5,5,français,f,3,0.25666667,10.399138,0.44449425
5cfd119645e1a20001883ee6,38,0,2024-02-24T08:49:47.512Z,french_292.wav,0,poule,419,27,5,5,français,f,0,0.0,-5.98307963,1.30181039
5cfd119645e1a20001883ee6,38,0,2024-02-24T08:49:47.512Z,french_292.wav,0,poule,419,27,5,5,français,f,1,0.1,-89.4143915,0.71580693
5cfd119645e1a20001883ee6,38,0,2024-02-24T08:49:47.512Z,french_292.wav,0,poule,419,27,5,5,français,f,2,0.2,50.82370108,0.58623796
5cfd119645e1a20001883ee6,38,0,2024-02-24T08:49:47.512Z,french_292.wav,0,poule,419,27,5,5,français,f,3,0.25666667,-75.87081721,1.49080339
5cfd119645e1a20001883ee6,39,0,2024-02-24T08:49:47.512Z,french_237.wav,0,pull,1851,27,5,5,français,f,0,0.0,-1.09426196,0.40664609
5cfd119645e1a20001883ee6,39,0,2024-02-24T08:49:47.512Z,french_237.wav,0,pull,1851,27,5,5,français,f,1,0.1,-48.49856075,0.23529618
5cfd119645e1a20001883ee6,39,0,2024-02-24T08:49:47.512Z,french_237.wav,0,pull,1851,27,5,5,français,f,2,0.2,36.42993093,0.05363011
5cfd119645e1a20001883ee6,39,0,2024-02-24T08:49:47.512Z,french_237.wav,0,pull,1851,27,5,5,français,f,3,0.25666667,-47.65767162,1.34950367
5cfd119645e1a20001883ee6,40,0,2024-02-24T08:49:47.512Z,french_278.wav,0,pull,1175,27,5,5,français,f,0,0.0,0.92058819,0.58166089
5cfd119645e1a20001883ee6,40,0,2024-02-24T08:49:47.512Z,french_278.wav,0,pull,1175,27,5,5,français,f,1,0.1,-11.12293645,0.6190237
5cfd119645e1a20001883ee6,40,0,2024-02-24T08:49:47.512Z,french_278.wav,0,pull,1175,27,5,5,français,f,2,0.2,51.74113392,1.02661965
5cfd119645e1a20001883ee6,40,0,2024-02-24T08:49:47.512Z,french_278.wav,0,pull,1175,27,5,5,français,f,3,0.25666667,59.96495371,0.89915078
5cfd119645e1a20001883ee6,41,0,2024-02-24T08:49:47.512Z,french_694.wav,0,poule,507,27,5,5,français,f,0,0.0,17.77218449,1.83585748
5cfd119645e1a20001883ee6,41,0,2024-02-24T08:49:47.512Z,french_694.wav,0,poule,507,27,5,5,français,f,1,0.1,99.46599521,0.80026037
5cfd119645e1a20001883ee6,41,0,2024-02-24T08:49:47.512Z,french_694.wav,0,poule,507,27,5,5,français,f,2,0.2,-15.42512366,1.77531791
5cfd119645e1a20001883ee6,41,0,2024-02-24T08:49:47.512Z,french_694.wav,0,poule,507,27,5,5,français,f,3,0.25666667,-86.21441247,1.07868716
5cfd119645e1a20001883ee6,42,0,2024-02-24T08:49:47.512Z,french_750.wav,0,poule,411,27,5,5,français,f,0,0.0,36.16157767,1.69010054
5cfd119645e1a20001883ee6,42,0,2024-02-24T08:49:47.512Z,french_750.wav,0,poule,411,27,5,5,français,f,1,0.1,-94.09249833,0.7877665
5cfd119645e1a20001883ee6,42,0,2024-02-24T08:49:47.512Z,french_750.wav,0,poule,411,27,5,5,français,f,2,0.2,97.07405484,0.99353813
5cfd119645e1a20001883ee6,42,0,2024-02-24T08:49:47.512Z,french_750.wav,0,poule,411,27,5,5,français,f,3,0.25666667,-8.28043626,0.64245914
5cfd119645e1a20001883ee6,43,0,2024-02-24T08:49:47.512Z,french_261.wav,0,poule,410,27,5,5,français,f,0,0.0,-67.20699789,0.47660487
5cfd119645e1a20001883ee6,43,0,2024-02-24T08:49:47.512Z,french_261.wav,0,poule,410,27,5,5,français,f,1,0.1,49.58913881,0.48219997
5cfd119645e1a20001883ee6,43,0,2024-02-24T08:49:47.512Z,french_261.wav,0,poule,410,27,5,5,français,f,2,0.2,-41.06882289,1.35396927
5cfd119645e1a20001883ee6,43,0,2024-02-24T08:49:47.512Z,french_261.wav,0,poule,410,27,5,5,français,f,3,0.25666667,25.85265167,1.38442255
5cfd119645e1a20001883ee6,44,0,2024-02-24T08:49:47.512Z,french_732.wav,0,poule,665,27,5,5,français,f,0,0.0,-82.9393053,0.90840431
5cfd119645e1a20001883ee6,44,0,2024-02-24T08:49:47.512Z,french_732.wav,0,poule,665,27,5,5,français,f,1,0.1,-79.22735873,0.47468339
5cfd119645e1a20001883ee6,44,0,2024-02-24T08:49:47.512Z,french_732.wav,0,poule,665,27,5,5,français,f,2,0.2,-67.09796721,1.61768905
5cfd119645e1a20001883ee6,44,0,2024-02-24T08:49:47.512Z,french_732.wav,0,poule,665,27,5,5,français,f,3,0.25666667,35.15971491,1.44596926
5cfd119645e1a20001883ee6,45,0,2024-02-24T08:49:47.512Z,french_51.wav,0,poule,661,27,5,5,français,f,0,0.0,47.2980437,1.21993379
5cfd119645e1a20001883ee6,45,0,2024-02-24T08:49:47.512Z,french_51.wav,0,poule,661,27,5,5,français,f,1,0.1,-20.71065167,0.59290242
5cfd119645e1a20001883ee6,45,0,2024-02-24T08:49:47.512Z,french_51.wav,0,poule,661,27,5,5,français,f,2,0.2,-59.15578969,0.43795747
5cfd119645e1a20001883ee6,45,0,2024-02-24T08:49:47.512Z,french_51.wav,0,poule,661,27,5,5,français,f,3,0.25666667,47.97190204,1.09780803
5cfd119645e1a20001883ee6,46,0,2024-02-24T08:49:47.512Z,french_598.wav,0,poule,603,27,5,5,français,f,0,0.0,21.68363658,1.67467049
5cfd119645e1a20001883ee6,46,0,2024-02-24T08:49:47.512Z,french_598.wav,0,poule,603,27,5,5,français,f,1,0.1,-21.32750779,0.64095668
5cfd119645e1a20001883ee6,46,0,2024-02-24T08:49:47.512Z,french_598.wav,0,poule,603,27,5,5,français,f,2,0.2,7.72514192,0.23575639
5cfd119645e1a20001883ee6,46,0,2024-02-24T08:49:47.512Z,french_598.wav,0,poule,603,27,5,5,français,f,3,0.25666667,-29.17866519,0.51628457
5cfd119645e1a20001883ee6,47,0,2024-02-24T08:49:47.512Z,french_109.wav,0,poule,975,27,5,5,français,f,0,0.0,-57.66612313,0.91141338
5cfd119645e1a20001883ee6,47,0,2024-02-24T08:49:47.512Z,french_109.wav,0,poule,975,27,5,5,français,f,1,0.1,-72.54090479,1.63809523
5cfd119645e1a20001883ee6,47,0,2024-02-24T08:49:47.512Z,french_109.wav,0,poule,975,27,5,5,français,f,2,0.2,-5.66573875,1.08686957
5cfd119645e1a20001883ee6,47,0,2024-02-24T08:49:47.512Z,french_109.wav,0,poule,975,27,5,5,français,f,3,0.25666667,-86.22212262,0.85420458
5cfd119645e1a20001883ee6,48,0,2024-02-24T08:49:47.512Z,french_819.wav,0,poule,483,27,5,5,français,f,0,0.0,10.23888344,1.93351894
5cfd119645e1a20001883ee6,48,0,2024-02-24T08:49:47.512Z,french_819.wav,0,poule,483,27,5,5,français,f,1,0.1,14.33129562,0.24790788
5cfd119645e1a20001883ee6,48,0,2024-02-24T08:49:47.512Z,french_819.wav,0,poule,483,27,5,5,français,f,2,0.2,-57.61493264,1.58463495
5cfd119645e1a20001883ee6,48,0,2024-02-24T08:49:47.512Z,french_819.wav,0,poule,483,27,5,5,français,f,3,0.25666667,33.17012155,0.31192511
5cfd119645e1a20001883ee6,49,0,2024-02-24T08:49:47.512Z,french_255.wav,0,poule,961,27,5,5,français,f,0,0.0,-34.51424568,1.48061101
5cfd119645e1a20001883ee6,49,0,2024-02-24T08:49:47.512Z,french_255.wav,0,poule,961,27,5,5,français,f,1,0.1,78.41526515,1.11576013
5cfd119645e1a20001883ee6,49,0,2024-02-24T08:49:47.512Z,french_255.wav,0,poule,961,27,5,5,français,f,2,0.2,-68.08036781,0.98465822
5cfd119645e1a20001883ee6,49,0,2024-02-24T08:49:47.512Z,french_255.wav,0,poule,961,27,5,5,français,f,3,0.25666667,24.01405499,1.10721404
5cfd119645e1a20001883ee6,50,1,2024-02-24T08:49:47.512Z,french_613.wav,0,pull,2066,27,5,5,français,f,0,0.0,-39.45599103,0.33894647
5cfd119645e1a20001883ee6,50,1,2024-02-24T08:49:47.512Z,french_613.wav,0,pull,2066,27,5,5,français,f,1,0.1,37.73715393,0.28387009
5cfd119645e1a20001883ee6,50,1,2024-02-24T08:49:47.512Z,french_613.wav,0,pull,2066,27,5,5,français,f,2,0.2,-28.02237212,1.91952712
5cfd119645e1a20001883ee6,50,1,2024-02-24T08:49:47.512Z,french_613.wav,0,pull,2066,27,5,5,français,f,3,0.25666667,-24.74266242,0.2340562
5cfd119645e1a20001883ee6,51,1,2024-02-24T08:49:47.512Z,french_603.wav,0,pull,1747,27,5,5,français,f,0,0.0,59.84554137,1.0661988
5cfd119645e1a20001883ee6,51,1,2024-02-24T08:49:47.512Z,french_603.wav,0,pull,1747,27,5,5,français,f,1,0.1,16.50437024,1.9988244
5cfd119645e1a20001883ee6,51,1,2024-02-24T08:49:47.512Z,french_603.wav,0,pull,1747,27,5,5,français,f,2,0.2,38.82252298,0.61428719
5cfd119645e1a20001883ee6,51,1,2024-02-24T08:49:47.512Z,french_603.wav,0,pull,1747,27,5,5,français,f,3,0.25666667,25.72688984,0.58715273
5cfd119645e1a20001883ee6,52,1,2024-02-24T08:49:47.512Z,french_927.wav,0,poule,721,27,5,5,français,f,0,0.0,-10.52890049,0.60201579
5cfd119645e1a20001883ee6,52,1,2024-02-24T08:49:47.512Z,french_927.wav,0,poule,721,27,5,5,français,f,1,0.1,-14.60087289,1.35124195
5cfd119645e1a20001883ee6,52,1,2024-02-24T08:49:47.512Z,french_927.wav,0,poule,721,27,5,5,français,f,2,0.2,-23.19620382,0.97713268
5cfd119645e1a20001883ee6,52,1,2024-02-24T08:49:47.512Z,french_927.wav,0,poule,721,27,5,5,français,f,3,0.25666667,-4.91748489,0.83956459
5cfd119645e1a20001883ee6,53,1,2024-02-24T08:49:47.512Z,french_718.wav,0,poule,714,27,5,5,français,f,0,0.0,60.10154263,0.48894908
5cfd119645e1a20001883ee6,53,1,2024-02-24T08:49:47.512Z,french_718.wav,0,poule,714,27,5,5,français,f,1,0.1,11.66591821,1.65193902
5cfd119645e1a20001883ee6,53,1,2024-02-24T08:49:47.512Z,french_718.wav,0,poule,714,27,5,5,français,f,2,0.2,18.23831634,1.63024081
5cfd119645e1a20001883ee6,53,1,2024-02-24T08:49:47.512Z,french_718.wav,0,poule,714,27,5,5,français,f,3,0.25666667,-0.86268038,0.33166429
5cfd119645e1a20001883ee6,54,1,2024-02-24T08:49:47.512Z,french_214.wav,0,poule,973,27,5,5,français,f,0,0.0,76.24554567,0.83658468
5cfd119645e1a20001883ee6,54,1,2024-02-24T08:49:47.512Z,french_214.wav,0,poule,973,27,5,5,français,f,1,0.1,-45.01894732,0.66247732
5cfd119645e1a20001883ee6,54,1,2024-02-24T08:49:47.512Z,french_214.wav,0,poule,973,27,5,5,français,f,2,0.2,36.56408721,0.57350576
5cfd119645e1a20001883ee6,54,1,2024-02-24T08:49:47.512Z,french_214.wav,0,poule,973,27,5,5,français,f,3,0.25666667,-35.03381059,1.70097913
5cfd119645e1a20001883ee6,55,1,2024-02-24T08:49:47.512Z,french_269.wav,0,pull,1677,27,5,5,français,f,0,0.0,34.85044548,0.000617924031
5cfd119645e1a20001883ee6,55,1,2024-02-24T08:49:47.512Z,french_269.wav,0,pull,1677,27,5,5,français,f,1,0.1,47.51511781,1.05540646
5cfd119645e1a20001883ee6,55,1,2024-02-24T08:49:47.512Z,french_269.wav,0,pull,1677,27,5,5,français,f,2,0.2,34.15302515,0.984234213
5cfd119645e1a20001883ee6,55,1,2024-02-24T08:49:47.512Z,french_269.wav,0,pull,1677,27,5,5,français,f,3,0.25666667,-55.0259295,0.845106618
5cfd119645e1a20001883ee6,56,1,2024-02-24T08:49:47.512Z,french_310.wav,0,pull,1251,27,5,5,français,f,0,0.0,-83.78338178,0.11877442
5cfd119645e1a20001883ee6,56,1,2024-02-24T08:49:47.512Z,french_310.wav,0,pull,1251,27,5,5,français,f,1,0.1,-13.73891655,1.32851017
5cfd119645e1a20001883ee6,56,1,2024-02-24T08:49:47.512Z,french_310.wav,0,pull,1251,27,5,5,français,f,2,0.2,58.07821313,0.76082745
5cfd119645e1a20001883ee6,56,1,2024-02-24T08:49:47.512Z,french_310.wav,0,pull,1251,27,5,5,français,f,3,0.25666667,26.26954934,1.37378881
5cfd119645e1a20001883ee6,57,1,2024-02-24T08:49:47.512Z,french_565.wav,0,poule,1075,27,5,5,français,f,0,0.0,50.78822436,1.00864226
5cfd119645e1a20001883ee6,57,1,2024-02-24T08:49:47.512Z,french_565.wav,0,poule,1075,27,5,5,français,f,1,0.1,-75.93967217,1.52231663
5cfd119645e1a20001883ee6,57,1,2024-02-24T08:49:47.512Z,french_565.wav,0,poule,1075,27,5,5,français,f,2,0.2,-58.95969425,0.24874103
5cfd119645e1a20001883ee6,57,1,2024-02-24T08:49:47.512Z,french_565.wav,0,poule,1075,27,5,5,français,f,3,0.25666667,-53.32673619,1.47271882
5cfd119645e1a20001883ee6,58,1,2024-02-24T08:49:47.512Z,french_385.wav,0,poule,593,27,5,5,français,f,0,0.0,-5.35501711,1.94967077
5cfd119645e1a20001883ee6,58,1,2024-02-24T08:49:47.512Z,french_385.wav,0,poule,593,27,5,5,français,f,1,0.1,28.75563306,0.4629862
5cfd119645e1a20001883ee6,58,1,2024-02-24T08:49:47.512Z,french_385.wav,0,poule,593,27,5,5,français,f,2,0.2,60.61846434,0.74478567
5cfd119645e1a20001883ee6,58,1,2024-02-24T08:49:47.512Z,french_385.wav,0,poule,593,27,5,5,français,f,3,0.25666667,-78.89426498,0.69826307
5cfd119645e1a20001883ee6,59,1,2024-02-24T08:49:47.512Z,french_829.wav,0,poule,465,27,5,5,français,f,0,0.0,46.725297,0.52675555
5cfd119645e1a20001883ee6,59,1,2024-02-24T08:49:47.512Z,french_829.wav,0,poule,465,27,5,5,français,f,1,0.1,-84.28207626,1.43556726
5cfd119645e1a20001883ee6,59,1,2024-02-24T08:49:47.512Z,french_829.wav,0,poule,465,27,5,5,français,f,2,0.2,93.60285392,0.6815656
5cfd119645e1a20001883ee6,59,1,2024-02-24T08:49:47.512Z,french_829.wav,0,poule,465,27,5,5,français,f,3,0.25666667,-19.92335823,1.46711526
5cfd119645e1a20001883ee6,60,1,2024-02-24T08:49:47.512Z,french_571.wav,0,poule,393,27,5,5,français,f,0,0.0,31.56469904,0.97268691
5cfd119645e1a20001883ee6,60,1,2024-02-24T08:49:47.512Z,french_571.wav,0,poule,393,27,5,5,français,f,1,0.1,44.5277229,1.62706688
5cfd119645e1a20001883ee6,60,1,2024-02-24T08:49:47.512Z,french_571.wav,0,poule,393,27,5,5,français,f,2,0.2,41.67262287,1.42821868
5cfd119645e1a20001883ee6,60,1,2024-02-24T08:49:47.512Z,french_571.wav,0,poule,393,27,5,5,français,f,3,0.25666667,9.54247743,0.83693393
5cfd119645e1a20001883ee6,61,1,2024-02-24T08:49:47.512Z,french_492.wav,0,poule,393,27,5,5,français,f,0,0.0,26.23401792,1.39276004
5cfd119645e1a20001883ee6,61,1,2024-02-24T08:49:47.512Z,french_492.wav,0,poule,393,27,5,5,français,f,1,0.1,-24.69700304,1.17915575
5cfd119645e1a20001883ee6,61,1,2024-02-24T08:49:47.512Z,french_492.wav,0,poule,393,27,5,5,français,f,2,0.2,20.89476161,0.89700471
5cfd119645e1a20001883ee6,61,1,2024-02-24T08:49:47.512Z,french_492.wav,0,poule,393,27,5,5,français,f,3,0.25666667,-5.21833306,0.44164607
5cfd119645e1a20001883ee6,62,1,2024-02-24T08:49:47.512Z,french_203.wav,0,poule,438,27,5,5,français,f,0,0.0,9.50743764,1.88144993
5cfd119645e1a20001883ee6,62,1,2024-02-24T08:49:47.512Z,french_203.wav,0,poule,438,27,5,5,français,f,1,0.1,-98.19338414,1.32545529
5cfd119645e1a20001883ee6,62,1,2024-02-24T08:49:47.512Z,french_203.wav,0,poule,438,27,5,5,français,f,2,0.2,67.11536794,0.82099832
5cfd119645e1a20001883ee6,62,1,2024-02-24T08:49:47.512Z,french_203.wav,0,poule,438,27,5,5,français,f,3,0.25666667,-71.08115362,1.4347795
5cfd119645e1a20001883ee6,63,1,2024-02-24T08:49:47.512Z,french_177.wav,0,poule,663,27,5,5,français,f,0,0.0,-69.89314337,1.41470617
5cfd119645e1a20001883ee6,63,1,2024-02-24T08:49:47.512Z,french_177.wav,0,poule,663,27,5,5,français,f,1,0.1,8.10824913,0.24806543
5cfd119645e1a20001883ee6,63,1,2024-02-24T08:49:47.512Z,french_177.wav,0,poule,663,27,5,5,français,f,2,0.2,41.02901981,1.01013957
5cfd119645e1a20001883ee6,63,1,2024-02-24T08:49:47.512Z,french_177.wav,0,poule,663,27,5,5,français,f,3,0.25666667,-9.46888932,0.18165289
5cfd119645e1a20001883ee6,64,1,2024-02-24T08:49:47.512Z,french_388.wav,0,poule,763,27,5,5,français,f,0,0.0,-56.99851318,0.76802497
5cfd119645e1a20001883ee6,64,1,2024-02-24T08:49:47.512Z,french_388.wav,0,poule,763,27,5,5,français,f,1,0.1,-28.42117093,1.07190306
5cfd119645e1a20001883ee6,64,1,2024-02-24T08:49:47.512Z,french_388.wav,0,poule,763,27,5,5,français,f,2,0.2,-17.37440647,0.91030877
5cfd119645e1a20001883ee6,64,1,2024-02-24T08:49:47.512Z,french_388.wav,0,poule,763,27,5,5,français,f,3,0.25666667,19.5608334,0.1576099
5cfd119645e1a20001883ee6,65,1,2024-02-24T08:49:47.512Z,french_682.wav,0,poule,3097,27,5,5,français,f,0,0.0,-16.33102186,0.79850708
5cfd119645e1a20001883ee6,65,1,2024-02-24T08:49:47.512Z,french_682.wav,0,poule,3097,27,5,5,français,f,1,0.1,-49.72009429,1.31273679
5cfd119645e1a20001883ee6,65,1,2024-02-24T08:49:47.512Z,french_682.wav,0,poule,3097,27,5,5,français,f,2,0.2,-23.39596266,1.51298147
5cfd119645e1a20001883ee6,65,1,2024-02-24T08:49:47.512Z,french_682.wav,0,poule,3097,27,5,5,français,f,3,0.25666667,-34.72439006,0.92861139
5cfd119645e1a20001883ee6,66,1,2024-02-24T08:49:47.512Z,french_840.wav,0,poule,501,27,5,5,français,f,0,0.0,13.6338747,1.10667495
5cfd119645e1a20001883ee6,66,1,2024-02-24T08:49:47.512Z,french_840.wav,0,poule,501,27,5,5,français,f,1,0.1,-48.5646874,1.60365116
5cfd119645e1a20001883ee6,66,1,2024-02-24T08:49:47.512Z,french_840.wav,0,poule,501,27,5,5,français,f,2,0.2,-42.92936875,0.82861267
5cfd119645e1a20001883ee6,66,1,2024-02-24T08:49:47.512Z,french_840.wav,0,poule,501,27,5,5,français,f,3,0.25666667,-22.57825883,0.56371323
5cfd119645e1a20001883ee6,67,1,2024-02-24T08:49:47.512Z,french_544.wav,0,poule,424,27,5,5,français,f,0,0.0,-53.15565046,1.35860228
5cfd119645e1a20001883ee6,67,1,2024-02-24T08:49:47.512Z,french_544.wav,0,poule,424,27,5,5,français,f,1,0.1,-92.4791724,0.93453098
5cfd119645e1a20001883ee6,67,1,2024-02-24T08:49:47.512Z,french_544.wav,0,poule,424,27,5,5,français,f,2,0.2,38.15839594,0.5056151
5cfd119645e1a20001883ee6,67,1,2024-02-24T08:49:47.512Z,french_544.wav,0,poule,424,27,5,5,français,f,3,0.25666667,24.38113977,1.47508
5cfd119645e1a20001883ee6,68,1,2024-02-24T08:49:47.512Z,french_358.wav,0,poule,359,27,5,5,français,f,0,0.0,-21.88755711,1.21014447
5cfd119645e1a20001883ee6,68,1,2024-02-24T08:49:47.512Z,french_358.wav,0,poule,359,27,5,5,français,f,1,0.1,-5.628981,1.2650669
5cfd119645e1a20001883ee6,68,1,2024-02-24T08:49:47.512Z,french_358.wav,0,poule,359,27,5,5,français,f,2,0.2,-60.01307733,0.97277603
5cfd119645e1a20001883ee6,68,1,2024-02-24T08:49:47.512Z,french_358.wav,0,poule,359,27,5,5,français,f,3,0.25666667,65.58947466,0.28969343
5cfd119645e1a20001883ee6,69,1,2024-02-24T08:49:47.512Z,french_158.wav,0,poule,619,27,5,5,français,f,0,0.0,72.88318106,1.5476705
5cfd119645e1a20001883ee6,69,1,2024-02-24T08:49:47.512Z,french_158.wav,0,poule,619,27,5,5,français,f,1,0.1,51.2800476,1.92933226
5cfd119645e1a20001883ee6,69,1,2024-02-24T08:49:47.512Z,french_158.wav,0,poule,619,27,5,5,français,f,2,0.2,-29.39007937,1.77733774
5cfd119645e1a20001883ee6,69,1,2024-02-24T08:49:47.512Z,french_158.wav,0,poule,619,27,5,5,français,f,3,0.25666667,87.52810159,1.82253327
5cfd119645e1a20001883ee6,70,1,2024-02-24T08:49:47.512Z,french_201.wav,0,poule,329,27,5,5,français,f,0,0.0,8.42387769,1.26451206
5cfd119645e1a20001883ee6,70,1,2024-02-24T08:49:47.512Z,french_201.wav,0,poule,329,27,5,5,français,f,1,0.1,8.12168757,1.63493769
5cfd119645e1a20001883ee6,70,1,2024-02-24T08:49:47.512Z,french_201.wav,0,poule,329,27,5,5,français,f,2,0.2,-23.47755607,1.48075017
5cfd119645e1a20001883ee6,70,1,2024-02-24T08:49:47.512Z,french_201.wav,0,poule,329,27,5,5,français,f,3,0.25666667,-30.65193461,1.0984385
5cfd119645e1a20001883ee6,71,1,2024-02-24T08:49:47.512Z,french_855.wav,0,poule,6961,27,5,5,français,f,0,0.0,2.71159552,1.64624975
5cfd119645e1a20001883ee6,71,1,2024-02-24T08:49:47.512Z,french_855.wav,0,poule,6961,27,5,5,français,f,1,0.1,66.05842931,0.54809415
5cfd119645e1a20001883ee6,71,1,2024-02-24T08:49:47.512Z,french_855.wav,0,poule,6961,27,5,5,français,f,2,0.2,41.00995311,1.64541289
5cfd119645e1a20001883ee6,71,1,2024-02-24T08:49:47.512Z,french_855.wav,0,poule,6961,27,5,5,français,f,3,0.25666667,98.2962498,1.22205238
5cfd119645e1a20001883ee6,72,1,2024-02-24T08:49:47.512Z,french_221.wav,0,poule,435,27,5,5,français,f,0,0.0,-51.4093514,1.39236456
5cfd119645e1a20001883ee6,72,1,2024-02-24T08:49:47.512Z,french_221.wav,0,poule,435,27,5,5,français,f,1,0.1,-69.26159538,1.1318895
5cfd119645e1a20001883ee6,72,1,2024-02-24T08:49:47.512Z,french_221.wav,0,poule,435,27,5,5,français,f,2,0.2,-72.79183118,0.94601275
5cfd119645e1a20001883ee6,72,1,2024-02-24T08:49:47.512Z,french_221.wav,0,poule,435,27,5,5,français,f,3,0.25666667,34.31828887,1.80964418
5cfd119645e1a20001883ee6,73,1,2024-02-24T08:49:47.512Z,french_248.wav,0,poule,559,27,5,5,français,f,0,0.0,-72.14952141,0.31572296
5cfd119645e1a20001883ee6,73,1,2024-02-24T08:49:47.512Z,french_248.wav,0,poule,559,27,5,5,français,f,1,0.1,-0.62089361,0.98183681
5cfd119645e1a20001883ee6,73,1,2024-02-24T08:49:47.512Z,french_248.wav,0,poule,559,27,5,5,français,f,2,0.2,-1.54726874,1.57355183
5cfd119645e1a20001883ee6,73,1,2024-02-24T08:49:47.512Z,french_248.wav,0,poule,559,27,5,5,français,f,3,0.25666667,-50.42909266,0.39982355
5cfd119645e1a20001883ee6,74,1,2024-02-24T08:49:47.512Z,french_337.wav,0,poule,495,27,5,5,français,f,0,0.0,-97.64468947,0.15620351
5cfd119645e1a20001883ee6,74,1,2024-02-24T08:49:47.512Z,french_337.wav,0,poule,495,27,5,5,français,f,1,0.1,-70.83087303,1.65716961
5cfd119645e1a20001883ee6,74,1,2024-02-24T08:49:47.512Z,french_337.wav,0,poule,495,27,5,5,français,f,2,0.2,-48.67995381,0.82507575
5cfd119645e1a20001883ee6,74,1,2024-02-24T08:49:47.512Z,french_337.wav,0,poule,495,27,5,5,français,f,3,0.25666667,-82.84031791,0.89595203
5cfd119645e1a20001883ee6,75,1,2024-02-24T08:49:47.512Z,french_100.wav,0,poule,633,27,5,5,français,f,0,0.0,-35.75508116,1.72997046
5cfd119645e1a20001883ee6,75,1,2024-02-24T08:49:47.512Z,french_100.wav,0,poule,633,27,5,5,français,f,1,0.1,57.82815341,1.04300978
5cfd119645e1a20001883ee6,75,1,2024-02-24T08:49:47.512Z,french_100.wav,0,poule,633,27,5,5,français,f,2,0.2,31.92112674,1.01595182
5cfd119645e1a20001883ee6,75,1,2024-02-24T08:49:47.512Z,french_100.wav,0,poule,633,27,5,5,français,f,3,0.25666667,34.87308497,1.9286069
5cfd119645e1a20001883ee6,76,1,2024-02-24T08:49:47.512Z,french_771.wav,0,pull,1039,27,5,5,français,f,0,0.0,-31.32443984,0.10443369
5cfd119645e1a20001883ee6,76,1,2024-02-24T08:49:47.512Z,french_771.wav,0,pull,1039,27,5,5,français,f,1,0.1,2.91896775,0.0162425
5cfd119645e1a20001883ee6,76,1,2024-02-24T08:49:47.512Z,french_771.wav,0,pull,1039,27,5,5,français,f,2,0.2,73.75563113,0.96029425
5cfd119645e1a20001883ee6,76,1,2024-02-24T08:49:47.512Z,french_771.wav,0,pull,1039,27,5,5,français,f,3,0.25666667,61.27629387,1.26482275
5cfd119645e1a20001883ee6,77,1,2024-02-24T08:49:47.512Z,french_947.wav,0,pull,777,27,5,5,français,f,0,0.0,-44.48466948,0.06372519
5cfd119645e1a20001883ee6,77,1,2024-02-24T08:49:47.512Z,french_947.wav,0,pull,777,27,5,5,français,f,1,0.1,21.49635037,0.1513717
5cfd119645e1a20001883ee6,77,1,2024-02-24T08:49:47.512Z,french_947.wav,0,pull,777,27,5,5,français,f,2,0.2,52.91188767,1.07040488
5cfd119645e1a20001883ee6,77,1,2024-02-24T08:49:47.512Z,french_947.wav,0,pull,777,27,5,5,français,f,3,0.25666667,23.38430508,1.60411559
5cfd119645e1a20001883ee6,78,1,2024-02-24T08:49:47.512Z,french_582.wav,0,poule,507,27,5,5,français,f,0,0.0,1.47980053,0.83350323
5cfd119645e1a20001883ee6,78,1,2024-02-24T08:49:47.512Z,french_582.wav,0,poule,507,27,5,5,français,f,1,0.1,-89.13888063,1.99658076
5cfd119645e1a20001883ee6,78,1,2024-02-24T08:49:47.512Z,french_582.wav,0,poule,507,27,5,5,français,f,2,0.2,1.45566029,0.72464724
5cfd119645e1a20001883ee6,78,1,2024-02-24T08:49:47.512Z,french_582.wav,0,poule,507,27,5,5,français,f,3,0.25666667,-76.25724372,1.09622387
5cfd119645e1a20001883ee6,79,1,2024-02-24T08:49:47.512Z,french_663.wav,0,poule,610,27,5,5,français,f,0,0.0,9.26283991,1.50228176
5cfd119645e1a20001883ee6,79,1,2024-02-24T08:49:47.512Z,french_663.wav,0,poule,610,27,5,5,français,f,1,0.1,8.63416543,0.75616041
5cfd119645e1a20001883ee6,79,1,2024-02-24T08:49:47.512Z,french_663.wav,0,poule,610,27,5,5,français,f,2,0.2,-94.49816933,0.98085129
5cfd119645e1a20001883ee6,79,1,2024-02-24T08:49:47.512Z,french_663.wav,0,poule,610,27,5,5,français,f,3,0.25666667,-21.43071833,1.35574544
5cfd119645e1a20001883ee6,80,1,2024-02-24T08:49:47.512Z,french_274.wav,0,poule,453,27,5,5,français,f,0,0.0,43.75822691,1.39255027
5cfd119645e1a20001883ee6,80,1,2024-02-24T08:49:47.512Z,french_274.wav,0,poule,453,27,5,5,français,f,1,0.1,86.10199067,1.73272922
5cfd119645e1a20001883ee6,80,1,2024-02-24T08:49:47.512Z,french_274.wav,0,poule,453,27,5,5,français,f,2,0.2,-33.25278445,0.27567755
5cfd119645e1a20001883ee6,80,1,2024-02-24T08:49:47.512Z,french_274.wav,0,poule,453,27,5,5,français,f,3,0.25666667,-94.53609652,1.08955952
5cfd119645e1a20001883ee6,81,1,2024-02-24T08:49:47.512Z,french_138.wav,0,poule,473,27,5,5,français,f,0,0.0,52.19266886,1.6075583
5cfd119645e1a20001883ee6,81,1,2024-02-24T08:49:47.512Z,french_138.wav,0,poule,473,27,5,5,français,f,1,0.1,-20.87110469,1.57175316
5cfd119645e1a20001883ee6,81,1,2024-02-24T08:49:47.512Z,french_138.wav,0,poule,473,27,5,5,français,f,2,0.2,-63.85285305,0.73019834
5cfd119645e1a20001883ee6,81,1,2024-02-24T08:49:47.512Z,french_138.wav,0,poule,473,27,5,5,français,f,3,0.25666667,35.09837538,0.12473077
5cfd119645e1a20001883ee6,82,1,2024-02-24T08:49:47.512Z,french_832.wav,0,poule,531,27,5,5,français,f,0,0.0,72.4957568,1.55241154
5cfd119645e1a20001883ee6,82,1,2024-02-24T08:49:47.512Z,french_832.wav,0,poule,531,27,5,5,français,f,1,0.1,-42.52759542,0.51342339
5cfd119645e1a20001883ee6,82,1,2024-02-24T08:49:47.512Z,french_832.wav,0,poule,531,27,5,5,français,f,2,0.2,-19.34515336,1.23436829
5cfd119645e1a20001883ee6,82,1,2024-02-24T08:49:47.512Z,french_832.wav,0,poule,531,27,5,5,français,f,3,0.25666667,29.69631954,0.63501701
5cfd119645e1a20001883ee6,83,1,2024-02-24T08:49:47.512Z,french_601.wav,0,pull,1187,27,5,5,français,f,0,0.0,57.33302671,0.25823262
5cfd119645e1a20001883ee6,83,1,2024-02-24T08:49:47.512Z,french_601.wav,0,pull,1187,27,5,5,français,f,1,0.1,78.53356314,0.70648058
5cfd119645e1a20001883ee6,83,1,2024-02-24T08:49:47.512Z,french_601.wav,0,pull,1187,27,5,5,français,f,2,0.2,-65.46800755,1.49897987
5cfd119645e1a20001883ee6,83,1,2024-02-24T08:49:47.512Z,french_601.wav,0,pull,1187,27,5,5,français,f,3,0.25666667,15.04245158,0.53904812
5cfd119645e1a20001883ee6,84,1,2024-02-24T08:49:47.512Z,french_53.wav,0,pull,773,27,5,5,français,f,0,0.0,-2.35814843,1.83928924
5cfd119645e1a20001883ee6,84,1,2024-02-24T08:49:47.512Z,french_53.wav,0,pull,773,27,5,5,français,f,1,0.1,-48.73544303,0.78912936
5cfd119645e1a20001883ee6,84,1,2024-02-24T08:49:47.512Z,french_53.wav,0,pull,773,27,5,5,français,f,2,0.2,38.27016364,0.60668558
5cfd119645e1a20001883ee6,84,1,2024-02-24T08:49:47.512Z,french_53.wav,0,pull,773,27,5,5,français,f,3,0.25666667,-31.96265424,0.83130548
5cfd119645e1a20001883ee6,85,1,2024-02-24T08:49:47.512Z,french_830.wav,0,poule,300,27,5,5,français,f,0,0.0,-1.87091299,1.09232302
5cfd119645e1a20001883ee6,85,1,2024-02-24T08:49:47.512Z,french_830.wav,0,poule,300,27,5,5,français,f,1,0.1,9.47785811,0.94787069
5cfd119645e1a20001883ee6,85,1,2024-02-24T08:49:47.512Z,french_830.wav,0,poule,300,27,5,5,français,f,2,0.2,-62.34166138,1.22281972
5cfd119645e1a20001883ee6,85,1,2024-02-24T08:49:47.512Z,french_830.wav,0,poule,300,27,5,5,français,f,3,0.25666667,43.2809025,1.77001535
5cfd119645e1a20001883ee6,86,1,2024-02-24T08:49:47.512Z,french_979.wav,0,poule,373,27,5,5,français,f,0,0.0,58.05333973,1.60321768
5cfd119645e1a20001883ee6,86,1,2024-02-24T08:49:47.512Z,french_979.wav,0,poule,373,27,5,5,français,f,1,0.1,-10.78982684,0.5155038
5cfd119645e1a20001883ee6,86,1,2024-02-24T08:49:47.512Z,french_979.wav,0,poule,373,27,5,5,français,f,2,0.2,-1.76147191,0.80270828
5cfd119645e1a20001883ee6,86,1,2024-02-24T08:49:47.512Z,french_979.wav,0,poule,373,27,5,5,français,f,3,0.25666667,35.54131035,0.30870089
5cfd119645e1a20001883ee6,87,1,2024-02-24T08:49:47.512Z,french_637.wav,0,pull,806,27,5,5,français,f,0,0.0,35.81604326,0.01301393
5cfd119645e1a20001883ee6,87,1,2024-02-24T08:49:47.512Z,french_637.wav,0,pull,806,27,5,5,français,f,1,0.1,-3.18432816,0.82513299
5cfd119645e1a20001883ee6,87,1,2024-02-24T08:49:47.512Z,french_637.wav,0,pull,806,27,5,5,français,f,2,0.2,50.06715701,0.10233849
5cfd119645e1a20001883ee6,87,1,2024-02-24T08:49:47.512Z,french_637.wav,0,pull,806,27,5,5,français,f,3,0.25666667,13.82838787,0.87921638
5cfd119645e1a20001883ee6,88,1,2024-02-24T08:49:47.512Z,french_849.wav,0,poule,709,27,5,5,français,f,0,0.0,-28.99181256,1.60316931
5cfd119645e1a20001883ee6,88,1,2024-02-24T08:49:47.512Z,french_849.wav,0,poule,709,27,5,5,français,f,1,0.1,-23.83365043,0.33831848
5cfd119645e1a20001883ee6,88,1,2024-02-24T08:49:47.512Z,french_849.wav,0,poule,709,27,5,5,français,f,2,0.2,-51.88410218,1.05589654
5cfd119645e1a20001883ee6,88,1,2024-02-24T08:49:47.512Z,french_849.wav,0,poule,709,27,5,5,français,f,3,0.25666667,-29.11212869,1.53017224
5cfd119645e1a20001883ee6,89,1,2024-02-24T08:49:47.512Z,french_524.wav,0,poule,265,27,5,5,français,f,0,0.0,29.26114001,1.50805134
5cfd119645e1a20001883ee6,89,1,2024-02-24T08:49:47.512Z,french_524.wav,0,poule,265,27,5,5,français,f,1,0.1,51.10918927,1.00551207
5cfd119645e1a20001883ee6,89,1,2024-02-24T08:49:47.512Z,french_524.wav,0,poule,265,27,5,5,français,f,2,0.2,-43.7486939,1.81734516
5cfd119645e1a20001883ee6,89,1,2024-02-24T08:49:47.512Z,french_524.wav,0,poule,265,27,5,5,français,f,3,0.25666667,-29.29338592,0.93830148
5cfd119645e1a20001883ee6,90,1,2024-02-24T08:49:47.512Z,french_23.wav,0,poule,540,27,5,5,français,f,0,0.0,60.31001525,1.86606536
5cfd119645e1a20001883ee6,90,1,2024-02-24T08:49:47.512Z,french_23.wav,0,poule,540,27,5,5,français,f,1,0.1,-66.5420171,0.5728784
5cfd119645e1a20001883ee6,90,1,2024-02-24T08:49:47.512Z,french_23.wav,0,poule,540,27,5,5,français,f,2,0.2,63.07925381,0.71513043
5cfd119645e1a20001883ee6,90,1,2024-02-24T08:49:47.512Z,french_23.wav,0,poule,540,27,5,5,français,f,3,0.25666667,-69.51509132,1.52612213
5cfd119645e1a20001883ee6,91,1,2024-02-24T08:49:47.512Z,french_383.wav,0,poule,437,27,5,5,français,f,0,0.0,-42.4544387,1.97405967
5cfd119645e1a20001883ee6,91,1,2024-02-24T08:49:47.512Z,french_383.wav,0,poule,437,27,5,5,français,f,1,0.1,-90.68336638,0.7318817
5cfd119645e1a20001883ee6,91,1,2024-02-24T08:49:47.512Z,french_383.wav,0,poule,437,27,5,5,français,f,2,0.2,-23.68224062,1.2439139
5cfd119645e1a20001883ee6,91,1,2024-02-24T08:49:47.512Z,french_383.wav,0,poule,437,27,5,5,français,f,3,0.25666667,-19.21071009,0.24057374
5cfd119645e1a20001883ee6,92,1,2024-02-24T08:49:47.512Z,french_424.wav,0,pull,1239,27,5,5,français,f,0,0.0,61.39777876,0.24361375
5cfd119645e1a20001883ee6,92,1,2024-02-24T08:49:47.512Z,french_424.wav,0,pull,1239,27,5,5,français,f,1,0.1,-8.76552132,1.04711526
5cfd119645e1a20001883ee6,92,1,2024-02-24T08:49:47.512Z,french_424.wav,0,pull,1239,27,5,5,français,f,2,0.2,33.4280736,1.33335174
5cfd119645e1a20001883ee6,92,1,2024-02-24T08:49:47.512Z,french_424.wav,0,pull,1239,27,5,5,français,f,3,0.25666667,8.6823295,0.59077303
5cfd119645e1a20001883ee6,93,1,2024-02-24T08:49:47.512Z,french_993.wav,0,poule,1043,27,5,5,français,f,0,0.0,3.12847982,1.75015027
5cfd119645e1a20001883ee6,93,1,2024-02-24T08:49:47.512Z,french_993.wav,0,poule,1043,27,5,5,français,f,1,0.1,-78.95304083,0.83743251
5cfd119645e1a20001883ee6,93,1,2024-02-24T08:49:47.512Z,french_993.wav,0,poule,1043,27,5,5,français,f,2,0.2,-13.84245357,0.53594991
5cfd119645e1a20001883ee6,93,1,2024-02-24T08:49:47.512Z,french_993.wav,0,poule,1043,27,5,5,français,f,3,0.25666667,66.66979397,1.46895698
5cfd119645e1a20001883ee6,94,1,2024-02-24T08:49:47.512Z,french_776.wav,0,poule,567,27,5,5,français,f,0,0.0,-9.17095967,0.42962635
5cfd119645e1a20001883ee6,94,1,2024-02-24T08:49:47.512Z,french_776.wav,0,poule,567,27,5,5,français,f,1,0.1,-70.57850226,1.70698124
5cfd119645e1a20001883ee6,94,1,2024-02-24T08:49:47.512Z,french_776.wav,0,poule,567,27,5,5,français,f,2,0.2,63.21349252,1.25010697
5cfd119645e1a20001883ee6,94,1,2024-02-24T08:49:47.512Z,french_776.wav,0,poule,567,27,5,5,français,f,3,0.25666667,59.47578694,1.52671833
5cfd119645e1a20001883ee6,95,1,2024-02-24T08:49:47.512Z,french_814.wav,0,poule,901,27,5,5,français,f,0,0.0,83.0056253,1.4499936
5cfd119645e1a20001883ee6,95,1,2024-02-24T08:49:47.512Z,french_814.wav,0,poule,901,27,5,5,français,f,1,0.1,-71.4586846,0.77595229
5cfd119645e1a20001883ee6,95,1,2024-02-24T08:49:47.512Z,french_814.wav,0,poule,901,27,5,5,français,f,2,0.2,12.63844789,0.21302651
5cfd119645e1a20001883ee6,95,1,2024-02-24T08:49:47.512Z,french_814.wav,0,poule,901,27,5,5,français,f,3,0.25666667,12.39326704,0.16177964
5cfd119645e1a20001883ee6,96,1,2024-02-24T08:49:47.512Z,french_37.wav,0,poule,757,27,5,5,français,f,0,0.0,74.40318054,1.78030803
5cfd119645e1a20001883ee6,96,1,2024-02-24T08:49:47.512Z,french_37.wav,0,poule,757,27,5,5,français,f,1,0.1,1.61071593,1.06555703
5cfd119645e1a20001883ee6,96,1,2024-02-24T08:49:47.512Z,french_37.wav,0,poule,757,27,5,5,français,f,2,0.2,-60.86815184,0.67417333
5cfd119645e1a20001883ee6,96,1,2024-02-24T08:49:47.512Z,french_37.wav,0,poule,757,27,5,5,français,f,3,0.25666667,35.44737922,1.14925698
5cfd119645e1a20001883ee6,97,1,2024-02-24T08:49:47.512Z,french_126.wav,0,poule,923,27,5,5,français,f,0,0.0,92.90369484,0.56379558
5cfd119645e1a20001883ee6,97,1,2024-02-24T08:49:47.512Z,french_126.wav,0,poule,923,27,5,5,français,f,1,0.1,25.09820179,1.73295328
5cfd119645e1a20001883ee6,97,1,2024-02-24T08:49:47.512Z,french_126.wav,0,poule,923,27,5,5,français,f,2,0.2,92.10026461,0.28067586
5cfd119645e1a20001883ee6,97,1,2024-02-24T08:49:47.512Z,french_126.wav,0,poule,923,27,5,5,français,f,3,0.25666667,-27.205087,0.82028398
5cfd119645e1a20001883ee6,98,1,2024-02-24T08:49:47.512Z,french_96.wav,0,poule,625,27,5,5,français,f,0,0.0,-35.67204937,1.29614461
5cfd119645e1a20001883ee6,98,1,2024-02-24T08:49:47.512Z,french_96.wav,0,poule,625,27,5,5,français,f,1,0.1,-14.5967046,0.74963508
5cfd119645e1a20001883ee6,98,1,2024-02-24T08:49:47.512Z,french_96.wav,0,poule,625,27,5,5,français,f,2,0.2,23.77171322,0.96397917
5cfd119645e1a20001883ee6,98,1,2024-02-24T08:49:47.512Z,french_96.wav,0,poule,625,27,5,5,français,f,3,0.25666667,-43.45086892,0.69619931
5cfd119645e1a20001883ee6,99,1,2024-02-24T08:49:47.512Z,french_886.wav,0,poule,480,27,5,5,français,f,0,0.0,-29.93146366,0.4543131
5cfd119645e1a20001883ee6,99,1,2024-02-24T08:49:47.512Z,french_886.wav,0,poule,480,27,5,5,français,f,1,0.1,-19.22170842,1.74784503
5cfd119645e1a20001883ee6,99,1,2024-02-24T08:49:47.512Z,french_886.wav,0,poule,480,27,5,5,français,f,2,0.2,-71.55320982,1.04864587
5cfd119645e1a20001883ee6,99,1,2024-02-24T08:49:47.512Z,french_886.wav,0,poule,480,27,5,5,français,f,3,0.25666667,-23.6698032,1.15835862
5cfd119645e1a20001883ee6,100,2,2024-02-24T08:49:47.512Z,french_312.wav,0,poule,607,27,5,5,français,f,0,0.0,-19.98952993,1.92157149
5cfd119645e1a20001883ee6,100,2,2024-02-24T08:49:47.512Z,french_312.wav,0,poule,607,27,5,5,français,f,1,0.1,50.70617954,0.53263035
5cfd119645e1a20001883ee6,100,2,2024-02-24T08:49:47.512Z,french_312.wav,0,poule,607,27,5,5,français,f,2,0.2,80.27383631,1.8452111
5cfd119645e1a20001883ee6,100,2,2024-02-24T08:49:47.512Z,french_312.wav,0,poule,607,27,5,5,français,f,3,0.25666667,31.55502425,1.73122835
5cfd119645e1a20001883ee6,101,2,2024-02-24T08:49:47.512Z,french_933.wav,0,poule,544,27,5,5,français,f,0,0.0,-24.27897726,0.66366025
5cfd119645e1a20001883ee6,101,2,2024-02-24T08:49:47.512Z,french_933.wav,0,poule,544,27,5,5,français,f,1,0.1,45.4380102,1.16686233
5cfd119645e1a20001883ee6,101,2,2024-02-24T08:49:47.512Z,french_933.wav,0,poule,544,27,5,5,français,f,2,0.2,44.52165476,0.86083852
5cfd119645e1a20001883ee6,101,2,2024-02-24T08:49:47.512Z,french_933.wav,0,poule,544,27,5,5,français,f,3,0.25666667,11.96128215,1.88972919
5cfd119645e1a20001883ee6,102,2,2024-02-24T08:49:47.512Z,french_477.wav,0,poule,611,27,5,5,français,f,0,0.0,-42.83355645,0.5966768
5cfd119645e1a20001883ee6,102,2,2024-02-24T08:49:47.512Z,french_477.wav,0,poule,611,27,5,5,français,f,1,0.1,-62.82113547,0.86071515
5cfd119645e1a20001883ee6,102,2,2024-02-24T08:49:47.512Z,french_477.wav,0,poule,611,27,5,5,français,f,2,0.2,87.24330329,1.68377915
5cfd119645e1a20001883ee6,102,2,2024-02-24T08:49:47.512Z,french_477.wav,0,poule,611,27,5,5,français,f,3,0.25666667,51.53483355,1.05396705
5cfd119645e1a20001883ee6,103,2,2024-02-24T08:49:47.512Z,french_879.wav,0,poule,655,27,5,5,français,f,0,0.0,-48.96816685,1.19104759
5cfd119645e1a20001883ee6,103,2,2024-02-24T08:49:47.512Z,french_879.wav,0,poule,655,27,5,5,français,f,1,0.1,-79.01398257,0.98306132
5cfd119645e1a20001883ee6,103,2,2024-02-24T08:49:47.512Z,french_879.wav,0,poule,655,27,5,5,français,f,2,0.2,-55.9985187,0.68767433
5cfd119645e1a20001883ee6,103,2,2024-02-24T08:49:47.512Z,french_879.wav,0,poule,655,27,5,5,français,f,3,0.25666667,-98.06504365,1.4115175
5cfd119645e1a20001883ee6,104,2,2024-02-24T08:49:47.512Z,french_537.wav,0,poule,580,27,5,5,français,f,0,0.0,24.94182708,0.83905816
5cfd119645e1a20001883ee6,104,2,2024-02-24T08:49:47.512Z,french_537.wav,0,poule,580,27,5,5,français,f,1,0.1,44.89034985,0.4078644
5cfd119645e1a20001883ee6,104,2,2024-02-24T08:49:47.512Z,french_537.wav,0,poule,580,27,5,5,français,f,2,0.2,79.4977598,1.66123527
5cfd119645e1a20001883ee6,104,2,2024-02-24T08:49:47.512Z,french_537.wav,0,poule,580,27,5,5,français,f,3,0.25666667,43.46988515,0.90238518
5cfd119645e1a20001883ee6,105,2,2024-02-24T08:49:47.512Z,french_442.wav,0,poule,485,27,5,5,français,f,0,0.0,60.29330972,0.95088916
5cfd119645e1a20001883ee6,105,2,2024-02-24T08:49:47.512Z,french_442.wav,0,poule,485,27,5,5,français,f,1,0.1,96.30587546,0.89420653
5cfd119645e1a20001883ee6,105,2,2024-02-24T08:49:47.512Z,french_442.wav,0,poule,485,27,5,5,français,f,2,0.2,3.75375275,0.09745987
5cfd119645e1a20001883ee6,105,2,2024-02-24T08:49:47.512Z,french_442.wav,0,poule,485,27,5,5,français,f,3,0.25666667,65.23357012,0.42759775
5cfd119645e1a20001883ee6,106,2,2024-02-24T08:49:47.512Z,french_486.wav,0,poule,929,27,5,5,français,f,0,0.0,-65.13732965,0.7755652
5cfd119645e1a20001883ee6,106,2,2024-02-24T08:49:47.512Z,french_486.wav,0,poule,929,27,5,5,français,f,1,0.1,-93.57114331,0.9577819
5cfd119645e1a20001883ee6,106,2,2024-02-24T08:49:47.512Z,french_486.wav,0,poule,929,27,5,5,français,f,2,0.2,-51.69797787,0.68553835
5cfd119645e1a20001883ee6,106,2,2024-02-24T08:49:47.512Z,french_486.wav,0,poule,929,27,5,5,français,f,3,0.25666667,-3.30938414,0.55056833
5cfd119645e1a20001883ee6,107,2,2024-02-24T08:49:47.512Z,french_640.wav,0,poule,407,27,5,5,français,f,0,0.0,-15.56807975,1.93294171
5cfd119645e1a20001883ee6,107,2,2024-02-24T08:49:47.512Z,french_640.wav,0,poule,407,27,5,5,français,f,1,0.1,54.79262645,1.3982646
5cfd119645e1a20001883ee6,107,2,2024-02-24T08:49:47.512Z,french_640.wav,0,poule,407,27,5,5,français,f,2,0.2,-80.20485071,1.35271381
5cfd119645e1a20001883ee6,107,2,2024-02-24T08:49:47.512Z,french_640.wav,0,poule,407,27,5,5,français,f,3,0.25666667,-47.69326323,0.1240569
5cfd119645e1a20001883ee6,108,2,2024-02-24T08:49:47.512Z,french_763.wav,0,poule,389,27,5,5,français,f,0,0.0,-96.72958763,0.69845728
5cfd119645e1a20001883ee6,108,2,2024-02-24T08:49:47.512Z,french_763.wav,0,poule,389,27,5,5,français,f,1,0.1,95.66434095,1.4089076
5cfd119645e1a20001883ee6,108,2,2024-02-24T08:49:47.512Z,french_763.wav,0,poule,389,27,5,5,français,f,2,0.2,-84.28875962,1.74428554
5cfd119645e1a20001883ee6,108,2,2024-02-24T08:49:47.512Z,french_763.wav,0,poule,389,27,5,5,français,f,3,0.25666667,-41.37848175,0.12054272
5cfd119645e1a20001883ee6,109,2,2024-02-24T08:49:47.512Z,french_275.wav,0,poule,440,27,5,5,français,f,0,0.0,-71.45872278,0.56157087
5cfd119645e1a20001883ee6,109,2,2024-02-24T08:49:47.512Z,french_275.wav,0,poule,440,27,5,5,français,f,1,0.1,50.23093754,1.03531052
5cfd119645e1a20001883ee6,109,2,2024-02-24T08:49:47.512Z,french_275.wav,0,poule,440,27,5,5,français,f,2,0.2,82.04936404,1.31605034
5cfd119645e1a20001883ee6,109,2,2024-02-24T08:49:47.512Z,french_275.wav,0,poule,440,27,5,5,français,f,3,0.25666667,-63.35862329,0.72936955
5cfd119645e1a20001883ee6,110,2,2024-02-24T08:49:47.512Z,french_465.wav,0,poule,677,27,5,5,français,f,0,0.0,75.74191185,0.24775687
5cfd119645e1a20001883ee6,110,2,2024-02-24T08:49:47.512Z,french_465.wav,0,poule,677,27,5,5,français,f,1,0.1,-78.40057178,0.61634124
5cfd119645e1a20001883ee6,110,2,2024-02-24T08:49:47.512Z,french_465.wav,0,poule,677,27,5,5,français,f,2,0.2,-12.36406326,1.57309013
5cfd119645e1a20001883ee6,110,2,2024-02-24T08:49:47.512Z,french_465.wav,0,poule,677,27,5,5,français,f,3,0.25666667,-26.5706303,0.56284004
5cfd119645e1a20001883ee6,111,2,2024-02-24T08:49:47.512Z,french_851.wav,0,poule,898,27,5,5,français,f,0,0.0,-16.14738252,1.77999263
5cfd119645e1a20001883ee6,111,2,2024-02-24T08:49:47.512Z,french_851.wav,0,poule,898,27,5,5,français,f,1,0.1,19.84507786,0.90385235
5cfd119645e1a20001883ee6,111,2,2024-02-24T08:49:47.512Z,french_851.wav,0,poule,898,27,5,5,français,f,2,0.2,-46.64792285,0.51993189
5cfd119645e1a20001883ee6,111,2,2024-02-24T08:49:47.512Z,french_851.wav,0,poule,898,27,5,5,français,f,3,0.25666667,-81.41203514,1.06673989
5cfd119645e1a20001883ee6,112,2,2024-02-24T08:49:47.512Z,french_402.wav,0,poule,509,27,5,5,français,f,0,0.0,-15.06976312,1.40090564
5cfd119645e1a20001883ee6,112,2,2024-02-24T08:49:47.512Z,french_402.wav,0,poule,509,27,5,5,français,f,1,0.1,-35.17937665,1.12974732
5cfd119645e1a20001883ee6,112,2,2024-02-24T08:49:47.512Z,french_402.wav,0,poule,509,27,5,5,français,f,2,0.2,-39.80354227,1.04756912
5cfd119645e1a20001883ee6,112,2,2024-02-24T08:49:47.512Z,french_402.wav,0,poule,509,27,5,5,français,f,3,0.25666667,-27.78014644,0.16748103
5cfd119645e1a20001883ee6,113,2,2024-02-24T08:49:47.512Z,french_612.wav,0,poule,494,27,5,5,français,f,0,0.0,43.10783066,0.49686358
5cfd119645e1a20001883ee6,113,2,2024-02-24T08:49:47.512Z,french_612.wav,0,poule,494,27,5,5,français,f,1,0.1,-4.14995098,1.10500502
5cfd119645e1a20001883ee6,113,2,2024-02-24T08:49:47.512Z,french_612.wav,0,poule,494,27,5,5,français,f,2,0.2,22.17563662,0.22222502
5cfd119645e1a20001883ee6,113,2,2024-02-24T08:49:47.512Z,french_612.wav,0,poule,494,27,5,5,français,f,3,0.25666667,-48.75850842,1.14111641
5cfd119645e1a20001883ee6,114,2,2024-02-24T08:49:47.512Z,french_382.wav,0,poule,425,27,5,5,français,f,0,0.0,-28.76508335,1.75225743
5cfd119645e1a20001883ee6,114,2,2024-02-24T08:49:47.512Z,french_382.wav,0,poule,425,27,5,5,français,f,1,0.1,37.36249056,1.09069334
5cfd119645e1a20001883ee6,114,2,2024-02-24T08:49:47.512Z,french_382.wav,0,poule,425,27,5,5,français,f,2,0.2,12.02014155,1.36067751
5cfd119645e1a20001883ee6,114,2,2024-02-24T08:49:47.512Z,french_382.wav,0,poule,425,27,5,5,français,f,3,0.25666667,-78.65251684,0.9131152
5cfd119645e1a20001883ee6,115,2,2024-02-24T08:49:47.512Z,french_480.wav,0,poule,581,27,5,5,français,f,0,0.0,60.74421865,1.29752088
5cfd119645e1a20001883ee6,115,2,2024-02-24T08:49:47.512Z,french_480.wav,0,poule,581,27,5,5,français,f,1,0.1,-29.59792655,1.96700759
5cfd119645e1a20001883ee6,115,2,2024-02-24T08:49:47.512Z,french_480.wav,0,poule,581,27,5,5,français,f,2,0.2,62.18386975,1.69632814
5cfd119645e1a20001883ee6,115,2,2024-02-24T08:49:47.512Z,french_480.wav,0,poule,581,27,5,5,français,f,3,0.25666667,-29.20855136,1.65374165
5cfd119645e1a20001883ee6,116,2,2024-02-24T08:49:47.512Z,french_502.wav,0,poule,755,27,5,5,français,f,0,0.0,-20.79410197,1.55473715
5cfd119645e1a20001883ee6,116,2,2024-02-24T08:49:47.512Z,french_502.wav,0,poule,755,27,5,5,français,f,1,0.1,-29.31354171,0.75660833
5cfd119645e1a20001883ee6,116,2,2024-02-24T08:49:47.512Z,french_502.wav,0,poule,755,27,5,5,français,f,2,0.2,66.76157716,1.40053341
5cfd119645e1a20001883ee6,116,2,2024-02-24T08:49:47.512Z,french_502.wav,0,poule,755,27,5,5,français,f,3,0.25666667,63.6653431,1.0602207
5cfd119645e1a20001883ee6,117,2,2024-02-24T08:49:47.512Z,french_854.wav,0,poule,427,27,5,5,français,f,0,0.0,-7.31529778,1.19205775
5cfd119645e1a20001883ee6,117,2,2024-02-24T08:49:47.512Z,french_854.wav,0,poule,427,27,5,5,français,f,1,0.1,-99.41756076,1.8519083
5cfd119645e1a20001883ee6,117,2,2024-02-24T08:49:47.512Z,french_854.wav,0,poule,427,27,5,5,français,f,2,0.2,9.72781791,0.75121465
5cfd119645e1a20001883ee6,117,2,2024-02-24T08:49:47.512Z,french_854.wav,0,poule,427,27,5,5,français,f,3,0.25666667,12.92966386,0.73809803
5cfd119645e1a20001883ee6,118,2,2024-02-24T08:49:47.512Z,french_761.wav,0,poule,295,27,5,5,français,f,0,0.0,-26.32638144,1.05429599
5cfd119645e1a20001883ee6,118,2,2024-02-24T08:49:47.512Z,french_761.wav,0,poule,295,27,5,5,français,f,1,0.1,78.13411122,0.90631559
5cfd119645e1a20001883ee6,118,2,2024-02-24T08:49:47.512Z,french_761.wav,0,poule,295,27,5,5,français,f,2,0.2,-6.36477673,1.36732306
5cfd119645e1a20001883ee6,118,2,2024-02-24T08:49:47.512Z,french_761.wav,0,poule,295,27,5,5,français,f,3,0.25666667,-77.19672863,0.83755281
5cfd119645e1a20001883ee6,119,2,2024-02-24T08:49:47.512Z,french_652.wav,0,poule,1032,27,5,5,français,f,0,0.0,19.60271983,1.92708098
5cfd119645e1a20001883ee6,119,2,2024-02-24T08:49:47.512Z,french_652.wav,0,poule,1032,27,5,5,français,f,1,0.1,-55.33376602,1.28238944
5cfd119645e1a20001883ee6,119,2,2024-02-24T08:49:47.512Z,french_652.wav,0,poule,1032,27,5,5,français,f,2,0.2,42.10956493,0.03244996
5cfd119645e1a20001883ee6,119,2,2024-02-24T08:49:47.512Z,french_652.wav,0,poule,1032,27,5,5,français,f,3,0.25666667,-47.80028189,1.59505934
5cfd119645e1a20001883ee6,120,2,2024-02-24T08:49:47.512Z,french_295.wav,0,poule,521,27,5,5,français,f,0,0.0,98.71232228,1.58912918
5cfd119645e1a20001883ee6,120,2,2024-02-24T08:49:47.512Z,french_295.wav,0,poule,521,27,5,5,français,f,1,0.1,19.8777742,0.8460381
5cfd119645e1a20001883ee6,120,2,2024-02-24T08:49:47.512Z,french_295.wav,0,poule,521,27,5,5,français,f,2,0.2,2.02188034,1.72839065
5cfd119645e1a20001883ee6,120,2,2024-02-24T08:49:47.512Z,french_295.wav,0,poule,521,27,5,5,français,f,3,0.25666667,-4.73018768,1.75057888
5cfd119645e1a20001883ee6,121,2,2024-02-24T08:49:47.512Z,french_860.wav,0,poule,556,27,5,5,français,f,0,0.0,33.37389434,1.87718004
5cfd119645e1a20001883ee6,121,2,2024-02-24T08:49:47.512Z,french_860.wav,0,poule,556,27,5,5,français,f,1,0.1,66.22312498,1.50950791
5cfd119645e1a20001883ee6,121,2,2024-02-24T08:49:47.512Z,french_860.wav,0,poule,556,27,5,5,français,f,2,0.2,-4.57961146,0.09437067
5cfd119645e1a20001883ee6,121,2,2024-02-24T08:49:47.512Z,french_860.wav,0,poule,556,27,5,5,français,f,3,0.25666667,50.69207221,1.19183747
5cfd119645e1a20001883ee6,122,2,2024-02-24T08:49:47.512Z,french_5.wav,0,pull,955,27,5,5,français,f,0,0.0,-2.8714843,1.07181682
5cfd119645e1a20001883ee6,122,2,2024-02-24T08:49:47.512Z,french_5.wav,0,pull,955,27,5,5,français,f,1,0.1,-50.9441672,0.56733338
5cfd119645e1a20001883ee6,122,2,2024-02-24T08:49:47.512Z,french_5.wav,0,pull,955,27,5,5,français,f,2,0.2,56.21180826,0.26773361
5cfd119645e1a20001883ee6,122,2,2024-02-24T08:49:47.512Z,french_5.wav,0,pull,955,27,5,5,français,f,3,0.25666667,-57.18619957,1.97613039
5cfd119645e1a20001883ee6,123,2,2024-02-24T08:49:47.512Z,french_20.wav,0,poule,616,27,5,5,français,f,0,0.0,-78.24291845,1.07200279
5cfd119645e1a20001883ee6,123,2,2024-02-24T08:49:47.512Z,french_20.wav,0,poule,616,27,5,5,français,f,1,0.1,-38.50442353,1.52694999
5cfd119645e1a20001883ee6,123,2,2024-02-24T08:49:47.512Z,french_20.wav,0,poule,616,27,5,5,français,f,2,0.2,8.39731749,0.86133356
5cfd119645e1a20001883ee6,123,2,2024-02-24T08:49:47.512Z,french_20.wav,0,poule,616,27,5,5,français,f,3,0.25666667,-43.87764948,0.74788424
5cfd119645e1a20001883ee6,124,2,2024-02-24T08:49:47.512Z,french_287.wav,0,poule,731,27,5,5,français,f,0,0.0,-6.24804435,1.11596696
5cfd119645e1a20001883ee6,124,2,2024-02-24T08:49:47.512Z,french_287.wav,0,poule,731,27,5,5,français,f,1,0.1,-47.42967866,0.08887129
5cfd119645e1a20001883ee6,124,2,2024-02-24T08:49:47.512Z,french_287.wav,0,poule,731,27,5,5,français,f,2,0.2,-83.16585562,1.70974676
5cfd119645e1a20001883ee6,124,2,2024-02-24T08:49:47.512Z,french_287.wav,0,poule,731,27,5,5,français,f,3,0.25666667,77.49694817,0.42476907
5cfd119645e1a20001883ee6,125,2,2024-02-24T08:49:47.512Z,french_781.wav,0,poule,806,27,5,5,français,f,0,0.0,33.25938538,1.27105286
5cfd119645e1a20001883ee6,125,2,2024-02-24T08:49:47.512Z,french_781.wav,0,poule,806,27,5,5,français,f,1,0.1,-13.90292419,0.93357863
5cfd119645e1a20001883ee6,125,2,2024-02-24T08:49:47.512Z,french_781.wav,0,poule,806,27,5,5,français,f,2,0.2,-71.59350782,1.0124146
5cfd119645e1a20001883ee6,125,2,2024-02-24T08:49:47.512Z,french_781.wav,0,poule,806,27,5,5,français,f,3,0.25666667,57.07291034,0.68511696
5cfd119645e1a20001883ee6,126,2,2024-02-24T08:49:47.512Z,french_247.wav,0,poule,505,27,5,5,français,f,0,0.0,31.18827639,0.50646138
5cfd119645e1a20001883ee6,126,2,2024-02-24T08:49:47.512Z,french_247.wav,0,poule,505,27,5,5,français,f,1,0.1,28.69447174,0.63180121
5cfd119645e1a20001883ee6,126,2,2024-02-24T08:49:47.512Z,french_247.wav,0,poule,505,27,5,5,français,f,2,0.2,-68.83088208,1.73165753
5cfd119645e1a20001883ee6,126,2,2024-02-24T08:49:47.512Z,french_247.wav,0,poule,505,27,5,5,français,f,3,0.25666667,44.69710936,1.77415142
5cfd119645e1a20001883ee6,127,2,2024-02-24T08:49:47.512Z,french_621.wav,0,poule,818,27,5,5,français,f,0,0.0,-65.12133357,1.7602607
5cfd119645e1a20001883ee6,127,2,2024-02-24T08:49:47.512Z,french_621.wav,0,poule,818,27,5,5,français,f,1,0.1,-34.98790471,0.92649718
5cfd119645e1a20001883ee6,127,2,2024-02-24T08:49:47.512Z,french_621.wav,0,poule,818,27,5,5,français,f,2,0.2,-12.78608876,1.46782633
5cfd119645e1a20001883ee6,127,2,2024-02-24T08:49:47.512Z,french_621.wav,0,poule,818,27,5,5,français,f,3,0.25666667,53.53170361,0.68266442
5cfd119645e1a20001883ee6,128,2,2024-02-24T08:49:47.512Z,french_962.wav,0,poule,613,27,5,5,français,f,0,0.0,-23.88621243,0.58686494
5cfd119645e1a20001883ee6,128,2,2024-02-24T08:49:47.512Z,french_962.wav,0,poule,613,27,5,5,français,f,1,0.1,-2.32674089,1.96763724
5cfd119645e1a20001883ee6,128,2,2024-02-24T08:49:47.512Z,french_962.wav,0,poule,613,27,5,5,français,f,2,0.2,99.5739753,0.1339284
5cfd119645e1a20001883ee6,128,2,2024-02-24T08:49:47.512Z,french_962.wav,0,poule,613,27,5,5,français,f,3,0.25666667,-60.89946795,0.14371278
5cfd119645e1a20001883ee6,129,2,2024-02-24T08:49:47.512Z,french_548.wav,0,poule,683,27,5,5,français,f,0,0.0,1.54236609,0.97335898
5cfd119645e1a20001883ee6,129,2,2024-02-24T08:49:47.512Z,french_548.wav,0,poule,683,27,5,5,français,f,1,0.1,42.93927178,0.92328993
5cfd119645e1a20001883ee6,129,2,2024-02-24T08:49:47.512Z,french_548.wav,0,poule,683,27,5,5,français,f,2,0.2,94.14256546,0.31229256
5cfd119645e1a20001883ee6,129,2,2024-02-24T08:49:47.512Z,french_548.wav,0,poule,683,27,5,5,français,f,3,0.25666667,78.31055202,0.51911246
5cfd119645e1a20001883ee6,130,2,2024-02-24T08:49:47.512Z,french_580.wav,0,poule,805,27,5,5,français,f,0,0.0,27.05941303,0.35053576
5cfd119645e1a20001883ee6,130,2,2024-02-24T08:49:47.512Z,french_580.wav,0,poule,805,27,5,5,français,f,1,0.1,-10.3346088,1.97169455
5cfd119645e1a20001883ee6,130,2,2024-02-24T08:49:47.512Z,french_580.wav,0,poule,805,27,5,5,français,f,2,0.2,-24.27512535,0.90308202
5cfd119645e1a20001883ee6,130,2,2024-02-24T08:49:47.512Z,french_580.wav,0,poule,805,27,5,5,français,f,3,0.25666667,34.7313677,0.94790865
5cfd119645e1a20001883ee6,131,2,2024-02-24T08:49:47.512Z,french_772.wav,0,poule,1843,27,5,5,français,f,0,0.0,13.96800705,0.2991113
5cfd119645e1a20001883ee6,131,2,2024-02-24T08:49:47.512Z,french_772.wav,0,poule,1843,27,5,5,français,f,1,0.1,5.87945336,0.00189684
5cfd119645e1a20001883ee6,131,2,2024-02-24T08:49:47.512Z,french_772.wav,0,poule,1843,27,5,5,français,f,2,0.2,15.35769187,0.99190584
5cfd119645e1a20001883ee6,131,2,2024-02-24T08:49:47.512Z,french_772.wav,0,poule,1843,27,5,5,français,f,3,0.25666667,-12.22278281,1.49955539
5cfd119645e1a20001883ee6,132,2,2024-02-24T08:49:47.512Z,french_742.wav,0,poule,365,27,5,5,français,f,0,0.0,70.50155873,0.93659897
5cfd119645e1a20001883ee6,132,2,2024-02-24T08:49:47.512Z,french_742.wav,0,poule,365,27,5,5,français,f,1,0.1,-40.99625843,1.14125333
5cfd119645e1a20001883ee6,132,2,2024-02-24T08:49:47.512Z,french_742.wav,0,poule,365,27,5,5,français,f,2,0.2,6.68379951,1.25957194
5cfd119645e1a20001883ee6,132,2,2024-02-24T08:49:47.512Z,french_742.wav,0,poule,365,27,5,5,français,f,3,0.25666667,-76.31698705,0.86761951
5cfd119645e1a20001883ee6,133,2,2024-02-24T08:49:47.512Z,french_520.wav,0,poule,1088,27,5,5,français,f,0,0.0,-93.2931023,0.41573501
5cfd119645e1a20001883ee6,133,2,2024-02-24T08:49:47.512Z,french_520.wav,0,poule,1088,27,5,5,français,f,1,0.1,13.33088057,0.24185226
5cfd119645e1a20001883ee6,133,2,2024-02-24T08:49:47.512Z,french_520.wav,0,poule,1088,27,5,5,français,f,2,0.2,-27.94628904,0.74385359
5cfd119645e1a20001883ee6,133,2,2024-02-24T08:49:47.512Z,french_520.wav,0,poule,1088,27,5,5,français,f,3,0.25666667,-1.59677094,0.80521135
5cfd119645e1a20001883ee6,134,2,2024-02-24T08:49:47.512Z,french_970.wav,0,poule,505,27,5,5,français,f,0,0.0,45.66425393,0.15526341
5cfd119645e1a20001883ee6,134,2,2024-02-24T08:49:47.512Z,french_970.wav,0,poule,505,27,5,5,français,f,1,0.1,-82.79761983,0.70533305
5cfd119645e1a20001883ee6,134,2,2024-02-24T08:49:47.512Z,french_970.wav,0,poule,505,27,5,5,français,f,2,0.2,16.19264407,1.08595816
5cfd119645e1a20001883ee6,134,2,2024-02-24T08:49:47.512Z,french_970.wav,0,poule,505,27,5,5,français,f,3,0.25666667,56.04070076,0.89955958
5cfd119645e1a20001883ee6,135,2,2024-02-24T08:49:47.512Z,french_595.wav,0,poule,723,27,5,5,français,f,0,0.0,-73.15061419,1.40746522
5cfd119645e1a20001883ee6,135,2,2024-02-24T08:49:47.512Z,french_595.wav,0,poule,723,27,5,5,français,f,1,0.1,67.23643261,0.48150889
5cfd119645e1a20001883ee6,135,2,2024-02-24T08:49:47.512Z,french_595.wav,0,poule,723,27,5,5,français,f,2,0.2,29.33444659,0.65461581
5cfd119645e1a20001883ee6,135,2,2024-02-24T08:49:47.512Z,french_595.wav,0,poule,723,27,5,5,français,f,3,0.25666667,-65.67909684,0.62395538
5cfd119645e1a20001883ee6,136,2,2024-02-24T08:49:47.512Z,french_906.wav,0,poule,867,27,5,5,français,f,0,0.0,-13.49448879,0.31236465
5cfd119645e1a20001883ee6,136,2,2024-02-24T08:49:47.512Z,french_906.wav,0,poule,867,27,5,5,français,f,1,0.1,31.46373863,1.12113229
5cfd119645e1a20001883ee6,136,2,2024-02-24T08:49:47.512Z,french_906.wav,0,poule,867,27,5,5,français,f,2,0.2,-49.02376816,0.0749788
5cfd119645e1a20001883ee6,136,2,2024-02-24T08:49:47.512Z,french_906.wav,0,poule,867,27,5,5,français,f,3,0.25666667,26.58933429,0.8331551
5cfd119645e1a20001883ee6,137,2,2024-02-24T08:49:47.512Z,french_187.wav,0,poule,509,27,5,5,français,f,0,0.0,-18.61743148,0.79177474
5cfd119645e1a20001883ee6,137,2,2024-02-24T08:49:47.512Z,french_187.wav,0,poule,509,27,5,5,français,f,1,0.1,27.93687652,0.90472294
5cfd119645e1a20001883ee6,137,2,2024-02-24T08:49:47.512Z,french_187.wav,0,poule,509,27,5,5,français,f,2,0.2,6.26647606,1.3885115
5cfd119645e1a20001883ee6,137,2,2024-02-24T08:49:47.512Z,french_187.wav,0,poule,509,27,5,5,français,f,3,0.25666667,58.88972832,1.88547829
5cfd119645e1a20001883ee6,138,2,2024-02-24T08:49:47.512Z,french_816.wav,0,pull,857,27,5,5,français,f,0,0.0,-39.39804621,1.26291691
5cfd119645e1a20001883ee6,138,2,2024-02-24T08:49:47.512Z,french_816.wav,0,pull,857,27,5,5,français,f,1,0.1,14.23792488,1.60181117
5cfd119645e1a20001883ee6,138,2,2024-02-24T08:49:47.512Z,french_816.wav,0,pull,857,27,5,5,français,f,2,0.2,-84.08825282,0.57012939
5cfd119645e1a20001883ee6,138,2,2024-02-24T08:49:47.512Z,french_816.wav,0,pull,857,27,5,5,français,f,3,0.25666667,-46.46940665,1.06315664
5cfd119645e1a20001883ee6,139,2,2024-02-24T08:49:47.512Z,french_501.wav,0,poule,479,27,5,5,français,f,0,0.0,-56.11865097,1.37224371
5cfd119645e1a20001883ee6,139,2,2024-02-24T08:49:47.512Z,french_501.wav,0,poule,479,27,5,5,français,f,1,0.1,-7.09029516,0.68301448
5cfd119645e1a20001883ee6,139,2,2024-02-24T08:49:47.512Z,french_501.wav,0,poule,479,27,5,5,français,f,2,0.2,-36.29429224,0.41531668
5cfd119645e1a20001883ee6,139,2,2024-02-24T08:49:47.512Z,french_501.wav,0,poule,479,27,5,5,français,f,3,0.25666667,-11.40231031,0.4885534
5cfd119645e1a20001883ee6,140,2,2024-02-24T08:49:47.512Z,french_999.wav,0,poule,667,27,5,5,français,f,0,0.0,47.65145935,0.42993564
5cfd119645e1a20001883ee6,140,2,2024-02-24T08:49:47.512Z,french_999.wav,0,poule,667,27,5,5,français,f,1,0.1,64.90222313,1.41824969
5cfd119645e1a20001883ee6,140,2,2024-02-24T08:49:47.512Z,french_999.wav,0,poule,667,27,5,5,français,f,2,0.2,79.66636989,1.25132817
5cfd119645e1a20001883ee6,140,2,2024-02-24T08:49:47.512Z,french_999.wav,0,poule,667,27,5,5,français,f,3,0.25666667,-10.95327426,1.10016678
5cfd119645e1a20001883ee6,141,2,2024-02-24T08:49:47.512Z,french_690.wav,0,poule,473,27,5,5,français,f,0,0.0,79.01312907,1.49686193
5cfd119645e1a20001883ee6,141,2,2024-02-24T08:49:47.512Z,french_690.wav,0,poule,473,27,5,5,français,f,1,0.1,-50.63616883,0.92741038
5cfd119645e1a20001883ee6,141,2,2024-02-24T08:49:47.512Z,french_690.wav,0,poule,473,27,5,5,français,f,2,0.2,19.49439666,0.30770403
5cfd119645e1a20001883ee6,141,2,2024-02-24T08:49:47.512Z,french_690.wav,0,poule,473,27,5,5,français,f,3,0.25666667,-20.64233715,0.53460579
5cfd119645e1a20001883ee6,142,2,2024-02-24T08:49:47.512Z,french_90.wav,0,poule,438,27,5,5,français,f,0,0.0,-66.53104779,1.39730001
5cfd119645e1a20001883ee6,142,2,2024-02-24T08:49:47.512Z,french_90.wav,0,poule,438,27,5,5,français,f,1,0.1,5.55931872,1.52187206
5cfd119645e1a20001883ee6,142,2,2024-02-24T08:49:47.512Z,french_90.wav,0,poule,438,27,5,5,français,f,2,0.2,41.91338709,1.66100559
5cfd119645e1a20001883ee6,142,2,2024-02-24T08:49:47.512Z,french_90.wav,0,poule,438,27,5,5,français,f,3,0.25666667,-36.12417317,1.31779225
5cfd119645e1a20001883ee6,143,2,2024-02-24T08:49:47.512Z,french_634.wav,0,poule,419,27,5,5,français,f,0,0.0,98.9475862,1.42615099
5cfd119645e1a20001883ee6,143,2,2024-02-24T08:49:47.512Z,french_634.wav,0,poule,419,27,5,5,français,f,1,0.1,-36.03090862,1.16217707
5cfd119645e1a20001883ee6,143,2,2024-02-24T08:49:47.512Z,french_634.wav,0,poule,419,27,5,5,français,f,2,0.2,-69.23221385,1.211026
5cfd119645e1a20001883ee6,143,2,2024-02-24T08:49:47.512Z,french_634.wav,0,poule,419,27,5,5,français,f,3,0.25666667,-43.42340714,1.70841717
5cfd119645e1a20001883ee6,144,2,2024-02-24T08:49:47.512Z,french_653.wav,0,poule,463,27,5,5,français,f,0,0.0,77.9010548,1.15209157
5cfd119645e1a20001883ee6,144,2,2024-02-24T08:49:47.512Z,french_653.wav,0,poule,463,27,5,5,français,f,1,0.1,-51.77114594,0.29445829
5cfd119645e1a20001883ee6,144,2,2024-02-24T08:49:47.512Z,french_653.wav,0,poule,463,27,5,5,français,f,2,0.2,87.84855202,0.58679482
5cfd119645e1a20001883ee6,144,2,2024-02-24T08:49:47.512Z,french_653.wav,0,poule,463,27,5,5,français,f,3,0.25666667,84.03497815,1.23322571
5cfd119645e1a20001883ee6,145,2,2024-02-24T08:49:47.512Z,french_688.wav,0,poule,603,27,5,5,français,f,0,0.0,-12.19437797,1.87578392
5cfd119645e1a20001883ee6,145,2,2024-02-24T08:49:47.512Z,french_688.wav,0,poule,603,27,5,5,français,f,1,0.1,-70.42225937,1.69222134
5cfd119645e1a20001883ee6,145,2,2024-02-24T08:49:47.512Z,french_688.wav,0,poule,603,27,5,5,français,f,2,0.2,-86.95466997,1.82069748
5cfd119645e1a20001883ee6,145,2,2024-02-24T08:49:47.512Z,french_688.wav,0,poule,603,27,5,5,français,f,3,0.25666667,-17.4398035,1.64542948
5cfd119645e1a20001883ee6,146,2,2024-02-24T08:49:47.512Z,french_873.wav,0,poule,477,27,5,5,français,f,0,0.0,-12.1574241,0.39218062
5cfd119645e1a20001883ee6,146,2,2024-02-24T08:49:47.512Z,french_873.wav,0,poule,477,27,5,5,français,f,1,0.1,-18.24590524,1.88422008
5cfd119645e1a20001883ee6,146,2,2024-02-24T08:49:47.512Z,french_873.wav,0,poule,477,27,5,5,français,f,2,0.2,-68.65561389,1.05802306
5cfd119645e1a20001883ee6,146,2,2024-02-24T08:49:47.512Z,french_873.wav,0,poule,477,27,5,5,français,f,3,0.25666667,-45.4488766,0.58030918
5cfd119645e1a20001883ee6,147,2,2024-02-24T08:49:47.512Z,french_990.wav,0,poule,274,27,5,5,français,f,0,0.0,31.68812365,0.81704568
5cfd119645e1a20001883ee6,147,2,2024-02-24T08:49:47.512Z,french_990.wav,0,poule,274,27,5,5,français,f,1,0.1,-82.48323459,1.80008391
5cfd119645e1a20001883ee6,147,2,2024-02-24T08:49:47.512Z,french_990.wav,0,poule,274,27,5,5,français,f,2,0.2,39.0525666,1.73012532
5cfd119645e1a20001883ee6,147,2,2024-02-24T08:49:47.512Z,french_990.wav,0,poule,274,27,5,5,français,f,3,0.25666667,-59.77120272,0.71793452
5cfd119645e1a20001883ee6,148,2,2024-02-24T08:49:47.512Z,french_252.wav,0,poule,443,27,5,5,français,f,0,0.0,-68.3996329,0.41781817
5cfd119645e1a20001883ee6,148,2,2024-02-24T08:49:47.512Z,french_252.wav,0,poule,443,27,5,5,français,f,1,0.1,79.02734002,1.03502761
5cfd119645e1a20001883ee6,148,2,2024-02-24T08:49:47.512Z,french_252.wav,0,poule,443,27,5,5,français,f,2,0.2,-18.50805447,0.82044901
5cfd119645e1a20001883ee6,148,2,2024-02-24T08:49:47.512Z,french_252.wav,0,poule,443,27,5,5,français,f,3,0.25666667,-85.84066145,1.09163249
5cfd119645e1a20001883ee6,149,2,2024-02-24T08:49:47.512Z,french_188.wav,0,poule,389,27,5,5,français,f,0,0.0,49.6210254,1.07409835
5cfd119645e1a20001883ee6,149,2,2024-02-24T08:49:47.512Z,french_188.wav,0,poule,389,27,5,5,français,f,1,0.1,-51.2490581,0.05018037
5cfd119645e1a20001883ee6,149,2,2024-02-24T08:49:47.512Z,french_188.wav,0,poule,389,27,5,5,français,f,2,0.2,40.00177065,1.57813661
5cfd119645e1a20001883ee6,149,2,2024-02-24T08:49:47.512Z,french_188.wav,0,poule,389,27,5,5,français,f,3,0.25666667,-3.28540475,0.4516863
5cfd119645e1a20001883ee6,150,3,2024-02-24T08:49:47.512Z,french_98.wav,0,poule,1177,27,5,5,français,f,0,0.0,-5.34356544,0.47275823
5cfd119645e1a20001883ee6,150,3,2024-02-24T08:49:47.512Z,french_98.wav,0,poule,1177,27,5,5,français,f,1,0.1,-51.77157259,0.98771666
5cfd119645e1a20001883ee6,150,3,2024-02-24T08:49:47.512Z,french_98.wav,0,poule,1177,27,5,5,français,f,2,0.2,16.6615471,0.01400035
5cfd119645e1a20001883ee6,150,3,2024-02-24T08:49:47.512Z,french_98.wav,0,poule,1177,27,5,5,français,f,3,0.25666667,-37.68560636,0.42827786
5cfd119645e1a20001883ee6,151,3,2024-02-24T08:49:47.512Z,french_828.wav,0,poule,407,27,5,5,français,f,0,0.0,-2.7154125,0.72553522
5cfd119645e1a20001883ee6,151,3,2024-02-24T08:49:47.512Z,french_828.wav,0,poule,407,27,5,5,français,f,1,0.1,-36.83814983,1.24313396
5cfd119645e1a20001883ee6,151,3,2024-02-24T08:49:47.512Z,french_828.wav,0,poule,407,27,5,5,français,f,2,0.2,-50.98592502,0.62544862
5cfd119645e1a20001883ee6,151,3,2024-02-24T08:49:47.512Z,french_828.wav,0,poule,407,27,5,5,français,f,3,0.25666667,-48.36073317,1.19233037
5cfd119645e1a20001883ee6,152,3,2024-02-24T08:49:47.512Z,french_669.wav,0,poule,233,27,5,5,français,f,0,0.0,0.0785638242,1.32851713
5cfd119645e1a20001883ee6,152,3,2024-02-24T08:49:47.512Z,french_669.wav,0,poule,233,27,5,5,français,f,1,0.1,6.42084207,1.65603836
5cfd119645e1a20001883ee6,152,3,2024-02-24T08:49:47.512Z,french_669.wav,0,poule,233,27,5,5,français,f,2,0.2,84.3922519,1.32676382
5cfd119645e1a20001883ee6,152,3,2024-02-24T08:49:47.512Z,french_669.wav,0,poule,233,27,5,5,français,f,3,0.256666667,1.87399725,0.80161972
5cfd119645e1a20001883ee6,153,3,2024-02-24T08:49:47.512Z,french_572.wav,0,poule,307,27,5,5,français,f,0,0.0,39.88309013,1.43577141
5cfd119645e1a20001883ee6,153,3,2024-02-24T08:49:47.512Z,french_572.wav,0,poule,307,27,5,5,français,f,1,0.1,-96.79862589,0.70754044
5cfd119645e1a20001883ee6,153,3,2024-02-24T08:49:47.512Z,french_572.wav,0,poule,307,27,5,5,français,f,2,0.2,-22.12237888,0.13254452
5cfd119645e1a20001883ee6,153,3,2024-02-24T08:49:47.512Z,french_572.wav,0,poule,307,27,5,5,français,f,3,0.25666667,-29.01009828,0.2743676
5cfd119645e1a20001883ee6,154,3,2024-02-24T08:49:47.512Z,french_802.wav,0,poule,276,27,5,5,français,f,0,0.0,-73.24347689,0.39190156
5cfd119645e1a20001883ee6,154,3,2024-02-24T08:49:47.512Z,french_802.wav,0,poule,276,27,5,5,français,f,1,0.1,14.85977478,1.18064228
5cfd119645e1a20001883ee6,154,3,2024-02-24T08:49:47.512Z,french_802.wav,0,poule,276,27,5,5,français,f,2,0.2,-45.72901481,1.4654249
5cfd119645e1a20001883ee6,154,3,2024-02-24T08:49:47.512Z,french_802.wav,0,poule,276,27,5,5,français,f,3,0.25666667,-78.69015161,0.6030906
5cfd119645e1a20001883ee6,155,3,2024-02-24T08:49:47.512Z,french_733.wav,0,poule,557,27,5,5,français,f,0,0.0,96.30835656,1.00234216
5cfd119645e1a20001883ee6,155,3,2024-02-24T08:49:47.512Z,french_733.wav,0,poule,557,27,5,5,français,f,1,0.1,-16.80147809,0.65355169
5cfd119645e1a20001883ee6,155,3,2024-02-24T08:49:47.512Z,french_733.wav,0,poule,557,27,5,5,français,f,2,0.2,34.50045069,1.63394937
5cfd119645e1a20001883ee6,155,3,2024-02-24T08:49:47.512Z,french_733.wav,0,poule,557,27,5,5,français,f,3,0.25666667,-6.11336577,0.15404628
5cfd119645e1a20001883ee6,156,3,2024-02-24T08:49:47.512Z,french_793.wav,0,poule,539,27,5,5,français,f,0,0.0,24.81509803,0.12690374
5cfd119645e1a20001883ee6,156,3,2024-02-24T08:49:47.512Z,french_793.wav,0,poule,539,27,5,5,français,f,1,0.1,-63.66512484,0.60816637
5cfd119645e1a20001883ee6,156,3,2024-02-24T08:49:47.512Z,french_793.wav,0,poule,539,27,5,5,français,f,2,0.2,-35.07665133,0.42682998
5cfd119645e1a20001883ee6,156,3,2024-02-24T08:49:47.512Z,french_793.wav,0,poule,539,27,5,5,français,f,3,0.25666667,-2.30327069,0.74050477
5cfd119645e1a20001883ee6,157,3,2024-02-24T08:49:47.512Z,french_619.wav,0,poule,1109,27,5,5,français,f,0,0.0,-58.15289928,0.63115023
5cfd119645e1a20001883ee6,157,3,2024-02-24T08:49:47.512Z,french_619.wav,0,poule,1109,27,5,5,français,f,1,0.1,30.86987971,0.12868397
5cfd119645e1a20001883ee6,157,3,2024-02-24T08:49:47.512Z,french_619.wav,0,poule,1109,27,5,5,français,f,2,0.2,96.84221096,0.73139592
5cfd119645e1a20001883ee6,157,3,2024-02-24T08:49:47.512Z,french_619.wav,0,poule,1109,27,5,5,français,f,3,0.25666667,69.41225319,1.17738103
5cfd119645e1a20001883ee6,158,3,2024-02-24T08:49:47.512Z,french_78.wav,0,poule,245,27,5,5,français,f,0,0.0,-36.45256911,0.98498246
5cfd119645e1a20001883ee6,158,3,2024-02-24T08:49:47.512Z,french_78.wav,0,poule,245,27,5,5,français,f,1,0.1,52.80709263,1.84515784
5cfd119645e1a20001883ee6,158,3,2024-02-24T08:49:47.512Z,french_78.wav,0,poule,245,27,5,5,français,f,2,0.2,-45.25624127,1.50799972
5cfd119645e1a20001883ee6,158,3,2024-02-24T08:49:47.512Z,french_78.wav,0,poule,245,27,5,5,français,f,3,0.25666667,18.96418323,1.61920031
5cfd119645e1a20001883ee6,159,3,2024-02-24T08:49:47.512Z,french_638.wav,0,poule,287,27,5,5,français,f,0,0.0,-18.90498038,0.47409532
5cfd119645e1a20001883ee6,159,3,2024-02-24T08:49:47.512Z,french_638.wav,0,poule,287,27,5,5,français,f,1,0.1,-28.86355513,1.76910273
5cfd119645e1a20001883ee6,159,3,2024-02-24T08:49:47.512Z,french_638.wav,0,poule,287,27,5,5,français,f,2,0.2,-97.62198235,0.72222374
5cfd119645e1a20001883ee6,159,3,2024-02-24T08:49:47.512Z,french_638.wav,0,poule,287,27,5,5,français,f,3,0.25666667,26.30993693,0.09803926
5cfd119645e1a20001883ee6,160,3,2024-02-24T08:49:47.512Z,french_144.wav,0,poule,683,27,5,5,français,f,0,0.0,54.7439873,1.65699933
5cfd119645e1a20001883ee6,160,3,2024-02-24T08:49:47.512Z,french_144.wav,0,poule,683,27,5,5,français,f,1,0.1,-90.40840953,0.10946834
5cfd119645e1a20001883ee6,160,3,2024-02-24T08:49:47.512Z,french_144.wav,0,poule,683,27,5,5,français,f,2,0.2,-23.8496949,0.63660565
5cfd119645e1a20001883ee6,160,3,2024-02-24T08:49:47.512Z,french_144.wav,0,poule,683,27,5,5,français,f,3,0.25666667,9.69074846,0.31092992
5cfd119645e1a20001883ee6,161,3,2024-02-24T08:49:47.512Z,french_348.wav,0,poule,322,27,5,5,français,f,0,0.0,68.47734878,1.61227716
5cfd119645e1a20001883ee6,161,3,2024-02-24T08:49:47.512Z,french_348.wav,0,poule,322,27,5,5,français,f,1,0.1,54.05190865,0.93770463
5cfd119645e1a20001883ee6,161,3,2024-02-24T08:49:47.512Z,french_348.wav,0,poule,322,27,5,5,français,f,2,0.2,0.19125453,1.53689085
5cfd119645e1a20001883ee6,161,3,2024-02-24T08:49:47.512Z,french_348.wav,0,poule,322,27,5,5,français,f,3,0.25666667,-34.65909089,1.17337711
5cfd119645e1a20001883ee6,162,3,2024-02-24T08:49:47.512Z,french_884.wav,0,poule,358,27,5,5,français,f,0,0.0,44.18626496,0.26295785
5cfd119645e1a20001883ee6,162,3,2024-02-24T08:49:47.512Z,french_884.wav,0,poule,358,27,5,5,français,f,1,0.1,-64.95611773,1.5401655
5cfd119645e1a20001883ee6,162,3,2024-02-24T08:49:47.512Z,french_884.wav,0,poule,358,27,5,5,français,f,2,0.2,-49.1644617,1.25089254
5cfd119645e1a20001883ee6,162,3,2024-02-24T08:49:47.512Z,french_884.wav,0,poule,358,27,5,5,français,f,3,0.25666667,-37.6294576,1.82171191
5cfd119645e1a20001883ee6,163,3,2024-02-24T08:49:47.512Z,french_397.wav,0,poule,324,27,5,5,français,f,0,0.0,-13.81470081,1.26162917
5cfd119645e1a20001883ee6,163,3,2024-02-24T08:49:47.512Z,french_397.wav,0,poule,324,27,5,5,français,f,1,0.1,50.38281738,1.19612478
5cfd119645e1a20001883ee6,163,3,2024-02-24T08:49:47.512Z,french_397.wav,0,poule,324,27,5,5,français,f,2,0.2,50.22980228,1.02842354
5cfd119645e1a20001883ee6,163,3,2024-02-24T08:49:47.512Z,french_397.wav,0,poule,324,27,5,5,français,f,3,0.25666667,-83.86271009,0.53389444
5cfd119645e1a20001883ee6,164,3,2024-02-24T08:49:47.512Z,french_229.wav,0,poule,381,27,5,5,français,f,0,0.0,17.32899675,0.73401758
5cfd119645e1a20001883ee6,164,3,2024-02-24T08:49:47.512Z,french_229.wav,0,poule,381,27,5,5,français,f,1,0.1,-73.09434366,0.90990932
5cfd119645e1a20001883ee6,164,3,2024-02-24T08:49:47.512Z,french_229.wav,0,poule,381,27,5,5,français,f,2,0.2,-24.47190501,0.8791544
5cfd119645e1a20001883ee6,164,3,2024-02-24T08:49:47.512Z,french_229.wav,0,poule,381,27,5,5,français,f,3,0.25666667,11.45282545,1.1872524
5cfd119645e1a20001883ee6,165,3,2024-02-24T08:49:47.512Z,french_161.wav,0,poule,500,27,5,5,français,f,0,0.0,61.58397479,1.02686065
5cfd119645e1a20001883ee6,165,3,2024-02-24T08:49:47.512Z,french_161.wav,0,poule,500,27,5,5,français,f,1,0.1,44.64347815,1.42523068
5cfd119645e1a20001883ee6,165,3,2024-02-24T08:49:47.512Z,french_161.wav,0,poule,500,27,5,5,français,f,2,0.2,-11.65199572,0.36377374
5cfd119645e1a20001883ee6,165,3,2024-02-24T08:49:47.512Z,french_161.wav,0,poule,500,27,5,5,français,f,3,0.25666667,76.59463145,0.41836879
5cfd119645e1a20001883ee6,166,3,2024-02-24T08:49:47.512Z,french_498.wav,0,poule,405,27,5,5,français,f,0,0.0,4.68377609,1.22559932
5cfd119645e1a20001883ee6,166,3,2024-02-24T08:49:47.512Z,french_498.wav,0,poule,405,27,5,5,français,f,1,0.1,-15.28708952,1.70630703
5cfd119645e1a20001883ee6,166,3,2024-02-24T08:49:47.512Z,french_498.wav,0,poule,405,27,5,5,français,f,2,0.2,12.01036293,0.54123502
5cfd119645e1a20001883ee6,166,3,2024-02-24T08:49:47.512Z,french_498.wav,0,poule,405,27,5,5,français,f,3,0.25666667,2.49690218,0.39602685
5cfd119645e1a20001883ee6,167,3,2024-02-24T08:49:47.512Z,french_288.wav,0,poule,596,27,5,5,français,f,0,0.0,-9.24929425,1.2144441
5cfd119645e1a20001883ee6,167,3,2024-02-24T08:49:47.512Z,french_288.wav,0,poule,596,27,5,5,français,f,1,0.1,97.18434129,0.01267679
5cfd119645e1a20001883ee6,167,3,2024-02-24T08:49:47.512Z,french_288.wav,0,poule,596,27,5,5,français,f,2,0.2,-8.99940005,1.13720482
5cfd119645e1a20001883ee6,167,3,2024-02-24T08:49:47.512Z,french_288.wav,0,poule,596,27,5,5,français,f,3,0.25666667,-80.67587563,1.56801852
5cfd119645e1a20001883ee6,168,3,2024-02-24T08:49:47.512Z,french_881.wav,0,poule,453,27,5,5,français,f,0,0.0,-25.82648211,0.15296837
5cfd119645e1a20001883ee6,168,3,2024-02-24T08:49:47.512Z,french_881.wav,0,poule,453,27,5,5,français,f,1,0.1,13.08751975,1.42149925
5cfd119645e1a20001883ee6,168,3,2024-02-24T08:49:47.512Z,french_881.wav,0,poule,453,27,5,5,français,f,2,0.2,-84.06590477,1.29281362
5cfd119645e1a20001883ee6,168,3,2024-02-24T08:49:47.512Z,french_881.wav,0,poule,453,27,5,5,français,f,3,0.25666667,-28.7935441,1.41538706
5cfd119645e1a20001883ee6,169,3,2024-02-24T08:49:47.512Z,french_646.wav,0,poule,649,27,5,5,français,f,0,0.0,98.47808426,1.66300853
5cfd119645e1a20001883ee6,169,3,2024-02-24T08:49:47.512Z,french_646.wav,0,poule,649,27,5,5,français,f,1,0.1,98.7741611,0.58876545
5cfd119645e1a20001883ee6,169,3,2024-02-24T08:49:47.512Z,french_646.wav,0,poule,649,27,5,5,français,f,2,0.2,-51.76092723,0.47940067
5cfd119645e1a20001883ee6,169,3,2024-02-24T08:49:47.512Z,french_646.wav,0,poule,649,27,5,5,français,f,3,0.25666667,53.55118827,0.48942216
5cfd119645e1a20001883ee6,170,3,2024-02-24T08:49:47.512Z,french_355.wav,0,pull,1230,27,5,5,français,f,0,0.0,-92.75119925,0.18544254
5cfd119645e1a20001883ee6,170,3,2024-02-24T08:49:47.512Z,french_355.wav,0,pull,1230,27,5,5,français,f,1,0.1,77.20775246,0.07031399
5cfd119645e1a20001883ee6,170,3,2024-02-24T08:49:47.512Z,french_355.wav,0,pull,1230,27,5,5,français,f,2,0.2,-51.05688592,0.46666342
5cfd119645e1a20001883ee6,170,3,2024-02-24T08:49:47.512Z,french_355.wav,0,pull,1230,27,5,5,français,f,3,0.25666667,27.03743598,1.78468618
5cfd119645e1a20001883ee6,171,3,2024-02-24T08:49:47.512Z,french_736.wav,0,pull,807,27,5,5,français,f,0,0.0,-58.2057669,1.39182764
5cfd119645e1a20001883ee6,171,3,2024-02-24T08:49:47.512Z,french_736.wav,0,pull,807,27,5,5,français,f,1,0.1,67.4754916,0.85405242
5cfd119645e1a20001883ee6,171,3,2024-02-24T08:49:47.512Z,french_736.wav,0,pull,807,27,5,5,français,f,2,0.2,92.18157431,1.06665121
5cfd119645e1a20001883ee6,171,3,2024-02-24T08:49:47.512Z,french_736.wav,0,pull,807,27,5,5,français,f,3,0.25666667,88.23593553,0.29553719
5cfd119645e1a20001883ee6,172,3,2024-02-24T08:49:47.512Z,french_64.wav,0,poule,349,27,5,5,français,f,0,0.0,-2.85479512,1.8205441
5cfd119645e1a20001883ee6,172,3,2024-02-24T08:49:47.512Z,french_64.wav,0,poule,349,27,5,5,français,f,1,0.1,-22.43053594,0.65122302
5cfd119645e1a20001883ee6,172,3,2024-02-24T08:49:47.512Z,french_64.wav,0,poule,349,27,5,5,français,f,2,0.2,99.07991634,0.54405082
5cfd119645e1a20001883ee6,172,3,2024-02-24T08:49:47.512Z,french_64.wav,0,poule,349,27,5,5,français,f,3,0.25666667,-6.95169827,0.02019369
5cfd119645e1a20001883ee6,173,3,2024-02-24T08:49:47.512Z,french_953.wav,0,poule,344,27,5,5,français,f,0,0.0,-27.22394829,1.27693125
5cfd119645e1a20001883ee6,173,3,2024-02-24T08:49:47.512Z,french_953.wav,0,poule,344,27,5,5,français,f,1,0.1,-3.36109764,0.12331262
5cfd119645e1a20001883ee6,173,3,2024-02-24T08:49:47.512Z,french_953.wav,0,poule,344,27,5,5,français,f,2,0.2,79.96390299,1.48485403
5cfd119645e1a20001883ee6,173,3,2024-02-24T08:49:47.512Z,french_953.wav,0,poule,344,27,5,5,français,f,3,0.25666667,-20.83871742,0.51230705
5cfd119645e1a20001883ee6,174,3,2024-02-24T08:49:47.512Z,french_131.wav,0,poule,1669,27,5,5,français,f,0,0.0,55.95469812,0.7326606
5cfd119645e1a20001883ee6,174,3,2024-02-24T08:49:47.512Z,french_131.wav,0,poule,1669,27,5,5,français,f,1,0.1,-96.48122085,0.77747938
5cfd119645e1a20001883ee6,174,3,2024-02-24T08:49:47.512Z,french_131.wav,0,poule,1669,27,5,5,français,f,2,0.2,-45.26115565,1.02132862
5cfd119645e1a20001883ee6,174,3,2024-02-24T08:49:47.512Z,french_131.wav,0,poule,1669,27,5,5,français,f,3,0.25666667,97.10583427,0.34109041
5cfd119645e1a20001883ee6,175,3,2024-02-24T08:49:47.512Z,french_103.wav,0,pull,1229,27,5,5,français,f,0,0.0,-37.64273041,0.8608001
5cfd119645e1a20001883ee6,175,3,2024-02-24T08:49:47.512Z,french_103.wav,0,pull,1229,27,5,5,français,f,1,0.1,41.40974178,0.05604445
5cfd119645e1a20001883ee6,175,3,2024-02-24T08:49:47.512Z,french_103.wav,0,pull,1229,27,5,5,français,f,2,0.2,-53.90098235,0.48473984
5cfd119645e1a20001883ee6,175,3,2024-02-24T08:49:47.512Z,french_103.wav,0,pull,1229,27,5,5,français,f,3,0.25666667,-57.22614073,0.01055005
5cfd119645e1a20001883ee6,176,3,2024-02-24T08:49:47.512Z,french_340.wav,0,poule,309,27,5,5,français,f,0,0.0,-77.74428769,1.5012345
5cfd119645e1a20001883ee6,176,3,2024-02-24T08:49:47.512Z,french_340.wav,0,poule,309,27,5,5,français,f,1,0.1,-23.36816436,1.72338521
5cfd119645e1a20001883ee6,176,3,2024-02-24T08:49:47.512Z,french_340.wav,0,poule,309,27,5,5,français,f,2,0.2,-44.47255335,0.55046319
5cfd119645e1a20001883ee6,176,3,2024-02-24T08:49:47.512Z,french_340.wav,0,poule,309,27,5,5,français,f,3,0.25666667,-51.35474548,0.98182936
5cfd119645e1a20001883ee6,177,3,2024-02-24T08:49:47.512Z,french_842.wav,0,poule,597,27,5,5,français,f,0,0.0,74.80920959,0.40194032
5cfd119645e1a20001883ee6,177,3,2024-02-24T08:49:47.512Z,french_842.wav,0,poule,597,27,5,5,français,f,1,0.1,-40.95587484,0.66729024
5cfd119645e1a20001883ee6,177,3,2024-02-24T08:49:47.512Z,french_842.wav,0,poule,597,27,5,5,français,f,2,0.2,40.36105872,0.3355789
5cfd119645e1a20001883ee6,177,3,2024-02-24T08:49:47.512Z,french_842.wav,0,poule,597,27,5,5,français,f,3,0.25666667,-80.22764814,0.97335266
5cfd119645e1a20001883ee6,178,3,2024-02-24T08:49:47.512Z,french_614.wav,0,poule,452,27,5,5,français,f,0,0.0,13.55245103,0.76920018
5cfd119645e1a20001883ee6,178,3,2024-02-24T08:49:47.512Z,french_614.wav,0,poule,452,27,5,5,français,f,1,0.1,56.56377999,1.46632319
5cfd119645e1a20001883ee6,178,3,2024-02-24T08:49:47.512Z,french_614.wav,0,poule,452,27,5,5,français,f,2,0.2,18.28165036,0.77890927
5cfd119645e1a20001883ee6,178,3,2024-02-24T08:49:47.512Z,french_614.wav,0,poule,452,27,5,5,français,f,3,0.25666667,42.87971424,1.0073418
5cfd119645e1a20001883ee6,179,3,2024-02-24T08:49:47.512Z,french_445.wav,0,poule,970,27,5,5,français,f,0,0.0,8.73559539,0.8054478
5cfd119645e1a20001883ee6,179,3,2024-02-24T08:49:47.512Z,french_445.wav,0,poule,970,27,5,5,français,f,1,0.1,-22.15313252,1.73211315
5cfd119645e1a20001883ee6,179,3,2024-02-24T08:49:47.512Z,french_445.wav,0,poule,970,27,5,5,français,f,2,0.2,26.0955013,0.21896619
5cfd119645e1a20001883ee6,179,3,2024-02-24T08:49:47.512Z,french_445.wav,0,poule,970,27,5,5,français,f,3,0.25666667,22.70157082,0.54256666
5cfd119645e1a20001883ee6,180,3,2024-02-24T08:49:47.512Z,french_961.wav,0,poule,9306,27,5,5,français,f,0,0.0,-20.33448842,1.15404666
5cfd119645e1a20001883ee6,180,3,2024-02-24T08:49:47.512Z,french_961.wav,0,poule,9306,27,5,5,français,f,1,0.1,-4.78685128,0.60063951
5cfd119645e1a20001883ee6,180,3,2024-02-24T08:49:47.512Z,french_961.wav,0,poule,9306,27,5,5,français,f,2,0.2,-11.93718074,0.7481002
5cfd119645e1a20001883ee6,180,3,2024-02-24T08:49:47.512Z,french_961.wav,0,poule,9306,27,5,5,français,f,3,0.25666667,-89.16955282,0.88090291
5cfd119645e1a20001883ee6,181,3,2024-02-24T08:49:47.512Z,french_785.wav,0,poule,527,27,5,5,français,f,0,0.0,-85.51822201,1.39201941
5cfd119645e1a20001883ee6,181,3,2024-02-24T08:49:47.512Z,french_785.wav,0,poule,527,27,5,5,français,f,1,0.1,-3.83792251,0.93814534
5cfd119645e1a20001883ee6,181,3,2024-02-24T08:49:47.512Z,french_785.wav,0,poule,527,27,5,5,français,f,2,0.2,45.88945115,0.59493864
5cfd119645e1a20001883ee6,181,3,2024-02-24T08:49:47.512Z,french_785.wav,0,poule,527,27,5,5,français,f,3,0.25666667,38.51931882,0.08649149
5cfd119645e1a20001883ee6,182,3,2024-02-24T08:49:47.512Z,french_857.wav,0,poule,355,27,5,5,français,f,0,0.0,40.93487779,1.95936394
5cfd119645e1a20001883ee6,182,3,2024-02-24T08:49:47.512Z,french_857.wav,0,poule,355,27,5,5,français,f,1,0.1,-17.75235864,1.43648621
5cfd119645e1a20001883ee6,182,3,2024-02-24T08:49:47.512Z,french_857.wav,0,poule,355,27,5,5,français,f,2,0.2,39.31370365,1.12127335
5cfd119645e1a20001883ee6,182,3,2024-02-24T08:49:47.512Z,french_857.wav,0,poule,355,27,5,5,français,f,3,0.25666667,-10.04228362,0.40363044
5cfd119645e1a20001883ee6,183,3,2024-02-24T08:49:47.512Z,french_531.wav,0,pull,1007,27,5,5,français,f,0,0.0,76.38960861,1.48422918
5cfd119645e1a20001883ee6,183,3,2024-02-24T08:49:47.512Z,french_531.wav,0,pull,1007,27,5,5,français,f,1,0.1,-14.4624089,0.31285067
5cfd119645e1a20001883ee6,183,3,2024-02-24T08:49:47.512Z,french_531.wav,0,pull,1007,27,5,5,français,f,2,0.2,97.56303867,0.71358588
5cfd119645e1a20001883ee6,183,3,2024-02-24T08:49:47.512Z,french_531.wav,0,pull,1007,27,5,5,français,f,3,0.25666667,-4.62103118,0.65318394
5cfd119645e1a20001883ee6,184,3,2024-02-24T08:49:47.512Z,french_530.wav,0,poule,560,27,5,5,français,f,0,0.0,-48.266975,0.22885815
5cfd119645e1a20001883ee6,184,3,2024-02-24T08:49:47.512Z,french_530.wav,0,poule,560,27,5,5,français,f,1,0.1,10.53522492,0.99708564
5cfd119645e1a20001883ee6,184,3,2024-02-24T08:49:47.512Z,french_530.wav,0,poule,560,27,5,5,français,f,2,0.2,-70.81391458,0.43471164
5cfd119645e1a20001883ee6,184,3,2024-02-24T08:49:47.512Z,french_530.wav,0,poule,560,27,5,5,français,f,3,0.25666667,-13.69241617,0.61022423
5cfd119645e1a20001883ee6,185,3,2024-02-24T08:49:47.512Z,french_809.wav,0,poule,443,27,5,5,français,f,0,0.0,-35.34138518,0.91250327
5cfd119645e1a20001883ee6,185,3,2024-02-24T08:49:47.512Z,french_809.wav,0,poule,443,27,5,5,français,f,1,0.1,-27.53268432,1.55486221
5cfd119645e1a20001883ee6,185,3,2024-02-24T08:49:47.512Z,french_809.wav,0,poule,443,27,5,5,français,f,2,0.2,-4.59062168,0.05513513
5cfd119645e1a20001883ee6,185,3,2024-02-24T08:49:47.512Z,french_809.wav,0,poule,443,27,5,5,français,f,3,0.25666667,54.17413939,0.74937359
5cfd119645e1a20001883ee6,186,3,2024-02-24T08:49:47.512Z,french_547.wav,0,poule,397,27,5,5,français,f,0,0.0,-72.35697933,0.54090293
5cfd119645e1a20001883ee6,186,3,2024-02-24T08:49:47.512Z,french_547.wav,0,poule,397,27,5,5,français,f,1,0.1,-74.8664908,1.21231176
5cfd119645e1a20001883ee6,186,3,2024-02-24T08:49:47.512Z,french_547.wav,0,poule,397,27,5,5,français,f,2,0.2,67.97778582,1.67585204
5cfd119645e1a20001883ee6,186,3,2024-02-24T08:49:47.512Z,french_547.wav,0,poule,397,27,5,5,français,f,3,0.25666667,23.13057238,0.28113426
5cfd119645e1a20001883ee6,187,3,2024-02-24T08:49:47.512Z,french_284.wav,0,poule,329,27,5,5,français,f,0,0.0,9.11616736,0.794635
5cfd119645e1a20001883ee6,187,3,2024-02-24T08:49:47.512Z,french_284.wav,0,poule,329,27,5,5,français,f,1,0.1,1.28278273,0.64071903
5cfd119645e1a20001883ee6,187,3,2024-02-24T08:49:47.512Z,french_284.wav,0,poule,329,27,5,5,français,f,2,0.2,64.48623036,0.85736223
5cfd119645e1a20001883ee6,187,3,2024-02-24T08:49:47.512Z,french_284.wav,0,poule,329,27,5,5,français,f,3,0.25666667,-18.83957989,1.30798049
5cfd119645e1a20001883ee6,188,3,2024-02-24T08:49:47.512Z,french_191.wav,0,poule,293,27,5,5,français,f,0,0.0,61.70033847,1.87867126
5cfd119645e1a20001883ee6,188,3,2024-02-24T08:49:47.512Z,french_191.wav,0,poule,293,27,5,5,français,f,1,0.1,-19.77100541,0.40395676
5cfd119645e1a20001883ee6,188,3,2024-02-24T08:49:47.512Z,french_191.wav,0,poule,293,27,5,5,français,f,2,0.2,-44.48193137,1.14362057
5cfd119645e1a20001883ee6,188,3,2024-02-24T08:49:47.512Z,french_191.wav,0,poule,293,27,5,5,français,f,3,0.25666667,-92.19007218,1.68692384
5cfd119645e1a20001883ee6,189,3,2024-02-24T08:49:47.512Z,french_164.wav,0,poule,250,27,5,5,français,f,0,0.0,-18.17175111,1.54231832
5cfd119645e1a20001883ee6,189,3,2024-02-24T08:49:47.512Z,french_164.wav,0,poule,250,27,5,5,français,f,1,0.1,76.91542059,0.85273823
5cfd119645e1a20001883ee6,189,3,2024-02-24T08:49:47.512Z,french_164.wav,0,poule,250,27,5,5,français,f,2,0.2,-44.02896165,1.08595521
5cfd119645e1a20001883ee6,189,3,2024-02-24T08:49:47.512Z,french_164.wav,0,poule,250,27,5,5,français,f,3,0.25666667,-52.20678857,1.30612675
