subj,trial,block,date,stim,stim_order,response,rt,age,english,french,language,sex,param_index,segment,pitch,stretch
5eae48f0f3540c5177f3474c,0,0,2024-02-24T08:56:18.107Z,french_55.wav,0,pull,10722,48,4,5,français,m,0,0.0,54.29815268,1.84925003
5eae48f0f3540c5177f3474c,0,0,2024-02-24T08:56:18.107Z,french_55.wav,0,pull,10722,48,4,5,français,m,1,0.1,66.77804826,1.2451745
5eae48f0f3540c5177f3474c,0,0,2024-02-24T08:56:18.107Z,french_55.wav,0,pull,10722,48,4,5,français,m,2,0.2,-38.71051383,1.48535221
5eae48f0f3540c5177f3474c,0,0,2024-02-24T08:56:18.107Z,french_55.wav,0,pull,10722,48,4,5,français,m,3,0.25666667,0.30980485,1.20016501
5eae48f0f3540c5177f3474c,1,0,2024-02-24T08:56:18.107Z,french_174.wav,0,pull,4029,48,4,5,français,m,0,0.0,1.45674265,0.26044346
5eae48f0f3540c5177f3474c,1,0,2024-02-24T08:56:18.107Z,french_174.wav,0,pull,4029,48,4,5,français,m,1,0.1,47.27057229,1.87217745
5eae48f0f3540c5177f3474c,1,0,2024-02-24T08:56:18.107Z,french_174.wav,0,pull,4029,48,4,5,français,m,2,0.2,-41.5239841,1.40485436
5eae48f0f3540c5177f3474c,1,0,2024-02-24T08:56:18.107Z,french_174.wav,0,pull,4029,48,4,5,français,m,3,0.25666667,32.3517821,1.2389409
5eae48f0f3540c5177f3474c,2,0,2024-02-24T08:56:18.107Z,french_722.wav,0,poule,861,48,4,5,français,m,0,0.0,60.56599831,1.86075077
5eae48f0f3540c5177f3474c,2,0,2024-02-24T08:56:18.107Z,french_722.wav,0,poule,861,48,4,5,français,m,1,0.1,-62.73703536,0.80738175
5eae48f0f3540c5177f3474c,2,0,2024-02-24T08:56:18.107Z,french_722.wav,0,poule,861,48,4,5,français,m,2,0.2,-66.13157344,0.80798992
5eae48f0f3540c5177f3474c,2,0,2024-02-24T08:56:18.107Z,french_722.wav,0,poule,861,48,4,5,français,m,3,0.25666667,59.05774632,0.27445487
5eae48f0f3540c5177f3474c,3,0,2024-02-24T08:56:18.107Z,french_358.wav,0,poule,425,48,4,5,français,m,0,0.0,-21.88755711,1.21014447
5eae48f0f3540c5177f3474c,3,0,2024-02-24T08:56:18.107Z,french_358.wav,0,poule,425,48,4,5,français,m,1,0.1,-5.628981,1.2650669
5eae48f0f3540c5177f3474c,3,0,2024-02-24T08:56:18.107Z,french_358.wav,0,poule,425,48,4,5,français,m,2,0.2,-60.01307733,0.97277603
5eae48f0f3540c5177f3474c,3,0,2024-02-24T08:56:18.107Z,french_358.wav,0,poule,425,48,4,5,français,m,3,0.25666667,65.58947466,0.28969343
5eae48f0f3540c5177f3474c,4,0,2024-02-24T08:56:18.107Z,french_740.wav,0,poule,406,48,4,5,français,m,0,0.0,-63.22643447,1.41698272
5eae48f0f3540c5177f3474c,4,0,2024-02-24T08:56:18.107Z,french_740.wav,0,poule,406,48,4,5,français,m,1,0.1,-76.79793208,1.15791198
5eae48f0f3540c5177f3474c,4,0,2024-02-24T08:56:18.107Z,french_740.wav,0,poule,406,48,4,5,français,m,2,0.2,-90.89358737,1.97460827
5eae48f0f3540c5177f3474c,4,0,2024-02-24T08:56:18.107Z,french_740.wav,0,poule,406,48,4,5,français,m,3,0.25666667,-87.57687491,0.61281255
5eae48f0f3540c5177f3474c,5,0,2024-02-24T08:56:18.107Z,french_980.wav,0,poule,409,48,4,5,français,m,0,0.0,-38.7537279,0.7061587
5eae48f0f3540c5177f3474c,5,0,2024-02-24T08:56:18.107Z,french_980.wav,0,poule,409,48,4,5,français,m,1,0.1,12.31277697,1.27161124
5eae48f0f3540c5177f3474c,5,0,2024-02-24T08:56:18.107Z,french_980.wav,0,poule,409,48,4,5,français,m,2,0.2,6.50697833,0.8921187
5eae48f0f3540c5177f3474c,5,0,2024-02-24T08:56:18.107Z,french_980.wav,0,poule,409,48,4,5,français,m,3,0.25666667,-34.92912415,1.97802528
5eae48f0f3540c5177f3474c,6,0,2024-02-24T08:56:18.107Z,french_5.wav,0,poule,750,48,4,5,français,m,0,0.0,-2.8714843,1.07181682
5eae48f0f3540c5177f3474c,6,0,2024-02-24T08:56:18.107Z,french_5.wav,0,poule,750,48,4,5,français,m,1,0.1,-50.9441672,0.56733338
5eae48f0f3540c5177f3474c,6,0,2024-02-24T08:56:18.107Z,french_5.wav,0,poule,750,48,4,5,français,m,2,0.2,56.21180826,0.26773361
5eae48f0f3540c5177f3474c,6,0,2024-02-24T08:56:18.107Z,french_5.wav,0,poule,750,48,4,5,français,m,3,0.25666667,-57.18619957,1.97613039
5eae48f0f3540c5177f3474c,7,0,2024-02-24T08:56:18.107Z,french_914.wav,0,poule,350,48,4,5,français,m,0,0.0,-34.97252921,0.97835832
5eae48f0f3540c5177f3474c,7,0,2024-02-24T08:56:18.107Z,french_914.wav,0,poule,350,48,4,5,français,m,1,0.1,-72.63984802,0.99245682
5eae48f0f3540c5177f3474c,7,0,2024-02-24T08:56:18.107Z,french_914.wav,0,poule,350,48,4,5,français,m,2,0.2,-17.99574982,1.64333977
5eae48f0f3540c5177f3474c,7,0,2024-02-24T08:56:18.107Z,french_914.wav,0,poule,350,48,4,5,français,m,3,0.25666667,97.045673,1.63101446
5eae48f0f3540c5177f3474c,8,0,2024-02-24T08:56:18.107Z,french_113.wav,0,poule,374,48,4,5,français,m,0,0.0,0.51528889,0.39555504
5eae48f0f3540c5177f3474c,8,0,2024-02-24T08:56:18.107Z,french_113.wav,0,poule,374,48,4,5,français,m,1,0.1,31.38938416,1.50115078
5eae48f0f3540c5177f3474c,8,0,2024-02-24T08:56:18.107Z,french_113.wav,0,poule,374,48,4,5,français,m,2,0.2,-56.71204584,1.00732686
5eae48f0f3540c5177f3474c,8,0,2024-02-24T08:56:18.107Z,french_113.wav,0,poule,374,48,4,5,français,m,3,0.25666667,95.05763822,0.59062761
5eae48f0f3540c5177f3474c,9,0,2024-02-24T08:56:18.107Z,french_702.wav,0,poule,390,48,4,5,français,m,0,0.0,-53.8337347,0.65995653
5eae48f0f3540c5177f3474c,9,0,2024-02-24T08:56:18.107Z,french_702.wav,0,poule,390,48,4,5,français,m,1,0.1,13.17722269,1.48591365
5eae48f0f3540c5177f3474c,9,0,2024-02-24T08:56:18.107Z,french_702.wav,0,poule,390,48,4,5,français,m,2,0.2,-63.63948694,1.16262137
5eae48f0f3540c5177f3474c,9,0,2024-02-24T08:56:18.107Z,french_702.wav,0,poule,390,48,4,5,français,m,3,0.25666667,-7.77006894,1.49403865
5eae48f0f3540c5177f3474c,10,0,2024-02-24T08:56:18.107Z,french_93.wav,0,poule,736,48,4,5,français,m,0,0.0,23.57211404,0.62732128
5eae48f0f3540c5177f3474c,10,0,2024-02-24T08:56:18.107Z,french_93.wav,0,poule,736,48,4,5,français,m,1,0.1,-16.15934767,0.10811818
5eae48f0f3540c5177f3474c,10,0,2024-02-24T08:56:18.107Z,french_93.wav,0,poule,736,48,4,5,français,m,2,0.2,25.54711871,0.30787392
5eae48f0f3540c5177f3474c,10,0,2024-02-24T08:56:18.107Z,french_93.wav,0,poule,736,48,4,5,français,m,3,0.25666667,65.09284613,1.57978374
5eae48f0f3540c5177f3474c,11,0,2024-02-24T08:56:18.107Z,french_857.wav,0,poule,377,48,4,5,français,m,0,0.0,40.93487779,1.95936394
5eae48f0f3540c5177f3474c,11,0,2024-02-24T08:56:18.107Z,french_857.wav,0,poule,377,48,4,5,français,m,1,0.1,-17.75235864,1.43648621
5eae48f0f3540c5177f3474c,11,0,2024-02-24T08:56:18.107Z,french_857.wav,0,poule,377,48,4,5,français,m,2,0.2,39.31370365,1.12127335
5eae48f0f3540c5177f3474c,11,0,2024-02-24T08:56:18.107Z,french_857.wav,0,poule,377,48,4,5,français,m,3,0.25666667,-10.04228362,0.40363044
5eae48f0f3540c5177f3474c,12,0,2024-02-24T08:56:18.107Z,french_350.wav,0,poule,512,48,4,5,français,m,0,0.0,-94.89147327,1.34276454
5eae48f0f3540c5177f3474c,12,0,2024-02-24T08:56:18.107Z,french_350.wav,0,poule,512,48,4,5,français,m,1,0.1,-69.96874844,1.56346818
5eae48f0f3540c5177f3474c,12,0,2024-02-24T08:56:18.107Z,french_350.wav,0,poule,512,48,4,5,français,m,2,0.2,-41.05008416,0.76037532
5eae48f0f3540c5177f3474c,12,0,2024-02-24T08:56:18.107Z,french_350.wav,0,poule,512,48,4,5,français,m,3,0.25666667,27.21030297,1.08356683
5eae48f0f3540c5177f3474c,13,0,2024-02-24T08:56:18.107Z,french_115.wav,0,poule,395,48,4,5,français,m,0,0.0,79.30886426,0.55665137
5eae48f0f3540c5177f3474c,13,0,2024-02-24T08:56:18.107Z,french_115.wav,0,poule,395,48,4,5,français,m,1,0.1,38.64809671,1.15526328
5eae48f0f3540c5177f3474c,13,0,2024-02-24T08:56:18.107Z,french_115.wav,0,poule,395,48,4,5,français,m,2,0.2,24.58912206,1.92727625
5eae48f0f3540c5177f3474c,13,0,2024-02-24T08:56:18.107Z,french_115.wav,0,poule,395,48,4,5,français,m,3,0.25666667,-50.07125558,0.36414304
5eae48f0f3540c5177f3474c,14,0,2024-02-24T08:56:18.107Z,french_221.wav,0,poule,305,48,4,5,français,m,0,0.0,-51.4093514,1.39236456
5eae48f0f3540c5177f3474c,14,0,2024-02-24T08:56:18.107Z,french_221.wav,0,poule,305,48,4,5,français,m,1,0.1,-69.26159538,1.1318895
5eae48f0f3540c5177f3474c,14,0,2024-02-24T08:56:18.107Z,french_221.wav,0,poule,305,48,4,5,français,m,2,0.2,-72.79183118,0.94601275
5eae48f0f3540c5177f3474c,14,0,2024-02-24T08:56:18.107Z,french_221.wav,0,poule,305,48,4,5,français,m,3,0.25666667,34.31828887,1.80964418
5eae48f0f3540c5177f3474c,15,0,2024-02-24T08:56:18.107Z,french_400.wav,0,poule,332,48,4,5,français,m,0,0.0,-93.78872851,1.79390568
5eae48f0f3540c5177f3474c,15,0,2024-02-24T08:56:18.107Z,french_400.wav,0,poule,332,48,4,5,français,m,1,0.1,52.09991665,0.45516445
5eae48f0f3540c5177f3474c,15,0,2024-02-24T08:56:18.107Z,french_400.wav,0,poule,332,48,4,5,français,m,2,0.2,99.5217597,0.71943881
5eae48f0f3540c5177f3474c,15,0,2024-02-24T08:56:18.107Z,french_400.wav,0,poule,332,48,4,5,français,m,3,0.25666667,34.2913143,0.66600511
5eae48f0f3540c5177f3474c,16,0,2024-02-24T08:56:18.107Z,french_763.wav,0,poule,564,48,4,5,français,m,0,0.0,-96.72958763,0.69845728
5eae48f0f3540c5177f3474c,16,0,2024-02-24T08:56:18.107Z,french_763.wav,0,poule,564,48,4,5,français,m,1,0.1,95.66434095,1.4089076
5eae48f0f3540c5177f3474c,16,0,2024-02-24T08:56:18.107Z,french_763.wav,0,poule,564,48,4,5,français,m,2,0.2,-84.28875962,1.74428554
5eae48f0f3540c5177f3474c,16,0,2024-02-24T08:56:18.107Z,french_763.wav,0,poule,564,48,4,5,français,m,3,0.25666667,-41.37848175,0.12054272
5eae48f0f3540c5177f3474c,17,0,2024-02-24T08:56:18.107Z,french_336.wav,0,poule,898,48,4,5,français,m,0,0.0,-59.08437243,0.65572155
5eae48f0f3540c5177f3474c,17,0,2024-02-24T08:56:18.107Z,french_336.wav,0,poule,898,48,4,5,français,m,1,0.1,-11.33502928,1.68249373
5eae48f0f3540c5177f3474c,17,0,2024-02-24T08:56:18.107Z,french_336.wav,0,poule,898,48,4,5,français,m,2,0.2,-8.85944942,0.52457197
5eae48f0f3540c5177f3474c,17,0,2024-02-24T08:56:18.107Z,french_336.wav,0,poule,898,48,4,5,français,m,3,0.25666667,-2.33471857,1.1312199
5eae48f0f3540c5177f3474c,18,0,2024-02-24T08:56:18.107Z,french_170.wav,0,poule,393,48,4,5,français,m,0,0.0,33.63406691,1.37140183
5eae48f0f3540c5177f3474c,18,0,2024-02-24T08:56:18.107Z,french_170.wav,0,poule,393,48,4,5,français,m,1,0.1,-66.14633185,0.98919038
5eae48f0f3540c5177f3474c,18,0,2024-02-24T08:56:18.107Z,french_170.wav,0,poule,393,48,4,5,français,m,2,0.2,-74.26701986,1.38629831
5eae48f0f3540c5177f3474c,18,0,2024-02-24T08:56:18.107Z,french_170.wav,0,poule,393,48,4,5,français,m,3,0.25666667,32.33295865,0.43392523
5eae48f0f3540c5177f3474c,19,0,2024-02-24T08:56:18.107Z,french_854.wav,0,poule,345,48,4,5,français,m,0,0.0,-7.31529778,1.19205775
5eae48f0f3540c5177f3474c,19,0,2024-02-24T08:56:18.107Z,french_854.wav,0,poule,345,48,4,5,français,m,1,0.1,-99.41756076,1.8519083
5eae48f0f3540c5177f3474c,19,0,2024-02-24T08:56:18.107Z,french_854.wav,0,poule,345,48,4,5,français,m,2,0.2,9.72781791,0.75121465
5eae48f0f3540c5177f3474c,19,0,2024-02-24T08:56:18.107Z,french_854.wav,0,poule,345,48,4,5,français,m,3,0.25666667,12.92966386,0.73809803
5eae48f0f3540c5177f3474c,20,0,2024-02-24T08:56:18.107Z,french_942.wav,0,poule,356,48,4,5,français,m,0,0.0,-53.20970077,1.55725844
5eae48f0f3540c5177f3474c,20,0,2024-02-24T08:56:18.107Z,french_942.wav,0,poule,356,48,4,5,français,m,1,0.1,-81.68739914,1.2093944
5eae48f0f3540c5177f3474c,20,0,2024-02-24T08:56:18.107Z,french_942.wav,0,poule,356,48,4,5,français,m,2,0.2,39.47129185,0.05517711
5eae48f0f3540c5177f3474c,20,0,2024-02-24T08:56:18.107Z,french_942.wav,0,poule,356,48,4,5,français,m,3,0.25666667,-77.13084916,1.56672295
5eae48f0f3540c5177f3474c,21,0,2024-02-24T08:56:18.107Z,french_859.wav,0,poule,316,48,4,5,français,m,0,0.0,52.92786792,1.14238893
5eae48f0f3540c5177f3474c,21,0,2024-02-24T08:56:18.107Z,french_859.wav,0,poule,316,48,4,5,français,m,1,0.1,18.54274392,1.12707434
5eae48f0f3540c5177f3474c,21,0,2024-02-24T08:56:18.107Z,french_859.wav,0,poule,316,48,4,5,français,m,2,0.2,-25.06242892,1.93999144
5eae48f0f3540c5177f3474c,21,0,2024-02-24T08:56:18.107Z,french_859.wav,0,poule,316,48,4,5,français,m,3,0.25666667,0.70946668,1.31682519
5eae48f0f3540c5177f3474c,22,0,2024-02-24T08:56:18.107Z,french_162.wav,0,poule,324,48,4,5,français,m,0,0.0,-20.03052962,1.70466969
5eae48f0f3540c5177f3474c,22,0,2024-02-24T08:56:18.107Z,french_162.wav,0,poule,324,48,4,5,français,m,1,0.1,-35.11860261,0.77666831
5eae48f0f3540c5177f3474c,22,0,2024-02-24T08:56:18.107Z,french_162.wav,0,poule,324,48,4,5,français,m,2,0.2,20.80868131,1.88915568
5eae48f0f3540c5177f3474c,22,0,2024-02-24T08:56:18.107Z,french_162.wav,0,poule,324,48,4,5,français,m,3,0.25666667,50.74802705,1.69994842
5eae48f0f3540c5177f3474c,23,0,2024-02-24T08:56:18.107Z,french_837.wav,0,poule,462,48,4,5,français,m,0,0.0,12.86528577,1.70928146
5eae48f0f3540c5177f3474c,23,0,2024-02-24T08:56:18.107Z,french_837.wav,0,poule,462,48,4,5,français,m,1,0.1,80.83337189,0.14925978
5eae48f0f3540c5177f3474c,23,0,2024-02-24T08:56:18.107Z,french_837.wav,0,poule,462,48,4,5,français,m,2,0.2,-88.94110826,0.83215091
5eae48f0f3540c5177f3474c,23,0,2024-02-24T08:56:18.107Z,french_837.wav,0,poule,462,48,4,5,français,m,3,0.25666667,32.10555955,1.23671449
5eae48f0f3540c5177f3474c,24,0,2024-02-24T08:56:18.107Z,french_518.wav,0,poule,454,48,4,5,français,m,0,0.0,30.08897808,1.28002377
5eae48f0f3540c5177f3474c,24,0,2024-02-24T08:56:18.107Z,french_518.wav,0,poule,454,48,4,5,français,m,1,0.1,-42.00678694,0.31881796
5eae48f0f3540c5177f3474c,24,0,2024-02-24T08:56:18.107Z,french_518.wav,0,poule,454,48,4,5,français,m,2,0.2,47.99304417,0.271149
5eae48f0f3540c5177f3474c,24,0,2024-02-24T08:56:18.107Z,french_518.wav,0,poule,454,48,4,5,français,m,3,0.25666667,-21.59585354,1.06182133
5eae48f0f3540c5177f3474c,25,0,2024-02-24T08:56:18.107Z,french_589.wav,0,poule,328,48,4,5,français,m,0,0.0,-25.33744833,1.20649344
5eae48f0f3540c5177f3474c,25,0,2024-02-24T08:56:18.107Z,french_589.wav,0,poule,328,48,4,5,français,m,1,0.1,-46.00092507,0.60898863
5eae48f0f3540c5177f3474c,25,0,2024-02-24T08:56:18.107Z,french_589.wav,0,poule,328,48,4,5,français,m,2,0.2,-35.85501424,0.34188975
5eae48f0f3540c5177f3474c,25,0,2024-02-24T08:56:18.107Z,french_589.wav,0,poule,328,48,4,5,français,m,3,0.25666667,61.35269907,1.06172305
5eae48f0f3540c5177f3474c,26,0,2024-02-24T08:56:18.107Z,french_39.wav,0,poule,383,48,4,5,français,m,0,0.0,-37.58690814,0.69509593
5eae48f0f3540c5177f3474c,26,0,2024-02-24T08:56:18.107Z,french_39.wav,0,poule,383,48,4,5,français,m,1,0.1,64.36969435,0.9899387
5eae48f0f3540c5177f3474c,26,0,2024-02-24T08:56:18.107Z,french_39.wav,0,poule,383,48,4,5,français,m,2,0.2,-16.17747505,1.54991446
5eae48f0f3540c5177f3474c,26,0,2024-02-24T08:56:18.107Z,french_39.wav,0,poule,383,48,4,5,français,m,3,0.25666667,-31.52468705,1.42558302
5eae48f0f3540c5177f3474c,27,0,2024-02-24T08:56:18.107Z,french_413.wav,0,poule,248,48,4,5,français,m,0,0.0,-15.90568805,0.35618922
5eae48f0f3540c5177f3474c,27,0,2024-02-24T08:56:18.107Z,french_413.wav,0,poule,248,48,4,5,français,m,1,0.1,76.04965913,1.72047272
5eae48f0f3540c5177f3474c,27,0,2024-02-24T08:56:18.107Z,french_413.wav,0,poule,248,48,4,5,français,m,2,0.2,55.08996682,1.40872317
5eae48f0f3540c5177f3474c,27,0,2024-02-24T08:56:18.107Z,french_413.wav,0,poule,248,48,4,5,français,m,3,0.25666667,17.39731584,1.8089724
5eae48f0f3540c5177f3474c,28,0,2024-02-24T08:56:18.107Z,french_178.wav,0,poule,284,48,4,5,français,m,0,0.0,26.38045069,1.33493468
5eae48f0f3540c5177f3474c,28,0,2024-02-24T08:56:18.107Z,french_178.wav,0,poule,284,48,4,5,français,m,1,0.1,54.67313893,1.2022917
5eae48f0f3540c5177f3474c,28,0,2024-02-24T08:56:18.107Z,french_178.wav,0,poule,284,48,4,5,français,m,2,0.2,58.86585948,1.32810738
5eae48f0f3540c5177f3474c,28,0,2024-02-24T08:56:18.107Z,french_178.wav,0,poule,284,48,4,5,français,m,3,0.25666667,8.14592544,0.94030025
5eae48f0f3540c5177f3474c,29,0,2024-02-24T08:56:18.107Z,french_79.wav,0,poule,251,48,4,5,français,m,0,0.0,-17.81057473,1.07647634
5eae48f0f3540c5177f3474c,29,0,2024-02-24T08:56:18.107Z,french_79.wav,0,poule,251,48,4,5,français,m,1,0.1,-79.49788956,0.19758175
5eae48f0f3540c5177f3474c,29,0,2024-02-24T08:56:18.107Z,french_79.wav,0,poule,251,48,4,5,français,m,2,0.2,21.64031361,1.4893643
5eae48f0f3540c5177f3474c,29,0,2024-02-24T08:56:18.107Z,french_79.wav,0,poule,251,48,4,5,français,m,3,0.25666667,9.8962074,1.60982877
5eae48f0f3540c5177f3474c,30,0,2024-02-24T08:56:18.107Z,french_482.wav,0,poule,192,48,4,5,français,m,0,0.0,30.59556471,1.3609553
5eae48f0f3540c5177f3474c,30,0,2024-02-24T08:56:18.107Z,french_482.wav,0,poule,192,48,4,5,français,m,1,0.1,-28.15674373,1.03507415
5eae48f0f3540c5177f3474c,30,0,2024-02-24T08:56:18.107Z,french_482.wav,0,poule,192,48,4,5,français,m,2,0.2,-30.08163346,1.60461159
5eae48f0f3540c5177f3474c,30,0,2024-02-24T08:56:18.107Z,french_482.wav,0,poule,192,48,4,5,français,m,3,0.25666667,89.23902938,0.68082645
5eae48f0f3540c5177f3474c,31,0,2024-02-24T08:56:18.107Z,french_785.wav,0,poule,291,48,4,5,français,m,0,0.0,-85.51822201,1.39201941
5eae48f0f3540c5177f3474c,31,0,2024-02-24T08:56:18.107Z,french_785.wav,0,poule,291,48,4,5,français,m,1,0.1,-3.83792251,0.93814534
5eae48f0f3540c5177f3474c,31,0,2024-02-24T08:56:18.107Z,french_785.wav,0,poule,291,48,4,5,français,m,2,0.2,45.88945115,0.59493864
5eae48f0f3540c5177f3474c,31,0,2024-02-24T08:56:18.107Z,french_785.wav,0,poule,291,48,4,5,français,m,3,0.25666667,38.51931882,0.08649149
5eae48f0f3540c5177f3474c,32,0,2024-02-24T08:56:18.107Z,french_867.wav,0,poule,214,48,4,5,français,m,0,0.0,-56.83459408,0.56298114
5eae48f0f3540c5177f3474c,32,0,2024-02-24T08:56:18.107Z,french_867.wav,0,poule,214,48,4,5,français,m,1,0.1,-43.30462201,1.09173708
5eae48f0f3540c5177f3474c,32,0,2024-02-24T08:56:18.107Z,french_867.wav,0,poule,214,48,4,5,français,m,2,0.2,-57.08778715,1.10722732
5eae48f0f3540c5177f3474c,32,0,2024-02-24T08:56:18.107Z,french_867.wav,0,poule,214,48,4,5,français,m,3,0.25666667,26.25433727,0.48299304
5eae48f0f3540c5177f3474c,33,0,2024-02-24T08:56:18.107Z,french_232.wav,0,poule,238,48,4,5,français,m,0,0.0,48.62304181,1.60041799
5eae48f0f3540c5177f3474c,33,0,2024-02-24T08:56:18.107Z,french_232.wav,0,poule,238,48,4,5,français,m,1,0.1,-66.91586117,0.5698369
5eae48f0f3540c5177f3474c,33,0,2024-02-24T08:56:18.107Z,french_232.wav,0,poule,238,48,4,5,français,m,2,0.2,-71.38800945,1.21368891
5eae48f0f3540c5177f3474c,33,0,2024-02-24T08:56:18.107Z,french_232.wav,0,poule,238,48,4,5,français,m,3,0.25666667,32.42157584,1.05085576
5eae48f0f3540c5177f3474c,34,0,2024-02-24T08:56:18.107Z,french_626.wav,0,poule,478,48,4,5,français,m,0,0.0,-93.35692854,1.28523942
5eae48f0f3540c5177f3474c,34,0,2024-02-24T08:56:18.107Z,french_626.wav,0,poule,478,48,4,5,français,m,1,0.1,98.43225428,0.26610399
5eae48f0f3540c5177f3474c,34,0,2024-02-24T08:56:18.107Z,french_626.wav,0,poule,478,48,4,5,français,m,2,0.2,-65.0946996,0.08304138
5eae48f0f3540c5177f3474c,34,0,2024-02-24T08:56:18.107Z,french_626.wav,0,poule,478,48,4,5,français,m,3,0.25666667,62.51553639,1.47830697
5eae48f0f3540c5177f3474c,35,0,2024-02-24T08:56:18.107Z,french_334.wav,0,poule,479,48,4,5,français,m,0,0.0,40.44836216,0.13212964
5eae48f0f3540c5177f3474c,35,0,2024-02-24T08:56:18.107Z,french_334.wav,0,poule,479,48,4,5,français,m,1,0.1,-67.56280837,0.74019732
5eae48f0f3540c5177f3474c,35,0,2024-02-24T08:56:18.107Z,french_334.wav,0,poule,479,48,4,5,français,m,2,0.2,-28.73514643,0.72240648
5eae48f0f3540c5177f3474c,35,0,2024-02-24T08:56:18.107Z,french_334.wav,0,poule,479,48,4,5,français,m,3,0.25666667,-49.63309354,0.47162208
5eae48f0f3540c5177f3474c,36,0,2024-02-24T08:56:18.107Z,french_418.wav,0,poule,267,48,4,5,français,m,0,0.0,69.65568707,1.45647369
5eae48f0f3540c5177f3474c,36,0,2024-02-24T08:56:18.107Z,french_418.wav,0,poule,267,48,4,5,français,m,1,0.1,-73.62960571,0.96644453
5eae48f0f3540c5177f3474c,36,0,2024-02-24T08:56:18.107Z,french_418.wav,0,poule,267,48,4,5,français,m,2,0.2,-12.19608601,0.59086709
5eae48f0f3540c5177f3474c,36,0,2024-02-24T08:56:18.107Z,french_418.wav,0,poule,267,48,4,5,français,m,3,0.25666667,31.099867,1.25987346
5eae48f0f3540c5177f3474c,37,0,2024-02-24T08:56:18.107Z,french_941.wav,0,poule,185,48,4,5,français,m,0,0.0,-66.32571195,0.9896497
5eae48f0f3540c5177f3474c,37,0,2024-02-24T08:56:18.107Z,french_941.wav,0,poule,185,48,4,5,français,m,1,0.1,85.09907795,0.67654191
5eae48f0f3540c5177f3474c,37,0,2024-02-24T08:56:18.107Z,french_941.wav,0,poule,185,48,4,5,français,m,2,0.2,87.37862016,1.4708398
5eae48f0f3540c5177f3474c,37,0,2024-02-24T08:56:18.107Z,french_941.wav,0,poule,185,48,4,5,français,m,3,0.25666667,-18.39108149,0.82969394
5eae48f0f3540c5177f3474c,38,0,2024-02-24T08:56:18.107Z,french_601.wav,0,poule,220,48,4,5,français,m,0,0.0,57.33302671,0.25823262
5eae48f0f3540c5177f3474c,38,0,2024-02-24T08:56:18.107Z,french_601.wav,0,poule,220,48,4,5,français,m,1,0.1,78.53356314,0.70648058
5eae48f0f3540c5177f3474c,38,0,2024-02-24T08:56:18.107Z,french_601.wav,0,poule,220,48,4,5,français,m,2,0.2,-65.46800755,1.49897987
5eae48f0f3540c5177f3474c,38,0,2024-02-24T08:56:18.107Z,french_601.wav,0,poule,220,48,4,5,français,m,3,0.25666667,15.04245158,0.53904812
5eae48f0f3540c5177f3474c,39,0,2024-02-24T08:56:18.107Z,french_302.wav,0,poule,513,48,4,5,français,m,0,0.0,8.4067376,0.06791418
5eae48f0f3540c5177f3474c,39,0,2024-02-24T08:56:18.107Z,french_302.wav,0,poule,513,48,4,5,français,m,1,0.1,-29.32780789,1.46578571
5eae48f0f3540c5177f3474c,39,0,2024-02-24T08:56:18.107Z,french_302.wav,0,poule,513,48,4,5,français,m,2,0.2,-43.35590711,1.81098556
5eae48f0f3540c5177f3474c,39,0,2024-02-24T08:56:18.107Z,french_302.wav,0,poule,513,48,4,5,français,m,3,0.25666667,-44.50549756,1.40235265
5eae48f0f3540c5177f3474c,40,0,2024-02-24T08:56:18.107Z,french_73.wav,0,poule,381,48,4,5,français,m,0,0.0,79.91377479,0.94290919
5eae48f0f3540c5177f3474c,40,0,2024-02-24T08:56:18.107Z,french_73.wav,0,poule,381,48,4,5,français,m,1,0.1,21.44914026,0.58511712
5eae48f0f3540c5177f3474c,40,0,2024-02-24T08:56:18.107Z,french_73.wav,0,poule,381,48,4,5,français,m,2,0.2,94.23892751,1.07660977
5eae48f0f3540c5177f3474c,40,0,2024-02-24T08:56:18.107Z,french_73.wav,0,poule,381,48,4,5,français,m,3,0.25666667,-26.36168046,0.0399298
5eae48f0f3540c5177f3474c,41,0,2024-02-24T08:56:18.107Z,french_630.wav,0,poule,308,48,4,5,français,m,0,0.0,77.73428331,1.3363399
5eae48f0f3540c5177f3474c,41,0,2024-02-24T08:56:18.107Z,french_630.wav,0,poule,308,48,4,5,français,m,1,0.1,-25.60495453,1.21399003
5eae48f0f3540c5177f3474c,41,0,2024-02-24T08:56:18.107Z,french_630.wav,0,poule,308,48,4,5,français,m,2,0.2,64.05787884,0.69039687
5eae48f0f3540c5177f3474c,41,0,2024-02-24T08:56:18.107Z,french_630.wav,0,poule,308,48,4,5,français,m,3,0.25666667,12.38181906,0.92340198
5eae48f0f3540c5177f3474c,42,0,2024-02-24T08:56:18.107Z,french_928.wav,0,poule,290,48,4,5,français,m,0,0.0,23.35867854,0.39112769
5eae48f0f3540c5177f3474c,42,0,2024-02-24T08:56:18.107Z,french_928.wav,0,poule,290,48,4,5,français,m,1,0.1,-18.47737087,1.71601552
5eae48f0f3540c5177f3474c,42,0,2024-02-24T08:56:18.107Z,french_928.wav,0,poule,290,48,4,5,français,m,2,0.2,41.22883985,0.4467351
5eae48f0f3540c5177f3474c,42,0,2024-02-24T08:56:18.107Z,french_928.wav,0,poule,290,48,4,5,français,m,3,0.25666667,67.72155047,0.12145746
5eae48f0f3540c5177f3474c,43,0,2024-02-24T08:56:18.107Z,french_329.wav,0,poule,292,48,4,5,français,m,0,0.0,14.6954169,0.80369944
5eae48f0f3540c5177f3474c,43,0,2024-02-24T08:56:18.107Z,french_329.wav,0,poule,292,48,4,5,français,m,1,0.1,-60.61079034,1.40829285
5eae48f0f3540c5177f3474c,43,0,2024-02-24T08:56:18.107Z,french_329.wav,0,poule,292,48,4,5,français,m,2,0.2,-27.52715396,0.22971006
5eae48f0f3540c5177f3474c,43,0,2024-02-24T08:56:18.107Z,french_329.wav,0,poule,292,48,4,5,français,m,3,0.25666667,-71.65343532,0.37653007
5eae48f0f3540c5177f3474c,44,0,2024-02-24T08:56:18.107Z,french_615.wav,0,poule,434,48,4,5,français,m,0,0.0,-99.04240885,1.08448469
5eae48f0f3540c5177f3474c,44,0,2024-02-24T08:56:18.107Z,french_615.wav,0,poule,434,48,4,5,français,m,1,0.1,-49.15643876,1.88363881
5eae48f0f3540c5177f3474c,44,0,2024-02-24T08:56:18.107Z,french_615.wav,0,poule,434,48,4,5,français,m,2,0.2,-66.91195639,1.28593097
5eae48f0f3540c5177f3474c,44,0,2024-02-24T08:56:18.107Z,french_615.wav,0,poule,434,48,4,5,français,m,3,0.25666667,-56.29346357,1.82136606
5eae48f0f3540c5177f3474c,45,0,2024-02-24T08:56:18.107Z,french_858.wav,0,poule,377,48,4,5,français,m,0,0.0,-70.8749608,0.88986318
5eae48f0f3540c5177f3474c,45,0,2024-02-24T08:56:18.107Z,french_858.wav,0,poule,377,48,4,5,français,m,1,0.1,-68.92821451,0.34092676
5eae48f0f3540c5177f3474c,45,0,2024-02-24T08:56:18.107Z,french_858.wav,0,poule,377,48,4,5,français,m,2,0.2,48.1063746,0.38776381
5eae48f0f3540c5177f3474c,45,0,2024-02-24T08:56:18.107Z,french_858.wav,0,poule,377,48,4,5,français,m,3,0.25666667,0.98463207,1.26771376
5eae48f0f3540c5177f3474c,46,0,2024-02-24T08:56:18.107Z,french_672.wav,0,poule,414,48,4,5,français,m,0,0.0,-6.36877595,1.19503778
5eae48f0f3540c5177f3474c,46,0,2024-02-24T08:56:18.107Z,french_672.wav,0,poule,414,48,4,5,français,m,1,0.1,45.21137281,0.09977323
5eae48f0f3540c5177f3474c,46,0,2024-02-24T08:56:18.107Z,french_672.wav,0,poule,414,48,4,5,français,m,2,0.2,80.52737907,0.72738581
5eae48f0f3540c5177f3474c,46,0,2024-02-24T08:56:18.107Z,french_672.wav,0,poule,414,48,4,5,français,m,3,0.25666667,83.07440583,0.28099012
5eae48f0f3540c5177f3474c,47,0,2024-02-24T08:56:18.107Z,french_231.wav,0,poule,448,48,4,5,français,m,0,0.0,15.23586761,1.95048297
5eae48f0f3540c5177f3474c,47,0,2024-02-24T08:56:18.107Z,french_231.wav,0,poule,448,48,4,5,français,m,1,0.1,15.03275874,1.45451509
5eae48f0f3540c5177f3474c,47,0,2024-02-24T08:56:18.107Z,french_231.wav,0,poule,448,48,4,5,français,m,2,0.2,-80.75641997,1.67801628
5eae48f0f3540c5177f3474c,47,0,2024-02-24T08:56:18.107Z,french_231.wav,0,poule,448,48,4,5,français,m,3,0.25666667,-36.14562296,1.39710855
5eae48f0f3540c5177f3474c,48,0,2024-02-24T08:56:18.107Z,french_98.wav,0,poule,362,48,4,5,français,m,0,0.0,-5.34356544,0.47275823
5eae48f0f3540c5177f3474c,48,0,2024-02-24T08:56:18.107Z,french_98.wav,0,poule,362,48,4,5,français,m,1,0.1,-51.77157259,0.98771666
5eae48f0f3540c5177f3474c,48,0,2024-02-24T08:56:18.107Z,french_98.wav,0,poule,362,48,4,5,français,m,2,0.2,16.6615471,0.01400035
5eae48f0f3540c5177f3474c,48,0,2024-02-24T08:56:18.107Z,french_98.wav,0,poule,362,48,4,5,français,m,3,0.25666667,-37.68560636,0.42827786
5eae48f0f3540c5177f3474c,49,0,2024-02-24T08:56:18.107Z,french_453.wav,0,poule,403,48,4,5,français,m,0,0.0,17.16336321,0.53243678
5eae48f0f3540c5177f3474c,49,0,2024-02-24T08:56:18.107Z,french_453.wav,0,poule,403,48,4,5,français,m,1,0.1,-89.93005254,1.83492113
5eae48f0f3540c5177f3474c,49,0,2024-02-24T08:56:18.107Z,french_453.wav,0,poule,403,48,4,5,français,m,2,0.2,91.22824445,1.32944014
5eae48f0f3540c5177f3474c,49,0,2024-02-24T08:56:18.107Z,french_453.wav,0,poule,403,48,4,5,français,m,3,0.25666667,-84.37948707,0.35681228
5eae48f0f3540c5177f3474c,50,1,2024-02-24T08:56:18.107Z,french_731.wav,0,poule,417,48,4,5,français,m,0,0.0,52.82888701,1.42077684
5eae48f0f3540c5177f3474c,50,1,2024-02-24T08:56:18.107Z,french_731.wav,0,poule,417,48,4,5,français,m,1,0.1,44.66747194,0.2996776
5eae48f0f3540c5177f3474c,50,1,2024-02-24T08:56:18.107Z,french_731.wav,0,poule,417,48,4,5,français,m,2,0.2,83.54065351,1.21708869
5eae48f0f3540c5177f3474c,50,1,2024-02-24T08:56:18.107Z,french_731.wav,0,poule,417,48,4,5,français,m,3,0.25666667,-50.41579204,1.31490505
5eae48f0f3540c5177f3474c,51,1,2024-02-24T08:56:18.107Z,french_456.wav,0,poule,324,48,4,5,français,m,0,0.0,-27.91969988,0.874098
5eae48f0f3540c5177f3474c,51,1,2024-02-24T08:56:18.107Z,french_456.wav,0,poule,324,48,4,5,français,m,1,0.1,-6.9905469,0.40632282
5eae48f0f3540c5177f3474c,51,1,2024-02-24T08:56:18.107Z,french_456.wav,0,poule,324,48,4,5,français,m,2,0.2,7.34213132,0.88508218
5eae48f0f3540c5177f3474c,51,1,2024-02-24T08:56:18.107Z,french_456.wav,0,poule,324,48,4,5,français,m,3,0.25666667,-16.30576404,1.43350061
5eae48f0f3540c5177f3474c,52,1,2024-02-24T08:56:18.107Z,french_950.wav,0,poule,357,48,4,5,français,m,0,0.0,6.46729125,1.1492664
5eae48f0f3540c5177f3474c,52,1,2024-02-24T08:56:18.107Z,french_950.wav,0,poule,357,48,4,5,français,m,1,0.1,89.94723115,1.37343317
5eae48f0f3540c5177f3474c,52,1,2024-02-24T08:56:18.107Z,french_950.wav,0,poule,357,48,4,5,français,m,2,0.2,33.92654299,1.07181876
5eae48f0f3540c5177f3474c,52,1,2024-02-24T08:56:18.107Z,french_950.wav,0,poule,357,48,4,5,français,m,3,0.25666667,4.68690548,0.13073982
5eae48f0f3540c5177f3474c,53,1,2024-02-24T08:56:18.107Z,french_697.wav,0,poule,323,48,4,5,français,m,0,0.0,-19.8565912,1.89587242
5eae48f0f3540c5177f3474c,53,1,2024-02-24T08:56:18.107Z,french_697.wav,0,poule,323,48,4,5,français,m,1,0.1,-16.18456076,0.49072185
5eae48f0f3540c5177f3474c,53,1,2024-02-24T08:56:18.107Z,french_697.wav,0,poule,323,48,4,5,français,m,2,0.2,-70.77550193,1.8362568
5eae48f0f3540c5177f3474c,53,1,2024-02-24T08:56:18.107Z,french_697.wav,0,poule,323,48,4,5,français,m,3,0.25666667,-81.21106402,0.50078837
5eae48f0f3540c5177f3474c,54,1,2024-02-24T08:56:18.107Z,french_667.wav,0,poule,497,48,4,5,français,m,0,0.0,-87.23426609,0.52575342
5eae48f0f3540c5177f3474c,54,1,2024-02-24T08:56:18.107Z,french_667.wav,0,poule,497,48,4,5,français,m,1,0.1,53.54997778,0.6882241
5eae48f0f3540c5177f3474c,54,1,2024-02-24T08:56:18.107Z,french_667.wav,0,poule,497,48,4,5,français,m,2,0.2,57.34155937,0.15612922
5eae48f0f3540c5177f3474c,54,1,2024-02-24T08:56:18.107Z,french_667.wav,0,poule,497,48,4,5,français,m,3,0.25666667,-19.62963402,0.34657669
5eae48f0f3540c5177f3474c,55,1,2024-02-24T08:56:18.107Z,french_678.wav,0,poule,508,48,4,5,français,m,0,0.0,8.99494286,0.31277465
5eae48f0f3540c5177f3474c,55,1,2024-02-24T08:56:18.107Z,french_678.wav,0,poule,508,48,4,5,français,m,1,0.1,56.3447022,0.04822955
5eae48f0f3540c5177f3474c,55,1,2024-02-24T08:56:18.107Z,french_678.wav,0,poule,508,48,4,5,français,m,2,0.2,-85.36803825,0.03738606
5eae48f0f3540c5177f3474c,55,1,2024-02-24T08:56:18.107Z,french_678.wav,0,poule,508,48,4,5,français,m,3,0.25666667,-65.39277698,1.60364947
5eae48f0f3540c5177f3474c,56,1,2024-02-24T08:56:18.107Z,french_447.wav,0,poule,321,48,4,5,français,m,0,0.0,-15.50115845,0.77909013
5eae48f0f3540c5177f3474c,56,1,2024-02-24T08:56:18.107Z,french_447.wav,0,poule,321,48,4,5,français,m,1,0.1,-4.86998407,1.31519509
5eae48f0f3540c5177f3474c,56,1,2024-02-24T08:56:18.107Z,french_447.wav,0,poule,321,48,4,5,français,m,2,0.2,-86.84595189,1.40793423
5eae48f0f3540c5177f3474c,56,1,2024-02-24T08:56:18.107Z,french_447.wav,0,poule,321,48,4,5,français,m,3,0.25666667,-28.81346371,0.16835643
5eae48f0f3540c5177f3474c,57,1,2024-02-24T08:56:18.107Z,french_564.wav,0,poule,334,48,4,5,français,m,0,0.0,-42.85760261,0.14777183
5eae48f0f3540c5177f3474c,57,1,2024-02-24T08:56:18.107Z,french_564.wav,0,poule,334,48,4,5,français,m,1,0.1,78.12316343,1.08229262
5eae48f0f3540c5177f3474c,57,1,2024-02-24T08:56:18.107Z,french_564.wav,0,poule,334,48,4,5,français,m,2,0.2,32.53186734,0.52251513
5eae48f0f3540c5177f3474c,57,1,2024-02-24T08:56:18.107Z,french_564.wav,0,poule,334,48,4,5,français,m,3,0.25666667,60.20924512,1.40255579
5eae48f0f3540c5177f3474c,58,1,2024-02-24T08:56:18.107Z,french_904.wav,0,poule,745,48,4,5,français,m,0,0.0,-3.33486868,1.84649441
5eae48f0f3540c5177f3474c,58,1,2024-02-24T08:56:18.107Z,french_904.wav,0,poule,745,48,4,5,français,m,1,0.1,-72.00110742,1.91186975
5eae48f0f3540c5177f3474c,58,1,2024-02-24T08:56:18.107Z,french_904.wav,0,poule,745,48,4,5,français,m,2,0.2,32.54458222,0.71589927
5eae48f0f3540c5177f3474c,58,1,2024-02-24T08:56:18.107Z,french_904.wav,0,poule,745,48,4,5,français,m,3,0.25666667,13.13318907,0.21658524
5eae48f0f3540c5177f3474c,59,1,2024-02-24T08:56:18.107Z,french_831.wav,0,poule,406,48,4,5,français,m,0,0.0,63.54740934,1.51153345
5eae48f0f3540c5177f3474c,59,1,2024-02-24T08:56:18.107Z,french_831.wav,0,poule,406,48,4,5,français,m,1,0.1,37.72830153,0.09945987
5eae48f0f3540c5177f3474c,59,1,2024-02-24T08:56:18.107Z,french_831.wav,0,poule,406,48,4,5,français,m,2,0.2,-3.45882983,0.22010167
5eae48f0f3540c5177f3474c,59,1,2024-02-24T08:56:18.107Z,french_831.wav,0,poule,406,48,4,5,français,m,3,0.25666667,83.86154552,0.71497999
5eae48f0f3540c5177f3474c,60,1,2024-02-24T08:56:18.107Z,french_799.wav,0,poule,220,48,4,5,français,m,0,0.0,-36.40535669,1.51597666
5eae48f0f3540c5177f3474c,60,1,2024-02-24T08:56:18.107Z,french_799.wav,0,poule,220,48,4,5,français,m,1,0.1,61.69828746,0.87708619
5eae48f0f3540c5177f3474c,60,1,2024-02-24T08:56:18.107Z,french_799.wav,0,poule,220,48,4,5,français,m,2,0.2,66.97541187,1.35480731
5eae48f0f3540c5177f3474c,60,1,2024-02-24T08:56:18.107Z,french_799.wav,0,poule,220,48,4,5,français,m,3,0.25666667,-86.21475416,0.58642825
5eae48f0f3540c5177f3474c,61,1,2024-02-24T08:56:18.107Z,french_822.wav,0,poule,641,48,4,5,français,m,0,0.0,70.1141555,0.03091404
5eae48f0f3540c5177f3474c,61,1,2024-02-24T08:56:18.107Z,french_822.wav,0,poule,641,48,4,5,français,m,1,0.1,-32.80370271,1.54599653
5eae48f0f3540c5177f3474c,61,1,2024-02-24T08:56:18.107Z,french_822.wav,0,poule,641,48,4,5,français,m,2,0.2,9.36864383,0.45983016
5eae48f0f3540c5177f3474c,61,1,2024-02-24T08:56:18.107Z,french_822.wav,0,poule,641,48,4,5,français,m,3,0.25666667,-70.41865943,0.57036726
5eae48f0f3540c5177f3474c,62,1,2024-02-24T08:56:18.107Z,french_355.wav,0,poule,5056,48,4,5,français,m,0,0.0,-92.75119925,0.18544254
5eae48f0f3540c5177f3474c,62,1,2024-02-24T08:56:18.107Z,french_355.wav,0,poule,5056,48,4,5,français,m,1,0.1,77.20775246,0.07031399
5eae48f0f3540c5177f3474c,62,1,2024-02-24T08:56:18.107Z,french_355.wav,0,poule,5056,48,4,5,français,m,2,0.2,-51.05688592,0.46666342
5eae48f0f3540c5177f3474c,62,1,2024-02-24T08:56:18.107Z,french_355.wav,0,poule,5056,48,4,5,français,m,3,0.25666667,27.03743598,1.78468618
5eae48f0f3540c5177f3474c,63,1,2024-02-24T08:56:18.107Z,french_812.wav,0,poule,396,48,4,5,français,m,0,0.0,78.53201718,1.73310634
5eae48f0f3540c5177f3474c,63,1,2024-02-24T08:56:18.107Z,french_812.wav,0,poule,396,48,4,5,français,m,1,0.1,87.32508034,1.73147281
5eae48f0f3540c5177f3474c,63,1,2024-02-24T08:56:18.107Z,french_812.wav,0,poule,396,48,4,5,français,m,2,0.2,77.15455549,1.58178344
5eae48f0f3540c5177f3474c,63,1,2024-02-24T08:56:18.107Z,french_812.wav,0,poule,396,48,4,5,français,m,3,0.25666667,-51.33102937,0.27993183
5eae48f0f3540c5177f3474c,64,1,2024-02-24T08:56:18.107Z,french_713.wav,0,poule,890,48,4,5,français,m,0,0.0,93.33204992,0.23689023
5eae48f0f3540c5177f3474c,64,1,2024-02-24T08:56:18.107Z,french_713.wav,0,poule,890,48,4,5,français,m,1,0.1,-15.69856834,0.32059987
5eae48f0f3540c5177f3474c,64,1,2024-02-24T08:56:18.107Z,french_713.wav,0,poule,890,48,4,5,français,m,2,0.2,18.82527382,0.78497323
5eae48f0f3540c5177f3474c,64,1,2024-02-24T08:56:18.107Z,french_713.wav,0,poule,890,48,4,5,français,m,3,0.25666667,-49.17212055,0.28269646
5eae48f0f3540c5177f3474c,65,1,2024-02-24T08:56:18.107Z,french_211.wav,0,poule,425,48,4,5,français,m,0,0.0,26.09911827,0.38797522
5eae48f0f3540c5177f3474c,65,1,2024-02-24T08:56:18.107Z,french_211.wav,0,poule,425,48,4,5,français,m,1,0.1,37.88219535,0.97106999
5eae48f0f3540c5177f3474c,65,1,2024-02-24T08:56:18.107Z,french_211.wav,0,poule,425,48,4,5,français,m,2,0.2,25.3370042,0.82384696
5eae48f0f3540c5177f3474c,65,1,2024-02-24T08:56:18.107Z,french_211.wav,0,poule,425,48,4,5,français,m,3,0.25666667,-31.50750366,0.88987221
5eae48f0f3540c5177f3474c,66,1,2024-02-24T08:56:18.107Z,french_791.wav,0,poule,2611,48,4,5,français,m,0,0.0,-81.64215326,0.09493453
5eae48f0f3540c5177f3474c,66,1,2024-02-24T08:56:18.107Z,french_791.wav,0,poule,2611,48,4,5,français,m,1,0.1,84.74526907,0.0053506
5eae48f0f3540c5177f3474c,66,1,2024-02-24T08:56:18.107Z,french_791.wav,0,poule,2611,48,4,5,français,m,2,0.2,-10.10354349,1.61132934
5eae48f0f3540c5177f3474c,66,1,2024-02-24T08:56:18.107Z,french_791.wav,0,poule,2611,48,4,5,français,m,3,0.25666667,-10.14583619,1.39802197
5eae48f0f3540c5177f3474c,67,1,2024-02-24T08:56:18.107Z,french_403.wav,0,poule,448,48,4,5,français,m,0,0.0,-74.59140771,1.12132674
5eae48f0f3540c5177f3474c,67,1,2024-02-24T08:56:18.107Z,french_403.wav,0,poule,448,48,4,5,français,m,1,0.1,29.14043257,1.20077734
5eae48f0f3540c5177f3474c,67,1,2024-02-24T08:56:18.107Z,french_403.wav,0,poule,448,48,4,5,français,m,2,0.2,37.28402081,0.75804668
5eae48f0f3540c5177f3474c,67,1,2024-02-24T08:56:18.107Z,french_403.wav,0,poule,448,48,4,5,français,m,3,0.25666667,-66.4238982,0.86443687
5eae48f0f3540c5177f3474c,68,1,2024-02-24T08:56:18.107Z,french_424.wav,0,poule,393,48,4,5,français,m,0,0.0,61.39777876,0.24361375
5eae48f0f3540c5177f3474c,68,1,2024-02-24T08:56:18.107Z,french_424.wav,0,poule,393,48,4,5,français,m,1,0.1,-8.76552132,1.04711526
5eae48f0f3540c5177f3474c,68,1,2024-02-24T08:56:18.107Z,french_424.wav,0,poule,393,48,4,5,français,m,2,0.2,33.4280736,1.33335174
5eae48f0f3540c5177f3474c,68,1,2024-02-24T08:56:18.107Z,french_424.wav,0,poule,393,48,4,5,français,m,3,0.25666667,8.6823295,0.59077303
5eae48f0f3540c5177f3474c,69,1,2024-02-24T08:56:18.107Z,french_752.wav,0,poule,557,48,4,5,français,m,0,0.0,-49.05511086,0.41123153
5eae48f0f3540c5177f3474c,69,1,2024-02-24T08:56:18.107Z,french_752.wav,0,poule,557,48,4,5,français,m,1,0.1,68.97169656,0.36604045
5eae48f0f3540c5177f3474c,69,1,2024-02-24T08:56:18.107Z,french_752.wav,0,poule,557,48,4,5,français,m,2,0.2,35.56747744,0.22184937
5eae48f0f3540c5177f3474c,69,1,2024-02-24T08:56:18.107Z,french_752.wav,0,poule,557,48,4,5,français,m,3,0.25666667,3.91641015,1.3158831
5eae48f0f3540c5177f3474c,70,1,2024-02-24T08:56:18.107Z,french_1.wav,0,poule,561,48,4,5,français,m,0,0.0,91.87409443,0.51984737
5eae48f0f3540c5177f3474c,70,1,2024-02-24T08:56:18.107Z,french_1.wav,0,poule,561,48,4,5,français,m,1,0.1,-48.89112434,0.07214845
5eae48f0f3540c5177f3474c,70,1,2024-02-24T08:56:18.107Z,french_1.wav,0,poule,561,48,4,5,français,m,2,0.2,27.67932603,1.75660136
5eae48f0f3540c5177f3474c,70,1,2024-02-24T08:56:18.107Z,french_1.wav,0,poule,561,48,4,5,français,m,3,0.25666667,13.64945055,0.58315139
5eae48f0f3540c5177f3474c,71,1,2024-02-24T08:56:18.107Z,french_512.wav,0,poule,643,48,4,5,français,m,0,0.0,-78.17864001,1.53776746
5eae48f0f3540c5177f3474c,71,1,2024-02-24T08:56:18.107Z,french_512.wav,0,poule,643,48,4,5,français,m,1,0.1,0.33316605,0.01358873
5eae48f0f3540c5177f3474c,71,1,2024-02-24T08:56:18.107Z,french_512.wav,0,poule,643,48,4,5,français,m,2,0.2,-88.66010948,0.2850161
5eae48f0f3540c5177f3474c,71,1,2024-02-24T08:56:18.107Z,french_512.wav,0,poule,643,48,4,5,français,m,3,0.25666667,-69.42732992,0.92419145
5eae48f0f3540c5177f3474c,72,1,2024-02-24T08:56:18.107Z,french_484.wav,0,poule,542,48,4,5,français,m,0,0.0,-9.6162674,0.19772274
5eae48f0f3540c5177f3474c,72,1,2024-02-24T08:56:18.107Z,french_484.wav,0,poule,542,48,4,5,français,m,1,0.1,9.27811619,0.11941549
5eae48f0f3540c5177f3474c,72,1,2024-02-24T08:56:18.107Z,french_484.wav,0,poule,542,48,4,5,français,m,2,0.2,-71.03065972,1.54802806
5eae48f0f3540c5177f3474c,72,1,2024-02-24T08:56:18.107Z,french_484.wav,0,poule,542,48,4,5,français,m,3,0.25666667,-29.12959292,1.03524562
5eae48f0f3540c5177f3474c,73,1,2024-02-24T08:56:18.107Z,french_519.wav,0,poule,502,48,4,5,français,m,0,0.0,86.76456043,1.09635868
5eae48f0f3540c5177f3474c,73,1,2024-02-24T08:56:18.107Z,french_519.wav,0,poule,502,48,4,5,français,m,1,0.1,8.46145491,1.19136691
5eae48f0f3540c5177f3474c,73,1,2024-02-24T08:56:18.107Z,french_519.wav,0,poule,502,48,4,5,français,m,2,0.2,-48.6822419,1.7889624
5eae48f0f3540c5177f3474c,73,1,2024-02-24T08:56:18.107Z,french_519.wav,0,poule,502,48,4,5,français,m,3,0.25666667,-44.03350662,1.1754675
5eae48f0f3540c5177f3474c,74,1,2024-02-24T08:56:18.107Z,french_958.wav,0,poule,918,48,4,5,français,m,0,0.0,70.65905064,0.553928
5eae48f0f3540c5177f3474c,74,1,2024-02-24T08:56:18.107Z,french_958.wav,0,poule,918,48,4,5,français,m,1,0.1,35.26497317,0.45560148
5eae48f0f3540c5177f3474c,74,1,2024-02-24T08:56:18.107Z,french_958.wav,0,poule,918,48,4,5,français,m,2,0.2,64.29920798,1.65592314
5eae48f0f3540c5177f3474c,74,1,2024-02-24T08:56:18.107Z,french_958.wav,0,poule,918,48,4,5,français,m,3,0.25666667,78.52381542,1.53733
5eae48f0f3540c5177f3474c,75,1,2024-02-24T08:56:18.107Z,french_787.wav,0,poule,435,48,4,5,français,m,0,0.0,-96.56930436,0.95025141
5eae48f0f3540c5177f3474c,75,1,2024-02-24T08:56:18.107Z,french_787.wav,0,poule,435,48,4,5,français,m,1,0.1,-14.18878177,1.10577547
5eae48f0f3540c5177f3474c,75,1,2024-02-24T08:56:18.107Z,french_787.wav,0,poule,435,48,4,5,français,m,2,0.2,-34.79884993,0.4132657
5eae48f0f3540c5177f3474c,75,1,2024-02-24T08:56:18.107Z,french_787.wav,0,poule,435,48,4,5,français,m,3,0.25666667,-70.75211023,0.64958401
5eae48f0f3540c5177f3474c,76,1,2024-02-24T08:56:18.107Z,french_794.wav,0,poule,464,48,4,5,français,m,0,0.0,-41.85324617,0.4524196
5eae48f0f3540c5177f3474c,76,1,2024-02-24T08:56:18.107Z,french_794.wav,0,poule,464,48,4,5,français,m,1,0.1,1.64774739,1.94571184
5eae48f0f3540c5177f3474c,76,1,2024-02-24T08:56:18.107Z,french_794.wav,0,poule,464,48,4,5,français,m,2,0.2,-16.9250465,1.39882797
5eae48f0f3540c5177f3474c,76,1,2024-02-24T08:56:18.107Z,french_794.wav,0,poule,464,48,4,5,français,m,3,0.25666667,-47.53807225,0.19962905
5eae48f0f3540c5177f3474c,77,1,2024-02-24T08:56:18.107Z,french_749.wav,0,poule,450,48,4,5,français,m,0,0.0,-6.52512876,1.71102694
5eae48f0f3540c5177f3474c,77,1,2024-02-24T08:56:18.107Z,french_749.wav,0,poule,450,48,4,5,français,m,1,0.1,66.04972296,0.07130547
5eae48f0f3540c5177f3474c,77,1,2024-02-24T08:56:18.107Z,french_749.wav,0,poule,450,48,4,5,français,m,2,0.2,-72.89621134,1.03709586
5eae48f0f3540c5177f3474c,77,1,2024-02-24T08:56:18.107Z,french_749.wav,0,poule,450,48,4,5,français,m,3,0.25666667,-46.82302434,1.99027801
5eae48f0f3540c5177f3474c,78,1,2024-02-24T08:56:18.107Z,french_168.wav,0,poule,367,48,4,5,français,m,0,0.0,-23.56976883,0.91307932
5eae48f0f3540c5177f3474c,78,1,2024-02-24T08:56:18.107Z,french_168.wav,0,poule,367,48,4,5,français,m,1,0.1,67.89102786,0.95001528
5eae48f0f3540c5177f3474c,78,1,2024-02-24T08:56:18.107Z,french_168.wav,0,poule,367,48,4,5,français,m,2,0.2,12.82073925,0.95057972
5eae48f0f3540c5177f3474c,78,1,2024-02-24T08:56:18.107Z,french_168.wav,0,poule,367,48,4,5,français,m,3,0.25666667,-47.11825728,1.60486422
5eae48f0f3540c5177f3474c,79,1,2024-02-24T08:56:18.107Z,french_877.wav,0,poule,395,48,4,5,français,m,0,0.0,-23.96574217,0.96253444
5eae48f0f3540c5177f3474c,79,1,2024-02-24T08:56:18.107Z,french_877.wav,0,poule,395,48,4,5,français,m,1,0.1,51.07186547,1.01009898
5eae48f0f3540c5177f3474c,79,1,2024-02-24T08:56:18.107Z,french_877.wav,0,poule,395,48,4,5,français,m,2,0.2,26.38223439,1.26042149
5eae48f0f3540c5177f3474c,79,1,2024-02-24T08:56:18.107Z,french_877.wav,0,poule,395,48,4,5,français,m,3,0.25666667,57.01482149,0.37917076
5eae48f0f3540c5177f3474c,80,1,2024-02-24T08:56:18.107Z,french_849.wav,0,poule,422,48,4,5,français,m,0,0.0,-28.99181256,1.60316931
5eae48f0f3540c5177f3474c,80,1,2024-02-24T08:56:18.107Z,french_849.wav,0,poule,422,48,4,5,français,m,1,0.1,-23.83365043,0.33831848
5eae48f0f3540c5177f3474c,80,1,2024-02-24T08:56:18.107Z,french_849.wav,0,poule,422,48,4,5,français,m,2,0.2,-51.88410218,1.05589654
5eae48f0f3540c5177f3474c,80,1,2024-02-24T08:56:18.107Z,french_849.wav,0,poule,422,48,4,5,français,m,3,0.25666667,-29.11212869,1.53017224
5eae48f0f3540c5177f3474c,81,1,2024-02-24T08:56:18.107Z,french_965.wav,0,poule,362,48,4,5,français,m,0,0.0,40.44340114,0.70170615
5eae48f0f3540c5177f3474c,81,1,2024-02-24T08:56:18.107Z,french_965.wav,0,poule,362,48,4,5,français,m,1,0.1,-11.08391972,1.63180194
5eae48f0f3540c5177f3474c,81,1,2024-02-24T08:56:18.107Z,french_965.wav,0,poule,362,48,4,5,français,m,2,0.2,-2.7382686,1.33837455
5eae48f0f3540c5177f3474c,81,1,2024-02-24T08:56:18.107Z,french_965.wav,0,poule,362,48,4,5,français,m,3,0.25666667,-30.15899093,1.47207372
5eae48f0f3540c5177f3474c,82,1,2024-02-24T08:56:18.107Z,french_182.wav,0,poule,347,48,4,5,français,m,0,0.0,-1.23949724,0.32203143
5eae48f0f3540c5177f3474c,82,1,2024-02-24T08:56:18.107Z,french_182.wav,0,poule,347,48,4,5,français,m,1,0.1,97.8493481,0.76081704
5eae48f0f3540c5177f3474c,82,1,2024-02-24T08:56:18.107Z,french_182.wav,0,poule,347,48,4,5,français,m,2,0.2,-69.4259963,1.30995173
5eae48f0f3540c5177f3474c,82,1,2024-02-24T08:56:18.107Z,french_182.wav,0,poule,347,48,4,5,français,m,3,0.25666667,68.50854418,1.49369116
5eae48f0f3540c5177f3474c,83,1,2024-02-24T08:56:18.107Z,french_625.wav,0,poule,492,48,4,5,français,m,0,0.0,79.19979266,0.47634137
5eae48f0f3540c5177f3474c,83,1,2024-02-24T08:56:18.107Z,french_625.wav,0,poule,492,48,4,5,français,m,1,0.1,14.54258285,0.73497705
5eae48f0f3540c5177f3474c,83,1,2024-02-24T08:56:18.107Z,french_625.wav,0,poule,492,48,4,5,français,m,2,0.2,86.07148008,0.05854955
5eae48f0f3540c5177f3474c,83,1,2024-02-24T08:56:18.107Z,french_625.wav,0,poule,492,48,4,5,français,m,3,0.25666667,45.85831434,0.79046633
5eae48f0f3540c5177f3474c,84,1,2024-02-24T08:56:18.107Z,french_692.wav,0,poule,4881,48,4,5,français,m,0,0.0,-30.56073905,0.00354931
5eae48f0f3540c5177f3474c,84,1,2024-02-24T08:56:18.107Z,french_692.wav,0,poule,4881,48,4,5,français,m,1,0.1,67.72997498,1.79271885
5eae48f0f3540c5177f3474c,84,1,2024-02-24T08:56:18.107Z,french_692.wav,0,poule,4881,48,4,5,français,m,2,0.2,55.48980932,1.35474436
5eae48f0f3540c5177f3474c,84,1,2024-02-24T08:56:18.107Z,french_692.wav,0,poule,4881,48,4,5,français,m,3,0.25666667,99.47423215,1.33636308
5eae48f0f3540c5177f3474c,85,1,2024-02-24T08:56:18.107Z,french_7.wav,0,poule,364,48,4,5,français,m,0,0.0,-71.02833311,1.79953402
5eae48f0f3540c5177f3474c,85,1,2024-02-24T08:56:18.107Z,french_7.wav,0,poule,364,48,4,5,français,m,1,0.1,-12.38691322,1.89065694
5eae48f0f3540c5177f3474c,85,1,2024-02-24T08:56:18.107Z,french_7.wav,0,poule,364,48,4,5,français,m,2,0.2,-62.8930846,0.59849277
5eae48f0f3540c5177f3474c,85,1,2024-02-24T08:56:18.107Z,french_7.wav,0,poule,364,48,4,5,français,m,3,0.25666667,27.53159518,0.94237915
5eae48f0f3540c5177f3474c,86,1,2024-02-24T08:56:18.107Z,french_977.wav,0,poule,434,48,4,5,français,m,0,0.0,-23.34946859,1.58788712
5eae48f0f3540c5177f3474c,86,1,2024-02-24T08:56:18.107Z,french_977.wav,0,poule,434,48,4,5,français,m,1,0.1,-74.17160997,0.25032328
5eae48f0f3540c5177f3474c,86,1,2024-02-24T08:56:18.107Z,french_977.wav,0,poule,434,48,4,5,français,m,2,0.2,31.43852713,0.90752219
5eae48f0f3540c5177f3474c,86,1,2024-02-24T08:56:18.107Z,french_977.wav,0,poule,434,48,4,5,français,m,3,0.25666667,-10.29160018,1.52460946
5eae48f0f3540c5177f3474c,87,1,2024-02-24T08:56:18.107Z,french_252.wav,0,poule,575,48,4,5,français,m,0,0.0,-68.3996329,0.41781817
5eae48f0f3540c5177f3474c,87,1,2024-02-24T08:56:18.107Z,french_252.wav,0,poule,575,48,4,5,français,m,1,0.1,79.02734002,1.03502761
5eae48f0f3540c5177f3474c,87,1,2024-02-24T08:56:18.107Z,french_252.wav,0,poule,575,48,4,5,français,m,2,0.2,-18.50805447,0.82044901
5eae48f0f3540c5177f3474c,87,1,2024-02-24T08:56:18.107Z,french_252.wav,0,poule,575,48,4,5,français,m,3,0.25666667,-85.84066145,1.09163249
5eae48f0f3540c5177f3474c,88,1,2024-02-24T08:56:18.107Z,french_370.wav,0,poule,413,48,4,5,français,m,0,0.0,-31.30279389,1.88170435
5eae48f0f3540c5177f3474c,88,1,2024-02-24T08:56:18.107Z,french_370.wav,0,poule,413,48,4,5,français,m,1,0.1,96.47349065,0.75067332
5eae48f0f3540c5177f3474c,88,1,2024-02-24T08:56:18.107Z,french_370.wav,0,poule,413,48,4,5,français,m,2,0.2,23.18843017,1.06279648
5eae48f0f3540c5177f3474c,88,1,2024-02-24T08:56:18.107Z,french_370.wav,0,poule,413,48,4,5,français,m,3,0.25666667,81.62933181,0.58974769
5eae48f0f3540c5177f3474c,89,1,2024-02-24T08:56:18.107Z,french_597.wav,0,poule,421,48,4,5,français,m,0,0.0,78.21673508,0.32061172
5eae48f0f3540c5177f3474c,89,1,2024-02-24T08:56:18.107Z,french_597.wav,0,poule,421,48,4,5,français,m,1,0.1,48.44931265,1.01687051
5eae48f0f3540c5177f3474c,89,1,2024-02-24T08:56:18.107Z,french_597.wav,0,poule,421,48,4,5,français,m,2,0.2,-9.21876948,0.22158162
5eae48f0f3540c5177f3474c,89,1,2024-02-24T08:56:18.107Z,french_597.wav,0,poule,421,48,4,5,français,m,3,0.25666667,-95.47680095,0.62073139
5eae48f0f3540c5177f3474c,90,1,2024-02-24T08:56:18.107Z,french_209.wav,0,poule,1284,48,4,5,français,m,0,0.0,39.72931143,1.72926101
5eae48f0f3540c5177f3474c,90,1,2024-02-24T08:56:18.107Z,french_209.wav,0,poule,1284,48,4,5,français,m,1,0.1,-11.10080972,1.89016293
5eae48f0f3540c5177f3474c,90,1,2024-02-24T08:56:18.107Z,french_209.wav,0,poule,1284,48,4,5,français,m,2,0.2,-43.22344663,1.93253512
5eae48f0f3540c5177f3474c,90,1,2024-02-24T08:56:18.107Z,french_209.wav,0,poule,1284,48,4,5,français,m,3,0.25666667,-3.52460634,0.82956566
5eae48f0f3540c5177f3474c,91,1,2024-02-24T08:56:18.107Z,french_34.wav,0,poule,598,48,4,5,français,m,0,0.0,-97.24360174,1.95744133
5eae48f0f3540c5177f3474c,91,1,2024-02-24T08:56:18.107Z,french_34.wav,0,poule,598,48,4,5,français,m,1,0.1,62.38297295,1.24423752
5eae48f0f3540c5177f3474c,91,1,2024-02-24T08:56:18.107Z,french_34.wav,0,poule,598,48,4,5,français,m,2,0.2,-49.09622703,1.91649641
5eae48f0f3540c5177f3474c,91,1,2024-02-24T08:56:18.107Z,french_34.wav,0,poule,598,48,4,5,français,m,3,0.25666667,-40.35720841,1.03651442
5eae48f0f3540c5177f3474c,92,1,2024-02-24T08:56:18.107Z,french_309.wav,0,poule,393,48,4,5,français,m,0,0.0,-43.78964232,0.29425556
5eae48f0f3540c5177f3474c,92,1,2024-02-24T08:56:18.107Z,french_309.wav,0,poule,393,48,4,5,français,m,1,0.1,78.2069368,1.94220297
5eae48f0f3540c5177f3474c,92,1,2024-02-24T08:56:18.107Z,french_309.wav,0,poule,393,48,4,5,français,m,2,0.2,-31.15110399,1.27018493
5eae48f0f3540c5177f3474c,92,1,2024-02-24T08:56:18.107Z,french_309.wav,0,poule,393,48,4,5,français,m,3,0.25666667,-73.94684578,1.0788176
5eae48f0f3540c5177f3474c,93,1,2024-02-24T08:56:18.107Z,french_863.wav,0,poule,377,48,4,5,français,m,0,0.0,30.03534105,0.49205925
5eae48f0f3540c5177f3474c,93,1,2024-02-24T08:56:18.107Z,french_863.wav,0,poule,377,48,4,5,français,m,1,0.1,70.10019967,1.5612805
5eae48f0f3540c5177f3474c,93,1,2024-02-24T08:56:18.107Z,french_863.wav,0,poule,377,48,4,5,français,m,2,0.2,38.31171189,1.70745742
5eae48f0f3540c5177f3474c,93,1,2024-02-24T08:56:18.107Z,french_863.wav,0,poule,377,48,4,5,français,m,3,0.25666667,76.0150774,0.79908683
5eae48f0f3540c5177f3474c,94,1,2024-02-24T08:56:18.107Z,french_229.wav,0,poule,527,48,4,5,français,m,0,0.0,17.32899675,0.73401758
5eae48f0f3540c5177f3474c,94,1,2024-02-24T08:56:18.107Z,french_229.wav,0,poule,527,48,4,5,français,m,1,0.1,-73.09434366,0.90990932
5eae48f0f3540c5177f3474c,94,1,2024-02-24T08:56:18.107Z,french_229.wav,0,poule,527,48,4,5,français,m,2,0.2,-24.47190501,0.8791544
5eae48f0f3540c5177f3474c,94,1,2024-02-24T08:56:18.107Z,french_229.wav,0,poule,527,48,4,5,français,m,3,0.25666667,11.45282545,1.1872524
5eae48f0f3540c5177f3474c,95,1,2024-02-24T08:56:18.107Z,french_437.wav,0,poule,338,48,4,5,français,m,0,0.0,59.70067771,0.22659206
5eae48f0f3540c5177f3474c,95,1,2024-02-24T08:56:18.107Z,french_437.wav,0,poule,338,48,4,5,français,m,1,0.1,78.61233767,0.85429053
5eae48f0f3540c5177f3474c,95,1,2024-02-24T08:56:18.107Z,french_437.wav,0,poule,338,48,4,5,français,m,2,0.2,76.18154157,1.36297282
5eae48f0f3540c5177f3474c,95,1,2024-02-24T08:56:18.107Z,french_437.wav,0,poule,338,48,4,5,français,m,3,0.25666667,-54.28538078,1.46039745
5eae48f0f3540c5177f3474c,96,1,2024-02-24T08:56:18.107Z,french_923.wav,0,poule,358,48,4,5,français,m,0,0.0,-57.84523262,1.35677253
5eae48f0f3540c5177f3474c,96,1,2024-02-24T08:56:18.107Z,french_923.wav,0,poule,358,48,4,5,français,m,1,0.1,-15.65652506,1.1280373
5eae48f0f3540c5177f3474c,96,1,2024-02-24T08:56:18.107Z,french_923.wav,0,poule,358,48,4,5,français,m,2,0.2,37.84243464,1.38752537
5eae48f0f3540c5177f3474c,96,1,2024-02-24T08:56:18.107Z,french_923.wav,0,poule,358,48,4,5,français,m,3,0.25666667,15.41728704,1.42596606
5eae48f0f3540c5177f3474c,97,1,2024-02-24T08:56:18.107Z,french_826.wav,0,poule,555,48,4,5,français,m,0,0.0,-33.86739367,0.07066528
5eae48f0f3540c5177f3474c,97,1,2024-02-24T08:56:18.107Z,french_826.wav,0,poule,555,48,4,5,français,m,1,0.1,-31.27966971,0.90490109
5eae48f0f3540c5177f3474c,97,1,2024-02-24T08:56:18.107Z,french_826.wav,0,poule,555,48,4,5,français,m,2,0.2,51.84533444,0.66906535
5eae48f0f3540c5177f3474c,97,1,2024-02-24T08:56:18.107Z,french_826.wav,0,poule,555,48,4,5,français,m,3,0.25666667,-81.13386792,0.4882988
5eae48f0f3540c5177f3474c,98,1,2024-02-24T08:56:18.107Z,french_583.wav,0,poule,348,48,4,5,français,m,0,0.0,54.77106994,0.72700192
5eae48f0f3540c5177f3474c,98,1,2024-02-24T08:56:18.107Z,french_583.wav,0,poule,348,48,4,5,français,m,1,0.1,-91.79725644,1.43459804
5eae48f0f3540c5177f3474c,98,1,2024-02-24T08:56:18.107Z,french_583.wav,0,poule,348,48,4,5,français,m,2,0.2,19.12152033,0.59283069
5eae48f0f3540c5177f3474c,98,1,2024-02-24T08:56:18.107Z,french_583.wav,0,poule,348,48,4,5,français,m,3,0.25666667,80.05255959,1.58166394
5eae48f0f3540c5177f3474c,99,1,2024-02-24T08:56:18.107Z,french_317.wav,0,poule,412,48,4,5,français,m,0,0.0,16.10159391,1.00024107
5eae48f0f3540c5177f3474c,99,1,2024-02-24T08:56:18.107Z,french_317.wav,0,poule,412,48,4,5,français,m,1,0.1,-3.4784276,1.04292902
5eae48f0f3540c5177f3474c,99,1,2024-02-24T08:56:18.107Z,french_317.wav,0,poule,412,48,4,5,français,m,2,0.2,-59.35796464,1.9831422
5eae48f0f3540c5177f3474c,99,1,2024-02-24T08:56:18.107Z,french_317.wav,0,poule,412,48,4,5,français,m,3,0.25666667,-1.67752252,0.01532069
5eae48f0f3540c5177f3474c,100,2,2024-02-24T08:56:18.107Z,french_855.wav,0,poule,362,48,4,5,français,m,0,0.0,2.71159552,1.64624975
5eae48f0f3540c5177f3474c,100,2,2024-02-24T08:56:18.107Z,french_855.wav,0,poule,362,48,4,5,français,m,1,0.1,66.05842931,0.54809415
5eae48f0f3540c5177f3474c,100,2,2024-02-24T08:56:18.107Z,french_855.wav,0,poule,362,48,4,5,français,m,2,0.2,41.00995311,1.64541289
5eae48f0f3540c5177f3474c,100,2,2024-02-24T08:56:18.107Z,french_855.wav,0,poule,362,48,4,5,français,m,3,0.25666667,98.2962498,1.22205238
5eae48f0f3540c5177f3474c,101,2,2024-02-24T08:56:18.107Z,french_249.wav,0,poule,461,48,4,5,français,m,0,0.0,-14.62389142,0.54824935
5eae48f0f3540c5177f3474c,101,2,2024-02-24T08:56:18.107Z,french_249.wav,0,poule,461,48,4,5,français,m,1,0.1,82.35169727,0.81625332
5eae48f0f3540c5177f3474c,101,2,2024-02-24T08:56:18.107Z,french_249.wav,0,poule,461,48,4,5,français,m,2,0.2,-37.79288698,0.28914805
5eae48f0f3540c5177f3474c,101,2,2024-02-24T08:56:18.107Z,french_249.wav,0,poule,461,48,4,5,français,m,3,0.25666667,-94.5306765,0.43241605
5eae48f0f3540c5177f3474c,102,2,2024-02-24T08:56:18.107Z,french_369.wav,0,poule,427,48,4,5,français,m,0,0.0,6.84974499,1.45229952
5eae48f0f3540c5177f3474c,102,2,2024-02-24T08:56:18.107Z,french_369.wav,0,poule,427,48,4,5,français,m,1,0.1,61.60531042,0.56068962
5eae48f0f3540c5177f3474c,102,2,2024-02-24T08:56:18.107Z,french_369.wav,0,poule,427,48,4,5,français,m,2,0.2,34.70817747,0.98283966
5eae48f0f3540c5177f3474c,102,2,2024-02-24T08:56:18.107Z,french_369.wav,0,poule,427,48,4,5,français,m,3,0.25666667,-13.14208541,1.24311155
5eae48f0f3540c5177f3474c,103,2,2024-02-24T08:56:18.107Z,french_852.wav,0,poule,384,48,4,5,français,m,0,0.0,-21.25647341,1.59129412
5eae48f0f3540c5177f3474c,103,2,2024-02-24T08:56:18.107Z,french_852.wav,0,poule,384,48,4,5,français,m,1,0.1,44.09899268,0.90931534
5eae48f0f3540c5177f3474c,103,2,2024-02-24T08:56:18.107Z,french_852.wav,0,poule,384,48,4,5,français,m,2,0.2,-20.54343266,0.17046498
5eae48f0f3540c5177f3474c,103,2,2024-02-24T08:56:18.107Z,french_852.wav,0,poule,384,48,4,5,français,m,3,0.25666667,-73.6389021,0.95788578
5eae48f0f3540c5177f3474c,104,2,2024-02-24T08:56:18.107Z,french_332.wav,0,poule,377,48,4,5,français,m,0,0.0,-88.68220121,0.82286563
5eae48f0f3540c5177f3474c,104,2,2024-02-24T08:56:18.107Z,french_332.wav,0,poule,377,48,4,5,français,m,1,0.1,68.217882,1.40641777
5eae48f0f3540c5177f3474c,104,2,2024-02-24T08:56:18.107Z,french_332.wav,0,poule,377,48,4,5,français,m,2,0.2,-19.05049855,0.59183839
5eae48f0f3540c5177f3474c,104,2,2024-02-24T08:56:18.107Z,french_332.wav,0,poule,377,48,4,5,français,m,3,0.25666667,-98.47604088,0.80823464
5eae48f0f3540c5177f3474c,105,2,2024-02-24T08:56:18.107Z,french_136.wav,0,poule,363,48,4,5,français,m,0,0.0,-19.24670356,0.58320819
5eae48f0f3540c5177f3474c,105,2,2024-02-24T08:56:18.107Z,french_136.wav,0,poule,363,48,4,5,français,m,1,0.1,-19.07264886,1.75711633
5eae48f0f3540c5177f3474c,105,2,2024-02-24T08:56:18.107Z,french_136.wav,0,poule,363,48,4,5,français,m,2,0.2,-15.66011034,0.20485265
5eae48f0f3540c5177f3474c,105,2,2024-02-24T08:56:18.107Z,french_136.wav,0,poule,363,48,4,5,français,m,3,0.25666667,-21.38655245,0.63500763
5eae48f0f3540c5177f3474c,106,2,2024-02-24T08:56:18.107Z,french_472.wav,0,poule,390,48,4,5,français,m,0,0.0,-9.46806957,0.85855516
5eae48f0f3540c5177f3474c,106,2,2024-02-24T08:56:18.107Z,french_472.wav,0,poule,390,48,4,5,français,m,1,0.1,45.81973918,1.60383991
5eae48f0f3540c5177f3474c,106,2,2024-02-24T08:56:18.107Z,french_472.wav,0,poule,390,48,4,5,français,m,2,0.2,-32.95266456,0.80244772
5eae48f0f3540c5177f3474c,106,2,2024-02-24T08:56:18.107Z,french_472.wav,0,poule,390,48,4,5,français,m,3,0.25666667,-10.56557549,1.48234138
5eae48f0f3540c5177f3474c,107,2,2024-02-24T08:56:18.107Z,french_760.wav,0,poule,367,48,4,5,français,m,0,0.0,-33.74521786,1.08104013
5eae48f0f3540c5177f3474c,107,2,2024-02-24T08:56:18.107Z,french_760.wav,0,poule,367,48,4,5,français,m,1,0.1,38.89159258,0.90085836
5eae48f0f3540c5177f3474c,107,2,2024-02-24T08:56:18.107Z,french_760.wav,0,poule,367,48,4,5,français,m,2,0.2,64.82772984,0.36080554
5eae48f0f3540c5177f3474c,107,2,2024-02-24T08:56:18.107Z,french_760.wav,0,poule,367,48,4,5,français,m,3,0.25666667,15.52705732,0.08393315
5eae48f0f3540c5177f3474c,108,2,2024-02-24T08:56:18.107Z,french_759.wav,0,poule,382,48,4,5,français,m,0,0.0,43.66892012,0.9017147
5eae48f0f3540c5177f3474c,108,2,2024-02-24T08:56:18.107Z,french_759.wav,0,poule,382,48,4,5,français,m,1,0.1,28.75822808,1.01118462
5eae48f0f3540c5177f3474c,108,2,2024-02-24T08:56:18.107Z,french_759.wav,0,poule,382,48,4,5,français,m,2,0.2,-53.65094598,1.43326948
5eae48f0f3540c5177f3474c,108,2,2024-02-24T08:56:18.107Z,french_759.wav,0,poule,382,48,4,5,français,m,3,0.25666667,-79.66264825,0.32927354
5eae48f0f3540c5177f3474c,109,2,2024-02-24T08:56:18.107Z,french_910.wav,0,poule,525,48,4,5,français,m,0,0.0,-48.65293901,0.34246772
5eae48f0f3540c5177f3474c,109,2,2024-02-24T08:56:18.107Z,french_910.wav,0,poule,525,48,4,5,français,m,1,0.1,-4.89021115,1.03510625
5eae48f0f3540c5177f3474c,109,2,2024-02-24T08:56:18.107Z,french_910.wav,0,poule,525,48,4,5,français,m,2,0.2,-57.2651588,1.59317518
5eae48f0f3540c5177f3474c,109,2,2024-02-24T08:56:18.107Z,french_910.wav,0,poule,525,48,4,5,français,m,3,0.25666667,-57.53771148,0.91667414
5eae48f0f3540c5177f3474c,110,2,2024-02-24T08:56:18.107Z,french_828.wav,0,poule,457,48,4,5,français,m,0,0.0,-2.7154125,0.72553522
5eae48f0f3540c5177f3474c,110,2,2024-02-24T08:56:18.107Z,french_828.wav,0,poule,457,48,4,5,français,m,1,0.1,-36.83814983,1.24313396
5eae48f0f3540c5177f3474c,110,2,2024-02-24T08:56:18.107Z,french_828.wav,0,poule,457,48,4,5,français,m,2,0.2,-50.98592502,0.62544862
5eae48f0f3540c5177f3474c,110,2,2024-02-24T08:56:18.107Z,french_828.wav,0,poule,457,48,4,5,français,m,3,0.25666667,-48.36073317,1.19233037
5eae48f0f3540c5177f3474c,111,2,2024-02-24T08:56:18.107Z,french_552.wav,0,poule,575,48,4,5,français,m,0,0.0,-52.32363839,0.44295398
5eae48f0f3540c5177f3474c,111,2,2024-02-24T08:56:18.107Z,french_552.wav,0,poule,575,48,4,5,français,m,1,0.1,23.44364533,1.4520287
5eae48f0f3540c5177f3474c,111,2,2024-02-24T08:56:18.107Z,french_552.wav,0,poule,575,48,4,5,français,m,2,0.2,72.20212972,0.63620541
5eae48f0f3540c5177f3474c,111,2,2024-02-24T08:56:18.107Z,french_552.wav,0,poule,575,48,4,5,français,m,3,0.25666667,-25.42911122,1.39952151
5eae48f0f3540c5177f3474c,112,2,2024-02-24T08:56:18.107Z,french_156.wav,0,poule,355,48,4,5,français,m,0,0.0,31.92379501,1.0555525
5eae48f0f3540c5177f3474c,112,2,2024-02-24T08:56:18.107Z,french_156.wav,0,poule,355,48,4,5,français,m,1,0.1,-44.87917853,1.35077548
5eae48f0f3540c5177f3474c,112,2,2024-02-24T08:56:18.107Z,french_156.wav,0,poule,355,48,4,5,français,m,2,0.2,-30.25450012,0.66649605
5eae48f0f3540c5177f3474c,112,2,2024-02-24T08:56:18.107Z,french_156.wav,0,poule,355,48,4,5,français,m,3,0.25666667,-8.41227372,1.59075988
5eae48f0f3540c5177f3474c,113,2,2024-02-24T08:56:18.107Z,french_700.wav,0,poule,400,48,4,5,français,m,0,0.0,27.78595998,1.84943535
5eae48f0f3540c5177f3474c,113,2,2024-02-24T08:56:18.107Z,french_700.wav,0,poule,400,48,4,5,français,m,1,0.1,-29.96160528,0.52483958
5eae48f0f3540c5177f3474c,113,2,2024-02-24T08:56:18.107Z,french_700.wav,0,poule,400,48,4,5,français,m,2,0.2,60.6733782,0.55672926
5eae48f0f3540c5177f3474c,113,2,2024-02-24T08:56:18.107Z,french_700.wav,0,poule,400,48,4,5,français,m,3,0.25666667,39.12324738,0.96842636
5eae48f0f3540c5177f3474c,114,2,2024-02-24T08:56:18.107Z,french_263.wav,0,poule,290,48,4,5,français,m,0,0.0,25.02930943,0.29249845
5eae48f0f3540c5177f3474c,114,2,2024-02-24T08:56:18.107Z,french_263.wav,0,poule,290,48,4,5,français,m,1,0.1,77.59070044,1.82268286
5eae48f0f3540c5177f3474c,114,2,2024-02-24T08:56:18.107Z,french_263.wav,0,poule,290,48,4,5,français,m,2,0.2,61.13366196,0.69638669
5eae48f0f3540c5177f3474c,114,2,2024-02-24T08:56:18.107Z,french_263.wav,0,poule,290,48,4,5,français,m,3,0.25666667,-46.58539851,0.57279137
5eae48f0f3540c5177f3474c,115,2,2024-02-24T08:56:18.107Z,french_619.wav,0,poule,469,48,4,5,français,m,0,0.0,-58.15289928,0.63115023
5eae48f0f3540c5177f3474c,115,2,2024-02-24T08:56:18.107Z,french_619.wav,0,poule,469,48,4,5,français,m,1,0.1,30.86987971,0.12868397
5eae48f0f3540c5177f3474c,115,2,2024-02-24T08:56:18.107Z,french_619.wav,0,poule,469,48,4,5,français,m,2,0.2,96.84221096,0.73139592
5eae48f0f3540c5177f3474c,115,2,2024-02-24T08:56:18.107Z,french_619.wav,0,poule,469,48,4,5,français,m,3,0.25666667,69.41225319,1.17738103
5eae48f0f3540c5177f3474c,116,2,2024-02-24T08:56:18.107Z,french_918.wav,0,poule,3065,48,4,5,français,m,0,0.0,73.93932449,1.12285198
5eae48f0f3540c5177f3474c,116,2,2024-02-24T08:56:18.107Z,french_918.wav,0,poule,3065,48,4,5,français,m,1,0.1,-96.38016005,0.52569443
5eae48f0f3540c5177f3474c,116,2,2024-02-24T08:56:18.107Z,french_918.wav,0,poule,3065,48,4,5,français,m,2,0.2,52.71903464,1.01384132
5eae48f0f3540c5177f3474c,116,2,2024-02-24T08:56:18.107Z,french_918.wav,0,poule,3065,48,4,5,français,m,3,0.25666667,71.89996729,0.74683012
5eae48f0f3540c5177f3474c,117,2,2024-02-24T08:56:18.107Z,french_291.wav,0,poule,2969,48,4,5,français,m,0,0.0,-84.80785011,0.63456403
5eae48f0f3540c5177f3474c,117,2,2024-02-24T08:56:18.107Z,french_291.wav,0,poule,2969,48,4,5,français,m,1,0.1,-36.68987184,1.00353926
5eae48f0f3540c5177f3474c,117,2,2024-02-24T08:56:18.107Z,french_291.wav,0,poule,2969,48,4,5,français,m,2,0.2,-96.57368066,1.89833315
5eae48f0f3540c5177f3474c,117,2,2024-02-24T08:56:18.107Z,french_291.wav,0,poule,2969,48,4,5,français,m,3,0.25666667,-53.58057918,1.00269885
5eae48f0f3540c5177f3474c,118,2,2024-02-24T08:56:18.107Z,french_10.wav,0,poule,1039,48,4,5,français,m,0,0.0,34.48773494,0.90390655
5eae48f0f3540c5177f3474c,118,2,2024-02-24T08:56:18.107Z,french_10.wav,0,poule,1039,48,4,5,français,m,1,0.1,82.41652137,1.13926368
5eae48f0f3540c5177f3474c,118,2,2024-02-24T08:56:18.107Z,french_10.wav,0,poule,1039,48,4,5,français,m,2,0.2,-51.47900312,1.63497012
5eae48f0f3540c5177f3474c,118,2,2024-02-24T08:56:18.107Z,french_10.wav,0,poule,1039,48,4,5,français,m,3,0.25666667,70.4490668,0.74730693
5eae48f0f3540c5177f3474c,119,2,2024-02-24T08:56:18.107Z,french_714.wav,0,poule,430,48,4,5,français,m,0,0.0,77.35355583,0.35690042
5eae48f0f3540c5177f3474c,119,2,2024-02-24T08:56:18.107Z,french_714.wav,0,poule,430,48,4,5,français,m,1,0.1,-16.5812175,0.7400083
5eae48f0f3540c5177f3474c,119,2,2024-02-24T08:56:18.107Z,french_714.wav,0,poule,430,48,4,5,français,m,2,0.2,-79.42314022,1.17849399
5eae48f0f3540c5177f3474c,119,2,2024-02-24T08:56:18.107Z,french_714.wav,0,poule,430,48,4,5,français,m,3,0.25666667,64.71981705,1.38365213
5eae48f0f3540c5177f3474c,120,2,2024-02-24T08:56:18.107Z,french_621.wav,0,poule,1280,48,4,5,français,m,0,0.0,-65.12133357,1.7602607
5eae48f0f3540c5177f3474c,120,2,2024-02-24T08:56:18.107Z,french_621.wav,0,poule,1280,48,4,5,français,m,1,0.1,-34.98790471,0.92649718
5eae48f0f3540c5177f3474c,120,2,2024-02-24T08:56:18.107Z,french_621.wav,0,poule,1280,48,4,5,français,m,2,0.2,-12.78608876,1.46782633
5eae48f0f3540c5177f3474c,120,2,2024-02-24T08:56:18.107Z,french_621.wav,0,poule,1280,48,4,5,français,m,3,0.25666667,53.53170361,0.68266442
5eae48f0f3540c5177f3474c,121,2,2024-02-24T08:56:18.107Z,french_874.wav,0,poule,446,48,4,5,français,m,0,0.0,-35.96007818,0.94126631
5eae48f0f3540c5177f3474c,121,2,2024-02-24T08:56:18.107Z,french_874.wav,0,poule,446,48,4,5,français,m,1,0.1,93.27546243,1.47253108
5eae48f0f3540c5177f3474c,121,2,2024-02-24T08:56:18.107Z,french_874.wav,0,poule,446,48,4,5,français,m,2,0.2,-82.54110259,1.71868685
5eae48f0f3540c5177f3474c,121,2,2024-02-24T08:56:18.107Z,french_874.wav,0,poule,446,48,4,5,français,m,3,0.25666667,1.86870901,0.93280664
5eae48f0f3540c5177f3474c,122,2,2024-02-24T08:56:18.107Z,french_586.wav,0,poule,1067,48,4,5,français,m,0,0.0,86.96734506,0.62271677
5eae48f0f3540c5177f3474c,122,2,2024-02-24T08:56:18.107Z,french_586.wav,0,poule,1067,48,4,5,français,m,1,0.1,-8.603444,1.69916535
5eae48f0f3540c5177f3474c,122,2,2024-02-24T08:56:18.107Z,french_586.wav,0,poule,1067,48,4,5,français,m,2,0.2,11.78169212,1.65961944
5eae48f0f3540c5177f3474c,122,2,2024-02-24T08:56:18.107Z,french_586.wav,0,poule,1067,48,4,5,français,m,3,0.25666667,14.18547806,1.90120182
5eae48f0f3540c5177f3474c,123,2,2024-02-24T08:56:18.107Z,french_38.wav,0,poule,2669,48,4,5,français,m,0,0.0,-0.72741882,1.73508679
5eae48f0f3540c5177f3474c,123,2,2024-02-24T08:56:18.107Z,french_38.wav,0,poule,2669,48,4,5,français,m,1,0.1,17.06804162,1.04827054
5eae48f0f3540c5177f3474c,123,2,2024-02-24T08:56:18.107Z,french_38.wav,0,poule,2669,48,4,5,français,m,2,0.2,-90.47269694,0.06966066
5eae48f0f3540c5177f3474c,123,2,2024-02-24T08:56:18.107Z,french_38.wav,0,poule,2669,48,4,5,français,m,3,0.25666667,-46.03968341,1.13213122
5eae48f0f3540c5177f3474c,124,2,2024-02-24T08:56:18.107Z,french_611.wav,0,poule,2785,48,4,5,français,m,0,0.0,-21.77805362,0.549449
5eae48f0f3540c5177f3474c,124,2,2024-02-24T08:56:18.107Z,french_611.wav,0,poule,2785,48,4,5,français,m,1,0.1,-45.2722057,0.20224538
5eae48f0f3540c5177f3474c,124,2,2024-02-24T08:56:18.107Z,french_611.wav,0,poule,2785,48,4,5,français,m,2,0.2,67.02777506,1.0051208
5eae48f0f3540c5177f3474c,124,2,2024-02-24T08:56:18.107Z,french_611.wav,0,poule,2785,48,4,5,français,m,3,0.25666667,-75.35716628,1.31223223
5eae48f0f3540c5177f3474c,125,2,2024-02-24T08:56:18.107Z,french_172.wav,0,poule,376,48,4,5,français,m,0,0.0,48.7065843,1.72774852
5eae48f0f3540c5177f3474c,125,2,2024-02-24T08:56:18.107Z,french_172.wav,0,poule,376,48,4,5,français,m,1,0.1,36.17213003,0.94223675
5eae48f0f3540c5177f3474c,125,2,2024-02-24T08:56:18.107Z,french_172.wav,0,poule,376,48,4,5,français,m,2,0.2,22.16215467,1.06724209
5eae48f0f3540c5177f3474c,125,2,2024-02-24T08:56:18.107Z,french_172.wav,0,poule,376,48,4,5,français,m,3,0.25666667,3.80373218,1.19623342
5eae48f0f3540c5177f3474c,126,2,2024-02-24T08:56:18.107Z,french_845.wav,0,poule,377,48,4,5,français,m,0,0.0,-4.24220541,1.81527349
5eae48f0f3540c5177f3474c,126,2,2024-02-24T08:56:18.107Z,french_845.wav,0,poule,377,48,4,5,français,m,1,0.1,-33.05758094,0.43145559
5eae48f0f3540c5177f3474c,126,2,2024-02-24T08:56:18.107Z,french_845.wav,0,poule,377,48,4,5,français,m,2,0.2,-22.8575131,1.45726833
5eae48f0f3540c5177f3474c,126,2,2024-02-24T08:56:18.107Z,french_845.wav,0,poule,377,48,4,5,français,m,3,0.25666667,-28.52835037,1.38023089
5eae48f0f3540c5177f3474c,127,2,2024-02-24T08:56:18.107Z,french_912.wav,0,poule,393,48,4,5,français,m,0,0.0,-0.0923206,1.34654061
5eae48f0f3540c5177f3474c,127,2,2024-02-24T08:56:18.107Z,french_912.wav,0,poule,393,48,4,5,français,m,1,0.1,-62.03539144,1.69101872
5eae48f0f3540c5177f3474c,127,2,2024-02-24T08:56:18.107Z,french_912.wav,0,poule,393,48,4,5,français,m,2,0.2,9.48123132,1.27014765
5eae48f0f3540c5177f3474c,127,2,2024-02-24T08:56:18.107Z,french_912.wav,0,poule,393,48,4,5,français,m,3,0.25666667,-88.73464781,0.10640649
5eae48f0f3540c5177f3474c,128,2,2024-02-24T08:56:18.107Z,french_629.wav,0,poule,497,48,4,5,français,m,0,0.0,81.54997922,0.65130664
5eae48f0f3540c5177f3474c,128,2,2024-02-24T08:56:18.107Z,french_629.wav,0,poule,497,48,4,5,français,m,1,0.1,-25.83506989,0.18523019
5eae48f0f3540c5177f3474c,128,2,2024-02-24T08:56:18.107Z,french_629.wav,0,poule,497,48,4,5,français,m,2,0.2,-50.62902687,1.20696076
5eae48f0f3540c5177f3474c,128,2,2024-02-24T08:56:18.107Z,french_629.wav,0,poule,497,48,4,5,français,m,3,0.25666667,-69.1271608,0.57946161
5eae48f0f3540c5177f3474c,129,2,2024-02-24T08:56:18.107Z,french_359.wav,0,poule,344,48,4,5,français,m,0,0.0,4.86221528,1.66863127
5eae48f0f3540c5177f3474c,129,2,2024-02-24T08:56:18.107Z,french_359.wav,0,poule,344,48,4,5,français,m,1,0.1,41.19609007,0.25992168
5eae48f0f3540c5177f3474c,129,2,2024-02-24T08:56:18.107Z,french_359.wav,0,poule,344,48,4,5,français,m,2,0.2,55.98013436,1.95186144
5eae48f0f3540c5177f3474c,129,2,2024-02-24T08:56:18.107Z,french_359.wav,0,poule,344,48,4,5,français,m,3,0.25666667,-59.88256532,1.64110453
5eae48f0f3540c5177f3474c,130,2,2024-02-24T08:56:18.107Z,french_273.wav,0,poule,484,48,4,5,français,m,0,0.0,-64.70279697,0.53531099
5eae48f0f3540c5177f3474c,130,2,2024-02-24T08:56:18.107Z,french_273.wav,0,poule,484,48,4,5,français,m,1,0.1,51.79292953,0.11586536
5eae48f0f3540c5177f3474c,130,2,2024-02-24T08:56:18.107Z,french_273.wav,0,poule,484,48,4,5,français,m,2,0.2,-96.4801009,0.21168864
5eae48f0f3540c5177f3474c,130,2,2024-02-24T08:56:18.107Z,french_273.wav,0,poule,484,48,4,5,français,m,3,0.25666667,93.42641001,1.2771199
5eae48f0f3540c5177f3474c,131,2,2024-02-24T08:56:18.107Z,french_106.wav,0,poule,338,48,4,5,français,m,0,0.0,-80.93311261,0.79978414
5eae48f0f3540c5177f3474c,131,2,2024-02-24T08:56:18.107Z,french_106.wav,0,poule,338,48,4,5,français,m,1,0.1,7.33604761,0.87655026
5eae48f0f3540c5177f3474c,131,2,2024-02-24T08:56:18.107Z,french_106.wav,0,poule,338,48,4,5,français,m,2,0.2,53.45287064,1.02362607
5eae48f0f3540c5177f3474c,131,2,2024-02-24T08:56:18.107Z,french_106.wav,0,poule,338,48,4,5,français,m,3,0.25666667,-26.77526802,1.25354946
5eae48f0f3540c5177f3474c,132,2,2024-02-24T08:56:18.107Z,french_609.wav,0,poule,622,48,4,5,français,m,0,0.0,11.6890167,1.75568789
5eae48f0f3540c5177f3474c,132,2,2024-02-24T08:56:18.107Z,french_609.wav,0,poule,622,48,4,5,français,m,1,0.1,-35.50971605,1.50542158
5eae48f0f3540c5177f3474c,132,2,2024-02-24T08:56:18.107Z,french_609.wav,0,poule,622,48,4,5,français,m,2,0.2,-98.47760025,0.96032408
5eae48f0f3540c5177f3474c,132,2,2024-02-24T08:56:18.107Z,french_609.wav,0,poule,622,48,4,5,français,m,3,0.25666667,-64.00925784,1.1186533
5eae48f0f3540c5177f3474c,133,2,2024-02-24T08:56:18.107Z,french_375.wav,0,poule,381,48,4,5,français,m,0,0.0,25.91972282,0.89929791
5eae48f0f3540c5177f3474c,133,2,2024-02-24T08:56:18.107Z,french_375.wav,0,poule,381,48,4,5,français,m,1,0.1,-60.98407933,0.6101435
5eae48f0f3540c5177f3474c,133,2,2024-02-24T08:56:18.107Z,french_375.wav,0,poule,381,48,4,5,français,m,2,0.2,-55.02276561,1.65353502
5eae48f0f3540c5177f3474c,133,2,2024-02-24T08:56:18.107Z,french_375.wav,0,poule,381,48,4,5,français,m,3,0.25666667,50.70039074,0.66964756
5eae48f0f3540c5177f3474c,134,2,2024-02-24T08:56:18.107Z,french_250.wav,0,poule,417,48,4,5,français,m,0,0.0,34.1596777,0.91954119
5eae48f0f3540c5177f3474c,134,2,2024-02-24T08:56:18.107Z,french_250.wav,0,poule,417,48,4,5,français,m,1,0.1,-44.36149414,1.97424998
5eae48f0f3540c5177f3474c,134,2,2024-02-24T08:56:18.107Z,french_250.wav,0,poule,417,48,4,5,français,m,2,0.2,5.0850049,0.32778381
5eae48f0f3540c5177f3474c,134,2,2024-02-24T08:56:18.107Z,french_250.wav,0,poule,417,48,4,5,français,m,3,0.25666667,-37.48818875,0.84724669
5eae48f0f3540c5177f3474c,135,2,2024-02-24T08:56:18.107Z,french_444.wav,0,poule,320,48,4,5,français,m,0,0.0,55.47353293,0.9328321
5eae48f0f3540c5177f3474c,135,2,2024-02-24T08:56:18.107Z,french_444.wav,0,poule,320,48,4,5,français,m,1,0.1,12.04434333,1.46542582
5eae48f0f3540c5177f3474c,135,2,2024-02-24T08:56:18.107Z,french_444.wav,0,poule,320,48,4,5,français,m,2,0.2,14.09264182,1.44584709
5eae48f0f3540c5177f3474c,135,2,2024-02-24T08:56:18.107Z,french_444.wav,0,poule,320,48,4,5,français,m,3,0.25666667,-80.20656615,1.50777595
5eae48f0f3540c5177f3474c,136,2,2024-02-24T08:56:18.107Z,french_664.wav,0,poule,880,48,4,5,français,m,0,0.0,-2.08032019,1.43741932
5eae48f0f3540c5177f3474c,136,2,2024-02-24T08:56:18.107Z,french_664.wav,0,poule,880,48,4,5,français,m,1,0.1,-67.02716902,1.07099048
5eae48f0f3540c5177f3474c,136,2,2024-02-24T08:56:18.107Z,french_664.wav,0,poule,880,48,4,5,français,m,2,0.2,95.17650789,1.92774669
5eae48f0f3540c5177f3474c,136,2,2024-02-24T08:56:18.107Z,french_664.wav,0,poule,880,48,4,5,français,m,3,0.25666667,-41.34718039,0.70027683
5eae48f0f3540c5177f3474c,137,2,2024-02-24T08:56:18.107Z,french_374.wav,0,poule,564,48,4,5,français,m,0,0.0,23.12233407,0.63582229
5eae48f0f3540c5177f3474c,137,2,2024-02-24T08:56:18.107Z,french_374.wav,0,poule,564,48,4,5,français,m,1,0.1,4.88786521,0.48218095
5eae48f0f3540c5177f3474c,137,2,2024-02-24T08:56:18.107Z,french_374.wav,0,poule,564,48,4,5,français,m,2,0.2,75.40336837,0.81003499
5eae48f0f3540c5177f3474c,137,2,2024-02-24T08:56:18.107Z,french_374.wav,0,poule,564,48,4,5,français,m,3,0.25666667,-52.23092949,1.31471089
5eae48f0f3540c5177f3474c,138,2,2024-02-24T08:56:18.107Z,french_887.wav,0,poule,276,48,4,5,français,m,0,0.0,68.65167503,1.16380924
5eae48f0f3540c5177f3474c,138,2,2024-02-24T08:56:18.107Z,french_887.wav,0,poule,276,48,4,5,français,m,1,0.1,-55.72044546,1.74073633
5eae48f0f3540c5177f3474c,138,2,2024-02-24T08:56:18.107Z,french_887.wav,0,poule,276,48,4,5,français,m,2,0.2,-97.59121662,1.00138394
5eae48f0f3540c5177f3474c,138,2,2024-02-24T08:56:18.107Z,french_887.wav,0,poule,276,48,4,5,français,m,3,0.25666667,-40.12897823,1.21780512
5eae48f0f3540c5177f3474c,139,2,2024-02-24T08:56:18.107Z,french_266.wav,0,poule,288,48,4,5,français,m,0,0.0,58.27883453,0.79886668
5eae48f0f3540c5177f3474c,139,2,2024-02-24T08:56:18.107Z,french_266.wav,0,poule,288,48,4,5,français,m,1,0.1,-28.04411439,1.49488383
5eae48f0f3540c5177f3474c,139,2,2024-02-24T08:56:18.107Z,french_266.wav,0,poule,288,48,4,5,français,m,2,0.2,-38.46127027,0.15170522
5eae48f0f3540c5177f3474c,139,2,2024-02-24T08:56:18.107Z,french_266.wav,0,poule,288,48,4,5,français,m,3,0.25666667,-84.67234247,1.57053192
5eae48f0f3540c5177f3474c,140,2,2024-02-24T08:56:18.107Z,french_725.wav,0,poule,275,48,4,5,français,m,0,0.0,61.28532458,0.86285292
5eae48f0f3540c5177f3474c,140,2,2024-02-24T08:56:18.107Z,french_725.wav,0,poule,275,48,4,5,français,m,1,0.1,25.43953492,0.5175718
5eae48f0f3540c5177f3474c,140,2,2024-02-24T08:56:18.107Z,french_725.wav,0,poule,275,48,4,5,français,m,2,0.2,31.92964858,1.72668514
5eae48f0f3540c5177f3474c,140,2,2024-02-24T08:56:18.107Z,french_725.wav,0,poule,275,48,4,5,français,m,3,0.25666667,-96.80759498,1.79225728
5eae48f0f3540c5177f3474c,141,2,2024-02-24T08:56:18.107Z,french_892.wav,0,poule,389,48,4,5,français,m,0,0.0,-9.89123065,1.43345907
5eae48f0f3540c5177f3474c,141,2,2024-02-24T08:56:18.107Z,french_892.wav,0,poule,389,48,4,5,français,m,1,0.1,-29.48301763,0.60115207
5eae48f0f3540c5177f3474c,141,2,2024-02-24T08:56:18.107Z,french_892.wav,0,poule,389,48,4,5,français,m,2,0.2,-20.12274852,0.51672516
5eae48f0f3540c5177f3474c,141,2,2024-02-24T08:56:18.107Z,french_892.wav,0,poule,389,48,4,5,français,m,3,0.25666667,-63.31716547,0.2983609
5eae48f0f3540c5177f3474c,142,2,2024-02-24T08:56:18.107Z,french_442.wav,0,poule,498,48,4,5,français,m,0,0.0,60.29330972,0.95088916
5eae48f0f3540c5177f3474c,142,2,2024-02-24T08:56:18.107Z,french_442.wav,0,poule,498,48,4,5,français,m,1,0.1,96.30587546,0.89420653
5eae48f0f3540c5177f3474c,142,2,2024-02-24T08:56:18.107Z,french_442.wav,0,poule,498,48,4,5,français,m,2,0.2,3.75375275,0.09745987
5eae48f0f3540c5177f3474c,142,2,2024-02-24T08:56:18.107Z,french_442.wav,0,poule,498,48,4,5,français,m,3,0.25666667,65.23357012,0.42759775
5eae48f0f3540c5177f3474c,143,2,2024-02-24T08:56:18.107Z,french_530.wav,0,poule,444,48,4,5,français,m,0,0.0,-48.266975,0.22885815
5eae48f0f3540c5177f3474c,143,2,2024-02-24T08:56:18.107Z,french_530.wav,0,poule,444,48,4,5,français,m,1,0.1,10.53522492,0.99708564
5eae48f0f3540c5177f3474c,143,2,2024-02-24T08:56:18.107Z,french_530.wav,0,poule,444,48,4,5,français,m,2,0.2,-70.81391458,0.43471164
5eae48f0f3540c5177f3474c,143,2,2024-02-24T08:56:18.107Z,french_530.wav,0,poule,444,48,4,5,français,m,3,0.25666667,-13.69241617,0.61022423
5eae48f0f3540c5177f3474c,144,2,2024-02-24T08:56:18.107Z,french_762.wav,0,poule,455,48,4,5,français,m,0,0.0,-45.61990315,0.95776955
5eae48f0f3540c5177f3474c,144,2,2024-02-24T08:56:18.107Z,french_762.wav,0,poule,455,48,4,5,français,m,1,0.1,-38.16727298,0.16992331
5eae48f0f3540c5177f3474c,144,2,2024-02-24T08:56:18.107Z,french_762.wav,0,poule,455,48,4,5,français,m,2,0.2,-15.44626984,1.21301125
5eae48f0f3540c5177f3474c,144,2,2024-02-24T08:56:18.107Z,french_762.wav,0,poule,455,48,4,5,français,m,3,0.25666667,-31.31206952,0.49399223
5eae48f0f3540c5177f3474c,145,2,2024-02-24T08:56:18.107Z,french_59.wav,0,poule,520,48,4,5,français,m,0,0.0,39.36273925,0.85213244
5eae48f0f3540c5177f3474c,145,2,2024-02-24T08:56:18.107Z,french_59.wav,0,poule,520,48,4,5,français,m,1,0.1,-72.05438318,0.54541244
5eae48f0f3540c5177f3474c,145,2,2024-02-24T08:56:18.107Z,french_59.wav,0,poule,520,48,4,5,français,m,2,0.2,-58.73379721,0.77028914
5eae48f0f3540c5177f3474c,145,2,2024-02-24T08:56:18.107Z,french_59.wav,0,poule,520,48,4,5,français,m,3,0.25666667,-71.89754194,0.84538443
5eae48f0f3540c5177f3474c,146,2,2024-02-24T08:56:18.107Z,french_598.wav,0,poule,504,48,4,5,français,m,0,0.0,21.68363658,1.67467049
5eae48f0f3540c5177f3474c,146,2,2024-02-24T08:56:18.107Z,french_598.wav,0,poule,504,48,4,5,français,m,1,0.1,-21.32750779,0.64095668
5eae48f0f3540c5177f3474c,146,2,2024-02-24T08:56:18.107Z,french_598.wav,0,poule,504,48,4,5,français,m,2,0.2,7.72514192,0.23575639
5eae48f0f3540c5177f3474c,146,2,2024-02-24T08:56:18.107Z,french_598.wav,0,poule,504,48,4,5,français,m,3,0.25666667,-29.17866519,0.51628457
5eae48f0f3540c5177f3474c,147,2,2024-02-24T08:56:18.107Z,french_650.wav,0,poule,673,48,4,5,français,m,0,0.0,-98.04674504,0.50091073
5eae48f0f3540c5177f3474c,147,2,2024-02-24T08:56:18.107Z,french_650.wav,0,poule,673,48,4,5,français,m,1,0.1,-80.1546697,0.94744897
5eae48f0f3540c5177f3474c,147,2,2024-02-24T08:56:18.107Z,french_650.wav,0,poule,673,48,4,5,français,m,2,0.2,-60.9727692,0.76656919
5eae48f0f3540c5177f3474c,147,2,2024-02-24T08:56:18.107Z,french_650.wav,0,poule,673,48,4,5,français,m,3,0.25666667,39.39299736,1.29747512
5eae48f0f3540c5177f3474c,148,2,2024-02-24T08:56:18.107Z,french_733.wav,0,poule,520,48,4,5,français,m,0,0.0,96.30835656,1.00234216
5eae48f0f3540c5177f3474c,148,2,2024-02-24T08:56:18.107Z,french_733.wav,0,poule,520,48,4,5,français,m,1,0.1,-16.80147809,0.65355169
5eae48f0f3540c5177f3474c,148,2,2024-02-24T08:56:18.107Z,french_733.wav,0,poule,520,48,4,5,français,m,2,0.2,34.50045069,1.63394937
5eae48f0f3540c5177f3474c,148,2,2024-02-24T08:56:18.107Z,french_733.wav,0,poule,520,48,4,5,français,m,3,0.25666667,-6.11336577,0.15404628
5eae48f0f3540c5177f3474c,149,2,2024-02-24T08:56:18.107Z,french_657.wav,0,poule,303,48,4,5,français,m,0,0.0,99.76716584,0.85695778
5eae48f0f3540c5177f3474c,149,2,2024-02-24T08:56:18.107Z,french_657.wav,0,poule,303,48,4,5,français,m,1,0.1,11.51898435,1.00645436
5eae48f0f3540c5177f3474c,149,2,2024-02-24T08:56:18.107Z,french_657.wav,0,poule,303,48,4,5,français,m,2,0.2,-43.45408234,0.73989588
5eae48f0f3540c5177f3474c,149,2,2024-02-24T08:56:18.107Z,french_657.wav,0,poule,303,48,4,5,français,m,3,0.25666667,22.46427071,1.57217431
5eae48f0f3540c5177f3474c,150,3,2024-02-24T08:56:18.107Z,french_258.wav,0,poule,409,48,4,5,français,m,0,0.0,49.87761594,0.27922365
5eae48f0f3540c5177f3474c,150,3,2024-02-24T08:56:18.107Z,french_258.wav,0,poule,409,48,4,5,français,m,1,0.1,-83.77774399,1.89432374
5eae48f0f3540c5177f3474c,150,3,2024-02-24T08:56:18.107Z,french_258.wav,0,poule,409,48,4,5,français,m,2,0.2,58.69904626,0.22934206
5eae48f0f3540c5177f3474c,150,3,2024-02-24T08:56:18.107Z,french_258.wav,0,poule,409,48,4,5,français,m,3,0.25666667,-57.68721695,0.35615934
5eae48f0f3540c5177f3474c,151,3,2024-02-24T08:56:18.107Z,french_800.wav,0,poule,514,48,4,5,français,m,0,0.0,43.61588251,1.33995655
5eae48f0f3540c5177f3474c,151,3,2024-02-24T08:56:18.107Z,french_800.wav,0,poule,514,48,4,5,français,m,1,0.1,-17.8471941,0.26774995
5eae48f0f3540c5177f3474c,151,3,2024-02-24T08:56:18.107Z,french_800.wav,0,poule,514,48,4,5,français,m,2,0.2,-10.2363333,0.87274599
5eae48f0f3540c5177f3474c,151,3,2024-02-24T08:56:18.107Z,french_800.wav,0,poule,514,48,4,5,français,m,3,0.25666667,-85.1878963,0.37568781
5eae48f0f3540c5177f3474c,152,3,2024-02-24T08:56:18.107Z,french_341.wav,0,poule,530,48,4,5,français,m,0,0.0,20.04332725,1.4438644
5eae48f0f3540c5177f3474c,152,3,2024-02-24T08:56:18.107Z,french_341.wav,0,poule,530,48,4,5,français,m,1,0.1,-82.29685822,0.08336385
5eae48f0f3540c5177f3474c,152,3,2024-02-24T08:56:18.107Z,french_341.wav,0,poule,530,48,4,5,français,m,2,0.2,-35.12302466,0.04329086
5eae48f0f3540c5177f3474c,152,3,2024-02-24T08:56:18.107Z,french_341.wav,0,poule,530,48,4,5,français,m,3,0.25666667,58.90486556,0.76896482
5eae48f0f3540c5177f3474c,153,3,2024-02-24T08:56:18.107Z,french_47.wav,0,poule,610,48,4,5,français,m,0,0.0,85.02614504,1.30132326
5eae48f0f3540c5177f3474c,153,3,2024-02-24T08:56:18.107Z,french_47.wav,0,poule,610,48,4,5,français,m,1,0.1,79.4123752,0.75427136
5eae48f0f3540c5177f3474c,153,3,2024-02-24T08:56:18.107Z,french_47.wav,0,poule,610,48,4,5,français,m,2,0.2,52.99117024,0.35196824
5eae48f0f3540c5177f3474c,153,3,2024-02-24T08:56:18.107Z,french_47.wav,0,poule,610,48,4,5,français,m,3,0.25666667,-70.6267891,0.96175292
5eae48f0f3540c5177f3474c,154,3,2024-02-24T08:56:18.107Z,french_789.wav,0,poule,353,48,4,5,français,m,0,0.0,16.13130467,1.41580253
5eae48f0f3540c5177f3474c,154,3,2024-02-24T08:56:18.107Z,french_789.wav,0,poule,353,48,4,5,français,m,1,0.1,-53.51301261,1.63533644
5eae48f0f3540c5177f3474c,154,3,2024-02-24T08:56:18.107Z,french_789.wav,0,poule,353,48,4,5,français,m,2,0.2,91.10833978,0.42839577
5eae48f0f3540c5177f3474c,154,3,2024-02-24T08:56:18.107Z,french_789.wav,0,poule,353,48,4,5,français,m,3,0.25666667,9.61415248,0.64971622
5eae48f0f3540c5177f3474c,155,3,2024-02-24T08:56:18.107Z,french_193.wav,0,poule,339,48,4,5,français,m,0,0.0,-28.32639357,1.40536398
5eae48f0f3540c5177f3474c,155,3,2024-02-24T08:56:18.107Z,french_193.wav,0,poule,339,48,4,5,français,m,1,0.1,-28.26139456,0.96467568
5eae48f0f3540c5177f3474c,155,3,2024-02-24T08:56:18.107Z,french_193.wav,0,poule,339,48,4,5,français,m,2,0.2,-57.21870996,1.12687293
5eae48f0f3540c5177f3474c,155,3,2024-02-24T08:56:18.107Z,french_193.wav,0,poule,339,48,4,5,français,m,3,0.25666667,-51.4120543,0.49094377
5eae48f0f3540c5177f3474c,156,3,2024-02-24T08:56:18.107Z,french_318.wav,0,poule,511,48,4,5,français,m,0,0.0,51.46520294,0.36120202
5eae48f0f3540c5177f3474c,156,3,2024-02-24T08:56:18.107Z,french_318.wav,0,poule,511,48,4,5,français,m,1,0.1,86.78866558,0.00996795
5eae48f0f3540c5177f3474c,156,3,2024-02-24T08:56:18.107Z,french_318.wav,0,poule,511,48,4,5,français,m,2,0.2,-10.27725715,1.05940341
5eae48f0f3540c5177f3474c,156,3,2024-02-24T08:56:18.107Z,french_318.wav,0,poule,511,48,4,5,français,m,3,0.25666667,9.68065634,1.37923943
5eae48f0f3540c5177f3474c,157,3,2024-02-24T08:56:18.107Z,french_976.wav,0,poule,315,48,4,5,français,m,0,0.0,-70.02335232,0.30263581
5eae48f0f3540c5177f3474c,157,3,2024-02-24T08:56:18.107Z,french_976.wav,0,poule,315,48,4,5,français,m,1,0.1,-61.25816472,1.77513966
5eae48f0f3540c5177f3474c,157,3,2024-02-24T08:56:18.107Z,french_976.wav,0,poule,315,48,4,5,français,m,2,0.2,38.21349803,0.48920434
5eae48f0f3540c5177f3474c,157,3,2024-02-24T08:56:18.107Z,french_976.wav,0,poule,315,48,4,5,français,m,3,0.25666667,27.10323863,1.97348905
5eae48f0f3540c5177f3474c,158,3,2024-02-24T08:56:18.107Z,french_758.wav,0,poule,294,48,4,5,français,m,0,0.0,45.30317447,1.53591398
5eae48f0f3540c5177f3474c,158,3,2024-02-24T08:56:18.107Z,french_758.wav,0,poule,294,48,4,5,français,m,1,0.1,37.35504147,1.00413053
5eae48f0f3540c5177f3474c,158,3,2024-02-24T08:56:18.107Z,french_758.wav,0,poule,294,48,4,5,français,m,2,0.2,-7.74982346,1.59140772
5eae48f0f3540c5177f3474c,158,3,2024-02-24T08:56:18.107Z,french_758.wav,0,poule,294,48,4,5,français,m,3,0.25666667,-75.22654498,0.76456646
5eae48f0f3540c5177f3474c,159,3,2024-02-24T08:56:18.107Z,french_632.wav,0,poule,477,48,4,5,français,m,0,0.0,-75.14768165,1.61991752
5eae48f0f3540c5177f3474c,159,3,2024-02-24T08:56:18.107Z,french_632.wav,0,poule,477,48,4,5,français,m,1,0.1,-2.61560916,1.85762338
5eae48f0f3540c5177f3474c,159,3,2024-02-24T08:56:18.107Z,french_632.wav,0,poule,477,48,4,5,français,m,2,0.2,-59.30318173,1.4379908
5eae48f0f3540c5177f3474c,159,3,2024-02-24T08:56:18.107Z,french_632.wav,0,poule,477,48,4,5,français,m,3,0.25666667,-18.46762736,1.77571767
5eae48f0f3540c5177f3474c,160,3,2024-02-24T08:56:18.107Z,french_880.wav,0,poule,383,48,4,5,français,m,0,0.0,34.54343789,1.97652899
5eae48f0f3540c5177f3474c,160,3,2024-02-24T08:56:18.107Z,french_880.wav,0,poule,383,48,4,5,français,m,1,0.1,76.62551814,0.35866047
5eae48f0f3540c5177f3474c,160,3,2024-02-24T08:56:18.107Z,french_880.wav,0,poule,383,48,4,5,français,m,2,0.2,69.99614697,1.49815227
5eae48f0f3540c5177f3474c,160,3,2024-02-24T08:56:18.107Z,french_880.wav,0,poule,383,48,4,5,français,m,3,0.25666667,-97.30266151,1.92878763
5eae48f0f3540c5177f3474c,161,3,2024-02-24T08:56:18.107Z,french_515.wav,0,poule,483,48,4,5,français,m,0,0.0,90.1787868,1.05169603
5eae48f0f3540c5177f3474c,161,3,2024-02-24T08:56:18.107Z,french_515.wav,0,poule,483,48,4,5,français,m,1,0.1,95.19464712,0.16234368
5eae48f0f3540c5177f3474c,161,3,2024-02-24T08:56:18.107Z,french_515.wav,0,poule,483,48,4,5,français,m,2,0.2,-71.09612906,1.85560054
5eae48f0f3540c5177f3474c,161,3,2024-02-24T08:56:18.107Z,french_515.wav,0,poule,483,48,4,5,français,m,3,0.25666667,86.48037909,0.23492468
5eae48f0f3540c5177f3474c,162,3,2024-02-24T08:56:18.107Z,french_122.wav,0,poule,430,48,4,5,français,m,0,0.0,-9.1094999,0.88070358
5eae48f0f3540c5177f3474c,162,3,2024-02-24T08:56:18.107Z,french_122.wav,0,poule,430,48,4,5,français,m,1,0.1,-91.51691393,1.99267891
5eae48f0f3540c5177f3474c,162,3,2024-02-24T08:56:18.107Z,french_122.wav,0,poule,430,48,4,5,français,m,2,0.2,-80.73944639,0.69956237
5eae48f0f3540c5177f3474c,162,3,2024-02-24T08:56:18.107Z,french_122.wav,0,poule,430,48,4,5,français,m,3,0.25666667,-5.35945859,0.8489229
5eae48f0f3540c5177f3474c,163,3,2024-02-24T08:56:18.107Z,french_781.wav,0,poule,19010,48,4,5,français,m,0,0.0,33.25938538,1.27105286
5eae48f0f3540c5177f3474c,163,3,2024-02-24T08:56:18.107Z,french_781.wav,0,poule,19010,48,4,5,français,m,1,0.1,-13.90292419,0.93357863
5eae48f0f3540c5177f3474c,163,3,2024-02-24T08:56:18.107Z,french_781.wav,0,poule,19010,48,4,5,français,m,2,0.2,-71.59350782,1.0124146
5eae48f0f3540c5177f3474c,163,3,2024-02-24T08:56:18.107Z,french_781.wav,0,poule,19010,48,4,5,français,m,3,0.25666667,57.07291034,0.68511696
5eae48f0f3540c5177f3474c,164,3,2024-02-24T08:56:18.107Z,french_90.wav,0,poule,245,48,4,5,français,m,0,0.0,-66.53104779,1.39730001
5eae48f0f3540c5177f3474c,164,3,2024-02-24T08:56:18.107Z,french_90.wav,0,poule,245,48,4,5,français,m,1,0.1,5.55931872,1.52187206
5eae48f0f3540c5177f3474c,164,3,2024-02-24T08:56:18.107Z,french_90.wav,0,poule,245,48,4,5,français,m,2,0.2,41.91338709,1.66100559
5eae48f0f3540c5177f3474c,164,3,2024-02-24T08:56:18.107Z,french_90.wav,0,poule,245,48,4,5,français,m,3,0.25666667,-36.12417317,1.31779225
5eae48f0f3540c5177f3474c,165,3,2024-02-24T08:56:18.107Z,french_905.wav,0,poule,601,48,4,5,français,m,0,0.0,87.86620346,1.28585996
5eae48f0f3540c5177f3474c,165,3,2024-02-24T08:56:18.107Z,french_905.wav,0,poule,601,48,4,5,français,m,1,0.1,17.88859649,0.57714405
5eae48f0f3540c5177f3474c,165,3,2024-02-24T08:56:18.107Z,french_905.wav,0,poule,601,48,4,5,français,m,2,0.2,51.58456374,0.3219524
5eae48f0f3540c5177f3474c,165,3,2024-02-24T08:56:18.107Z,french_905.wav,0,poule,601,48,4,5,français,m,3,0.25666667,-98.76806622,1.69480445
5eae48f0f3540c5177f3474c,166,3,2024-02-24T08:56:18.107Z,french_194.wav,0,poule,376,48,4,5,français,m,0,0.0,82.45325258,0.54112087
5eae48f0f3540c5177f3474c,166,3,2024-02-24T08:56:18.107Z,french_194.wav,0,poule,376,48,4,5,français,m,1,0.1,88.9094727,0.47601939
5eae48f0f3540c5177f3474c,166,3,2024-02-24T08:56:18.107Z,french_194.wav,0,poule,376,48,4,5,français,m,2,0.2,-44.07936747,1.71905709
5eae48f0f3540c5177f3474c,166,3,2024-02-24T08:56:18.107Z,french_194.wav,0,poule,376,48,4,5,français,m,3,0.25666667,97.80970813,1.16289195
5eae48f0f3540c5177f3474c,167,3,2024-02-24T08:56:18.107Z,french_612.wav,0,poule,459,48,4,5,français,m,0,0.0,43.10783066,0.49686358
5eae48f0f3540c5177f3474c,167,3,2024-02-24T08:56:18.107Z,french_612.wav,0,poule,459,48,4,5,français,m,1,0.1,-4.14995098,1.10500502
5eae48f0f3540c5177f3474c,167,3,2024-02-24T08:56:18.107Z,french_612.wav,0,poule,459,48,4,5,français,m,2,0.2,22.17563662,0.22222502
5eae48f0f3540c5177f3474c,167,3,2024-02-24T08:56:18.107Z,french_612.wav,0,poule,459,48,4,5,français,m,3,0.25666667,-48.75850842,1.14111641
5eae48f0f3540c5177f3474c,168,3,2024-02-24T08:56:18.107Z,french_665.wav,0,poule,234,48,4,5,français,m,0,0.0,1.77078633,0.29838278
5eae48f0f3540c5177f3474c,168,3,2024-02-24T08:56:18.107Z,french_665.wav,0,poule,234,48,4,5,français,m,1,0.1,-95.60257374,0.72198918
5eae48f0f3540c5177f3474c,168,3,2024-02-24T08:56:18.107Z,french_665.wav,0,poule,234,48,4,5,français,m,2,0.2,-26.21333041,0.91284695
5eae48f0f3540c5177f3474c,168,3,2024-02-24T08:56:18.107Z,french_665.wav,0,poule,234,48,4,5,français,m,3,0.25666667,-67.7705493,0.52625369
5eae48f0f3540c5177f3474c,169,3,2024-02-24T08:56:18.107Z,french_738.wav,0,poule,393,48,4,5,français,m,0,0.0,9.63502306,1.8953007
5eae48f0f3540c5177f3474c,169,3,2024-02-24T08:56:18.107Z,french_738.wav,0,poule,393,48,4,5,français,m,1,0.1,23.45464863,0.66483685
5eae48f0f3540c5177f3474c,169,3,2024-02-24T08:56:18.107Z,french_738.wav,0,poule,393,48,4,5,français,m,2,0.2,-41.48525502,0.56687756
5eae48f0f3540c5177f3474c,169,3,2024-02-24T08:56:18.107Z,french_738.wav,0,poule,393,48,4,5,français,m,3,0.25666667,10.13311751,1.74946228
5eae48f0f3540c5177f3474c,170,3,2024-02-24T08:56:18.107Z,french_352.wav,0,poule,440,48,4,5,français,m,0,0.0,74.68489003,0.29948735
5eae48f0f3540c5177f3474c,170,3,2024-02-24T08:56:18.107Z,french_352.wav,0,poule,440,48,4,5,français,m,1,0.1,96.39949195,0.51724136
5eae48f0f3540c5177f3474c,170,3,2024-02-24T08:56:18.107Z,french_352.wav,0,poule,440,48,4,5,français,m,2,0.2,90.64764472,1.48158799
5eae48f0f3540c5177f3474c,170,3,2024-02-24T08:56:18.107Z,french_352.wav,0,poule,440,48,4,5,français,m,3,0.25666667,65.55341103,0.97952247
5eae48f0f3540c5177f3474c,171,3,2024-02-24T08:56:18.107Z,french_320.wav,0,poule,444,48,4,5,français,m,0,0.0,-12.08882056,1.76987467
5eae48f0f3540c5177f3474c,171,3,2024-02-24T08:56:18.107Z,french_320.wav,0,poule,444,48,4,5,français,m,1,0.1,-69.15560276,1.70079501
5eae48f0f3540c5177f3474c,171,3,2024-02-24T08:56:18.107Z,french_320.wav,0,poule,444,48,4,5,français,m,2,0.2,33.30000548,0.4524157
5eae48f0f3540c5177f3474c,171,3,2024-02-24T08:56:18.107Z,french_320.wav,0,poule,444,48,4,5,français,m,3,0.25666667,-65.44816773,0.78128465
5eae48f0f3540c5177f3474c,172,3,2024-02-24T08:56:18.107Z,french_335.wav,0,poule,267,48,4,5,français,m,0,0.0,-60.92786521,0.89558721
5eae48f0f3540c5177f3474c,172,3,2024-02-24T08:56:18.107Z,french_335.wav,0,poule,267,48,4,5,français,m,1,0.1,31.54292158,1.14451351
5eae48f0f3540c5177f3474c,172,3,2024-02-24T08:56:18.107Z,french_335.wav,0,poule,267,48,4,5,français,m,2,0.2,82.84770607,0.29770625
5eae48f0f3540c5177f3474c,172,3,2024-02-24T08:56:18.107Z,french_335.wav,0,poule,267,48,4,5,français,m,3,0.25666667,75.81016287,0.45932577
5eae48f0f3540c5177f3474c,173,3,2024-02-24T08:56:18.107Z,french_953.wav,0,poule,1945,48,4,5,français,m,0,0.0,-27.22394829,1.27693125
5eae48f0f3540c5177f3474c,173,3,2024-02-24T08:56:18.107Z,french_953.wav,0,poule,1945,48,4,5,français,m,1,0.1,-3.36109764,0.12331262
5eae48f0f3540c5177f3474c,173,3,2024-02-24T08:56:18.107Z,french_953.wav,0,poule,1945,48,4,5,français,m,2,0.2,79.96390299,1.48485403
5eae48f0f3540c5177f3474c,173,3,2024-02-24T08:56:18.107Z,french_953.wav,0,poule,1945,48,4,5,français,m,3,0.25666667,-20.83871742,0.51230705
5eae48f0f3540c5177f3474c,174,3,2024-02-24T08:56:18.107Z,french_313.wav,0,poule,480,48,4,5,français,m,0,0.0,50.15458506,0.55380102
5eae48f0f3540c5177f3474c,174,3,2024-02-24T08:56:18.107Z,french_313.wav,0,poule,480,48,4,5,français,m,1,0.1,2.46815661,0.88494107
5eae48f0f3540c5177f3474c,174,3,2024-02-24T08:56:18.107Z,french_313.wav,0,poule,480,48,4,5,français,m,2,0.2,44.14025365,0.65214702
5eae48f0f3540c5177f3474c,174,3,2024-02-24T08:56:18.107Z,french_313.wav,0,poule,480,48,4,5,français,m,3,0.25666667,-56.8276357,0.5616472
5eae48f0f3540c5177f3474c,175,3,2024-02-24T08:56:18.107Z,french_737.wav,0,poule,695,48,4,5,français,m,0,0.0,13.02374388,1.19502519
5eae48f0f3540c5177f3474c,175,3,2024-02-24T08:56:18.107Z,french_737.wav,0,poule,695,48,4,5,français,m,1,0.1,-10.41694685,0.96501463
5eae48f0f3540c5177f3474c,175,3,2024-02-24T08:56:18.107Z,french_737.wav,0,poule,695,48,4,5,français,m,2,0.2,-16.29618142,0.50712422
5eae48f0f3540c5177f3474c,175,3,2024-02-24T08:56:18.107Z,french_737.wav,0,poule,695,48,4,5,français,m,3,0.25666667,15.62671798,0.54653665
5eae48f0f3540c5177f3474c,176,3,2024-02-24T08:56:18.107Z,french_373.wav,0,poule,296,48,4,5,français,m,0,0.0,27.88559689,1.35161412
5eae48f0f3540c5177f3474c,176,3,2024-02-24T08:56:18.107Z,french_373.wav,0,poule,296,48,4,5,français,m,1,0.1,61.41244142,1.00997609
5eae48f0f3540c5177f3474c,176,3,2024-02-24T08:56:18.107Z,french_373.wav,0,poule,296,48,4,5,français,m,2,0.2,37.97273047,1.87297461
5eae48f0f3540c5177f3474c,176,3,2024-02-24T08:56:18.107Z,french_373.wav,0,poule,296,48,4,5,français,m,3,0.25666667,-82.72738113,0.97441242
5eae48f0f3540c5177f3474c,177,3,2024-02-24T08:56:18.107Z,french_676.wav,0,poule,340,48,4,5,français,m,0,0.0,77.51634327,0.52312795
5eae48f0f3540c5177f3474c,177,3,2024-02-24T08:56:18.107Z,french_676.wav,0,poule,340,48,4,5,français,m,1,0.1,-98.7950763,0.58996043
5eae48f0f3540c5177f3474c,177,3,2024-02-24T08:56:18.107Z,french_676.wav,0,poule,340,48,4,5,français,m,2,0.2,-10.44477989,1.89966038
5eae48f0f3540c5177f3474c,177,3,2024-02-24T08:56:18.107Z,french_676.wav,0,poule,340,48,4,5,français,m,3,0.25666667,3.71960258,0.61903343
5eae48f0f3540c5177f3474c,178,3,2024-02-24T08:56:18.107Z,french_504.wav,0,poule,262,48,4,5,français,m,0,0.0,-0.09953376,1.58426169
5eae48f0f3540c5177f3474c,178,3,2024-02-24T08:56:18.107Z,french_504.wav,0,poule,262,48,4,5,français,m,1,0.1,-56.24331475,0.92396286
5eae48f0f3540c5177f3474c,178,3,2024-02-24T08:56:18.107Z,french_504.wav,0,poule,262,48,4,5,français,m,2,0.2,-79.12350098,0.70640993
5eae48f0f3540c5177f3474c,178,3,2024-02-24T08:56:18.107Z,french_504.wav,0,poule,262,48,4,5,français,m,3,0.25666667,64.25656878,0.80299587
5eae48f0f3540c5177f3474c,179,3,2024-02-24T08:56:18.107Z,french_451.wav,0,poule,471,48,4,5,français,m,0,0.0,4.63188994,1.82787098
5eae48f0f3540c5177f3474c,179,3,2024-02-24T08:56:18.107Z,french_451.wav,0,poule,471,48,4,5,français,m,1,0.1,28.08955108,0.29502826
5eae48f0f3540c5177f3474c,179,3,2024-02-24T08:56:18.107Z,french_451.wav,0,poule,471,48,4,5,français,m,2,0.2,71.15157801,0.14883578
5eae48f0f3540c5177f3474c,179,3,2024-02-24T08:56:18.107Z,french_451.wav,0,poule,471,48,4,5,français,m,3,0.25666667,-28.31676071,0.64245631
5eae48f0f3540c5177f3474c,180,3,2024-02-24T08:56:18.107Z,french_338.wav,0,poule,405,48,4,5,français,m,0,0.0,-59.42111132,1.60060286
5eae48f0f3540c5177f3474c,180,3,2024-02-24T08:56:18.107Z,french_338.wav,0,poule,405,48,4,5,français,m,1,0.1,-69.70478814,0.22517269
5eae48f0f3540c5177f3474c,180,3,2024-02-24T08:56:18.107Z,french_338.wav,0,poule,405,48,4,5,français,m,2,0.2,-12.60920347,1.52190999
5eae48f0f3540c5177f3474c,180,3,2024-02-24T08:56:18.107Z,french_338.wav,0,poule,405,48,4,5,français,m,3,0.25666667,-82.44797384,0.82265445
5eae48f0f3540c5177f3474c,181,3,2024-02-24T08:56:18.107Z,french_568.wav,0,poule,398,48,4,5,français,m,0,0.0,-18.10302265,1.34189827
5eae48f0f3540c5177f3474c,181,3,2024-02-24T08:56:18.107Z,french_568.wav,0,poule,398,48,4,5,français,m,1,0.1,9.93139794,1.47029794
5eae48f0f3540c5177f3474c,181,3,2024-02-24T08:56:18.107Z,french_568.wav,0,poule,398,48,4,5,français,m,2,0.2,91.46195775,0.17269775
5eae48f0f3540c5177f3474c,181,3,2024-02-24T08:56:18.107Z,french_568.wav,0,poule,398,48,4,5,français,m,3,0.25666667,56.10040773,1.22679594
5eae48f0f3540c5177f3474c,182,3,2024-02-24T08:56:18.107Z,french_183.wav,0,poule,331,48,4,5,français,m,0,0.0,-70.39448934,1.64690622
5eae48f0f3540c5177f3474c,182,3,2024-02-24T08:56:18.107Z,french_183.wav,0,poule,331,48,4,5,français,m,1,0.1,53.65669982,0.19500459
5eae48f0f3540c5177f3474c,182,3,2024-02-24T08:56:18.107Z,french_183.wav,0,poule,331,48,4,5,français,m,2,0.2,-2.56135136,1.70333754
5eae48f0f3540c5177f3474c,182,3,2024-02-24T08:56:18.107Z,french_183.wav,0,poule,331,48,4,5,français,m,3,0.25666667,49.12124255,0.71175446
5eae48f0f3540c5177f3474c,183,3,2024-02-24T08:56:18.107Z,french_741.wav,0,poule,258,48,4,5,français,m,0,0.0,52.99239945,1.20115282
5eae48f0f3540c5177f3474c,183,3,2024-02-24T08:56:18.107Z,french_741.wav,0,poule,258,48,4,5,français,m,1,0.1,-62.37721768,0.53106937
5eae48f0f3540c5177f3474c,183,3,2024-02-24T08:56:18.107Z,french_741.wav,0,poule,258,48,4,5,français,m,2,0.2,54.26195155,1.91925029
5eae48f0f3540c5177f3474c,183,3,2024-02-24T08:56:18.107Z,french_741.wav,0,poule,258,48,4,5,français,m,3,0.25666667,8.23350592,0.42380295
5eae48f0f3540c5177f3474c,184,3,2024-02-24T08:56:18.107Z,french_312.wav,0,poule,229,48,4,5,français,m,0,0.0,-19.98952993,1.92157149
5eae48f0f3540c5177f3474c,184,3,2024-02-24T08:56:18.107Z,french_312.wav,0,poule,229,48,4,5,français,m,1,0.1,50.70617954,0.53263035
5eae48f0f3540c5177f3474c,184,3,2024-02-24T08:56:18.107Z,french_312.wav,0,poule,229,48,4,5,français,m,2,0.2,80.27383631,1.8452111
5eae48f0f3540c5177f3474c,184,3,2024-02-24T08:56:18.107Z,french_312.wav,0,poule,229,48,4,5,français,m,3,0.25666667,31.55502425,1.73122835
5eae48f0f3540c5177f3474c,185,3,2024-02-24T08:56:18.107Z,french_70.wav,0,poule,251,48,4,5,français,m,0,0.0,24.17054112,1.64784081
5eae48f0f3540c5177f3474c,185,3,2024-02-24T08:56:18.107Z,french_70.wav,0,poule,251,48,4,5,français,m,1,0.1,-33.49200779,0.51465366
5eae48f0f3540c5177f3474c,185,3,2024-02-24T08:56:18.107Z,french_70.wav,0,poule,251,48,4,5,français,m,2,0.2,-94.66214176,1.24573935
5eae48f0f3540c5177f3474c,185,3,2024-02-24T08:56:18.107Z,french_70.wav,0,poule,251,48,4,5,français,m,3,0.25666667,65.90688931,1.78963367
5eae48f0f3540c5177f3474c,186,3,2024-02-24T08:56:18.107Z,french_419.wav,0,poule,262,48,4,5,français,m,0,0.0,-42.00575778,0.81351681
5eae48f0f3540c5177f3474c,186,3,2024-02-24T08:56:18.107Z,french_419.wav,0,poule,262,48,4,5,français,m,1,0.1,-35.26826913,1.62056968
5eae48f0f3540c5177f3474c,186,3,2024-02-24T08:56:18.107Z,french_419.wav,0,poule,262,48,4,5,français,m,2,0.2,-18.10946272,1.68465097
5eae48f0f3540c5177f3474c,186,3,2024-02-24T08:56:18.107Z,french_419.wav,0,poule,262,48,4,5,français,m,3,0.25666667,-2.55322937,1.07803679
5eae48f0f3540c5177f3474c,187,3,2024-02-24T08:56:18.107Z,french_371.wav,0,poule,207,48,4,5,français,m,0,0.0,31.80119749,0.65227963
5eae48f0f3540c5177f3474c,187,3,2024-02-24T08:56:18.107Z,french_371.wav,0,poule,207,48,4,5,français,m,1,0.1,-38.52135119,1.80763105
5eae48f0f3540c5177f3474c,187,3,2024-02-24T08:56:18.107Z,french_371.wav,0,poule,207,48,4,5,français,m,2,0.2,9.85895876,1.44692227
5eae48f0f3540c5177f3474c,187,3,2024-02-24T08:56:18.107Z,french_371.wav,0,poule,207,48,4,5,français,m,3,0.25666667,79.11511398,1.12716888
5eae48f0f3540c5177f3474c,188,3,2024-02-24T08:56:18.107Z,french_592.wav,0,poule,1147,48,4,5,français,m,0,0.0,-60.74271859,0.07910076
5eae48f0f3540c5177f3474c,188,3,2024-02-24T08:56:18.107Z,french_592.wav,0,poule,1147,48,4,5,français,m,1,0.1,93.57737247,0.09988206
5eae48f0f3540c5177f3474c,188,3,2024-02-24T08:56:18.107Z,french_592.wav,0,poule,1147,48,4,5,français,m,2,0.2,-53.75438764,0.64371435
5eae48f0f3540c5177f3474c,188,3,2024-02-24T08:56:18.107Z,french_592.wav,0,poule,1147,48,4,5,français,m,3,0.25666667,-2.22241718,0.65219405
5eae48f0f3540c5177f3474c,189,3,2024-02-24T08:56:18.107Z,french_204.wav,0,poule,2201,48,4,5,français,m,0,0.0,-28.36319627,0.07789368
5eae48f0f3540c5177f3474c,189,3,2024-02-24T08:56:18.107Z,french_204.wav,0,poule,2201,48,4,5,français,m,1,0.1,-92.66891013,0.00203791
5eae48f0f3540c5177f3474c,189,3,2024-02-24T08:56:18.107Z,french_204.wav,0,poule,2201,48,4,5,français,m,2,0.2,96.29592204,1.92374636
5eae48f0f3540c5177f3474c,189,3,2024-02-24T08:56:18.107Z,french_204.wav,0,poule,2201,48,4,5,français,m,3,0.25666667,-46.81515004,0.97947469
