subj,trial,block,date,stim,stim_order,response,rt,age,english,french,language,sex,param_index,segment,pitch,stretch
5f56468ad62884044a782809,0,0,2024-02-24T09:06:41.543Z,french_388.wav,0,poule,3489,25,5,4,francais,f,0,0.0,-56.99851318,0.76802497
5f56468ad62884044a782809,0,0,2024-02-24T09:06:41.543Z,french_388.wav,0,poule,3489,25,5,4,francais,f,1,0.1,-28.42117093,1.07190306
5f56468ad62884044a782809,0,0,2024-02-24T09:06:41.543Z,french_388.wav,0,poule,3489,25,5,4,francais,f,2,0.2,-17.37440647,0.91030877
5f56468ad62884044a782809,0,0,2024-02-24T09:06:41.543Z,french_388.wav,0,poule,3489,25,5,4,francais,f,3,0.25666667,19.5608334,0.1576099
5f56468ad62884044a782809,1,0,2024-02-24T09:06:41.543Z,french_426.wav,0,poule,1344,25,5,4,francais,f,0,0.0,94.83015244,1.95768421
5f56468ad62884044a782809,1,0,2024-02-24T09:06:41.543Z,french_426.wav,0,poule,1344,25,5,4,francais,f,1,0.1,80.74954266,0.5170286
5f56468ad62884044a782809,1,0,2024-02-24T09:06:41.543Z,french_426.wav,0,poule,1344,25,5,4,francais,f,2,0.2,14.22402444,0.27456075
5f56468ad62884044a782809,1,0,2024-02-24T09:06:41.543Z,french_426.wav,0,poule,1344,25,5,4,francais,f,3,0.25666667,92.85203769,1.53042381
5f56468ad62884044a782809,2,0,2024-02-24T09:06:41.543Z,french_302.wav,0,pull,372,25,5,4,francais,f,0,0.0,8.4067376,0.06791418
5f56468ad62884044a782809,2,0,2024-02-24T09:06:41.543Z,french_302.wav,0,pull,372,25,5,4,francais,f,1,0.1,-29.32780789,1.46578571
5f56468ad62884044a782809,2,0,2024-02-24T09:06:41.543Z,french_302.wav,0,pull,372,25,5,4,francais,f,2,0.2,-43.35590711,1.81098556
5f56468ad62884044a782809,2,0,2024-02-24T09:06:41.543Z,french_302.wav,0,pull,372,25,5,4,francais,f,3,0.25666667,-44.50549756,1.40235265
5f56468ad62884044a782809,3,0,2024-02-24T09:06:41.543Z,french_501.wav,0,poule,3605,25,5,4,francais,f,0,0.0,-56.11865097,1.37224371
5f56468ad62884044a782809,3,0,2024-02-24T09:06:41.543Z,french_501.wav,0,poule,3605,25,5,4,francais,f,1,0.1,-7.09029516,0.68301448
5f56468ad62884044a782809,3,0,2024-02-24T09:06:41.543Z,french_501.wav,0,poule,3605,25,5,4,francais,f,2,0.2,-36.29429224,0.41531668
5f56468ad62884044a782809,3,0,2024-02-24T09:06:41.543Z,french_501.wav,0,poule,3605,25,5,4,francais,f,3,0.25666667,-11.40231031,0.4885534
5f56468ad62884044a782809,4,0,2024-02-24T09:06:41.543Z,french_171.wav,0,poule,2736,25,5,4,francais,f,0,0.0,13.3023016,1.00497926
5f56468ad62884044a782809,4,0,2024-02-24T09:06:41.543Z,french_171.wav,0,poule,2736,25,5,4,francais,f,1,0.1,25.29505215,0.58011724
5f56468ad62884044a782809,4,0,2024-02-24T09:06:41.543Z,french_171.wav,0,poule,2736,25,5,4,francais,f,2,0.2,-4.58061697,1.99843941
5f56468ad62884044a782809,4,0,2024-02-24T09:06:41.543Z,french_171.wav,0,poule,2736,25,5,4,francais,f,3,0.25666667,34.76288366,1.29013512
5f56468ad62884044a782809,5,0,2024-02-24T09:06:41.543Z,french_306.wav,0,poule,995,25,5,4,francais,f,0,0.0,22.4772117,0.91979461
5f56468ad62884044a782809,5,0,2024-02-24T09:06:41.543Z,french_306.wav,0,poule,995,25,5,4,francais,f,1,0.1,-23.30683659,1.83006101
5f56468ad62884044a782809,5,0,2024-02-24T09:06:41.543Z,french_306.wav,0,poule,995,25,5,4,francais,f,2,0.2,-85.44667034,1.25602607
5f56468ad62884044a782809,5,0,2024-02-24T09:06:41.543Z,french_306.wav,0,poule,995,25,5,4,francais,f,3,0.25666667,-79.47374411,0.84497865
5f56468ad62884044a782809,6,0,2024-02-24T09:06:41.543Z,french_264.wav,0,pull,941,25,5,4,francais,f,0,0.0,-17.29134877,0.96448196
5f56468ad62884044a782809,6,0,2024-02-24T09:06:41.543Z,french_264.wav,0,pull,941,25,5,4,francais,f,1,0.1,-10.91480705,1.52626855
5f56468ad62884044a782809,6,0,2024-02-24T09:06:41.543Z,french_264.wav,0,pull,941,25,5,4,francais,f,2,0.2,-52.17023247,1.44831705
5f56468ad62884044a782809,6,0,2024-02-24T09:06:41.543Z,french_264.wav,0,pull,941,25,5,4,francais,f,3,0.25666667,-37.31404804,1.66094276
5f56468ad62884044a782809,7,0,2024-02-24T09:06:41.543Z,french_682.wav,0,poule,820,25,5,4,francais,f,0,0.0,-16.33102186,0.79850708
5f56468ad62884044a782809,7,0,2024-02-24T09:06:41.543Z,french_682.wav,0,poule,820,25,5,4,francais,f,1,0.1,-49.72009429,1.31273679
5f56468ad62884044a782809,7,0,2024-02-24T09:06:41.543Z,french_682.wav,0,poule,820,25,5,4,francais,f,2,0.2,-23.39596266,1.51298147
5f56468ad62884044a782809,7,0,2024-02-24T09:06:41.543Z,french_682.wav,0,poule,820,25,5,4,francais,f,3,0.25666667,-34.72439006,0.92861139
5f56468ad62884044a782809,8,0,2024-02-24T09:06:41.543Z,french_397.wav,0,poule,2678,25,5,4,francais,f,0,0.0,-13.81470081,1.26162917
5f56468ad62884044a782809,8,0,2024-02-24T09:06:41.543Z,french_397.wav,0,poule,2678,25,5,4,francais,f,1,0.1,50.38281738,1.19612478
5f56468ad62884044a782809,8,0,2024-02-24T09:06:41.543Z,french_397.wav,0,poule,2678,25,5,4,francais,f,2,0.2,50.22980228,1.02842354
5f56468ad62884044a782809,8,0,2024-02-24T09:06:41.543Z,french_397.wav,0,poule,2678,25,5,4,francais,f,3,0.25666667,-83.86271009,0.53389444
5f56468ad62884044a782809,9,0,2024-02-24T09:06:41.543Z,french_483.wav,0,pull,3526,25,5,4,francais,f,0,0.0,97.94153635,0.77689604
5f56468ad62884044a782809,9,0,2024-02-24T09:06:41.543Z,french_483.wav,0,pull,3526,25,5,4,francais,f,1,0.1,11.27160269,0.07842581
5f56468ad62884044a782809,9,0,2024-02-24T09:06:41.543Z,french_483.wav,0,pull,3526,25,5,4,francais,f,2,0.2,92.4188156,1.30147174
5f56468ad62884044a782809,9,0,2024-02-24T09:06:41.543Z,french_483.wav,0,pull,3526,25,5,4,francais,f,3,0.25666667,46.65552131,0.73281584
5f56468ad62884044a782809,10,0,2024-02-24T09:06:41.543Z,french_86.wav,0,poule,483,25,5,4,francais,f,0,0.0,-13.34839912,1.5394535
5f56468ad62884044a782809,10,0,2024-02-24T09:06:41.543Z,french_86.wav,0,poule,483,25,5,4,francais,f,1,0.1,-0.15074382,0.88064418
5f56468ad62884044a782809,10,0,2024-02-24T09:06:41.543Z,french_86.wav,0,poule,483,25,5,4,francais,f,2,0.2,25.45831569,1.66652907
5f56468ad62884044a782809,10,0,2024-02-24T09:06:41.543Z,french_86.wav,0,poule,483,25,5,4,francais,f,3,0.25666667,48.27326553,0.20293469
5f56468ad62884044a782809,11,0,2024-02-24T09:06:41.543Z,french_852.wav,0,poule,1663,25,5,4,francais,f,0,0.0,-21.25647341,1.59129412
5f56468ad62884044a782809,11,0,2024-02-24T09:06:41.543Z,french_852.wav,0,poule,1663,25,5,4,francais,f,1,0.1,44.09899268,0.90931534
5f56468ad62884044a782809,11,0,2024-02-24T09:06:41.543Z,french_852.wav,0,poule,1663,25,5,4,francais,f,2,0.2,-20.54343266,0.17046498
5f56468ad62884044a782809,11,0,2024-02-24T09:06:41.543Z,french_852.wav,0,poule,1663,25,5,4,francais,f,3,0.25666667,-73.6389021,0.95788578
5f56468ad62884044a782809,12,0,2024-02-24T09:06:41.543Z,french_975.wav,0,poule,995,25,5,4,francais,f,0,0.0,-26.92402708,1.54282139
5f56468ad62884044a782809,12,0,2024-02-24T09:06:41.543Z,french_975.wav,0,poule,995,25,5,4,francais,f,1,0.1,-12.18779535,0.57018571
5f56468ad62884044a782809,12,0,2024-02-24T09:06:41.543Z,french_975.wav,0,poule,995,25,5,4,francais,f,2,0.2,-49.74503626,1.72772198
5f56468ad62884044a782809,12,0,2024-02-24T09:06:41.543Z,french_975.wav,0,poule,995,25,5,4,francais,f,3,0.25666667,48.08434321,1.83415107
5f56468ad62884044a782809,13,0,2024-02-24T09:06:41.543Z,french_400.wav,0,poule,2627,25,5,4,francais,f,0,0.0,-93.78872851,1.79390568
5f56468ad62884044a782809,13,0,2024-02-24T09:06:41.543Z,french_400.wav,0,poule,2627,25,5,4,francais,f,1,0.1,52.09991665,0.45516445
5f56468ad62884044a782809,13,0,2024-02-24T09:06:41.543Z,french_400.wav,0,poule,2627,25,5,4,francais,f,2,0.2,99.5217597,0.71943881
5f56468ad62884044a782809,13,0,2024-02-24T09:06:41.543Z,french_400.wav,0,poule,2627,25,5,4,francais,f,3,0.25666667,34.2913143,0.66600511
5f56468ad62884044a782809,14,0,2024-02-24T09:06:41.543Z,french_591.wav,0,poule,3115,25,5,4,francais,f,0,0.0,2.66615607,1.05020949
5f56468ad62884044a782809,14,0,2024-02-24T09:06:41.543Z,french_591.wav,0,poule,3115,25,5,4,francais,f,1,0.1,-24.26502045,0.55521736
5f56468ad62884044a782809,14,0,2024-02-24T09:06:41.543Z,french_591.wav,0,poule,3115,25,5,4,francais,f,2,0.2,-31.81388833,0.20807215
5f56468ad62884044a782809,14,0,2024-02-24T09:06:41.543Z,french_591.wav,0,poule,3115,25,5,4,francais,f,3,0.25666667,34.70768216,1.08119284
5f56468ad62884044a782809,15,0,2024-02-24T09:06:41.543Z,french_726.wav,0,poule,1212,25,5,4,francais,f,0,0.0,24.00791096,1.57962765
5f56468ad62884044a782809,15,0,2024-02-24T09:06:41.543Z,french_726.wav,0,poule,1212,25,5,4,francais,f,1,0.1,-92.28715444,0.67026409
5f56468ad62884044a782809,15,0,2024-02-24T09:06:41.543Z,french_726.wav,0,poule,1212,25,5,4,francais,f,2,0.2,-14.16316682,0.1799528
5f56468ad62884044a782809,15,0,2024-02-24T09:06:41.543Z,french_726.wav,0,poule,1212,25,5,4,francais,f,3,0.25666667,30.70182153,1.72405897
5f56468ad62884044a782809,16,0,2024-02-24T09:06:41.543Z,french_636.wav,0,poule,1249,25,5,4,francais,f,0,0.0,79.1724471,0.8082817
5f56468ad62884044a782809,16,0,2024-02-24T09:06:41.543Z,french_636.wav,0,poule,1249,25,5,4,francais,f,1,0.1,25.25700376,1.50975093
5f56468ad62884044a782809,16,0,2024-02-24T09:06:41.543Z,french_636.wav,0,poule,1249,25,5,4,francais,f,2,0.2,72.37529148,0.99206968
5f56468ad62884044a782809,16,0,2024-02-24T09:06:41.543Z,french_636.wav,0,poule,1249,25,5,4,francais,f,3,0.25666667,12.21946345,0.17038819
5f56468ad62884044a782809,17,0,2024-02-24T09:06:41.543Z,french_56.wav,0,pull,949,25,5,4,francais,f,0,0.0,-45.81384366,0.89556329
5f56468ad62884044a782809,17,0,2024-02-24T09:06:41.543Z,french_56.wav,0,pull,949,25,5,4,francais,f,1,0.1,-31.22745768,1.16444889
5f56468ad62884044a782809,17,0,2024-02-24T09:06:41.543Z,french_56.wav,0,pull,949,25,5,4,francais,f,2,0.2,7.07301694,0.03247946
5f56468ad62884044a782809,17,0,2024-02-24T09:06:41.543Z,french_56.wav,0,pull,949,25,5,4,francais,f,3,0.25666667,85.51747291,0.10908846
5f56468ad62884044a782809,18,0,2024-02-24T09:06:41.543Z,french_299.wav,0,poule,1290,25,5,4,francais,f,0,0.0,12.52470623,1.64482663
5f56468ad62884044a782809,18,0,2024-02-24T09:06:41.543Z,french_299.wav,0,poule,1290,25,5,4,francais,f,1,0.1,-97.26544336,1.84069115
5f56468ad62884044a782809,18,0,2024-02-24T09:06:41.543Z,french_299.wav,0,poule,1290,25,5,4,francais,f,2,0.2,-80.62903972,0.25110426
5f56468ad62884044a782809,18,0,2024-02-24T09:06:41.543Z,french_299.wav,0,poule,1290,25,5,4,francais,f,3,0.25666667,73.47257664,1.45765737
5f56468ad62884044a782809,19,0,2024-02-24T09:06:41.543Z,french_550.wav,0,poule,1206,25,5,4,francais,f,0,0.0,-75.40042164,1.22660115
5f56468ad62884044a782809,19,0,2024-02-24T09:06:41.543Z,french_550.wav,0,poule,1206,25,5,4,francais,f,1,0.1,3.66999977,1.1302768
5f56468ad62884044a782809,19,0,2024-02-24T09:06:41.543Z,french_550.wav,0,poule,1206,25,5,4,francais,f,2,0.2,-80.45508953,0.71194131
5f56468ad62884044a782809,19,0,2024-02-24T09:06:41.543Z,french_550.wav,0,poule,1206,25,5,4,francais,f,3,0.25666667,-81.93938104,1.14992067
5f56468ad62884044a782809,20,0,2024-02-24T09:06:41.543Z,french_62.wav,0,pull,1251,25,5,4,francais,f,0,0.0,-14.31975686,0.1654928
5f56468ad62884044a782809,20,0,2024-02-24T09:06:41.543Z,french_62.wav,0,pull,1251,25,5,4,francais,f,1,0.1,44.56193131,0.95189119
5f56468ad62884044a782809,20,0,2024-02-24T09:06:41.543Z,french_62.wav,0,pull,1251,25,5,4,francais,f,2,0.2,-86.7672378,0.13775192
5f56468ad62884044a782809,20,0,2024-02-24T09:06:41.543Z,french_62.wav,0,pull,1251,25,5,4,francais,f,3,0.25666667,88.73328565,1.69441392
5f56468ad62884044a782809,21,0,2024-02-24T09:06:41.543Z,french_61.wav,0,poule,623,25,5,4,francais,f,0,0.0,65.32887924,1.15653785
5f56468ad62884044a782809,21,0,2024-02-24T09:06:41.543Z,french_61.wav,0,poule,623,25,5,4,francais,f,1,0.1,45.09641809,1.72373813
5f56468ad62884044a782809,21,0,2024-02-24T09:06:41.543Z,french_61.wav,0,poule,623,25,5,4,francais,f,2,0.2,-37.75339878,1.38726196
5f56468ad62884044a782809,21,0,2024-02-24T09:06:41.543Z,french_61.wav,0,poule,623,25,5,4,francais,f,3,0.25666667,87.5089899,0.41594812
5f56468ad62884044a782809,22,0,2024-02-24T09:06:41.543Z,french_577.wav,0,pull,1223,25,5,4,francais,f,0,0.0,-34.34323574,0.85646341
5f56468ad62884044a782809,22,0,2024-02-24T09:06:41.543Z,french_577.wav,0,pull,1223,25,5,4,francais,f,1,0.1,42.3591335,0.14355807
5f56468ad62884044a782809,22,0,2024-02-24T09:06:41.543Z,french_577.wav,0,pull,1223,25,5,4,francais,f,2,0.2,-17.66243752,0.33082023
5f56468ad62884044a782809,22,0,2024-02-24T09:06:41.543Z,french_577.wav,0,pull,1223,25,5,4,francais,f,3,0.25666667,-25.14969583,0.85136365
5f56468ad62884044a782809,23,0,2024-02-24T09:06:41.543Z,french_524.wav,0,poule,1322,25,5,4,francais,f,0,0.0,29.26114001,1.50805134
5f56468ad62884044a782809,23,0,2024-02-24T09:06:41.543Z,french_524.wav,0,poule,1322,25,5,4,francais,f,1,0.1,51.10918927,1.00551207
5f56468ad62884044a782809,23,0,2024-02-24T09:06:41.543Z,french_524.wav,0,poule,1322,25,5,4,francais,f,2,0.2,-43.7486939,1.81734516
5f56468ad62884044a782809,23,0,2024-02-24T09:06:41.543Z,french_524.wav,0,poule,1322,25,5,4,francais,f,3,0.25666667,-29.29338592,0.93830148
5f56468ad62884044a782809,24,0,2024-02-24T09:06:41.543Z,french_585.wav,0,poule,771,25,5,4,francais,f,0,0.0,55.40756654,1.79357949
5f56468ad62884044a782809,24,0,2024-02-24T09:06:41.543Z,french_585.wav,0,poule,771,25,5,4,francais,f,1,0.1,-99.68924549,1.94389706
5f56468ad62884044a782809,24,0,2024-02-24T09:06:41.543Z,french_585.wav,0,poule,771,25,5,4,francais,f,2,0.2,-52.13930441,0.70685753
5f56468ad62884044a782809,24,0,2024-02-24T09:06:41.543Z,french_585.wav,0,poule,771,25,5,4,francais,f,3,0.25666667,-49.42840454,0.08344351
5f56468ad62884044a782809,25,0,2024-02-24T09:06:41.543Z,french_312.wav,0,poule,727,25,5,4,francais,f,0,0.0,-19.98952993,1.92157149
5f56468ad62884044a782809,25,0,2024-02-24T09:06:41.543Z,french_312.wav,0,poule,727,25,5,4,francais,f,1,0.1,50.70617954,0.53263035
5f56468ad62884044a782809,25,0,2024-02-24T09:06:41.543Z,french_312.wav,0,poule,727,25,5,4,francais,f,2,0.2,80.27383631,1.8452111
5f56468ad62884044a782809,25,0,2024-02-24T09:06:41.543Z,french_312.wav,0,poule,727,25,5,4,francais,f,3,0.25666667,31.55502425,1.73122835
5f56468ad62884044a782809,26,0,2024-02-24T09:06:41.543Z,french_17.wav,0,pull,1701,25,5,4,francais,f,0,0.0,61.86852427,1.05769551
5f56468ad62884044a782809,26,0,2024-02-24T09:06:41.543Z,french_17.wav,0,pull,1701,25,5,4,francais,f,1,0.1,14.81642836,0.81667418
5f56468ad62884044a782809,26,0,2024-02-24T09:06:41.543Z,french_17.wav,0,pull,1701,25,5,4,francais,f,2,0.2,-8.48865215,0.51249479
5f56468ad62884044a782809,26,0,2024-02-24T09:06:41.543Z,french_17.wav,0,pull,1701,25,5,4,francais,f,3,0.25666667,71.68336874,0.29939213
5f56468ad62884044a782809,27,0,2024-02-24T09:06:41.543Z,french_392.wav,0,poule,2318,25,5,4,francais,f,0,0.0,-11.14407327,1.55151156
5f56468ad62884044a782809,27,0,2024-02-24T09:06:41.543Z,french_392.wav,0,poule,2318,25,5,4,francais,f,1,0.1,-20.38505303,0.49285085
5f56468ad62884044a782809,27,0,2024-02-24T09:06:41.543Z,french_392.wav,0,poule,2318,25,5,4,francais,f,2,0.2,21.27154916,0.56092788
5f56468ad62884044a782809,27,0,2024-02-24T09:06:41.543Z,french_392.wav,0,poule,2318,25,5,4,francais,f,3,0.25666667,-29.54267832,1.54424804
5f56468ad62884044a782809,28,0,2024-02-24T09:06:41.543Z,french_991.wav,0,poule,1084,25,5,4,francais,f,0,0.0,-95.18678644,1.24715664
5f56468ad62884044a782809,28,0,2024-02-24T09:06:41.543Z,french_991.wav,0,poule,1084,25,5,4,francais,f,1,0.1,-65.70936013,0.64410058
5f56468ad62884044a782809,28,0,2024-02-24T09:06:41.543Z,french_991.wav,0,poule,1084,25,5,4,francais,f,2,0.2,44.22545462,0.83152977
5f56468ad62884044a782809,28,0,2024-02-24T09:06:41.543Z,french_991.wav,0,poule,1084,25,5,4,francais,f,3,0.25666667,31.01090832,1.93309413
5f56468ad62884044a782809,29,0,2024-02-24T09:06:41.543Z,french_751.wav,0,poule,1311,25,5,4,francais,f,0,0.0,43.14158788,0.5897858
5f56468ad62884044a782809,29,0,2024-02-24T09:06:41.543Z,french_751.wav,0,poule,1311,25,5,4,francais,f,1,0.1,18.43858874,0.77618244
5f56468ad62884044a782809,29,0,2024-02-24T09:06:41.543Z,french_751.wav,0,poule,1311,25,5,4,francais,f,2,0.2,79.49995567,1.33641446
5f56468ad62884044a782809,29,0,2024-02-24T09:06:41.543Z,french_751.wav,0,poule,1311,25,5,4,francais,f,3,0.25666667,54.04463095,0.80537668
5f56468ad62884044a782809,30,0,2024-02-24T09:06:41.543Z,french_980.wav,0,poule,692,25,5,4,francais,f,0,0.0,-38.7537279,0.7061587
5f56468ad62884044a782809,30,0,2024-02-24T09:06:41.543Z,french_980.wav,0,poule,692,25,5,4,francais,f,1,0.1,12.31277697,1.27161124
5f56468ad62884044a782809,30,0,2024-02-24T09:06:41.543Z,french_980.wav,0,poule,692,25,5,4,francais,f,2,0.2,6.50697833,0.8921187
5f56468ad62884044a782809,30,0,2024-02-24T09:06:41.543Z,french_980.wav,0,poule,692,25,5,4,francais,f,3,0.25666667,-34.92912415,1.97802528
5f56468ad62884044a782809,31,0,2024-02-24T09:06:41.543Z,french_750.wav,0,pull,1170,25,5,4,francais,f,0,0.0,36.16157767,1.69010054
5f56468ad62884044a782809,31,0,2024-02-24T09:06:41.543Z,french_750.wav,0,pull,1170,25,5,4,francais,f,1,0.1,-94.09249833,0.7877665
5f56468ad62884044a782809,31,0,2024-02-24T09:06:41.543Z,french_750.wav,0,pull,1170,25,5,4,francais,f,2,0.2,97.07405484,0.99353813
5f56468ad62884044a782809,31,0,2024-02-24T09:06:41.543Z,french_750.wav,0,pull,1170,25,5,4,francais,f,3,0.25666667,-8.28043626,0.64245914
5f56468ad62884044a782809,32,0,2024-02-24T09:06:41.543Z,french_885.wav,0,poule,862,25,5,4,francais,f,0,0.0,33.82264354,0.94046277
5f56468ad62884044a782809,32,0,2024-02-24T09:06:41.543Z,french_885.wav,0,poule,862,25,5,4,francais,f,1,0.1,-17.07734064,0.79714646
5f56468ad62884044a782809,32,0,2024-02-24T09:06:41.543Z,french_885.wav,0,poule,862,25,5,4,francais,f,2,0.2,-15.93967404,1.26873891
5f56468ad62884044a782809,32,0,2024-02-24T09:06:41.543Z,french_885.wav,0,poule,862,25,5,4,francais,f,3,0.25666667,58.67746901,1.69592015
5f56468ad62884044a782809,33,0,2024-02-24T09:06:41.543Z,french_768.wav,0,poule,1373,25,5,4,francais,f,0,0.0,43.80393873,0.16736189
5f56468ad62884044a782809,33,0,2024-02-24T09:06:41.543Z,french_768.wav,0,poule,1373,25,5,4,francais,f,1,0.1,23.97019037,0.82539527
5f56468ad62884044a782809,33,0,2024-02-24T09:06:41.543Z,french_768.wav,0,poule,1373,25,5,4,francais,f,2,0.2,96.73627246,1.26581733
5f56468ad62884044a782809,33,0,2024-02-24T09:06:41.543Z,french_768.wav,0,poule,1373,25,5,4,francais,f,3,0.25666667,86.69297093,1.40091334
5f56468ad62884044a782809,34,0,2024-02-24T09:06:41.543Z,french_223.wav,0,pull,1460,25,5,4,francais,f,0,0.0,4.95143367,1.93703508
5f56468ad62884044a782809,34,0,2024-02-24T09:06:41.543Z,french_223.wav,0,pull,1460,25,5,4,francais,f,1,0.1,55.42619629,0.30698411
5f56468ad62884044a782809,34,0,2024-02-24T09:06:41.543Z,french_223.wav,0,pull,1460,25,5,4,francais,f,2,0.2,77.82995017,0.10644958
5f56468ad62884044a782809,34,0,2024-02-24T09:06:41.543Z,french_223.wav,0,pull,1460,25,5,4,francais,f,3,0.25666667,-85.84724551,0.25911965
5f56468ad62884044a782809,35,0,2024-02-24T09:06:41.543Z,french_723.wav,0,poule,703,25,5,4,francais,f,0,0.0,-46.61221312,0.88342187
5f56468ad62884044a782809,35,0,2024-02-24T09:06:41.543Z,french_723.wav,0,poule,703,25,5,4,francais,f,1,0.1,-11.45492587,0.45371046
5f56468ad62884044a782809,35,0,2024-02-24T09:06:41.543Z,french_723.wav,0,poule,703,25,5,4,francais,f,2,0.2,-2.50722763,1.8565603
5f56468ad62884044a782809,35,0,2024-02-24T09:06:41.543Z,french_723.wav,0,poule,703,25,5,4,francais,f,3,0.25666667,-31.56133571,0.74236501
5f56468ad62884044a782809,36,0,2024-02-24T09:06:41.543Z,french_836.wav,0,poule,942,25,5,4,francais,f,0,0.0,40.23641464,0.42377088
5f56468ad62884044a782809,36,0,2024-02-24T09:06:41.543Z,french_836.wav,0,poule,942,25,5,4,francais,f,1,0.1,53.79535187,0.63943013
5f56468ad62884044a782809,36,0,2024-02-24T09:06:41.543Z,french_836.wav,0,poule,942,25,5,4,francais,f,2,0.2,-4.0789246,1.19242466
5f56468ad62884044a782809,36,0,2024-02-24T09:06:41.543Z,french_836.wav,0,poule,942,25,5,4,francais,f,3,0.25666667,3.8536211,1.488673
5f56468ad62884044a782809,37,0,2024-02-24T09:06:41.543Z,french_253.wav,0,poule,969,25,5,4,francais,f,0,0.0,46.57034738,1.71066879
5f56468ad62884044a782809,37,0,2024-02-24T09:06:41.543Z,french_253.wav,0,poule,969,25,5,4,francais,f,1,0.1,95.71705704,0.77231307
5f56468ad62884044a782809,37,0,2024-02-24T09:06:41.543Z,french_253.wav,0,poule,969,25,5,4,francais,f,2,0.2,-25.2299753,0.81370988
5f56468ad62884044a782809,37,0,2024-02-24T09:06:41.543Z,french_253.wav,0,poule,969,25,5,4,francais,f,3,0.25666667,-10.51050389,1.71668189
5f56468ad62884044a782809,38,0,2024-02-24T09:06:41.543Z,french_946.wav,0,pull,2156,25,5,4,francais,f,0,0.0,-59.20376503,1.07432488
5f56468ad62884044a782809,38,0,2024-02-24T09:06:41.543Z,french_946.wav,0,pull,2156,25,5,4,francais,f,1,0.1,41.31347152,0.26624757
5f56468ad62884044a782809,38,0,2024-02-24T09:06:41.543Z,french_946.wav,0,pull,2156,25,5,4,francais,f,2,0.2,-58.18080138,0.53636085
5f56468ad62884044a782809,38,0,2024-02-24T09:06:41.543Z,french_946.wav,0,pull,2156,25,5,4,francais,f,3,0.25666667,-28.00273528,1.77786979
5f56468ad62884044a782809,39,0,2024-02-24T09:06:41.543Z,french_708.wav,0,poule,1344,25,5,4,francais,f,0,0.0,77.88438146,0.30850898
5f56468ad62884044a782809,39,0,2024-02-24T09:06:41.543Z,french_708.wav,0,poule,1344,25,5,4,francais,f,1,0.1,-89.66132416,1.49064351
5f56468ad62884044a782809,39,0,2024-02-24T09:06:41.543Z,french_708.wav,0,poule,1344,25,5,4,francais,f,2,0.2,66.08375885,1.28629193
5f56468ad62884044a782809,39,0,2024-02-24T09:06:41.543Z,french_708.wav,0,poule,1344,25,5,4,francais,f,3,0.25666667,-39.93161414,1.01533724
5f56468ad62884044a782809,40,0,2024-02-24T09:06:41.543Z,french_741.wav,0,poule,717,25,5,4,francais,f,0,0.0,52.99239945,1.20115282
5f56468ad62884044a782809,40,0,2024-02-24T09:06:41.543Z,french_741.wav,0,poule,717,25,5,4,francais,f,1,0.1,-62.37721768,0.53106937
5f56468ad62884044a782809,40,0,2024-02-24T09:06:41.543Z,french_741.wav,0,poule,717,25,5,4,francais,f,2,0.2,54.26195155,1.91925029
5f56468ad62884044a782809,40,0,2024-02-24T09:06:41.543Z,french_741.wav,0,poule,717,25,5,4,francais,f,3,0.25666667,8.23350592,0.42380295
5f56468ad62884044a782809,41,0,2024-02-24T09:06:41.543Z,french_780.wav,0,poule,1057,25,5,4,francais,f,0,0.0,-26.4428256,1.10618342
5f56468ad62884044a782809,41,0,2024-02-24T09:06:41.543Z,french_780.wav,0,poule,1057,25,5,4,francais,f,1,0.1,71.38381251,1.00150251
5f56468ad62884044a782809,41,0,2024-02-24T09:06:41.543Z,french_780.wav,0,poule,1057,25,5,4,francais,f,2,0.2,23.58434052,0.69699056
5f56468ad62884044a782809,41,0,2024-02-24T09:06:41.543Z,french_780.wav,0,poule,1057,25,5,4,francais,f,3,0.25666667,-77.81567576,1.24957366
5f56468ad62884044a782809,42,0,2024-02-24T09:06:41.543Z,french_619.wav,0,pull,1312,25,5,4,francais,f,0,0.0,-58.15289928,0.63115023
5f56468ad62884044a782809,42,0,2024-02-24T09:06:41.543Z,french_619.wav,0,pull,1312,25,5,4,francais,f,1,0.1,30.86987971,0.12868397
5f56468ad62884044a782809,42,0,2024-02-24T09:06:41.543Z,french_619.wav,0,pull,1312,25,5,4,francais,f,2,0.2,96.84221096,0.73139592
5f56468ad62884044a782809,42,0,2024-02-24T09:06:41.543Z,french_619.wav,0,pull,1312,25,5,4,francais,f,3,0.25666667,69.41225319,1.17738103
5f56468ad62884044a782809,43,0,2024-02-24T09:06:41.543Z,french_428.wav,0,poule,565,25,5,4,francais,f,0,0.0,32.54087273,1.95600578
5f56468ad62884044a782809,43,0,2024-02-24T09:06:41.543Z,french_428.wav,0,poule,565,25,5,4,francais,f,1,0.1,-45.07567034,1.3753822
5f56468ad62884044a782809,43,0,2024-02-24T09:06:41.543Z,french_428.wav,0,poule,565,25,5,4,francais,f,2,0.2,23.18683175,0.5862849
5f56468ad62884044a782809,43,0,2024-02-24T09:06:41.543Z,french_428.wav,0,poule,565,25,5,4,francais,f,3,0.25666667,-58.08389968,0.11110367
5f56468ad62884044a782809,44,0,2024-02-24T09:06:41.543Z,french_944.wav,0,poule,2108,25,5,4,francais,f,0,0.0,-8.30121602,1.41077405
5f56468ad62884044a782809,44,0,2024-02-24T09:06:41.543Z,french_944.wav,0,poule,2108,25,5,4,francais,f,1,0.1,15.19990023,0.52690475
5f56468ad62884044a782809,44,0,2024-02-24T09:06:41.543Z,french_944.wav,0,poule,2108,25,5,4,francais,f,2,0.2,-34.54061483,0.23733031
5f56468ad62884044a782809,44,0,2024-02-24T09:06:41.543Z,french_944.wav,0,poule,2108,25,5,4,francais,f,3,0.25666667,-24.04483863,1.49354387
5f56468ad62884044a782809,45,0,2024-02-24T09:06:41.543Z,french_920.wav,0,poule,1093,25,5,4,francais,f,0,0.0,98.83591172,0.7646584
5f56468ad62884044a782809,45,0,2024-02-24T09:06:41.543Z,french_920.wav,0,poule,1093,25,5,4,francais,f,1,0.1,-64.95643085,1.02879579
5f56468ad62884044a782809,45,0,2024-02-24T09:06:41.543Z,french_920.wav,0,poule,1093,25,5,4,francais,f,2,0.2,1.57326281,1.0684491
5f56468ad62884044a782809,45,0,2024-02-24T09:06:41.543Z,french_920.wav,0,poule,1093,25,5,4,francais,f,3,0.25666667,-25.63648329,0.89198175
5f56468ad62884044a782809,46,0,2024-02-24T09:06:41.543Z,french_241.wav,0,pull,686,25,5,4,francais,f,0,0.0,89.40240056,1.53101086
5f56468ad62884044a782809,46,0,2024-02-24T09:06:41.543Z,french_241.wav,0,pull,686,25,5,4,francais,f,1,0.1,40.19017079,0.22293869
5f56468ad62884044a782809,46,0,2024-02-24T09:06:41.543Z,french_241.wav,0,pull,686,25,5,4,francais,f,2,0.2,6.95264839,0.66477428
5f56468ad62884044a782809,46,0,2024-02-24T09:06:41.543Z,french_241.wav,0,pull,686,25,5,4,francais,f,3,0.25666667,60.0147698,1.1640228
5f56468ad62884044a782809,47,0,2024-02-24T09:06:41.543Z,french_113.wav,0,poule,514,25,5,4,francais,f,0,0.0,0.51528889,0.39555504
5f56468ad62884044a782809,47,0,2024-02-24T09:06:41.543Z,french_113.wav,0,poule,514,25,5,4,francais,f,1,0.1,31.38938416,1.50115078
5f56468ad62884044a782809,47,0,2024-02-24T09:06:41.543Z,french_113.wav,0,poule,514,25,5,4,francais,f,2,0.2,-56.71204584,1.00732686
5f56468ad62884044a782809,47,0,2024-02-24T09:06:41.543Z,french_113.wav,0,poule,514,25,5,4,francais,f,3,0.25666667,95.05763822,0.59062761
5f56468ad62884044a782809,48,0,2024-02-24T09:06:41.543Z,french_185.wav,0,poule,555,25,5,4,francais,f,0,0.0,61.04894301,1.56575395
5f56468ad62884044a782809,48,0,2024-02-24T09:06:41.543Z,french_185.wav,0,poule,555,25,5,4,francais,f,1,0.1,4.55457692,1.97883698
5f56468ad62884044a782809,48,0,2024-02-24T09:06:41.543Z,french_185.wav,0,poule,555,25,5,4,francais,f,2,0.2,51.77529612,1.92093932
5f56468ad62884044a782809,48,0,2024-02-24T09:06:41.543Z,french_185.wav,0,poule,555,25,5,4,francais,f,3,0.25666667,-22.06501589,0.68389876
5f56468ad62884044a782809,49,0,2024-02-24T09:06:41.543Z,french_469.wav,0,pull,754,25,5,4,francais,f,0,0.0,66.71351684,0.70736983
5f56468ad62884044a782809,49,0,2024-02-24T09:06:41.543Z,french_469.wav,0,pull,754,25,5,4,francais,f,1,0.1,-62.03219977,0.37939516
5f56468ad62884044a782809,49,0,2024-02-24T09:06:41.543Z,french_469.wav,0,pull,754,25,5,4,francais,f,2,0.2,3.50074433,0.65236
5f56468ad62884044a782809,49,0,2024-02-24T09:06:41.543Z,french_469.wav,0,pull,754,25,5,4,francais,f,3,0.25666667,58.03584826,0.94960182
5f56468ad62884044a782809,50,1,2024-02-24T09:06:41.543Z,french_319.wav,0,poule,581,25,5,4,francais,f,0,0.0,63.69489547,0.79356863
5f56468ad62884044a782809,50,1,2024-02-24T09:06:41.543Z,french_319.wav,0,poule,581,25,5,4,francais,f,1,0.1,60.76449486,1.37507237
5f56468ad62884044a782809,50,1,2024-02-24T09:06:41.543Z,french_319.wav,0,poule,581,25,5,4,francais,f,2,0.2,-58.82123998,1.06369674
5f56468ad62884044a782809,50,1,2024-02-24T09:06:41.543Z,french_319.wav,0,poule,581,25,5,4,francais,f,3,0.25666667,43.46614377,1.64660946
5f56468ad62884044a782809,51,1,2024-02-24T09:06:41.543Z,french_372.wav,0,poule,363,25,5,4,francais,f,0,0.0,2.47243072,0.40204166
5f56468ad62884044a782809,51,1,2024-02-24T09:06:41.543Z,french_372.wav,0,poule,363,25,5,4,francais,f,1,0.1,-60.42501292,1.5432551
5f56468ad62884044a782809,51,1,2024-02-24T09:06:41.543Z,french_372.wav,0,poule,363,25,5,4,francais,f,2,0.2,-16.68820648,1.17639585
5f56468ad62884044a782809,51,1,2024-02-24T09:06:41.543Z,french_372.wav,0,poule,363,25,5,4,francais,f,3,0.25666667,27.86473169,1.5977063
5f56468ad62884044a782809,52,1,2024-02-24T09:06:41.543Z,french_414.wav,0,poule,370,25,5,4,francais,f,0,0.0,-53.65137821,1.15122316
5f56468ad62884044a782809,52,1,2024-02-24T09:06:41.543Z,french_414.wav,0,poule,370,25,5,4,francais,f,1,0.1,61.14227183,1.54420741
5f56468ad62884044a782809,52,1,2024-02-24T09:06:41.543Z,french_414.wav,0,poule,370,25,5,4,francais,f,2,0.2,-13.28017505,1.48861563
5f56468ad62884044a782809,52,1,2024-02-24T09:06:41.543Z,french_414.wav,0,poule,370,25,5,4,francais,f,3,0.25666667,99.20914295,0.34805763
5f56468ad62884044a782809,53,1,2024-02-24T09:06:41.543Z,french_165.wav,0,poule,235,25,5,4,francais,f,0,0.0,34.81781775,0.27086967
5f56468ad62884044a782809,53,1,2024-02-24T09:06:41.543Z,french_165.wav,0,poule,235,25,5,4,francais,f,1,0.1,-0.63630456,1.42196963
5f56468ad62884044a782809,53,1,2024-02-24T09:06:41.543Z,french_165.wav,0,poule,235,25,5,4,francais,f,2,0.2,85.92593744,1.99513726
5f56468ad62884044a782809,53,1,2024-02-24T09:06:41.543Z,french_165.wav,0,poule,235,25,5,4,francais,f,3,0.25666667,7.56589877,0.37439059
5f56468ad62884044a782809,54,1,2024-02-24T09:06:41.543Z,french_199.wav,0,poule,324,25,5,4,francais,f,0,0.0,-60.03977098,1.87963745
5f56468ad62884044a782809,54,1,2024-02-24T09:06:41.543Z,french_199.wav,0,poule,324,25,5,4,francais,f,1,0.1,7.3213083,1.19076365
5f56468ad62884044a782809,54,1,2024-02-24T09:06:41.543Z,french_199.wav,0,poule,324,25,5,4,francais,f,2,0.2,-32.97621994,1.00205813
5f56468ad62884044a782809,54,1,2024-02-24T09:06:41.543Z,french_199.wav,0,poule,324,25,5,4,francais,f,3,0.25666667,90.87482197,1.05600478
5f56468ad62884044a782809,55,1,2024-02-24T09:06:41.543Z,french_666.wav,0,poule,1457,25,5,4,francais,f,0,0.0,51.58977068,0.51416215
5f56468ad62884044a782809,55,1,2024-02-24T09:06:41.543Z,french_666.wav,0,poule,1457,25,5,4,francais,f,1,0.1,81.806625,0.1213722
5f56468ad62884044a782809,55,1,2024-02-24T09:06:41.543Z,french_666.wav,0,poule,1457,25,5,4,francais,f,2,0.2,10.32462757,1.14435945
5f56468ad62884044a782809,55,1,2024-02-24T09:06:41.543Z,french_666.wav,0,poule,1457,25,5,4,francais,f,3,0.25666667,-51.25764779,1.68381456
5f56468ad62884044a782809,56,1,2024-02-24T09:06:41.543Z,french_391.wav,0,poule,456,25,5,4,francais,f,0,0.0,-76.68975493,1.01472424
5f56468ad62884044a782809,56,1,2024-02-24T09:06:41.543Z,french_391.wav,0,poule,456,25,5,4,francais,f,1,0.1,-61.92507962,1.84772624
5f56468ad62884044a782809,56,1,2024-02-24T09:06:41.543Z,french_391.wav,0,poule,456,25,5,4,francais,f,2,0.2,-59.03609545,1.36374408
5f56468ad62884044a782809,56,1,2024-02-24T09:06:41.543Z,french_391.wav,0,poule,456,25,5,4,francais,f,3,0.25666667,88.69049446,1.21538153
5f56468ad62884044a782809,57,1,2024-02-24T09:06:41.543Z,french_87.wav,0,poule,1697,25,5,4,francais,f,0,0.0,57.46562038,1.84924107
5f56468ad62884044a782809,57,1,2024-02-24T09:06:41.543Z,french_87.wav,0,poule,1697,25,5,4,francais,f,1,0.1,64.37451918,1.35752119
5f56468ad62884044a782809,57,1,2024-02-24T09:06:41.543Z,french_87.wav,0,poule,1697,25,5,4,francais,f,2,0.2,34.82822911,1.55092153
5f56468ad62884044a782809,57,1,2024-02-24T09:06:41.543Z,french_87.wav,0,poule,1697,25,5,4,francais,f,3,0.25666667,-44.22171713,0.2478561
5f56468ad62884044a782809,58,1,2024-02-24T09:06:41.543Z,french_887.wav,0,poule,392,25,5,4,francais,f,0,0.0,68.65167503,1.16380924
5f56468ad62884044a782809,58,1,2024-02-24T09:06:41.543Z,french_887.wav,0,poule,392,25,5,4,francais,f,1,0.1,-55.72044546,1.74073633
5f56468ad62884044a782809,58,1,2024-02-24T09:06:41.543Z,french_887.wav,0,poule,392,25,5,4,francais,f,2,0.2,-97.59121662,1.00138394
5f56468ad62884044a782809,58,1,2024-02-24T09:06:41.543Z,french_887.wav,0,poule,392,25,5,4,francais,f,3,0.25666667,-40.12897823,1.21780512
5f56468ad62884044a782809,59,1,2024-02-24T09:06:41.543Z,french_959.wav,0,poule,770,25,5,4,francais,f,0,0.0,-92.66274659,1.46575448
5f56468ad62884044a782809,59,1,2024-02-24T09:06:41.543Z,french_959.wav,0,poule,770,25,5,4,francais,f,1,0.1,10.27191584,1.6425047
5f56468ad62884044a782809,59,1,2024-02-24T09:06:41.543Z,french_959.wav,0,poule,770,25,5,4,francais,f,2,0.2,-51.62824615,0.28117244
5f56468ad62884044a782809,59,1,2024-02-24T09:06:41.543Z,french_959.wav,0,poule,770,25,5,4,francais,f,3,0.25666667,-30.4370249,1.68634793
5f56468ad62884044a782809,60,1,2024-02-24T09:06:41.543Z,french_979.wav,0,poule,1023,25,5,4,francais,f,0,0.0,58.05333973,1.60321768
5f56468ad62884044a782809,60,1,2024-02-24T09:06:41.543Z,french_979.wav,0,poule,1023,25,5,4,francais,f,1,0.1,-10.78982684,0.5155038
5f56468ad62884044a782809,60,1,2024-02-24T09:06:41.543Z,french_979.wav,0,poule,1023,25,5,4,francais,f,2,0.2,-1.76147191,0.80270828
5f56468ad62884044a782809,60,1,2024-02-24T09:06:41.543Z,french_979.wav,0,poule,1023,25,5,4,francais,f,3,0.25666667,35.54131035,0.30870089
5f56468ad62884044a782809,61,1,2024-02-24T09:06:41.543Z,french_637.wav,0,pull,3705,25,5,4,francais,f,0,0.0,35.81604326,0.01301393
5f56468ad62884044a782809,61,1,2024-02-24T09:06:41.543Z,french_637.wav,0,pull,3705,25,5,4,francais,f,1,0.1,-3.18432816,0.82513299
5f56468ad62884044a782809,61,1,2024-02-24T09:06:41.543Z,french_637.wav,0,pull,3705,25,5,4,francais,f,2,0.2,50.06715701,0.10233849
5f56468ad62884044a782809,61,1,2024-02-24T09:06:41.543Z,french_637.wav,0,pull,3705,25,5,4,francais,f,3,0.25666667,13.82838787,0.87921638
5f56468ad62884044a782809,62,1,2024-02-24T09:06:41.543Z,french_951.wav,0,poule,629,25,5,4,francais,f,0,0.0,-15.86004077,0.48185357
5f56468ad62884044a782809,62,1,2024-02-24T09:06:41.543Z,french_951.wav,0,poule,629,25,5,4,francais,f,1,0.1,60.12120799,0.27819881
5f56468ad62884044a782809,62,1,2024-02-24T09:06:41.543Z,french_951.wav,0,poule,629,25,5,4,francais,f,2,0.2,81.27761476,1.97659335
5f56468ad62884044a782809,62,1,2024-02-24T09:06:41.543Z,french_951.wav,0,poule,629,25,5,4,francais,f,3,0.25666667,61.27828768,1.07257799
5f56468ad62884044a782809,63,1,2024-02-24T09:06:41.543Z,french_530.wav,0,pull,1130,25,5,4,francais,f,0,0.0,-48.266975,0.22885815
5f56468ad62884044a782809,63,1,2024-02-24T09:06:41.543Z,french_530.wav,0,pull,1130,25,5,4,francais,f,1,0.1,10.53522492,0.99708564
5f56468ad62884044a782809,63,1,2024-02-24T09:06:41.543Z,french_530.wav,0,pull,1130,25,5,4,francais,f,2,0.2,-70.81391458,0.43471164
5f56468ad62884044a782809,63,1,2024-02-24T09:06:41.543Z,french_530.wav,0,pull,1130,25,5,4,francais,f,3,0.25666667,-13.69241617,0.61022423
5f56468ad62884044a782809,64,1,2024-02-24T09:06:41.543Z,french_148.wav,0,pull,2267,25,5,4,francais,f,0,0.0,-65.76338754,1.63378801
5f56468ad62884044a782809,64,1,2024-02-24T09:06:41.543Z,french_148.wav,0,pull,2267,25,5,4,francais,f,1,0.1,-45.02607009,0.19427674
5f56468ad62884044a782809,64,1,2024-02-24T09:06:41.543Z,french_148.wav,0,pull,2267,25,5,4,francais,f,2,0.2,-4.18875901,1.20463049
5f56468ad62884044a782809,64,1,2024-02-24T09:06:41.543Z,french_148.wav,0,pull,2267,25,5,4,francais,f,3,0.25666667,85.40607693,0.17184116
5f56468ad62884044a782809,65,1,2024-02-24T09:06:41.543Z,french_989.wav,0,poule,703,25,5,4,francais,f,0,0.0,9.12508282,1.4573698
5f56468ad62884044a782809,65,1,2024-02-24T09:06:41.543Z,french_989.wav,0,poule,703,25,5,4,francais,f,1,0.1,-26.45358769,0.87656303
5f56468ad62884044a782809,65,1,2024-02-24T09:06:41.543Z,french_989.wav,0,poule,703,25,5,4,francais,f,2,0.2,-51.08796106,0.58961018
5f56468ad62884044a782809,65,1,2024-02-24T09:06:41.543Z,french_989.wav,0,poule,703,25,5,4,francais,f,3,0.25666667,-22.70445117,1.46090447
5f56468ad62884044a782809,66,1,2024-02-24T09:06:41.543Z,french_731.wav,0,poule,1070,25,5,4,francais,f,0,0.0,52.82888701,1.42077684
5f56468ad62884044a782809,66,1,2024-02-24T09:06:41.543Z,french_731.wav,0,poule,1070,25,5,4,francais,f,1,0.1,44.66747194,0.2996776
5f56468ad62884044a782809,66,1,2024-02-24T09:06:41.543Z,french_731.wav,0,poule,1070,25,5,4,francais,f,2,0.2,83.54065351,1.21708869
5f56468ad62884044a782809,66,1,2024-02-24T09:06:41.543Z,french_731.wav,0,poule,1070,25,5,4,francais,f,3,0.25666667,-50.41579204,1.31490505
5f56468ad62884044a782809,67,1,2024-02-24T09:06:41.543Z,french_120.wav,0,pull,1375,25,5,4,francais,f,0,0.0,59.29212404,1.04724114
5f56468ad62884044a782809,67,1,2024-02-24T09:06:41.543Z,french_120.wav,0,pull,1375,25,5,4,francais,f,1,0.1,4.80411823,0.97380182
5f56468ad62884044a782809,67,1,2024-02-24T09:06:41.543Z,french_120.wav,0,pull,1375,25,5,4,francais,f,2,0.2,12.26509955,0.22521264
5f56468ad62884044a782809,67,1,2024-02-24T09:06:41.543Z,french_120.wav,0,pull,1375,25,5,4,francais,f,3,0.25666667,-79.44354783,0.8027629
5f56468ad62884044a782809,68,1,2024-02-24T09:06:41.543Z,french_65.wav,0,poule,1275,25,5,4,francais,f,0,0.0,-17.53877645,1.80859796
5f56468ad62884044a782809,68,1,2024-02-24T09:06:41.543Z,french_65.wav,0,poule,1275,25,5,4,francais,f,1,0.1,77.85789868,1.24255314
5f56468ad62884044a782809,68,1,2024-02-24T09:06:41.543Z,french_65.wav,0,poule,1275,25,5,4,francais,f,2,0.2,16.40180032,1.28894604
5f56468ad62884044a782809,68,1,2024-02-24T09:06:41.543Z,french_65.wav,0,poule,1275,25,5,4,francais,f,3,0.25666667,56.20856175,0.80043142
5f56468ad62884044a782809,69,1,2024-02-24T09:06:41.543Z,french_269.wav,0,pull,1470,25,5,4,francais,f,0,0.0,34.85044548,0.000617924031
5f56468ad62884044a782809,69,1,2024-02-24T09:06:41.543Z,french_269.wav,0,pull,1470,25,5,4,francais,f,1,0.1,47.51511781,1.05540646
5f56468ad62884044a782809,69,1,2024-02-24T09:06:41.543Z,french_269.wav,0,pull,1470,25,5,4,francais,f,2,0.2,34.15302515,0.984234213
5f56468ad62884044a782809,69,1,2024-02-24T09:06:41.543Z,french_269.wav,0,pull,1470,25,5,4,francais,f,3,0.25666667,-55.0259295,0.845106618
5f56468ad62884044a782809,70,1,2024-02-24T09:06:41.543Z,french_776.wav,0,poule,521,25,5,4,francais,f,0,0.0,-9.17095967,0.42962635
5f56468ad62884044a782809,70,1,2024-02-24T09:06:41.543Z,french_776.wav,0,poule,521,25,5,4,francais,f,1,0.1,-70.57850226,1.70698124
5f56468ad62884044a782809,70,1,2024-02-24T09:06:41.543Z,french_776.wav,0,poule,521,25,5,4,francais,f,2,0.2,63.21349252,1.25010697
5f56468ad62884044a782809,70,1,2024-02-24T09:06:41.543Z,french_776.wav,0,poule,521,25,5,4,francais,f,3,0.25666667,59.47578694,1.52671833
5f56468ad62884044a782809,71,1,2024-02-24T09:06:41.543Z,french_345.wav,0,poule,510,25,5,4,francais,f,0,0.0,-15.34440167,0.71900559
5f56468ad62884044a782809,71,1,2024-02-24T09:06:41.543Z,french_345.wav,0,poule,510,25,5,4,francais,f,1,0.1,10.78758757,1.22956467
5f56468ad62884044a782809,71,1,2024-02-24T09:06:41.543Z,french_345.wav,0,poule,510,25,5,4,francais,f,2,0.2,-99.05600522,1.71608101
5f56468ad62884044a782809,71,1,2024-02-24T09:06:41.543Z,french_345.wav,0,poule,510,25,5,4,francais,f,3,0.25666667,-6.99010662,1.92257683
5f56468ad62884044a782809,72,1,2024-02-24T09:06:41.543Z,french_518.wav,0,pull,1441,25,5,4,francais,f,0,0.0,30.08897808,1.28002377
5f56468ad62884044a782809,72,1,2024-02-24T09:06:41.543Z,french_518.wav,0,pull,1441,25,5,4,francais,f,1,0.1,-42.00678694,0.31881796
5f56468ad62884044a782809,72,1,2024-02-24T09:06:41.543Z,french_518.wav,0,pull,1441,25,5,4,francais,f,2,0.2,47.99304417,0.271149
5f56468ad62884044a782809,72,1,2024-02-24T09:06:41.543Z,french_518.wav,0,pull,1441,25,5,4,francais,f,3,0.25666667,-21.59585354,1.06182133
5f56468ad62884044a782809,73,1,2024-02-24T09:06:41.543Z,french_118.wav,0,poule,530,25,5,4,francais,f,0,0.0,26.93316006,1.47067426
5f56468ad62884044a782809,73,1,2024-02-24T09:06:41.543Z,french_118.wav,0,poule,530,25,5,4,francais,f,1,0.1,-22.92967869,1.58231537
5f56468ad62884044a782809,73,1,2024-02-24T09:06:41.543Z,french_118.wav,0,poule,530,25,5,4,francais,f,2,0.2,-61.93287208,1.01494319
5f56468ad62884044a782809,73,1,2024-02-24T09:06:41.543Z,french_118.wav,0,poule,530,25,5,4,francais,f,3,0.25666667,-97.08418949,0.71977579
5f56468ad62884044a782809,74,1,2024-02-24T09:06:41.543Z,french_864.wav,0,poule,387,25,5,4,francais,f,0,0.0,27.21382842,1.35032716
5f56468ad62884044a782809,74,1,2024-02-24T09:06:41.543Z,french_864.wav,0,poule,387,25,5,4,francais,f,1,0.1,-8.96687562,1.41041806
5f56468ad62884044a782809,74,1,2024-02-24T09:06:41.543Z,french_864.wav,0,poule,387,25,5,4,francais,f,2,0.2,47.01768167,0.47669103
5f56468ad62884044a782809,74,1,2024-02-24T09:06:41.543Z,french_864.wav,0,poule,387,25,5,4,francais,f,3,0.25666667,98.93956807,1.26265942
5f56468ad62884044a782809,75,1,2024-02-24T09:06:41.543Z,french_114.wav,0,poule,695,25,5,4,francais,f,0,0.0,36.61172137,1.1665973
5f56468ad62884044a782809,75,1,2024-02-24T09:06:41.543Z,french_114.wav,0,poule,695,25,5,4,francais,f,1,0.1,1.16528437,0.29978092
5f56468ad62884044a782809,75,1,2024-02-24T09:06:41.543Z,french_114.wav,0,poule,695,25,5,4,francais,f,2,0.2,91.5106094,1.30847922
5f56468ad62884044a782809,75,1,2024-02-24T09:06:41.543Z,french_114.wav,0,poule,695,25,5,4,francais,f,3,0.25666667,23.38458366,1.1533172
5f56468ad62884044a782809,76,1,2024-02-24T09:06:41.543Z,french_863.wav,0,poule,1689,25,5,4,francais,f,0,0.0,30.03534105,0.49205925
5f56468ad62884044a782809,76,1,2024-02-24T09:06:41.543Z,french_863.wav,0,poule,1689,25,5,4,francais,f,1,0.1,70.10019967,1.5612805
5f56468ad62884044a782809,76,1,2024-02-24T09:06:41.543Z,french_863.wav,0,poule,1689,25,5,4,francais,f,2,0.2,38.31171189,1.70745742
5f56468ad62884044a782809,76,1,2024-02-24T09:06:41.543Z,french_863.wav,0,poule,1689,25,5,4,francais,f,3,0.25666667,76.0150774,0.79908683
5f56468ad62884044a782809,77,1,2024-02-24T09:06:41.543Z,french_334.wav,0,poule,782,25,5,4,francais,f,0,0.0,40.44836216,0.13212964
5f56468ad62884044a782809,77,1,2024-02-24T09:06:41.543Z,french_334.wav,0,poule,782,25,5,4,francais,f,1,0.1,-67.56280837,0.74019732
5f56468ad62884044a782809,77,1,2024-02-24T09:06:41.543Z,french_334.wav,0,poule,782,25,5,4,francais,f,2,0.2,-28.73514643,0.72240648
5f56468ad62884044a782809,77,1,2024-02-24T09:06:41.543Z,french_334.wav,0,poule,782,25,5,4,francais,f,3,0.25666667,-49.63309354,0.47162208
5f56468ad62884044a782809,78,1,2024-02-24T09:06:41.543Z,french_606.wav,0,poule,521,25,5,4,francais,f,0,0.0,-20.93687271,1.9895698
5f56468ad62884044a782809,78,1,2024-02-24T09:06:41.543Z,french_606.wav,0,poule,521,25,5,4,francais,f,1,0.1,59.55385743,1.17728958
5f56468ad62884044a782809,78,1,2024-02-24T09:06:41.543Z,french_606.wav,0,poule,521,25,5,4,francais,f,2,0.2,61.58713619,1.48827242
5f56468ad62884044a782809,78,1,2024-02-24T09:06:41.543Z,french_606.wav,0,poule,521,25,5,4,francais,f,3,0.25666667,-92.8987734,0.79910733
5f56468ad62884044a782809,79,1,2024-02-24T09:06:41.543Z,french_608.wav,0,pull,926,25,5,4,francais,f,0,0.0,-21.93815625,0.80217517
5f56468ad62884044a782809,79,1,2024-02-24T09:06:41.543Z,french_608.wav,0,pull,926,25,5,4,francais,f,1,0.1,68.35071967,1.13802751
5f56468ad62884044a782809,79,1,2024-02-24T09:06:41.543Z,french_608.wav,0,pull,926,25,5,4,francais,f,2,0.2,-10.44332041,0.09203458
5f56468ad62884044a782809,79,1,2024-02-24T09:06:41.543Z,french_608.wav,0,pull,926,25,5,4,francais,f,3,0.25666667,-49.43801065,0.18129022
5f56468ad62884044a782809,80,1,2024-02-24T09:06:41.543Z,french_538.wav,0,pull,700,25,5,4,francais,f,0,0.0,-62.11881418,0.72316351
5f56468ad62884044a782809,80,1,2024-02-24T09:06:41.543Z,french_538.wav,0,pull,700,25,5,4,francais,f,1,0.1,-49.1326041,0.52652182
5f56468ad62884044a782809,80,1,2024-02-24T09:06:41.543Z,french_538.wav,0,pull,700,25,5,4,francais,f,2,0.2,11.48721962,0.30218135
5f56468ad62884044a782809,80,1,2024-02-24T09:06:41.543Z,french_538.wav,0,pull,700,25,5,4,francais,f,3,0.25666667,-26.18142206,1.69243497
5f56468ad62884044a782809,81,1,2024-02-24T09:06:41.543Z,french_541.wav,0,poule,1133,25,5,4,francais,f,0,0.0,53.31308138,1.84251248
5f56468ad62884044a782809,81,1,2024-02-24T09:06:41.543Z,french_541.wav,0,poule,1133,25,5,4,francais,f,1,0.1,48.16539561,0.97729738
5f56468ad62884044a782809,81,1,2024-02-24T09:06:41.543Z,french_541.wav,0,poule,1133,25,5,4,francais,f,2,0.2,-38.85260984,1.28801687
5f56468ad62884044a782809,81,1,2024-02-24T09:06:41.543Z,french_541.wav,0,poule,1133,25,5,4,francais,f,3,0.25666667,47.13501746,0.86548213
5f56468ad62884044a782809,82,1,2024-02-24T09:06:41.543Z,french_445.wav,0,poule,2872,25,5,4,francais,f,0,0.0,8.73559539,0.8054478
5f56468ad62884044a782809,82,1,2024-02-24T09:06:41.543Z,french_445.wav,0,poule,2872,25,5,4,francais,f,1,0.1,-22.15313252,1.73211315
5f56468ad62884044a782809,82,1,2024-02-24T09:06:41.543Z,french_445.wav,0,poule,2872,25,5,4,francais,f,2,0.2,26.0955013,0.21896619
5f56468ad62884044a782809,82,1,2024-02-24T09:06:41.543Z,french_445.wav,0,poule,2872,25,5,4,francais,f,3,0.25666667,22.70157082,0.54256666
5f56468ad62884044a782809,83,1,2024-02-24T09:06:41.543Z,french_321.wav,0,poule,709,25,5,4,francais,f,0,0.0,-11.01764706,1.39443046
5f56468ad62884044a782809,83,1,2024-02-24T09:06:41.543Z,french_321.wav,0,poule,709,25,5,4,francais,f,1,0.1,9.90480799,1.51913173
5f56468ad62884044a782809,83,1,2024-02-24T09:06:41.543Z,french_321.wav,0,poule,709,25,5,4,francais,f,2,0.2,44.10153768,0.74961169
5f56468ad62884044a782809,83,1,2024-02-24T09:06:41.543Z,french_321.wav,0,poule,709,25,5,4,francais,f,3,0.25666667,10.91862898,1.74221707
5f56468ad62884044a782809,84,1,2024-02-24T09:06:41.543Z,french_766.wav,0,poule,914,25,5,4,francais,f,0,0.0,91.85829661,0.12079341
5f56468ad62884044a782809,84,1,2024-02-24T09:06:41.543Z,french_766.wav,0,poule,914,25,5,4,francais,f,1,0.1,29.32583948,0.61287095
5f56468ad62884044a782809,84,1,2024-02-24T09:06:41.543Z,french_766.wav,0,poule,914,25,5,4,francais,f,2,0.2,71.77245069,1.071897
5f56468ad62884044a782809,84,1,2024-02-24T09:06:41.543Z,french_766.wav,0,poule,914,25,5,4,francais,f,3,0.25666667,28.53871253,0.29005596
5f56468ad62884044a782809,85,1,2024-02-24T09:06:41.543Z,french_439.wav,0,poule,1916,25,5,4,francais,f,0,0.0,66.25011988,1.00096297
5f56468ad62884044a782809,85,1,2024-02-24T09:06:41.543Z,french_439.wav,0,poule,1916,25,5,4,francais,f,1,0.1,46.32034445,0.12322103
5f56468ad62884044a782809,85,1,2024-02-24T09:06:41.543Z,french_439.wav,0,poule,1916,25,5,4,francais,f,2,0.2,38.26264731,1.5814324
5f56468ad62884044a782809,85,1,2024-02-24T09:06:41.543Z,french_439.wav,0,poule,1916,25,5,4,francais,f,3,0.25666667,-42.53278778,0.06125751
5f56468ad62884044a782809,86,1,2024-02-24T09:06:41.543Z,french_463.wav,0,pull,1212,25,5,4,francais,f,0,0.0,-19.30652055,0.66062429
5f56468ad62884044a782809,86,1,2024-02-24T09:06:41.543Z,french_463.wav,0,pull,1212,25,5,4,francais,f,1,0.1,40.7979064,1.38698103
5f56468ad62884044a782809,86,1,2024-02-24T09:06:41.543Z,french_463.wav,0,pull,1212,25,5,4,francais,f,2,0.2,73.8964325,0.77621561
5f56468ad62884044a782809,86,1,2024-02-24T09:06:41.543Z,french_463.wav,0,pull,1212,25,5,4,francais,f,3,0.25666667,-55.7146218,0.65457598
5f56468ad62884044a782809,87,1,2024-02-24T09:06:41.543Z,french_756.wav,0,poule,795,25,5,4,francais,f,0,0.0,35.62001521,0.86430693
5f56468ad62884044a782809,87,1,2024-02-24T09:06:41.543Z,french_756.wav,0,poule,795,25,5,4,francais,f,1,0.1,29.8199127,1.17673467
5f56468ad62884044a782809,87,1,2024-02-24T09:06:41.543Z,french_756.wav,0,poule,795,25,5,4,francais,f,2,0.2,-2.36977437,1.63370718
5f56468ad62884044a782809,87,1,2024-02-24T09:06:41.543Z,french_756.wav,0,poule,795,25,5,4,francais,f,3,0.25666667,-73.14220453,1.98740672
5f56468ad62884044a782809,88,1,2024-02-24T09:06:41.543Z,french_816.wav,0,poule,539,25,5,4,francais,f,0,0.0,-39.39804621,1.26291691
5f56468ad62884044a782809,88,1,2024-02-24T09:06:41.543Z,french_816.wav,0,poule,539,25,5,4,francais,f,1,0.1,14.23792488,1.60181117
5f56468ad62884044a782809,88,1,2024-02-24T09:06:41.543Z,french_816.wav,0,poule,539,25,5,4,francais,f,2,0.2,-84.08825282,0.57012939
5f56468ad62884044a782809,88,1,2024-02-24T09:06:41.543Z,french_816.wav,0,poule,539,25,5,4,francais,f,3,0.25666667,-46.46940665,1.06315664
5f56468ad62884044a782809,89,1,2024-02-24T09:06:41.543Z,french_533.wav,0,poule,465,25,5,4,francais,f,0,0.0,16.04004141,1.94214745
5f56468ad62884044a782809,89,1,2024-02-24T09:06:41.543Z,french_533.wav,0,poule,465,25,5,4,francais,f,1,0.1,56.74964814,0.96958639
5f56468ad62884044a782809,89,1,2024-02-24T09:06:41.543Z,french_533.wav,0,poule,465,25,5,4,francais,f,2,0.2,94.00728235,1.49563925
5f56468ad62884044a782809,89,1,2024-02-24T09:06:41.543Z,french_533.wav,0,poule,465,25,5,4,francais,f,3,0.25666667,-15.92685786,1.75047909
5f56468ad62884044a782809,90,1,2024-02-24T09:06:41.543Z,french_620.wav,0,poule,501,25,5,4,francais,f,0,0.0,-75.53708421,1.75028991
5f56468ad62884044a782809,90,1,2024-02-24T09:06:41.543Z,french_620.wav,0,poule,501,25,5,4,francais,f,1,0.1,4.57362866,1.1712224
5f56468ad62884044a782809,90,1,2024-02-24T09:06:41.543Z,french_620.wav,0,poule,501,25,5,4,francais,f,2,0.2,-79.19764782,1.92554269
5f56468ad62884044a782809,90,1,2024-02-24T09:06:41.543Z,french_620.wav,0,poule,501,25,5,4,francais,f,3,0.25666667,-82.06470668,1.1477244
5f56468ad62884044a782809,91,1,2024-02-24T09:06:41.543Z,french_54.wav,0,pull,1094,25,5,4,francais,f,0,0.0,77.13223303,0.44302914
5f56468ad62884044a782809,91,1,2024-02-24T09:06:41.543Z,french_54.wav,0,pull,1094,25,5,4,francais,f,1,0.1,-5.6152706,0.26201868
5f56468ad62884044a782809,91,1,2024-02-24T09:06:41.543Z,french_54.wav,0,pull,1094,25,5,4,francais,f,2,0.2,22.05383838,0.27892
5f56468ad62884044a782809,91,1,2024-02-24T09:06:41.543Z,french_54.wav,0,pull,1094,25,5,4,francais,f,3,0.25666667,-9.52451309,0.30908576
5f56468ad62884044a782809,92,1,2024-02-24T09:06:41.543Z,french_74.wav,0,poule,1387,25,5,4,francais,f,0,0.0,50.9707996,1.5114138
5f56468ad62884044a782809,92,1,2024-02-24T09:06:41.543Z,french_74.wav,0,poule,1387,25,5,4,francais,f,1,0.1,-38.59052132,1.75968469
5f56468ad62884044a782809,92,1,2024-02-24T09:06:41.543Z,french_74.wav,0,poule,1387,25,5,4,francais,f,2,0.2,-99.50726314,0.36574043
5f56468ad62884044a782809,92,1,2024-02-24T09:06:41.543Z,french_74.wav,0,poule,1387,25,5,4,francais,f,3,0.25666667,55.85777384,0.66231561
5f56468ad62884044a782809,93,1,2024-02-24T09:06:41.543Z,french_873.wav,0,poule,389,25,5,4,francais,f,0,0.0,-12.1574241,0.39218062
5f56468ad62884044a782809,93,1,2024-02-24T09:06:41.543Z,french_873.wav,0,poule,389,25,5,4,francais,f,1,0.1,-18.24590524,1.88422008
5f56468ad62884044a782809,93,1,2024-02-24T09:06:41.543Z,french_873.wav,0,poule,389,25,5,4,francais,f,2,0.2,-68.65561389,1.05802306
5f56468ad62884044a782809,93,1,2024-02-24T09:06:41.543Z,french_873.wav,0,poule,389,25,5,4,francais,f,3,0.25666667,-45.4488766,0.58030918
5f56468ad62884044a782809,94,1,2024-02-24T09:06:41.543Z,french_503.wav,0,poule,343,25,5,4,francais,f,0,0.0,-70.57406247,0.43346158
5f56468ad62884044a782809,94,1,2024-02-24T09:06:41.543Z,french_503.wav,0,poule,343,25,5,4,francais,f,1,0.1,-50.28029143,1.6767429
5f56468ad62884044a782809,94,1,2024-02-24T09:06:41.543Z,french_503.wav,0,poule,343,25,5,4,francais,f,2,0.2,-1.92788211,0.59100625
5f56468ad62884044a782809,94,1,2024-02-24T09:06:41.543Z,french_503.wav,0,poule,343,25,5,4,francais,f,3,0.25666667,82.92590596,1.4727109
5f56468ad62884044a782809,95,1,2024-02-24T09:06:41.543Z,french_660.wav,0,poule,323,25,5,4,francais,f,0,0.0,-75.02051955,0.75293762
5f56468ad62884044a782809,95,1,2024-02-24T09:06:41.543Z,french_660.wav,0,poule,323,25,5,4,francais,f,1,0.1,-36.41679043,0.97452375
5f56468ad62884044a782809,95,1,2024-02-24T09:06:41.543Z,french_660.wav,0,poule,323,25,5,4,francais,f,2,0.2,-45.60366398,1.88941483
5f56468ad62884044a782809,95,1,2024-02-24T09:06:41.543Z,french_660.wav,0,poule,323,25,5,4,francais,f,3,0.25666667,13.07838485,0.53297117
5f56468ad62884044a782809,96,1,2024-02-24T09:06:41.543Z,french_193.wav,0,poule,293,25,5,4,francais,f,0,0.0,-28.32639357,1.40536398
5f56468ad62884044a782809,96,1,2024-02-24T09:06:41.543Z,french_193.wav,0,poule,293,25,5,4,francais,f,1,0.1,-28.26139456,0.96467568
5f56468ad62884044a782809,96,1,2024-02-24T09:06:41.543Z,french_193.wav,0,poule,293,25,5,4,francais,f,2,0.2,-57.21870996,1.12687293
5f56468ad62884044a782809,96,1,2024-02-24T09:06:41.543Z,french_193.wav,0,poule,293,25,5,4,francais,f,3,0.25666667,-51.4120543,0.49094377
5f56468ad62884044a782809,97,1,2024-02-24T09:06:41.543Z,french_466.wav,0,poule,778,25,5,4,francais,f,0,0.0,73.58992944,1.41071494
5f56468ad62884044a782809,97,1,2024-02-24T09:06:41.543Z,french_466.wav,0,poule,778,25,5,4,francais,f,1,0.1,63.97983353,0.05598534
5f56468ad62884044a782809,97,1,2024-02-24T09:06:41.543Z,french_466.wav,0,poule,778,25,5,4,francais,f,2,0.2,36.10141743,1.99104708
5f56468ad62884044a782809,97,1,2024-02-24T09:06:41.543Z,french_466.wav,0,poule,778,25,5,4,francais,f,3,0.25666667,-59.38235663,0.89990448
5f56468ad62884044a782809,98,1,2024-02-24T09:06:41.543Z,french_537.wav,0,pull,2080,25,5,4,francais,f,0,0.0,24.94182708,0.83905816
5f56468ad62884044a782809,98,1,2024-02-24T09:06:41.543Z,french_537.wav,0,pull,2080,25,5,4,francais,f,1,0.1,44.89034985,0.4078644
5f56468ad62884044a782809,98,1,2024-02-24T09:06:41.543Z,french_537.wav,0,pull,2080,25,5,4,francais,f,2,0.2,79.4977598,1.66123527
5f56468ad62884044a782809,98,1,2024-02-24T09:06:41.543Z,french_537.wav,0,pull,2080,25,5,4,francais,f,3,0.25666667,43.46988515,0.90238518
5f56468ad62884044a782809,99,1,2024-02-24T09:06:41.543Z,french_403.wav,0,poule,832,25,5,4,francais,f,0,0.0,-74.59140771,1.12132674
5f56468ad62884044a782809,99,1,2024-02-24T09:06:41.543Z,french_403.wav,0,poule,832,25,5,4,francais,f,1,0.1,29.14043257,1.20077734
5f56468ad62884044a782809,99,1,2024-02-24T09:06:41.543Z,french_403.wav,0,poule,832,25,5,4,francais,f,2,0.2,37.28402081,0.75804668
5f56468ad62884044a782809,99,1,2024-02-24T09:06:41.543Z,french_403.wav,0,poule,832,25,5,4,francais,f,3,0.25666667,-66.4238982,0.86443687
5f56468ad62884044a782809,100,2,2024-02-24T09:06:41.543Z,french_994.wav,0,poule,332,25,5,4,francais,f,0,0.0,-39.66278541,0.39681658
5f56468ad62884044a782809,100,2,2024-02-24T09:06:41.543Z,french_994.wav,0,poule,332,25,5,4,francais,f,1,0.1,66.70535545,1.6498105
5f56468ad62884044a782809,100,2,2024-02-24T09:06:41.543Z,french_994.wav,0,poule,332,25,5,4,francais,f,2,0.2,-87.43703712,1.48803434
5f56468ad62884044a782809,100,2,2024-02-24T09:06:41.543Z,french_994.wav,0,poule,332,25,5,4,francais,f,3,0.25666667,-41.83233866,1.54058484
5f56468ad62884044a782809,101,2,2024-02-24T09:06:41.543Z,french_286.wav,0,pull,1310,25,5,4,francais,f,0,0.0,-12.75776796,0.7334837
5f56468ad62884044a782809,101,2,2024-02-24T09:06:41.543Z,french_286.wav,0,pull,1310,25,5,4,francais,f,1,0.1,37.83162005,0.13945261
5f56468ad62884044a782809,101,2,2024-02-24T09:06:41.543Z,french_286.wav,0,pull,1310,25,5,4,francais,f,2,0.2,-73.99987606,0.89700821
5f56468ad62884044a782809,101,2,2024-02-24T09:06:41.543Z,french_286.wav,0,pull,1310,25,5,4,francais,f,3,0.25666667,-99.59641202,0.06192005
5f56468ad62884044a782809,102,2,2024-02-24T09:06:41.543Z,french_202.wav,0,pull,806,25,5,4,francais,f,0,0.0,13.54970771,0.17477243
5f56468ad62884044a782809,102,2,2024-02-24T09:06:41.543Z,french_202.wav,0,pull,806,25,5,4,francais,f,1,0.1,96.46591802,0.30528336
5f56468ad62884044a782809,102,2,2024-02-24T09:06:41.543Z,french_202.wav,0,pull,806,25,5,4,francais,f,2,0.2,96.13650215,0.41819952
5f56468ad62884044a782809,102,2,2024-02-24T09:06:41.543Z,french_202.wav,0,pull,806,25,5,4,francais,f,3,0.25666667,-35.2772524,1.86493567
5f56468ad62884044a782809,103,2,2024-02-24T09:06:41.543Z,french_34.wav,0,poule,528,25,5,4,francais,f,0,0.0,-97.24360174,1.95744133
5f56468ad62884044a782809,103,2,2024-02-24T09:06:41.543Z,french_34.wav,0,poule,528,25,5,4,francais,f,1,0.1,62.38297295,1.24423752
5f56468ad62884044a782809,103,2,2024-02-24T09:06:41.543Z,french_34.wav,0,poule,528,25,5,4,francais,f,2,0.2,-49.09622703,1.91649641
5f56468ad62884044a782809,103,2,2024-02-24T09:06:41.543Z,french_34.wav,0,poule,528,25,5,4,francais,f,3,0.25666667,-40.35720841,1.03651442
5f56468ad62884044a782809,104,2,2024-02-24T09:06:41.543Z,french_378.wav,0,poule,1211,25,5,4,francais,f,0,0.0,74.25757507,1.44636003
5f56468ad62884044a782809,104,2,2024-02-24T09:06:41.543Z,french_378.wav,0,poule,1211,25,5,4,francais,f,1,0.1,69.54270197,0.18429149
5f56468ad62884044a782809,104,2,2024-02-24T09:06:41.543Z,french_378.wav,0,poule,1211,25,5,4,francais,f,2,0.2,91.83328043,0.75177649
5f56468ad62884044a782809,104,2,2024-02-24T09:06:41.543Z,french_378.wav,0,poule,1211,25,5,4,francais,f,3,0.25666667,65.12199987,0.49263706
5f56468ad62884044a782809,105,2,2024-02-24T09:06:41.543Z,french_582.wav,0,poule,790,25,5,4,francais,f,0,0.0,1.47980053,0.83350323
5f56468ad62884044a782809,105,2,2024-02-24T09:06:41.543Z,french_582.wav,0,poule,790,25,5,4,francais,f,1,0.1,-89.13888063,1.99658076
5f56468ad62884044a782809,105,2,2024-02-24T09:06:41.543Z,french_582.wav,0,poule,790,25,5,4,francais,f,2,0.2,1.45566029,0.72464724
5f56468ad62884044a782809,105,2,2024-02-24T09:06:41.543Z,french_582.wav,0,poule,790,25,5,4,francais,f,3,0.25666667,-76.25724372,1.09622387
5f56468ad62884044a782809,106,2,2024-02-24T09:06:41.543Z,french_262.wav,0,poule,542,25,5,4,francais,f,0,0.0,-64.23156272,0.64961321
5f56468ad62884044a782809,106,2,2024-02-24T09:06:41.543Z,french_262.wav,0,poule,542,25,5,4,francais,f,1,0.1,-18.68430003,0.97192609
5f56468ad62884044a782809,106,2,2024-02-24T09:06:41.543Z,french_262.wav,0,poule,542,25,5,4,francais,f,2,0.2,-74.67542291,0.40249154
5f56468ad62884044a782809,106,2,2024-02-24T09:06:41.543Z,french_262.wav,0,poule,542,25,5,4,francais,f,3,0.25666667,29.36963449,0.8696964
5f56468ad62884044a782809,107,2,2024-02-24T09:06:41.543Z,french_943.wav,0,pull,2717,25,5,4,francais,f,0,0.0,27.08075724,1.18472309
5f56468ad62884044a782809,107,2,2024-02-24T09:06:41.543Z,french_943.wav,0,pull,2717,25,5,4,francais,f,1,0.1,11.89706259,0.18520331
5f56468ad62884044a782809,107,2,2024-02-24T09:06:41.543Z,french_943.wav,0,pull,2717,25,5,4,francais,f,2,0.2,-68.36208072,0.55970606
5f56468ad62884044a782809,107,2,2024-02-24T09:06:41.543Z,french_943.wav,0,pull,2717,25,5,4,francais,f,3,0.25666667,93.65942771,0.63383354
5f56468ad62884044a782809,108,2,2024-02-24T09:06:41.543Z,french_840.wav,0,poule,363,25,5,4,francais,f,0,0.0,13.6338747,1.10667495
5f56468ad62884044a782809,108,2,2024-02-24T09:06:41.543Z,french_840.wav,0,poule,363,25,5,4,francais,f,1,0.1,-48.5646874,1.60365116
5f56468ad62884044a782809,108,2,2024-02-24T09:06:41.543Z,french_840.wav,0,poule,363,25,5,4,francais,f,2,0.2,-42.92936875,0.82861267
5f56468ad62884044a782809,108,2,2024-02-24T09:06:41.543Z,french_840.wav,0,poule,363,25,5,4,francais,f,3,0.25666667,-22.57825883,0.56371323
5f56468ad62884044a782809,109,2,2024-02-24T09:06:41.543Z,french_239.wav,0,poule,308,25,5,4,francais,f,0,0.0,28.79978772,0.08316766
5f56468ad62884044a782809,109,2,2024-02-24T09:06:41.543Z,french_239.wav,0,poule,308,25,5,4,francais,f,1,0.1,-73.21999651,0.38167469
5f56468ad62884044a782809,109,2,2024-02-24T09:06:41.543Z,french_239.wav,0,poule,308,25,5,4,francais,f,2,0.2,-92.33353735,1.82525895
5f56468ad62884044a782809,109,2,2024-02-24T09:06:41.543Z,french_239.wav,0,poule,308,25,5,4,francais,f,3,0.25666667,-92.59521946,1.04737586
5f56468ad62884044a782809,110,2,2024-02-24T09:06:41.543Z,french_594.wav,0,poule,234,25,5,4,francais,f,0,0.0,-77.17245549,1.803544
5f56468ad62884044a782809,110,2,2024-02-24T09:06:41.543Z,french_594.wav,0,poule,234,25,5,4,francais,f,1,0.1,-9.42910309,1.0387293
5f56468ad62884044a782809,110,2,2024-02-24T09:06:41.543Z,french_594.wav,0,poule,234,25,5,4,francais,f,2,0.2,28.840902,1.64762654
5f56468ad62884044a782809,110,2,2024-02-24T09:06:41.543Z,french_594.wav,0,poule,234,25,5,4,francais,f,3,0.25666667,-27.68960177,0.23150428
5f56468ad62884044a782809,111,2,2024-02-24T09:06:41.543Z,french_762.wav,0,poule,650,25,5,4,francais,f,0,0.0,-45.61990315,0.95776955
5f56468ad62884044a782809,111,2,2024-02-24T09:06:41.543Z,french_762.wav,0,poule,650,25,5,4,francais,f,1,0.1,-38.16727298,0.16992331
5f56468ad62884044a782809,111,2,2024-02-24T09:06:41.543Z,french_762.wav,0,poule,650,25,5,4,francais,f,2,0.2,-15.44626984,1.21301125
5f56468ad62884044a782809,111,2,2024-02-24T09:06:41.543Z,french_762.wav,0,poule,650,25,5,4,francais,f,3,0.25666667,-31.31206952,0.49399223
5f56468ad62884044a782809,112,2,2024-02-24T09:06:41.543Z,french_717.wav,0,pull,667,25,5,4,francais,f,0,0.0,-84.32189387,1.00877352
5f56468ad62884044a782809,112,2,2024-02-24T09:06:41.543Z,french_717.wav,0,pull,667,25,5,4,francais,f,1,0.1,40.2374262,0.42603024
5f56468ad62884044a782809,112,2,2024-02-24T09:06:41.543Z,french_717.wav,0,pull,667,25,5,4,francais,f,2,0.2,80.19404777,0.00517131
5f56468ad62884044a782809,112,2,2024-02-24T09:06:41.543Z,french_717.wav,0,pull,667,25,5,4,francais,f,3,0.25666667,-31.07147466,1.19241547
5f56468ad62884044a782809,113,2,2024-02-24T09:06:41.543Z,french_860.wav,0,poule,520,25,5,4,francais,f,0,0.0,33.37389434,1.87718004
5f56468ad62884044a782809,113,2,2024-02-24T09:06:41.543Z,french_860.wav,0,poule,520,25,5,4,francais,f,1,0.1,66.22312498,1.50950791
5f56468ad62884044a782809,113,2,2024-02-24T09:06:41.543Z,french_860.wav,0,poule,520,25,5,4,francais,f,2,0.2,-4.57961146,0.09437067
5f56468ad62884044a782809,113,2,2024-02-24T09:06:41.543Z,french_860.wav,0,poule,520,25,5,4,francais,f,3,0.25666667,50.69207221,1.19183747
5f56468ad62884044a782809,114,2,2024-02-24T09:06:41.543Z,french_830.wav,0,poule,635,25,5,4,francais,f,0,0.0,-1.87091299,1.09232302
5f56468ad62884044a782809,114,2,2024-02-24T09:06:41.543Z,french_830.wav,0,poule,635,25,5,4,francais,f,1,0.1,9.47785811,0.94787069
5f56468ad62884044a782809,114,2,2024-02-24T09:06:41.543Z,french_830.wav,0,poule,635,25,5,4,francais,f,2,0.2,-62.34166138,1.22281972
5f56468ad62884044a782809,114,2,2024-02-24T09:06:41.543Z,french_830.wav,0,poule,635,25,5,4,francais,f,3,0.25666667,43.2809025,1.77001535
5f56468ad62884044a782809,115,2,2024-02-24T09:06:41.543Z,french_580.wav,0,poule,453,25,5,4,francais,f,0,0.0,27.05941303,0.35053576
5f56468ad62884044a782809,115,2,2024-02-24T09:06:41.543Z,french_580.wav,0,poule,453,25,5,4,francais,f,1,0.1,-10.3346088,1.97169455
5f56468ad62884044a782809,115,2,2024-02-24T09:06:41.543Z,french_580.wav,0,poule,453,25,5,4,francais,f,2,0.2,-24.27512535,0.90308202
5f56468ad62884044a782809,115,2,2024-02-24T09:06:41.543Z,french_580.wav,0,poule,453,25,5,4,francais,f,3,0.25666667,34.7313677,0.94790865
5f56468ad62884044a782809,116,2,2024-02-24T09:06:41.543Z,french_232.wav,0,poule,552,25,5,4,francais,f,0,0.0,48.62304181,1.60041799
5f56468ad62884044a782809,116,2,2024-02-24T09:06:41.543Z,french_232.wav,0,poule,552,25,5,4,francais,f,1,0.1,-66.91586117,0.5698369
5f56468ad62884044a782809,116,2,2024-02-24T09:06:41.543Z,french_232.wav,0,poule,552,25,5,4,francais,f,2,0.2,-71.38800945,1.21368891
5f56468ad62884044a782809,116,2,2024-02-24T09:06:41.543Z,french_232.wav,0,poule,552,25,5,4,francais,f,3,0.25666667,32.42157584,1.05085576
5f56468ad62884044a782809,117,2,2024-02-24T09:06:41.543Z,french_906.wav,0,pull,732,25,5,4,francais,f,0,0.0,-13.49448879,0.31236465
5f56468ad62884044a782809,117,2,2024-02-24T09:06:41.543Z,french_906.wav,0,pull,732,25,5,4,francais,f,1,0.1,31.46373863,1.12113229
5f56468ad62884044a782809,117,2,2024-02-24T09:06:41.543Z,french_906.wav,0,pull,732,25,5,4,francais,f,2,0.2,-49.02376816,0.0749788
5f56468ad62884044a782809,117,2,2024-02-24T09:06:41.543Z,french_906.wav,0,pull,732,25,5,4,francais,f,3,0.25666667,26.58933429,0.8331551
5f56468ad62884044a782809,118,2,2024-02-24T09:06:41.543Z,french_899.wav,0,pull,776,25,5,4,francais,f,0,0.0,-28.57126009,0.27570035
5f56468ad62884044a782809,118,2,2024-02-24T09:06:41.543Z,french_899.wav,0,pull,776,25,5,4,francais,f,1,0.1,-0.09971188,0.02539286
5f56468ad62884044a782809,118,2,2024-02-24T09:06:41.543Z,french_899.wav,0,pull,776,25,5,4,francais,f,2,0.2,21.79777269,0.56520269
5f56468ad62884044a782809,118,2,2024-02-24T09:06:41.543Z,french_899.wav,0,pull,776,25,5,4,francais,f,3,0.25666667,-88.2290065,1.36421593
5f56468ad62884044a782809,119,2,2024-02-24T09:06:41.543Z,french_478.wav,0,poule,348,25,5,4,francais,f,0,0.0,83.43470999,1.59134243
5f56468ad62884044a782809,119,2,2024-02-24T09:06:41.543Z,french_478.wav,0,poule,348,25,5,4,francais,f,1,0.1,-2.90020724,1.87737404
5f56468ad62884044a782809,119,2,2024-02-24T09:06:41.543Z,french_478.wav,0,poule,348,25,5,4,francais,f,2,0.2,3.04122674,1.09323353
5f56468ad62884044a782809,119,2,2024-02-24T09:06:41.543Z,french_478.wav,0,poule,348,25,5,4,francais,f,3,0.25666667,-16.94968741,0.48225636
5f56468ad62884044a782809,120,2,2024-02-24T09:06:41.543Z,french_499.wav,0,poule,374,25,5,4,francais,f,0,0.0,24.28229917,0.76159538
5f56468ad62884044a782809,120,2,2024-02-24T09:06:41.543Z,french_499.wav,0,poule,374,25,5,4,francais,f,1,0.1,-90.85236303,0.50536641
5f56468ad62884044a782809,120,2,2024-02-24T09:06:41.543Z,french_499.wav,0,poule,374,25,5,4,francais,f,2,0.2,-60.29957953,0.99158085
5f56468ad62884044a782809,120,2,2024-02-24T09:06:41.543Z,french_499.wav,0,poule,374,25,5,4,francais,f,3,0.25666667,91.79807534,1.05465089
5f56468ad62884044a782809,121,2,2024-02-24T09:06:41.543Z,french_422.wav,0,poule,593,25,5,4,francais,f,0,0.0,84.96144948,0.57918651
5f56468ad62884044a782809,121,2,2024-02-24T09:06:41.543Z,french_422.wav,0,poule,593,25,5,4,francais,f,1,0.1,-4.96569357,1.20973004
5f56468ad62884044a782809,121,2,2024-02-24T09:06:41.543Z,french_422.wav,0,poule,593,25,5,4,francais,f,2,0.2,9.38898655,0.40935242
5f56468ad62884044a782809,121,2,2024-02-24T09:06:41.543Z,french_422.wav,0,poule,593,25,5,4,francais,f,3,0.25666667,-4.34292742,0.41859168
5f56468ad62884044a782809,122,2,2024-02-24T09:06:41.543Z,french_515.wav,0,poule,462,25,5,4,francais,f,0,0.0,90.1787868,1.05169603
5f56468ad62884044a782809,122,2,2024-02-24T09:06:41.543Z,french_515.wav,0,poule,462,25,5,4,francais,f,1,0.1,95.19464712,0.16234368
5f56468ad62884044a782809,122,2,2024-02-24T09:06:41.543Z,french_515.wav,0,poule,462,25,5,4,francais,f,2,0.2,-71.09612906,1.85560054
5f56468ad62884044a782809,122,2,2024-02-24T09:06:41.543Z,french_515.wav,0,poule,462,25,5,4,francais,f,3,0.25666667,86.48037909,0.23492468
5f56468ad62884044a782809,123,2,2024-02-24T09:06:41.543Z,french_818.wav,0,poule,428,25,5,4,francais,f,0,0.0,-26.74770248,1.09674102
5f56468ad62884044a782809,123,2,2024-02-24T09:06:41.543Z,french_818.wav,0,poule,428,25,5,4,francais,f,1,0.1,-33.54864391,0.98606035
5f56468ad62884044a782809,123,2,2024-02-24T09:06:41.543Z,french_818.wav,0,poule,428,25,5,4,francais,f,2,0.2,-23.72939517,1.86933067
5f56468ad62884044a782809,123,2,2024-02-24T09:06:41.543Z,french_818.wav,0,poule,428,25,5,4,francais,f,3,0.25666667,53.93300908,0.6204836
5f56468ad62884044a782809,124,2,2024-02-24T09:06:41.543Z,french_228.wav,0,poule,423,25,5,4,francais,f,0,0.0,-13.78258648,1.36655769
5f56468ad62884044a782809,124,2,2024-02-24T09:06:41.543Z,french_228.wav,0,poule,423,25,5,4,francais,f,1,0.1,27.88870681,1.56643938
5f56468ad62884044a782809,124,2,2024-02-24T09:06:41.543Z,french_228.wav,0,poule,423,25,5,4,francais,f,2,0.2,-8.73674486,0.29403468
5f56468ad62884044a782809,124,2,2024-02-24T09:06:41.543Z,french_228.wav,0,poule,423,25,5,4,francais,f,3,0.25666667,-13.88179653,0.32348249
5f56468ad62884044a782809,125,2,2024-02-24T09:06:41.543Z,french_880.wav,0,poule,671,25,5,4,francais,f,0,0.0,34.54343789,1.97652899
5f56468ad62884044a782809,125,2,2024-02-24T09:06:41.543Z,french_880.wav,0,poule,671,25,5,4,francais,f,1,0.1,76.62551814,0.35866047
5f56468ad62884044a782809,125,2,2024-02-24T09:06:41.543Z,french_880.wav,0,poule,671,25,5,4,francais,f,2,0.2,69.99614697,1.49815227
5f56468ad62884044a782809,125,2,2024-02-24T09:06:41.543Z,french_880.wav,0,poule,671,25,5,4,francais,f,3,0.25666667,-97.30266151,1.92878763
5f56468ad62884044a782809,126,2,2024-02-24T09:06:41.543Z,french_472.wav,0,poule,682,25,5,4,francais,f,0,0.0,-9.46806957,0.85855516
5f56468ad62884044a782809,126,2,2024-02-24T09:06:41.543Z,french_472.wav,0,poule,682,25,5,4,francais,f,1,0.1,45.81973918,1.60383991
5f56468ad62884044a782809,126,2,2024-02-24T09:06:41.543Z,french_472.wav,0,poule,682,25,5,4,francais,f,2,0.2,-32.95266456,0.80244772
5f56468ad62884044a782809,126,2,2024-02-24T09:06:41.543Z,french_472.wav,0,poule,682,25,5,4,francais,f,3,0.25666667,-10.56557549,1.48234138
5f56468ad62884044a782809,127,2,2024-02-24T09:06:41.543Z,french_366.wav,0,pull,1127,25,5,4,francais,f,0,0.0,-11.67543603,0.93730839
5f56468ad62884044a782809,127,2,2024-02-24T09:06:41.543Z,french_366.wav,0,pull,1127,25,5,4,francais,f,1,0.1,-73.020852,0.54674712
5f56468ad62884044a782809,127,2,2024-02-24T09:06:41.543Z,french_366.wav,0,pull,1127,25,5,4,francais,f,2,0.2,-53.53259577,0.98192793
5f56468ad62884044a782809,127,2,2024-02-24T09:06:41.543Z,french_366.wav,0,pull,1127,25,5,4,francais,f,3,0.25666667,19.02620798,0.14835446
5f56468ad62884044a782809,128,2,2024-02-24T09:06:41.543Z,french_902.wav,0,poule,574,25,5,4,francais,f,0,0.0,27.03523978,0.1459181
5f56468ad62884044a782809,128,2,2024-02-24T09:06:41.543Z,french_902.wav,0,poule,574,25,5,4,francais,f,1,0.1,-67.54213764,1.3453624
5f56468ad62884044a782809,128,2,2024-02-24T09:06:41.543Z,french_902.wav,0,poule,574,25,5,4,francais,f,2,0.2,21.7683879,1.83277685
5f56468ad62884044a782809,128,2,2024-02-24T09:06:41.543Z,french_902.wav,0,poule,574,25,5,4,francais,f,3,0.25666667,-96.90742585,0.52631336
5f56468ad62884044a782809,129,2,2024-02-24T09:06:41.543Z,french_263.wav,0,pull,1343,25,5,4,francais,f,0,0.0,25.02930943,0.29249845
5f56468ad62884044a782809,129,2,2024-02-24T09:06:41.543Z,french_263.wav,0,pull,1343,25,5,4,francais,f,1,0.1,77.59070044,1.82268286
5f56468ad62884044a782809,129,2,2024-02-24T09:06:41.543Z,french_263.wav,0,pull,1343,25,5,4,francais,f,2,0.2,61.13366196,0.69638669
5f56468ad62884044a782809,129,2,2024-02-24T09:06:41.543Z,french_263.wav,0,pull,1343,25,5,4,francais,f,3,0.25666667,-46.58539851,0.57279137
5f56468ad62884044a782809,130,2,2024-02-24T09:06:41.543Z,french_561.wav,0,pull,828,25,5,4,francais,f,0,0.0,43.72245453,1.14403907
5f56468ad62884044a782809,130,2,2024-02-24T09:06:41.543Z,french_561.wav,0,pull,828,25,5,4,francais,f,1,0.1,-99.96065046,0.22103922
5f56468ad62884044a782809,130,2,2024-02-24T09:06:41.543Z,french_561.wav,0,pull,828,25,5,4,francais,f,2,0.2,-79.74506532,0.12690813
5f56468ad62884044a782809,130,2,2024-02-24T09:06:41.543Z,french_561.wav,0,pull,828,25,5,4,francais,f,3,0.25666667,3.19515671,1.47601923
5f56468ad62884044a782809,131,2,2024-02-24T09:06:41.543Z,french_958.wav,0,poule,2584,25,5,4,francais,f,0,0.0,70.65905064,0.553928
5f56468ad62884044a782809,131,2,2024-02-24T09:06:41.543Z,french_958.wav,0,poule,2584,25,5,4,francais,f,1,0.1,35.26497317,0.45560148
5f56468ad62884044a782809,131,2,2024-02-24T09:06:41.543Z,french_958.wav,0,poule,2584,25,5,4,francais,f,2,0.2,64.29920798,1.65592314
5f56468ad62884044a782809,131,2,2024-02-24T09:06:41.543Z,french_958.wav,0,poule,2584,25,5,4,francais,f,3,0.25666667,78.52381542,1.53733
5f56468ad62884044a782809,132,2,2024-02-24T09:06:41.543Z,french_728.wav,0,poule,558,25,5,4,francais,f,0,0.0,-93.70742078,1.13399743
5f56468ad62884044a782809,132,2,2024-02-24T09:06:41.543Z,french_728.wav,0,poule,558,25,5,4,francais,f,1,0.1,-62.00989335,0.93012586
5f56468ad62884044a782809,132,2,2024-02-24T09:06:41.543Z,french_728.wav,0,poule,558,25,5,4,francais,f,2,0.2,72.64416852,0.78518922
5f56468ad62884044a782809,132,2,2024-02-24T09:06:41.543Z,french_728.wav,0,poule,558,25,5,4,francais,f,3,0.25666667,6.15605077,0.75575783
5f56468ad62884044a782809,133,2,2024-02-24T09:06:41.543Z,french_50.wav,0,poule,832,25,5,4,francais,f,0,0.0,-85.65055263,1.56155391
5f56468ad62884044a782809,133,2,2024-02-24T09:06:41.543Z,french_50.wav,0,poule,832,25,5,4,francais,f,1,0.1,-8.41774185,0.5849625
5f56468ad62884044a782809,133,2,2024-02-24T09:06:41.543Z,french_50.wav,0,poule,832,25,5,4,francais,f,2,0.2,31.4658541,1.04346227
5f56468ad62884044a782809,133,2,2024-02-24T09:06:41.543Z,french_50.wav,0,poule,832,25,5,4,francais,f,3,0.25666667,98.77299977,0.72937699
5f56468ad62884044a782809,134,2,2024-02-24T09:06:41.543Z,french_572.wav,0,poule,1507,25,5,4,francais,f,0,0.0,39.88309013,1.43577141
5f56468ad62884044a782809,134,2,2024-02-24T09:06:41.543Z,french_572.wav,0,poule,1507,25,5,4,francais,f,1,0.1,-96.79862589,0.70754044
5f56468ad62884044a782809,134,2,2024-02-24T09:06:41.543Z,french_572.wav,0,poule,1507,25,5,4,francais,f,2,0.2,-22.12237888,0.13254452
5f56468ad62884044a782809,134,2,2024-02-24T09:06:41.543Z,french_572.wav,0,poule,1507,25,5,4,francais,f,3,0.25666667,-29.01009828,0.2743676
5f56468ad62884044a782809,135,2,2024-02-24T09:06:41.543Z,french_587.wav,0,poule,629,25,5,4,francais,f,0,0.0,-75.34784911,1.71069253
5f56468ad62884044a782809,135,2,2024-02-24T09:06:41.543Z,french_587.wav,0,poule,629,25,5,4,francais,f,1,0.1,20.53880501,1.37718063
5f56468ad62884044a782809,135,2,2024-02-24T09:06:41.543Z,french_587.wav,0,poule,629,25,5,4,francais,f,2,0.2,-66.82934855,1.47865121
5f56468ad62884044a782809,135,2,2024-02-24T09:06:41.543Z,french_587.wav,0,poule,629,25,5,4,francais,f,3,0.25666667,0.42354047,1.29460257
5f56468ad62884044a782809,136,2,2024-02-24T09:06:41.543Z,french_240.wav,0,poule,452,25,5,4,francais,f,0,0.0,77.68768834,0.69241663
5f56468ad62884044a782809,136,2,2024-02-24T09:06:41.543Z,french_240.wav,0,poule,452,25,5,4,francais,f,1,0.1,-29.82643761,1.16068826
5f56468ad62884044a782809,136,2,2024-02-24T09:06:41.543Z,french_240.wav,0,poule,452,25,5,4,francais,f,2,0.2,18.33689373,0.98486954
5f56468ad62884044a782809,136,2,2024-02-24T09:06:41.543Z,french_240.wav,0,poule,452,25,5,4,francais,f,3,0.25666667,24.70133008,0.89191813
5f56468ad62884044a782809,137,2,2024-02-24T09:06:41.543Z,french_28.wav,0,poule,481,25,5,4,francais,f,0,0.0,-42.04092007,0.8096396
5f56468ad62884044a782809,137,2,2024-02-24T09:06:41.543Z,french_28.wav,0,poule,481,25,5,4,francais,f,1,0.1,-47.89065573,0.68168646
5f56468ad62884044a782809,137,2,2024-02-24T09:06:41.543Z,french_28.wav,0,poule,481,25,5,4,francais,f,2,0.2,88.67668081,0.86103635
5f56468ad62884044a782809,137,2,2024-02-24T09:06:41.543Z,french_28.wav,0,poule,481,25,5,4,francais,f,3,0.25666667,23.25138011,1.13642067
5f56468ad62884044a782809,138,2,2024-02-24T09:06:41.543Z,french_288.wav,0,poule,554,25,5,4,francais,f,0,0.0,-9.24929425,1.2144441
5f56468ad62884044a782809,138,2,2024-02-24T09:06:41.543Z,french_288.wav,0,poule,554,25,5,4,francais,f,1,0.1,97.18434129,0.01267679
5f56468ad62884044a782809,138,2,2024-02-24T09:06:41.543Z,french_288.wav,0,poule,554,25,5,4,francais,f,2,0.2,-8.99940005,1.13720482
5f56468ad62884044a782809,138,2,2024-02-24T09:06:41.543Z,french_288.wav,0,poule,554,25,5,4,francais,f,3,0.25666667,-80.67587563,1.56801852
5f56468ad62884044a782809,139,2,2024-02-24T09:06:41.543Z,french_412.wav,0,poule,1491,25,5,4,francais,f,0,0.0,-59.33534007,1.02487397
5f56468ad62884044a782809,139,2,2024-02-24T09:06:41.543Z,french_412.wav,0,poule,1491,25,5,4,francais,f,1,0.1,-79.1774496,0.54283138
5f56468ad62884044a782809,139,2,2024-02-24T09:06:41.543Z,french_412.wav,0,poule,1491,25,5,4,francais,f,2,0.2,-38.59435565,0.86213444
5f56468ad62884044a782809,139,2,2024-02-24T09:06:41.543Z,french_412.wav,0,poule,1491,25,5,4,francais,f,3,0.25666667,65.74010912,0.54314794
5f56468ad62884044a782809,140,2,2024-02-24T09:06:41.543Z,french_238.wav,0,poule,1689,25,5,4,francais,f,0,0.0,-7.77377299,1.79398275
5f56468ad62884044a782809,140,2,2024-02-24T09:06:41.543Z,french_238.wav,0,poule,1689,25,5,4,francais,f,1,0.1,24.08862247,0.12404774
5f56468ad62884044a782809,140,2,2024-02-24T09:06:41.543Z,french_238.wav,0,poule,1689,25,5,4,francais,f,2,0.2,87.10581208,0.76943839
5f56468ad62884044a782809,140,2,2024-02-24T09:06:41.543Z,french_238.wav,0,poule,1689,25,5,4,francais,f,3,0.25666667,73.57906518,1.68164748
5f56468ad62884044a782809,141,2,2024-02-24T09:06:41.543Z,french_235.wav,0,poule,777,25,5,4,francais,f,0,0.0,-56.36701875,1.31563667
5f56468ad62884044a782809,141,2,2024-02-24T09:06:41.543Z,french_235.wav,0,poule,777,25,5,4,francais,f,1,0.1,-33.99236587,1.74570455
5f56468ad62884044a782809,141,2,2024-02-24T09:06:41.543Z,french_235.wav,0,poule,777,25,5,4,francais,f,2,0.2,5.32608114,1.41652928
5f56468ad62884044a782809,141,2,2024-02-24T09:06:41.543Z,french_235.wav,0,poule,777,25,5,4,francais,f,3,0.25666667,-55.46298983,0.87975081
5f56468ad62884044a782809,142,2,2024-02-24T09:06:41.543Z,french_149.wav,0,poule,773,25,5,4,francais,f,0,0.0,28.00275788,1.27183806
5f56468ad62884044a782809,142,2,2024-02-24T09:06:41.543Z,french_149.wav,0,poule,773,25,5,4,francais,f,1,0.1,-46.87803807,1.3685485
5f56468ad62884044a782809,142,2,2024-02-24T09:06:41.543Z,french_149.wav,0,poule,773,25,5,4,francais,f,2,0.2,32.76049197,0.82981236
5f56468ad62884044a782809,142,2,2024-02-24T09:06:41.543Z,french_149.wav,0,poule,773,25,5,4,francais,f,3,0.25666667,-11.80275259,1.21825334
5f56468ad62884044a782809,143,2,2024-02-24T09:06:41.543Z,french_903.wav,0,poule,803,25,5,4,francais,f,0,0.0,-17.08871031,0.50691937
5f56468ad62884044a782809,143,2,2024-02-24T09:06:41.543Z,french_903.wav,0,poule,803,25,5,4,francais,f,1,0.1,52.87150714,1.06902364
5f56468ad62884044a782809,143,2,2024-02-24T09:06:41.543Z,french_903.wav,0,poule,803,25,5,4,francais,f,2,0.2,-46.35078868,1.77440634
5f56468ad62884044a782809,143,2,2024-02-24T09:06:41.543Z,french_903.wav,0,poule,803,25,5,4,francais,f,3,0.25666667,67.27089244,0.5573406
5f56468ad62884044a782809,144,2,2024-02-24T09:06:41.543Z,french_681.wav,0,poule,866,25,5,4,francais,f,0,0.0,-28.020652,0.15084138
5f56468ad62884044a782809,144,2,2024-02-24T09:06:41.543Z,french_681.wav,0,poule,866,25,5,4,francais,f,1,0.1,-7.04160788,1.22079629
5f56468ad62884044a782809,144,2,2024-02-24T09:06:41.543Z,french_681.wav,0,poule,866,25,5,4,francais,f,2,0.2,53.5795515,1.97804896
5f56468ad62884044a782809,144,2,2024-02-24T09:06:41.543Z,french_681.wav,0,poule,866,25,5,4,francais,f,3,0.25666667,-33.12503676,0.44897499
5f56468ad62884044a782809,145,2,2024-02-24T09:06:41.543Z,french_798.wav,0,poule,560,25,5,4,francais,f,0,0.0,80.80013175,1.56222047
5f56468ad62884044a782809,145,2,2024-02-24T09:06:41.543Z,french_798.wav,0,poule,560,25,5,4,francais,f,1,0.1,8.18850232,1.67765441
5f56468ad62884044a782809,145,2,2024-02-24T09:06:41.543Z,french_798.wav,0,poule,560,25,5,4,francais,f,2,0.2,-10.54144101,1.93747014
5f56468ad62884044a782809,145,2,2024-02-24T09:06:41.543Z,french_798.wav,0,poule,560,25,5,4,francais,f,3,0.25666667,26.86908184,1.76378238
5f56468ad62884044a782809,146,2,2024-02-24T09:06:41.543Z,french_377.wav,0,poule,511,25,5,4,francais,f,0,0.0,99.29202042,1.14982617
5f56468ad62884044a782809,146,2,2024-02-24T09:06:41.543Z,french_377.wav,0,poule,511,25,5,4,francais,f,1,0.1,26.86177352,1.68513437
5f56468ad62884044a782809,146,2,2024-02-24T09:06:41.543Z,french_377.wav,0,poule,511,25,5,4,francais,f,2,0.2,-57.22110681,0.38363532
5f56468ad62884044a782809,146,2,2024-02-24T09:06:41.543Z,french_377.wav,0,poule,511,25,5,4,francais,f,3,0.25666667,67.5545455,0.68728301
5f56468ad62884044a782809,147,2,2024-02-24T09:06:41.543Z,french_790.wav,0,pull,2002,25,5,4,francais,f,0,0.0,-78.0899986,0.03777082
5f56468ad62884044a782809,147,2,2024-02-24T09:06:41.543Z,french_790.wav,0,pull,2002,25,5,4,francais,f,1,0.1,-13.38999599,1.54425687
5f56468ad62884044a782809,147,2,2024-02-24T09:06:41.543Z,french_790.wav,0,pull,2002,25,5,4,francais,f,2,0.2,-59.88967217,0.07634696
5f56468ad62884044a782809,147,2,2024-02-24T09:06:41.543Z,french_790.wav,0,pull,2002,25,5,4,francais,f,3,0.25666667,34.06701256,1.62279479
5f56468ad62884044a782809,148,2,2024-02-24T09:06:41.543Z,french_73.wav,0,pull,1421,25,5,4,francais,f,0,0.0,79.91377479,0.94290919
5f56468ad62884044a782809,148,2,2024-02-24T09:06:41.543Z,french_73.wav,0,pull,1421,25,5,4,francais,f,1,0.1,21.44914026,0.58511712
5f56468ad62884044a782809,148,2,2024-02-24T09:06:41.543Z,french_73.wav,0,pull,1421,25,5,4,francais,f,2,0.2,94.23892751,1.07660977
5f56468ad62884044a782809,148,2,2024-02-24T09:06:41.543Z,french_73.wav,0,pull,1421,25,5,4,francais,f,3,0.25666667,-26.36168046,0.0399298
5f56468ad62884044a782809,149,2,2024-02-24T09:06:41.543Z,french_527.wav,0,pull,870,25,5,4,francais,f,0,0.0,97.81644093,0.09503525
5f56468ad62884044a782809,149,2,2024-02-24T09:06:41.543Z,french_527.wav,0,pull,870,25,5,4,francais,f,1,0.1,68.05004199,0.33267387
5f56468ad62884044a782809,149,2,2024-02-24T09:06:41.543Z,french_527.wav,0,pull,870,25,5,4,francais,f,2,0.2,-44.05597581,1.51053464
5f56468ad62884044a782809,149,2,2024-02-24T09:06:41.543Z,french_527.wav,0,pull,870,25,5,4,francais,f,3,0.25666667,40.91945638,1.37458991
5f56468ad62884044a782809,150,3,2024-02-24T09:06:41.543Z,french_694.wav,0,poule,562,25,5,4,francais,f,0,0.0,17.77218449,1.83585748
5f56468ad62884044a782809,150,3,2024-02-24T09:06:41.543Z,french_694.wav,0,poule,562,25,5,4,francais,f,1,0.1,99.46599521,0.80026037
5f56468ad62884044a782809,150,3,2024-02-24T09:06:41.543Z,french_694.wav,0,poule,562,25,5,4,francais,f,2,0.2,-15.42512366,1.77531791
5f56468ad62884044a782809,150,3,2024-02-24T09:06:41.543Z,french_694.wav,0,poule,562,25,5,4,francais,f,3,0.25666667,-86.21441247,1.07868716
5f56468ad62884044a782809,151,3,2024-02-24T09:06:41.543Z,french_81.wav,0,poule,361,25,5,4,francais,f,0,0.0,43.03410676,0.84411959
5f56468ad62884044a782809,151,3,2024-02-24T09:06:41.543Z,french_81.wav,0,poule,361,25,5,4,francais,f,1,0.1,37.87573495,1.10924478
5f56468ad62884044a782809,151,3,2024-02-24T09:06:41.543Z,french_81.wav,0,poule,361,25,5,4,francais,f,2,0.2,-9.17332854,1.82652056
5f56468ad62884044a782809,151,3,2024-02-24T09:06:41.543Z,french_81.wav,0,poule,361,25,5,4,francais,f,3,0.25666667,10.13667473,1.52638082
5f56468ad62884044a782809,152,3,2024-02-24T09:06:41.543Z,french_136.wav,0,poule,370,25,5,4,francais,f,0,0.0,-19.24670356,0.58320819
5f56468ad62884044a782809,152,3,2024-02-24T09:06:41.543Z,french_136.wav,0,poule,370,25,5,4,francais,f,1,0.1,-19.07264886,1.75711633
5f56468ad62884044a782809,152,3,2024-02-24T09:06:41.543Z,french_136.wav,0,poule,370,25,5,4,francais,f,2,0.2,-15.66011034,0.20485265
5f56468ad62884044a782809,152,3,2024-02-24T09:06:41.543Z,french_136.wav,0,poule,370,25,5,4,francais,f,3,0.25666667,-21.38655245,0.63500763
5f56468ad62884044a782809,153,3,2024-02-24T09:06:41.543Z,french_68.wav,0,poule,506,25,5,4,francais,f,0,0.0,58.83829029,1.80244508
5f56468ad62884044a782809,153,3,2024-02-24T09:06:41.543Z,french_68.wav,0,poule,506,25,5,4,francais,f,1,0.1,77.59339865,1.3442738
5f56468ad62884044a782809,153,3,2024-02-24T09:06:41.543Z,french_68.wav,0,poule,506,25,5,4,francais,f,2,0.2,-73.88341881,1.16581557
5f56468ad62884044a782809,153,3,2024-02-24T09:06:41.543Z,french_68.wav,0,poule,506,25,5,4,francais,f,3,0.25666667,-24.56901296,0.71132336
5f56468ad62884044a782809,154,3,2024-02-24T09:06:41.543Z,french_97.wav,0,poule,1549,25,5,4,francais,f,0,0.0,-26.25195718,1.78322942
5f56468ad62884044a782809,154,3,2024-02-24T09:06:41.543Z,french_97.wav,0,poule,1549,25,5,4,francais,f,1,0.1,46.36733761,0.61428926
5f56468ad62884044a782809,154,3,2024-02-24T09:06:41.543Z,french_97.wav,0,poule,1549,25,5,4,francais,f,2,0.2,-70.05850246,0.23760427
5f56468ad62884044a782809,154,3,2024-02-24T09:06:41.543Z,french_97.wav,0,poule,1549,25,5,4,francais,f,3,0.25666667,-12.16166803,0.84541126
5f56468ad62884044a782809,155,3,2024-02-24T09:06:41.543Z,french_874.wav,0,poule,702,25,5,4,francais,f,0,0.0,-35.96007818,0.94126631
5f56468ad62884044a782809,155,3,2024-02-24T09:06:41.543Z,french_874.wav,0,poule,702,25,5,4,francais,f,1,0.1,93.27546243,1.47253108
5f56468ad62884044a782809,155,3,2024-02-24T09:06:41.543Z,french_874.wav,0,poule,702,25,5,4,francais,f,2,0.2,-82.54110259,1.71868685
5f56468ad62884044a782809,155,3,2024-02-24T09:06:41.543Z,french_874.wav,0,poule,702,25,5,4,francais,f,3,0.25666667,1.86870901,0.93280664
5f56468ad62884044a782809,156,3,2024-02-24T09:06:41.543Z,french_834.wav,0,poule,1295,25,5,4,francais,f,0,0.0,-86.08965853,1.35817583
5f56468ad62884044a782809,156,3,2024-02-24T09:06:41.543Z,french_834.wav,0,poule,1295,25,5,4,francais,f,1,0.1,69.78931281,0.2902945
5f56468ad62884044a782809,156,3,2024-02-24T09:06:41.543Z,french_834.wav,0,poule,1295,25,5,4,francais,f,2,0.2,-42.1324214,0.84488429
5f56468ad62884044a782809,156,3,2024-02-24T09:06:41.543Z,french_834.wav,0,poule,1295,25,5,4,francais,f,3,0.25666667,-13.11810425,0.59655356
5f56468ad62884044a782809,157,3,2024-02-24T09:06:41.543Z,french_872.wav,0,poule,430,25,5,4,francais,f,0,0.0,85.31192626,1.27180188
5f56468ad62884044a782809,157,3,2024-02-24T09:06:41.543Z,french_872.wav,0,poule,430,25,5,4,francais,f,1,0.1,-62.96284321,0.82867252
5f56468ad62884044a782809,157,3,2024-02-24T09:06:41.543Z,french_872.wav,0,poule,430,25,5,4,francais,f,2,0.2,93.26127986,1.69740624
5f56468ad62884044a782809,157,3,2024-02-24T09:06:41.543Z,french_872.wav,0,poule,430,25,5,4,francais,f,3,0.25666667,48.13314647,0.31258738
5f56468ad62884044a782809,158,3,2024-02-24T09:06:41.543Z,french_954.wav,0,poule,395,25,5,4,francais,f,0,0.0,-31.81965022,1.69468269
5f56468ad62884044a782809,158,3,2024-02-24T09:06:41.543Z,french_954.wav,0,poule,395,25,5,4,francais,f,1,0.1,82.90828133,0.7734121
5f56468ad62884044a782809,158,3,2024-02-24T09:06:41.543Z,french_954.wav,0,poule,395,25,5,4,francais,f,2,0.2,94.68318648,0.43346946
5f56468ad62884044a782809,158,3,2024-02-24T09:06:41.543Z,french_954.wav,0,poule,395,25,5,4,francais,f,3,0.25666667,-42.01635115,0.14112827
5f56468ad62884044a782809,159,3,2024-02-24T09:06:41.543Z,french_988.wav,0,poule,849,25,5,4,francais,f,0,0.0,-4.11470775,0.28957615
5f56468ad62884044a782809,159,3,2024-02-24T09:06:41.543Z,french_988.wav,0,poule,849,25,5,4,francais,f,1,0.1,-66.00013865,0.7977557
5f56468ad62884044a782809,159,3,2024-02-24T09:06:41.543Z,french_988.wav,0,poule,849,25,5,4,francais,f,2,0.2,59.59027652,1.24206297
5f56468ad62884044a782809,159,3,2024-02-24T09:06:41.543Z,french_988.wav,0,poule,849,25,5,4,francais,f,3,0.25666667,0.47429662,1.11640868
5f56468ad62884044a782809,160,3,2024-02-24T09:06:41.543Z,french_571.wav,0,poule,316,25,5,4,francais,f,0,0.0,31.56469904,0.97268691
5f56468ad62884044a782809,160,3,2024-02-24T09:06:41.543Z,french_571.wav,0,poule,316,25,5,4,francais,f,1,0.1,44.5277229,1.62706688
5f56468ad62884044a782809,160,3,2024-02-24T09:06:41.543Z,french_571.wav,0,poule,316,25,5,4,francais,f,2,0.2,41.67262287,1.42821868
5f56468ad62884044a782809,160,3,2024-02-24T09:06:41.543Z,french_571.wav,0,poule,316,25,5,4,francais,f,3,0.25666667,9.54247743,0.83693393
5f56468ad62884044a782809,161,3,2024-02-24T09:06:41.543Z,french_504.wav,0,poule,378,25,5,4,francais,f,0,0.0,-0.09953376,1.58426169
5f56468ad62884044a782809,161,3,2024-02-24T09:06:41.543Z,french_504.wav,0,poule,378,25,5,4,francais,f,1,0.1,-56.24331475,0.92396286
5f56468ad62884044a782809,161,3,2024-02-24T09:06:41.543Z,french_504.wav,0,poule,378,25,5,4,francais,f,2,0.2,-79.12350098,0.70640993
5f56468ad62884044a782809,161,3,2024-02-24T09:06:41.543Z,french_504.wav,0,poule,378,25,5,4,francais,f,3,0.25666667,64.25656878,0.80299587
5f56468ad62884044a782809,162,3,2024-02-24T09:06:41.543Z,french_570.wav,0,pull,903,25,5,4,francais,f,0,0.0,-73.07970403,1.97071113
5f56468ad62884044a782809,162,3,2024-02-24T09:06:41.543Z,french_570.wav,0,pull,903,25,5,4,francais,f,1,0.1,-29.06072458,1.64236312
5f56468ad62884044a782809,162,3,2024-02-24T09:06:41.543Z,french_570.wav,0,pull,903,25,5,4,francais,f,2,0.2,-25.44054287,0.27343611
5f56468ad62884044a782809,162,3,2024-02-24T09:06:41.543Z,french_570.wav,0,pull,903,25,5,4,francais,f,3,0.25666667,96.93308839,1.31029171
5f56468ad62884044a782809,163,3,2024-02-24T09:06:41.543Z,french_767.wav,0,poule,600,25,5,4,francais,f,0,0.0,91.79298807,1.15796888
5f56468ad62884044a782809,163,3,2024-02-24T09:06:41.543Z,french_767.wav,0,poule,600,25,5,4,francais,f,1,0.1,-10.9319541,0.37743288
5f56468ad62884044a782809,163,3,2024-02-24T09:06:41.543Z,french_767.wav,0,poule,600,25,5,4,francais,f,2,0.2,-18.13246944,1.06132115
5f56468ad62884044a782809,163,3,2024-02-24T09:06:41.543Z,french_767.wav,0,poule,600,25,5,4,francais,f,3,0.25666667,-6.11346908,0.41668969
5f56468ad62884044a782809,164,3,2024-02-24T09:06:41.543Z,french_805.wav,0,poule,440,25,5,4,francais,f,0,0.0,21.15897581,1.3244225
5f56468ad62884044a782809,164,3,2024-02-24T09:06:41.543Z,french_805.wav,0,poule,440,25,5,4,francais,f,1,0.1,-84.51795283,0.68750265
5f56468ad62884044a782809,164,3,2024-02-24T09:06:41.543Z,french_805.wav,0,poule,440,25,5,4,francais,f,2,0.2,72.20878309,0.56084624
5f56468ad62884044a782809,164,3,2024-02-24T09:06:41.543Z,french_805.wav,0,poule,440,25,5,4,francais,f,3,0.25666667,-28.14016055,0.45412894
5f56468ad62884044a782809,165,3,2024-02-24T09:06:41.543Z,french_744.wav,0,poule,1091,25,5,4,francais,f,0,0.0,20.71284991,1.22360564
5f56468ad62884044a782809,165,3,2024-02-24T09:06:41.543Z,french_744.wav,0,poule,1091,25,5,4,francais,f,1,0.1,43.41893938,1.58460028
5f56468ad62884044a782809,165,3,2024-02-24T09:06:41.543Z,french_744.wav,0,poule,1091,25,5,4,francais,f,2,0.2,65.94530402,0.38406236
5f56468ad62884044a782809,165,3,2024-02-24T09:06:41.543Z,french_744.wav,0,poule,1091,25,5,4,francais,f,3,0.25666667,-59.234779,0.69273959
5f56468ad62884044a782809,166,3,2024-02-24T09:06:41.543Z,french_630.wav,0,poule,1651,25,5,4,francais,f,0,0.0,77.73428331,1.3363399
5f56468ad62884044a782809,166,3,2024-02-24T09:06:41.543Z,french_630.wav,0,poule,1651,25,5,4,francais,f,1,0.1,-25.60495453,1.21399003
5f56468ad62884044a782809,166,3,2024-02-24T09:06:41.543Z,french_630.wav,0,poule,1651,25,5,4,francais,f,2,0.2,64.05787884,0.69039687
5f56468ad62884044a782809,166,3,2024-02-24T09:06:41.543Z,french_630.wav,0,poule,1651,25,5,4,francais,f,3,0.25666667,12.38181906,0.92340198
5f56468ad62884044a782809,167,3,2024-02-24T09:06:41.543Z,french_992.wav,0,poule,511,25,5,4,francais,f,0,0.0,88.64163737,1.670281
5f56468ad62884044a782809,167,3,2024-02-24T09:06:41.543Z,french_992.wav,0,poule,511,25,5,4,francais,f,1,0.1,46.51622821,0.7447474
5f56468ad62884044a782809,167,3,2024-02-24T09:06:41.543Z,french_992.wav,0,poule,511,25,5,4,francais,f,2,0.2,89.40723484,0.87778012
5f56468ad62884044a782809,167,3,2024-02-24T09:06:41.543Z,french_992.wav,0,poule,511,25,5,4,francais,f,3,0.25666667,-7.16948766,1.06303204
5f56468ad62884044a782809,168,3,2024-02-24T09:06:41.543Z,french_612.wav,0,poule,459,25,5,4,francais,f,0,0.0,43.10783066,0.49686358
5f56468ad62884044a782809,168,3,2024-02-24T09:06:41.543Z,french_612.wav,0,poule,459,25,5,4,francais,f,1,0.1,-4.14995098,1.10500502
5f56468ad62884044a782809,168,3,2024-02-24T09:06:41.543Z,french_612.wav,0,poule,459,25,5,4,francais,f,2,0.2,22.17563662,0.22222502
5f56468ad62884044a782809,168,3,2024-02-24T09:06:41.543Z,french_612.wav,0,poule,459,25,5,4,francais,f,3,0.25666667,-48.75850842,1.14111641
5f56468ad62884044a782809,169,3,2024-02-24T09:06:41.543Z,french_132.wav,0,pull,622,25,5,4,francais,f,0,0.0,55.7159221,0.1336911
5f56468ad62884044a782809,169,3,2024-02-24T09:06:41.543Z,french_132.wav,0,pull,622,25,5,4,francais,f,1,0.1,96.01047895,1.63690434
5f56468ad62884044a782809,169,3,2024-02-24T09:06:41.543Z,french_132.wav,0,pull,622,25,5,4,francais,f,2,0.2,-30.71931346,0.7825174
5f56468ad62884044a782809,169,3,2024-02-24T09:06:41.543Z,french_132.wav,0,pull,622,25,5,4,francais,f,3,0.25666667,34.53763016,1.49477333
5f56468ad62884044a782809,170,3,2024-02-24T09:06:41.543Z,french_909.wav,0,poule,543,25,5,4,francais,f,0,0.0,-17.91805132,1.11522258
5f56468ad62884044a782809,170,3,2024-02-24T09:06:41.543Z,french_909.wav,0,poule,543,25,5,4,francais,f,1,0.1,-79.7145309,0.65372787
5f56468ad62884044a782809,170,3,2024-02-24T09:06:41.543Z,french_909.wav,0,poule,543,25,5,4,francais,f,2,0.2,-13.28374128,0.18130759
5f56468ad62884044a782809,170,3,2024-02-24T09:06:41.543Z,french_909.wav,0,poule,543,25,5,4,francais,f,3,0.25666667,80.91359626,1.7666171
5f56468ad62884044a782809,171,3,2024-02-24T09:06:41.543Z,french_167.wav,0,pull,515,25,5,4,francais,f,0,0.0,35.64973643,1.28189169
5f56468ad62884044a782809,171,3,2024-02-24T09:06:41.543Z,french_167.wav,0,pull,515,25,5,4,francais,f,1,0.1,44.83065125,1.79221575
5f56468ad62884044a782809,171,3,2024-02-24T09:06:41.543Z,french_167.wav,0,pull,515,25,5,4,francais,f,2,0.2,-2.88275541,1.75452965
5f56468ad62884044a782809,171,3,2024-02-24T09:06:41.543Z,french_167.wav,0,pull,515,25,5,4,francais,f,3,0.25666667,-92.53521205,1.25057705
5f56468ad62884044a782809,172,3,2024-02-24T09:06:41.543Z,french_256.wav,0,pull,1617,25,5,4,francais,f,0,0.0,34.00641445,1.19838094
5f56468ad62884044a782809,172,3,2024-02-24T09:06:41.543Z,french_256.wav,0,pull,1617,25,5,4,francais,f,1,0.1,78.12380502,0.9412232
5f56468ad62884044a782809,172,3,2024-02-24T09:06:41.543Z,french_256.wav,0,pull,1617,25,5,4,francais,f,2,0.2,84.97245465,1.34630265
5f56468ad62884044a782809,172,3,2024-02-24T09:06:41.543Z,french_256.wav,0,pull,1617,25,5,4,francais,f,3,0.25666667,29.4187394,1.86077871
5f56468ad62884044a782809,173,3,2024-02-24T09:06:41.543Z,french_16.wav,0,poule,402,25,5,4,francais,f,0,0.0,-0.6461067,1.33944457
5f56468ad62884044a782809,173,3,2024-02-24T09:06:41.543Z,french_16.wav,0,poule,402,25,5,4,francais,f,1,0.1,90.1568776,0.35137866
5f56468ad62884044a782809,173,3,2024-02-24T09:06:41.543Z,french_16.wav,0,poule,402,25,5,4,francais,f,2,0.2,64.8388413,1.61271584
5f56468ad62884044a782809,173,3,2024-02-24T09:06:41.543Z,french_16.wav,0,poule,402,25,5,4,francais,f,3,0.25666667,-49.08803112,0.05305125
5f56468ad62884044a782809,174,3,2024-02-24T09:06:41.543Z,french_710.wav,0,poule,964,25,5,4,francais,f,0,0.0,-54.00258077,0.87889336
5f56468ad62884044a782809,174,3,2024-02-24T09:06:41.543Z,french_710.wav,0,poule,964,25,5,4,francais,f,1,0.1,34.45486491,0.7692559
5f56468ad62884044a782809,174,3,2024-02-24T09:06:41.543Z,french_710.wav,0,poule,964,25,5,4,francais,f,2,0.2,63.8215693,0.4253567
5f56468ad62884044a782809,174,3,2024-02-24T09:06:41.543Z,french_710.wav,0,poule,964,25,5,4,francais,f,3,0.25666667,15.83931319,0.40649008
5f56468ad62884044a782809,175,3,2024-02-24T09:06:41.543Z,french_556.wav,0,pull,1508,25,5,4,francais,f,0,0.0,57.69742807,1.23910924
5f56468ad62884044a782809,175,3,2024-02-24T09:06:41.543Z,french_556.wav,0,pull,1508,25,5,4,francais,f,1,0.1,74.69192241,0.49477788
5f56468ad62884044a782809,175,3,2024-02-24T09:06:41.543Z,french_556.wav,0,pull,1508,25,5,4,francais,f,2,0.2,-92.88512431,1.56323012
5f56468ad62884044a782809,175,3,2024-02-24T09:06:41.543Z,french_556.wav,0,pull,1508,25,5,4,francais,f,3,0.25666667,27.11476112,1.7455964
5f56468ad62884044a782809,176,3,2024-02-24T09:06:41.543Z,french_713.wav,0,poule,987,25,5,4,francais,f,0,0.0,93.33204992,0.23689023
5f56468ad62884044a782809,176,3,2024-02-24T09:06:41.543Z,french_713.wav,0,poule,987,25,5,4,francais,f,1,0.1,-15.69856834,0.32059987
5f56468ad62884044a782809,176,3,2024-02-24T09:06:41.543Z,french_713.wav,0,poule,987,25,5,4,francais,f,2,0.2,18.82527382,0.78497323
5f56468ad62884044a782809,176,3,2024-02-24T09:06:41.543Z,french_713.wav,0,poule,987,25,5,4,francais,f,3,0.25666667,-49.17212055,0.28269646
5f56468ad62884044a782809,177,3,2024-02-24T09:06:41.543Z,french_678.wav,0,pull,1241,25,5,4,francais,f,0,0.0,8.99494286,0.31277465
5f56468ad62884044a782809,177,3,2024-02-24T09:06:41.543Z,french_678.wav,0,pull,1241,25,5,4,francais,f,1,0.1,56.3447022,0.04822955
5f56468ad62884044a782809,177,3,2024-02-24T09:06:41.543Z,french_678.wav,0,pull,1241,25,5,4,francais,f,2,0.2,-85.36803825,0.03738606
5f56468ad62884044a782809,177,3,2024-02-24T09:06:41.543Z,french_678.wav,0,pull,1241,25,5,4,francais,f,3,0.25666667,-65.39277698,1.60364947
5f56468ad62884044a782809,178,3,2024-02-24T09:06:41.543Z,french_949.wav,0,pull,924,25,5,4,francais,f,0,0.0,29.18752906,0.08608659
5f56468ad62884044a782809,178,3,2024-02-24T09:06:41.543Z,french_949.wav,0,pull,924,25,5,4,francais,f,1,0.1,-67.27756955,1.93613179
5f56468ad62884044a782809,178,3,2024-02-24T09:06:41.543Z,french_949.wav,0,pull,924,25,5,4,francais,f,2,0.2,55.26419326,0.81834021
5f56468ad62884044a782809,178,3,2024-02-24T09:06:41.543Z,french_949.wav,0,pull,924,25,5,4,francais,f,3,0.25666667,11.27327126,0.09029871
5f56468ad62884044a782809,179,3,2024-02-24T09:06:41.543Z,french_892.wav,0,poule,430,25,5,4,francais,f,0,0.0,-9.89123065,1.43345907
5f56468ad62884044a782809,179,3,2024-02-24T09:06:41.543Z,french_892.wav,0,poule,430,25,5,4,francais,f,1,0.1,-29.48301763,0.60115207
5f56468ad62884044a782809,179,3,2024-02-24T09:06:41.543Z,french_892.wav,0,poule,430,25,5,4,francais,f,2,0.2,-20.12274852,0.51672516
5f56468ad62884044a782809,179,3,2024-02-24T09:06:41.543Z,french_892.wav,0,poule,430,25,5,4,francais,f,3,0.25666667,-63.31716547,0.2983609
5f56468ad62884044a782809,180,3,2024-02-24T09:06:41.543Z,french_607.wav,0,pull,955,25,5,4,francais,f,0,0.0,86.31857573,1.61060215
5f56468ad62884044a782809,180,3,2024-02-24T09:06:41.543Z,french_607.wav,0,pull,955,25,5,4,francais,f,1,0.1,-46.02697415,1.76940735
5f56468ad62884044a782809,180,3,2024-02-24T09:06:41.543Z,french_607.wav,0,pull,955,25,5,4,francais,f,2,0.2,45.41214831,0.70600977
5f56468ad62884044a782809,180,3,2024-02-24T09:06:41.543Z,french_607.wav,0,pull,955,25,5,4,francais,f,3,0.25666667,58.05056059,0.79164166
5f56468ad62884044a782809,181,3,2024-02-24T09:06:41.543Z,french_446.wav,0,poule,1061,25,5,4,francais,f,0,0.0,-77.26428063,0.33935674
5f56468ad62884044a782809,181,3,2024-02-24T09:06:41.543Z,french_446.wav,0,poule,1061,25,5,4,francais,f,1,0.1,-65.30305353,1.45146817
5f56468ad62884044a782809,181,3,2024-02-24T09:06:41.543Z,french_446.wav,0,poule,1061,25,5,4,francais,f,2,0.2,-57.58787345,0.82478891
5f56468ad62884044a782809,181,3,2024-02-24T09:06:41.543Z,french_446.wav,0,poule,1061,25,5,4,francais,f,3,0.25666667,16.67337698,1.36014186
5f56468ad62884044a782809,182,3,2024-02-24T09:06:41.543Z,french_938.wav,0,poule,381,25,5,4,francais,f,0,0.0,-81.44382825,1.9747372
5f56468ad62884044a782809,182,3,2024-02-24T09:06:41.543Z,french_938.wav,0,poule,381,25,5,4,francais,f,1,0.1,70.63637201,1.46978645
5f56468ad62884044a782809,182,3,2024-02-24T09:06:41.543Z,french_938.wav,0,poule,381,25,5,4,francais,f,2,0.2,29.19185054,1.77157462
5f56468ad62884044a782809,182,3,2024-02-24T09:06:41.543Z,french_938.wav,0,poule,381,25,5,4,francais,f,3,0.25666667,62.72928817,1.30296517
5f56468ad62884044a782809,183,3,2024-02-24T09:06:41.543Z,french_534.wav,0,poule,479,25,5,4,francais,f,0,0.0,96.41776506,0.28463844
5f56468ad62884044a782809,183,3,2024-02-24T09:06:41.543Z,french_534.wav,0,poule,479,25,5,4,francais,f,1,0.1,-53.52749338,1.69872517
5f56468ad62884044a782809,183,3,2024-02-24T09:06:41.543Z,french_534.wav,0,poule,479,25,5,4,francais,f,2,0.2,51.10087415,0.80798533
5f56468ad62884044a782809,183,3,2024-02-24T09:06:41.543Z,french_534.wav,0,poule,479,25,5,4,francais,f,3,0.25666667,27.39654188,1.79838566
5f56468ad62884044a782809,184,3,2024-02-24T09:06:41.543Z,french_105.wav,0,poule,425,25,5,4,francais,f,0,0.0,-23.09315354,0.81757602
5f56468ad62884044a782809,184,3,2024-02-24T09:06:41.543Z,french_105.wav,0,poule,425,25,5,4,francais,f,1,0.1,-46.9361669,0.98193048
5f56468ad62884044a782809,184,3,2024-02-24T09:06:41.543Z,french_105.wav,0,poule,425,25,5,4,francais,f,2,0.2,-8.58781729,1.53786831
5f56468ad62884044a782809,184,3,2024-02-24T09:06:41.543Z,french_105.wav,0,poule,425,25,5,4,francais,f,3,0.25666667,56.68271074,0.84600103
5f56468ad62884044a782809,185,3,2024-02-24T09:06:41.543Z,french_455.wav,0,poule,677,25,5,4,francais,f,0,0.0,-38.32224649,1.67202697
5f56468ad62884044a782809,185,3,2024-02-24T09:06:41.543Z,french_455.wav,0,poule,677,25,5,4,francais,f,1,0.1,16.6107471,0.91904085
5f56468ad62884044a782809,185,3,2024-02-24T09:06:41.543Z,french_455.wav,0,poule,677,25,5,4,francais,f,2,0.2,-53.73538957,1.09329776
5f56468ad62884044a782809,185,3,2024-02-24T09:06:41.543Z,french_455.wav,0,poule,677,25,5,4,francais,f,3,0.25666667,-39.28573671,1.37901108
5f56468ad62884044a782809,186,3,2024-02-24T09:06:41.543Z,french_158.wav,0,poule,465,25,5,4,francais,f,0,0.0,72.88318106,1.5476705
5f56468ad62884044a782809,186,3,2024-02-24T09:06:41.543Z,french_158.wav,0,poule,465,25,5,4,francais,f,1,0.1,51.2800476,1.92933226
5f56468ad62884044a782809,186,3,2024-02-24T09:06:41.543Z,french_158.wav,0,poule,465,25,5,4,francais,f,2,0.2,-29.39007937,1.77733774
5f56468ad62884044a782809,186,3,2024-02-24T09:06:41.543Z,french_158.wav,0,poule,465,25,5,4,francais,f,3,0.25666667,87.52810159,1.82253327
5f56468ad62884044a782809,187,3,2024-02-24T09:06:41.543Z,french_878.wav,0,poule,1126,25,5,4,francais,f,0,0.0,-11.41587957,1.5495917
5f56468ad62884044a782809,187,3,2024-02-24T09:06:41.543Z,french_878.wav,0,poule,1126,25,5,4,francais,f,1,0.1,-52.86145621,0.92573348
5f56468ad62884044a782809,187,3,2024-02-24T09:06:41.543Z,french_878.wav,0,poule,1126,25,5,4,francais,f,2,0.2,10.56905128,0.71371417
5f56468ad62884044a782809,187,3,2024-02-24T09:06:41.543Z,french_878.wav,0,poule,1126,25,5,4,francais,f,3,0.25666667,87.23323491,0.72785239
5f56468ad62884044a782809,188,3,2024-02-24T09:06:41.543Z,french_357.wav,0,poule,556,25,5,4,francais,f,0,0.0,-39.34197693,1.60610182
5f56468ad62884044a782809,188,3,2024-02-24T09:06:41.543Z,french_357.wav,0,poule,556,25,5,4,francais,f,1,0.1,71.15894406,0.3952593
5f56468ad62884044a782809,188,3,2024-02-24T09:06:41.543Z,french_357.wav,0,poule,556,25,5,4,francais,f,2,0.2,-59.30154436,0.60654741
5f56468ad62884044a782809,188,3,2024-02-24T09:06:41.543Z,french_357.wav,0,poule,556,25,5,4,francais,f,3,0.25666667,60.48174113,0.43480054
5f56468ad62884044a782809,189,3,2024-02-24T09:06:41.543Z,french_828.wav,0,poule,659,25,5,4,francais,f,0,0.0,-2.7154125,0.72553522
5f56468ad62884044a782809,189,3,2024-02-24T09:06:41.543Z,french_828.wav,0,poule,659,25,5,4,francais,f,1,0.1,-36.83814983,1.24313396
5f56468ad62884044a782809,189,3,2024-02-24T09:06:41.543Z,french_828.wav,0,poule,659,25,5,4,francais,f,2,0.2,-50.98592502,0.62544862
5f56468ad62884044a782809,189,3,2024-02-24T09:06:41.543Z,french_828.wav,0,poule,659,25,5,4,francais,f,3,0.25666667,-48.36073317,1.19233037
