subj,trial,block,date,stim,stim_order,response,rt,age,english,french,language,sex,param_index,segment,pitch,stretch
58a23b2b27c3bb00014e6d9a,0,0,2024-02-24T08:35:48.313Z,french_924.wav,0,pull,5519,40,4,5,français,f,0,0.0,19.51956159,0.29322561
58a23b2b27c3bb00014e6d9a,0,0,2024-02-24T08:35:48.313Z,french_924.wav,0,pull,5519,40,4,5,français,f,1,0.1,-22.93629197,0.34885274
58a23b2b27c3bb00014e6d9a,0,0,2024-02-24T08:35:48.313Z,french_924.wav,0,pull,5519,40,4,5,français,f,2,0.2,72.54596199,0.3497483
58a23b2b27c3bb00014e6d9a,0,0,2024-02-24T08:35:48.313Z,french_924.wav,0,pull,5519,40,4,5,français,f,3,0.25666667,13.27885696,0.14375838
58a23b2b27c3bb00014e6d9a,1,0,2024-02-24T08:35:48.313Z,french_46.wav,0,poule,2153,40,4,5,français,f,0,0.0,-59.72524318,1.59606806
58a23b2b27c3bb00014e6d9a,1,0,2024-02-24T08:35:48.313Z,french_46.wav,0,poule,2153,40,4,5,français,f,1,0.1,-28.22082853,1.01173367
58a23b2b27c3bb00014e6d9a,1,0,2024-02-24T08:35:48.313Z,french_46.wav,0,poule,2153,40,4,5,français,f,2,0.2,2.0739194,0.40164164
58a23b2b27c3bb00014e6d9a,1,0,2024-02-24T08:35:48.313Z,french_46.wav,0,poule,2153,40,4,5,français,f,3,0.25666667,-12.25343829,1.6352238
58a23b2b27c3bb00014e6d9a,2,0,2024-02-24T08:35:48.313Z,french_353.wav,0,poule,1305,40,4,5,français,f,0,0.0,-27.01804801,0.51521002
58a23b2b27c3bb00014e6d9a,2,0,2024-02-24T08:35:48.313Z,french_353.wav,0,poule,1305,40,4,5,français,f,1,0.1,16.22716876,1.40915564
58a23b2b27c3bb00014e6d9a,2,0,2024-02-24T08:35:48.313Z,french_353.wav,0,poule,1305,40,4,5,français,f,2,0.2,-38.75476954,1.13160084
58a23b2b27c3bb00014e6d9a,2,0,2024-02-24T08:35:48.313Z,french_353.wav,0,poule,1305,40,4,5,français,f,3,0.25666667,38.92446625,0.21009684
58a23b2b27c3bb00014e6d9a,3,0,2024-02-24T08:35:48.313Z,french_186.wav,0,poule,636,40,4,5,français,f,0,0.0,-80.05391137,1.48946386
58a23b2b27c3bb00014e6d9a,3,0,2024-02-24T08:35:48.313Z,french_186.wav,0,poule,636,40,4,5,français,f,1,0.1,-76.4275614,1.35064599
58a23b2b27c3bb00014e6d9a,3,0,2024-02-24T08:35:48.313Z,french_186.wav,0,poule,636,40,4,5,français,f,2,0.2,7.24631247,0.88239158
58a23b2b27c3bb00014e6d9a,3,0,2024-02-24T08:35:48.313Z,french_186.wav,0,poule,636,40,4,5,français,f,3,0.25666667,-47.449751,1.60975952
58a23b2b27c3bb00014e6d9a,4,0,2024-02-24T08:35:48.313Z,french_39.wav,0,poule,2196,40,4,5,français,f,0,0.0,-37.58690814,0.69509593
58a23b2b27c3bb00014e6d9a,4,0,2024-02-24T08:35:48.313Z,french_39.wav,0,poule,2196,40,4,5,français,f,1,0.1,64.36969435,0.9899387
58a23b2b27c3bb00014e6d9a,4,0,2024-02-24T08:35:48.313Z,french_39.wav,0,poule,2196,40,4,5,français,f,2,0.2,-16.17747505,1.54991446
58a23b2b27c3bb00014e6d9a,4,0,2024-02-24T08:35:48.313Z,french_39.wav,0,poule,2196,40,4,5,français,f,3,0.25666667,-31.52468705,1.42558302
58a23b2b27c3bb00014e6d9a,5,0,2024-02-24T08:35:48.313Z,french_871.wav,0,poule,414,40,4,5,français,f,0,0.0,-4.85456223,1.97775754
58a23b2b27c3bb00014e6d9a,5,0,2024-02-24T08:35:48.313Z,french_871.wav,0,poule,414,40,4,5,français,f,1,0.1,78.38715758,1.19373072
58a23b2b27c3bb00014e6d9a,5,0,2024-02-24T08:35:48.313Z,french_871.wav,0,poule,414,40,4,5,français,f,2,0.2,-65.12117647,1.5578529
58a23b2b27c3bb00014e6d9a,5,0,2024-02-24T08:35:48.313Z,french_871.wav,0,poule,414,40,4,5,français,f,3,0.25666667,96.09900544,1.61262149
58a23b2b27c3bb00014e6d9a,6,0,2024-02-24T08:35:48.313Z,french_363.wav,0,poule,1894,40,4,5,français,f,0,0.0,53.04818478,0.48026107
58a23b2b27c3bb00014e6d9a,6,0,2024-02-24T08:35:48.313Z,french_363.wav,0,poule,1894,40,4,5,français,f,1,0.1,68.67010762,1.94302888
58a23b2b27c3bb00014e6d9a,6,0,2024-02-24T08:35:48.313Z,french_363.wav,0,poule,1894,40,4,5,français,f,2,0.2,-91.11205335,0.36511891
58a23b2b27c3bb00014e6d9a,6,0,2024-02-24T08:35:48.313Z,french_363.wav,0,poule,1894,40,4,5,français,f,3,0.25666667,-38.9131055,1.6181542
58a23b2b27c3bb00014e6d9a,7,0,2024-02-24T08:35:48.313Z,french_237.wav,0,pull,1473,40,4,5,français,f,0,0.0,-1.09426196,0.40664609
58a23b2b27c3bb00014e6d9a,7,0,2024-02-24T08:35:48.313Z,french_237.wav,0,pull,1473,40,4,5,français,f,1,0.1,-48.49856075,0.23529618
58a23b2b27c3bb00014e6d9a,7,0,2024-02-24T08:35:48.313Z,french_237.wav,0,pull,1473,40,4,5,français,f,2,0.2,36.42993093,0.05363011
58a23b2b27c3bb00014e6d9a,7,0,2024-02-24T08:35:48.313Z,french_237.wav,0,pull,1473,40,4,5,français,f,3,0.25666667,-47.65767162,1.34950367
58a23b2b27c3bb00014e6d9a,8,0,2024-02-24T08:35:48.313Z,french_499.wav,0,poule,685,40,4,5,français,f,0,0.0,24.28229917,0.76159538
58a23b2b27c3bb00014e6d9a,8,0,2024-02-24T08:35:48.313Z,french_499.wav,0,poule,685,40,4,5,français,f,1,0.1,-90.85236303,0.50536641
58a23b2b27c3bb00014e6d9a,8,0,2024-02-24T08:35:48.313Z,french_499.wav,0,poule,685,40,4,5,français,f,2,0.2,-60.29957953,0.99158085
58a23b2b27c3bb00014e6d9a,8,0,2024-02-24T08:35:48.313Z,french_499.wav,0,poule,685,40,4,5,français,f,3,0.25666667,91.79807534,1.05465089
58a23b2b27c3bb00014e6d9a,9,0,2024-02-24T08:35:48.313Z,french_440.wav,0,pull,1381,40,4,5,français,f,0,0.0,-59.81098651,0.93400427
58a23b2b27c3bb00014e6d9a,9,0,2024-02-24T08:35:48.313Z,french_440.wav,0,pull,1381,40,4,5,français,f,1,0.1,55.41661021,0.25641934
58a23b2b27c3bb00014e6d9a,9,0,2024-02-24T08:35:48.313Z,french_440.wav,0,pull,1381,40,4,5,français,f,2,0.2,43.77043266,0.61594081
58a23b2b27c3bb00014e6d9a,9,0,2024-02-24T08:35:48.313Z,french_440.wav,0,pull,1381,40,4,5,français,f,3,0.25666667,-5.41632891,1.32329824
58a23b2b27c3bb00014e6d9a,10,0,2024-02-24T08:35:48.313Z,french_2.wav,0,poule,859,40,4,5,français,f,0,0.0,-28.21412584,1.58504822
58a23b2b27c3bb00014e6d9a,10,0,2024-02-24T08:35:48.313Z,french_2.wav,0,poule,859,40,4,5,français,f,1,0.1,66.62162467,1.83034999
58a23b2b27c3bb00014e6d9a,10,0,2024-02-24T08:35:48.313Z,french_2.wav,0,poule,859,40,4,5,français,f,2,0.2,16.24659996,0.31217517
58a23b2b27c3bb00014e6d9a,10,0,2024-02-24T08:35:48.313Z,french_2.wav,0,poule,859,40,4,5,français,f,3,0.25666667,-46.42897327,1.81400659
58a23b2b27c3bb00014e6d9a,11,0,2024-02-24T08:35:48.313Z,french_447.wav,0,poule,1345,40,4,5,français,f,0,0.0,-15.50115845,0.77909013
58a23b2b27c3bb00014e6d9a,11,0,2024-02-24T08:35:48.313Z,french_447.wav,0,poule,1345,40,4,5,français,f,1,0.1,-4.86998407,1.31519509
58a23b2b27c3bb00014e6d9a,11,0,2024-02-24T08:35:48.313Z,french_447.wav,0,poule,1345,40,4,5,français,f,2,0.2,-86.84595189,1.40793423
58a23b2b27c3bb00014e6d9a,11,0,2024-02-24T08:35:48.313Z,french_447.wav,0,poule,1345,40,4,5,français,f,3,0.25666667,-28.81346371,0.16835643
58a23b2b27c3bb00014e6d9a,12,0,2024-02-24T08:35:48.313Z,french_425.wav,0,pull,1584,40,4,5,français,f,0,0.0,36.0896382,0.72680638
58a23b2b27c3bb00014e6d9a,12,0,2024-02-24T08:35:48.313Z,french_425.wav,0,pull,1584,40,4,5,français,f,1,0.1,-60.28824884,0.01839492
58a23b2b27c3bb00014e6d9a,12,0,2024-02-24T08:35:48.313Z,french_425.wav,0,pull,1584,40,4,5,français,f,2,0.2,-83.12671609,1.09901753
58a23b2b27c3bb00014e6d9a,12,0,2024-02-24T08:35:48.313Z,french_425.wav,0,pull,1584,40,4,5,français,f,3,0.25666667,32.66103116,1.13928828
58a23b2b27c3bb00014e6d9a,13,0,2024-02-24T08:35:48.313Z,french_333.wav,0,poule,652,40,4,5,français,f,0,0.0,10.14997655,0.96169616
58a23b2b27c3bb00014e6d9a,13,0,2024-02-24T08:35:48.313Z,french_333.wav,0,poule,652,40,4,5,français,f,1,0.1,13.88697857,0.82290304
58a23b2b27c3bb00014e6d9a,13,0,2024-02-24T08:35:48.313Z,french_333.wav,0,poule,652,40,4,5,français,f,2,0.2,3.86253466,0.18816998
58a23b2b27c3bb00014e6d9a,13,0,2024-02-24T08:35:48.313Z,french_333.wav,0,poule,652,40,4,5,français,f,3,0.25666667,47.83568498,1.34102864
58a23b2b27c3bb00014e6d9a,14,0,2024-02-24T08:35:48.313Z,french_96.wav,0,poule,1210,40,4,5,français,f,0,0.0,-35.67204937,1.29614461
58a23b2b27c3bb00014e6d9a,14,0,2024-02-24T08:35:48.313Z,french_96.wav,0,poule,1210,40,4,5,français,f,1,0.1,-14.5967046,0.74963508
58a23b2b27c3bb00014e6d9a,14,0,2024-02-24T08:35:48.313Z,french_96.wav,0,poule,1210,40,4,5,français,f,2,0.2,23.77171322,0.96397917
58a23b2b27c3bb00014e6d9a,14,0,2024-02-24T08:35:48.313Z,french_96.wav,0,poule,1210,40,4,5,français,f,3,0.25666667,-43.45086892,0.69619931
58a23b2b27c3bb00014e6d9a,15,0,2024-02-24T08:35:48.313Z,french_728.wav,0,poule,692,40,4,5,français,f,0,0.0,-93.70742078,1.13399743
58a23b2b27c3bb00014e6d9a,15,0,2024-02-24T08:35:48.313Z,french_728.wav,0,poule,692,40,4,5,français,f,1,0.1,-62.00989335,0.93012586
58a23b2b27c3bb00014e6d9a,15,0,2024-02-24T08:35:48.313Z,french_728.wav,0,poule,692,40,4,5,français,f,2,0.2,72.64416852,0.78518922
58a23b2b27c3bb00014e6d9a,15,0,2024-02-24T08:35:48.313Z,french_728.wav,0,poule,692,40,4,5,français,f,3,0.25666667,6.15605077,0.75575783
58a23b2b27c3bb00014e6d9a,16,0,2024-02-24T08:35:48.313Z,french_386.wav,0,poule,869,40,4,5,français,f,0,0.0,50.68041389,0.75883449
58a23b2b27c3bb00014e6d9a,16,0,2024-02-24T08:35:48.313Z,french_386.wav,0,poule,869,40,4,5,français,f,1,0.1,19.37586599,1.33167931
58a23b2b27c3bb00014e6d9a,16,0,2024-02-24T08:35:48.313Z,french_386.wav,0,poule,869,40,4,5,français,f,2,0.2,0.19752764,0.89836148
58a23b2b27c3bb00014e6d9a,16,0,2024-02-24T08:35:48.313Z,french_386.wav,0,poule,869,40,4,5,français,f,3,0.25666667,-78.73875249,0.64515466
58a23b2b27c3bb00014e6d9a,17,0,2024-02-24T08:35:48.313Z,french_812.wav,0,poule,1670,40,4,5,français,f,0,0.0,78.53201718,1.73310634
58a23b2b27c3bb00014e6d9a,17,0,2024-02-24T08:35:48.313Z,french_812.wav,0,poule,1670,40,4,5,français,f,1,0.1,87.32508034,1.73147281
58a23b2b27c3bb00014e6d9a,17,0,2024-02-24T08:35:48.313Z,french_812.wav,0,poule,1670,40,4,5,français,f,2,0.2,77.15455549,1.58178344
58a23b2b27c3bb00014e6d9a,17,0,2024-02-24T08:35:48.313Z,french_812.wav,0,poule,1670,40,4,5,français,f,3,0.25666667,-51.33102937,0.27993183
58a23b2b27c3bb00014e6d9a,18,0,2024-02-24T08:35:48.313Z,french_70.wav,0,poule,1703,40,4,5,français,f,0,0.0,24.17054112,1.64784081
58a23b2b27c3bb00014e6d9a,18,0,2024-02-24T08:35:48.313Z,french_70.wav,0,poule,1703,40,4,5,français,f,1,0.1,-33.49200779,0.51465366
58a23b2b27c3bb00014e6d9a,18,0,2024-02-24T08:35:48.313Z,french_70.wav,0,poule,1703,40,4,5,français,f,2,0.2,-94.66214176,1.24573935
58a23b2b27c3bb00014e6d9a,18,0,2024-02-24T08:35:48.313Z,french_70.wav,0,poule,1703,40,4,5,français,f,3,0.25666667,65.90688931,1.78963367
58a23b2b27c3bb00014e6d9a,19,0,2024-02-24T08:35:48.313Z,french_660.wav,0,poule,655,40,4,5,français,f,0,0.0,-75.02051955,0.75293762
58a23b2b27c3bb00014e6d9a,19,0,2024-02-24T08:35:48.313Z,french_660.wav,0,poule,655,40,4,5,français,f,1,0.1,-36.41679043,0.97452375
58a23b2b27c3bb00014e6d9a,19,0,2024-02-24T08:35:48.313Z,french_660.wav,0,poule,655,40,4,5,français,f,2,0.2,-45.60366398,1.88941483
58a23b2b27c3bb00014e6d9a,19,0,2024-02-24T08:35:48.313Z,french_660.wav,0,poule,655,40,4,5,français,f,3,0.25666667,13.07838485,0.53297117
58a23b2b27c3bb00014e6d9a,20,0,2024-02-24T08:35:48.313Z,french_450.wav,0,poule,1872,40,4,5,français,f,0,0.0,32.27162082,0.11495553
58a23b2b27c3bb00014e6d9a,20,0,2024-02-24T08:35:48.313Z,french_450.wav,0,poule,1872,40,4,5,français,f,1,0.1,-17.74326064,0.2876958
58a23b2b27c3bb00014e6d9a,20,0,2024-02-24T08:35:48.313Z,french_450.wav,0,poule,1872,40,4,5,français,f,2,0.2,22.97944113,0.75841823
58a23b2b27c3bb00014e6d9a,20,0,2024-02-24T08:35:48.313Z,french_450.wav,0,poule,1872,40,4,5,français,f,3,0.25666667,-64.06857585,0.46502657
58a23b2b27c3bb00014e6d9a,21,0,2024-02-24T08:35:48.313Z,french_179.wav,0,poule,853,40,4,5,français,f,0,0.0,-38.66887761,0.36967864
58a23b2b27c3bb00014e6d9a,21,0,2024-02-24T08:35:48.313Z,french_179.wav,0,poule,853,40,4,5,français,f,1,0.1,-45.74367449,1.41588785
58a23b2b27c3bb00014e6d9a,21,0,2024-02-24T08:35:48.313Z,french_179.wav,0,poule,853,40,4,5,français,f,2,0.2,41.91599006,1.38004937
58a23b2b27c3bb00014e6d9a,21,0,2024-02-24T08:35:48.313Z,french_179.wav,0,poule,853,40,4,5,français,f,3,0.25666667,36.18860402,1.10239155
58a23b2b27c3bb00014e6d9a,22,0,2024-02-24T08:35:48.313Z,french_240.wav,0,poule,1185,40,4,5,français,f,0,0.0,77.68768834,0.69241663
58a23b2b27c3bb00014e6d9a,22,0,2024-02-24T08:35:48.313Z,french_240.wav,0,poule,1185,40,4,5,français,f,1,0.1,-29.82643761,1.16068826
58a23b2b27c3bb00014e6d9a,22,0,2024-02-24T08:35:48.313Z,french_240.wav,0,poule,1185,40,4,5,français,f,2,0.2,18.33689373,0.98486954
58a23b2b27c3bb00014e6d9a,22,0,2024-02-24T08:35:48.313Z,french_240.wav,0,poule,1185,40,4,5,français,f,3,0.25666667,24.70133008,0.89191813
58a23b2b27c3bb00014e6d9a,23,0,2024-02-24T08:35:48.313Z,french_904.wav,0,poule,606,40,4,5,français,f,0,0.0,-3.33486868,1.84649441
58a23b2b27c3bb00014e6d9a,23,0,2024-02-24T08:35:48.313Z,french_904.wav,0,poule,606,40,4,5,français,f,1,0.1,-72.00110742,1.91186975
58a23b2b27c3bb00014e6d9a,23,0,2024-02-24T08:35:48.313Z,french_904.wav,0,poule,606,40,4,5,français,f,2,0.2,32.54458222,0.71589927
58a23b2b27c3bb00014e6d9a,23,0,2024-02-24T08:35:48.313Z,french_904.wav,0,poule,606,40,4,5,français,f,3,0.25666667,13.13318907,0.21658524
58a23b2b27c3bb00014e6d9a,24,0,2024-02-24T08:35:48.313Z,french_583.wav,0,poule,747,40,4,5,français,f,0,0.0,54.77106994,0.72700192
58a23b2b27c3bb00014e6d9a,24,0,2024-02-24T08:35:48.313Z,french_583.wav,0,poule,747,40,4,5,français,f,1,0.1,-91.79725644,1.43459804
58a23b2b27c3bb00014e6d9a,24,0,2024-02-24T08:35:48.313Z,french_583.wav,0,poule,747,40,4,5,français,f,2,0.2,19.12152033,0.59283069
58a23b2b27c3bb00014e6d9a,24,0,2024-02-24T08:35:48.313Z,french_583.wav,0,poule,747,40,4,5,français,f,3,0.25666667,80.05255959,1.58166394
58a23b2b27c3bb00014e6d9a,25,0,2024-02-24T08:35:48.313Z,french_538.wav,0,pull,1461,40,4,5,français,f,0,0.0,-62.11881418,0.72316351
58a23b2b27c3bb00014e6d9a,25,0,2024-02-24T08:35:48.313Z,french_538.wav,0,pull,1461,40,4,5,français,f,1,0.1,-49.1326041,0.52652182
58a23b2b27c3bb00014e6d9a,25,0,2024-02-24T08:35:48.313Z,french_538.wav,0,pull,1461,40,4,5,français,f,2,0.2,11.48721962,0.30218135
58a23b2b27c3bb00014e6d9a,25,0,2024-02-24T08:35:48.313Z,french_538.wav,0,pull,1461,40,4,5,français,f,3,0.25666667,-26.18142206,1.69243497
58a23b2b27c3bb00014e6d9a,26,0,2024-02-24T08:35:48.313Z,french_317.wav,0,poule,1292,40,4,5,français,f,0,0.0,16.10159391,1.00024107
58a23b2b27c3bb00014e6d9a,26,0,2024-02-24T08:35:48.313Z,french_317.wav,0,poule,1292,40,4,5,français,f,1,0.1,-3.4784276,1.04292902
58a23b2b27c3bb00014e6d9a,26,0,2024-02-24T08:35:48.313Z,french_317.wav,0,poule,1292,40,4,5,français,f,2,0.2,-59.35796464,1.9831422
58a23b2b27c3bb00014e6d9a,26,0,2024-02-24T08:35:48.313Z,french_317.wav,0,poule,1292,40,4,5,français,f,3,0.25666667,-1.67752252,0.01532069
58a23b2b27c3bb00014e6d9a,27,0,2024-02-24T08:35:48.313Z,french_328.wav,0,poule,1383,40,4,5,français,f,0,0.0,-82.86069205,0.98291516
58a23b2b27c3bb00014e6d9a,27,0,2024-02-24T08:35:48.313Z,french_328.wav,0,poule,1383,40,4,5,français,f,1,0.1,-76.70984367,1.53428028
58a23b2b27c3bb00014e6d9a,27,0,2024-02-24T08:35:48.313Z,french_328.wav,0,poule,1383,40,4,5,français,f,2,0.2,-82.63579977,1.97086095
58a23b2b27c3bb00014e6d9a,27,0,2024-02-24T08:35:48.313Z,french_328.wav,0,poule,1383,40,4,5,français,f,3,0.25666667,-88.21582145,0.71580661
58a23b2b27c3bb00014e6d9a,28,0,2024-02-24T08:35:48.313Z,french_37.wav,0,poule,1246,40,4,5,français,f,0,0.0,74.40318054,1.78030803
58a23b2b27c3bb00014e6d9a,28,0,2024-02-24T08:35:48.313Z,french_37.wav,0,poule,1246,40,4,5,français,f,1,0.1,1.61071593,1.06555703
58a23b2b27c3bb00014e6d9a,28,0,2024-02-24T08:35:48.313Z,french_37.wav,0,poule,1246,40,4,5,français,f,2,0.2,-60.86815184,0.67417333
58a23b2b27c3bb00014e6d9a,28,0,2024-02-24T08:35:48.313Z,french_37.wav,0,poule,1246,40,4,5,français,f,3,0.25666667,35.44737922,1.14925698
58a23b2b27c3bb00014e6d9a,29,0,2024-02-24T08:35:48.313Z,french_872.wav,0,poule,680,40,4,5,français,f,0,0.0,85.31192626,1.27180188
58a23b2b27c3bb00014e6d9a,29,0,2024-02-24T08:35:48.313Z,french_872.wav,0,poule,680,40,4,5,français,f,1,0.1,-62.96284321,0.82867252
58a23b2b27c3bb00014e6d9a,29,0,2024-02-24T08:35:48.313Z,french_872.wav,0,poule,680,40,4,5,français,f,2,0.2,93.26127986,1.69740624
58a23b2b27c3bb00014e6d9a,29,0,2024-02-24T08:35:48.313Z,french_872.wav,0,poule,680,40,4,5,français,f,3,0.25666667,48.13314647,0.31258738
58a23b2b27c3bb00014e6d9a,30,0,2024-02-24T08:35:48.313Z,french_268.wav,0,poule,957,40,4,5,français,f,0,0.0,-31.22986491,0.61965618
58a23b2b27c3bb00014e6d9a,30,0,2024-02-24T08:35:48.313Z,french_268.wav,0,poule,957,40,4,5,français,f,1,0.1,85.41130684,0.43772331
58a23b2b27c3bb00014e6d9a,30,0,2024-02-24T08:35:48.313Z,french_268.wav,0,poule,957,40,4,5,français,f,2,0.2,51.81326747,0.97717852
58a23b2b27c3bb00014e6d9a,30,0,2024-02-24T08:35:48.313Z,french_268.wav,0,poule,957,40,4,5,français,f,3,0.25666667,-9.66270327,0.83042374
58a23b2b27c3bb00014e6d9a,31,0,2024-02-24T08:35:48.313Z,french_256.wav,0,poule,569,40,4,5,français,f,0,0.0,34.00641445,1.19838094
58a23b2b27c3bb00014e6d9a,31,0,2024-02-24T08:35:48.313Z,french_256.wav,0,poule,569,40,4,5,français,f,1,0.1,78.12380502,0.9412232
58a23b2b27c3bb00014e6d9a,31,0,2024-02-24T08:35:48.313Z,french_256.wav,0,poule,569,40,4,5,français,f,2,0.2,84.97245465,1.34630265
58a23b2b27c3bb00014e6d9a,31,0,2024-02-24T08:35:48.313Z,french_256.wav,0,poule,569,40,4,5,français,f,3,0.25666667,29.4187394,1.86077871
58a23b2b27c3bb00014e6d9a,32,0,2024-02-24T08:35:48.313Z,french_125.wav,0,poule,658,40,4,5,français,f,0,0.0,-5.4163583,1.55997732
58a23b2b27c3bb00014e6d9a,32,0,2024-02-24T08:35:48.313Z,french_125.wav,0,poule,658,40,4,5,français,f,1,0.1,-78.82020266,1.46538696
58a23b2b27c3bb00014e6d9a,32,0,2024-02-24T08:35:48.313Z,french_125.wav,0,poule,658,40,4,5,français,f,2,0.2,7.21605105,1.19887704
58a23b2b27c3bb00014e6d9a,32,0,2024-02-24T08:35:48.313Z,french_125.wav,0,poule,658,40,4,5,français,f,3,0.25666667,-41.55982592,1.01520467
58a23b2b27c3bb00014e6d9a,33,0,2024-02-24T08:35:48.313Z,french_706.wav,0,poule,995,40,4,5,français,f,0,0.0,53.91986852,0.595313
58a23b2b27c3bb00014e6d9a,33,0,2024-02-24T08:35:48.313Z,french_706.wav,0,poule,995,40,4,5,français,f,1,0.1,-86.79287422,0.19033695
58a23b2b27c3bb00014e6d9a,33,0,2024-02-24T08:35:48.313Z,french_706.wav,0,poule,995,40,4,5,français,f,2,0.2,-18.13553248,1.2444166
58a23b2b27c3bb00014e6d9a,33,0,2024-02-24T08:35:48.313Z,french_706.wav,0,poule,995,40,4,5,français,f,3,0.25666667,-98.41078943,0.51551453
58a23b2b27c3bb00014e6d9a,34,0,2024-02-24T08:35:48.313Z,french_636.wav,0,poule,723,40,4,5,français,f,0,0.0,79.1724471,0.8082817
58a23b2b27c3bb00014e6d9a,34,0,2024-02-24T08:35:48.313Z,french_636.wav,0,poule,723,40,4,5,français,f,1,0.1,25.25700376,1.50975093
58a23b2b27c3bb00014e6d9a,34,0,2024-02-24T08:35:48.313Z,french_636.wav,0,poule,723,40,4,5,français,f,2,0.2,72.37529148,0.99206968
58a23b2b27c3bb00014e6d9a,34,0,2024-02-24T08:35:48.313Z,french_636.wav,0,poule,723,40,4,5,français,f,3,0.25666667,12.21946345,0.17038819
58a23b2b27c3bb00014e6d9a,35,0,2024-02-24T08:35:48.313Z,french_603.wav,0,poule,646,40,4,5,français,f,0,0.0,59.84554137,1.0661988
58a23b2b27c3bb00014e6d9a,35,0,2024-02-24T08:35:48.313Z,french_603.wav,0,poule,646,40,4,5,français,f,1,0.1,16.50437024,1.9988244
58a23b2b27c3bb00014e6d9a,35,0,2024-02-24T08:35:48.313Z,french_603.wav,0,poule,646,40,4,5,français,f,2,0.2,38.82252298,0.61428719
58a23b2b27c3bb00014e6d9a,35,0,2024-02-24T08:35:48.313Z,french_603.wav,0,poule,646,40,4,5,français,f,3,0.25666667,25.72688984,0.58715273
58a23b2b27c3bb00014e6d9a,36,0,2024-02-24T08:35:48.313Z,french_656.wav,0,poule,674,40,4,5,français,f,0,0.0,-58.27241095,0.65184251
58a23b2b27c3bb00014e6d9a,36,0,2024-02-24T08:35:48.313Z,french_656.wav,0,poule,674,40,4,5,français,f,1,0.1,5.28471923,0.59376501
58a23b2b27c3bb00014e6d9a,36,0,2024-02-24T08:35:48.313Z,french_656.wav,0,poule,674,40,4,5,français,f,2,0.2,-0.12743408,1.90668759
58a23b2b27c3bb00014e6d9a,36,0,2024-02-24T08:35:48.313Z,french_656.wav,0,poule,674,40,4,5,français,f,3,0.25666667,84.54596147,1.25760212
58a23b2b27c3bb00014e6d9a,37,0,2024-02-24T08:35:48.313Z,french_297.wav,0,poule,684,40,4,5,français,f,0,0.0,66.56614261,0.35086225
58a23b2b27c3bb00014e6d9a,37,0,2024-02-24T08:35:48.313Z,french_297.wav,0,poule,684,40,4,5,français,f,1,0.1,-3.32812159,1.7876007
58a23b2b27c3bb00014e6d9a,37,0,2024-02-24T08:35:48.313Z,french_297.wav,0,poule,684,40,4,5,français,f,2,0.2,85.62103424,0.63077709
58a23b2b27c3bb00014e6d9a,37,0,2024-02-24T08:35:48.313Z,french_297.wav,0,poule,684,40,4,5,français,f,3,0.25666667,92.99895728,0.65985351
58a23b2b27c3bb00014e6d9a,38,0,2024-02-24T08:35:48.313Z,french_718.wav,0,poule,1379,40,4,5,français,f,0,0.0,60.10154263,0.48894908
58a23b2b27c3bb00014e6d9a,38,0,2024-02-24T08:35:48.313Z,french_718.wav,0,poule,1379,40,4,5,français,f,1,0.1,11.66591821,1.65193902
58a23b2b27c3bb00014e6d9a,38,0,2024-02-24T08:35:48.313Z,french_718.wav,0,poule,1379,40,4,5,français,f,2,0.2,18.23831634,1.63024081
58a23b2b27c3bb00014e6d9a,38,0,2024-02-24T08:35:48.313Z,french_718.wav,0,poule,1379,40,4,5,français,f,3,0.25666667,-0.86268038,0.33166429
58a23b2b27c3bb00014e6d9a,39,0,2024-02-24T08:35:48.313Z,french_427.wav,0,poule,760,40,4,5,français,f,0,0.0,-76.02138843,1.52776537
58a23b2b27c3bb00014e6d9a,39,0,2024-02-24T08:35:48.313Z,french_427.wav,0,poule,760,40,4,5,français,f,1,0.1,-79.3514541,0.93213061
58a23b2b27c3bb00014e6d9a,39,0,2024-02-24T08:35:48.313Z,french_427.wav,0,poule,760,40,4,5,français,f,2,0.2,33.13783193,1.10363763
58a23b2b27c3bb00014e6d9a,39,0,2024-02-24T08:35:48.313Z,french_427.wav,0,poule,760,40,4,5,français,f,3,0.25666667,-70.0412192,1.44956109
58a23b2b27c3bb00014e6d9a,40,0,2024-02-24T08:35:48.313Z,french_454.wav,0,poule,613,40,4,5,français,f,0,0.0,-2.34959028,0.74247593
58a23b2b27c3bb00014e6d9a,40,0,2024-02-24T08:35:48.313Z,french_454.wav,0,poule,613,40,4,5,français,f,1,0.1,-12.00596157,1.74271244
58a23b2b27c3bb00014e6d9a,40,0,2024-02-24T08:35:48.313Z,french_454.wav,0,poule,613,40,4,5,français,f,2,0.2,53.09832594,0.67609159
58a23b2b27c3bb00014e6d9a,40,0,2024-02-24T08:35:48.313Z,french_454.wav,0,poule,613,40,4,5,français,f,3,0.25666667,2.06709411,1.84499539
58a23b2b27c3bb00014e6d9a,41,0,2024-02-24T08:35:48.313Z,french_779.wav,0,poule,611,40,4,5,français,f,0,0.0,-23.73686582,0.65858767
58a23b2b27c3bb00014e6d9a,41,0,2024-02-24T08:35:48.313Z,french_779.wav,0,poule,611,40,4,5,français,f,1,0.1,96.23962081,1.55580865
58a23b2b27c3bb00014e6d9a,41,0,2024-02-24T08:35:48.313Z,french_779.wav,0,poule,611,40,4,5,français,f,2,0.2,19.26430851,1.22244229
58a23b2b27c3bb00014e6d9a,41,0,2024-02-24T08:35:48.313Z,french_779.wav,0,poule,611,40,4,5,français,f,3,0.25666667,-72.92378626,1.83333034
58a23b2b27c3bb00014e6d9a,42,0,2024-02-24T08:35:48.313Z,french_461.wav,0,poule,1976,40,4,5,français,f,0,0.0,76.34817382,0.72953599
58a23b2b27c3bb00014e6d9a,42,0,2024-02-24T08:35:48.313Z,french_461.wav,0,poule,1976,40,4,5,français,f,1,0.1,2.37579461,1.5415695
58a23b2b27c3bb00014e6d9a,42,0,2024-02-24T08:35:48.313Z,french_461.wav,0,poule,1976,40,4,5,français,f,2,0.2,-59.90047781,1.01078515
58a23b2b27c3bb00014e6d9a,42,0,2024-02-24T08:35:48.313Z,french_461.wav,0,poule,1976,40,4,5,français,f,3,0.25666667,20.08623444,1.02737445
58a23b2b27c3bb00014e6d9a,43,0,2024-02-24T08:35:48.313Z,french_145.wav,0,poule,2060,40,4,5,français,f,0,0.0,45.95226671,0.38136586
58a23b2b27c3bb00014e6d9a,43,0,2024-02-24T08:35:48.313Z,french_145.wav,0,poule,2060,40,4,5,français,f,1,0.1,-66.66601381,1.38589502
58a23b2b27c3bb00014e6d9a,43,0,2024-02-24T08:35:48.313Z,french_145.wav,0,poule,2060,40,4,5,français,f,2,0.2,-89.77596615,0.43712509
58a23b2b27c3bb00014e6d9a,43,0,2024-02-24T08:35:48.313Z,french_145.wav,0,poule,2060,40,4,5,français,f,3,0.25666667,8.03115864,1.92826262
58a23b2b27c3bb00014e6d9a,44,0,2024-02-24T08:35:48.313Z,french_927.wav,0,poule,2098,40,4,5,français,f,0,0.0,-10.52890049,0.60201579
58a23b2b27c3bb00014e6d9a,44,0,2024-02-24T08:35:48.313Z,french_927.wav,0,poule,2098,40,4,5,français,f,1,0.1,-14.60087289,1.35124195
58a23b2b27c3bb00014e6d9a,44,0,2024-02-24T08:35:48.313Z,french_927.wav,0,poule,2098,40,4,5,français,f,2,0.2,-23.19620382,0.97713268
58a23b2b27c3bb00014e6d9a,44,0,2024-02-24T08:35:48.313Z,french_927.wav,0,poule,2098,40,4,5,français,f,3,0.25666667,-4.91748489,0.83956459
58a23b2b27c3bb00014e6d9a,45,0,2024-02-24T08:35:48.313Z,french_310.wav,0,poule,1412,40,4,5,français,f,0,0.0,-83.78338178,0.11877442
58a23b2b27c3bb00014e6d9a,45,0,2024-02-24T08:35:48.313Z,french_310.wav,0,poule,1412,40,4,5,français,f,1,0.1,-13.73891655,1.32851017
58a23b2b27c3bb00014e6d9a,45,0,2024-02-24T08:35:48.313Z,french_310.wav,0,poule,1412,40,4,5,français,f,2,0.2,58.07821313,0.76082745
58a23b2b27c3bb00014e6d9a,45,0,2024-02-24T08:35:48.313Z,french_310.wav,0,poule,1412,40,4,5,français,f,3,0.25666667,26.26954934,1.37378881
58a23b2b27c3bb00014e6d9a,46,0,2024-02-24T08:35:48.313Z,french_372.wav,0,poule,1214,40,4,5,français,f,0,0.0,2.47243072,0.40204166
58a23b2b27c3bb00014e6d9a,46,0,2024-02-24T08:35:48.313Z,french_372.wav,0,poule,1214,40,4,5,français,f,1,0.1,-60.42501292,1.5432551
58a23b2b27c3bb00014e6d9a,46,0,2024-02-24T08:35:48.313Z,french_372.wav,0,poule,1214,40,4,5,français,f,2,0.2,-16.68820648,1.17639585
58a23b2b27c3bb00014e6d9a,46,0,2024-02-24T08:35:48.313Z,french_372.wav,0,poule,1214,40,4,5,français,f,3,0.25666667,27.86473169,1.5977063
58a23b2b27c3bb00014e6d9a,47,0,2024-02-24T08:35:48.313Z,french_136.wav,0,poule,1651,40,4,5,français,f,0,0.0,-19.24670356,0.58320819
58a23b2b27c3bb00014e6d9a,47,0,2024-02-24T08:35:48.313Z,french_136.wav,0,poule,1651,40,4,5,français,f,1,0.1,-19.07264886,1.75711633
58a23b2b27c3bb00014e6d9a,47,0,2024-02-24T08:35:48.313Z,french_136.wav,0,poule,1651,40,4,5,français,f,2,0.2,-15.66011034,0.20485265
58a23b2b27c3bb00014e6d9a,47,0,2024-02-24T08:35:48.313Z,french_136.wav,0,poule,1651,40,4,5,français,f,3,0.25666667,-21.38655245,0.63500763
58a23b2b27c3bb00014e6d9a,48,0,2024-02-24T08:35:48.313Z,french_771.wav,0,pull,1601,40,4,5,français,f,0,0.0,-31.32443984,0.10443369
58a23b2b27c3bb00014e6d9a,48,0,2024-02-24T08:35:48.313Z,french_771.wav,0,pull,1601,40,4,5,français,f,1,0.1,2.91896775,0.0162425
58a23b2b27c3bb00014e6d9a,48,0,2024-02-24T08:35:48.313Z,french_771.wav,0,pull,1601,40,4,5,français,f,2,0.2,73.75563113,0.96029425
58a23b2b27c3bb00014e6d9a,48,0,2024-02-24T08:35:48.313Z,french_771.wav,0,pull,1601,40,4,5,français,f,3,0.25666667,61.27629387,1.26482275
58a23b2b27c3bb00014e6d9a,49,0,2024-02-24T08:35:48.313Z,french_51.wav,0,pull,1429,40,4,5,français,f,0,0.0,47.2980437,1.21993379
58a23b2b27c3bb00014e6d9a,49,0,2024-02-24T08:35:48.313Z,french_51.wav,0,pull,1429,40,4,5,français,f,1,0.1,-20.71065167,0.59290242
58a23b2b27c3bb00014e6d9a,49,0,2024-02-24T08:35:48.313Z,french_51.wav,0,pull,1429,40,4,5,français,f,2,0.2,-59.15578969,0.43795747
58a23b2b27c3bb00014e6d9a,49,0,2024-02-24T08:35:48.313Z,french_51.wav,0,pull,1429,40,4,5,français,f,3,0.25666667,47.97190204,1.09780803
58a23b2b27c3bb00014e6d9a,50,1,2024-02-24T08:35:48.313Z,french_184.wav,0,poule,1480,40,4,5,français,f,0,0.0,48.36861498,1.86119552
58a23b2b27c3bb00014e6d9a,50,1,2024-02-24T08:35:48.313Z,french_184.wav,0,poule,1480,40,4,5,français,f,1,0.1,-2.94347193,0.96576449
58a23b2b27c3bb00014e6d9a,50,1,2024-02-24T08:35:48.313Z,french_184.wav,0,poule,1480,40,4,5,français,f,2,0.2,-52.00472355,1.69315982
58a23b2b27c3bb00014e6d9a,50,1,2024-02-24T08:35:48.313Z,french_184.wav,0,poule,1480,40,4,5,français,f,3,0.25666667,-36.80137507,0.52689434
58a23b2b27c3bb00014e6d9a,51,1,2024-02-24T08:35:48.313Z,french_733.wav,0,poule,1297,40,4,5,français,f,0,0.0,96.30835656,1.00234216
58a23b2b27c3bb00014e6d9a,51,1,2024-02-24T08:35:48.313Z,french_733.wav,0,poule,1297,40,4,5,français,f,1,0.1,-16.80147809,0.65355169
58a23b2b27c3bb00014e6d9a,51,1,2024-02-24T08:35:48.313Z,french_733.wav,0,poule,1297,40,4,5,français,f,2,0.2,34.50045069,1.63394937
58a23b2b27c3bb00014e6d9a,51,1,2024-02-24T08:35:48.313Z,french_733.wav,0,poule,1297,40,4,5,français,f,3,0.25666667,-6.11336577,0.15404628
58a23b2b27c3bb00014e6d9a,52,1,2024-02-24T08:35:48.313Z,french_154.wav,0,poule,1809,40,4,5,français,f,0,0.0,-35.77368222,0.10248514
58a23b2b27c3bb00014e6d9a,52,1,2024-02-24T08:35:48.313Z,french_154.wav,0,poule,1809,40,4,5,français,f,1,0.1,5.93918526,0.42084566
58a23b2b27c3bb00014e6d9a,52,1,2024-02-24T08:35:48.313Z,french_154.wav,0,poule,1809,40,4,5,français,f,2,0.2,36.13172948,1.29147589
58a23b2b27c3bb00014e6d9a,52,1,2024-02-24T08:35:48.313Z,french_154.wav,0,poule,1809,40,4,5,français,f,3,0.25666667,-52.77395679,0.60791213
58a23b2b27c3bb00014e6d9a,53,1,2024-02-24T08:35:48.313Z,french_971.wav,0,poule,2512,40,4,5,français,f,0,0.0,96.00351489,1.9961872
58a23b2b27c3bb00014e6d9a,53,1,2024-02-24T08:35:48.313Z,french_971.wav,0,poule,2512,40,4,5,français,f,1,0.1,-55.9328558,0.96234699
58a23b2b27c3bb00014e6d9a,53,1,2024-02-24T08:35:48.313Z,french_971.wav,0,poule,2512,40,4,5,français,f,2,0.2,-62.43027521,1.29823686
58a23b2b27c3bb00014e6d9a,53,1,2024-02-24T08:35:48.313Z,french_971.wav,0,poule,2512,40,4,5,français,f,3,0.25666667,67.10785382,1.44437919
58a23b2b27c3bb00014e6d9a,54,1,2024-02-24T08:35:48.313Z,french_853.wav,0,poule,1183,40,4,5,français,f,0,0.0,-51.03576257,1.07641583
58a23b2b27c3bb00014e6d9a,54,1,2024-02-24T08:35:48.313Z,french_853.wav,0,poule,1183,40,4,5,français,f,1,0.1,41.51658453,0.77538457
58a23b2b27c3bb00014e6d9a,54,1,2024-02-24T08:35:48.313Z,french_853.wav,0,poule,1183,40,4,5,français,f,2,0.2,-92.89610403,0.19170679
58a23b2b27c3bb00014e6d9a,54,1,2024-02-24T08:35:48.313Z,french_853.wav,0,poule,1183,40,4,5,français,f,3,0.25666667,-36.6460181,1.18241166
58a23b2b27c3bb00014e6d9a,55,1,2024-02-24T08:35:48.313Z,french_748.wav,0,poule,891,40,4,5,français,f,0,0.0,66.19282508,0.41357469
58a23b2b27c3bb00014e6d9a,55,1,2024-02-24T08:35:48.313Z,french_748.wav,0,poule,891,40,4,5,français,f,1,0.1,-81.39884416,1.04952
58a23b2b27c3bb00014e6d9a,55,1,2024-02-24T08:35:48.313Z,french_748.wav,0,poule,891,40,4,5,français,f,2,0.2,72.72612179,1.37113635
58a23b2b27c3bb00014e6d9a,55,1,2024-02-24T08:35:48.313Z,french_748.wav,0,poule,891,40,4,5,français,f,3,0.25666667,76.03481505,1.54211369
58a23b2b27c3bb00014e6d9a,56,1,2024-02-24T08:35:48.313Z,french_846.wav,0,poule,1203,40,4,5,français,f,0,0.0,70.67693031,1.34255937
58a23b2b27c3bb00014e6d9a,56,1,2024-02-24T08:35:48.313Z,french_846.wav,0,poule,1203,40,4,5,français,f,1,0.1,-66.50397015,0.4230684
58a23b2b27c3bb00014e6d9a,56,1,2024-02-24T08:35:48.313Z,french_846.wav,0,poule,1203,40,4,5,français,f,2,0.2,37.81388611,1.53749893
58a23b2b27c3bb00014e6d9a,56,1,2024-02-24T08:35:48.313Z,french_846.wav,0,poule,1203,40,4,5,français,f,3,0.25666667,-25.90764661,0.57819313
58a23b2b27c3bb00014e6d9a,57,1,2024-02-24T08:35:48.313Z,french_688.wav,0,poule,1779,40,4,5,français,f,0,0.0,-12.19437797,1.87578392
58a23b2b27c3bb00014e6d9a,57,1,2024-02-24T08:35:48.313Z,french_688.wav,0,poule,1779,40,4,5,français,f,1,0.1,-70.42225937,1.69222134
58a23b2b27c3bb00014e6d9a,57,1,2024-02-24T08:35:48.313Z,french_688.wav,0,poule,1779,40,4,5,français,f,2,0.2,-86.95466997,1.82069748
58a23b2b27c3bb00014e6d9a,57,1,2024-02-24T08:35:48.313Z,french_688.wav,0,poule,1779,40,4,5,français,f,3,0.25666667,-17.4398035,1.64542948
58a23b2b27c3bb00014e6d9a,58,1,2024-02-24T08:35:48.313Z,french_528.wav,0,poule,1515,40,4,5,français,f,0,0.0,88.85530458,1.69331748
58a23b2b27c3bb00014e6d9a,58,1,2024-02-24T08:35:48.313Z,french_528.wav,0,poule,1515,40,4,5,français,f,1,0.1,-87.19636625,0.73621757
58a23b2b27c3bb00014e6d9a,58,1,2024-02-24T08:35:48.313Z,french_528.wav,0,poule,1515,40,4,5,français,f,2,0.2,-45.08147721,0.82405603
58a23b2b27c3bb00014e6d9a,58,1,2024-02-24T08:35:48.313Z,french_528.wav,0,poule,1515,40,4,5,français,f,3,0.25666667,86.03081593,0.01123483
58a23b2b27c3bb00014e6d9a,59,1,2024-02-24T08:35:48.313Z,french_532.wav,0,poule,706,40,4,5,français,f,0,0.0,51.6664435,1.30171402
58a23b2b27c3bb00014e6d9a,59,1,2024-02-24T08:35:48.313Z,french_532.wav,0,poule,706,40,4,5,français,f,1,0.1,12.38327687,0.03929558
58a23b2b27c3bb00014e6d9a,59,1,2024-02-24T08:35:48.313Z,french_532.wav,0,poule,706,40,4,5,français,f,2,0.2,-89.35582175,1.38931331
58a23b2b27c3bb00014e6d9a,59,1,2024-02-24T08:35:48.313Z,french_532.wav,0,poule,706,40,4,5,français,f,3,0.25666667,25.37493155,0.74157834
58a23b2b27c3bb00014e6d9a,60,1,2024-02-24T08:35:48.313Z,french_399.wav,0,poule,609,40,4,5,français,f,0,0.0,60.88638106,0.92905576
58a23b2b27c3bb00014e6d9a,60,1,2024-02-24T08:35:48.313Z,french_399.wav,0,poule,609,40,4,5,français,f,1,0.1,69.51712014,1.13956386
58a23b2b27c3bb00014e6d9a,60,1,2024-02-24T08:35:48.313Z,french_399.wav,0,poule,609,40,4,5,français,f,2,0.2,11.9354414,0.89341089
58a23b2b27c3bb00014e6d9a,60,1,2024-02-24T08:35:48.313Z,french_399.wav,0,poule,609,40,4,5,français,f,3,0.25666667,71.82951649,1.81253855
58a23b2b27c3bb00014e6d9a,61,1,2024-02-24T08:35:48.313Z,french_975.wav,0,poule,893,40,4,5,français,f,0,0.0,-26.92402708,1.54282139
58a23b2b27c3bb00014e6d9a,61,1,2024-02-24T08:35:48.313Z,french_975.wav,0,poule,893,40,4,5,français,f,1,0.1,-12.18779535,0.57018571
58a23b2b27c3bb00014e6d9a,61,1,2024-02-24T08:35:48.313Z,french_975.wav,0,poule,893,40,4,5,français,f,2,0.2,-49.74503626,1.72772198
58a23b2b27c3bb00014e6d9a,61,1,2024-02-24T08:35:48.313Z,french_975.wav,0,poule,893,40,4,5,français,f,3,0.25666667,48.08434321,1.83415107
58a23b2b27c3bb00014e6d9a,62,1,2024-02-24T08:35:48.313Z,french_533.wav,0,poule,1506,40,4,5,français,f,0,0.0,16.04004141,1.94214745
58a23b2b27c3bb00014e6d9a,62,1,2024-02-24T08:35:48.313Z,french_533.wav,0,poule,1506,40,4,5,français,f,1,0.1,56.74964814,0.96958639
58a23b2b27c3bb00014e6d9a,62,1,2024-02-24T08:35:48.313Z,french_533.wav,0,poule,1506,40,4,5,français,f,2,0.2,94.00728235,1.49563925
58a23b2b27c3bb00014e6d9a,62,1,2024-02-24T08:35:48.313Z,french_533.wav,0,poule,1506,40,4,5,français,f,3,0.25666667,-15.92685786,1.75047909
58a23b2b27c3bb00014e6d9a,63,1,2024-02-24T08:35:48.313Z,french_963.wav,0,poule,1171,40,4,5,français,f,0,0.0,47.65214736,0.44378955
58a23b2b27c3bb00014e6d9a,63,1,2024-02-24T08:35:48.313Z,french_963.wav,0,poule,1171,40,4,5,français,f,1,0.1,6.38608236,0.94107122
58a23b2b27c3bb00014e6d9a,63,1,2024-02-24T08:35:48.313Z,french_963.wav,0,poule,1171,40,4,5,français,f,2,0.2,90.58649254,1.48470349
58a23b2b27c3bb00014e6d9a,63,1,2024-02-24T08:35:48.313Z,french_963.wav,0,poule,1171,40,4,5,français,f,3,0.25666667,-7.76898595,1.98203536
58a23b2b27c3bb00014e6d9a,64,1,2024-02-24T08:35:48.313Z,french_342.wav,0,poule,941,40,4,5,français,f,0,0.0,-84.22246184,0.80111929
58a23b2b27c3bb00014e6d9a,64,1,2024-02-24T08:35:48.313Z,french_342.wav,0,poule,941,40,4,5,français,f,1,0.1,-88.55202377,0.92289162
58a23b2b27c3bb00014e6d9a,64,1,2024-02-24T08:35:48.313Z,french_342.wav,0,poule,941,40,4,5,français,f,2,0.2,12.74462997,0.96187701
58a23b2b27c3bb00014e6d9a,64,1,2024-02-24T08:35:48.313Z,french_342.wav,0,poule,941,40,4,5,français,f,3,0.25666667,-73.67155113,0.57764427
58a23b2b27c3bb00014e6d9a,65,1,2024-02-24T08:35:48.313Z,french_148.wav,0,poule,884,40,4,5,français,f,0,0.0,-65.76338754,1.63378801
58a23b2b27c3bb00014e6d9a,65,1,2024-02-24T08:35:48.313Z,french_148.wav,0,poule,884,40,4,5,français,f,1,0.1,-45.02607009,0.19427674
58a23b2b27c3bb00014e6d9a,65,1,2024-02-24T08:35:48.313Z,french_148.wav,0,poule,884,40,4,5,français,f,2,0.2,-4.18875901,1.20463049
58a23b2b27c3bb00014e6d9a,65,1,2024-02-24T08:35:48.313Z,french_148.wav,0,poule,884,40,4,5,français,f,3,0.25666667,85.40607693,0.17184116
58a23b2b27c3bb00014e6d9a,66,1,2024-02-24T08:35:48.313Z,french_246.wav,0,poule,712,40,4,5,français,f,0,0.0,-61.30298939,1.31566238
58a23b2b27c3bb00014e6d9a,66,1,2024-02-24T08:35:48.313Z,french_246.wav,0,poule,712,40,4,5,français,f,1,0.1,15.83987086,1.23869052
58a23b2b27c3bb00014e6d9a,66,1,2024-02-24T08:35:48.313Z,french_246.wav,0,poule,712,40,4,5,français,f,2,0.2,80.17394669,1.57286335
58a23b2b27c3bb00014e6d9a,66,1,2024-02-24T08:35:48.313Z,french_246.wav,0,poule,712,40,4,5,français,f,3,0.25666667,-81.65507189,0.07583844
58a23b2b27c3bb00014e6d9a,67,1,2024-02-24T08:35:48.313Z,french_589.wav,0,poule,958,40,4,5,français,f,0,0.0,-25.33744833,1.20649344
58a23b2b27c3bb00014e6d9a,67,1,2024-02-24T08:35:48.313Z,french_589.wav,0,poule,958,40,4,5,français,f,1,0.1,-46.00092507,0.60898863
58a23b2b27c3bb00014e6d9a,67,1,2024-02-24T08:35:48.313Z,french_589.wav,0,poule,958,40,4,5,français,f,2,0.2,-35.85501424,0.34188975
58a23b2b27c3bb00014e6d9a,67,1,2024-02-24T08:35:48.313Z,french_589.wav,0,poule,958,40,4,5,français,f,3,0.25666667,61.35269907,1.06172305
58a23b2b27c3bb00014e6d9a,68,1,2024-02-24T08:35:48.313Z,french_640.wav,0,poule,558,40,4,5,français,f,0,0.0,-15.56807975,1.93294171
58a23b2b27c3bb00014e6d9a,68,1,2024-02-24T08:35:48.313Z,french_640.wav,0,poule,558,40,4,5,français,f,1,0.1,54.79262645,1.3982646
58a23b2b27c3bb00014e6d9a,68,1,2024-02-24T08:35:48.313Z,french_640.wav,0,poule,558,40,4,5,français,f,2,0.2,-80.20485071,1.35271381
58a23b2b27c3bb00014e6d9a,68,1,2024-02-24T08:35:48.313Z,french_640.wav,0,poule,558,40,4,5,français,f,3,0.25666667,-47.69326323,0.1240569
58a23b2b27c3bb00014e6d9a,69,1,2024-02-24T08:35:48.313Z,french_170.wav,0,poule,703,40,4,5,français,f,0,0.0,33.63406691,1.37140183
58a23b2b27c3bb00014e6d9a,69,1,2024-02-24T08:35:48.313Z,french_170.wav,0,poule,703,40,4,5,français,f,1,0.1,-66.14633185,0.98919038
58a23b2b27c3bb00014e6d9a,69,1,2024-02-24T08:35:48.313Z,french_170.wav,0,poule,703,40,4,5,français,f,2,0.2,-74.26701986,1.38629831
58a23b2b27c3bb00014e6d9a,69,1,2024-02-24T08:35:48.313Z,french_170.wav,0,poule,703,40,4,5,français,f,3,0.25666667,32.33295865,0.43392523
58a23b2b27c3bb00014e6d9a,70,1,2024-02-24T08:35:48.313Z,french_396.wav,0,poule,1558,40,4,5,français,f,0,0.0,-42.7744445,0.31798537
58a23b2b27c3bb00014e6d9a,70,1,2024-02-24T08:35:48.313Z,french_396.wav,0,poule,1558,40,4,5,français,f,1,0.1,3.59774391,0.67756986
58a23b2b27c3bb00014e6d9a,70,1,2024-02-24T08:35:48.313Z,french_396.wav,0,poule,1558,40,4,5,français,f,2,0.2,-86.41595133,1.44355676
58a23b2b27c3bb00014e6d9a,70,1,2024-02-24T08:35:48.313Z,french_396.wav,0,poule,1558,40,4,5,français,f,3,0.25666667,76.20152203,1.44326023
58a23b2b27c3bb00014e6d9a,71,1,2024-02-24T08:35:48.313Z,french_291.wav,0,poule,812,40,4,5,français,f,0,0.0,-84.80785011,0.63456403
58a23b2b27c3bb00014e6d9a,71,1,2024-02-24T08:35:48.313Z,french_291.wav,0,poule,812,40,4,5,français,f,1,0.1,-36.68987184,1.00353926
58a23b2b27c3bb00014e6d9a,71,1,2024-02-24T08:35:48.313Z,french_291.wav,0,poule,812,40,4,5,français,f,2,0.2,-96.57368066,1.89833315
58a23b2b27c3bb00014e6d9a,71,1,2024-02-24T08:35:48.313Z,french_291.wav,0,poule,812,40,4,5,français,f,3,0.25666667,-53.58057918,1.00269885
58a23b2b27c3bb00014e6d9a,72,1,2024-02-24T08:35:48.313Z,french_997.wav,0,pull,1286,40,4,5,français,f,0,0.0,70.02211451,0.23520638
58a23b2b27c3bb00014e6d9a,72,1,2024-02-24T08:35:48.313Z,french_997.wav,0,pull,1286,40,4,5,français,f,1,0.1,69.24362731,0.40856699
58a23b2b27c3bb00014e6d9a,72,1,2024-02-24T08:35:48.313Z,french_997.wav,0,pull,1286,40,4,5,français,f,2,0.2,73.007848,1.59962624
58a23b2b27c3bb00014e6d9a,72,1,2024-02-24T08:35:48.313Z,french_997.wav,0,pull,1286,40,4,5,français,f,3,0.25666667,83.15376715,0.8906701
58a23b2b27c3bb00014e6d9a,73,1,2024-02-24T08:35:48.313Z,french_45.wav,0,poule,934,40,4,5,français,f,0,0.0,6.51510613,0.83763225
58a23b2b27c3bb00014e6d9a,73,1,2024-02-24T08:35:48.313Z,french_45.wav,0,poule,934,40,4,5,français,f,1,0.1,-86.25018513,1.19709151
58a23b2b27c3bb00014e6d9a,73,1,2024-02-24T08:35:48.313Z,french_45.wav,0,poule,934,40,4,5,français,f,2,0.2,-60.46903131,0.87484565
58a23b2b27c3bb00014e6d9a,73,1,2024-02-24T08:35:48.313Z,french_45.wav,0,poule,934,40,4,5,français,f,3,0.25666667,-48.31089161,0.45414185
58a23b2b27c3bb00014e6d9a,74,1,2024-02-24T08:35:48.313Z,french_970.wav,0,pull,1147,40,4,5,français,f,0,0.0,45.66425393,0.15526341
58a23b2b27c3bb00014e6d9a,74,1,2024-02-24T08:35:48.313Z,french_970.wav,0,pull,1147,40,4,5,français,f,1,0.1,-82.79761983,0.70533305
58a23b2b27c3bb00014e6d9a,74,1,2024-02-24T08:35:48.313Z,french_970.wav,0,pull,1147,40,4,5,français,f,2,0.2,16.19264407,1.08595816
58a23b2b27c3bb00014e6d9a,74,1,2024-02-24T08:35:48.313Z,french_970.wav,0,pull,1147,40,4,5,français,f,3,0.25666667,56.04070076,0.89955958
58a23b2b27c3bb00014e6d9a,75,1,2024-02-24T08:35:48.313Z,french_953.wav,0,poule,612,40,4,5,français,f,0,0.0,-27.22394829,1.27693125
58a23b2b27c3bb00014e6d9a,75,1,2024-02-24T08:35:48.313Z,french_953.wav,0,poule,612,40,4,5,français,f,1,0.1,-3.36109764,0.12331262
58a23b2b27c3bb00014e6d9a,75,1,2024-02-24T08:35:48.313Z,french_953.wav,0,poule,612,40,4,5,français,f,2,0.2,79.96390299,1.48485403
58a23b2b27c3bb00014e6d9a,75,1,2024-02-24T08:35:48.313Z,french_953.wav,0,poule,612,40,4,5,français,f,3,0.25666667,-20.83871742,0.51230705
58a23b2b27c3bb00014e6d9a,76,1,2024-02-24T08:35:48.313Z,french_78.wav,0,poule,581,40,4,5,français,f,0,0.0,-36.45256911,0.98498246
58a23b2b27c3bb00014e6d9a,76,1,2024-02-24T08:35:48.313Z,french_78.wav,0,poule,581,40,4,5,français,f,1,0.1,52.80709263,1.84515784
58a23b2b27c3bb00014e6d9a,76,1,2024-02-24T08:35:48.313Z,french_78.wav,0,poule,581,40,4,5,français,f,2,0.2,-45.25624127,1.50799972
58a23b2b27c3bb00014e6d9a,76,1,2024-02-24T08:35:48.313Z,french_78.wav,0,poule,581,40,4,5,français,f,3,0.25666667,18.96418323,1.61920031
58a23b2b27c3bb00014e6d9a,77,1,2024-02-24T08:35:48.313Z,french_707.wav,0,poule,682,40,4,5,français,f,0,0.0,77.25708539,0.72667473
58a23b2b27c3bb00014e6d9a,77,1,2024-02-24T08:35:48.313Z,french_707.wav,0,poule,682,40,4,5,français,f,1,0.1,-54.8008957,1.98017833
58a23b2b27c3bb00014e6d9a,77,1,2024-02-24T08:35:48.313Z,french_707.wav,0,poule,682,40,4,5,français,f,2,0.2,-15.62691875,0.70006776
58a23b2b27c3bb00014e6d9a,77,1,2024-02-24T08:35:48.313Z,french_707.wav,0,poule,682,40,4,5,français,f,3,0.25666667,8.64437522,1.11828401
58a23b2b27c3bb00014e6d9a,78,1,2024-02-24T08:35:48.313Z,french_251.wav,0,pull,1599,40,4,5,français,f,0,0.0,24.13853868,0.84222584
58a23b2b27c3bb00014e6d9a,78,1,2024-02-24T08:35:48.313Z,french_251.wav,0,pull,1599,40,4,5,français,f,1,0.1,69.59392202,0.35569373
58a23b2b27c3bb00014e6d9a,78,1,2024-02-24T08:35:48.313Z,french_251.wav,0,pull,1599,40,4,5,français,f,2,0.2,5.2598313,1.18426262
58a23b2b27c3bb00014e6d9a,78,1,2024-02-24T08:35:48.313Z,french_251.wav,0,pull,1599,40,4,5,français,f,3,0.25666667,49.58604743,1.47594706
58a23b2b27c3bb00014e6d9a,79,1,2024-02-24T08:35:48.313Z,french_53.wav,0,poule,656,40,4,5,français,f,0,0.0,-2.35814843,1.83928924
58a23b2b27c3bb00014e6d9a,79,1,2024-02-24T08:35:48.313Z,french_53.wav,0,poule,656,40,4,5,français,f,1,0.1,-48.73544303,0.78912936
58a23b2b27c3bb00014e6d9a,79,1,2024-02-24T08:35:48.313Z,french_53.wav,0,poule,656,40,4,5,français,f,2,0.2,38.27016364,0.60668558
58a23b2b27c3bb00014e6d9a,79,1,2024-02-24T08:35:48.313Z,french_53.wav,0,poule,656,40,4,5,français,f,3,0.25666667,-31.96265424,0.83130548
58a23b2b27c3bb00014e6d9a,80,1,2024-02-24T08:35:48.313Z,french_199.wav,0,poule,741,40,4,5,français,f,0,0.0,-60.03977098,1.87963745
58a23b2b27c3bb00014e6d9a,80,1,2024-02-24T08:35:48.313Z,french_199.wav,0,poule,741,40,4,5,français,f,1,0.1,7.3213083,1.19076365
58a23b2b27c3bb00014e6d9a,80,1,2024-02-24T08:35:48.313Z,french_199.wav,0,poule,741,40,4,5,français,f,2,0.2,-32.97621994,1.00205813
58a23b2b27c3bb00014e6d9a,80,1,2024-02-24T08:35:48.313Z,french_199.wav,0,poule,741,40,4,5,français,f,3,0.25666667,90.87482197,1.05600478
58a23b2b27c3bb00014e6d9a,81,1,2024-02-24T08:35:48.313Z,french_664.wav,0,poule,892,40,4,5,français,f,0,0.0,-2.08032019,1.43741932
58a23b2b27c3bb00014e6d9a,81,1,2024-02-24T08:35:48.313Z,french_664.wav,0,poule,892,40,4,5,français,f,1,0.1,-67.02716902,1.07099048
58a23b2b27c3bb00014e6d9a,81,1,2024-02-24T08:35:48.313Z,french_664.wav,0,poule,892,40,4,5,français,f,2,0.2,95.17650789,1.92774669
58a23b2b27c3bb00014e6d9a,81,1,2024-02-24T08:35:48.313Z,french_664.wav,0,poule,892,40,4,5,français,f,3,0.25666667,-41.34718039,0.70027683
58a23b2b27c3bb00014e6d9a,82,1,2024-02-24T08:35:48.313Z,french_866.wav,0,pull,1100,40,4,5,français,f,0,0.0,-60.69074585,1.64484001
58a23b2b27c3bb00014e6d9a,82,1,2024-02-24T08:35:48.313Z,french_866.wav,0,pull,1100,40,4,5,français,f,1,0.1,-41.67968152,0.19415831
58a23b2b27c3bb00014e6d9a,82,1,2024-02-24T08:35:48.313Z,french_866.wav,0,pull,1100,40,4,5,français,f,2,0.2,-8.99838874,1.20864699
58a23b2b27c3bb00014e6d9a,82,1,2024-02-24T08:35:48.313Z,french_866.wav,0,pull,1100,40,4,5,français,f,3,0.25666667,40.83736488,0.81730442
58a23b2b27c3bb00014e6d9a,83,1,2024-02-24T08:35:48.313Z,french_580.wav,0,poule,544,40,4,5,français,f,0,0.0,27.05941303,0.35053576
58a23b2b27c3bb00014e6d9a,83,1,2024-02-24T08:35:48.313Z,french_580.wav,0,poule,544,40,4,5,français,f,1,0.1,-10.3346088,1.97169455
58a23b2b27c3bb00014e6d9a,83,1,2024-02-24T08:35:48.313Z,french_580.wav,0,poule,544,40,4,5,français,f,2,0.2,-24.27512535,0.90308202
58a23b2b27c3bb00014e6d9a,83,1,2024-02-24T08:35:48.313Z,french_580.wav,0,poule,544,40,4,5,français,f,3,0.25666667,34.7313677,0.94790865
58a23b2b27c3bb00014e6d9a,84,1,2024-02-24T08:35:48.313Z,french_478.wav,0,poule,517,40,4,5,français,f,0,0.0,83.43470999,1.59134243
58a23b2b27c3bb00014e6d9a,84,1,2024-02-24T08:35:48.313Z,french_478.wav,0,poule,517,40,4,5,français,f,1,0.1,-2.90020724,1.87737404
58a23b2b27c3bb00014e6d9a,84,1,2024-02-24T08:35:48.313Z,french_478.wav,0,poule,517,40,4,5,français,f,2,0.2,3.04122674,1.09323353
58a23b2b27c3bb00014e6d9a,84,1,2024-02-24T08:35:48.313Z,french_478.wav,0,poule,517,40,4,5,français,f,3,0.25666667,-16.94968741,0.48225636
58a23b2b27c3bb00014e6d9a,85,1,2024-02-24T08:35:48.313Z,french_182.wav,0,pull,929,40,4,5,français,f,0,0.0,-1.23949724,0.32203143
58a23b2b27c3bb00014e6d9a,85,1,2024-02-24T08:35:48.313Z,french_182.wav,0,pull,929,40,4,5,français,f,1,0.1,97.8493481,0.76081704
58a23b2b27c3bb00014e6d9a,85,1,2024-02-24T08:35:48.313Z,french_182.wav,0,pull,929,40,4,5,français,f,2,0.2,-69.4259963,1.30995173
58a23b2b27c3bb00014e6d9a,85,1,2024-02-24T08:35:48.313Z,french_182.wav,0,pull,929,40,4,5,français,f,3,0.25666667,68.50854418,1.49369116
58a23b2b27c3bb00014e6d9a,86,1,2024-02-24T08:35:48.313Z,french_194.wav,0,pull,713,40,4,5,français,f,0,0.0,82.45325258,0.54112087
58a23b2b27c3bb00014e6d9a,86,1,2024-02-24T08:35:48.313Z,french_194.wav,0,pull,713,40,4,5,français,f,1,0.1,88.9094727,0.47601939
58a23b2b27c3bb00014e6d9a,86,1,2024-02-24T08:35:48.313Z,french_194.wav,0,pull,713,40,4,5,français,f,2,0.2,-44.07936747,1.71905709
58a23b2b27c3bb00014e6d9a,86,1,2024-02-24T08:35:48.313Z,french_194.wav,0,pull,713,40,4,5,français,f,3,0.25666667,97.80970813,1.16289195
58a23b2b27c3bb00014e6d9a,87,1,2024-02-24T08:35:48.313Z,french_539.wav,0,poule,353,40,4,5,français,f,0,0.0,-25.67038427,1.25415191
58a23b2b27c3bb00014e6d9a,87,1,2024-02-24T08:35:48.313Z,french_539.wav,0,poule,353,40,4,5,français,f,1,0.1,48.64308398,1.80742897
58a23b2b27c3bb00014e6d9a,87,1,2024-02-24T08:35:48.313Z,french_539.wav,0,poule,353,40,4,5,français,f,2,0.2,-77.82337419,1.66801057
58a23b2b27c3bb00014e6d9a,87,1,2024-02-24T08:35:48.313Z,french_539.wav,0,poule,353,40,4,5,français,f,3,0.25666667,-42.20378119,0.618258
58a23b2b27c3bb00014e6d9a,88,1,2024-02-24T08:35:48.313Z,french_862.wav,0,pull,2809,40,4,5,français,f,0,0.0,99.41401176,0.02807195
58a23b2b27c3bb00014e6d9a,88,1,2024-02-24T08:35:48.313Z,french_862.wav,0,pull,2809,40,4,5,français,f,1,0.1,35.25307956,0.7885189
58a23b2b27c3bb00014e6d9a,88,1,2024-02-24T08:35:48.313Z,french_862.wav,0,pull,2809,40,4,5,français,f,2,0.2,-56.34938096,0.76649358
58a23b2b27c3bb00014e6d9a,88,1,2024-02-24T08:35:48.313Z,french_862.wav,0,pull,2809,40,4,5,français,f,3,0.25666667,-51.21225279,1.75346492
58a23b2b27c3bb00014e6d9a,89,1,2024-02-24T08:35:48.313Z,french_929.wav,0,pull,1447,40,4,5,français,f,0,0.0,-0.81023728,1.80594317
58a23b2b27c3bb00014e6d9a,89,1,2024-02-24T08:35:48.313Z,french_929.wav,0,pull,1447,40,4,5,français,f,1,0.1,49.23140571,0.75886247
58a23b2b27c3bb00014e6d9a,89,1,2024-02-24T08:35:48.313Z,french_929.wav,0,pull,1447,40,4,5,français,f,2,0.2,-9.18427249,0.13714517
58a23b2b27c3bb00014e6d9a,89,1,2024-02-24T08:35:48.313Z,french_929.wav,0,pull,1447,40,4,5,français,f,3,0.25666667,2.49300226,0.57622003
58a23b2b27c3bb00014e6d9a,90,1,2024-02-24T08:35:48.313Z,french_422.wav,0,poule,722,40,4,5,français,f,0,0.0,84.96144948,0.57918651
58a23b2b27c3bb00014e6d9a,90,1,2024-02-24T08:35:48.313Z,french_422.wav,0,poule,722,40,4,5,français,f,1,0.1,-4.96569357,1.20973004
58a23b2b27c3bb00014e6d9a,90,1,2024-02-24T08:35:48.313Z,french_422.wav,0,poule,722,40,4,5,français,f,2,0.2,9.38898655,0.40935242
58a23b2b27c3bb00014e6d9a,90,1,2024-02-24T08:35:48.313Z,french_422.wav,0,poule,722,40,4,5,français,f,3,0.25666667,-4.34292742,0.41859168
58a23b2b27c3bb00014e6d9a,91,1,2024-02-24T08:35:48.313Z,french_830.wav,0,poule,545,40,4,5,français,f,0,0.0,-1.87091299,1.09232302
58a23b2b27c3bb00014e6d9a,91,1,2024-02-24T08:35:48.313Z,french_830.wav,0,poule,545,40,4,5,français,f,1,0.1,9.47785811,0.94787069
58a23b2b27c3bb00014e6d9a,91,1,2024-02-24T08:35:48.313Z,french_830.wav,0,poule,545,40,4,5,français,f,2,0.2,-62.34166138,1.22281972
58a23b2b27c3bb00014e6d9a,91,1,2024-02-24T08:35:48.313Z,french_830.wav,0,poule,545,40,4,5,français,f,3,0.25666667,43.2809025,1.77001535
58a23b2b27c3bb00014e6d9a,92,1,2024-02-24T08:35:48.313Z,french_604.wav,0,poule,535,40,4,5,français,f,0,0.0,-11.11210875,1.64316359
58a23b2b27c3bb00014e6d9a,92,1,2024-02-24T08:35:48.313Z,french_604.wav,0,poule,535,40,4,5,français,f,1,0.1,-13.90326971,0.56968283
58a23b2b27c3bb00014e6d9a,92,1,2024-02-24T08:35:48.313Z,french_604.wav,0,poule,535,40,4,5,français,f,2,0.2,-78.59226075,1.3955722
58a23b2b27c3bb00014e6d9a,92,1,2024-02-24T08:35:48.313Z,french_604.wav,0,poule,535,40,4,5,français,f,3,0.25666667,87.42620436,0.51982143
58a23b2b27c3bb00014e6d9a,93,1,2024-02-24T08:35:48.313Z,french_497.wav,0,poule,420,40,4,5,français,f,0,0.0,-34.77858655,0.98641894
58a23b2b27c3bb00014e6d9a,93,1,2024-02-24T08:35:48.313Z,french_497.wav,0,poule,420,40,4,5,français,f,1,0.1,-52.52188589,1.48106735
58a23b2b27c3bb00014e6d9a,93,1,2024-02-24T08:35:48.313Z,french_497.wav,0,poule,420,40,4,5,français,f,2,0.2,81.6415951,1.37619597
58a23b2b27c3bb00014e6d9a,93,1,2024-02-24T08:35:48.313Z,french_497.wav,0,poule,420,40,4,5,français,f,3,0.25666667,23.98828418,1.87248846
58a23b2b27c3bb00014e6d9a,94,1,2024-02-24T08:35:48.313Z,french_709.wav,0,poule,1379,40,4,5,français,f,0,0.0,-79.1228884,1.66046785
58a23b2b27c3bb00014e6d9a,94,1,2024-02-24T08:35:48.313Z,french_709.wav,0,poule,1379,40,4,5,français,f,1,0.1,-27.45222572,0.50815509
58a23b2b27c3bb00014e6d9a,94,1,2024-02-24T08:35:48.313Z,french_709.wav,0,poule,1379,40,4,5,français,f,2,0.2,-11.54770291,1.01994244
58a23b2b27c3bb00014e6d9a,94,1,2024-02-24T08:35:48.313Z,french_709.wav,0,poule,1379,40,4,5,français,f,3,0.25666667,-99.06734201,1.8368488
58a23b2b27c3bb00014e6d9a,95,1,2024-02-24T08:35:48.313Z,french_132.wav,0,pull,802,40,4,5,français,f,0,0.0,55.7159221,0.1336911
58a23b2b27c3bb00014e6d9a,95,1,2024-02-24T08:35:48.313Z,french_132.wav,0,pull,802,40,4,5,français,f,1,0.1,96.01047895,1.63690434
58a23b2b27c3bb00014e6d9a,95,1,2024-02-24T08:35:48.313Z,french_132.wav,0,pull,802,40,4,5,français,f,2,0.2,-30.71931346,0.7825174
58a23b2b27c3bb00014e6d9a,95,1,2024-02-24T08:35:48.313Z,french_132.wav,0,pull,802,40,4,5,français,f,3,0.25666667,34.53763016,1.49477333
58a23b2b27c3bb00014e6d9a,96,1,2024-02-24T08:35:48.313Z,french_792.wav,0,poule,2202,40,4,5,français,f,0,0.0,-30.95032355,0.5884638
58a23b2b27c3bb00014e6d9a,96,1,2024-02-24T08:35:48.313Z,french_792.wav,0,poule,2202,40,4,5,français,f,1,0.1,73.05460755,1.61732216
58a23b2b27c3bb00014e6d9a,96,1,2024-02-24T08:35:48.313Z,french_792.wav,0,poule,2202,40,4,5,français,f,2,0.2,-0.6809714,1.33614238
58a23b2b27c3bb00014e6d9a,96,1,2024-02-24T08:35:48.313Z,french_792.wav,0,poule,2202,40,4,5,français,f,3,0.25666667,25.15150688,0.65397567
58a23b2b27c3bb00014e6d9a,97,1,2024-02-24T08:35:48.313Z,french_384.wav,0,poule,2135,40,4,5,français,f,0,0.0,96.27107524,0.63462189
58a23b2b27c3bb00014e6d9a,97,1,2024-02-24T08:35:48.313Z,french_384.wav,0,poule,2135,40,4,5,français,f,1,0.1,31.19825585,1.63064356
58a23b2b27c3bb00014e6d9a,97,1,2024-02-24T08:35:48.313Z,french_384.wav,0,poule,2135,40,4,5,français,f,2,0.2,59.60884037,0.96291672
58a23b2b27c3bb00014e6d9a,97,1,2024-02-24T08:35:48.313Z,french_384.wav,0,poule,2135,40,4,5,français,f,3,0.25666667,90.96213602,1.24636593
58a23b2b27c3bb00014e6d9a,98,1,2024-02-24T08:35:48.313Z,french_891.wav,0,pull,1192,40,4,5,français,f,0,0.0,36.15157251,0.11830574
58a23b2b27c3bb00014e6d9a,98,1,2024-02-24T08:35:48.313Z,french_891.wav,0,pull,1192,40,4,5,français,f,1,0.1,9.92087077,0.00778599
58a23b2b27c3bb00014e6d9a,98,1,2024-02-24T08:35:48.313Z,french_891.wav,0,pull,1192,40,4,5,français,f,2,0.2,64.79051962,0.40739404
58a23b2b27c3bb00014e6d9a,98,1,2024-02-24T08:35:48.313Z,french_891.wav,0,pull,1192,40,4,5,français,f,3,0.25666667,25.43576317,0.71071781
58a23b2b27c3bb00014e6d9a,99,1,2024-02-24T08:35:48.313Z,french_831.wav,0,pull,982,40,4,5,français,f,0,0.0,63.54740934,1.51153345
58a23b2b27c3bb00014e6d9a,99,1,2024-02-24T08:35:48.313Z,french_831.wav,0,pull,982,40,4,5,français,f,1,0.1,37.72830153,0.09945987
58a23b2b27c3bb00014e6d9a,99,1,2024-02-24T08:35:48.313Z,french_831.wav,0,pull,982,40,4,5,français,f,2,0.2,-3.45882983,0.22010167
58a23b2b27c3bb00014e6d9a,99,1,2024-02-24T08:35:48.313Z,french_831.wav,0,pull,982,40,4,5,français,f,3,0.25666667,83.86154552,0.71497999
58a23b2b27c3bb00014e6d9a,100,2,2024-02-24T08:35:48.313Z,french_280.wav,0,poule,617,40,4,5,français,f,0,0.0,-67.41100242,0.87165921
58a23b2b27c3bb00014e6d9a,100,2,2024-02-24T08:35:48.313Z,french_280.wav,0,poule,617,40,4,5,français,f,1,0.1,-0.65291527,0.40210454
58a23b2b27c3bb00014e6d9a,100,2,2024-02-24T08:35:48.313Z,french_280.wav,0,poule,617,40,4,5,français,f,2,0.2,-45.07946214,0.8560963
58a23b2b27c3bb00014e6d9a,100,2,2024-02-24T08:35:48.313Z,french_280.wav,0,poule,617,40,4,5,français,f,3,0.25666667,-37.24252155,1.09108247
58a23b2b27c3bb00014e6d9a,101,2,2024-02-24T08:35:48.313Z,french_786.wav,0,poule,446,40,4,5,français,f,0,0.0,46.81596915,0.36321177
58a23b2b27c3bb00014e6d9a,101,2,2024-02-24T08:35:48.313Z,french_786.wav,0,poule,446,40,4,5,français,f,1,0.1,35.10066142,1.24415108
58a23b2b27c3bb00014e6d9a,101,2,2024-02-24T08:35:48.313Z,french_786.wav,0,poule,446,40,4,5,français,f,2,0.2,15.54537814,1.19760647
58a23b2b27c3bb00014e6d9a,101,2,2024-02-24T08:35:48.313Z,french_786.wav,0,poule,446,40,4,5,français,f,3,0.25666667,97.25347056,0.79076548
58a23b2b27c3bb00014e6d9a,102,2,2024-02-24T08:35:48.313Z,french_338.wav,0,poule,424,40,4,5,français,f,0,0.0,-59.42111132,1.60060286
58a23b2b27c3bb00014e6d9a,102,2,2024-02-24T08:35:48.313Z,french_338.wav,0,poule,424,40,4,5,français,f,1,0.1,-69.70478814,0.22517269
58a23b2b27c3bb00014e6d9a,102,2,2024-02-24T08:35:48.313Z,french_338.wav,0,poule,424,40,4,5,français,f,2,0.2,-12.60920347,1.52190999
58a23b2b27c3bb00014e6d9a,102,2,2024-02-24T08:35:48.313Z,french_338.wav,0,poule,424,40,4,5,français,f,3,0.25666667,-82.44797384,0.82265445
58a23b2b27c3bb00014e6d9a,103,2,2024-02-24T08:35:48.313Z,french_466.wav,0,poule,499,40,4,5,français,f,0,0.0,73.58992944,1.41071494
58a23b2b27c3bb00014e6d9a,103,2,2024-02-24T08:35:48.313Z,french_466.wav,0,poule,499,40,4,5,français,f,1,0.1,63.97983353,0.05598534
58a23b2b27c3bb00014e6d9a,103,2,2024-02-24T08:35:48.313Z,french_466.wav,0,poule,499,40,4,5,français,f,2,0.2,36.10141743,1.99104708
58a23b2b27c3bb00014e6d9a,103,2,2024-02-24T08:35:48.313Z,french_466.wav,0,poule,499,40,4,5,français,f,3,0.25666667,-59.38235663,0.89990448
58a23b2b27c3bb00014e6d9a,104,2,2024-02-24T08:35:48.313Z,french_68.wav,0,poule,516,40,4,5,français,f,0,0.0,58.83829029,1.80244508
58a23b2b27c3bb00014e6d9a,104,2,2024-02-24T08:35:48.313Z,french_68.wav,0,poule,516,40,4,5,français,f,1,0.1,77.59339865,1.3442738
58a23b2b27c3bb00014e6d9a,104,2,2024-02-24T08:35:48.313Z,french_68.wav,0,poule,516,40,4,5,français,f,2,0.2,-73.88341881,1.16581557
58a23b2b27c3bb00014e6d9a,104,2,2024-02-24T08:35:48.313Z,french_68.wav,0,poule,516,40,4,5,français,f,3,0.25666667,-24.56901296,0.71132336
58a23b2b27c3bb00014e6d9a,105,2,2024-02-24T08:35:48.313Z,french_554.wav,0,poule,474,40,4,5,français,f,0,0.0,-31.9650703,1.45983082
58a23b2b27c3bb00014e6d9a,105,2,2024-02-24T08:35:48.313Z,french_554.wav,0,poule,474,40,4,5,français,f,1,0.1,78.95364823,0.40013818
58a23b2b27c3bb00014e6d9a,105,2,2024-02-24T08:35:48.313Z,french_554.wav,0,poule,474,40,4,5,français,f,2,0.2,-0.5294376,0.96374115
58a23b2b27c3bb00014e6d9a,105,2,2024-02-24T08:35:48.313Z,french_554.wav,0,poule,474,40,4,5,français,f,3,0.25666667,-36.78296127,1.20732856
58a23b2b27c3bb00014e6d9a,106,2,2024-02-24T08:35:48.313Z,french_242.wav,0,poule,454,40,4,5,français,f,0,0.0,19.1317605,0.13091957
58a23b2b27c3bb00014e6d9a,106,2,2024-02-24T08:35:48.313Z,french_242.wav,0,poule,454,40,4,5,français,f,1,0.1,-45.8995637,1.80487076
58a23b2b27c3bb00014e6d9a,106,2,2024-02-24T08:35:48.313Z,french_242.wav,0,poule,454,40,4,5,français,f,2,0.2,0.0160089686,1.56599149
58a23b2b27c3bb00014e6d9a,106,2,2024-02-24T08:35:48.313Z,french_242.wav,0,poule,454,40,4,5,français,f,3,0.256666667,88.294087,1.35043951
58a23b2b27c3bb00014e6d9a,107,2,2024-02-24T08:35:48.313Z,french_921.wav,0,poule,419,40,4,5,français,f,0,0.0,24.11125356,1.60122976
58a23b2b27c3bb00014e6d9a,107,2,2024-02-24T08:35:48.313Z,french_921.wav,0,poule,419,40,4,5,français,f,1,0.1,37.62729467,0.45720022
58a23b2b27c3bb00014e6d9a,107,2,2024-02-24T08:35:48.313Z,french_921.wav,0,poule,419,40,4,5,français,f,2,0.2,-94.55025244,1.67775241
58a23b2b27c3bb00014e6d9a,107,2,2024-02-24T08:35:48.313Z,french_921.wav,0,poule,419,40,4,5,français,f,3,0.25666667,10.27679313,0.96598245
58a23b2b27c3bb00014e6d9a,108,2,2024-02-24T08:35:48.313Z,french_442.wav,0,poule,455,40,4,5,français,f,0,0.0,60.29330972,0.95088916
58a23b2b27c3bb00014e6d9a,108,2,2024-02-24T08:35:48.313Z,french_442.wav,0,poule,455,40,4,5,français,f,1,0.1,96.30587546,0.89420653
58a23b2b27c3bb00014e6d9a,108,2,2024-02-24T08:35:48.313Z,french_442.wav,0,poule,455,40,4,5,français,f,2,0.2,3.75375275,0.09745987
58a23b2b27c3bb00014e6d9a,108,2,2024-02-24T08:35:48.313Z,french_442.wav,0,poule,455,40,4,5,français,f,3,0.25666667,65.23357012,0.42759775
58a23b2b27c3bb00014e6d9a,109,2,2024-02-24T08:35:48.313Z,french_97.wav,0,pull,1763,40,4,5,français,f,0,0.0,-26.25195718,1.78322942
58a23b2b27c3bb00014e6d9a,109,2,2024-02-24T08:35:48.313Z,french_97.wav,0,pull,1763,40,4,5,français,f,1,0.1,46.36733761,0.61428926
58a23b2b27c3bb00014e6d9a,109,2,2024-02-24T08:35:48.313Z,french_97.wav,0,pull,1763,40,4,5,français,f,2,0.2,-70.05850246,0.23760427
58a23b2b27c3bb00014e6d9a,109,2,2024-02-24T08:35:48.313Z,french_97.wav,0,pull,1763,40,4,5,français,f,3,0.25666667,-12.16166803,0.84541126
58a23b2b27c3bb00014e6d9a,110,2,2024-02-24T08:35:48.313Z,french_169.wav,0,poule,410,40,4,5,français,f,0,0.0,14.47590961,1.38784349
58a23b2b27c3bb00014e6d9a,110,2,2024-02-24T08:35:48.313Z,french_169.wav,0,poule,410,40,4,5,français,f,1,0.1,38.07545665,1.28983767
58a23b2b27c3bb00014e6d9a,110,2,2024-02-24T08:35:48.313Z,french_169.wav,0,poule,410,40,4,5,français,f,2,0.2,-50.40298695,0.58936297
58a23b2b27c3bb00014e6d9a,110,2,2024-02-24T08:35:48.313Z,french_169.wav,0,poule,410,40,4,5,français,f,3,0.25666667,25.61467991,0.49151359
58a23b2b27c3bb00014e6d9a,111,2,2024-02-24T08:35:48.313Z,french_248.wav,0,poule,870,40,4,5,français,f,0,0.0,-72.14952141,0.31572296
58a23b2b27c3bb00014e6d9a,111,2,2024-02-24T08:35:48.313Z,french_248.wav,0,poule,870,40,4,5,français,f,1,0.1,-0.62089361,0.98183681
58a23b2b27c3bb00014e6d9a,111,2,2024-02-24T08:35:48.313Z,french_248.wav,0,poule,870,40,4,5,français,f,2,0.2,-1.54726874,1.57355183
58a23b2b27c3bb00014e6d9a,111,2,2024-02-24T08:35:48.313Z,french_248.wav,0,poule,870,40,4,5,français,f,3,0.25666667,-50.42909266,0.39982355
58a23b2b27c3bb00014e6d9a,112,2,2024-02-24T08:35:48.313Z,french_381.wav,0,pull,923,40,4,5,français,f,0,0.0,-36.22739734,0.39069554
58a23b2b27c3bb00014e6d9a,112,2,2024-02-24T08:35:48.313Z,french_381.wav,0,pull,923,40,4,5,français,f,1,0.1,63.18659678,0.02424263
58a23b2b27c3bb00014e6d9a,112,2,2024-02-24T08:35:48.313Z,french_381.wav,0,pull,923,40,4,5,français,f,2,0.2,-88.25823098,0.59540025
58a23b2b27c3bb00014e6d9a,112,2,2024-02-24T08:35:48.313Z,french_381.wav,0,pull,923,40,4,5,français,f,3,0.25666667,39.00702017,0.84340327
58a23b2b27c3bb00014e6d9a,113,2,2024-02-24T08:35:48.313Z,french_507.wav,0,poule,404,40,4,5,français,f,0,0.0,-39.00130205,0.88980729
58a23b2b27c3bb00014e6d9a,113,2,2024-02-24T08:35:48.313Z,french_507.wav,0,poule,404,40,4,5,français,f,1,0.1,8.15448279,1.12034654
58a23b2b27c3bb00014e6d9a,113,2,2024-02-24T08:35:48.313Z,french_507.wav,0,poule,404,40,4,5,français,f,2,0.2,-39.88004764,1.15006522
58a23b2b27c3bb00014e6d9a,113,2,2024-02-24T08:35:48.313Z,french_507.wav,0,poule,404,40,4,5,français,f,3,0.25666667,66.54300966,1.10945683
58a23b2b27c3bb00014e6d9a,114,2,2024-02-24T08:35:48.313Z,french_305.wav,0,poule,383,40,4,5,français,f,0,0.0,-54.69953739,0.89911595
58a23b2b27c3bb00014e6d9a,114,2,2024-02-24T08:35:48.313Z,french_305.wav,0,poule,383,40,4,5,français,f,1,0.1,-55.57420142,0.95414013
58a23b2b27c3bb00014e6d9a,114,2,2024-02-24T08:35:48.313Z,french_305.wav,0,poule,383,40,4,5,français,f,2,0.2,69.52625069,1.47998422
58a23b2b27c3bb00014e6d9a,114,2,2024-02-24T08:35:48.313Z,french_305.wav,0,poule,383,40,4,5,français,f,3,0.25666667,-71.2713804,1.78847242
58a23b2b27c3bb00014e6d9a,115,2,2024-02-24T08:35:48.313Z,french_822.wav,0,pull,2305,40,4,5,français,f,0,0.0,70.1141555,0.03091404
58a23b2b27c3bb00014e6d9a,115,2,2024-02-24T08:35:48.313Z,french_822.wav,0,pull,2305,40,4,5,français,f,1,0.1,-32.80370271,1.54599653
58a23b2b27c3bb00014e6d9a,115,2,2024-02-24T08:35:48.313Z,french_822.wav,0,pull,2305,40,4,5,français,f,2,0.2,9.36864383,0.45983016
58a23b2b27c3bb00014e6d9a,115,2,2024-02-24T08:35:48.313Z,french_822.wav,0,pull,2305,40,4,5,français,f,3,0.25666667,-70.41865943,0.57036726
58a23b2b27c3bb00014e6d9a,116,2,2024-02-24T08:35:48.313Z,french_599.wav,0,poule,578,40,4,5,français,f,0,0.0,67.35107794,1.27225877
58a23b2b27c3bb00014e6d9a,116,2,2024-02-24T08:35:48.313Z,french_599.wav,0,poule,578,40,4,5,français,f,1,0.1,-80.59112066,1.42607556
58a23b2b27c3bb00014e6d9a,116,2,2024-02-24T08:35:48.313Z,french_599.wav,0,poule,578,40,4,5,français,f,2,0.2,8.51369184,0.27008032
58a23b2b27c3bb00014e6d9a,116,2,2024-02-24T08:35:48.313Z,french_599.wav,0,poule,578,40,4,5,français,f,3,0.25666667,74.29539318,0.36016313
58a23b2b27c3bb00014e6d9a,117,2,2024-02-24T08:35:48.313Z,french_559.wav,0,poule,498,40,4,5,français,f,0,0.0,64.66028359,0.94999591
58a23b2b27c3bb00014e6d9a,117,2,2024-02-24T08:35:48.313Z,french_559.wav,0,poule,498,40,4,5,français,f,1,0.1,-43.2680873,1.38482691
58a23b2b27c3bb00014e6d9a,117,2,2024-02-24T08:35:48.313Z,french_559.wav,0,poule,498,40,4,5,français,f,2,0.2,-64.36892284,1.27938883
58a23b2b27c3bb00014e6d9a,117,2,2024-02-24T08:35:48.313Z,french_559.wav,0,poule,498,40,4,5,français,f,3,0.25666667,44.10109235,0.16591499
58a23b2b27c3bb00014e6d9a,118,2,2024-02-24T08:35:48.313Z,french_860.wav,0,poule,473,40,4,5,français,f,0,0.0,33.37389434,1.87718004
58a23b2b27c3bb00014e6d9a,118,2,2024-02-24T08:35:48.313Z,french_860.wav,0,poule,473,40,4,5,français,f,1,0.1,66.22312498,1.50950791
58a23b2b27c3bb00014e6d9a,118,2,2024-02-24T08:35:48.313Z,french_860.wav,0,poule,473,40,4,5,français,f,2,0.2,-4.57961146,0.09437067
58a23b2b27c3bb00014e6d9a,118,2,2024-02-24T08:35:48.313Z,french_860.wav,0,poule,473,40,4,5,français,f,3,0.25666667,50.69207221,1.19183747
58a23b2b27c3bb00014e6d9a,119,2,2024-02-24T08:35:48.313Z,french_671.wav,0,poule,549,40,4,5,français,f,0,0.0,-43.02390558,0.93196934
58a23b2b27c3bb00014e6d9a,119,2,2024-02-24T08:35:48.313Z,french_671.wav,0,poule,549,40,4,5,français,f,1,0.1,13.89093856,1.15314194
58a23b2b27c3bb00014e6d9a,119,2,2024-02-24T08:35:48.313Z,french_671.wav,0,poule,549,40,4,5,français,f,2,0.2,3.48608914,0.54353121
58a23b2b27c3bb00014e6d9a,119,2,2024-02-24T08:35:48.313Z,french_671.wav,0,poule,549,40,4,5,français,f,3,0.25666667,-98.36263583,1.08598707
58a23b2b27c3bb00014e6d9a,120,2,2024-02-24T08:35:48.313Z,french_819.wav,0,poule,475,40,4,5,français,f,0,0.0,10.23888344,1.93351894
58a23b2b27c3bb00014e6d9a,120,2,2024-02-24T08:35:48.313Z,french_819.wav,0,poule,475,40,4,5,français,f,1,0.1,14.33129562,0.24790788
58a23b2b27c3bb00014e6d9a,120,2,2024-02-24T08:35:48.313Z,french_819.wav,0,poule,475,40,4,5,français,f,2,0.2,-57.61493264,1.58463495
58a23b2b27c3bb00014e6d9a,120,2,2024-02-24T08:35:48.313Z,french_819.wav,0,poule,475,40,4,5,français,f,3,0.25666667,33.17012155,0.31192511
58a23b2b27c3bb00014e6d9a,121,2,2024-02-24T08:35:48.313Z,french_537.wav,0,poule,565,40,4,5,français,f,0,0.0,24.94182708,0.83905816
58a23b2b27c3bb00014e6d9a,121,2,2024-02-24T08:35:48.313Z,french_537.wav,0,poule,565,40,4,5,français,f,1,0.1,44.89034985,0.4078644
58a23b2b27c3bb00014e6d9a,121,2,2024-02-24T08:35:48.313Z,french_537.wav,0,poule,565,40,4,5,français,f,2,0.2,79.4977598,1.66123527
58a23b2b27c3bb00014e6d9a,121,2,2024-02-24T08:35:48.313Z,french_537.wav,0,poule,565,40,4,5,français,f,3,0.25666667,43.46988515,0.90238518
58a23b2b27c3bb00014e6d9a,122,2,2024-02-24T08:35:48.313Z,french_468.wav,0,poule,483,40,4,5,français,f,0,0.0,62.98081683,0.39126421
58a23b2b27c3bb00014e6d9a,122,2,2024-02-24T08:35:48.313Z,french_468.wav,0,poule,483,40,4,5,français,f,1,0.1,-56.79667237,1.86845908
58a23b2b27c3bb00014e6d9a,122,2,2024-02-24T08:35:48.313Z,french_468.wav,0,poule,483,40,4,5,français,f,2,0.2,16.07172023,0.61680923
58a23b2b27c3bb00014e6d9a,122,2,2024-02-24T08:35:48.313Z,french_468.wav,0,poule,483,40,4,5,français,f,3,0.25666667,67.64788087,0.75086704
58a23b2b27c3bb00014e6d9a,123,2,2024-02-24T08:35:48.313Z,french_612.wav,0,poule,1483,40,4,5,français,f,0,0.0,43.10783066,0.49686358
58a23b2b27c3bb00014e6d9a,123,2,2024-02-24T08:35:48.313Z,french_612.wav,0,poule,1483,40,4,5,français,f,1,0.1,-4.14995098,1.10500502
58a23b2b27c3bb00014e6d9a,123,2,2024-02-24T08:35:48.313Z,french_612.wav,0,poule,1483,40,4,5,français,f,2,0.2,22.17563662,0.22222502
58a23b2b27c3bb00014e6d9a,123,2,2024-02-24T08:35:48.313Z,french_612.wav,0,poule,1483,40,4,5,français,f,3,0.25666667,-48.75850842,1.14111641
58a23b2b27c3bb00014e6d9a,124,2,2024-02-24T08:35:48.313Z,french_190.wav,0,poule,543,40,4,5,français,f,0,0.0,69.06529403,1.3481685
58a23b2b27c3bb00014e6d9a,124,2,2024-02-24T08:35:48.313Z,french_190.wav,0,poule,543,40,4,5,français,f,1,0.1,69.42395119,0.73404764
58a23b2b27c3bb00014e6d9a,124,2,2024-02-24T08:35:48.313Z,french_190.wav,0,poule,543,40,4,5,français,f,2,0.2,67.79801708,1.27794388
58a23b2b27c3bb00014e6d9a,124,2,2024-02-24T08:35:48.313Z,french_190.wav,0,poule,543,40,4,5,français,f,3,0.25666667,63.92857008,1.43465572
58a23b2b27c3bb00014e6d9a,125,2,2024-02-24T08:35:48.313Z,french_106.wav,0,poule,413,40,4,5,français,f,0,0.0,-80.93311261,0.79978414
58a23b2b27c3bb00014e6d9a,125,2,2024-02-24T08:35:48.313Z,french_106.wav,0,poule,413,40,4,5,français,f,1,0.1,7.33604761,0.87655026
58a23b2b27c3bb00014e6d9a,125,2,2024-02-24T08:35:48.313Z,french_106.wav,0,poule,413,40,4,5,français,f,2,0.2,53.45287064,1.02362607
58a23b2b27c3bb00014e6d9a,125,2,2024-02-24T08:35:48.313Z,french_106.wav,0,poule,413,40,4,5,français,f,3,0.25666667,-26.77526802,1.25354946
58a23b2b27c3bb00014e6d9a,126,2,2024-02-24T08:35:48.313Z,french_10.wav,0,poule,425,40,4,5,français,f,0,0.0,34.48773494,0.90390655
58a23b2b27c3bb00014e6d9a,126,2,2024-02-24T08:35:48.313Z,french_10.wav,0,poule,425,40,4,5,français,f,1,0.1,82.41652137,1.13926368
58a23b2b27c3bb00014e6d9a,126,2,2024-02-24T08:35:48.313Z,french_10.wav,0,poule,425,40,4,5,français,f,2,0.2,-51.47900312,1.63497012
58a23b2b27c3bb00014e6d9a,126,2,2024-02-24T08:35:48.313Z,french_10.wav,0,poule,425,40,4,5,français,f,3,0.25666667,70.4490668,0.74730693
58a23b2b27c3bb00014e6d9a,127,2,2024-02-24T08:35:48.313Z,french_162.wav,0,poule,681,40,4,5,français,f,0,0.0,-20.03052962,1.70466969
58a23b2b27c3bb00014e6d9a,127,2,2024-02-24T08:35:48.313Z,french_162.wav,0,poule,681,40,4,5,français,f,1,0.1,-35.11860261,0.77666831
58a23b2b27c3bb00014e6d9a,127,2,2024-02-24T08:35:48.313Z,french_162.wav,0,poule,681,40,4,5,français,f,2,0.2,20.80868131,1.88915568
58a23b2b27c3bb00014e6d9a,127,2,2024-02-24T08:35:48.313Z,french_162.wav,0,poule,681,40,4,5,français,f,3,0.25666667,50.74802705,1.69994842
58a23b2b27c3bb00014e6d9a,128,2,2024-02-24T08:35:48.313Z,french_546.wav,0,poule,359,40,4,5,français,f,0,0.0,36.39546499,1.70532748
58a23b2b27c3bb00014e6d9a,128,2,2024-02-24T08:35:48.313Z,french_546.wav,0,poule,359,40,4,5,français,f,1,0.1,-76.59722628,1.24815266
58a23b2b27c3bb00014e6d9a,128,2,2024-02-24T08:35:48.313Z,french_546.wav,0,poule,359,40,4,5,français,f,2,0.2,-20.75900546,1.81852615
58a23b2b27c3bb00014e6d9a,128,2,2024-02-24T08:35:48.313Z,french_546.wav,0,poule,359,40,4,5,français,f,3,0.25666667,8.86958668,0.22376713
58a23b2b27c3bb00014e6d9a,129,2,2024-02-24T08:35:48.313Z,french_22.wav,0,pull,951,40,4,5,français,f,0,0.0,71.14052921,0.14678418
58a23b2b27c3bb00014e6d9a,129,2,2024-02-24T08:35:48.313Z,french_22.wav,0,pull,951,40,4,5,français,f,1,0.1,32.6622244,0.81024714
58a23b2b27c3bb00014e6d9a,129,2,2024-02-24T08:35:48.313Z,french_22.wav,0,pull,951,40,4,5,français,f,2,0.2,96.1292121,1.14392668
58a23b2b27c3bb00014e6d9a,129,2,2024-02-24T08:35:48.313Z,french_22.wav,0,pull,951,40,4,5,français,f,3,0.25666667,65.79523532,1.62437335
58a23b2b27c3bb00014e6d9a,130,2,2024-02-24T08:35:48.313Z,french_782.wav,0,pull,730,40,4,5,français,f,0,0.0,-22.12019493,0.33541309
58a23b2b27c3bb00014e6d9a,130,2,2024-02-24T08:35:48.313Z,french_782.wav,0,pull,730,40,4,5,français,f,1,0.1,4.49416446,0.60665876
58a23b2b27c3bb00014e6d9a,130,2,2024-02-24T08:35:48.313Z,french_782.wav,0,pull,730,40,4,5,français,f,2,0.2,95.81757258,0.65040298
58a23b2b27c3bb00014e6d9a,130,2,2024-02-24T08:35:48.313Z,french_782.wav,0,pull,730,40,4,5,français,f,3,0.25666667,37.17912971,0.93901734
58a23b2b27c3bb00014e6d9a,131,2,2024-02-24T08:35:48.313Z,french_966.wav,0,poule,424,40,4,5,français,f,0,0.0,94.80811126,1.26057873
58a23b2b27c3bb00014e6d9a,131,2,2024-02-24T08:35:48.313Z,french_966.wav,0,poule,424,40,4,5,français,f,1,0.1,-90.73743651,1.58996588
58a23b2b27c3bb00014e6d9a,131,2,2024-02-24T08:35:48.313Z,french_966.wav,0,poule,424,40,4,5,français,f,2,0.2,94.60686235,0.08752829
58a23b2b27c3bb00014e6d9a,131,2,2024-02-24T08:35:48.313Z,french_966.wav,0,poule,424,40,4,5,français,f,3,0.25666667,-83.76406221,0.32239013
58a23b2b27c3bb00014e6d9a,132,2,2024-02-24T08:35:48.313Z,french_553.wav,0,poule,395,40,4,5,français,f,0,0.0,-1.38146628,0.44011383
58a23b2b27c3bb00014e6d9a,132,2,2024-02-24T08:35:48.313Z,french_553.wav,0,poule,395,40,4,5,français,f,1,0.1,-34.28745567,1.14829302
58a23b2b27c3bb00014e6d9a,132,2,2024-02-24T08:35:48.313Z,french_553.wav,0,poule,395,40,4,5,français,f,2,0.2,6.87532462,1.07508961
58a23b2b27c3bb00014e6d9a,132,2,2024-02-24T08:35:48.313Z,french_553.wav,0,poule,395,40,4,5,français,f,3,0.25666667,90.98690029,0.10252166
58a23b2b27c3bb00014e6d9a,133,2,2024-02-24T08:35:48.313Z,french_790.wav,0,pull,799,40,4,5,français,f,0,0.0,-78.0899986,0.03777082
58a23b2b27c3bb00014e6d9a,133,2,2024-02-24T08:35:48.313Z,french_790.wav,0,pull,799,40,4,5,français,f,1,0.1,-13.38999599,1.54425687
58a23b2b27c3bb00014e6d9a,133,2,2024-02-24T08:35:48.313Z,french_790.wav,0,pull,799,40,4,5,français,f,2,0.2,-59.88967217,0.07634696
58a23b2b27c3bb00014e6d9a,133,2,2024-02-24T08:35:48.313Z,french_790.wav,0,pull,799,40,4,5,français,f,3,0.25666667,34.06701256,1.62279479
58a23b2b27c3bb00014e6d9a,134,2,2024-02-24T08:35:48.313Z,french_486.wav,0,poule,548,40,4,5,français,f,0,0.0,-65.13732965,0.7755652
58a23b2b27c3bb00014e6d9a,134,2,2024-02-24T08:35:48.313Z,french_486.wav,0,poule,548,40,4,5,français,f,1,0.1,-93.57114331,0.9577819
58a23b2b27c3bb00014e6d9a,134,2,2024-02-24T08:35:48.313Z,french_486.wav,0,poule,548,40,4,5,français,f,2,0.2,-51.69797787,0.68553835
58a23b2b27c3bb00014e6d9a,134,2,2024-02-24T08:35:48.313Z,french_486.wav,0,poule,548,40,4,5,français,f,3,0.25666667,-3.30938414,0.55056833
58a23b2b27c3bb00014e6d9a,135,2,2024-02-24T08:35:48.313Z,french_747.wav,0,pull,764,40,4,5,français,f,0,0.0,81.67289695,0.03581997
58a23b2b27c3bb00014e6d9a,135,2,2024-02-24T08:35:48.313Z,french_747.wav,0,pull,764,40,4,5,français,f,1,0.1,-95.51692527,0.40356434
58a23b2b27c3bb00014e6d9a,135,2,2024-02-24T08:35:48.313Z,french_747.wav,0,pull,764,40,4,5,français,f,2,0.2,8.63144179,0.58773385
58a23b2b27c3bb00014e6d9a,135,2,2024-02-24T08:35:48.313Z,french_747.wav,0,pull,764,40,4,5,français,f,3,0.25666667,-85.56554801,1.10376778
58a23b2b27c3bb00014e6d9a,136,2,2024-02-24T08:35:48.313Z,french_224.wav,0,pull,771,40,4,5,français,f,0,0.0,29.30439333,0.07263044
58a23b2b27c3bb00014e6d9a,136,2,2024-02-24T08:35:48.313Z,french_224.wav,0,pull,771,40,4,5,français,f,1,0.1,-18.8355858,0.50126241
58a23b2b27c3bb00014e6d9a,136,2,2024-02-24T08:35:48.313Z,french_224.wav,0,pull,771,40,4,5,français,f,2,0.2,53.95388402,0.66381289
58a23b2b27c3bb00014e6d9a,136,2,2024-02-24T08:35:48.313Z,french_224.wav,0,pull,771,40,4,5,français,f,3,0.25666667,-99.38068318,0.98911363
58a23b2b27c3bb00014e6d9a,137,2,2024-02-24T08:35:48.313Z,french_643.wav,0,poule,399,40,4,5,français,f,0,0.0,63.91458592,0.06817761
58a23b2b27c3bb00014e6d9a,137,2,2024-02-24T08:35:48.313Z,french_643.wav,0,poule,399,40,4,5,français,f,1,0.1,-87.79617997,1.72915736
58a23b2b27c3bb00014e6d9a,137,2,2024-02-24T08:35:48.313Z,french_643.wav,0,poule,399,40,4,5,français,f,2,0.2,-35.4412084,1.06879305
58a23b2b27c3bb00014e6d9a,137,2,2024-02-24T08:35:48.313Z,french_643.wav,0,poule,399,40,4,5,français,f,3,0.25666667,41.82610472,1.26220402
58a23b2b27c3bb00014e6d9a,138,2,2024-02-24T08:35:48.313Z,french_320.wav,0,poule,357,40,4,5,français,f,0,0.0,-12.08882056,1.76987467
58a23b2b27c3bb00014e6d9a,138,2,2024-02-24T08:35:48.313Z,french_320.wav,0,poule,357,40,4,5,français,f,1,0.1,-69.15560276,1.70079501
58a23b2b27c3bb00014e6d9a,138,2,2024-02-24T08:35:48.313Z,french_320.wav,0,poule,357,40,4,5,français,f,2,0.2,33.30000548,0.4524157
58a23b2b27c3bb00014e6d9a,138,2,2024-02-24T08:35:48.313Z,french_320.wav,0,poule,357,40,4,5,français,f,3,0.25666667,-65.44816773,0.78128465
58a23b2b27c3bb00014e6d9a,139,2,2024-02-24T08:35:48.313Z,french_856.wav,0,pull,986,40,4,5,français,f,0,0.0,-64.45291012,0.77997639
58a23b2b27c3bb00014e6d9a,139,2,2024-02-24T08:35:48.313Z,french_856.wav,0,pull,986,40,4,5,français,f,1,0.1,51.16318907,0.05317495
58a23b2b27c3bb00014e6d9a,139,2,2024-02-24T08:35:48.313Z,french_856.wav,0,pull,986,40,4,5,français,f,2,0.2,51.97117103,0.19638347
58a23b2b27c3bb00014e6d9a,139,2,2024-02-24T08:35:48.313Z,french_856.wav,0,pull,986,40,4,5,français,f,3,0.25666667,78.82524423,1.64847488
58a23b2b27c3bb00014e6d9a,140,2,2024-02-24T08:35:48.313Z,french_626.wav,0,pull,568,40,4,5,français,f,0,0.0,-93.35692854,1.28523942
58a23b2b27c3bb00014e6d9a,140,2,2024-02-24T08:35:48.313Z,french_626.wav,0,pull,568,40,4,5,français,f,1,0.1,98.43225428,0.26610399
58a23b2b27c3bb00014e6d9a,140,2,2024-02-24T08:35:48.313Z,french_626.wav,0,pull,568,40,4,5,français,f,2,0.2,-65.0946996,0.08304138
58a23b2b27c3bb00014e6d9a,140,2,2024-02-24T08:35:48.313Z,french_626.wav,0,pull,568,40,4,5,français,f,3,0.25666667,62.51553639,1.47830697
58a23b2b27c3bb00014e6d9a,141,2,2024-02-24T08:35:48.313Z,french_76.wav,0,poule,481,40,4,5,français,f,0,0.0,34.97070553,0.55167233
58a23b2b27c3bb00014e6d9a,141,2,2024-02-24T08:35:48.313Z,french_76.wav,0,poule,481,40,4,5,français,f,1,0.1,46.59279974,0.47394225
58a23b2b27c3bb00014e6d9a,141,2,2024-02-24T08:35:48.313Z,french_76.wav,0,poule,481,40,4,5,français,f,2,0.2,69.89439798,0.76682402
58a23b2b27c3bb00014e6d9a,141,2,2024-02-24T08:35:48.313Z,french_76.wav,0,poule,481,40,4,5,français,f,3,0.25666667,4.40224836,1.69716011
58a23b2b27c3bb00014e6d9a,142,2,2024-02-24T08:35:48.313Z,french_742.wav,0,poule,448,40,4,5,français,f,0,0.0,70.50155873,0.93659897
58a23b2b27c3bb00014e6d9a,142,2,2024-02-24T08:35:48.313Z,french_742.wav,0,poule,448,40,4,5,français,f,1,0.1,-40.99625843,1.14125333
58a23b2b27c3bb00014e6d9a,142,2,2024-02-24T08:35:48.313Z,french_742.wav,0,poule,448,40,4,5,français,f,2,0.2,6.68379951,1.25957194
58a23b2b27c3bb00014e6d9a,142,2,2024-02-24T08:35:48.313Z,french_742.wav,0,poule,448,40,4,5,français,f,3,0.25666667,-76.31698705,0.86761951
58a23b2b27c3bb00014e6d9a,143,2,2024-02-24T08:35:48.313Z,french_151.wav,0,poule,474,40,4,5,français,f,0,0.0,71.76568175,1.0902049
58a23b2b27c3bb00014e6d9a,143,2,2024-02-24T08:35:48.313Z,french_151.wav,0,poule,474,40,4,5,français,f,1,0.1,-74.84502799,0.763019
58a23b2b27c3bb00014e6d9a,143,2,2024-02-24T08:35:48.313Z,french_151.wav,0,poule,474,40,4,5,français,f,2,0.2,-35.2682716,0.78938414
58a23b2b27c3bb00014e6d9a,143,2,2024-02-24T08:35:48.313Z,french_151.wav,0,poule,474,40,4,5,français,f,3,0.25666667,-20.9501034,0.23047004
58a23b2b27c3bb00014e6d9a,144,2,2024-02-24T08:35:48.313Z,french_964.wav,0,poule,432,40,4,5,français,f,0,0.0,-56.07629317,1.19943116
58a23b2b27c3bb00014e6d9a,144,2,2024-02-24T08:35:48.313Z,french_964.wav,0,poule,432,40,4,5,français,f,1,0.1,-19.45500988,0.89458005
58a23b2b27c3bb00014e6d9a,144,2,2024-02-24T08:35:48.313Z,french_964.wav,0,poule,432,40,4,5,français,f,2,0.2,97.83653085,1.94180509
58a23b2b27c3bb00014e6d9a,144,2,2024-02-24T08:35:48.313Z,french_964.wav,0,poule,432,40,4,5,français,f,3,0.25666667,70.5600413,0.3273771
58a23b2b27c3bb00014e6d9a,145,2,2024-02-24T08:35:48.313Z,french_887.wav,0,poule,317,40,4,5,français,f,0,0.0,68.65167503,1.16380924
58a23b2b27c3bb00014e6d9a,145,2,2024-02-24T08:35:48.313Z,french_887.wav,0,poule,317,40,4,5,français,f,1,0.1,-55.72044546,1.74073633
58a23b2b27c3bb00014e6d9a,145,2,2024-02-24T08:35:48.313Z,french_887.wav,0,poule,317,40,4,5,français,f,2,0.2,-97.59121662,1.00138394
58a23b2b27c3bb00014e6d9a,145,2,2024-02-24T08:35:48.313Z,french_887.wav,0,poule,317,40,4,5,français,f,3,0.25666667,-40.12897823,1.21780512
58a23b2b27c3bb00014e6d9a,146,2,2024-02-24T08:35:48.313Z,french_764.wav,0,poule,379,40,4,5,français,f,0,0.0,-8.95969579,0.46272501
58a23b2b27c3bb00014e6d9a,146,2,2024-02-24T08:35:48.313Z,french_764.wav,0,poule,379,40,4,5,français,f,1,0.1,5.11158076,1.84250995
58a23b2b27c3bb00014e6d9a,146,2,2024-02-24T08:35:48.313Z,french_764.wav,0,poule,379,40,4,5,français,f,2,0.2,3.7358826,0.71585727
58a23b2b27c3bb00014e6d9a,146,2,2024-02-24T08:35:48.313Z,french_764.wav,0,poule,379,40,4,5,français,f,3,0.25666667,-14.74224302,0.58101627
58a23b2b27c3bb00014e6d9a,147,2,2024-02-24T08:35:48.313Z,french_561.wav,0,poule,1530,40,4,5,français,f,0,0.0,43.72245453,1.14403907
58a23b2b27c3bb00014e6d9a,147,2,2024-02-24T08:35:48.313Z,french_561.wav,0,poule,1530,40,4,5,français,f,1,0.1,-99.96065046,0.22103922
58a23b2b27c3bb00014e6d9a,147,2,2024-02-24T08:35:48.313Z,french_561.wav,0,poule,1530,40,4,5,français,f,2,0.2,-79.74506532,0.12690813
58a23b2b27c3bb00014e6d9a,147,2,2024-02-24T08:35:48.313Z,french_561.wav,0,poule,1530,40,4,5,français,f,3,0.25666667,3.19515671,1.47601923
58a23b2b27c3bb00014e6d9a,148,2,2024-02-24T08:35:48.313Z,french_920.wav,0,poule,516,40,4,5,français,f,0,0.0,98.83591172,0.7646584
58a23b2b27c3bb00014e6d9a,148,2,2024-02-24T08:35:48.313Z,french_920.wav,0,poule,516,40,4,5,français,f,1,0.1,-64.95643085,1.02879579
58a23b2b27c3bb00014e6d9a,148,2,2024-02-24T08:35:48.313Z,french_920.wav,0,poule,516,40,4,5,français,f,2,0.2,1.57326281,1.0684491
58a23b2b27c3bb00014e6d9a,148,2,2024-02-24T08:35:48.313Z,french_920.wav,0,poule,516,40,4,5,français,f,3,0.25666667,-25.63648329,0.89198175
58a23b2b27c3bb00014e6d9a,149,2,2024-02-24T08:35:48.313Z,french_301.wav,0,poule,1169,40,4,5,français,f,0,0.0,69.85248337,0.52307933
58a23b2b27c3bb00014e6d9a,149,2,2024-02-24T08:35:48.313Z,french_301.wav,0,poule,1169,40,4,5,français,f,1,0.1,-5.79297453,1.24080119
58a23b2b27c3bb00014e6d9a,149,2,2024-02-24T08:35:48.313Z,french_301.wav,0,poule,1169,40,4,5,français,f,2,0.2,45.5401504,0.43993349
58a23b2b27c3bb00014e6d9a,149,2,2024-02-24T08:35:48.313Z,french_301.wav,0,poule,1169,40,4,5,français,f,3,0.25666667,54.55962649,1.3035803
58a23b2b27c3bb00014e6d9a,150,3,2024-02-24T08:35:48.313Z,french_832.wav,0,poule,386,40,4,5,français,f,0,0.0,72.4957568,1.55241154
58a23b2b27c3bb00014e6d9a,150,3,2024-02-24T08:35:48.313Z,french_832.wav,0,poule,386,40,4,5,français,f,1,0.1,-42.52759542,0.51342339
58a23b2b27c3bb00014e6d9a,150,3,2024-02-24T08:35:48.313Z,french_832.wav,0,poule,386,40,4,5,français,f,2,0.2,-19.34515336,1.23436829
58a23b2b27c3bb00014e6d9a,150,3,2024-02-24T08:35:48.313Z,french_832.wav,0,poule,386,40,4,5,français,f,3,0.25666667,29.69631954,0.63501701
58a23b2b27c3bb00014e6d9a,151,3,2024-02-24T08:35:48.313Z,french_490.wav,0,poule,310,40,4,5,français,f,0,0.0,-77.54246231,1.03559912
58a23b2b27c3bb00014e6d9a,151,3,2024-02-24T08:35:48.313Z,french_490.wav,0,poule,310,40,4,5,français,f,1,0.1,-0.13066058,0.94588293
58a23b2b27c3bb00014e6d9a,151,3,2024-02-24T08:35:48.313Z,french_490.wav,0,poule,310,40,4,5,français,f,2,0.2,-90.37490593,1.16449319
58a23b2b27c3bb00014e6d9a,151,3,2024-02-24T08:35:48.313Z,french_490.wav,0,poule,310,40,4,5,français,f,3,0.25666667,62.21960288,1.46557017
58a23b2b27c3bb00014e6d9a,152,3,2024-02-24T08:35:48.313Z,french_360.wav,0,pull,820,40,4,5,français,f,0,0.0,-0.00235073025,1.59141319
58a23b2b27c3bb00014e6d9a,152,3,2024-02-24T08:35:48.313Z,french_360.wav,0,pull,820,40,4,5,français,f,1,0.1,75.1310722,0.32502124
58a23b2b27c3bb00014e6d9a,152,3,2024-02-24T08:35:48.313Z,french_360.wav,0,pull,820,40,4,5,français,f,2,0.2,-55.9073348,0.48861064
58a23b2b27c3bb00014e6d9a,152,3,2024-02-24T08:35:48.313Z,french_360.wav,0,pull,820,40,4,5,français,f,3,0.256666667,-59.6885988,0.13551716
58a23b2b27c3bb00014e6d9a,153,3,2024-02-24T08:35:48.313Z,french_383.wav,0,poule,308,40,4,5,français,f,0,0.0,-42.4544387,1.97405967
58a23b2b27c3bb00014e6d9a,153,3,2024-02-24T08:35:48.313Z,french_383.wav,0,poule,308,40,4,5,français,f,1,0.1,-90.68336638,0.7318817
58a23b2b27c3bb00014e6d9a,153,3,2024-02-24T08:35:48.313Z,french_383.wav,0,poule,308,40,4,5,français,f,2,0.2,-23.68224062,1.2439139
58a23b2b27c3bb00014e6d9a,153,3,2024-02-24T08:35:48.313Z,french_383.wav,0,poule,308,40,4,5,français,f,3,0.25666667,-19.21071009,0.24057374
58a23b2b27c3bb00014e6d9a,154,3,2024-02-24T08:35:48.313Z,french_506.wav,0,poule,305,40,4,5,français,f,0,0.0,-29.72839746,0.56251
58a23b2b27c3bb00014e6d9a,154,3,2024-02-24T08:35:48.313Z,french_506.wav,0,poule,305,40,4,5,français,f,1,0.1,-47.17385777,1.58526303
58a23b2b27c3bb00014e6d9a,154,3,2024-02-24T08:35:48.313Z,french_506.wav,0,poule,305,40,4,5,français,f,2,0.2,-30.03244322,0.59604728
58a23b2b27c3bb00014e6d9a,154,3,2024-02-24T08:35:48.313Z,french_506.wav,0,poule,305,40,4,5,français,f,3,0.25666667,17.7760196,1.67426799
58a23b2b27c3bb00014e6d9a,155,3,2024-02-24T08:35:48.313Z,french_713.wav,0,pull,1188,40,4,5,français,f,0,0.0,93.33204992,0.23689023
58a23b2b27c3bb00014e6d9a,155,3,2024-02-24T08:35:48.313Z,french_713.wav,0,pull,1188,40,4,5,français,f,1,0.1,-15.69856834,0.32059987
58a23b2b27c3bb00014e6d9a,155,3,2024-02-24T08:35:48.313Z,french_713.wav,0,pull,1188,40,4,5,français,f,2,0.2,18.82527382,0.78497323
58a23b2b27c3bb00014e6d9a,155,3,2024-02-24T08:35:48.313Z,french_713.wav,0,pull,1188,40,4,5,français,f,3,0.25666667,-49.17212055,0.28269646
58a23b2b27c3bb00014e6d9a,156,3,2024-02-24T08:35:48.313Z,french_175.wav,0,poule,1190,40,4,5,français,f,0,0.0,-66.64800697,0.89831181
58a23b2b27c3bb00014e6d9a,156,3,2024-02-24T08:35:48.313Z,french_175.wav,0,poule,1190,40,4,5,français,f,1,0.1,55.8136762,1.16054297
58a23b2b27c3bb00014e6d9a,156,3,2024-02-24T08:35:48.313Z,french_175.wav,0,poule,1190,40,4,5,français,f,2,0.2,13.86880033,0.04267506
58a23b2b27c3bb00014e6d9a,156,3,2024-02-24T08:35:48.313Z,french_175.wav,0,poule,1190,40,4,5,français,f,3,0.25666667,79.77573594,1.48091244
58a23b2b27c3bb00014e6d9a,157,3,2024-02-24T08:35:48.313Z,french_209.wav,0,poule,357,40,4,5,français,f,0,0.0,39.72931143,1.72926101
58a23b2b27c3bb00014e6d9a,157,3,2024-02-24T08:35:48.313Z,french_209.wav,0,poule,357,40,4,5,français,f,1,0.1,-11.10080972,1.89016293
58a23b2b27c3bb00014e6d9a,157,3,2024-02-24T08:35:48.313Z,french_209.wav,0,poule,357,40,4,5,français,f,2,0.2,-43.22344663,1.93253512
58a23b2b27c3bb00014e6d9a,157,3,2024-02-24T08:35:48.313Z,french_209.wav,0,poule,357,40,4,5,français,f,3,0.25666667,-3.52460634,0.82956566
58a23b2b27c3bb00014e6d9a,158,3,2024-02-24T08:35:48.313Z,french_823.wav,0,poule,406,40,4,5,français,f,0,0.0,-89.53533563,0.87621895
58a23b2b27c3bb00014e6d9a,158,3,2024-02-24T08:35:48.313Z,french_823.wav,0,poule,406,40,4,5,français,f,1,0.1,14.01752274,0.92757563
58a23b2b27c3bb00014e6d9a,158,3,2024-02-24T08:35:48.313Z,french_823.wav,0,poule,406,40,4,5,français,f,2,0.2,33.24657022,1.30685671
58a23b2b27c3bb00014e6d9a,158,3,2024-02-24T08:35:48.313Z,french_823.wav,0,poule,406,40,4,5,français,f,3,0.25666667,-78.84260648,1.33840969
58a23b2b27c3bb00014e6d9a,159,3,2024-02-24T08:35:48.313Z,french_355.wav,0,pull,1779,40,4,5,français,f,0,0.0,-92.75119925,0.18544254
58a23b2b27c3bb00014e6d9a,159,3,2024-02-24T08:35:48.313Z,french_355.wav,0,pull,1779,40,4,5,français,f,1,0.1,77.20775246,0.07031399
58a23b2b27c3bb00014e6d9a,159,3,2024-02-24T08:35:48.313Z,french_355.wav,0,pull,1779,40,4,5,français,f,2,0.2,-51.05688592,0.46666342
58a23b2b27c3bb00014e6d9a,159,3,2024-02-24T08:35:48.313Z,french_355.wav,0,pull,1779,40,4,5,français,f,3,0.25666667,27.03743598,1.78468618
58a23b2b27c3bb00014e6d9a,160,3,2024-02-24T08:35:48.313Z,french_766.wav,0,poule,740,40,4,5,français,f,0,0.0,91.85829661,0.12079341
58a23b2b27c3bb00014e6d9a,160,3,2024-02-24T08:35:48.313Z,french_766.wav,0,poule,740,40,4,5,français,f,1,0.1,29.32583948,0.61287095
58a23b2b27c3bb00014e6d9a,160,3,2024-02-24T08:35:48.313Z,french_766.wav,0,poule,740,40,4,5,français,f,2,0.2,71.77245069,1.071897
58a23b2b27c3bb00014e6d9a,160,3,2024-02-24T08:35:48.313Z,french_766.wav,0,poule,740,40,4,5,français,f,3,0.25666667,28.53871253,0.29005596
58a23b2b27c3bb00014e6d9a,161,3,2024-02-24T08:35:48.313Z,french_260.wav,0,poule,334,40,4,5,français,f,0,0.0,-3.22947754,0.22766361
58a23b2b27c3bb00014e6d9a,161,3,2024-02-24T08:35:48.313Z,french_260.wav,0,poule,334,40,4,5,français,f,1,0.1,-16.22535722,1.16747398
58a23b2b27c3bb00014e6d9a,161,3,2024-02-24T08:35:48.313Z,french_260.wav,0,poule,334,40,4,5,français,f,2,0.2,-91.54207183,1.39667181
58a23b2b27c3bb00014e6d9a,161,3,2024-02-24T08:35:48.313Z,french_260.wav,0,poule,334,40,4,5,français,f,3,0.25666667,-55.70642268,1.03484551
58a23b2b27c3bb00014e6d9a,162,3,2024-02-24T08:35:48.313Z,french_662.wav,0,pull,900,40,4,5,français,f,0,0.0,69.59464859,0.59800434
58a23b2b27c3bb00014e6d9a,162,3,2024-02-24T08:35:48.313Z,french_662.wav,0,pull,900,40,4,5,français,f,1,0.1,92.96629611,0.25880336
58a23b2b27c3bb00014e6d9a,162,3,2024-02-24T08:35:48.313Z,french_662.wav,0,pull,900,40,4,5,français,f,2,0.2,83.22574806,0.52365302
58a23b2b27c3bb00014e6d9a,162,3,2024-02-24T08:35:48.313Z,french_662.wav,0,pull,900,40,4,5,français,f,3,0.25666667,59.78978888,1.67953256
58a23b2b27c3bb00014e6d9a,163,3,2024-02-24T08:35:48.313Z,french_324.wav,0,pull,1115,40,4,5,français,f,0,0.0,19.03085887,0.73874118
58a23b2b27c3bb00014e6d9a,163,3,2024-02-24T08:35:48.313Z,french_324.wav,0,pull,1115,40,4,5,français,f,1,0.1,67.89064078,0.03678538
58a23b2b27c3bb00014e6d9a,163,3,2024-02-24T08:35:48.313Z,french_324.wav,0,pull,1115,40,4,5,français,f,2,0.2,-77.83323733,0.54818629
58a23b2b27c3bb00014e6d9a,163,3,2024-02-24T08:35:48.313Z,french_324.wav,0,pull,1115,40,4,5,français,f,3,0.25666667,-13.49414868,1.04853797
58a23b2b27c3bb00014e6d9a,164,3,2024-02-24T08:35:48.313Z,french_31.wav,0,poule,1453,40,4,5,français,f,0,0.0,-16.52506352,1.57904125
58a23b2b27c3bb00014e6d9a,164,3,2024-02-24T08:35:48.313Z,french_31.wav,0,poule,1453,40,4,5,français,f,1,0.1,-80.19736258,0.88688051
58a23b2b27c3bb00014e6d9a,164,3,2024-02-24T08:35:48.313Z,french_31.wav,0,poule,1453,40,4,5,français,f,2,0.2,-47.04996605,0.44579633
58a23b2b27c3bb00014e6d9a,164,3,2024-02-24T08:35:48.313Z,french_31.wav,0,poule,1453,40,4,5,français,f,3,0.25666667,35.27279848,1.71139476
58a23b2b27c3bb00014e6d9a,165,3,2024-02-24T08:35:48.313Z,french_41.wav,0,poule,410,40,4,5,français,f,0,0.0,-11.6612147,0.49328208
58a23b2b27c3bb00014e6d9a,165,3,2024-02-24T08:35:48.313Z,french_41.wav,0,poule,410,40,4,5,français,f,1,0.1,96.56624365,1.84762861
58a23b2b27c3bb00014e6d9a,165,3,2024-02-24T08:35:48.313Z,french_41.wav,0,poule,410,40,4,5,français,f,2,0.2,69.39294216,1.1434724
58a23b2b27c3bb00014e6d9a,165,3,2024-02-24T08:35:48.313Z,french_41.wav,0,poule,410,40,4,5,français,f,3,0.25666667,-30.30775932,1.13333186
58a23b2b27c3bb00014e6d9a,166,3,2024-02-24T08:35:48.313Z,french_620.wav,0,poule,335,40,4,5,français,f,0,0.0,-75.53708421,1.75028991
58a23b2b27c3bb00014e6d9a,166,3,2024-02-24T08:35:48.313Z,french_620.wav,0,poule,335,40,4,5,français,f,1,0.1,4.57362866,1.1712224
58a23b2b27c3bb00014e6d9a,166,3,2024-02-24T08:35:48.313Z,french_620.wav,0,poule,335,40,4,5,français,f,2,0.2,-79.19764782,1.92554269
58a23b2b27c3bb00014e6d9a,166,3,2024-02-24T08:35:48.313Z,french_620.wav,0,poule,335,40,4,5,français,f,3,0.25666667,-82.06470668,1.1477244
58a23b2b27c3bb00014e6d9a,167,3,2024-02-24T08:35:48.313Z,french_610.wav,0,poule,545,40,4,5,français,f,0,0.0,41.67803598,0.10564039
58a23b2b27c3bb00014e6d9a,167,3,2024-02-24T08:35:48.313Z,french_610.wav,0,poule,545,40,4,5,français,f,1,0.1,50.6586837,1.22556883
58a23b2b27c3bb00014e6d9a,167,3,2024-02-24T08:35:48.313Z,french_610.wav,0,poule,545,40,4,5,français,f,2,0.2,-85.20353251,1.48633574
58a23b2b27c3bb00014e6d9a,167,3,2024-02-24T08:35:48.313Z,french_610.wav,0,poule,545,40,4,5,français,f,3,0.25666667,-12.88596769,1.12124299
58a23b2b27c3bb00014e6d9a,168,3,2024-02-24T08:35:48.313Z,french_71.wav,0,poule,457,40,4,5,français,f,0,0.0,-97.29707499,0.6163898
58a23b2b27c3bb00014e6d9a,168,3,2024-02-24T08:35:48.313Z,french_71.wav,0,poule,457,40,4,5,français,f,1,0.1,41.74238765,1.06775198
58a23b2b27c3bb00014e6d9a,168,3,2024-02-24T08:35:48.313Z,french_71.wav,0,poule,457,40,4,5,français,f,2,0.2,-91.89336592,1.31906527
58a23b2b27c3bb00014e6d9a,168,3,2024-02-24T08:35:48.313Z,french_71.wav,0,poule,457,40,4,5,français,f,3,0.25666667,53.06515209,0.58556407
58a23b2b27c3bb00014e6d9a,169,3,2024-02-24T08:35:48.313Z,french_87.wav,0,poule,409,40,4,5,français,f,0,0.0,57.46562038,1.84924107
58a23b2b27c3bb00014e6d9a,169,3,2024-02-24T08:35:48.313Z,french_87.wav,0,poule,409,40,4,5,français,f,1,0.1,64.37451918,1.35752119
58a23b2b27c3bb00014e6d9a,169,3,2024-02-24T08:35:48.313Z,french_87.wav,0,poule,409,40,4,5,français,f,2,0.2,34.82822911,1.55092153
58a23b2b27c3bb00014e6d9a,169,3,2024-02-24T08:35:48.313Z,french_87.wav,0,poule,409,40,4,5,français,f,3,0.25666667,-44.22171713,0.2478561
58a23b2b27c3bb00014e6d9a,170,3,2024-02-24T08:35:48.313Z,french_934.wav,0,poule,375,40,4,5,français,f,0,0.0,-9.72159443,1.08583672
58a23b2b27c3bb00014e6d9a,170,3,2024-02-24T08:35:48.313Z,french_934.wav,0,poule,375,40,4,5,français,f,1,0.1,-11.38125641,0.99463139
58a23b2b27c3bb00014e6d9a,170,3,2024-02-24T08:35:48.313Z,french_934.wav,0,poule,375,40,4,5,français,f,2,0.2,-15.93762726,1.46206623
58a23b2b27c3bb00014e6d9a,170,3,2024-02-24T08:35:48.313Z,french_934.wav,0,poule,375,40,4,5,français,f,3,0.25666667,-19.962769,1.59629023
58a23b2b27c3bb00014e6d9a,171,3,2024-02-24T08:35:48.313Z,french_401.wav,0,poule,446,40,4,5,français,f,0,0.0,-70.28001137,0.55430578
58a23b2b27c3bb00014e6d9a,171,3,2024-02-24T08:35:48.313Z,french_401.wav,0,poule,446,40,4,5,français,f,1,0.1,-33.39817342,1.52055291
58a23b2b27c3bb00014e6d9a,171,3,2024-02-24T08:35:48.313Z,french_401.wav,0,poule,446,40,4,5,français,f,2,0.2,31.30905025,1.05517946
58a23b2b27c3bb00014e6d9a,171,3,2024-02-24T08:35:48.313Z,french_401.wav,0,poule,446,40,4,5,français,f,3,0.25666667,85.09993336,0.68126919
58a23b2b27c3bb00014e6d9a,172,3,2024-02-24T08:35:48.313Z,french_226.wav,0,poule,596,40,4,5,français,f,0,0.0,85.32452385,1.68909252
58a23b2b27c3bb00014e6d9a,172,3,2024-02-24T08:35:48.313Z,french_226.wav,0,poule,596,40,4,5,français,f,1,0.1,-25.06918931,0.17046025
58a23b2b27c3bb00014e6d9a,172,3,2024-02-24T08:35:48.313Z,french_226.wav,0,poule,596,40,4,5,français,f,2,0.2,-17.89357971,0.61029189
58a23b2b27c3bb00014e6d9a,172,3,2024-02-24T08:35:48.313Z,french_226.wav,0,poule,596,40,4,5,français,f,3,0.25666667,45.31971501,0.53544367
58a23b2b27c3bb00014e6d9a,173,3,2024-02-24T08:35:48.313Z,french_277.wav,0,poule,490,40,4,5,français,f,0,0.0,25.76771762,1.36859257
58a23b2b27c3bb00014e6d9a,173,3,2024-02-24T08:35:48.313Z,french_277.wav,0,poule,490,40,4,5,français,f,1,0.1,-70.25975294,1.02052852
58a23b2b27c3bb00014e6d9a,173,3,2024-02-24T08:35:48.313Z,french_277.wav,0,poule,490,40,4,5,français,f,2,0.2,-52.96477311,1.14771146
58a23b2b27c3bb00014e6d9a,173,3,2024-02-24T08:35:48.313Z,french_277.wav,0,poule,490,40,4,5,français,f,3,0.25666667,41.51950841,0.3441713
58a23b2b27c3bb00014e6d9a,174,3,2024-02-24T08:35:48.313Z,french_27.wav,0,poule,993,40,4,5,français,f,0,0.0,-24.90567196,0.77746957
58a23b2b27c3bb00014e6d9a,174,3,2024-02-24T08:35:48.313Z,french_27.wav,0,poule,993,40,4,5,français,f,1,0.1,-76.22865867,0.36572894
58a23b2b27c3bb00014e6d9a,174,3,2024-02-24T08:35:48.313Z,french_27.wav,0,poule,993,40,4,5,français,f,2,0.2,-70.77946922,1.07248112
58a23b2b27c3bb00014e6d9a,174,3,2024-02-24T08:35:48.313Z,french_27.wav,0,poule,993,40,4,5,français,f,3,0.25666667,-40.13018173,1.35477464
58a23b2b27c3bb00014e6d9a,175,3,2024-02-24T08:35:48.313Z,french_474.wav,0,pull,886,40,4,5,français,f,0,0.0,94.09836303,0.01406103
58a23b2b27c3bb00014e6d9a,175,3,2024-02-24T08:35:48.313Z,french_474.wav,0,pull,886,40,4,5,français,f,1,0.1,43.08248712,1.41739343
58a23b2b27c3bb00014e6d9a,175,3,2024-02-24T08:35:48.313Z,french_474.wav,0,pull,886,40,4,5,français,f,2,0.2,-98.14389097,1.7994516
58a23b2b27c3bb00014e6d9a,175,3,2024-02-24T08:35:48.313Z,french_474.wav,0,pull,886,40,4,5,français,f,3,0.25666667,-80.28643924,0.15166218
58a23b2b27c3bb00014e6d9a,176,3,2024-02-24T08:35:48.313Z,french_858.wav,0,pull,1092,40,4,5,français,f,0,0.0,-70.8749608,0.88986318
58a23b2b27c3bb00014e6d9a,176,3,2024-02-24T08:35:48.313Z,french_858.wav,0,pull,1092,40,4,5,français,f,1,0.1,-68.92821451,0.34092676
58a23b2b27c3bb00014e6d9a,176,3,2024-02-24T08:35:48.313Z,french_858.wav,0,pull,1092,40,4,5,français,f,2,0.2,48.1063746,0.38776381
58a23b2b27c3bb00014e6d9a,176,3,2024-02-24T08:35:48.313Z,french_858.wav,0,pull,1092,40,4,5,français,f,3,0.25666667,0.98463207,1.26771376
58a23b2b27c3bb00014e6d9a,177,3,2024-02-24T08:35:48.313Z,french_949.wav,0,poule,1254,40,4,5,français,f,0,0.0,29.18752906,0.08608659
58a23b2b27c3bb00014e6d9a,177,3,2024-02-24T08:35:48.313Z,french_949.wav,0,poule,1254,40,4,5,français,f,1,0.1,-67.27756955,1.93613179
58a23b2b27c3bb00014e6d9a,177,3,2024-02-24T08:35:48.313Z,french_949.wav,0,poule,1254,40,4,5,français,f,2,0.2,55.26419326,0.81834021
58a23b2b27c3bb00014e6d9a,177,3,2024-02-24T08:35:48.313Z,french_949.wav,0,poule,1254,40,4,5,français,f,3,0.25666667,11.27327126,0.09029871
58a23b2b27c3bb00014e6d9a,178,3,2024-02-24T08:35:48.313Z,french_544.wav,0,poule,622,40,4,5,français,f,0,0.0,-53.15565046,1.35860228
58a23b2b27c3bb00014e6d9a,178,3,2024-02-24T08:35:48.313Z,french_544.wav,0,poule,622,40,4,5,français,f,1,0.1,-92.4791724,0.93453098
58a23b2b27c3bb00014e6d9a,178,3,2024-02-24T08:35:48.313Z,french_544.wav,0,poule,622,40,4,5,français,f,2,0.2,38.15839594,0.5056151
58a23b2b27c3bb00014e6d9a,178,3,2024-02-24T08:35:48.313Z,french_544.wav,0,poule,622,40,4,5,français,f,3,0.25666667,24.38113977,1.47508
58a23b2b27c3bb00014e6d9a,179,3,2024-02-24T08:35:48.313Z,french_98.wav,0,poule,1195,40,4,5,français,f,0,0.0,-5.34356544,0.47275823
58a23b2b27c3bb00014e6d9a,179,3,2024-02-24T08:35:48.313Z,french_98.wav,0,poule,1195,40,4,5,français,f,1,0.1,-51.77157259,0.98771666
58a23b2b27c3bb00014e6d9a,179,3,2024-02-24T08:35:48.313Z,french_98.wav,0,poule,1195,40,4,5,français,f,2,0.2,16.6615471,0.01400035
58a23b2b27c3bb00014e6d9a,179,3,2024-02-24T08:35:48.313Z,french_98.wav,0,poule,1195,40,4,5,français,f,3,0.25666667,-37.68560636,0.42827786
58a23b2b27c3bb00014e6d9a,180,3,2024-02-24T08:35:48.313Z,french_92.wav,0,poule,472,40,4,5,français,f,0,0.0,59.20081487,1.21926368
58a23b2b27c3bb00014e6d9a,180,3,2024-02-24T08:35:48.313Z,french_92.wav,0,poule,472,40,4,5,français,f,1,0.1,95.6548793,1.56053314
58a23b2b27c3bb00014e6d9a,180,3,2024-02-24T08:35:48.313Z,french_92.wav,0,poule,472,40,4,5,français,f,2,0.2,-36.19224385,1.38632022
58a23b2b27c3bb00014e6d9a,180,3,2024-02-24T08:35:48.313Z,french_92.wav,0,poule,472,40,4,5,français,f,3,0.25666667,68.24894855,1.29084252
58a23b2b27c3bb00014e6d9a,181,3,2024-02-24T08:35:48.313Z,french_115.wav,0,poule,316,40,4,5,français,f,0,0.0,79.30886426,0.55665137
58a23b2b27c3bb00014e6d9a,181,3,2024-02-24T08:35:48.313Z,french_115.wav,0,poule,316,40,4,5,français,f,1,0.1,38.64809671,1.15526328
58a23b2b27c3bb00014e6d9a,181,3,2024-02-24T08:35:48.313Z,french_115.wav,0,poule,316,40,4,5,français,f,2,0.2,24.58912206,1.92727625
58a23b2b27c3bb00014e6d9a,181,3,2024-02-24T08:35:48.313Z,french_115.wav,0,poule,316,40,4,5,français,f,3,0.25666667,-50.07125558,0.36414304
58a23b2b27c3bb00014e6d9a,182,3,2024-02-24T08:35:48.313Z,french_827.wav,0,pull,812,40,4,5,français,f,0,0.0,52.76736232,0.65431252
58a23b2b27c3bb00014e6d9a,182,3,2024-02-24T08:35:48.313Z,french_827.wav,0,pull,812,40,4,5,français,f,1,0.1,43.3684124,1.37281261
58a23b2b27c3bb00014e6d9a,182,3,2024-02-24T08:35:48.313Z,french_827.wav,0,pull,812,40,4,5,français,f,2,0.2,5.13351566,0.35708699
58a23b2b27c3bb00014e6d9a,182,3,2024-02-24T08:35:48.313Z,french_827.wav,0,pull,812,40,4,5,français,f,3,0.25666667,57.45570888,0.33493738
58a23b2b27c3bb00014e6d9a,183,3,2024-02-24T08:35:48.313Z,french_23.wav,0,poule,387,40,4,5,français,f,0,0.0,60.31001525,1.86606536
58a23b2b27c3bb00014e6d9a,183,3,2024-02-24T08:35:48.313Z,french_23.wav,0,poule,387,40,4,5,français,f,1,0.1,-66.5420171,0.5728784
58a23b2b27c3bb00014e6d9a,183,3,2024-02-24T08:35:48.313Z,french_23.wav,0,poule,387,40,4,5,français,f,2,0.2,63.07925381,0.71513043
58a23b2b27c3bb00014e6d9a,183,3,2024-02-24T08:35:48.313Z,french_23.wav,0,poule,387,40,4,5,français,f,3,0.25666667,-69.51509132,1.52612213
58a23b2b27c3bb00014e6d9a,184,3,2024-02-24T08:35:48.313Z,french_362.wav,0,poule,357,40,4,5,français,f,0,0.0,-5.18125688,1.66521149
58a23b2b27c3bb00014e6d9a,184,3,2024-02-24T08:35:48.313Z,french_362.wav,0,poule,357,40,4,5,français,f,1,0.1,-33.24228679,1.63330091
58a23b2b27c3bb00014e6d9a,184,3,2024-02-24T08:35:48.313Z,french_362.wav,0,poule,357,40,4,5,français,f,2,0.2,13.99395474,0.18995652
58a23b2b27c3bb00014e6d9a,184,3,2024-02-24T08:35:48.313Z,french_362.wav,0,poule,357,40,4,5,français,f,3,0.25666667,-44.70505318,0.66219279
58a23b2b27c3bb00014e6d9a,185,3,2024-02-24T08:35:48.313Z,french_618.wav,0,poule,812,40,4,5,français,f,0,0.0,-48.84080529,0.47316377
58a23b2b27c3bb00014e6d9a,185,3,2024-02-24T08:35:48.313Z,french_618.wav,0,poule,812,40,4,5,français,f,1,0.1,52.1949693,0.45430598
58a23b2b27c3bb00014e6d9a,185,3,2024-02-24T08:35:48.313Z,french_618.wav,0,poule,812,40,4,5,français,f,2,0.2,2.68255661,0.75800451
58a23b2b27c3bb00014e6d9a,185,3,2024-02-24T08:35:48.313Z,french_618.wav,0,poule,812,40,4,5,français,f,3,0.25666667,-32.43465806,0.99622678
58a23b2b27c3bb00014e6d9a,186,3,2024-02-24T08:35:48.313Z,french_703.wav,0,poule,394,40,4,5,français,f,0,0.0,84.48201003,0.82331622
58a23b2b27c3bb00014e6d9a,186,3,2024-02-24T08:35:48.313Z,french_703.wav,0,poule,394,40,4,5,français,f,1,0.1,-13.2968245,1.50639414
58a23b2b27c3bb00014e6d9a,186,3,2024-02-24T08:35:48.313Z,french_703.wav,0,poule,394,40,4,5,français,f,2,0.2,-49.01598543,0.83966854
58a23b2b27c3bb00014e6d9a,186,3,2024-02-24T08:35:48.313Z,french_703.wav,0,poule,394,40,4,5,français,f,3,0.25666667,-63.56156529,1.27848793
58a23b2b27c3bb00014e6d9a,187,3,2024-02-24T08:35:48.313Z,french_936.wav,0,pull,965,40,4,5,français,f,0,0.0,-20.69739044,1.81100612
58a23b2b27c3bb00014e6d9a,187,3,2024-02-24T08:35:48.313Z,french_936.wav,0,pull,965,40,4,5,français,f,1,0.1,11.25896305,0.34150345
58a23b2b27c3bb00014e6d9a,187,3,2024-02-24T08:35:48.313Z,french_936.wav,0,pull,965,40,4,5,français,f,2,0.2,-73.43688333,0.78598688
58a23b2b27c3bb00014e6d9a,187,3,2024-02-24T08:35:48.313Z,french_936.wav,0,pull,965,40,4,5,français,f,3,0.25666667,14.6038409,0.34536881
58a23b2b27c3bb00014e6d9a,188,3,2024-02-24T08:35:48.313Z,french_129.wav,0,poule,943,40,4,5,français,f,0,0.0,13.25855459,0.8608045
58a23b2b27c3bb00014e6d9a,188,3,2024-02-24T08:35:48.313Z,french_129.wav,0,poule,943,40,4,5,français,f,1,0.1,-92.03942204,1.75332116
58a23b2b27c3bb00014e6d9a,188,3,2024-02-24T08:35:48.313Z,french_129.wav,0,poule,943,40,4,5,français,f,2,0.2,62.50888813,0.44840231
58a23b2b27c3bb00014e6d9a,188,3,2024-02-24T08:35:48.313Z,french_129.wav,0,poule,943,40,4,5,français,f,3,0.25666667,39.35321197,1.56291845
58a23b2b27c3bb00014e6d9a,189,3,2024-02-24T08:35:48.313Z,french_11.wav,0,poule,462,40,4,5,français,f,0,0.0,-27.01625533,0.65463853
58a23b2b27c3bb00014e6d9a,189,3,2024-02-24T08:35:48.313Z,french_11.wav,0,poule,462,40,4,5,français,f,1,0.1,30.5454192,0.82547758
58a23b2b27c3bb00014e6d9a,189,3,2024-02-24T08:35:48.313Z,french_11.wav,0,poule,462,40,4,5,français,f,2,0.2,-10.3355652,1.18020414
58a23b2b27c3bb00014e6d9a,189,3,2024-02-24T08:35:48.313Z,french_11.wav,0,poule,462,40,4,5,français,f,3,0.25666667,-1.40658107,0.75245655
