subj,trial,block,date,stim,stim_order,response,rt,age,english,french,language,sex,param_index,segment,pitch,stretch
5d64f820c94fbf0001addee8,0,0,2024-02-27T09:28:48.800Z,french_579.wav,0,poule,2596,34,5,5,Français,M,0,0.0,43.6749768,0.88309836
5d64f820c94fbf0001addee8,0,0,2024-02-27T09:28:48.800Z,french_579.wav,0,poule,2596,34,5,5,Français,M,1,0.1,44.80331973,0.15383342
5d64f820c94fbf0001addee8,0,0,2024-02-27T09:28:48.800Z,french_579.wav,0,poule,2596,34,5,5,Français,M,2,0.2,80.34685553,0.11279804
5d64f820c94fbf0001addee8,0,0,2024-02-27T09:28:48.800Z,french_579.wav,0,poule,2596,34,5,5,Français,M,3,0.25666667,-77.70594339,1.88524282
5d64f820c94fbf0001addee8,1,0,2024-02-27T09:28:48.800Z,french_397.wav,0,poule,886,34,5,5,Français,M,0,0.0,-13.81470081,1.26162917
5d64f820c94fbf0001addee8,1,0,2024-02-27T09:28:48.800Z,french_397.wav,0,poule,886,34,5,5,Français,M,1,0.1,50.38281738,1.19612478
5d64f820c94fbf0001addee8,1,0,2024-02-27T09:28:48.800Z,french_397.wav,0,poule,886,34,5,5,Français,M,2,0.2,50.22980228,1.02842354
5d64f820c94fbf0001addee8,1,0,2024-02-27T09:28:48.800Z,french_397.wav,0,poule,886,34,5,5,Français,M,3,0.25666667,-83.86271009,0.53389444
5d64f820c94fbf0001addee8,2,0,2024-02-27T09:28:48.800Z,french_772.wav,0,pull,1412,34,5,5,Français,M,0,0.0,13.96800705,0.2991113
5d64f820c94fbf0001addee8,2,0,2024-02-27T09:28:48.800Z,french_772.wav,0,pull,1412,34,5,5,Français,M,1,0.1,5.87945336,0.00189684
5d64f820c94fbf0001addee8,2,0,2024-02-27T09:28:48.800Z,french_772.wav,0,pull,1412,34,5,5,Français,M,2,0.2,15.35769187,0.99190584
5d64f820c94fbf0001addee8,2,0,2024-02-27T09:28:48.800Z,french_772.wav,0,pull,1412,34,5,5,Français,M,3,0.25666667,-12.22278281,1.49955539
5d64f820c94fbf0001addee8,3,0,2024-02-27T09:28:48.800Z,french_134.wav,0,poule,1348,34,5,5,Français,M,0,0.0,-65.58132827,0.68669704
5d64f820c94fbf0001addee8,3,0,2024-02-27T09:28:48.800Z,french_134.wav,0,poule,1348,34,5,5,Français,M,1,0.1,-89.82992505,1.50131287
5d64f820c94fbf0001addee8,3,0,2024-02-27T09:28:48.800Z,french_134.wav,0,poule,1348,34,5,5,Français,M,2,0.2,9.99695038,0.69598371
5d64f820c94fbf0001addee8,3,0,2024-02-27T09:28:48.800Z,french_134.wav,0,poule,1348,34,5,5,Français,M,3,0.25666667,24.50908123,1.57047358
5d64f820c94fbf0001addee8,4,0,2024-02-27T09:28:48.800Z,french_126.wav,0,pull,1317,34,5,5,Français,M,0,0.0,92.90369484,0.56379558
5d64f820c94fbf0001addee8,4,0,2024-02-27T09:28:48.800Z,french_126.wav,0,pull,1317,34,5,5,Français,M,1,0.1,25.09820179,1.73295328
5d64f820c94fbf0001addee8,4,0,2024-02-27T09:28:48.800Z,french_126.wav,0,pull,1317,34,5,5,Français,M,2,0.2,92.10026461,0.28067586
5d64f820c94fbf0001addee8,4,0,2024-02-27T09:28:48.800Z,french_126.wav,0,pull,1317,34,5,5,Français,M,3,0.25666667,-27.205087,0.82028398
5d64f820c94fbf0001addee8,5,0,2024-02-27T09:28:48.800Z,french_769.wav,0,poule,1753,34,5,5,Français,M,0,0.0,78.39802529,0.31346408
5d64f820c94fbf0001addee8,5,0,2024-02-27T09:28:48.800Z,french_769.wav,0,poule,1753,34,5,5,Français,M,1,0.1,98.35868913,0.8359084
5d64f820c94fbf0001addee8,5,0,2024-02-27T09:28:48.800Z,french_769.wav,0,poule,1753,34,5,5,Français,M,2,0.2,-63.4251983,1.75433615
5d64f820c94fbf0001addee8,5,0,2024-02-27T09:28:48.800Z,french_769.wav,0,poule,1753,34,5,5,Français,M,3,0.25666667,-17.35256236,0.30245362
5d64f820c94fbf0001addee8,6,0,2024-02-27T09:28:48.800Z,french_672.wav,0,pull,632,34,5,5,Français,M,0,0.0,-6.36877595,1.19503778
5d64f820c94fbf0001addee8,6,0,2024-02-27T09:28:48.800Z,french_672.wav,0,pull,632,34,5,5,Français,M,1,0.1,45.21137281,0.09977323
5d64f820c94fbf0001addee8,6,0,2024-02-27T09:28:48.800Z,french_672.wav,0,pull,632,34,5,5,Français,M,2,0.2,80.52737907,0.72738581
5d64f820c94fbf0001addee8,6,0,2024-02-27T09:28:48.800Z,french_672.wav,0,pull,632,34,5,5,Français,M,3,0.25666667,83.07440583,0.28099012
5d64f820c94fbf0001addee8,7,0,2024-02-27T09:28:48.800Z,french_901.wav,0,poule,400,34,5,5,Français,M,0,0.0,-25.19173586,1.14646858
5d64f820c94fbf0001addee8,7,0,2024-02-27T09:28:48.800Z,french_901.wav,0,poule,400,34,5,5,Français,M,1,0.1,-52.79367362,1.72960478
5d64f820c94fbf0001addee8,7,0,2024-02-27T09:28:48.800Z,french_901.wav,0,poule,400,34,5,5,Français,M,2,0.2,31.61264675,1.50121635
5d64f820c94fbf0001addee8,7,0,2024-02-27T09:28:48.800Z,french_901.wav,0,poule,400,34,5,5,Français,M,3,0.25666667,-8.05782551,0.87544333
5d64f820c94fbf0001addee8,8,0,2024-02-27T09:28:48.800Z,french_836.wav,0,poule,2041,34,5,5,Français,M,0,0.0,40.23641464,0.42377088
5d64f820c94fbf0001addee8,8,0,2024-02-27T09:28:48.800Z,french_836.wav,0,poule,2041,34,5,5,Français,M,1,0.1,53.79535187,0.63943013
5d64f820c94fbf0001addee8,8,0,2024-02-27T09:28:48.800Z,french_836.wav,0,poule,2041,34,5,5,Français,M,2,0.2,-4.0789246,1.19242466
5d64f820c94fbf0001addee8,8,0,2024-02-27T09:28:48.800Z,french_836.wav,0,poule,2041,34,5,5,Français,M,3,0.25666667,3.8536211,1.488673
5d64f820c94fbf0001addee8,9,0,2024-02-27T09:28:48.800Z,french_527.wav,0,poule,2436,34,5,5,Français,M,0,0.0,97.81644093,0.09503525
5d64f820c94fbf0001addee8,9,0,2024-02-27T09:28:48.800Z,french_527.wav,0,poule,2436,34,5,5,Français,M,1,0.1,68.05004199,0.33267387
5d64f820c94fbf0001addee8,9,0,2024-02-27T09:28:48.800Z,french_527.wav,0,poule,2436,34,5,5,Français,M,2,0.2,-44.05597581,1.51053464
5d64f820c94fbf0001addee8,9,0,2024-02-27T09:28:48.800Z,french_527.wav,0,poule,2436,34,5,5,Français,M,3,0.25666667,40.91945638,1.37458991
5d64f820c94fbf0001addee8,10,0,2024-02-27T09:28:48.800Z,french_800.wav,0,pull,633,34,5,5,Français,M,0,0.0,43.61588251,1.33995655
5d64f820c94fbf0001addee8,10,0,2024-02-27T09:28:48.800Z,french_800.wav,0,pull,633,34,5,5,Français,M,1,0.1,-17.8471941,0.26774995
5d64f820c94fbf0001addee8,10,0,2024-02-27T09:28:48.800Z,french_800.wav,0,pull,633,34,5,5,Français,M,2,0.2,-10.2363333,0.87274599
5d64f820c94fbf0001addee8,10,0,2024-02-27T09:28:48.800Z,french_800.wav,0,pull,633,34,5,5,Français,M,3,0.25666667,-85.1878963,0.37568781
5d64f820c94fbf0001addee8,11,0,2024-02-27T09:28:48.800Z,french_689.wav,0,pull,1098,34,5,5,Français,M,0,0.0,-76.83712438,1.91162084
5d64f820c94fbf0001addee8,11,0,2024-02-27T09:28:48.800Z,french_689.wav,0,pull,1098,34,5,5,Français,M,1,0.1,64.54047654,0.68488006
5d64f820c94fbf0001addee8,11,0,2024-02-27T09:28:48.800Z,french_689.wav,0,pull,1098,34,5,5,Français,M,2,0.2,42.91011154,0.17067082
5d64f820c94fbf0001addee8,11,0,2024-02-27T09:28:48.800Z,french_689.wav,0,pull,1098,34,5,5,Français,M,3,0.25666667,-94.73892594,1.05586556
5d64f820c94fbf0001addee8,12,0,2024-02-27T09:28:48.800Z,french_519.wav,0,poule,472,34,5,5,Français,M,0,0.0,86.76456043,1.09635868
5d64f820c94fbf0001addee8,12,0,2024-02-27T09:28:48.800Z,french_519.wav,0,poule,472,34,5,5,Français,M,1,0.1,8.46145491,1.19136691
5d64f820c94fbf0001addee8,12,0,2024-02-27T09:28:48.800Z,french_519.wav,0,poule,472,34,5,5,Français,M,2,0.2,-48.6822419,1.7889624
5d64f820c94fbf0001addee8,12,0,2024-02-27T09:28:48.800Z,french_519.wav,0,poule,472,34,5,5,Français,M,3,0.25666667,-44.03350662,1.1754675
5d64f820c94fbf0001addee8,13,0,2024-02-27T09:28:48.800Z,french_807.wav,0,pull,827,34,5,5,Français,M,0,0.0,41.22965042,0.26309645
5d64f820c94fbf0001addee8,13,0,2024-02-27T09:28:48.800Z,french_807.wav,0,pull,827,34,5,5,Français,M,1,0.1,55.45523643,0.30227962
5d64f820c94fbf0001addee8,13,0,2024-02-27T09:28:48.800Z,french_807.wav,0,pull,827,34,5,5,Français,M,2,0.2,-56.08981041,0.58983644
5d64f820c94fbf0001addee8,13,0,2024-02-27T09:28:48.800Z,french_807.wav,0,pull,827,34,5,5,Français,M,3,0.25666667,27.67304414,1.26996728
5d64f820c94fbf0001addee8,14,0,2024-02-27T09:28:48.800Z,french_429.wav,0,poule,916,34,5,5,Français,M,0,0.0,-86.61428582,0.48550144
5d64f820c94fbf0001addee8,14,0,2024-02-27T09:28:48.800Z,french_429.wav,0,poule,916,34,5,5,Français,M,1,0.1,-42.15720505,1.43221201
5d64f820c94fbf0001addee8,14,0,2024-02-27T09:28:48.800Z,french_429.wav,0,poule,916,34,5,5,Français,M,2,0.2,57.81850322,1.77393014
5d64f820c94fbf0001addee8,14,0,2024-02-27T09:28:48.800Z,french_429.wav,0,poule,916,34,5,5,Français,M,3,0.25666667,56.8864302,0.85506946
5d64f820c94fbf0001addee8,15,0,2024-02-27T09:28:48.800Z,french_877.wav,0,pull,1662,34,5,5,Français,M,0,0.0,-23.96574217,0.96253444
5d64f820c94fbf0001addee8,15,0,2024-02-27T09:28:48.800Z,french_877.wav,0,pull,1662,34,5,5,Français,M,1,0.1,51.07186547,1.01009898
5d64f820c94fbf0001addee8,15,0,2024-02-27T09:28:48.800Z,french_877.wav,0,pull,1662,34,5,5,Français,M,2,0.2,26.38223439,1.26042149
5d64f820c94fbf0001addee8,15,0,2024-02-27T09:28:48.800Z,french_877.wav,0,pull,1662,34,5,5,Français,M,3,0.25666667,57.01482149,0.37917076
5d64f820c94fbf0001addee8,16,0,2024-02-27T09:28:48.800Z,french_505.wav,0,poule,700,34,5,5,Français,M,0,0.0,-38.72168331,1.89725183
5d64f820c94fbf0001addee8,16,0,2024-02-27T09:28:48.800Z,french_505.wav,0,poule,700,34,5,5,Français,M,1,0.1,-12.49542568,0.88243769
5d64f820c94fbf0001addee8,16,0,2024-02-27T09:28:48.800Z,french_505.wav,0,poule,700,34,5,5,Français,M,2,0.2,71.90880982,1.24748728
5d64f820c94fbf0001addee8,16,0,2024-02-27T09:28:48.800Z,french_505.wav,0,poule,700,34,5,5,Français,M,3,0.25666667,-94.40337553,0.62032879
5d64f820c94fbf0001addee8,17,0,2024-02-27T09:28:48.800Z,french_658.wav,0,pull,521,34,5,5,Français,M,0,0.0,-96.64822149,1.39139244
5d64f820c94fbf0001addee8,17,0,2024-02-27T09:28:48.800Z,french_658.wav,0,pull,521,34,5,5,Français,M,1,0.1,49.0828934,0.52881355
5d64f820c94fbf0001addee8,17,0,2024-02-27T09:28:48.800Z,french_658.wav,0,pull,521,34,5,5,Français,M,2,0.2,12.17217875,0.81868418
5d64f820c94fbf0001addee8,17,0,2024-02-27T09:28:48.800Z,french_658.wav,0,pull,521,34,5,5,Français,M,3,0.25666667,21.40759607,0.56425508
5d64f820c94fbf0001addee8,18,0,2024-02-27T09:28:48.800Z,french_310.wav,0,poule,586,34,5,5,Français,M,0,0.0,-83.78338178,0.11877442
5d64f820c94fbf0001addee8,18,0,2024-02-27T09:28:48.800Z,french_310.wav,0,poule,586,34,5,5,Français,M,1,0.1,-13.73891655,1.32851017
5d64f820c94fbf0001addee8,18,0,2024-02-27T09:28:48.800Z,french_310.wav,0,poule,586,34,5,5,Français,M,2,0.2,58.07821313,0.76082745
5d64f820c94fbf0001addee8,18,0,2024-02-27T09:28:48.800Z,french_310.wav,0,poule,586,34,5,5,Français,M,3,0.25666667,26.26954934,1.37378881
5d64f820c94fbf0001addee8,19,0,2024-02-27T09:28:48.800Z,french_973.wav,0,poule,1536,34,5,5,Français,M,0,0.0,-99.0384004,1.64247416
5d64f820c94fbf0001addee8,19,0,2024-02-27T09:28:48.800Z,french_973.wav,0,poule,1536,34,5,5,Français,M,1,0.1,40.13117567,0.98090528
5d64f820c94fbf0001addee8,19,0,2024-02-27T09:28:48.800Z,french_973.wav,0,poule,1536,34,5,5,Français,M,2,0.2,49.54188212,1.75566355
5d64f820c94fbf0001addee8,19,0,2024-02-27T09:28:48.800Z,french_973.wav,0,poule,1536,34,5,5,Français,M,3,0.25666667,89.60941169,0.64442147
5d64f820c94fbf0001addee8,20,0,2024-02-27T09:28:48.800Z,french_26.wav,0,pull,594,34,5,5,Français,M,0,0.0,-38.52186107,1.55913274
5d64f820c94fbf0001addee8,20,0,2024-02-27T09:28:48.800Z,french_26.wav,0,pull,594,34,5,5,Français,M,1,0.1,92.94908957,0.73355846
5d64f820c94fbf0001addee8,20,0,2024-02-27T09:28:48.800Z,french_26.wav,0,pull,594,34,5,5,Français,M,2,0.2,38.63958599,0.51766924
5d64f820c94fbf0001addee8,20,0,2024-02-27T09:28:48.800Z,french_26.wav,0,pull,594,34,5,5,Français,M,3,0.25666667,81.76747676,0.7935304
5d64f820c94fbf0001addee8,21,0,2024-02-27T09:28:48.800Z,french_173.wav,0,pull,927,34,5,5,Français,M,0,0.0,-85.34625679,1.0505287
5d64f820c94fbf0001addee8,21,0,2024-02-27T09:28:48.800Z,french_173.wav,0,pull,927,34,5,5,Français,M,1,0.1,19.71799215,1.50206547
5d64f820c94fbf0001addee8,21,0,2024-02-27T09:28:48.800Z,french_173.wav,0,pull,927,34,5,5,Français,M,2,0.2,-84.96079432,1.53807785
5d64f820c94fbf0001addee8,21,0,2024-02-27T09:28:48.800Z,french_173.wav,0,pull,927,34,5,5,Français,M,3,0.25666667,-20.27996547,1.54027091
5d64f820c94fbf0001addee8,22,0,2024-02-27T09:28:48.800Z,french_279.wav,0,pull,1322,34,5,5,Français,M,0,0.0,-82.72654322,1.91034617
5d64f820c94fbf0001addee8,22,0,2024-02-27T09:28:48.800Z,french_279.wav,0,pull,1322,34,5,5,Français,M,1,0.1,51.19533055,0.35578453
5d64f820c94fbf0001addee8,22,0,2024-02-27T09:28:48.800Z,french_279.wav,0,pull,1322,34,5,5,Français,M,2,0.2,81.3850192,1.45645662
5d64f820c94fbf0001addee8,22,0,2024-02-27T09:28:48.800Z,french_279.wav,0,pull,1322,34,5,5,Français,M,3,0.25666667,12.9967417,1.34605049
5d64f820c94fbf0001addee8,23,0,2024-02-27T09:28:48.800Z,french_704.wav,0,poule,494,34,5,5,Français,M,0,0.0,47.78235411,1.53952375
5d64f820c94fbf0001addee8,23,0,2024-02-27T09:28:48.800Z,french_704.wav,0,poule,494,34,5,5,Français,M,1,0.1,-55.43932,1.15285736
5d64f820c94fbf0001addee8,23,0,2024-02-27T09:28:48.800Z,french_704.wav,0,poule,494,34,5,5,Français,M,2,0.2,-4.4200676,1.9057017
5d64f820c94fbf0001addee8,23,0,2024-02-27T09:28:48.800Z,french_704.wav,0,poule,494,34,5,5,Français,M,3,0.25666667,92.51428674,1.54517481
5d64f820c94fbf0001addee8,24,0,2024-02-27T09:28:48.800Z,french_243.wav,0,poule,832,34,5,5,Français,M,0,0.0,94.15218044,0.53955239
5d64f820c94fbf0001addee8,24,0,2024-02-27T09:28:48.800Z,french_243.wav,0,poule,832,34,5,5,Français,M,1,0.1,77.54642038,1.33237065
5d64f820c94fbf0001addee8,24,0,2024-02-27T09:28:48.800Z,french_243.wav,0,poule,832,34,5,5,Français,M,2,0.2,-54.61145872,1.76705621
5d64f820c94fbf0001addee8,24,0,2024-02-27T09:28:48.800Z,french_243.wav,0,poule,832,34,5,5,Français,M,3,0.25666667,-22.57869657,1.15577178
5d64f820c94fbf0001addee8,25,0,2024-02-27T09:28:48.800Z,french_232.wav,0,poule,754,34,5,5,Français,M,0,0.0,48.62304181,1.60041799
5d64f820c94fbf0001addee8,25,0,2024-02-27T09:28:48.800Z,french_232.wav,0,poule,754,34,5,5,Français,M,1,0.1,-66.91586117,0.5698369
5d64f820c94fbf0001addee8,25,0,2024-02-27T09:28:48.800Z,french_232.wav,0,poule,754,34,5,5,Français,M,2,0.2,-71.38800945,1.21368891
5d64f820c94fbf0001addee8,25,0,2024-02-27T09:28:48.800Z,french_232.wav,0,poule,754,34,5,5,Français,M,3,0.25666667,32.42157584,1.05085576
5d64f820c94fbf0001addee8,26,0,2024-02-27T09:28:48.800Z,french_416.wav,0,poule,484,34,5,5,Français,M,0,0.0,27.68943274,1.77963231
5d64f820c94fbf0001addee8,26,0,2024-02-27T09:28:48.800Z,french_416.wav,0,poule,484,34,5,5,Français,M,1,0.1,-10.10461599,1.68240888
5d64f820c94fbf0001addee8,26,0,2024-02-27T09:28:48.800Z,french_416.wav,0,poule,484,34,5,5,Français,M,2,0.2,24.64183683,1.38997073
5d64f820c94fbf0001addee8,26,0,2024-02-27T09:28:48.800Z,french_416.wav,0,poule,484,34,5,5,Français,M,3,0.25666667,96.08137129,0.64151937
5d64f820c94fbf0001addee8,27,0,2024-02-27T09:28:48.800Z,french_109.wav,0,poule,420,34,5,5,Français,M,0,0.0,-57.66612313,0.91141338
5d64f820c94fbf0001addee8,27,0,2024-02-27T09:28:48.800Z,french_109.wav,0,poule,420,34,5,5,Français,M,1,0.1,-72.54090479,1.63809523
5d64f820c94fbf0001addee8,27,0,2024-02-27T09:28:48.800Z,french_109.wav,0,poule,420,34,5,5,Français,M,2,0.2,-5.66573875,1.08686957
5d64f820c94fbf0001addee8,27,0,2024-02-27T09:28:48.800Z,french_109.wav,0,poule,420,34,5,5,Français,M,3,0.25666667,-86.22212262,0.85420458
5d64f820c94fbf0001addee8,28,0,2024-02-27T09:28:48.800Z,french_862.wav,0,pull,1398,34,5,5,Français,M,0,0.0,99.41401176,0.02807195
5d64f820c94fbf0001addee8,28,0,2024-02-27T09:28:48.800Z,french_862.wav,0,pull,1398,34,5,5,Français,M,1,0.1,35.25307956,0.7885189
5d64f820c94fbf0001addee8,28,0,2024-02-27T09:28:48.800Z,french_862.wav,0,pull,1398,34,5,5,Français,M,2,0.2,-56.34938096,0.76649358
5d64f820c94fbf0001addee8,28,0,2024-02-27T09:28:48.800Z,french_862.wav,0,pull,1398,34,5,5,Français,M,3,0.25666667,-51.21225279,1.75346492
5d64f820c94fbf0001addee8,29,0,2024-02-27T09:28:48.800Z,french_871.wav,0,poule,424,34,5,5,Français,M,0,0.0,-4.85456223,1.97775754
5d64f820c94fbf0001addee8,29,0,2024-02-27T09:28:48.800Z,french_871.wav,0,poule,424,34,5,5,Français,M,1,0.1,78.38715758,1.19373072
5d64f820c94fbf0001addee8,29,0,2024-02-27T09:28:48.800Z,french_871.wav,0,poule,424,34,5,5,Français,M,2,0.2,-65.12117647,1.5578529
5d64f820c94fbf0001addee8,29,0,2024-02-27T09:28:48.800Z,french_871.wav,0,poule,424,34,5,5,Français,M,3,0.25666667,96.09900544,1.61262149
5d64f820c94fbf0001addee8,30,0,2024-02-27T09:28:48.800Z,french_855.wav,0,poule,466,34,5,5,Français,M,0,0.0,2.71159552,1.64624975
5d64f820c94fbf0001addee8,30,0,2024-02-27T09:28:48.800Z,french_855.wav,0,poule,466,34,5,5,Français,M,1,0.1,66.05842931,0.54809415
5d64f820c94fbf0001addee8,30,0,2024-02-27T09:28:48.800Z,french_855.wav,0,poule,466,34,5,5,Français,M,2,0.2,41.00995311,1.64541289
5d64f820c94fbf0001addee8,30,0,2024-02-27T09:28:48.800Z,french_855.wav,0,poule,466,34,5,5,Français,M,3,0.25666667,98.2962498,1.22205238
5d64f820c94fbf0001addee8,31,0,2024-02-27T09:28:48.800Z,french_366.wav,0,poule,688,34,5,5,Français,M,0,0.0,-11.67543603,0.93730839
5d64f820c94fbf0001addee8,31,0,2024-02-27T09:28:48.800Z,french_366.wav,0,poule,688,34,5,5,Français,M,1,0.1,-73.020852,0.54674712
5d64f820c94fbf0001addee8,31,0,2024-02-27T09:28:48.800Z,french_366.wav,0,poule,688,34,5,5,Français,M,2,0.2,-53.53259577,0.98192793
5d64f820c94fbf0001addee8,31,0,2024-02-27T09:28:48.800Z,french_366.wav,0,poule,688,34,5,5,Français,M,3,0.25666667,19.02620798,0.14835446
5d64f820c94fbf0001addee8,32,0,2024-02-27T09:28:48.800Z,french_160.wav,0,poule,414,34,5,5,Français,M,0,0.0,94.580754,1.48632924
5d64f820c94fbf0001addee8,32,0,2024-02-27T09:28:48.800Z,french_160.wav,0,poule,414,34,5,5,Français,M,1,0.1,-77.59057929,0.83284567
5d64f820c94fbf0001addee8,32,0,2024-02-27T09:28:48.800Z,french_160.wav,0,poule,414,34,5,5,Français,M,2,0.2,49.28871101,1.32543638
5d64f820c94fbf0001addee8,32,0,2024-02-27T09:28:48.800Z,french_160.wav,0,poule,414,34,5,5,Français,M,3,0.25666667,54.34008904,1.18016963
5d64f820c94fbf0001addee8,33,0,2024-02-27T09:28:48.800Z,french_854.wav,0,poule,456,34,5,5,Français,M,0,0.0,-7.31529778,1.19205775
5d64f820c94fbf0001addee8,33,0,2024-02-27T09:28:48.800Z,french_854.wav,0,poule,456,34,5,5,Français,M,1,0.1,-99.41756076,1.8519083
5d64f820c94fbf0001addee8,33,0,2024-02-27T09:28:48.800Z,french_854.wav,0,poule,456,34,5,5,Français,M,2,0.2,9.72781791,0.75121465
5d64f820c94fbf0001addee8,33,0,2024-02-27T09:28:48.800Z,french_854.wav,0,poule,456,34,5,5,Français,M,3,0.25666667,12.92966386,0.73809803
5d64f820c94fbf0001addee8,34,0,2024-02-27T09:28:48.800Z,french_541.wav,0,poule,318,34,5,5,Français,M,0,0.0,53.31308138,1.84251248
5d64f820c94fbf0001addee8,34,0,2024-02-27T09:28:48.800Z,french_541.wav,0,poule,318,34,5,5,Français,M,1,0.1,48.16539561,0.97729738
5d64f820c94fbf0001addee8,34,0,2024-02-27T09:28:48.800Z,french_541.wav,0,poule,318,34,5,5,Français,M,2,0.2,-38.85260984,1.28801687
5d64f820c94fbf0001addee8,34,0,2024-02-27T09:28:48.800Z,french_541.wav,0,poule,318,34,5,5,Français,M,3,0.25666667,47.13501746,0.86548213
5d64f820c94fbf0001addee8,35,0,2024-02-27T09:28:48.800Z,french_652.wav,0,poule,1078,34,5,5,Français,M,0,0.0,19.60271983,1.92708098
5d64f820c94fbf0001addee8,35,0,2024-02-27T09:28:48.800Z,french_652.wav,0,poule,1078,34,5,5,Français,M,1,0.1,-55.33376602,1.28238944
5d64f820c94fbf0001addee8,35,0,2024-02-27T09:28:48.800Z,french_652.wav,0,poule,1078,34,5,5,Français,M,2,0.2,42.10956493,0.03244996
5d64f820c94fbf0001addee8,35,0,2024-02-27T09:28:48.800Z,french_652.wav,0,poule,1078,34,5,5,Français,M,3,0.25666667,-47.80028189,1.59505934
5d64f820c94fbf0001addee8,36,0,2024-02-27T09:28:48.800Z,french_892.wav,0,poule,1016,34,5,5,Français,M,0,0.0,-9.89123065,1.43345907
5d64f820c94fbf0001addee8,36,0,2024-02-27T09:28:48.800Z,french_892.wav,0,poule,1016,34,5,5,Français,M,1,0.1,-29.48301763,0.60115207
5d64f820c94fbf0001addee8,36,0,2024-02-27T09:28:48.800Z,french_892.wav,0,poule,1016,34,5,5,Français,M,2,0.2,-20.12274852,0.51672516
5d64f820c94fbf0001addee8,36,0,2024-02-27T09:28:48.800Z,french_892.wav,0,poule,1016,34,5,5,Français,M,3,0.25666667,-63.31716547,0.2983609
5d64f820c94fbf0001addee8,37,0,2024-02-27T09:28:48.800Z,french_389.wav,0,poule,454,34,5,5,Français,M,0,0.0,69.62296415,1.67675408
5d64f820c94fbf0001addee8,37,0,2024-02-27T09:28:48.800Z,french_389.wav,0,poule,454,34,5,5,Français,M,1,0.1,-41.49433877,1.60540147
5d64f820c94fbf0001addee8,37,0,2024-02-27T09:28:48.800Z,french_389.wav,0,poule,454,34,5,5,Français,M,2,0.2,-65.025051,0.45817867
5d64f820c94fbf0001addee8,37,0,2024-02-27T09:28:48.800Z,french_389.wav,0,poule,454,34,5,5,Français,M,3,0.25666667,10.9117334,1.10562968
5d64f820c94fbf0001addee8,38,0,2024-02-27T09:28:48.800Z,french_169.wav,0,poule,1026,34,5,5,Français,M,0,0.0,14.47590961,1.38784349
5d64f820c94fbf0001addee8,38,0,2024-02-27T09:28:48.800Z,french_169.wav,0,poule,1026,34,5,5,Français,M,1,0.1,38.07545665,1.28983767
5d64f820c94fbf0001addee8,38,0,2024-02-27T09:28:48.800Z,french_169.wav,0,poule,1026,34,5,5,Français,M,2,0.2,-50.40298695,0.58936297
5d64f820c94fbf0001addee8,38,0,2024-02-27T09:28:48.800Z,french_169.wav,0,poule,1026,34,5,5,Français,M,3,0.25666667,25.61467991,0.49151359
5d64f820c94fbf0001addee8,39,0,2024-02-27T09:28:48.800Z,french_694.wav,0,poule,416,34,5,5,Français,M,0,0.0,17.77218449,1.83585748
5d64f820c94fbf0001addee8,39,0,2024-02-27T09:28:48.800Z,french_694.wav,0,poule,416,34,5,5,Français,M,1,0.1,99.46599521,0.80026037
5d64f820c94fbf0001addee8,39,0,2024-02-27T09:28:48.800Z,french_694.wav,0,poule,416,34,5,5,Français,M,2,0.2,-15.42512366,1.77531791
5d64f820c94fbf0001addee8,39,0,2024-02-27T09:28:48.800Z,french_694.wav,0,poule,416,34,5,5,Français,M,3,0.25666667,-86.21441247,1.07868716
5d64f820c94fbf0001addee8,40,0,2024-02-27T09:28:48.800Z,french_394.wav,0,poule,412,34,5,5,Français,M,0,0.0,-46.0867736,1.77850735
5d64f820c94fbf0001addee8,40,0,2024-02-27T09:28:48.800Z,french_394.wav,0,poule,412,34,5,5,Français,M,1,0.1,-42.56429646,0.50210825
5d64f820c94fbf0001addee8,40,0,2024-02-27T09:28:48.800Z,french_394.wav,0,poule,412,34,5,5,Français,M,2,0.2,31.61260766,1.1233825
5d64f820c94fbf0001addee8,40,0,2024-02-27T09:28:48.800Z,french_394.wav,0,poule,412,34,5,5,Français,M,3,0.25666667,-7.99475259,0.72186821
5d64f820c94fbf0001addee8,41,0,2024-02-27T09:28:48.800Z,french_4.wav,0,pull,614,34,5,5,Français,M,0,0.0,98.95945082,0.64471479
5d64f820c94fbf0001addee8,41,0,2024-02-27T09:28:48.800Z,french_4.wav,0,pull,614,34,5,5,Français,M,1,0.1,-3.3646243,0.78588128
5d64f820c94fbf0001addee8,41,0,2024-02-27T09:28:48.800Z,french_4.wav,0,pull,614,34,5,5,Français,M,2,0.2,-24.17143146,0.06764648
5d64f820c94fbf0001addee8,41,0,2024-02-27T09:28:48.800Z,french_4.wav,0,pull,614,34,5,5,Français,M,3,0.25666667,88.72564355,1.26067449
5d64f820c94fbf0001addee8,42,0,2024-02-27T09:28:48.800Z,french_87.wav,0,poule,884,34,5,5,Français,M,0,0.0,57.46562038,1.84924107
5d64f820c94fbf0001addee8,42,0,2024-02-27T09:28:48.800Z,french_87.wav,0,poule,884,34,5,5,Français,M,1,0.1,64.37451918,1.35752119
5d64f820c94fbf0001addee8,42,0,2024-02-27T09:28:48.800Z,french_87.wav,0,poule,884,34,5,5,Français,M,2,0.2,34.82822911,1.55092153
5d64f820c94fbf0001addee8,42,0,2024-02-27T09:28:48.800Z,french_87.wav,0,poule,884,34,5,5,Français,M,3,0.25666667,-44.22171713,0.2478561
5d64f820c94fbf0001addee8,43,0,2024-02-27T09:28:48.800Z,french_522.wav,0,poule,684,34,5,5,Français,M,0,0.0,-33.95775035,0.92167055
5d64f820c94fbf0001addee8,43,0,2024-02-27T09:28:48.800Z,french_522.wav,0,poule,684,34,5,5,Français,M,1,0.1,-8.89346692,1.03421615
5d64f820c94fbf0001addee8,43,0,2024-02-27T09:28:48.800Z,french_522.wav,0,poule,684,34,5,5,Français,M,2,0.2,-13.71087049,0.39118917
5d64f820c94fbf0001addee8,43,0,2024-02-27T09:28:48.800Z,french_522.wav,0,poule,684,34,5,5,Français,M,3,0.25666667,29.03245504,1.12010972
5d64f820c94fbf0001addee8,44,0,2024-02-27T09:28:48.800Z,french_52.wav,0,poule,751,34,5,5,Français,M,0,0.0,77.15950351,1.06345864
5d64f820c94fbf0001addee8,44,0,2024-02-27T09:28:48.800Z,french_52.wav,0,poule,751,34,5,5,Français,M,1,0.1,66.43146777,1.73071791
5d64f820c94fbf0001addee8,44,0,2024-02-27T09:28:48.800Z,french_52.wav,0,poule,751,34,5,5,Français,M,2,0.2,76.85444305,1.08790246
5d64f820c94fbf0001addee8,44,0,2024-02-27T09:28:48.800Z,french_52.wav,0,poule,751,34,5,5,Français,M,3,0.25666667,-69.48513432,0.32336701
5d64f820c94fbf0001addee8,45,0,2024-02-27T09:28:48.800Z,french_926.wav,0,poule,682,34,5,5,Français,M,0,0.0,-38.30420493,1.0266732
5d64f820c94fbf0001addee8,45,0,2024-02-27T09:28:48.800Z,french_926.wav,0,poule,682,34,5,5,Français,M,1,0.1,-97.26803886,0.03873156
5d64f820c94fbf0001addee8,45,0,2024-02-27T09:28:48.800Z,french_926.wav,0,poule,682,34,5,5,Français,M,2,0.2,55.3544282,0.32593073
5d64f820c94fbf0001addee8,45,0,2024-02-27T09:28:48.800Z,french_926.wav,0,poule,682,34,5,5,Français,M,3,0.25666667,8.78644418,0.80695306
5d64f820c94fbf0001addee8,46,0,2024-02-27T09:28:48.800Z,french_977.wav,0,poule,811,34,5,5,Français,M,0,0.0,-23.34946859,1.58788712
5d64f820c94fbf0001addee8,46,0,2024-02-27T09:28:48.800Z,french_977.wav,0,poule,811,34,5,5,Français,M,1,0.1,-74.17160997,0.25032328
5d64f820c94fbf0001addee8,46,0,2024-02-27T09:28:48.800Z,french_977.wav,0,poule,811,34,5,5,Français,M,2,0.2,31.43852713,0.90752219
5d64f820c94fbf0001addee8,46,0,2024-02-27T09:28:48.800Z,french_977.wav,0,poule,811,34,5,5,Français,M,3,0.25666667,-10.29160018,1.52460946
5d64f820c94fbf0001addee8,47,0,2024-02-27T09:28:48.800Z,french_562.wav,0,poule,461,34,5,5,Français,M,0,0.0,12.26814589,1.17834032
5d64f820c94fbf0001addee8,47,0,2024-02-27T09:28:48.800Z,french_562.wav,0,poule,461,34,5,5,Français,M,1,0.1,-17.58329492,1.15702499
5d64f820c94fbf0001addee8,47,0,2024-02-27T09:28:48.800Z,french_562.wav,0,poule,461,34,5,5,Français,M,2,0.2,-20.00100575,1.2863232
5d64f820c94fbf0001addee8,47,0,2024-02-27T09:28:48.800Z,french_562.wav,0,poule,461,34,5,5,Français,M,3,0.25666667,-50.75971007,0.02470224
5d64f820c94fbf0001addee8,48,0,2024-02-27T09:28:48.800Z,french_986.wav,0,poule,850,34,5,5,Français,M,0,0.0,-69.96795985,1.93285955
5d64f820c94fbf0001addee8,48,0,2024-02-27T09:28:48.800Z,french_986.wav,0,poule,850,34,5,5,Français,M,1,0.1,-65.30377544,1.55838575
5d64f820c94fbf0001addee8,48,0,2024-02-27T09:28:48.800Z,french_986.wav,0,poule,850,34,5,5,Français,M,2,0.2,27.38987225,0.12645153
5d64f820c94fbf0001addee8,48,0,2024-02-27T09:28:48.800Z,french_986.wav,0,poule,850,34,5,5,Français,M,3,0.25666667,-55.80740264,0.78072242
5d64f820c94fbf0001addee8,49,0,2024-02-27T09:28:48.800Z,french_127.wav,0,pull,812,34,5,5,Français,M,0,0.0,56.99195339,1.23888103
5d64f820c94fbf0001addee8,49,0,2024-02-27T09:28:48.800Z,french_127.wav,0,pull,812,34,5,5,Français,M,1,0.1,71.02339704,1.9853403
5d64f820c94fbf0001addee8,49,0,2024-02-27T09:28:48.800Z,french_127.wav,0,pull,812,34,5,5,Français,M,2,0.2,72.81237495,0.22936254
5d64f820c94fbf0001addee8,49,0,2024-02-27T09:28:48.800Z,french_127.wav,0,pull,812,34,5,5,Français,M,3,0.25666667,99.25740409,0.23690129
5d64f820c94fbf0001addee8,50,1,2024-02-27T09:28:48.800Z,french_811.wav,0,poule,446,34,5,5,Français,M,0,0.0,35.12158591,1.63803033
5d64f820c94fbf0001addee8,50,1,2024-02-27T09:28:48.800Z,french_811.wav,0,poule,446,34,5,5,Français,M,1,0.1,4.09145181,0.91441893
5d64f820c94fbf0001addee8,50,1,2024-02-27T09:28:48.800Z,french_811.wav,0,poule,446,34,5,5,Français,M,2,0.2,-79.3353891,1.53056324
5d64f820c94fbf0001addee8,50,1,2024-02-27T09:28:48.800Z,french_811.wav,0,poule,446,34,5,5,Français,M,3,0.25666667,-59.5865152,1.20408751
5d64f820c94fbf0001addee8,51,1,2024-02-27T09:28:48.800Z,french_308.wav,0,poule,537,34,5,5,Français,M,0,0.0,10.28514005,0.92806529
5d64f820c94fbf0001addee8,51,1,2024-02-27T09:28:48.800Z,french_308.wav,0,poule,537,34,5,5,Français,M,1,0.1,-39.60290217,0.73191769
5d64f820c94fbf0001addee8,51,1,2024-02-27T09:28:48.800Z,french_308.wav,0,poule,537,34,5,5,Français,M,2,0.2,99.30719553,0.07740888
5d64f820c94fbf0001addee8,51,1,2024-02-27T09:28:48.800Z,french_308.wav,0,poule,537,34,5,5,Français,M,3,0.25666667,64.43745932,0.80481059
5d64f820c94fbf0001addee8,52,1,2024-02-27T09:28:48.800Z,french_117.wav,0,poule,530,34,5,5,Français,M,0,0.0,6.74214439,0.42718416
5d64f820c94fbf0001addee8,52,1,2024-02-27T09:28:48.800Z,french_117.wav,0,poule,530,34,5,5,Français,M,1,0.1,3.15736066,1.82203077
5d64f820c94fbf0001addee8,52,1,2024-02-27T09:28:48.800Z,french_117.wav,0,poule,530,34,5,5,Français,M,2,0.2,10.42128043,0.49696174
5d64f820c94fbf0001addee8,52,1,2024-02-27T09:28:48.800Z,french_117.wav,0,poule,530,34,5,5,Français,M,3,0.25666667,89.20041031,0.34350523
5d64f820c94fbf0001addee8,53,1,2024-02-27T09:28:48.800Z,french_766.wav,0,poule,858,34,5,5,Français,M,0,0.0,91.85829661,0.12079341
5d64f820c94fbf0001addee8,53,1,2024-02-27T09:28:48.800Z,french_766.wav,0,poule,858,34,5,5,Français,M,1,0.1,29.32583948,0.61287095
5d64f820c94fbf0001addee8,53,1,2024-02-27T09:28:48.800Z,french_766.wav,0,poule,858,34,5,5,Français,M,2,0.2,71.77245069,1.071897
5d64f820c94fbf0001addee8,53,1,2024-02-27T09:28:48.800Z,french_766.wav,0,poule,858,34,5,5,Français,M,3,0.25666667,28.53871253,0.29005596
5d64f820c94fbf0001addee8,54,1,2024-02-27T09:28:48.800Z,french_275.wav,0,poule,767,34,5,5,Français,M,0,0.0,-71.45872278,0.56157087
5d64f820c94fbf0001addee8,54,1,2024-02-27T09:28:48.800Z,french_275.wav,0,poule,767,34,5,5,Français,M,1,0.1,50.23093754,1.03531052
5d64f820c94fbf0001addee8,54,1,2024-02-27T09:28:48.800Z,french_275.wav,0,poule,767,34,5,5,Français,M,2,0.2,82.04936404,1.31605034
5d64f820c94fbf0001addee8,54,1,2024-02-27T09:28:48.800Z,french_275.wav,0,poule,767,34,5,5,Français,M,3,0.25666667,-63.35862329,0.72936955
5d64f820c94fbf0001addee8,55,1,2024-02-27T09:28:48.800Z,french_159.wav,0,pull,804,34,5,5,Français,M,0,0.0,-35.81772681,1.09204322
5d64f820c94fbf0001addee8,55,1,2024-02-27T09:28:48.800Z,french_159.wav,0,pull,804,34,5,5,Français,M,1,0.1,-81.24007344,1.04236488
5d64f820c94fbf0001addee8,55,1,2024-02-27T09:28:48.800Z,french_159.wav,0,pull,804,34,5,5,Français,M,2,0.2,-76.66667718,0.27370424
5d64f820c94fbf0001addee8,55,1,2024-02-27T09:28:48.800Z,french_159.wav,0,pull,804,34,5,5,Français,M,3,0.25666667,-12.73742482,0.41375192
5d64f820c94fbf0001addee8,56,1,2024-02-27T09:28:48.800Z,french_523.wav,0,poule,430,34,5,5,Français,M,0,0.0,-20.54401218,1.01178449
5d64f820c94fbf0001addee8,56,1,2024-02-27T09:28:48.800Z,french_523.wav,0,poule,430,34,5,5,Français,M,1,0.1,-64.61887171,1.79283511
5d64f820c94fbf0001addee8,56,1,2024-02-27T09:28:48.800Z,french_523.wav,0,poule,430,34,5,5,Français,M,2,0.2,-56.67652055,0.92711934
5d64f820c94fbf0001addee8,56,1,2024-02-27T09:28:48.800Z,french_523.wav,0,poule,430,34,5,5,Français,M,3,0.25666667,-29.90055738,1.0186138
5d64f820c94fbf0001addee8,57,1,2024-02-27T09:28:48.800Z,french_11.wav,0,poule,354,34,5,5,Français,M,0,0.0,-27.01625533,0.65463853
5d64f820c94fbf0001addee8,57,1,2024-02-27T09:28:48.800Z,french_11.wav,0,poule,354,34,5,5,Français,M,1,0.1,30.5454192,0.82547758
5d64f820c94fbf0001addee8,57,1,2024-02-27T09:28:48.800Z,french_11.wav,0,poule,354,34,5,5,Français,M,2,0.2,-10.3355652,1.18020414
5d64f820c94fbf0001addee8,57,1,2024-02-27T09:28:48.800Z,french_11.wav,0,poule,354,34,5,5,Français,M,3,0.25666667,-1.40658107,0.75245655
5d64f820c94fbf0001addee8,58,1,2024-02-27T09:28:48.800Z,french_96.wav,0,poule,426,34,5,5,Français,M,0,0.0,-35.67204937,1.29614461
5d64f820c94fbf0001addee8,58,1,2024-02-27T09:28:48.800Z,french_96.wav,0,poule,426,34,5,5,Français,M,1,0.1,-14.5967046,0.74963508
5d64f820c94fbf0001addee8,58,1,2024-02-27T09:28:48.800Z,french_96.wav,0,poule,426,34,5,5,Français,M,2,0.2,23.77171322,0.96397917
5d64f820c94fbf0001addee8,58,1,2024-02-27T09:28:48.800Z,french_96.wav,0,poule,426,34,5,5,Français,M,3,0.25666667,-43.45086892,0.69619931
5d64f820c94fbf0001addee8,59,1,2024-02-27T09:28:48.800Z,french_847.wav,0,poule,478,34,5,5,Français,M,0,0.0,-8.33122073,1.64160395
5d64f820c94fbf0001addee8,59,1,2024-02-27T09:28:48.800Z,french_847.wav,0,poule,478,34,5,5,Français,M,1,0.1,28.51239659,0.11991739
5d64f820c94fbf0001addee8,59,1,2024-02-27T09:28:48.800Z,french_847.wav,0,poule,478,34,5,5,Français,M,2,0.2,-26.33136573,1.12824789
5d64f820c94fbf0001addee8,59,1,2024-02-27T09:28:48.800Z,french_847.wav,0,poule,478,34,5,5,Français,M,3,0.25666667,21.45038454,0.68287375
5d64f820c94fbf0001addee8,60,1,2024-02-27T09:28:48.800Z,french_552.wav,0,poule,714,34,5,5,Français,M,0,0.0,-52.32363839,0.44295398
5d64f820c94fbf0001addee8,60,1,2024-02-27T09:28:48.800Z,french_552.wav,0,poule,714,34,5,5,Français,M,1,0.1,23.44364533,1.4520287
5d64f820c94fbf0001addee8,60,1,2024-02-27T09:28:48.800Z,french_552.wav,0,poule,714,34,5,5,Français,M,2,0.2,72.20212972,0.63620541
5d64f820c94fbf0001addee8,60,1,2024-02-27T09:28:48.800Z,french_552.wav,0,poule,714,34,5,5,Français,M,3,0.25666667,-25.42911122,1.39952151
5d64f820c94fbf0001addee8,61,1,2024-02-27T09:28:48.800Z,french_445.wav,0,poule,826,34,5,5,Français,M,0,0.0,8.73559539,0.8054478
5d64f820c94fbf0001addee8,61,1,2024-02-27T09:28:48.800Z,french_445.wav,0,poule,826,34,5,5,Français,M,1,0.1,-22.15313252,1.73211315
5d64f820c94fbf0001addee8,61,1,2024-02-27T09:28:48.800Z,french_445.wav,0,poule,826,34,5,5,Français,M,2,0.2,26.0955013,0.21896619
5d64f820c94fbf0001addee8,61,1,2024-02-27T09:28:48.800Z,french_445.wav,0,poule,826,34,5,5,Français,M,3,0.25666667,22.70157082,0.54256666
5d64f820c94fbf0001addee8,62,1,2024-02-27T09:28:48.800Z,french_996.wav,0,poule,704,34,5,5,Français,M,0,0.0,-93.3315932,0.70155752
5d64f820c94fbf0001addee8,62,1,2024-02-27T09:28:48.800Z,french_996.wav,0,poule,704,34,5,5,Français,M,1,0.1,-68.78176083,0.82176857
5d64f820c94fbf0001addee8,62,1,2024-02-27T09:28:48.800Z,french_996.wav,0,poule,704,34,5,5,Français,M,2,0.2,3.00266898,1.58504857
5d64f820c94fbf0001addee8,62,1,2024-02-27T09:28:48.800Z,french_996.wav,0,poule,704,34,5,5,Français,M,3,0.25666667,26.12825604,1.65873812
5d64f820c94fbf0001addee8,63,1,2024-02-27T09:28:48.800Z,french_385.wav,0,poule,503,34,5,5,Français,M,0,0.0,-5.35501711,1.94967077
5d64f820c94fbf0001addee8,63,1,2024-02-27T09:28:48.800Z,french_385.wav,0,poule,503,34,5,5,Français,M,1,0.1,28.75563306,0.4629862
5d64f820c94fbf0001addee8,63,1,2024-02-27T09:28:48.800Z,french_385.wav,0,poule,503,34,5,5,Français,M,2,0.2,60.61846434,0.74478567
5d64f820c94fbf0001addee8,63,1,2024-02-27T09:28:48.800Z,french_385.wav,0,poule,503,34,5,5,Français,M,3,0.25666667,-78.89426498,0.69826307
5d64f820c94fbf0001addee8,64,1,2024-02-27T09:28:48.800Z,french_648.wav,0,poule,477,34,5,5,Français,M,0,0.0,45.21338473,1.3610165
5d64f820c94fbf0001addee8,64,1,2024-02-27T09:28:48.800Z,french_648.wav,0,poule,477,34,5,5,Français,M,1,0.1,35.84509453,0.40626065
5d64f820c94fbf0001addee8,64,1,2024-02-27T09:28:48.800Z,french_648.wav,0,poule,477,34,5,5,Français,M,2,0.2,-67.01500747,0.74636895
5d64f820c94fbf0001addee8,64,1,2024-02-27T09:28:48.800Z,french_648.wav,0,poule,477,34,5,5,Français,M,3,0.25666667,-57.94291625,1.66903202
5d64f820c94fbf0001addee8,65,1,2024-02-27T09:28:48.800Z,french_448.wav,0,poule,480,34,5,5,Français,M,0,0.0,31.66119151,0.87276462
5d64f820c94fbf0001addee8,65,1,2024-02-27T09:28:48.800Z,french_448.wav,0,poule,480,34,5,5,Français,M,1,0.1,20.17093967,1.08469616
5d64f820c94fbf0001addee8,65,1,2024-02-27T09:28:48.800Z,french_448.wav,0,poule,480,34,5,5,Français,M,2,0.2,-46.84568686,1.99629221
5d64f820c94fbf0001addee8,65,1,2024-02-27T09:28:48.800Z,french_448.wav,0,poule,480,34,5,5,Français,M,3,0.25666667,10.399138,0.44449425
5d64f820c94fbf0001addee8,66,1,2024-02-27T09:28:48.800Z,french_677.wav,0,poule,709,34,5,5,Français,M,0,0.0,-14.76179085,0.10277679
5d64f820c94fbf0001addee8,66,1,2024-02-27T09:28:48.800Z,french_677.wav,0,poule,709,34,5,5,Français,M,1,0.1,-96.15101895,0.35083798
5d64f820c94fbf0001addee8,66,1,2024-02-27T09:28:48.800Z,french_677.wav,0,poule,709,34,5,5,Français,M,2,0.2,48.20621423,0.65953763
5d64f820c94fbf0001addee8,66,1,2024-02-27T09:28:48.800Z,french_677.wav,0,poule,709,34,5,5,Français,M,3,0.25666667,23.33985038,0.76581679
5d64f820c94fbf0001addee8,67,1,2024-02-27T09:28:48.800Z,french_25.wav,0,poule,498,34,5,5,Français,M,0,0.0,46.82844357,1.1493518
5d64f820c94fbf0001addee8,67,1,2024-02-27T09:28:48.800Z,french_25.wav,0,poule,498,34,5,5,Français,M,1,0.1,5.52502331,1.41536953
5d64f820c94fbf0001addee8,67,1,2024-02-27T09:28:48.800Z,french_25.wav,0,poule,498,34,5,5,Français,M,2,0.2,-34.25373026,0.41949869
5d64f820c94fbf0001addee8,67,1,2024-02-27T09:28:48.800Z,french_25.wav,0,poule,498,34,5,5,Français,M,3,0.25666667,-52.44039001,0.5013656
5d64f820c94fbf0001addee8,68,1,2024-02-27T09:28:48.800Z,french_379.wav,0,pull,868,34,5,5,Français,M,0,0.0,22.44752401,1.77059304
5d64f820c94fbf0001addee8,68,1,2024-02-27T09:28:48.800Z,french_379.wav,0,pull,868,34,5,5,Français,M,1,0.1,26.97339804,0.69418911
5d64f820c94fbf0001addee8,68,1,2024-02-27T09:28:48.800Z,french_379.wav,0,pull,868,34,5,5,Français,M,2,0.2,53.43729248,0.76703539
5d64f820c94fbf0001addee8,68,1,2024-02-27T09:28:48.800Z,french_379.wav,0,pull,868,34,5,5,Français,M,3,0.25666667,-63.2778902,0.57510346
5d64f820c94fbf0001addee8,69,1,2024-02-27T09:28:48.800Z,french_616.wav,0,poule,428,34,5,5,Français,M,0,0.0,-51.21021188,1.78160172
5d64f820c94fbf0001addee8,69,1,2024-02-27T09:28:48.800Z,french_616.wav,0,poule,428,34,5,5,Français,M,1,0.1,59.33159463,1.44809064
5d64f820c94fbf0001addee8,69,1,2024-02-27T09:28:48.800Z,french_616.wav,0,poule,428,34,5,5,Français,M,2,0.2,-4.53011914,1.29942812
5d64f820c94fbf0001addee8,69,1,2024-02-27T09:28:48.800Z,french_616.wav,0,poule,428,34,5,5,Français,M,3,0.25666667,5.92531861,0.36849944
5d64f820c94fbf0001addee8,70,1,2024-02-27T09:28:48.800Z,french_851.wav,0,poule,473,34,5,5,Français,M,0,0.0,-16.14738252,1.77999263
5d64f820c94fbf0001addee8,70,1,2024-02-27T09:28:48.800Z,french_851.wav,0,poule,473,34,5,5,Français,M,1,0.1,19.84507786,0.90385235
5d64f820c94fbf0001addee8,70,1,2024-02-27T09:28:48.800Z,french_851.wav,0,poule,473,34,5,5,Français,M,2,0.2,-46.64792285,0.51993189
5d64f820c94fbf0001addee8,70,1,2024-02-27T09:28:48.800Z,french_851.wav,0,poule,473,34,5,5,Français,M,3,0.25666667,-81.41203514,1.06673989
5d64f820c94fbf0001addee8,71,1,2024-02-27T09:28:48.800Z,french_881.wav,0,poule,732,34,5,5,Français,M,0,0.0,-25.82648211,0.15296837
5d64f820c94fbf0001addee8,71,1,2024-02-27T09:28:48.800Z,french_881.wav,0,poule,732,34,5,5,Français,M,1,0.1,13.08751975,1.42149925
5d64f820c94fbf0001addee8,71,1,2024-02-27T09:28:48.800Z,french_881.wav,0,poule,732,34,5,5,Français,M,2,0.2,-84.06590477,1.29281362
5d64f820c94fbf0001addee8,71,1,2024-02-27T09:28:48.800Z,french_881.wav,0,poule,732,34,5,5,Français,M,3,0.25666667,-28.7935441,1.41538706
5d64f820c94fbf0001addee8,72,1,2024-02-27T09:28:48.800Z,french_494.wav,0,pull,738,34,5,5,Français,M,0,0.0,-13.98983301,1.71774812
5d64f820c94fbf0001addee8,72,1,2024-02-27T09:28:48.800Z,french_494.wav,0,pull,738,34,5,5,Français,M,1,0.1,-42.16987525,1.14165471
5d64f820c94fbf0001addee8,72,1,2024-02-27T09:28:48.800Z,french_494.wav,0,pull,738,34,5,5,Français,M,2,0.2,38.88383452,0.86838156
5d64f820c94fbf0001addee8,72,1,2024-02-27T09:28:48.800Z,french_494.wav,0,pull,738,34,5,5,Français,M,3,0.25666667,78.77057746,1.71181958
5d64f820c94fbf0001addee8,73,1,2024-02-27T09:28:48.800Z,french_903.wav,0,poule,366,34,5,5,Français,M,0,0.0,-17.08871031,0.50691937
5d64f820c94fbf0001addee8,73,1,2024-02-27T09:28:48.800Z,french_903.wav,0,poule,366,34,5,5,Français,M,1,0.1,52.87150714,1.06902364
5d64f820c94fbf0001addee8,73,1,2024-02-27T09:28:48.800Z,french_903.wav,0,poule,366,34,5,5,Français,M,2,0.2,-46.35078868,1.77440634
5d64f820c94fbf0001addee8,73,1,2024-02-27T09:28:48.800Z,french_903.wav,0,poule,366,34,5,5,Français,M,3,0.25666667,67.27089244,0.5573406
5d64f820c94fbf0001addee8,74,1,2024-02-27T09:28:48.800Z,french_155.wav,0,poule,318,34,5,5,Français,M,0,0.0,-70.22582879,1.51870869
5d64f820c94fbf0001addee8,74,1,2024-02-27T09:28:48.800Z,french_155.wav,0,poule,318,34,5,5,Français,M,1,0.1,-4.40112263,0.92589592
5d64f820c94fbf0001addee8,74,1,2024-02-27T09:28:48.800Z,french_155.wav,0,poule,318,34,5,5,Français,M,2,0.2,31.24717972,1.81286995
5d64f820c94fbf0001addee8,74,1,2024-02-27T09:28:48.800Z,french_155.wav,0,poule,318,34,5,5,Français,M,3,0.25666667,-33.70292804,0.86118474
5d64f820c94fbf0001addee8,75,1,2024-02-27T09:28:48.800Z,french_395.wav,0,poule,516,34,5,5,Français,M,0,0.0,53.54317287,1.78210887
5d64f820c94fbf0001addee8,75,1,2024-02-27T09:28:48.800Z,french_395.wav,0,poule,516,34,5,5,Français,M,1,0.1,-58.7899365,0.28539332
5d64f820c94fbf0001addee8,75,1,2024-02-27T09:28:48.800Z,french_395.wav,0,poule,516,34,5,5,Français,M,2,0.2,-16.29959602,1.44255764
5d64f820c94fbf0001addee8,75,1,2024-02-27T09:28:48.800Z,french_395.wav,0,poule,516,34,5,5,Français,M,3,0.25666667,-29.17949613,0.93749012
5d64f820c94fbf0001addee8,76,1,2024-02-27T09:28:48.800Z,french_957.wav,0,pull,446,34,5,5,Français,M,0,0.0,-18.56504594,1.70357669
5d64f820c94fbf0001addee8,76,1,2024-02-27T09:28:48.800Z,french_957.wav,0,pull,446,34,5,5,Français,M,1,0.1,17.87447177,1.95920141
5d64f820c94fbf0001addee8,76,1,2024-02-27T09:28:48.800Z,french_957.wav,0,pull,446,34,5,5,Français,M,2,0.2,57.20134839,1.7386973
5d64f820c94fbf0001addee8,76,1,2024-02-27T09:28:48.800Z,french_957.wav,0,pull,446,34,5,5,Français,M,3,0.25666667,64.73544538,0.56015389
5d64f820c94fbf0001addee8,77,1,2024-02-27T09:28:48.800Z,french_575.wav,0,poule,534,34,5,5,Français,M,0,0.0,32.80241223,0.38229386
5d64f820c94fbf0001addee8,77,1,2024-02-27T09:28:48.800Z,french_575.wav,0,poule,534,34,5,5,Français,M,1,0.1,11.70984026,0.34252019
5d64f820c94fbf0001addee8,77,1,2024-02-27T09:28:48.800Z,french_575.wav,0,poule,534,34,5,5,Français,M,2,0.2,-24.23897751,1.12781483
5d64f820c94fbf0001addee8,77,1,2024-02-27T09:28:48.800Z,french_575.wav,0,poule,534,34,5,5,Français,M,3,0.25666667,5.92669397,1.51292739
5d64f820c94fbf0001addee8,78,1,2024-02-27T09:28:48.800Z,french_307.wav,0,poule,394,34,5,5,Français,M,0,0.0,1.2534749,1.28672407
5d64f820c94fbf0001addee8,78,1,2024-02-27T09:28:48.800Z,french_307.wav,0,poule,394,34,5,5,Français,M,1,0.1,79.3326992,0.47718292
5d64f820c94fbf0001addee8,78,1,2024-02-27T09:28:48.800Z,french_307.wav,0,poule,394,34,5,5,Français,M,2,0.2,24.93038066,1.37451018
5d64f820c94fbf0001addee8,78,1,2024-02-27T09:28:48.800Z,french_307.wav,0,poule,394,34,5,5,Français,M,3,0.25666667,-37.26133342,1.21026525
5d64f820c94fbf0001addee8,79,1,2024-02-27T09:28:48.800Z,french_282.wav,0,pull,435,34,5,5,Français,M,0,0.0,-97.43488085,0.55303377
5d64f820c94fbf0001addee8,79,1,2024-02-27T09:28:48.800Z,french_282.wav,0,pull,435,34,5,5,Français,M,1,0.1,96.20897113,1.41145651
5d64f820c94fbf0001addee8,79,1,2024-02-27T09:28:48.800Z,french_282.wav,0,pull,435,34,5,5,Français,M,2,0.2,27.16020646,1.83661618
5d64f820c94fbf0001addee8,79,1,2024-02-27T09:28:48.800Z,french_282.wav,0,pull,435,34,5,5,Français,M,3,0.25666667,-13.14092169,0.36912502
5d64f820c94fbf0001addee8,80,1,2024-02-27T09:28:48.800Z,french_732.wav,0,poule,390,34,5,5,Français,M,0,0.0,-82.9393053,0.90840431
5d64f820c94fbf0001addee8,80,1,2024-02-27T09:28:48.800Z,french_732.wav,0,poule,390,34,5,5,Français,M,1,0.1,-79.22735873,0.47468339
5d64f820c94fbf0001addee8,80,1,2024-02-27T09:28:48.800Z,french_732.wav,0,poule,390,34,5,5,Français,M,2,0.2,-67.09796721,1.61768905
5d64f820c94fbf0001addee8,80,1,2024-02-27T09:28:48.800Z,french_732.wav,0,poule,390,34,5,5,Français,M,3,0.25666667,35.15971491,1.44596926
5d64f820c94fbf0001addee8,81,1,2024-02-27T09:28:48.800Z,french_80.wav,0,poule,538,34,5,5,Français,M,0,0.0,-4.85614904,0.67500586
5d64f820c94fbf0001addee8,81,1,2024-02-27T09:28:48.800Z,french_80.wav,0,poule,538,34,5,5,Français,M,1,0.1,-36.95221558,0.10692408
5d64f820c94fbf0001addee8,81,1,2024-02-27T09:28:48.800Z,french_80.wav,0,poule,538,34,5,5,Français,M,2,0.2,-16.65007611,1.27299782
5d64f820c94fbf0001addee8,81,1,2024-02-27T09:28:48.800Z,french_80.wav,0,poule,538,34,5,5,Français,M,3,0.25666667,57.44018977,0.9780754
5d64f820c94fbf0001addee8,82,1,2024-02-27T09:28:48.800Z,french_138.wav,0,pull,1062,34,5,5,Français,M,0,0.0,52.19266886,1.6075583
5d64f820c94fbf0001addee8,82,1,2024-02-27T09:28:48.800Z,french_138.wav,0,pull,1062,34,5,5,Français,M,1,0.1,-20.87110469,1.57175316
5d64f820c94fbf0001addee8,82,1,2024-02-27T09:28:48.800Z,french_138.wav,0,pull,1062,34,5,5,Français,M,2,0.2,-63.85285305,0.73019834
5d64f820c94fbf0001addee8,82,1,2024-02-27T09:28:48.800Z,french_138.wav,0,pull,1062,34,5,5,Français,M,3,0.25666667,35.09837538,0.12473077
5d64f820c94fbf0001addee8,83,1,2024-02-27T09:28:48.800Z,french_674.wav,0,poule,268,34,5,5,Français,M,0,0.0,36.8658398,0.63817569
5d64f820c94fbf0001addee8,83,1,2024-02-27T09:28:48.800Z,french_674.wav,0,poule,268,34,5,5,Français,M,1,0.1,-70.55199619,1.9135219
5d64f820c94fbf0001addee8,83,1,2024-02-27T09:28:48.800Z,french_674.wav,0,poule,268,34,5,5,Français,M,2,0.2,-3.70121723,1.96782527
5d64f820c94fbf0001addee8,83,1,2024-02-27T09:28:48.800Z,french_674.wav,0,poule,268,34,5,5,Français,M,3,0.25666667,30.12615154,0.86862342
5d64f820c94fbf0001addee8,84,1,2024-02-27T09:28:48.800Z,french_858.wav,0,poule,499,34,5,5,Français,M,0,0.0,-70.8749608,0.88986318
5d64f820c94fbf0001addee8,84,1,2024-02-27T09:28:48.800Z,french_858.wav,0,poule,499,34,5,5,Français,M,1,0.1,-68.92821451,0.34092676
5d64f820c94fbf0001addee8,84,1,2024-02-27T09:28:48.800Z,french_858.wav,0,poule,499,34,5,5,Français,M,2,0.2,48.1063746,0.38776381
5d64f820c94fbf0001addee8,84,1,2024-02-27T09:28:48.800Z,french_858.wav,0,poule,499,34,5,5,Français,M,3,0.25666667,0.98463207,1.26771376
5d64f820c94fbf0001addee8,85,1,2024-02-27T09:28:48.800Z,french_214.wav,0,pull,478,34,5,5,Français,M,0,0.0,76.24554567,0.83658468
5d64f820c94fbf0001addee8,85,1,2024-02-27T09:28:48.800Z,french_214.wav,0,pull,478,34,5,5,Français,M,1,0.1,-45.01894732,0.66247732
5d64f820c94fbf0001addee8,85,1,2024-02-27T09:28:48.800Z,french_214.wav,0,pull,478,34,5,5,Français,M,2,0.2,36.56408721,0.57350576
5d64f820c94fbf0001addee8,85,1,2024-02-27T09:28:48.800Z,french_214.wav,0,pull,478,34,5,5,Français,M,3,0.25666667,-35.03381059,1.70097913
5d64f820c94fbf0001addee8,86,1,2024-02-27T09:28:48.800Z,french_86.wav,0,poule,262,34,5,5,Français,M,0,0.0,-13.34839912,1.5394535
5d64f820c94fbf0001addee8,86,1,2024-02-27T09:28:48.800Z,french_86.wav,0,poule,262,34,5,5,Français,M,1,0.1,-0.15074382,0.88064418
5d64f820c94fbf0001addee8,86,1,2024-02-27T09:28:48.800Z,french_86.wav,0,poule,262,34,5,5,Français,M,2,0.2,25.45831569,1.66652907
5d64f820c94fbf0001addee8,86,1,2024-02-27T09:28:48.800Z,french_86.wav,0,poule,262,34,5,5,Français,M,3,0.25666667,48.27326553,0.20293469
5d64f820c94fbf0001addee8,87,1,2024-02-27T09:28:48.800Z,french_352.wav,0,pull,544,34,5,5,Français,M,0,0.0,74.68489003,0.29948735
5d64f820c94fbf0001addee8,87,1,2024-02-27T09:28:48.800Z,french_352.wav,0,pull,544,34,5,5,Français,M,1,0.1,96.39949195,0.51724136
5d64f820c94fbf0001addee8,87,1,2024-02-27T09:28:48.800Z,french_352.wav,0,pull,544,34,5,5,Français,M,2,0.2,90.64764472,1.48158799
5d64f820c94fbf0001addee8,87,1,2024-02-27T09:28:48.800Z,french_352.wav,0,pull,544,34,5,5,Français,M,3,0.25666667,65.55341103,0.97952247
5d64f820c94fbf0001addee8,88,1,2024-02-27T09:28:48.800Z,french_959.wav,0,poule,293,34,5,5,Français,M,0,0.0,-92.66274659,1.46575448
5d64f820c94fbf0001addee8,88,1,2024-02-27T09:28:48.800Z,french_959.wav,0,poule,293,34,5,5,Français,M,1,0.1,10.27191584,1.6425047
5d64f820c94fbf0001addee8,88,1,2024-02-27T09:28:48.800Z,french_959.wav,0,poule,293,34,5,5,Français,M,2,0.2,-51.62824615,0.28117244
5d64f820c94fbf0001addee8,88,1,2024-02-27T09:28:48.800Z,french_959.wav,0,poule,293,34,5,5,Français,M,3,0.25666667,-30.4370249,1.68634793
5d64f820c94fbf0001addee8,89,1,2024-02-27T09:28:48.800Z,french_121.wav,0,poule,298,34,5,5,Français,M,0,0.0,35.32035933,0.75756688
5d64f820c94fbf0001addee8,89,1,2024-02-27T09:28:48.800Z,french_121.wav,0,poule,298,34,5,5,Français,M,1,0.1,-67.07725169,1.37771724
5d64f820c94fbf0001addee8,89,1,2024-02-27T09:28:48.800Z,french_121.wav,0,poule,298,34,5,5,Français,M,2,0.2,83.36951387,1.17860501
5d64f820c94fbf0001addee8,89,1,2024-02-27T09:28:48.800Z,french_121.wav,0,poule,298,34,5,5,Français,M,3,0.25666667,37.65048559,1.25500134
5d64f820c94fbf0001addee8,90,1,2024-02-27T09:28:48.800Z,french_62.wav,0,pull,576,34,5,5,Français,M,0,0.0,-14.31975686,0.1654928
5d64f820c94fbf0001addee8,90,1,2024-02-27T09:28:48.800Z,french_62.wav,0,pull,576,34,5,5,Français,M,1,0.1,44.56193131,0.95189119
5d64f820c94fbf0001addee8,90,1,2024-02-27T09:28:48.800Z,french_62.wav,0,pull,576,34,5,5,Français,M,2,0.2,-86.7672378,0.13775192
5d64f820c94fbf0001addee8,90,1,2024-02-27T09:28:48.800Z,french_62.wav,0,pull,576,34,5,5,Français,M,3,0.25666667,88.73328565,1.69441392
5d64f820c94fbf0001addee8,91,1,2024-02-27T09:28:48.800Z,french_606.wav,0,poule,286,34,5,5,Français,M,0,0.0,-20.93687271,1.9895698
5d64f820c94fbf0001addee8,91,1,2024-02-27T09:28:48.800Z,french_606.wav,0,poule,286,34,5,5,Français,M,1,0.1,59.55385743,1.17728958
5d64f820c94fbf0001addee8,91,1,2024-02-27T09:28:48.800Z,french_606.wav,0,poule,286,34,5,5,Français,M,2,0.2,61.58713619,1.48827242
5d64f820c94fbf0001addee8,91,1,2024-02-27T09:28:48.800Z,french_606.wav,0,poule,286,34,5,5,Français,M,3,0.25666667,-92.8987734,0.79910733
5d64f820c94fbf0001addee8,92,1,2024-02-27T09:28:48.800Z,french_187.wav,0,poule,322,34,5,5,Français,M,0,0.0,-18.61743148,0.79177474
5d64f820c94fbf0001addee8,92,1,2024-02-27T09:28:48.800Z,french_187.wav,0,poule,322,34,5,5,Français,M,1,0.1,27.93687652,0.90472294
5d64f820c94fbf0001addee8,92,1,2024-02-27T09:28:48.800Z,french_187.wav,0,poule,322,34,5,5,Français,M,2,0.2,6.26647606,1.3885115
5d64f820c94fbf0001addee8,92,1,2024-02-27T09:28:48.800Z,french_187.wav,0,poule,322,34,5,5,Français,M,3,0.25666667,58.88972832,1.88547829
5d64f820c94fbf0001addee8,93,1,2024-02-27T09:28:48.800Z,french_331.wav,0,poule,374,34,5,5,Français,M,0,0.0,-65.4197333,1.29365297
5d64f820c94fbf0001addee8,93,1,2024-02-27T09:28:48.800Z,french_331.wav,0,poule,374,34,5,5,Français,M,1,0.1,-42.63112693,1.19213918
5d64f820c94fbf0001addee8,93,1,2024-02-27T09:28:48.800Z,french_331.wav,0,poule,374,34,5,5,Français,M,2,0.2,-74.29271092,0.93002313
5d64f820c94fbf0001addee8,93,1,2024-02-27T09:28:48.800Z,french_331.wav,0,poule,374,34,5,5,Français,M,3,0.25666667,-22.37665177,1.59897964
5d64f820c94fbf0001addee8,94,1,2024-02-27T09:28:48.800Z,french_217.wav,0,poule,378,34,5,5,Français,M,0,0.0,-8.63904718,0.91131932
5d64f820c94fbf0001addee8,94,1,2024-02-27T09:28:48.800Z,french_217.wav,0,poule,378,34,5,5,Français,M,1,0.1,71.12460489,1.66035555
5d64f820c94fbf0001addee8,94,1,2024-02-27T09:28:48.800Z,french_217.wav,0,poule,378,34,5,5,Français,M,2,0.2,81.48384407,0.95248702
5d64f820c94fbf0001addee8,94,1,2024-02-27T09:28:48.800Z,french_217.wav,0,poule,378,34,5,5,Français,M,3,0.25666667,64.01477431,0.54451157
5d64f820c94fbf0001addee8,95,1,2024-02-27T09:28:48.800Z,french_19.wav,0,poule,579,34,5,5,Français,M,0,0.0,-43.32613145,0.86768791
5d64f820c94fbf0001addee8,95,1,2024-02-27T09:28:48.800Z,french_19.wav,0,poule,579,34,5,5,Français,M,1,0.1,-51.04998213,0.12235363
5d64f820c94fbf0001addee8,95,1,2024-02-27T09:28:48.800Z,french_19.wav,0,poule,579,34,5,5,Français,M,2,0.2,-30.05832199,0.93205141
5d64f820c94fbf0001addee8,95,1,2024-02-27T09:28:48.800Z,french_19.wav,0,poule,579,34,5,5,Français,M,3,0.25666667,-62.89931607,0.68272422
5d64f820c94fbf0001addee8,96,1,2024-02-27T09:28:48.800Z,french_950.wav,0,pull,308,34,5,5,Français,M,0,0.0,6.46729125,1.1492664
5d64f820c94fbf0001addee8,96,1,2024-02-27T09:28:48.800Z,french_950.wav,0,pull,308,34,5,5,Français,M,1,0.1,89.94723115,1.37343317
5d64f820c94fbf0001addee8,96,1,2024-02-27T09:28:48.800Z,french_950.wav,0,pull,308,34,5,5,Français,M,2,0.2,33.92654299,1.07181876
5d64f820c94fbf0001addee8,96,1,2024-02-27T09:28:48.800Z,french_950.wav,0,pull,308,34,5,5,Français,M,3,0.25666667,4.68690548,0.13073982
5d64f820c94fbf0001addee8,97,1,2024-02-27T09:28:48.800Z,french_588.wav,0,poule,256,34,5,5,Français,M,0,0.0,5.6059992,1.40293782
5d64f820c94fbf0001addee8,97,1,2024-02-27T09:28:48.800Z,french_588.wav,0,poule,256,34,5,5,Français,M,1,0.1,-3.58339119,1.60743551
5d64f820c94fbf0001addee8,97,1,2024-02-27T09:28:48.800Z,french_588.wav,0,poule,256,34,5,5,Français,M,2,0.2,-47.44163498,0.8250453
5d64f820c94fbf0001addee8,97,1,2024-02-27T09:28:48.800Z,french_588.wav,0,poule,256,34,5,5,Français,M,3,0.25666667,15.68204657,1.87203226
5d64f820c94fbf0001addee8,98,1,2024-02-27T09:28:48.800Z,french_7.wav,0,pull,390,34,5,5,Français,M,0,0.0,-71.02833311,1.79953402
5d64f820c94fbf0001addee8,98,1,2024-02-27T09:28:48.800Z,french_7.wav,0,pull,390,34,5,5,Français,M,1,0.1,-12.38691322,1.89065694
5d64f820c94fbf0001addee8,98,1,2024-02-27T09:28:48.800Z,french_7.wav,0,pull,390,34,5,5,Français,M,2,0.2,-62.8930846,0.59849277
5d64f820c94fbf0001addee8,98,1,2024-02-27T09:28:48.800Z,french_7.wav,0,pull,390,34,5,5,Français,M,3,0.25666667,27.53159518,0.94237915
5d64f820c94fbf0001addee8,99,1,2024-02-27T09:28:48.800Z,french_998.wav,0,poule,308,34,5,5,Français,M,0,0.0,41.25843424,1.12001973
5d64f820c94fbf0001addee8,99,1,2024-02-27T09:28:48.800Z,french_998.wav,0,poule,308,34,5,5,Français,M,1,0.1,16.31759718,1.22226563
5d64f820c94fbf0001addee8,99,1,2024-02-27T09:28:48.800Z,french_998.wav,0,poule,308,34,5,5,Français,M,2,0.2,-45.05489169,1.68799636
5d64f820c94fbf0001addee8,99,1,2024-02-27T09:28:48.800Z,french_998.wav,0,poule,308,34,5,5,Français,M,3,0.25666667,-0.1364182,0.6107462
5d64f820c94fbf0001addee8,100,2,2024-02-27T09:28:48.800Z,french_630.wav,0,poule,490,34,5,5,Français,M,0,0.0,77.73428331,1.3363399
5d64f820c94fbf0001addee8,100,2,2024-02-27T09:28:48.800Z,french_630.wav,0,poule,490,34,5,5,Français,M,1,0.1,-25.60495453,1.21399003
5d64f820c94fbf0001addee8,100,2,2024-02-27T09:28:48.800Z,french_630.wav,0,poule,490,34,5,5,Français,M,2,0.2,64.05787884,0.69039687
5d64f820c94fbf0001addee8,100,2,2024-02-27T09:28:48.800Z,french_630.wav,0,poule,490,34,5,5,Français,M,3,0.25666667,12.38181906,0.92340198
5d64f820c94fbf0001addee8,101,2,2024-02-27T09:28:48.800Z,french_63.wav,0,poule,408,34,5,5,Français,M,0,0.0,-81.8544396,0.29798693
5d64f820c94fbf0001addee8,101,2,2024-02-27T09:28:48.800Z,french_63.wav,0,poule,408,34,5,5,Français,M,1,0.1,15.35577337,0.29415435
5d64f820c94fbf0001addee8,101,2,2024-02-27T09:28:48.800Z,french_63.wav,0,poule,408,34,5,5,Français,M,2,0.2,-93.67975396,1.48728433
5d64f820c94fbf0001addee8,101,2,2024-02-27T09:28:48.800Z,french_63.wav,0,poule,408,34,5,5,Français,M,3,0.25666667,6.98256112,1.07216934
5d64f820c94fbf0001addee8,102,2,2024-02-27T09:28:48.800Z,french_66.wav,0,pull,427,34,5,5,Français,M,0,0.0,3.84925572,1.88939432
5d64f820c94fbf0001addee8,102,2,2024-02-27T09:28:48.800Z,french_66.wav,0,pull,427,34,5,5,Français,M,1,0.1,75.48045935,0.3012797
5d64f820c94fbf0001addee8,102,2,2024-02-27T09:28:48.800Z,french_66.wav,0,pull,427,34,5,5,Français,M,2,0.2,22.76512124,0.5045755
5d64f820c94fbf0001addee8,102,2,2024-02-27T09:28:48.800Z,french_66.wav,0,pull,427,34,5,5,Français,M,3,0.25666667,45.08821781,1.63034278
5d64f820c94fbf0001addee8,103,2,2024-02-27T09:28:48.800Z,french_788.wav,0,poule,362,34,5,5,Français,M,0,0.0,-49.59093674,1.03975343
5d64f820c94fbf0001addee8,103,2,2024-02-27T09:28:48.800Z,french_788.wav,0,poule,362,34,5,5,Français,M,1,0.1,-37.12859592,0.12530513
5d64f820c94fbf0001addee8,103,2,2024-02-27T09:28:48.800Z,french_788.wav,0,poule,362,34,5,5,Français,M,2,0.2,78.06548219,0.40268526
5d64f820c94fbf0001addee8,103,2,2024-02-27T09:28:48.800Z,french_788.wav,0,poule,362,34,5,5,Français,M,3,0.25666667,52.38730842,1.72021211
5d64f820c94fbf0001addee8,104,2,2024-02-27T09:28:48.800Z,french_268.wav,0,pull,458,34,5,5,Français,M,0,0.0,-31.22986491,0.61965618
5d64f820c94fbf0001addee8,104,2,2024-02-27T09:28:48.800Z,french_268.wav,0,pull,458,34,5,5,Français,M,1,0.1,85.41130684,0.43772331
5d64f820c94fbf0001addee8,104,2,2024-02-27T09:28:48.800Z,french_268.wav,0,pull,458,34,5,5,Français,M,2,0.2,51.81326747,0.97717852
5d64f820c94fbf0001addee8,104,2,2024-02-27T09:28:48.800Z,french_268.wav,0,pull,458,34,5,5,Français,M,3,0.25666667,-9.66270327,0.83042374
5d64f820c94fbf0001addee8,105,2,2024-02-27T09:28:48.800Z,french_277.wav,0,poule,310,34,5,5,Français,M,0,0.0,25.76771762,1.36859257
5d64f820c94fbf0001addee8,105,2,2024-02-27T09:28:48.800Z,french_277.wav,0,poule,310,34,5,5,Français,M,1,0.1,-70.25975294,1.02052852
5d64f820c94fbf0001addee8,105,2,2024-02-27T09:28:48.800Z,french_277.wav,0,poule,310,34,5,5,Français,M,2,0.2,-52.96477311,1.14771146
5d64f820c94fbf0001addee8,105,2,2024-02-27T09:28:48.800Z,french_277.wav,0,poule,310,34,5,5,Français,M,3,0.25666667,41.51950841,0.3441713
5d64f820c94fbf0001addee8,106,2,2024-02-27T09:28:48.800Z,french_525.wav,0,poule,455,34,5,5,Français,M,0,0.0,-55.71805546,1.48564319
5d64f820c94fbf0001addee8,106,2,2024-02-27T09:28:48.800Z,french_525.wav,0,poule,455,34,5,5,Français,M,1,0.1,69.57832018,0.7646222
5d64f820c94fbf0001addee8,106,2,2024-02-27T09:28:48.800Z,french_525.wav,0,poule,455,34,5,5,Français,M,2,0.2,-61.51619627,1.98360061
5d64f820c94fbf0001addee8,106,2,2024-02-27T09:28:48.800Z,french_525.wav,0,poule,455,34,5,5,Français,M,3,0.25666667,-40.26288332,1.91122687
5d64f820c94fbf0001addee8,107,2,2024-02-27T09:28:48.800Z,french_484.wav,0,poule,482,34,5,5,Français,M,0,0.0,-9.6162674,0.19772274
5d64f820c94fbf0001addee8,107,2,2024-02-27T09:28:48.800Z,french_484.wav,0,poule,482,34,5,5,Français,M,1,0.1,9.27811619,0.11941549
5d64f820c94fbf0001addee8,107,2,2024-02-27T09:28:48.800Z,french_484.wav,0,poule,482,34,5,5,Français,M,2,0.2,-71.03065972,1.54802806
5d64f820c94fbf0001addee8,107,2,2024-02-27T09:28:48.800Z,french_484.wav,0,poule,482,34,5,5,Français,M,3,0.25666667,-29.12959292,1.03524562
5d64f820c94fbf0001addee8,108,2,2024-02-27T09:28:48.800Z,french_848.wav,0,pull,480,34,5,5,Français,M,0,0.0,-60.99605007,1.01059702
5d64f820c94fbf0001addee8,108,2,2024-02-27T09:28:48.800Z,french_848.wav,0,pull,480,34,5,5,Français,M,1,0.1,-27.05939135,1.98581859
5d64f820c94fbf0001addee8,108,2,2024-02-27T09:28:48.800Z,french_848.wav,0,pull,480,34,5,5,Français,M,2,0.2,-10.58439289,0.30142011
5d64f820c94fbf0001addee8,108,2,2024-02-27T09:28:48.800Z,french_848.wav,0,pull,480,34,5,5,Français,M,3,0.25666667,-17.47548333,1.16939553
5d64f820c94fbf0001addee8,109,2,2024-02-27T09:28:48.800Z,french_474.wav,0,poule,752,34,5,5,Français,M,0,0.0,94.09836303,0.01406103
5d64f820c94fbf0001addee8,109,2,2024-02-27T09:28:48.800Z,french_474.wav,0,poule,752,34,5,5,Français,M,1,0.1,43.08248712,1.41739343
5d64f820c94fbf0001addee8,109,2,2024-02-27T09:28:48.800Z,french_474.wav,0,poule,752,34,5,5,Français,M,2,0.2,-98.14389097,1.7994516
5d64f820c94fbf0001addee8,109,2,2024-02-27T09:28:48.800Z,french_474.wav,0,poule,752,34,5,5,Français,M,3,0.25666667,-80.28643924,0.15166218
5d64f820c94fbf0001addee8,110,2,2024-02-27T09:28:48.800Z,french_453.wav,0,pull,350,34,5,5,Français,M,0,0.0,17.16336321,0.53243678
5d64f820c94fbf0001addee8,110,2,2024-02-27T09:28:48.800Z,french_453.wav,0,pull,350,34,5,5,Français,M,1,0.1,-89.93005254,1.83492113
5d64f820c94fbf0001addee8,110,2,2024-02-27T09:28:48.800Z,french_453.wav,0,pull,350,34,5,5,Français,M,2,0.2,91.22824445,1.32944014
5d64f820c94fbf0001addee8,110,2,2024-02-27T09:28:48.800Z,french_453.wav,0,pull,350,34,5,5,Français,M,3,0.25666667,-84.37948707,0.35681228
5d64f820c94fbf0001addee8,111,2,2024-02-27T09:28:48.800Z,french_170.wav,0,poule,316,34,5,5,Français,M,0,0.0,33.63406691,1.37140183
5d64f820c94fbf0001addee8,111,2,2024-02-27T09:28:48.800Z,french_170.wav,0,poule,316,34,5,5,Français,M,1,0.1,-66.14633185,0.98919038
5d64f820c94fbf0001addee8,111,2,2024-02-27T09:28:48.800Z,french_170.wav,0,poule,316,34,5,5,Français,M,2,0.2,-74.26701986,1.38629831
5d64f820c94fbf0001addee8,111,2,2024-02-27T09:28:48.800Z,french_170.wav,0,poule,316,34,5,5,Français,M,3,0.25666667,32.33295865,0.43392523
5d64f820c94fbf0001addee8,112,2,2024-02-27T09:28:48.800Z,french_486.wav,0,poule,420,34,5,5,Français,M,0,0.0,-65.13732965,0.7755652
5d64f820c94fbf0001addee8,112,2,2024-02-27T09:28:48.800Z,french_486.wav,0,poule,420,34,5,5,Français,M,1,0.1,-93.57114331,0.9577819
5d64f820c94fbf0001addee8,112,2,2024-02-27T09:28:48.800Z,french_486.wav,0,poule,420,34,5,5,Français,M,2,0.2,-51.69797787,0.68553835
5d64f820c94fbf0001addee8,112,2,2024-02-27T09:28:48.800Z,french_486.wav,0,poule,420,34,5,5,Français,M,3,0.25666667,-3.30938414,0.55056833
5d64f820c94fbf0001addee8,113,2,2024-02-27T09:28:48.800Z,french_860.wav,0,pull,394,34,5,5,Français,M,0,0.0,33.37389434,1.87718004
5d64f820c94fbf0001addee8,113,2,2024-02-27T09:28:48.800Z,french_860.wav,0,pull,394,34,5,5,Français,M,1,0.1,66.22312498,1.50950791
5d64f820c94fbf0001addee8,113,2,2024-02-27T09:28:48.800Z,french_860.wav,0,pull,394,34,5,5,Français,M,2,0.2,-4.57961146,0.09437067
5d64f820c94fbf0001addee8,113,2,2024-02-27T09:28:48.800Z,french_860.wav,0,pull,394,34,5,5,Français,M,3,0.25666667,50.69207221,1.19183747
5d64f820c94fbf0001addee8,114,2,2024-02-27T09:28:48.800Z,french_972.wav,0,poule,319,34,5,5,Français,M,0,0.0,10.38102426,0.90840989
5d64f820c94fbf0001addee8,114,2,2024-02-27T09:28:48.800Z,french_972.wav,0,poule,319,34,5,5,Français,M,1,0.1,-66.54271468,1.6485676
5d64f820c94fbf0001addee8,114,2,2024-02-27T09:28:48.800Z,french_972.wav,0,poule,319,34,5,5,Français,M,2,0.2,-2.89265523,0.79956718
5d64f820c94fbf0001addee8,114,2,2024-02-27T09:28:48.800Z,french_972.wav,0,poule,319,34,5,5,Français,M,3,0.25666667,-87.42126356,1.28352811
5d64f820c94fbf0001addee8,115,2,2024-02-27T09:28:48.800Z,french_481.wav,0,pull,514,34,5,5,Français,M,0,0.0,-44.05926666,1.24899263
5d64f820c94fbf0001addee8,115,2,2024-02-27T09:28:48.800Z,french_481.wav,0,pull,514,34,5,5,Français,M,1,0.1,85.82418432,1.22078865
5d64f820c94fbf0001addee8,115,2,2024-02-27T09:28:48.800Z,french_481.wav,0,pull,514,34,5,5,Français,M,2,0.2,87.54559417,0.10859618
5d64f820c94fbf0001addee8,115,2,2024-02-27T09:28:48.800Z,french_481.wav,0,pull,514,34,5,5,Français,M,3,0.25666667,50.04191005,0.19634609
5d64f820c94fbf0001addee8,116,2,2024-02-27T09:28:48.800Z,french_592.wav,0,poule,584,34,5,5,Français,M,0,0.0,-60.74271859,0.07910076
5d64f820c94fbf0001addee8,116,2,2024-02-27T09:28:48.800Z,french_592.wav,0,poule,584,34,5,5,Français,M,1,0.1,93.57737247,0.09988206
5d64f820c94fbf0001addee8,116,2,2024-02-27T09:28:48.800Z,french_592.wav,0,poule,584,34,5,5,Français,M,2,0.2,-53.75438764,0.64371435
5d64f820c94fbf0001addee8,116,2,2024-02-27T09:28:48.800Z,french_592.wav,0,poule,584,34,5,5,Français,M,3,0.25666667,-2.22241718,0.65219405
5d64f820c94fbf0001addee8,117,2,2024-02-27T09:28:48.800Z,french_496.wav,0,pull,430,34,5,5,Français,M,0,0.0,95.35910422,1.71732874
5d64f820c94fbf0001addee8,117,2,2024-02-27T09:28:48.800Z,french_496.wav,0,pull,430,34,5,5,Français,M,1,0.1,-6.65722592,0.79073406
5d64f820c94fbf0001addee8,117,2,2024-02-27T09:28:48.800Z,french_496.wav,0,pull,430,34,5,5,Français,M,2,0.2,-0.21871516,0.34583293
5d64f820c94fbf0001addee8,117,2,2024-02-27T09:28:48.800Z,french_496.wav,0,pull,430,34,5,5,Français,M,3,0.25666667,-55.34055424,0.39020762
5d64f820c94fbf0001addee8,118,2,2024-02-27T09:28:48.800Z,french_202.wav,0,poule,531,34,5,5,Français,M,0,0.0,13.54970771,0.17477243
5d64f820c94fbf0001addee8,118,2,2024-02-27T09:28:48.800Z,french_202.wav,0,poule,531,34,5,5,Français,M,1,0.1,96.46591802,0.30528336
5d64f820c94fbf0001addee8,118,2,2024-02-27T09:28:48.800Z,french_202.wav,0,poule,531,34,5,5,Français,M,2,0.2,96.13650215,0.41819952
5d64f820c94fbf0001addee8,118,2,2024-02-27T09:28:48.800Z,french_202.wav,0,poule,531,34,5,5,Français,M,3,0.25666667,-35.2772524,1.86493567
5d64f820c94fbf0001addee8,119,2,2024-02-27T09:28:48.800Z,french_531.wav,0,pull,960,34,5,5,Français,M,0,0.0,76.38960861,1.48422918
5d64f820c94fbf0001addee8,119,2,2024-02-27T09:28:48.800Z,french_531.wav,0,pull,960,34,5,5,Français,M,1,0.1,-14.4624089,0.31285067
5d64f820c94fbf0001addee8,119,2,2024-02-27T09:28:48.800Z,french_531.wav,0,pull,960,34,5,5,Français,M,2,0.2,97.56303867,0.71358588
5d64f820c94fbf0001addee8,119,2,2024-02-27T09:28:48.800Z,french_531.wav,0,pull,960,34,5,5,Français,M,3,0.25666667,-4.62103118,0.65318394
5d64f820c94fbf0001addee8,120,2,2024-02-27T09:28:48.800Z,french_684.wav,0,pull,574,34,5,5,Français,M,0,0.0,48.27990123,1.19178247
5d64f820c94fbf0001addee8,120,2,2024-02-27T09:28:48.800Z,french_684.wav,0,pull,574,34,5,5,Français,M,1,0.1,7.94375198,1.19295899
5d64f820c94fbf0001addee8,120,2,2024-02-27T09:28:48.800Z,french_684.wav,0,pull,574,34,5,5,Français,M,2,0.2,8.02227037,0.65877552
5d64f820c94fbf0001addee8,120,2,2024-02-27T09:28:48.800Z,french_684.wav,0,pull,574,34,5,5,Français,M,3,0.25666667,-51.87380122,1.73612438
5d64f820c94fbf0001addee8,121,2,2024-02-27T09:28:48.800Z,french_490.wav,0,poule,278,34,5,5,Français,M,0,0.0,-77.54246231,1.03559912
5d64f820c94fbf0001addee8,121,2,2024-02-27T09:28:48.800Z,french_490.wav,0,poule,278,34,5,5,Français,M,1,0.1,-0.13066058,0.94588293
5d64f820c94fbf0001addee8,121,2,2024-02-27T09:28:48.800Z,french_490.wav,0,poule,278,34,5,5,Français,M,2,0.2,-90.37490593,1.16449319
5d64f820c94fbf0001addee8,121,2,2024-02-27T09:28:48.800Z,french_490.wav,0,poule,278,34,5,5,Français,M,3,0.25666667,62.21960288,1.46557017
5d64f820c94fbf0001addee8,122,2,2024-02-27T09:28:48.800Z,french_708.wav,0,poule,345,34,5,5,Français,M,0,0.0,77.88438146,0.30850898
5d64f820c94fbf0001addee8,122,2,2024-02-27T09:28:48.800Z,french_708.wav,0,poule,345,34,5,5,Français,M,1,0.1,-89.66132416,1.49064351
5d64f820c94fbf0001addee8,122,2,2024-02-27T09:28:48.800Z,french_708.wav,0,poule,345,34,5,5,Français,M,2,0.2,66.08375885,1.28629193
5d64f820c94fbf0001addee8,122,2,2024-02-27T09:28:48.800Z,french_708.wav,0,poule,345,34,5,5,Français,M,3,0.25666667,-39.93161414,1.01533724
5d64f820c94fbf0001addee8,123,2,2024-02-27T09:28:48.800Z,french_259.wav,0,poule,482,34,5,5,Français,M,0,0.0,34.42813613,0.3045902
5d64f820c94fbf0001addee8,123,2,2024-02-27T09:28:48.800Z,french_259.wav,0,poule,482,34,5,5,Français,M,1,0.1,10.6054277,0.51228763
5d64f820c94fbf0001addee8,123,2,2024-02-27T09:28:48.800Z,french_259.wav,0,poule,482,34,5,5,Français,M,2,0.2,-13.69189805,1.00650156
5d64f820c94fbf0001addee8,123,2,2024-02-27T09:28:48.800Z,french_259.wav,0,poule,482,34,5,5,Français,M,3,0.25666667,-89.62004192,1.73437165
5d64f820c94fbf0001addee8,124,2,2024-02-27T09:28:48.800Z,french_786.wav,0,pull,346,34,5,5,Français,M,0,0.0,46.81596915,0.36321177
5d64f820c94fbf0001addee8,124,2,2024-02-27T09:28:48.800Z,french_786.wav,0,pull,346,34,5,5,Français,M,1,0.1,35.10066142,1.24415108
5d64f820c94fbf0001addee8,124,2,2024-02-27T09:28:48.800Z,french_786.wav,0,pull,346,34,5,5,Français,M,2,0.2,15.54537814,1.19760647
5d64f820c94fbf0001addee8,124,2,2024-02-27T09:28:48.800Z,french_786.wav,0,pull,346,34,5,5,Français,M,3,0.25666667,97.25347056,0.79076548
5d64f820c94fbf0001addee8,125,2,2024-02-27T09:28:48.800Z,french_774.wav,0,poule,408,34,5,5,Français,M,0,0.0,-35.29041546,0.24909556
5d64f820c94fbf0001addee8,125,2,2024-02-27T09:28:48.800Z,french_774.wav,0,poule,408,34,5,5,Français,M,1,0.1,-21.07774935,0.81236123
5d64f820c94fbf0001addee8,125,2,2024-02-27T09:28:48.800Z,french_774.wav,0,poule,408,34,5,5,Français,M,2,0.2,-42.95062976,0.84475887
5d64f820c94fbf0001addee8,125,2,2024-02-27T09:28:48.800Z,french_774.wav,0,poule,408,34,5,5,Français,M,3,0.25666667,-27.37747858,0.12641702
5d64f820c94fbf0001addee8,126,2,2024-02-27T09:28:48.800Z,french_363.wav,0,pull,284,34,5,5,Français,M,0,0.0,53.04818478,0.48026107
5d64f820c94fbf0001addee8,126,2,2024-02-27T09:28:48.800Z,french_363.wav,0,pull,284,34,5,5,Français,M,1,0.1,68.67010762,1.94302888
5d64f820c94fbf0001addee8,126,2,2024-02-27T09:28:48.800Z,french_363.wav,0,pull,284,34,5,5,Français,M,2,0.2,-91.11205335,0.36511891
5d64f820c94fbf0001addee8,126,2,2024-02-27T09:28:48.800Z,french_363.wav,0,pull,284,34,5,5,Français,M,3,0.25666667,-38.9131055,1.6181542
5d64f820c94fbf0001addee8,127,2,2024-02-27T09:28:48.800Z,french_197.wav,0,poule,340,34,5,5,Français,M,0,0.0,-6.69305154,1.22063961
5d64f820c94fbf0001addee8,127,2,2024-02-27T09:28:48.800Z,french_197.wav,0,poule,340,34,5,5,Français,M,1,0.1,23.33285596,0.20505699
5d64f820c94fbf0001addee8,127,2,2024-02-27T09:28:48.800Z,french_197.wav,0,poule,340,34,5,5,Français,M,2,0.2,-47.26714808,1.45150796
5d64f820c94fbf0001addee8,127,2,2024-02-27T09:28:48.800Z,french_197.wav,0,poule,340,34,5,5,Français,M,3,0.25666667,-64.80738279,0.00954455
5d64f820c94fbf0001addee8,128,2,2024-02-27T09:28:48.800Z,french_617.wav,0,pull,388,34,5,5,Français,M,0,0.0,-34.18466024,0.10021852
5d64f820c94fbf0001addee8,128,2,2024-02-27T09:28:48.800Z,french_617.wav,0,pull,388,34,5,5,Français,M,1,0.1,35.41565559,0.72859392
5d64f820c94fbf0001addee8,128,2,2024-02-27T09:28:48.800Z,french_617.wav,0,pull,388,34,5,5,Français,M,2,0.2,59.04414741,0.77782194
5d64f820c94fbf0001addee8,128,2,2024-02-27T09:28:48.800Z,french_617.wav,0,pull,388,34,5,5,Français,M,3,0.25666667,80.0519445,1.13599019
5d64f820c94fbf0001addee8,129,2,2024-02-27T09:28:48.800Z,french_568.wav,0,poule,255,34,5,5,Français,M,0,0.0,-18.10302265,1.34189827
5d64f820c94fbf0001addee8,129,2,2024-02-27T09:28:48.800Z,french_568.wav,0,poule,255,34,5,5,Français,M,1,0.1,9.93139794,1.47029794
5d64f820c94fbf0001addee8,129,2,2024-02-27T09:28:48.800Z,french_568.wav,0,poule,255,34,5,5,Français,M,2,0.2,91.46195775,0.17269775
5d64f820c94fbf0001addee8,129,2,2024-02-27T09:28:48.800Z,french_568.wav,0,poule,255,34,5,5,Français,M,3,0.25666667,56.10040773,1.22679594
5d64f820c94fbf0001addee8,130,2,2024-02-27T09:28:48.800Z,french_228.wav,0,pull,1144,34,5,5,Français,M,0,0.0,-13.78258648,1.36655769
5d64f820c94fbf0001addee8,130,2,2024-02-27T09:28:48.800Z,french_228.wav,0,pull,1144,34,5,5,Français,M,1,0.1,27.88870681,1.56643938
5d64f820c94fbf0001addee8,130,2,2024-02-27T09:28:48.800Z,french_228.wav,0,pull,1144,34,5,5,Français,M,2,0.2,-8.73674486,0.29403468
5d64f820c94fbf0001addee8,130,2,2024-02-27T09:28:48.800Z,french_228.wav,0,pull,1144,34,5,5,Français,M,3,0.25666667,-13.88179653,0.32348249
5d64f820c94fbf0001addee8,131,2,2024-02-27T09:28:48.800Z,french_211.wav,0,pull,421,34,5,5,Français,M,0,0.0,26.09911827,0.38797522
5d64f820c94fbf0001addee8,131,2,2024-02-27T09:28:48.800Z,french_211.wav,0,pull,421,34,5,5,Français,M,1,0.1,37.88219535,0.97106999
5d64f820c94fbf0001addee8,131,2,2024-02-27T09:28:48.800Z,french_211.wav,0,pull,421,34,5,5,Français,M,2,0.2,25.3370042,0.82384696
5d64f820c94fbf0001addee8,131,2,2024-02-27T09:28:48.800Z,french_211.wav,0,pull,421,34,5,5,Français,M,3,0.25666667,-31.50750366,0.88987221
5d64f820c94fbf0001addee8,132,2,2024-02-27T09:28:48.800Z,french_35.wav,0,poule,238,34,5,5,Français,M,0,0.0,-91.9197252,1.92941129
5d64f820c94fbf0001addee8,132,2,2024-02-27T09:28:48.800Z,french_35.wav,0,poule,238,34,5,5,Français,M,1,0.1,-51.10479589,1.66263878
5d64f820c94fbf0001addee8,132,2,2024-02-27T09:28:48.800Z,french_35.wav,0,poule,238,34,5,5,Français,M,2,0.2,-15.74458639,0.60493147
5d64f820c94fbf0001addee8,132,2,2024-02-27T09:28:48.800Z,french_35.wav,0,poule,238,34,5,5,Français,M,3,0.25666667,-11.36352661,1.17557979
5d64f820c94fbf0001addee8,133,2,2024-02-27T09:28:48.800Z,french_946.wav,0,poule,448,34,5,5,Français,M,0,0.0,-59.20376503,1.07432488
5d64f820c94fbf0001addee8,133,2,2024-02-27T09:28:48.800Z,french_946.wav,0,poule,448,34,5,5,Français,M,1,0.1,41.31347152,0.26624757
5d64f820c94fbf0001addee8,133,2,2024-02-27T09:28:48.800Z,french_946.wav,0,poule,448,34,5,5,Français,M,2,0.2,-58.18080138,0.53636085
5d64f820c94fbf0001addee8,133,2,2024-02-27T09:28:48.800Z,french_946.wav,0,poule,448,34,5,5,Français,M,3,0.25666667,-28.00273528,1.77786979
5d64f820c94fbf0001addee8,134,2,2024-02-27T09:28:48.800Z,french_864.wav,0,pull,286,34,5,5,Français,M,0,0.0,27.21382842,1.35032716
5d64f820c94fbf0001addee8,134,2,2024-02-27T09:28:48.800Z,french_864.wav,0,pull,286,34,5,5,Français,M,1,0.1,-8.96687562,1.41041806
5d64f820c94fbf0001addee8,134,2,2024-02-27T09:28:48.800Z,french_864.wav,0,pull,286,34,5,5,Français,M,2,0.2,47.01768167,0.47669103
5d64f820c94fbf0001addee8,134,2,2024-02-27T09:28:48.800Z,french_864.wav,0,pull,286,34,5,5,Français,M,3,0.25666667,98.93956807,1.26265942
5d64f820c94fbf0001addee8,135,2,2024-02-27T09:28:48.800Z,french_507.wav,0,poule,262,34,5,5,Français,M,0,0.0,-39.00130205,0.88980729
5d64f820c94fbf0001addee8,135,2,2024-02-27T09:28:48.800Z,french_507.wav,0,poule,262,34,5,5,Français,M,1,0.1,8.15448279,1.12034654
5d64f820c94fbf0001addee8,135,2,2024-02-27T09:28:48.800Z,french_507.wav,0,poule,262,34,5,5,Français,M,2,0.2,-39.88004764,1.15006522
5d64f820c94fbf0001addee8,135,2,2024-02-27T09:28:48.800Z,french_507.wav,0,poule,262,34,5,5,Français,M,3,0.25666667,66.54300966,1.10945683
5d64f820c94fbf0001addee8,136,2,2024-02-27T09:28:48.800Z,french_969.wav,0,poule,251,34,5,5,Français,M,0,0.0,-10.47620341,0.56181474
5d64f820c94fbf0001addee8,136,2,2024-02-27T09:28:48.800Z,french_969.wav,0,poule,251,34,5,5,Français,M,1,0.1,-9.05898311,1.62172025
5d64f820c94fbf0001addee8,136,2,2024-02-27T09:28:48.800Z,french_969.wav,0,poule,251,34,5,5,Français,M,2,0.2,-40.12378042,1.31687422
5d64f820c94fbf0001addee8,136,2,2024-02-27T09:28:48.800Z,french_969.wav,0,poule,251,34,5,5,Français,M,3,0.25666667,9.74664574,0.40962586
5d64f820c94fbf0001addee8,137,2,2024-02-27T09:28:48.800Z,french_2.wav,0,pull,266,34,5,5,Français,M,0,0.0,-28.21412584,1.58504822
5d64f820c94fbf0001addee8,137,2,2024-02-27T09:28:48.800Z,french_2.wav,0,pull,266,34,5,5,Français,M,1,0.1,66.62162467,1.83034999
5d64f820c94fbf0001addee8,137,2,2024-02-27T09:28:48.800Z,french_2.wav,0,pull,266,34,5,5,Français,M,2,0.2,16.24659996,0.31217517
5d64f820c94fbf0001addee8,137,2,2024-02-27T09:28:48.800Z,french_2.wav,0,pull,266,34,5,5,Français,M,3,0.25666667,-46.42897327,1.81400659
5d64f820c94fbf0001addee8,138,2,2024-02-27T09:28:48.800Z,french_878.wav,0,poule,284,34,5,5,Français,M,0,0.0,-11.41587957,1.5495917
5d64f820c94fbf0001addee8,138,2,2024-02-27T09:28:48.800Z,french_878.wav,0,poule,284,34,5,5,Français,M,1,0.1,-52.86145621,0.92573348
5d64f820c94fbf0001addee8,138,2,2024-02-27T09:28:48.800Z,french_878.wav,0,poule,284,34,5,5,Français,M,2,0.2,10.56905128,0.71371417
5d64f820c94fbf0001addee8,138,2,2024-02-27T09:28:48.800Z,french_878.wav,0,poule,284,34,5,5,Français,M,3,0.25666667,87.23323491,0.72785239
5d64f820c94fbf0001addee8,139,2,2024-02-27T09:28:48.800Z,french_321.wav,0,pull,414,34,5,5,Français,M,0,0.0,-11.01764706,1.39443046
5d64f820c94fbf0001addee8,139,2,2024-02-27T09:28:48.800Z,french_321.wav,0,pull,414,34,5,5,Français,M,1,0.1,9.90480799,1.51913173
5d64f820c94fbf0001addee8,139,2,2024-02-27T09:28:48.800Z,french_321.wav,0,pull,414,34,5,5,Français,M,2,0.2,44.10153768,0.74961169
5d64f820c94fbf0001addee8,139,2,2024-02-27T09:28:48.800Z,french_321.wav,0,pull,414,34,5,5,Français,M,3,0.25666667,10.91862898,1.74221707
5d64f820c94fbf0001addee8,140,2,2024-02-27T09:28:48.800Z,french_897.wav,0,poule,366,34,5,5,Français,M,0,0.0,-2.62488743,0.95618392
5d64f820c94fbf0001addee8,140,2,2024-02-27T09:28:48.800Z,french_897.wav,0,poule,366,34,5,5,Français,M,1,0.1,-35.09835725,0.97615626
5d64f820c94fbf0001addee8,140,2,2024-02-27T09:28:48.800Z,french_897.wav,0,poule,366,34,5,5,Français,M,2,0.2,-7.90226738,0.33556547
5d64f820c94fbf0001addee8,140,2,2024-02-27T09:28:48.800Z,french_897.wav,0,poule,366,34,5,5,Français,M,3,0.25666667,34.22753828,0.12618193
5d64f820c94fbf0001addee8,141,2,2024-02-27T09:28:48.800Z,french_629.wav,0,poule,536,34,5,5,Français,M,0,0.0,81.54997922,0.65130664
5d64f820c94fbf0001addee8,141,2,2024-02-27T09:28:48.800Z,french_629.wav,0,poule,536,34,5,5,Français,M,1,0.1,-25.83506989,0.18523019
5d64f820c94fbf0001addee8,141,2,2024-02-27T09:28:48.800Z,french_629.wav,0,poule,536,34,5,5,Français,M,2,0.2,-50.62902687,1.20696076
5d64f820c94fbf0001addee8,141,2,2024-02-27T09:28:48.800Z,french_629.wav,0,poule,536,34,5,5,Français,M,3,0.25666667,-69.1271608,0.57946161
5d64f820c94fbf0001addee8,142,2,2024-02-27T09:28:48.800Z,french_46.wav,0,poule,551,34,5,5,Français,M,0,0.0,-59.72524318,1.59606806
5d64f820c94fbf0001addee8,142,2,2024-02-27T09:28:48.800Z,french_46.wav,0,poule,551,34,5,5,Français,M,1,0.1,-28.22082853,1.01173367
5d64f820c94fbf0001addee8,142,2,2024-02-27T09:28:48.800Z,french_46.wav,0,poule,551,34,5,5,Français,M,2,0.2,2.0739194,0.40164164
5d64f820c94fbf0001addee8,142,2,2024-02-27T09:28:48.800Z,french_46.wav,0,poule,551,34,5,5,Français,M,3,0.25666667,-12.25343829,1.6352238
5d64f820c94fbf0001addee8,143,2,2024-02-27T09:28:48.800Z,french_576.wav,0,poule,628,34,5,5,Français,M,0,0.0,-77.18723008,1.93193878
5d64f820c94fbf0001addee8,143,2,2024-02-27T09:28:48.800Z,french_576.wav,0,poule,628,34,5,5,Français,M,1,0.1,32.49939157,0.06461953
5d64f820c94fbf0001addee8,143,2,2024-02-27T09:28:48.800Z,french_576.wav,0,poule,628,34,5,5,Français,M,2,0.2,-11.29964886,0.24702868
5d64f820c94fbf0001addee8,143,2,2024-02-27T09:28:48.800Z,french_576.wav,0,poule,628,34,5,5,Français,M,3,0.25666667,24.65334735,1.68209329
5d64f820c94fbf0001addee8,144,2,2024-02-27T09:28:48.800Z,french_937.wav,0,pull,312,34,5,5,Français,M,0,0.0,27.89553513,1.9323197
5d64f820c94fbf0001addee8,144,2,2024-02-27T09:28:48.800Z,french_937.wav,0,pull,312,34,5,5,Français,M,1,0.1,-51.2753628,1.67315664
5d64f820c94fbf0001addee8,144,2,2024-02-27T09:28:48.800Z,french_937.wav,0,pull,312,34,5,5,Français,M,2,0.2,-75.08991272,1.14592467
5d64f820c94fbf0001addee8,144,2,2024-02-27T09:28:48.800Z,french_937.wav,0,pull,312,34,5,5,Français,M,3,0.25666667,-24.40434042,1.81837395
5d64f820c94fbf0001addee8,145,2,2024-02-27T09:28:48.800Z,french_200.wav,0,poule,376,34,5,5,Français,M,0,0.0,-10.65818699,0.95052916
5d64f820c94fbf0001addee8,145,2,2024-02-27T09:28:48.800Z,french_200.wav,0,poule,376,34,5,5,Français,M,1,0.1,-8.96413357,0.11424824
5d64f820c94fbf0001addee8,145,2,2024-02-27T09:28:48.800Z,french_200.wav,0,poule,376,34,5,5,Français,M,2,0.2,-78.89627616,1.718039
5d64f820c94fbf0001addee8,145,2,2024-02-27T09:28:48.800Z,french_200.wav,0,poule,376,34,5,5,Français,M,3,0.25666667,8.01745362,1.42690066
5d64f820c94fbf0001addee8,146,2,2024-02-27T09:28:48.800Z,french_653.wav,0,poule,400,34,5,5,Français,M,0,0.0,77.9010548,1.15209157
5d64f820c94fbf0001addee8,146,2,2024-02-27T09:28:48.800Z,french_653.wav,0,poule,400,34,5,5,Français,M,1,0.1,-51.77114594,0.29445829
5d64f820c94fbf0001addee8,146,2,2024-02-27T09:28:48.800Z,french_653.wav,0,poule,400,34,5,5,Français,M,2,0.2,87.84855202,0.58679482
5d64f820c94fbf0001addee8,146,2,2024-02-27T09:28:48.800Z,french_653.wav,0,poule,400,34,5,5,Français,M,3,0.25666667,84.03497815,1.23322571
5d64f820c94fbf0001addee8,147,2,2024-02-27T09:28:48.800Z,french_112.wav,0,pull,612,34,5,5,Français,M,0,0.0,-70.30580716,0.18088618
5d64f820c94fbf0001addee8,147,2,2024-02-27T09:28:48.800Z,french_112.wav,0,pull,612,34,5,5,Français,M,1,0.1,33.64373442,1.43869791
5d64f820c94fbf0001addee8,147,2,2024-02-27T09:28:48.800Z,french_112.wav,0,pull,612,34,5,5,Français,M,2,0.2,26.55830463,0.89230346
5d64f820c94fbf0001addee8,147,2,2024-02-27T09:28:48.800Z,french_112.wav,0,pull,612,34,5,5,Français,M,3,0.25666667,46.16769785,0.14009493
5d64f820c94fbf0001addee8,148,2,2024-02-27T09:28:48.800Z,french_850.wav,0,poule,346,34,5,5,Français,M,0,0.0,-88.87179188,0.91597825
5d64f820c94fbf0001addee8,148,2,2024-02-27T09:28:48.800Z,french_850.wav,0,poule,346,34,5,5,Français,M,1,0.1,15.70736636,0.21425776
5d64f820c94fbf0001addee8,148,2,2024-02-27T09:28:48.800Z,french_850.wav,0,poule,346,34,5,5,Français,M,2,0.2,67.7730952,1.52338939
5d64f820c94fbf0001addee8,148,2,2024-02-27T09:28:48.800Z,french_850.wav,0,poule,346,34,5,5,Français,M,3,0.25666667,-20.3872908,0.55241946
5d64f820c94fbf0001addee8,149,2,2024-02-27T09:28:48.800Z,french_688.wav,0,pull,267,34,5,5,Français,M,0,0.0,-12.19437797,1.87578392
5d64f820c94fbf0001addee8,149,2,2024-02-27T09:28:48.800Z,french_688.wav,0,pull,267,34,5,5,Français,M,1,0.1,-70.42225937,1.69222134
5d64f820c94fbf0001addee8,149,2,2024-02-27T09:28:48.800Z,french_688.wav,0,pull,267,34,5,5,Français,M,2,0.2,-86.95466997,1.82069748
5d64f820c94fbf0001addee8,149,2,2024-02-27T09:28:48.800Z,french_688.wav,0,pull,267,34,5,5,Français,M,3,0.25666667,-17.4398035,1.64542948
5d64f820c94fbf0001addee8,150,3,2024-02-27T09:28:48.800Z,french_516.wav,0,pull,340,34,5,5,Français,M,0,0.0,-18.05376101,1.88602221
5d64f820c94fbf0001addee8,150,3,2024-02-27T09:28:48.800Z,french_516.wav,0,pull,340,34,5,5,Français,M,1,0.1,46.96361083,1.82153179
5d64f820c94fbf0001addee8,150,3,2024-02-27T09:28:48.800Z,french_516.wav,0,pull,340,34,5,5,Français,M,2,0.2,63.85228851,1.94475993
5d64f820c94fbf0001addee8,150,3,2024-02-27T09:28:48.800Z,french_516.wav,0,pull,340,34,5,5,Français,M,3,0.25666667,-69.83202403,1.41132457
5d64f820c94fbf0001addee8,151,3,2024-02-27T09:28:48.800Z,french_961.wav,0,poule,306,34,5,5,Français,M,0,0.0,-20.33448842,1.15404666
5d64f820c94fbf0001addee8,151,3,2024-02-27T09:28:48.800Z,french_961.wav,0,poule,306,34,5,5,Français,M,1,0.1,-4.78685128,0.60063951
5d64f820c94fbf0001addee8,151,3,2024-02-27T09:28:48.800Z,french_961.wav,0,poule,306,34,5,5,Français,M,2,0.2,-11.93718074,0.7481002
5d64f820c94fbf0001addee8,151,3,2024-02-27T09:28:48.800Z,french_961.wav,0,poule,306,34,5,5,Français,M,3,0.25666667,-89.16955282,0.88090291
5d64f820c94fbf0001addee8,152,3,2024-02-27T09:28:48.800Z,french_738.wav,0,poule,274,34,5,5,Français,M,0,0.0,9.63502306,1.8953007
5d64f820c94fbf0001addee8,152,3,2024-02-27T09:28:48.800Z,french_738.wav,0,poule,274,34,5,5,Français,M,1,0.1,23.45464863,0.66483685
5d64f820c94fbf0001addee8,152,3,2024-02-27T09:28:48.800Z,french_738.wav,0,poule,274,34,5,5,Français,M,2,0.2,-41.48525502,0.56687756
5d64f820c94fbf0001addee8,152,3,2024-02-27T09:28:48.800Z,french_738.wav,0,poule,274,34,5,5,Français,M,3,0.25666667,10.13311751,1.74946228
5d64f820c94fbf0001addee8,153,3,2024-02-27T09:28:48.800Z,french_229.wav,0,poule,305,34,5,5,Français,M,0,0.0,17.32899675,0.73401758
5d64f820c94fbf0001addee8,153,3,2024-02-27T09:28:48.800Z,french_229.wav,0,poule,305,34,5,5,Français,M,1,0.1,-73.09434366,0.90990932
5d64f820c94fbf0001addee8,153,3,2024-02-27T09:28:48.800Z,french_229.wav,0,poule,305,34,5,5,Français,M,2,0.2,-24.47190501,0.8791544
5d64f820c94fbf0001addee8,153,3,2024-02-27T09:28:48.800Z,french_229.wav,0,poule,305,34,5,5,Français,M,3,0.25666667,11.45282545,1.1872524
5d64f820c94fbf0001addee8,154,3,2024-02-27T09:28:48.800Z,french_787.wav,0,poule,746,34,5,5,Français,M,0,0.0,-96.56930436,0.95025141
5d64f820c94fbf0001addee8,154,3,2024-02-27T09:28:48.800Z,french_787.wav,0,poule,746,34,5,5,Français,M,1,0.1,-14.18878177,1.10577547
5d64f820c94fbf0001addee8,154,3,2024-02-27T09:28:48.800Z,french_787.wav,0,poule,746,34,5,5,Français,M,2,0.2,-34.79884993,0.4132657
5d64f820c94fbf0001addee8,154,3,2024-02-27T09:28:48.800Z,french_787.wav,0,poule,746,34,5,5,Français,M,3,0.25666667,-70.75211023,0.64958401
5d64f820c94fbf0001addee8,155,3,2024-02-27T09:28:48.800Z,french_613.wav,0,pull,390,34,5,5,Français,M,0,0.0,-39.45599103,0.33894647
5d64f820c94fbf0001addee8,155,3,2024-02-27T09:28:48.800Z,french_613.wav,0,pull,390,34,5,5,Français,M,1,0.1,37.73715393,0.28387009
5d64f820c94fbf0001addee8,155,3,2024-02-27T09:28:48.800Z,french_613.wav,0,pull,390,34,5,5,Français,M,2,0.2,-28.02237212,1.91952712
5d64f820c94fbf0001addee8,155,3,2024-02-27T09:28:48.800Z,french_613.wav,0,pull,390,34,5,5,Français,M,3,0.25666667,-24.74266242,0.2340562
5d64f820c94fbf0001addee8,156,3,2024-02-27T09:28:48.800Z,french_751.wav,0,pull,433,34,5,5,Français,M,0,0.0,43.14158788,0.5897858
5d64f820c94fbf0001addee8,156,3,2024-02-27T09:28:48.800Z,french_751.wav,0,pull,433,34,5,5,Français,M,1,0.1,18.43858874,0.77618244
5d64f820c94fbf0001addee8,156,3,2024-02-27T09:28:48.800Z,french_751.wav,0,pull,433,34,5,5,Français,M,2,0.2,79.49995567,1.33641446
5d64f820c94fbf0001addee8,156,3,2024-02-27T09:28:48.800Z,french_751.wav,0,pull,433,34,5,5,Français,M,3,0.25666667,54.04463095,0.80537668
5d64f820c94fbf0001addee8,157,3,2024-02-27T09:28:48.800Z,french_64.wav,0,poule,310,34,5,5,Français,M,0,0.0,-2.85479512,1.8205441
5d64f820c94fbf0001addee8,157,3,2024-02-27T09:28:48.800Z,french_64.wav,0,poule,310,34,5,5,Français,M,1,0.1,-22.43053594,0.65122302
5d64f820c94fbf0001addee8,157,3,2024-02-27T09:28:48.800Z,french_64.wav,0,poule,310,34,5,5,Français,M,2,0.2,99.07991634,0.54405082
5d64f820c94fbf0001addee8,157,3,2024-02-27T09:28:48.800Z,french_64.wav,0,poule,310,34,5,5,Français,M,3,0.25666667,-6.95169827,0.02019369
5d64f820c94fbf0001addee8,158,3,2024-02-27T09:28:48.800Z,french_468.wav,0,poule,228,34,5,5,Français,M,0,0.0,62.98081683,0.39126421
5d64f820c94fbf0001addee8,158,3,2024-02-27T09:28:48.800Z,french_468.wav,0,poule,228,34,5,5,Français,M,1,0.1,-56.79667237,1.86845908
5d64f820c94fbf0001addee8,158,3,2024-02-27T09:28:48.800Z,french_468.wav,0,poule,228,34,5,5,Français,M,2,0.2,16.07172023,0.61680923
5d64f820c94fbf0001addee8,158,3,2024-02-27T09:28:48.800Z,french_468.wav,0,poule,228,34,5,5,Français,M,3,0.25666667,67.64788087,0.75086704
5d64f820c94fbf0001addee8,159,3,2024-02-27T09:28:48.800Z,french_796.wav,0,pull,311,34,5,5,Français,M,0,0.0,-38.09805788,1.93486201
5d64f820c94fbf0001addee8,159,3,2024-02-27T09:28:48.800Z,french_796.wav,0,pull,311,34,5,5,Français,M,1,0.1,-51.81358868,1.49994235
5d64f820c94fbf0001addee8,159,3,2024-02-27T09:28:48.800Z,french_796.wav,0,pull,311,34,5,5,Français,M,2,0.2,88.47322764,1.42581223
5d64f820c94fbf0001addee8,159,3,2024-02-27T09:28:48.800Z,french_796.wav,0,pull,311,34,5,5,Français,M,3,0.25666667,-34.90405205,0.47367866
5d64f820c94fbf0001addee8,160,3,2024-02-27T09:28:48.800Z,french_827.wav,0,poule,382,34,5,5,Français,M,0,0.0,52.76736232,0.65431252
5d64f820c94fbf0001addee8,160,3,2024-02-27T09:28:48.800Z,french_827.wav,0,poule,382,34,5,5,Français,M,1,0.1,43.3684124,1.37281261
5d64f820c94fbf0001addee8,160,3,2024-02-27T09:28:48.800Z,french_827.wav,0,poule,382,34,5,5,Français,M,2,0.2,5.13351566,0.35708699
5d64f820c94fbf0001addee8,160,3,2024-02-27T09:28:48.800Z,french_827.wav,0,poule,382,34,5,5,Français,M,3,0.25666667,57.45570888,0.33493738
5d64f820c94fbf0001addee8,161,3,2024-02-27T09:28:48.800Z,french_967.wav,0,poule,342,34,5,5,Français,M,0,0.0,79.70451557,1.26694721
5d64f820c94fbf0001addee8,161,3,2024-02-27T09:28:48.800Z,french_967.wav,0,poule,342,34,5,5,Français,M,1,0.1,-96.60134716,0.15349476
5d64f820c94fbf0001addee8,161,3,2024-02-27T09:28:48.800Z,french_967.wav,0,poule,342,34,5,5,Français,M,2,0.2,12.1279289,0.99393875
5d64f820c94fbf0001addee8,161,3,2024-02-27T09:28:48.800Z,french_967.wav,0,poule,342,34,5,5,Français,M,3,0.25666667,-44.3997303,1.32782977
5d64f820c94fbf0001addee8,162,3,2024-02-27T09:28:48.800Z,french_707.wav,0,pull,310,34,5,5,Français,M,0,0.0,77.25708539,0.72667473
5d64f820c94fbf0001addee8,162,3,2024-02-27T09:28:48.800Z,french_707.wav,0,pull,310,34,5,5,Français,M,1,0.1,-54.8008957,1.98017833
5d64f820c94fbf0001addee8,162,3,2024-02-27T09:28:48.800Z,french_707.wav,0,pull,310,34,5,5,Français,M,2,0.2,-15.62691875,0.70006776
5d64f820c94fbf0001addee8,162,3,2024-02-27T09:28:48.800Z,french_707.wav,0,pull,310,34,5,5,Français,M,3,0.25666667,8.64437522,1.11828401
5d64f820c94fbf0001addee8,163,3,2024-02-27T09:28:48.800Z,french_1.wav,0,poule,350,34,5,5,Français,M,0,0.0,91.87409443,0.51984737
5d64f820c94fbf0001addee8,163,3,2024-02-27T09:28:48.800Z,french_1.wav,0,poule,350,34,5,5,Français,M,1,0.1,-48.89112434,0.07214845
5d64f820c94fbf0001addee8,163,3,2024-02-27T09:28:48.800Z,french_1.wav,0,poule,350,34,5,5,Français,M,2,0.2,27.67932603,1.75660136
5d64f820c94fbf0001addee8,163,3,2024-02-27T09:28:48.800Z,french_1.wav,0,poule,350,34,5,5,Français,M,3,0.25666667,13.64945055,0.58315139
5d64f820c94fbf0001addee8,164,3,2024-02-27T09:28:48.800Z,french_418.wav,0,poule,416,34,5,5,Français,M,0,0.0,69.65568707,1.45647369
5d64f820c94fbf0001addee8,164,3,2024-02-27T09:28:48.800Z,french_418.wav,0,poule,416,34,5,5,Français,M,1,0.1,-73.62960571,0.96644453
5d64f820c94fbf0001addee8,164,3,2024-02-27T09:28:48.800Z,french_418.wav,0,poule,416,34,5,5,Français,M,2,0.2,-12.19608601,0.59086709
5d64f820c94fbf0001addee8,164,3,2024-02-27T09:28:48.800Z,french_418.wav,0,poule,416,34,5,5,Français,M,3,0.25666667,31.099867,1.25987346
5d64f820c94fbf0001addee8,165,3,2024-02-27T09:28:48.800Z,french_260.wav,0,poule,330,34,5,5,Français,M,0,0.0,-3.22947754,0.22766361
5d64f820c94fbf0001addee8,165,3,2024-02-27T09:28:48.800Z,french_260.wav,0,poule,330,34,5,5,Français,M,1,0.1,-16.22535722,1.16747398
5d64f820c94fbf0001addee8,165,3,2024-02-27T09:28:48.800Z,french_260.wav,0,poule,330,34,5,5,Français,M,2,0.2,-91.54207183,1.39667181
5d64f820c94fbf0001addee8,165,3,2024-02-27T09:28:48.800Z,french_260.wav,0,poule,330,34,5,5,Français,M,3,0.25666667,-55.70642268,1.03484551
5d64f820c94fbf0001addee8,166,3,2024-02-27T09:28:48.800Z,french_834.wav,0,poule,453,34,5,5,Français,M,0,0.0,-86.08965853,1.35817583
5d64f820c94fbf0001addee8,166,3,2024-02-27T09:28:48.800Z,french_834.wav,0,poule,453,34,5,5,Français,M,1,0.1,69.78931281,0.2902945
5d64f820c94fbf0001addee8,166,3,2024-02-27T09:28:48.800Z,french_834.wav,0,poule,453,34,5,5,Français,M,2,0.2,-42.1324214,0.84488429
5d64f820c94fbf0001addee8,166,3,2024-02-27T09:28:48.800Z,french_834.wav,0,poule,453,34,5,5,Français,M,3,0.25666667,-13.11810425,0.59655356
5d64f820c94fbf0001addee8,167,3,2024-02-27T09:28:48.800Z,french_186.wav,0,pull,1138,34,5,5,Français,M,0,0.0,-80.05391137,1.48946386
5d64f820c94fbf0001addee8,167,3,2024-02-27T09:28:48.800Z,french_186.wav,0,pull,1138,34,5,5,Français,M,1,0.1,-76.4275614,1.35064599
5d64f820c94fbf0001addee8,167,3,2024-02-27T09:28:48.800Z,french_186.wav,0,pull,1138,34,5,5,Français,M,2,0.2,7.24631247,0.88239158
5d64f820c94fbf0001addee8,167,3,2024-02-27T09:28:48.800Z,french_186.wav,0,pull,1138,34,5,5,Français,M,3,0.25666667,-47.449751,1.60975952
5d64f820c94fbf0001addee8,168,3,2024-02-27T09:28:48.800Z,french_161.wav,0,poule,331,34,5,5,Français,M,0,0.0,61.58397479,1.02686065
5d64f820c94fbf0001addee8,168,3,2024-02-27T09:28:48.800Z,french_161.wav,0,poule,331,34,5,5,Français,M,1,0.1,44.64347815,1.42523068
5d64f820c94fbf0001addee8,168,3,2024-02-27T09:28:48.800Z,french_161.wav,0,poule,331,34,5,5,Français,M,2,0.2,-11.65199572,0.36377374
5d64f820c94fbf0001addee8,168,3,2024-02-27T09:28:48.800Z,french_161.wav,0,poule,331,34,5,5,Français,M,3,0.25666667,76.59463145,0.41836879
5d64f820c94fbf0001addee8,169,3,2024-02-27T09:28:48.800Z,french_72.wav,0,pull,488,34,5,5,Français,M,0,0.0,87.98067932,1.39679477
5d64f820c94fbf0001addee8,169,3,2024-02-27T09:28:48.800Z,french_72.wav,0,pull,488,34,5,5,Français,M,1,0.1,-81.71579554,1.50716855
5d64f820c94fbf0001addee8,169,3,2024-02-27T09:28:48.800Z,french_72.wav,0,pull,488,34,5,5,Français,M,2,0.2,90.50171836,0.40298903
5d64f820c94fbf0001addee8,169,3,2024-02-27T09:28:48.800Z,french_72.wav,0,pull,488,34,5,5,Français,M,3,0.25666667,-62.13003885,0.67217346
5d64f820c94fbf0001addee8,170,3,2024-02-27T09:28:48.800Z,french_755.wav,0,poule,299,34,5,5,Français,M,0,0.0,-17.09048823,0.26038806
5d64f820c94fbf0001addee8,170,3,2024-02-27T09:28:48.800Z,french_755.wav,0,poule,299,34,5,5,Français,M,1,0.1,56.35208106,0.92084882
5d64f820c94fbf0001addee8,170,3,2024-02-27T09:28:48.800Z,french_755.wav,0,poule,299,34,5,5,Français,M,2,0.2,33.77031601,1.14499291
5d64f820c94fbf0001addee8,170,3,2024-02-27T09:28:48.800Z,french_755.wav,0,poule,299,34,5,5,Français,M,3,0.25666667,73.0579331,1.40582081
5d64f820c94fbf0001addee8,171,3,2024-02-27T09:28:48.800Z,french_760.wav,0,poule,409,34,5,5,Français,M,0,0.0,-33.74521786,1.08104013
5d64f820c94fbf0001addee8,171,3,2024-02-27T09:28:48.800Z,french_760.wav,0,poule,409,34,5,5,Français,M,1,0.1,38.89159258,0.90085836
5d64f820c94fbf0001addee8,171,3,2024-02-27T09:28:48.800Z,french_760.wav,0,poule,409,34,5,5,Français,M,2,0.2,64.82772984,0.36080554
5d64f820c94fbf0001addee8,171,3,2024-02-27T09:28:48.800Z,french_760.wav,0,poule,409,34,5,5,Français,M,3,0.25666667,15.52705732,0.08393315
5d64f820c94fbf0001addee8,172,3,2024-02-27T09:28:48.800Z,french_733.wav,0,pull,822,34,5,5,Français,M,0,0.0,96.30835656,1.00234216
5d64f820c94fbf0001addee8,172,3,2024-02-27T09:28:48.800Z,french_733.wav,0,pull,822,34,5,5,Français,M,1,0.1,-16.80147809,0.65355169
5d64f820c94fbf0001addee8,172,3,2024-02-27T09:28:48.800Z,french_733.wav,0,pull,822,34,5,5,Français,M,2,0.2,34.50045069,1.63394937
5d64f820c94fbf0001addee8,172,3,2024-02-27T09:28:48.800Z,french_733.wav,0,pull,822,34,5,5,Français,M,3,0.25666667,-6.11336577,0.15404628
5d64f820c94fbf0001addee8,173,3,2024-02-27T09:28:48.800Z,french_433.wav,0,poule,362,34,5,5,Français,M,0,0.0,-17.50255462,1.12652369
5d64f820c94fbf0001addee8,173,3,2024-02-27T09:28:48.800Z,french_433.wav,0,poule,362,34,5,5,Français,M,1,0.1,46.48307521,1.78874207
5d64f820c94fbf0001addee8,173,3,2024-02-27T09:28:48.800Z,french_433.wav,0,poule,362,34,5,5,Français,M,2,0.2,39.12417732,0.52833996
5d64f820c94fbf0001addee8,173,3,2024-02-27T09:28:48.800Z,french_433.wav,0,poule,362,34,5,5,Français,M,3,0.25666667,-52.98872919,0.52335447
5d64f820c94fbf0001addee8,174,3,2024-02-27T09:28:48.800Z,french_767.wav,0,poule,576,34,5,5,Français,M,0,0.0,91.79298807,1.15796888
5d64f820c94fbf0001addee8,174,3,2024-02-27T09:28:48.800Z,french_767.wav,0,poule,576,34,5,5,Français,M,1,0.1,-10.9319541,0.37743288
5d64f820c94fbf0001addee8,174,3,2024-02-27T09:28:48.800Z,french_767.wav,0,poule,576,34,5,5,Français,M,2,0.2,-18.13246944,1.06132115
5d64f820c94fbf0001addee8,174,3,2024-02-27T09:28:48.800Z,french_767.wav,0,poule,576,34,5,5,Français,M,3,0.25666667,-6.11346908,0.41668969
5d64f820c94fbf0001addee8,175,3,2024-02-27T09:28:48.800Z,french_709.wav,0,poule,432,34,5,5,Français,M,0,0.0,-79.1228884,1.66046785
5d64f820c94fbf0001addee8,175,3,2024-02-27T09:28:48.800Z,french_709.wav,0,poule,432,34,5,5,Français,M,1,0.1,-27.45222572,0.50815509
5d64f820c94fbf0001addee8,175,3,2024-02-27T09:28:48.800Z,french_709.wav,0,poule,432,34,5,5,Français,M,2,0.2,-11.54770291,1.01994244
5d64f820c94fbf0001addee8,175,3,2024-02-27T09:28:48.800Z,french_709.wav,0,poule,432,34,5,5,Français,M,3,0.25666667,-99.06734201,1.8368488
5d64f820c94fbf0001addee8,176,3,2024-02-27T09:28:48.800Z,french_478.wav,0,pull,423,34,5,5,Français,M,0,0.0,83.43470999,1.59134243
5d64f820c94fbf0001addee8,176,3,2024-02-27T09:28:48.800Z,french_478.wav,0,pull,423,34,5,5,Français,M,1,0.1,-2.90020724,1.87737404
5d64f820c94fbf0001addee8,176,3,2024-02-27T09:28:48.800Z,french_478.wav,0,pull,423,34,5,5,Français,M,2,0.2,3.04122674,1.09323353
5d64f820c94fbf0001addee8,176,3,2024-02-27T09:28:48.800Z,french_478.wav,0,pull,423,34,5,5,Français,M,3,0.25666667,-16.94968741,0.48225636
5d64f820c94fbf0001addee8,177,3,2024-02-27T09:28:48.800Z,french_262.wav,0,poule,388,34,5,5,Français,M,0,0.0,-64.23156272,0.64961321
5d64f820c94fbf0001addee8,177,3,2024-02-27T09:28:48.800Z,french_262.wav,0,poule,388,34,5,5,Français,M,1,0.1,-18.68430003,0.97192609
5d64f820c94fbf0001addee8,177,3,2024-02-27T09:28:48.800Z,french_262.wav,0,poule,388,34,5,5,Français,M,2,0.2,-74.67542291,0.40249154
5d64f820c94fbf0001addee8,177,3,2024-02-27T09:28:48.800Z,french_262.wav,0,poule,388,34,5,5,Français,M,3,0.25666667,29.36963449,0.8696964
5d64f820c94fbf0001addee8,178,3,2024-02-27T09:28:48.800Z,french_730.wav,0,poule,302,34,5,5,Français,M,0,0.0,45.92676741,0.18014666
5d64f820c94fbf0001addee8,178,3,2024-02-27T09:28:48.800Z,french_730.wav,0,poule,302,34,5,5,Français,M,1,0.1,-44.36449205,1.39371349
5d64f820c94fbf0001addee8,178,3,2024-02-27T09:28:48.800Z,french_730.wav,0,poule,302,34,5,5,Français,M,2,0.2,-0.92451291,1.11032992
5d64f820c94fbf0001addee8,178,3,2024-02-27T09:28:48.800Z,french_730.wav,0,poule,302,34,5,5,Français,M,3,0.25666667,30.80646356,1.142585
5d64f820c94fbf0001addee8,179,3,2024-02-27T09:28:48.800Z,french_189.wav,0,poule,551,34,5,5,Français,M,0,0.0,25.45363348,0.70243048
5d64f820c94fbf0001addee8,179,3,2024-02-27T09:28:48.800Z,french_189.wav,0,poule,551,34,5,5,Français,M,1,0.1,10.19219643,0.78977161
5d64f820c94fbf0001addee8,179,3,2024-02-27T09:28:48.800Z,french_189.wav,0,poule,551,34,5,5,Français,M,2,0.2,79.32306783,0.18017453
5d64f820c94fbf0001addee8,179,3,2024-02-27T09:28:48.800Z,french_189.wav,0,poule,551,34,5,5,Français,M,3,0.25666667,77.27494318,0.76350619
5d64f820c94fbf0001addee8,180,3,2024-02-27T09:28:48.800Z,french_895.wav,0,poule,410,34,5,5,Français,M,0,0.0,52.32100115,0.06001912
5d64f820c94fbf0001addee8,180,3,2024-02-27T09:28:48.800Z,french_895.wav,0,poule,410,34,5,5,Français,M,1,0.1,-68.39097894,0.92594104
5d64f820c94fbf0001addee8,180,3,2024-02-27T09:28:48.800Z,french_895.wav,0,poule,410,34,5,5,Français,M,2,0.2,86.56169168,1.18275101
5d64f820c94fbf0001addee8,180,3,2024-02-27T09:28:48.800Z,french_895.wav,0,poule,410,34,5,5,Français,M,3,0.25666667,-55.69575084,0.90868208
5d64f820c94fbf0001addee8,181,3,2024-02-27T09:28:48.800Z,french_336.wav,0,pull,466,34,5,5,Français,M,0,0.0,-59.08437243,0.65572155
5d64f820c94fbf0001addee8,181,3,2024-02-27T09:28:48.800Z,french_336.wav,0,pull,466,34,5,5,Français,M,1,0.1,-11.33502928,1.68249373
5d64f820c94fbf0001addee8,181,3,2024-02-27T09:28:48.800Z,french_336.wav,0,pull,466,34,5,5,Français,M,2,0.2,-8.85944942,0.52457197
5d64f820c94fbf0001addee8,181,3,2024-02-27T09:28:48.800Z,french_336.wav,0,pull,466,34,5,5,Français,M,3,0.25666667,-2.33471857,1.1312199
5d64f820c94fbf0001addee8,182,3,2024-02-27T09:28:48.800Z,french_591.wav,0,poule,379,34,5,5,Français,M,0,0.0,2.66615607,1.05020949
5d64f820c94fbf0001addee8,182,3,2024-02-27T09:28:48.800Z,french_591.wav,0,poule,379,34,5,5,Français,M,1,0.1,-24.26502045,0.55521736
5d64f820c94fbf0001addee8,182,3,2024-02-27T09:28:48.800Z,french_591.wav,0,poule,379,34,5,5,Français,M,2,0.2,-31.81388833,0.20807215
5d64f820c94fbf0001addee8,182,3,2024-02-27T09:28:48.800Z,french_591.wav,0,poule,379,34,5,5,Français,M,3,0.25666667,34.70768216,1.08119284
5d64f820c94fbf0001addee8,183,3,2024-02-27T09:28:48.800Z,french_778.wav,0,pull,330,34,5,5,Français,M,0,0.0,-2.76577218,0.74255963
5d64f820c94fbf0001addee8,183,3,2024-02-27T09:28:48.800Z,french_778.wav,0,pull,330,34,5,5,Français,M,1,0.1,4.49344871,1.48176587
5d64f820c94fbf0001addee8,183,3,2024-02-27T09:28:48.800Z,french_778.wav,0,pull,330,34,5,5,Français,M,2,0.2,68.81762054,1.59399306
5d64f820c94fbf0001addee8,183,3,2024-02-27T09:28:48.800Z,french_778.wav,0,pull,330,34,5,5,Français,M,3,0.25666667,89.13075651,1.18058537
5d64f820c94fbf0001addee8,184,3,2024-02-27T09:28:48.800Z,french_673.wav,0,poule,339,34,5,5,Français,M,0,0.0,97.1433432,1.2603
5d64f820c94fbf0001addee8,184,3,2024-02-27T09:28:48.800Z,french_673.wav,0,poule,339,34,5,5,Français,M,1,0.1,1.59516127,0.42137615
5d64f820c94fbf0001addee8,184,3,2024-02-27T09:28:48.800Z,french_673.wav,0,poule,339,34,5,5,Français,M,2,0.2,27.02161491,0.87652171
5d64f820c94fbf0001addee8,184,3,2024-02-27T09:28:48.800Z,french_673.wav,0,poule,339,34,5,5,Français,M,3,0.25666667,62.92522021,1.1230089
5d64f820c94fbf0001addee8,185,3,2024-02-27T09:28:48.800Z,french_713.wav,0,poule,423,34,5,5,Français,M,0,0.0,93.33204992,0.23689023
5d64f820c94fbf0001addee8,185,3,2024-02-27T09:28:48.800Z,french_713.wav,0,poule,423,34,5,5,Français,M,1,0.1,-15.69856834,0.32059987
5d64f820c94fbf0001addee8,185,3,2024-02-27T09:28:48.800Z,french_713.wav,0,poule,423,34,5,5,Français,M,2,0.2,18.82527382,0.78497323
5d64f820c94fbf0001addee8,185,3,2024-02-27T09:28:48.800Z,french_713.wav,0,poule,423,34,5,5,Français,M,3,0.25666667,-49.17212055,0.28269646
5d64f820c94fbf0001addee8,186,3,2024-02-27T09:28:48.800Z,french_3.wav,0,pull,230,34,5,5,Français,M,0,0.0,-14.61439924,1.57160784
5d64f820c94fbf0001addee8,186,3,2024-02-27T09:28:48.800Z,french_3.wav,0,pull,230,34,5,5,Français,M,1,0.1,31.18450832,1.95729533
5d64f820c94fbf0001addee8,186,3,2024-02-27T09:28:48.800Z,french_3.wav,0,pull,230,34,5,5,Français,M,2,0.2,25.79538703,1.5259075
5d64f820c94fbf0001addee8,186,3,2024-02-27T09:28:48.800Z,french_3.wav,0,pull,230,34,5,5,Français,M,3,0.25666667,-0.91933426,1.3870147
5d64f820c94fbf0001addee8,187,3,2024-02-27T09:28:48.800Z,french_245.wav,0,poule,244,34,5,5,Français,M,0,0.0,-61.74573417,0.99313774
5d64f820c94fbf0001addee8,187,3,2024-02-27T09:28:48.800Z,french_245.wav,0,poule,244,34,5,5,Français,M,1,0.1,71.88692077,1.19752892
5d64f820c94fbf0001addee8,187,3,2024-02-27T09:28:48.800Z,french_245.wav,0,poule,244,34,5,5,Français,M,2,0.2,-28.60272728,1.585112
5d64f820c94fbf0001addee8,187,3,2024-02-27T09:28:48.800Z,french_245.wav,0,poule,244,34,5,5,Français,M,3,0.25666667,-6.96353839,1.16753586
5d64f820c94fbf0001addee8,188,3,2024-02-27T09:28:48.800Z,french_104.wav,0,poule,305,34,5,5,Français,M,0,0.0,-10.23090517,1.0322013
5d64f820c94fbf0001addee8,188,3,2024-02-27T09:28:48.800Z,french_104.wav,0,poule,305,34,5,5,Français,M,1,0.1,92.61712743,0.84344174
5d64f820c94fbf0001addee8,188,3,2024-02-27T09:28:48.800Z,french_104.wav,0,poule,305,34,5,5,Français,M,2,0.2,0.22426759,1.03962656
5d64f820c94fbf0001addee8,188,3,2024-02-27T09:28:48.800Z,french_104.wav,0,poule,305,34,5,5,Français,M,3,0.25666667,32.30673442,1.9472426
5d64f820c94fbf0001addee8,189,3,2024-02-27T09:28:48.800Z,french_131.wav,0,poule,345,34,5,5,Français,M,0,0.0,55.95469812,0.7326606
5d64f820c94fbf0001addee8,189,3,2024-02-27T09:28:48.800Z,french_131.wav,0,poule,345,34,5,5,Français,M,1,0.1,-96.48122085,0.77747938
5d64f820c94fbf0001addee8,189,3,2024-02-27T09:28:48.800Z,french_131.wav,0,poule,345,34,5,5,Français,M,2,0.2,-45.26115565,1.02132862
5d64f820c94fbf0001addee8,189,3,2024-02-27T09:28:48.800Z,french_131.wav,0,poule,345,34,5,5,Français,M,3,0.25666667,97.10583427,0.34109041
5d64f820c94fbf0001addee8,190,3,2024-02-27T09:28:48.800Z,french_608.wav,0,pull,413,34,5,5,Français,M,0,0.0,-21.93815625,0.80217517
5d64f820c94fbf0001addee8,190,3,2024-02-27T09:28:48.800Z,french_608.wav,0,pull,413,34,5,5,Français,M,1,0.1,68.35071967,1.13802751
