subj,trial,block,date,stim,stim_order,response,rt,age,english,french,language,sex,param_index,segment,pitch,stretch
58bfee7de5869400018f5e9e,0,0,2024-02-27T10:22:39.907Z,french_483.wav,0,pull,6357,37,5,5,francais,m,0,0.0,97.94153635,0.77689604
58bfee7de5869400018f5e9e,0,0,2024-02-27T10:22:39.907Z,french_483.wav,0,pull,6357,37,5,5,francais,m,1,0.1,11.27160269,0.07842581
58bfee7de5869400018f5e9e,0,0,2024-02-27T10:22:39.907Z,french_483.wav,0,pull,6357,37,5,5,francais,m,2,0.2,92.4188156,1.30147174
58bfee7de5869400018f5e9e,0,0,2024-02-27T10:22:39.907Z,french_483.wav,0,pull,6357,37,5,5,francais,m,3,0.25666667,46.65552131,0.73281584
58bfee7de5869400018f5e9e,1,0,2024-02-27T10:22:39.907Z,french_348.wav,0,poule,1202,37,5,5,francais,m,0,0.0,68.47734878,1.61227716
58bfee7de5869400018f5e9e,1,0,2024-02-27T10:22:39.907Z,french_348.wav,0,poule,1202,37,5,5,francais,m,1,0.1,54.05190865,0.93770463
58bfee7de5869400018f5e9e,1,0,2024-02-27T10:22:39.907Z,french_348.wav,0,poule,1202,37,5,5,francais,m,2,0.2,0.19125453,1.53689085
58bfee7de5869400018f5e9e,1,0,2024-02-27T10:22:39.907Z,french_348.wav,0,poule,1202,37,5,5,francais,m,3,0.25666667,-34.65909089,1.17337711
58bfee7de5869400018f5e9e,2,0,2024-02-27T10:22:39.907Z,french_293.wav,0,pull,672,37,5,5,francais,m,0,0.0,-11.30043192,0.58860684
58bfee7de5869400018f5e9e,2,0,2024-02-27T10:22:39.907Z,french_293.wav,0,pull,672,37,5,5,francais,m,1,0.1,-69.36716709,0.23928943
58bfee7de5869400018f5e9e,2,0,2024-02-27T10:22:39.907Z,french_293.wav,0,pull,672,37,5,5,francais,m,2,0.2,65.20751159,1.00971501
58bfee7de5869400018f5e9e,2,0,2024-02-27T10:22:39.907Z,french_293.wav,0,pull,672,37,5,5,francais,m,3,0.25666667,27.71872742,0.31746318
58bfee7de5869400018f5e9e,3,0,2024-02-27T10:22:39.907Z,french_84.wav,0,poule,462,37,5,5,francais,m,0,0.0,-54.85806939,1.84853156
58bfee7de5869400018f5e9e,3,0,2024-02-27T10:22:39.907Z,french_84.wav,0,poule,462,37,5,5,francais,m,1,0.1,52.61671493,1.627657
58bfee7de5869400018f5e9e,3,0,2024-02-27T10:22:39.907Z,french_84.wav,0,poule,462,37,5,5,francais,m,2,0.2,-3.50081054,1.36210905
58bfee7de5869400018f5e9e,3,0,2024-02-27T10:22:39.907Z,french_84.wav,0,poule,462,37,5,5,francais,m,3,0.25666667,-40.76156086,0.69575672
58bfee7de5869400018f5e9e,4,0,2024-02-27T10:22:39.907Z,french_687.wav,0,poule,2989,37,5,5,francais,m,0,0.0,-41.56393701,1.23976021
58bfee7de5869400018f5e9e,4,0,2024-02-27T10:22:39.907Z,french_687.wav,0,poule,2989,37,5,5,francais,m,1,0.1,-5.27268445,0.49715047
58bfee7de5869400018f5e9e,4,0,2024-02-27T10:22:39.907Z,french_687.wav,0,poule,2989,37,5,5,francais,m,2,0.2,58.5588678,0.70596761
58bfee7de5869400018f5e9e,4,0,2024-02-27T10:22:39.907Z,french_687.wav,0,poule,2989,37,5,5,francais,m,3,0.25666667,-41.26863304,1.34000296
58bfee7de5869400018f5e9e,5,0,2024-02-27T10:22:39.907Z,french_105.wav,0,poule,608,37,5,5,francais,m,0,0.0,-23.09315354,0.81757602
58bfee7de5869400018f5e9e,5,0,2024-02-27T10:22:39.907Z,french_105.wav,0,poule,608,37,5,5,francais,m,1,0.1,-46.9361669,0.98193048
58bfee7de5869400018f5e9e,5,0,2024-02-27T10:22:39.907Z,french_105.wav,0,poule,608,37,5,5,francais,m,2,0.2,-8.58781729,1.53786831
58bfee7de5869400018f5e9e,5,0,2024-02-27T10:22:39.907Z,french_105.wav,0,poule,608,37,5,5,francais,m,3,0.25666667,56.68271074,0.84600103
58bfee7de5869400018f5e9e,6,0,2024-02-27T10:22:39.907Z,french_497.wav,0,poule,399,37,5,5,francais,m,0,0.0,-34.77858655,0.98641894
58bfee7de5869400018f5e9e,6,0,2024-02-27T10:22:39.907Z,french_497.wav,0,poule,399,37,5,5,francais,m,1,0.1,-52.52188589,1.48106735
58bfee7de5869400018f5e9e,6,0,2024-02-27T10:22:39.907Z,french_497.wav,0,poule,399,37,5,5,francais,m,2,0.2,81.6415951,1.37619597
58bfee7de5869400018f5e9e,6,0,2024-02-27T10:22:39.907Z,french_497.wav,0,poule,399,37,5,5,francais,m,3,0.25666667,23.98828418,1.87248846
58bfee7de5869400018f5e9e,7,0,2024-02-27T10:22:39.907Z,french_704.wav,0,poule,335,37,5,5,francais,m,0,0.0,47.78235411,1.53952375
58bfee7de5869400018f5e9e,7,0,2024-02-27T10:22:39.907Z,french_704.wav,0,poule,335,37,5,5,francais,m,1,0.1,-55.43932,1.15285736
58bfee7de5869400018f5e9e,7,0,2024-02-27T10:22:39.907Z,french_704.wav,0,poule,335,37,5,5,francais,m,2,0.2,-4.4200676,1.9057017
58bfee7de5869400018f5e9e,7,0,2024-02-27T10:22:39.907Z,french_704.wav,0,poule,335,37,5,5,francais,m,3,0.25666667,92.51428674,1.54517481
58bfee7de5869400018f5e9e,8,0,2024-02-27T10:22:39.907Z,french_94.wav,0,pull,2941,37,5,5,francais,m,0,0.0,-38.18468722,1.72805858
58bfee7de5869400018f5e9e,8,0,2024-02-27T10:22:39.907Z,french_94.wav,0,pull,2941,37,5,5,francais,m,1,0.1,61.36042124,0.90054349
58bfee7de5869400018f5e9e,8,0,2024-02-27T10:22:39.907Z,french_94.wav,0,pull,2941,37,5,5,francais,m,2,0.2,-21.02312881,0.35857958
58bfee7de5869400018f5e9e,8,0,2024-02-27T10:22:39.907Z,french_94.wav,0,pull,2941,37,5,5,francais,m,3,0.25666667,-24.03892562,0.71397413
58bfee7de5869400018f5e9e,9,0,2024-02-27T10:22:39.907Z,french_18.wav,0,pull,2414,37,5,5,francais,m,0,0.0,29.29326365,1.56476478
58bfee7de5869400018f5e9e,9,0,2024-02-27T10:22:39.907Z,french_18.wav,0,pull,2414,37,5,5,francais,m,1,0.1,-65.9497706,0.7748919
58bfee7de5869400018f5e9e,9,0,2024-02-27T10:22:39.907Z,french_18.wav,0,pull,2414,37,5,5,francais,m,2,0.2,-68.38187686,0.73946843
58bfee7de5869400018f5e9e,9,0,2024-02-27T10:22:39.907Z,french_18.wav,0,pull,2414,37,5,5,francais,m,3,0.25666667,26.32477662,1.33435109
58bfee7de5869400018f5e9e,10,0,2024-02-27T10:22:39.907Z,french_316.wav,0,pull,3544,37,5,5,francais,m,0,0.0,71.43385859,0.02011656
58bfee7de5869400018f5e9e,10,0,2024-02-27T10:22:39.907Z,french_316.wav,0,pull,3544,37,5,5,francais,m,1,0.1,-31.05932013,1.43477753
58bfee7de5869400018f5e9e,10,0,2024-02-27T10:22:39.907Z,french_316.wav,0,pull,3544,37,5,5,francais,m,2,0.2,7.51523711,0.06852206
58bfee7de5869400018f5e9e,10,0,2024-02-27T10:22:39.907Z,french_316.wav,0,pull,3544,37,5,5,francais,m,3,0.25666667,-46.68412198,1.51807936
58bfee7de5869400018f5e9e,11,0,2024-02-27T10:22:39.907Z,french_510.wav,0,pull,799,37,5,5,francais,m,0,0.0,-82.87799208,0.24901575
58bfee7de5869400018f5e9e,11,0,2024-02-27T10:22:39.907Z,french_510.wav,0,pull,799,37,5,5,francais,m,1,0.1,65.34741866,0.57837344
58bfee7de5869400018f5e9e,11,0,2024-02-27T10:22:39.907Z,french_510.wav,0,pull,799,37,5,5,francais,m,2,0.2,-27.05880307,0.73430832
58bfee7de5869400018f5e9e,11,0,2024-02-27T10:22:39.907Z,french_510.wav,0,pull,799,37,5,5,francais,m,3,0.25666667,51.91290048,0.23551409
58bfee7de5869400018f5e9e,12,0,2024-02-27T10:22:39.907Z,french_5.wav,0,pull,690,37,5,5,francais,m,0,0.0,-2.8714843,1.07181682
58bfee7de5869400018f5e9e,12,0,2024-02-27T10:22:39.907Z,french_5.wav,0,pull,690,37,5,5,francais,m,1,0.1,-50.9441672,0.56733338
58bfee7de5869400018f5e9e,12,0,2024-02-27T10:22:39.907Z,french_5.wav,0,pull,690,37,5,5,francais,m,2,0.2,56.21180826,0.26773361
58bfee7de5869400018f5e9e,12,0,2024-02-27T10:22:39.907Z,french_5.wav,0,pull,690,37,5,5,francais,m,3,0.25666667,-57.18619957,1.97613039
58bfee7de5869400018f5e9e,13,0,2024-02-27T10:22:39.907Z,french_123.wav,0,poule,2936,37,5,5,francais,m,0,0.0,47.28842571,1.09614989
58bfee7de5869400018f5e9e,13,0,2024-02-27T10:22:39.907Z,french_123.wav,0,poule,2936,37,5,5,francais,m,1,0.1,40.8763752,1.93529177
58bfee7de5869400018f5e9e,13,0,2024-02-27T10:22:39.907Z,french_123.wav,0,poule,2936,37,5,5,francais,m,2,0.2,-0.29365354,0.05812677
58bfee7de5869400018f5e9e,13,0,2024-02-27T10:22:39.907Z,french_123.wav,0,poule,2936,37,5,5,francais,m,3,0.25666667,-9.49286286,0.68816992
58bfee7de5869400018f5e9e,14,0,2024-02-27T10:22:39.907Z,french_740.wav,0,poule,821,37,5,5,francais,m,0,0.0,-63.22643447,1.41698272
58bfee7de5869400018f5e9e,14,0,2024-02-27T10:22:39.907Z,french_740.wav,0,poule,821,37,5,5,francais,m,1,0.1,-76.79793208,1.15791198
58bfee7de5869400018f5e9e,14,0,2024-02-27T10:22:39.907Z,french_740.wav,0,poule,821,37,5,5,francais,m,2,0.2,-90.89358737,1.97460827
58bfee7de5869400018f5e9e,14,0,2024-02-27T10:22:39.907Z,french_740.wav,0,poule,821,37,5,5,francais,m,3,0.25666667,-87.57687491,0.61281255
58bfee7de5869400018f5e9e,15,0,2024-02-27T10:22:39.907Z,french_28.wav,0,pull,619,37,5,5,francais,m,0,0.0,-42.04092007,0.8096396
58bfee7de5869400018f5e9e,15,0,2024-02-27T10:22:39.907Z,french_28.wav,0,pull,619,37,5,5,francais,m,1,0.1,-47.89065573,0.68168646
58bfee7de5869400018f5e9e,15,0,2024-02-27T10:22:39.907Z,french_28.wav,0,pull,619,37,5,5,francais,m,2,0.2,88.67668081,0.86103635
58bfee7de5869400018f5e9e,15,0,2024-02-27T10:22:39.907Z,french_28.wav,0,pull,619,37,5,5,francais,m,3,0.25666667,23.25138011,1.13642067
58bfee7de5869400018f5e9e,16,0,2024-02-27T10:22:39.907Z,french_676.wav,0,pull,497,37,5,5,francais,m,0,0.0,77.51634327,0.52312795
58bfee7de5869400018f5e9e,16,0,2024-02-27T10:22:39.907Z,french_676.wav,0,pull,497,37,5,5,francais,m,1,0.1,-98.7950763,0.58996043
58bfee7de5869400018f5e9e,16,0,2024-02-27T10:22:39.907Z,french_676.wav,0,pull,497,37,5,5,francais,m,2,0.2,-10.44477989,1.89966038
58bfee7de5869400018f5e9e,16,0,2024-02-27T10:22:39.907Z,french_676.wav,0,pull,497,37,5,5,francais,m,3,0.25666667,3.71960258,0.61903343
58bfee7de5869400018f5e9e,17,0,2024-02-27T10:22:39.907Z,french_937.wav,0,pull,817,37,5,5,francais,m,0,0.0,27.89553513,1.9323197
58bfee7de5869400018f5e9e,17,0,2024-02-27T10:22:39.907Z,french_937.wav,0,pull,817,37,5,5,francais,m,1,0.1,-51.2753628,1.67315664
58bfee7de5869400018f5e9e,17,0,2024-02-27T10:22:39.907Z,french_937.wav,0,pull,817,37,5,5,francais,m,2,0.2,-75.08991272,1.14592467
58bfee7de5869400018f5e9e,17,0,2024-02-27T10:22:39.907Z,french_937.wav,0,pull,817,37,5,5,francais,m,3,0.25666667,-24.40434042,1.81837395
58bfee7de5869400018f5e9e,18,0,2024-02-27T10:22:39.907Z,french_485.wav,0,pull,966,37,5,5,francais,m,0,0.0,49.72116837,1.80184077
58bfee7de5869400018f5e9e,18,0,2024-02-27T10:22:39.907Z,french_485.wav,0,pull,966,37,5,5,francais,m,1,0.1,30.83147643,1.80095915
58bfee7de5869400018f5e9e,18,0,2024-02-27T10:22:39.907Z,french_485.wav,0,pull,966,37,5,5,francais,m,2,0.2,37.98454641,1.42682554
58bfee7de5869400018f5e9e,18,0,2024-02-27T10:22:39.907Z,french_485.wav,0,pull,966,37,5,5,francais,m,3,0.25666667,-93.0468476,0.86529676
58bfee7de5869400018f5e9e,19,0,2024-02-27T10:22:39.907Z,french_527.wav,0,pull,758,37,5,5,francais,m,0,0.0,97.81644093,0.09503525
58bfee7de5869400018f5e9e,19,0,2024-02-27T10:22:39.907Z,french_527.wav,0,pull,758,37,5,5,francais,m,1,0.1,68.05004199,0.33267387
58bfee7de5869400018f5e9e,19,0,2024-02-27T10:22:39.907Z,french_527.wav,0,pull,758,37,5,5,francais,m,2,0.2,-44.05597581,1.51053464
58bfee7de5869400018f5e9e,19,0,2024-02-27T10:22:39.907Z,french_527.wav,0,pull,758,37,5,5,francais,m,3,0.25666667,40.91945638,1.37458991
58bfee7de5869400018f5e9e,20,0,2024-02-27T10:22:39.907Z,french_374.wav,0,poule,2096,37,5,5,francais,m,0,0.0,23.12233407,0.63582229
58bfee7de5869400018f5e9e,20,0,2024-02-27T10:22:39.907Z,french_374.wav,0,poule,2096,37,5,5,francais,m,1,0.1,4.88786521,0.48218095
58bfee7de5869400018f5e9e,20,0,2024-02-27T10:22:39.907Z,french_374.wav,0,poule,2096,37,5,5,francais,m,2,0.2,75.40336837,0.81003499
58bfee7de5869400018f5e9e,20,0,2024-02-27T10:22:39.907Z,french_374.wav,0,poule,2096,37,5,5,francais,m,3,0.25666667,-52.23092949,1.31471089
58bfee7de5869400018f5e9e,21,0,2024-02-27T10:22:39.907Z,french_846.wav,0,pull,740,37,5,5,francais,m,0,0.0,70.67693031,1.34255937
58bfee7de5869400018f5e9e,21,0,2024-02-27T10:22:39.907Z,french_846.wav,0,pull,740,37,5,5,francais,m,1,0.1,-66.50397015,0.4230684
58bfee7de5869400018f5e9e,21,0,2024-02-27T10:22:39.907Z,french_846.wav,0,pull,740,37,5,5,francais,m,2,0.2,37.81388611,1.53749893
58bfee7de5869400018f5e9e,21,0,2024-02-27T10:22:39.907Z,french_846.wav,0,pull,740,37,5,5,francais,m,3,0.25666667,-25.90764661,0.57819313
58bfee7de5869400018f5e9e,22,0,2024-02-27T10:22:39.907Z,french_631.wav,0,pull,837,37,5,5,francais,m,0,0.0,87.50143958,0.46380881
58bfee7de5869400018f5e9e,22,0,2024-02-27T10:22:39.907Z,french_631.wav,0,pull,837,37,5,5,francais,m,1,0.1,43.81698528,0.9935464
58bfee7de5869400018f5e9e,22,0,2024-02-27T10:22:39.907Z,french_631.wav,0,pull,837,37,5,5,francais,m,2,0.2,97.72878597,1.55852459
58bfee7de5869400018f5e9e,22,0,2024-02-27T10:22:39.907Z,french_631.wav,0,pull,837,37,5,5,francais,m,3,0.25666667,25.13380659,0.71365297
58bfee7de5869400018f5e9e,23,0,2024-02-27T10:22:39.907Z,french_936.wav,0,poule,536,37,5,5,francais,m,0,0.0,-20.69739044,1.81100612
58bfee7de5869400018f5e9e,23,0,2024-02-27T10:22:39.907Z,french_936.wav,0,poule,536,37,5,5,francais,m,1,0.1,11.25896305,0.34150345
58bfee7de5869400018f5e9e,23,0,2024-02-27T10:22:39.907Z,french_936.wav,0,poule,536,37,5,5,francais,m,2,0.2,-73.43688333,0.78598688
58bfee7de5869400018f5e9e,23,0,2024-02-27T10:22:39.907Z,french_936.wav,0,poule,536,37,5,5,francais,m,3,0.25666667,14.6038409,0.34536881
58bfee7de5869400018f5e9e,24,0,2024-02-27T10:22:39.907Z,french_995.wav,0,poule,1581,37,5,5,francais,m,0,0.0,-29.39777781,0.04069973
58bfee7de5869400018f5e9e,24,0,2024-02-27T10:22:39.907Z,french_995.wav,0,poule,1581,37,5,5,francais,m,1,0.1,22.57403903,0.75529124
58bfee7de5869400018f5e9e,24,0,2024-02-27T10:22:39.907Z,french_995.wav,0,poule,1581,37,5,5,francais,m,2,0.2,-65.41348422,0.72194837
58bfee7de5869400018f5e9e,24,0,2024-02-27T10:22:39.907Z,french_995.wav,0,poule,1581,37,5,5,francais,m,3,0.25666667,24.23364448,0.85657711
58bfee7de5869400018f5e9e,25,0,2024-02-27T10:22:39.907Z,french_276.wav,0,pull,1095,37,5,5,francais,m,0,0.0,-30.59490391,1.59191255
58bfee7de5869400018f5e9e,25,0,2024-02-27T10:22:39.907Z,french_276.wav,0,pull,1095,37,5,5,francais,m,1,0.1,35.14119383,1.08920427
58bfee7de5869400018f5e9e,25,0,2024-02-27T10:22:39.907Z,french_276.wav,0,pull,1095,37,5,5,francais,m,2,0.2,-47.54137466,1.15204711
58bfee7de5869400018f5e9e,25,0,2024-02-27T10:22:39.907Z,french_276.wav,0,pull,1095,37,5,5,francais,m,3,0.25666667,-36.46330553,0.56107217
58bfee7de5869400018f5e9e,26,0,2024-02-27T10:22:39.907Z,french_103.wav,0,pull,1553,37,5,5,francais,m,0,0.0,-37.64273041,0.8608001
58bfee7de5869400018f5e9e,26,0,2024-02-27T10:22:39.907Z,french_103.wav,0,pull,1553,37,5,5,francais,m,1,0.1,41.40974178,0.05604445
58bfee7de5869400018f5e9e,26,0,2024-02-27T10:22:39.907Z,french_103.wav,0,pull,1553,37,5,5,francais,m,2,0.2,-53.90098235,0.48473984
58bfee7de5869400018f5e9e,26,0,2024-02-27T10:22:39.907Z,french_103.wav,0,pull,1553,37,5,5,francais,m,3,0.25666667,-57.22614073,0.01055005
58bfee7de5869400018f5e9e,27,0,2024-02-27T10:22:39.907Z,french_597.wav,0,pull,1062,37,5,5,francais,m,0,0.0,78.21673508,0.32061172
58bfee7de5869400018f5e9e,27,0,2024-02-27T10:22:39.907Z,french_597.wav,0,pull,1062,37,5,5,francais,m,1,0.1,48.44931265,1.01687051
58bfee7de5869400018f5e9e,27,0,2024-02-27T10:22:39.907Z,french_597.wav,0,pull,1062,37,5,5,francais,m,2,0.2,-9.21876948,0.22158162
58bfee7de5869400018f5e9e,27,0,2024-02-27T10:22:39.907Z,french_597.wav,0,pull,1062,37,5,5,francais,m,3,0.25666667,-95.47680095,0.62073139
58bfee7de5869400018f5e9e,28,0,2024-02-27T10:22:39.907Z,french_489.wav,0,pull,648,37,5,5,francais,m,0,0.0,0.49645075,0.76062229
58bfee7de5869400018f5e9e,28,0,2024-02-27T10:22:39.907Z,french_489.wav,0,pull,648,37,5,5,francais,m,1,0.1,-49.42249353,1.72041063
58bfee7de5869400018f5e9e,28,0,2024-02-27T10:22:39.907Z,french_489.wav,0,pull,648,37,5,5,francais,m,2,0.2,3.0196593,0.72496435
58bfee7de5869400018f5e9e,28,0,2024-02-27T10:22:39.907Z,french_489.wav,0,pull,648,37,5,5,francais,m,3,0.25666667,11.9492669,0.84736567
58bfee7de5869400018f5e9e,29,0,2024-02-27T10:22:39.907Z,french_585.wav,0,pull,897,37,5,5,francais,m,0,0.0,55.40756654,1.79357949
58bfee7de5869400018f5e9e,29,0,2024-02-27T10:22:39.907Z,french_585.wav,0,pull,897,37,5,5,francais,m,1,0.1,-99.68924549,1.94389706
58bfee7de5869400018f5e9e,29,0,2024-02-27T10:22:39.907Z,french_585.wav,0,pull,897,37,5,5,francais,m,2,0.2,-52.13930441,0.70685753
58bfee7de5869400018f5e9e,29,0,2024-02-27T10:22:39.907Z,french_585.wav,0,pull,897,37,5,5,francais,m,3,0.25666667,-49.42840454,0.08344351
58bfee7de5869400018f5e9e,30,0,2024-02-27T10:22:39.907Z,french_386.wav,0,pull,470,37,5,5,francais,m,0,0.0,50.68041389,0.75883449
58bfee7de5869400018f5e9e,30,0,2024-02-27T10:22:39.907Z,french_386.wav,0,pull,470,37,5,5,francais,m,1,0.1,19.37586599,1.33167931
58bfee7de5869400018f5e9e,30,0,2024-02-27T10:22:39.907Z,french_386.wav,0,pull,470,37,5,5,francais,m,2,0.2,0.19752764,0.89836148
58bfee7de5869400018f5e9e,30,0,2024-02-27T10:22:39.907Z,french_386.wav,0,pull,470,37,5,5,francais,m,3,0.25666667,-78.73875249,0.64515466
58bfee7de5869400018f5e9e,31,0,2024-02-27T10:22:39.907Z,french_478.wav,0,poule,1494,37,5,5,francais,m,0,0.0,83.43470999,1.59134243
58bfee7de5869400018f5e9e,31,0,2024-02-27T10:22:39.907Z,french_478.wav,0,poule,1494,37,5,5,francais,m,1,0.1,-2.90020724,1.87737404
58bfee7de5869400018f5e9e,31,0,2024-02-27T10:22:39.907Z,french_478.wav,0,poule,1494,37,5,5,francais,m,2,0.2,3.04122674,1.09323353
58bfee7de5869400018f5e9e,31,0,2024-02-27T10:22:39.907Z,french_478.wav,0,poule,1494,37,5,5,francais,m,3,0.25666667,-16.94968741,0.48225636
58bfee7de5869400018f5e9e,32,0,2024-02-27T10:22:39.907Z,french_688.wav,0,poule,1019,37,5,5,francais,m,0,0.0,-12.19437797,1.87578392
58bfee7de5869400018f5e9e,32,0,2024-02-27T10:22:39.907Z,french_688.wav,0,poule,1019,37,5,5,francais,m,1,0.1,-70.42225937,1.69222134
58bfee7de5869400018f5e9e,32,0,2024-02-27T10:22:39.907Z,french_688.wav,0,poule,1019,37,5,5,francais,m,2,0.2,-86.95466997,1.82069748
58bfee7de5869400018f5e9e,32,0,2024-02-27T10:22:39.907Z,french_688.wav,0,poule,1019,37,5,5,francais,m,3,0.25666667,-17.4398035,1.64542948
58bfee7de5869400018f5e9e,33,0,2024-02-27T10:22:39.907Z,french_891.wav,0,pull,1409,37,5,5,francais,m,0,0.0,36.15157251,0.11830574
58bfee7de5869400018f5e9e,33,0,2024-02-27T10:22:39.907Z,french_891.wav,0,pull,1409,37,5,5,francais,m,1,0.1,9.92087077,0.00778599
58bfee7de5869400018f5e9e,33,0,2024-02-27T10:22:39.907Z,french_891.wav,0,pull,1409,37,5,5,francais,m,2,0.2,64.79051962,0.40739404
58bfee7de5869400018f5e9e,33,0,2024-02-27T10:22:39.907Z,french_891.wav,0,pull,1409,37,5,5,francais,m,3,0.25666667,25.43576317,0.71071781
58bfee7de5869400018f5e9e,34,0,2024-02-27T10:22:39.907Z,french_600.wav,0,pull,647,37,5,5,francais,m,0,0.0,29.66563504,0.34173365
58bfee7de5869400018f5e9e,34,0,2024-02-27T10:22:39.907Z,french_600.wav,0,pull,647,37,5,5,francais,m,1,0.1,-8.64659381,0.28144694
58bfee7de5869400018f5e9e,34,0,2024-02-27T10:22:39.907Z,french_600.wav,0,pull,647,37,5,5,francais,m,2,0.2,-34.77347642,1.5541161
58bfee7de5869400018f5e9e,34,0,2024-02-27T10:22:39.907Z,french_600.wav,0,pull,647,37,5,5,francais,m,3,0.25666667,-62.75040759,1.60255421
58bfee7de5869400018f5e9e,35,0,2024-02-27T10:22:39.907Z,french_344.wav,0,pull,1599,37,5,5,francais,m,0,0.0,52.58849346,0.27482393
58bfee7de5869400018f5e9e,35,0,2024-02-27T10:22:39.907Z,french_344.wav,0,pull,1599,37,5,5,francais,m,1,0.1,-22.3140036,0.23105003
58bfee7de5869400018f5e9e,35,0,2024-02-27T10:22:39.907Z,french_344.wav,0,pull,1599,37,5,5,francais,m,2,0.2,-66.1637605,0.54206464
58bfee7de5869400018f5e9e,35,0,2024-02-27T10:22:39.907Z,french_344.wav,0,pull,1599,37,5,5,francais,m,3,0.25666667,-23.8196401,1.18246439
58bfee7de5869400018f5e9e,36,0,2024-02-27T10:22:39.907Z,french_561.wav,0,pull,526,37,5,5,francais,m,0,0.0,43.72245453,1.14403907
58bfee7de5869400018f5e9e,36,0,2024-02-27T10:22:39.907Z,french_561.wav,0,pull,526,37,5,5,francais,m,1,0.1,-99.96065046,0.22103922
58bfee7de5869400018f5e9e,36,0,2024-02-27T10:22:39.907Z,french_561.wav,0,pull,526,37,5,5,francais,m,2,0.2,-79.74506532,0.12690813
58bfee7de5869400018f5e9e,36,0,2024-02-27T10:22:39.907Z,french_561.wav,0,pull,526,37,5,5,francais,m,3,0.25666667,3.19515671,1.47601923
58bfee7de5869400018f5e9e,37,0,2024-02-27T10:22:39.907Z,french_172.wav,0,poule,603,37,5,5,francais,m,0,0.0,48.7065843,1.72774852
58bfee7de5869400018f5e9e,37,0,2024-02-27T10:22:39.907Z,french_172.wav,0,poule,603,37,5,5,francais,m,1,0.1,36.17213003,0.94223675
58bfee7de5869400018f5e9e,37,0,2024-02-27T10:22:39.907Z,french_172.wav,0,poule,603,37,5,5,francais,m,2,0.2,22.16215467,1.06724209
58bfee7de5869400018f5e9e,37,0,2024-02-27T10:22:39.907Z,french_172.wav,0,poule,603,37,5,5,francais,m,3,0.25666667,3.80373218,1.19623342
58bfee7de5869400018f5e9e,38,0,2024-02-27T10:22:39.907Z,french_357.wav,0,pull,1435,37,5,5,francais,m,0,0.0,-39.34197693,1.60610182
58bfee7de5869400018f5e9e,38,0,2024-02-27T10:22:39.907Z,french_357.wav,0,pull,1435,37,5,5,francais,m,1,0.1,71.15894406,0.3952593
58bfee7de5869400018f5e9e,38,0,2024-02-27T10:22:39.907Z,french_357.wav,0,pull,1435,37,5,5,francais,m,2,0.2,-59.30154436,0.60654741
58bfee7de5869400018f5e9e,38,0,2024-02-27T10:22:39.907Z,french_357.wav,0,pull,1435,37,5,5,francais,m,3,0.25666667,60.48174113,0.43480054
58bfee7de5869400018f5e9e,39,0,2024-02-27T10:22:39.907Z,french_719.wav,0,poule,712,37,5,5,francais,m,0,0.0,-0.39387326,0.47887204
58bfee7de5869400018f5e9e,39,0,2024-02-27T10:22:39.907Z,french_719.wav,0,poule,712,37,5,5,francais,m,1,0.1,1.52424656,1.22874683
58bfee7de5869400018f5e9e,39,0,2024-02-27T10:22:39.907Z,french_719.wav,0,poule,712,37,5,5,francais,m,2,0.2,34.63950895,0.97564384
58bfee7de5869400018f5e9e,39,0,2024-02-27T10:22:39.907Z,french_719.wav,0,poule,712,37,5,5,francais,m,3,0.25666667,-19.23986751,0.79252429
58bfee7de5869400018f5e9e,40,0,2024-02-27T10:22:39.907Z,french_330.wav,0,poule,488,37,5,5,francais,m,0,0.0,-46.98301203,1.92315583
58bfee7de5869400018f5e9e,40,0,2024-02-27T10:22:39.907Z,french_330.wav,0,poule,488,37,5,5,francais,m,1,0.1,55.18277966,0.64158591
58bfee7de5869400018f5e9e,40,0,2024-02-27T10:22:39.907Z,french_330.wav,0,poule,488,37,5,5,francais,m,2,0.2,68.01781419,0.71457858
58bfee7de5869400018f5e9e,40,0,2024-02-27T10:22:39.907Z,french_330.wav,0,poule,488,37,5,5,francais,m,3,0.25666667,-65.13341665,0.26661962
58bfee7de5869400018f5e9e,41,0,2024-02-27T10:22:39.907Z,french_204.wav,0,pull,619,37,5,5,francais,m,0,0.0,-28.36319627,0.07789368
58bfee7de5869400018f5e9e,41,0,2024-02-27T10:22:39.907Z,french_204.wav,0,pull,619,37,5,5,francais,m,1,0.1,-92.66891013,0.00203791
58bfee7de5869400018f5e9e,41,0,2024-02-27T10:22:39.907Z,french_204.wav,0,pull,619,37,5,5,francais,m,2,0.2,96.29592204,1.92374636
58bfee7de5869400018f5e9e,41,0,2024-02-27T10:22:39.907Z,french_204.wav,0,pull,619,37,5,5,francais,m,3,0.25666667,-46.81515004,0.97947469
58bfee7de5869400018f5e9e,42,0,2024-02-27T10:22:39.907Z,french_535.wav,0,poule,884,37,5,5,francais,m,0,0.0,-81.47221285,1.61446576
58bfee7de5869400018f5e9e,42,0,2024-02-27T10:22:39.907Z,french_535.wav,0,poule,884,37,5,5,francais,m,1,0.1,42.68543716,1.13976105
58bfee7de5869400018f5e9e,42,0,2024-02-27T10:22:39.907Z,french_535.wav,0,poule,884,37,5,5,francais,m,2,0.2,-73.81682794,0.22032829
58bfee7de5869400018f5e9e,42,0,2024-02-27T10:22:39.907Z,french_535.wav,0,poule,884,37,5,5,francais,m,3,0.25666667,-85.27887702,0.61620659
58bfee7de5869400018f5e9e,43,0,2024-02-27T10:22:39.907Z,french_162.wav,0,pull,586,37,5,5,francais,m,0,0.0,-20.03052962,1.70466969
58bfee7de5869400018f5e9e,43,0,2024-02-27T10:22:39.907Z,french_162.wav,0,pull,586,37,5,5,francais,m,1,0.1,-35.11860261,0.77666831
58bfee7de5869400018f5e9e,43,0,2024-02-27T10:22:39.907Z,french_162.wav,0,pull,586,37,5,5,francais,m,2,0.2,20.80868131,1.88915568
58bfee7de5869400018f5e9e,43,0,2024-02-27T10:22:39.907Z,french_162.wav,0,pull,586,37,5,5,francais,m,3,0.25666667,50.74802705,1.69994842
58bfee7de5869400018f5e9e,44,0,2024-02-27T10:22:39.907Z,french_814.wav,0,poule,912,37,5,5,francais,m,0,0.0,83.0056253,1.4499936
58bfee7de5869400018f5e9e,44,0,2024-02-27T10:22:39.907Z,french_814.wav,0,poule,912,37,5,5,francais,m,1,0.1,-71.4586846,0.77595229
58bfee7de5869400018f5e9e,44,0,2024-02-27T10:22:39.907Z,french_814.wav,0,poule,912,37,5,5,francais,m,2,0.2,12.63844789,0.21302651
58bfee7de5869400018f5e9e,44,0,2024-02-27T10:22:39.907Z,french_814.wav,0,poule,912,37,5,5,francais,m,3,0.25666667,12.39326704,0.16177964
58bfee7de5869400018f5e9e,45,0,2024-02-27T10:22:39.907Z,french_307.wav,0,poule,761,37,5,5,francais,m,0,0.0,1.2534749,1.28672407
58bfee7de5869400018f5e9e,45,0,2024-02-27T10:22:39.907Z,french_307.wav,0,poule,761,37,5,5,francais,m,1,0.1,79.3326992,0.47718292
58bfee7de5869400018f5e9e,45,0,2024-02-27T10:22:39.907Z,french_307.wav,0,poule,761,37,5,5,francais,m,2,0.2,24.93038066,1.37451018
58bfee7de5869400018f5e9e,45,0,2024-02-27T10:22:39.907Z,french_307.wav,0,poule,761,37,5,5,francais,m,3,0.25666667,-37.26133342,1.21026525
58bfee7de5869400018f5e9e,46,0,2024-02-27T10:22:39.907Z,french_765.wav,0,poule,1167,37,5,5,francais,m,0,0.0,37.74619949,1.94846132
58bfee7de5869400018f5e9e,46,0,2024-02-27T10:22:39.907Z,french_765.wav,0,poule,1167,37,5,5,francais,m,1,0.1,35.79177818,0.74629838
58bfee7de5869400018f5e9e,46,0,2024-02-27T10:22:39.907Z,french_765.wav,0,poule,1167,37,5,5,francais,m,2,0.2,-4.82792988,1.12672767
58bfee7de5869400018f5e9e,46,0,2024-02-27T10:22:39.907Z,french_765.wav,0,poule,1167,37,5,5,francais,m,3,0.25666667,-29.99687949,0.50330326
58bfee7de5869400018f5e9e,47,0,2024-02-27T10:22:39.907Z,french_492.wav,0,pull,642,37,5,5,francais,m,0,0.0,26.23401792,1.39276004
58bfee7de5869400018f5e9e,47,0,2024-02-27T10:22:39.907Z,french_492.wav,0,pull,642,37,5,5,francais,m,1,0.1,-24.69700304,1.17915575
58bfee7de5869400018f5e9e,47,0,2024-02-27T10:22:39.907Z,french_492.wav,0,pull,642,37,5,5,francais,m,2,0.2,20.89476161,0.89700471
58bfee7de5869400018f5e9e,47,0,2024-02-27T10:22:39.907Z,french_492.wav,0,pull,642,37,5,5,francais,m,3,0.25666667,-5.21833306,0.44164607
58bfee7de5869400018f5e9e,48,0,2024-02-27T10:22:39.907Z,french_376.wav,0,pull,1649,37,5,5,francais,m,0,0.0,-29.78300729,1.32478843
58bfee7de5869400018f5e9e,48,0,2024-02-27T10:22:39.907Z,french_376.wav,0,pull,1649,37,5,5,francais,m,1,0.1,-14.6608331,1.46487259
58bfee7de5869400018f5e9e,48,0,2024-02-27T10:22:39.907Z,french_376.wav,0,pull,1649,37,5,5,francais,m,2,0.2,93.91149251,1.42207254
58bfee7de5869400018f5e9e,48,0,2024-02-27T10:22:39.907Z,french_376.wav,0,pull,1649,37,5,5,francais,m,3,0.25666667,61.08695399,1.23206205
58bfee7de5869400018f5e9e,49,0,2024-02-27T10:22:39.907Z,french_790.wav,0,pull,730,37,5,5,francais,m,0,0.0,-78.0899986,0.03777082
58bfee7de5869400018f5e9e,49,0,2024-02-27T10:22:39.907Z,french_790.wav,0,pull,730,37,5,5,francais,m,1,0.1,-13.38999599,1.54425687
58bfee7de5869400018f5e9e,49,0,2024-02-27T10:22:39.907Z,french_790.wav,0,pull,730,37,5,5,francais,m,2,0.2,-59.88967217,0.07634696
58bfee7de5869400018f5e9e,49,0,2024-02-27T10:22:39.907Z,french_790.wav,0,pull,730,37,5,5,francais,m,3,0.25666667,34.06701256,1.62279479
58bfee7de5869400018f5e9e,50,1,2024-02-27T10:22:39.907Z,french_221.wav,0,poule,623,37,5,5,francais,m,0,0.0,-51.4093514,1.39236456
58bfee7de5869400018f5e9e,50,1,2024-02-27T10:22:39.907Z,french_221.wav,0,poule,623,37,5,5,francais,m,1,0.1,-69.26159538,1.1318895
58bfee7de5869400018f5e9e,50,1,2024-02-27T10:22:39.907Z,french_221.wav,0,poule,623,37,5,5,francais,m,2,0.2,-72.79183118,0.94601275
58bfee7de5869400018f5e9e,50,1,2024-02-27T10:22:39.907Z,french_221.wav,0,poule,623,37,5,5,francais,m,3,0.25666667,34.31828887,1.80964418
58bfee7de5869400018f5e9e,51,1,2024-02-27T10:22:39.907Z,french_693.wav,0,pull,787,37,5,5,francais,m,0,0.0,-47.08934597,0.01342517
58bfee7de5869400018f5e9e,51,1,2024-02-27T10:22:39.907Z,french_693.wav,0,pull,787,37,5,5,francais,m,1,0.1,72.6108529,0.89682207
58bfee7de5869400018f5e9e,51,1,2024-02-27T10:22:39.907Z,french_693.wav,0,pull,787,37,5,5,francais,m,2,0.2,-29.7137536,1.48476447
58bfee7de5869400018f5e9e,51,1,2024-02-27T10:22:39.907Z,french_693.wav,0,pull,787,37,5,5,francais,m,3,0.25666667,50.01737174,0.05087926
58bfee7de5869400018f5e9e,52,1,2024-02-27T10:22:39.907Z,french_964.wav,0,pull,794,37,5,5,francais,m,0,0.0,-56.07629317,1.19943116
58bfee7de5869400018f5e9e,52,1,2024-02-27T10:22:39.907Z,french_964.wav,0,pull,794,37,5,5,francais,m,1,0.1,-19.45500988,0.89458005
58bfee7de5869400018f5e9e,52,1,2024-02-27T10:22:39.907Z,french_964.wav,0,pull,794,37,5,5,francais,m,2,0.2,97.83653085,1.94180509
58bfee7de5869400018f5e9e,52,1,2024-02-27T10:22:39.907Z,french_964.wav,0,pull,794,37,5,5,francais,m,3,0.25666667,70.5600413,0.3273771
58bfee7de5869400018f5e9e,53,1,2024-02-27T10:22:39.907Z,french_625.wav,0,pull,869,37,5,5,francais,m,0,0.0,79.19979266,0.47634137
58bfee7de5869400018f5e9e,53,1,2024-02-27T10:22:39.907Z,french_625.wav,0,pull,869,37,5,5,francais,m,1,0.1,14.54258285,0.73497705
58bfee7de5869400018f5e9e,53,1,2024-02-27T10:22:39.907Z,french_625.wav,0,pull,869,37,5,5,francais,m,2,0.2,86.07148008,0.05854955
58bfee7de5869400018f5e9e,53,1,2024-02-27T10:22:39.907Z,french_625.wav,0,pull,869,37,5,5,francais,m,3,0.25666667,45.85831434,0.79046633
58bfee7de5869400018f5e9e,54,1,2024-02-27T10:22:39.907Z,french_223.wav,0,poule,706,37,5,5,francais,m,0,0.0,4.95143367,1.93703508
58bfee7de5869400018f5e9e,54,1,2024-02-27T10:22:39.907Z,french_223.wav,0,poule,706,37,5,5,francais,m,1,0.1,55.42619629,0.30698411
58bfee7de5869400018f5e9e,54,1,2024-02-27T10:22:39.907Z,french_223.wav,0,poule,706,37,5,5,francais,m,2,0.2,77.82995017,0.10644958
58bfee7de5869400018f5e9e,54,1,2024-02-27T10:22:39.907Z,french_223.wav,0,poule,706,37,5,5,francais,m,3,0.25666667,-85.84724551,0.25911965
58bfee7de5869400018f5e9e,55,1,2024-02-27T10:22:39.907Z,french_212.wav,0,pull,2439,37,5,5,francais,m,0,0.0,-65.85125812,0.99084671
58bfee7de5869400018f5e9e,55,1,2024-02-27T10:22:39.907Z,french_212.wav,0,pull,2439,37,5,5,francais,m,1,0.1,4.72891676,1.71951251
58bfee7de5869400018f5e9e,55,1,2024-02-27T10:22:39.907Z,french_212.wav,0,pull,2439,37,5,5,francais,m,2,0.2,52.80654505,1.56745001
58bfee7de5869400018f5e9e,55,1,2024-02-27T10:22:39.907Z,french_212.wav,0,pull,2439,37,5,5,francais,m,3,0.25666667,75.91927134,1.70119676
58bfee7de5869400018f5e9e,56,1,2024-02-27T10:22:39.907Z,french_728.wav,0,poule,710,37,5,5,francais,m,0,0.0,-93.70742078,1.13399743
58bfee7de5869400018f5e9e,56,1,2024-02-27T10:22:39.907Z,french_728.wav,0,poule,710,37,5,5,francais,m,1,0.1,-62.00989335,0.93012586
58bfee7de5869400018f5e9e,56,1,2024-02-27T10:22:39.907Z,french_728.wav,0,poule,710,37,5,5,francais,m,2,0.2,72.64416852,0.78518922
58bfee7de5869400018f5e9e,56,1,2024-02-27T10:22:39.907Z,french_728.wav,0,poule,710,37,5,5,francais,m,3,0.25666667,6.15605077,0.75575783
58bfee7de5869400018f5e9e,57,1,2024-02-27T10:22:39.907Z,french_568.wav,0,poule,569,37,5,5,francais,m,0,0.0,-18.10302265,1.34189827
58bfee7de5869400018f5e9e,57,1,2024-02-27T10:22:39.907Z,french_568.wav,0,poule,569,37,5,5,francais,m,1,0.1,9.93139794,1.47029794
58bfee7de5869400018f5e9e,57,1,2024-02-27T10:22:39.907Z,french_568.wav,0,poule,569,37,5,5,francais,m,2,0.2,91.46195775,0.17269775
58bfee7de5869400018f5e9e,57,1,2024-02-27T10:22:39.907Z,french_568.wav,0,poule,569,37,5,5,francais,m,3,0.25666667,56.10040773,1.22679594
58bfee7de5869400018f5e9e,58,1,2024-02-27T10:22:39.907Z,french_468.wav,0,pull,1232,37,5,5,francais,m,0,0.0,62.98081683,0.39126421
58bfee7de5869400018f5e9e,58,1,2024-02-27T10:22:39.907Z,french_468.wav,0,pull,1232,37,5,5,francais,m,1,0.1,-56.79667237,1.86845908
58bfee7de5869400018f5e9e,58,1,2024-02-27T10:22:39.907Z,french_468.wav,0,pull,1232,37,5,5,francais,m,2,0.2,16.07172023,0.61680923
58bfee7de5869400018f5e9e,58,1,2024-02-27T10:22:39.907Z,french_468.wav,0,pull,1232,37,5,5,francais,m,3,0.25666667,67.64788087,0.75086704
58bfee7de5869400018f5e9e,59,1,2024-02-27T10:22:39.907Z,french_757.wav,0,pull,3104,37,5,5,francais,m,0,0.0,-5.26413125,0.41150667
58bfee7de5869400018f5e9e,59,1,2024-02-27T10:22:39.907Z,french_757.wav,0,pull,3104,37,5,5,francais,m,1,0.1,38.836188,1.11153135
58bfee7de5869400018f5e9e,59,1,2024-02-27T10:22:39.907Z,french_757.wav,0,pull,3104,37,5,5,francais,m,2,0.2,-78.24448509,1.45974829
58bfee7de5869400018f5e9e,59,1,2024-02-27T10:22:39.907Z,french_757.wav,0,pull,3104,37,5,5,francais,m,3,0.25666667,87.29383111,0.22730951
58bfee7de5869400018f5e9e,60,1,2024-02-27T10:22:39.907Z,french_385.wav,0,poule,1411,37,5,5,francais,m,0,0.0,-5.35501711,1.94967077
58bfee7de5869400018f5e9e,60,1,2024-02-27T10:22:39.907Z,french_385.wav,0,poule,1411,37,5,5,francais,m,1,0.1,28.75563306,0.4629862
58bfee7de5869400018f5e9e,60,1,2024-02-27T10:22:39.907Z,french_385.wav,0,poule,1411,37,5,5,francais,m,2,0.2,60.61846434,0.74478567
58bfee7de5869400018f5e9e,60,1,2024-02-27T10:22:39.907Z,french_385.wav,0,poule,1411,37,5,5,francais,m,3,0.25666667,-78.89426498,0.69826307
58bfee7de5869400018f5e9e,61,1,2024-02-27T10:22:39.907Z,french_821.wav,0,poule,619,37,5,5,francais,m,0,0.0,70.15336782,1.4099425
58bfee7de5869400018f5e9e,61,1,2024-02-27T10:22:39.907Z,french_821.wav,0,poule,619,37,5,5,francais,m,1,0.1,-1.11865535,1.36643738
58bfee7de5869400018f5e9e,61,1,2024-02-27T10:22:39.907Z,french_821.wav,0,poule,619,37,5,5,francais,m,2,0.2,-91.54006312,0.06599991
58bfee7de5869400018f5e9e,61,1,2024-02-27T10:22:39.907Z,french_821.wav,0,poule,619,37,5,5,francais,m,3,0.25666667,24.13643902,1.20854405
58bfee7de5869400018f5e9e,62,1,2024-02-27T10:22:39.907Z,french_979.wav,0,pull,834,37,5,5,francais,m,0,0.0,58.05333973,1.60321768
58bfee7de5869400018f5e9e,62,1,2024-02-27T10:22:39.907Z,french_979.wav,0,pull,834,37,5,5,francais,m,1,0.1,-10.78982684,0.5155038
58bfee7de5869400018f5e9e,62,1,2024-02-27T10:22:39.907Z,french_979.wav,0,pull,834,37,5,5,francais,m,2,0.2,-1.76147191,0.80270828
58bfee7de5869400018f5e9e,62,1,2024-02-27T10:22:39.907Z,french_979.wav,0,pull,834,37,5,5,francais,m,3,0.25666667,35.54131035,0.30870089
58bfee7de5869400018f5e9e,63,1,2024-02-27T10:22:39.907Z,french_880.wav,0,poule,2016,37,5,5,francais,m,0,0.0,34.54343789,1.97652899
58bfee7de5869400018f5e9e,63,1,2024-02-27T10:22:39.907Z,french_880.wav,0,poule,2016,37,5,5,francais,m,1,0.1,76.62551814,0.35866047
58bfee7de5869400018f5e9e,63,1,2024-02-27T10:22:39.907Z,french_880.wav,0,poule,2016,37,5,5,francais,m,2,0.2,69.99614697,1.49815227
58bfee7de5869400018f5e9e,63,1,2024-02-27T10:22:39.907Z,french_880.wav,0,poule,2016,37,5,5,francais,m,3,0.25666667,-97.30266151,1.92878763
58bfee7de5869400018f5e9e,64,1,2024-02-27T10:22:39.907Z,french_349.wav,0,pull,889,37,5,5,francais,m,0,0.0,73.89254537,0.17403551
58bfee7de5869400018f5e9e,64,1,2024-02-27T10:22:39.907Z,french_349.wav,0,pull,889,37,5,5,francais,m,1,0.1,-84.33493486,1.66487719
58bfee7de5869400018f5e9e,64,1,2024-02-27T10:22:39.907Z,french_349.wav,0,pull,889,37,5,5,francais,m,2,0.2,-3.2709249,1.53740634
58bfee7de5869400018f5e9e,64,1,2024-02-27T10:22:39.907Z,french_349.wav,0,pull,889,37,5,5,francais,m,3,0.25666667,-21.54511299,1.56834066
58bfee7de5869400018f5e9e,65,1,2024-02-27T10:22:39.907Z,french_852.wav,0,poule,571,37,5,5,francais,m,0,0.0,-21.25647341,1.59129412
58bfee7de5869400018f5e9e,65,1,2024-02-27T10:22:39.907Z,french_852.wav,0,poule,571,37,5,5,francais,m,1,0.1,44.09899268,0.90931534
58bfee7de5869400018f5e9e,65,1,2024-02-27T10:22:39.907Z,french_852.wav,0,poule,571,37,5,5,francais,m,2,0.2,-20.54343266,0.17046498
58bfee7de5869400018f5e9e,65,1,2024-02-27T10:22:39.907Z,french_852.wav,0,poule,571,37,5,5,francais,m,3,0.25666667,-73.6389021,0.95788578
58bfee7de5869400018f5e9e,66,1,2024-02-27T10:22:39.907Z,french_244.wav,0,poule,1685,37,5,5,francais,m,0,0.0,-1.19097064,0.99374935
58bfee7de5869400018f5e9e,66,1,2024-02-27T10:22:39.907Z,french_244.wav,0,poule,1685,37,5,5,francais,m,1,0.1,-92.85229973,0.05831089
58bfee7de5869400018f5e9e,66,1,2024-02-27T10:22:39.907Z,french_244.wav,0,poule,1685,37,5,5,francais,m,2,0.2,-96.93666457,1.01399938
58bfee7de5869400018f5e9e,66,1,2024-02-27T10:22:39.907Z,french_244.wav,0,poule,1685,37,5,5,francais,m,3,0.25666667,-48.92774089,0.05507298
58bfee7de5869400018f5e9e,67,1,2024-02-27T10:22:39.907Z,french_817.wav,0,pull,852,37,5,5,francais,m,0,0.0,78.06162864,0.52442488
58bfee7de5869400018f5e9e,67,1,2024-02-27T10:22:39.907Z,french_817.wav,0,pull,852,37,5,5,francais,m,1,0.1,7.60258692,1.548285
58bfee7de5869400018f5e9e,67,1,2024-02-27T10:22:39.907Z,french_817.wav,0,pull,852,37,5,5,francais,m,2,0.2,-72.81657303,0.10823364
58bfee7de5869400018f5e9e,67,1,2024-02-27T10:22:39.907Z,french_817.wav,0,pull,852,37,5,5,francais,m,3,0.25666667,58.9269084,1.31415279
58bfee7de5869400018f5e9e,68,1,2024-02-27T10:22:39.907Z,french_606.wav,0,poule,752,37,5,5,francais,m,0,0.0,-20.93687271,1.9895698
58bfee7de5869400018f5e9e,68,1,2024-02-27T10:22:39.907Z,french_606.wav,0,poule,752,37,5,5,francais,m,1,0.1,59.55385743,1.17728958
58bfee7de5869400018f5e9e,68,1,2024-02-27T10:22:39.907Z,french_606.wav,0,poule,752,37,5,5,francais,m,2,0.2,61.58713619,1.48827242
58bfee7de5869400018f5e9e,68,1,2024-02-27T10:22:39.907Z,french_606.wav,0,poule,752,37,5,5,francais,m,3,0.25666667,-92.8987734,0.79910733
58bfee7de5869400018f5e9e,69,1,2024-02-27T10:22:39.907Z,french_835.wav,0,pull,930,37,5,5,francais,m,0,0.0,-1.43190356,0.4805844
58bfee7de5869400018f5e9e,69,1,2024-02-27T10:22:39.907Z,french_835.wav,0,pull,930,37,5,5,francais,m,1,0.1,-99.33286499,1.12822193
58bfee7de5869400018f5e9e,69,1,2024-02-27T10:22:39.907Z,french_835.wav,0,pull,930,37,5,5,francais,m,2,0.2,34.34373885,1.41477947
58bfee7de5869400018f5e9e,69,1,2024-02-27T10:22:39.907Z,french_835.wav,0,pull,930,37,5,5,francais,m,3,0.25666667,39.86329231,0.63497531
58bfee7de5869400018f5e9e,70,1,2024-02-27T10:22:39.907Z,french_732.wav,0,poule,1003,37,5,5,francais,m,0,0.0,-82.9393053,0.90840431
58bfee7de5869400018f5e9e,70,1,2024-02-27T10:22:39.907Z,french_732.wav,0,poule,1003,37,5,5,francais,m,1,0.1,-79.22735873,0.47468339
58bfee7de5869400018f5e9e,70,1,2024-02-27T10:22:39.907Z,french_732.wav,0,poule,1003,37,5,5,francais,m,2,0.2,-67.09796721,1.61768905
58bfee7de5869400018f5e9e,70,1,2024-02-27T10:22:39.907Z,french_732.wav,0,poule,1003,37,5,5,francais,m,3,0.25666667,35.15971491,1.44596926
58bfee7de5869400018f5e9e,71,1,2024-02-27T10:22:39.907Z,french_553.wav,0,pull,904,37,5,5,francais,m,0,0.0,-1.38146628,0.44011383
58bfee7de5869400018f5e9e,71,1,2024-02-27T10:22:39.907Z,french_553.wav,0,pull,904,37,5,5,francais,m,1,0.1,-34.28745567,1.14829302
58bfee7de5869400018f5e9e,71,1,2024-02-27T10:22:39.907Z,french_553.wav,0,pull,904,37,5,5,francais,m,2,0.2,6.87532462,1.07508961
58bfee7de5869400018f5e9e,71,1,2024-02-27T10:22:39.907Z,french_553.wav,0,pull,904,37,5,5,francais,m,3,0.25666667,90.98690029,0.10252166
58bfee7de5869400018f5e9e,72,1,2024-02-27T10:22:39.907Z,french_412.wav,0,poule,902,37,5,5,francais,m,0,0.0,-59.33534007,1.02487397
58bfee7de5869400018f5e9e,72,1,2024-02-27T10:22:39.907Z,french_412.wav,0,poule,902,37,5,5,francais,m,1,0.1,-79.1774496,0.54283138
58bfee7de5869400018f5e9e,72,1,2024-02-27T10:22:39.907Z,french_412.wav,0,poule,902,37,5,5,francais,m,2,0.2,-38.59435565,0.86213444
58bfee7de5869400018f5e9e,72,1,2024-02-27T10:22:39.907Z,french_412.wav,0,poule,902,37,5,5,francais,m,3,0.25666667,65.74010912,0.54314794
58bfee7de5869400018f5e9e,73,1,2024-02-27T10:22:39.907Z,french_783.wav,0,poule,1375,37,5,5,francais,m,0,0.0,-1.39366148,1.02261841
58bfee7de5869400018f5e9e,73,1,2024-02-27T10:22:39.907Z,french_783.wav,0,poule,1375,37,5,5,francais,m,1,0.1,-51.98505422,1.36670641
58bfee7de5869400018f5e9e,73,1,2024-02-27T10:22:39.907Z,french_783.wav,0,poule,1375,37,5,5,francais,m,2,0.2,-59.48644931,1.36831513
58bfee7de5869400018f5e9e,73,1,2024-02-27T10:22:39.907Z,french_783.wav,0,poule,1375,37,5,5,francais,m,3,0.25666667,-72.0894269,1.17814646
58bfee7de5869400018f5e9e,74,1,2024-02-27T10:22:39.907Z,french_410.wav,0,poule,645,37,5,5,francais,m,0,0.0,-57.70995681,0.42078672
58bfee7de5869400018f5e9e,74,1,2024-02-27T10:22:39.907Z,french_410.wav,0,poule,645,37,5,5,francais,m,1,0.1,48.77026686,1.91428116
58bfee7de5869400018f5e9e,74,1,2024-02-27T10:22:39.907Z,french_410.wav,0,poule,645,37,5,5,francais,m,2,0.2,-48.38648813,0.69257086
58bfee7de5869400018f5e9e,74,1,2024-02-27T10:22:39.907Z,french_410.wav,0,poule,645,37,5,5,francais,m,3,0.25666667,53.40375253,1.23009328
58bfee7de5869400018f5e9e,75,1,2024-02-27T10:22:39.907Z,french_850.wav,0,poule,547,37,5,5,francais,m,0,0.0,-88.87179188,0.91597825
58bfee7de5869400018f5e9e,75,1,2024-02-27T10:22:39.907Z,french_850.wav,0,poule,547,37,5,5,francais,m,1,0.1,15.70736636,0.21425776
58bfee7de5869400018f5e9e,75,1,2024-02-27T10:22:39.907Z,french_850.wav,0,poule,547,37,5,5,francais,m,2,0.2,67.7730952,1.52338939
58bfee7de5869400018f5e9e,75,1,2024-02-27T10:22:39.907Z,french_850.wav,0,poule,547,37,5,5,francais,m,3,0.25666667,-20.3872908,0.55241946
58bfee7de5869400018f5e9e,76,1,2024-02-27T10:22:39.907Z,french_781.wav,0,pull,646,37,5,5,francais,m,0,0.0,33.25938538,1.27105286
58bfee7de5869400018f5e9e,76,1,2024-02-27T10:22:39.907Z,french_781.wav,0,pull,646,37,5,5,francais,m,1,0.1,-13.90292419,0.93357863
58bfee7de5869400018f5e9e,76,1,2024-02-27T10:22:39.907Z,french_781.wav,0,pull,646,37,5,5,francais,m,2,0.2,-71.59350782,1.0124146
58bfee7de5869400018f5e9e,76,1,2024-02-27T10:22:39.907Z,french_781.wav,0,pull,646,37,5,5,francais,m,3,0.25666667,57.07291034,0.68511696
58bfee7de5869400018f5e9e,77,1,2024-02-27T10:22:39.907Z,french_805.wav,0,poule,1494,37,5,5,francais,m,0,0.0,21.15897581,1.3244225
58bfee7de5869400018f5e9e,77,1,2024-02-27T10:22:39.907Z,french_805.wav,0,poule,1494,37,5,5,francais,m,1,0.1,-84.51795283,0.68750265
58bfee7de5869400018f5e9e,77,1,2024-02-27T10:22:39.907Z,french_805.wav,0,poule,1494,37,5,5,francais,m,2,0.2,72.20878309,0.56084624
58bfee7de5869400018f5e9e,77,1,2024-02-27T10:22:39.907Z,french_805.wav,0,poule,1494,37,5,5,francais,m,3,0.25666667,-28.14016055,0.45412894
58bfee7de5869400018f5e9e,78,1,2024-02-27T10:22:39.907Z,french_577.wav,0,pull,540,37,5,5,francais,m,0,0.0,-34.34323574,0.85646341
58bfee7de5869400018f5e9e,78,1,2024-02-27T10:22:39.907Z,french_577.wav,0,pull,540,37,5,5,francais,m,1,0.1,42.3591335,0.14355807
58bfee7de5869400018f5e9e,78,1,2024-02-27T10:22:39.907Z,french_577.wav,0,pull,540,37,5,5,francais,m,2,0.2,-17.66243752,0.33082023
58bfee7de5869400018f5e9e,78,1,2024-02-27T10:22:39.907Z,french_577.wav,0,pull,540,37,5,5,francais,m,3,0.25666667,-25.14969583,0.85136365
58bfee7de5869400018f5e9e,79,1,2024-02-27T10:22:39.907Z,french_120.wav,0,pull,2266,37,5,5,francais,m,0,0.0,59.29212404,1.04724114
58bfee7de5869400018f5e9e,79,1,2024-02-27T10:22:39.907Z,french_120.wav,0,pull,2266,37,5,5,francais,m,1,0.1,4.80411823,0.97380182
58bfee7de5869400018f5e9e,79,1,2024-02-27T10:22:39.907Z,french_120.wav,0,pull,2266,37,5,5,francais,m,2,0.2,12.26509955,0.22521264
58bfee7de5869400018f5e9e,79,1,2024-02-27T10:22:39.907Z,french_120.wav,0,pull,2266,37,5,5,francais,m,3,0.25666667,-79.44354783,0.8027629
58bfee7de5869400018f5e9e,80,1,2024-02-27T10:22:39.907Z,french_996.wav,0,pull,575,37,5,5,francais,m,0,0.0,-93.3315932,0.70155752
58bfee7de5869400018f5e9e,80,1,2024-02-27T10:22:39.907Z,french_996.wav,0,pull,575,37,5,5,francais,m,1,0.1,-68.78176083,0.82176857
58bfee7de5869400018f5e9e,80,1,2024-02-27T10:22:39.907Z,french_996.wav,0,pull,575,37,5,5,francais,m,2,0.2,3.00266898,1.58504857
58bfee7de5869400018f5e9e,80,1,2024-02-27T10:22:39.907Z,french_996.wav,0,pull,575,37,5,5,francais,m,3,0.25666667,26.12825604,1.65873812
58bfee7de5869400018f5e9e,81,1,2024-02-27T10:22:39.907Z,french_356.wav,0,poule,1333,37,5,5,francais,m,0,0.0,-28.24477507,0.35227097
58bfee7de5869400018f5e9e,81,1,2024-02-27T10:22:39.907Z,french_356.wav,0,poule,1333,37,5,5,francais,m,1,0.1,-36.63699676,1.16218152
58bfee7de5869400018f5e9e,81,1,2024-02-27T10:22:39.907Z,french_356.wav,0,poule,1333,37,5,5,francais,m,2,0.2,67.9524461,1.82395355
58bfee7de5869400018f5e9e,81,1,2024-02-27T10:22:39.907Z,french_356.wav,0,poule,1333,37,5,5,francais,m,3,0.25666667,8.53170414,1.63669257
58bfee7de5869400018f5e9e,82,1,2024-02-27T10:22:39.907Z,french_953.wav,0,pull,824,37,5,5,francais,m,0,0.0,-27.22394829,1.27693125
58bfee7de5869400018f5e9e,82,1,2024-02-27T10:22:39.907Z,french_953.wav,0,pull,824,37,5,5,francais,m,1,0.1,-3.36109764,0.12331262
58bfee7de5869400018f5e9e,82,1,2024-02-27T10:22:39.907Z,french_953.wav,0,pull,824,37,5,5,francais,m,2,0.2,79.96390299,1.48485403
58bfee7de5869400018f5e9e,82,1,2024-02-27T10:22:39.907Z,french_953.wav,0,pull,824,37,5,5,francais,m,3,0.25666667,-20.83871742,0.51230705
58bfee7de5869400018f5e9e,83,1,2024-02-27T10:22:39.907Z,french_38.wav,0,poule,1260,37,5,5,francais,m,0,0.0,-0.72741882,1.73508679
58bfee7de5869400018f5e9e,83,1,2024-02-27T10:22:39.907Z,french_38.wav,0,poule,1260,37,5,5,francais,m,1,0.1,17.06804162,1.04827054
58bfee7de5869400018f5e9e,83,1,2024-02-27T10:22:39.907Z,french_38.wav,0,poule,1260,37,5,5,francais,m,2,0.2,-90.47269694,0.06966066
58bfee7de5869400018f5e9e,83,1,2024-02-27T10:22:39.907Z,french_38.wav,0,poule,1260,37,5,5,francais,m,3,0.25666667,-46.03968341,1.13213122
58bfee7de5869400018f5e9e,84,1,2024-02-27T10:22:39.907Z,french_987.wav,0,pull,878,37,5,5,francais,m,0,0.0,29.59235099,0.62183529
58bfee7de5869400018f5e9e,84,1,2024-02-27T10:22:39.907Z,french_987.wav,0,pull,878,37,5,5,francais,m,1,0.1,34.94187385,0.21370909
58bfee7de5869400018f5e9e,84,1,2024-02-27T10:22:39.907Z,french_987.wav,0,pull,878,37,5,5,francais,m,2,0.2,50.69614072,0.33639435
58bfee7de5869400018f5e9e,84,1,2024-02-27T10:22:39.907Z,french_987.wav,0,pull,878,37,5,5,francais,m,3,0.25666667,30.08512425,1.23768731
58bfee7de5869400018f5e9e,85,1,2024-02-27T10:22:39.907Z,french_894.wav,0,pull,774,37,5,5,francais,m,0,0.0,34.15690998,0.96571794
58bfee7de5869400018f5e9e,85,1,2024-02-27T10:22:39.907Z,french_894.wav,0,pull,774,37,5,5,francais,m,1,0.1,66.60232679,0.73360337
58bfee7de5869400018f5e9e,85,1,2024-02-27T10:22:39.907Z,french_894.wav,0,pull,774,37,5,5,francais,m,2,0.2,79.95982278,1.43440198
58bfee7de5869400018f5e9e,85,1,2024-02-27T10:22:39.907Z,french_894.wav,0,pull,774,37,5,5,francais,m,3,0.25666667,-20.39269858,0.64269279
58bfee7de5869400018f5e9e,86,1,2024-02-27T10:22:39.907Z,french_459.wav,0,poule,832,37,5,5,francais,m,0,0.0,4.79398058,1.10654006
58bfee7de5869400018f5e9e,86,1,2024-02-27T10:22:39.907Z,french_459.wav,0,poule,832,37,5,5,francais,m,1,0.1,85.90612859,1.2996969
58bfee7de5869400018f5e9e,86,1,2024-02-27T10:22:39.907Z,french_459.wav,0,poule,832,37,5,5,francais,m,2,0.2,-69.41023595,0.20520219
58bfee7de5869400018f5e9e,86,1,2024-02-27T10:22:39.907Z,french_459.wav,0,poule,832,37,5,5,francais,m,3,0.25666667,-22.07588814,1.17361701
58bfee7de5869400018f5e9e,87,1,2024-02-27T10:22:39.907Z,french_270.wav,0,poule,825,37,5,5,francais,m,0,0.0,-78.86827529,1.67831185
58bfee7de5869400018f5e9e,87,1,2024-02-27T10:22:39.907Z,french_270.wav,0,poule,825,37,5,5,francais,m,1,0.1,-82.37829284,0.76287252
58bfee7de5869400018f5e9e,87,1,2024-02-27T10:22:39.907Z,french_270.wav,0,poule,825,37,5,5,francais,m,2,0.2,-56.83639547,1.7160191
58bfee7de5869400018f5e9e,87,1,2024-02-27T10:22:39.907Z,french_270.wav,0,poule,825,37,5,5,francais,m,3,0.25666667,11.60888519,0.82403755
58bfee7de5869400018f5e9e,88,1,2024-02-27T10:22:39.907Z,french_970.wav,0,pull,848,37,5,5,francais,m,0,0.0,45.66425393,0.15526341
58bfee7de5869400018f5e9e,88,1,2024-02-27T10:22:39.907Z,french_970.wav,0,pull,848,37,5,5,francais,m,1,0.1,-82.79761983,0.70533305
58bfee7de5869400018f5e9e,88,1,2024-02-27T10:22:39.907Z,french_970.wav,0,pull,848,37,5,5,francais,m,2,0.2,16.19264407,1.08595816
58bfee7de5869400018f5e9e,88,1,2024-02-27T10:22:39.907Z,french_970.wav,0,pull,848,37,5,5,francais,m,3,0.25666667,56.04070076,0.89955958
58bfee7de5869400018f5e9e,89,1,2024-02-27T10:22:39.907Z,french_175.wav,0,poule,531,37,5,5,francais,m,0,0.0,-66.64800697,0.89831181
58bfee7de5869400018f5e9e,89,1,2024-02-27T10:22:39.907Z,french_175.wav,0,poule,531,37,5,5,francais,m,1,0.1,55.8136762,1.16054297
58bfee7de5869400018f5e9e,89,1,2024-02-27T10:22:39.907Z,french_175.wav,0,poule,531,37,5,5,francais,m,2,0.2,13.86880033,0.04267506
58bfee7de5869400018f5e9e,89,1,2024-02-27T10:22:39.907Z,french_175.wav,0,poule,531,37,5,5,francais,m,3,0.25666667,79.77573594,1.48091244
58bfee7de5869400018f5e9e,90,1,2024-02-27T10:22:39.907Z,french_134.wav,0,pull,651,37,5,5,francais,m,0,0.0,-65.58132827,0.68669704
58bfee7de5869400018f5e9e,90,1,2024-02-27T10:22:39.907Z,french_134.wav,0,pull,651,37,5,5,francais,m,1,0.1,-89.82992505,1.50131287
58bfee7de5869400018f5e9e,90,1,2024-02-27T10:22:39.907Z,french_134.wav,0,pull,651,37,5,5,francais,m,2,0.2,9.99695038,0.69598371
58bfee7de5869400018f5e9e,90,1,2024-02-27T10:22:39.907Z,french_134.wav,0,pull,651,37,5,5,francais,m,3,0.25666667,24.50908123,1.57047358
58bfee7de5869400018f5e9e,91,1,2024-02-27T10:22:39.907Z,french_637.wav,0,pull,775,37,5,5,francais,m,0,0.0,35.81604326,0.01301393
58bfee7de5869400018f5e9e,91,1,2024-02-27T10:22:39.907Z,french_637.wav,0,pull,775,37,5,5,francais,m,1,0.1,-3.18432816,0.82513299
58bfee7de5869400018f5e9e,91,1,2024-02-27T10:22:39.907Z,french_637.wav,0,pull,775,37,5,5,francais,m,2,0.2,50.06715701,0.10233849
58bfee7de5869400018f5e9e,91,1,2024-02-27T10:22:39.907Z,french_637.wav,0,pull,775,37,5,5,francais,m,3,0.25666667,13.82838787,0.87921638
58bfee7de5869400018f5e9e,92,1,2024-02-27T10:22:39.907Z,french_518.wav,0,pull,722,37,5,5,francais,m,0,0.0,30.08897808,1.28002377
58bfee7de5869400018f5e9e,92,1,2024-02-27T10:22:39.907Z,french_518.wav,0,pull,722,37,5,5,francais,m,1,0.1,-42.00678694,0.31881796
58bfee7de5869400018f5e9e,92,1,2024-02-27T10:22:39.907Z,french_518.wav,0,pull,722,37,5,5,francais,m,2,0.2,47.99304417,0.271149
58bfee7de5869400018f5e9e,92,1,2024-02-27T10:22:39.907Z,french_518.wav,0,pull,722,37,5,5,francais,m,3,0.25666667,-21.59585354,1.06182133
58bfee7de5869400018f5e9e,93,1,2024-02-27T10:22:39.907Z,french_86.wav,0,poule,913,37,5,5,francais,m,0,0.0,-13.34839912,1.5394535
58bfee7de5869400018f5e9e,93,1,2024-02-27T10:22:39.907Z,french_86.wav,0,poule,913,37,5,5,francais,m,1,0.1,-0.15074382,0.88064418
58bfee7de5869400018f5e9e,93,1,2024-02-27T10:22:39.907Z,french_86.wav,0,poule,913,37,5,5,francais,m,2,0.2,25.45831569,1.66652907
58bfee7de5869400018f5e9e,93,1,2024-02-27T10:22:39.907Z,french_86.wav,0,poule,913,37,5,5,francais,m,3,0.25666667,48.27326553,0.20293469
58bfee7de5869400018f5e9e,94,1,2024-02-27T10:22:39.907Z,french_633.wav,0,poule,404,37,5,5,francais,m,0,0.0,86.81441283,1.16860967
58bfee7de5869400018f5e9e,94,1,2024-02-27T10:22:39.907Z,french_633.wav,0,poule,404,37,5,5,francais,m,1,0.1,-4.21988764,0.88033016
58bfee7de5869400018f5e9e,94,1,2024-02-27T10:22:39.907Z,french_633.wav,0,poule,404,37,5,5,francais,m,2,0.2,27.13702415,0.79008737
58bfee7de5869400018f5e9e,94,1,2024-02-27T10:22:39.907Z,french_633.wav,0,poule,404,37,5,5,francais,m,3,0.25666667,25.74151368,1.16621919
58bfee7de5869400018f5e9e,95,1,2024-02-27T10:22:39.907Z,french_542.wav,0,poule,1271,37,5,5,francais,m,0,0.0,88.21755363,1.84211071
58bfee7de5869400018f5e9e,95,1,2024-02-27T10:22:39.907Z,french_542.wav,0,poule,1271,37,5,5,francais,m,1,0.1,59.97016865,1.57396898
58bfee7de5869400018f5e9e,95,1,2024-02-27T10:22:39.907Z,french_542.wav,0,poule,1271,37,5,5,francais,m,2,0.2,-54.94167031,1.14268549
58bfee7de5869400018f5e9e,95,1,2024-02-27T10:22:39.907Z,french_542.wav,0,poule,1271,37,5,5,francais,m,3,0.25666667,-74.88408835,1.52682198
58bfee7de5869400018f5e9e,96,1,2024-02-27T10:22:39.907Z,french_977.wav,0,poule,1003,37,5,5,francais,m,0,0.0,-23.34946859,1.58788712
58bfee7de5869400018f5e9e,96,1,2024-02-27T10:22:39.907Z,french_977.wav,0,poule,1003,37,5,5,francais,m,1,0.1,-74.17160997,0.25032328
58bfee7de5869400018f5e9e,96,1,2024-02-27T10:22:39.907Z,french_977.wav,0,poule,1003,37,5,5,francais,m,2,0.2,31.43852713,0.90752219
58bfee7de5869400018f5e9e,96,1,2024-02-27T10:22:39.907Z,french_977.wav,0,poule,1003,37,5,5,francais,m,3,0.25666667,-10.29160018,1.52460946
58bfee7de5869400018f5e9e,97,1,2024-02-27T10:22:39.907Z,french_274.wav,0,pull,904,37,5,5,francais,m,0,0.0,43.75822691,1.39255027
58bfee7de5869400018f5e9e,97,1,2024-02-27T10:22:39.907Z,french_274.wav,0,pull,904,37,5,5,francais,m,1,0.1,86.10199067,1.73272922
58bfee7de5869400018f5e9e,97,1,2024-02-27T10:22:39.907Z,french_274.wav,0,pull,904,37,5,5,francais,m,2,0.2,-33.25278445,0.27567755
58bfee7de5869400018f5e9e,97,1,2024-02-27T10:22:39.907Z,french_274.wav,0,pull,904,37,5,5,francais,m,3,0.25666667,-94.53609652,1.08955952
58bfee7de5869400018f5e9e,98,1,2024-02-27T10:22:39.907Z,french_280.wav,0,poule,835,37,5,5,francais,m,0,0.0,-67.41100242,0.87165921
58bfee7de5869400018f5e9e,98,1,2024-02-27T10:22:39.907Z,french_280.wav,0,poule,835,37,5,5,francais,m,1,0.1,-0.65291527,0.40210454
58bfee7de5869400018f5e9e,98,1,2024-02-27T10:22:39.907Z,french_280.wav,0,poule,835,37,5,5,francais,m,2,0.2,-45.07946214,0.8560963
58bfee7de5869400018f5e9e,98,1,2024-02-27T10:22:39.907Z,french_280.wav,0,poule,835,37,5,5,francais,m,3,0.25666667,-37.24252155,1.09108247
58bfee7de5869400018f5e9e,99,1,2024-02-27T10:22:39.907Z,french_98.wav,0,poule,817,37,5,5,francais,m,0,0.0,-5.34356544,0.47275823
58bfee7de5869400018f5e9e,99,1,2024-02-27T10:22:39.907Z,french_98.wav,0,poule,817,37,5,5,francais,m,1,0.1,-51.77157259,0.98771666
58bfee7de5869400018f5e9e,99,1,2024-02-27T10:22:39.907Z,french_98.wav,0,poule,817,37,5,5,francais,m,2,0.2,16.6615471,0.01400035
58bfee7de5869400018f5e9e,99,1,2024-02-27T10:22:39.907Z,french_98.wav,0,poule,817,37,5,5,francais,m,3,0.25666667,-37.68560636,0.42827786
58bfee7de5869400018f5e9e,100,2,2024-02-27T10:22:39.907Z,french_700.wav,0,pull,1515,37,5,5,francais,m,0,0.0,27.78595998,1.84943535
58bfee7de5869400018f5e9e,100,2,2024-02-27T10:22:39.907Z,french_700.wav,0,pull,1515,37,5,5,francais,m,1,0.1,-29.96160528,0.52483958
58bfee7de5869400018f5e9e,100,2,2024-02-27T10:22:39.907Z,french_700.wav,0,pull,1515,37,5,5,francais,m,2,0.2,60.6733782,0.55672926
58bfee7de5869400018f5e9e,100,2,2024-02-27T10:22:39.907Z,french_700.wav,0,pull,1515,37,5,5,francais,m,3,0.25666667,39.12324738,0.96842636
58bfee7de5869400018f5e9e,101,2,2024-02-27T10:22:39.907Z,french_818.wav,0,poule,767,37,5,5,francais,m,0,0.0,-26.74770248,1.09674102
58bfee7de5869400018f5e9e,101,2,2024-02-27T10:22:39.907Z,french_818.wav,0,poule,767,37,5,5,francais,m,1,0.1,-33.54864391,0.98606035
58bfee7de5869400018f5e9e,101,2,2024-02-27T10:22:39.907Z,french_818.wav,0,poule,767,37,5,5,francais,m,2,0.2,-23.72939517,1.86933067
58bfee7de5869400018f5e9e,101,2,2024-02-27T10:22:39.907Z,french_818.wav,0,poule,767,37,5,5,francais,m,3,0.25666667,53.93300908,0.6204836
58bfee7de5869400018f5e9e,102,2,2024-02-27T10:22:39.907Z,french_960.wav,0,poule,701,37,5,5,francais,m,0,0.0,-21.44081237,0.51475761
58bfee7de5869400018f5e9e,102,2,2024-02-27T10:22:39.907Z,french_960.wav,0,poule,701,37,5,5,francais,m,1,0.1,-88.4923718,1.11613408
58bfee7de5869400018f5e9e,102,2,2024-02-27T10:22:39.907Z,french_960.wav,0,poule,701,37,5,5,francais,m,2,0.2,38.79957112,0.09358172
58bfee7de5869400018f5e9e,102,2,2024-02-27T10:22:39.907Z,french_960.wav,0,poule,701,37,5,5,francais,m,3,0.25666667,-94.67313386,1.96196729
58bfee7de5869400018f5e9e,103,2,2024-02-27T10:22:39.907Z,french_546.wav,0,poule,835,37,5,5,francais,m,0,0.0,36.39546499,1.70532748
58bfee7de5869400018f5e9e,103,2,2024-02-27T10:22:39.907Z,french_546.wav,0,poule,835,37,5,5,francais,m,1,0.1,-76.59722628,1.24815266
58bfee7de5869400018f5e9e,103,2,2024-02-27T10:22:39.907Z,french_546.wav,0,poule,835,37,5,5,francais,m,2,0.2,-20.75900546,1.81852615
58bfee7de5869400018f5e9e,103,2,2024-02-27T10:22:39.907Z,french_546.wav,0,poule,835,37,5,5,francais,m,3,0.25666667,8.86958668,0.22376713
58bfee7de5869400018f5e9e,104,2,2024-02-27T10:22:39.907Z,french_152.wav,0,poule,1005,37,5,5,francais,m,0,0.0,-3.84179402,0.21245747
58bfee7de5869400018f5e9e,104,2,2024-02-27T10:22:39.907Z,french_152.wav,0,poule,1005,37,5,5,francais,m,1,0.1,56.28738818,1.74384484
58bfee7de5869400018f5e9e,104,2,2024-02-27T10:22:39.907Z,french_152.wav,0,poule,1005,37,5,5,francais,m,2,0.2,-25.33799013,1.40208126
58bfee7de5869400018f5e9e,104,2,2024-02-27T10:22:39.907Z,french_152.wav,0,poule,1005,37,5,5,francais,m,3,0.25666667,-10.23447911,0.94312755
58bfee7de5869400018f5e9e,105,2,2024-02-27T10:22:39.907Z,french_619.wav,0,pull,641,37,5,5,francais,m,0,0.0,-58.15289928,0.63115023
58bfee7de5869400018f5e9e,105,2,2024-02-27T10:22:39.907Z,french_619.wav,0,pull,641,37,5,5,francais,m,1,0.1,30.86987971,0.12868397
58bfee7de5869400018f5e9e,105,2,2024-02-27T10:22:39.907Z,french_619.wav,0,pull,641,37,5,5,francais,m,2,0.2,96.84221096,0.73139592
58bfee7de5869400018f5e9e,105,2,2024-02-27T10:22:39.907Z,french_619.wav,0,pull,641,37,5,5,francais,m,3,0.25666667,69.41225319,1.17738103
58bfee7de5869400018f5e9e,106,2,2024-02-27T10:22:39.907Z,french_434.wav,0,pull,1407,37,5,5,francais,m,0,0.0,7.9294609,1.64452419
58bfee7de5869400018f5e9e,106,2,2024-02-27T10:22:39.907Z,french_434.wav,0,pull,1407,37,5,5,francais,m,1,0.1,36.47837772,0.73911435
58bfee7de5869400018f5e9e,106,2,2024-02-27T10:22:39.907Z,french_434.wav,0,pull,1407,37,5,5,francais,m,2,0.2,71.3301905,0.53221197
58bfee7de5869400018f5e9e,106,2,2024-02-27T10:22:39.907Z,french_434.wav,0,pull,1407,37,5,5,francais,m,3,0.25666667,-21.81717993,1.83629349
58bfee7de5869400018f5e9e,107,2,2024-02-27T10:22:39.907Z,french_952.wav,0,poule,1288,37,5,5,francais,m,0,0.0,89.6944408,1.65049473
58bfee7de5869400018f5e9e,107,2,2024-02-27T10:22:39.907Z,french_952.wav,0,poule,1288,37,5,5,francais,m,1,0.1,29.6191185,0.9962644
58bfee7de5869400018f5e9e,107,2,2024-02-27T10:22:39.907Z,french_952.wav,0,poule,1288,37,5,5,francais,m,2,0.2,82.60414553,0.25471402
58bfee7de5869400018f5e9e,107,2,2024-02-27T10:22:39.907Z,french_952.wav,0,poule,1288,37,5,5,francais,m,3,0.25666667,-20.57336344,0.85149117
58bfee7de5869400018f5e9e,108,2,2024-02-27T10:22:39.907Z,french_201.wav,0,poule,825,37,5,5,francais,m,0,0.0,8.42387769,1.26451206
58bfee7de5869400018f5e9e,108,2,2024-02-27T10:22:39.907Z,french_201.wav,0,poule,825,37,5,5,francais,m,1,0.1,8.12168757,1.63493769
58bfee7de5869400018f5e9e,108,2,2024-02-27T10:22:39.907Z,french_201.wav,0,poule,825,37,5,5,francais,m,2,0.2,-23.47755607,1.48075017
58bfee7de5869400018f5e9e,108,2,2024-02-27T10:22:39.907Z,french_201.wav,0,poule,825,37,5,5,francais,m,3,0.25666667,-30.65193461,1.0984385
58bfee7de5869400018f5e9e,109,2,2024-02-27T10:22:39.907Z,french_48.wav,0,pull,1725,37,5,5,francais,m,0,0.0,39.79198264,1.78905862
58bfee7de5869400018f5e9e,109,2,2024-02-27T10:22:39.907Z,french_48.wav,0,pull,1725,37,5,5,francais,m,1,0.1,66.47948286,1.41226809
58bfee7de5869400018f5e9e,109,2,2024-02-27T10:22:39.907Z,french_48.wav,0,pull,1725,37,5,5,francais,m,2,0.2,57.39946228,1.54721415
58bfee7de5869400018f5e9e,109,2,2024-02-27T10:22:39.907Z,french_48.wav,0,pull,1725,37,5,5,francais,m,3,0.25666667,-39.27972342,0.33574946
58bfee7de5869400018f5e9e,110,2,2024-02-27T10:22:39.907Z,french_708.wav,0,pull,2012,37,5,5,francais,m,0,0.0,77.88438146,0.30850898
58bfee7de5869400018f5e9e,110,2,2024-02-27T10:22:39.907Z,french_708.wav,0,pull,2012,37,5,5,francais,m,1,0.1,-89.66132416,1.49064351
58bfee7de5869400018f5e9e,110,2,2024-02-27T10:22:39.907Z,french_708.wav,0,pull,2012,37,5,5,francais,m,2,0.2,66.08375885,1.28629193
58bfee7de5869400018f5e9e,110,2,2024-02-27T10:22:39.907Z,french_708.wav,0,pull,2012,37,5,5,francais,m,3,0.25666667,-39.93161414,1.01533724
58bfee7de5869400018f5e9e,111,2,2024-02-27T10:22:39.907Z,french_267.wav,0,poule,1784,37,5,5,francais,m,0,0.0,-65.51042118,0.47900721
58bfee7de5869400018f5e9e,111,2,2024-02-27T10:22:39.907Z,french_267.wav,0,poule,1784,37,5,5,francais,m,1,0.1,15.6710232,1.08471332
58bfee7de5869400018f5e9e,111,2,2024-02-27T10:22:39.907Z,french_267.wav,0,poule,1784,37,5,5,francais,m,2,0.2,-16.59501764,0.49268798
58bfee7de5869400018f5e9e,111,2,2024-02-27T10:22:39.907Z,french_267.wav,0,poule,1784,37,5,5,francais,m,3,0.25666667,49.75287867,1.54023863
58bfee7de5869400018f5e9e,112,2,2024-02-27T10:22:39.907Z,french_551.wav,0,poule,1698,37,5,5,francais,m,0,0.0,-87.08357851,1.2328931
58bfee7de5869400018f5e9e,112,2,2024-02-27T10:22:39.907Z,french_551.wav,0,poule,1698,37,5,5,francais,m,1,0.1,71.56090061,1.28136219
58bfee7de5869400018f5e9e,112,2,2024-02-27T10:22:39.907Z,french_551.wav,0,poule,1698,37,5,5,francais,m,2,0.2,-46.55712742,0.3781059
58bfee7de5869400018f5e9e,112,2,2024-02-27T10:22:39.907Z,french_551.wav,0,poule,1698,37,5,5,francais,m,3,0.25666667,-57.93002391,1.42095582
58bfee7de5869400018f5e9e,113,2,2024-02-27T10:22:39.907Z,french_686.wav,0,poule,824,37,5,5,francais,m,0,0.0,20.49516986,1.86861476
58bfee7de5869400018f5e9e,113,2,2024-02-27T10:22:39.907Z,french_686.wav,0,poule,824,37,5,5,francais,m,1,0.1,27.4040505,1.87689714
58bfee7de5869400018f5e9e,113,2,2024-02-27T10:22:39.907Z,french_686.wav,0,poule,824,37,5,5,francais,m,2,0.2,31.96095965,0.80940067
58bfee7de5869400018f5e9e,113,2,2024-02-27T10:22:39.907Z,french_686.wav,0,poule,824,37,5,5,francais,m,3,0.25666667,61.08066052,0.04075967
58bfee7de5869400018f5e9e,114,2,2024-02-27T10:22:39.907Z,french_200.wav,0,pull,471,37,5,5,francais,m,0,0.0,-10.65818699,0.95052916
58bfee7de5869400018f5e9e,114,2,2024-02-27T10:22:39.907Z,french_200.wav,0,pull,471,37,5,5,francais,m,1,0.1,-8.96413357,0.11424824
58bfee7de5869400018f5e9e,114,2,2024-02-27T10:22:39.907Z,french_200.wav,0,pull,471,37,5,5,francais,m,2,0.2,-78.89627616,1.718039
58bfee7de5869400018f5e9e,114,2,2024-02-27T10:22:39.907Z,french_200.wav,0,pull,471,37,5,5,francais,m,3,0.25666667,8.01745362,1.42690066
58bfee7de5869400018f5e9e,115,2,2024-02-27T10:22:39.907Z,french_230.wav,0,pull,1094,37,5,5,francais,m,0,0.0,-41.35992563,1.74508263
58bfee7de5869400018f5e9e,115,2,2024-02-27T10:22:39.907Z,french_230.wav,0,pull,1094,37,5,5,francais,m,1,0.1,43.67449439,0.13993269
58bfee7de5869400018f5e9e,115,2,2024-02-27T10:22:39.907Z,french_230.wav,0,pull,1094,37,5,5,francais,m,2,0.2,25.98311508,0.94473259
58bfee7de5869400018f5e9e,115,2,2024-02-27T10:22:39.907Z,french_230.wav,0,pull,1094,37,5,5,francais,m,3,0.25666667,-21.63443629,1.52757814
58bfee7de5869400018f5e9e,116,2,2024-02-27T10:22:39.907Z,french_302.wav,0,poule,374,37,5,5,francais,m,0,0.0,8.4067376,0.06791418
58bfee7de5869400018f5e9e,116,2,2024-02-27T10:22:39.907Z,french_302.wav,0,poule,374,37,5,5,francais,m,1,0.1,-29.32780789,1.46578571
58bfee7de5869400018f5e9e,116,2,2024-02-27T10:22:39.907Z,french_302.wav,0,poule,374,37,5,5,francais,m,2,0.2,-43.35590711,1.81098556
58bfee7de5869400018f5e9e,116,2,2024-02-27T10:22:39.907Z,french_302.wav,0,poule,374,37,5,5,francais,m,3,0.25666667,-44.50549756,1.40235265
58bfee7de5869400018f5e9e,117,2,2024-02-27T10:22:39.907Z,french_77.wav,0,poule,205,37,5,5,francais,m,0,0.0,-38.97456477,1.51906971
58bfee7de5869400018f5e9e,117,2,2024-02-27T10:22:39.907Z,french_77.wav,0,poule,205,37,5,5,francais,m,1,0.1,-27.77573133,1.43123518
58bfee7de5869400018f5e9e,117,2,2024-02-27T10:22:39.907Z,french_77.wav,0,poule,205,37,5,5,francais,m,2,0.2,62.31685549,1.04030098
58bfee7de5869400018f5e9e,117,2,2024-02-27T10:22:39.907Z,french_77.wav,0,poule,205,37,5,5,francais,m,3,0.25666667,13.7751853,1.45792424
58bfee7de5869400018f5e9e,118,2,2024-02-27T10:22:39.907Z,french_381.wav,0,pull,585,37,5,5,francais,m,0,0.0,-36.22739734,0.39069554
58bfee7de5869400018f5e9e,118,2,2024-02-27T10:22:39.907Z,french_381.wav,0,pull,585,37,5,5,francais,m,1,0.1,63.18659678,0.02424263
58bfee7de5869400018f5e9e,118,2,2024-02-27T10:22:39.907Z,french_381.wav,0,pull,585,37,5,5,francais,m,2,0.2,-88.25823098,0.59540025
58bfee7de5869400018f5e9e,118,2,2024-02-27T10:22:39.907Z,french_381.wav,0,pull,585,37,5,5,francais,m,3,0.25666667,39.00702017,0.84340327
58bfee7de5869400018f5e9e,119,2,2024-02-27T10:22:39.907Z,french_779.wav,0,pull,733,37,5,5,francais,m,0,0.0,-23.73686582,0.65858767
58bfee7de5869400018f5e9e,119,2,2024-02-27T10:22:39.907Z,french_779.wav,0,pull,733,37,5,5,francais,m,1,0.1,96.23962081,1.55580865
58bfee7de5869400018f5e9e,119,2,2024-02-27T10:22:39.907Z,french_779.wav,0,pull,733,37,5,5,francais,m,2,0.2,19.26430851,1.22244229
58bfee7de5869400018f5e9e,119,2,2024-02-27T10:22:39.907Z,french_779.wav,0,pull,733,37,5,5,francais,m,3,0.25666667,-72.92378626,1.83333034
58bfee7de5869400018f5e9e,120,2,2024-02-27T10:22:39.907Z,french_570.wav,0,poule,294,37,5,5,francais,m,0,0.0,-73.07970403,1.97071113
58bfee7de5869400018f5e9e,120,2,2024-02-27T10:22:39.907Z,french_570.wav,0,poule,294,37,5,5,francais,m,1,0.1,-29.06072458,1.64236312
58bfee7de5869400018f5e9e,120,2,2024-02-27T10:22:39.907Z,french_570.wav,0,poule,294,37,5,5,francais,m,2,0.2,-25.44054287,0.27343611
58bfee7de5869400018f5e9e,120,2,2024-02-27T10:22:39.907Z,french_570.wav,0,poule,294,37,5,5,francais,m,3,0.25666667,96.93308839,1.31029171
58bfee7de5869400018f5e9e,121,2,2024-02-27T10:22:39.907Z,french_22.wav,0,pull,915,37,5,5,francais,m,0,0.0,71.14052921,0.14678418
58bfee7de5869400018f5e9e,121,2,2024-02-27T10:22:39.907Z,french_22.wav,0,pull,915,37,5,5,francais,m,1,0.1,32.6622244,0.81024714
58bfee7de5869400018f5e9e,121,2,2024-02-27T10:22:39.907Z,french_22.wav,0,pull,915,37,5,5,francais,m,2,0.2,96.1292121,1.14392668
58bfee7de5869400018f5e9e,121,2,2024-02-27T10:22:39.907Z,french_22.wav,0,pull,915,37,5,5,francais,m,3,0.25666667,65.79523532,1.62437335
58bfee7de5869400018f5e9e,122,2,2024-02-27T10:22:39.907Z,french_906.wav,0,poule,415,37,5,5,francais,m,0,0.0,-13.49448879,0.31236465
58bfee7de5869400018f5e9e,122,2,2024-02-27T10:22:39.907Z,french_906.wav,0,poule,415,37,5,5,francais,m,1,0.1,31.46373863,1.12113229
58bfee7de5869400018f5e9e,122,2,2024-02-27T10:22:39.907Z,french_906.wav,0,poule,415,37,5,5,francais,m,2,0.2,-49.02376816,0.0749788
58bfee7de5869400018f5e9e,122,2,2024-02-27T10:22:39.907Z,french_906.wav,0,poule,415,37,5,5,francais,m,3,0.25666667,26.58933429,0.8331551
58bfee7de5869400018f5e9e,123,2,2024-02-27T10:22:39.907Z,french_395.wav,0,pull,564,37,5,5,francais,m,0,0.0,53.54317287,1.78210887
58bfee7de5869400018f5e9e,123,2,2024-02-27T10:22:39.907Z,french_395.wav,0,pull,564,37,5,5,francais,m,1,0.1,-58.7899365,0.28539332
58bfee7de5869400018f5e9e,123,2,2024-02-27T10:22:39.907Z,french_395.wav,0,pull,564,37,5,5,francais,m,2,0.2,-16.29959602,1.44255764
58bfee7de5869400018f5e9e,123,2,2024-02-27T10:22:39.907Z,french_395.wav,0,pull,564,37,5,5,francais,m,3,0.25666667,-29.17949613,0.93749012
58bfee7de5869400018f5e9e,124,2,2024-02-27T10:22:39.907Z,french_584.wav,0,pull,573,37,5,5,francais,m,0,0.0,69.79321503,1.17746001
58bfee7de5869400018f5e9e,124,2,2024-02-27T10:22:39.907Z,french_584.wav,0,pull,573,37,5,5,francais,m,1,0.1,-52.7276802,1.52318031
58bfee7de5869400018f5e9e,124,2,2024-02-27T10:22:39.907Z,french_584.wav,0,pull,573,37,5,5,francais,m,2,0.2,-55.3142281,1.91796719
58bfee7de5869400018f5e9e,124,2,2024-02-27T10:22:39.907Z,french_584.wav,0,pull,573,37,5,5,francais,m,3,0.25666667,-51.83811077,0.8668783
58bfee7de5869400018f5e9e,125,2,2024-02-27T10:22:39.907Z,french_318.wav,0,pull,778,37,5,5,francais,m,0,0.0,51.46520294,0.36120202
58bfee7de5869400018f5e9e,125,2,2024-02-27T10:22:39.907Z,french_318.wav,0,pull,778,37,5,5,francais,m,1,0.1,86.78866558,0.00996795
58bfee7de5869400018f5e9e,125,2,2024-02-27T10:22:39.907Z,french_318.wav,0,pull,778,37,5,5,francais,m,2,0.2,-10.27725715,1.05940341
58bfee7de5869400018f5e9e,125,2,2024-02-27T10:22:39.907Z,french_318.wav,0,pull,778,37,5,5,francais,m,3,0.25666667,9.68065634,1.37923943
58bfee7de5869400018f5e9e,126,2,2024-02-27T10:22:39.907Z,french_466.wav,0,pull,471,37,5,5,francais,m,0,0.0,73.58992944,1.41071494
58bfee7de5869400018f5e9e,126,2,2024-02-27T10:22:39.907Z,french_466.wav,0,pull,471,37,5,5,francais,m,1,0.1,63.97983353,0.05598534
58bfee7de5869400018f5e9e,126,2,2024-02-27T10:22:39.907Z,french_466.wav,0,pull,471,37,5,5,francais,m,2,0.2,36.10141743,1.99104708
58bfee7de5869400018f5e9e,126,2,2024-02-27T10:22:39.907Z,french_466.wav,0,pull,471,37,5,5,francais,m,3,0.25666667,-59.38235663,0.89990448
58bfee7de5869400018f5e9e,127,2,2024-02-27T10:22:39.907Z,french_246.wav,0,poule,495,37,5,5,francais,m,0,0.0,-61.30298939,1.31566238
58bfee7de5869400018f5e9e,127,2,2024-02-27T10:22:39.907Z,french_246.wav,0,poule,495,37,5,5,francais,m,1,0.1,15.83987086,1.23869052
58bfee7de5869400018f5e9e,127,2,2024-02-27T10:22:39.907Z,french_246.wav,0,poule,495,37,5,5,francais,m,2,0.2,80.17394669,1.57286335
58bfee7de5869400018f5e9e,127,2,2024-02-27T10:22:39.907Z,french_246.wav,0,poule,495,37,5,5,francais,m,3,0.25666667,-81.65507189,0.07583844
58bfee7de5869400018f5e9e,128,2,2024-02-27T10:22:39.907Z,french_469.wav,0,poule,603,37,5,5,francais,m,0,0.0,66.71351684,0.70736983
58bfee7de5869400018f5e9e,128,2,2024-02-27T10:22:39.907Z,french_469.wav,0,poule,603,37,5,5,francais,m,1,0.1,-62.03219977,0.37939516
58bfee7de5869400018f5e9e,128,2,2024-02-27T10:22:39.907Z,french_469.wav,0,poule,603,37,5,5,francais,m,2,0.2,3.50074433,0.65236
58bfee7de5869400018f5e9e,128,2,2024-02-27T10:22:39.907Z,french_469.wav,0,poule,603,37,5,5,francais,m,3,0.25666667,58.03584826,0.94960182
58bfee7de5869400018f5e9e,129,2,2024-02-27T10:22:39.907Z,french_887.wav,0,pull,352,37,5,5,francais,m,0,0.0,68.65167503,1.16380924
58bfee7de5869400018f5e9e,129,2,2024-02-27T10:22:39.907Z,french_887.wav,0,pull,352,37,5,5,francais,m,1,0.1,-55.72044546,1.74073633
58bfee7de5869400018f5e9e,129,2,2024-02-27T10:22:39.907Z,french_887.wav,0,pull,352,37,5,5,francais,m,2,0.2,-97.59121662,1.00138394
58bfee7de5869400018f5e9e,129,2,2024-02-27T10:22:39.907Z,french_887.wav,0,pull,352,37,5,5,francais,m,3,0.25666667,-40.12897823,1.21780512
58bfee7de5869400018f5e9e,130,2,2024-02-27T10:22:39.907Z,french_596.wav,0,pull,678,37,5,5,francais,m,0,0.0,-19.67623174,1.19630482
58bfee7de5869400018f5e9e,130,2,2024-02-27T10:22:39.907Z,french_596.wav,0,pull,678,37,5,5,francais,m,1,0.1,5.02630097,1.45796377
58bfee7de5869400018f5e9e,130,2,2024-02-27T10:22:39.907Z,french_596.wav,0,pull,678,37,5,5,francais,m,2,0.2,17.71933024,1.33112957
58bfee7de5869400018f5e9e,130,2,2024-02-27T10:22:39.907Z,french_596.wav,0,pull,678,37,5,5,francais,m,3,0.25666667,-99.90911374,0.42422988
58bfee7de5869400018f5e9e,131,2,2024-02-27T10:22:39.907Z,french_177.wav,0,poule,391,37,5,5,francais,m,0,0.0,-69.89314337,1.41470617
58bfee7de5869400018f5e9e,131,2,2024-02-27T10:22:39.907Z,french_177.wav,0,poule,391,37,5,5,francais,m,1,0.1,8.10824913,0.24806543
58bfee7de5869400018f5e9e,131,2,2024-02-27T10:22:39.907Z,french_177.wav,0,poule,391,37,5,5,francais,m,2,0.2,41.02901981,1.01013957
58bfee7de5869400018f5e9e,131,2,2024-02-27T10:22:39.907Z,french_177.wav,0,poule,391,37,5,5,francais,m,3,0.25666667,-9.46888932,0.18165289
58bfee7de5869400018f5e9e,132,2,2024-02-27T10:22:39.907Z,french_904.wav,0,poule,473,37,5,5,francais,m,0,0.0,-3.33486868,1.84649441
58bfee7de5869400018f5e9e,132,2,2024-02-27T10:22:39.907Z,french_904.wav,0,poule,473,37,5,5,francais,m,1,0.1,-72.00110742,1.91186975
58bfee7de5869400018f5e9e,132,2,2024-02-27T10:22:39.907Z,french_904.wav,0,poule,473,37,5,5,francais,m,2,0.2,32.54458222,0.71589927
58bfee7de5869400018f5e9e,132,2,2024-02-27T10:22:39.907Z,french_904.wav,0,poule,473,37,5,5,francais,m,3,0.25666667,13.13318907,0.21658524
58bfee7de5869400018f5e9e,133,2,2024-02-27T10:22:39.907Z,french_884.wav,0,pull,455,37,5,5,francais,m,0,0.0,44.18626496,0.26295785
58bfee7de5869400018f5e9e,133,2,2024-02-27T10:22:39.907Z,french_884.wav,0,pull,455,37,5,5,francais,m,1,0.1,-64.95611773,1.5401655
58bfee7de5869400018f5e9e,133,2,2024-02-27T10:22:39.907Z,french_884.wav,0,pull,455,37,5,5,francais,m,2,0.2,-49.1644617,1.25089254
58bfee7de5869400018f5e9e,133,2,2024-02-27T10:22:39.907Z,french_884.wav,0,pull,455,37,5,5,francais,m,3,0.25666667,-37.6294576,1.82171191
58bfee7de5869400018f5e9e,134,2,2024-02-27T10:22:39.907Z,french_150.wav,0,pull,358,37,5,5,francais,m,0,0.0,8.70975457,0.6151883
58bfee7de5869400018f5e9e,134,2,2024-02-27T10:22:39.907Z,french_150.wav,0,pull,358,37,5,5,francais,m,1,0.1,-27.10460474,1.35739255
58bfee7de5869400018f5e9e,134,2,2024-02-27T10:22:39.907Z,french_150.wav,0,pull,358,37,5,5,francais,m,2,0.2,-81.59186784,1.42530839
58bfee7de5869400018f5e9e,134,2,2024-02-27T10:22:39.907Z,french_150.wav,0,pull,358,37,5,5,francais,m,3,0.25666667,-72.54184128,0.64697028
58bfee7de5869400018f5e9e,135,2,2024-02-27T10:22:39.907Z,french_248.wav,0,pull,853,37,5,5,francais,m,0,0.0,-72.14952141,0.31572296
58bfee7de5869400018f5e9e,135,2,2024-02-27T10:22:39.907Z,french_248.wav,0,pull,853,37,5,5,francais,m,1,0.1,-0.62089361,0.98183681
58bfee7de5869400018f5e9e,135,2,2024-02-27T10:22:39.907Z,french_248.wav,0,pull,853,37,5,5,francais,m,2,0.2,-1.54726874,1.57355183
58bfee7de5869400018f5e9e,135,2,2024-02-27T10:22:39.907Z,french_248.wav,0,pull,853,37,5,5,francais,m,3,0.25666667,-50.42909266,0.39982355
58bfee7de5869400018f5e9e,136,2,2024-02-27T10:22:39.907Z,french_237.wav,0,poule,462,37,5,5,francais,m,0,0.0,-1.09426196,0.40664609
58bfee7de5869400018f5e9e,136,2,2024-02-27T10:22:39.907Z,french_237.wav,0,poule,462,37,5,5,francais,m,1,0.1,-48.49856075,0.23529618
58bfee7de5869400018f5e9e,136,2,2024-02-27T10:22:39.907Z,french_237.wav,0,poule,462,37,5,5,francais,m,2,0.2,36.42993093,0.05363011
58bfee7de5869400018f5e9e,136,2,2024-02-27T10:22:39.907Z,french_237.wav,0,poule,462,37,5,5,francais,m,3,0.25666667,-47.65767162,1.34950367
58bfee7de5869400018f5e9e,137,2,2024-02-27T10:22:39.907Z,french_705.wav,0,poule,439,37,5,5,francais,m,0,0.0,-31.52083019,1.71356233
58bfee7de5869400018f5e9e,137,2,2024-02-27T10:22:39.907Z,french_705.wav,0,poule,439,37,5,5,francais,m,1,0.1,93.24854214,0.26324818
58bfee7de5869400018f5e9e,137,2,2024-02-27T10:22:39.907Z,french_705.wav,0,poule,439,37,5,5,francais,m,2,0.2,-36.26217339,0.66385994
58bfee7de5869400018f5e9e,137,2,2024-02-27T10:22:39.907Z,french_705.wav,0,poule,439,37,5,5,francais,m,3,0.25666667,58.31905924,1.85027868
58bfee7de5869400018f5e9e,138,2,2024-02-27T10:22:39.907Z,french_193.wav,0,pull,441,37,5,5,francais,m,0,0.0,-28.32639357,1.40536398
58bfee7de5869400018f5e9e,138,2,2024-02-27T10:22:39.907Z,french_193.wav,0,pull,441,37,5,5,francais,m,1,0.1,-28.26139456,0.96467568
58bfee7de5869400018f5e9e,138,2,2024-02-27T10:22:39.907Z,french_193.wav,0,pull,441,37,5,5,francais,m,2,0.2,-57.21870996,1.12687293
58bfee7de5869400018f5e9e,138,2,2024-02-27T10:22:39.907Z,french_193.wav,0,pull,441,37,5,5,francais,m,3,0.25666667,-51.4120543,0.49094377
58bfee7de5869400018f5e9e,139,2,2024-02-27T10:22:39.907Z,french_149.wav,0,pull,820,37,5,5,francais,m,0,0.0,28.00275788,1.27183806
58bfee7de5869400018f5e9e,139,2,2024-02-27T10:22:39.907Z,french_149.wav,0,pull,820,37,5,5,francais,m,1,0.1,-46.87803807,1.3685485
58bfee7de5869400018f5e9e,139,2,2024-02-27T10:22:39.907Z,french_149.wav,0,pull,820,37,5,5,francais,m,2,0.2,32.76049197,0.82981236
58bfee7de5869400018f5e9e,139,2,2024-02-27T10:22:39.907Z,french_149.wav,0,pull,820,37,5,5,francais,m,3,0.25666667,-11.80275259,1.21825334
58bfee7de5869400018f5e9e,140,2,2024-02-27T10:22:39.907Z,french_367.wav,0,poule,5999,37,5,5,francais,m,0,0.0,-74.25610099,1.28932343
58bfee7de5869400018f5e9e,140,2,2024-02-27T10:22:39.907Z,french_367.wav,0,poule,5999,37,5,5,francais,m,1,0.1,-44.66143863,1.13980767
58bfee7de5869400018f5e9e,140,2,2024-02-27T10:22:39.907Z,french_367.wav,0,poule,5999,37,5,5,francais,m,2,0.2,-39.26529042,1.487469
58bfee7de5869400018f5e9e,140,2,2024-02-27T10:22:39.907Z,french_367.wav,0,poule,5999,37,5,5,francais,m,3,0.25666667,-84.95145566,0.37349724
58bfee7de5869400018f5e9e,141,2,2024-02-27T10:22:39.907Z,french_573.wav,0,pull,684,37,5,5,francais,m,0,0.0,-82.60587544,1.7811252
58bfee7de5869400018f5e9e,141,2,2024-02-27T10:22:39.907Z,french_573.wav,0,pull,684,37,5,5,francais,m,1,0.1,24.10475325,1.67511136
58bfee7de5869400018f5e9e,141,2,2024-02-27T10:22:39.907Z,french_573.wav,0,pull,684,37,5,5,francais,m,2,0.2,12.83458345,1.07369657
58bfee7de5869400018f5e9e,141,2,2024-02-27T10:22:39.907Z,french_573.wav,0,pull,684,37,5,5,francais,m,3,0.25666667,-92.36985106,0.78659629
58bfee7de5869400018f5e9e,142,2,2024-02-27T10:22:39.907Z,french_525.wav,0,pull,419,37,5,5,francais,m,0,0.0,-55.71805546,1.48564319
58bfee7de5869400018f5e9e,142,2,2024-02-27T10:22:39.907Z,french_525.wav,0,pull,419,37,5,5,francais,m,1,0.1,69.57832018,0.7646222
58bfee7de5869400018f5e9e,142,2,2024-02-27T10:22:39.907Z,french_525.wav,0,pull,419,37,5,5,francais,m,2,0.2,-61.51619627,1.98360061
58bfee7de5869400018f5e9e,142,2,2024-02-27T10:22:39.907Z,french_525.wav,0,pull,419,37,5,5,francais,m,3,0.25666667,-40.26288332,1.91122687
58bfee7de5869400018f5e9e,143,2,2024-02-27T10:22:39.907Z,french_422.wav,0,poule,726,37,5,5,francais,m,0,0.0,84.96144948,0.57918651
58bfee7de5869400018f5e9e,143,2,2024-02-27T10:22:39.907Z,french_422.wav,0,poule,726,37,5,5,francais,m,1,0.1,-4.96569357,1.20973004
58bfee7de5869400018f5e9e,143,2,2024-02-27T10:22:39.907Z,french_422.wav,0,poule,726,37,5,5,francais,m,2,0.2,9.38898655,0.40935242
58bfee7de5869400018f5e9e,143,2,2024-02-27T10:22:39.907Z,french_422.wav,0,poule,726,37,5,5,francais,m,3,0.25666667,-4.34292742,0.41859168
58bfee7de5869400018f5e9e,144,2,2024-02-27T10:22:39.907Z,french_609.wav,0,pull,3448,37,5,5,francais,m,0,0.0,11.6890167,1.75568789
58bfee7de5869400018f5e9e,144,2,2024-02-27T10:22:39.907Z,french_609.wav,0,pull,3448,37,5,5,francais,m,1,0.1,-35.50971605,1.50542158
58bfee7de5869400018f5e9e,144,2,2024-02-27T10:22:39.907Z,french_609.wav,0,pull,3448,37,5,5,francais,m,2,0.2,-98.47760025,0.96032408
58bfee7de5869400018f5e9e,144,2,2024-02-27T10:22:39.907Z,french_609.wav,0,pull,3448,37,5,5,francais,m,3,0.25666667,-64.00925784,1.1186533
58bfee7de5869400018f5e9e,145,2,2024-02-27T10:22:39.907Z,french_647.wav,0,poule,662,37,5,5,francais,m,0,0.0,-41.18361869,1.9224231
58bfee7de5869400018f5e9e,145,2,2024-02-27T10:22:39.907Z,french_647.wav,0,poule,662,37,5,5,francais,m,1,0.1,11.48241437,1.96851625
58bfee7de5869400018f5e9e,145,2,2024-02-27T10:22:39.907Z,french_647.wav,0,poule,662,37,5,5,francais,m,2,0.2,60.38354651,1.74064919
58bfee7de5869400018f5e9e,145,2,2024-02-27T10:22:39.907Z,french_647.wav,0,poule,662,37,5,5,francais,m,3,0.25666667,15.78737628,1.76296374
58bfee7de5869400018f5e9e,146,2,2024-02-27T10:22:39.907Z,french_838.wav,0,poule,640,37,5,5,francais,m,0,0.0,-11.78713781,0.60255839
58bfee7de5869400018f5e9e,146,2,2024-02-27T10:22:39.907Z,french_838.wav,0,poule,640,37,5,5,francais,m,1,0.1,70.11555366,0.34480099
58bfee7de5869400018f5e9e,146,2,2024-02-27T10:22:39.907Z,french_838.wav,0,poule,640,37,5,5,francais,m,2,0.2,60.74924786,1.0262929
58bfee7de5869400018f5e9e,146,2,2024-02-27T10:22:39.907Z,french_838.wav,0,poule,640,37,5,5,francais,m,3,0.25666667,37.89669618,0.88829748
58bfee7de5869400018f5e9e,147,2,2024-02-27T10:22:39.907Z,french_114.wav,0,poule,309,37,5,5,francais,m,0,0.0,36.61172137,1.1665973
58bfee7de5869400018f5e9e,147,2,2024-02-27T10:22:39.907Z,french_114.wav,0,poule,309,37,5,5,francais,m,1,0.1,1.16528437,0.29978092
58bfee7de5869400018f5e9e,147,2,2024-02-27T10:22:39.907Z,french_114.wav,0,poule,309,37,5,5,francais,m,2,0.2,91.5106094,1.30847922
58bfee7de5869400018f5e9e,147,2,2024-02-27T10:22:39.907Z,french_114.wav,0,poule,309,37,5,5,francais,m,3,0.25666667,23.38458366,1.1533172
58bfee7de5869400018f5e9e,148,2,2024-02-27T10:22:39.907Z,french_796.wav,0,pull,420,37,5,5,francais,m,0,0.0,-38.09805788,1.93486201
58bfee7de5869400018f5e9e,148,2,2024-02-27T10:22:39.907Z,french_796.wav,0,pull,420,37,5,5,francais,m,1,0.1,-51.81358868,1.49994235
58bfee7de5869400018f5e9e,148,2,2024-02-27T10:22:39.907Z,french_796.wav,0,pull,420,37,5,5,francais,m,2,0.2,88.47322764,1.42581223
58bfee7de5869400018f5e9e,148,2,2024-02-27T10:22:39.907Z,french_796.wav,0,pull,420,37,5,5,francais,m,3,0.25666667,-34.90405205,0.47367866
58bfee7de5869400018f5e9e,149,2,2024-02-27T10:22:39.907Z,french_521.wav,0,poule,201,37,5,5,francais,m,0,0.0,11.04386286,1.73052604
58bfee7de5869400018f5e9e,149,2,2024-02-27T10:22:39.907Z,french_521.wav,0,poule,201,37,5,5,francais,m,1,0.1,-55.65083084,0.96564678
58bfee7de5869400018f5e9e,149,2,2024-02-27T10:22:39.907Z,french_521.wav,0,poule,201,37,5,5,francais,m,2,0.2,98.93037095,1.35299162
58bfee7de5869400018f5e9e,149,2,2024-02-27T10:22:39.907Z,french_521.wav,0,poule,201,37,5,5,francais,m,3,0.25666667,14.06437892,1.41353716
58bfee7de5869400018f5e9e,150,3,2024-02-27T10:22:39.907Z,french_799.wav,0,poule,532,37,5,5,francais,m,0,0.0,-36.40535669,1.51597666
58bfee7de5869400018f5e9e,150,3,2024-02-27T10:22:39.907Z,french_799.wav,0,poule,532,37,5,5,francais,m,1,0.1,61.69828746,0.87708619
58bfee7de5869400018f5e9e,150,3,2024-02-27T10:22:39.907Z,french_799.wav,0,poule,532,37,5,5,francais,m,2,0.2,66.97541187,1.35480731
58bfee7de5869400018f5e9e,150,3,2024-02-27T10:22:39.907Z,french_799.wav,0,poule,532,37,5,5,francais,m,3,0.25666667,-86.21475416,0.58642825
58bfee7de5869400018f5e9e,151,3,2024-02-27T10:22:39.907Z,french_391.wav,0,pull,325,37,5,5,francais,m,0,0.0,-76.68975493,1.01472424
58bfee7de5869400018f5e9e,151,3,2024-02-27T10:22:39.907Z,french_391.wav,0,pull,325,37,5,5,francais,m,1,0.1,-61.92507962,1.84772624
58bfee7de5869400018f5e9e,151,3,2024-02-27T10:22:39.907Z,french_391.wav,0,pull,325,37,5,5,francais,m,2,0.2,-59.03609545,1.36374408
58bfee7de5869400018f5e9e,151,3,2024-02-27T10:22:39.907Z,french_391.wav,0,pull,325,37,5,5,francais,m,3,0.25666667,88.69049446,1.21538153
58bfee7de5869400018f5e9e,152,3,2024-02-27T10:22:39.907Z,french_929.wav,0,poule,293,37,5,5,francais,m,0,0.0,-0.81023728,1.80594317
58bfee7de5869400018f5e9e,152,3,2024-02-27T10:22:39.907Z,french_929.wav,0,poule,293,37,5,5,francais,m,1,0.1,49.23140571,0.75886247
58bfee7de5869400018f5e9e,152,3,2024-02-27T10:22:39.907Z,french_929.wav,0,poule,293,37,5,5,francais,m,2,0.2,-9.18427249,0.13714517
58bfee7de5869400018f5e9e,152,3,2024-02-27T10:22:39.907Z,french_929.wav,0,poule,293,37,5,5,francais,m,3,0.25666667,2.49300226,0.57622003
58bfee7de5869400018f5e9e,153,3,2024-02-27T10:22:39.907Z,french_126.wav,0,poule,494,37,5,5,francais,m,0,0.0,92.90369484,0.56379558
58bfee7de5869400018f5e9e,153,3,2024-02-27T10:22:39.907Z,french_126.wav,0,poule,494,37,5,5,francais,m,1,0.1,25.09820179,1.73295328
58bfee7de5869400018f5e9e,153,3,2024-02-27T10:22:39.907Z,french_126.wav,0,poule,494,37,5,5,francais,m,2,0.2,92.10026461,0.28067586
58bfee7de5869400018f5e9e,153,3,2024-02-27T10:22:39.907Z,french_126.wav,0,poule,494,37,5,5,francais,m,3,0.25666667,-27.205087,0.82028398
58bfee7de5869400018f5e9e,154,3,2024-02-27T10:22:39.907Z,french_655.wav,0,poule,338,37,5,5,francais,m,0,0.0,4.60078694,1.00375004
58bfee7de5869400018f5e9e,154,3,2024-02-27T10:22:39.907Z,french_655.wav,0,poule,338,37,5,5,francais,m,1,0.1,90.51966262,1.23726083
58bfee7de5869400018f5e9e,154,3,2024-02-27T10:22:39.907Z,french_655.wav,0,poule,338,37,5,5,francais,m,2,0.2,-72.80105835,1.08672065
58bfee7de5869400018f5e9e,154,3,2024-02-27T10:22:39.907Z,french_655.wav,0,poule,338,37,5,5,francais,m,3,0.25666667,32.46228297,0.32613357
58bfee7de5869400018f5e9e,155,3,2024-02-27T10:22:39.907Z,french_574.wav,0,pull,304,37,5,5,francais,m,0,0.0,-78.43657591,1.27247015
58bfee7de5869400018f5e9e,155,3,2024-02-27T10:22:39.907Z,french_574.wav,0,pull,304,37,5,5,francais,m,1,0.1,25.16959944,0.78898338
58bfee7de5869400018f5e9e,155,3,2024-02-27T10:22:39.907Z,french_574.wav,0,pull,304,37,5,5,francais,m,2,0.2,42.97785019,1.49121094
58bfee7de5869400018f5e9e,155,3,2024-02-27T10:22:39.907Z,french_574.wav,0,pull,304,37,5,5,francais,m,3,0.25666667,77.36764491,0.68004104
58bfee7de5869400018f5e9e,156,3,2024-02-27T10:22:39.907Z,french_300.wav,0,poule,257,37,5,5,francais,m,0,0.0,-13.28568226,1.4723541
58bfee7de5869400018f5e9e,156,3,2024-02-27T10:22:39.907Z,french_300.wav,0,poule,257,37,5,5,francais,m,1,0.1,80.95964609,1.07308012
58bfee7de5869400018f5e9e,156,3,2024-02-27T10:22:39.907Z,french_300.wav,0,poule,257,37,5,5,francais,m,2,0.2,97.81212175,1.14674573
58bfee7de5869400018f5e9e,156,3,2024-02-27T10:22:39.907Z,french_300.wav,0,poule,257,37,5,5,francais,m,3,0.25666667,60.85112551,1.78656344
58bfee7de5869400018f5e9e,157,3,2024-02-27T10:22:39.907Z,french_678.wav,0,poule,1072,37,5,5,francais,m,0,0.0,8.99494286,0.31277465
58bfee7de5869400018f5e9e,157,3,2024-02-27T10:22:39.907Z,french_678.wav,0,poule,1072,37,5,5,francais,m,1,0.1,56.3447022,0.04822955
58bfee7de5869400018f5e9e,157,3,2024-02-27T10:22:39.907Z,french_678.wav,0,poule,1072,37,5,5,francais,m,2,0.2,-85.36803825,0.03738606
58bfee7de5869400018f5e9e,157,3,2024-02-27T10:22:39.907Z,french_678.wav,0,poule,1072,37,5,5,francais,m,3,0.25666667,-65.39277698,1.60364947
58bfee7de5869400018f5e9e,158,3,2024-02-27T10:22:39.907Z,french_505.wav,0,poule,474,37,5,5,francais,m,0,0.0,-38.72168331,1.89725183
58bfee7de5869400018f5e9e,158,3,2024-02-27T10:22:39.907Z,french_505.wav,0,poule,474,37,5,5,francais,m,1,0.1,-12.49542568,0.88243769
58bfee7de5869400018f5e9e,158,3,2024-02-27T10:22:39.907Z,french_505.wav,0,poule,474,37,5,5,francais,m,2,0.2,71.90880982,1.24748728
58bfee7de5869400018f5e9e,158,3,2024-02-27T10:22:39.907Z,french_505.wav,0,poule,474,37,5,5,francais,m,3,0.25666667,-94.40337553,0.62032879
58bfee7de5869400018f5e9e,159,3,2024-02-27T10:22:39.907Z,french_380.wav,0,pull,611,37,5,5,francais,m,0,0.0,24.49292531,0.14533116
58bfee7de5869400018f5e9e,159,3,2024-02-27T10:22:39.907Z,french_380.wav,0,pull,611,37,5,5,francais,m,1,0.1,-93.89933718,1.07880785
58bfee7de5869400018f5e9e,159,3,2024-02-27T10:22:39.907Z,french_380.wav,0,pull,611,37,5,5,francais,m,2,0.2,-85.93529796,1.01737492
58bfee7de5869400018f5e9e,159,3,2024-02-27T10:22:39.907Z,french_380.wav,0,pull,611,37,5,5,francais,m,3,0.25666667,58.85582409,1.87499145
58bfee7de5869400018f5e9e,160,3,2024-02-27T10:22:39.907Z,french_616.wav,0,pull,1493,37,5,5,francais,m,0,0.0,-51.21021188,1.78160172
58bfee7de5869400018f5e9e,160,3,2024-02-27T10:22:39.907Z,french_616.wav,0,pull,1493,37,5,5,francais,m,1,0.1,59.33159463,1.44809064
58bfee7de5869400018f5e9e,160,3,2024-02-27T10:22:39.907Z,french_616.wav,0,pull,1493,37,5,5,francais,m,2,0.2,-4.53011914,1.29942812
58bfee7de5869400018f5e9e,160,3,2024-02-27T10:22:39.907Z,french_616.wav,0,pull,1493,37,5,5,francais,m,3,0.25666667,5.92531861,0.36849944
58bfee7de5869400018f5e9e,161,3,2024-02-27T10:22:39.907Z,french_649.wav,0,poule,445,37,5,5,francais,m,0,0.0,-26.84796804,0.38564107
58bfee7de5869400018f5e9e,161,3,2024-02-27T10:22:39.907Z,french_649.wav,0,poule,445,37,5,5,francais,m,1,0.1,90.50092835,0.07645681
58bfee7de5869400018f5e9e,161,3,2024-02-27T10:22:39.907Z,french_649.wav,0,poule,445,37,5,5,francais,m,2,0.2,-42.32642697,0.18898029
58bfee7de5869400018f5e9e,161,3,2024-02-27T10:22:39.907Z,french_649.wav,0,poule,445,37,5,5,francais,m,3,0.25666667,-6.05454316,0.88659006
58bfee7de5869400018f5e9e,162,3,2024-02-27T10:22:39.907Z,french_727.wav,0,pull,633,37,5,5,francais,m,0,0.0,-15.29396541,0.40840987
58bfee7de5869400018f5e9e,162,3,2024-02-27T10:22:39.907Z,french_727.wav,0,pull,633,37,5,5,francais,m,1,0.1,-26.29552155,0.3000398
58bfee7de5869400018f5e9e,162,3,2024-02-27T10:22:39.907Z,french_727.wav,0,pull,633,37,5,5,francais,m,2,0.2,79.97121571,1.00640838
58bfee7de5869400018f5e9e,162,3,2024-02-27T10:22:39.907Z,french_727.wav,0,pull,633,37,5,5,francais,m,3,0.25666667,55.89998316,1.06507384
58bfee7de5869400018f5e9e,163,3,2024-02-27T10:22:39.907Z,french_751.wav,0,poule,331,37,5,5,francais,m,0,0.0,43.14158788,0.5897858
58bfee7de5869400018f5e9e,163,3,2024-02-27T10:22:39.907Z,french_751.wav,0,poule,331,37,5,5,francais,m,1,0.1,18.43858874,0.77618244
58bfee7de5869400018f5e9e,163,3,2024-02-27T10:22:39.907Z,french_751.wav,0,poule,331,37,5,5,francais,m,2,0.2,79.49995567,1.33641446
58bfee7de5869400018f5e9e,163,3,2024-02-27T10:22:39.907Z,french_751.wav,0,poule,331,37,5,5,francais,m,3,0.25666667,54.04463095,0.80537668
58bfee7de5869400018f5e9e,164,3,2024-02-27T10:22:39.907Z,french_106.wav,0,poule,335,37,5,5,francais,m,0,0.0,-80.93311261,0.79978414
58bfee7de5869400018f5e9e,164,3,2024-02-27T10:22:39.907Z,french_106.wav,0,poule,335,37,5,5,francais,m,1,0.1,7.33604761,0.87655026
58bfee7de5869400018f5e9e,164,3,2024-02-27T10:22:39.907Z,french_106.wav,0,poule,335,37,5,5,francais,m,2,0.2,53.45287064,1.02362607
58bfee7de5869400018f5e9e,164,3,2024-02-27T10:22:39.907Z,french_106.wav,0,poule,335,37,5,5,francais,m,3,0.25666667,-26.77526802,1.25354946
58bfee7de5869400018f5e9e,165,3,2024-02-27T10:22:39.907Z,french_256.wav,0,pull,344,37,5,5,francais,m,0,0.0,34.00641445,1.19838094
58bfee7de5869400018f5e9e,165,3,2024-02-27T10:22:39.907Z,french_256.wav,0,pull,344,37,5,5,francais,m,1,0.1,78.12380502,0.9412232
58bfee7de5869400018f5e9e,165,3,2024-02-27T10:22:39.907Z,french_256.wav,0,pull,344,37,5,5,francais,m,2,0.2,84.97245465,1.34630265
58bfee7de5869400018f5e9e,165,3,2024-02-27T10:22:39.907Z,french_256.wav,0,pull,344,37,5,5,francais,m,3,0.25666667,29.4187394,1.86077871
58bfee7de5869400018f5e9e,166,3,2024-02-27T10:22:39.907Z,french_227.wav,0,poule,322,37,5,5,francais,m,0,0.0,0.51486219,1.24333394
58bfee7de5869400018f5e9e,166,3,2024-02-27T10:22:39.907Z,french_227.wav,0,poule,322,37,5,5,francais,m,1,0.1,-7.58300973,1.87169026
58bfee7de5869400018f5e9e,166,3,2024-02-27T10:22:39.907Z,french_227.wav,0,poule,322,37,5,5,francais,m,2,0.2,-1.58102923,1.73620524
58bfee7de5869400018f5e9e,166,3,2024-02-27T10:22:39.907Z,french_227.wav,0,poule,322,37,5,5,francais,m,3,0.25666667,-53.33162074,0.85172824
58bfee7de5869400018f5e9e,167,3,2024-02-27T10:22:39.907Z,french_571.wav,0,poule,204,37,5,5,francais,m,0,0.0,31.56469904,0.97268691
58bfee7de5869400018f5e9e,167,3,2024-02-27T10:22:39.907Z,french_571.wav,0,poule,204,37,5,5,francais,m,1,0.1,44.5277229,1.62706688
58bfee7de5869400018f5e9e,167,3,2024-02-27T10:22:39.907Z,french_571.wav,0,poule,204,37,5,5,francais,m,2,0.2,41.67262287,1.42821868
58bfee7de5869400018f5e9e,167,3,2024-02-27T10:22:39.907Z,french_571.wav,0,poule,204,37,5,5,francais,m,3,0.25666667,9.54247743,0.83693393
58bfee7de5869400018f5e9e,168,3,2024-02-27T10:22:39.907Z,french_560.wav,0,poule,438,37,5,5,francais,m,0,0.0,-42.00998938,1.48749501
58bfee7de5869400018f5e9e,168,3,2024-02-27T10:22:39.907Z,french_560.wav,0,poule,438,37,5,5,francais,m,1,0.1,-57.33016448,0.25124208
58bfee7de5869400018f5e9e,168,3,2024-02-27T10:22:39.907Z,french_560.wav,0,poule,438,37,5,5,francais,m,2,0.2,94.61210268,1.70870291
58bfee7de5869400018f5e9e,168,3,2024-02-27T10:22:39.907Z,french_560.wav,0,poule,438,37,5,5,francais,m,3,0.25666667,-53.14621565,0.91259566
58bfee7de5869400018f5e9e,169,3,2024-02-27T10:22:39.907Z,french_421.wav,0,poule,214,37,5,5,francais,m,0,0.0,97.07315942,0.55056447
58bfee7de5869400018f5e9e,169,3,2024-02-27T10:22:39.907Z,french_421.wav,0,poule,214,37,5,5,francais,m,1,0.1,-83.39673754,1.15764891
58bfee7de5869400018f5e9e,169,3,2024-02-27T10:22:39.907Z,french_421.wav,0,poule,214,37,5,5,francais,m,2,0.2,82.21564407,0.98396665
58bfee7de5869400018f5e9e,169,3,2024-02-27T10:22:39.907Z,french_421.wav,0,poule,214,37,5,5,francais,m,3,0.25666667,-4.22049535,0.77781273
58bfee7de5869400018f5e9e,170,3,2024-02-27T10:22:39.907Z,french_164.wav,0,poule,226,37,5,5,francais,m,0,0.0,-18.17175111,1.54231832
58bfee7de5869400018f5e9e,170,3,2024-02-27T10:22:39.907Z,french_164.wav,0,poule,226,37,5,5,francais,m,1,0.1,76.91542059,0.85273823
58bfee7de5869400018f5e9e,170,3,2024-02-27T10:22:39.907Z,french_164.wav,0,poule,226,37,5,5,francais,m,2,0.2,-44.02896165,1.08595521
58bfee7de5869400018f5e9e,170,3,2024-02-27T10:22:39.907Z,french_164.wav,0,poule,226,37,5,5,francais,m,3,0.25666667,-52.20678857,1.30612675
58bfee7de5869400018f5e9e,171,3,2024-02-27T10:22:39.907Z,french_406.wav,0,poule,151,37,5,5,francais,m,0,0.0,58.13533855,1.29537269
58bfee7de5869400018f5e9e,171,3,2024-02-27T10:22:39.907Z,french_406.wav,0,poule,151,37,5,5,francais,m,1,0.1,16.77938971,1.03128378
58bfee7de5869400018f5e9e,171,3,2024-02-27T10:22:39.907Z,french_406.wav,0,poule,151,37,5,5,francais,m,2,0.2,-34.29610563,1.90878176
58bfee7de5869400018f5e9e,171,3,2024-02-27T10:22:39.907Z,french_406.wav,0,poule,151,37,5,5,francais,m,3,0.25666667,5.14727068,1.43946259
58bfee7de5869400018f5e9e,172,3,2024-02-27T10:22:39.907Z,french_997.wav,0,poule,465,37,5,5,francais,m,0,0.0,70.02211451,0.23520638
58bfee7de5869400018f5e9e,172,3,2024-02-27T10:22:39.907Z,french_997.wav,0,poule,465,37,5,5,francais,m,1,0.1,69.24362731,0.40856699
58bfee7de5869400018f5e9e,172,3,2024-02-27T10:22:39.907Z,french_997.wav,0,poule,465,37,5,5,francais,m,2,0.2,73.007848,1.59962624
58bfee7de5869400018f5e9e,172,3,2024-02-27T10:22:39.907Z,french_997.wav,0,poule,465,37,5,5,francais,m,3,0.25666667,83.15376715,0.8906701
58bfee7de5869400018f5e9e,173,3,2024-02-27T10:22:39.907Z,french_254.wav,0,pull,345,37,5,5,francais,m,0,0.0,-80.26287383,0.610966
58bfee7de5869400018f5e9e,173,3,2024-02-27T10:22:39.907Z,french_254.wav,0,pull,345,37,5,5,francais,m,1,0.1,-40.33934554,1.74213191
58bfee7de5869400018f5e9e,173,3,2024-02-27T10:22:39.907Z,french_254.wav,0,pull,345,37,5,5,francais,m,2,0.2,63.1875163,0.92287848
58bfee7de5869400018f5e9e,173,3,2024-02-27T10:22:39.907Z,french_254.wav,0,pull,345,37,5,5,francais,m,3,0.25666667,55.87543548,0.4746978
58bfee7de5869400018f5e9e,174,3,2024-02-27T10:22:39.907Z,french_604.wav,0,pull,494,37,5,5,francais,m,0,0.0,-11.11210875,1.64316359
58bfee7de5869400018f5e9e,174,3,2024-02-27T10:22:39.907Z,french_604.wav,0,pull,494,37,5,5,francais,m,1,0.1,-13.90326971,0.56968283
58bfee7de5869400018f5e9e,174,3,2024-02-27T10:22:39.907Z,french_604.wav,0,pull,494,37,5,5,francais,m,2,0.2,-78.59226075,1.3955722
58bfee7de5869400018f5e9e,174,3,2024-02-27T10:22:39.907Z,french_604.wav,0,pull,494,37,5,5,francais,m,3,0.25666667,87.42620436,0.51982143
58bfee7de5869400018f5e9e,175,3,2024-02-27T10:22:39.907Z,french_789.wav,0,pull,305,37,5,5,francais,m,0,0.0,16.13130467,1.41580253
58bfee7de5869400018f5e9e,175,3,2024-02-27T10:22:39.907Z,french_789.wav,0,pull,305,37,5,5,francais,m,1,0.1,-53.51301261,1.63533644
58bfee7de5869400018f5e9e,175,3,2024-02-27T10:22:39.907Z,french_789.wav,0,pull,305,37,5,5,francais,m,2,0.2,91.10833978,0.42839577
58bfee7de5869400018f5e9e,175,3,2024-02-27T10:22:39.907Z,french_789.wav,0,pull,305,37,5,5,francais,m,3,0.25666667,9.61415248,0.64971622
58bfee7de5869400018f5e9e,176,3,2024-02-27T10:22:39.907Z,french_308.wav,0,poule,313,37,5,5,francais,m,0,0.0,10.28514005,0.92806529
58bfee7de5869400018f5e9e,176,3,2024-02-27T10:22:39.907Z,french_308.wav,0,poule,313,37,5,5,francais,m,1,0.1,-39.60290217,0.73191769
58bfee7de5869400018f5e9e,176,3,2024-02-27T10:22:39.907Z,french_308.wav,0,poule,313,37,5,5,francais,m,2,0.2,99.30719553,0.07740888
58bfee7de5869400018f5e9e,176,3,2024-02-27T10:22:39.907Z,french_308.wav,0,poule,313,37,5,5,francais,m,3,0.25666667,64.43745932,0.80481059
58bfee7de5869400018f5e9e,177,3,2024-02-27T10:22:39.907Z,french_196.wav,0,pull,237,37,5,5,francais,m,0,0.0,-51.30508497,1.16005851
58bfee7de5869400018f5e9e,177,3,2024-02-27T10:22:39.907Z,french_196.wav,0,pull,237,37,5,5,francais,m,1,0.1,89.17651026,0.87725998
58bfee7de5869400018f5e9e,177,3,2024-02-27T10:22:39.907Z,french_196.wav,0,pull,237,37,5,5,francais,m,2,0.2,77.92993737,1.23506332
58bfee7de5869400018f5e9e,177,3,2024-02-27T10:22:39.907Z,french_196.wav,0,pull,237,37,5,5,francais,m,3,0.25666667,-86.11962375,1.33141167
58bfee7de5869400018f5e9e,178,3,2024-02-27T10:22:39.907Z,french_426.wav,0,poule,649,37,5,5,francais,m,0,0.0,94.83015244,1.95768421
58bfee7de5869400018f5e9e,178,3,2024-02-27T10:22:39.907Z,french_426.wav,0,poule,649,37,5,5,francais,m,1,0.1,80.74954266,0.5170286
58bfee7de5869400018f5e9e,178,3,2024-02-27T10:22:39.907Z,french_426.wav,0,poule,649,37,5,5,francais,m,2,0.2,14.22402444,0.27456075
58bfee7de5869400018f5e9e,178,3,2024-02-27T10:22:39.907Z,french_426.wav,0,poule,649,37,5,5,francais,m,3,0.25666667,92.85203769,1.53042381
58bfee7de5869400018f5e9e,179,3,2024-02-27T10:22:39.907Z,french_224.wav,0,poule,883,37,5,5,francais,m,0,0.0,29.30439333,0.07263044
58bfee7de5869400018f5e9e,179,3,2024-02-27T10:22:39.907Z,french_224.wav,0,poule,883,37,5,5,francais,m,1,0.1,-18.8355858,0.50126241
58bfee7de5869400018f5e9e,179,3,2024-02-27T10:22:39.907Z,french_224.wav,0,poule,883,37,5,5,francais,m,2,0.2,53.95388402,0.66381289
58bfee7de5869400018f5e9e,179,3,2024-02-27T10:22:39.907Z,french_224.wav,0,poule,883,37,5,5,francais,m,3,0.25666667,-99.38068318,0.98911363
58bfee7de5869400018f5e9e,180,3,2024-02-27T10:22:39.907Z,french_582.wav,0,pull,233,37,5,5,francais,m,0,0.0,1.47980053,0.83350323
58bfee7de5869400018f5e9e,180,3,2024-02-27T10:22:39.907Z,french_582.wav,0,pull,233,37,5,5,francais,m,1,0.1,-89.13888063,1.99658076
58bfee7de5869400018f5e9e,180,3,2024-02-27T10:22:39.907Z,french_582.wav,0,pull,233,37,5,5,francais,m,2,0.2,1.45566029,0.72464724
58bfee7de5869400018f5e9e,180,3,2024-02-27T10:22:39.907Z,french_582.wav,0,pull,233,37,5,5,francais,m,3,0.25666667,-76.25724372,1.09622387
58bfee7de5869400018f5e9e,181,3,2024-02-27T10:22:39.907Z,french_635.wav,0,pull,213,37,5,5,francais,m,0,0.0,33.90344979,1.89496442
58bfee7de5869400018f5e9e,181,3,2024-02-27T10:22:39.907Z,french_635.wav,0,pull,213,37,5,5,francais,m,1,0.1,-75.47627702,0.79794333
58bfee7de5869400018f5e9e,181,3,2024-02-27T10:22:39.907Z,french_635.wav,0,pull,213,37,5,5,francais,m,2,0.2,49.7914685,1.70645199
58bfee7de5869400018f5e9e,181,3,2024-02-27T10:22:39.907Z,french_635.wav,0,pull,213,37,5,5,francais,m,3,0.25666667,43.41419086,1.41022612
58bfee7de5869400018f5e9e,182,3,2024-02-27T10:22:39.907Z,french_545.wav,0,pull,152,37,5,5,francais,m,0,0.0,-11.63741059,1.28855558
58bfee7de5869400018f5e9e,182,3,2024-02-27T10:22:39.907Z,french_545.wav,0,pull,152,37,5,5,francais,m,1,0.1,-9.34763636,0.4133233
58bfee7de5869400018f5e9e,182,3,2024-02-27T10:22:39.907Z,french_545.wav,0,pull,152,37,5,5,francais,m,2,0.2,-52.50880558,1.98413737
58bfee7de5869400018f5e9e,182,3,2024-02-27T10:22:39.907Z,french_545.wav,0,pull,152,37,5,5,francais,m,3,0.25666667,-35.41027588,0.10366118
58bfee7de5869400018f5e9e,183,3,2024-02-27T10:22:39.907Z,french_565.wav,0,pull,246,37,5,5,francais,m,0,0.0,50.78822436,1.00864226
58bfee7de5869400018f5e9e,183,3,2024-02-27T10:22:39.907Z,french_565.wav,0,pull,246,37,5,5,francais,m,1,0.1,-75.93967217,1.52231663
58bfee7de5869400018f5e9e,183,3,2024-02-27T10:22:39.907Z,french_565.wav,0,pull,246,37,5,5,francais,m,2,0.2,-58.95969425,0.24874103
58bfee7de5869400018f5e9e,183,3,2024-02-27T10:22:39.907Z,french_565.wav,0,pull,246,37,5,5,francais,m,3,0.25666667,-53.32673619,1.47271882
58bfee7de5869400018f5e9e,184,3,2024-02-27T10:22:39.907Z,french_9.wav,0,poule,122,37,5,5,francais,m,0,0.0,19.3207086,1.35934995
58bfee7de5869400018f5e9e,184,3,2024-02-27T10:22:39.907Z,french_9.wav,0,poule,122,37,5,5,francais,m,1,0.1,55.1250277,1.31727385
58bfee7de5869400018f5e9e,184,3,2024-02-27T10:22:39.907Z,french_9.wav,0,poule,122,37,5,5,francais,m,2,0.2,31.60633129,0.52824511
58bfee7de5869400018f5e9e,184,3,2024-02-27T10:22:39.907Z,french_9.wav,0,poule,122,37,5,5,francais,m,3,0.25666667,31.4464946,1.75131645
58bfee7de5869400018f5e9e,185,3,2024-02-27T10:22:39.907Z,french_273.wav,0,pull,453,37,5,5,francais,m,0,0.0,-64.70279697,0.53531099
58bfee7de5869400018f5e9e,185,3,2024-02-27T10:22:39.907Z,french_273.wav,0,pull,453,37,5,5,francais,m,1,0.1,51.79292953,0.11586536
58bfee7de5869400018f5e9e,185,3,2024-02-27T10:22:39.907Z,french_273.wav,0,pull,453,37,5,5,francais,m,2,0.2,-96.4801009,0.21168864
58bfee7de5869400018f5e9e,185,3,2024-02-27T10:22:39.907Z,french_273.wav,0,pull,453,37,5,5,francais,m,3,0.25666667,93.42641001,1.2771199
58bfee7de5869400018f5e9e,186,3,2024-02-27T10:22:39.907Z,french_490.wav,0,poule,349,37,5,5,francais,m,0,0.0,-77.54246231,1.03559912
58bfee7de5869400018f5e9e,186,3,2024-02-27T10:22:39.907Z,french_490.wav,0,poule,349,37,5,5,francais,m,1,0.1,-0.13066058,0.94588293
58bfee7de5869400018f5e9e,186,3,2024-02-27T10:22:39.907Z,french_490.wav,0,poule,349,37,5,5,francais,m,2,0.2,-90.37490593,1.16449319
58bfee7de5869400018f5e9e,186,3,2024-02-27T10:22:39.907Z,french_490.wav,0,poule,349,37,5,5,francais,m,3,0.25666667,62.21960288,1.46557017
58bfee7de5869400018f5e9e,187,3,2024-02-27T10:22:39.907Z,french_67.wav,0,pull,395,37,5,5,francais,m,0,0.0,-85.58948589,0.63200809
58bfee7de5869400018f5e9e,187,3,2024-02-27T10:22:39.907Z,french_67.wav,0,pull,395,37,5,5,francais,m,1,0.1,13.09838054,1.95867716
58bfee7de5869400018f5e9e,187,3,2024-02-27T10:22:39.907Z,french_67.wav,0,pull,395,37,5,5,francais,m,2,0.2,-56.56906679,0.48937635
58bfee7de5869400018f5e9e,187,3,2024-02-27T10:22:39.907Z,french_67.wav,0,pull,395,37,5,5,francais,m,3,0.25666667,57.4599261,1.24156625
58bfee7de5869400018f5e9e,188,3,2024-02-27T10:22:39.907Z,french_713.wav,0,poule,500,37,5,5,francais,m,0,0.0,93.33204992,0.23689023
58bfee7de5869400018f5e9e,188,3,2024-02-27T10:22:39.907Z,french_713.wav,0,poule,500,37,5,5,francais,m,1,0.1,-15.69856834,0.32059987
58bfee7de5869400018f5e9e,188,3,2024-02-27T10:22:39.907Z,french_713.wav,0,poule,500,37,5,5,francais,m,2,0.2,18.82527382,0.78497323
58bfee7de5869400018f5e9e,188,3,2024-02-27T10:22:39.907Z,french_713.wav,0,poule,500,37,5,5,francais,m,3,0.25666667,-49.17212055,0.28269646
58bfee7de5869400018f5e9e,189,3,2024-02-27T10:22:39.907Z,french_682.wav,0,pull,235,37,5,5,francais,m,0,0.0,-16.33102186,0.79850708
58bfee7de5869400018f5e9e,189,3,2024-02-27T10:22:39.907Z,french_682.wav,0,pull,235,37,5,5,francais,m,1,0.1,-49.72009429,1.31273679
58bfee7de5869400018f5e9e,189,3,2024-02-27T10:22:39.907Z,french_682.wav,0,pull,235,37,5,5,francais,m,2,0.2,-23.39596266,1.51298147
58bfee7de5869400018f5e9e,189,3,2024-02-27T10:22:39.907Z,french_682.wav,0,pull,235,37,5,5,francais,m,3,0.25666667,-34.72439006,0.92861139
58bfee7de5869400018f5e9e,190,3,2024-02-27T10:22:39.907Z,french_89.wav,0,poule,621,37,5,5,francais,m,0,0.0,-79.59355323,1.69180454
58bfee7de5869400018f5e9e,190,3,2024-02-27T10:22:39.907Z,french_89.wav,0,poule,621,37,5,5,francais,m,1,0.1,-86.9945706,1.08047967
