subj,trial,block,date,stim,stim_order,response,rt,age,english,french,language,sex,param_index,segment,pitch,stretch
5b8fffca220be50001c59858,0,0,2024-02-27T09:57:04.751Z,french_258.wav,0,pull,1983,26,5,5,français,f,0,0.0,49.87761594,0.27922365
5b8fffca220be50001c59858,0,0,2024-02-27T09:57:04.751Z,french_258.wav,0,pull,1983,26,5,5,français,f,1,0.1,-83.77774399,1.89432374
5b8fffca220be50001c59858,0,0,2024-02-27T09:57:04.751Z,french_258.wav,0,pull,1983,26,5,5,français,f,2,0.2,58.69904626,0.22934206
5b8fffca220be50001c59858,0,0,2024-02-27T09:57:04.751Z,french_258.wav,0,pull,1983,26,5,5,français,f,3,0.25666667,-57.68721695,0.35615934
5b8fffca220be50001c59858,1,0,2024-02-27T09:57:04.751Z,french_954.wav,0,poule,1619,26,5,5,français,f,0,0.0,-31.81965022,1.69468269
5b8fffca220be50001c59858,1,0,2024-02-27T09:57:04.751Z,french_954.wav,0,poule,1619,26,5,5,français,f,1,0.1,82.90828133,0.7734121
5b8fffca220be50001c59858,1,0,2024-02-27T09:57:04.751Z,french_954.wav,0,poule,1619,26,5,5,français,f,2,0.2,94.68318648,0.43346946
5b8fffca220be50001c59858,1,0,2024-02-27T09:57:04.751Z,french_954.wav,0,poule,1619,26,5,5,français,f,3,0.25666667,-42.01635115,0.14112827
5b8fffca220be50001c59858,2,0,2024-02-27T09:57:04.751Z,french_543.wav,0,pull,1045,26,5,5,français,f,0,0.0,99.95964938,0.10365101
5b8fffca220be50001c59858,2,0,2024-02-27T09:57:04.751Z,french_543.wav,0,pull,1045,26,5,5,français,f,1,0.1,62.1224346,1.02026934
5b8fffca220be50001c59858,2,0,2024-02-27T09:57:04.751Z,french_543.wav,0,pull,1045,26,5,5,français,f,2,0.2,-10.06540024,0.56488883
5b8fffca220be50001c59858,2,0,2024-02-27T09:57:04.751Z,french_543.wav,0,pull,1045,26,5,5,français,f,3,0.25666667,-5.35888672,0.3884986
5b8fffca220be50001c59858,3,0,2024-02-27T09:57:04.751Z,french_445.wav,0,poule,1363,26,5,5,français,f,0,0.0,8.73559539,0.8054478
5b8fffca220be50001c59858,3,0,2024-02-27T09:57:04.751Z,french_445.wav,0,poule,1363,26,5,5,français,f,1,0.1,-22.15313252,1.73211315
5b8fffca220be50001c59858,3,0,2024-02-27T09:57:04.751Z,french_445.wav,0,poule,1363,26,5,5,français,f,2,0.2,26.0955013,0.21896619
5b8fffca220be50001c59858,3,0,2024-02-27T09:57:04.751Z,french_445.wav,0,poule,1363,26,5,5,français,f,3,0.25666667,22.70157082,0.54256666
5b8fffca220be50001c59858,4,0,2024-02-27T09:57:04.751Z,french_420.wav,0,pull,2848,26,5,5,français,f,0,0.0,-21.03631645,1.00707818
5b8fffca220be50001c59858,4,0,2024-02-27T09:57:04.751Z,french_420.wav,0,pull,2848,26,5,5,français,f,1,0.1,59.70125687,0.92270488
5b8fffca220be50001c59858,4,0,2024-02-27T09:57:04.751Z,french_420.wav,0,pull,2848,26,5,5,français,f,2,0.2,54.71539052,1.69105963
5b8fffca220be50001c59858,4,0,2024-02-27T09:57:04.751Z,french_420.wav,0,pull,2848,26,5,5,français,f,3,0.25666667,38.49486436,0.9671157
5b8fffca220be50001c59858,5,0,2024-02-27T09:57:04.751Z,french_30.wav,0,pull,1528,26,5,5,français,f,0,0.0,76.62673318,0.98317975
5b8fffca220be50001c59858,5,0,2024-02-27T09:57:04.751Z,french_30.wav,0,pull,1528,26,5,5,français,f,1,0.1,68.4553342,1.99903841
5b8fffca220be50001c59858,5,0,2024-02-27T09:57:04.751Z,french_30.wav,0,pull,1528,26,5,5,français,f,2,0.2,55.51592845,1.19167606
5b8fffca220be50001c59858,5,0,2024-02-27T09:57:04.751Z,french_30.wav,0,pull,1528,26,5,5,français,f,3,0.25666667,80.18190702,0.01328513
5b8fffca220be50001c59858,6,0,2024-02-27T09:57:04.751Z,french_143.wav,0,poule,934,26,5,5,français,f,0,0.0,-46.09253598,1.27633083
5b8fffca220be50001c59858,6,0,2024-02-27T09:57:04.751Z,french_143.wav,0,poule,934,26,5,5,français,f,1,0.1,41.21858491,0.28919458
5b8fffca220be50001c59858,6,0,2024-02-27T09:57:04.751Z,french_143.wav,0,poule,934,26,5,5,français,f,2,0.2,10.38405582,0.61917155
5b8fffca220be50001c59858,6,0,2024-02-27T09:57:04.751Z,french_143.wav,0,poule,934,26,5,5,français,f,3,0.25666667,-99.98168054,0.37925836
5b8fffca220be50001c59858,7,0,2024-02-27T09:57:04.751Z,french_214.wav,0,poule,1106,26,5,5,français,f,0,0.0,76.24554567,0.83658468
5b8fffca220be50001c59858,7,0,2024-02-27T09:57:04.751Z,french_214.wav,0,poule,1106,26,5,5,français,f,1,0.1,-45.01894732,0.66247732
5b8fffca220be50001c59858,7,0,2024-02-27T09:57:04.751Z,french_214.wav,0,poule,1106,26,5,5,français,f,2,0.2,36.56408721,0.57350576
5b8fffca220be50001c59858,7,0,2024-02-27T09:57:04.751Z,french_214.wav,0,poule,1106,26,5,5,français,f,3,0.25666667,-35.03381059,1.70097913
5b8fffca220be50001c59858,8,0,2024-02-27T09:57:04.751Z,french_505.wav,0,poule,697,26,5,5,français,f,0,0.0,-38.72168331,1.89725183
5b8fffca220be50001c59858,8,0,2024-02-27T09:57:04.751Z,french_505.wav,0,poule,697,26,5,5,français,f,1,0.1,-12.49542568,0.88243769
5b8fffca220be50001c59858,8,0,2024-02-27T09:57:04.751Z,french_505.wav,0,poule,697,26,5,5,français,f,2,0.2,71.90880982,1.24748728
5b8fffca220be50001c59858,8,0,2024-02-27T09:57:04.751Z,french_505.wav,0,poule,697,26,5,5,français,f,3,0.25666667,-94.40337553,0.62032879
5b8fffca220be50001c59858,9,0,2024-02-27T09:57:04.751Z,french_671.wav,0,pull,1323,26,5,5,français,f,0,0.0,-43.02390558,0.93196934
5b8fffca220be50001c59858,9,0,2024-02-27T09:57:04.751Z,french_671.wav,0,pull,1323,26,5,5,français,f,1,0.1,13.89093856,1.15314194
5b8fffca220be50001c59858,9,0,2024-02-27T09:57:04.751Z,french_671.wav,0,pull,1323,26,5,5,français,f,2,0.2,3.48608914,0.54353121
5b8fffca220be50001c59858,9,0,2024-02-27T09:57:04.751Z,french_671.wav,0,pull,1323,26,5,5,français,f,3,0.25666667,-98.36263583,1.08598707
5b8fffca220be50001c59858,10,0,2024-02-27T09:57:04.751Z,french_778.wav,0,poule,443,26,5,5,français,f,0,0.0,-2.76577218,0.74255963
5b8fffca220be50001c59858,10,0,2024-02-27T09:57:04.751Z,french_778.wav,0,poule,443,26,5,5,français,f,1,0.1,4.49344871,1.48176587
5b8fffca220be50001c59858,10,0,2024-02-27T09:57:04.751Z,french_778.wav,0,poule,443,26,5,5,français,f,2,0.2,68.81762054,1.59399306
5b8fffca220be50001c59858,10,0,2024-02-27T09:57:04.751Z,french_778.wav,0,poule,443,26,5,5,français,f,3,0.25666667,89.13075651,1.18058537
5b8fffca220be50001c59858,11,0,2024-02-27T09:57:04.751Z,french_541.wav,0,poule,392,26,5,5,français,f,0,0.0,53.31308138,1.84251248
5b8fffca220be50001c59858,11,0,2024-02-27T09:57:04.751Z,french_541.wav,0,poule,392,26,5,5,français,f,1,0.1,48.16539561,0.97729738
5b8fffca220be50001c59858,11,0,2024-02-27T09:57:04.751Z,french_541.wav,0,poule,392,26,5,5,français,f,2,0.2,-38.85260984,1.28801687
5b8fffca220be50001c59858,11,0,2024-02-27T09:57:04.751Z,french_541.wav,0,poule,392,26,5,5,français,f,3,0.25666667,47.13501746,0.86548213
5b8fffca220be50001c59858,12,0,2024-02-27T09:57:04.751Z,french_920.wav,0,poule,389,26,5,5,français,f,0,0.0,98.83591172,0.7646584
5b8fffca220be50001c59858,12,0,2024-02-27T09:57:04.751Z,french_920.wav,0,poule,389,26,5,5,français,f,1,0.1,-64.95643085,1.02879579
5b8fffca220be50001c59858,12,0,2024-02-27T09:57:04.751Z,french_920.wav,0,poule,389,26,5,5,français,f,2,0.2,1.57326281,1.0684491
5b8fffca220be50001c59858,12,0,2024-02-27T09:57:04.751Z,french_920.wav,0,poule,389,26,5,5,français,f,3,0.25666667,-25.63648329,0.89198175
5b8fffca220be50001c59858,13,0,2024-02-27T09:57:04.751Z,french_737.wav,0,pull,673,26,5,5,français,f,0,0.0,13.02374388,1.19502519
5b8fffca220be50001c59858,13,0,2024-02-27T09:57:04.751Z,french_737.wav,0,pull,673,26,5,5,français,f,1,0.1,-10.41694685,0.96501463
5b8fffca220be50001c59858,13,0,2024-02-27T09:57:04.751Z,french_737.wav,0,pull,673,26,5,5,français,f,2,0.2,-16.29618142,0.50712422
5b8fffca220be50001c59858,13,0,2024-02-27T09:57:04.751Z,french_737.wav,0,pull,673,26,5,5,français,f,3,0.25666667,15.62671798,0.54653665
5b8fffca220be50001c59858,14,0,2024-02-27T09:57:04.751Z,french_117.wav,0,pull,554,26,5,5,français,f,0,0.0,6.74214439,0.42718416
5b8fffca220be50001c59858,14,0,2024-02-27T09:57:04.751Z,french_117.wav,0,pull,554,26,5,5,français,f,1,0.1,3.15736066,1.82203077
5b8fffca220be50001c59858,14,0,2024-02-27T09:57:04.751Z,french_117.wav,0,pull,554,26,5,5,français,f,2,0.2,10.42128043,0.49696174
5b8fffca220be50001c59858,14,0,2024-02-27T09:57:04.751Z,french_117.wav,0,pull,554,26,5,5,français,f,3,0.25666667,89.20041031,0.34350523
5b8fffca220be50001c59858,15,0,2024-02-27T09:57:04.751Z,french_187.wav,0,pull,824,26,5,5,français,f,0,0.0,-18.61743148,0.79177474
5b8fffca220be50001c59858,15,0,2024-02-27T09:57:04.751Z,french_187.wav,0,pull,824,26,5,5,français,f,1,0.1,27.93687652,0.90472294
5b8fffca220be50001c59858,15,0,2024-02-27T09:57:04.751Z,french_187.wav,0,pull,824,26,5,5,français,f,2,0.2,6.26647606,1.3885115
5b8fffca220be50001c59858,15,0,2024-02-27T09:57:04.751Z,french_187.wav,0,pull,824,26,5,5,français,f,3,0.25666667,58.88972832,1.88547829
5b8fffca220be50001c59858,16,0,2024-02-27T09:57:04.751Z,french_473.wav,0,poule,1383,26,5,5,français,f,0,0.0,-59.88543895,0.32878746
5b8fffca220be50001c59858,16,0,2024-02-27T09:57:04.751Z,french_473.wav,0,poule,1383,26,5,5,français,f,1,0.1,36.52277503,0.29204452
5b8fffca220be50001c59858,16,0,2024-02-27T09:57:04.751Z,french_473.wav,0,poule,1383,26,5,5,français,f,2,0.2,-76.47045714,0.65259503
5b8fffca220be50001c59858,16,0,2024-02-27T09:57:04.751Z,french_473.wav,0,poule,1383,26,5,5,français,f,3,0.25666667,-69.05057232,0.35645849
5b8fffca220be50001c59858,17,0,2024-02-27T09:57:04.751Z,french_827.wav,0,pull,1064,26,5,5,français,f,0,0.0,52.76736232,0.65431252
5b8fffca220be50001c59858,17,0,2024-02-27T09:57:04.751Z,french_827.wav,0,pull,1064,26,5,5,français,f,1,0.1,43.3684124,1.37281261
5b8fffca220be50001c59858,17,0,2024-02-27T09:57:04.751Z,french_827.wav,0,pull,1064,26,5,5,français,f,2,0.2,5.13351566,0.35708699
5b8fffca220be50001c59858,17,0,2024-02-27T09:57:04.751Z,french_827.wav,0,pull,1064,26,5,5,français,f,3,0.25666667,57.45570888,0.33493738
5b8fffca220be50001c59858,18,0,2024-02-27T09:57:04.751Z,french_66.wav,0,pull,1129,26,5,5,français,f,0,0.0,3.84925572,1.88939432
5b8fffca220be50001c59858,18,0,2024-02-27T09:57:04.751Z,french_66.wav,0,pull,1129,26,5,5,français,f,1,0.1,75.48045935,0.3012797
5b8fffca220be50001c59858,18,0,2024-02-27T09:57:04.751Z,french_66.wav,0,pull,1129,26,5,5,français,f,2,0.2,22.76512124,0.5045755
5b8fffca220be50001c59858,18,0,2024-02-27T09:57:04.751Z,french_66.wav,0,pull,1129,26,5,5,français,f,3,0.25666667,45.08821781,1.63034278
5b8fffca220be50001c59858,19,0,2024-02-27T09:57:04.751Z,french_46.wav,0,poule,1593,26,5,5,français,f,0,0.0,-59.72524318,1.59606806
5b8fffca220be50001c59858,19,0,2024-02-27T09:57:04.751Z,french_46.wav,0,poule,1593,26,5,5,français,f,1,0.1,-28.22082853,1.01173367
5b8fffca220be50001c59858,19,0,2024-02-27T09:57:04.751Z,french_46.wav,0,poule,1593,26,5,5,français,f,2,0.2,2.0739194,0.40164164
5b8fffca220be50001c59858,19,0,2024-02-27T09:57:04.751Z,french_46.wav,0,poule,1593,26,5,5,français,f,3,0.25666667,-12.25343829,1.6352238
5b8fffca220be50001c59858,20,0,2024-02-27T09:57:04.751Z,french_289.wav,0,pull,1155,26,5,5,français,f,0,0.0,-36.76000605,0.0295717
5b8fffca220be50001c59858,20,0,2024-02-27T09:57:04.751Z,french_289.wav,0,pull,1155,26,5,5,français,f,1,0.1,10.32506406,0.30354321
5b8fffca220be50001c59858,20,0,2024-02-27T09:57:04.751Z,french_289.wav,0,pull,1155,26,5,5,français,f,2,0.2,-63.16699613,0.64873245
5b8fffca220be50001c59858,20,0,2024-02-27T09:57:04.751Z,french_289.wav,0,pull,1155,26,5,5,français,f,3,0.25666667,44.4452875,1.33679234
5b8fffca220be50001c59858,21,0,2024-02-27T09:57:04.751Z,french_222.wav,0,poule,1590,26,5,5,français,f,0,0.0,-98.35523197,0.13834953
5b8fffca220be50001c59858,21,0,2024-02-27T09:57:04.751Z,french_222.wav,0,poule,1590,26,5,5,français,f,1,0.1,61.03285987,0.55930016
5b8fffca220be50001c59858,21,0,2024-02-27T09:57:04.751Z,french_222.wav,0,poule,1590,26,5,5,français,f,2,0.2,-86.01422932,0.40370114
5b8fffca220be50001c59858,21,0,2024-02-27T09:57:04.751Z,french_222.wav,0,poule,1590,26,5,5,français,f,3,0.25666667,61.26386047,0.21495758
5b8fffca220be50001c59858,22,0,2024-02-27T09:57:04.751Z,french_723.wav,0,poule,1241,26,5,5,français,f,0,0.0,-46.61221312,0.88342187
5b8fffca220be50001c59858,22,0,2024-02-27T09:57:04.751Z,french_723.wav,0,poule,1241,26,5,5,français,f,1,0.1,-11.45492587,0.45371046
5b8fffca220be50001c59858,22,0,2024-02-27T09:57:04.751Z,french_723.wav,0,poule,1241,26,5,5,français,f,2,0.2,-2.50722763,1.8565603
5b8fffca220be50001c59858,22,0,2024-02-27T09:57:04.751Z,french_723.wav,0,poule,1241,26,5,5,français,f,3,0.25666667,-31.56133571,0.74236501
5b8fffca220be50001c59858,23,0,2024-02-27T09:57:04.751Z,french_966.wav,0,poule,579,26,5,5,français,f,0,0.0,94.80811126,1.26057873
5b8fffca220be50001c59858,23,0,2024-02-27T09:57:04.751Z,french_966.wav,0,poule,579,26,5,5,français,f,1,0.1,-90.73743651,1.58996588
5b8fffca220be50001c59858,23,0,2024-02-27T09:57:04.751Z,french_966.wav,0,poule,579,26,5,5,français,f,2,0.2,94.60686235,0.08752829
5b8fffca220be50001c59858,23,0,2024-02-27T09:57:04.751Z,french_966.wav,0,poule,579,26,5,5,français,f,3,0.25666667,-83.76406221,0.32239013
5b8fffca220be50001c59858,24,0,2024-02-27T09:57:04.751Z,french_874.wav,0,poule,992,26,5,5,français,f,0,0.0,-35.96007818,0.94126631
5b8fffca220be50001c59858,24,0,2024-02-27T09:57:04.751Z,french_874.wav,0,poule,992,26,5,5,français,f,1,0.1,93.27546243,1.47253108
5b8fffca220be50001c59858,24,0,2024-02-27T09:57:04.751Z,french_874.wav,0,poule,992,26,5,5,français,f,2,0.2,-82.54110259,1.71868685
5b8fffca220be50001c59858,24,0,2024-02-27T09:57:04.751Z,french_874.wav,0,poule,992,26,5,5,français,f,3,0.25666667,1.86870901,0.93280664
5b8fffca220be50001c59858,25,0,2024-02-27T09:57:04.751Z,french_942.wav,0,poule,506,26,5,5,français,f,0,0.0,-53.20970077,1.55725844
5b8fffca220be50001c59858,25,0,2024-02-27T09:57:04.751Z,french_942.wav,0,poule,506,26,5,5,français,f,1,0.1,-81.68739914,1.2093944
5b8fffca220be50001c59858,25,0,2024-02-27T09:57:04.751Z,french_942.wav,0,poule,506,26,5,5,français,f,2,0.2,39.47129185,0.05517711
5b8fffca220be50001c59858,25,0,2024-02-27T09:57:04.751Z,french_942.wav,0,poule,506,26,5,5,français,f,3,0.25666667,-77.13084916,1.56672295
5b8fffca220be50001c59858,26,0,2024-02-27T09:57:04.751Z,french_887.wav,0,pull,1092,26,5,5,français,f,0,0.0,68.65167503,1.16380924
5b8fffca220be50001c59858,26,0,2024-02-27T09:57:04.751Z,french_887.wav,0,pull,1092,26,5,5,français,f,1,0.1,-55.72044546,1.74073633
5b8fffca220be50001c59858,26,0,2024-02-27T09:57:04.751Z,french_887.wav,0,pull,1092,26,5,5,français,f,2,0.2,-97.59121662,1.00138394
5b8fffca220be50001c59858,26,0,2024-02-27T09:57:04.751Z,french_887.wav,0,pull,1092,26,5,5,français,f,3,0.25666667,-40.12897823,1.21780512
5b8fffca220be50001c59858,27,0,2024-02-27T09:57:04.751Z,french_489.wav,0,pull,502,26,5,5,français,f,0,0.0,0.49645075,0.76062229
5b8fffca220be50001c59858,27,0,2024-02-27T09:57:04.751Z,french_489.wav,0,pull,502,26,5,5,français,f,1,0.1,-49.42249353,1.72041063
5b8fffca220be50001c59858,27,0,2024-02-27T09:57:04.751Z,french_489.wav,0,pull,502,26,5,5,français,f,2,0.2,3.0196593,0.72496435
5b8fffca220be50001c59858,27,0,2024-02-27T09:57:04.751Z,french_489.wav,0,pull,502,26,5,5,français,f,3,0.25666667,11.9492669,0.84736567
5b8fffca220be50001c59858,28,0,2024-02-27T09:57:04.751Z,french_18.wav,0,pull,933,26,5,5,français,f,0,0.0,29.29326365,1.56476478
5b8fffca220be50001c59858,28,0,2024-02-27T09:57:04.751Z,french_18.wav,0,pull,933,26,5,5,français,f,1,0.1,-65.9497706,0.7748919
5b8fffca220be50001c59858,28,0,2024-02-27T09:57:04.751Z,french_18.wav,0,pull,933,26,5,5,français,f,2,0.2,-68.38187686,0.73946843
5b8fffca220be50001c59858,28,0,2024-02-27T09:57:04.751Z,french_18.wav,0,pull,933,26,5,5,français,f,3,0.25666667,26.32477662,1.33435109
5b8fffca220be50001c59858,29,0,2024-02-27T09:57:04.751Z,french_74.wav,0,poule,741,26,5,5,français,f,0,0.0,50.9707996,1.5114138
5b8fffca220be50001c59858,29,0,2024-02-27T09:57:04.751Z,french_74.wav,0,poule,741,26,5,5,français,f,1,0.1,-38.59052132,1.75968469
5b8fffca220be50001c59858,29,0,2024-02-27T09:57:04.751Z,french_74.wav,0,poule,741,26,5,5,français,f,2,0.2,-99.50726314,0.36574043
5b8fffca220be50001c59858,29,0,2024-02-27T09:57:04.751Z,french_74.wav,0,poule,741,26,5,5,français,f,3,0.25666667,55.85777384,0.66231561
5b8fffca220be50001c59858,30,0,2024-02-27T09:57:04.751Z,french_90.wav,0,poule,740,26,5,5,français,f,0,0.0,-66.53104779,1.39730001
5b8fffca220be50001c59858,30,0,2024-02-27T09:57:04.751Z,french_90.wav,0,poule,740,26,5,5,français,f,1,0.1,5.55931872,1.52187206
5b8fffca220be50001c59858,30,0,2024-02-27T09:57:04.751Z,french_90.wav,0,poule,740,26,5,5,français,f,2,0.2,41.91338709,1.66100559
5b8fffca220be50001c59858,30,0,2024-02-27T09:57:04.751Z,french_90.wav,0,poule,740,26,5,5,français,f,3,0.25666667,-36.12417317,1.31779225
5b8fffca220be50001c59858,31,0,2024-02-27T09:57:04.751Z,french_852.wav,0,poule,494,26,5,5,français,f,0,0.0,-21.25647341,1.59129412
5b8fffca220be50001c59858,31,0,2024-02-27T09:57:04.751Z,french_852.wav,0,poule,494,26,5,5,français,f,1,0.1,44.09899268,0.90931534
5b8fffca220be50001c59858,31,0,2024-02-27T09:57:04.751Z,french_852.wav,0,poule,494,26,5,5,français,f,2,0.2,-20.54343266,0.17046498
5b8fffca220be50001c59858,31,0,2024-02-27T09:57:04.751Z,french_852.wav,0,poule,494,26,5,5,français,f,3,0.25666667,-73.6389021,0.95788578
5b8fffca220be50001c59858,32,0,2024-02-27T09:57:04.751Z,french_822.wav,0,pull,2615,26,5,5,français,f,0,0.0,70.1141555,0.03091404
5b8fffca220be50001c59858,32,0,2024-02-27T09:57:04.751Z,french_822.wav,0,pull,2615,26,5,5,français,f,1,0.1,-32.80370271,1.54599653
5b8fffca220be50001c59858,32,0,2024-02-27T09:57:04.751Z,french_822.wav,0,pull,2615,26,5,5,français,f,2,0.2,9.36864383,0.45983016
5b8fffca220be50001c59858,32,0,2024-02-27T09:57:04.751Z,french_822.wav,0,pull,2615,26,5,5,français,f,3,0.25666667,-70.41865943,0.57036726
5b8fffca220be50001c59858,33,0,2024-02-27T09:57:04.751Z,french_191.wav,0,pull,1209,26,5,5,français,f,0,0.0,61.70033847,1.87867126
5b8fffca220be50001c59858,33,0,2024-02-27T09:57:04.751Z,french_191.wav,0,pull,1209,26,5,5,français,f,1,0.1,-19.77100541,0.40395676
5b8fffca220be50001c59858,33,0,2024-02-27T09:57:04.751Z,french_191.wav,0,pull,1209,26,5,5,français,f,2,0.2,-44.48193137,1.14362057
5b8fffca220be50001c59858,33,0,2024-02-27T09:57:04.751Z,french_191.wav,0,pull,1209,26,5,5,français,f,3,0.25666667,-92.19007218,1.68692384
5b8fffca220be50001c59858,34,0,2024-02-27T09:57:04.751Z,french_525.wav,0,pull,622,26,5,5,français,f,0,0.0,-55.71805546,1.48564319
5b8fffca220be50001c59858,34,0,2024-02-27T09:57:04.751Z,french_525.wav,0,pull,622,26,5,5,français,f,1,0.1,69.57832018,0.7646222
5b8fffca220be50001c59858,34,0,2024-02-27T09:57:04.751Z,french_525.wav,0,pull,622,26,5,5,français,f,2,0.2,-61.51619627,1.98360061
5b8fffca220be50001c59858,34,0,2024-02-27T09:57:04.751Z,french_525.wav,0,pull,622,26,5,5,français,f,3,0.25666667,-40.26288332,1.91122687
5b8fffca220be50001c59858,35,0,2024-02-27T09:57:04.751Z,french_5.wav,0,pull,716,26,5,5,français,f,0,0.0,-2.8714843,1.07181682
5b8fffca220be50001c59858,35,0,2024-02-27T09:57:04.751Z,french_5.wav,0,pull,716,26,5,5,français,f,1,0.1,-50.9441672,0.56733338
5b8fffca220be50001c59858,35,0,2024-02-27T09:57:04.751Z,french_5.wav,0,pull,716,26,5,5,français,f,2,0.2,56.21180826,0.26773361
5b8fffca220be50001c59858,35,0,2024-02-27T09:57:04.751Z,french_5.wav,0,pull,716,26,5,5,français,f,3,0.25666667,-57.18619957,1.97613039
5b8fffca220be50001c59858,36,0,2024-02-27T09:57:04.751Z,french_776.wav,0,poule,838,26,5,5,français,f,0,0.0,-9.17095967,0.42962635
5b8fffca220be50001c59858,36,0,2024-02-27T09:57:04.751Z,french_776.wav,0,poule,838,26,5,5,français,f,1,0.1,-70.57850226,1.70698124
5b8fffca220be50001c59858,36,0,2024-02-27T09:57:04.751Z,french_776.wav,0,poule,838,26,5,5,français,f,2,0.2,63.21349252,1.25010697
5b8fffca220be50001c59858,36,0,2024-02-27T09:57:04.751Z,french_776.wav,0,poule,838,26,5,5,français,f,3,0.25666667,59.47578694,1.52671833
5b8fffca220be50001c59858,37,0,2024-02-27T09:57:04.751Z,french_988.wav,0,poule,777,26,5,5,français,f,0,0.0,-4.11470775,0.28957615
5b8fffca220be50001c59858,37,0,2024-02-27T09:57:04.751Z,french_988.wav,0,poule,777,26,5,5,français,f,1,0.1,-66.00013865,0.7977557
5b8fffca220be50001c59858,37,0,2024-02-27T09:57:04.751Z,french_988.wav,0,poule,777,26,5,5,français,f,2,0.2,59.59027652,1.24206297
5b8fffca220be50001c59858,37,0,2024-02-27T09:57:04.751Z,french_988.wav,0,poule,777,26,5,5,français,f,3,0.25666667,0.47429662,1.11640868
5b8fffca220be50001c59858,38,0,2024-02-27T09:57:04.751Z,french_14.wav,0,poule,1705,26,5,5,français,f,0,0.0,29.04259121,1.27596418
5b8fffca220be50001c59858,38,0,2024-02-27T09:57:04.751Z,french_14.wav,0,poule,1705,26,5,5,français,f,1,0.1,-13.93862831,1.81664743
5b8fffca220be50001c59858,38,0,2024-02-27T09:57:04.751Z,french_14.wav,0,poule,1705,26,5,5,français,f,2,0.2,-3.57455278,1.61822265
5b8fffca220be50001c59858,38,0,2024-02-27T09:57:04.751Z,french_14.wav,0,poule,1705,26,5,5,français,f,3,0.25666667,14.81088412,1.58848758
5b8fffca220be50001c59858,39,0,2024-02-27T09:57:04.751Z,french_353.wav,0,pull,515,26,5,5,français,f,0,0.0,-27.01804801,0.51521002
5b8fffca220be50001c59858,39,0,2024-02-27T09:57:04.751Z,french_353.wav,0,pull,515,26,5,5,français,f,1,0.1,16.22716876,1.40915564
5b8fffca220be50001c59858,39,0,2024-02-27T09:57:04.751Z,french_353.wav,0,pull,515,26,5,5,français,f,2,0.2,-38.75476954,1.13160084
5b8fffca220be50001c59858,39,0,2024-02-27T09:57:04.751Z,french_353.wav,0,pull,515,26,5,5,français,f,3,0.25666667,38.92446625,0.21009684
5b8fffca220be50001c59858,40,0,2024-02-27T09:57:04.751Z,french_781.wav,0,pull,375,26,5,5,français,f,0,0.0,33.25938538,1.27105286
5b8fffca220be50001c59858,40,0,2024-02-27T09:57:04.751Z,french_781.wav,0,pull,375,26,5,5,français,f,1,0.1,-13.90292419,0.93357863
5b8fffca220be50001c59858,40,0,2024-02-27T09:57:04.751Z,french_781.wav,0,pull,375,26,5,5,français,f,2,0.2,-71.59350782,1.0124146
5b8fffca220be50001c59858,40,0,2024-02-27T09:57:04.751Z,french_781.wav,0,pull,375,26,5,5,français,f,3,0.25666667,57.07291034,0.68511696
5b8fffca220be50001c59858,41,0,2024-02-27T09:57:04.751Z,french_727.wav,0,pull,569,26,5,5,français,f,0,0.0,-15.29396541,0.40840987
5b8fffca220be50001c59858,41,0,2024-02-27T09:57:04.751Z,french_727.wav,0,pull,569,26,5,5,français,f,1,0.1,-26.29552155,0.3000398
5b8fffca220be50001c59858,41,0,2024-02-27T09:57:04.751Z,french_727.wav,0,pull,569,26,5,5,français,f,2,0.2,79.97121571,1.00640838
5b8fffca220be50001c59858,41,0,2024-02-27T09:57:04.751Z,french_727.wav,0,pull,569,26,5,5,français,f,3,0.25666667,55.89998316,1.06507384
5b8fffca220be50001c59858,42,0,2024-02-27T09:57:04.751Z,french_305.wav,0,pull,745,26,5,5,français,f,0,0.0,-54.69953739,0.89911595
5b8fffca220be50001c59858,42,0,2024-02-27T09:57:04.751Z,french_305.wav,0,pull,745,26,5,5,français,f,1,0.1,-55.57420142,0.95414013
5b8fffca220be50001c59858,42,0,2024-02-27T09:57:04.751Z,french_305.wav,0,pull,745,26,5,5,français,f,2,0.2,69.52625069,1.47998422
5b8fffca220be50001c59858,42,0,2024-02-27T09:57:04.751Z,french_305.wav,0,pull,745,26,5,5,français,f,3,0.25666667,-71.2713804,1.78847242
5b8fffca220be50001c59858,43,0,2024-02-27T09:57:04.751Z,french_970.wav,0,pull,610,26,5,5,français,f,0,0.0,45.66425393,0.15526341
5b8fffca220be50001c59858,43,0,2024-02-27T09:57:04.751Z,french_970.wav,0,pull,610,26,5,5,français,f,1,0.1,-82.79761983,0.70533305
5b8fffca220be50001c59858,43,0,2024-02-27T09:57:04.751Z,french_970.wav,0,pull,610,26,5,5,français,f,2,0.2,16.19264407,1.08595816
5b8fffca220be50001c59858,43,0,2024-02-27T09:57:04.751Z,french_970.wav,0,pull,610,26,5,5,français,f,3,0.25666667,56.04070076,0.89955958
5b8fffca220be50001c59858,44,0,2024-02-27T09:57:04.751Z,french_347.wav,0,pull,634,26,5,5,français,f,0,0.0,-50.57249908,1.7558536
5b8fffca220be50001c59858,44,0,2024-02-27T09:57:04.751Z,french_347.wav,0,pull,634,26,5,5,français,f,1,0.1,-0.96259157,0.42717605
5b8fffca220be50001c59858,44,0,2024-02-27T09:57:04.751Z,french_347.wav,0,pull,634,26,5,5,français,f,2,0.2,56.28626554,1.32943016
5b8fffca220be50001c59858,44,0,2024-02-27T09:57:04.751Z,french_347.wav,0,pull,634,26,5,5,français,f,3,0.25666667,46.89576118,0.4771217
5b8fffca220be50001c59858,45,0,2024-02-27T09:57:04.751Z,french_617.wav,0,pull,480,26,5,5,français,f,0,0.0,-34.18466024,0.10021852
5b8fffca220be50001c59858,45,0,2024-02-27T09:57:04.751Z,french_617.wav,0,pull,480,26,5,5,français,f,1,0.1,35.41565559,0.72859392
5b8fffca220be50001c59858,45,0,2024-02-27T09:57:04.751Z,french_617.wav,0,pull,480,26,5,5,français,f,2,0.2,59.04414741,0.77782194
5b8fffca220be50001c59858,45,0,2024-02-27T09:57:04.751Z,french_617.wav,0,pull,480,26,5,5,français,f,3,0.25666667,80.0519445,1.13599019
5b8fffca220be50001c59858,46,0,2024-02-27T09:57:04.751Z,french_855.wav,0,poule,478,26,5,5,français,f,0,0.0,2.71159552,1.64624975
5b8fffca220be50001c59858,46,0,2024-02-27T09:57:04.751Z,french_855.wav,0,poule,478,26,5,5,français,f,1,0.1,66.05842931,0.54809415
5b8fffca220be50001c59858,46,0,2024-02-27T09:57:04.751Z,french_855.wav,0,poule,478,26,5,5,français,f,2,0.2,41.00995311,1.64541289
5b8fffca220be50001c59858,46,0,2024-02-27T09:57:04.751Z,french_855.wav,0,poule,478,26,5,5,français,f,3,0.25666667,98.2962498,1.22205238
5b8fffca220be50001c59858,47,0,2024-02-27T09:57:04.751Z,french_449.wav,0,poule,514,26,5,5,français,f,0,0.0,49.95404734,0.88379096
5b8fffca220be50001c59858,47,0,2024-02-27T09:57:04.751Z,french_449.wav,0,poule,514,26,5,5,français,f,1,0.1,-42.73933853,1.13878319
5b8fffca220be50001c59858,47,0,2024-02-27T09:57:04.751Z,french_449.wav,0,poule,514,26,5,5,français,f,2,0.2,16.44287486,0.43325684
5b8fffca220be50001c59858,47,0,2024-02-27T09:57:04.751Z,french_449.wav,0,poule,514,26,5,5,français,f,3,0.25666667,-12.34539139,0.01727343
5b8fffca220be50001c59858,48,0,2024-02-27T09:57:04.751Z,french_17.wav,0,poule,448,26,5,5,français,f,0,0.0,61.86852427,1.05769551
5b8fffca220be50001c59858,48,0,2024-02-27T09:57:04.751Z,french_17.wav,0,poule,448,26,5,5,français,f,1,0.1,14.81642836,0.81667418
5b8fffca220be50001c59858,48,0,2024-02-27T09:57:04.751Z,french_17.wav,0,poule,448,26,5,5,français,f,2,0.2,-8.48865215,0.51249479
5b8fffca220be50001c59858,48,0,2024-02-27T09:57:04.751Z,french_17.wav,0,poule,448,26,5,5,français,f,3,0.25666667,71.68336874,0.29939213
5b8fffca220be50001c59858,49,0,2024-02-27T09:57:04.751Z,french_247.wav,0,poule,1124,26,5,5,français,f,0,0.0,31.18827639,0.50646138
5b8fffca220be50001c59858,49,0,2024-02-27T09:57:04.751Z,french_247.wav,0,poule,1124,26,5,5,français,f,1,0.1,28.69447174,0.63180121
5b8fffca220be50001c59858,49,0,2024-02-27T09:57:04.751Z,french_247.wav,0,poule,1124,26,5,5,français,f,2,0.2,-68.83088208,1.73165753
5b8fffca220be50001c59858,49,0,2024-02-27T09:57:04.751Z,french_247.wav,0,poule,1124,26,5,5,français,f,3,0.25666667,44.69710936,1.77415142
5b8fffca220be50001c59858,50,1,2024-02-27T09:59:04.500Z,french_218.wav,0,pull,1468,26,5,5,français,f,0,0.0,50.58163299,1.39700525
5b8fffca220be50001c59858,50,1,2024-02-27T09:59:04.500Z,french_218.wav,0,pull,1468,26,5,5,français,f,1,0.1,-62.47432707,0.24728847
5b8fffca220be50001c59858,50,1,2024-02-27T09:59:04.500Z,french_218.wav,0,pull,1468,26,5,5,français,f,2,0.2,-11.24403131,1.10420939
5b8fffca220be50001c59858,50,1,2024-02-27T09:59:04.500Z,french_218.wav,0,pull,1468,26,5,5,français,f,3,0.25666667,-76.23808147,0.34157158
5b8fffca220be50001c59858,51,1,2024-02-27T09:59:04.500Z,french_915.wav,0,pull,399,26,5,5,français,f,0,0.0,-64.10930236,0.7615396
5b8fffca220be50001c59858,51,1,2024-02-27T09:59:04.500Z,french_915.wav,0,pull,399,26,5,5,français,f,1,0.1,-7.16601985,1.77142655
5b8fffca220be50001c59858,51,1,2024-02-27T09:59:04.500Z,french_915.wav,0,pull,399,26,5,5,français,f,2,0.2,-76.9677693,1.45350334
5b8fffca220be50001c59858,51,1,2024-02-27T09:59:04.500Z,french_915.wav,0,pull,399,26,5,5,français,f,3,0.25666667,64.27469246,1.62999495
5b8fffca220be50001c59858,52,1,2024-02-27T09:59:04.500Z,french_717.wav,0,poule,685,26,5,5,français,f,0,0.0,-84.32189387,1.00877352
5b8fffca220be50001c59858,52,1,2024-02-27T09:59:04.500Z,french_717.wav,0,poule,685,26,5,5,français,f,1,0.1,40.2374262,0.42603024
5b8fffca220be50001c59858,52,1,2024-02-27T09:59:04.500Z,french_717.wav,0,poule,685,26,5,5,français,f,2,0.2,80.19404777,0.00517131
5b8fffca220be50001c59858,52,1,2024-02-27T09:59:04.500Z,french_717.wav,0,poule,685,26,5,5,français,f,3,0.25666667,-31.07147466,1.19241547
5b8fffca220be50001c59858,53,1,2024-02-27T09:59:04.500Z,french_25.wav,0,poule,370,26,5,5,français,f,0,0.0,46.82844357,1.1493518
5b8fffca220be50001c59858,53,1,2024-02-27T09:59:04.500Z,french_25.wav,0,poule,370,26,5,5,français,f,1,0.1,5.52502331,1.41536953
5b8fffca220be50001c59858,53,1,2024-02-27T09:59:04.500Z,french_25.wav,0,poule,370,26,5,5,français,f,2,0.2,-34.25373026,0.41949869
5b8fffca220be50001c59858,53,1,2024-02-27T09:59:04.500Z,french_25.wav,0,poule,370,26,5,5,français,f,3,0.25666667,-52.44039001,0.5013656
5b8fffca220be50001c59858,54,1,2024-02-27T09:59:04.500Z,french_486.wav,0,poule,435,26,5,5,français,f,0,0.0,-65.13732965,0.7755652
5b8fffca220be50001c59858,54,1,2024-02-27T09:59:04.500Z,french_486.wav,0,poule,435,26,5,5,français,f,1,0.1,-93.57114331,0.9577819
5b8fffca220be50001c59858,54,1,2024-02-27T09:59:04.500Z,french_486.wav,0,poule,435,26,5,5,français,f,2,0.2,-51.69797787,0.68553835
5b8fffca220be50001c59858,54,1,2024-02-27T09:59:04.500Z,french_486.wav,0,poule,435,26,5,5,français,f,3,0.25666667,-3.30938414,0.55056833
5b8fffca220be50001c59858,55,1,2024-02-27T09:59:04.500Z,french_619.wav,0,poule,724,26,5,5,français,f,0,0.0,-58.15289928,0.63115023
5b8fffca220be50001c59858,55,1,2024-02-27T09:59:04.500Z,french_619.wav,0,poule,724,26,5,5,français,f,1,0.1,30.86987971,0.12868397
5b8fffca220be50001c59858,55,1,2024-02-27T09:59:04.500Z,french_619.wav,0,poule,724,26,5,5,français,f,2,0.2,96.84221096,0.73139592
5b8fffca220be50001c59858,55,1,2024-02-27T09:59:04.500Z,french_619.wav,0,poule,724,26,5,5,français,f,3,0.25666667,69.41225319,1.17738103
5b8fffca220be50001c59858,56,1,2024-02-27T09:59:04.500Z,french_450.wav,0,pull,555,26,5,5,français,f,0,0.0,32.27162082,0.11495553
5b8fffca220be50001c59858,56,1,2024-02-27T09:59:04.500Z,french_450.wav,0,pull,555,26,5,5,français,f,1,0.1,-17.74326064,0.2876958
5b8fffca220be50001c59858,56,1,2024-02-27T09:59:04.500Z,french_450.wav,0,pull,555,26,5,5,français,f,2,0.2,22.97944113,0.75841823
5b8fffca220be50001c59858,56,1,2024-02-27T09:59:04.500Z,french_450.wav,0,pull,555,26,5,5,français,f,3,0.25666667,-64.06857585,0.46502657
5b8fffca220be50001c59858,57,1,2024-02-27T09:59:04.500Z,french_630.wav,0,pull,387,26,5,5,français,f,0,0.0,77.73428331,1.3363399
5b8fffca220be50001c59858,57,1,2024-02-27T09:59:04.500Z,french_630.wav,0,pull,387,26,5,5,français,f,1,0.1,-25.60495453,1.21399003
5b8fffca220be50001c59858,57,1,2024-02-27T09:59:04.500Z,french_630.wav,0,pull,387,26,5,5,français,f,2,0.2,64.05787884,0.69039687
5b8fffca220be50001c59858,57,1,2024-02-27T09:59:04.500Z,french_630.wav,0,pull,387,26,5,5,français,f,3,0.25666667,12.38181906,0.92340198
5b8fffca220be50001c59858,58,1,2024-02-27T09:59:04.500Z,french_195.wav,0,poule,1091,26,5,5,français,f,0,0.0,-1.90342588,0.62941576
5b8fffca220be50001c59858,58,1,2024-02-27T09:59:04.500Z,french_195.wav,0,poule,1091,26,5,5,français,f,1,0.1,-8.12665825,1.90753939
5b8fffca220be50001c59858,58,1,2024-02-27T09:59:04.500Z,french_195.wav,0,poule,1091,26,5,5,français,f,2,0.2,-5.61431002,1.47732259
5b8fffca220be50001c59858,58,1,2024-02-27T09:59:04.500Z,french_195.wav,0,poule,1091,26,5,5,français,f,3,0.25666667,-66.29175925,0.68212586
5b8fffca220be50001c59858,59,1,2024-02-27T09:59:04.500Z,french_472.wav,0,poule,382,26,5,5,français,f,0,0.0,-9.46806957,0.85855516
5b8fffca220be50001c59858,59,1,2024-02-27T09:59:04.500Z,french_472.wav,0,poule,382,26,5,5,français,f,1,0.1,45.81973918,1.60383991
5b8fffca220be50001c59858,59,1,2024-02-27T09:59:04.500Z,french_472.wav,0,poule,382,26,5,5,français,f,2,0.2,-32.95266456,0.80244772
5b8fffca220be50001c59858,59,1,2024-02-27T09:59:04.500Z,french_472.wav,0,poule,382,26,5,5,français,f,3,0.25666667,-10.56557549,1.48234138
5b8fffca220be50001c59858,60,1,2024-02-27T09:59:04.500Z,french_156.wav,0,poule,593,26,5,5,français,f,0,0.0,31.92379501,1.0555525
5b8fffca220be50001c59858,60,1,2024-02-27T09:59:04.500Z,french_156.wav,0,poule,593,26,5,5,français,f,1,0.1,-44.87917853,1.35077548
5b8fffca220be50001c59858,60,1,2024-02-27T09:59:04.500Z,french_156.wav,0,poule,593,26,5,5,français,f,2,0.2,-30.25450012,0.66649605
5b8fffca220be50001c59858,60,1,2024-02-27T09:59:04.500Z,french_156.wav,0,poule,593,26,5,5,français,f,3,0.25666667,-8.41227372,1.59075988
5b8fffca220be50001c59858,61,1,2024-02-27T09:59:04.500Z,french_201.wav,0,poule,299,26,5,5,français,f,0,0.0,8.42387769,1.26451206
5b8fffca220be50001c59858,61,1,2024-02-27T09:59:04.500Z,french_201.wav,0,poule,299,26,5,5,français,f,1,0.1,8.12168757,1.63493769
5b8fffca220be50001c59858,61,1,2024-02-27T09:59:04.500Z,french_201.wav,0,poule,299,26,5,5,français,f,2,0.2,-23.47755607,1.48075017
5b8fffca220be50001c59858,61,1,2024-02-27T09:59:04.500Z,french_201.wav,0,poule,299,26,5,5,français,f,3,0.25666667,-30.65193461,1.0984385
5b8fffca220be50001c59858,62,1,2024-02-27T09:59:04.500Z,french_425.wav,0,pull,1048,26,5,5,français,f,0,0.0,36.0896382,0.72680638
5b8fffca220be50001c59858,62,1,2024-02-27T09:59:04.500Z,french_425.wav,0,pull,1048,26,5,5,français,f,1,0.1,-60.28824884,0.01839492
5b8fffca220be50001c59858,62,1,2024-02-27T09:59:04.500Z,french_425.wav,0,pull,1048,26,5,5,français,f,2,0.2,-83.12671609,1.09901753
5b8fffca220be50001c59858,62,1,2024-02-27T09:59:04.500Z,french_425.wav,0,pull,1048,26,5,5,français,f,3,0.25666667,32.66103116,1.13928828
5b8fffca220be50001c59858,63,1,2024-02-27T09:59:04.500Z,french_789.wav,0,poule,444,26,5,5,français,f,0,0.0,16.13130467,1.41580253
5b8fffca220be50001c59858,63,1,2024-02-27T09:59:04.500Z,french_789.wav,0,poule,444,26,5,5,français,f,1,0.1,-53.51301261,1.63533644
5b8fffca220be50001c59858,63,1,2024-02-27T09:59:04.500Z,french_789.wav,0,poule,444,26,5,5,français,f,2,0.2,91.10833978,0.42839577
5b8fffca220be50001c59858,63,1,2024-02-27T09:59:04.500Z,french_789.wav,0,poule,444,26,5,5,français,f,3,0.25666667,9.61415248,0.64971622
5b8fffca220be50001c59858,64,1,2024-02-27T09:59:04.500Z,french_847.wav,0,poule,636,26,5,5,français,f,0,0.0,-8.33122073,1.64160395
5b8fffca220be50001c59858,64,1,2024-02-27T09:59:04.500Z,french_847.wav,0,poule,636,26,5,5,français,f,1,0.1,28.51239659,0.11991739
5b8fffca220be50001c59858,64,1,2024-02-27T09:59:04.500Z,french_847.wav,0,poule,636,26,5,5,français,f,2,0.2,-26.33136573,1.12824789
5b8fffca220be50001c59858,64,1,2024-02-27T09:59:04.500Z,french_847.wav,0,poule,636,26,5,5,français,f,3,0.25666667,21.45038454,0.68287375
5b8fffca220be50001c59858,65,1,2024-02-27T09:59:04.500Z,french_120.wav,0,poule,800,26,5,5,français,f,0,0.0,59.29212404,1.04724114
5b8fffca220be50001c59858,65,1,2024-02-27T09:59:04.500Z,french_120.wav,0,poule,800,26,5,5,français,f,1,0.1,4.80411823,0.97380182
5b8fffca220be50001c59858,65,1,2024-02-27T09:59:04.500Z,french_120.wav,0,poule,800,26,5,5,français,f,2,0.2,12.26509955,0.22521264
5b8fffca220be50001c59858,65,1,2024-02-27T09:59:04.500Z,french_120.wav,0,poule,800,26,5,5,français,f,3,0.25666667,-79.44354783,0.8027629
5b8fffca220be50001c59858,66,1,2024-02-27T09:59:04.500Z,french_139.wav,0,poule,457,26,5,5,français,f,0,0.0,55.8945715,0.94357116
5b8fffca220be50001c59858,66,1,2024-02-27T09:59:04.500Z,french_139.wav,0,poule,457,26,5,5,français,f,1,0.1,-37.58065727,0.51247941
5b8fffca220be50001c59858,66,1,2024-02-27T09:59:04.500Z,french_139.wav,0,poule,457,26,5,5,français,f,2,0.2,-36.76334563,1.17002066
5b8fffca220be50001c59858,66,1,2024-02-27T09:59:04.500Z,french_139.wav,0,poule,457,26,5,5,français,f,3,0.25666667,4.9296063,0.00285273
5b8fffca220be50001c59858,67,1,2024-02-27T09:59:04.500Z,french_349.wav,0,poule,677,26,5,5,français,f,0,0.0,73.89254537,0.17403551
5b8fffca220be50001c59858,67,1,2024-02-27T09:59:04.500Z,french_349.wav,0,poule,677,26,5,5,français,f,1,0.1,-84.33493486,1.66487719
5b8fffca220be50001c59858,67,1,2024-02-27T09:59:04.500Z,french_349.wav,0,poule,677,26,5,5,français,f,2,0.2,-3.2709249,1.53740634
5b8fffca220be50001c59858,67,1,2024-02-27T09:59:04.500Z,french_349.wav,0,poule,677,26,5,5,français,f,3,0.25666667,-21.54511299,1.56834066
5b8fffca220be50001c59858,68,1,2024-02-27T09:59:04.500Z,french_872.wav,0,poule,1551,26,5,5,français,f,0,0.0,85.31192626,1.27180188
5b8fffca220be50001c59858,68,1,2024-02-27T09:59:04.500Z,french_872.wav,0,poule,1551,26,5,5,français,f,1,0.1,-62.96284321,0.82867252
5b8fffca220be50001c59858,68,1,2024-02-27T09:59:04.500Z,french_872.wav,0,poule,1551,26,5,5,français,f,2,0.2,93.26127986,1.69740624
5b8fffca220be50001c59858,68,1,2024-02-27T09:59:04.500Z,french_872.wav,0,poule,1551,26,5,5,français,f,3,0.25666667,48.13314647,0.31258738
5b8fffca220be50001c59858,69,1,2024-02-27T09:59:04.500Z,french_583.wav,0,poule,1158,26,5,5,français,f,0,0.0,54.77106994,0.72700192
5b8fffca220be50001c59858,69,1,2024-02-27T09:59:04.500Z,french_583.wav,0,poule,1158,26,5,5,français,f,1,0.1,-91.79725644,1.43459804
5b8fffca220be50001c59858,69,1,2024-02-27T09:59:04.500Z,french_583.wav,0,poule,1158,26,5,5,français,f,2,0.2,19.12152033,0.59283069
5b8fffca220be50001c59858,69,1,2024-02-27T09:59:04.500Z,french_583.wav,0,poule,1158,26,5,5,français,f,3,0.25666667,80.05255959,1.58166394
5b8fffca220be50001c59858,70,1,2024-02-27T09:59:04.500Z,french_879.wav,0,poule,887,26,5,5,français,f,0,0.0,-48.96816685,1.19104759
5b8fffca220be50001c59858,70,1,2024-02-27T09:59:04.500Z,french_879.wav,0,poule,887,26,5,5,français,f,1,0.1,-79.01398257,0.98306132
5b8fffca220be50001c59858,70,1,2024-02-27T09:59:04.500Z,french_879.wav,0,poule,887,26,5,5,français,f,2,0.2,-55.9985187,0.68767433
5b8fffca220be50001c59858,70,1,2024-02-27T09:59:04.500Z,french_879.wav,0,poule,887,26,5,5,français,f,3,0.25666667,-98.06504365,1.4115175
5b8fffca220be50001c59858,71,1,2024-02-27T09:59:04.500Z,french_675.wav,0,pull,953,26,5,5,français,f,0,0.0,-70.79994344,1.47729798
5b8fffca220be50001c59858,71,1,2024-02-27T09:59:04.500Z,french_675.wav,0,pull,953,26,5,5,français,f,1,0.1,-7.59389362,0.30115563
5b8fffca220be50001c59858,71,1,2024-02-27T09:59:04.500Z,french_675.wav,0,pull,953,26,5,5,français,f,2,0.2,-3.58790265,1.39440132
5b8fffca220be50001c59858,71,1,2024-02-27T09:59:04.500Z,french_675.wav,0,pull,953,26,5,5,français,f,3,0.25666667,-30.70883091,1.61039035
5b8fffca220be50001c59858,72,1,2024-02-27T09:59:04.500Z,french_845.wav,0,pull,852,26,5,5,français,f,0,0.0,-4.24220541,1.81527349
5b8fffca220be50001c59858,72,1,2024-02-27T09:59:04.500Z,french_845.wav,0,pull,852,26,5,5,français,f,1,0.1,-33.05758094,0.43145559
5b8fffca220be50001c59858,72,1,2024-02-27T09:59:04.500Z,french_845.wav,0,pull,852,26,5,5,français,f,2,0.2,-22.8575131,1.45726833
5b8fffca220be50001c59858,72,1,2024-02-27T09:59:04.500Z,french_845.wav,0,pull,852,26,5,5,français,f,3,0.25666667,-28.52835037,1.38023089
5b8fffca220be50001c59858,73,1,2024-02-27T09:59:04.500Z,french_38.wav,0,poule,442,26,5,5,français,f,0,0.0,-0.72741882,1.73508679
5b8fffca220be50001c59858,73,1,2024-02-27T09:59:04.500Z,french_38.wav,0,poule,442,26,5,5,français,f,1,0.1,17.06804162,1.04827054
5b8fffca220be50001c59858,73,1,2024-02-27T09:59:04.500Z,french_38.wav,0,poule,442,26,5,5,français,f,2,0.2,-90.47269694,0.06966066
5b8fffca220be50001c59858,73,1,2024-02-27T09:59:04.500Z,french_38.wav,0,poule,442,26,5,5,français,f,3,0.25666667,-46.03968341,1.13213122
5b8fffca220be50001c59858,74,1,2024-02-27T09:59:04.500Z,french_131.wav,0,pull,506,26,5,5,français,f,0,0.0,55.95469812,0.7326606
5b8fffca220be50001c59858,74,1,2024-02-27T09:59:04.500Z,french_131.wav,0,pull,506,26,5,5,français,f,1,0.1,-96.48122085,0.77747938
5b8fffca220be50001c59858,74,1,2024-02-27T09:59:04.500Z,french_131.wav,0,pull,506,26,5,5,français,f,2,0.2,-45.26115565,1.02132862
5b8fffca220be50001c59858,74,1,2024-02-27T09:59:04.500Z,french_131.wav,0,pull,506,26,5,5,français,f,3,0.25666667,97.10583427,0.34109041
5b8fffca220be50001c59858,75,1,2024-02-27T09:59:04.500Z,french_544.wav,0,pull,891,26,5,5,français,f,0,0.0,-53.15565046,1.35860228
5b8fffca220be50001c59858,75,1,2024-02-27T09:59:04.500Z,french_544.wav,0,pull,891,26,5,5,français,f,1,0.1,-92.4791724,0.93453098
5b8fffca220be50001c59858,75,1,2024-02-27T09:59:04.500Z,french_544.wav,0,pull,891,26,5,5,français,f,2,0.2,38.15839594,0.5056151
5b8fffca220be50001c59858,75,1,2024-02-27T09:59:04.500Z,french_544.wav,0,pull,891,26,5,5,français,f,3,0.25666667,24.38113977,1.47508
5b8fffca220be50001c59858,76,1,2024-02-27T09:59:04.500Z,french_49.wav,0,pull,687,26,5,5,français,f,0,0.0,-34.40531311,0.38592943
5b8fffca220be50001c59858,76,1,2024-02-27T09:59:04.500Z,french_49.wav,0,pull,687,26,5,5,français,f,1,0.1,-47.89713654,0.82636765
5b8fffca220be50001c59858,76,1,2024-02-27T09:59:04.500Z,french_49.wav,0,pull,687,26,5,5,français,f,2,0.2,1.74747298,1.60738751
5b8fffca220be50001c59858,76,1,2024-02-27T09:59:04.500Z,french_49.wav,0,pull,687,26,5,5,français,f,3,0.25666667,24.1153847,0.61367061
5b8fffca220be50001c59858,77,1,2024-02-27T09:59:04.500Z,french_184.wav,0,poule,461,26,5,5,français,f,0,0.0,48.36861498,1.86119552
5b8fffca220be50001c59858,77,1,2024-02-27T09:59:04.500Z,french_184.wav,0,poule,461,26,5,5,français,f,1,0.1,-2.94347193,0.96576449
5b8fffca220be50001c59858,77,1,2024-02-27T09:59:04.500Z,french_184.wav,0,poule,461,26,5,5,français,f,2,0.2,-52.00472355,1.69315982
5b8fffca220be50001c59858,77,1,2024-02-27T09:59:04.500Z,french_184.wav,0,poule,461,26,5,5,français,f,3,0.25666667,-36.80137507,0.52689434
5b8fffca220be50001c59858,78,1,2024-02-27T09:59:04.500Z,french_36.wav,0,pull,961,26,5,5,français,f,0,0.0,97.14143801,0.84704198
5b8fffca220be50001c59858,78,1,2024-02-27T09:59:04.500Z,french_36.wav,0,pull,961,26,5,5,français,f,1,0.1,96.24936774,1.47086473
5b8fffca220be50001c59858,78,1,2024-02-27T09:59:04.500Z,french_36.wav,0,pull,961,26,5,5,français,f,2,0.2,69.49703902,1.29858496
5b8fffca220be50001c59858,78,1,2024-02-27T09:59:04.500Z,french_36.wav,0,pull,961,26,5,5,français,f,3,0.25666667,-77.37121036,1.24445776
5b8fffca220be50001c59858,79,1,2024-02-27T09:59:04.500Z,french_282.wav,0,poule,452,26,5,5,français,f,0,0.0,-97.43488085,0.55303377
5b8fffca220be50001c59858,79,1,2024-02-27T09:59:04.500Z,french_282.wav,0,poule,452,26,5,5,français,f,1,0.1,96.20897113,1.41145651
5b8fffca220be50001c59858,79,1,2024-02-27T09:59:04.500Z,french_282.wav,0,poule,452,26,5,5,français,f,2,0.2,27.16020646,1.83661618
5b8fffca220be50001c59858,79,1,2024-02-27T09:59:04.500Z,french_282.wav,0,poule,452,26,5,5,français,f,3,0.25666667,-13.14092169,0.36912502
5b8fffca220be50001c59858,80,1,2024-02-27T09:59:04.500Z,french_70.wav,0,poule,392,26,5,5,français,f,0,0.0,24.17054112,1.64784081
5b8fffca220be50001c59858,80,1,2024-02-27T09:59:04.500Z,french_70.wav,0,poule,392,26,5,5,français,f,1,0.1,-33.49200779,0.51465366
5b8fffca220be50001c59858,80,1,2024-02-27T09:59:04.500Z,french_70.wav,0,poule,392,26,5,5,français,f,2,0.2,-94.66214176,1.24573935
5b8fffca220be50001c59858,80,1,2024-02-27T09:59:04.500Z,french_70.wav,0,poule,392,26,5,5,français,f,3,0.25666667,65.90688931,1.78963367
5b8fffca220be50001c59858,81,1,2024-02-27T09:59:04.500Z,french_411.wav,0,poule,335,26,5,5,français,f,0,0.0,65.70741219,1.12073031
5b8fffca220be50001c59858,81,1,2024-02-27T09:59:04.500Z,french_411.wav,0,poule,335,26,5,5,français,f,1,0.1,9.47903784,1.20345695
5b8fffca220be50001c59858,81,1,2024-02-27T09:59:04.500Z,french_411.wav,0,poule,335,26,5,5,français,f,2,0.2,88.46874173,1.7567893
5b8fffca220be50001c59858,81,1,2024-02-27T09:59:04.500Z,french_411.wav,0,poule,335,26,5,5,français,f,3,0.25666667,-33.05830924,0.68949127
5b8fffca220be50001c59858,82,1,2024-02-27T09:59:04.500Z,french_663.wav,0,poule,334,26,5,5,français,f,0,0.0,9.26283991,1.50228176
5b8fffca220be50001c59858,82,1,2024-02-27T09:59:04.500Z,french_663.wav,0,poule,334,26,5,5,français,f,1,0.1,8.63416543,0.75616041
5b8fffca220be50001c59858,82,1,2024-02-27T09:59:04.500Z,french_663.wav,0,poule,334,26,5,5,français,f,2,0.2,-94.49816933,0.98085129
5b8fffca220be50001c59858,82,1,2024-02-27T09:59:04.500Z,french_663.wav,0,poule,334,26,5,5,français,f,3,0.25666667,-21.43071833,1.35574544
5b8fffca220be50001c59858,83,1,2024-02-27T09:59:04.500Z,french_274.wav,0,poule,327,26,5,5,français,f,0,0.0,43.75822691,1.39255027
5b8fffca220be50001c59858,83,1,2024-02-27T09:59:04.500Z,french_274.wav,0,poule,327,26,5,5,français,f,1,0.1,86.10199067,1.73272922
5b8fffca220be50001c59858,83,1,2024-02-27T09:59:04.500Z,french_274.wav,0,poule,327,26,5,5,français,f,2,0.2,-33.25278445,0.27567755
5b8fffca220be50001c59858,83,1,2024-02-27T09:59:04.500Z,french_274.wav,0,poule,327,26,5,5,français,f,3,0.25666667,-94.53609652,1.08955952
5b8fffca220be50001c59858,84,1,2024-02-27T09:59:04.500Z,french_633.wav,0,pull,464,26,5,5,français,f,0,0.0,86.81441283,1.16860967
5b8fffca220be50001c59858,84,1,2024-02-27T09:59:04.500Z,french_633.wav,0,pull,464,26,5,5,français,f,1,0.1,-4.21988764,0.88033016
5b8fffca220be50001c59858,84,1,2024-02-27T09:59:04.500Z,french_633.wav,0,pull,464,26,5,5,français,f,2,0.2,27.13702415,0.79008737
5b8fffca220be50001c59858,84,1,2024-02-27T09:59:04.500Z,french_633.wav,0,pull,464,26,5,5,français,f,3,0.25666667,25.74151368,1.16621919
5b8fffca220be50001c59858,85,1,2024-02-27T09:59:04.500Z,french_288.wav,0,pull,654,26,5,5,français,f,0,0.0,-9.24929425,1.2144441
5b8fffca220be50001c59858,85,1,2024-02-27T09:59:04.500Z,french_288.wav,0,pull,654,26,5,5,français,f,1,0.1,97.18434129,0.01267679
5b8fffca220be50001c59858,85,1,2024-02-27T09:59:04.500Z,french_288.wav,0,pull,654,26,5,5,français,f,2,0.2,-8.99940005,1.13720482
5b8fffca220be50001c59858,85,1,2024-02-27T09:59:04.500Z,french_288.wav,0,pull,654,26,5,5,français,f,3,0.25666667,-80.67587563,1.56801852
5b8fffca220be50001c59858,86,1,2024-02-27T09:59:04.500Z,french_825.wav,0,poule,955,26,5,5,français,f,0,0.0,84.83698811,1.37161619
5b8fffca220be50001c59858,86,1,2024-02-27T09:59:04.500Z,french_825.wav,0,poule,955,26,5,5,français,f,1,0.1,58.10246948,1.88160769
5b8fffca220be50001c59858,86,1,2024-02-27T09:59:04.500Z,french_825.wav,0,poule,955,26,5,5,français,f,2,0.2,95.28795352,0.7228962
5b8fffca220be50001c59858,86,1,2024-02-27T09:59:04.500Z,french_825.wav,0,poule,955,26,5,5,français,f,3,0.25666667,40.96055212,1.18109596
5b8fffca220be50001c59858,87,1,2024-02-27T09:59:04.500Z,french_960.wav,0,pull,689,26,5,5,français,f,0,0.0,-21.44081237,0.51475761
5b8fffca220be50001c59858,87,1,2024-02-27T09:59:04.500Z,french_960.wav,0,pull,689,26,5,5,français,f,1,0.1,-88.4923718,1.11613408
5b8fffca220be50001c59858,87,1,2024-02-27T09:59:04.500Z,french_960.wav,0,pull,689,26,5,5,français,f,2,0.2,38.79957112,0.09358172
5b8fffca220be50001c59858,87,1,2024-02-27T09:59:04.500Z,french_960.wav,0,pull,689,26,5,5,français,f,3,0.25666667,-94.67313386,1.96196729
5b8fffca220be50001c59858,88,1,2024-02-27T09:59:04.500Z,french_802.wav,0,poule,509,26,5,5,français,f,0,0.0,-73.24347689,0.39190156
5b8fffca220be50001c59858,88,1,2024-02-27T09:59:04.500Z,french_802.wav,0,poule,509,26,5,5,français,f,1,0.1,14.85977478,1.18064228
5b8fffca220be50001c59858,88,1,2024-02-27T09:59:04.500Z,french_802.wav,0,poule,509,26,5,5,français,f,2,0.2,-45.72901481,1.4654249
5b8fffca220be50001c59858,88,1,2024-02-27T09:59:04.500Z,french_802.wav,0,poule,509,26,5,5,français,f,3,0.25666667,-78.69015161,0.6030906
5b8fffca220be50001c59858,89,1,2024-02-27T09:59:04.500Z,french_623.wav,0,pull,742,26,5,5,français,f,0,0.0,39.03330695,1.53300878
5b8fffca220be50001c59858,89,1,2024-02-27T09:59:04.500Z,french_623.wav,0,pull,742,26,5,5,français,f,1,0.1,53.03253456,0.64917122
5b8fffca220be50001c59858,89,1,2024-02-27T09:59:04.500Z,french_623.wav,0,pull,742,26,5,5,français,f,2,0.2,-58.78521604,0.12116027
5b8fffca220be50001c59858,89,1,2024-02-27T09:59:04.500Z,french_623.wav,0,pull,742,26,5,5,français,f,3,0.25666667,58.72042033,1.19887121
5b8fffca220be50001c59858,90,1,2024-02-27T09:59:04.500Z,french_438.wav,0,poule,1703,26,5,5,français,f,0,0.0,38.28600595,0.24947118
5b8fffca220be50001c59858,90,1,2024-02-27T09:59:04.500Z,french_438.wav,0,poule,1703,26,5,5,français,f,1,0.1,-2.73615403,0.88566368
5b8fffca220be50001c59858,90,1,2024-02-27T09:59:04.500Z,french_438.wav,0,poule,1703,26,5,5,français,f,2,0.2,-43.32822043,0.23078024
5b8fffca220be50001c59858,90,1,2024-02-27T09:59:04.500Z,french_438.wav,0,poule,1703,26,5,5,français,f,3,0.25666667,-21.43836029,1.64360752
5b8fffca220be50001c59858,91,1,2024-02-27T09:59:04.500Z,french_957.wav,0,poule,1418,26,5,5,français,f,0,0.0,-18.56504594,1.70357669
5b8fffca220be50001c59858,91,1,2024-02-27T09:59:04.500Z,french_957.wav,0,poule,1418,26,5,5,français,f,1,0.1,17.87447177,1.95920141
5b8fffca220be50001c59858,91,1,2024-02-27T09:59:04.500Z,french_957.wav,0,poule,1418,26,5,5,français,f,2,0.2,57.20134839,1.7386973
5b8fffca220be50001c59858,91,1,2024-02-27T09:59:04.500Z,french_957.wav,0,poule,1418,26,5,5,français,f,3,0.25666667,64.73544538,0.56015389
5b8fffca220be50001c59858,92,1,2024-02-27T09:59:04.500Z,french_568.wav,0,poule,722,26,5,5,français,f,0,0.0,-18.10302265,1.34189827
5b8fffca220be50001c59858,92,1,2024-02-27T09:59:04.500Z,french_568.wav,0,poule,722,26,5,5,français,f,1,0.1,9.93139794,1.47029794
5b8fffca220be50001c59858,92,1,2024-02-27T09:59:04.500Z,french_568.wav,0,poule,722,26,5,5,français,f,2,0.2,91.46195775,0.17269775
5b8fffca220be50001c59858,92,1,2024-02-27T09:59:04.500Z,french_568.wav,0,poule,722,26,5,5,français,f,3,0.25666667,56.10040773,1.22679594
5b8fffca220be50001c59858,93,1,2024-02-27T09:59:04.500Z,french_333.wav,0,pull,1687,26,5,5,français,f,0,0.0,10.14997655,0.96169616
5b8fffca220be50001c59858,93,1,2024-02-27T09:59:04.500Z,french_333.wav,0,pull,1687,26,5,5,français,f,1,0.1,13.88697857,0.82290304
5b8fffca220be50001c59858,93,1,2024-02-27T09:59:04.500Z,french_333.wav,0,pull,1687,26,5,5,français,f,2,0.2,3.86253466,0.18816998
5b8fffca220be50001c59858,93,1,2024-02-27T09:59:04.500Z,french_333.wav,0,pull,1687,26,5,5,français,f,3,0.25666667,47.83568498,1.34102864
5b8fffca220be50001c59858,94,1,2024-02-27T09:59:04.500Z,french_460.wav,0,pull,885,26,5,5,français,f,0,0.0,-46.82547924,0.18532774
5b8fffca220be50001c59858,94,1,2024-02-27T09:59:04.500Z,french_460.wav,0,pull,885,26,5,5,français,f,1,0.1,-89.06595485,0.73005791
5b8fffca220be50001c59858,94,1,2024-02-27T09:59:04.500Z,french_460.wav,0,pull,885,26,5,5,français,f,2,0.2,-15.88362663,0.27848928
5b8fffca220be50001c59858,94,1,2024-02-27T09:59:04.500Z,french_460.wav,0,pull,885,26,5,5,français,f,3,0.25666667,-55.00298372,1.6971829
5b8fffca220be50001c59858,95,1,2024-02-27T09:59:04.500Z,french_795.wav,0,pull,1565,26,5,5,français,f,0,0.0,33.06955163,0.26323542
5b8fffca220be50001c59858,95,1,2024-02-27T09:59:04.500Z,french_795.wav,0,pull,1565,26,5,5,français,f,1,0.1,99.3644883,0.35684642
5b8fffca220be50001c59858,95,1,2024-02-27T09:59:04.500Z,french_795.wav,0,pull,1565,26,5,5,français,f,2,0.2,-80.69510174,0.7045199
5b8fffca220be50001c59858,95,1,2024-02-27T09:59:04.500Z,french_795.wav,0,pull,1565,26,5,5,français,f,3,0.25666667,67.54375124,0.58342204
5b8fffca220be50001c59858,96,1,2024-02-27T09:59:04.500Z,french_243.wav,0,poule,2853,26,5,5,français,f,0,0.0,94.15218044,0.53955239
5b8fffca220be50001c59858,96,1,2024-02-27T09:59:04.500Z,french_243.wav,0,poule,2853,26,5,5,français,f,1,0.1,77.54642038,1.33237065
5b8fffca220be50001c59858,96,1,2024-02-27T09:59:04.500Z,french_243.wav,0,poule,2853,26,5,5,français,f,2,0.2,-54.61145872,1.76705621
5b8fffca220be50001c59858,96,1,2024-02-27T09:59:04.500Z,french_243.wav,0,poule,2853,26,5,5,français,f,3,0.25666667,-22.57869657,1.15577178
5b8fffca220be50001c59858,97,1,2024-02-27T09:59:04.500Z,french_237.wav,0,poule,894,26,5,5,français,f,0,0.0,-1.09426196,0.40664609
5b8fffca220be50001c59858,97,1,2024-02-27T09:59:04.500Z,french_237.wav,0,poule,894,26,5,5,français,f,1,0.1,-48.49856075,0.23529618
5b8fffca220be50001c59858,97,1,2024-02-27T09:59:04.500Z,french_237.wav,0,poule,894,26,5,5,français,f,2,0.2,36.42993093,0.05363011
5b8fffca220be50001c59858,97,1,2024-02-27T09:59:04.500Z,french_237.wav,0,poule,894,26,5,5,français,f,3,0.25666667,-47.65767162,1.34950367
5b8fffca220be50001c59858,98,1,2024-02-27T09:59:04.500Z,french_618.wav,0,pull,591,26,5,5,français,f,0,0.0,-48.84080529,0.47316377
5b8fffca220be50001c59858,98,1,2024-02-27T09:59:04.500Z,french_618.wav,0,pull,591,26,5,5,français,f,1,0.1,52.1949693,0.45430598
5b8fffca220be50001c59858,98,1,2024-02-27T09:59:04.500Z,french_618.wav,0,pull,591,26,5,5,français,f,2,0.2,2.68255661,0.75800451
5b8fffca220be50001c59858,98,1,2024-02-27T09:59:04.500Z,french_618.wav,0,pull,591,26,5,5,français,f,3,0.25666667,-32.43465806,0.99622678
5b8fffca220be50001c59858,99,1,2024-02-27T09:59:04.500Z,french_462.wav,0,poule,389,26,5,5,français,f,0,0.0,-21.95394664,1.87011175
5b8fffca220be50001c59858,99,1,2024-02-27T09:59:04.500Z,french_462.wav,0,poule,389,26,5,5,français,f,1,0.1,40.83343907,1.54087482
5b8fffca220be50001c59858,99,1,2024-02-27T09:59:04.500Z,french_462.wav,0,poule,389,26,5,5,français,f,2,0.2,-14.27053038,0.9591328
5b8fffca220be50001c59858,99,1,2024-02-27T09:59:04.500Z,french_462.wav,0,poule,389,26,5,5,français,f,3,0.25666667,85.20745493,0.45105527
5b8fffca220be50001c59858,100,2,2024-02-27T09:59:04.500Z,french_324.wav,0,pull,1063,26,5,5,français,f,0,0.0,19.03085887,0.73874118
5b8fffca220be50001c59858,100,2,2024-02-27T09:59:04.500Z,french_324.wav,0,pull,1063,26,5,5,français,f,1,0.1,67.89064078,0.03678538
5b8fffca220be50001c59858,100,2,2024-02-27T09:59:04.500Z,french_324.wav,0,pull,1063,26,5,5,français,f,2,0.2,-77.83323733,0.54818629
5b8fffca220be50001c59858,100,2,2024-02-27T09:59:04.500Z,french_324.wav,0,pull,1063,26,5,5,français,f,3,0.25666667,-13.49414868,1.04853797
5b8fffca220be50001c59858,101,2,2024-02-27T09:59:04.500Z,french_133.wav,0,poule,595,26,5,5,français,f,0,0.0,-94.78194954,1.29113753
5b8fffca220be50001c59858,101,2,2024-02-27T09:59:04.500Z,french_133.wav,0,poule,595,26,5,5,français,f,1,0.1,8.44061072,0.84384968
5b8fffca220be50001c59858,101,2,2024-02-27T09:59:04.500Z,french_133.wav,0,poule,595,26,5,5,français,f,2,0.2,55.81768563,1.85990436
5b8fffca220be50001c59858,101,2,2024-02-27T09:59:04.500Z,french_133.wav,0,poule,595,26,5,5,français,f,3,0.25666667,73.94294787,1.64621091
5b8fffca220be50001c59858,102,2,2024-02-27T09:59:04.500Z,french_507.wav,0,poule,386,26,5,5,français,f,0,0.0,-39.00130205,0.88980729
5b8fffca220be50001c59858,102,2,2024-02-27T09:59:04.500Z,french_507.wav,0,poule,386,26,5,5,français,f,1,0.1,8.15448279,1.12034654
5b8fffca220be50001c59858,102,2,2024-02-27T09:59:04.500Z,french_507.wav,0,poule,386,26,5,5,français,f,2,0.2,-39.88004764,1.15006522
5b8fffca220be50001c59858,102,2,2024-02-27T09:59:04.500Z,french_507.wav,0,poule,386,26,5,5,français,f,3,0.25666667,66.54300966,1.10945683
5b8fffca220be50001c59858,103,2,2024-02-27T09:59:04.500Z,french_759.wav,0,poule,281,26,5,5,français,f,0,0.0,43.66892012,0.9017147
5b8fffca220be50001c59858,103,2,2024-02-27T09:59:04.500Z,french_759.wav,0,poule,281,26,5,5,français,f,1,0.1,28.75822808,1.01118462
5b8fffca220be50001c59858,103,2,2024-02-27T09:59:04.500Z,french_759.wav,0,poule,281,26,5,5,français,f,2,0.2,-53.65094598,1.43326948
5b8fffca220be50001c59858,103,2,2024-02-27T09:59:04.500Z,french_759.wav,0,poule,281,26,5,5,français,f,3,0.25666667,-79.66264825,0.32927354
5b8fffca220be50001c59858,104,2,2024-02-27T09:59:04.500Z,french_114.wav,0,poule,541,26,5,5,français,f,0,0.0,36.61172137,1.1665973
5b8fffca220be50001c59858,104,2,2024-02-27T09:59:04.500Z,french_114.wav,0,poule,541,26,5,5,français,f,1,0.1,1.16528437,0.29978092
5b8fffca220be50001c59858,104,2,2024-02-27T09:59:04.500Z,french_114.wav,0,poule,541,26,5,5,français,f,2,0.2,91.5106094,1.30847922
5b8fffca220be50001c59858,104,2,2024-02-27T09:59:04.500Z,french_114.wav,0,poule,541,26,5,5,français,f,3,0.25666667,23.38458366,1.1533172
5b8fffca220be50001c59858,105,2,2024-02-27T09:59:04.500Z,french_413.wav,0,poule,593,26,5,5,français,f,0,0.0,-15.90568805,0.35618922
5b8fffca220be50001c59858,105,2,2024-02-27T09:59:04.500Z,french_413.wav,0,poule,593,26,5,5,français,f,1,0.1,76.04965913,1.72047272
5b8fffca220be50001c59858,105,2,2024-02-27T09:59:04.500Z,french_413.wav,0,poule,593,26,5,5,français,f,2,0.2,55.08996682,1.40872317
5b8fffca220be50001c59858,105,2,2024-02-27T09:59:04.500Z,french_413.wav,0,poule,593,26,5,5,français,f,3,0.25666667,17.39731584,1.8089724
5b8fffca220be50001c59858,106,2,2024-02-27T09:59:04.500Z,french_125.wav,0,pull,762,26,5,5,français,f,0,0.0,-5.4163583,1.55997732
5b8fffca220be50001c59858,106,2,2024-02-27T09:59:04.500Z,french_125.wav,0,pull,762,26,5,5,français,f,1,0.1,-78.82020266,1.46538696
5b8fffca220be50001c59858,106,2,2024-02-27T09:59:04.500Z,french_125.wav,0,pull,762,26,5,5,français,f,2,0.2,7.21605105,1.19887704
5b8fffca220be50001c59858,106,2,2024-02-27T09:59:04.500Z,french_125.wav,0,pull,762,26,5,5,français,f,3,0.25666667,-41.55982592,1.01520467
5b8fffca220be50001c59858,107,2,2024-02-27T09:59:04.500Z,french_32.wav,0,pull,1311,26,5,5,français,f,0,0.0,-95.97477456,1.5242089
5b8fffca220be50001c59858,107,2,2024-02-27T09:59:04.500Z,french_32.wav,0,pull,1311,26,5,5,français,f,1,0.1,-25.31572866,0.2047991
5b8fffca220be50001c59858,107,2,2024-02-27T09:59:04.500Z,french_32.wav,0,pull,1311,26,5,5,français,f,2,0.2,-25.0492654,1.11388434
5b8fffca220be50001c59858,107,2,2024-02-27T09:59:04.500Z,french_32.wav,0,pull,1311,26,5,5,français,f,3,0.25666667,-74.56689772,1.18772321
5b8fffca220be50001c59858,108,2,2024-02-27T09:59:04.500Z,french_352.wav,0,pull,619,26,5,5,français,f,0,0.0,74.68489003,0.29948735
5b8fffca220be50001c59858,108,2,2024-02-27T09:59:04.500Z,french_352.wav,0,pull,619,26,5,5,français,f,1,0.1,96.39949195,0.51724136
5b8fffca220be50001c59858,108,2,2024-02-27T09:59:04.500Z,french_352.wav,0,pull,619,26,5,5,français,f,2,0.2,90.64764472,1.48158799
5b8fffca220be50001c59858,108,2,2024-02-27T09:59:04.500Z,french_352.wav,0,pull,619,26,5,5,français,f,3,0.25666667,65.55341103,0.97952247
5b8fffca220be50001c59858,109,2,2024-02-27T09:59:04.500Z,french_866.wav,0,pull,454,26,5,5,français,f,0,0.0,-60.69074585,1.64484001
5b8fffca220be50001c59858,109,2,2024-02-27T09:59:04.500Z,french_866.wav,0,pull,454,26,5,5,français,f,1,0.1,-41.67968152,0.19415831
5b8fffca220be50001c59858,109,2,2024-02-27T09:59:04.500Z,french_866.wav,0,pull,454,26,5,5,français,f,2,0.2,-8.99838874,1.20864699
5b8fffca220be50001c59858,109,2,2024-02-27T09:59:04.500Z,french_866.wav,0,pull,454,26,5,5,français,f,3,0.25666667,40.83736488,0.81730442
5b8fffca220be50001c59858,110,2,2024-02-27T09:59:04.500Z,french_260.wav,0,poule,569,26,5,5,français,f,0,0.0,-3.22947754,0.22766361
5b8fffca220be50001c59858,110,2,2024-02-27T09:59:04.500Z,french_260.wav,0,poule,569,26,5,5,français,f,1,0.1,-16.22535722,1.16747398
5b8fffca220be50001c59858,110,2,2024-02-27T09:59:04.500Z,french_260.wav,0,poule,569,26,5,5,français,f,2,0.2,-91.54207183,1.39667181
5b8fffca220be50001c59858,110,2,2024-02-27T09:59:04.500Z,french_260.wav,0,poule,569,26,5,5,français,f,3,0.25666667,-55.70642268,1.03484551
5b8fffca220be50001c59858,111,2,2024-02-27T09:59:04.500Z,french_476.wav,0,poule,535,26,5,5,français,f,0,0.0,-83.79523633,0.72975737
5b8fffca220be50001c59858,111,2,2024-02-27T09:59:04.500Z,french_476.wav,0,poule,535,26,5,5,français,f,1,0.1,62.15522278,1.65535888
5b8fffca220be50001c59858,111,2,2024-02-27T09:59:04.500Z,french_476.wav,0,poule,535,26,5,5,français,f,2,0.2,-62.9629606,1.94146275
5b8fffca220be50001c59858,111,2,2024-02-27T09:59:04.500Z,french_476.wav,0,poule,535,26,5,5,français,f,3,0.25666667,29.80880048,1.32492406
5b8fffca220be50001c59858,112,2,2024-02-27T09:59:04.500Z,french_894.wav,0,poule,636,26,5,5,français,f,0,0.0,34.15690998,0.96571794
5b8fffca220be50001c59858,112,2,2024-02-27T09:59:04.500Z,french_894.wav,0,poule,636,26,5,5,français,f,1,0.1,66.60232679,0.73360337
5b8fffca220be50001c59858,112,2,2024-02-27T09:59:04.500Z,french_894.wav,0,poule,636,26,5,5,français,f,2,0.2,79.95982278,1.43440198
5b8fffca220be50001c59858,112,2,2024-02-27T09:59:04.500Z,french_894.wav,0,poule,636,26,5,5,français,f,3,0.25666667,-20.39269858,0.64269279
5b8fffca220be50001c59858,113,2,2024-02-27T09:59:04.500Z,french_652.wav,0,poule,366,26,5,5,français,f,0,0.0,19.60271983,1.92708098
5b8fffca220be50001c59858,113,2,2024-02-27T09:59:04.500Z,french_652.wav,0,poule,366,26,5,5,français,f,1,0.1,-55.33376602,1.28238944
5b8fffca220be50001c59858,113,2,2024-02-27T09:59:04.500Z,french_652.wav,0,poule,366,26,5,5,français,f,2,0.2,42.10956493,0.03244996
5b8fffca220be50001c59858,113,2,2024-02-27T09:59:04.500Z,french_652.wav,0,poule,366,26,5,5,français,f,3,0.25666667,-47.80028189,1.59505934
5b8fffca220be50001c59858,114,2,2024-02-27T09:59:04.500Z,french_454.wav,0,poule,313,26,5,5,français,f,0,0.0,-2.34959028,0.74247593
5b8fffca220be50001c59858,114,2,2024-02-27T09:59:04.500Z,french_454.wav,0,poule,313,26,5,5,français,f,1,0.1,-12.00596157,1.74271244
5b8fffca220be50001c59858,114,2,2024-02-27T09:59:04.500Z,french_454.wav,0,poule,313,26,5,5,français,f,2,0.2,53.09832594,0.67609159
5b8fffca220be50001c59858,114,2,2024-02-27T09:59:04.500Z,french_454.wav,0,poule,313,26,5,5,français,f,3,0.25666667,2.06709411,1.84499539
5b8fffca220be50001c59858,115,2,2024-02-27T09:59:04.500Z,french_254.wav,0,pull,456,26,5,5,français,f,0,0.0,-80.26287383,0.610966
5b8fffca220be50001c59858,115,2,2024-02-27T09:59:04.500Z,french_254.wav,0,pull,456,26,5,5,français,f,1,0.1,-40.33934554,1.74213191
5b8fffca220be50001c59858,115,2,2024-02-27T09:59:04.500Z,french_254.wav,0,pull,456,26,5,5,français,f,2,0.2,63.1875163,0.92287848
5b8fffca220be50001c59858,115,2,2024-02-27T09:59:04.500Z,french_254.wav,0,pull,456,26,5,5,français,f,3,0.25666667,55.87543548,0.4746978
5b8fffca220be50001c59858,116,2,2024-02-27T09:59:04.500Z,french_470.wav,0,pull,384,26,5,5,français,f,0,0.0,35.80891732,1.18984778
5b8fffca220be50001c59858,116,2,2024-02-27T09:59:04.500Z,french_470.wav,0,pull,384,26,5,5,français,f,1,0.1,-69.45523052,0.95727089
5b8fffca220be50001c59858,116,2,2024-02-27T09:59:04.500Z,french_470.wav,0,pull,384,26,5,5,français,f,2,0.2,14.95046841,1.94704509
5b8fffca220be50001c59858,116,2,2024-02-27T09:59:04.500Z,french_470.wav,0,pull,384,26,5,5,français,f,3,0.25666667,17.64450191,1.37814226
5b8fffca220be50001c59858,117,2,2024-02-27T09:59:04.500Z,french_576.wav,0,pull,852,26,5,5,français,f,0,0.0,-77.18723008,1.93193878
5b8fffca220be50001c59858,117,2,2024-02-27T09:59:04.500Z,french_576.wav,0,pull,852,26,5,5,français,f,1,0.1,32.49939157,0.06461953
5b8fffca220be50001c59858,117,2,2024-02-27T09:59:04.500Z,french_576.wav,0,pull,852,26,5,5,français,f,2,0.2,-11.29964886,0.24702868
5b8fffca220be50001c59858,117,2,2024-02-27T09:59:04.500Z,french_576.wav,0,pull,852,26,5,5,français,f,3,0.25666667,24.65334735,1.68209329
5b8fffca220be50001c59858,118,2,2024-02-27T09:59:04.500Z,french_391.wav,0,poule,347,26,5,5,français,f,0,0.0,-76.68975493,1.01472424
5b8fffca220be50001c59858,118,2,2024-02-27T09:59:04.500Z,french_391.wav,0,poule,347,26,5,5,français,f,1,0.1,-61.92507962,1.84772624
5b8fffca220be50001c59858,118,2,2024-02-27T09:59:04.500Z,french_391.wav,0,poule,347,26,5,5,français,f,2,0.2,-59.03609545,1.36374408
5b8fffca220be50001c59858,118,2,2024-02-27T09:59:04.500Z,french_391.wav,0,poule,347,26,5,5,français,f,3,0.25666667,88.69049446,1.21538153
5b8fffca220be50001c59858,119,2,2024-02-27T09:59:04.500Z,french_758.wav,0,poule,460,26,5,5,français,f,0,0.0,45.30317447,1.53591398
5b8fffca220be50001c59858,119,2,2024-02-27T09:59:04.500Z,french_758.wav,0,poule,460,26,5,5,français,f,1,0.1,37.35504147,1.00413053
5b8fffca220be50001c59858,119,2,2024-02-27T09:59:04.500Z,french_758.wav,0,poule,460,26,5,5,français,f,2,0.2,-7.74982346,1.59140772
5b8fffca220be50001c59858,119,2,2024-02-27T09:59:04.500Z,french_758.wav,0,poule,460,26,5,5,français,f,3,0.25666667,-75.22654498,0.76456646
5b8fffca220be50001c59858,120,2,2024-02-27T09:59:04.500Z,french_280.wav,0,pull,507,26,5,5,français,f,0,0.0,-67.41100242,0.87165921
5b8fffca220be50001c59858,120,2,2024-02-27T09:59:04.500Z,french_280.wav,0,pull,507,26,5,5,français,f,1,0.1,-0.65291527,0.40210454
5b8fffca220be50001c59858,120,2,2024-02-27T09:59:04.500Z,french_280.wav,0,pull,507,26,5,5,français,f,2,0.2,-45.07946214,0.8560963
5b8fffca220be50001c59858,120,2,2024-02-27T09:59:04.500Z,french_280.wav,0,pull,507,26,5,5,français,f,3,0.25666667,-37.24252155,1.09108247
5b8fffca220be50001c59858,121,2,2024-02-27T09:59:04.500Z,french_33.wav,0,pull,519,26,5,5,français,f,0,0.0,57.46883034,0.51774601
5b8fffca220be50001c59858,121,2,2024-02-27T09:59:04.500Z,french_33.wav,0,pull,519,26,5,5,français,f,1,0.1,-37.75467747,0.34297047
5b8fffca220be50001c59858,121,2,2024-02-27T09:59:04.500Z,french_33.wav,0,pull,519,26,5,5,français,f,2,0.2,37.26126111,0.88429292
5b8fffca220be50001c59858,121,2,2024-02-27T09:59:04.500Z,french_33.wav,0,pull,519,26,5,5,français,f,3,0.25666667,30.73694303,0.45040489
5b8fffca220be50001c59858,122,2,2024-02-27T09:59:04.500Z,french_985.wav,0,pull,510,26,5,5,français,f,0,0.0,29.21663761,0.89782151
5b8fffca220be50001c59858,122,2,2024-02-27T09:59:04.500Z,french_985.wav,0,pull,510,26,5,5,français,f,1,0.1,-71.61154632,0.27969284
5b8fffca220be50001c59858,122,2,2024-02-27T09:59:04.500Z,french_985.wav,0,pull,510,26,5,5,français,f,2,0.2,41.30472765,1.11185271
5b8fffca220be50001c59858,122,2,2024-02-27T09:59:04.500Z,french_985.wav,0,pull,510,26,5,5,français,f,3,0.25666667,-19.1628823,1.39441914
5b8fffca220be50001c59858,123,2,2024-02-27T09:59:04.500Z,french_272.wav,0,pull,825,26,5,5,français,f,0,0.0,50.55701535,1.0419248
5b8fffca220be50001c59858,123,2,2024-02-27T09:59:04.500Z,french_272.wav,0,pull,825,26,5,5,français,f,1,0.1,63.46835537,0.05024982
5b8fffca220be50001c59858,123,2,2024-02-27T09:59:04.500Z,french_272.wav,0,pull,825,26,5,5,français,f,2,0.2,-46.63250527,0.3554473
5b8fffca220be50001c59858,123,2,2024-02-27T09:59:04.500Z,french_272.wav,0,pull,825,26,5,5,français,f,3,0.25666667,74.93577843,1.3845464
5b8fffca220be50001c59858,124,2,2024-02-27T09:59:04.500Z,french_572.wav,0,pull,493,26,5,5,français,f,0,0.0,39.88309013,1.43577141
5b8fffca220be50001c59858,124,2,2024-02-27T09:59:04.500Z,french_572.wav,0,pull,493,26,5,5,français,f,1,0.1,-96.79862589,0.70754044
5b8fffca220be50001c59858,124,2,2024-02-27T09:59:04.500Z,french_572.wav,0,pull,493,26,5,5,français,f,2,0.2,-22.12237888,0.13254452
5b8fffca220be50001c59858,124,2,2024-02-27T09:59:04.500Z,french_572.wav,0,pull,493,26,5,5,français,f,3,0.25666667,-29.01009828,0.2743676
5b8fffca220be50001c59858,125,2,2024-02-27T09:59:04.500Z,french_119.wav,0,pull,679,26,5,5,français,f,0,0.0,9.8100641,0.76259974
5b8fffca220be50001c59858,125,2,2024-02-27T09:59:04.500Z,french_119.wav,0,pull,679,26,5,5,français,f,1,0.1,19.57169954,1.49190063
5b8fffca220be50001c59858,125,2,2024-02-27T09:59:04.500Z,french_119.wav,0,pull,679,26,5,5,français,f,2,0.2,-1.41265712,0.43709034
5b8fffca220be50001c59858,125,2,2024-02-27T09:59:04.500Z,french_119.wav,0,pull,679,26,5,5,français,f,3,0.25666667,-78.33165967,1.93463996
5b8fffca220be50001c59858,126,2,2024-02-27T09:59:04.500Z,french_846.wav,0,pull,416,26,5,5,français,f,0,0.0,70.67693031,1.34255937
5b8fffca220be50001c59858,126,2,2024-02-27T09:59:04.500Z,french_846.wav,0,pull,416,26,5,5,français,f,1,0.1,-66.50397015,0.4230684
5b8fffca220be50001c59858,126,2,2024-02-27T09:59:04.500Z,french_846.wav,0,pull,416,26,5,5,français,f,2,0.2,37.81388611,1.53749893
5b8fffca220be50001c59858,126,2,2024-02-27T09:59:04.500Z,french_846.wav,0,pull,416,26,5,5,français,f,3,0.25666667,-25.90764661,0.57819313
5b8fffca220be50001c59858,127,2,2024-02-27T09:59:04.500Z,french_567.wav,0,pull,1736,26,5,5,français,f,0,0.0,27.43626477,1.24283832
5b8fffca220be50001c59858,127,2,2024-02-27T09:59:04.500Z,french_567.wav,0,pull,1736,26,5,5,français,f,1,0.1,41.78362701,1.94246111
5b8fffca220be50001c59858,127,2,2024-02-27T09:59:04.500Z,french_567.wav,0,pull,1736,26,5,5,français,f,2,0.2,54.76706712,1.04642714
5b8fffca220be50001c59858,127,2,2024-02-27T09:59:04.500Z,french_567.wav,0,pull,1736,26,5,5,français,f,3,0.25666667,32.83264266,0.77358904
5b8fffca220be50001c59858,128,2,2024-02-27T09:59:04.500Z,french_197.wav,0,poule,1032,26,5,5,français,f,0,0.0,-6.69305154,1.22063961
5b8fffca220be50001c59858,128,2,2024-02-27T09:59:04.500Z,french_197.wav,0,poule,1032,26,5,5,français,f,1,0.1,23.33285596,0.20505699
5b8fffca220be50001c59858,128,2,2024-02-27T09:59:04.500Z,french_197.wav,0,poule,1032,26,5,5,français,f,2,0.2,-47.26714808,1.45150796
5b8fffca220be50001c59858,128,2,2024-02-27T09:59:04.500Z,french_197.wav,0,poule,1032,26,5,5,français,f,3,0.25666667,-64.80738279,0.00954455
5b8fffca220be50001c59858,129,2,2024-02-27T09:59:04.500Z,french_414.wav,0,pull,441,26,5,5,français,f,0,0.0,-53.65137821,1.15122316
5b8fffca220be50001c59858,129,2,2024-02-27T09:59:04.500Z,french_414.wav,0,pull,441,26,5,5,français,f,1,0.1,61.14227183,1.54420741
5b8fffca220be50001c59858,129,2,2024-02-27T09:59:04.500Z,french_414.wav,0,pull,441,26,5,5,français,f,2,0.2,-13.28017505,1.48861563
5b8fffca220be50001c59858,129,2,2024-02-27T09:59:04.500Z,french_414.wav,0,pull,441,26,5,5,français,f,3,0.25666667,99.20914295,0.34805763
5b8fffca220be50001c59858,130,2,2024-02-27T09:59:04.500Z,french_550.wav,0,pull,857,26,5,5,français,f,0,0.0,-75.40042164,1.22660115
5b8fffca220be50001c59858,130,2,2024-02-27T09:59:04.500Z,french_550.wav,0,pull,857,26,5,5,français,f,1,0.1,3.66999977,1.1302768
5b8fffca220be50001c59858,130,2,2024-02-27T09:59:04.500Z,french_550.wav,0,pull,857,26,5,5,français,f,2,0.2,-80.45508953,0.71194131
5b8fffca220be50001c59858,130,2,2024-02-27T09:59:04.500Z,french_550.wav,0,pull,857,26,5,5,français,f,3,0.25666667,-81.93938104,1.14992067
5b8fffca220be50001c59858,131,2,2024-02-27T09:59:04.500Z,french_308.wav,0,poule,776,26,5,5,français,f,0,0.0,10.28514005,0.92806529
5b8fffca220be50001c59858,131,2,2024-02-27T09:59:04.500Z,french_308.wav,0,poule,776,26,5,5,français,f,1,0.1,-39.60290217,0.73191769
5b8fffca220be50001c59858,131,2,2024-02-27T09:59:04.500Z,french_308.wav,0,poule,776,26,5,5,français,f,2,0.2,99.30719553,0.07740888
5b8fffca220be50001c59858,131,2,2024-02-27T09:59:04.500Z,french_308.wav,0,poule,776,26,5,5,français,f,3,0.25666667,64.43745932,0.80481059
5b8fffca220be50001c59858,132,2,2024-02-27T09:59:04.500Z,french_29.wav,0,pull,704,26,5,5,français,f,0,0.0,82.92052959,1.65542147
5b8fffca220be50001c59858,132,2,2024-02-27T09:59:04.500Z,french_29.wav,0,pull,704,26,5,5,français,f,1,0.1,96.5660735,0.71189304
5b8fffca220be50001c59858,132,2,2024-02-27T09:59:04.500Z,french_29.wav,0,pull,704,26,5,5,français,f,2,0.2,76.1539425,0.4523944
5b8fffca220be50001c59858,132,2,2024-02-27T09:59:04.500Z,french_29.wav,0,pull,704,26,5,5,français,f,3,0.25666667,-7.00195585,1.32757755
5b8fffca220be50001c59858,133,2,2024-02-27T09:59:04.500Z,french_655.wav,0,poule,733,26,5,5,français,f,0,0.0,4.60078694,1.00375004
5b8fffca220be50001c59858,133,2,2024-02-27T09:59:04.500Z,french_655.wav,0,poule,733,26,5,5,français,f,1,0.1,90.51966262,1.23726083
5b8fffca220be50001c59858,133,2,2024-02-27T09:59:04.500Z,french_655.wav,0,poule,733,26,5,5,français,f,2,0.2,-72.80105835,1.08672065
5b8fffca220be50001c59858,133,2,2024-02-27T09:59:04.500Z,french_655.wav,0,poule,733,26,5,5,français,f,3,0.25666667,32.46228297,0.32613357
5b8fffca220be50001c59858,134,2,2024-02-27T09:59:04.500Z,french_857.wav,0,poule,1117,26,5,5,français,f,0,0.0,40.93487779,1.95936394
5b8fffca220be50001c59858,134,2,2024-02-27T09:59:04.500Z,french_857.wav,0,poule,1117,26,5,5,français,f,1,0.1,-17.75235864,1.43648621
5b8fffca220be50001c59858,134,2,2024-02-27T09:59:04.500Z,french_857.wav,0,poule,1117,26,5,5,français,f,2,0.2,39.31370365,1.12127335
5b8fffca220be50001c59858,134,2,2024-02-27T09:59:04.500Z,french_857.wav,0,poule,1117,26,5,5,français,f,3,0.25666667,-10.04228362,0.40363044
5b8fffca220be50001c59858,135,2,2024-02-27T09:59:04.500Z,french_799.wav,0,poule,613,26,5,5,français,f,0,0.0,-36.40535669,1.51597666
5b8fffca220be50001c59858,135,2,2024-02-27T09:59:04.500Z,french_799.wav,0,poule,613,26,5,5,français,f,1,0.1,61.69828746,0.87708619
5b8fffca220be50001c59858,135,2,2024-02-27T09:59:04.500Z,french_799.wav,0,poule,613,26,5,5,français,f,2,0.2,66.97541187,1.35480731
5b8fffca220be50001c59858,135,2,2024-02-27T09:59:04.500Z,french_799.wav,0,poule,613,26,5,5,français,f,3,0.25666667,-86.21475416,0.58642825
5b8fffca220be50001c59858,136,2,2024-02-27T09:59:04.500Z,french_275.wav,0,poule,540,26,5,5,français,f,0,0.0,-71.45872278,0.56157087
5b8fffca220be50001c59858,136,2,2024-02-27T09:59:04.500Z,french_275.wav,0,poule,540,26,5,5,français,f,1,0.1,50.23093754,1.03531052
5b8fffca220be50001c59858,136,2,2024-02-27T09:59:04.500Z,french_275.wav,0,poule,540,26,5,5,français,f,2,0.2,82.04936404,1.31605034
5b8fffca220be50001c59858,136,2,2024-02-27T09:59:04.500Z,french_275.wav,0,poule,540,26,5,5,français,f,3,0.25666667,-63.35862329,0.72936955
5b8fffca220be50001c59858,137,2,2024-02-27T09:59:04.500Z,french_645.wav,0,poule,615,26,5,5,français,f,0,0.0,39.28095882,1.44479402
5b8fffca220be50001c59858,137,2,2024-02-27T09:59:04.500Z,french_645.wav,0,poule,615,26,5,5,français,f,1,0.1,36.97709506,1.97267477
5b8fffca220be50001c59858,137,2,2024-02-27T09:59:04.500Z,french_645.wav,0,poule,615,26,5,5,français,f,2,0.2,-20.56368862,0.33303832
5b8fffca220be50001c59858,137,2,2024-02-27T09:59:04.500Z,french_645.wav,0,poule,615,26,5,5,français,f,3,0.25666667,45.13755494,0.87530899
5b8fffca220be50001c59858,138,2,2024-02-27T09:59:04.500Z,french_876.wav,0,pull,460,26,5,5,français,f,0,0.0,-63.60663495,1.31328738
5b8fffca220be50001c59858,138,2,2024-02-27T09:59:04.500Z,french_876.wav,0,pull,460,26,5,5,français,f,1,0.1,-33.069551,1.53761103
5b8fffca220be50001c59858,138,2,2024-02-27T09:59:04.500Z,french_876.wav,0,pull,460,26,5,5,français,f,2,0.2,44.38072254,1.15738415
5b8fffca220be50001c59858,138,2,2024-02-27T09:59:04.500Z,french_876.wav,0,pull,460,26,5,5,français,f,3,0.25666667,3.25210733,1.33428182
5b8fffca220be50001c59858,139,2,2024-02-27T09:59:04.500Z,french_163.wav,0,pull,596,26,5,5,français,f,0,0.0,95.00435891,1.26837246
5b8fffca220be50001c59858,139,2,2024-02-27T09:59:04.500Z,french_163.wav,0,pull,596,26,5,5,français,f,1,0.1,41.67922454,0.25754486
5b8fffca220be50001c59858,139,2,2024-02-27T09:59:04.500Z,french_163.wav,0,pull,596,26,5,5,français,f,2,0.2,-79.43338234,1.96804031
5b8fffca220be50001c59858,139,2,2024-02-27T09:59:04.500Z,french_163.wav,0,pull,596,26,5,5,français,f,3,0.25666667,-47.45672342,0.46721947
5b8fffca220be50001c59858,140,2,2024-02-27T09:59:04.500Z,french_773.wav,0,pull,444,26,5,5,français,f,0,0.0,44.49367894,1.02864329
5b8fffca220be50001c59858,140,2,2024-02-27T09:59:04.500Z,french_773.wav,0,pull,444,26,5,5,français,f,1,0.1,-3.70834598,1.31333622
5b8fffca220be50001c59858,140,2,2024-02-27T09:59:04.500Z,french_773.wav,0,pull,444,26,5,5,français,f,2,0.2,10.6701804,0.86217131
5b8fffca220be50001c59858,140,2,2024-02-27T09:59:04.500Z,french_773.wav,0,pull,444,26,5,5,français,f,3,0.25666667,36.58697532,0.61318027
5b8fffca220be50001c59858,141,2,2024-02-27T09:59:04.500Z,french_724.wav,0,pull,449,26,5,5,français,f,0,0.0,-58.96674975,0.30578628
5b8fffca220be50001c59858,141,2,2024-02-27T09:59:04.500Z,french_724.wav,0,pull,449,26,5,5,français,f,1,0.1,-95.33611412,0.57010607
5b8fffca220be50001c59858,141,2,2024-02-27T09:59:04.500Z,french_724.wav,0,pull,449,26,5,5,français,f,2,0.2,-56.69004984,1.33615123
5b8fffca220be50001c59858,141,2,2024-02-27T09:59:04.500Z,french_724.wav,0,pull,449,26,5,5,français,f,3,0.25666667,-50.97008283,1.59962144
5b8fffca220be50001c59858,142,2,2024-02-27T09:59:04.500Z,french_714.wav,0,pull,511,26,5,5,français,f,0,0.0,77.35355583,0.35690042
5b8fffca220be50001c59858,142,2,2024-02-27T09:59:04.500Z,french_714.wav,0,pull,511,26,5,5,français,f,1,0.1,-16.5812175,0.7400083
5b8fffca220be50001c59858,142,2,2024-02-27T09:59:04.500Z,french_714.wav,0,pull,511,26,5,5,français,f,2,0.2,-79.42314022,1.17849399
5b8fffca220be50001c59858,142,2,2024-02-27T09:59:04.500Z,french_714.wav,0,pull,511,26,5,5,français,f,3,0.25666667,64.71981705,1.38365213
5b8fffca220be50001c59858,143,2,2024-02-27T09:59:04.500Z,french_126.wav,0,poule,464,26,5,5,français,f,0,0.0,92.90369484,0.56379558
5b8fffca220be50001c59858,143,2,2024-02-27T09:59:04.500Z,french_126.wav,0,poule,464,26,5,5,français,f,1,0.1,25.09820179,1.73295328
5b8fffca220be50001c59858,143,2,2024-02-27T09:59:04.500Z,french_126.wav,0,poule,464,26,5,5,français,f,2,0.2,92.10026461,0.28067586
5b8fffca220be50001c59858,143,2,2024-02-27T09:59:04.500Z,french_126.wav,0,poule,464,26,5,5,français,f,3,0.25666667,-27.205087,0.82028398
5b8fffca220be50001c59858,144,2,2024-02-27T09:59:04.500Z,french_791.wav,0,pull,484,26,5,5,français,f,0,0.0,-81.64215326,0.09493453
5b8fffca220be50001c59858,144,2,2024-02-27T09:59:04.500Z,french_791.wav,0,pull,484,26,5,5,français,f,1,0.1,84.74526907,0.0053506
5b8fffca220be50001c59858,144,2,2024-02-27T09:59:04.500Z,french_791.wav,0,pull,484,26,5,5,français,f,2,0.2,-10.10354349,1.61132934
5b8fffca220be50001c59858,144,2,2024-02-27T09:59:04.500Z,french_791.wav,0,pull,484,26,5,5,français,f,3,0.25666667,-10.14583619,1.39802197
5b8fffca220be50001c59858,145,2,2024-02-27T09:59:04.500Z,french_432.wav,0,poule,514,26,5,5,français,f,0,0.0,41.78718943,1.64767318
5b8fffca220be50001c59858,145,2,2024-02-27T09:59:04.500Z,french_432.wav,0,poule,514,26,5,5,français,f,1,0.1,-73.8341876,1.66923601
5b8fffca220be50001c59858,145,2,2024-02-27T09:59:04.500Z,french_432.wav,0,poule,514,26,5,5,français,f,2,0.2,2.46605077,1.63004177
5b8fffca220be50001c59858,145,2,2024-02-27T09:59:04.500Z,french_432.wav,0,poule,514,26,5,5,français,f,3,0.25666667,-5.34058627,1.91522166
5b8fffca220be50001c59858,146,2,2024-02-27T09:59:04.500Z,french_121.wav,0,poule,1537,26,5,5,français,f,0,0.0,35.32035933,0.75756688
5b8fffca220be50001c59858,146,2,2024-02-27T09:59:04.500Z,french_121.wav,0,poule,1537,26,5,5,français,f,1,0.1,-67.07725169,1.37771724
5b8fffca220be50001c59858,146,2,2024-02-27T09:59:04.500Z,french_121.wav,0,poule,1537,26,5,5,français,f,2,0.2,83.36951387,1.17860501
5b8fffca220be50001c59858,146,2,2024-02-27T09:59:04.500Z,french_121.wav,0,poule,1537,26,5,5,français,f,3,0.25666667,37.65048559,1.25500134
5b8fffca220be50001c59858,147,2,2024-02-27T09:59:04.500Z,french_475.wav,0,pull,781,26,5,5,français,f,0,0.0,42.4700979,1.46915347
5b8fffca220be50001c59858,147,2,2024-02-27T09:59:04.500Z,french_475.wav,0,pull,781,26,5,5,français,f,1,0.1,19.82242754,0.15565226
5b8fffca220be50001c59858,147,2,2024-02-27T09:59:04.500Z,french_475.wav,0,pull,781,26,5,5,français,f,2,0.2,35.42792781,0.40628011
5b8fffca220be50001c59858,147,2,2024-02-27T09:59:04.500Z,french_475.wav,0,pull,781,26,5,5,français,f,3,0.25666667,-96.45453718,1.14503128
5b8fffca220be50001c59858,148,2,2024-02-27T09:59:04.500Z,french_528.wav,0,poule,887,26,5,5,français,f,0,0.0,88.85530458,1.69331748
5b8fffca220be50001c59858,148,2,2024-02-27T09:59:04.500Z,french_528.wav,0,poule,887,26,5,5,français,f,1,0.1,-87.19636625,0.73621757
5b8fffca220be50001c59858,148,2,2024-02-27T09:59:04.500Z,french_528.wav,0,poule,887,26,5,5,français,f,2,0.2,-45.08147721,0.82405603
5b8fffca220be50001c59858,148,2,2024-02-27T09:59:04.500Z,french_528.wav,0,poule,887,26,5,5,français,f,3,0.25666667,86.03081593,0.01123483
5b8fffca220be50001c59858,149,2,2024-02-27T09:59:04.500Z,french_601.wav,0,pull,760,26,5,5,français,f,0,0.0,57.33302671,0.25823262
5b8fffca220be50001c59858,149,2,2024-02-27T09:59:04.500Z,french_601.wav,0,pull,760,26,5,5,français,f,1,0.1,78.53356314,0.70648058
5b8fffca220be50001c59858,149,2,2024-02-27T09:59:04.500Z,french_601.wav,0,pull,760,26,5,5,français,f,2,0.2,-65.46800755,1.49897987
5b8fffca220be50001c59858,149,2,2024-02-27T09:59:04.500Z,french_601.wav,0,pull,760,26,5,5,français,f,3,0.25666667,15.04245158,0.53904812
5b8fffca220be50001c59858,150,3,2024-02-27T09:59:04.500Z,french_372.wav,0,poule,897,26,5,5,français,f,0,0.0,2.47243072,0.40204166
5b8fffca220be50001c59858,150,3,2024-02-27T09:59:04.500Z,french_372.wav,0,poule,897,26,5,5,français,f,1,0.1,-60.42501292,1.5432551
5b8fffca220be50001c59858,150,3,2024-02-27T09:59:04.500Z,french_372.wav,0,poule,897,26,5,5,français,f,2,0.2,-16.68820648,1.17639585
5b8fffca220be50001c59858,150,3,2024-02-27T09:59:04.500Z,french_372.wav,0,poule,897,26,5,5,français,f,3,0.25666667,27.86473169,1.5977063
5b8fffca220be50001c59858,151,3,2024-02-27T09:59:04.500Z,french_95.wav,0,poule,277,26,5,5,français,f,0,0.0,35.71270194,1.05464779
5b8fffca220be50001c59858,151,3,2024-02-27T09:59:04.500Z,french_95.wav,0,poule,277,26,5,5,français,f,1,0.1,34.21637588,0.916907
5b8fffca220be50001c59858,151,3,2024-02-27T09:59:04.500Z,french_95.wav,0,poule,277,26,5,5,français,f,2,0.2,69.23850983,0.63861668
5b8fffca220be50001c59858,151,3,2024-02-27T09:59:04.500Z,french_95.wav,0,poule,277,26,5,5,français,f,3,0.25666667,-5.02213551,0.96363956
5b8fffca220be50001c59858,152,3,2024-02-27T09:59:04.500Z,french_138.wav,0,poule,196,26,5,5,français,f,0,0.0,52.19266886,1.6075583
5b8fffca220be50001c59858,152,3,2024-02-27T09:59:04.500Z,french_138.wav,0,poule,196,26,5,5,français,f,1,0.1,-20.87110469,1.57175316
5b8fffca220be50001c59858,152,3,2024-02-27T09:59:04.500Z,french_138.wav,0,poule,196,26,5,5,français,f,2,0.2,-63.85285305,0.73019834
5b8fffca220be50001c59858,152,3,2024-02-27T09:59:04.500Z,french_138.wav,0,poule,196,26,5,5,français,f,3,0.25666667,35.09837538,0.12473077
5b8fffca220be50001c59858,153,3,2024-02-27T09:59:04.500Z,french_979.wav,0,poule,242,26,5,5,français,f,0,0.0,58.05333973,1.60321768
5b8fffca220be50001c59858,153,3,2024-02-27T09:59:04.500Z,french_979.wav,0,poule,242,26,5,5,français,f,1,0.1,-10.78982684,0.5155038
5b8fffca220be50001c59858,153,3,2024-02-27T09:59:04.500Z,french_979.wav,0,poule,242,26,5,5,français,f,2,0.2,-1.76147191,0.80270828
5b8fffca220be50001c59858,153,3,2024-02-27T09:59:04.500Z,french_979.wav,0,poule,242,26,5,5,français,f,3,0.25666667,35.54131035,0.30870089
5b8fffca220be50001c59858,154,3,2024-02-27T09:59:04.500Z,french_245.wav,0,poule,215,26,5,5,français,f,0,0.0,-61.74573417,0.99313774
5b8fffca220be50001c59858,154,3,2024-02-27T09:59:04.500Z,french_245.wav,0,poule,215,26,5,5,français,f,1,0.1,71.88692077,1.19752892
5b8fffca220be50001c59858,154,3,2024-02-27T09:59:04.500Z,french_245.wav,0,poule,215,26,5,5,français,f,2,0.2,-28.60272728,1.585112
5b8fffca220be50001c59858,154,3,2024-02-27T09:59:04.500Z,french_245.wav,0,poule,215,26,5,5,français,f,3,0.25666667,-6.96353839,1.16753586
5b8fffca220be50001c59858,155,3,2024-02-27T09:59:04.500Z,french_108.wav,0,poule,341,26,5,5,français,f,0,0.0,-38.50953818,1.14488094
5b8fffca220be50001c59858,155,3,2024-02-27T09:59:04.500Z,french_108.wav,0,poule,341,26,5,5,français,f,1,0.1,44.47590219,1.3820118
5b8fffca220be50001c59858,155,3,2024-02-27T09:59:04.500Z,french_108.wav,0,poule,341,26,5,5,français,f,2,0.2,35.73303492,1.04224754
5b8fffca220be50001c59858,155,3,2024-02-27T09:59:04.500Z,french_108.wav,0,poule,341,26,5,5,français,f,3,0.25666667,-90.35369633,1.51933791
5b8fffca220be50001c59858,156,3,2024-02-27T09:59:04.500Z,french_603.wav,0,poule,276,26,5,5,français,f,0,0.0,59.84554137,1.0661988
5b8fffca220be50001c59858,156,3,2024-02-27T09:59:04.500Z,french_603.wav,0,poule,276,26,5,5,français,f,1,0.1,16.50437024,1.9988244
5b8fffca220be50001c59858,156,3,2024-02-27T09:59:04.500Z,french_603.wav,0,poule,276,26,5,5,français,f,2,0.2,38.82252298,0.61428719
5b8fffca220be50001c59858,156,3,2024-02-27T09:59:04.500Z,french_603.wav,0,poule,276,26,5,5,français,f,3,0.25666667,25.72688984,0.58715273
5b8fffca220be50001c59858,157,3,2024-02-27T09:59:04.500Z,french_367.wav,0,pull,677,26,5,5,français,f,0,0.0,-74.25610099,1.28932343
5b8fffca220be50001c59858,157,3,2024-02-27T09:59:04.500Z,french_367.wav,0,pull,677,26,5,5,français,f,1,0.1,-44.66143863,1.13980767
5b8fffca220be50001c59858,157,3,2024-02-27T09:59:04.500Z,french_367.wav,0,pull,677,26,5,5,français,f,2,0.2,-39.26529042,1.487469
5b8fffca220be50001c59858,157,3,2024-02-27T09:59:04.500Z,french_367.wav,0,pull,677,26,5,5,français,f,3,0.25666667,-84.95145566,0.37349724
5b8fffca220be50001c59858,158,3,2024-02-27T09:59:04.500Z,french_355.wav,0,pull,623,26,5,5,français,f,0,0.0,-92.75119925,0.18544254
5b8fffca220be50001c59858,158,3,2024-02-27T09:59:04.500Z,french_355.wav,0,pull,623,26,5,5,français,f,1,0.1,77.20775246,0.07031399
5b8fffca220be50001c59858,158,3,2024-02-27T09:59:04.500Z,french_355.wav,0,pull,623,26,5,5,français,f,2,0.2,-51.05688592,0.46666342
5b8fffca220be50001c59858,158,3,2024-02-27T09:59:04.500Z,french_355.wav,0,pull,623,26,5,5,français,f,3,0.25666667,27.03743598,1.78468618
5b8fffca220be50001c59858,159,3,2024-02-27T09:59:04.500Z,french_292.wav,0,poule,412,26,5,5,français,f,0,0.0,-5.98307963,1.30181039
5b8fffca220be50001c59858,159,3,2024-02-27T09:59:04.500Z,french_292.wav,0,poule,412,26,5,5,français,f,1,0.1,-89.4143915,0.71580693
5b8fffca220be50001c59858,159,3,2024-02-27T09:59:04.500Z,french_292.wav,0,poule,412,26,5,5,français,f,2,0.2,50.82370108,0.58623796
5b8fffca220be50001c59858,159,3,2024-02-27T09:59:04.500Z,french_292.wav,0,poule,412,26,5,5,français,f,3,0.25666667,-75.87081721,1.49080339
5b8fffca220be50001c59858,160,3,2024-02-27T09:59:04.500Z,french_529.wav,0,pull,820,26,5,5,français,f,0,0.0,54.97727121,0.19662293
5b8fffca220be50001c59858,160,3,2024-02-27T09:59:04.500Z,french_529.wav,0,pull,820,26,5,5,français,f,1,0.1,-15.05833494,1.39103506
5b8fffca220be50001c59858,160,3,2024-02-27T09:59:04.500Z,french_529.wav,0,pull,820,26,5,5,français,f,2,0.2,4.35581279,0.62492467
5b8fffca220be50001c59858,160,3,2024-02-27T09:59:04.500Z,french_529.wav,0,pull,820,26,5,5,français,f,3,0.25666667,-47.03433584,1.10830727
5b8fffca220be50001c59858,161,3,2024-02-27T09:59:04.500Z,french_678.wav,0,pull,1157,26,5,5,français,f,0,0.0,8.99494286,0.31277465
5b8fffca220be50001c59858,161,3,2024-02-27T09:59:04.500Z,french_678.wav,0,pull,1157,26,5,5,français,f,1,0.1,56.3447022,0.04822955
5b8fffca220be50001c59858,161,3,2024-02-27T09:59:04.500Z,french_678.wav,0,pull,1157,26,5,5,français,f,2,0.2,-85.36803825,0.03738606
5b8fffca220be50001c59858,161,3,2024-02-27T09:59:04.500Z,french_678.wav,0,pull,1157,26,5,5,français,f,3,0.25666667,-65.39277698,1.60364947
5b8fffca220be50001c59858,162,3,2024-02-27T09:59:04.500Z,french_870.wav,0,pull,883,26,5,5,français,f,0,0.0,93.84124937,1.21813626
5b8fffca220be50001c59858,162,3,2024-02-27T09:59:04.500Z,french_870.wav,0,pull,883,26,5,5,français,f,1,0.1,28.95893835,0.388995
5b8fffca220be50001c59858,162,3,2024-02-27T09:59:04.500Z,french_870.wav,0,pull,883,26,5,5,français,f,2,0.2,47.67512023,1.25544279
5b8fffca220be50001c59858,162,3,2024-02-27T09:59:04.500Z,french_870.wav,0,pull,883,26,5,5,français,f,3,0.25666667,-4.48390189,0.09184868
5b8fffca220be50001c59858,163,3,2024-02-27T09:59:04.500Z,french_959.wav,0,poule,386,26,5,5,français,f,0,0.0,-92.66274659,1.46575448
5b8fffca220be50001c59858,163,3,2024-02-27T09:59:04.500Z,french_959.wav,0,poule,386,26,5,5,français,f,1,0.1,10.27191584,1.6425047
5b8fffca220be50001c59858,163,3,2024-02-27T09:59:04.500Z,french_959.wav,0,poule,386,26,5,5,français,f,2,0.2,-51.62824615,0.28117244
5b8fffca220be50001c59858,163,3,2024-02-27T09:59:04.500Z,french_959.wav,0,poule,386,26,5,5,français,f,3,0.25666667,-30.4370249,1.68634793
5b8fffca220be50001c59858,164,3,2024-02-27T09:59:04.500Z,french_295.wav,0,poule,569,26,5,5,français,f,0,0.0,98.71232228,1.58912918
5b8fffca220be50001c59858,164,3,2024-02-27T09:59:04.500Z,french_295.wav,0,poule,569,26,5,5,français,f,1,0.1,19.8777742,0.8460381
5b8fffca220be50001c59858,164,3,2024-02-27T09:59:04.500Z,french_295.wav,0,poule,569,26,5,5,français,f,2,0.2,2.02188034,1.72839065
5b8fffca220be50001c59858,164,3,2024-02-27T09:59:04.500Z,french_295.wav,0,poule,569,26,5,5,français,f,3,0.25666667,-4.73018768,1.75057888
5b8fffca220be50001c59858,165,3,2024-02-27T09:59:04.500Z,french_833.wav,0,pull,440,26,5,5,français,f,0,0.0,-6.16556676,1.54939137
5b8fffca220be50001c59858,165,3,2024-02-27T09:59:04.500Z,french_833.wav,0,pull,440,26,5,5,français,f,1,0.1,-32.48345992,0.45028205
5b8fffca220be50001c59858,165,3,2024-02-27T09:59:04.500Z,french_833.wav,0,pull,440,26,5,5,français,f,2,0.2,-28.28033803,0.55227402
5b8fffca220be50001c59858,165,3,2024-02-27T09:59:04.500Z,french_833.wav,0,pull,440,26,5,5,français,f,3,0.25666667,48.73445236,0.7790443
5b8fffca220be50001c59858,166,3,2024-02-27T09:59:04.500Z,french_646.wav,0,poule,366,26,5,5,français,f,0,0.0,98.47808426,1.66300853
5b8fffca220be50001c59858,166,3,2024-02-27T09:59:04.500Z,french_646.wav,0,poule,366,26,5,5,français,f,1,0.1,98.7741611,0.58876545
5b8fffca220be50001c59858,166,3,2024-02-27T09:59:04.500Z,french_646.wav,0,poule,366,26,5,5,français,f,2,0.2,-51.76092723,0.47940067
5b8fffca220be50001c59858,166,3,2024-02-27T09:59:04.500Z,french_646.wav,0,poule,366,26,5,5,français,f,3,0.25666667,53.55118827,0.48942216
5b8fffca220be50001c59858,167,3,2024-02-27T09:59:04.500Z,french_621.wav,0,pull,1098,26,5,5,français,f,0,0.0,-65.12133357,1.7602607
5b8fffca220be50001c59858,167,3,2024-02-27T09:59:04.500Z,french_621.wav,0,pull,1098,26,5,5,français,f,1,0.1,-34.98790471,0.92649718
5b8fffca220be50001c59858,167,3,2024-02-27T09:59:04.500Z,french_621.wav,0,pull,1098,26,5,5,français,f,2,0.2,-12.78608876,1.46782633
5b8fffca220be50001c59858,167,3,2024-02-27T09:59:04.500Z,french_621.wav,0,pull,1098,26,5,5,français,f,3,0.25666667,53.53170361,0.68266442
5b8fffca220be50001c59858,168,3,2024-02-27T09:59:04.500Z,french_443.wav,0,pull,1337,26,5,5,français,f,0,0.0,-70.8287672,0.48827419
5b8fffca220be50001c59858,168,3,2024-02-27T09:59:04.500Z,french_443.wav,0,pull,1337,26,5,5,français,f,1,0.1,-57.74098156,0.38931866
5b8fffca220be50001c59858,168,3,2024-02-27T09:59:04.500Z,french_443.wav,0,pull,1337,26,5,5,français,f,2,0.2,-4.83347895,0.64406231
5b8fffca220be50001c59858,168,3,2024-02-27T09:59:04.500Z,french_443.wav,0,pull,1337,26,5,5,français,f,3,0.25666667,-81.70376308,1.21599086
5b8fffca220be50001c59858,169,3,2024-02-27T09:59:04.500Z,french_78.wav,0,poule,292,26,5,5,français,f,0,0.0,-36.45256911,0.98498246
5b8fffca220be50001c59858,169,3,2024-02-27T09:59:04.500Z,french_78.wav,0,poule,292,26,5,5,français,f,1,0.1,52.80709263,1.84515784
5b8fffca220be50001c59858,169,3,2024-02-27T09:59:04.500Z,french_78.wav,0,poule,292,26,5,5,français,f,2,0.2,-45.25624127,1.50799972
5b8fffca220be50001c59858,169,3,2024-02-27T09:59:04.500Z,french_78.wav,0,poule,292,26,5,5,français,f,3,0.25666667,18.96418323,1.61920031
5b8fffca220be50001c59858,170,3,2024-02-27T09:59:04.500Z,french_109.wav,0,poule,499,26,5,5,français,f,0,0.0,-57.66612313,0.91141338
5b8fffca220be50001c59858,170,3,2024-02-27T09:59:04.500Z,french_109.wav,0,poule,499,26,5,5,français,f,1,0.1,-72.54090479,1.63809523
5b8fffca220be50001c59858,170,3,2024-02-27T09:59:04.500Z,french_109.wav,0,poule,499,26,5,5,français,f,2,0.2,-5.66573875,1.08686957
5b8fffca220be50001c59858,170,3,2024-02-27T09:59:04.500Z,french_109.wav,0,poule,499,26,5,5,français,f,3,0.25666667,-86.22212262,0.85420458
5b8fffca220be50001c59858,171,3,2024-02-27T09:59:04.500Z,french_336.wav,0,poule,417,26,5,5,français,f,0,0.0,-59.08437243,0.65572155
5b8fffca220be50001c59858,171,3,2024-02-27T09:59:04.500Z,french_336.wav,0,poule,417,26,5,5,français,f,1,0.1,-11.33502928,1.68249373
5b8fffca220be50001c59858,171,3,2024-02-27T09:59:04.500Z,french_336.wav,0,poule,417,26,5,5,français,f,2,0.2,-8.85944942,0.52457197
5b8fffca220be50001c59858,171,3,2024-02-27T09:59:04.500Z,french_336.wav,0,poule,417,26,5,5,français,f,3,0.25666667,-2.33471857,1.1312199
5b8fffca220be50001c59858,172,3,2024-02-27T09:59:04.500Z,french_315.wav,0,pull,742,26,5,5,français,f,0,0.0,84.5751695,1.39276289
5b8fffca220be50001c59858,172,3,2024-02-27T09:59:04.500Z,french_315.wav,0,pull,742,26,5,5,français,f,1,0.1,-54.9339599,0.42909402
5b8fffca220be50001c59858,172,3,2024-02-27T09:59:04.500Z,french_315.wav,0,pull,742,26,5,5,français,f,2,0.2,-20.4659381,1.80166787
5b8fffca220be50001c59858,172,3,2024-02-27T09:59:04.500Z,french_315.wav,0,pull,742,26,5,5,français,f,3,0.256666667,0.0497627412,1.01422067
5b8fffca220be50001c59858,173,3,2024-02-27T09:59:04.500Z,french_660.wav,0,pull,508,26,5,5,français,f,0,0.0,-75.02051955,0.75293762
5b8fffca220be50001c59858,173,3,2024-02-27T09:59:04.500Z,french_660.wav,0,pull,508,26,5,5,français,f,1,0.1,-36.41679043,0.97452375
5b8fffca220be50001c59858,173,3,2024-02-27T09:59:04.500Z,french_660.wav,0,pull,508,26,5,5,français,f,2,0.2,-45.60366398,1.88941483
5b8fffca220be50001c59858,173,3,2024-02-27T09:59:04.500Z,french_660.wav,0,pull,508,26,5,5,français,f,3,0.25666667,13.07838485,0.53297117
5b8fffca220be50001c59858,174,3,2024-02-27T09:59:04.500Z,french_747.wav,0,pull,665,26,5,5,français,f,0,0.0,81.67289695,0.03581997
5b8fffca220be50001c59858,174,3,2024-02-27T09:59:04.500Z,french_747.wav,0,pull,665,26,5,5,français,f,1,0.1,-95.51692527,0.40356434
5b8fffca220be50001c59858,174,3,2024-02-27T09:59:04.500Z,french_747.wav,0,pull,665,26,5,5,français,f,2,0.2,8.63144179,0.58773385
5b8fffca220be50001c59858,174,3,2024-02-27T09:59:04.500Z,french_747.wav,0,pull,665,26,5,5,français,f,3,0.25666667,-85.56554801,1.10376778
5b8fffca220be50001c59858,175,3,2024-02-27T09:59:04.500Z,french_987.wav,0,pull,701,26,5,5,français,f,0,0.0,29.59235099,0.62183529
5b8fffca220be50001c59858,175,3,2024-02-27T09:59:04.500Z,french_987.wav,0,pull,701,26,5,5,français,f,1,0.1,34.94187385,0.21370909
5b8fffca220be50001c59858,175,3,2024-02-27T09:59:04.500Z,french_987.wav,0,pull,701,26,5,5,français,f,2,0.2,50.69614072,0.33639435
5b8fffca220be50001c59858,175,3,2024-02-27T09:59:04.500Z,french_987.wav,0,pull,701,26,5,5,français,f,3,0.25666667,30.08512425,1.23768731
5b8fffca220be50001c59858,176,3,2024-02-27T09:59:04.500Z,french_553.wav,0,poule,618,26,5,5,français,f,0,0.0,-1.38146628,0.44011383
5b8fffca220be50001c59858,176,3,2024-02-27T09:59:04.500Z,french_553.wav,0,poule,618,26,5,5,français,f,1,0.1,-34.28745567,1.14829302
5b8fffca220be50001c59858,176,3,2024-02-27T09:59:04.500Z,french_553.wav,0,poule,618,26,5,5,français,f,2,0.2,6.87532462,1.07508961
5b8fffca220be50001c59858,176,3,2024-02-27T09:59:04.500Z,french_553.wav,0,poule,618,26,5,5,français,f,3,0.25666667,90.98690029,0.10252166
5b8fffca220be50001c59858,177,3,2024-02-27T09:59:04.500Z,french_756.wav,0,poule,367,26,5,5,français,f,0,0.0,35.62001521,0.86430693
5b8fffca220be50001c59858,177,3,2024-02-27T09:59:04.500Z,french_756.wav,0,poule,367,26,5,5,français,f,1,0.1,29.8199127,1.17673467
5b8fffca220be50001c59858,177,3,2024-02-27T09:59:04.500Z,french_756.wav,0,poule,367,26,5,5,français,f,2,0.2,-2.36977437,1.63370718
5b8fffca220be50001c59858,177,3,2024-02-27T09:59:04.500Z,french_756.wav,0,poule,367,26,5,5,français,f,3,0.25666667,-73.14220453,1.98740672
5b8fffca220be50001c59858,178,3,2024-02-27T09:59:04.500Z,french_132.wav,0,poule,591,26,5,5,français,f,0,0.0,55.7159221,0.1336911
5b8fffca220be50001c59858,178,3,2024-02-27T09:59:04.500Z,french_132.wav,0,poule,591,26,5,5,français,f,1,0.1,96.01047895,1.63690434
5b8fffca220be50001c59858,178,3,2024-02-27T09:59:04.500Z,french_132.wav,0,poule,591,26,5,5,français,f,2,0.2,-30.71931346,0.7825174
5b8fffca220be50001c59858,178,3,2024-02-27T09:59:04.500Z,french_132.wav,0,poule,591,26,5,5,français,f,3,0.25666667,34.53763016,1.49477333
5b8fffca220be50001c59858,179,3,2024-02-27T09:59:04.500Z,french_62.wav,0,pull,767,26,5,5,français,f,0,0.0,-14.31975686,0.1654928
5b8fffca220be50001c59858,179,3,2024-02-27T09:59:04.500Z,french_62.wav,0,pull,767,26,5,5,français,f,1,0.1,44.56193131,0.95189119
5b8fffca220be50001c59858,179,3,2024-02-27T09:59:04.500Z,french_62.wav,0,pull,767,26,5,5,français,f,2,0.2,-86.7672378,0.13775192
5b8fffca220be50001c59858,179,3,2024-02-27T09:59:04.500Z,french_62.wav,0,pull,767,26,5,5,français,f,3,0.25666667,88.73328565,1.69441392
5b8fffca220be50001c59858,180,3,2024-02-27T09:59:04.500Z,french_45.wav,0,poule,557,26,5,5,français,f,0,0.0,6.51510613,0.83763225
5b8fffca220be50001c59858,180,3,2024-02-27T09:59:04.500Z,french_45.wav,0,poule,557,26,5,5,français,f,1,0.1,-86.25018513,1.19709151
5b8fffca220be50001c59858,180,3,2024-02-27T09:59:04.500Z,french_45.wav,0,poule,557,26,5,5,français,f,2,0.2,-60.46903131,0.87484565
5b8fffca220be50001c59858,180,3,2024-02-27T09:59:04.500Z,french_45.wav,0,poule,557,26,5,5,français,f,3,0.25666667,-48.31089161,0.45414185
5b8fffca220be50001c59858,181,3,2024-02-27T09:59:04.500Z,french_1.wav,0,pull,1109,26,5,5,français,f,0,0.0,91.87409443,0.51984737
5b8fffca220be50001c59858,181,3,2024-02-27T09:59:04.500Z,french_1.wav,0,pull,1109,26,5,5,français,f,1,0.1,-48.89112434,0.07214845
5b8fffca220be50001c59858,181,3,2024-02-27T09:59:04.500Z,french_1.wav,0,pull,1109,26,5,5,français,f,2,0.2,27.67932603,1.75660136
5b8fffca220be50001c59858,181,3,2024-02-27T09:59:04.500Z,french_1.wav,0,pull,1109,26,5,5,français,f,3,0.25666667,13.64945055,0.58315139
5b8fffca220be50001c59858,182,3,2024-02-27T09:59:04.500Z,french_98.wav,0,poule,554,26,5,5,français,f,0,0.0,-5.34356544,0.47275823
5b8fffca220be50001c59858,182,3,2024-02-27T09:59:04.500Z,french_98.wav,0,poule,554,26,5,5,français,f,1,0.1,-51.77157259,0.98771666
5b8fffca220be50001c59858,182,3,2024-02-27T09:59:04.500Z,french_98.wav,0,poule,554,26,5,5,français,f,2,0.2,16.6615471,0.01400035
5b8fffca220be50001c59858,182,3,2024-02-27T09:59:04.500Z,french_98.wav,0,poule,554,26,5,5,français,f,3,0.25666667,-37.68560636,0.42827786
5b8fffca220be50001c59858,183,3,2024-02-27T09:59:04.500Z,french_841.wav,0,pull,811,26,5,5,français,f,0,0.0,-39.25619305,0.53587318
5b8fffca220be50001c59858,183,3,2024-02-27T09:59:04.500Z,french_841.wav,0,pull,811,26,5,5,français,f,1,0.1,99.64346723,0.26500163
5b8fffca220be50001c59858,183,3,2024-02-27T09:59:04.500Z,french_841.wav,0,pull,811,26,5,5,français,f,2,0.2,76.90020667,1.77796469
5b8fffca220be50001c59858,183,3,2024-02-27T09:59:04.500Z,french_841.wav,0,pull,811,26,5,5,français,f,3,0.25666667,40.01429738,0.75111943
5b8fffca220be50001c59858,184,3,2024-02-27T09:59:04.500Z,french_661.wav,0,poule,542,26,5,5,français,f,0,0.0,34.1047988,1.29957539
5b8fffca220be50001c59858,184,3,2024-02-27T09:59:04.500Z,french_661.wav,0,poule,542,26,5,5,français,f,1,0.1,-45.42737183,0.81809843
5b8fffca220be50001c59858,184,3,2024-02-27T09:59:04.500Z,french_661.wav,0,poule,542,26,5,5,français,f,2,0.2,-32.96226792,1.39938296
5b8fffca220be50001c59858,184,3,2024-02-27T09:59:04.500Z,french_661.wav,0,poule,542,26,5,5,français,f,3,0.25666667,51.87575508,1.33634107
5b8fffca220be50001c59858,185,3,2024-02-27T09:59:04.500Z,french_341.wav,0,poule,521,26,5,5,français,f,0,0.0,20.04332725,1.4438644
5b8fffca220be50001c59858,185,3,2024-02-27T09:59:04.500Z,french_341.wav,0,poule,521,26,5,5,français,f,1,0.1,-82.29685822,0.08336385
5b8fffca220be50001c59858,185,3,2024-02-27T09:59:04.500Z,french_341.wav,0,poule,521,26,5,5,français,f,2,0.2,-35.12302466,0.04329086
5b8fffca220be50001c59858,185,3,2024-02-27T09:59:04.500Z,french_341.wav,0,poule,521,26,5,5,français,f,3,0.25666667,58.90486556,0.76896482
5b8fffca220be50001c59858,186,3,2024-02-27T09:59:04.500Z,french_816.wav,0,poule,440,26,5,5,français,f,0,0.0,-39.39804621,1.26291691
5b8fffca220be50001c59858,186,3,2024-02-27T09:59:04.500Z,french_816.wav,0,poule,440,26,5,5,français,f,1,0.1,14.23792488,1.60181117
5b8fffca220be50001c59858,186,3,2024-02-27T09:59:04.500Z,french_816.wav,0,poule,440,26,5,5,français,f,2,0.2,-84.08825282,0.57012939
5b8fffca220be50001c59858,186,3,2024-02-27T09:59:04.500Z,french_816.wav,0,poule,440,26,5,5,français,f,3,0.25666667,-46.46940665,1.06315664
5b8fffca220be50001c59858,187,3,2024-02-27T09:59:04.500Z,french_676.wav,0,poule,1906,26,5,5,français,f,0,0.0,77.51634327,0.52312795
5b8fffca220be50001c59858,187,3,2024-02-27T09:59:04.500Z,french_676.wav,0,poule,1906,26,5,5,français,f,1,0.1,-98.7950763,0.58996043
5b8fffca220be50001c59858,187,3,2024-02-27T09:59:04.500Z,french_676.wav,0,poule,1906,26,5,5,français,f,2,0.2,-10.44477989,1.89966038
5b8fffca220be50001c59858,187,3,2024-02-27T09:59:04.500Z,french_676.wav,0,poule,1906,26,5,5,français,f,3,0.25666667,3.71960258,0.61903343
5b8fffca220be50001c59858,188,3,2024-02-27T09:59:04.500Z,french_297.wav,0,poule,411,26,5,5,français,f,0,0.0,66.56614261,0.35086225
5b8fffca220be50001c59858,188,3,2024-02-27T09:59:04.500Z,french_297.wav,0,poule,411,26,5,5,français,f,1,0.1,-3.32812159,1.7876007
5b8fffca220be50001c59858,188,3,2024-02-27T09:59:04.500Z,french_297.wav,0,poule,411,26,5,5,français,f,2,0.2,85.62103424,0.63077709
5b8fffca220be50001c59858,188,3,2024-02-27T09:59:04.500Z,french_297.wav,0,poule,411,26,5,5,français,f,3,0.25666667,92.99895728,0.65985351
5b8fffca220be50001c59858,189,3,2024-02-27T09:59:04.500Z,french_281.wav,0,poule,521,26,5,5,français,f,0,0.0,4.01359856,1.28629226
5b8fffca220be50001c59858,189,3,2024-02-27T09:59:04.500Z,french_281.wav,0,poule,521,26,5,5,français,f,1,0.1,1.45942388,0.42556587
5b8fffca220be50001c59858,189,3,2024-02-27T09:59:04.500Z,french_281.wav,0,poule,521,26,5,5,français,f,2,0.2,95.6401263,0.86080411
5b8fffca220be50001c59858,189,3,2024-02-27T09:59:04.500Z,french_281.wav,0,poule,521,26,5,5,français,f,3,0.25666667,25.46106052,1.04114743
5b8fffca220be50001c59858,190,3,2024-02-27T09:59:04.500Z,french_517.wav,0,pull,1122,26,5,5,français,f,0,0.0,10.61669355,0.19899019
5b8fffca220be50001c59858,190,3,2024-02-27T09:59:04.500Z,french_517.wav,0,pull,1122,26,5,5,français,f,1,0.1,-49.88851761,1.4553669
