subj,trial,block,date,stim,stim_order,response,rt,age,english,french,language,sex,param_index,segment,pitch,stretch
6156e3e5439db9e60d24df29,0,0,2024-02-27T09:30:31.756Z,french_847.wav,0,poule,5898,32,4,5,français,f,0,0.0,-8.33122073,1.64160395
6156e3e5439db9e60d24df29,0,0,2024-02-27T09:30:31.756Z,french_847.wav,0,poule,5898,32,4,5,français,f,1,0.1,28.51239659,0.11991739
6156e3e5439db9e60d24df29,0,0,2024-02-27T09:30:31.756Z,french_847.wav,0,poule,5898,32,4,5,français,f,2,0.2,-26.33136573,1.12824789
6156e3e5439db9e60d24df29,0,0,2024-02-27T09:30:31.756Z,french_847.wav,0,poule,5898,32,4,5,français,f,3,0.25666667,21.45038454,0.68287375
6156e3e5439db9e60d24df29,1,0,2024-02-27T09:30:31.756Z,french_7.wav,0,pull,4502,32,4,5,français,f,0,0.0,-71.02833311,1.79953402
6156e3e5439db9e60d24df29,1,0,2024-02-27T09:30:31.756Z,french_7.wav,0,pull,4502,32,4,5,français,f,1,0.1,-12.38691322,1.89065694
6156e3e5439db9e60d24df29,1,0,2024-02-27T09:30:31.756Z,french_7.wav,0,pull,4502,32,4,5,français,f,2,0.2,-62.8930846,0.59849277
6156e3e5439db9e60d24df29,1,0,2024-02-27T09:30:31.756Z,french_7.wav,0,pull,4502,32,4,5,français,f,3,0.25666667,27.53159518,0.94237915
6156e3e5439db9e60d24df29,2,0,2024-02-27T09:30:31.756Z,french_454.wav,0,poule,3697,32,4,5,français,f,0,0.0,-2.34959028,0.74247593
6156e3e5439db9e60d24df29,2,0,2024-02-27T09:30:31.756Z,french_454.wav,0,poule,3697,32,4,5,français,f,1,0.1,-12.00596157,1.74271244
6156e3e5439db9e60d24df29,2,0,2024-02-27T09:30:31.756Z,french_454.wav,0,poule,3697,32,4,5,français,f,2,0.2,53.09832594,0.67609159
6156e3e5439db9e60d24df29,2,0,2024-02-27T09:30:31.756Z,french_454.wav,0,poule,3697,32,4,5,français,f,3,0.25666667,2.06709411,1.84499539
6156e3e5439db9e60d24df29,3,0,2024-02-27T09:30:31.756Z,french_552.wav,0,poule,1429,32,4,5,français,f,0,0.0,-52.32363839,0.44295398
6156e3e5439db9e60d24df29,3,0,2024-02-27T09:30:31.756Z,french_552.wav,0,poule,1429,32,4,5,français,f,1,0.1,23.44364533,1.4520287
6156e3e5439db9e60d24df29,3,0,2024-02-27T09:30:31.756Z,french_552.wav,0,poule,1429,32,4,5,français,f,2,0.2,72.20212972,0.63620541
6156e3e5439db9e60d24df29,3,0,2024-02-27T09:30:31.756Z,french_552.wav,0,poule,1429,32,4,5,français,f,3,0.25666667,-25.42911122,1.39952151
6156e3e5439db9e60d24df29,4,0,2024-02-27T09:30:31.756Z,french_824.wav,0,poule,6110,32,4,5,français,f,0,0.0,95.58094713,1.84230129
6156e3e5439db9e60d24df29,4,0,2024-02-27T09:30:31.756Z,french_824.wav,0,poule,6110,32,4,5,français,f,1,0.1,-47.05258515,1.74244762
6156e3e5439db9e60d24df29,4,0,2024-02-27T09:30:31.756Z,french_824.wav,0,poule,6110,32,4,5,français,f,2,0.2,43.18521816,1.04703492
6156e3e5439db9e60d24df29,4,0,2024-02-27T09:30:31.756Z,french_824.wav,0,poule,6110,32,4,5,français,f,3,0.25666667,-5.69582576,0.75358401
6156e3e5439db9e60d24df29,5,0,2024-02-27T09:30:31.756Z,french_221.wav,0,poule,3267,32,4,5,français,f,0,0.0,-51.4093514,1.39236456
6156e3e5439db9e60d24df29,5,0,2024-02-27T09:30:31.756Z,french_221.wav,0,poule,3267,32,4,5,français,f,1,0.1,-69.26159538,1.1318895
6156e3e5439db9e60d24df29,5,0,2024-02-27T09:30:31.756Z,french_221.wav,0,poule,3267,32,4,5,français,f,2,0.2,-72.79183118,0.94601275
6156e3e5439db9e60d24df29,5,0,2024-02-27T09:30:31.756Z,french_221.wav,0,poule,3267,32,4,5,français,f,3,0.25666667,34.31828887,1.80964418
6156e3e5439db9e60d24df29,6,0,2024-02-27T09:30:31.756Z,french_707.wav,0,poule,1530,32,4,5,français,f,0,0.0,77.25708539,0.72667473
6156e3e5439db9e60d24df29,6,0,2024-02-27T09:30:31.756Z,french_707.wav,0,poule,1530,32,4,5,français,f,1,0.1,-54.8008957,1.98017833
6156e3e5439db9e60d24df29,6,0,2024-02-27T09:30:31.756Z,french_707.wav,0,poule,1530,32,4,5,français,f,2,0.2,-15.62691875,0.70006776
6156e3e5439db9e60d24df29,6,0,2024-02-27T09:30:31.756Z,french_707.wav,0,poule,1530,32,4,5,français,f,3,0.25666667,8.64437522,1.11828401
6156e3e5439db9e60d24df29,7,0,2024-02-27T09:30:31.756Z,french_587.wav,0,poule,551,32,4,5,français,f,0,0.0,-75.34784911,1.71069253
6156e3e5439db9e60d24df29,7,0,2024-02-27T09:30:31.756Z,french_587.wav,0,poule,551,32,4,5,français,f,1,0.1,20.53880501,1.37718063
6156e3e5439db9e60d24df29,7,0,2024-02-27T09:30:31.756Z,french_587.wav,0,poule,551,32,4,5,français,f,2,0.2,-66.82934855,1.47865121
6156e3e5439db9e60d24df29,7,0,2024-02-27T09:30:31.756Z,french_587.wav,0,poule,551,32,4,5,français,f,3,0.25666667,0.42354047,1.29460257
6156e3e5439db9e60d24df29,8,0,2024-02-27T09:30:31.756Z,french_920.wav,0,poule,1001,32,4,5,français,f,0,0.0,98.83591172,0.7646584
6156e3e5439db9e60d24df29,8,0,2024-02-27T09:30:31.756Z,french_920.wav,0,poule,1001,32,4,5,français,f,1,0.1,-64.95643085,1.02879579
6156e3e5439db9e60d24df29,8,0,2024-02-27T09:30:31.756Z,french_920.wav,0,poule,1001,32,4,5,français,f,2,0.2,1.57326281,1.0684491
6156e3e5439db9e60d24df29,8,0,2024-02-27T09:30:31.756Z,french_920.wav,0,poule,1001,32,4,5,français,f,3,0.25666667,-25.63648329,0.89198175
6156e3e5439db9e60d24df29,9,0,2024-02-27T09:30:31.756Z,french_643.wav,0,poule,1324,32,4,5,français,f,0,0.0,63.91458592,0.06817761
6156e3e5439db9e60d24df29,9,0,2024-02-27T09:30:31.756Z,french_643.wav,0,poule,1324,32,4,5,français,f,1,0.1,-87.79617997,1.72915736
6156e3e5439db9e60d24df29,9,0,2024-02-27T09:30:31.756Z,french_643.wav,0,poule,1324,32,4,5,français,f,2,0.2,-35.4412084,1.06879305
6156e3e5439db9e60d24df29,9,0,2024-02-27T09:30:31.756Z,french_643.wav,0,poule,1324,32,4,5,français,f,3,0.25666667,41.82610472,1.26220402
6156e3e5439db9e60d24df29,10,0,2024-02-27T09:30:31.756Z,french_300.wav,0,poule,1180,32,4,5,français,f,0,0.0,-13.28568226,1.4723541
6156e3e5439db9e60d24df29,10,0,2024-02-27T09:30:31.756Z,french_300.wav,0,poule,1180,32,4,5,français,f,1,0.1,80.95964609,1.07308012
6156e3e5439db9e60d24df29,10,0,2024-02-27T09:30:31.756Z,french_300.wav,0,poule,1180,32,4,5,français,f,2,0.2,97.81212175,1.14674573
6156e3e5439db9e60d24df29,10,0,2024-02-27T09:30:31.756Z,french_300.wav,0,poule,1180,32,4,5,français,f,3,0.25666667,60.85112551,1.78656344
6156e3e5439db9e60d24df29,11,0,2024-02-27T09:30:31.756Z,french_374.wav,0,pull,1690,32,4,5,français,f,0,0.0,23.12233407,0.63582229
6156e3e5439db9e60d24df29,11,0,2024-02-27T09:30:31.756Z,french_374.wav,0,pull,1690,32,4,5,français,f,1,0.1,4.88786521,0.48218095
6156e3e5439db9e60d24df29,11,0,2024-02-27T09:30:31.756Z,french_374.wav,0,pull,1690,32,4,5,français,f,2,0.2,75.40336837,0.81003499
6156e3e5439db9e60d24df29,11,0,2024-02-27T09:30:31.756Z,french_374.wav,0,pull,1690,32,4,5,français,f,3,0.25666667,-52.23092949,1.31471089
6156e3e5439db9e60d24df29,12,0,2024-02-27T09:30:31.756Z,french_794.wav,0,poule,1209,32,4,5,français,f,0,0.0,-41.85324617,0.4524196
6156e3e5439db9e60d24df29,12,0,2024-02-27T09:30:31.756Z,french_794.wav,0,poule,1209,32,4,5,français,f,1,0.1,1.64774739,1.94571184
6156e3e5439db9e60d24df29,12,0,2024-02-27T09:30:31.756Z,french_794.wav,0,poule,1209,32,4,5,français,f,2,0.2,-16.9250465,1.39882797
6156e3e5439db9e60d24df29,12,0,2024-02-27T09:30:31.756Z,french_794.wav,0,poule,1209,32,4,5,français,f,3,0.25666667,-47.53807225,0.19962905
6156e3e5439db9e60d24df29,13,0,2024-02-27T09:30:31.756Z,french_714.wav,0,pull,1366,32,4,5,français,f,0,0.0,77.35355583,0.35690042
6156e3e5439db9e60d24df29,13,0,2024-02-27T09:30:31.756Z,french_714.wav,0,pull,1366,32,4,5,français,f,1,0.1,-16.5812175,0.7400083
6156e3e5439db9e60d24df29,13,0,2024-02-27T09:30:31.756Z,french_714.wav,0,pull,1366,32,4,5,français,f,2,0.2,-79.42314022,1.17849399
6156e3e5439db9e60d24df29,13,0,2024-02-27T09:30:31.756Z,french_714.wav,0,pull,1366,32,4,5,français,f,3,0.25666667,64.71981705,1.38365213
6156e3e5439db9e60d24df29,14,0,2024-02-27T09:30:31.756Z,french_338.wav,0,pull,1783,32,4,5,français,f,0,0.0,-59.42111132,1.60060286
6156e3e5439db9e60d24df29,14,0,2024-02-27T09:30:31.756Z,french_338.wav,0,pull,1783,32,4,5,français,f,1,0.1,-69.70478814,0.22517269
6156e3e5439db9e60d24df29,14,0,2024-02-27T09:30:31.756Z,french_338.wav,0,pull,1783,32,4,5,français,f,2,0.2,-12.60920347,1.52190999
6156e3e5439db9e60d24df29,14,0,2024-02-27T09:30:31.756Z,french_338.wav,0,pull,1783,32,4,5,français,f,3,0.25666667,-82.44797384,0.82265445
6156e3e5439db9e60d24df29,15,0,2024-02-27T09:30:31.756Z,french_720.wav,0,poule,1866,32,4,5,français,f,0,0.0,-84.90658582,1.45299565
6156e3e5439db9e60d24df29,15,0,2024-02-27T09:30:31.756Z,french_720.wav,0,poule,1866,32,4,5,français,f,1,0.1,42.34331668,1.58494494
6156e3e5439db9e60d24df29,15,0,2024-02-27T09:30:31.756Z,french_720.wav,0,poule,1866,32,4,5,français,f,2,0.2,-51.84568825,1.67187292
6156e3e5439db9e60d24df29,15,0,2024-02-27T09:30:31.756Z,french_720.wav,0,poule,1866,32,4,5,français,f,3,0.25666667,70.93496883,0.90000718
6156e3e5439db9e60d24df29,16,0,2024-02-27T09:30:31.756Z,french_665.wav,0,poule,3339,32,4,5,français,f,0,0.0,1.77078633,0.29838278
6156e3e5439db9e60d24df29,16,0,2024-02-27T09:30:31.756Z,french_665.wav,0,poule,3339,32,4,5,français,f,1,0.1,-95.60257374,0.72198918
6156e3e5439db9e60d24df29,16,0,2024-02-27T09:30:31.756Z,french_665.wav,0,poule,3339,32,4,5,français,f,2,0.2,-26.21333041,0.91284695
6156e3e5439db9e60d24df29,16,0,2024-02-27T09:30:31.756Z,french_665.wav,0,poule,3339,32,4,5,français,f,3,0.25666667,-67.7705493,0.52625369
6156e3e5439db9e60d24df29,17,0,2024-02-27T09:30:31.756Z,french_254.wav,0,poule,694,32,4,5,français,f,0,0.0,-80.26287383,0.610966
6156e3e5439db9e60d24df29,17,0,2024-02-27T09:30:31.756Z,french_254.wav,0,poule,694,32,4,5,français,f,1,0.1,-40.33934554,1.74213191
6156e3e5439db9e60d24df29,17,0,2024-02-27T09:30:31.756Z,french_254.wav,0,poule,694,32,4,5,français,f,2,0.2,63.1875163,0.92287848
6156e3e5439db9e60d24df29,17,0,2024-02-27T09:30:31.756Z,french_254.wav,0,poule,694,32,4,5,français,f,3,0.25666667,55.87543548,0.4746978
6156e3e5439db9e60d24df29,18,0,2024-02-27T09:30:31.756Z,french_630.wav,0,poule,735,32,4,5,français,f,0,0.0,77.73428331,1.3363399
6156e3e5439db9e60d24df29,18,0,2024-02-27T09:30:31.756Z,french_630.wav,0,poule,735,32,4,5,français,f,1,0.1,-25.60495453,1.21399003
6156e3e5439db9e60d24df29,18,0,2024-02-27T09:30:31.756Z,french_630.wav,0,poule,735,32,4,5,français,f,2,0.2,64.05787884,0.69039687
6156e3e5439db9e60d24df29,18,0,2024-02-27T09:30:31.756Z,french_630.wav,0,poule,735,32,4,5,français,f,3,0.25666667,12.38181906,0.92340198
6156e3e5439db9e60d24df29,19,0,2024-02-27T09:30:31.756Z,french_81.wav,0,poule,560,32,4,5,français,f,0,0.0,43.03410676,0.84411959
6156e3e5439db9e60d24df29,19,0,2024-02-27T09:30:31.756Z,french_81.wav,0,poule,560,32,4,5,français,f,1,0.1,37.87573495,1.10924478
6156e3e5439db9e60d24df29,19,0,2024-02-27T09:30:31.756Z,french_81.wav,0,poule,560,32,4,5,français,f,2,0.2,-9.17332854,1.82652056
6156e3e5439db9e60d24df29,19,0,2024-02-27T09:30:31.756Z,french_81.wav,0,poule,560,32,4,5,français,f,3,0.25666667,10.13667473,1.52638082
6156e3e5439db9e60d24df29,20,0,2024-02-27T09:30:31.756Z,french_955.wav,0,pull,1247,32,4,5,français,f,0,0.0,49.41572239,1.13440167
6156e3e5439db9e60d24df29,20,0,2024-02-27T09:30:31.756Z,french_955.wav,0,pull,1247,32,4,5,français,f,1,0.1,75.37923123,1.49278765
6156e3e5439db9e60d24df29,20,0,2024-02-27T09:30:31.756Z,french_955.wav,0,pull,1247,32,4,5,français,f,2,0.2,0.1370905,0.20624254
6156e3e5439db9e60d24df29,20,0,2024-02-27T09:30:31.756Z,french_955.wav,0,pull,1247,32,4,5,français,f,3,0.25666667,22.03577701,0.01599226
6156e3e5439db9e60d24df29,21,0,2024-02-27T09:30:31.756Z,french_710.wav,0,pull,1363,32,4,5,français,f,0,0.0,-54.00258077,0.87889336
6156e3e5439db9e60d24df29,21,0,2024-02-27T09:30:31.756Z,french_710.wav,0,pull,1363,32,4,5,français,f,1,0.1,34.45486491,0.7692559
6156e3e5439db9e60d24df29,21,0,2024-02-27T09:30:31.756Z,french_710.wav,0,pull,1363,32,4,5,français,f,2,0.2,63.8215693,0.4253567
6156e3e5439db9e60d24df29,21,0,2024-02-27T09:30:31.756Z,french_710.wav,0,pull,1363,32,4,5,français,f,3,0.25666667,15.83931319,0.40649008
6156e3e5439db9e60d24df29,22,0,2024-02-27T09:30:31.756Z,french_554.wav,0,poule,571,32,4,5,français,f,0,0.0,-31.9650703,1.45983082
6156e3e5439db9e60d24df29,22,0,2024-02-27T09:30:31.756Z,french_554.wav,0,poule,571,32,4,5,français,f,1,0.1,78.95364823,0.40013818
6156e3e5439db9e60d24df29,22,0,2024-02-27T09:30:31.756Z,french_554.wav,0,poule,571,32,4,5,français,f,2,0.2,-0.5294376,0.96374115
6156e3e5439db9e60d24df29,22,0,2024-02-27T09:30:31.756Z,french_554.wav,0,poule,571,32,4,5,français,f,3,0.25666667,-36.78296127,1.20732856
6156e3e5439db9e60d24df29,23,0,2024-02-27T09:30:31.756Z,french_946.wav,0,pull,565,32,4,5,français,f,0,0.0,-59.20376503,1.07432488
6156e3e5439db9e60d24df29,23,0,2024-02-27T09:30:31.756Z,french_946.wav,0,pull,565,32,4,5,français,f,1,0.1,41.31347152,0.26624757
6156e3e5439db9e60d24df29,23,0,2024-02-27T09:30:31.756Z,french_946.wav,0,pull,565,32,4,5,français,f,2,0.2,-58.18080138,0.53636085
6156e3e5439db9e60d24df29,23,0,2024-02-27T09:30:31.756Z,french_946.wav,0,pull,565,32,4,5,français,f,3,0.25666667,-28.00273528,1.77786979
6156e3e5439db9e60d24df29,24,0,2024-02-27T09:30:31.756Z,french_371.wav,0,poule,467,32,4,5,français,f,0,0.0,31.80119749,0.65227963
6156e3e5439db9e60d24df29,24,0,2024-02-27T09:30:31.756Z,french_371.wav,0,poule,467,32,4,5,français,f,1,0.1,-38.52135119,1.80763105
6156e3e5439db9e60d24df29,24,0,2024-02-27T09:30:31.756Z,french_371.wav,0,poule,467,32,4,5,français,f,2,0.2,9.85895876,1.44692227
6156e3e5439db9e60d24df29,24,0,2024-02-27T09:30:31.756Z,french_371.wav,0,poule,467,32,4,5,français,f,3,0.25666667,79.11511398,1.12716888
6156e3e5439db9e60d24df29,25,0,2024-02-27T09:30:31.756Z,french_639.wav,0,poule,421,32,4,5,français,f,0,0.0,11.64385005,1.86180111
6156e3e5439db9e60d24df29,25,0,2024-02-27T09:30:31.756Z,french_639.wav,0,poule,421,32,4,5,français,f,1,0.1,-83.53772589,1.31531339
6156e3e5439db9e60d24df29,25,0,2024-02-27T09:30:31.756Z,french_639.wav,0,poule,421,32,4,5,français,f,2,0.2,-26.70113898,0.16484712
6156e3e5439db9e60d24df29,25,0,2024-02-27T09:30:31.756Z,french_639.wav,0,poule,421,32,4,5,français,f,3,0.25666667,-28.21717215,0.08923993
6156e3e5439db9e60d24df29,26,0,2024-02-27T09:30:31.756Z,french_425.wav,0,pull,898,32,4,5,français,f,0,0.0,36.0896382,0.72680638
6156e3e5439db9e60d24df29,26,0,2024-02-27T09:30:31.756Z,french_425.wav,0,pull,898,32,4,5,français,f,1,0.1,-60.28824884,0.01839492
6156e3e5439db9e60d24df29,26,0,2024-02-27T09:30:31.756Z,french_425.wav,0,pull,898,32,4,5,français,f,2,0.2,-83.12671609,1.09901753
6156e3e5439db9e60d24df29,26,0,2024-02-27T09:30:31.756Z,french_425.wav,0,pull,898,32,4,5,français,f,3,0.25666667,32.66103116,1.13928828
6156e3e5439db9e60d24df29,27,0,2024-02-27T09:30:31.756Z,french_616.wav,0,poule,377,32,4,5,français,f,0,0.0,-51.21021188,1.78160172
6156e3e5439db9e60d24df29,27,0,2024-02-27T09:30:31.756Z,french_616.wav,0,poule,377,32,4,5,français,f,1,0.1,59.33159463,1.44809064
6156e3e5439db9e60d24df29,27,0,2024-02-27T09:30:31.756Z,french_616.wav,0,poule,377,32,4,5,français,f,2,0.2,-4.53011914,1.29942812
6156e3e5439db9e60d24df29,27,0,2024-02-27T09:30:31.756Z,french_616.wav,0,poule,377,32,4,5,français,f,3,0.25666667,5.92531861,0.36849944
6156e3e5439db9e60d24df29,28,0,2024-02-27T09:30:31.756Z,french_448.wav,0,poule,355,32,4,5,français,f,0,0.0,31.66119151,0.87276462
6156e3e5439db9e60d24df29,28,0,2024-02-27T09:30:31.756Z,french_448.wav,0,poule,355,32,4,5,français,f,1,0.1,20.17093967,1.08469616
6156e3e5439db9e60d24df29,28,0,2024-02-27T09:30:31.756Z,french_448.wav,0,poule,355,32,4,5,français,f,2,0.2,-46.84568686,1.99629221
6156e3e5439db9e60d24df29,28,0,2024-02-27T09:30:31.756Z,french_448.wav,0,poule,355,32,4,5,français,f,3,0.25666667,10.399138,0.44449425
6156e3e5439db9e60d24df29,29,0,2024-02-27T09:30:31.756Z,french_219.wav,0,poule,421,32,4,5,français,f,0,0.0,-98.78648146,1.35832625
6156e3e5439db9e60d24df29,29,0,2024-02-27T09:30:31.756Z,french_219.wav,0,poule,421,32,4,5,français,f,1,0.1,-54.51672601,0.9105506
6156e3e5439db9e60d24df29,29,0,2024-02-27T09:30:31.756Z,french_219.wav,0,poule,421,32,4,5,français,f,2,0.2,75.82451993,0.22027405
6156e3e5439db9e60d24df29,29,0,2024-02-27T09:30:31.756Z,french_219.wav,0,poule,421,32,4,5,français,f,3,0.25666667,42.52821499,1.53742188
6156e3e5439db9e60d24df29,30,0,2024-02-27T09:30:31.756Z,french_820.wav,0,poule,374,32,4,5,français,f,0,0.0,-23.2512771,0.85914582
6156e3e5439db9e60d24df29,30,0,2024-02-27T09:30:31.756Z,french_820.wav,0,poule,374,32,4,5,français,f,1,0.1,-3.42093224,1.44867235
6156e3e5439db9e60d24df29,30,0,2024-02-27T09:30:31.756Z,french_820.wav,0,poule,374,32,4,5,français,f,2,0.2,-78.83822409,1.61907263
6156e3e5439db9e60d24df29,30,0,2024-02-27T09:30:31.756Z,french_820.wav,0,poule,374,32,4,5,français,f,3,0.25666667,-24.79307177,1.11055267
6156e3e5439db9e60d24df29,31,0,2024-02-27T09:30:31.756Z,french_473.wav,0,pull,655,32,4,5,français,f,0,0.0,-59.88543895,0.32878746
6156e3e5439db9e60d24df29,31,0,2024-02-27T09:30:31.756Z,french_473.wav,0,pull,655,32,4,5,français,f,1,0.1,36.52277503,0.29204452
6156e3e5439db9e60d24df29,31,0,2024-02-27T09:30:31.756Z,french_473.wav,0,pull,655,32,4,5,français,f,2,0.2,-76.47045714,0.65259503
6156e3e5439db9e60d24df29,31,0,2024-02-27T09:30:31.756Z,french_473.wav,0,pull,655,32,4,5,français,f,3,0.25666667,-69.05057232,0.35645849
6156e3e5439db9e60d24df29,32,0,2024-02-27T09:30:31.756Z,french_282.wav,0,poule,639,32,4,5,français,f,0,0.0,-97.43488085,0.55303377
6156e3e5439db9e60d24df29,32,0,2024-02-27T09:30:31.756Z,french_282.wav,0,poule,639,32,4,5,français,f,1,0.1,96.20897113,1.41145651
6156e3e5439db9e60d24df29,32,0,2024-02-27T09:30:31.756Z,french_282.wav,0,poule,639,32,4,5,français,f,2,0.2,27.16020646,1.83661618
6156e3e5439db9e60d24df29,32,0,2024-02-27T09:30:31.756Z,french_282.wav,0,poule,639,32,4,5,français,f,3,0.25666667,-13.14092169,0.36912502
6156e3e5439db9e60d24df29,33,0,2024-02-27T09:30:31.756Z,french_550.wav,0,poule,536,32,4,5,français,f,0,0.0,-75.40042164,1.22660115
6156e3e5439db9e60d24df29,33,0,2024-02-27T09:30:31.756Z,french_550.wav,0,poule,536,32,4,5,français,f,1,0.1,3.66999977,1.1302768
6156e3e5439db9e60d24df29,33,0,2024-02-27T09:30:31.756Z,french_550.wav,0,poule,536,32,4,5,français,f,2,0.2,-80.45508953,0.71194131
6156e3e5439db9e60d24df29,33,0,2024-02-27T09:30:31.756Z,french_550.wav,0,poule,536,32,4,5,français,f,3,0.25666667,-81.93938104,1.14992067
6156e3e5439db9e60d24df29,34,0,2024-02-27T09:30:31.756Z,french_472.wav,0,poule,340,32,4,5,français,f,0,0.0,-9.46806957,0.85855516
6156e3e5439db9e60d24df29,34,0,2024-02-27T09:30:31.756Z,french_472.wav,0,poule,340,32,4,5,français,f,1,0.1,45.81973918,1.60383991
6156e3e5439db9e60d24df29,34,0,2024-02-27T09:30:31.756Z,french_472.wav,0,poule,340,32,4,5,français,f,2,0.2,-32.95266456,0.80244772
6156e3e5439db9e60d24df29,34,0,2024-02-27T09:30:31.756Z,french_472.wav,0,poule,340,32,4,5,français,f,3,0.25666667,-10.56557549,1.48234138
6156e3e5439db9e60d24df29,35,0,2024-02-27T09:30:31.756Z,french_192.wav,0,pull,630,32,4,5,français,f,0,0.0,73.17690414,1.47156363
6156e3e5439db9e60d24df29,35,0,2024-02-27T09:30:31.756Z,french_192.wav,0,pull,630,32,4,5,français,f,1,0.1,14.65884197,0.92412776
6156e3e5439db9e60d24df29,35,0,2024-02-27T09:30:31.756Z,french_192.wav,0,pull,630,32,4,5,français,f,2,0.2,-6.29840632,0.27182316
6156e3e5439db9e60d24df29,35,0,2024-02-27T09:30:31.756Z,french_192.wav,0,pull,630,32,4,5,français,f,3,0.25666667,-32.28340249,1.34820636
6156e3e5439db9e60d24df29,36,0,2024-02-27T09:30:31.756Z,french_527.wav,0,pull,639,32,4,5,français,f,0,0.0,97.81644093,0.09503525
6156e3e5439db9e60d24df29,36,0,2024-02-27T09:30:31.756Z,french_527.wav,0,pull,639,32,4,5,français,f,1,0.1,68.05004199,0.33267387
6156e3e5439db9e60d24df29,36,0,2024-02-27T09:30:31.756Z,french_527.wav,0,pull,639,32,4,5,français,f,2,0.2,-44.05597581,1.51053464
6156e3e5439db9e60d24df29,36,0,2024-02-27T09:30:31.756Z,french_527.wav,0,pull,639,32,4,5,français,f,3,0.25666667,40.91945638,1.37458991
6156e3e5439db9e60d24df29,37,0,2024-02-27T09:30:31.756Z,french_456.wav,0,pull,991,32,4,5,français,f,0,0.0,-27.91969988,0.874098
6156e3e5439db9e60d24df29,37,0,2024-02-27T09:30:31.756Z,french_456.wav,0,pull,991,32,4,5,français,f,1,0.1,-6.9905469,0.40632282
6156e3e5439db9e60d24df29,37,0,2024-02-27T09:30:31.756Z,french_456.wav,0,pull,991,32,4,5,français,f,2,0.2,7.34213132,0.88508218
6156e3e5439db9e60d24df29,37,0,2024-02-27T09:30:31.756Z,french_456.wav,0,pull,991,32,4,5,français,f,3,0.25666667,-16.30576404,1.43350061
6156e3e5439db9e60d24df29,38,0,2024-02-27T09:30:31.756Z,french_349.wav,0,poule,601,32,4,5,français,f,0,0.0,73.89254537,0.17403551
6156e3e5439db9e60d24df29,38,0,2024-02-27T09:30:31.756Z,french_349.wav,0,poule,601,32,4,5,français,f,1,0.1,-84.33493486,1.66487719
6156e3e5439db9e60d24df29,38,0,2024-02-27T09:30:31.756Z,french_349.wav,0,poule,601,32,4,5,français,f,2,0.2,-3.2709249,1.53740634
6156e3e5439db9e60d24df29,38,0,2024-02-27T09:30:31.756Z,french_349.wav,0,poule,601,32,4,5,français,f,3,0.25666667,-21.54511299,1.56834066
6156e3e5439db9e60d24df29,39,0,2024-02-27T09:30:31.756Z,french_121.wav,0,poule,320,32,4,5,français,f,0,0.0,35.32035933,0.75756688
6156e3e5439db9e60d24df29,39,0,2024-02-27T09:30:31.756Z,french_121.wav,0,poule,320,32,4,5,français,f,1,0.1,-67.07725169,1.37771724
6156e3e5439db9e60d24df29,39,0,2024-02-27T09:30:31.756Z,french_121.wav,0,poule,320,32,4,5,français,f,2,0.2,83.36951387,1.17860501
6156e3e5439db9e60d24df29,39,0,2024-02-27T09:30:31.756Z,french_121.wav,0,poule,320,32,4,5,français,f,3,0.25666667,37.65048559,1.25500134
6156e3e5439db9e60d24df29,40,0,2024-02-27T09:30:31.756Z,french_935.wav,0,poule,278,32,4,5,français,f,0,0.0,-44.99349069,1.17032266
6156e3e5439db9e60d24df29,40,0,2024-02-27T09:30:31.756Z,french_935.wav,0,poule,278,32,4,5,français,f,1,0.1,-36.99771552,1.41237049
6156e3e5439db9e60d24df29,40,0,2024-02-27T09:30:31.756Z,french_935.wav,0,poule,278,32,4,5,français,f,2,0.2,73.94933819,0.72245199
6156e3e5439db9e60d24df29,40,0,2024-02-27T09:30:31.756Z,french_935.wav,0,poule,278,32,4,5,français,f,3,0.25666667,99.03349287,1.64210213
6156e3e5439db9e60d24df29,41,0,2024-02-27T09:30:31.756Z,french_524.wav,0,poule,499,32,4,5,français,f,0,0.0,29.26114001,1.50805134
6156e3e5439db9e60d24df29,41,0,2024-02-27T09:30:31.756Z,french_524.wav,0,poule,499,32,4,5,français,f,1,0.1,51.10918927,1.00551207
6156e3e5439db9e60d24df29,41,0,2024-02-27T09:30:31.756Z,french_524.wav,0,poule,499,32,4,5,français,f,2,0.2,-43.7486939,1.81734516
6156e3e5439db9e60d24df29,41,0,2024-02-27T09:30:31.756Z,french_524.wav,0,poule,499,32,4,5,français,f,3,0.25666667,-29.29338592,0.93830148
6156e3e5439db9e60d24df29,42,0,2024-02-27T09:30:31.756Z,french_893.wav,0,poule,1927,32,4,5,français,f,0,0.0,-94.12021506,0.88252126
6156e3e5439db9e60d24df29,42,0,2024-02-27T09:30:31.756Z,french_893.wav,0,poule,1927,32,4,5,français,f,1,0.1,53.79826098,0.31460198
6156e3e5439db9e60d24df29,42,0,2024-02-27T09:30:31.756Z,french_893.wav,0,poule,1927,32,4,5,français,f,2,0.2,-24.3553788,1.36492904
6156e3e5439db9e60d24df29,42,0,2024-02-27T09:30:31.756Z,french_893.wav,0,poule,1927,32,4,5,français,f,3,0.25666667,-81.90861644,1.93292807
6156e3e5439db9e60d24df29,43,0,2024-02-27T09:30:31.756Z,french_166.wav,0,poule,379,32,4,5,français,f,0,0.0,-13.71320418,1.40282364
6156e3e5439db9e60d24df29,43,0,2024-02-27T09:30:31.756Z,french_166.wav,0,poule,379,32,4,5,français,f,1,0.1,-74.77814183,0.51226478
6156e3e5439db9e60d24df29,43,0,2024-02-27T09:30:31.756Z,french_166.wav,0,poule,379,32,4,5,français,f,2,0.2,42.48534987,1.59981073
6156e3e5439db9e60d24df29,43,0,2024-02-27T09:30:31.756Z,french_166.wav,0,poule,379,32,4,5,français,f,3,0.25666667,-48.97271451,1.00485648
6156e3e5439db9e60d24df29,44,0,2024-02-27T09:30:31.756Z,french_92.wav,0,poule,429,32,4,5,français,f,0,0.0,59.20081487,1.21926368
6156e3e5439db9e60d24df29,44,0,2024-02-27T09:30:31.756Z,french_92.wav,0,poule,429,32,4,5,français,f,1,0.1,95.6548793,1.56053314
6156e3e5439db9e60d24df29,44,0,2024-02-27T09:30:31.756Z,french_92.wav,0,poule,429,32,4,5,français,f,2,0.2,-36.19224385,1.38632022
6156e3e5439db9e60d24df29,44,0,2024-02-27T09:30:31.756Z,french_92.wav,0,poule,429,32,4,5,français,f,3,0.25666667,68.24894855,1.29084252
6156e3e5439db9e60d24df29,45,0,2024-02-27T09:30:31.756Z,french_460.wav,0,pull,571,32,4,5,français,f,0,0.0,-46.82547924,0.18532774
6156e3e5439db9e60d24df29,45,0,2024-02-27T09:30:31.756Z,french_460.wav,0,pull,571,32,4,5,français,f,1,0.1,-89.06595485,0.73005791
6156e3e5439db9e60d24df29,45,0,2024-02-27T09:30:31.756Z,french_460.wav,0,pull,571,32,4,5,français,f,2,0.2,-15.88362663,0.27848928
6156e3e5439db9e60d24df29,45,0,2024-02-27T09:30:31.756Z,french_460.wav,0,pull,571,32,4,5,français,f,3,0.25666667,-55.00298372,1.6971829
6156e3e5439db9e60d24df29,46,0,2024-02-27T09:30:31.756Z,french_424.wav,0,poule,598,32,4,5,français,f,0,0.0,61.39777876,0.24361375
6156e3e5439db9e60d24df29,46,0,2024-02-27T09:30:31.756Z,french_424.wav,0,poule,598,32,4,5,français,f,1,0.1,-8.76552132,1.04711526
6156e3e5439db9e60d24df29,46,0,2024-02-27T09:30:31.756Z,french_424.wav,0,poule,598,32,4,5,français,f,2,0.2,33.4280736,1.33335174
6156e3e5439db9e60d24df29,46,0,2024-02-27T09:30:31.756Z,french_424.wav,0,poule,598,32,4,5,français,f,3,0.25666667,8.6823295,0.59077303
6156e3e5439db9e60d24df29,47,0,2024-02-27T09:30:31.756Z,french_419.wav,0,poule,383,32,4,5,français,f,0,0.0,-42.00575778,0.81351681
6156e3e5439db9e60d24df29,47,0,2024-02-27T09:30:31.756Z,french_419.wav,0,poule,383,32,4,5,français,f,1,0.1,-35.26826913,1.62056968
6156e3e5439db9e60d24df29,47,0,2024-02-27T09:30:31.756Z,french_419.wav,0,poule,383,32,4,5,français,f,2,0.2,-18.10946272,1.68465097
6156e3e5439db9e60d24df29,47,0,2024-02-27T09:30:31.756Z,french_419.wav,0,poule,383,32,4,5,français,f,3,0.25666667,-2.55322937,1.07803679
6156e3e5439db9e60d24df29,48,0,2024-02-27T09:30:31.756Z,french_127.wav,0,pull,660,32,4,5,français,f,0,0.0,56.99195339,1.23888103
6156e3e5439db9e60d24df29,48,0,2024-02-27T09:30:31.756Z,french_127.wav,0,pull,660,32,4,5,français,f,1,0.1,71.02339704,1.9853403
6156e3e5439db9e60d24df29,48,0,2024-02-27T09:30:31.756Z,french_127.wav,0,pull,660,32,4,5,français,f,2,0.2,72.81237495,0.22936254
6156e3e5439db9e60d24df29,48,0,2024-02-27T09:30:31.756Z,french_127.wav,0,pull,660,32,4,5,français,f,3,0.25666667,99.25740409,0.23690129
6156e3e5439db9e60d24df29,49,0,2024-02-27T09:30:31.756Z,french_350.wav,0,poule,384,32,4,5,français,f,0,0.0,-94.89147327,1.34276454
6156e3e5439db9e60d24df29,49,0,2024-02-27T09:30:31.756Z,french_350.wav,0,poule,384,32,4,5,français,f,1,0.1,-69.96874844,1.56346818
6156e3e5439db9e60d24df29,49,0,2024-02-27T09:30:31.756Z,french_350.wav,0,poule,384,32,4,5,français,f,2,0.2,-41.05008416,0.76037532
6156e3e5439db9e60d24df29,49,0,2024-02-27T09:30:31.756Z,french_350.wav,0,poule,384,32,4,5,français,f,3,0.25666667,27.21030297,1.08356683
6156e3e5439db9e60d24df29,50,1,2024-02-27T09:30:31.756Z,french_615.wav,0,poule,1411,32,4,5,français,f,0,0.0,-99.04240885,1.08448469
6156e3e5439db9e60d24df29,50,1,2024-02-27T09:30:31.756Z,french_615.wav,0,poule,1411,32,4,5,français,f,1,0.1,-49.15643876,1.88363881
6156e3e5439db9e60d24df29,50,1,2024-02-27T09:30:31.756Z,french_615.wav,0,poule,1411,32,4,5,français,f,2,0.2,-66.91195639,1.28593097
6156e3e5439db9e60d24df29,50,1,2024-02-27T09:30:31.756Z,french_615.wav,0,poule,1411,32,4,5,français,f,3,0.25666667,-56.29346357,1.82136606
6156e3e5439db9e60d24df29,51,1,2024-02-27T09:30:31.756Z,french_66.wav,0,pull,521,32,4,5,français,f,0,0.0,3.84925572,1.88939432
6156e3e5439db9e60d24df29,51,1,2024-02-27T09:30:31.756Z,french_66.wav,0,pull,521,32,4,5,français,f,1,0.1,75.48045935,0.3012797
6156e3e5439db9e60d24df29,51,1,2024-02-27T09:30:31.756Z,french_66.wav,0,pull,521,32,4,5,français,f,2,0.2,22.76512124,0.5045755
6156e3e5439db9e60d24df29,51,1,2024-02-27T09:30:31.756Z,french_66.wav,0,pull,521,32,4,5,français,f,3,0.25666667,45.08821781,1.63034278
6156e3e5439db9e60d24df29,52,1,2024-02-27T09:30:31.756Z,french_438.wav,0,poule,1465,32,4,5,français,f,0,0.0,38.28600595,0.24947118
6156e3e5439db9e60d24df29,52,1,2024-02-27T09:30:31.756Z,french_438.wav,0,poule,1465,32,4,5,français,f,1,0.1,-2.73615403,0.88566368
6156e3e5439db9e60d24df29,52,1,2024-02-27T09:30:31.756Z,french_438.wav,0,poule,1465,32,4,5,français,f,2,0.2,-43.32822043,0.23078024
6156e3e5439db9e60d24df29,52,1,2024-02-27T09:30:31.756Z,french_438.wav,0,poule,1465,32,4,5,français,f,3,0.25666667,-21.43836029,1.64360752
6156e3e5439db9e60d24df29,53,1,2024-02-27T09:30:31.756Z,french_312.wav,0,poule,469,32,4,5,français,f,0,0.0,-19.98952993,1.92157149
6156e3e5439db9e60d24df29,53,1,2024-02-27T09:30:31.756Z,french_312.wav,0,poule,469,32,4,5,français,f,1,0.1,50.70617954,0.53263035
6156e3e5439db9e60d24df29,53,1,2024-02-27T09:30:31.756Z,french_312.wav,0,poule,469,32,4,5,français,f,2,0.2,80.27383631,1.8452111
6156e3e5439db9e60d24df29,53,1,2024-02-27T09:30:31.756Z,french_312.wav,0,poule,469,32,4,5,français,f,3,0.25666667,31.55502425,1.73122835
6156e3e5439db9e60d24df29,54,1,2024-02-27T09:30:31.756Z,french_905.wav,0,pull,376,32,4,5,français,f,0,0.0,87.86620346,1.28585996
6156e3e5439db9e60d24df29,54,1,2024-02-27T09:30:31.756Z,french_905.wav,0,pull,376,32,4,5,français,f,1,0.1,17.88859649,0.57714405
6156e3e5439db9e60d24df29,54,1,2024-02-27T09:30:31.756Z,french_905.wav,0,pull,376,32,4,5,français,f,2,0.2,51.58456374,0.3219524
6156e3e5439db9e60d24df29,54,1,2024-02-27T09:30:31.756Z,french_905.wav,0,pull,376,32,4,5,français,f,3,0.25666667,-98.76806622,1.69480445
6156e3e5439db9e60d24df29,55,1,2024-02-27T09:30:31.756Z,french_542.wav,0,poule,279,32,4,5,français,f,0,0.0,88.21755363,1.84211071
6156e3e5439db9e60d24df29,55,1,2024-02-27T09:30:31.756Z,french_542.wav,0,poule,279,32,4,5,français,f,1,0.1,59.97016865,1.57396898
6156e3e5439db9e60d24df29,55,1,2024-02-27T09:30:31.756Z,french_542.wav,0,poule,279,32,4,5,français,f,2,0.2,-54.94167031,1.14268549
6156e3e5439db9e60d24df29,55,1,2024-02-27T09:30:31.756Z,french_542.wav,0,poule,279,32,4,5,français,f,3,0.25666667,-74.88408835,1.52682198
6156e3e5439db9e60d24df29,56,1,2024-02-27T09:30:31.756Z,french_736.wav,0,poule,349,32,4,5,français,f,0,0.0,-58.2057669,1.39182764
6156e3e5439db9e60d24df29,56,1,2024-02-27T09:30:31.756Z,french_736.wav,0,poule,349,32,4,5,français,f,1,0.1,67.4754916,0.85405242
6156e3e5439db9e60d24df29,56,1,2024-02-27T09:30:31.756Z,french_736.wav,0,poule,349,32,4,5,français,f,2,0.2,92.18157431,1.06665121
6156e3e5439db9e60d24df29,56,1,2024-02-27T09:30:31.756Z,french_736.wav,0,poule,349,32,4,5,français,f,3,0.25666667,88.23593553,0.29553719
6156e3e5439db9e60d24df29,57,1,2024-02-27T09:30:31.756Z,french_103.wav,0,pull,764,32,4,5,français,f,0,0.0,-37.64273041,0.8608001
6156e3e5439db9e60d24df29,57,1,2024-02-27T09:30:31.756Z,french_103.wav,0,pull,764,32,4,5,français,f,1,0.1,41.40974178,0.05604445
6156e3e5439db9e60d24df29,57,1,2024-02-27T09:30:31.756Z,french_103.wav,0,pull,764,32,4,5,français,f,2,0.2,-53.90098235,0.48473984
6156e3e5439db9e60d24df29,57,1,2024-02-27T09:30:31.756Z,french_103.wav,0,pull,764,32,4,5,français,f,3,0.25666667,-57.22614073,0.01055005
6156e3e5439db9e60d24df29,58,1,2024-02-27T09:30:31.756Z,french_933.wav,0,poule,308,32,4,5,français,f,0,0.0,-24.27897726,0.66366025
6156e3e5439db9e60d24df29,58,1,2024-02-27T09:30:31.756Z,french_933.wav,0,poule,308,32,4,5,français,f,1,0.1,45.4380102,1.16686233
6156e3e5439db9e60d24df29,58,1,2024-02-27T09:30:31.756Z,french_933.wav,0,poule,308,32,4,5,français,f,2,0.2,44.52165476,0.86083852
6156e3e5439db9e60d24df29,58,1,2024-02-27T09:30:31.756Z,french_933.wav,0,poule,308,32,4,5,français,f,3,0.25666667,11.96128215,1.88972919
6156e3e5439db9e60d24df29,59,1,2024-02-27T09:30:31.756Z,french_265.wav,0,poule,471,32,4,5,français,f,0,0.0,12.13424101,1.65569129
6156e3e5439db9e60d24df29,59,1,2024-02-27T09:30:31.756Z,french_265.wav,0,poule,471,32,4,5,français,f,1,0.1,31.84170149,1.94822248
6156e3e5439db9e60d24df29,59,1,2024-02-27T09:30:31.756Z,french_265.wav,0,poule,471,32,4,5,français,f,2,0.2,45.73784214,0.46939125
6156e3e5439db9e60d24df29,59,1,2024-02-27T09:30:31.756Z,french_265.wav,0,poule,471,32,4,5,français,f,3,0.25666667,35.60173059,0.82856794
6156e3e5439db9e60d24df29,60,1,2024-02-27T09:30:31.756Z,french_875.wav,0,poule,639,32,4,5,français,f,0,0.0,-21.85805239,1.53415162
6156e3e5439db9e60d24df29,60,1,2024-02-27T09:30:31.756Z,french_875.wav,0,poule,639,32,4,5,français,f,1,0.1,89.69626046,1.00812403
6156e3e5439db9e60d24df29,60,1,2024-02-27T09:30:31.756Z,french_875.wav,0,poule,639,32,4,5,français,f,2,0.2,-30.27044373,0.85877698
6156e3e5439db9e60d24df29,60,1,2024-02-27T09:30:31.756Z,french_875.wav,0,poule,639,32,4,5,français,f,3,0.25666667,34.72149061,1.23447623
6156e3e5439db9e60d24df29,61,1,2024-02-27T09:30:31.756Z,french_826.wav,0,pull,698,32,4,5,français,f,0,0.0,-33.86739367,0.07066528
6156e3e5439db9e60d24df29,61,1,2024-02-27T09:30:31.756Z,french_826.wav,0,pull,698,32,4,5,français,f,1,0.1,-31.27966971,0.90490109
6156e3e5439db9e60d24df29,61,1,2024-02-27T09:30:31.756Z,french_826.wav,0,pull,698,32,4,5,français,f,2,0.2,51.84533444,0.66906535
6156e3e5439db9e60d24df29,61,1,2024-02-27T09:30:31.756Z,french_826.wav,0,pull,698,32,4,5,français,f,3,0.25666667,-81.13386792,0.4882988
6156e3e5439db9e60d24df29,62,1,2024-02-27T09:30:31.756Z,french_384.wav,0,poule,415,32,4,5,français,f,0,0.0,96.27107524,0.63462189
6156e3e5439db9e60d24df29,62,1,2024-02-27T09:30:31.756Z,french_384.wav,0,poule,415,32,4,5,français,f,1,0.1,31.19825585,1.63064356
6156e3e5439db9e60d24df29,62,1,2024-02-27T09:30:31.756Z,french_384.wav,0,poule,415,32,4,5,français,f,2,0.2,59.60884037,0.96291672
6156e3e5439db9e60d24df29,62,1,2024-02-27T09:30:31.756Z,french_384.wav,0,poule,415,32,4,5,français,f,3,0.25666667,90.96213602,1.24636593
6156e3e5439db9e60d24df29,63,1,2024-02-27T09:30:31.756Z,french_111.wav,0,poule,550,32,4,5,français,f,0,0.0,1.59326178,0.67104434
6156e3e5439db9e60d24df29,63,1,2024-02-27T09:30:31.756Z,french_111.wav,0,poule,550,32,4,5,français,f,1,0.1,-40.8911656,0.22448148
6156e3e5439db9e60d24df29,63,1,2024-02-27T09:30:31.756Z,french_111.wav,0,poule,550,32,4,5,français,f,2,0.2,-66.59771714,1.3255008
6156e3e5439db9e60d24df29,63,1,2024-02-27T09:30:31.756Z,french_111.wav,0,poule,550,32,4,5,français,f,3,0.25666667,93.67842788,0.49085037
6156e3e5439db9e60d24df29,64,1,2024-02-27T09:30:31.756Z,french_982.wav,0,poule,494,32,4,5,français,f,0,0.0,-37.50079515,0.32253899
6156e3e5439db9e60d24df29,64,1,2024-02-27T09:30:31.756Z,french_982.wav,0,poule,494,32,4,5,français,f,1,0.1,-23.37923681,1.88868261
6156e3e5439db9e60d24df29,64,1,2024-02-27T09:30:31.756Z,french_982.wav,0,poule,494,32,4,5,français,f,2,0.2,-55.8234839,0.59835015
6156e3e5439db9e60d24df29,64,1,2024-02-27T09:30:31.756Z,french_982.wav,0,poule,494,32,4,5,français,f,3,0.25666667,-58.92111767,1.21615752
6156e3e5439db9e60d24df29,65,1,2024-02-27T09:30:31.756Z,french_280.wav,0,pull,457,32,4,5,français,f,0,0.0,-67.41100242,0.87165921
6156e3e5439db9e60d24df29,65,1,2024-02-27T09:30:31.756Z,french_280.wav,0,pull,457,32,4,5,français,f,1,0.1,-0.65291527,0.40210454
6156e3e5439db9e60d24df29,65,1,2024-02-27T09:30:31.756Z,french_280.wav,0,pull,457,32,4,5,français,f,2,0.2,-45.07946214,0.8560963
6156e3e5439db9e60d24df29,65,1,2024-02-27T09:30:31.756Z,french_280.wav,0,pull,457,32,4,5,français,f,3,0.25666667,-37.24252155,1.09108247
6156e3e5439db9e60d24df29,66,1,2024-02-27T09:30:31.756Z,french_556.wav,0,pull,784,32,4,5,français,f,0,0.0,57.69742807,1.23910924
6156e3e5439db9e60d24df29,66,1,2024-02-27T09:30:31.756Z,french_556.wav,0,pull,784,32,4,5,français,f,1,0.1,74.69192241,0.49477788
6156e3e5439db9e60d24df29,66,1,2024-02-27T09:30:31.756Z,french_556.wav,0,pull,784,32,4,5,français,f,2,0.2,-92.88512431,1.56323012
6156e3e5439db9e60d24df29,66,1,2024-02-27T09:30:31.756Z,french_556.wav,0,pull,784,32,4,5,français,f,3,0.25666667,27.11476112,1.7455964
6156e3e5439db9e60d24df29,67,1,2024-02-27T09:30:31.756Z,french_590.wav,0,poule,436,32,4,5,français,f,0,0.0,-77.28287391,1.10563408
6156e3e5439db9e60d24df29,67,1,2024-02-27T09:30:31.756Z,french_590.wav,0,poule,436,32,4,5,français,f,1,0.1,-59.34931175,0.27897949
6156e3e5439db9e60d24df29,67,1,2024-02-27T09:30:31.756Z,french_590.wav,0,poule,436,32,4,5,français,f,2,0.2,-59.15957395,1.42245938
6156e3e5439db9e60d24df29,67,1,2024-02-27T09:30:31.756Z,french_590.wav,0,poule,436,32,4,5,français,f,3,0.25666667,88.90935082,0.18524725
6156e3e5439db9e60d24df29,68,1,2024-02-27T09:30:31.756Z,french_120.wav,0,poule,1319,32,4,5,français,f,0,0.0,59.29212404,1.04724114
6156e3e5439db9e60d24df29,68,1,2024-02-27T09:30:31.756Z,french_120.wav,0,poule,1319,32,4,5,français,f,1,0.1,4.80411823,0.97380182
6156e3e5439db9e60d24df29,68,1,2024-02-27T09:30:31.756Z,french_120.wav,0,poule,1319,32,4,5,français,f,2,0.2,12.26509955,0.22521264
6156e3e5439db9e60d24df29,68,1,2024-02-27T09:30:31.756Z,french_120.wav,0,poule,1319,32,4,5,français,f,3,0.25666667,-79.44354783,0.8027629
6156e3e5439db9e60d24df29,69,1,2024-02-27T09:30:31.756Z,french_555.wav,0,poule,547,32,4,5,français,f,0,0.0,-94.33978787,0.59318307
6156e3e5439db9e60d24df29,69,1,2024-02-27T09:30:31.756Z,french_555.wav,0,poule,547,32,4,5,français,f,1,0.1,93.76530939,0.913599
6156e3e5439db9e60d24df29,69,1,2024-02-27T09:30:31.756Z,french_555.wav,0,poule,547,32,4,5,français,f,2,0.2,60.24178239,1.32127388
6156e3e5439db9e60d24df29,69,1,2024-02-27T09:30:31.756Z,french_555.wav,0,poule,547,32,4,5,français,f,3,0.25666667,52.06264798,1.40091244
6156e3e5439db9e60d24df29,70,1,2024-02-27T09:30:31.756Z,french_541.wav,0,poule,239,32,4,5,français,f,0,0.0,53.31308138,1.84251248
6156e3e5439db9e60d24df29,70,1,2024-02-27T09:30:31.756Z,french_541.wav,0,poule,239,32,4,5,français,f,1,0.1,48.16539561,0.97729738
6156e3e5439db9e60d24df29,70,1,2024-02-27T09:30:31.756Z,french_541.wav,0,poule,239,32,4,5,français,f,2,0.2,-38.85260984,1.28801687
6156e3e5439db9e60d24df29,70,1,2024-02-27T09:30:31.756Z,french_541.wav,0,poule,239,32,4,5,français,f,3,0.25666667,47.13501746,0.86548213
6156e3e5439db9e60d24df29,71,1,2024-02-27T09:30:31.756Z,french_322.wav,0,pull,509,32,4,5,français,f,0,0.0,11.21723197,0.46669198
6156e3e5439db9e60d24df29,71,1,2024-02-27T09:30:31.756Z,french_322.wav,0,pull,509,32,4,5,français,f,1,0.1,71.99064207,0.00506582
6156e3e5439db9e60d24df29,71,1,2024-02-27T09:30:31.756Z,french_322.wav,0,pull,509,32,4,5,français,f,2,0.2,-70.2949895,0.23170645
6156e3e5439db9e60d24df29,71,1,2024-02-27T09:30:31.756Z,french_322.wav,0,pull,509,32,4,5,français,f,3,0.25666667,-90.37135255,0.39597554
6156e3e5439db9e60d24df29,72,1,2024-02-27T09:30:31.756Z,french_211.wav,0,poule,442,32,4,5,français,f,0,0.0,26.09911827,0.38797522
6156e3e5439db9e60d24df29,72,1,2024-02-27T09:30:31.756Z,french_211.wav,0,poule,442,32,4,5,français,f,1,0.1,37.88219535,0.97106999
6156e3e5439db9e60d24df29,72,1,2024-02-27T09:30:31.756Z,french_211.wav,0,poule,442,32,4,5,français,f,2,0.2,25.3370042,0.82384696
6156e3e5439db9e60d24df29,72,1,2024-02-27T09:30:31.756Z,french_211.wav,0,poule,442,32,4,5,français,f,3,0.25666667,-31.50750366,0.88987221
6156e3e5439db9e60d24df29,73,1,2024-02-27T09:30:31.756Z,french_753.wav,0,poule,494,32,4,5,français,f,0,0.0,-59.12708259,1.15236918
6156e3e5439db9e60d24df29,73,1,2024-02-27T09:30:31.756Z,french_753.wav,0,poule,494,32,4,5,français,f,1,0.1,-84.15149344,1.24278656
6156e3e5439db9e60d24df29,73,1,2024-02-27T09:30:31.756Z,french_753.wav,0,poule,494,32,4,5,français,f,2,0.2,-30.31197396,0.56738218
6156e3e5439db9e60d24df29,73,1,2024-02-27T09:30:31.756Z,french_753.wav,0,poule,494,32,4,5,français,f,3,0.25666667,-23.11550189,0.65045955
6156e3e5439db9e60d24df29,74,1,2024-02-27T09:30:31.756Z,french_137.wav,0,poule,484,32,4,5,français,f,0,0.0,20.21202866,1.22191513
6156e3e5439db9e60d24df29,74,1,2024-02-27T09:30:31.756Z,french_137.wav,0,poule,484,32,4,5,français,f,1,0.1,-42.96009099,0.44902196
6156e3e5439db9e60d24df29,74,1,2024-02-27T09:30:31.756Z,french_137.wav,0,poule,484,32,4,5,français,f,2,0.2,15.21981059,0.94630282
6156e3e5439db9e60d24df29,74,1,2024-02-27T09:30:31.756Z,french_137.wav,0,poule,484,32,4,5,français,f,3,0.25666667,-16.40384708,1.1991754
6156e3e5439db9e60d24df29,75,1,2024-02-27T09:30:31.756Z,french_661.wav,0,poule,380,32,4,5,français,f,0,0.0,34.1047988,1.29957539
6156e3e5439db9e60d24df29,75,1,2024-02-27T09:30:31.756Z,french_661.wav,0,poule,380,32,4,5,français,f,1,0.1,-45.42737183,0.81809843
6156e3e5439db9e60d24df29,75,1,2024-02-27T09:30:31.756Z,french_661.wav,0,poule,380,32,4,5,français,f,2,0.2,-32.96226792,1.39938296
6156e3e5439db9e60d24df29,75,1,2024-02-27T09:30:31.756Z,french_661.wav,0,poule,380,32,4,5,français,f,3,0.25666667,51.87575508,1.33634107
6156e3e5439db9e60d24df29,76,1,2024-02-27T09:30:31.756Z,french_628.wav,0,poule,2590,32,4,5,français,f,0,0.0,68.49177404,1.08718887
6156e3e5439db9e60d24df29,76,1,2024-02-27T09:30:31.756Z,french_628.wav,0,poule,2590,32,4,5,français,f,1,0.1,-37.23139728,1.92014291
6156e3e5439db9e60d24df29,76,1,2024-02-27T09:30:31.756Z,french_628.wav,0,poule,2590,32,4,5,français,f,2,0.2,-66.57894256,1.74485312
6156e3e5439db9e60d24df29,76,1,2024-02-27T09:30:31.756Z,french_628.wav,0,poule,2590,32,4,5,français,f,3,0.25666667,94.63403104,1.25946788
6156e3e5439db9e60d24df29,77,1,2024-02-27T09:30:31.756Z,french_387.wav,0,poule,592,32,4,5,français,f,0,0.0,-24.2271051,0.1957751
6156e3e5439db9e60d24df29,77,1,2024-02-27T09:30:31.756Z,french_387.wav,0,poule,592,32,4,5,français,f,1,0.1,-69.58889879,0.86781049
6156e3e5439db9e60d24df29,77,1,2024-02-27T09:30:31.756Z,french_387.wav,0,poule,592,32,4,5,français,f,2,0.2,21.02997226,1.73501265
6156e3e5439db9e60d24df29,77,1,2024-02-27T09:30:31.756Z,french_387.wav,0,poule,592,32,4,5,français,f,3,0.25666667,58.82746302,1.75042849
6156e3e5439db9e60d24df29,78,1,2024-02-27T09:30:31.756Z,french_958.wav,0,poule,1143,32,4,5,français,f,0,0.0,70.65905064,0.553928
6156e3e5439db9e60d24df29,78,1,2024-02-27T09:30:31.756Z,french_958.wav,0,poule,1143,32,4,5,français,f,1,0.1,35.26497317,0.45560148
6156e3e5439db9e60d24df29,78,1,2024-02-27T09:30:31.756Z,french_958.wav,0,poule,1143,32,4,5,français,f,2,0.2,64.29920798,1.65592314
6156e3e5439db9e60d24df29,78,1,2024-02-27T09:30:31.756Z,french_958.wav,0,poule,1143,32,4,5,français,f,3,0.25666667,78.52381542,1.53733
6156e3e5439db9e60d24df29,79,1,2024-02-27T09:30:31.756Z,french_722.wav,0,pull,433,32,4,5,français,f,0,0.0,60.56599831,1.86075077
6156e3e5439db9e60d24df29,79,1,2024-02-27T09:30:31.756Z,french_722.wav,0,pull,433,32,4,5,français,f,1,0.1,-62.73703536,0.80738175
6156e3e5439db9e60d24df29,79,1,2024-02-27T09:30:31.756Z,french_722.wav,0,pull,433,32,4,5,français,f,2,0.2,-66.13157344,0.80798992
6156e3e5439db9e60d24df29,79,1,2024-02-27T09:30:31.756Z,french_722.wav,0,pull,433,32,4,5,français,f,3,0.25666667,59.05774632,0.27445487
6156e3e5439db9e60d24df29,80,1,2024-02-27T09:30:31.756Z,french_345.wav,0,poule,388,32,4,5,français,f,0,0.0,-15.34440167,0.71900559
6156e3e5439db9e60d24df29,80,1,2024-02-27T09:30:31.756Z,french_345.wav,0,poule,388,32,4,5,français,f,1,0.1,10.78758757,1.22956467
6156e3e5439db9e60d24df29,80,1,2024-02-27T09:30:31.756Z,french_345.wav,0,poule,388,32,4,5,français,f,2,0.2,-99.05600522,1.71608101
6156e3e5439db9e60d24df29,80,1,2024-02-27T09:30:31.756Z,french_345.wav,0,poule,388,32,4,5,français,f,3,0.25666667,-6.99010662,1.92257683
6156e3e5439db9e60d24df29,81,1,2024-02-27T09:30:31.756Z,french_954.wav,0,pull,558,32,4,5,français,f,0,0.0,-31.81965022,1.69468269
6156e3e5439db9e60d24df29,81,1,2024-02-27T09:30:31.756Z,french_954.wav,0,pull,558,32,4,5,français,f,1,0.1,82.90828133,0.7734121
6156e3e5439db9e60d24df29,81,1,2024-02-27T09:30:31.756Z,french_954.wav,0,pull,558,32,4,5,français,f,2,0.2,94.68318648,0.43346946
6156e3e5439db9e60d24df29,81,1,2024-02-27T09:30:31.756Z,french_954.wav,0,pull,558,32,4,5,français,f,3,0.25666667,-42.01635115,0.14112827
6156e3e5439db9e60d24df29,82,1,2024-02-27T09:30:31.756Z,french_413.wav,0,poule,403,32,4,5,français,f,0,0.0,-15.90568805,0.35618922
6156e3e5439db9e60d24df29,82,1,2024-02-27T09:30:31.756Z,french_413.wav,0,poule,403,32,4,5,français,f,1,0.1,76.04965913,1.72047272
6156e3e5439db9e60d24df29,82,1,2024-02-27T09:30:31.756Z,french_413.wav,0,poule,403,32,4,5,français,f,2,0.2,55.08996682,1.40872317
6156e3e5439db9e60d24df29,82,1,2024-02-27T09:30:31.756Z,french_413.wav,0,poule,403,32,4,5,français,f,3,0.25666667,17.39731584,1.8089724
6156e3e5439db9e60d24df29,83,1,2024-02-27T09:30:31.756Z,french_750.wav,0,poule,370,32,4,5,français,f,0,0.0,36.16157767,1.69010054
6156e3e5439db9e60d24df29,83,1,2024-02-27T09:30:31.756Z,french_750.wav,0,poule,370,32,4,5,français,f,1,0.1,-94.09249833,0.7877665
6156e3e5439db9e60d24df29,83,1,2024-02-27T09:30:31.756Z,french_750.wav,0,poule,370,32,4,5,français,f,2,0.2,97.07405484,0.99353813
6156e3e5439db9e60d24df29,83,1,2024-02-27T09:30:31.756Z,french_750.wav,0,poule,370,32,4,5,français,f,3,0.25666667,-8.28043626,0.64245914
6156e3e5439db9e60d24df29,84,1,2024-02-27T09:30:31.756Z,french_195.wav,0,poule,528,32,4,5,français,f,0,0.0,-1.90342588,0.62941576
6156e3e5439db9e60d24df29,84,1,2024-02-27T09:30:31.756Z,french_195.wav,0,poule,528,32,4,5,français,f,1,0.1,-8.12665825,1.90753939
6156e3e5439db9e60d24df29,84,1,2024-02-27T09:30:31.756Z,french_195.wav,0,poule,528,32,4,5,français,f,2,0.2,-5.61431002,1.47732259
6156e3e5439db9e60d24df29,84,1,2024-02-27T09:30:31.756Z,french_195.wav,0,poule,528,32,4,5,français,f,3,0.25666667,-66.29175925,0.68212586
6156e3e5439db9e60d24df29,85,1,2024-02-27T09:30:31.756Z,french_591.wav,0,poule,679,32,4,5,français,f,0,0.0,2.66615607,1.05020949
6156e3e5439db9e60d24df29,85,1,2024-02-27T09:30:31.756Z,french_591.wav,0,poule,679,32,4,5,français,f,1,0.1,-24.26502045,0.55521736
6156e3e5439db9e60d24df29,85,1,2024-02-27T09:30:31.756Z,french_591.wav,0,poule,679,32,4,5,français,f,2,0.2,-31.81388833,0.20807215
6156e3e5439db9e60d24df29,85,1,2024-02-27T09:30:31.756Z,french_591.wav,0,poule,679,32,4,5,français,f,3,0.25666667,34.70768216,1.08119284
6156e3e5439db9e60d24df29,86,1,2024-02-27T09:30:31.756Z,french_708.wav,0,poule,308,32,4,5,français,f,0,0.0,77.88438146,0.30850898
6156e3e5439db9e60d24df29,86,1,2024-02-27T09:30:31.756Z,french_708.wav,0,poule,308,32,4,5,français,f,1,0.1,-89.66132416,1.49064351
6156e3e5439db9e60d24df29,86,1,2024-02-27T09:30:31.756Z,french_708.wav,0,poule,308,32,4,5,français,f,2,0.2,66.08375885,1.28629193
6156e3e5439db9e60d24df29,86,1,2024-02-27T09:30:31.756Z,french_708.wav,0,poule,308,32,4,5,français,f,3,0.25666667,-39.93161414,1.01533724
6156e3e5439db9e60d24df29,87,1,2024-02-27T09:30:31.756Z,french_309.wav,0,poule,398,32,4,5,français,f,0,0.0,-43.78964232,0.29425556
6156e3e5439db9e60d24df29,87,1,2024-02-27T09:30:31.756Z,french_309.wav,0,poule,398,32,4,5,français,f,1,0.1,78.2069368,1.94220297
6156e3e5439db9e60d24df29,87,1,2024-02-27T09:30:31.756Z,french_309.wav,0,poule,398,32,4,5,français,f,2,0.2,-31.15110399,1.27018493
6156e3e5439db9e60d24df29,87,1,2024-02-27T09:30:31.756Z,french_309.wav,0,poule,398,32,4,5,français,f,3,0.25666667,-73.94684578,1.0788176
6156e3e5439db9e60d24df29,88,1,2024-02-27T09:30:31.756Z,french_91.wav,0,poule,263,32,4,5,français,f,0,0.0,22.16772641,0.07376739
6156e3e5439db9e60d24df29,88,1,2024-02-27T09:30:31.756Z,french_91.wav,0,poule,263,32,4,5,français,f,1,0.1,4.75787086,1.79269703
6156e3e5439db9e60d24df29,88,1,2024-02-27T09:30:31.756Z,french_91.wav,0,poule,263,32,4,5,français,f,2,0.2,16.21543539,1.59138707
6156e3e5439db9e60d24df29,88,1,2024-02-27T09:30:31.756Z,french_91.wav,0,poule,263,32,4,5,français,f,3,0.25666667,-31.35162056,1.67096256
6156e3e5439db9e60d24df29,89,1,2024-02-27T09:30:31.756Z,french_745.wav,0,poule,385,32,4,5,français,f,0,0.0,-23.86566831,1.27696082
6156e3e5439db9e60d24df29,89,1,2024-02-27T09:30:31.756Z,french_745.wav,0,poule,385,32,4,5,français,f,1,0.1,-33.24912316,1.44075169
6156e3e5439db9e60d24df29,89,1,2024-02-27T09:30:31.756Z,french_745.wav,0,poule,385,32,4,5,français,f,2,0.2,45.69666298,0.50413087
6156e3e5439db9e60d24df29,89,1,2024-02-27T09:30:31.756Z,french_745.wav,0,poule,385,32,4,5,français,f,3,0.25666667,-83.60192647,0.37289443
6156e3e5439db9e60d24df29,90,1,2024-02-27T09:30:31.756Z,french_577.wav,0,pull,487,32,4,5,français,f,0,0.0,-34.34323574,0.85646341
6156e3e5439db9e60d24df29,90,1,2024-02-27T09:30:31.756Z,french_577.wav,0,pull,487,32,4,5,français,f,1,0.1,42.3591335,0.14355807
6156e3e5439db9e60d24df29,90,1,2024-02-27T09:30:31.756Z,french_577.wav,0,pull,487,32,4,5,français,f,2,0.2,-17.66243752,0.33082023
6156e3e5439db9e60d24df29,90,1,2024-02-27T09:30:31.756Z,french_577.wav,0,pull,487,32,4,5,français,f,3,0.25666667,-25.14969583,0.85136365
6156e3e5439db9e60d24df29,91,1,2024-02-27T09:30:31.756Z,french_465.wav,0,poule,708,32,4,5,français,f,0,0.0,75.74191185,0.24775687
6156e3e5439db9e60d24df29,91,1,2024-02-27T09:30:31.756Z,french_465.wav,0,poule,708,32,4,5,français,f,1,0.1,-78.40057178,0.61634124
6156e3e5439db9e60d24df29,91,1,2024-02-27T09:30:31.756Z,french_465.wav,0,poule,708,32,4,5,français,f,2,0.2,-12.36406326,1.57309013
6156e3e5439db9e60d24df29,91,1,2024-02-27T09:30:31.756Z,french_465.wav,0,poule,708,32,4,5,français,f,3,0.25666667,-26.5706303,0.56284004
6156e3e5439db9e60d24df29,92,1,2024-02-27T09:30:31.756Z,french_682.wav,0,poule,450,32,4,5,français,f,0,0.0,-16.33102186,0.79850708
6156e3e5439db9e60d24df29,92,1,2024-02-27T09:30:31.756Z,french_682.wav,0,poule,450,32,4,5,français,f,1,0.1,-49.72009429,1.31273679
6156e3e5439db9e60d24df29,92,1,2024-02-27T09:30:31.756Z,french_682.wav,0,poule,450,32,4,5,français,f,2,0.2,-23.39596266,1.51298147
6156e3e5439db9e60d24df29,92,1,2024-02-27T09:30:31.756Z,french_682.wav,0,poule,450,32,4,5,français,f,3,0.25666667,-34.72439006,0.92861139
6156e3e5439db9e60d24df29,93,1,2024-02-27T09:30:31.756Z,french_19.wav,0,pull,683,32,4,5,français,f,0,0.0,-43.32613145,0.86768791
6156e3e5439db9e60d24df29,93,1,2024-02-27T09:30:31.756Z,french_19.wav,0,pull,683,32,4,5,français,f,1,0.1,-51.04998213,0.12235363
6156e3e5439db9e60d24df29,93,1,2024-02-27T09:30:31.756Z,french_19.wav,0,pull,683,32,4,5,français,f,2,0.2,-30.05832199,0.93205141
6156e3e5439db9e60d24df29,93,1,2024-02-27T09:30:31.756Z,french_19.wav,0,pull,683,32,4,5,français,f,3,0.25666667,-62.89931607,0.68272422
6156e3e5439db9e60d24df29,94,1,2024-02-27T09:30:31.756Z,french_275.wav,0,poule,428,32,4,5,français,f,0,0.0,-71.45872278,0.56157087
6156e3e5439db9e60d24df29,94,1,2024-02-27T09:30:31.756Z,french_275.wav,0,poule,428,32,4,5,français,f,1,0.1,50.23093754,1.03531052
6156e3e5439db9e60d24df29,94,1,2024-02-27T09:30:31.756Z,french_275.wav,0,poule,428,32,4,5,français,f,2,0.2,82.04936404,1.31605034
6156e3e5439db9e60d24df29,94,1,2024-02-27T09:30:31.756Z,french_275.wav,0,poule,428,32,4,5,français,f,3,0.25666667,-63.35862329,0.72936955
6156e3e5439db9e60d24df29,95,1,2024-02-27T09:30:31.756Z,french_9.wav,0,pull,488,32,4,5,français,f,0,0.0,19.3207086,1.35934995
6156e3e5439db9e60d24df29,95,1,2024-02-27T09:30:31.756Z,french_9.wav,0,pull,488,32,4,5,français,f,1,0.1,55.1250277,1.31727385
6156e3e5439db9e60d24df29,95,1,2024-02-27T09:30:31.756Z,french_9.wav,0,pull,488,32,4,5,français,f,2,0.2,31.60633129,0.52824511
6156e3e5439db9e60d24df29,95,1,2024-02-27T09:30:31.756Z,french_9.wav,0,pull,488,32,4,5,français,f,3,0.25666667,31.4464946,1.75131645
6156e3e5439db9e60d24df29,96,1,2024-02-27T09:30:31.756Z,french_977.wav,0,pull,469,32,4,5,français,f,0,0.0,-23.34946859,1.58788712
6156e3e5439db9e60d24df29,96,1,2024-02-27T09:30:31.756Z,french_977.wav,0,pull,469,32,4,5,français,f,1,0.1,-74.17160997,0.25032328
6156e3e5439db9e60d24df29,96,1,2024-02-27T09:30:31.756Z,french_977.wav,0,pull,469,32,4,5,français,f,2,0.2,31.43852713,0.90752219
6156e3e5439db9e60d24df29,96,1,2024-02-27T09:30:31.756Z,french_977.wav,0,pull,469,32,4,5,français,f,3,0.25666667,-10.29160018,1.52460946
6156e3e5439db9e60d24df29,97,1,2024-02-27T09:30:31.756Z,french_594.wav,0,pull,253,32,4,5,français,f,0,0.0,-77.17245549,1.803544
6156e3e5439db9e60d24df29,97,1,2024-02-27T09:30:31.756Z,french_594.wav,0,pull,253,32,4,5,français,f,1,0.1,-9.42910309,1.0387293
6156e3e5439db9e60d24df29,97,1,2024-02-27T09:30:31.756Z,french_594.wav,0,pull,253,32,4,5,français,f,2,0.2,28.840902,1.64762654
6156e3e5439db9e60d24df29,97,1,2024-02-27T09:30:31.756Z,french_594.wav,0,pull,253,32,4,5,français,f,3,0.25666667,-27.68960177,0.23150428
6156e3e5439db9e60d24df29,98,1,2024-02-27T09:30:31.756Z,french_560.wav,0,poule,366,32,4,5,français,f,0,0.0,-42.00998938,1.48749501
6156e3e5439db9e60d24df29,98,1,2024-02-27T09:30:31.756Z,french_560.wav,0,poule,366,32,4,5,français,f,1,0.1,-57.33016448,0.25124208
6156e3e5439db9e60d24df29,98,1,2024-02-27T09:30:31.756Z,french_560.wav,0,poule,366,32,4,5,français,f,2,0.2,94.61210268,1.70870291
6156e3e5439db9e60d24df29,98,1,2024-02-27T09:30:31.756Z,french_560.wav,0,poule,366,32,4,5,français,f,3,0.25666667,-53.14621565,0.91259566
6156e3e5439db9e60d24df29,99,1,2024-02-27T09:30:31.756Z,french_607.wav,0,poule,588,32,4,5,français,f,0,0.0,86.31857573,1.61060215
6156e3e5439db9e60d24df29,99,1,2024-02-27T09:30:31.756Z,french_607.wav,0,poule,588,32,4,5,français,f,1,0.1,-46.02697415,1.76940735
6156e3e5439db9e60d24df29,99,1,2024-02-27T09:30:31.756Z,french_607.wav,0,poule,588,32,4,5,français,f,2,0.2,45.41214831,0.70600977
6156e3e5439db9e60d24df29,99,1,2024-02-27T09:30:31.756Z,french_607.wav,0,poule,588,32,4,5,français,f,3,0.25666667,58.05056059,0.79164166
6156e3e5439db9e60d24df29,100,2,2024-02-27T09:30:31.756Z,french_93.wav,0,pull,625,32,4,5,français,f,0,0.0,23.57211404,0.62732128
6156e3e5439db9e60d24df29,100,2,2024-02-27T09:30:31.756Z,french_93.wav,0,pull,625,32,4,5,français,f,1,0.1,-16.15934767,0.10811818
6156e3e5439db9e60d24df29,100,2,2024-02-27T09:30:31.756Z,french_93.wav,0,pull,625,32,4,5,français,f,2,0.2,25.54711871,0.30787392
6156e3e5439db9e60d24df29,100,2,2024-02-27T09:30:31.756Z,french_93.wav,0,pull,625,32,4,5,français,f,3,0.25666667,65.09284613,1.57978374
6156e3e5439db9e60d24df29,101,2,2024-02-27T09:30:31.756Z,french_29.wav,0,poule,482,32,4,5,français,f,0,0.0,82.92052959,1.65542147
6156e3e5439db9e60d24df29,101,2,2024-02-27T09:30:31.756Z,french_29.wav,0,poule,482,32,4,5,français,f,1,0.1,96.5660735,0.71189304
6156e3e5439db9e60d24df29,101,2,2024-02-27T09:30:31.756Z,french_29.wav,0,poule,482,32,4,5,français,f,2,0.2,76.1539425,0.4523944
6156e3e5439db9e60d24df29,101,2,2024-02-27T09:30:31.756Z,french_29.wav,0,poule,482,32,4,5,français,f,3,0.25666667,-7.00195585,1.32757755
6156e3e5439db9e60d24df29,102,2,2024-02-27T09:30:31.756Z,french_288.wav,0,poule,2646,32,4,5,français,f,0,0.0,-9.24929425,1.2144441
6156e3e5439db9e60d24df29,102,2,2024-02-27T09:30:31.756Z,french_288.wav,0,poule,2646,32,4,5,français,f,1,0.1,97.18434129,0.01267679
6156e3e5439db9e60d24df29,102,2,2024-02-27T09:30:31.756Z,french_288.wav,0,poule,2646,32,4,5,français,f,2,0.2,-8.99940005,1.13720482
6156e3e5439db9e60d24df29,102,2,2024-02-27T09:30:31.756Z,french_288.wav,0,poule,2646,32,4,5,français,f,3,0.25666667,-80.67587563,1.56801852
6156e3e5439db9e60d24df29,103,2,2024-02-27T09:30:31.756Z,french_20.wav,0,poule,733,32,4,5,français,f,0,0.0,-78.24291845,1.07200279
6156e3e5439db9e60d24df29,103,2,2024-02-27T09:30:31.756Z,french_20.wav,0,poule,733,32,4,5,français,f,1,0.1,-38.50442353,1.52694999
6156e3e5439db9e60d24df29,103,2,2024-02-27T09:30:31.756Z,french_20.wav,0,poule,733,32,4,5,français,f,2,0.2,8.39731749,0.86133356
6156e3e5439db9e60d24df29,103,2,2024-02-27T09:30:31.756Z,french_20.wav,0,poule,733,32,4,5,français,f,3,0.25666667,-43.87764948,0.74788424
6156e3e5439db9e60d24df29,104,2,2024-02-27T09:30:31.756Z,french_563.wav,0,poule,333,32,4,5,français,f,0,0.0,1.48089244,0.83142925
6156e3e5439db9e60d24df29,104,2,2024-02-27T09:30:31.756Z,french_563.wav,0,poule,333,32,4,5,français,f,1,0.1,19.03426996,1.65727988
6156e3e5439db9e60d24df29,104,2,2024-02-27T09:30:31.756Z,french_563.wav,0,poule,333,32,4,5,français,f,2,0.2,-28.07832236,1.36487064
6156e3e5439db9e60d24df29,104,2,2024-02-27T09:30:31.756Z,french_563.wav,0,poule,333,32,4,5,français,f,3,0.25666667,33.25369521,0.18463038
6156e3e5439db9e60d24df29,105,2,2024-02-27T09:30:31.756Z,french_53.wav,0,pull,778,32,4,5,français,f,0,0.0,-2.35814843,1.83928924
6156e3e5439db9e60d24df29,105,2,2024-02-27T09:30:31.756Z,french_53.wav,0,pull,778,32,4,5,français,f,1,0.1,-48.73544303,0.78912936
6156e3e5439db9e60d24df29,105,2,2024-02-27T09:30:31.756Z,french_53.wav,0,pull,778,32,4,5,français,f,2,0.2,38.27016364,0.60668558
6156e3e5439db9e60d24df29,105,2,2024-02-27T09:30:31.756Z,french_53.wav,0,pull,778,32,4,5,français,f,3,0.25666667,-31.96265424,0.83130548
6156e3e5439db9e60d24df29,106,2,2024-02-27T09:30:31.756Z,french_841.wav,0,pull,598,32,4,5,français,f,0,0.0,-39.25619305,0.53587318
6156e3e5439db9e60d24df29,106,2,2024-02-27T09:30:31.756Z,french_841.wav,0,pull,598,32,4,5,français,f,1,0.1,99.64346723,0.26500163
6156e3e5439db9e60d24df29,106,2,2024-02-27T09:30:31.756Z,french_841.wav,0,pull,598,32,4,5,français,f,2,0.2,76.90020667,1.77796469
6156e3e5439db9e60d24df29,106,2,2024-02-27T09:30:31.756Z,french_841.wav,0,pull,598,32,4,5,français,f,3,0.25666667,40.01429738,0.75111943
6156e3e5439db9e60d24df29,107,2,2024-02-27T09:30:31.756Z,french_671.wav,0,poule,890,32,4,5,français,f,0,0.0,-43.02390558,0.93196934
6156e3e5439db9e60d24df29,107,2,2024-02-27T09:30:31.756Z,french_671.wav,0,poule,890,32,4,5,français,f,1,0.1,13.89093856,1.15314194
6156e3e5439db9e60d24df29,107,2,2024-02-27T09:30:31.756Z,french_671.wav,0,poule,890,32,4,5,français,f,2,0.2,3.48608914,0.54353121
6156e3e5439db9e60d24df29,107,2,2024-02-27T09:30:31.756Z,french_671.wav,0,poule,890,32,4,5,français,f,3,0.25666667,-98.36263583,1.08598707
6156e3e5439db9e60d24df29,108,2,2024-02-27T09:30:31.756Z,french_751.wav,0,pull,539,32,4,5,français,f,0,0.0,43.14158788,0.5897858
6156e3e5439db9e60d24df29,108,2,2024-02-27T09:30:31.756Z,french_751.wav,0,pull,539,32,4,5,français,f,1,0.1,18.43858874,0.77618244
6156e3e5439db9e60d24df29,108,2,2024-02-27T09:30:31.756Z,french_751.wav,0,pull,539,32,4,5,français,f,2,0.2,79.49995567,1.33641446
6156e3e5439db9e60d24df29,108,2,2024-02-27T09:30:31.756Z,french_751.wav,0,pull,539,32,4,5,français,f,3,0.25666667,54.04463095,0.80537668
6156e3e5439db9e60d24df29,109,2,2024-02-27T09:30:31.756Z,french_493.wav,0,pull,681,32,4,5,français,f,0,0.0,-68.32294441,0.52835731
6156e3e5439db9e60d24df29,109,2,2024-02-27T09:30:31.756Z,french_493.wav,0,pull,681,32,4,5,français,f,1,0.1,-10.78892258,0.49612748
6156e3e5439db9e60d24df29,109,2,2024-02-27T09:30:31.756Z,french_493.wav,0,pull,681,32,4,5,français,f,2,0.2,91.72278204,1.46473376
6156e3e5439db9e60d24df29,109,2,2024-02-27T09:30:31.756Z,french_493.wav,0,pull,681,32,4,5,français,f,3,0.25666667,-45.09260027,1.2872874
6156e3e5439db9e60d24df29,110,2,2024-02-27T09:30:31.756Z,french_950.wav,0,poule,252,32,4,5,français,f,0,0.0,6.46729125,1.1492664
6156e3e5439db9e60d24df29,110,2,2024-02-27T09:30:31.756Z,french_950.wav,0,poule,252,32,4,5,français,f,1,0.1,89.94723115,1.37343317
6156e3e5439db9e60d24df29,110,2,2024-02-27T09:30:31.756Z,french_950.wav,0,poule,252,32,4,5,français,f,2,0.2,33.92654299,1.07181876
6156e3e5439db9e60d24df29,110,2,2024-02-27T09:30:31.756Z,french_950.wav,0,poule,252,32,4,5,français,f,3,0.25666667,4.68690548,0.13073982
6156e3e5439db9e60d24df29,111,2,2024-02-27T09:30:31.756Z,french_15.wav,0,poule,585,32,4,5,français,f,0,0.0,75.10258226,1.00702741
6156e3e5439db9e60d24df29,111,2,2024-02-27T09:30:31.756Z,french_15.wav,0,poule,585,32,4,5,français,f,1,0.1,91.64852869,0.72289983
6156e3e5439db9e60d24df29,111,2,2024-02-27T09:30:31.756Z,french_15.wav,0,poule,585,32,4,5,français,f,2,0.2,-54.2483896,1.50363401
6156e3e5439db9e60d24df29,111,2,2024-02-27T09:30:31.756Z,french_15.wav,0,poule,585,32,4,5,français,f,3,0.25666667,-67.82917504,0.97553874
6156e3e5439db9e60d24df29,112,2,2024-02-27T09:30:31.756Z,french_263.wav,0,poule,468,32,4,5,français,f,0,0.0,25.02930943,0.29249845
6156e3e5439db9e60d24df29,112,2,2024-02-27T09:30:31.756Z,french_263.wav,0,poule,468,32,4,5,français,f,1,0.1,77.59070044,1.82268286
6156e3e5439db9e60d24df29,112,2,2024-02-27T09:30:31.756Z,french_263.wav,0,poule,468,32,4,5,français,f,2,0.2,61.13366196,0.69638669
6156e3e5439db9e60d24df29,112,2,2024-02-27T09:30:31.756Z,french_263.wav,0,poule,468,32,4,5,français,f,3,0.25666667,-46.58539851,0.57279137
6156e3e5439db9e60d24df29,113,2,2024-02-27T09:30:31.756Z,french_89.wav,0,poule,387,32,4,5,français,f,0,0.0,-79.59355323,1.69180454
6156e3e5439db9e60d24df29,113,2,2024-02-27T09:30:31.756Z,french_89.wav,0,poule,387,32,4,5,français,f,1,0.1,-86.9945706,1.08047967
6156e3e5439db9e60d24df29,113,2,2024-02-27T09:30:31.756Z,french_89.wav,0,poule,387,32,4,5,français,f,2,0.2,81.38410409,1.92177075
6156e3e5439db9e60d24df29,113,2,2024-02-27T09:30:31.756Z,french_89.wav,0,poule,387,32,4,5,français,f,3,0.25666667,-11.31628481,1.93759104
6156e3e5439db9e60d24df29,114,2,2024-02-27T09:30:31.756Z,french_327.wav,0,poule,512,32,4,5,français,f,0,0.0,75.01862194,1.26930687
6156e3e5439db9e60d24df29,114,2,2024-02-27T09:30:31.756Z,french_327.wav,0,poule,512,32,4,5,français,f,1,0.1,-83.8502905,1.47688931
6156e3e5439db9e60d24df29,114,2,2024-02-27T09:30:31.756Z,french_327.wav,0,poule,512,32,4,5,français,f,2,0.2,63.63621512,1.339502
6156e3e5439db9e60d24df29,114,2,2024-02-27T09:30:31.756Z,french_327.wav,0,poule,512,32,4,5,français,f,3,0.25666667,-22.5018405,0.76786237
6156e3e5439db9e60d24df29,115,2,2024-02-27T09:30:31.756Z,french_165.wav,0,poule,142,32,4,5,français,f,0,0.0,34.81781775,0.27086967
6156e3e5439db9e60d24df29,115,2,2024-02-27T09:30:31.756Z,french_165.wav,0,poule,142,32,4,5,français,f,1,0.1,-0.63630456,1.42196963
6156e3e5439db9e60d24df29,115,2,2024-02-27T09:30:31.756Z,french_165.wav,0,poule,142,32,4,5,français,f,2,0.2,85.92593744,1.99513726
6156e3e5439db9e60d24df29,115,2,2024-02-27T09:30:31.756Z,french_165.wav,0,poule,142,32,4,5,français,f,3,0.25666667,7.56589877,0.37439059
6156e3e5439db9e60d24df29,116,2,2024-02-27T09:30:31.756Z,french_277.wav,0,poule,245,32,4,5,français,f,0,0.0,25.76771762,1.36859257
6156e3e5439db9e60d24df29,116,2,2024-02-27T09:30:31.756Z,french_277.wav,0,poule,245,32,4,5,français,f,1,0.1,-70.25975294,1.02052852
6156e3e5439db9e60d24df29,116,2,2024-02-27T09:30:31.756Z,french_277.wav,0,poule,245,32,4,5,français,f,2,0.2,-52.96477311,1.14771146
6156e3e5439db9e60d24df29,116,2,2024-02-27T09:30:31.756Z,french_277.wav,0,poule,245,32,4,5,français,f,3,0.25666667,41.51950841,0.3441713
6156e3e5439db9e60d24df29,117,2,2024-02-27T09:30:31.756Z,french_813.wav,0,poule,221,32,4,5,français,f,0,0.0,-37.07388554,0.1380457
6156e3e5439db9e60d24df29,117,2,2024-02-27T09:30:31.756Z,french_813.wav,0,poule,221,32,4,5,français,f,1,0.1,74.87893645,0.44333359
6156e3e5439db9e60d24df29,117,2,2024-02-27T09:30:31.756Z,french_813.wav,0,poule,221,32,4,5,français,f,2,0.2,-91.66198227,0.5462976
6156e3e5439db9e60d24df29,117,2,2024-02-27T09:30:31.756Z,french_813.wav,0,poule,221,32,4,5,français,f,3,0.25666667,81.38219901,1.94163826
6156e3e5439db9e60d24df29,118,2,2024-02-27T09:30:31.756Z,french_26.wav,0,pull,616,32,4,5,français,f,0,0.0,-38.52186107,1.55913274
6156e3e5439db9e60d24df29,118,2,2024-02-27T09:30:31.756Z,french_26.wav,0,pull,616,32,4,5,français,f,1,0.1,92.94908957,0.73355846
6156e3e5439db9e60d24df29,118,2,2024-02-27T09:30:31.756Z,french_26.wav,0,pull,616,32,4,5,français,f,2,0.2,38.63958599,0.51766924
6156e3e5439db9e60d24df29,118,2,2024-02-27T09:30:31.756Z,french_26.wav,0,pull,616,32,4,5,français,f,3,0.25666667,81.76747676,0.7935304
6156e3e5439db9e60d24df29,119,2,2024-02-27T09:30:31.756Z,french_653.wav,0,pull,432,32,4,5,français,f,0,0.0,77.9010548,1.15209157
6156e3e5439db9e60d24df29,119,2,2024-02-27T09:30:31.756Z,french_653.wav,0,pull,432,32,4,5,français,f,1,0.1,-51.77114594,0.29445829
6156e3e5439db9e60d24df29,119,2,2024-02-27T09:30:31.756Z,french_653.wav,0,pull,432,32,4,5,français,f,2,0.2,87.84855202,0.58679482
6156e3e5439db9e60d24df29,119,2,2024-02-27T09:30:31.756Z,french_653.wav,0,pull,432,32,4,5,français,f,3,0.25666667,84.03497815,1.23322571
6156e3e5439db9e60d24df29,120,2,2024-02-27T09:30:31.756Z,french_735.wav,0,pull,480,32,4,5,français,f,0,0.0,16.11120967,0.14330821
6156e3e5439db9e60d24df29,120,2,2024-02-27T09:30:31.756Z,french_735.wav,0,pull,480,32,4,5,français,f,1,0.1,-19.98897555,0.00237292
6156e3e5439db9e60d24df29,120,2,2024-02-27T09:30:31.756Z,french_735.wav,0,pull,480,32,4,5,français,f,2,0.2,68.29513728,1.1733856
6156e3e5439db9e60d24df29,120,2,2024-02-27T09:30:31.756Z,french_735.wav,0,pull,480,32,4,5,français,f,3,0.25666667,31.40150104,0.51599842
6156e3e5439db9e60d24df29,121,2,2024-02-27T09:30:31.756Z,french_586.wav,0,poule,292,32,4,5,français,f,0,0.0,86.96734506,0.62271677
6156e3e5439db9e60d24df29,121,2,2024-02-27T09:30:31.756Z,french_586.wav,0,poule,292,32,4,5,français,f,1,0.1,-8.603444,1.69916535
6156e3e5439db9e60d24df29,121,2,2024-02-27T09:30:31.756Z,french_586.wav,0,poule,292,32,4,5,français,f,2,0.2,11.78169212,1.65961944
6156e3e5439db9e60d24df29,121,2,2024-02-27T09:30:31.756Z,french_586.wav,0,poule,292,32,4,5,français,f,3,0.25666667,14.18547806,1.90120182
6156e3e5439db9e60d24df29,122,2,2024-02-27T09:30:31.756Z,french_313.wav,0,pull,1205,32,4,5,français,f,0,0.0,50.15458506,0.55380102
6156e3e5439db9e60d24df29,122,2,2024-02-27T09:30:31.756Z,french_313.wav,0,pull,1205,32,4,5,français,f,1,0.1,2.46815661,0.88494107
6156e3e5439db9e60d24df29,122,2,2024-02-27T09:30:31.756Z,french_313.wav,0,pull,1205,32,4,5,français,f,2,0.2,44.14025365,0.65214702
6156e3e5439db9e60d24df29,122,2,2024-02-27T09:30:31.756Z,french_313.wav,0,pull,1205,32,4,5,français,f,3,0.25666667,-56.8276357,0.5616472
6156e3e5439db9e60d24df29,123,2,2024-02-27T09:30:31.756Z,french_18.wav,0,pull,646,32,4,5,français,f,0,0.0,29.29326365,1.56476478
6156e3e5439db9e60d24df29,123,2,2024-02-27T09:30:31.756Z,french_18.wav,0,pull,646,32,4,5,français,f,1,0.1,-65.9497706,0.7748919
6156e3e5439db9e60d24df29,123,2,2024-02-27T09:30:31.756Z,french_18.wav,0,pull,646,32,4,5,français,f,2,0.2,-68.38187686,0.73946843
6156e3e5439db9e60d24df29,123,2,2024-02-27T09:30:31.756Z,french_18.wav,0,pull,646,32,4,5,français,f,3,0.25666667,26.32477662,1.33435109
6156e3e5439db9e60d24df29,124,2,2024-02-27T09:30:31.756Z,french_609.wav,0,poule,205,32,4,5,français,f,0,0.0,11.6890167,1.75568789
6156e3e5439db9e60d24df29,124,2,2024-02-27T09:30:31.756Z,french_609.wav,0,poule,205,32,4,5,français,f,1,0.1,-35.50971605,1.50542158
6156e3e5439db9e60d24df29,124,2,2024-02-27T09:30:31.756Z,french_609.wav,0,poule,205,32,4,5,français,f,2,0.2,-98.47760025,0.96032408
6156e3e5439db9e60d24df29,124,2,2024-02-27T09:30:31.756Z,french_609.wav,0,poule,205,32,4,5,français,f,3,0.25666667,-64.00925784,1.1186533
6156e3e5439db9e60d24df29,125,2,2024-02-27T09:30:31.756Z,french_101.wav,0,poule,904,32,4,5,français,f,0,0.0,2.45558497,0.33272101
6156e3e5439db9e60d24df29,125,2,2024-02-27T09:30:31.756Z,french_101.wav,0,poule,904,32,4,5,français,f,1,0.1,-89.46857105,1.30167387
6156e3e5439db9e60d24df29,125,2,2024-02-27T09:30:31.756Z,french_101.wav,0,poule,904,32,4,5,français,f,2,0.2,26.84471845,0.45771198
6156e3e5439db9e60d24df29,125,2,2024-02-27T09:30:31.756Z,french_101.wav,0,poule,904,32,4,5,français,f,3,0.25666667,-40.2942876,1.30875705
6156e3e5439db9e60d24df29,126,2,2024-02-27T09:30:31.756Z,french_966.wav,0,pull,580,32,4,5,français,f,0,0.0,94.80811126,1.26057873
6156e3e5439db9e60d24df29,126,2,2024-02-27T09:30:31.756Z,french_966.wav,0,pull,580,32,4,5,français,f,1,0.1,-90.73743651,1.58996588
6156e3e5439db9e60d24df29,126,2,2024-02-27T09:30:31.756Z,french_966.wav,0,pull,580,32,4,5,français,f,2,0.2,94.60686235,0.08752829
6156e3e5439db9e60d24df29,126,2,2024-02-27T09:30:31.756Z,french_966.wav,0,pull,580,32,4,5,français,f,3,0.25666667,-83.76406221,0.32239013
6156e3e5439db9e60d24df29,127,2,2024-02-27T09:30:31.756Z,french_761.wav,0,poule,461,32,4,5,français,f,0,0.0,-26.32638144,1.05429599
6156e3e5439db9e60d24df29,127,2,2024-02-27T09:30:31.756Z,french_761.wav,0,poule,461,32,4,5,français,f,1,0.1,78.13411122,0.90631559
6156e3e5439db9e60d24df29,127,2,2024-02-27T09:30:31.756Z,french_761.wav,0,poule,461,32,4,5,français,f,2,0.2,-6.36477673,1.36732306
6156e3e5439db9e60d24df29,127,2,2024-02-27T09:30:31.756Z,french_761.wav,0,poule,461,32,4,5,français,f,3,0.25666667,-77.19672863,0.83755281
6156e3e5439db9e60d24df29,128,2,2024-02-27T09:30:31.756Z,french_790.wav,0,pull,553,32,4,5,français,f,0,0.0,-78.0899986,0.03777082
6156e3e5439db9e60d24df29,128,2,2024-02-27T09:30:31.756Z,french_790.wav,0,pull,553,32,4,5,français,f,1,0.1,-13.38999599,1.54425687
6156e3e5439db9e60d24df29,128,2,2024-02-27T09:30:31.756Z,french_790.wav,0,pull,553,32,4,5,français,f,2,0.2,-59.88967217,0.07634696
6156e3e5439db9e60d24df29,128,2,2024-02-27T09:30:31.756Z,french_790.wav,0,pull,553,32,4,5,français,f,3,0.25666667,34.06701256,1.62279479
6156e3e5439db9e60d24df29,129,2,2024-02-27T09:30:31.756Z,french_296.wav,0,poule,495,32,4,5,français,f,0,0.0,93.71479572,0.08926169
6156e3e5439db9e60d24df29,129,2,2024-02-27T09:30:31.756Z,french_296.wav,0,poule,495,32,4,5,français,f,1,0.1,-75.79046522,1.27041306
6156e3e5439db9e60d24df29,129,2,2024-02-27T09:30:31.756Z,french_296.wav,0,poule,495,32,4,5,français,f,2,0.2,-87.29598303,1.46433067
6156e3e5439db9e60d24df29,129,2,2024-02-27T09:30:31.756Z,french_296.wav,0,poule,495,32,4,5,français,f,3,0.25666667,31.73776098,0.42599999
6156e3e5439db9e60d24df29,130,2,2024-02-27T09:30:31.756Z,french_697.wav,0,poule,640,32,4,5,français,f,0,0.0,-19.8565912,1.89587242
6156e3e5439db9e60d24df29,130,2,2024-02-27T09:30:31.756Z,french_697.wav,0,poule,640,32,4,5,français,f,1,0.1,-16.18456076,0.49072185
6156e3e5439db9e60d24df29,130,2,2024-02-27T09:30:31.756Z,french_697.wav,0,poule,640,32,4,5,français,f,2,0.2,-70.77550193,1.8362568
6156e3e5439db9e60d24df29,130,2,2024-02-27T09:30:31.756Z,french_697.wav,0,poule,640,32,4,5,français,f,3,0.25666667,-81.21106402,0.50078837
6156e3e5439db9e60d24df29,131,2,2024-02-27T09:30:31.756Z,french_575.wav,0,pull,759,32,4,5,français,f,0,0.0,32.80241223,0.38229386
6156e3e5439db9e60d24df29,131,2,2024-02-27T09:30:31.756Z,french_575.wav,0,pull,759,32,4,5,français,f,1,0.1,11.70984026,0.34252019
6156e3e5439db9e60d24df29,131,2,2024-02-27T09:30:31.756Z,french_575.wav,0,pull,759,32,4,5,français,f,2,0.2,-24.23897751,1.12781483
6156e3e5439db9e60d24df29,131,2,2024-02-27T09:30:31.756Z,french_575.wav,0,pull,759,32,4,5,français,f,3,0.25666667,5.92669397,1.51292739
6156e3e5439db9e60d24df29,132,2,2024-02-27T09:30:31.756Z,french_642.wav,0,pull,506,32,4,5,français,f,0,0.0,94.74505174,1.94145252
6156e3e5439db9e60d24df29,132,2,2024-02-27T09:30:31.756Z,french_642.wav,0,pull,506,32,4,5,français,f,1,0.1,-41.90916732,1.43327494
6156e3e5439db9e60d24df29,132,2,2024-02-27T09:30:31.756Z,french_642.wav,0,pull,506,32,4,5,français,f,2,0.2,-70.07976965,0.59817774
6156e3e5439db9e60d24df29,132,2,2024-02-27T09:30:31.756Z,french_642.wav,0,pull,506,32,4,5,français,f,3,0.25666667,42.72168091,1.11755549
6156e3e5439db9e60d24df29,133,2,2024-02-27T09:30:31.756Z,french_529.wav,0,poule,680,32,4,5,français,f,0,0.0,54.97727121,0.19662293
6156e3e5439db9e60d24df29,133,2,2024-02-27T09:30:31.756Z,french_529.wav,0,poule,680,32,4,5,français,f,1,0.1,-15.05833494,1.39103506
6156e3e5439db9e60d24df29,133,2,2024-02-27T09:30:31.756Z,french_529.wav,0,poule,680,32,4,5,français,f,2,0.2,4.35581279,0.62492467
6156e3e5439db9e60d24df29,133,2,2024-02-27T09:30:31.756Z,french_529.wav,0,poule,680,32,4,5,français,f,3,0.25666667,-47.03433584,1.10830727
6156e3e5439db9e60d24df29,134,2,2024-02-27T09:30:31.756Z,french_599.wav,0,pull,404,32,4,5,français,f,0,0.0,67.35107794,1.27225877
6156e3e5439db9e60d24df29,134,2,2024-02-27T09:30:31.756Z,french_599.wav,0,pull,404,32,4,5,français,f,1,0.1,-80.59112066,1.42607556
6156e3e5439db9e60d24df29,134,2,2024-02-27T09:30:31.756Z,french_599.wav,0,pull,404,32,4,5,français,f,2,0.2,8.51369184,0.27008032
6156e3e5439db9e60d24df29,134,2,2024-02-27T09:30:31.756Z,french_599.wav,0,pull,404,32,4,5,français,f,3,0.25666667,74.29539318,0.36016313
6156e3e5439db9e60d24df29,135,2,2024-02-27T09:30:31.756Z,french_898.wav,0,poule,420,32,4,5,français,f,0,0.0,-10.33405821,1.53220968
6156e3e5439db9e60d24df29,135,2,2024-02-27T09:30:31.756Z,french_898.wav,0,poule,420,32,4,5,français,f,1,0.1,56.62547765,1.11219982
6156e3e5439db9e60d24df29,135,2,2024-02-27T09:30:31.756Z,french_898.wav,0,poule,420,32,4,5,français,f,2,0.2,26.06756425,1.10520568
6156e3e5439db9e60d24df29,135,2,2024-02-27T09:30:31.756Z,french_898.wav,0,poule,420,32,4,5,français,f,3,0.25666667,61.22858123,0.66903516
6156e3e5439db9e60d24df29,136,2,2024-02-27T09:30:31.756Z,french_412.wav,0,poule,1239,32,4,5,français,f,0,0.0,-59.33534007,1.02487397
6156e3e5439db9e60d24df29,136,2,2024-02-27T09:30:31.756Z,french_412.wav,0,poule,1239,32,4,5,français,f,1,0.1,-79.1774496,0.54283138
6156e3e5439db9e60d24df29,136,2,2024-02-27T09:30:31.756Z,french_412.wav,0,poule,1239,32,4,5,français,f,2,0.2,-38.59435565,0.86213444
6156e3e5439db9e60d24df29,136,2,2024-02-27T09:30:31.756Z,french_412.wav,0,poule,1239,32,4,5,français,f,3,0.25666667,65.74010912,0.54314794
6156e3e5439db9e60d24df29,137,2,2024-02-27T09:30:31.756Z,french_696.wav,0,poule,494,32,4,5,français,f,0,0.0,39.34258856,1.15492287
6156e3e5439db9e60d24df29,137,2,2024-02-27T09:30:31.756Z,french_696.wav,0,poule,494,32,4,5,français,f,1,0.1,16.85699936,0.81118798
6156e3e5439db9e60d24df29,137,2,2024-02-27T09:30:31.756Z,french_696.wav,0,poule,494,32,4,5,français,f,2,0.2,-58.01570434,0.43841119
6156e3e5439db9e60d24df29,137,2,2024-02-27T09:30:31.756Z,french_696.wav,0,poule,494,32,4,5,français,f,3,0.25666667,-91.70212518,1.32812972
6156e3e5439db9e60d24df29,138,2,2024-02-27T09:30:31.756Z,french_331.wav,0,pull,1511,32,4,5,français,f,0,0.0,-65.4197333,1.29365297
6156e3e5439db9e60d24df29,138,2,2024-02-27T09:30:31.756Z,french_331.wav,0,pull,1511,32,4,5,français,f,1,0.1,-42.63112693,1.19213918
6156e3e5439db9e60d24df29,138,2,2024-02-27T09:30:31.756Z,french_331.wav,0,pull,1511,32,4,5,français,f,2,0.2,-74.29271092,0.93002313
6156e3e5439db9e60d24df29,138,2,2024-02-27T09:30:31.756Z,french_331.wav,0,pull,1511,32,4,5,français,f,3,0.25666667,-22.37665177,1.59897964
6156e3e5439db9e60d24df29,139,2,2024-02-27T09:30:31.756Z,french_6.wav,0,poule,517,32,4,5,français,f,0,0.0,67.46153681,1.53277947
6156e3e5439db9e60d24df29,139,2,2024-02-27T09:30:31.756Z,french_6.wav,0,poule,517,32,4,5,français,f,1,0.1,-88.84735091,1.45938327
6156e3e5439db9e60d24df29,139,2,2024-02-27T09:30:31.756Z,french_6.wav,0,poule,517,32,4,5,français,f,2,0.2,-91.91919173,0.73643418
6156e3e5439db9e60d24df29,139,2,2024-02-27T09:30:31.756Z,french_6.wav,0,poule,517,32,4,5,français,f,3,0.25666667,29.60258617,1.91810532
6156e3e5439db9e60d24df29,140,2,2024-02-27T09:30:31.756Z,french_777.wav,0,poule,176,32,4,5,français,f,0,0.0,8.03786355,1.59828936
6156e3e5439db9e60d24df29,140,2,2024-02-27T09:30:31.756Z,french_777.wav,0,poule,176,32,4,5,français,f,1,0.1,-25.18391206,0.4858639
6156e3e5439db9e60d24df29,140,2,2024-02-27T09:30:31.756Z,french_777.wav,0,poule,176,32,4,5,français,f,2,0.2,-83.38753258,1.25666852
6156e3e5439db9e60d24df29,140,2,2024-02-27T09:30:31.756Z,french_777.wav,0,poule,176,32,4,5,français,f,3,0.25666667,40.68339476,1.11090511
6156e3e5439db9e60d24df29,141,2,2024-02-27T09:30:31.756Z,french_98.wav,0,poule,551,32,4,5,français,f,0,0.0,-5.34356544,0.47275823
6156e3e5439db9e60d24df29,141,2,2024-02-27T09:30:31.756Z,french_98.wav,0,poule,551,32,4,5,français,f,1,0.1,-51.77157259,0.98771666
6156e3e5439db9e60d24df29,141,2,2024-02-27T09:30:31.756Z,french_98.wav,0,poule,551,32,4,5,français,f,2,0.2,16.6615471,0.01400035
6156e3e5439db9e60d24df29,141,2,2024-02-27T09:30:31.756Z,french_98.wav,0,poule,551,32,4,5,français,f,3,0.25666667,-37.68560636,0.42827786
6156e3e5439db9e60d24df29,142,2,2024-02-27T09:30:31.756Z,french_43.wav,0,poule,344,32,4,5,français,f,0,0.0,-6.86336629,1.4879687
6156e3e5439db9e60d24df29,142,2,2024-02-27T09:30:31.756Z,french_43.wav,0,poule,344,32,4,5,français,f,1,0.1,1.3862511,1.50259819
6156e3e5439db9e60d24df29,142,2,2024-02-27T09:30:31.756Z,french_43.wav,0,poule,344,32,4,5,français,f,2,0.2,-46.66652787,1.37505073
6156e3e5439db9e60d24df29,142,2,2024-02-27T09:30:31.756Z,french_43.wav,0,poule,344,32,4,5,français,f,3,0.25666667,99.62545591,0.7561706
6156e3e5439db9e60d24df29,143,2,2024-02-27T09:30:31.756Z,french_647.wav,0,poule,338,32,4,5,français,f,0,0.0,-41.18361869,1.9224231
6156e3e5439db9e60d24df29,143,2,2024-02-27T09:30:31.756Z,french_647.wav,0,poule,338,32,4,5,français,f,1,0.1,11.48241437,1.96851625
6156e3e5439db9e60d24df29,143,2,2024-02-27T09:30:31.756Z,french_647.wav,0,poule,338,32,4,5,français,f,2,0.2,60.38354651,1.74064919
6156e3e5439db9e60d24df29,143,2,2024-02-27T09:30:31.756Z,french_647.wav,0,poule,338,32,4,5,français,f,3,0.25666667,15.78737628,1.76296374
6156e3e5439db9e60d24df29,144,2,2024-02-27T09:30:31.756Z,french_464.wav,0,poule,270,32,4,5,français,f,0,0.0,-77.91073693,1.45882001
6156e3e5439db9e60d24df29,144,2,2024-02-27T09:30:31.756Z,french_464.wav,0,poule,270,32,4,5,français,f,1,0.1,-4.27403448,1.08668269
6156e3e5439db9e60d24df29,144,2,2024-02-27T09:30:31.756Z,french_464.wav,0,poule,270,32,4,5,français,f,2,0.2,93.79465132,1.80605145
6156e3e5439db9e60d24df29,144,2,2024-02-27T09:30:31.756Z,french_464.wav,0,poule,270,32,4,5,français,f,3,0.25666667,49.64849416,1.6602635
6156e3e5439db9e60d24df29,145,2,2024-02-27T09:30:31.756Z,french_730.wav,0,poule,653,32,4,5,français,f,0,0.0,45.92676741,0.18014666
6156e3e5439db9e60d24df29,145,2,2024-02-27T09:30:31.756Z,french_730.wav,0,poule,653,32,4,5,français,f,1,0.1,-44.36449205,1.39371349
6156e3e5439db9e60d24df29,145,2,2024-02-27T09:30:31.756Z,french_730.wav,0,poule,653,32,4,5,français,f,2,0.2,-0.92451291,1.11032992
6156e3e5439db9e60d24df29,145,2,2024-02-27T09:30:31.756Z,french_730.wav,0,poule,653,32,4,5,français,f,3,0.25666667,30.80646356,1.142585
6156e3e5439db9e60d24df29,146,2,2024-02-27T09:30:31.756Z,french_463.wav,0,poule,367,32,4,5,français,f,0,0.0,-19.30652055,0.66062429
6156e3e5439db9e60d24df29,146,2,2024-02-27T09:30:31.756Z,french_463.wav,0,poule,367,32,4,5,français,f,1,0.1,40.7979064,1.38698103
6156e3e5439db9e60d24df29,146,2,2024-02-27T09:30:31.756Z,french_463.wav,0,poule,367,32,4,5,français,f,2,0.2,73.8964325,0.77621561
6156e3e5439db9e60d24df29,146,2,2024-02-27T09:30:31.756Z,french_463.wav,0,poule,367,32,4,5,français,f,3,0.25666667,-55.7146218,0.65457598
6156e3e5439db9e60d24df29,147,2,2024-02-27T09:30:31.756Z,french_314.wav,0,pull,522,32,4,5,français,f,0,0.0,-41.28420355,0.77087466
6156e3e5439db9e60d24df29,147,2,2024-02-27T09:30:31.756Z,french_314.wav,0,pull,522,32,4,5,français,f,1,0.1,38.91630458,0.23409115
6156e3e5439db9e60d24df29,147,2,2024-02-27T09:30:31.756Z,french_314.wav,0,pull,522,32,4,5,français,f,2,0.2,24.93775916,0.53304912
6156e3e5439db9e60d24df29,147,2,2024-02-27T09:30:31.756Z,french_314.wav,0,pull,522,32,4,5,français,f,3,0.25666667,33.33111791,0.84036245
6156e3e5439db9e60d24df29,148,2,2024-02-27T09:30:31.756Z,french_549.wav,0,poule,484,32,4,5,français,f,0,0.0,40.06296083,1.11554245
6156e3e5439db9e60d24df29,148,2,2024-02-27T09:30:31.756Z,french_549.wav,0,poule,484,32,4,5,français,f,1,0.1,-25.7595798,1.21579497
6156e3e5439db9e60d24df29,148,2,2024-02-27T09:30:31.756Z,french_549.wav,0,poule,484,32,4,5,français,f,2,0.2,45.79306888,1.32867101
6156e3e5439db9e60d24df29,148,2,2024-02-27T09:30:31.756Z,french_549.wav,0,poule,484,32,4,5,français,f,3,0.25666667,27.44668145,0.7142841
6156e3e5439db9e60d24df29,149,2,2024-02-27T09:30:31.756Z,french_740.wav,0,poule,739,32,4,5,français,f,0,0.0,-63.22643447,1.41698272
6156e3e5439db9e60d24df29,149,2,2024-02-27T09:30:31.756Z,french_740.wav,0,poule,739,32,4,5,français,f,1,0.1,-76.79793208,1.15791198
6156e3e5439db9e60d24df29,149,2,2024-02-27T09:30:31.756Z,french_740.wav,0,poule,739,32,4,5,français,f,2,0.2,-90.89358737,1.97460827
6156e3e5439db9e60d24df29,149,2,2024-02-27T09:30:31.756Z,french_740.wav,0,poule,739,32,4,5,français,f,3,0.25666667,-87.57687491,0.61281255
6156e3e5439db9e60d24df29,150,3,2024-02-27T09:30:31.756Z,french_68.wav,0,poule,516,32,4,5,français,f,0,0.0,58.83829029,1.80244508
6156e3e5439db9e60d24df29,150,3,2024-02-27T09:30:31.756Z,french_68.wav,0,poule,516,32,4,5,français,f,1,0.1,77.59339865,1.3442738
6156e3e5439db9e60d24df29,150,3,2024-02-27T09:30:31.756Z,french_68.wav,0,poule,516,32,4,5,français,f,2,0.2,-73.88341881,1.16581557
6156e3e5439db9e60d24df29,150,3,2024-02-27T09:30:31.756Z,french_68.wav,0,poule,516,32,4,5,français,f,3,0.25666667,-24.56901296,0.71132336
6156e3e5439db9e60d24df29,151,3,2024-02-27T09:30:31.756Z,french_251.wav,0,pull,563,32,4,5,français,f,0,0.0,24.13853868,0.84222584
6156e3e5439db9e60d24df29,151,3,2024-02-27T09:30:31.756Z,french_251.wav,0,pull,563,32,4,5,français,f,1,0.1,69.59392202,0.35569373
6156e3e5439db9e60d24df29,151,3,2024-02-27T09:30:31.756Z,french_251.wav,0,pull,563,32,4,5,français,f,2,0.2,5.2598313,1.18426262
6156e3e5439db9e60d24df29,151,3,2024-02-27T09:30:31.756Z,french_251.wav,0,pull,563,32,4,5,français,f,3,0.25666667,49.58604743,1.47594706
6156e3e5439db9e60d24df29,152,3,2024-02-27T09:30:31.756Z,french_732.wav,0,poule,344,32,4,5,français,f,0,0.0,-82.9393053,0.90840431
6156e3e5439db9e60d24df29,152,3,2024-02-27T09:30:31.756Z,french_732.wav,0,poule,344,32,4,5,français,f,1,0.1,-79.22735873,0.47468339
6156e3e5439db9e60d24df29,152,3,2024-02-27T09:30:31.756Z,french_732.wav,0,poule,344,32,4,5,français,f,2,0.2,-67.09796721,1.61768905
6156e3e5439db9e60d24df29,152,3,2024-02-27T09:30:31.756Z,french_732.wav,0,poule,344,32,4,5,français,f,3,0.25666667,35.15971491,1.44596926
6156e3e5439db9e60d24df29,153,3,2024-02-27T09:30:31.756Z,french_196.wav,0,poule,514,32,4,5,français,f,0,0.0,-51.30508497,1.16005851
6156e3e5439db9e60d24df29,153,3,2024-02-27T09:30:31.756Z,french_196.wav,0,poule,514,32,4,5,français,f,1,0.1,89.17651026,0.87725998
6156e3e5439db9e60d24df29,153,3,2024-02-27T09:30:31.756Z,french_196.wav,0,poule,514,32,4,5,français,f,2,0.2,77.92993737,1.23506332
6156e3e5439db9e60d24df29,153,3,2024-02-27T09:30:31.756Z,french_196.wav,0,poule,514,32,4,5,français,f,3,0.25666667,-86.11962375,1.33141167
6156e3e5439db9e60d24df29,154,3,2024-02-27T09:30:31.756Z,french_723.wav,0,poule,555,32,4,5,français,f,0,0.0,-46.61221312,0.88342187
6156e3e5439db9e60d24df29,154,3,2024-02-27T09:30:31.756Z,french_723.wav,0,poule,555,32,4,5,français,f,1,0.1,-11.45492587,0.45371046
6156e3e5439db9e60d24df29,154,3,2024-02-27T09:30:31.756Z,french_723.wav,0,poule,555,32,4,5,français,f,2,0.2,-2.50722763,1.8565603
6156e3e5439db9e60d24df29,154,3,2024-02-27T09:30:31.756Z,french_723.wav,0,poule,555,32,4,5,français,f,3,0.25666667,-31.56133571,0.74236501
6156e3e5439db9e60d24df29,155,3,2024-02-27T09:30:31.756Z,french_502.wav,0,poule,402,32,4,5,français,f,0,0.0,-20.79410197,1.55473715
6156e3e5439db9e60d24df29,155,3,2024-02-27T09:30:31.756Z,french_502.wav,0,poule,402,32,4,5,français,f,1,0.1,-29.31354171,0.75660833
6156e3e5439db9e60d24df29,155,3,2024-02-27T09:30:31.756Z,french_502.wav,0,poule,402,32,4,5,français,f,2,0.2,66.76157716,1.40053341
6156e3e5439db9e60d24df29,155,3,2024-02-27T09:30:31.756Z,french_502.wav,0,poule,402,32,4,5,français,f,3,0.25666667,63.6653431,1.0602207
6156e3e5439db9e60d24df29,156,3,2024-02-27T09:30:31.756Z,french_306.wav,0,pull,417,32,4,5,français,f,0,0.0,22.4772117,0.91979461
6156e3e5439db9e60d24df29,156,3,2024-02-27T09:30:31.756Z,french_306.wav,0,pull,417,32,4,5,français,f,1,0.1,-23.30683659,1.83006101
6156e3e5439db9e60d24df29,156,3,2024-02-27T09:30:31.756Z,french_306.wav,0,pull,417,32,4,5,français,f,2,0.2,-85.44667034,1.25602607
6156e3e5439db9e60d24df29,156,3,2024-02-27T09:30:31.756Z,french_306.wav,0,pull,417,32,4,5,français,f,3,0.25666667,-79.47374411,0.84497865
6156e3e5439db9e60d24df29,157,3,2024-02-27T09:30:31.756Z,french_477.wav,0,poule,429,32,4,5,français,f,0,0.0,-42.83355645,0.5966768
6156e3e5439db9e60d24df29,157,3,2024-02-27T09:30:31.756Z,french_477.wav,0,poule,429,32,4,5,français,f,1,0.1,-62.82113547,0.86071515
6156e3e5439db9e60d24df29,157,3,2024-02-27T09:30:31.756Z,french_477.wav,0,poule,429,32,4,5,français,f,2,0.2,87.24330329,1.68377915
6156e3e5439db9e60d24df29,157,3,2024-02-27T09:30:31.756Z,french_477.wav,0,poule,429,32,4,5,français,f,3,0.25666667,51.53483355,1.05396705
6156e3e5439db9e60d24df29,158,3,2024-02-27T09:30:31.756Z,french_677.wav,0,pull,679,32,4,5,français,f,0,0.0,-14.76179085,0.10277679
6156e3e5439db9e60d24df29,158,3,2024-02-27T09:30:31.756Z,french_677.wav,0,pull,679,32,4,5,français,f,1,0.1,-96.15101895,0.35083798
6156e3e5439db9e60d24df29,158,3,2024-02-27T09:30:31.756Z,french_677.wav,0,pull,679,32,4,5,français,f,2,0.2,48.20621423,0.65953763
6156e3e5439db9e60d24df29,158,3,2024-02-27T09:30:31.756Z,french_677.wav,0,pull,679,32,4,5,français,f,3,0.25666667,23.33985038,0.76581679
6156e3e5439db9e60d24df29,159,3,2024-02-27T09:30:31.756Z,french_860.wav,0,poule,606,32,4,5,français,f,0,0.0,33.37389434,1.87718004
6156e3e5439db9e60d24df29,159,3,2024-02-27T09:30:31.756Z,french_860.wav,0,poule,606,32,4,5,français,f,1,0.1,66.22312498,1.50950791
6156e3e5439db9e60d24df29,159,3,2024-02-27T09:30:31.756Z,french_860.wav,0,poule,606,32,4,5,français,f,2,0.2,-4.57961146,0.09437067
6156e3e5439db9e60d24df29,159,3,2024-02-27T09:30:31.756Z,french_860.wav,0,poule,606,32,4,5,français,f,3,0.25666667,50.69207221,1.19183747
6156e3e5439db9e60d24df29,160,3,2024-02-27T09:30:31.756Z,french_295.wav,0,poule,551,32,4,5,français,f,0,0.0,98.71232228,1.58912918
6156e3e5439db9e60d24df29,160,3,2024-02-27T09:30:31.756Z,french_295.wav,0,poule,551,32,4,5,français,f,1,0.1,19.8777742,0.8460381
6156e3e5439db9e60d24df29,160,3,2024-02-27T09:30:31.756Z,french_295.wav,0,poule,551,32,4,5,français,f,2,0.2,2.02188034,1.72839065
6156e3e5439db9e60d24df29,160,3,2024-02-27T09:30:31.756Z,french_295.wav,0,poule,551,32,4,5,français,f,3,0.25666667,-4.73018768,1.75057888
6156e3e5439db9e60d24df29,161,3,2024-02-27T09:30:31.756Z,french_373.wav,0,poule,553,32,4,5,français,f,0,0.0,27.88559689,1.35161412
6156e3e5439db9e60d24df29,161,3,2024-02-27T09:30:31.756Z,french_373.wav,0,poule,553,32,4,5,français,f,1,0.1,61.41244142,1.00997609
6156e3e5439db9e60d24df29,161,3,2024-02-27T09:30:31.756Z,french_373.wav,0,poule,553,32,4,5,français,f,2,0.2,37.97273047,1.87297461
6156e3e5439db9e60d24df29,161,3,2024-02-27T09:30:31.756Z,french_373.wav,0,poule,553,32,4,5,français,f,3,0.25666667,-82.72738113,0.97441242
6156e3e5439db9e60d24df29,162,3,2024-02-27T09:30:31.756Z,french_207.wav,0,poule,611,32,4,5,français,f,0,0.0,15.24625839,0.95120839
6156e3e5439db9e60d24df29,162,3,2024-02-27T09:30:31.756Z,french_207.wav,0,poule,611,32,4,5,français,f,1,0.1,68.60229744,1.50295804
6156e3e5439db9e60d24df29,162,3,2024-02-27T09:30:31.756Z,french_207.wav,0,poule,611,32,4,5,français,f,2,0.2,51.04898438,0.44335537
6156e3e5439db9e60d24df29,162,3,2024-02-27T09:30:31.756Z,french_207.wav,0,poule,611,32,4,5,français,f,3,0.25666667,8.99799409,1.65047569
6156e3e5439db9e60d24df29,163,3,2024-02-27T09:30:31.756Z,french_389.wav,0,pull,785,32,4,5,français,f,0,0.0,69.62296415,1.67675408
6156e3e5439db9e60d24df29,163,3,2024-02-27T09:30:31.756Z,french_389.wav,0,pull,785,32,4,5,français,f,1,0.1,-41.49433877,1.60540147
6156e3e5439db9e60d24df29,163,3,2024-02-27T09:30:31.756Z,french_389.wav,0,pull,785,32,4,5,français,f,2,0.2,-65.025051,0.45817867
6156e3e5439db9e60d24df29,163,3,2024-02-27T09:30:31.756Z,french_389.wav,0,pull,785,32,4,5,français,f,3,0.25666667,10.9117334,1.10562968
6156e3e5439db9e60d24df29,164,3,2024-02-27T09:30:31.756Z,french_742.wav,0,poule,435,32,4,5,français,f,0,0.0,70.50155873,0.93659897
6156e3e5439db9e60d24df29,164,3,2024-02-27T09:30:31.756Z,french_742.wav,0,poule,435,32,4,5,français,f,1,0.1,-40.99625843,1.14125333
6156e3e5439db9e60d24df29,164,3,2024-02-27T09:30:31.756Z,french_742.wav,0,poule,435,32,4,5,français,f,2,0.2,6.68379951,1.25957194
6156e3e5439db9e60d24df29,164,3,2024-02-27T09:30:31.756Z,french_742.wav,0,poule,435,32,4,5,français,f,3,0.25666667,-76.31698705,0.86761951
6156e3e5439db9e60d24df29,165,3,2024-02-27T09:30:31.756Z,french_808.wav,0,pull,558,32,4,5,français,f,0,0.0,-62.09526538,1.28254738
6156e3e5439db9e60d24df29,165,3,2024-02-27T09:30:31.756Z,french_808.wav,0,pull,558,32,4,5,français,f,1,0.1,21.23234707,0.50843795
6156e3e5439db9e60d24df29,165,3,2024-02-27T09:30:31.756Z,french_808.wav,0,pull,558,32,4,5,français,f,2,0.2,-93.15759374,0.88416038
6156e3e5439db9e60d24df29,165,3,2024-02-27T09:30:31.756Z,french_808.wav,0,pull,558,32,4,5,français,f,3,0.25666667,-35.4638748,1.60061847
6156e3e5439db9e60d24df29,166,3,2024-02-27T09:30:31.756Z,french_305.wav,0,poule,636,32,4,5,français,f,0,0.0,-54.69953739,0.89911595
6156e3e5439db9e60d24df29,166,3,2024-02-27T09:30:31.756Z,french_305.wav,0,poule,636,32,4,5,français,f,1,0.1,-55.57420142,0.95414013
6156e3e5439db9e60d24df29,166,3,2024-02-27T09:30:31.756Z,french_305.wav,0,poule,636,32,4,5,français,f,2,0.2,69.52625069,1.47998422
6156e3e5439db9e60d24df29,166,3,2024-02-27T09:30:31.756Z,french_305.wav,0,poule,636,32,4,5,français,f,3,0.25666667,-71.2713804,1.78847242
6156e3e5439db9e60d24df29,167,3,2024-02-27T09:30:31.756Z,french_870.wav,0,pull,1724,32,4,5,français,f,0,0.0,93.84124937,1.21813626
6156e3e5439db9e60d24df29,167,3,2024-02-27T09:30:31.756Z,french_870.wav,0,pull,1724,32,4,5,français,f,1,0.1,28.95893835,0.388995
6156e3e5439db9e60d24df29,167,3,2024-02-27T09:30:31.756Z,french_870.wav,0,pull,1724,32,4,5,français,f,2,0.2,47.67512023,1.25544279
6156e3e5439db9e60d24df29,167,3,2024-02-27T09:30:31.756Z,french_870.wav,0,pull,1724,32,4,5,français,f,3,0.25666667,-4.48390189,0.09184868
6156e3e5439db9e60d24df29,168,3,2024-02-27T09:30:31.756Z,french_809.wav,0,pull,847,32,4,5,français,f,0,0.0,-35.34138518,0.91250327
6156e3e5439db9e60d24df29,168,3,2024-02-27T09:30:31.756Z,french_809.wav,0,pull,847,32,4,5,français,f,1,0.1,-27.53268432,1.55486221
6156e3e5439db9e60d24df29,168,3,2024-02-27T09:30:31.756Z,french_809.wav,0,pull,847,32,4,5,français,f,2,0.2,-4.59062168,0.05513513
6156e3e5439db9e60d24df29,168,3,2024-02-27T09:30:31.756Z,french_809.wav,0,pull,847,32,4,5,français,f,3,0.25666667,54.17413939,0.74937359
6156e3e5439db9e60d24df29,169,3,2024-02-27T09:30:31.756Z,french_49.wav,0,poule,408,32,4,5,français,f,0,0.0,-34.40531311,0.38592943
6156e3e5439db9e60d24df29,169,3,2024-02-27T09:30:31.756Z,french_49.wav,0,poule,408,32,4,5,français,f,1,0.1,-47.89713654,0.82636765
6156e3e5439db9e60d24df29,169,3,2024-02-27T09:30:31.756Z,french_49.wav,0,poule,408,32,4,5,français,f,2,0.2,1.74747298,1.60738751
6156e3e5439db9e60d24df29,169,3,2024-02-27T09:30:31.756Z,french_49.wav,0,poule,408,32,4,5,français,f,3,0.25666667,24.1153847,0.61367061
6156e3e5439db9e60d24df29,170,3,2024-02-27T09:30:31.756Z,french_980.wav,0,pull,1428,32,4,5,français,f,0,0.0,-38.7537279,0.7061587
6156e3e5439db9e60d24df29,170,3,2024-02-27T09:30:31.756Z,french_980.wav,0,pull,1428,32,4,5,français,f,1,0.1,12.31277697,1.27161124
6156e3e5439db9e60d24df29,170,3,2024-02-27T09:30:31.756Z,french_980.wav,0,pull,1428,32,4,5,français,f,2,0.2,6.50697833,0.8921187
6156e3e5439db9e60d24df29,170,3,2024-02-27T09:30:31.756Z,french_980.wav,0,pull,1428,32,4,5,français,f,3,0.25666667,-34.92912415,1.97802528
6156e3e5439db9e60d24df29,171,3,2024-02-27T09:30:31.756Z,french_257.wav,0,pull,1527,32,4,5,français,f,0,0.0,1.27289853,1.18383926
6156e3e5439db9e60d24df29,171,3,2024-02-27T09:30:31.756Z,french_257.wav,0,pull,1527,32,4,5,français,f,1,0.1,62.04423448,0.46495515
6156e3e5439db9e60d24df29,171,3,2024-02-27T09:30:31.756Z,french_257.wav,0,pull,1527,32,4,5,français,f,2,0.2,19.88889926,0.91766752
6156e3e5439db9e60d24df29,171,3,2024-02-27T09:30:31.756Z,french_257.wav,0,pull,1527,32,4,5,français,f,3,0.25666667,-46.96649461,1.75135473
6156e3e5439db9e60d24df29,172,3,2024-02-27T09:30:31.756Z,french_852.wav,0,pull,1141,32,4,5,français,f,0,0.0,-21.25647341,1.59129412
6156e3e5439db9e60d24df29,172,3,2024-02-27T09:30:31.756Z,french_852.wav,0,pull,1141,32,4,5,français,f,1,0.1,44.09899268,0.90931534
6156e3e5439db9e60d24df29,172,3,2024-02-27T09:30:31.756Z,french_852.wav,0,pull,1141,32,4,5,français,f,2,0.2,-20.54343266,0.17046498
6156e3e5439db9e60d24df29,172,3,2024-02-27T09:30:31.756Z,french_852.wav,0,pull,1141,32,4,5,français,f,3,0.25666667,-73.6389021,0.95788578
6156e3e5439db9e60d24df29,173,3,2024-02-27T09:30:31.756Z,french_997.wav,0,pull,450,32,4,5,français,f,0,0.0,70.02211451,0.23520638
6156e3e5439db9e60d24df29,173,3,2024-02-27T09:30:31.756Z,french_997.wav,0,pull,450,32,4,5,français,f,1,0.1,69.24362731,0.40856699
6156e3e5439db9e60d24df29,173,3,2024-02-27T09:30:31.756Z,french_997.wav,0,pull,450,32,4,5,français,f,2,0.2,73.007848,1.59962624
6156e3e5439db9e60d24df29,173,3,2024-02-27T09:30:31.756Z,french_997.wav,0,pull,450,32,4,5,français,f,3,0.25666667,83.15376715,0.8906701
6156e3e5439db9e60d24df29,174,3,2024-02-27T09:30:31.756Z,french_925.wav,0,poule,762,32,4,5,français,f,0,0.0,-30.51780923,1.09841649
6156e3e5439db9e60d24df29,174,3,2024-02-27T09:30:31.756Z,french_925.wav,0,poule,762,32,4,5,français,f,1,0.1,35.11933452,0.05099013
6156e3e5439db9e60d24df29,174,3,2024-02-27T09:30:31.756Z,french_925.wav,0,poule,762,32,4,5,français,f,2,0.2,-97.7648117,1.83429048
6156e3e5439db9e60d24df29,174,3,2024-02-27T09:30:31.756Z,french_925.wav,0,poule,762,32,4,5,français,f,3,0.25666667,-62.39495561,1.66107303
6156e3e5439db9e60d24df29,175,3,2024-02-27T09:30:31.756Z,french_869.wav,0,poule,786,32,4,5,français,f,0,0.0,-95.34423084,1.39498671
6156e3e5439db9e60d24df29,175,3,2024-02-27T09:30:31.756Z,french_869.wav,0,poule,786,32,4,5,français,f,1,0.1,11.03315758,1.3153684
6156e3e5439db9e60d24df29,175,3,2024-02-27T09:30:31.756Z,french_869.wav,0,poule,786,32,4,5,français,f,2,0.2,2.57990287,1.42717997
6156e3e5439db9e60d24df29,175,3,2024-02-27T09:30:31.756Z,french_869.wav,0,poule,786,32,4,5,français,f,3,0.25666667,46.09103516,1.20642508
6156e3e5439db9e60d24df29,176,3,2024-02-27T09:30:31.756Z,french_641.wav,0,poule,2868,32,4,5,français,f,0,0.0,-92.89939655,0.72916007
6156e3e5439db9e60d24df29,176,3,2024-02-27T09:30:31.756Z,french_641.wav,0,poule,2868,32,4,5,français,f,1,0.1,80.14352585,1.01323436
6156e3e5439db9e60d24df29,176,3,2024-02-27T09:30:31.756Z,french_641.wav,0,poule,2868,32,4,5,français,f,2,0.2,74.03041043,0.998205
6156e3e5439db9e60d24df29,176,3,2024-02-27T09:30:31.756Z,french_641.wav,0,poule,2868,32,4,5,français,f,3,0.25666667,18.97683281,0.30086371
6156e3e5439db9e60d24df29,177,3,2024-02-27T09:30:31.756Z,french_400.wav,0,pull,754,32,4,5,français,f,0,0.0,-93.78872851,1.79390568
6156e3e5439db9e60d24df29,177,3,2024-02-27T09:30:31.756Z,french_400.wav,0,pull,754,32,4,5,français,f,1,0.1,52.09991665,0.45516445
6156e3e5439db9e60d24df29,177,3,2024-02-27T09:30:31.756Z,french_400.wav,0,pull,754,32,4,5,français,f,2,0.2,99.5217597,0.71943881
6156e3e5439db9e60d24df29,177,3,2024-02-27T09:30:31.756Z,french_400.wav,0,pull,754,32,4,5,français,f,3,0.25666667,34.2913143,0.66600511
6156e3e5439db9e60d24df29,178,3,2024-02-27T09:30:31.756Z,french_514.wav,0,pull,690,32,4,5,français,f,0,0.0,-99.76210077,0.60226465
6156e3e5439db9e60d24df29,178,3,2024-02-27T09:30:31.756Z,french_514.wav,0,pull,690,32,4,5,français,f,1,0.1,-57.79872095,0.08785461
6156e3e5439db9e60d24df29,178,3,2024-02-27T09:30:31.756Z,french_514.wav,0,pull,690,32,4,5,français,f,2,0.2,-51.12304885,1.82353854
6156e3e5439db9e60d24df29,178,3,2024-02-27T09:30:31.756Z,french_514.wav,0,pull,690,32,4,5,français,f,3,0.25666667,51.53874679,1.77009288
6156e3e5439db9e60d24df29,179,3,2024-02-27T09:30:31.756Z,french_788.wav,0,pull,898,32,4,5,français,f,0,0.0,-49.59093674,1.03975343
6156e3e5439db9e60d24df29,179,3,2024-02-27T09:30:31.756Z,french_788.wav,0,pull,898,32,4,5,français,f,1,0.1,-37.12859592,0.12530513
6156e3e5439db9e60d24df29,179,3,2024-02-27T09:30:31.756Z,french_788.wav,0,pull,898,32,4,5,français,f,2,0.2,78.06548219,0.40268526
6156e3e5439db9e60d24df29,179,3,2024-02-27T09:30:31.756Z,french_788.wav,0,pull,898,32,4,5,français,f,3,0.25666667,52.38730842,1.72021211
6156e3e5439db9e60d24df29,180,3,2024-02-27T09:30:31.756Z,french_346.wav,0,pull,773,32,4,5,français,f,0,0.0,-9.57888942,1.97053356
6156e3e5439db9e60d24df29,180,3,2024-02-27T09:30:31.756Z,french_346.wav,0,pull,773,32,4,5,français,f,1,0.1,44.75165277,0.16189102
6156e3e5439db9e60d24df29,180,3,2024-02-27T09:30:31.756Z,french_346.wav,0,pull,773,32,4,5,français,f,2,0.2,-77.92949754,0.34896721
6156e3e5439db9e60d24df29,180,3,2024-02-27T09:30:31.756Z,french_346.wav,0,pull,773,32,4,5,français,f,3,0.25666667,-10.35911767,1.54776001
6156e3e5439db9e60d24df29,181,3,2024-02-27T09:30:31.756Z,french_488.wav,0,pull,4480,32,4,5,français,f,0,0.0,83.09023231,0.61404301
6156e3e5439db9e60d24df29,181,3,2024-02-27T09:30:31.756Z,french_488.wav,0,pull,4480,32,4,5,français,f,1,0.1,31.08155804,1.79467821
6156e3e5439db9e60d24df29,181,3,2024-02-27T09:30:31.756Z,french_488.wav,0,pull,4480,32,4,5,français,f,2,0.2,23.00603586,0.24163263
6156e3e5439db9e60d24df29,181,3,2024-02-27T09:30:31.756Z,french_488.wav,0,pull,4480,32,4,5,français,f,3,0.25666667,-14.42068905,1.80620701
6156e3e5439db9e60d24df29,182,3,2024-02-27T09:30:31.756Z,french_321.wav,0,poule,433,32,4,5,français,f,0,0.0,-11.01764706,1.39443046
6156e3e5439db9e60d24df29,182,3,2024-02-27T09:30:31.756Z,french_321.wav,0,poule,433,32,4,5,français,f,1,0.1,9.90480799,1.51913173
6156e3e5439db9e60d24df29,182,3,2024-02-27T09:30:31.756Z,french_321.wav,0,poule,433,32,4,5,français,f,2,0.2,44.10153768,0.74961169
6156e3e5439db9e60d24df29,182,3,2024-02-27T09:30:31.756Z,french_321.wav,0,poule,433,32,4,5,français,f,3,0.25666667,10.91862898,1.74221707
6156e3e5439db9e60d24df29,183,3,2024-02-27T09:30:31.756Z,french_105.wav,0,poule,229,32,4,5,français,f,0,0.0,-23.09315354,0.81757602
6156e3e5439db9e60d24df29,183,3,2024-02-27T09:30:31.756Z,french_105.wav,0,poule,229,32,4,5,français,f,1,0.1,-46.9361669,0.98193048
6156e3e5439db9e60d24df29,183,3,2024-02-27T09:30:31.756Z,french_105.wav,0,poule,229,32,4,5,français,f,2,0.2,-8.58781729,1.53786831
6156e3e5439db9e60d24df29,183,3,2024-02-27T09:30:31.756Z,french_105.wav,0,poule,229,32,4,5,français,f,3,0.25666667,56.68271074,0.84600103
6156e3e5439db9e60d24df29,184,3,2024-02-27T09:30:31.756Z,french_119.wav,0,poule,156,32,4,5,français,f,0,0.0,9.8100641,0.76259974
6156e3e5439db9e60d24df29,184,3,2024-02-27T09:30:31.756Z,french_119.wav,0,poule,156,32,4,5,français,f,1,0.1,19.57169954,1.49190063
6156e3e5439db9e60d24df29,184,3,2024-02-27T09:30:31.756Z,french_119.wav,0,poule,156,32,4,5,français,f,2,0.2,-1.41265712,0.43709034
6156e3e5439db9e60d24df29,184,3,2024-02-27T09:30:31.756Z,french_119.wav,0,poule,156,32,4,5,français,f,3,0.25666667,-78.33165967,1.93463996
6156e3e5439db9e60d24df29,185,3,2024-02-27T09:30:31.756Z,french_626.wav,0,pull,598,32,4,5,français,f,0,0.0,-93.35692854,1.28523942
6156e3e5439db9e60d24df29,185,3,2024-02-27T09:30:31.756Z,french_626.wav,0,pull,598,32,4,5,français,f,1,0.1,98.43225428,0.26610399
6156e3e5439db9e60d24df29,185,3,2024-02-27T09:30:31.756Z,french_626.wav,0,pull,598,32,4,5,français,f,2,0.2,-65.0946996,0.08304138
6156e3e5439db9e60d24df29,185,3,2024-02-27T09:30:31.756Z,french_626.wav,0,pull,598,32,4,5,français,f,3,0.25666667,62.51553639,1.47830697
6156e3e5439db9e60d24df29,186,3,2024-02-27T09:30:31.756Z,french_551.wav,0,pull,277,32,4,5,français,f,0,0.0,-87.08357851,1.2328931
6156e3e5439db9e60d24df29,186,3,2024-02-27T09:30:31.756Z,french_551.wav,0,pull,277,32,4,5,français,f,1,0.1,71.56090061,1.28136219
6156e3e5439db9e60d24df29,186,3,2024-02-27T09:30:31.756Z,french_551.wav,0,pull,277,32,4,5,français,f,2,0.2,-46.55712742,0.3781059
6156e3e5439db9e60d24df29,186,3,2024-02-27T09:30:31.756Z,french_551.wav,0,pull,277,32,4,5,français,f,3,0.25666667,-57.93002391,1.42095582
6156e3e5439db9e60d24df29,187,3,2024-02-27T09:30:31.756Z,french_838.wav,0,poule,404,32,4,5,français,f,0,0.0,-11.78713781,0.60255839
6156e3e5439db9e60d24df29,187,3,2024-02-27T09:30:31.756Z,french_838.wav,0,poule,404,32,4,5,français,f,1,0.1,70.11555366,0.34480099
6156e3e5439db9e60d24df29,187,3,2024-02-27T09:30:31.756Z,french_838.wav,0,poule,404,32,4,5,français,f,2,0.2,60.74924786,1.0262929
6156e3e5439db9e60d24df29,187,3,2024-02-27T09:30:31.756Z,french_838.wav,0,poule,404,32,4,5,français,f,3,0.25666667,37.89669618,0.88829748
6156e3e5439db9e60d24df29,188,3,2024-02-27T09:30:31.756Z,french_133.wav,0,poule,429,32,4,5,français,f,0,0.0,-94.78194954,1.29113753
6156e3e5439db9e60d24df29,188,3,2024-02-27T09:30:31.756Z,french_133.wav,0,poule,429,32,4,5,français,f,1,0.1,8.44061072,0.84384968
6156e3e5439db9e60d24df29,188,3,2024-02-27T09:30:31.756Z,french_133.wav,0,poule,429,32,4,5,français,f,2,0.2,55.81768563,1.85990436
6156e3e5439db9e60d24df29,188,3,2024-02-27T09:30:31.756Z,french_133.wav,0,poule,429,32,4,5,français,f,3,0.25666667,73.94294787,1.64621091
6156e3e5439db9e60d24df29,189,3,2024-02-27T09:30:31.756Z,french_237.wav,0,pull,777,32,4,5,français,f,0,0.0,-1.09426196,0.40664609
6156e3e5439db9e60d24df29,189,3,2024-02-27T09:30:31.756Z,french_237.wav,0,pull,777,32,4,5,français,f,1,0.1,-48.49856075,0.23529618
6156e3e5439db9e60d24df29,189,3,2024-02-27T09:30:31.756Z,french_237.wav,0,pull,777,32,4,5,français,f,2,0.2,36.42993093,0.05363011
6156e3e5439db9e60d24df29,189,3,2024-02-27T09:30:31.756Z,french_237.wav,0,pull,777,32,4,5,français,f,3,0.25666667,-47.65767162,1.34950367
6156e3e5439db9e60d24df29,190,3,2024-02-27T09:30:31.756Z,french_689.wav,0,pull,2468,32,4,5,français,f,0,0.0,-76.83712438,1.91162084
6156e3e5439db9e60d24df29,190,3,2024-02-27T09:30:31.756Z,french_689.wav,0,pull,2468,32,4,5,français,f,1,0.1,64.54047654,0.68488006
