subj,trial,block,date,stim,stim_order,response,rt,age,english,french,language,sex,param_index,segment,pitch,stretch
5ec454e23d68ea32ee554d12,0,0,2024-02-24T09:21:46.494Z,french_522.wav,0,poule,2120,38,4,5,Français,f,0,0.0,-33.95775035,0.92167055
5ec454e23d68ea32ee554d12,0,0,2024-02-24T09:21:46.494Z,french_522.wav,0,poule,2120,38,4,5,Français,f,1,0.1,-8.89346692,1.03421615
5ec454e23d68ea32ee554d12,0,0,2024-02-24T09:21:46.494Z,french_522.wav,0,poule,2120,38,4,5,Français,f,2,0.2,-13.71087049,0.39118917
5ec454e23d68ea32ee554d12,0,0,2024-02-24T09:21:46.494Z,french_522.wav,0,poule,2120,38,4,5,Français,f,3,0.25666667,29.03245504,1.12010972
5ec454e23d68ea32ee554d12,1,0,2024-02-24T09:21:46.494Z,french_587.wav,0,poule,551,38,4,5,Français,f,0,0.0,-75.34784911,1.71069253
5ec454e23d68ea32ee554d12,1,0,2024-02-24T09:21:46.494Z,french_587.wav,0,poule,551,38,4,5,Français,f,1,0.1,20.53880501,1.37718063
5ec454e23d68ea32ee554d12,1,0,2024-02-24T09:21:46.494Z,french_587.wav,0,poule,551,38,4,5,Français,f,2,0.2,-66.82934855,1.47865121
5ec454e23d68ea32ee554d12,1,0,2024-02-24T09:21:46.494Z,french_587.wav,0,poule,551,38,4,5,Français,f,3,0.25666667,0.42354047,1.29460257
5ec454e23d68ea32ee554d12,2,0,2024-02-24T09:21:46.494Z,french_570.wav,0,poule,307,38,4,5,Français,f,0,0.0,-73.07970403,1.97071113
5ec454e23d68ea32ee554d12,2,0,2024-02-24T09:21:46.494Z,french_570.wav,0,poule,307,38,4,5,Français,f,1,0.1,-29.06072458,1.64236312
5ec454e23d68ea32ee554d12,2,0,2024-02-24T09:21:46.494Z,french_570.wav,0,poule,307,38,4,5,Français,f,2,0.2,-25.44054287,0.27343611
5ec454e23d68ea32ee554d12,2,0,2024-02-24T09:21:46.494Z,french_570.wav,0,poule,307,38,4,5,Français,f,3,0.25666667,96.93308839,1.31029171
5ec454e23d68ea32ee554d12,3,0,2024-02-24T09:21:46.494Z,french_693.wav,0,pull,5010,38,4,5,Français,f,0,0.0,-47.08934597,0.01342517
5ec454e23d68ea32ee554d12,3,0,2024-02-24T09:21:46.494Z,french_693.wav,0,pull,5010,38,4,5,Français,f,1,0.1,72.6108529,0.89682207
5ec454e23d68ea32ee554d12,3,0,2024-02-24T09:21:46.494Z,french_693.wav,0,pull,5010,38,4,5,Français,f,2,0.2,-29.7137536,1.48476447
5ec454e23d68ea32ee554d12,3,0,2024-02-24T09:21:46.494Z,french_693.wav,0,pull,5010,38,4,5,Français,f,3,0.25666667,50.01737174,0.05087926
5ec454e23d68ea32ee554d12,4,0,2024-02-24T09:21:46.494Z,french_57.wav,0,poule,1034,38,4,5,Français,f,0,0.0,5.04798132,0.30893924
5ec454e23d68ea32ee554d12,4,0,2024-02-24T09:21:46.494Z,french_57.wav,0,poule,1034,38,4,5,Français,f,1,0.1,34.86476391,1.37192861
5ec454e23d68ea32ee554d12,4,0,2024-02-24T09:21:46.494Z,french_57.wav,0,poule,1034,38,4,5,Français,f,2,0.2,8.76450083,1.2366194
5ec454e23d68ea32ee554d12,4,0,2024-02-24T09:21:46.494Z,french_57.wav,0,poule,1034,38,4,5,Français,f,3,0.25666667,-66.01533982,1.17459784
5ec454e23d68ea32ee554d12,5,0,2024-02-24T09:21:46.494Z,french_940.wav,0,poule,261,38,4,5,Français,f,0,0.0,60.64207397,1.38818271
5ec454e23d68ea32ee554d12,5,0,2024-02-24T09:21:46.494Z,french_940.wav,0,poule,261,38,4,5,Français,f,1,0.1,-16.07257124,1.64047706
5ec454e23d68ea32ee554d12,5,0,2024-02-24T09:21:46.494Z,french_940.wav,0,poule,261,38,4,5,Français,f,2,0.2,-38.93693506,1.31963125
5ec454e23d68ea32ee554d12,5,0,2024-02-24T09:21:46.494Z,french_940.wav,0,poule,261,38,4,5,Français,f,3,0.25666667,-22.19838027,1.73227719
5ec454e23d68ea32ee554d12,6,0,2024-02-24T09:21:46.494Z,french_993.wav,0,poule,557,38,4,5,Français,f,0,0.0,3.12847982,1.75015027
5ec454e23d68ea32ee554d12,6,0,2024-02-24T09:21:46.494Z,french_993.wav,0,poule,557,38,4,5,Français,f,1,0.1,-78.95304083,0.83743251
5ec454e23d68ea32ee554d12,6,0,2024-02-24T09:21:46.494Z,french_993.wav,0,poule,557,38,4,5,Français,f,2,0.2,-13.84245357,0.53594991
5ec454e23d68ea32ee554d12,6,0,2024-02-24T09:21:46.494Z,french_993.wav,0,poule,557,38,4,5,Français,f,3,0.25666667,66.66979397,1.46895698
5ec454e23d68ea32ee554d12,7,0,2024-02-24T09:21:46.494Z,french_39.wav,0,poule,807,38,4,5,Français,f,0,0.0,-37.58690814,0.69509593
5ec454e23d68ea32ee554d12,7,0,2024-02-24T09:21:46.494Z,french_39.wav,0,poule,807,38,4,5,Français,f,1,0.1,64.36969435,0.9899387
5ec454e23d68ea32ee554d12,7,0,2024-02-24T09:21:46.494Z,french_39.wav,0,poule,807,38,4,5,Français,f,2,0.2,-16.17747505,1.54991446
5ec454e23d68ea32ee554d12,7,0,2024-02-24T09:21:46.494Z,french_39.wav,0,poule,807,38,4,5,Français,f,3,0.25666667,-31.52468705,1.42558302
5ec454e23d68ea32ee554d12,8,0,2024-02-24T09:21:46.494Z,french_978.wav,0,poule,1702,38,4,5,Français,f,0,0.0,-36.32035497,0.76958877
5ec454e23d68ea32ee554d12,8,0,2024-02-24T09:21:46.494Z,french_978.wav,0,poule,1702,38,4,5,Français,f,1,0.1,-92.00024605,0.1229223
5ec454e23d68ea32ee554d12,8,0,2024-02-24T09:21:46.494Z,french_978.wav,0,poule,1702,38,4,5,Français,f,2,0.2,-85.64640387,1.83920091
5ec454e23d68ea32ee554d12,8,0,2024-02-24T09:21:46.494Z,french_978.wav,0,poule,1702,38,4,5,Français,f,3,0.25666667,30.4024855,1.45747353
5ec454e23d68ea32ee554d12,9,0,2024-02-24T09:21:46.494Z,french_823.wav,0,poule,666,38,4,5,Français,f,0,0.0,-89.53533563,0.87621895
5ec454e23d68ea32ee554d12,9,0,2024-02-24T09:21:46.494Z,french_823.wav,0,poule,666,38,4,5,Français,f,1,0.1,14.01752274,0.92757563
5ec454e23d68ea32ee554d12,9,0,2024-02-24T09:21:46.494Z,french_823.wav,0,poule,666,38,4,5,Français,f,2,0.2,33.24657022,1.30685671
5ec454e23d68ea32ee554d12,9,0,2024-02-24T09:21:46.494Z,french_823.wav,0,poule,666,38,4,5,Français,f,3,0.25666667,-78.84260648,1.33840969
5ec454e23d68ea32ee554d12,10,0,2024-02-24T09:21:46.494Z,french_31.wav,0,poule,319,38,4,5,Français,f,0,0.0,-16.52506352,1.57904125
5ec454e23d68ea32ee554d12,10,0,2024-02-24T09:21:46.494Z,french_31.wav,0,poule,319,38,4,5,Français,f,1,0.1,-80.19736258,0.88688051
5ec454e23d68ea32ee554d12,10,0,2024-02-24T09:21:46.494Z,french_31.wav,0,poule,319,38,4,5,Français,f,2,0.2,-47.04996605,0.44579633
5ec454e23d68ea32ee554d12,10,0,2024-02-24T09:21:46.494Z,french_31.wav,0,poule,319,38,4,5,Français,f,3,0.25666667,35.27279848,1.71139476
5ec454e23d68ea32ee554d12,11,0,2024-02-24T09:21:46.494Z,french_513.wav,0,poule,789,38,4,5,Français,f,0,0.0,84.63539274,1.68726635
5ec454e23d68ea32ee554d12,11,0,2024-02-24T09:21:46.494Z,french_513.wav,0,poule,789,38,4,5,Français,f,1,0.1,36.6114333,0.88690679
5ec454e23d68ea32ee554d12,11,0,2024-02-24T09:21:46.494Z,french_513.wav,0,poule,789,38,4,5,Français,f,2,0.2,14.49628471,0.37350839
5ec454e23d68ea32ee554d12,11,0,2024-02-24T09:21:46.494Z,french_513.wav,0,poule,789,38,4,5,Français,f,3,0.25666667,-17.17346171,1.74122924
5ec454e23d68ea32ee554d12,12,0,2024-02-24T09:21:46.494Z,french_222.wav,0,pull,1032,38,4,5,Français,f,0,0.0,-98.35523197,0.13834953
5ec454e23d68ea32ee554d12,12,0,2024-02-24T09:21:46.494Z,french_222.wav,0,pull,1032,38,4,5,Français,f,1,0.1,61.03285987,0.55930016
5ec454e23d68ea32ee554d12,12,0,2024-02-24T09:21:46.494Z,french_222.wav,0,pull,1032,38,4,5,Français,f,2,0.2,-86.01422932,0.40370114
5ec454e23d68ea32ee554d12,12,0,2024-02-24T09:21:46.494Z,french_222.wav,0,pull,1032,38,4,5,Français,f,3,0.25666667,61.26386047,0.21495758
5ec454e23d68ea32ee554d12,13,0,2024-02-24T09:21:46.494Z,french_98.wav,0,poule,798,38,4,5,Français,f,0,0.0,-5.34356544,0.47275823
5ec454e23d68ea32ee554d12,13,0,2024-02-24T09:21:46.494Z,french_98.wav,0,poule,798,38,4,5,Français,f,1,0.1,-51.77157259,0.98771666
5ec454e23d68ea32ee554d12,13,0,2024-02-24T09:21:46.494Z,french_98.wav,0,poule,798,38,4,5,Français,f,2,0.2,16.6615471,0.01400035
5ec454e23d68ea32ee554d12,13,0,2024-02-24T09:21:46.494Z,french_98.wav,0,poule,798,38,4,5,Français,f,3,0.25666667,-37.68560636,0.42827786
5ec454e23d68ea32ee554d12,14,0,2024-02-24T09:21:46.494Z,french_800.wav,0,poule,502,38,4,5,Français,f,0,0.0,43.61588251,1.33995655
5ec454e23d68ea32ee554d12,14,0,2024-02-24T09:21:46.494Z,french_800.wav,0,poule,502,38,4,5,Français,f,1,0.1,-17.8471941,0.26774995
5ec454e23d68ea32ee554d12,14,0,2024-02-24T09:21:46.494Z,french_800.wav,0,poule,502,38,4,5,Français,f,2,0.2,-10.2363333,0.87274599
5ec454e23d68ea32ee554d12,14,0,2024-02-24T09:21:46.494Z,french_800.wav,0,poule,502,38,4,5,Français,f,3,0.25666667,-85.1878963,0.37568781
5ec454e23d68ea32ee554d12,15,0,2024-02-24T09:21:46.494Z,french_237.wav,0,pull,940,38,4,5,Français,f,0,0.0,-1.09426196,0.40664609
5ec454e23d68ea32ee554d12,15,0,2024-02-24T09:21:46.494Z,french_237.wav,0,pull,940,38,4,5,Français,f,1,0.1,-48.49856075,0.23529618
5ec454e23d68ea32ee554d12,15,0,2024-02-24T09:21:46.494Z,french_237.wav,0,pull,940,38,4,5,Français,f,2,0.2,36.42993093,0.05363011
5ec454e23d68ea32ee554d12,15,0,2024-02-24T09:21:46.494Z,french_237.wav,0,pull,940,38,4,5,Français,f,3,0.25666667,-47.65767162,1.34950367
5ec454e23d68ea32ee554d12,16,0,2024-02-24T09:21:46.494Z,french_667.wav,0,poule,862,38,4,5,Français,f,0,0.0,-87.23426609,0.52575342
5ec454e23d68ea32ee554d12,16,0,2024-02-24T09:21:46.494Z,french_667.wav,0,poule,862,38,4,5,Français,f,1,0.1,53.54997778,0.6882241
5ec454e23d68ea32ee554d12,16,0,2024-02-24T09:21:46.494Z,french_667.wav,0,poule,862,38,4,5,Français,f,2,0.2,57.34155937,0.15612922
5ec454e23d68ea32ee554d12,16,0,2024-02-24T09:21:46.494Z,french_667.wav,0,poule,862,38,4,5,Français,f,3,0.25666667,-19.62963402,0.34657669
5ec454e23d68ea32ee554d12,17,0,2024-02-24T09:21:46.494Z,french_534.wav,0,poule,471,38,4,5,Français,f,0,0.0,96.41776506,0.28463844
5ec454e23d68ea32ee554d12,17,0,2024-02-24T09:21:46.494Z,french_534.wav,0,poule,471,38,4,5,Français,f,1,0.1,-53.52749338,1.69872517
5ec454e23d68ea32ee554d12,17,0,2024-02-24T09:21:46.494Z,french_534.wav,0,poule,471,38,4,5,Français,f,2,0.2,51.10087415,0.80798533
5ec454e23d68ea32ee554d12,17,0,2024-02-24T09:21:46.494Z,french_534.wav,0,poule,471,38,4,5,Français,f,3,0.25666667,27.39654188,1.79838566
5ec454e23d68ea32ee554d12,18,0,2024-02-24T09:21:46.494Z,french_254.wav,0,poule,342,38,4,5,Français,f,0,0.0,-80.26287383,0.610966
5ec454e23d68ea32ee554d12,18,0,2024-02-24T09:21:46.494Z,french_254.wav,0,poule,342,38,4,5,Français,f,1,0.1,-40.33934554,1.74213191
5ec454e23d68ea32ee554d12,18,0,2024-02-24T09:21:46.494Z,french_254.wav,0,poule,342,38,4,5,Français,f,2,0.2,63.1875163,0.92287848
5ec454e23d68ea32ee554d12,18,0,2024-02-24T09:21:46.494Z,french_254.wav,0,poule,342,38,4,5,Français,f,3,0.25666667,55.87543548,0.4746978
5ec454e23d68ea32ee554d12,19,0,2024-02-24T09:21:46.494Z,french_675.wav,0,poule,685,38,4,5,Français,f,0,0.0,-70.79994344,1.47729798
5ec454e23d68ea32ee554d12,19,0,2024-02-24T09:21:46.494Z,french_675.wav,0,poule,685,38,4,5,Français,f,1,0.1,-7.59389362,0.30115563
5ec454e23d68ea32ee554d12,19,0,2024-02-24T09:21:46.494Z,french_675.wav,0,poule,685,38,4,5,Français,f,2,0.2,-3.58790265,1.39440132
5ec454e23d68ea32ee554d12,19,0,2024-02-24T09:21:46.494Z,french_675.wav,0,poule,685,38,4,5,Français,f,3,0.25666667,-30.70883091,1.61039035
5ec454e23d68ea32ee554d12,20,0,2024-02-24T09:21:46.494Z,french_186.wav,0,poule,531,38,4,5,Français,f,0,0.0,-80.05391137,1.48946386
5ec454e23d68ea32ee554d12,20,0,2024-02-24T09:21:46.494Z,french_186.wav,0,poule,531,38,4,5,Français,f,1,0.1,-76.4275614,1.35064599
5ec454e23d68ea32ee554d12,20,0,2024-02-24T09:21:46.494Z,french_186.wav,0,poule,531,38,4,5,Français,f,2,0.2,7.24631247,0.88239158
5ec454e23d68ea32ee554d12,20,0,2024-02-24T09:21:46.494Z,french_186.wav,0,poule,531,38,4,5,Français,f,3,0.25666667,-47.449751,1.60975952
5ec454e23d68ea32ee554d12,21,0,2024-02-24T09:21:46.494Z,french_933.wav,0,poule,430,38,4,5,Français,f,0,0.0,-24.27897726,0.66366025
5ec454e23d68ea32ee554d12,21,0,2024-02-24T09:21:46.494Z,french_933.wav,0,poule,430,38,4,5,Français,f,1,0.1,45.4380102,1.16686233
5ec454e23d68ea32ee554d12,21,0,2024-02-24T09:21:46.494Z,french_933.wav,0,poule,430,38,4,5,Français,f,2,0.2,44.52165476,0.86083852
5ec454e23d68ea32ee554d12,21,0,2024-02-24T09:21:46.494Z,french_933.wav,0,poule,430,38,4,5,Français,f,3,0.25666667,11.96128215,1.88972919
5ec454e23d68ea32ee554d12,22,0,2024-02-24T09:21:46.494Z,french_854.wav,0,poule,724,38,4,5,Français,f,0,0.0,-7.31529778,1.19205775
5ec454e23d68ea32ee554d12,22,0,2024-02-24T09:21:46.494Z,french_854.wav,0,poule,724,38,4,5,Français,f,1,0.1,-99.41756076,1.8519083
5ec454e23d68ea32ee554d12,22,0,2024-02-24T09:21:46.494Z,french_854.wav,0,poule,724,38,4,5,Français,f,2,0.2,9.72781791,0.75121465
5ec454e23d68ea32ee554d12,22,0,2024-02-24T09:21:46.494Z,french_854.wav,0,poule,724,38,4,5,Français,f,3,0.25666667,12.92966386,0.73809803
5ec454e23d68ea32ee554d12,23,0,2024-02-24T09:21:46.494Z,french_316.wav,0,pull,2028,38,4,5,Français,f,0,0.0,71.43385859,0.02011656
5ec454e23d68ea32ee554d12,23,0,2024-02-24T09:21:46.494Z,french_316.wav,0,pull,2028,38,4,5,Français,f,1,0.1,-31.05932013,1.43477753
5ec454e23d68ea32ee554d12,23,0,2024-02-24T09:21:46.494Z,french_316.wav,0,pull,2028,38,4,5,Français,f,2,0.2,7.51523711,0.06852206
5ec454e23d68ea32ee554d12,23,0,2024-02-24T09:21:46.494Z,french_316.wav,0,pull,2028,38,4,5,Français,f,3,0.25666667,-46.68412198,1.51807936
5ec454e23d68ea32ee554d12,24,0,2024-02-24T09:21:46.494Z,french_302.wav,0,poule,699,38,4,5,Français,f,0,0.0,8.4067376,0.06791418
5ec454e23d68ea32ee554d12,24,0,2024-02-24T09:21:46.494Z,french_302.wav,0,poule,699,38,4,5,Français,f,1,0.1,-29.32780789,1.46578571
5ec454e23d68ea32ee554d12,24,0,2024-02-24T09:21:46.494Z,french_302.wav,0,poule,699,38,4,5,Français,f,2,0.2,-43.35590711,1.81098556
5ec454e23d68ea32ee554d12,24,0,2024-02-24T09:21:46.494Z,french_302.wav,0,poule,699,38,4,5,Français,f,3,0.25666667,-44.50549756,1.40235265
5ec454e23d68ea32ee554d12,25,0,2024-02-24T09:21:46.494Z,french_9.wav,0,poule,736,38,4,5,Français,f,0,0.0,19.3207086,1.35934995
5ec454e23d68ea32ee554d12,25,0,2024-02-24T09:21:46.494Z,french_9.wav,0,poule,736,38,4,5,Français,f,1,0.1,55.1250277,1.31727385
5ec454e23d68ea32ee554d12,25,0,2024-02-24T09:21:46.494Z,french_9.wav,0,poule,736,38,4,5,Français,f,2,0.2,31.60633129,0.52824511
5ec454e23d68ea32ee554d12,25,0,2024-02-24T09:21:46.494Z,french_9.wav,0,poule,736,38,4,5,Français,f,3,0.25666667,31.4464946,1.75131645
5ec454e23d68ea32ee554d12,26,0,2024-02-24T09:21:46.494Z,french_11.wav,0,poule,499,38,4,5,Français,f,0,0.0,-27.01625533,0.65463853
5ec454e23d68ea32ee554d12,26,0,2024-02-24T09:21:46.494Z,french_11.wav,0,poule,499,38,4,5,Français,f,1,0.1,30.5454192,0.82547758
5ec454e23d68ea32ee554d12,26,0,2024-02-24T09:21:46.494Z,french_11.wav,0,poule,499,38,4,5,Français,f,2,0.2,-10.3355652,1.18020414
5ec454e23d68ea32ee554d12,26,0,2024-02-24T09:21:46.494Z,french_11.wav,0,poule,499,38,4,5,Français,f,3,0.25666667,-1.40658107,0.75245655
5ec454e23d68ea32ee554d12,27,0,2024-02-24T09:21:46.494Z,french_583.wav,0,poule,294,38,4,5,Français,f,0,0.0,54.77106994,0.72700192
5ec454e23d68ea32ee554d12,27,0,2024-02-24T09:21:46.494Z,french_583.wav,0,poule,294,38,4,5,Français,f,1,0.1,-91.79725644,1.43459804
5ec454e23d68ea32ee554d12,27,0,2024-02-24T09:21:46.494Z,french_583.wav,0,poule,294,38,4,5,Français,f,2,0.2,19.12152033,0.59283069
5ec454e23d68ea32ee554d12,27,0,2024-02-24T09:21:46.494Z,french_583.wav,0,poule,294,38,4,5,Français,f,3,0.25666667,80.05255959,1.58166394
5ec454e23d68ea32ee554d12,28,0,2024-02-24T09:21:46.494Z,french_671.wav,0,poule,335,38,4,5,Français,f,0,0.0,-43.02390558,0.93196934
5ec454e23d68ea32ee554d12,28,0,2024-02-24T09:21:46.494Z,french_671.wav,0,poule,335,38,4,5,Français,f,1,0.1,13.89093856,1.15314194
5ec454e23d68ea32ee554d12,28,0,2024-02-24T09:21:46.494Z,french_671.wav,0,poule,335,38,4,5,Français,f,2,0.2,3.48608914,0.54353121
5ec454e23d68ea32ee554d12,28,0,2024-02-24T09:21:46.494Z,french_671.wav,0,poule,335,38,4,5,Français,f,3,0.25666667,-98.36263583,1.08598707
5ec454e23d68ea32ee554d12,29,0,2024-02-24T09:21:46.494Z,french_171.wav,0,poule,252,38,4,5,Français,f,0,0.0,13.3023016,1.00497926
5ec454e23d68ea32ee554d12,29,0,2024-02-24T09:21:46.494Z,french_171.wav,0,poule,252,38,4,5,Français,f,1,0.1,25.29505215,0.58011724
5ec454e23d68ea32ee554d12,29,0,2024-02-24T09:21:46.494Z,french_171.wav,0,poule,252,38,4,5,Français,f,2,0.2,-4.58061697,1.99843941
5ec454e23d68ea32ee554d12,29,0,2024-02-24T09:21:46.494Z,french_171.wav,0,poule,252,38,4,5,Français,f,3,0.25666667,34.76288366,1.29013512
5ec454e23d68ea32ee554d12,30,0,2024-02-24T09:21:46.494Z,french_626.wav,0,pull,589,38,4,5,Français,f,0,0.0,-93.35692854,1.28523942
5ec454e23d68ea32ee554d12,30,0,2024-02-24T09:21:46.494Z,french_626.wav,0,pull,589,38,4,5,Français,f,1,0.1,98.43225428,0.26610399
5ec454e23d68ea32ee554d12,30,0,2024-02-24T09:21:46.494Z,french_626.wav,0,pull,589,38,4,5,Français,f,2,0.2,-65.0946996,0.08304138
5ec454e23d68ea32ee554d12,30,0,2024-02-24T09:21:46.494Z,french_626.wav,0,pull,589,38,4,5,Français,f,3,0.25666667,62.51553639,1.47830697
5ec454e23d68ea32ee554d12,31,0,2024-02-24T09:21:46.494Z,french_30.wav,0,poule,334,38,4,5,Français,f,0,0.0,76.62673318,0.98317975
5ec454e23d68ea32ee554d12,31,0,2024-02-24T09:21:46.494Z,french_30.wav,0,poule,334,38,4,5,Français,f,1,0.1,68.4553342,1.99903841
5ec454e23d68ea32ee554d12,31,0,2024-02-24T09:21:46.494Z,french_30.wav,0,poule,334,38,4,5,Français,f,2,0.2,55.51592845,1.19167606
5ec454e23d68ea32ee554d12,31,0,2024-02-24T09:21:46.494Z,french_30.wav,0,poule,334,38,4,5,Français,f,3,0.25666667,80.18190702,0.01328513
5ec454e23d68ea32ee554d12,32,0,2024-02-24T09:21:46.494Z,french_349.wav,0,poule,420,38,4,5,Français,f,0,0.0,73.89254537,0.17403551
5ec454e23d68ea32ee554d12,32,0,2024-02-24T09:21:46.494Z,french_349.wav,0,poule,420,38,4,5,Français,f,1,0.1,-84.33493486,1.66487719
5ec454e23d68ea32ee554d12,32,0,2024-02-24T09:21:46.494Z,french_349.wav,0,poule,420,38,4,5,Français,f,2,0.2,-3.2709249,1.53740634
5ec454e23d68ea32ee554d12,32,0,2024-02-24T09:21:46.494Z,french_349.wav,0,poule,420,38,4,5,Français,f,3,0.25666667,-21.54511299,1.56834066
5ec454e23d68ea32ee554d12,33,0,2024-02-24T09:21:46.494Z,french_496.wav,0,pull,496,38,4,5,Français,f,0,0.0,95.35910422,1.71732874
5ec454e23d68ea32ee554d12,33,0,2024-02-24T09:21:46.494Z,french_496.wav,0,pull,496,38,4,5,Français,f,1,0.1,-6.65722592,0.79073406
5ec454e23d68ea32ee554d12,33,0,2024-02-24T09:21:46.494Z,french_496.wav,0,pull,496,38,4,5,Français,f,2,0.2,-0.21871516,0.34583293
5ec454e23d68ea32ee554d12,33,0,2024-02-24T09:21:46.494Z,french_496.wav,0,pull,496,38,4,5,Français,f,3,0.25666667,-55.34055424,0.39020762
5ec454e23d68ea32ee554d12,34,0,2024-02-24T09:21:46.494Z,french_503.wav,0,poule,347,38,4,5,Français,f,0,0.0,-70.57406247,0.43346158
5ec454e23d68ea32ee554d12,34,0,2024-02-24T09:21:46.494Z,french_503.wav,0,poule,347,38,4,5,Français,f,1,0.1,-50.28029143,1.6767429
5ec454e23d68ea32ee554d12,34,0,2024-02-24T09:21:46.494Z,french_503.wav,0,poule,347,38,4,5,Français,f,2,0.2,-1.92788211,0.59100625
5ec454e23d68ea32ee554d12,34,0,2024-02-24T09:21:46.494Z,french_503.wav,0,poule,347,38,4,5,Français,f,3,0.25666667,82.92590596,1.4727109
5ec454e23d68ea32ee554d12,35,0,2024-02-24T09:21:46.494Z,french_706.wav,0,poule,1073,38,4,5,Français,f,0,0.0,53.91986852,0.595313
5ec454e23d68ea32ee554d12,35,0,2024-02-24T09:21:46.494Z,french_706.wav,0,poule,1073,38,4,5,Français,f,1,0.1,-86.79287422,0.19033695
5ec454e23d68ea32ee554d12,35,0,2024-02-24T09:21:46.494Z,french_706.wav,0,poule,1073,38,4,5,Français,f,2,0.2,-18.13553248,1.2444166
5ec454e23d68ea32ee554d12,35,0,2024-02-24T09:21:46.494Z,french_706.wav,0,poule,1073,38,4,5,Français,f,3,0.25666667,-98.41078943,0.51551453
5ec454e23d68ea32ee554d12,36,0,2024-02-24T09:21:46.494Z,french_724.wav,0,poule,389,38,4,5,Français,f,0,0.0,-58.96674975,0.30578628
5ec454e23d68ea32ee554d12,36,0,2024-02-24T09:21:46.494Z,french_724.wav,0,poule,389,38,4,5,Français,f,1,0.1,-95.33611412,0.57010607
5ec454e23d68ea32ee554d12,36,0,2024-02-24T09:21:46.494Z,french_724.wav,0,poule,389,38,4,5,Français,f,2,0.2,-56.69004984,1.33615123
5ec454e23d68ea32ee554d12,36,0,2024-02-24T09:21:46.494Z,french_724.wav,0,poule,389,38,4,5,Français,f,3,0.25666667,-50.97008283,1.59962144
5ec454e23d68ea32ee554d12,37,0,2024-02-24T09:21:46.494Z,french_88.wav,0,poule,337,38,4,5,Français,f,0,0.0,27.32194303,1.51306501
5ec454e23d68ea32ee554d12,37,0,2024-02-24T09:21:46.494Z,french_88.wav,0,poule,337,38,4,5,Français,f,1,0.1,-96.72294389,1.24985366
5ec454e23d68ea32ee554d12,37,0,2024-02-24T09:21:46.494Z,french_88.wav,0,poule,337,38,4,5,Français,f,2,0.2,60.26388925,0.69332812
5ec454e23d68ea32ee554d12,37,0,2024-02-24T09:21:46.494Z,french_88.wav,0,poule,337,38,4,5,Français,f,3,0.25666667,24.13475024,1.39714954
5ec454e23d68ea32ee554d12,38,0,2024-02-24T09:21:46.494Z,french_19.wav,0,poule,1161,38,4,5,Français,f,0,0.0,-43.32613145,0.86768791
5ec454e23d68ea32ee554d12,38,0,2024-02-24T09:21:46.494Z,french_19.wav,0,poule,1161,38,4,5,Français,f,1,0.1,-51.04998213,0.12235363
5ec454e23d68ea32ee554d12,38,0,2024-02-24T09:21:46.494Z,french_19.wav,0,poule,1161,38,4,5,Français,f,2,0.2,-30.05832199,0.93205141
5ec454e23d68ea32ee554d12,38,0,2024-02-24T09:21:46.494Z,french_19.wav,0,poule,1161,38,4,5,Français,f,3,0.25666667,-62.89931607,0.68272422
5ec454e23d68ea32ee554d12,39,0,2024-02-24T09:21:46.494Z,french_167.wav,0,poule,295,38,4,5,Français,f,0,0.0,35.64973643,1.28189169
5ec454e23d68ea32ee554d12,39,0,2024-02-24T09:21:46.494Z,french_167.wav,0,poule,295,38,4,5,Français,f,1,0.1,44.83065125,1.79221575
5ec454e23d68ea32ee554d12,39,0,2024-02-24T09:21:46.494Z,french_167.wav,0,poule,295,38,4,5,Français,f,2,0.2,-2.88275541,1.75452965
5ec454e23d68ea32ee554d12,39,0,2024-02-24T09:21:46.494Z,french_167.wav,0,poule,295,38,4,5,Français,f,3,0.25666667,-92.53521205,1.25057705
5ec454e23d68ea32ee554d12,40,0,2024-02-24T09:21:46.494Z,french_531.wav,0,pull,540,38,4,5,Français,f,0,0.0,76.38960861,1.48422918
5ec454e23d68ea32ee554d12,40,0,2024-02-24T09:21:46.494Z,french_531.wav,0,pull,540,38,4,5,Français,f,1,0.1,-14.4624089,0.31285067
5ec454e23d68ea32ee554d12,40,0,2024-02-24T09:21:46.494Z,french_531.wav,0,pull,540,38,4,5,Français,f,2,0.2,97.56303867,0.71358588
5ec454e23d68ea32ee554d12,40,0,2024-02-24T09:21:46.494Z,french_531.wav,0,pull,540,38,4,5,Français,f,3,0.25666667,-4.62103118,0.65318394
5ec454e23d68ea32ee554d12,41,0,2024-02-24T09:21:46.494Z,french_572.wav,0,pull,590,38,4,5,Français,f,0,0.0,39.88309013,1.43577141
5ec454e23d68ea32ee554d12,41,0,2024-02-24T09:21:46.494Z,french_572.wav,0,pull,590,38,4,5,Français,f,1,0.1,-96.79862589,0.70754044
5ec454e23d68ea32ee554d12,41,0,2024-02-24T09:21:46.494Z,french_572.wav,0,pull,590,38,4,5,Français,f,2,0.2,-22.12237888,0.13254452
5ec454e23d68ea32ee554d12,41,0,2024-02-24T09:21:46.494Z,french_572.wav,0,pull,590,38,4,5,Français,f,3,0.25666667,-29.01009828,0.2743676
5ec454e23d68ea32ee554d12,42,0,2024-02-24T09:21:46.494Z,french_912.wav,0,poule,394,38,4,5,Français,f,0,0.0,-0.0923206,1.34654061
5ec454e23d68ea32ee554d12,42,0,2024-02-24T09:21:46.494Z,french_912.wav,0,poule,394,38,4,5,Français,f,1,0.1,-62.03539144,1.69101872
5ec454e23d68ea32ee554d12,42,0,2024-02-24T09:21:46.494Z,french_912.wav,0,poule,394,38,4,5,Français,f,2,0.2,9.48123132,1.27014765
5ec454e23d68ea32ee554d12,42,0,2024-02-24T09:21:46.494Z,french_912.wav,0,poule,394,38,4,5,Français,f,3,0.25666667,-88.73464781,0.10640649
5ec454e23d68ea32ee554d12,43,0,2024-02-24T09:21:46.494Z,french_612.wav,0,poule,520,38,4,5,Français,f,0,0.0,43.10783066,0.49686358
5ec454e23d68ea32ee554d12,43,0,2024-02-24T09:21:46.494Z,french_612.wav,0,poule,520,38,4,5,Français,f,1,0.1,-4.14995098,1.10500502
5ec454e23d68ea32ee554d12,43,0,2024-02-24T09:21:46.494Z,french_612.wav,0,poule,520,38,4,5,Français,f,2,0.2,22.17563662,0.22222502
5ec454e23d68ea32ee554d12,43,0,2024-02-24T09:21:46.494Z,french_612.wav,0,poule,520,38,4,5,Français,f,3,0.25666667,-48.75850842,1.14111641
5ec454e23d68ea32ee554d12,44,0,2024-02-24T09:21:46.494Z,french_782.wav,0,poule,679,38,4,5,Français,f,0,0.0,-22.12019493,0.33541309
5ec454e23d68ea32ee554d12,44,0,2024-02-24T09:21:46.494Z,french_782.wav,0,poule,679,38,4,5,Français,f,1,0.1,4.49416446,0.60665876
5ec454e23d68ea32ee554d12,44,0,2024-02-24T09:21:46.494Z,french_782.wav,0,poule,679,38,4,5,Français,f,2,0.2,95.81757258,0.65040298
5ec454e23d68ea32ee554d12,44,0,2024-02-24T09:21:46.494Z,french_782.wav,0,poule,679,38,4,5,Français,f,3,0.25666667,37.17912971,0.93901734
5ec454e23d68ea32ee554d12,45,0,2024-02-24T09:21:46.494Z,french_156.wav,0,poule,516,38,4,5,Français,f,0,0.0,31.92379501,1.0555525
5ec454e23d68ea32ee554d12,45,0,2024-02-24T09:21:46.494Z,french_156.wav,0,poule,516,38,4,5,Français,f,1,0.1,-44.87917853,1.35077548
5ec454e23d68ea32ee554d12,45,0,2024-02-24T09:21:46.494Z,french_156.wav,0,poule,516,38,4,5,Français,f,2,0.2,-30.25450012,0.66649605
5ec454e23d68ea32ee554d12,45,0,2024-02-24T09:21:46.494Z,french_156.wav,0,poule,516,38,4,5,Français,f,3,0.25666667,-8.41227372,1.59075988
5ec454e23d68ea32ee554d12,46,0,2024-02-24T09:21:46.494Z,french_807.wav,0,poule,736,38,4,5,Français,f,0,0.0,41.22965042,0.26309645
5ec454e23d68ea32ee554d12,46,0,2024-02-24T09:21:46.494Z,french_807.wav,0,poule,736,38,4,5,Français,f,1,0.1,55.45523643,0.30227962
5ec454e23d68ea32ee554d12,46,0,2024-02-24T09:21:46.494Z,french_807.wav,0,poule,736,38,4,5,Français,f,2,0.2,-56.08981041,0.58983644
5ec454e23d68ea32ee554d12,46,0,2024-02-24T09:21:46.494Z,french_807.wav,0,poule,736,38,4,5,Français,f,3,0.25666667,27.67304414,1.26996728
5ec454e23d68ea32ee554d12,47,0,2024-02-24T09:21:46.494Z,french_876.wav,0,poule,533,38,4,5,Français,f,0,0.0,-63.60663495,1.31328738
5ec454e23d68ea32ee554d12,47,0,2024-02-24T09:21:46.494Z,french_876.wav,0,poule,533,38,4,5,Français,f,1,0.1,-33.069551,1.53761103
5ec454e23d68ea32ee554d12,47,0,2024-02-24T09:21:46.494Z,french_876.wav,0,poule,533,38,4,5,Français,f,2,0.2,44.38072254,1.15738415
5ec454e23d68ea32ee554d12,47,0,2024-02-24T09:21:46.494Z,french_876.wav,0,poule,533,38,4,5,Français,f,3,0.25666667,3.25210733,1.33428182
5ec454e23d68ea32ee554d12,48,0,2024-02-24T09:21:46.494Z,french_729.wav,0,poule,485,38,4,5,Français,f,0,0.0,53.20588085,1.49423138
5ec454e23d68ea32ee554d12,48,0,2024-02-24T09:21:46.494Z,french_729.wav,0,poule,485,38,4,5,Français,f,1,0.1,89.42375323,0.2074599
5ec454e23d68ea32ee554d12,48,0,2024-02-24T09:21:46.494Z,french_729.wav,0,poule,485,38,4,5,Français,f,2,0.2,-13.37040397,1.07839331
5ec454e23d68ea32ee554d12,48,0,2024-02-24T09:21:46.494Z,french_729.wav,0,poule,485,38,4,5,Français,f,3,0.25666667,-26.89484255,0.61183567
5ec454e23d68ea32ee554d12,49,0,2024-02-24T09:21:46.494Z,french_173.wav,0,poule,471,38,4,5,Français,f,0,0.0,-85.34625679,1.0505287
5ec454e23d68ea32ee554d12,49,0,2024-02-24T09:21:46.494Z,french_173.wav,0,poule,471,38,4,5,Français,f,1,0.1,19.71799215,1.50206547
5ec454e23d68ea32ee554d12,49,0,2024-02-24T09:21:46.494Z,french_173.wav,0,poule,471,38,4,5,Français,f,2,0.2,-84.96079432,1.53807785
5ec454e23d68ea32ee554d12,49,0,2024-02-24T09:21:46.494Z,french_173.wav,0,poule,471,38,4,5,Français,f,3,0.25666667,-20.27996547,1.54027091
5ec454e23d68ea32ee554d12,50,1,2024-02-24T09:21:46.494Z,french_569.wav,0,poule,331,38,4,5,Français,f,0,0.0,14.0156596,1.29627558
5ec454e23d68ea32ee554d12,50,1,2024-02-24T09:21:46.494Z,french_569.wav,0,poule,331,38,4,5,Français,f,1,0.1,85.00283799,1.08637511
5ec454e23d68ea32ee554d12,50,1,2024-02-24T09:21:46.494Z,french_569.wav,0,poule,331,38,4,5,Français,f,2,0.2,-53.61423207,1.60007367
5ec454e23d68ea32ee554d12,50,1,2024-02-24T09:21:46.494Z,french_569.wav,0,poule,331,38,4,5,Français,f,3,0.25666667,-38.88478833,0.57872623
5ec454e23d68ea32ee554d12,51,1,2024-02-24T09:21:46.494Z,french_160.wav,0,poule,343,38,4,5,Français,f,0,0.0,94.580754,1.48632924
5ec454e23d68ea32ee554d12,51,1,2024-02-24T09:21:46.494Z,french_160.wav,0,poule,343,38,4,5,Français,f,1,0.1,-77.59057929,0.83284567
5ec454e23d68ea32ee554d12,51,1,2024-02-24T09:21:46.494Z,french_160.wav,0,poule,343,38,4,5,Français,f,2,0.2,49.28871101,1.32543638
5ec454e23d68ea32ee554d12,51,1,2024-02-24T09:21:46.494Z,french_160.wav,0,poule,343,38,4,5,Français,f,3,0.25666667,54.34008904,1.18016963
5ec454e23d68ea32ee554d12,52,1,2024-02-24T09:21:46.494Z,french_468.wav,0,poule,948,38,4,5,Français,f,0,0.0,62.98081683,0.39126421
5ec454e23d68ea32ee554d12,52,1,2024-02-24T09:21:46.494Z,french_468.wav,0,poule,948,38,4,5,Français,f,1,0.1,-56.79667237,1.86845908
5ec454e23d68ea32ee554d12,52,1,2024-02-24T09:21:46.494Z,french_468.wav,0,poule,948,38,4,5,Français,f,2,0.2,16.07172023,0.61680923
5ec454e23d68ea32ee554d12,52,1,2024-02-24T09:21:46.494Z,french_468.wav,0,poule,948,38,4,5,Français,f,3,0.25666667,67.64788087,0.75086704
5ec454e23d68ea32ee554d12,53,1,2024-02-24T09:21:46.494Z,french_429.wav,0,poule,298,38,4,5,Français,f,0,0.0,-86.61428582,0.48550144
5ec454e23d68ea32ee554d12,53,1,2024-02-24T09:21:46.494Z,french_429.wav,0,poule,298,38,4,5,Français,f,1,0.1,-42.15720505,1.43221201
5ec454e23d68ea32ee554d12,53,1,2024-02-24T09:21:46.494Z,french_429.wav,0,poule,298,38,4,5,Français,f,2,0.2,57.81850322,1.77393014
5ec454e23d68ea32ee554d12,53,1,2024-02-24T09:21:46.494Z,french_429.wav,0,poule,298,38,4,5,Français,f,3,0.25666667,56.8864302,0.85506946
5ec454e23d68ea32ee554d12,54,1,2024-02-24T09:21:46.494Z,french_552.wav,0,poule,620,38,4,5,Français,f,0,0.0,-52.32363839,0.44295398
5ec454e23d68ea32ee554d12,54,1,2024-02-24T09:21:46.494Z,french_552.wav,0,poule,620,38,4,5,Français,f,1,0.1,23.44364533,1.4520287
5ec454e23d68ea32ee554d12,54,1,2024-02-24T09:21:46.494Z,french_552.wav,0,poule,620,38,4,5,Français,f,2,0.2,72.20212972,0.63620541
5ec454e23d68ea32ee554d12,54,1,2024-02-24T09:21:46.494Z,french_552.wav,0,poule,620,38,4,5,Français,f,3,0.25666667,-25.42911122,1.39952151
5ec454e23d68ea32ee554d12,55,1,2024-02-24T09:21:46.494Z,french_136.wav,0,pull,499,38,4,5,Français,f,0,0.0,-19.24670356,0.58320819
5ec454e23d68ea32ee554d12,55,1,2024-02-24T09:21:46.494Z,french_136.wav,0,pull,499,38,4,5,Français,f,1,0.1,-19.07264886,1.75711633
5ec454e23d68ea32ee554d12,55,1,2024-02-24T09:21:46.494Z,french_136.wav,0,pull,499,38,4,5,Français,f,2,0.2,-15.66011034,0.20485265
5ec454e23d68ea32ee554d12,55,1,2024-02-24T09:21:46.494Z,french_136.wav,0,pull,499,38,4,5,Français,f,3,0.25666667,-21.38655245,0.63500763
5ec454e23d68ea32ee554d12,56,1,2024-02-24T09:21:46.494Z,french_200.wav,0,pull,742,38,4,5,Français,f,0,0.0,-10.65818699,0.95052916
5ec454e23d68ea32ee554d12,56,1,2024-02-24T09:21:46.494Z,french_200.wav,0,pull,742,38,4,5,Français,f,1,0.1,-8.96413357,0.11424824
5ec454e23d68ea32ee554d12,56,1,2024-02-24T09:21:46.494Z,french_200.wav,0,pull,742,38,4,5,Français,f,2,0.2,-78.89627616,1.718039
5ec454e23d68ea32ee554d12,56,1,2024-02-24T09:21:46.494Z,french_200.wav,0,pull,742,38,4,5,Français,f,3,0.25666667,8.01745362,1.42690066
5ec454e23d68ea32ee554d12,57,1,2024-02-24T09:21:46.494Z,french_688.wav,0,poule,294,38,4,5,Français,f,0,0.0,-12.19437797,1.87578392
5ec454e23d68ea32ee554d12,57,1,2024-02-24T09:21:46.494Z,french_688.wav,0,poule,294,38,4,5,Français,f,1,0.1,-70.42225937,1.69222134
5ec454e23d68ea32ee554d12,57,1,2024-02-24T09:21:46.494Z,french_688.wav,0,poule,294,38,4,5,Français,f,2,0.2,-86.95466997,1.82069748
5ec454e23d68ea32ee554d12,57,1,2024-02-24T09:21:46.494Z,french_688.wav,0,poule,294,38,4,5,Français,f,3,0.25666667,-17.4398035,1.64542948
5ec454e23d68ea32ee554d12,58,1,2024-02-24T09:21:46.494Z,french_746.wav,0,poule,308,38,4,5,Français,f,0,0.0,-21.92593336,0.5521476
5ec454e23d68ea32ee554d12,58,1,2024-02-24T09:21:46.494Z,french_746.wav,0,poule,308,38,4,5,Français,f,1,0.1,-33.34916741,1.58954792
5ec454e23d68ea32ee554d12,58,1,2024-02-24T09:21:46.494Z,french_746.wav,0,poule,308,38,4,5,Français,f,2,0.2,-5.0291103,0.89586439
5ec454e23d68ea32ee554d12,58,1,2024-02-24T09:21:46.494Z,french_746.wav,0,poule,308,38,4,5,Français,f,3,0.25666667,-67.6368859,0.35939035
5ec454e23d68ea32ee554d12,59,1,2024-02-24T09:21:46.494Z,french_926.wav,0,pull,882,38,4,5,Français,f,0,0.0,-38.30420493,1.0266732
5ec454e23d68ea32ee554d12,59,1,2024-02-24T09:21:46.494Z,french_926.wav,0,pull,882,38,4,5,Français,f,1,0.1,-97.26803886,0.03873156
5ec454e23d68ea32ee554d12,59,1,2024-02-24T09:21:46.494Z,french_926.wav,0,pull,882,38,4,5,Français,f,2,0.2,55.3544282,0.32593073
5ec454e23d68ea32ee554d12,59,1,2024-02-24T09:21:46.494Z,french_926.wav,0,pull,882,38,4,5,Français,f,3,0.25666667,8.78644418,0.80695306
5ec454e23d68ea32ee554d12,60,1,2024-02-24T09:21:46.494Z,french_21.wav,0,poule,649,38,4,5,Français,f,0,0.0,54.83693262,0.05508037
5ec454e23d68ea32ee554d12,60,1,2024-02-24T09:21:46.494Z,french_21.wav,0,poule,649,38,4,5,Français,f,1,0.1,-44.5884084,0.46211883
5ec454e23d68ea32ee554d12,60,1,2024-02-24T09:21:46.494Z,french_21.wav,0,poule,649,38,4,5,Français,f,2,0.2,-75.20982548,1.96075125
5ec454e23d68ea32ee554d12,60,1,2024-02-24T09:21:46.494Z,french_21.wav,0,poule,649,38,4,5,Français,f,3,0.25666667,-57.69855476,0.5365247
5ec454e23d68ea32ee554d12,61,1,2024-02-24T09:21:46.494Z,french_164.wav,0,poule,447,38,4,5,Français,f,0,0.0,-18.17175111,1.54231832
5ec454e23d68ea32ee554d12,61,1,2024-02-24T09:21:46.494Z,french_164.wav,0,poule,447,38,4,5,Français,f,1,0.1,76.91542059,0.85273823
5ec454e23d68ea32ee554d12,61,1,2024-02-24T09:21:46.494Z,french_164.wav,0,poule,447,38,4,5,Français,f,2,0.2,-44.02896165,1.08595521
5ec454e23d68ea32ee554d12,61,1,2024-02-24T09:21:46.494Z,french_164.wav,0,poule,447,38,4,5,Français,f,3,0.25666667,-52.20678857,1.30612675
5ec454e23d68ea32ee554d12,62,1,2024-02-24T09:21:46.494Z,french_939.wav,0,poule,408,38,4,5,Français,f,0,0.0,26.75853805,1.87296773
5ec454e23d68ea32ee554d12,62,1,2024-02-24T09:21:46.494Z,french_939.wav,0,poule,408,38,4,5,Français,f,1,0.1,6.19803181,1.06061528
5ec454e23d68ea32ee554d12,62,1,2024-02-24T09:21:46.494Z,french_939.wav,0,poule,408,38,4,5,Français,f,2,0.2,-16.72335747,1.33482008
5ec454e23d68ea32ee554d12,62,1,2024-02-24T09:21:46.494Z,french_939.wav,0,poule,408,38,4,5,Français,f,3,0.25666667,96.23810145,0.73381464
5ec454e23d68ea32ee554d12,63,1,2024-02-24T09:21:46.494Z,french_28.wav,0,poule,287,38,4,5,Français,f,0,0.0,-42.04092007,0.8096396
5ec454e23d68ea32ee554d12,63,1,2024-02-24T09:21:46.494Z,french_28.wav,0,poule,287,38,4,5,Français,f,1,0.1,-47.89065573,0.68168646
5ec454e23d68ea32ee554d12,63,1,2024-02-24T09:21:46.494Z,french_28.wav,0,poule,287,38,4,5,Français,f,2,0.2,88.67668081,0.86103635
5ec454e23d68ea32ee554d12,63,1,2024-02-24T09:21:46.494Z,french_28.wav,0,poule,287,38,4,5,Français,f,3,0.25666667,23.25138011,1.13642067
5ec454e23d68ea32ee554d12,64,1,2024-02-24T09:21:46.494Z,french_397.wav,0,pull,771,38,4,5,Français,f,0,0.0,-13.81470081,1.26162917
5ec454e23d68ea32ee554d12,64,1,2024-02-24T09:21:46.494Z,french_397.wav,0,pull,771,38,4,5,Français,f,1,0.1,50.38281738,1.19612478
5ec454e23d68ea32ee554d12,64,1,2024-02-24T09:21:46.494Z,french_397.wav,0,pull,771,38,4,5,Français,f,2,0.2,50.22980228,1.02842354
5ec454e23d68ea32ee554d12,64,1,2024-02-24T09:21:46.494Z,french_397.wav,0,pull,771,38,4,5,Français,f,3,0.25666667,-83.86271009,0.53389444
5ec454e23d68ea32ee554d12,65,1,2024-02-24T09:21:46.494Z,french_512.wav,0,pull,511,38,4,5,Français,f,0,0.0,-78.17864001,1.53776746
5ec454e23d68ea32ee554d12,65,1,2024-02-24T09:21:46.494Z,french_512.wav,0,pull,511,38,4,5,Français,f,1,0.1,0.33316605,0.01358873
5ec454e23d68ea32ee554d12,65,1,2024-02-24T09:21:46.494Z,french_512.wav,0,pull,511,38,4,5,Français,f,2,0.2,-88.66010948,0.2850161
5ec454e23d68ea32ee554d12,65,1,2024-02-24T09:21:46.494Z,french_512.wav,0,pull,511,38,4,5,Français,f,3,0.25666667,-69.42732992,0.92419145
5ec454e23d68ea32ee554d12,66,1,2024-02-24T09:21:46.494Z,french_282.wav,0,poule,382,38,4,5,Français,f,0,0.0,-97.43488085,0.55303377
5ec454e23d68ea32ee554d12,66,1,2024-02-24T09:21:46.494Z,french_282.wav,0,poule,382,38,4,5,Français,f,1,0.1,96.20897113,1.41145651
5ec454e23d68ea32ee554d12,66,1,2024-02-24T09:21:46.494Z,french_282.wav,0,poule,382,38,4,5,Français,f,2,0.2,27.16020646,1.83661618
5ec454e23d68ea32ee554d12,66,1,2024-02-24T09:21:46.494Z,french_282.wav,0,poule,382,38,4,5,Français,f,3,0.25666667,-13.14092169,0.36912502
5ec454e23d68ea32ee554d12,67,1,2024-02-24T09:21:46.494Z,french_737.wav,0,pull,868,38,4,5,Français,f,0,0.0,13.02374388,1.19502519
5ec454e23d68ea32ee554d12,67,1,2024-02-24T09:21:46.494Z,french_737.wav,0,pull,868,38,4,5,Français,f,1,0.1,-10.41694685,0.96501463
5ec454e23d68ea32ee554d12,67,1,2024-02-24T09:21:46.494Z,french_737.wav,0,pull,868,38,4,5,Français,f,2,0.2,-16.29618142,0.50712422
5ec454e23d68ea32ee554d12,67,1,2024-02-24T09:21:46.494Z,french_737.wav,0,pull,868,38,4,5,Français,f,3,0.25666667,15.62671798,0.54653665
5ec454e23d68ea32ee554d12,68,1,2024-02-24T09:21:46.494Z,french_292.wav,0,poule,1239,38,4,5,Français,f,0,0.0,-5.98307963,1.30181039
5ec454e23d68ea32ee554d12,68,1,2024-02-24T09:21:46.494Z,french_292.wav,0,poule,1239,38,4,5,Français,f,1,0.1,-89.4143915,0.71580693
5ec454e23d68ea32ee554d12,68,1,2024-02-24T09:21:46.494Z,french_292.wav,0,poule,1239,38,4,5,Français,f,2,0.2,50.82370108,0.58623796
5ec454e23d68ea32ee554d12,68,1,2024-02-24T09:21:46.494Z,french_292.wav,0,poule,1239,38,4,5,Français,f,3,0.25666667,-75.87081721,1.49080339
5ec454e23d68ea32ee554d12,69,1,2024-02-24T09:21:46.494Z,french_4.wav,0,pull,757,38,4,5,Français,f,0,0.0,98.95945082,0.64471479
5ec454e23d68ea32ee554d12,69,1,2024-02-24T09:21:46.494Z,french_4.wav,0,pull,757,38,4,5,Français,f,1,0.1,-3.3646243,0.78588128
5ec454e23d68ea32ee554d12,69,1,2024-02-24T09:21:46.494Z,french_4.wav,0,pull,757,38,4,5,Français,f,2,0.2,-24.17143146,0.06764648
5ec454e23d68ea32ee554d12,69,1,2024-02-24T09:21:46.494Z,french_4.wav,0,pull,757,38,4,5,Français,f,3,0.25666667,88.72564355,1.26067449
5ec454e23d68ea32ee554d12,70,1,2024-02-24T09:21:46.494Z,french_182.wav,0,poule,655,38,4,5,Français,f,0,0.0,-1.23949724,0.32203143
5ec454e23d68ea32ee554d12,70,1,2024-02-24T09:21:46.494Z,french_182.wav,0,poule,655,38,4,5,Français,f,1,0.1,97.8493481,0.76081704
5ec454e23d68ea32ee554d12,70,1,2024-02-24T09:21:46.494Z,french_182.wav,0,poule,655,38,4,5,Français,f,2,0.2,-69.4259963,1.30995173
5ec454e23d68ea32ee554d12,70,1,2024-02-24T09:21:46.494Z,french_182.wav,0,poule,655,38,4,5,Français,f,3,0.25666667,68.50854418,1.49369116
5ec454e23d68ea32ee554d12,71,1,2024-02-24T09:21:46.494Z,french_850.wav,0,poule,483,38,4,5,Français,f,0,0.0,-88.87179188,0.91597825
5ec454e23d68ea32ee554d12,71,1,2024-02-24T09:21:46.494Z,french_850.wav,0,poule,483,38,4,5,Français,f,1,0.1,15.70736636,0.21425776
5ec454e23d68ea32ee554d12,71,1,2024-02-24T09:21:46.494Z,french_850.wav,0,poule,483,38,4,5,Français,f,2,0.2,67.7730952,1.52338939
5ec454e23d68ea32ee554d12,71,1,2024-02-24T09:21:46.494Z,french_850.wav,0,poule,483,38,4,5,Français,f,3,0.25666667,-20.3872908,0.55241946
5ec454e23d68ea32ee554d12,72,1,2024-02-24T09:21:46.494Z,french_493.wav,0,poule,390,38,4,5,Français,f,0,0.0,-68.32294441,0.52835731
5ec454e23d68ea32ee554d12,72,1,2024-02-24T09:21:46.494Z,french_493.wav,0,poule,390,38,4,5,Français,f,1,0.1,-10.78892258,0.49612748
5ec454e23d68ea32ee554d12,72,1,2024-02-24T09:21:46.494Z,french_493.wav,0,poule,390,38,4,5,Français,f,2,0.2,91.72278204,1.46473376
5ec454e23d68ea32ee554d12,72,1,2024-02-24T09:21:46.494Z,french_493.wav,0,poule,390,38,4,5,Français,f,3,0.25666667,-45.09260027,1.2872874
5ec454e23d68ea32ee554d12,73,1,2024-02-24T09:21:46.494Z,french_726.wav,0,pull,595,38,4,5,Français,f,0,0.0,24.00791096,1.57962765
5ec454e23d68ea32ee554d12,73,1,2024-02-24T09:21:46.494Z,french_726.wav,0,pull,595,38,4,5,Français,f,1,0.1,-92.28715444,0.67026409
5ec454e23d68ea32ee554d12,73,1,2024-02-24T09:21:46.494Z,french_726.wav,0,pull,595,38,4,5,Français,f,2,0.2,-14.16316682,0.1799528
5ec454e23d68ea32ee554d12,73,1,2024-02-24T09:21:46.494Z,french_726.wav,0,pull,595,38,4,5,Français,f,3,0.25666667,30.70182153,1.72405897
5ec454e23d68ea32ee554d12,74,1,2024-02-24T09:21:46.494Z,french_444.wav,0,poule,306,38,4,5,Français,f,0,0.0,55.47353293,0.9328321
5ec454e23d68ea32ee554d12,74,1,2024-02-24T09:21:46.494Z,french_444.wav,0,poule,306,38,4,5,Français,f,1,0.1,12.04434333,1.46542582
5ec454e23d68ea32ee554d12,74,1,2024-02-24T09:21:46.494Z,french_444.wav,0,poule,306,38,4,5,Français,f,2,0.2,14.09264182,1.44584709
5ec454e23d68ea32ee554d12,74,1,2024-02-24T09:21:46.494Z,french_444.wav,0,poule,306,38,4,5,Français,f,3,0.25666667,-80.20656615,1.50777595
5ec454e23d68ea32ee554d12,75,1,2024-02-24T09:21:46.494Z,french_267.wav,0,poule,889,38,4,5,Français,f,0,0.0,-65.51042118,0.47900721
5ec454e23d68ea32ee554d12,75,1,2024-02-24T09:21:46.494Z,french_267.wav,0,poule,889,38,4,5,Français,f,1,0.1,15.6710232,1.08471332
5ec454e23d68ea32ee554d12,75,1,2024-02-24T09:21:46.494Z,french_267.wav,0,poule,889,38,4,5,Français,f,2,0.2,-16.59501764,0.49268798
5ec454e23d68ea32ee554d12,75,1,2024-02-24T09:21:46.494Z,french_267.wav,0,poule,889,38,4,5,Français,f,3,0.25666667,49.75287867,1.54023863
5ec454e23d68ea32ee554d12,76,1,2024-02-24T09:21:46.494Z,french_424.wav,0,poule,840,38,4,5,Français,f,0,0.0,61.39777876,0.24361375
5ec454e23d68ea32ee554d12,76,1,2024-02-24T09:21:46.494Z,french_424.wav,0,poule,840,38,4,5,Français,f,1,0.1,-8.76552132,1.04711526
5ec454e23d68ea32ee554d12,76,1,2024-02-24T09:21:46.494Z,french_424.wav,0,poule,840,38,4,5,Français,f,2,0.2,33.4280736,1.33335174
5ec454e23d68ea32ee554d12,76,1,2024-02-24T09:21:46.494Z,french_424.wav,0,poule,840,38,4,5,Français,f,3,0.25666667,8.6823295,0.59077303
5ec454e23d68ea32ee554d12,77,1,2024-02-24T09:21:46.494Z,french_373.wav,0,poule,946,38,4,5,Français,f,0,0.0,27.88559689,1.35161412
5ec454e23d68ea32ee554d12,77,1,2024-02-24T09:21:46.494Z,french_373.wav,0,poule,946,38,4,5,Français,f,1,0.1,61.41244142,1.00997609
5ec454e23d68ea32ee554d12,77,1,2024-02-24T09:21:46.494Z,french_373.wav,0,poule,946,38,4,5,Français,f,2,0.2,37.97273047,1.87297461
5ec454e23d68ea32ee554d12,77,1,2024-02-24T09:21:46.494Z,french_373.wav,0,poule,946,38,4,5,Français,f,3,0.25666667,-82.72738113,0.97441242
5ec454e23d68ea32ee554d12,78,1,2024-02-24T09:21:46.494Z,french_100.wav,0,poule,582,38,4,5,Français,f,0,0.0,-35.75508116,1.72997046
5ec454e23d68ea32ee554d12,78,1,2024-02-24T09:21:46.494Z,french_100.wav,0,poule,582,38,4,5,Français,f,1,0.1,57.82815341,1.04300978
5ec454e23d68ea32ee554d12,78,1,2024-02-24T09:21:46.494Z,french_100.wav,0,poule,582,38,4,5,Français,f,2,0.2,31.92112674,1.01595182
5ec454e23d68ea32ee554d12,78,1,2024-02-24T09:21:46.494Z,french_100.wav,0,poule,582,38,4,5,Français,f,3,0.25666667,34.87308497,1.9286069
5ec454e23d68ea32ee554d12,79,1,2024-02-24T09:21:46.494Z,french_276.wav,0,poule,601,38,4,5,Français,f,0,0.0,-30.59490391,1.59191255
5ec454e23d68ea32ee554d12,79,1,2024-02-24T09:21:46.494Z,french_276.wav,0,poule,601,38,4,5,Français,f,1,0.1,35.14119383,1.08920427
5ec454e23d68ea32ee554d12,79,1,2024-02-24T09:21:46.494Z,french_276.wav,0,poule,601,38,4,5,Français,f,2,0.2,-47.54137466,1.15204711
5ec454e23d68ea32ee554d12,79,1,2024-02-24T09:21:46.494Z,french_276.wav,0,poule,601,38,4,5,Français,f,3,0.25666667,-36.46330553,0.56107217
5ec454e23d68ea32ee554d12,80,1,2024-02-24T09:21:46.494Z,french_870.wav,0,poule,511,38,4,5,Français,f,0,0.0,93.84124937,1.21813626
5ec454e23d68ea32ee554d12,80,1,2024-02-24T09:21:46.494Z,french_870.wav,0,poule,511,38,4,5,Français,f,1,0.1,28.95893835,0.388995
5ec454e23d68ea32ee554d12,80,1,2024-02-24T09:21:46.494Z,french_870.wav,0,poule,511,38,4,5,Français,f,2,0.2,47.67512023,1.25544279
5ec454e23d68ea32ee554d12,80,1,2024-02-24T09:21:46.494Z,french_870.wav,0,poule,511,38,4,5,Français,f,3,0.25666667,-4.48390189,0.09184868
5ec454e23d68ea32ee554d12,81,1,2024-02-24T09:21:46.494Z,french_661.wav,0,poule,238,38,4,5,Français,f,0,0.0,34.1047988,1.29957539
5ec454e23d68ea32ee554d12,81,1,2024-02-24T09:21:46.494Z,french_661.wav,0,poule,238,38,4,5,Français,f,1,0.1,-45.42737183,0.81809843
5ec454e23d68ea32ee554d12,81,1,2024-02-24T09:21:46.494Z,french_661.wav,0,poule,238,38,4,5,Français,f,2,0.2,-32.96226792,1.39938296
5ec454e23d68ea32ee554d12,81,1,2024-02-24T09:21:46.494Z,french_661.wav,0,poule,238,38,4,5,Français,f,3,0.25666667,51.87575508,1.33634107
5ec454e23d68ea32ee554d12,82,1,2024-02-24T09:21:46.494Z,french_289.wav,0,pull,1314,38,4,5,Français,f,0,0.0,-36.76000605,0.0295717
5ec454e23d68ea32ee554d12,82,1,2024-02-24T09:21:46.494Z,french_289.wav,0,pull,1314,38,4,5,Français,f,1,0.1,10.32506406,0.30354321
5ec454e23d68ea32ee554d12,82,1,2024-02-24T09:21:46.494Z,french_289.wav,0,pull,1314,38,4,5,Français,f,2,0.2,-63.16699613,0.64873245
5ec454e23d68ea32ee554d12,82,1,2024-02-24T09:21:46.494Z,french_289.wav,0,pull,1314,38,4,5,Français,f,3,0.25666667,44.4452875,1.33679234
5ec454e23d68ea32ee554d12,83,1,2024-02-24T09:21:46.494Z,french_877.wav,0,poule,421,38,4,5,Français,f,0,0.0,-23.96574217,0.96253444
5ec454e23d68ea32ee554d12,83,1,2024-02-24T09:21:46.494Z,french_877.wav,0,poule,421,38,4,5,Français,f,1,0.1,51.07186547,1.01009898
5ec454e23d68ea32ee554d12,83,1,2024-02-24T09:21:46.494Z,french_877.wav,0,poule,421,38,4,5,Français,f,2,0.2,26.38223439,1.26042149
5ec454e23d68ea32ee554d12,83,1,2024-02-24T09:21:46.494Z,french_877.wav,0,poule,421,38,4,5,Français,f,3,0.25666667,57.01482149,0.37917076
5ec454e23d68ea32ee554d12,84,1,2024-02-24T09:21:46.494Z,french_79.wav,0,poule,262,38,4,5,Français,f,0,0.0,-17.81057473,1.07647634
5ec454e23d68ea32ee554d12,84,1,2024-02-24T09:21:46.494Z,french_79.wav,0,poule,262,38,4,5,Français,f,1,0.1,-79.49788956,0.19758175
5ec454e23d68ea32ee554d12,84,1,2024-02-24T09:21:46.494Z,french_79.wav,0,poule,262,38,4,5,Français,f,2,0.2,21.64031361,1.4893643
5ec454e23d68ea32ee554d12,84,1,2024-02-24T09:21:46.494Z,french_79.wav,0,poule,262,38,4,5,Français,f,3,0.25666667,9.8962074,1.60982877
5ec454e23d68ea32ee554d12,85,1,2024-02-24T09:21:46.494Z,french_725.wav,0,poule,446,38,4,5,Français,f,0,0.0,61.28532458,0.86285292
5ec454e23d68ea32ee554d12,85,1,2024-02-24T09:21:46.494Z,french_725.wav,0,poule,446,38,4,5,Français,f,1,0.1,25.43953492,0.5175718
5ec454e23d68ea32ee554d12,85,1,2024-02-24T09:21:46.494Z,french_725.wav,0,poule,446,38,4,5,Français,f,2,0.2,31.92964858,1.72668514
5ec454e23d68ea32ee554d12,85,1,2024-02-24T09:21:46.494Z,french_725.wav,0,poule,446,38,4,5,Français,f,3,0.25666667,-96.80759498,1.79225728
5ec454e23d68ea32ee554d12,86,1,2024-02-24T09:21:46.494Z,french_310.wav,0,poule,523,38,4,5,Français,f,0,0.0,-83.78338178,0.11877442
5ec454e23d68ea32ee554d12,86,1,2024-02-24T09:21:46.494Z,french_310.wav,0,poule,523,38,4,5,Français,f,1,0.1,-13.73891655,1.32851017
5ec454e23d68ea32ee554d12,86,1,2024-02-24T09:21:46.494Z,french_310.wav,0,poule,523,38,4,5,Français,f,2,0.2,58.07821313,0.76082745
5ec454e23d68ea32ee554d12,86,1,2024-02-24T09:21:46.494Z,french_310.wav,0,poule,523,38,4,5,Français,f,3,0.25666667,26.26954934,1.37378881
5ec454e23d68ea32ee554d12,87,1,2024-02-24T09:21:46.494Z,french_509.wav,0,poule,1936,38,4,5,Français,f,0,0.0,98.86127545,0.38470371
5ec454e23d68ea32ee554d12,87,1,2024-02-24T09:21:46.494Z,french_509.wav,0,poule,1936,38,4,5,Français,f,1,0.1,-58.47415861,0.77077576
5ec454e23d68ea32ee554d12,87,1,2024-02-24T09:21:46.494Z,french_509.wav,0,poule,1936,38,4,5,Français,f,2,0.2,23.95425933,1.30836253
5ec454e23d68ea32ee554d12,87,1,2024-02-24T09:21:46.494Z,french_509.wav,0,poule,1936,38,4,5,Français,f,3,0.25666667,74.34097669,1.2187589
5ec454e23d68ea32ee554d12,88,1,2024-02-24T09:21:46.494Z,french_312.wav,0,poule,731,38,4,5,Français,f,0,0.0,-19.98952993,1.92157149
5ec454e23d68ea32ee554d12,88,1,2024-02-24T09:21:46.494Z,french_312.wav,0,poule,731,38,4,5,Français,f,1,0.1,50.70617954,0.53263035
5ec454e23d68ea32ee554d12,88,1,2024-02-24T09:21:46.494Z,french_312.wav,0,poule,731,38,4,5,Français,f,2,0.2,80.27383631,1.8452111
5ec454e23d68ea32ee554d12,88,1,2024-02-24T09:21:46.494Z,french_312.wav,0,poule,731,38,4,5,Français,f,3,0.25666667,31.55502425,1.73122835
5ec454e23d68ea32ee554d12,89,1,2024-02-24T09:21:46.494Z,french_732.wav,0,poule,976,38,4,5,Français,f,0,0.0,-82.9393053,0.90840431
5ec454e23d68ea32ee554d12,89,1,2024-02-24T09:21:46.494Z,french_732.wav,0,poule,976,38,4,5,Français,f,1,0.1,-79.22735873,0.47468339
5ec454e23d68ea32ee554d12,89,1,2024-02-24T09:21:46.494Z,french_732.wav,0,poule,976,38,4,5,Français,f,2,0.2,-67.09796721,1.61768905
5ec454e23d68ea32ee554d12,89,1,2024-02-24T09:21:46.494Z,french_732.wav,0,poule,976,38,4,5,Français,f,3,0.25666667,35.15971491,1.44596926
5ec454e23d68ea32ee554d12,90,1,2024-02-24T09:21:46.494Z,french_248.wav,0,poule,499,38,4,5,Français,f,0,0.0,-72.14952141,0.31572296
5ec454e23d68ea32ee554d12,90,1,2024-02-24T09:21:46.494Z,french_248.wav,0,poule,499,38,4,5,Français,f,1,0.1,-0.62089361,0.98183681
5ec454e23d68ea32ee554d12,90,1,2024-02-24T09:21:46.494Z,french_248.wav,0,poule,499,38,4,5,Français,f,2,0.2,-1.54726874,1.57355183
5ec454e23d68ea32ee554d12,90,1,2024-02-24T09:21:46.494Z,french_248.wav,0,poule,499,38,4,5,Français,f,3,0.25666667,-50.42909266,0.39982355
5ec454e23d68ea32ee554d12,91,1,2024-02-24T09:21:46.494Z,french_235.wav,0,pull,1058,38,4,5,Français,f,0,0.0,-56.36701875,1.31563667
5ec454e23d68ea32ee554d12,91,1,2024-02-24T09:21:46.494Z,french_235.wav,0,pull,1058,38,4,5,Français,f,1,0.1,-33.99236587,1.74570455
5ec454e23d68ea32ee554d12,91,1,2024-02-24T09:21:46.494Z,french_235.wav,0,pull,1058,38,4,5,Français,f,2,0.2,5.32608114,1.41652928
5ec454e23d68ea32ee554d12,91,1,2024-02-24T09:21:46.494Z,french_235.wav,0,pull,1058,38,4,5,Français,f,3,0.25666667,-55.46298983,0.87975081
5ec454e23d68ea32ee554d12,92,1,2024-02-24T09:21:46.494Z,french_795.wav,0,pull,460,38,4,5,Français,f,0,0.0,33.06955163,0.26323542
5ec454e23d68ea32ee554d12,92,1,2024-02-24T09:21:46.494Z,french_795.wav,0,pull,460,38,4,5,Français,f,1,0.1,99.3644883,0.35684642
5ec454e23d68ea32ee554d12,92,1,2024-02-24T09:21:46.494Z,french_795.wav,0,pull,460,38,4,5,Français,f,2,0.2,-80.69510174,0.7045199
5ec454e23d68ea32ee554d12,92,1,2024-02-24T09:21:46.494Z,french_795.wav,0,pull,460,38,4,5,Français,f,3,0.25666667,67.54375124,0.58342204
5ec454e23d68ea32ee554d12,93,1,2024-02-24T09:21:46.494Z,french_938.wav,0,poule,287,38,4,5,Français,f,0,0.0,-81.44382825,1.9747372
5ec454e23d68ea32ee554d12,93,1,2024-02-24T09:21:46.494Z,french_938.wav,0,poule,287,38,4,5,Français,f,1,0.1,70.63637201,1.46978645
5ec454e23d68ea32ee554d12,93,1,2024-02-24T09:21:46.494Z,french_938.wav,0,poule,287,38,4,5,Français,f,2,0.2,29.19185054,1.77157462
5ec454e23d68ea32ee554d12,93,1,2024-02-24T09:21:46.494Z,french_938.wav,0,poule,287,38,4,5,Français,f,3,0.25666667,62.72928817,1.30296517
5ec454e23d68ea32ee554d12,94,1,2024-02-24T09:21:46.494Z,french_284.wav,0,poule,543,38,4,5,Français,f,0,0.0,9.11616736,0.794635
5ec454e23d68ea32ee554d12,94,1,2024-02-24T09:21:46.494Z,french_284.wav,0,poule,543,38,4,5,Français,f,1,0.1,1.28278273,0.64071903
5ec454e23d68ea32ee554d12,94,1,2024-02-24T09:21:46.494Z,french_284.wav,0,poule,543,38,4,5,Français,f,2,0.2,64.48623036,0.85736223
5ec454e23d68ea32ee554d12,94,1,2024-02-24T09:21:46.494Z,french_284.wav,0,poule,543,38,4,5,Français,f,3,0.25666667,-18.83957989,1.30798049
5ec454e23d68ea32ee554d12,95,1,2024-02-24T09:21:46.494Z,french_111.wav,0,pull,519,38,4,5,Français,f,0,0.0,1.59326178,0.67104434
5ec454e23d68ea32ee554d12,95,1,2024-02-24T09:21:46.494Z,french_111.wav,0,pull,519,38,4,5,Français,f,1,0.1,-40.8911656,0.22448148
5ec454e23d68ea32ee554d12,95,1,2024-02-24T09:21:46.494Z,french_111.wav,0,pull,519,38,4,5,Français,f,2,0.2,-66.59771714,1.3255008
5ec454e23d68ea32ee554d12,95,1,2024-02-24T09:21:46.494Z,french_111.wav,0,pull,519,38,4,5,Français,f,3,0.25666667,93.67842788,0.49085037
5ec454e23d68ea32ee554d12,96,1,2024-02-24T09:21:46.494Z,french_664.wav,0,poule,240,38,4,5,Français,f,0,0.0,-2.08032019,1.43741932
5ec454e23d68ea32ee554d12,96,1,2024-02-24T09:21:46.494Z,french_664.wav,0,poule,240,38,4,5,Français,f,1,0.1,-67.02716902,1.07099048
5ec454e23d68ea32ee554d12,96,1,2024-02-24T09:21:46.494Z,french_664.wav,0,poule,240,38,4,5,Français,f,2,0.2,95.17650789,1.92774669
5ec454e23d68ea32ee554d12,96,1,2024-02-24T09:21:46.494Z,french_664.wav,0,poule,240,38,4,5,Français,f,3,0.25666667,-41.34718039,0.70027683
5ec454e23d68ea32ee554d12,97,1,2024-02-24T09:21:46.494Z,french_900.wav,0,poule,530,38,4,5,Français,f,0,0.0,-40.26137712,1.52095516
5ec454e23d68ea32ee554d12,97,1,2024-02-24T09:21:46.494Z,french_900.wav,0,poule,530,38,4,5,Français,f,1,0.1,-58.52959628,0.45545329
5ec454e23d68ea32ee554d12,97,1,2024-02-24T09:21:46.494Z,french_900.wav,0,poule,530,38,4,5,Français,f,2,0.2,-9.02711279,1.45244251
5ec454e23d68ea32ee554d12,97,1,2024-02-24T09:21:46.494Z,french_900.wav,0,poule,530,38,4,5,Français,f,3,0.25666667,-16.09488558,1.49180456
5ec454e23d68ea32ee554d12,98,1,2024-02-24T09:21:46.494Z,french_436.wav,0,pull,725,38,4,5,Français,f,0,0.0,21.52139078,0.27861971
5ec454e23d68ea32ee554d12,98,1,2024-02-24T09:21:46.494Z,french_436.wav,0,pull,725,38,4,5,Français,f,1,0.1,91.02122448,0.31750307
5ec454e23d68ea32ee554d12,98,1,2024-02-24T09:21:46.494Z,french_436.wav,0,pull,725,38,4,5,Français,f,2,0.2,28.53627776,0.35857003
5ec454e23d68ea32ee554d12,98,1,2024-02-24T09:21:46.494Z,french_436.wav,0,pull,725,38,4,5,Français,f,3,0.25666667,-78.88687792,1.70163595
5ec454e23d68ea32ee554d12,99,1,2024-02-24T09:21:46.494Z,french_954.wav,0,pull,1137,38,4,5,Français,f,0,0.0,-31.81965022,1.69468269
5ec454e23d68ea32ee554d12,99,1,2024-02-24T09:21:46.494Z,french_954.wav,0,pull,1137,38,4,5,Français,f,1,0.1,82.90828133,0.7734121
5ec454e23d68ea32ee554d12,99,1,2024-02-24T09:21:46.494Z,french_954.wav,0,pull,1137,38,4,5,Français,f,2,0.2,94.68318648,0.43346946
5ec454e23d68ea32ee554d12,99,1,2024-02-24T09:21:46.494Z,french_954.wav,0,pull,1137,38,4,5,Français,f,3,0.25666667,-42.01635115,0.14112827
5ec454e23d68ea32ee554d12,100,2,2024-02-24T09:21:46.494Z,french_361.wav,0,poule,621,38,4,5,Français,f,0,0.0,-18.04801315,1.02641127
5ec454e23d68ea32ee554d12,100,2,2024-02-24T09:21:46.494Z,french_361.wav,0,poule,621,38,4,5,Français,f,1,0.1,93.73679052,0.21625505
5ec454e23d68ea32ee554d12,100,2,2024-02-24T09:21:46.494Z,french_361.wav,0,poule,621,38,4,5,Français,f,2,0.2,42.88870655,1.63254817
5ec454e23d68ea32ee554d12,100,2,2024-02-24T09:21:46.494Z,french_361.wav,0,poule,621,38,4,5,Français,f,3,0.25666667,45.1087167,0.1659632
5ec454e23d68ea32ee554d12,101,2,2024-02-24T09:21:46.494Z,french_794.wav,0,poule,625,38,4,5,Français,f,0,0.0,-41.85324617,0.4524196
5ec454e23d68ea32ee554d12,101,2,2024-02-24T09:21:46.494Z,french_794.wav,0,poule,625,38,4,5,Français,f,1,0.1,1.64774739,1.94571184
5ec454e23d68ea32ee554d12,101,2,2024-02-24T09:21:46.494Z,french_794.wav,0,poule,625,38,4,5,Français,f,2,0.2,-16.9250465,1.39882797
5ec454e23d68ea32ee554d12,101,2,2024-02-24T09:21:46.494Z,french_794.wav,0,poule,625,38,4,5,Français,f,3,0.25666667,-47.53807225,0.19962905
5ec454e23d68ea32ee554d12,102,2,2024-02-24T09:21:46.494Z,french_163.wav,0,poule,321,38,4,5,Français,f,0,0.0,95.00435891,1.26837246
5ec454e23d68ea32ee554d12,102,2,2024-02-24T09:21:46.494Z,french_163.wav,0,poule,321,38,4,5,Français,f,1,0.1,41.67922454,0.25754486
5ec454e23d68ea32ee554d12,102,2,2024-02-24T09:21:46.494Z,french_163.wav,0,poule,321,38,4,5,Français,f,2,0.2,-79.43338234,1.96804031
5ec454e23d68ea32ee554d12,102,2,2024-02-24T09:21:46.494Z,french_163.wav,0,poule,321,38,4,5,Français,f,3,0.25666667,-47.45672342,0.46721947
5ec454e23d68ea32ee554d12,103,2,2024-02-24T09:21:46.494Z,french_925.wav,0,poule,1090,38,4,5,Français,f,0,0.0,-30.51780923,1.09841649
5ec454e23d68ea32ee554d12,103,2,2024-02-24T09:21:46.494Z,french_925.wav,0,poule,1090,38,4,5,Français,f,1,0.1,35.11933452,0.05099013
5ec454e23d68ea32ee554d12,103,2,2024-02-24T09:21:46.494Z,french_925.wav,0,poule,1090,38,4,5,Français,f,2,0.2,-97.7648117,1.83429048
5ec454e23d68ea32ee554d12,103,2,2024-02-24T09:21:46.494Z,french_925.wav,0,poule,1090,38,4,5,Français,f,3,0.25666667,-62.39495561,1.66107303
5ec454e23d68ea32ee554d12,104,2,2024-02-24T09:21:46.494Z,french_67.wav,0,pull,263,38,4,5,Français,f,0,0.0,-85.58948589,0.63200809
5ec454e23d68ea32ee554d12,104,2,2024-02-24T09:21:46.494Z,french_67.wav,0,pull,263,38,4,5,Français,f,1,0.1,13.09838054,1.95867716
5ec454e23d68ea32ee554d12,104,2,2024-02-24T09:21:46.494Z,french_67.wav,0,pull,263,38,4,5,Français,f,2,0.2,-56.56906679,0.48937635
5ec454e23d68ea32ee554d12,104,2,2024-02-24T09:21:46.494Z,french_67.wav,0,pull,263,38,4,5,Français,f,3,0.25666667,57.4599261,1.24156625
5ec454e23d68ea32ee554d12,105,2,2024-02-24T09:21:46.494Z,french_539.wav,0,poule,345,38,4,5,Français,f,0,0.0,-25.67038427,1.25415191
5ec454e23d68ea32ee554d12,105,2,2024-02-24T09:21:46.494Z,french_539.wav,0,poule,345,38,4,5,Français,f,1,0.1,48.64308398,1.80742897
5ec454e23d68ea32ee554d12,105,2,2024-02-24T09:21:46.494Z,french_539.wav,0,poule,345,38,4,5,Français,f,2,0.2,-77.82337419,1.66801057
5ec454e23d68ea32ee554d12,105,2,2024-02-24T09:21:46.494Z,french_539.wav,0,poule,345,38,4,5,Français,f,3,0.25666667,-42.20378119,0.618258
5ec454e23d68ea32ee554d12,106,2,2024-02-24T09:21:46.494Z,french_245.wav,0,poule,626,38,4,5,Français,f,0,0.0,-61.74573417,0.99313774
5ec454e23d68ea32ee554d12,106,2,2024-02-24T09:21:46.494Z,french_245.wav,0,poule,626,38,4,5,Français,f,1,0.1,71.88692077,1.19752892
5ec454e23d68ea32ee554d12,106,2,2024-02-24T09:21:46.494Z,french_245.wav,0,poule,626,38,4,5,Français,f,2,0.2,-28.60272728,1.585112
5ec454e23d68ea32ee554d12,106,2,2024-02-24T09:21:46.494Z,french_245.wav,0,poule,626,38,4,5,Français,f,3,0.25666667,-6.96353839,1.16753586
5ec454e23d68ea32ee554d12,107,2,2024-02-24T09:21:46.494Z,french_720.wav,0,poule,535,38,4,5,Français,f,0,0.0,-84.90658582,1.45299565
5ec454e23d68ea32ee554d12,107,2,2024-02-24T09:21:46.494Z,french_720.wav,0,poule,535,38,4,5,Français,f,1,0.1,42.34331668,1.58494494
5ec454e23d68ea32ee554d12,107,2,2024-02-24T09:21:46.494Z,french_720.wav,0,poule,535,38,4,5,Français,f,2,0.2,-51.84568825,1.67187292
5ec454e23d68ea32ee554d12,107,2,2024-02-24T09:21:46.494Z,french_720.wav,0,poule,535,38,4,5,Français,f,3,0.25666667,70.93496883,0.90000718
5ec454e23d68ea32ee554d12,108,2,2024-02-24T09:21:46.494Z,french_537.wav,0,poule,456,38,4,5,Français,f,0,0.0,24.94182708,0.83905816
5ec454e23d68ea32ee554d12,108,2,2024-02-24T09:21:46.494Z,french_537.wav,0,poule,456,38,4,5,Français,f,1,0.1,44.89034985,0.4078644
5ec454e23d68ea32ee554d12,108,2,2024-02-24T09:21:46.494Z,french_537.wav,0,poule,456,38,4,5,Français,f,2,0.2,79.4977598,1.66123527
5ec454e23d68ea32ee554d12,108,2,2024-02-24T09:21:46.494Z,french_537.wav,0,poule,456,38,4,5,Français,f,3,0.25666667,43.46988515,0.90238518
5ec454e23d68ea32ee554d12,109,2,2024-02-24T09:21:46.494Z,french_595.wav,0,poule,319,38,4,5,Français,f,0,0.0,-73.15061419,1.40746522
5ec454e23d68ea32ee554d12,109,2,2024-02-24T09:21:46.494Z,french_595.wav,0,poule,319,38,4,5,Français,f,1,0.1,67.23643261,0.48150889
5ec454e23d68ea32ee554d12,109,2,2024-02-24T09:21:46.494Z,french_595.wav,0,poule,319,38,4,5,Français,f,2,0.2,29.33444659,0.65461581
5ec454e23d68ea32ee554d12,109,2,2024-02-24T09:21:46.494Z,french_595.wav,0,poule,319,38,4,5,Français,f,3,0.25666667,-65.67909684,0.62395538
5ec454e23d68ea32ee554d12,110,2,2024-02-24T09:21:46.494Z,french_17.wav,0,pull,588,38,4,5,Français,f,0,0.0,61.86852427,1.05769551
5ec454e23d68ea32ee554d12,110,2,2024-02-24T09:21:46.494Z,french_17.wav,0,pull,588,38,4,5,Français,f,1,0.1,14.81642836,0.81667418
5ec454e23d68ea32ee554d12,110,2,2024-02-24T09:21:46.494Z,french_17.wav,0,pull,588,38,4,5,Français,f,2,0.2,-8.48865215,0.51249479
5ec454e23d68ea32ee554d12,110,2,2024-02-24T09:21:46.494Z,french_17.wav,0,pull,588,38,4,5,Français,f,3,0.25666667,71.68336874,0.29939213
5ec454e23d68ea32ee554d12,111,2,2024-02-24T09:21:46.494Z,french_449.wav,0,pull,446,38,4,5,Français,f,0,0.0,49.95404734,0.88379096
5ec454e23d68ea32ee554d12,111,2,2024-02-24T09:21:46.494Z,french_449.wav,0,pull,446,38,4,5,Français,f,1,0.1,-42.73933853,1.13878319
5ec454e23d68ea32ee554d12,111,2,2024-02-24T09:21:46.494Z,french_449.wav,0,pull,446,38,4,5,Français,f,2,0.2,16.44287486,0.43325684
5ec454e23d68ea32ee554d12,111,2,2024-02-24T09:21:46.494Z,french_449.wav,0,pull,446,38,4,5,Français,f,3,0.25666667,-12.34539139,0.01727343
5ec454e23d68ea32ee554d12,112,2,2024-02-24T09:21:46.494Z,french_698.wav,0,poule,593,38,4,5,Français,f,0,0.0,77.87531809,1.86418809
5ec454e23d68ea32ee554d12,112,2,2024-02-24T09:21:46.494Z,french_698.wav,0,poule,593,38,4,5,Français,f,1,0.1,-26.89699032,0.30357323
5ec454e23d68ea32ee554d12,112,2,2024-02-24T09:21:46.494Z,french_698.wav,0,poule,593,38,4,5,Français,f,2,0.2,-54.93316964,1.97458381
5ec454e23d68ea32ee554d12,112,2,2024-02-24T09:21:46.494Z,french_698.wav,0,poule,593,38,4,5,Français,f,3,0.25666667,-94.94644501,1.01877906
5ec454e23d68ea32ee554d12,113,2,2024-02-24T09:21:46.494Z,french_334.wav,0,pull,899,38,4,5,Français,f,0,0.0,40.44836216,0.13212964
5ec454e23d68ea32ee554d12,113,2,2024-02-24T09:21:46.494Z,french_334.wav,0,pull,899,38,4,5,Français,f,1,0.1,-67.56280837,0.74019732
5ec454e23d68ea32ee554d12,113,2,2024-02-24T09:21:46.494Z,french_334.wav,0,pull,899,38,4,5,Français,f,2,0.2,-28.73514643,0.72240648
5ec454e23d68ea32ee554d12,113,2,2024-02-24T09:21:46.494Z,french_334.wav,0,pull,899,38,4,5,Français,f,3,0.25666667,-49.63309354,0.47162208
5ec454e23d68ea32ee554d12,114,2,2024-02-24T09:21:46.494Z,french_168.wav,0,pull,538,38,4,5,Français,f,0,0.0,-23.56976883,0.91307932
5ec454e23d68ea32ee554d12,114,2,2024-02-24T09:21:46.494Z,french_168.wav,0,pull,538,38,4,5,Français,f,1,0.1,67.89102786,0.95001528
5ec454e23d68ea32ee554d12,114,2,2024-02-24T09:21:46.494Z,french_168.wav,0,pull,538,38,4,5,Français,f,2,0.2,12.82073925,0.95057972
5ec454e23d68ea32ee554d12,114,2,2024-02-24T09:21:46.494Z,french_168.wav,0,pull,538,38,4,5,Français,f,3,0.25666667,-47.11825728,1.60486422
5ec454e23d68ea32ee554d12,115,2,2024-02-24T09:21:46.494Z,french_604.wav,0,pull,470,38,4,5,Français,f,0,0.0,-11.11210875,1.64316359
5ec454e23d68ea32ee554d12,115,2,2024-02-24T09:21:46.494Z,french_604.wav,0,pull,470,38,4,5,Français,f,1,0.1,-13.90326971,0.56968283
5ec454e23d68ea32ee554d12,115,2,2024-02-24T09:21:46.494Z,french_604.wav,0,pull,470,38,4,5,Français,f,2,0.2,-78.59226075,1.3955722
5ec454e23d68ea32ee554d12,115,2,2024-02-24T09:21:46.494Z,french_604.wav,0,pull,470,38,4,5,Français,f,3,0.25666667,87.42620436,0.51982143
5ec454e23d68ea32ee554d12,116,2,2024-02-24T09:21:46.494Z,french_881.wav,0,poule,445,38,4,5,Français,f,0,0.0,-25.82648211,0.15296837
5ec454e23d68ea32ee554d12,116,2,2024-02-24T09:21:46.494Z,french_881.wav,0,poule,445,38,4,5,Français,f,1,0.1,13.08751975,1.42149925
5ec454e23d68ea32ee554d12,116,2,2024-02-24T09:21:46.494Z,french_881.wav,0,poule,445,38,4,5,Français,f,2,0.2,-84.06590477,1.29281362
5ec454e23d68ea32ee554d12,116,2,2024-02-24T09:21:46.494Z,french_881.wav,0,poule,445,38,4,5,Français,f,3,0.25666667,-28.7935441,1.41538706
5ec454e23d68ea32ee554d12,117,2,2024-02-24T09:21:46.494Z,french_601.wav,0,poule,456,38,4,5,Français,f,0,0.0,57.33302671,0.25823262
5ec454e23d68ea32ee554d12,117,2,2024-02-24T09:21:46.494Z,french_601.wav,0,poule,456,38,4,5,Français,f,1,0.1,78.53356314,0.70648058
5ec454e23d68ea32ee554d12,117,2,2024-02-24T09:21:46.494Z,french_601.wav,0,poule,456,38,4,5,Français,f,2,0.2,-65.46800755,1.49897987
5ec454e23d68ea32ee554d12,117,2,2024-02-24T09:21:46.494Z,french_601.wav,0,poule,456,38,4,5,Français,f,3,0.25666667,15.04245158,0.53904812
5ec454e23d68ea32ee554d12,118,2,2024-02-24T09:21:46.494Z,french_986.wav,0,pull,404,38,4,5,Français,f,0,0.0,-69.96795985,1.93285955
5ec454e23d68ea32ee554d12,118,2,2024-02-24T09:21:46.494Z,french_986.wav,0,pull,404,38,4,5,Français,f,1,0.1,-65.30377544,1.55838575
5ec454e23d68ea32ee554d12,118,2,2024-02-24T09:21:46.494Z,french_986.wav,0,pull,404,38,4,5,Français,f,2,0.2,27.38987225,0.12645153
5ec454e23d68ea32ee554d12,118,2,2024-02-24T09:21:46.494Z,french_986.wav,0,pull,404,38,4,5,Français,f,3,0.25666667,-55.80740264,0.78072242
5ec454e23d68ea32ee554d12,119,2,2024-02-24T09:21:46.494Z,french_521.wav,0,pull,1006,38,4,5,Français,f,0,0.0,11.04386286,1.73052604
5ec454e23d68ea32ee554d12,119,2,2024-02-24T09:21:46.494Z,french_521.wav,0,pull,1006,38,4,5,Français,f,1,0.1,-55.65083084,0.96564678
5ec454e23d68ea32ee554d12,119,2,2024-02-24T09:21:46.494Z,french_521.wav,0,pull,1006,38,4,5,Français,f,2,0.2,98.93037095,1.35299162
5ec454e23d68ea32ee554d12,119,2,2024-02-24T09:21:46.494Z,french_521.wav,0,pull,1006,38,4,5,Français,f,3,0.25666667,14.06437892,1.41353716
5ec454e23d68ea32ee554d12,120,2,2024-02-24T09:21:46.494Z,french_442.wav,0,pull,707,38,4,5,Français,f,0,0.0,60.29330972,0.95088916
5ec454e23d68ea32ee554d12,120,2,2024-02-24T09:21:46.494Z,french_442.wav,0,pull,707,38,4,5,Français,f,1,0.1,96.30587546,0.89420653
5ec454e23d68ea32ee554d12,120,2,2024-02-24T09:21:46.494Z,french_442.wav,0,pull,707,38,4,5,Français,f,2,0.2,3.75375275,0.09745987
5ec454e23d68ea32ee554d12,120,2,2024-02-24T09:21:46.494Z,french_442.wav,0,pull,707,38,4,5,Français,f,3,0.25666667,65.23357012,0.42759775
5ec454e23d68ea32ee554d12,121,2,2024-02-24T09:21:46.494Z,french_914.wav,0,poule,403,38,4,5,Français,f,0,0.0,-34.97252921,0.97835832
5ec454e23d68ea32ee554d12,121,2,2024-02-24T09:21:46.494Z,french_914.wav,0,poule,403,38,4,5,Français,f,1,0.1,-72.63984802,0.99245682
5ec454e23d68ea32ee554d12,121,2,2024-02-24T09:21:46.494Z,french_914.wav,0,poule,403,38,4,5,Français,f,2,0.2,-17.99574982,1.64333977
5ec454e23d68ea32ee554d12,121,2,2024-02-24T09:21:46.494Z,french_914.wav,0,poule,403,38,4,5,Français,f,3,0.25666667,97.045673,1.63101446
5ec454e23d68ea32ee554d12,122,2,2024-02-24T09:21:46.494Z,french_579.wav,0,pull,664,38,4,5,Français,f,0,0.0,43.6749768,0.88309836
5ec454e23d68ea32ee554d12,122,2,2024-02-24T09:21:46.494Z,french_579.wav,0,pull,664,38,4,5,Français,f,1,0.1,44.80331973,0.15383342
5ec454e23d68ea32ee554d12,122,2,2024-02-24T09:21:46.494Z,french_579.wav,0,pull,664,38,4,5,Français,f,2,0.2,80.34685553,0.11279804
5ec454e23d68ea32ee554d12,122,2,2024-02-24T09:21:46.494Z,french_579.wav,0,pull,664,38,4,5,Français,f,3,0.25666667,-77.70594339,1.88524282
5ec454e23d68ea32ee554d12,123,2,2024-02-24T09:21:46.494Z,french_650.wav,0,pull,1527,38,4,5,Français,f,0,0.0,-98.04674504,0.50091073
5ec454e23d68ea32ee554d12,123,2,2024-02-24T09:21:46.494Z,french_650.wav,0,pull,1527,38,4,5,Français,f,1,0.1,-80.1546697,0.94744897
5ec454e23d68ea32ee554d12,123,2,2024-02-24T09:21:46.494Z,french_650.wav,0,pull,1527,38,4,5,Français,f,2,0.2,-60.9727692,0.76656919
5ec454e23d68ea32ee554d12,123,2,2024-02-24T09:21:46.494Z,french_650.wav,0,pull,1527,38,4,5,Français,f,3,0.25666667,39.39299736,1.29747512
5ec454e23d68ea32ee554d12,124,2,2024-02-24T09:21:46.494Z,french_306.wav,0,pull,871,38,4,5,Français,f,0,0.0,22.4772117,0.91979461
5ec454e23d68ea32ee554d12,124,2,2024-02-24T09:21:46.494Z,french_306.wav,0,pull,871,38,4,5,Français,f,1,0.1,-23.30683659,1.83006101
5ec454e23d68ea32ee554d12,124,2,2024-02-24T09:21:46.494Z,french_306.wav,0,pull,871,38,4,5,Français,f,2,0.2,-85.44667034,1.25602607
5ec454e23d68ea32ee554d12,124,2,2024-02-24T09:21:46.494Z,french_306.wav,0,pull,871,38,4,5,Français,f,3,0.25666667,-79.47374411,0.84497865
5ec454e23d68ea32ee554d12,125,2,2024-02-24T09:21:46.494Z,french_380.wav,0,poule,259,38,4,5,Français,f,0,0.0,24.49292531,0.14533116
5ec454e23d68ea32ee554d12,125,2,2024-02-24T09:21:46.494Z,french_380.wav,0,poule,259,38,4,5,Français,f,1,0.1,-93.89933718,1.07880785
5ec454e23d68ea32ee554d12,125,2,2024-02-24T09:21:46.494Z,french_380.wav,0,poule,259,38,4,5,Français,f,2,0.2,-85.93529796,1.01737492
5ec454e23d68ea32ee554d12,125,2,2024-02-24T09:21:46.494Z,french_380.wav,0,poule,259,38,4,5,Français,f,3,0.25666667,58.85582409,1.87499145
5ec454e23d68ea32ee554d12,126,2,2024-02-24T09:21:46.494Z,french_972.wav,0,pull,801,38,4,5,Français,f,0,0.0,10.38102426,0.90840989
5ec454e23d68ea32ee554d12,126,2,2024-02-24T09:21:46.494Z,french_972.wav,0,pull,801,38,4,5,Français,f,1,0.1,-66.54271468,1.6485676
5ec454e23d68ea32ee554d12,126,2,2024-02-24T09:21:46.494Z,french_972.wav,0,pull,801,38,4,5,Français,f,2,0.2,-2.89265523,0.79956718
5ec454e23d68ea32ee554d12,126,2,2024-02-24T09:21:46.494Z,french_972.wav,0,pull,801,38,4,5,Français,f,3,0.25666667,-87.42126356,1.28352811
5ec454e23d68ea32ee554d12,127,2,2024-02-24T09:21:46.494Z,french_843.wav,0,pull,1359,38,4,5,Français,f,0,0.0,13.6803361,0.65425976
5ec454e23d68ea32ee554d12,127,2,2024-02-24T09:21:46.494Z,french_843.wav,0,pull,1359,38,4,5,Français,f,1,0.1,92.02668438,1.47814853
5ec454e23d68ea32ee554d12,127,2,2024-02-24T09:21:46.494Z,french_843.wav,0,pull,1359,38,4,5,Français,f,2,0.2,-93.52604538,0.78236369
5ec454e23d68ea32ee554d12,127,2,2024-02-24T09:21:46.494Z,french_843.wav,0,pull,1359,38,4,5,Français,f,3,0.25666667,-12.7136852,0.52413001
5ec454e23d68ea32ee554d12,128,2,2024-02-24T09:21:46.494Z,french_462.wav,0,poule,527,38,4,5,Français,f,0,0.0,-21.95394664,1.87011175
5ec454e23d68ea32ee554d12,128,2,2024-02-24T09:21:46.494Z,french_462.wav,0,poule,527,38,4,5,Français,f,1,0.1,40.83343907,1.54087482
5ec454e23d68ea32ee554d12,128,2,2024-02-24T09:21:46.494Z,french_462.wav,0,poule,527,38,4,5,Français,f,2,0.2,-14.27053038,0.9591328
5ec454e23d68ea32ee554d12,128,2,2024-02-24T09:21:46.494Z,french_462.wav,0,poule,527,38,4,5,Français,f,3,0.25666667,85.20745493,0.45105527
5ec454e23d68ea32ee554d12,129,2,2024-02-24T09:21:46.494Z,french_965.wav,0,poule,256,38,4,5,Français,f,0,0.0,40.44340114,0.70170615
5ec454e23d68ea32ee554d12,129,2,2024-02-24T09:21:46.494Z,french_965.wav,0,poule,256,38,4,5,Français,f,1,0.1,-11.08391972,1.63180194
5ec454e23d68ea32ee554d12,129,2,2024-02-24T09:21:46.494Z,french_965.wav,0,poule,256,38,4,5,Français,f,2,0.2,-2.7382686,1.33837455
5ec454e23d68ea32ee554d12,129,2,2024-02-24T09:21:46.494Z,french_965.wav,0,poule,256,38,4,5,Français,f,3,0.25666667,-30.15899093,1.47207372
5ec454e23d68ea32ee554d12,130,2,2024-02-24T09:21:46.494Z,french_353.wav,0,poule,1062,38,4,5,Français,f,0,0.0,-27.01804801,0.51521002
5ec454e23d68ea32ee554d12,130,2,2024-02-24T09:21:46.494Z,french_353.wav,0,poule,1062,38,4,5,Français,f,1,0.1,16.22716876,1.40915564
5ec454e23d68ea32ee554d12,130,2,2024-02-24T09:21:46.494Z,french_353.wav,0,poule,1062,38,4,5,Français,f,2,0.2,-38.75476954,1.13160084
5ec454e23d68ea32ee554d12,130,2,2024-02-24T09:21:46.494Z,french_353.wav,0,poule,1062,38,4,5,Français,f,3,0.25666667,38.92446625,0.21009684
5ec454e23d68ea32ee554d12,131,2,2024-02-24T09:21:46.494Z,french_232.wav,0,poule,273,38,4,5,Français,f,0,0.0,48.62304181,1.60041799
5ec454e23d68ea32ee554d12,131,2,2024-02-24T09:21:46.494Z,french_232.wav,0,poule,273,38,4,5,Français,f,1,0.1,-66.91586117,0.5698369
5ec454e23d68ea32ee554d12,131,2,2024-02-24T09:21:46.494Z,french_232.wav,0,poule,273,38,4,5,Français,f,2,0.2,-71.38800945,1.21368891
5ec454e23d68ea32ee554d12,131,2,2024-02-24T09:21:46.494Z,french_232.wav,0,poule,273,38,4,5,Français,f,3,0.25666667,32.42157584,1.05085576
5ec454e23d68ea32ee554d12,132,2,2024-02-24T09:21:46.494Z,french_606.wav,0,poule,361,38,4,5,Français,f,0,0.0,-20.93687271,1.9895698
5ec454e23d68ea32ee554d12,132,2,2024-02-24T09:21:46.494Z,french_606.wav,0,poule,361,38,4,5,Français,f,1,0.1,59.55385743,1.17728958
5ec454e23d68ea32ee554d12,132,2,2024-02-24T09:21:46.494Z,french_606.wav,0,poule,361,38,4,5,Français,f,2,0.2,61.58713619,1.48827242
5ec454e23d68ea32ee554d12,132,2,2024-02-24T09:21:46.494Z,french_606.wav,0,poule,361,38,4,5,Français,f,3,0.25666667,-92.8987734,0.79910733
5ec454e23d68ea32ee554d12,133,2,2024-02-24T09:21:46.494Z,french_636.wav,0,poule,530,38,4,5,Français,f,0,0.0,79.1724471,0.8082817
5ec454e23d68ea32ee554d12,133,2,2024-02-24T09:21:46.494Z,french_636.wav,0,poule,530,38,4,5,Français,f,1,0.1,25.25700376,1.50975093
5ec454e23d68ea32ee554d12,133,2,2024-02-24T09:21:46.494Z,french_636.wav,0,poule,530,38,4,5,Français,f,2,0.2,72.37529148,0.99206968
5ec454e23d68ea32ee554d12,133,2,2024-02-24T09:21:46.494Z,french_636.wav,0,poule,530,38,4,5,Français,f,3,0.25666667,12.21946345,0.17038819
5ec454e23d68ea32ee554d12,134,2,2024-02-24T09:21:46.494Z,french_407.wav,0,poule,377,38,4,5,Français,f,0,0.0,-57.6292462,1.8651924
5ec454e23d68ea32ee554d12,134,2,2024-02-24T09:21:46.494Z,french_407.wav,0,poule,377,38,4,5,Français,f,1,0.1,-25.10683904,1.55880725
5ec454e23d68ea32ee554d12,134,2,2024-02-24T09:21:46.494Z,french_407.wav,0,poule,377,38,4,5,Français,f,2,0.2,13.09742102,1.30220718
5ec454e23d68ea32ee554d12,134,2,2024-02-24T09:21:46.494Z,french_407.wav,0,poule,377,38,4,5,Français,f,3,0.25666667,-8.98604593,1.55663467
5ec454e23d68ea32ee554d12,135,2,2024-02-24T09:21:46.494Z,french_758.wav,0,poule,251,38,4,5,Français,f,0,0.0,45.30317447,1.53591398
5ec454e23d68ea32ee554d12,135,2,2024-02-24T09:21:46.494Z,french_758.wav,0,poule,251,38,4,5,Français,f,1,0.1,37.35504147,1.00413053
5ec454e23d68ea32ee554d12,135,2,2024-02-24T09:21:46.494Z,french_758.wav,0,poule,251,38,4,5,Français,f,2,0.2,-7.74982346,1.59140772
5ec454e23d68ea32ee554d12,135,2,2024-02-24T09:21:46.494Z,french_758.wav,0,poule,251,38,4,5,Français,f,3,0.25666667,-75.22654498,0.76456646
5ec454e23d68ea32ee554d12,136,2,2024-02-24T09:21:46.494Z,french_742.wav,0,pull,248,38,4,5,Français,f,0,0.0,70.50155873,0.93659897
5ec454e23d68ea32ee554d12,136,2,2024-02-24T09:21:46.494Z,french_742.wav,0,pull,248,38,4,5,Français,f,1,0.1,-40.99625843,1.14125333
5ec454e23d68ea32ee554d12,136,2,2024-02-24T09:21:46.494Z,french_742.wav,0,pull,248,38,4,5,Français,f,2,0.2,6.68379951,1.25957194
5ec454e23d68ea32ee554d12,136,2,2024-02-24T09:21:46.494Z,french_742.wav,0,pull,248,38,4,5,Français,f,3,0.25666667,-76.31698705,0.86761951
5ec454e23d68ea32ee554d12,137,2,2024-02-24T09:21:46.494Z,french_678.wav,0,pull,614,38,4,5,Français,f,0,0.0,8.99494286,0.31277465
5ec454e23d68ea32ee554d12,137,2,2024-02-24T09:21:46.494Z,french_678.wav,0,pull,614,38,4,5,Français,f,1,0.1,56.3447022,0.04822955
5ec454e23d68ea32ee554d12,137,2,2024-02-24T09:21:46.494Z,french_678.wav,0,pull,614,38,4,5,Français,f,2,0.2,-85.36803825,0.03738606
5ec454e23d68ea32ee554d12,137,2,2024-02-24T09:21:46.494Z,french_678.wav,0,pull,614,38,4,5,Français,f,3,0.25666667,-65.39277698,1.60364947
5ec454e23d68ea32ee554d12,138,2,2024-02-24T09:21:46.494Z,french_875.wav,0,pull,422,38,4,5,Français,f,0,0.0,-21.85805239,1.53415162
5ec454e23d68ea32ee554d12,138,2,2024-02-24T09:21:46.494Z,french_875.wav,0,pull,422,38,4,5,Français,f,1,0.1,89.69626046,1.00812403
5ec454e23d68ea32ee554d12,138,2,2024-02-24T09:21:46.494Z,french_875.wav,0,pull,422,38,4,5,Français,f,2,0.2,-30.27044373,0.85877698
5ec454e23d68ea32ee554d12,138,2,2024-02-24T09:21:46.494Z,french_875.wav,0,pull,422,38,4,5,Français,f,3,0.25666667,34.72149061,1.23447623
5ec454e23d68ea32ee554d12,139,2,2024-02-24T09:21:46.494Z,french_642.wav,0,pull,653,38,4,5,Français,f,0,0.0,94.74505174,1.94145252
5ec454e23d68ea32ee554d12,139,2,2024-02-24T09:21:46.494Z,french_642.wav,0,pull,653,38,4,5,Français,f,1,0.1,-41.90916732,1.43327494
5ec454e23d68ea32ee554d12,139,2,2024-02-24T09:21:46.494Z,french_642.wav,0,pull,653,38,4,5,Français,f,2,0.2,-70.07976965,0.59817774
5ec454e23d68ea32ee554d12,139,2,2024-02-24T09:21:46.494Z,french_642.wav,0,pull,653,38,4,5,Français,f,3,0.25666667,42.72168091,1.11755549
5ec454e23d68ea32ee554d12,140,2,2024-02-24T09:21:46.494Z,french_115.wav,0,poule,281,38,4,5,Français,f,0,0.0,79.30886426,0.55665137
5ec454e23d68ea32ee554d12,140,2,2024-02-24T09:21:46.494Z,french_115.wav,0,poule,281,38,4,5,Français,f,1,0.1,38.64809671,1.15526328
5ec454e23d68ea32ee554d12,140,2,2024-02-24T09:21:46.494Z,french_115.wav,0,poule,281,38,4,5,Français,f,2,0.2,24.58912206,1.92727625
5ec454e23d68ea32ee554d12,140,2,2024-02-24T09:21:46.494Z,french_115.wav,0,poule,281,38,4,5,Français,f,3,0.25666667,-50.07125558,0.36414304
5ec454e23d68ea32ee554d12,141,2,2024-02-24T09:21:46.494Z,french_490.wav,0,poule,635,38,4,5,Français,f,0,0.0,-77.54246231,1.03559912
5ec454e23d68ea32ee554d12,141,2,2024-02-24T09:21:46.494Z,french_490.wav,0,poule,635,38,4,5,Français,f,1,0.1,-0.13066058,0.94588293
5ec454e23d68ea32ee554d12,141,2,2024-02-24T09:21:46.494Z,french_490.wav,0,poule,635,38,4,5,Français,f,2,0.2,-90.37490593,1.16449319
5ec454e23d68ea32ee554d12,141,2,2024-02-24T09:21:46.494Z,french_490.wav,0,poule,635,38,4,5,Français,f,3,0.25666667,62.21960288,1.46557017
5ec454e23d68ea32ee554d12,142,2,2024-02-24T09:21:46.494Z,french_923.wav,0,poule,221,38,4,5,Français,f,0,0.0,-57.84523262,1.35677253
5ec454e23d68ea32ee554d12,142,2,2024-02-24T09:21:46.494Z,french_923.wav,0,poule,221,38,4,5,Français,f,1,0.1,-15.65652506,1.1280373
5ec454e23d68ea32ee554d12,142,2,2024-02-24T09:21:46.494Z,french_923.wav,0,poule,221,38,4,5,Français,f,2,0.2,37.84243464,1.38752537
5ec454e23d68ea32ee554d12,142,2,2024-02-24T09:21:46.494Z,french_923.wav,0,poule,221,38,4,5,Français,f,3,0.25666667,15.41728704,1.42596606
5ec454e23d68ea32ee554d12,143,2,2024-02-24T09:21:46.494Z,french_868.wav,0,poule,605,38,4,5,Français,f,0,0.0,-35.95288605,1.76613711
5ec454e23d68ea32ee554d12,143,2,2024-02-24T09:21:46.494Z,french_868.wav,0,poule,605,38,4,5,Français,f,1,0.1,-17.44977395,1.66440326
5ec454e23d68ea32ee554d12,143,2,2024-02-24T09:21:46.494Z,french_868.wav,0,poule,605,38,4,5,Français,f,2,0.2,-64.01864585,0.72417379
5ec454e23d68ea32ee554d12,143,2,2024-02-24T09:21:46.494Z,french_868.wav,0,poule,605,38,4,5,Français,f,3,0.25666667,14.1526891,0.87347262
5ec454e23d68ea32ee554d12,144,2,2024-02-24T09:21:46.494Z,french_354.wav,0,pull,323,38,4,5,Français,f,0,0.0,-52.94558073,1.79880208
5ec454e23d68ea32ee554d12,144,2,2024-02-24T09:21:46.494Z,french_354.wav,0,pull,323,38,4,5,Français,f,1,0.1,92.39955521,1.0939287
5ec454e23d68ea32ee554d12,144,2,2024-02-24T09:21:46.494Z,french_354.wav,0,pull,323,38,4,5,Français,f,2,0.2,-42.31606849,0.57130202
5ec454e23d68ea32ee554d12,144,2,2024-02-24T09:21:46.494Z,french_354.wav,0,pull,323,38,4,5,Français,f,3,0.25666667,97.06976377,1.82278353
5ec454e23d68ea32ee554d12,145,2,2024-02-24T09:21:46.494Z,french_375.wav,0,poule,496,38,4,5,Français,f,0,0.0,25.91972282,0.89929791
5ec454e23d68ea32ee554d12,145,2,2024-02-24T09:21:46.494Z,french_375.wav,0,poule,496,38,4,5,Français,f,1,0.1,-60.98407933,0.6101435
5ec454e23d68ea32ee554d12,145,2,2024-02-24T09:21:46.494Z,french_375.wav,0,poule,496,38,4,5,Français,f,2,0.2,-55.02276561,1.65353502
5ec454e23d68ea32ee554d12,145,2,2024-02-24T09:21:46.494Z,french_375.wav,0,poule,496,38,4,5,Français,f,3,0.25666667,50.70039074,0.66964756
5ec454e23d68ea32ee554d12,146,2,2024-02-24T09:21:46.494Z,french_422.wav,0,pull,762,38,4,5,Français,f,0,0.0,84.96144948,0.57918651
5ec454e23d68ea32ee554d12,146,2,2024-02-24T09:21:46.494Z,french_422.wav,0,pull,762,38,4,5,Français,f,1,0.1,-4.96569357,1.20973004
5ec454e23d68ea32ee554d12,146,2,2024-02-24T09:21:46.494Z,french_422.wav,0,pull,762,38,4,5,Français,f,2,0.2,9.38898655,0.40935242
5ec454e23d68ea32ee554d12,146,2,2024-02-24T09:21:46.494Z,french_422.wav,0,pull,762,38,4,5,Français,f,3,0.25666667,-4.34292742,0.41859168
5ec454e23d68ea32ee554d12,147,2,2024-02-24T09:21:46.494Z,french_630.wav,0,pull,432,38,4,5,Français,f,0,0.0,77.73428331,1.3363399
5ec454e23d68ea32ee554d12,147,2,2024-02-24T09:21:46.494Z,french_630.wav,0,pull,432,38,4,5,Français,f,1,0.1,-25.60495453,1.21399003
5ec454e23d68ea32ee554d12,147,2,2024-02-24T09:21:46.494Z,french_630.wav,0,pull,432,38,4,5,Français,f,2,0.2,64.05787884,0.69039687
5ec454e23d68ea32ee554d12,147,2,2024-02-24T09:21:46.494Z,french_630.wav,0,pull,432,38,4,5,Français,f,3,0.25666667,12.38181906,0.92340198
5ec454e23d68ea32ee554d12,148,2,2024-02-24T09:21:46.494Z,french_295.wav,0,poule,424,38,4,5,Français,f,0,0.0,98.71232228,1.58912918
5ec454e23d68ea32ee554d12,148,2,2024-02-24T09:21:46.494Z,french_295.wav,0,poule,424,38,4,5,Français,f,1,0.1,19.8777742,0.8460381
5ec454e23d68ea32ee554d12,148,2,2024-02-24T09:21:46.494Z,french_295.wav,0,poule,424,38,4,5,Français,f,2,0.2,2.02188034,1.72839065
5ec454e23d68ea32ee554d12,148,2,2024-02-24T09:21:46.494Z,french_295.wav,0,poule,424,38,4,5,Français,f,3,0.25666667,-4.73018768,1.75057888
5ec454e23d68ea32ee554d12,149,2,2024-02-24T09:21:46.494Z,french_622.wav,0,pull,418,38,4,5,Français,f,0,0.0,47.12624694,0.11708635
5ec454e23d68ea32ee554d12,149,2,2024-02-24T09:21:46.494Z,french_622.wav,0,pull,418,38,4,5,Français,f,1,0.1,27.16283734,1.67756831
5ec454e23d68ea32ee554d12,149,2,2024-02-24T09:21:46.494Z,french_622.wav,0,pull,418,38,4,5,Français,f,2,0.2,55.37707654,0.50575055
5ec454e23d68ea32ee554d12,149,2,2024-02-24T09:21:46.494Z,french_622.wav,0,pull,418,38,4,5,Français,f,3,0.25666667,-3.25728377,0.46543416
5ec454e23d68ea32ee554d12,150,3,2024-02-24T09:21:46.494Z,french_393.wav,0,poule,346,38,4,5,Français,f,0,0.0,-4.17853165,1.11841435
5ec454e23d68ea32ee554d12,150,3,2024-02-24T09:21:46.494Z,french_393.wav,0,poule,346,38,4,5,Français,f,1,0.1,-52.7672758,1.14982518
5ec454e23d68ea32ee554d12,150,3,2024-02-24T09:21:46.494Z,french_393.wav,0,poule,346,38,4,5,Français,f,2,0.2,-35.65632354,1.99911749
5ec454e23d68ea32ee554d12,150,3,2024-02-24T09:21:46.494Z,french_393.wav,0,poule,346,38,4,5,Français,f,3,0.25666667,-38.23501308,0.07284053
5ec454e23d68ea32ee554d12,151,3,2024-02-24T09:21:46.494Z,french_669.wav,0,poule,601,38,4,5,Français,f,0,0.0,0.0785638242,1.32851713
5ec454e23d68ea32ee554d12,151,3,2024-02-24T09:21:46.494Z,french_669.wav,0,poule,601,38,4,5,Français,f,1,0.1,6.42084207,1.65603836
5ec454e23d68ea32ee554d12,151,3,2024-02-24T09:21:46.494Z,french_669.wav,0,poule,601,38,4,5,Français,f,2,0.2,84.3922519,1.32676382
5ec454e23d68ea32ee554d12,151,3,2024-02-24T09:21:46.494Z,french_669.wav,0,poule,601,38,4,5,Français,f,3,0.256666667,1.87399725,0.80161972
5ec454e23d68ea32ee554d12,152,3,2024-02-24T09:21:46.494Z,french_928.wav,0,pull,322,38,4,5,Français,f,0,0.0,23.35867854,0.39112769
5ec454e23d68ea32ee554d12,152,3,2024-02-24T09:21:46.494Z,french_928.wav,0,pull,322,38,4,5,Français,f,1,0.1,-18.47737087,1.71601552
5ec454e23d68ea32ee554d12,152,3,2024-02-24T09:21:46.494Z,french_928.wav,0,pull,322,38,4,5,Français,f,2,0.2,41.22883985,0.4467351
5ec454e23d68ea32ee554d12,152,3,2024-02-24T09:21:46.494Z,french_928.wav,0,pull,322,38,4,5,Français,f,3,0.25666667,67.72155047,0.12145746
5ec454e23d68ea32ee554d12,153,3,2024-02-24T09:21:46.494Z,french_640.wav,0,poule,423,38,4,5,Français,f,0,0.0,-15.56807975,1.93294171
5ec454e23d68ea32ee554d12,153,3,2024-02-24T09:21:46.494Z,french_640.wav,0,poule,423,38,4,5,Français,f,1,0.1,54.79262645,1.3982646
5ec454e23d68ea32ee554d12,153,3,2024-02-24T09:21:46.494Z,french_640.wav,0,poule,423,38,4,5,Français,f,2,0.2,-80.20485071,1.35271381
5ec454e23d68ea32ee554d12,153,3,2024-02-24T09:21:46.494Z,french_640.wav,0,poule,423,38,4,5,Français,f,3,0.25666667,-47.69326323,0.1240569
5ec454e23d68ea32ee554d12,154,3,2024-02-24T09:21:46.494Z,french_815.wav,0,poule,563,38,4,5,Français,f,0,0.0,-30.97778369,1.45421986
5ec454e23d68ea32ee554d12,154,3,2024-02-24T09:21:46.494Z,french_815.wav,0,poule,563,38,4,5,Français,f,1,0.1,-10.3506413,0.28044698
5ec454e23d68ea32ee554d12,154,3,2024-02-24T09:21:46.494Z,french_815.wav,0,poule,563,38,4,5,Français,f,2,0.2,61.86726268,1.88309962
5ec454e23d68ea32ee554d12,154,3,2024-02-24T09:21:46.494Z,french_815.wav,0,poule,563,38,4,5,Français,f,3,0.25666667,-32.12586702,1.86356454
5ec454e23d68ea32ee554d12,155,3,2024-02-24T09:21:46.494Z,french_113.wav,0,pull,349,38,4,5,Français,f,0,0.0,0.51528889,0.39555504
5ec454e23d68ea32ee554d12,155,3,2024-02-24T09:21:46.494Z,french_113.wav,0,pull,349,38,4,5,Français,f,1,0.1,31.38938416,1.50115078
5ec454e23d68ea32ee554d12,155,3,2024-02-24T09:21:46.494Z,french_113.wav,0,pull,349,38,4,5,Français,f,2,0.2,-56.71204584,1.00732686
5ec454e23d68ea32ee554d12,155,3,2024-02-24T09:21:46.494Z,french_113.wav,0,pull,349,38,4,5,Français,f,3,0.25666667,95.05763822,0.59062761
5ec454e23d68ea32ee554d12,156,3,2024-02-24T09:21:46.494Z,french_236.wav,0,poule,512,38,4,5,Français,f,0,0.0,25.84118528,0.50094641
5ec454e23d68ea32ee554d12,156,3,2024-02-24T09:21:46.494Z,french_236.wav,0,poule,512,38,4,5,Français,f,1,0.1,-8.91572412,0.84977658
5ec454e23d68ea32ee554d12,156,3,2024-02-24T09:21:46.494Z,french_236.wav,0,poule,512,38,4,5,Français,f,2,0.2,11.24728016,1.88634356
5ec454e23d68ea32ee554d12,156,3,2024-02-24T09:21:46.494Z,french_236.wav,0,poule,512,38,4,5,Français,f,3,0.25666667,27.02911702,1.9832527
5ec454e23d68ea32ee554d12,157,3,2024-02-24T09:21:46.494Z,french_554.wav,0,pull,454,38,4,5,Français,f,0,0.0,-31.9650703,1.45983082
5ec454e23d68ea32ee554d12,157,3,2024-02-24T09:21:46.494Z,french_554.wav,0,pull,454,38,4,5,Français,f,1,0.1,78.95364823,0.40013818
5ec454e23d68ea32ee554d12,157,3,2024-02-24T09:21:46.494Z,french_554.wav,0,pull,454,38,4,5,Français,f,2,0.2,-0.5294376,0.96374115
5ec454e23d68ea32ee554d12,157,3,2024-02-24T09:21:46.494Z,french_554.wav,0,pull,454,38,4,5,Français,f,3,0.25666667,-36.78296127,1.20732856
5ec454e23d68ea32ee554d12,158,3,2024-02-24T09:21:46.494Z,french_325.wav,0,poule,415,38,4,5,Français,f,0,0.0,88.71142286,0.52996958
5ec454e23d68ea32ee554d12,158,3,2024-02-24T09:21:46.494Z,french_325.wav,0,poule,415,38,4,5,Français,f,1,0.1,-56.3206586,1.24996424
5ec454e23d68ea32ee554d12,158,3,2024-02-24T09:21:46.494Z,french_325.wav,0,poule,415,38,4,5,Français,f,2,0.2,41.53206129,1.51417943
5ec454e23d68ea32ee554d12,158,3,2024-02-24T09:21:46.494Z,french_325.wav,0,poule,415,38,4,5,Français,f,3,0.25666667,-39.91784783,1.21569626
5ec454e23d68ea32ee554d12,159,3,2024-02-24T09:21:46.494Z,french_855.wav,0,poule,374,38,4,5,Français,f,0,0.0,2.71159552,1.64624975
5ec454e23d68ea32ee554d12,159,3,2024-02-24T09:21:46.494Z,french_855.wav,0,poule,374,38,4,5,Français,f,1,0.1,66.05842931,0.54809415
5ec454e23d68ea32ee554d12,159,3,2024-02-24T09:21:46.494Z,french_855.wav,0,poule,374,38,4,5,Français,f,2,0.2,41.00995311,1.64541289
5ec454e23d68ea32ee554d12,159,3,2024-02-24T09:21:46.494Z,french_855.wav,0,poule,374,38,4,5,Français,f,3,0.25666667,98.2962498,1.22205238
5ec454e23d68ea32ee554d12,160,3,2024-02-24T09:21:46.494Z,french_491.wav,0,poule,426,38,4,5,Français,f,0,0.0,48.686868,0.42969684
5ec454e23d68ea32ee554d12,160,3,2024-02-24T09:21:46.494Z,french_491.wav,0,poule,426,38,4,5,Français,f,1,0.1,-48.1683993,1.38937301
5ec454e23d68ea32ee554d12,160,3,2024-02-24T09:21:46.494Z,french_491.wav,0,poule,426,38,4,5,Français,f,2,0.2,-42.3609681,1.25630672
5ec454e23d68ea32ee554d12,160,3,2024-02-24T09:21:46.494Z,french_491.wav,0,poule,426,38,4,5,Français,f,3,0.256666667,0.024958216,0.04562268
5ec454e23d68ea32ee554d12,161,3,2024-02-24T09:21:46.494Z,french_174.wav,0,poule,392,38,4,5,Français,f,0,0.0,1.45674265,0.26044346
5ec454e23d68ea32ee554d12,161,3,2024-02-24T09:21:46.494Z,french_174.wav,0,poule,392,38,4,5,Français,f,1,0.1,47.27057229,1.87217745
5ec454e23d68ea32ee554d12,161,3,2024-02-24T09:21:46.494Z,french_174.wav,0,poule,392,38,4,5,Français,f,2,0.2,-41.5239841,1.40485436
5ec454e23d68ea32ee554d12,161,3,2024-02-24T09:21:46.494Z,french_174.wav,0,poule,392,38,4,5,Français,f,3,0.25666667,32.3517821,1.2389409
5ec454e23d68ea32ee554d12,162,3,2024-02-24T09:21:46.494Z,french_887.wav,0,poule,323,38,4,5,Français,f,0,0.0,68.65167503,1.16380924
5ec454e23d68ea32ee554d12,162,3,2024-02-24T09:21:46.494Z,french_887.wav,0,poule,323,38,4,5,Français,f,1,0.1,-55.72044546,1.74073633
5ec454e23d68ea32ee554d12,162,3,2024-02-24T09:21:46.494Z,french_887.wav,0,poule,323,38,4,5,Français,f,2,0.2,-97.59121662,1.00138394
5ec454e23d68ea32ee554d12,162,3,2024-02-24T09:21:46.494Z,french_887.wav,0,poule,323,38,4,5,Français,f,3,0.25666667,-40.12897823,1.21780512
5ec454e23d68ea32ee554d12,163,3,2024-02-24T09:21:46.494Z,french_610.wav,0,poule,378,38,4,5,Français,f,0,0.0,41.67803598,0.10564039
5ec454e23d68ea32ee554d12,163,3,2024-02-24T09:21:46.494Z,french_610.wav,0,poule,378,38,4,5,Français,f,1,0.1,50.6586837,1.22556883
5ec454e23d68ea32ee554d12,163,3,2024-02-24T09:21:46.494Z,french_610.wav,0,poule,378,38,4,5,Français,f,2,0.2,-85.20353251,1.48633574
5ec454e23d68ea32ee554d12,163,3,2024-02-24T09:21:46.494Z,french_610.wav,0,poule,378,38,4,5,Français,f,3,0.25666667,-12.88596769,1.12124299
5ec454e23d68ea32ee554d12,164,3,2024-02-24T09:21:46.494Z,french_838.wav,0,poule,402,38,4,5,Français,f,0,0.0,-11.78713781,0.60255839
5ec454e23d68ea32ee554d12,164,3,2024-02-24T09:21:46.494Z,french_838.wav,0,poule,402,38,4,5,Français,f,1,0.1,70.11555366,0.34480099
5ec454e23d68ea32ee554d12,164,3,2024-02-24T09:21:46.494Z,french_838.wav,0,poule,402,38,4,5,Français,f,2,0.2,60.74924786,1.0262929
5ec454e23d68ea32ee554d12,164,3,2024-02-24T09:21:46.494Z,french_838.wav,0,poule,402,38,4,5,Français,f,3,0.25666667,37.89669618,0.88829748
5ec454e23d68ea32ee554d12,165,3,2024-02-24T09:21:46.494Z,french_239.wav,0,poule,419,38,4,5,Français,f,0,0.0,28.79978772,0.08316766
5ec454e23d68ea32ee554d12,165,3,2024-02-24T09:21:46.494Z,french_239.wav,0,poule,419,38,4,5,Français,f,1,0.1,-73.21999651,0.38167469
5ec454e23d68ea32ee554d12,165,3,2024-02-24T09:21:46.494Z,french_239.wav,0,poule,419,38,4,5,Français,f,2,0.2,-92.33353735,1.82525895
5ec454e23d68ea32ee554d12,165,3,2024-02-24T09:21:46.494Z,french_239.wav,0,poule,419,38,4,5,Français,f,3,0.25666667,-92.59521946,1.04737586
5ec454e23d68ea32ee554d12,166,3,2024-02-24T09:21:46.494Z,french_891.wav,0,poule,1051,38,4,5,Français,f,0,0.0,36.15157251,0.11830574
5ec454e23d68ea32ee554d12,166,3,2024-02-24T09:21:46.494Z,french_891.wav,0,poule,1051,38,4,5,Français,f,1,0.1,9.92087077,0.00778599
5ec454e23d68ea32ee554d12,166,3,2024-02-24T09:21:46.494Z,french_891.wav,0,poule,1051,38,4,5,Français,f,2,0.2,64.79051962,0.40739404
5ec454e23d68ea32ee554d12,166,3,2024-02-24T09:21:46.494Z,french_891.wav,0,poule,1051,38,4,5,Français,f,3,0.25666667,25.43576317,0.71071781
5ec454e23d68ea32ee554d12,167,3,2024-02-24T09:21:46.494Z,french_648.wav,0,poule,1369,38,4,5,Français,f,0,0.0,45.21338473,1.3610165
5ec454e23d68ea32ee554d12,167,3,2024-02-24T09:21:46.494Z,french_648.wav,0,poule,1369,38,4,5,Français,f,1,0.1,35.84509453,0.40626065
5ec454e23d68ea32ee554d12,167,3,2024-02-24T09:21:46.494Z,french_648.wav,0,poule,1369,38,4,5,Français,f,2,0.2,-67.01500747,0.74636895
5ec454e23d68ea32ee554d12,167,3,2024-02-24T09:21:46.494Z,french_648.wav,0,poule,1369,38,4,5,Français,f,3,0.25666667,-57.94291625,1.66903202
5ec454e23d68ea32ee554d12,168,3,2024-02-24T09:21:46.494Z,french_532.wav,0,poule,766,38,4,5,Français,f,0,0.0,51.6664435,1.30171402
5ec454e23d68ea32ee554d12,168,3,2024-02-24T09:21:46.494Z,french_532.wav,0,poule,766,38,4,5,Français,f,1,0.1,12.38327687,0.03929558
5ec454e23d68ea32ee554d12,168,3,2024-02-24T09:21:46.494Z,french_532.wav,0,poule,766,38,4,5,Français,f,2,0.2,-89.35582175,1.38931331
5ec454e23d68ea32ee554d12,168,3,2024-02-24T09:21:46.494Z,french_532.wav,0,poule,766,38,4,5,Français,f,3,0.25666667,25.37493155,0.74157834
5ec454e23d68ea32ee554d12,169,3,2024-02-24T09:21:46.494Z,french_42.wav,0,poule,1249,38,4,5,Français,f,0,0.0,-62.21237173,0.70589884
5ec454e23d68ea32ee554d12,169,3,2024-02-24T09:21:46.494Z,french_42.wav,0,poule,1249,38,4,5,Français,f,1,0.1,-98.4992591,0.40467669
5ec454e23d68ea32ee554d12,169,3,2024-02-24T09:21:46.494Z,french_42.wav,0,poule,1249,38,4,5,Français,f,2,0.2,97.73183718,0.72488221
5ec454e23d68ea32ee554d12,169,3,2024-02-24T09:21:46.494Z,french_42.wav,0,poule,1249,38,4,5,Français,f,3,0.25666667,-56.73891221,0.44273829
5ec454e23d68ea32ee554d12,170,3,2024-02-24T09:21:46.494Z,french_639.wav,0,pull,970,38,4,5,Français,f,0,0.0,11.64385005,1.86180111
5ec454e23d68ea32ee554d12,170,3,2024-02-24T09:21:46.494Z,french_639.wav,0,pull,970,38,4,5,Français,f,1,0.1,-83.53772589,1.31531339
5ec454e23d68ea32ee554d12,170,3,2024-02-24T09:21:46.494Z,french_639.wav,0,pull,970,38,4,5,Français,f,2,0.2,-26.70113898,0.16484712
5ec454e23d68ea32ee554d12,170,3,2024-02-24T09:21:46.494Z,french_639.wav,0,pull,970,38,4,5,Français,f,3,0.25666667,-28.21717215,0.08923993
5ec454e23d68ea32ee554d12,171,3,2024-02-24T09:21:46.494Z,french_12.wav,0,poule,1273,38,4,5,Français,f,0,0.0,-57.76127346,1.31680682
5ec454e23d68ea32ee554d12,171,3,2024-02-24T09:21:46.494Z,french_12.wav,0,poule,1273,38,4,5,Français,f,1,0.1,13.80138245,1.40135686
5ec454e23d68ea32ee554d12,171,3,2024-02-24T09:21:46.494Z,french_12.wav,0,poule,1273,38,4,5,Français,f,2,0.2,70.02389064,0.63152994
5ec454e23d68ea32ee554d12,171,3,2024-02-24T09:21:46.494Z,french_12.wav,0,poule,1273,38,4,5,Français,f,3,0.25666667,-46.37027392,0.33836826
5ec454e23d68ea32ee554d12,172,3,2024-02-24T09:21:46.494Z,french_419.wav,0,poule,339,38,4,5,Français,f,0,0.0,-42.00575778,0.81351681
5ec454e23d68ea32ee554d12,172,3,2024-02-24T09:21:46.494Z,french_419.wav,0,poule,339,38,4,5,Français,f,1,0.1,-35.26826913,1.62056968
5ec454e23d68ea32ee554d12,172,3,2024-02-24T09:21:46.494Z,french_419.wav,0,poule,339,38,4,5,Français,f,2,0.2,-18.10946272,1.68465097
5ec454e23d68ea32ee554d12,172,3,2024-02-24T09:21:46.494Z,french_419.wav,0,poule,339,38,4,5,Français,f,3,0.25666667,-2.55322937,1.07803679
5ec454e23d68ea32ee554d12,173,3,2024-02-24T09:21:46.494Z,french_74.wav,0,poule,1468,38,4,5,Français,f,0,0.0,50.9707996,1.5114138
5ec454e23d68ea32ee554d12,173,3,2024-02-24T09:21:46.494Z,french_74.wav,0,poule,1468,38,4,5,Français,f,1,0.1,-38.59052132,1.75968469
5ec454e23d68ea32ee554d12,173,3,2024-02-24T09:21:46.494Z,french_74.wav,0,poule,1468,38,4,5,Français,f,2,0.2,-99.50726314,0.36574043
5ec454e23d68ea32ee554d12,173,3,2024-02-24T09:21:46.494Z,french_74.wav,0,poule,1468,38,4,5,Français,f,3,0.25666667,55.85777384,0.66231561
5ec454e23d68ea32ee554d12,174,3,2024-02-24T09:21:46.494Z,french_550.wav,0,poule,473,38,4,5,Français,f,0,0.0,-75.40042164,1.22660115
5ec454e23d68ea32ee554d12,174,3,2024-02-24T09:21:46.494Z,french_550.wav,0,poule,473,38,4,5,Français,f,1,0.1,3.66999977,1.1302768
5ec454e23d68ea32ee554d12,174,3,2024-02-24T09:21:46.494Z,french_550.wav,0,poule,473,38,4,5,Français,f,2,0.2,-80.45508953,0.71194131
5ec454e23d68ea32ee554d12,174,3,2024-02-24T09:21:46.494Z,french_550.wav,0,poule,473,38,4,5,Français,f,3,0.25666667,-81.93938104,1.14992067
5ec454e23d68ea32ee554d12,175,3,2024-02-24T09:21:46.494Z,french_629.wav,0,poule,1123,38,4,5,Français,f,0,0.0,81.54997922,0.65130664
5ec454e23d68ea32ee554d12,175,3,2024-02-24T09:21:46.494Z,french_629.wav,0,poule,1123,38,4,5,Français,f,1,0.1,-25.83506989,0.18523019
5ec454e23d68ea32ee554d12,175,3,2024-02-24T09:21:46.494Z,french_629.wav,0,poule,1123,38,4,5,Français,f,2,0.2,-50.62902687,1.20696076
5ec454e23d68ea32ee554d12,175,3,2024-02-24T09:21:46.494Z,french_629.wav,0,poule,1123,38,4,5,Français,f,3,0.25666667,-69.1271608,0.57946161
5ec454e23d68ea32ee554d12,176,3,2024-02-24T09:21:46.494Z,french_507.wav,0,poule,288,38,4,5,Français,f,0,0.0,-39.00130205,0.88980729
5ec454e23d68ea32ee554d12,176,3,2024-02-24T09:21:46.494Z,french_507.wav,0,poule,288,38,4,5,Français,f,1,0.1,8.15448279,1.12034654
5ec454e23d68ea32ee554d12,176,3,2024-02-24T09:21:46.494Z,french_507.wav,0,poule,288,38,4,5,Français,f,2,0.2,-39.88004764,1.15006522
5ec454e23d68ea32ee554d12,176,3,2024-02-24T09:21:46.494Z,french_507.wav,0,poule,288,38,4,5,Français,f,3,0.25666667,66.54300966,1.10945683
5ec454e23d68ea32ee554d12,177,3,2024-02-24T09:21:46.494Z,french_766.wav,0,poule,835,38,4,5,Français,f,0,0.0,91.85829661,0.12079341
5ec454e23d68ea32ee554d12,177,3,2024-02-24T09:21:46.494Z,french_766.wav,0,poule,835,38,4,5,Français,f,1,0.1,29.32583948,0.61287095
5ec454e23d68ea32ee554d12,177,3,2024-02-24T09:21:46.494Z,french_766.wav,0,poule,835,38,4,5,Français,f,2,0.2,71.77245069,1.071897
5ec454e23d68ea32ee554d12,177,3,2024-02-24T09:21:46.494Z,french_766.wav,0,poule,835,38,4,5,Français,f,3,0.25666667,28.53871253,0.29005596
5ec454e23d68ea32ee554d12,178,3,2024-02-24T09:21:46.494Z,french_365.wav,0,pull,1332,38,4,5,Français,f,0,0.0,-98.04571794,1.18023288
5ec454e23d68ea32ee554d12,178,3,2024-02-24T09:21:46.494Z,french_365.wav,0,pull,1332,38,4,5,Français,f,1,0.1,-73.67698607,1.95707288
5ec454e23d68ea32ee554d12,178,3,2024-02-24T09:21:46.494Z,french_365.wav,0,pull,1332,38,4,5,Français,f,2,0.2,-96.43604562,0.58641449
5ec454e23d68ea32ee554d12,178,3,2024-02-24T09:21:46.494Z,french_365.wav,0,pull,1332,38,4,5,Français,f,3,0.25666667,37.7893414,1.65360278
5ec454e23d68ea32ee554d12,179,3,2024-02-24T09:21:46.494Z,french_426.wav,0,pull,522,38,4,5,Français,f,0,0.0,94.83015244,1.95768421
5ec454e23d68ea32ee554d12,179,3,2024-02-24T09:21:46.494Z,french_426.wav,0,pull,522,38,4,5,Français,f,1,0.1,80.74954266,0.5170286
5ec454e23d68ea32ee554d12,179,3,2024-02-24T09:21:46.494Z,french_426.wav,0,pull,522,38,4,5,Français,f,2,0.2,14.22402444,0.27456075
5ec454e23d68ea32ee554d12,179,3,2024-02-24T09:21:46.494Z,french_426.wav,0,pull,522,38,4,5,Français,f,3,0.25666667,92.85203769,1.53042381
5ec454e23d68ea32ee554d12,180,3,2024-02-24T09:21:46.494Z,french_383.wav,0,pull,879,38,4,5,Français,f,0,0.0,-42.4544387,1.97405967
5ec454e23d68ea32ee554d12,180,3,2024-02-24T09:21:46.494Z,french_383.wav,0,pull,879,38,4,5,Français,f,1,0.1,-90.68336638,0.7318817
5ec454e23d68ea32ee554d12,180,3,2024-02-24T09:21:46.494Z,french_383.wav,0,pull,879,38,4,5,Français,f,2,0.2,-23.68224062,1.2439139
5ec454e23d68ea32ee554d12,180,3,2024-02-24T09:21:46.494Z,french_383.wav,0,pull,879,38,4,5,Français,f,3,0.25666667,-19.21071009,0.24057374
5ec454e23d68ea32ee554d12,181,3,2024-02-24T09:21:46.494Z,french_656.wav,0,poule,380,38,4,5,Français,f,0,0.0,-58.27241095,0.65184251
5ec454e23d68ea32ee554d12,181,3,2024-02-24T09:21:46.494Z,french_656.wav,0,poule,380,38,4,5,Français,f,1,0.1,5.28471923,0.59376501
5ec454e23d68ea32ee554d12,181,3,2024-02-24T09:21:46.494Z,french_656.wav,0,poule,380,38,4,5,Français,f,2,0.2,-0.12743408,1.90668759
5ec454e23d68ea32ee554d12,181,3,2024-02-24T09:21:46.494Z,french_656.wav,0,poule,380,38,4,5,Français,f,3,0.25666667,84.54596147,1.25760212
5ec454e23d68ea32ee554d12,182,3,2024-02-24T09:21:46.494Z,french_605.wav,0,pull,407,38,4,5,Français,f,0,0.0,-36.16596328,1.67360444
5ec454e23d68ea32ee554d12,182,3,2024-02-24T09:21:46.494Z,french_605.wav,0,pull,407,38,4,5,Français,f,1,0.1,-79.4068097,0.60127341
5ec454e23d68ea32ee554d12,182,3,2024-02-24T09:21:46.494Z,french_605.wav,0,pull,407,38,4,5,Français,f,2,0.2,-61.39154049,0.37070459
5ec454e23d68ea32ee554d12,182,3,2024-02-24T09:21:46.494Z,french_605.wav,0,pull,407,38,4,5,Français,f,3,0.25666667,44.72298118,1.73994467
5ec454e23d68ea32ee554d12,183,3,2024-02-24T09:21:46.494Z,french_862.wav,0,poule,843,38,4,5,Français,f,0,0.0,99.41401176,0.02807195
5ec454e23d68ea32ee554d12,183,3,2024-02-24T09:21:46.494Z,french_862.wav,0,poule,843,38,4,5,Français,f,1,0.1,35.25307956,0.7885189
5ec454e23d68ea32ee554d12,183,3,2024-02-24T09:21:46.494Z,french_862.wav,0,poule,843,38,4,5,Français,f,2,0.2,-56.34938096,0.76649358
5ec454e23d68ea32ee554d12,183,3,2024-02-24T09:21:46.494Z,french_862.wav,0,poule,843,38,4,5,Français,f,3,0.25666667,-51.21225279,1.75346492
5ec454e23d68ea32ee554d12,184,3,2024-02-24T09:21:46.494Z,french_206.wav,0,poule,639,38,4,5,Français,f,0,0.0,54.3984601,1.52634336
5ec454e23d68ea32ee554d12,184,3,2024-02-24T09:21:46.494Z,french_206.wav,0,poule,639,38,4,5,Français,f,1,0.1,63.13301153,0.52222794
5ec454e23d68ea32ee554d12,184,3,2024-02-24T09:21:46.494Z,french_206.wav,0,poule,639,38,4,5,Français,f,2,0.2,42.02994149,1.32066154
5ec454e23d68ea32ee554d12,184,3,2024-02-24T09:21:46.494Z,french_206.wav,0,poule,639,38,4,5,Français,f,3,0.25666667,-16.37363905,0.63957267
5ec454e23d68ea32ee554d12,185,3,2024-02-24T09:21:46.494Z,french_623.wav,0,pull,760,38,4,5,Français,f,0,0.0,39.03330695,1.53300878
5ec454e23d68ea32ee554d12,185,3,2024-02-24T09:21:46.494Z,french_623.wav,0,pull,760,38,4,5,Français,f,1,0.1,53.03253456,0.64917122
5ec454e23d68ea32ee554d12,185,3,2024-02-24T09:21:46.494Z,french_623.wav,0,pull,760,38,4,5,Français,f,2,0.2,-58.78521604,0.12116027
5ec454e23d68ea32ee554d12,185,3,2024-02-24T09:21:46.494Z,french_623.wav,0,pull,760,38,4,5,Français,f,3,0.25666667,58.72042033,1.19887121
5ec454e23d68ea32ee554d12,186,3,2024-02-24T09:21:46.494Z,french_831.wav,0,pull,483,38,4,5,Français,f,0,0.0,63.54740934,1.51153345
5ec454e23d68ea32ee554d12,186,3,2024-02-24T09:21:46.494Z,french_831.wav,0,pull,483,38,4,5,Français,f,1,0.1,37.72830153,0.09945987
5ec454e23d68ea32ee554d12,186,3,2024-02-24T09:21:46.494Z,french_831.wav,0,pull,483,38,4,5,Français,f,2,0.2,-3.45882983,0.22010167
5ec454e23d68ea32ee554d12,186,3,2024-02-24T09:21:46.494Z,french_831.wav,0,pull,483,38,4,5,Français,f,3,0.25666667,83.86154552,0.71497999
5ec454e23d68ea32ee554d12,187,3,2024-02-24T09:21:46.494Z,french_672.wav,0,poule,772,38,4,5,Français,f,0,0.0,-6.36877595,1.19503778
5ec454e23d68ea32ee554d12,187,3,2024-02-24T09:21:46.494Z,french_672.wav,0,poule,772,38,4,5,Français,f,1,0.1,45.21137281,0.09977323
5ec454e23d68ea32ee554d12,187,3,2024-02-24T09:21:46.494Z,french_672.wav,0,poule,772,38,4,5,Français,f,2,0.2,80.52737907,0.72738581
5ec454e23d68ea32ee554d12,187,3,2024-02-24T09:21:46.494Z,french_672.wav,0,poule,772,38,4,5,Français,f,3,0.25666667,83.07440583,0.28099012
5ec454e23d68ea32ee554d12,188,3,2024-02-24T09:21:46.494Z,french_889.wav,0,poule,689,38,4,5,Français,f,0,0.0,-11.44618348,1.60032155
5ec454e23d68ea32ee554d12,188,3,2024-02-24T09:21:46.494Z,french_889.wav,0,poule,689,38,4,5,Français,f,1,0.1,14.52697714,0.84860504
5ec454e23d68ea32ee554d12,188,3,2024-02-24T09:21:46.494Z,french_889.wav,0,poule,689,38,4,5,Français,f,2,0.2,-51.60315894,1.67734449
5ec454e23d68ea32ee554d12,188,3,2024-02-24T09:21:46.494Z,french_889.wav,0,poule,689,38,4,5,Français,f,3,0.25666667,40.16126686,0.04411269
5ec454e23d68ea32ee554d12,189,3,2024-02-24T09:21:46.494Z,french_551.wav,0,poule,809,38,4,5,Français,f,0,0.0,-87.08357851,1.2328931
5ec454e23d68ea32ee554d12,189,3,2024-02-24T09:21:46.494Z,french_551.wav,0,poule,809,38,4,5,Français,f,1,0.1,71.56090061,1.28136219
5ec454e23d68ea32ee554d12,189,3,2024-02-24T09:21:46.494Z,french_551.wav,0,poule,809,38,4,5,Français,f,2,0.2,-46.55712742,0.3781059
5ec454e23d68ea32ee554d12,189,3,2024-02-24T09:21:46.494Z,french_551.wav,0,poule,809,38,4,5,Français,f,3,0.25666667,-57.93002391,1.42095582
5ec454e23d68ea32ee554d12,190,3,2024-02-24T09:21:46.494Z,french_637.wav,0,pull,1636,38,4,5,Français,f,0,0.0,35.81604326,0.01301393
