subj,trial,block,date,stim,stim_order,response,rt,age,english,french,language,sex,param_index,segment,pitch,stretch
5c710337bc6ab00001d7aade,0,0,2024-02-27T09:24:47.673Z,french_943.wav,0,pull,3362,34,3,5,français,m,0,0.0,27.08075724,1.18472309
5c710337bc6ab00001d7aade,0,0,2024-02-27T09:24:47.673Z,french_943.wav,0,pull,3362,34,3,5,français,m,1,0.1,11.89706259,0.18520331
5c710337bc6ab00001d7aade,0,0,2024-02-27T09:24:47.673Z,french_943.wav,0,pull,3362,34,3,5,français,m,2,0.2,-68.36208072,0.55970606
5c710337bc6ab00001d7aade,0,0,2024-02-27T09:24:47.673Z,french_943.wav,0,pull,3362,34,3,5,français,m,3,0.25666667,93.65942771,0.63383354
5c710337bc6ab00001d7aade,1,0,2024-02-27T09:24:47.673Z,french_645.wav,0,poule,567,34,3,5,français,m,0,0.0,39.28095882,1.44479402
5c710337bc6ab00001d7aade,1,0,2024-02-27T09:24:47.673Z,french_645.wav,0,poule,567,34,3,5,français,m,1,0.1,36.97709506,1.97267477
5c710337bc6ab00001d7aade,1,0,2024-02-27T09:24:47.673Z,french_645.wav,0,poule,567,34,3,5,français,m,2,0.2,-20.56368862,0.33303832
5c710337bc6ab00001d7aade,1,0,2024-02-27T09:24:47.673Z,french_645.wav,0,poule,567,34,3,5,français,m,3,0.25666667,45.13755494,0.87530899
5c710337bc6ab00001d7aade,2,0,2024-02-27T09:24:47.673Z,french_972.wav,0,poule,476,34,3,5,français,m,0,0.0,10.38102426,0.90840989
5c710337bc6ab00001d7aade,2,0,2024-02-27T09:24:47.673Z,french_972.wav,0,poule,476,34,3,5,français,m,1,0.1,-66.54271468,1.6485676
5c710337bc6ab00001d7aade,2,0,2024-02-27T09:24:47.673Z,french_972.wav,0,poule,476,34,3,5,français,m,2,0.2,-2.89265523,0.79956718
5c710337bc6ab00001d7aade,2,0,2024-02-27T09:24:47.673Z,french_972.wav,0,poule,476,34,3,5,français,m,3,0.25666667,-87.42126356,1.28352811
5c710337bc6ab00001d7aade,3,0,2024-02-27T09:24:47.673Z,french_10.wav,0,poule,480,34,3,5,français,m,0,0.0,34.48773494,0.90390655
5c710337bc6ab00001d7aade,3,0,2024-02-27T09:24:47.673Z,french_10.wav,0,poule,480,34,3,5,français,m,1,0.1,82.41652137,1.13926368
5c710337bc6ab00001d7aade,3,0,2024-02-27T09:24:47.673Z,french_10.wav,0,poule,480,34,3,5,français,m,2,0.2,-51.47900312,1.63497012
5c710337bc6ab00001d7aade,3,0,2024-02-27T09:24:47.673Z,french_10.wav,0,poule,480,34,3,5,français,m,3,0.25666667,70.4490668,0.74730693
5c710337bc6ab00001d7aade,4,0,2024-02-27T09:24:47.673Z,french_405.wav,0,pull,673,34,3,5,français,m,0,0.0,52.22885858,0.59532017
5c710337bc6ab00001d7aade,4,0,2024-02-27T09:24:47.673Z,french_405.wav,0,pull,673,34,3,5,français,m,1,0.1,18.90294402,0.31881138
5c710337bc6ab00001d7aade,4,0,2024-02-27T09:24:47.673Z,french_405.wav,0,pull,673,34,3,5,français,m,2,0.2,-84.01769715,1.18035169
5c710337bc6ab00001d7aade,4,0,2024-02-27T09:24:47.673Z,french_405.wav,0,pull,673,34,3,5,français,m,3,0.25666667,95.02638452,0.2814716
5c710337bc6ab00001d7aade,5,0,2024-02-27T09:24:47.673Z,french_658.wav,0,pull,686,34,3,5,français,m,0,0.0,-96.64822149,1.39139244
5c710337bc6ab00001d7aade,5,0,2024-02-27T09:24:47.673Z,french_658.wav,0,pull,686,34,3,5,français,m,1,0.1,49.0828934,0.52881355
5c710337bc6ab00001d7aade,5,0,2024-02-27T09:24:47.673Z,french_658.wav,0,pull,686,34,3,5,français,m,2,0.2,12.17217875,0.81868418
5c710337bc6ab00001d7aade,5,0,2024-02-27T09:24:47.673Z,french_658.wav,0,pull,686,34,3,5,français,m,3,0.25666667,21.40759607,0.56425508
5c710337bc6ab00001d7aade,6,0,2024-02-27T09:24:47.673Z,french_756.wav,0,poule,531,34,3,5,français,m,0,0.0,35.62001521,0.86430693
5c710337bc6ab00001d7aade,6,0,2024-02-27T09:24:47.673Z,french_756.wav,0,poule,531,34,3,5,français,m,1,0.1,29.8199127,1.17673467
5c710337bc6ab00001d7aade,6,0,2024-02-27T09:24:47.673Z,french_756.wav,0,poule,531,34,3,5,français,m,2,0.2,-2.36977437,1.63370718
5c710337bc6ab00001d7aade,6,0,2024-02-27T09:24:47.673Z,french_756.wav,0,poule,531,34,3,5,français,m,3,0.25666667,-73.14220453,1.98740672
5c710337bc6ab00001d7aade,7,0,2024-02-27T09:24:47.673Z,french_253.wav,0,poule,760,34,3,5,français,m,0,0.0,46.57034738,1.71066879
5c710337bc6ab00001d7aade,7,0,2024-02-27T09:24:47.673Z,french_253.wav,0,poule,760,34,3,5,français,m,1,0.1,95.71705704,0.77231307
5c710337bc6ab00001d7aade,7,0,2024-02-27T09:24:47.673Z,french_253.wav,0,poule,760,34,3,5,français,m,2,0.2,-25.2299753,0.81370988
5c710337bc6ab00001d7aade,7,0,2024-02-27T09:24:47.673Z,french_253.wav,0,poule,760,34,3,5,français,m,3,0.25666667,-10.51050389,1.71668189
5c710337bc6ab00001d7aade,8,0,2024-02-27T09:24:47.673Z,french_704.wav,0,poule,412,34,3,5,français,m,0,0.0,47.78235411,1.53952375
5c710337bc6ab00001d7aade,8,0,2024-02-27T09:24:47.673Z,french_704.wav,0,poule,412,34,3,5,français,m,1,0.1,-55.43932,1.15285736
5c710337bc6ab00001d7aade,8,0,2024-02-27T09:24:47.673Z,french_704.wav,0,poule,412,34,3,5,français,m,2,0.2,-4.4200676,1.9057017
5c710337bc6ab00001d7aade,8,0,2024-02-27T09:24:47.673Z,french_704.wav,0,poule,412,34,3,5,français,m,3,0.25666667,92.51428674,1.54517481
5c710337bc6ab00001d7aade,9,0,2024-02-27T09:24:47.673Z,french_252.wav,0,pull,552,34,3,5,français,m,0,0.0,-68.3996329,0.41781817
5c710337bc6ab00001d7aade,9,0,2024-02-27T09:24:47.673Z,french_252.wav,0,pull,552,34,3,5,français,m,1,0.1,79.02734002,1.03502761
5c710337bc6ab00001d7aade,9,0,2024-02-27T09:24:47.673Z,french_252.wav,0,pull,552,34,3,5,français,m,2,0.2,-18.50805447,0.82044901
5c710337bc6ab00001d7aade,9,0,2024-02-27T09:24:47.673Z,french_252.wav,0,pull,552,34,3,5,français,m,3,0.25666667,-85.84066145,1.09163249
5c710337bc6ab00001d7aade,10,0,2024-02-27T09:24:47.673Z,french_530.wav,0,poule,1143,34,3,5,français,m,0,0.0,-48.266975,0.22885815
5c710337bc6ab00001d7aade,10,0,2024-02-27T09:24:47.673Z,french_530.wav,0,poule,1143,34,3,5,français,m,1,0.1,10.53522492,0.99708564
5c710337bc6ab00001d7aade,10,0,2024-02-27T09:24:47.673Z,french_530.wav,0,poule,1143,34,3,5,français,m,2,0.2,-70.81391458,0.43471164
5c710337bc6ab00001d7aade,10,0,2024-02-27T09:24:47.673Z,french_530.wav,0,poule,1143,34,3,5,français,m,3,0.25666667,-13.69241617,0.61022423
5c710337bc6ab00001d7aade,11,0,2024-02-27T09:24:47.673Z,french_381.wav,0,pull,645,34,3,5,français,m,0,0.0,-36.22739734,0.39069554
5c710337bc6ab00001d7aade,11,0,2024-02-27T09:24:47.673Z,french_381.wav,0,pull,645,34,3,5,français,m,1,0.1,63.18659678,0.02424263
5c710337bc6ab00001d7aade,11,0,2024-02-27T09:24:47.673Z,french_381.wav,0,pull,645,34,3,5,français,m,2,0.2,-88.25823098,0.59540025
5c710337bc6ab00001d7aade,11,0,2024-02-27T09:24:47.673Z,french_381.wav,0,pull,645,34,3,5,français,m,3,0.25666667,39.00702017,0.84340327
5c710337bc6ab00001d7aade,12,0,2024-02-27T09:24:47.673Z,french_34.wav,0,poule,390,34,3,5,français,m,0,0.0,-97.24360174,1.95744133
5c710337bc6ab00001d7aade,12,0,2024-02-27T09:24:47.673Z,french_34.wav,0,poule,390,34,3,5,français,m,1,0.1,62.38297295,1.24423752
5c710337bc6ab00001d7aade,12,0,2024-02-27T09:24:47.673Z,french_34.wav,0,poule,390,34,3,5,français,m,2,0.2,-49.09622703,1.91649641
5c710337bc6ab00001d7aade,12,0,2024-02-27T09:24:47.673Z,french_34.wav,0,poule,390,34,3,5,français,m,3,0.25666667,-40.35720841,1.03651442
5c710337bc6ab00001d7aade,13,0,2024-02-27T09:24:47.673Z,french_741.wav,0,poule,597,34,3,5,français,m,0,0.0,52.99239945,1.20115282
5c710337bc6ab00001d7aade,13,0,2024-02-27T09:24:47.673Z,french_741.wav,0,poule,597,34,3,5,français,m,1,0.1,-62.37721768,0.53106937
5c710337bc6ab00001d7aade,13,0,2024-02-27T09:24:47.673Z,french_741.wav,0,poule,597,34,3,5,français,m,2,0.2,54.26195155,1.91925029
5c710337bc6ab00001d7aade,13,0,2024-02-27T09:24:47.673Z,french_741.wav,0,poule,597,34,3,5,français,m,3,0.25666667,8.23350592,0.42380295
5c710337bc6ab00001d7aade,14,0,2024-02-27T09:24:47.673Z,french_532.wav,0,poule,1084,34,3,5,français,m,0,0.0,51.6664435,1.30171402
5c710337bc6ab00001d7aade,14,0,2024-02-27T09:24:47.673Z,french_532.wav,0,poule,1084,34,3,5,français,m,1,0.1,12.38327687,0.03929558
5c710337bc6ab00001d7aade,14,0,2024-02-27T09:24:47.673Z,french_532.wav,0,poule,1084,34,3,5,français,m,2,0.2,-89.35582175,1.38931331
5c710337bc6ab00001d7aade,14,0,2024-02-27T09:24:47.673Z,french_532.wav,0,poule,1084,34,3,5,français,m,3,0.25666667,25.37493155,0.74157834
5c710337bc6ab00001d7aade,15,0,2024-02-27T09:24:47.673Z,french_953.wav,0,poule,571,34,3,5,français,m,0,0.0,-27.22394829,1.27693125
5c710337bc6ab00001d7aade,15,0,2024-02-27T09:24:47.673Z,french_953.wav,0,poule,571,34,3,5,français,m,1,0.1,-3.36109764,0.12331262
5c710337bc6ab00001d7aade,15,0,2024-02-27T09:24:47.673Z,french_953.wav,0,poule,571,34,3,5,français,m,2,0.2,79.96390299,1.48485403
5c710337bc6ab00001d7aade,15,0,2024-02-27T09:24:47.673Z,french_953.wav,0,poule,571,34,3,5,français,m,3,0.25666667,-20.83871742,0.51230705
5c710337bc6ab00001d7aade,16,0,2024-02-27T09:24:47.673Z,french_677.wav,0,pull,1028,34,3,5,français,m,0,0.0,-14.76179085,0.10277679
5c710337bc6ab00001d7aade,16,0,2024-02-27T09:24:47.673Z,french_677.wav,0,pull,1028,34,3,5,français,m,1,0.1,-96.15101895,0.35083798
5c710337bc6ab00001d7aade,16,0,2024-02-27T09:24:47.673Z,french_677.wav,0,pull,1028,34,3,5,français,m,2,0.2,48.20621423,0.65953763
5c710337bc6ab00001d7aade,16,0,2024-02-27T09:24:47.673Z,french_677.wav,0,pull,1028,34,3,5,français,m,3,0.25666667,23.33985038,0.76581679
5c710337bc6ab00001d7aade,17,0,2024-02-27T09:24:47.673Z,french_256.wav,0,poule,361,34,3,5,français,m,0,0.0,34.00641445,1.19838094
5c710337bc6ab00001d7aade,17,0,2024-02-27T09:24:47.673Z,french_256.wav,0,poule,361,34,3,5,français,m,1,0.1,78.12380502,0.9412232
5c710337bc6ab00001d7aade,17,0,2024-02-27T09:24:47.673Z,french_256.wav,0,poule,361,34,3,5,français,m,2,0.2,84.97245465,1.34630265
5c710337bc6ab00001d7aade,17,0,2024-02-27T09:24:47.673Z,french_256.wav,0,poule,361,34,3,5,français,m,3,0.25666667,29.4187394,1.86077871
5c710337bc6ab00001d7aade,18,0,2024-02-27T09:24:47.673Z,french_407.wav,0,poule,362,34,3,5,français,m,0,0.0,-57.6292462,1.8651924
5c710337bc6ab00001d7aade,18,0,2024-02-27T09:24:47.673Z,french_407.wav,0,poule,362,34,3,5,français,m,1,0.1,-25.10683904,1.55880725
5c710337bc6ab00001d7aade,18,0,2024-02-27T09:24:47.673Z,french_407.wav,0,poule,362,34,3,5,français,m,2,0.2,13.09742102,1.30220718
5c710337bc6ab00001d7aade,18,0,2024-02-27T09:24:47.673Z,french_407.wav,0,poule,362,34,3,5,français,m,3,0.25666667,-8.98604593,1.55663467
5c710337bc6ab00001d7aade,19,0,2024-02-27T09:24:47.673Z,french_148.wav,0,poule,979,34,3,5,français,m,0,0.0,-65.76338754,1.63378801
5c710337bc6ab00001d7aade,19,0,2024-02-27T09:24:47.673Z,french_148.wav,0,poule,979,34,3,5,français,m,1,0.1,-45.02607009,0.19427674
5c710337bc6ab00001d7aade,19,0,2024-02-27T09:24:47.673Z,french_148.wav,0,poule,979,34,3,5,français,m,2,0.2,-4.18875901,1.20463049
5c710337bc6ab00001d7aade,19,0,2024-02-27T09:24:47.673Z,french_148.wav,0,poule,979,34,3,5,français,m,3,0.25666667,85.40607693,0.17184116
5c710337bc6ab00001d7aade,20,0,2024-02-27T09:24:47.673Z,french_852.wav,0,pull,963,34,3,5,français,m,0,0.0,-21.25647341,1.59129412
5c710337bc6ab00001d7aade,20,0,2024-02-27T09:24:47.673Z,french_852.wav,0,pull,963,34,3,5,français,m,1,0.1,44.09899268,0.90931534
5c710337bc6ab00001d7aade,20,0,2024-02-27T09:24:47.673Z,french_852.wav,0,pull,963,34,3,5,français,m,2,0.2,-20.54343266,0.17046498
5c710337bc6ab00001d7aade,20,0,2024-02-27T09:24:47.673Z,french_852.wav,0,pull,963,34,3,5,français,m,3,0.25666667,-73.6389021,0.95788578
5c710337bc6ab00001d7aade,21,0,2024-02-27T09:24:47.673Z,french_674.wav,0,poule,371,34,3,5,français,m,0,0.0,36.8658398,0.63817569
5c710337bc6ab00001d7aade,21,0,2024-02-27T09:24:47.673Z,french_674.wav,0,poule,371,34,3,5,français,m,1,0.1,-70.55199619,1.9135219
5c710337bc6ab00001d7aade,21,0,2024-02-27T09:24:47.673Z,french_674.wav,0,poule,371,34,3,5,français,m,2,0.2,-3.70121723,1.96782527
5c710337bc6ab00001d7aade,21,0,2024-02-27T09:24:47.673Z,french_674.wav,0,poule,371,34,3,5,français,m,3,0.25666667,30.12615154,0.86862342
5c710337bc6ab00001d7aade,22,0,2024-02-27T09:24:47.673Z,french_866.wav,0,poule,949,34,3,5,français,m,0,0.0,-60.69074585,1.64484001
5c710337bc6ab00001d7aade,22,0,2024-02-27T09:24:47.673Z,french_866.wav,0,poule,949,34,3,5,français,m,1,0.1,-41.67968152,0.19415831
5c710337bc6ab00001d7aade,22,0,2024-02-27T09:24:47.673Z,french_866.wav,0,poule,949,34,3,5,français,m,2,0.2,-8.99838874,1.20864699
5c710337bc6ab00001d7aade,22,0,2024-02-27T09:24:47.673Z,french_866.wav,0,poule,949,34,3,5,français,m,3,0.25666667,40.83736488,0.81730442
5c710337bc6ab00001d7aade,23,0,2024-02-27T09:24:47.673Z,french_548.wav,0,pull,1093,34,3,5,français,m,0,0.0,1.54236609,0.97335898
5c710337bc6ab00001d7aade,23,0,2024-02-27T09:24:47.673Z,french_548.wav,0,pull,1093,34,3,5,français,m,1,0.1,42.93927178,0.92328993
5c710337bc6ab00001d7aade,23,0,2024-02-27T09:24:47.673Z,french_548.wav,0,pull,1093,34,3,5,français,m,2,0.2,94.14256546,0.31229256
5c710337bc6ab00001d7aade,23,0,2024-02-27T09:24:47.673Z,french_548.wav,0,pull,1093,34,3,5,français,m,3,0.25666667,78.31055202,0.51911246
5c710337bc6ab00001d7aade,24,0,2024-02-27T09:24:47.673Z,french_319.wav,0,poule,510,34,3,5,français,m,0,0.0,63.69489547,0.79356863
5c710337bc6ab00001d7aade,24,0,2024-02-27T09:24:47.673Z,french_319.wav,0,poule,510,34,3,5,français,m,1,0.1,60.76449486,1.37507237
5c710337bc6ab00001d7aade,24,0,2024-02-27T09:24:47.673Z,french_319.wav,0,poule,510,34,3,5,français,m,2,0.2,-58.82123998,1.06369674
5c710337bc6ab00001d7aade,24,0,2024-02-27T09:24:47.673Z,french_319.wav,0,poule,510,34,3,5,français,m,3,0.25666667,43.46614377,1.64660946
5c710337bc6ab00001d7aade,25,0,2024-02-27T09:24:47.673Z,french_907.wav,0,poule,677,34,3,5,français,m,0,0.0,9.20754992,1.79705326
5c710337bc6ab00001d7aade,25,0,2024-02-27T09:24:47.673Z,french_907.wav,0,poule,677,34,3,5,français,m,1,0.1,-39.82714958,0.37644661
5c710337bc6ab00001d7aade,25,0,2024-02-27T09:24:47.673Z,french_907.wav,0,poule,677,34,3,5,français,m,2,0.2,91.774681,1.35697235
5c710337bc6ab00001d7aade,25,0,2024-02-27T09:24:47.673Z,french_907.wav,0,poule,677,34,3,5,français,m,3,0.25666667,-60.10887287,0.87178456
5c710337bc6ab00001d7aade,26,0,2024-02-27T09:24:47.673Z,french_981.wav,0,poule,525,34,3,5,français,m,0,0.0,-1.54223553,0.66538198
5c710337bc6ab00001d7aade,26,0,2024-02-27T09:24:47.673Z,french_981.wav,0,poule,525,34,3,5,français,m,1,0.1,-78.86121057,1.42802268
5c710337bc6ab00001d7aade,26,0,2024-02-27T09:24:47.673Z,french_981.wav,0,poule,525,34,3,5,français,m,2,0.2,-33.48141771,0.92303184
5c710337bc6ab00001d7aade,26,0,2024-02-27T09:24:47.673Z,french_981.wav,0,poule,525,34,3,5,français,m,3,0.25666667,-47.78773965,0.82545089
5c710337bc6ab00001d7aade,27,0,2024-02-27T09:24:47.673Z,french_765.wav,0,poule,1432,34,3,5,français,m,0,0.0,37.74619949,1.94846132
5c710337bc6ab00001d7aade,27,0,2024-02-27T09:24:47.673Z,french_765.wav,0,poule,1432,34,3,5,français,m,1,0.1,35.79177818,0.74629838
5c710337bc6ab00001d7aade,27,0,2024-02-27T09:24:47.673Z,french_765.wav,0,poule,1432,34,3,5,français,m,2,0.2,-4.82792988,1.12672767
5c710337bc6ab00001d7aade,27,0,2024-02-27T09:24:47.673Z,french_765.wav,0,poule,1432,34,3,5,français,m,3,0.25666667,-29.99687949,0.50330326
5c710337bc6ab00001d7aade,28,0,2024-02-27T09:24:47.673Z,french_201.wav,0,poule,428,34,3,5,français,m,0,0.0,8.42387769,1.26451206
5c710337bc6ab00001d7aade,28,0,2024-02-27T09:24:47.673Z,french_201.wav,0,poule,428,34,3,5,français,m,1,0.1,8.12168757,1.63493769
5c710337bc6ab00001d7aade,28,0,2024-02-27T09:24:47.673Z,french_201.wav,0,poule,428,34,3,5,français,m,2,0.2,-23.47755607,1.48075017
5c710337bc6ab00001d7aade,28,0,2024-02-27T09:24:47.673Z,french_201.wav,0,poule,428,34,3,5,français,m,3,0.25666667,-30.65193461,1.0984385
5c710337bc6ab00001d7aade,29,0,2024-02-27T09:24:47.673Z,french_21.wav,0,poule,2002,34,3,5,français,m,0,0.0,54.83693262,0.05508037
5c710337bc6ab00001d7aade,29,0,2024-02-27T09:24:47.673Z,french_21.wav,0,poule,2002,34,3,5,français,m,1,0.1,-44.5884084,0.46211883
5c710337bc6ab00001d7aade,29,0,2024-02-27T09:24:47.673Z,french_21.wav,0,poule,2002,34,3,5,français,m,2,0.2,-75.20982548,1.96075125
5c710337bc6ab00001d7aade,29,0,2024-02-27T09:24:47.673Z,french_21.wav,0,poule,2002,34,3,5,français,m,3,0.25666667,-57.69855476,0.5365247
5c710337bc6ab00001d7aade,30,0,2024-02-27T09:24:47.673Z,french_580.wav,0,poule,402,34,3,5,français,m,0,0.0,27.05941303,0.35053576
5c710337bc6ab00001d7aade,30,0,2024-02-27T09:24:47.673Z,french_580.wav,0,poule,402,34,3,5,français,m,1,0.1,-10.3346088,1.97169455
5c710337bc6ab00001d7aade,30,0,2024-02-27T09:24:47.673Z,french_580.wav,0,poule,402,34,3,5,français,m,2,0.2,-24.27512535,0.90308202
5c710337bc6ab00001d7aade,30,0,2024-02-27T09:24:47.673Z,french_580.wav,0,poule,402,34,3,5,français,m,3,0.25666667,34.7313677,0.94790865
5c710337bc6ab00001d7aade,31,0,2024-02-27T09:24:47.673Z,french_217.wav,0,pull,1238,34,3,5,français,m,0,0.0,-8.63904718,0.91131932
5c710337bc6ab00001d7aade,31,0,2024-02-27T09:24:47.673Z,french_217.wav,0,pull,1238,34,3,5,français,m,1,0.1,71.12460489,1.66035555
5c710337bc6ab00001d7aade,31,0,2024-02-27T09:24:47.673Z,french_217.wav,0,pull,1238,34,3,5,français,m,2,0.2,81.48384407,0.95248702
5c710337bc6ab00001d7aade,31,0,2024-02-27T09:24:47.673Z,french_217.wav,0,pull,1238,34,3,5,français,m,3,0.25666667,64.01477431,0.54451157
5c710337bc6ab00001d7aade,32,0,2024-02-27T09:24:47.673Z,french_915.wav,0,poule,439,34,3,5,français,m,0,0.0,-64.10930236,0.7615396
5c710337bc6ab00001d7aade,32,0,2024-02-27T09:24:47.673Z,french_915.wav,0,poule,439,34,3,5,français,m,1,0.1,-7.16601985,1.77142655
5c710337bc6ab00001d7aade,32,0,2024-02-27T09:24:47.673Z,french_915.wav,0,poule,439,34,3,5,français,m,2,0.2,-76.9677693,1.45350334
5c710337bc6ab00001d7aade,32,0,2024-02-27T09:24:47.673Z,french_915.wav,0,poule,439,34,3,5,français,m,3,0.25666667,64.27469246,1.62999495
5c710337bc6ab00001d7aade,33,0,2024-02-27T09:24:47.673Z,french_773.wav,0,poule,1246,34,3,5,français,m,0,0.0,44.49367894,1.02864329
5c710337bc6ab00001d7aade,33,0,2024-02-27T09:24:47.673Z,french_773.wav,0,poule,1246,34,3,5,français,m,1,0.1,-3.70834598,1.31333622
5c710337bc6ab00001d7aade,33,0,2024-02-27T09:24:47.673Z,french_773.wav,0,poule,1246,34,3,5,français,m,2,0.2,10.6701804,0.86217131
5c710337bc6ab00001d7aade,33,0,2024-02-27T09:24:47.673Z,french_773.wav,0,poule,1246,34,3,5,français,m,3,0.25666667,36.58697532,0.61318027
5c710337bc6ab00001d7aade,34,0,2024-02-27T09:24:47.673Z,french_497.wav,0,poule,395,34,3,5,français,m,0,0.0,-34.77858655,0.98641894
5c710337bc6ab00001d7aade,34,0,2024-02-27T09:24:47.673Z,french_497.wav,0,poule,395,34,3,5,français,m,1,0.1,-52.52188589,1.48106735
5c710337bc6ab00001d7aade,34,0,2024-02-27T09:24:47.673Z,french_497.wav,0,poule,395,34,3,5,français,m,2,0.2,81.6415951,1.37619597
5c710337bc6ab00001d7aade,34,0,2024-02-27T09:24:47.673Z,french_497.wav,0,poule,395,34,3,5,français,m,3,0.25666667,23.98828418,1.87248846
5c710337bc6ab00001d7aade,35,0,2024-02-27T09:24:47.673Z,french_88.wav,0,poule,719,34,3,5,français,m,0,0.0,27.32194303,1.51306501
5c710337bc6ab00001d7aade,35,0,2024-02-27T09:24:47.673Z,french_88.wav,0,poule,719,34,3,5,français,m,1,0.1,-96.72294389,1.24985366
5c710337bc6ab00001d7aade,35,0,2024-02-27T09:24:47.673Z,french_88.wav,0,poule,719,34,3,5,français,m,2,0.2,60.26388925,0.69332812
5c710337bc6ab00001d7aade,35,0,2024-02-27T09:24:47.673Z,french_88.wav,0,poule,719,34,3,5,français,m,3,0.25666667,24.13475024,1.39714954
5c710337bc6ab00001d7aade,36,0,2024-02-27T09:24:47.673Z,french_78.wav,0,poule,573,34,3,5,français,m,0,0.0,-36.45256911,0.98498246
5c710337bc6ab00001d7aade,36,0,2024-02-27T09:24:47.673Z,french_78.wav,0,poule,573,34,3,5,français,m,1,0.1,52.80709263,1.84515784
5c710337bc6ab00001d7aade,36,0,2024-02-27T09:24:47.673Z,french_78.wav,0,poule,573,34,3,5,français,m,2,0.2,-45.25624127,1.50799972
5c710337bc6ab00001d7aade,36,0,2024-02-27T09:24:47.673Z,french_78.wav,0,poule,573,34,3,5,français,m,3,0.25666667,18.96418323,1.61920031
5c710337bc6ab00001d7aade,37,0,2024-02-27T09:24:47.673Z,french_386.wav,0,poule,458,34,3,5,français,m,0,0.0,50.68041389,0.75883449
5c710337bc6ab00001d7aade,37,0,2024-02-27T09:24:47.673Z,french_386.wav,0,poule,458,34,3,5,français,m,1,0.1,19.37586599,1.33167931
5c710337bc6ab00001d7aade,37,0,2024-02-27T09:24:47.673Z,french_386.wav,0,poule,458,34,3,5,français,m,2,0.2,0.19752764,0.89836148
5c710337bc6ab00001d7aade,37,0,2024-02-27T09:24:47.673Z,french_386.wav,0,poule,458,34,3,5,français,m,3,0.25666667,-78.73875249,0.64515466
5c710337bc6ab00001d7aade,38,0,2024-02-27T09:24:47.673Z,french_954.wav,0,pull,1354,34,3,5,français,m,0,0.0,-31.81965022,1.69468269
5c710337bc6ab00001d7aade,38,0,2024-02-27T09:24:47.673Z,french_954.wav,0,pull,1354,34,3,5,français,m,1,0.1,82.90828133,0.7734121
5c710337bc6ab00001d7aade,38,0,2024-02-27T09:24:47.673Z,french_954.wav,0,pull,1354,34,3,5,français,m,2,0.2,94.68318648,0.43346946
5c710337bc6ab00001d7aade,38,0,2024-02-27T09:24:47.673Z,french_954.wav,0,pull,1354,34,3,5,français,m,3,0.25666667,-42.01635115,0.14112827
5c710337bc6ab00001d7aade,39,0,2024-02-27T09:24:47.673Z,french_728.wav,0,poule,583,34,3,5,français,m,0,0.0,-93.70742078,1.13399743
5c710337bc6ab00001d7aade,39,0,2024-02-27T09:24:47.673Z,french_728.wav,0,poule,583,34,3,5,français,m,1,0.1,-62.00989335,0.93012586
5c710337bc6ab00001d7aade,39,0,2024-02-27T09:24:47.673Z,french_728.wav,0,poule,583,34,3,5,français,m,2,0.2,72.64416852,0.78518922
5c710337bc6ab00001d7aade,39,0,2024-02-27T09:24:47.673Z,french_728.wav,0,poule,583,34,3,5,français,m,3,0.25666667,6.15605077,0.75575783
5c710337bc6ab00001d7aade,40,0,2024-02-27T09:24:47.673Z,french_924.wav,0,pull,684,34,3,5,français,m,0,0.0,19.51956159,0.29322561
5c710337bc6ab00001d7aade,40,0,2024-02-27T09:24:47.673Z,french_924.wav,0,pull,684,34,3,5,français,m,1,0.1,-22.93629197,0.34885274
5c710337bc6ab00001d7aade,40,0,2024-02-27T09:24:47.673Z,french_924.wav,0,pull,684,34,3,5,français,m,2,0.2,72.54596199,0.3497483
5c710337bc6ab00001d7aade,40,0,2024-02-27T09:24:47.673Z,french_924.wav,0,pull,684,34,3,5,français,m,3,0.25666667,13.27885696,0.14375838
5c710337bc6ab00001d7aade,41,0,2024-02-27T09:24:47.673Z,french_29.wav,0,poule,674,34,3,5,français,m,0,0.0,82.92052959,1.65542147
5c710337bc6ab00001d7aade,41,0,2024-02-27T09:24:47.673Z,french_29.wav,0,poule,674,34,3,5,français,m,1,0.1,96.5660735,0.71189304
5c710337bc6ab00001d7aade,41,0,2024-02-27T09:24:47.673Z,french_29.wav,0,poule,674,34,3,5,français,m,2,0.2,76.1539425,0.4523944
5c710337bc6ab00001d7aade,41,0,2024-02-27T09:24:47.673Z,french_29.wav,0,poule,674,34,3,5,français,m,3,0.25666667,-7.00195585,1.32757755
5c710337bc6ab00001d7aade,42,0,2024-02-27T09:24:47.673Z,french_707.wav,0,poule,435,34,3,5,français,m,0,0.0,77.25708539,0.72667473
5c710337bc6ab00001d7aade,42,0,2024-02-27T09:24:47.673Z,french_707.wav,0,poule,435,34,3,5,français,m,1,0.1,-54.8008957,1.98017833
5c710337bc6ab00001d7aade,42,0,2024-02-27T09:24:47.673Z,french_707.wav,0,poule,435,34,3,5,français,m,2,0.2,-15.62691875,0.70006776
5c710337bc6ab00001d7aade,42,0,2024-02-27T09:24:47.673Z,french_707.wav,0,poule,435,34,3,5,français,m,3,0.25666667,8.64437522,1.11828401
5c710337bc6ab00001d7aade,43,0,2024-02-27T09:24:47.673Z,french_775.wav,0,pull,877,34,3,5,français,m,0,0.0,-25.73289632,0.08278175
5c710337bc6ab00001d7aade,43,0,2024-02-27T09:24:47.673Z,french_775.wav,0,pull,877,34,3,5,français,m,1,0.1,52.55800123,0.7848412
5c710337bc6ab00001d7aade,43,0,2024-02-27T09:24:47.673Z,french_775.wav,0,pull,877,34,3,5,français,m,2,0.2,-82.88064372,1.99473571
5c710337bc6ab00001d7aade,43,0,2024-02-27T09:24:47.673Z,french_775.wav,0,pull,877,34,3,5,français,m,3,0.25666667,71.02003497,0.87564379
5c710337bc6ab00001d7aade,44,0,2024-02-27T09:24:47.673Z,french_346.wav,0,pull,686,34,3,5,français,m,0,0.0,-9.57888942,1.97053356
5c710337bc6ab00001d7aade,44,0,2024-02-27T09:24:47.673Z,french_346.wav,0,pull,686,34,3,5,français,m,1,0.1,44.75165277,0.16189102
5c710337bc6ab00001d7aade,44,0,2024-02-27T09:24:47.673Z,french_346.wav,0,pull,686,34,3,5,français,m,2,0.2,-77.92949754,0.34896721
5c710337bc6ab00001d7aade,44,0,2024-02-27T09:24:47.673Z,french_346.wav,0,pull,686,34,3,5,français,m,3,0.25666667,-10.35911767,1.54776001
5c710337bc6ab00001d7aade,45,0,2024-02-27T09:24:47.673Z,french_454.wav,0,poule,442,34,3,5,français,m,0,0.0,-2.34959028,0.74247593
5c710337bc6ab00001d7aade,45,0,2024-02-27T09:24:47.673Z,french_454.wav,0,poule,442,34,3,5,français,m,1,0.1,-12.00596157,1.74271244
5c710337bc6ab00001d7aade,45,0,2024-02-27T09:24:47.673Z,french_454.wav,0,poule,442,34,3,5,français,m,2,0.2,53.09832594,0.67609159
5c710337bc6ab00001d7aade,45,0,2024-02-27T09:24:47.673Z,french_454.wav,0,poule,442,34,3,5,français,m,3,0.25666667,2.06709411,1.84499539
5c710337bc6ab00001d7aade,46,0,2024-02-27T09:24:47.673Z,french_423.wav,0,poule,1148,34,3,5,français,m,0,0.0,80.03290271,0.31618382
5c710337bc6ab00001d7aade,46,0,2024-02-27T09:24:47.673Z,french_423.wav,0,poule,1148,34,3,5,français,m,1,0.1,-33.72349736,0.81153422
5c710337bc6ab00001d7aade,46,0,2024-02-27T09:24:47.673Z,french_423.wav,0,poule,1148,34,3,5,français,m,2,0.2,-38.14858153,0.21197718
5c710337bc6ab00001d7aade,46,0,2024-02-27T09:24:47.673Z,french_423.wav,0,poule,1148,34,3,5,français,m,3,0.25666667,-48.66398852,0.41633142
5c710337bc6ab00001d7aade,47,0,2024-02-27T09:24:47.673Z,french_563.wav,0,poule,418,34,3,5,français,m,0,0.0,1.48089244,0.83142925
5c710337bc6ab00001d7aade,47,0,2024-02-27T09:24:47.673Z,french_563.wav,0,poule,418,34,3,5,français,m,1,0.1,19.03426996,1.65727988
5c710337bc6ab00001d7aade,47,0,2024-02-27T09:24:47.673Z,french_563.wav,0,poule,418,34,3,5,français,m,2,0.2,-28.07832236,1.36487064
5c710337bc6ab00001d7aade,47,0,2024-02-27T09:24:47.673Z,french_563.wav,0,poule,418,34,3,5,français,m,3,0.25666667,33.25369521,0.18463038
5c710337bc6ab00001d7aade,48,0,2024-02-27T09:24:47.673Z,french_731.wav,0,pull,1078,34,3,5,français,m,0,0.0,52.82888701,1.42077684
5c710337bc6ab00001d7aade,48,0,2024-02-27T09:24:47.673Z,french_731.wav,0,pull,1078,34,3,5,français,m,1,0.1,44.66747194,0.2996776
5c710337bc6ab00001d7aade,48,0,2024-02-27T09:24:47.673Z,french_731.wav,0,pull,1078,34,3,5,français,m,2,0.2,83.54065351,1.21708869
5c710337bc6ab00001d7aade,48,0,2024-02-27T09:24:47.673Z,french_731.wav,0,pull,1078,34,3,5,français,m,3,0.25666667,-50.41579204,1.31490505
5c710337bc6ab00001d7aade,49,0,2024-02-27T09:24:47.673Z,french_734.wav,0,poule,513,34,3,5,français,m,0,0.0,24.54171911,0.95806039
5c710337bc6ab00001d7aade,49,0,2024-02-27T09:24:47.673Z,french_734.wav,0,poule,513,34,3,5,français,m,1,0.1,62.00217695,1.43009574
5c710337bc6ab00001d7aade,49,0,2024-02-27T09:24:47.673Z,french_734.wav,0,poule,513,34,3,5,français,m,2,0.2,-55.547606,0.47319646
5c710337bc6ab00001d7aade,49,0,2024-02-27T09:24:47.673Z,french_734.wav,0,poule,513,34,3,5,français,m,3,0.25666667,25.07561383,0.83118698
5c710337bc6ab00001d7aade,50,1,2024-02-27T09:24:47.673Z,french_947.wav,0,pull,539,34,3,5,français,m,0,0.0,-44.48466948,0.06372519
5c710337bc6ab00001d7aade,50,1,2024-02-27T09:24:47.673Z,french_947.wav,0,pull,539,34,3,5,français,m,1,0.1,21.49635037,0.1513717
5c710337bc6ab00001d7aade,50,1,2024-02-27T09:24:47.673Z,french_947.wav,0,pull,539,34,3,5,français,m,2,0.2,52.91188767,1.07040488
5c710337bc6ab00001d7aade,50,1,2024-02-27T09:24:47.673Z,french_947.wav,0,pull,539,34,3,5,français,m,3,0.25666667,23.38430508,1.60411559
5c710337bc6ab00001d7aade,51,1,2024-02-27T09:24:47.673Z,french_882.wav,0,pull,530,34,3,5,français,m,0,0.0,-76.64131244,0.67668261
5c710337bc6ab00001d7aade,51,1,2024-02-27T09:24:47.673Z,french_882.wav,0,pull,530,34,3,5,français,m,1,0.1,-39.91871486,0.28498495
5c710337bc6ab00001d7aade,51,1,2024-02-27T09:24:47.673Z,french_882.wav,0,pull,530,34,3,5,français,m,2,0.2,-10.31613543,0.59130788
5c710337bc6ab00001d7aade,51,1,2024-02-27T09:24:47.673Z,french_882.wav,0,pull,530,34,3,5,français,m,3,0.25666667,20.39966841,1.12904738
5c710337bc6ab00001d7aade,52,1,2024-02-27T09:24:47.673Z,french_287.wav,0,pull,536,34,3,5,français,m,0,0.0,-6.24804435,1.11596696
5c710337bc6ab00001d7aade,52,1,2024-02-27T09:24:47.673Z,french_287.wav,0,pull,536,34,3,5,français,m,1,0.1,-47.42967866,0.08887129
5c710337bc6ab00001d7aade,52,1,2024-02-27T09:24:47.673Z,french_287.wav,0,pull,536,34,3,5,français,m,2,0.2,-83.16585562,1.70974676
5c710337bc6ab00001d7aade,52,1,2024-02-27T09:24:47.673Z,french_287.wav,0,pull,536,34,3,5,français,m,3,0.25666667,77.49694817,0.42476907
5c710337bc6ab00001d7aade,53,1,2024-02-27T09:24:47.673Z,french_759.wav,0,poule,686,34,3,5,français,m,0,0.0,43.66892012,0.9017147
5c710337bc6ab00001d7aade,53,1,2024-02-27T09:24:47.673Z,french_759.wav,0,poule,686,34,3,5,français,m,1,0.1,28.75822808,1.01118462
5c710337bc6ab00001d7aade,53,1,2024-02-27T09:24:47.673Z,french_759.wav,0,poule,686,34,3,5,français,m,2,0.2,-53.65094598,1.43326948
5c710337bc6ab00001d7aade,53,1,2024-02-27T09:24:47.673Z,french_759.wav,0,poule,686,34,3,5,français,m,3,0.25666667,-79.66264825,0.32927354
5c710337bc6ab00001d7aade,54,1,2024-02-27T09:24:47.673Z,french_145.wav,0,poule,452,34,3,5,français,m,0,0.0,45.95226671,0.38136586
5c710337bc6ab00001d7aade,54,1,2024-02-27T09:24:47.673Z,french_145.wav,0,poule,452,34,3,5,français,m,1,0.1,-66.66601381,1.38589502
5c710337bc6ab00001d7aade,54,1,2024-02-27T09:24:47.673Z,french_145.wav,0,poule,452,34,3,5,français,m,2,0.2,-89.77596615,0.43712509
5c710337bc6ab00001d7aade,54,1,2024-02-27T09:24:47.673Z,french_145.wav,0,poule,452,34,3,5,français,m,3,0.25666667,8.03115864,1.92826262
5c710337bc6ab00001d7aade,55,1,2024-02-27T09:24:47.673Z,french_589.wav,0,pull,553,34,3,5,français,m,0,0.0,-25.33744833,1.20649344
5c710337bc6ab00001d7aade,55,1,2024-02-27T09:24:47.673Z,french_589.wav,0,pull,553,34,3,5,français,m,1,0.1,-46.00092507,0.60898863
5c710337bc6ab00001d7aade,55,1,2024-02-27T09:24:47.673Z,french_589.wav,0,pull,553,34,3,5,français,m,2,0.2,-35.85501424,0.34188975
5c710337bc6ab00001d7aade,55,1,2024-02-27T09:24:47.673Z,french_589.wav,0,pull,553,34,3,5,français,m,3,0.25666667,61.35269907,1.06172305
5c710337bc6ab00001d7aade,56,1,2024-02-27T09:24:47.673Z,french_333.wav,0,pull,619,34,3,5,français,m,0,0.0,10.14997655,0.96169616
5c710337bc6ab00001d7aade,56,1,2024-02-27T09:24:47.673Z,french_333.wav,0,pull,619,34,3,5,français,m,1,0.1,13.88697857,0.82290304
5c710337bc6ab00001d7aade,56,1,2024-02-27T09:24:47.673Z,french_333.wav,0,pull,619,34,3,5,français,m,2,0.2,3.86253466,0.18816998
5c710337bc6ab00001d7aade,56,1,2024-02-27T09:24:47.673Z,french_333.wav,0,pull,619,34,3,5,français,m,3,0.25666667,47.83568498,1.34102864
5c710337bc6ab00001d7aade,57,1,2024-02-27T09:24:47.673Z,french_397.wav,0,poule,438,34,3,5,français,m,0,0.0,-13.81470081,1.26162917
5c710337bc6ab00001d7aade,57,1,2024-02-27T09:24:47.673Z,french_397.wav,0,poule,438,34,3,5,français,m,1,0.1,50.38281738,1.19612478
5c710337bc6ab00001d7aade,57,1,2024-02-27T09:24:47.673Z,french_397.wav,0,poule,438,34,3,5,français,m,2,0.2,50.22980228,1.02842354
5c710337bc6ab00001d7aade,57,1,2024-02-27T09:24:47.673Z,french_397.wav,0,poule,438,34,3,5,français,m,3,0.25666667,-83.86271009,0.53389444
5c710337bc6ab00001d7aade,58,1,2024-02-27T09:24:47.673Z,french_501.wav,0,pull,478,34,3,5,français,m,0,0.0,-56.11865097,1.37224371
5c710337bc6ab00001d7aade,58,1,2024-02-27T09:24:47.673Z,french_501.wav,0,pull,478,34,3,5,français,m,1,0.1,-7.09029516,0.68301448
5c710337bc6ab00001d7aade,58,1,2024-02-27T09:24:47.673Z,french_501.wav,0,pull,478,34,3,5,français,m,2,0.2,-36.29429224,0.41531668
5c710337bc6ab00001d7aade,58,1,2024-02-27T09:24:47.673Z,french_501.wav,0,pull,478,34,3,5,français,m,3,0.25666667,-11.40231031,0.4885534
5c710337bc6ab00001d7aade,59,1,2024-02-27T09:24:47.673Z,french_960.wav,0,pull,623,34,3,5,français,m,0,0.0,-21.44081237,0.51475761
5c710337bc6ab00001d7aade,59,1,2024-02-27T09:24:47.673Z,french_960.wav,0,pull,623,34,3,5,français,m,1,0.1,-88.4923718,1.11613408
5c710337bc6ab00001d7aade,59,1,2024-02-27T09:24:47.673Z,french_960.wav,0,pull,623,34,3,5,français,m,2,0.2,38.79957112,0.09358172
5c710337bc6ab00001d7aade,59,1,2024-02-27T09:24:47.673Z,french_960.wav,0,pull,623,34,3,5,français,m,3,0.25666667,-94.67313386,1.96196729
5c710337bc6ab00001d7aade,60,1,2024-02-27T09:24:47.673Z,french_670.wav,0,poule,804,34,3,5,français,m,0,0.0,-38.80852857,0.18324618
5c710337bc6ab00001d7aade,60,1,2024-02-27T09:24:47.673Z,french_670.wav,0,poule,804,34,3,5,français,m,1,0.1,-8.64332938,0.81857347
5c710337bc6ab00001d7aade,60,1,2024-02-27T09:24:47.673Z,french_670.wav,0,poule,804,34,3,5,français,m,2,0.2,-55.35683075,1.27404838
5c710337bc6ab00001d7aade,60,1,2024-02-27T09:24:47.673Z,french_670.wav,0,poule,804,34,3,5,français,m,3,0.25666667,17.57735741,1.12537981
5c710337bc6ab00001d7aade,61,1,2024-02-27T09:24:47.673Z,french_175.wav,0,poule,557,34,3,5,français,m,0,0.0,-66.64800697,0.89831181
5c710337bc6ab00001d7aade,61,1,2024-02-27T09:24:47.673Z,french_175.wav,0,poule,557,34,3,5,français,m,1,0.1,55.8136762,1.16054297
5c710337bc6ab00001d7aade,61,1,2024-02-27T09:24:47.673Z,french_175.wav,0,poule,557,34,3,5,français,m,2,0.2,13.86880033,0.04267506
5c710337bc6ab00001d7aade,61,1,2024-02-27T09:24:47.673Z,french_175.wav,0,poule,557,34,3,5,français,m,3,0.25666667,79.77573594,1.48091244
5c710337bc6ab00001d7aade,62,1,2024-02-27T09:24:47.673Z,french_13.wav,0,poule,700,34,3,5,français,m,0,0.0,-32.13252367,0.96861247
5c710337bc6ab00001d7aade,62,1,2024-02-27T09:24:47.673Z,french_13.wav,0,poule,700,34,3,5,français,m,1,0.1,70.64746455,0.7552715
5c710337bc6ab00001d7aade,62,1,2024-02-27T09:24:47.673Z,french_13.wav,0,poule,700,34,3,5,français,m,2,0.2,-67.50971173,1.7097775
5c710337bc6ab00001d7aade,62,1,2024-02-27T09:24:47.673Z,french_13.wav,0,poule,700,34,3,5,français,m,3,0.25666667,94.74832862,1.62121013
5c710337bc6ab00001d7aade,63,1,2024-02-27T09:24:47.673Z,french_269.wav,0,pull,998,34,3,5,français,m,0,0.0,34.85044548,0.000617924031
5c710337bc6ab00001d7aade,63,1,2024-02-27T09:24:47.673Z,french_269.wav,0,pull,998,34,3,5,français,m,1,0.1,47.51511781,1.05540646
5c710337bc6ab00001d7aade,63,1,2024-02-27T09:24:47.673Z,french_269.wav,0,pull,998,34,3,5,français,m,2,0.2,34.15302515,0.984234213
5c710337bc6ab00001d7aade,63,1,2024-02-27T09:24:47.673Z,french_269.wav,0,pull,998,34,3,5,français,m,3,0.25666667,-55.0259295,0.845106618
5c710337bc6ab00001d7aade,64,1,2024-02-27T09:24:47.673Z,french_702.wav,0,poule,680,34,3,5,français,m,0,0.0,-53.8337347,0.65995653
5c710337bc6ab00001d7aade,64,1,2024-02-27T09:24:47.673Z,french_702.wav,0,poule,680,34,3,5,français,m,1,0.1,13.17722269,1.48591365
5c710337bc6ab00001d7aade,64,1,2024-02-27T09:24:47.673Z,french_702.wav,0,poule,680,34,3,5,français,m,2,0.2,-63.63948694,1.16262137
5c710337bc6ab00001d7aade,64,1,2024-02-27T09:24:47.673Z,french_702.wav,0,poule,680,34,3,5,français,m,3,0.25666667,-7.77006894,1.49403865
5c710337bc6ab00001d7aade,65,1,2024-02-27T09:24:47.673Z,french_342.wav,0,poule,434,34,3,5,français,m,0,0.0,-84.22246184,0.80111929
5c710337bc6ab00001d7aade,65,1,2024-02-27T09:24:47.673Z,french_342.wav,0,poule,434,34,3,5,français,m,1,0.1,-88.55202377,0.92289162
5c710337bc6ab00001d7aade,65,1,2024-02-27T09:24:47.673Z,french_342.wav,0,poule,434,34,3,5,français,m,2,0.2,12.74462997,0.96187701
5c710337bc6ab00001d7aade,65,1,2024-02-27T09:24:47.673Z,french_342.wav,0,poule,434,34,3,5,français,m,3,0.25666667,-73.67155113,0.57764427
5c710337bc6ab00001d7aade,66,1,2024-02-27T09:24:47.673Z,french_914.wav,0,poule,428,34,3,5,français,m,0,0.0,-34.97252921,0.97835832
5c710337bc6ab00001d7aade,66,1,2024-02-27T09:24:47.673Z,french_914.wav,0,poule,428,34,3,5,français,m,1,0.1,-72.63984802,0.99245682
5c710337bc6ab00001d7aade,66,1,2024-02-27T09:24:47.673Z,french_914.wav,0,poule,428,34,3,5,français,m,2,0.2,-17.99574982,1.64333977
5c710337bc6ab00001d7aade,66,1,2024-02-27T09:24:47.673Z,french_914.wav,0,poule,428,34,3,5,français,m,3,0.25666667,97.045673,1.63101446
5c710337bc6ab00001d7aade,67,1,2024-02-27T09:24:47.673Z,french_789.wav,0,poule,448,34,3,5,français,m,0,0.0,16.13130467,1.41580253
5c710337bc6ab00001d7aade,67,1,2024-02-27T09:24:47.673Z,french_789.wav,0,poule,448,34,3,5,français,m,1,0.1,-53.51301261,1.63533644
5c710337bc6ab00001d7aade,67,1,2024-02-27T09:24:47.673Z,french_789.wav,0,poule,448,34,3,5,français,m,2,0.2,91.10833978,0.42839577
5c710337bc6ab00001d7aade,67,1,2024-02-27T09:24:47.673Z,french_789.wav,0,poule,448,34,3,5,français,m,3,0.25666667,9.61415248,0.64971622
5c710337bc6ab00001d7aade,68,1,2024-02-27T09:24:47.673Z,french_920.wav,0,poule,1398,34,3,5,français,m,0,0.0,98.83591172,0.7646584
5c710337bc6ab00001d7aade,68,1,2024-02-27T09:24:47.673Z,french_920.wav,0,poule,1398,34,3,5,français,m,1,0.1,-64.95643085,1.02879579
5c710337bc6ab00001d7aade,68,1,2024-02-27T09:24:47.673Z,french_920.wav,0,poule,1398,34,3,5,français,m,2,0.2,1.57326281,1.0684491
5c710337bc6ab00001d7aade,68,1,2024-02-27T09:24:47.673Z,french_920.wav,0,poule,1398,34,3,5,français,m,3,0.25666667,-25.63648329,0.89198175
5c710337bc6ab00001d7aade,69,1,2024-02-27T09:24:47.673Z,french_459.wav,0,pull,1058,34,3,5,français,m,0,0.0,4.79398058,1.10654006
5c710337bc6ab00001d7aade,69,1,2024-02-27T09:24:47.673Z,french_459.wav,0,pull,1058,34,3,5,français,m,1,0.1,85.90612859,1.2996969
5c710337bc6ab00001d7aade,69,1,2024-02-27T09:24:47.673Z,french_459.wav,0,pull,1058,34,3,5,français,m,2,0.2,-69.41023595,0.20520219
5c710337bc6ab00001d7aade,69,1,2024-02-27T09:24:47.673Z,french_459.wav,0,pull,1058,34,3,5,français,m,3,0.25666667,-22.07588814,1.17361701
5c710337bc6ab00001d7aade,70,1,2024-02-27T09:24:47.673Z,french_472.wav,0,poule,509,34,3,5,français,m,0,0.0,-9.46806957,0.85855516
5c710337bc6ab00001d7aade,70,1,2024-02-27T09:24:47.673Z,french_472.wav,0,poule,509,34,3,5,français,m,1,0.1,45.81973918,1.60383991
5c710337bc6ab00001d7aade,70,1,2024-02-27T09:24:47.673Z,french_472.wav,0,poule,509,34,3,5,français,m,2,0.2,-32.95266456,0.80244772
5c710337bc6ab00001d7aade,70,1,2024-02-27T09:24:47.673Z,french_472.wav,0,poule,509,34,3,5,français,m,3,0.25666667,-10.56557549,1.48234138
5c710337bc6ab00001d7aade,71,1,2024-02-27T09:24:47.673Z,french_526.wav,0,poule,423,34,3,5,français,m,0,0.0,88.08406442,1.10890049
5c710337bc6ab00001d7aade,71,1,2024-02-27T09:24:47.673Z,french_526.wav,0,poule,423,34,3,5,français,m,1,0.1,34.72799638,1.05741796
5c710337bc6ab00001d7aade,71,1,2024-02-27T09:24:47.673Z,french_526.wav,0,poule,423,34,3,5,français,m,2,0.2,4.2178472,1.4706377
5c710337bc6ab00001d7aade,71,1,2024-02-27T09:24:47.673Z,french_526.wav,0,poule,423,34,3,5,français,m,3,0.25666667,90.74946068,0.12061003
5c710337bc6ab00001d7aade,72,1,2024-02-27T09:24:47.673Z,french_347.wav,0,pull,1383,34,3,5,français,m,0,0.0,-50.57249908,1.7558536
5c710337bc6ab00001d7aade,72,1,2024-02-27T09:24:47.673Z,french_347.wav,0,pull,1383,34,3,5,français,m,1,0.1,-0.96259157,0.42717605
5c710337bc6ab00001d7aade,72,1,2024-02-27T09:24:47.673Z,french_347.wav,0,pull,1383,34,3,5,français,m,2,0.2,56.28626554,1.32943016
5c710337bc6ab00001d7aade,72,1,2024-02-27T09:24:47.673Z,french_347.wav,0,pull,1383,34,3,5,français,m,3,0.25666667,46.89576118,0.4771217
5c710337bc6ab00001d7aade,73,1,2024-02-27T09:24:47.673Z,french_955.wav,0,poule,621,34,3,5,français,m,0,0.0,49.41572239,1.13440167
5c710337bc6ab00001d7aade,73,1,2024-02-27T09:24:47.673Z,french_955.wav,0,poule,621,34,3,5,français,m,1,0.1,75.37923123,1.49278765
5c710337bc6ab00001d7aade,73,1,2024-02-27T09:24:47.673Z,french_955.wav,0,poule,621,34,3,5,français,m,2,0.2,0.1370905,0.20624254
5c710337bc6ab00001d7aade,73,1,2024-02-27T09:24:47.673Z,french_955.wav,0,poule,621,34,3,5,français,m,3,0.25666667,22.03577701,0.01599226
5c710337bc6ab00001d7aade,74,1,2024-02-27T09:24:47.673Z,french_275.wav,0,poule,1351,34,3,5,français,m,0,0.0,-71.45872278,0.56157087
5c710337bc6ab00001d7aade,74,1,2024-02-27T09:24:47.673Z,french_275.wav,0,poule,1351,34,3,5,français,m,1,0.1,50.23093754,1.03531052
5c710337bc6ab00001d7aade,74,1,2024-02-27T09:24:47.673Z,french_275.wav,0,poule,1351,34,3,5,français,m,2,0.2,82.04936404,1.31605034
5c710337bc6ab00001d7aade,74,1,2024-02-27T09:24:47.673Z,french_275.wav,0,poule,1351,34,3,5,français,m,3,0.25666667,-63.35862329,0.72936955
5c710337bc6ab00001d7aade,75,1,2024-02-27T09:24:47.673Z,french_444.wav,0,poule,1588,34,3,5,français,m,0,0.0,55.47353293,0.9328321
5c710337bc6ab00001d7aade,75,1,2024-02-27T09:24:47.673Z,french_444.wav,0,poule,1588,34,3,5,français,m,1,0.1,12.04434333,1.46542582
5c710337bc6ab00001d7aade,75,1,2024-02-27T09:24:47.673Z,french_444.wav,0,poule,1588,34,3,5,français,m,2,0.2,14.09264182,1.44584709
5c710337bc6ab00001d7aade,75,1,2024-02-27T09:24:47.673Z,french_444.wav,0,poule,1588,34,3,5,français,m,3,0.25666667,-80.20656615,1.50777595
5c710337bc6ab00001d7aade,76,1,2024-02-27T09:24:47.673Z,french_671.wav,0,pull,1213,34,3,5,français,m,0,0.0,-43.02390558,0.93196934
5c710337bc6ab00001d7aade,76,1,2024-02-27T09:24:47.673Z,french_671.wav,0,pull,1213,34,3,5,français,m,1,0.1,13.89093856,1.15314194
5c710337bc6ab00001d7aade,76,1,2024-02-27T09:24:47.673Z,french_671.wav,0,pull,1213,34,3,5,français,m,2,0.2,3.48608914,0.54353121
5c710337bc6ab00001d7aade,76,1,2024-02-27T09:24:47.673Z,french_671.wav,0,pull,1213,34,3,5,français,m,3,0.25666667,-98.36263583,1.08598707
5c710337bc6ab00001d7aade,77,1,2024-02-27T09:24:47.673Z,french_282.wav,0,poule,453,34,3,5,français,m,0,0.0,-97.43488085,0.55303377
5c710337bc6ab00001d7aade,77,1,2024-02-27T09:24:47.673Z,french_282.wav,0,poule,453,34,3,5,français,m,1,0.1,96.20897113,1.41145651
5c710337bc6ab00001d7aade,77,1,2024-02-27T09:24:47.673Z,french_282.wav,0,poule,453,34,3,5,français,m,2,0.2,27.16020646,1.83661618
5c710337bc6ab00001d7aade,77,1,2024-02-27T09:24:47.673Z,french_282.wav,0,poule,453,34,3,5,français,m,3,0.25666667,-13.14092169,0.36912502
5c710337bc6ab00001d7aade,78,1,2024-02-27T09:24:47.673Z,french_771.wav,0,pull,1106,34,3,5,français,m,0,0.0,-31.32443984,0.10443369
5c710337bc6ab00001d7aade,78,1,2024-02-27T09:24:47.673Z,french_771.wav,0,pull,1106,34,3,5,français,m,1,0.1,2.91896775,0.0162425
5c710337bc6ab00001d7aade,78,1,2024-02-27T09:24:47.673Z,french_771.wav,0,pull,1106,34,3,5,français,m,2,0.2,73.75563113,0.96029425
5c710337bc6ab00001d7aade,78,1,2024-02-27T09:24:47.673Z,french_771.wav,0,pull,1106,34,3,5,français,m,3,0.25666667,61.27629387,1.26482275
5c710337bc6ab00001d7aade,79,1,2024-02-27T09:24:47.673Z,french_740.wav,0,poule,1291,34,3,5,français,m,0,0.0,-63.22643447,1.41698272
5c710337bc6ab00001d7aade,79,1,2024-02-27T09:24:47.673Z,french_740.wav,0,poule,1291,34,3,5,français,m,1,0.1,-76.79793208,1.15791198
5c710337bc6ab00001d7aade,79,1,2024-02-27T09:24:47.673Z,french_740.wav,0,poule,1291,34,3,5,français,m,2,0.2,-90.89358737,1.97460827
5c710337bc6ab00001d7aade,79,1,2024-02-27T09:24:47.673Z,french_740.wav,0,poule,1291,34,3,5,français,m,3,0.25666667,-87.57687491,0.61281255
5c710337bc6ab00001d7aade,80,1,2024-02-27T09:24:47.673Z,french_780.wav,0,poule,882,34,3,5,français,m,0,0.0,-26.4428256,1.10618342
5c710337bc6ab00001d7aade,80,1,2024-02-27T09:24:47.673Z,french_780.wav,0,poule,882,34,3,5,français,m,1,0.1,71.38381251,1.00150251
5c710337bc6ab00001d7aade,80,1,2024-02-27T09:24:47.673Z,french_780.wav,0,poule,882,34,3,5,français,m,2,0.2,23.58434052,0.69699056
5c710337bc6ab00001d7aade,80,1,2024-02-27T09:24:47.673Z,french_780.wav,0,poule,882,34,3,5,français,m,3,0.25666667,-77.81567576,1.24957366
5c710337bc6ab00001d7aade,81,1,2024-02-27T09:24:47.673Z,french_646.wav,0,pull,727,34,3,5,français,m,0,0.0,98.47808426,1.66300853
5c710337bc6ab00001d7aade,81,1,2024-02-27T09:24:47.673Z,french_646.wav,0,pull,727,34,3,5,français,m,1,0.1,98.7741611,0.58876545
5c710337bc6ab00001d7aade,81,1,2024-02-27T09:24:47.673Z,french_646.wav,0,pull,727,34,3,5,français,m,2,0.2,-51.76092723,0.47940067
5c710337bc6ab00001d7aade,81,1,2024-02-27T09:24:47.673Z,french_646.wav,0,pull,727,34,3,5,français,m,3,0.25666667,53.55118827,0.48942216
5c710337bc6ab00001d7aade,82,1,2024-02-27T09:24:47.673Z,french_222.wav,0,pull,747,34,3,5,français,m,0,0.0,-98.35523197,0.13834953
5c710337bc6ab00001d7aade,82,1,2024-02-27T09:24:47.673Z,french_222.wav,0,pull,747,34,3,5,français,m,1,0.1,61.03285987,0.55930016
5c710337bc6ab00001d7aade,82,1,2024-02-27T09:24:47.673Z,french_222.wav,0,pull,747,34,3,5,français,m,2,0.2,-86.01422932,0.40370114
5c710337bc6ab00001d7aade,82,1,2024-02-27T09:24:47.673Z,french_222.wav,0,pull,747,34,3,5,français,m,3,0.25666667,61.26386047,0.21495758
5c710337bc6ab00001d7aade,83,1,2024-02-27T09:24:47.673Z,french_374.wav,0,pull,1260,34,3,5,français,m,0,0.0,23.12233407,0.63582229
5c710337bc6ab00001d7aade,83,1,2024-02-27T09:24:47.673Z,french_374.wav,0,pull,1260,34,3,5,français,m,1,0.1,4.88786521,0.48218095
5c710337bc6ab00001d7aade,83,1,2024-02-27T09:24:47.673Z,french_374.wav,0,pull,1260,34,3,5,français,m,2,0.2,75.40336837,0.81003499
5c710337bc6ab00001d7aade,83,1,2024-02-27T09:24:47.673Z,french_374.wav,0,pull,1260,34,3,5,français,m,3,0.25666667,-52.23092949,1.31471089
5c710337bc6ab00001d7aade,84,1,2024-02-27T09:24:47.673Z,french_937.wav,0,poule,394,34,3,5,français,m,0,0.0,27.89553513,1.9323197
5c710337bc6ab00001d7aade,84,1,2024-02-27T09:24:47.673Z,french_937.wav,0,poule,394,34,3,5,français,m,1,0.1,-51.2753628,1.67315664
5c710337bc6ab00001d7aade,84,1,2024-02-27T09:24:47.673Z,french_937.wav,0,poule,394,34,3,5,français,m,2,0.2,-75.08991272,1.14592467
5c710337bc6ab00001d7aade,84,1,2024-02-27T09:24:47.673Z,french_937.wav,0,poule,394,34,3,5,français,m,3,0.25666667,-24.40434042,1.81837395
5c710337bc6ab00001d7aade,85,1,2024-02-27T09:24:47.673Z,french_551.wav,0,pull,550,34,3,5,français,m,0,0.0,-87.08357851,1.2328931
5c710337bc6ab00001d7aade,85,1,2024-02-27T09:24:47.673Z,french_551.wav,0,pull,550,34,3,5,français,m,1,0.1,71.56090061,1.28136219
5c710337bc6ab00001d7aade,85,1,2024-02-27T09:24:47.673Z,french_551.wav,0,pull,550,34,3,5,français,m,2,0.2,-46.55712742,0.3781059
5c710337bc6ab00001d7aade,85,1,2024-02-27T09:24:47.673Z,french_551.wav,0,pull,550,34,3,5,français,m,3,0.25666667,-57.93002391,1.42095582
5c710337bc6ab00001d7aade,86,1,2024-02-27T09:24:47.673Z,french_819.wav,0,poule,1468,34,3,5,français,m,0,0.0,10.23888344,1.93351894
5c710337bc6ab00001d7aade,86,1,2024-02-27T09:24:47.673Z,french_819.wav,0,poule,1468,34,3,5,français,m,1,0.1,14.33129562,0.24790788
5c710337bc6ab00001d7aade,86,1,2024-02-27T09:24:47.673Z,french_819.wav,0,poule,1468,34,3,5,français,m,2,0.2,-57.61493264,1.58463495
5c710337bc6ab00001d7aade,86,1,2024-02-27T09:24:47.673Z,french_819.wav,0,poule,1468,34,3,5,français,m,3,0.25666667,33.17012155,0.31192511
5c710337bc6ab00001d7aade,87,1,2024-02-27T09:24:47.673Z,french_48.wav,0,poule,522,34,3,5,français,m,0,0.0,39.79198264,1.78905862
5c710337bc6ab00001d7aade,87,1,2024-02-27T09:24:47.673Z,french_48.wav,0,poule,522,34,3,5,français,m,1,0.1,66.47948286,1.41226809
5c710337bc6ab00001d7aade,87,1,2024-02-27T09:24:47.673Z,french_48.wav,0,poule,522,34,3,5,français,m,2,0.2,57.39946228,1.54721415
5c710337bc6ab00001d7aade,87,1,2024-02-27T09:24:47.673Z,french_48.wav,0,poule,522,34,3,5,français,m,3,0.25666667,-39.27972342,0.33574946
5c710337bc6ab00001d7aade,88,1,2024-02-27T09:24:47.673Z,french_199.wav,0,poule,420,34,3,5,français,m,0,0.0,-60.03977098,1.87963745
5c710337bc6ab00001d7aade,88,1,2024-02-27T09:24:47.673Z,french_199.wav,0,poule,420,34,3,5,français,m,1,0.1,7.3213083,1.19076365
5c710337bc6ab00001d7aade,88,1,2024-02-27T09:24:47.673Z,french_199.wav,0,poule,420,34,3,5,français,m,2,0.2,-32.97621994,1.00205813
5c710337bc6ab00001d7aade,88,1,2024-02-27T09:24:47.673Z,french_199.wav,0,poule,420,34,3,5,français,m,3,0.25666667,90.87482197,1.05600478
5c710337bc6ab00001d7aade,89,1,2024-02-27T09:24:47.673Z,french_109.wav,0,poule,669,34,3,5,français,m,0,0.0,-57.66612313,0.91141338
5c710337bc6ab00001d7aade,89,1,2024-02-27T09:24:47.673Z,french_109.wav,0,poule,669,34,3,5,français,m,1,0.1,-72.54090479,1.63809523
5c710337bc6ab00001d7aade,89,1,2024-02-27T09:24:47.673Z,french_109.wav,0,poule,669,34,3,5,français,m,2,0.2,-5.66573875,1.08686957
5c710337bc6ab00001d7aade,89,1,2024-02-27T09:24:47.673Z,french_109.wav,0,poule,669,34,3,5,français,m,3,0.25666667,-86.22212262,0.85420458
5c710337bc6ab00001d7aade,90,1,2024-02-27T09:24:47.673Z,french_921.wav,0,pull,530,34,3,5,français,m,0,0.0,24.11125356,1.60122976
5c710337bc6ab00001d7aade,90,1,2024-02-27T09:24:47.673Z,french_921.wav,0,pull,530,34,3,5,français,m,1,0.1,37.62729467,0.45720022
5c710337bc6ab00001d7aade,90,1,2024-02-27T09:24:47.673Z,french_921.wav,0,pull,530,34,3,5,français,m,2,0.2,-94.55025244,1.67775241
5c710337bc6ab00001d7aade,90,1,2024-02-27T09:24:47.673Z,french_921.wav,0,pull,530,34,3,5,français,m,3,0.25666667,10.27679313,0.96598245
5c710337bc6ab00001d7aade,91,1,2024-02-27T09:24:47.673Z,french_356.wav,0,pull,1042,34,3,5,français,m,0,0.0,-28.24477507,0.35227097
5c710337bc6ab00001d7aade,91,1,2024-02-27T09:24:47.673Z,french_356.wav,0,pull,1042,34,3,5,français,m,1,0.1,-36.63699676,1.16218152
5c710337bc6ab00001d7aade,91,1,2024-02-27T09:24:47.673Z,french_356.wav,0,pull,1042,34,3,5,français,m,2,0.2,67.9524461,1.82395355
5c710337bc6ab00001d7aade,91,1,2024-02-27T09:24:47.673Z,french_356.wav,0,pull,1042,34,3,5,français,m,3,0.25666667,8.53170414,1.63669257
5c710337bc6ab00001d7aade,92,1,2024-02-27T09:24:47.673Z,french_306.wav,0,poule,579,34,3,5,français,m,0,0.0,22.4772117,0.91979461
5c710337bc6ab00001d7aade,92,1,2024-02-27T09:24:47.673Z,french_306.wav,0,poule,579,34,3,5,français,m,1,0.1,-23.30683659,1.83006101
5c710337bc6ab00001d7aade,92,1,2024-02-27T09:24:47.673Z,french_306.wav,0,poule,579,34,3,5,français,m,2,0.2,-85.44667034,1.25602607
5c710337bc6ab00001d7aade,92,1,2024-02-27T09:24:47.673Z,french_306.wav,0,poule,579,34,3,5,français,m,3,0.25666667,-79.47374411,0.84497865
5c710337bc6ab00001d7aade,93,1,2024-02-27T09:24:47.673Z,french_940.wav,0,poule,443,34,3,5,français,m,0,0.0,60.64207397,1.38818271
5c710337bc6ab00001d7aade,93,1,2024-02-27T09:24:47.673Z,french_940.wav,0,poule,443,34,3,5,français,m,1,0.1,-16.07257124,1.64047706
5c710337bc6ab00001d7aade,93,1,2024-02-27T09:24:47.673Z,french_940.wav,0,poule,443,34,3,5,français,m,2,0.2,-38.93693506,1.31963125
5c710337bc6ab00001d7aade,93,1,2024-02-27T09:24:47.673Z,french_940.wav,0,poule,443,34,3,5,français,m,3,0.25666667,-22.19838027,1.73227719
5c710337bc6ab00001d7aade,94,1,2024-02-27T09:24:47.673Z,french_931.wav,0,pull,1448,34,3,5,français,m,0,0.0,64.75046939,1.51932084
5c710337bc6ab00001d7aade,94,1,2024-02-27T09:24:47.673Z,french_931.wav,0,pull,1448,34,3,5,français,m,1,0.1,-55.9473081,1.08335674
5c710337bc6ab00001d7aade,94,1,2024-02-27T09:24:47.673Z,french_931.wav,0,pull,1448,34,3,5,français,m,2,0.2,32.85596214,0.78781639
5c710337bc6ab00001d7aade,94,1,2024-02-27T09:24:47.673Z,french_931.wav,0,pull,1448,34,3,5,français,m,3,0.25666667,-89.33798771,0.66435238
5c710337bc6ab00001d7aade,95,1,2024-02-27T09:24:47.673Z,french_219.wav,0,pull,577,34,3,5,français,m,0,0.0,-98.78648146,1.35832625
5c710337bc6ab00001d7aade,95,1,2024-02-27T09:24:47.673Z,french_219.wav,0,pull,577,34,3,5,français,m,1,0.1,-54.51672601,0.9105506
5c710337bc6ab00001d7aade,95,1,2024-02-27T09:24:47.673Z,french_219.wav,0,pull,577,34,3,5,français,m,2,0.2,75.82451993,0.22027405
5c710337bc6ab00001d7aade,95,1,2024-02-27T09:24:47.673Z,french_219.wav,0,pull,577,34,3,5,français,m,3,0.25666667,42.52821499,1.53742188
5c710337bc6ab00001d7aade,96,1,2024-02-27T09:24:47.673Z,french_313.wav,0,pull,1473,34,3,5,français,m,0,0.0,50.15458506,0.55380102
5c710337bc6ab00001d7aade,96,1,2024-02-27T09:24:47.673Z,french_313.wav,0,pull,1473,34,3,5,français,m,1,0.1,2.46815661,0.88494107
5c710337bc6ab00001d7aade,96,1,2024-02-27T09:24:47.673Z,french_313.wav,0,pull,1473,34,3,5,français,m,2,0.2,44.14025365,0.65214702
5c710337bc6ab00001d7aade,96,1,2024-02-27T09:24:47.673Z,french_313.wav,0,pull,1473,34,3,5,français,m,3,0.25666667,-56.8276357,0.5616472
5c710337bc6ab00001d7aade,97,1,2024-02-27T09:24:47.673Z,french_14.wav,0,poule,302,34,3,5,français,m,0,0.0,29.04259121,1.27596418
5c710337bc6ab00001d7aade,97,1,2024-02-27T09:24:47.673Z,french_14.wav,0,poule,302,34,3,5,français,m,1,0.1,-13.93862831,1.81664743
5c710337bc6ab00001d7aade,97,1,2024-02-27T09:24:47.673Z,french_14.wav,0,poule,302,34,3,5,français,m,2,0.2,-3.57455278,1.61822265
5c710337bc6ab00001d7aade,97,1,2024-02-27T09:24:47.673Z,french_14.wav,0,poule,302,34,3,5,français,m,3,0.25666667,14.81088412,1.58848758
5c710337bc6ab00001d7aade,98,1,2024-02-27T09:24:47.673Z,french_431.wav,0,poule,269,34,3,5,français,m,0,0.0,-54.98282588,1.39465542
5c710337bc6ab00001d7aade,98,1,2024-02-27T09:24:47.673Z,french_431.wav,0,poule,269,34,3,5,français,m,1,0.1,-84.59035382,1.77814632
5c710337bc6ab00001d7aade,98,1,2024-02-27T09:24:47.673Z,french_431.wav,0,poule,269,34,3,5,français,m,2,0.2,-24.91317649,0.57412197
5c710337bc6ab00001d7aade,98,1,2024-02-27T09:24:47.673Z,french_431.wav,0,poule,269,34,3,5,français,m,3,0.25666667,11.58207854,1.85348509
5c710337bc6ab00001d7aade,99,1,2024-02-27T09:24:47.673Z,french_986.wav,0,poule,350,34,3,5,français,m,0,0.0,-69.96795985,1.93285955
5c710337bc6ab00001d7aade,99,1,2024-02-27T09:24:47.673Z,french_986.wav,0,poule,350,34,3,5,français,m,1,0.1,-65.30377544,1.55838575
5c710337bc6ab00001d7aade,99,1,2024-02-27T09:24:47.673Z,french_986.wav,0,poule,350,34,3,5,français,m,2,0.2,27.38987225,0.12645153
5c710337bc6ab00001d7aade,99,1,2024-02-27T09:24:47.673Z,french_986.wav,0,poule,350,34,3,5,français,m,3,0.25666667,-55.80740264,0.78072242
5c710337bc6ab00001d7aade,100,2,2024-02-27T09:24:47.673Z,french_566.wav,0,pull,852,34,3,5,français,m,0,0.0,64.79843522,1.40647024
5c710337bc6ab00001d7aade,100,2,2024-02-27T09:24:47.673Z,french_566.wav,0,pull,852,34,3,5,français,m,1,0.1,34.55507538,1.25726542
5c710337bc6ab00001d7aade,100,2,2024-02-27T09:24:47.673Z,french_566.wav,0,pull,852,34,3,5,français,m,2,0.2,88.9191899,0.22445964
5c710337bc6ab00001d7aade,100,2,2024-02-27T09:24:47.673Z,french_566.wav,0,pull,852,34,3,5,français,m,3,0.25666667,20.7211509,0.73474601
5c710337bc6ab00001d7aade,101,2,2024-02-27T09:24:47.673Z,french_398.wav,0,poule,344,34,3,5,français,m,0,0.0,6.24181165,1.03823517
5c710337bc6ab00001d7aade,101,2,2024-02-27T09:24:47.673Z,french_398.wav,0,poule,344,34,3,5,français,m,1,0.1,-92.25652661,1.54229831
5c710337bc6ab00001d7aade,101,2,2024-02-27T09:24:47.673Z,french_398.wav,0,poule,344,34,3,5,français,m,2,0.2,-10.16879246,1.61201148
5c710337bc6ab00001d7aade,101,2,2024-02-27T09:24:47.673Z,french_398.wav,0,poule,344,34,3,5,français,m,3,0.25666667,42.06293659,1.50798312
5c710337bc6ab00001d7aade,102,2,2024-02-27T09:24:47.673Z,french_106.wav,0,poule,566,34,3,5,français,m,0,0.0,-80.93311261,0.79978414
5c710337bc6ab00001d7aade,102,2,2024-02-27T09:24:47.673Z,french_106.wav,0,poule,566,34,3,5,français,m,1,0.1,7.33604761,0.87655026
5c710337bc6ab00001d7aade,102,2,2024-02-27T09:24:47.673Z,french_106.wav,0,poule,566,34,3,5,français,m,2,0.2,53.45287064,1.02362607
5c710337bc6ab00001d7aade,102,2,2024-02-27T09:24:47.673Z,french_106.wav,0,poule,566,34,3,5,français,m,3,0.25666667,-26.77526802,1.25354946
5c710337bc6ab00001d7aade,103,2,2024-02-27T09:24:47.673Z,french_428.wav,0,poule,430,34,3,5,français,m,0,0.0,32.54087273,1.95600578
5c710337bc6ab00001d7aade,103,2,2024-02-27T09:24:47.673Z,french_428.wav,0,poule,430,34,3,5,français,m,1,0.1,-45.07567034,1.3753822
5c710337bc6ab00001d7aade,103,2,2024-02-27T09:24:47.673Z,french_428.wav,0,poule,430,34,3,5,français,m,2,0.2,23.18683175,0.5862849
5c710337bc6ab00001d7aade,103,2,2024-02-27T09:24:47.673Z,french_428.wav,0,poule,430,34,3,5,français,m,3,0.25666667,-58.08389968,0.11110367
5c710337bc6ab00001d7aade,104,2,2024-02-27T09:24:47.673Z,french_836.wav,0,pull,392,34,3,5,français,m,0,0.0,40.23641464,0.42377088
5c710337bc6ab00001d7aade,104,2,2024-02-27T09:24:47.673Z,french_836.wav,0,pull,392,34,3,5,français,m,1,0.1,53.79535187,0.63943013
5c710337bc6ab00001d7aade,104,2,2024-02-27T09:24:47.673Z,french_836.wav,0,pull,392,34,3,5,français,m,2,0.2,-4.0789246,1.19242466
5c710337bc6ab00001d7aade,104,2,2024-02-27T09:24:47.673Z,french_836.wav,0,pull,392,34,3,5,français,m,3,0.25666667,3.8536211,1.488673
5c710337bc6ab00001d7aade,105,2,2024-02-27T09:24:47.673Z,french_395.wav,0,pull,1238,34,3,5,français,m,0,0.0,53.54317287,1.78210887
5c710337bc6ab00001d7aade,105,2,2024-02-27T09:24:47.673Z,french_395.wav,0,pull,1238,34,3,5,français,m,1,0.1,-58.7899365,0.28539332
5c710337bc6ab00001d7aade,105,2,2024-02-27T09:24:47.673Z,french_395.wav,0,pull,1238,34,3,5,français,m,2,0.2,-16.29959602,1.44255764
5c710337bc6ab00001d7aade,105,2,2024-02-27T09:24:47.673Z,french_395.wav,0,pull,1238,34,3,5,français,m,3,0.25666667,-29.17949613,0.93749012
5c710337bc6ab00001d7aade,106,2,2024-02-27T09:24:47.673Z,french_576.wav,0,pull,521,34,3,5,français,m,0,0.0,-77.18723008,1.93193878
5c710337bc6ab00001d7aade,106,2,2024-02-27T09:24:47.673Z,french_576.wav,0,pull,521,34,3,5,français,m,1,0.1,32.49939157,0.06461953
5c710337bc6ab00001d7aade,106,2,2024-02-27T09:24:47.673Z,french_576.wav,0,pull,521,34,3,5,français,m,2,0.2,-11.29964886,0.24702868
5c710337bc6ab00001d7aade,106,2,2024-02-27T09:24:47.673Z,french_576.wav,0,pull,521,34,3,5,français,m,3,0.25666667,24.65334735,1.68209329
5c710337bc6ab00001d7aade,107,2,2024-02-27T09:24:47.673Z,french_539.wav,0,poule,1327,34,3,5,français,m,0,0.0,-25.67038427,1.25415191
5c710337bc6ab00001d7aade,107,2,2024-02-27T09:24:47.673Z,french_539.wav,0,poule,1327,34,3,5,français,m,1,0.1,48.64308398,1.80742897
5c710337bc6ab00001d7aade,107,2,2024-02-27T09:24:47.673Z,french_539.wav,0,poule,1327,34,3,5,français,m,2,0.2,-77.82337419,1.66801057
5c710337bc6ab00001d7aade,107,2,2024-02-27T09:24:47.673Z,french_539.wav,0,poule,1327,34,3,5,français,m,3,0.25666667,-42.20378119,0.618258
5c710337bc6ab00001d7aade,108,2,2024-02-27T09:24:47.673Z,french_231.wav,0,pull,759,34,3,5,français,m,0,0.0,15.23586761,1.95048297
5c710337bc6ab00001d7aade,108,2,2024-02-27T09:24:47.673Z,french_231.wav,0,pull,759,34,3,5,français,m,1,0.1,15.03275874,1.45451509
5c710337bc6ab00001d7aade,108,2,2024-02-27T09:24:47.673Z,french_231.wav,0,pull,759,34,3,5,français,m,2,0.2,-80.75641997,1.67801628
5c710337bc6ab00001d7aade,108,2,2024-02-27T09:24:47.673Z,french_231.wav,0,pull,759,34,3,5,français,m,3,0.25666667,-36.14562296,1.39710855
5c710337bc6ab00001d7aade,109,2,2024-02-27T09:24:47.673Z,french_457.wav,0,poule,1945,34,3,5,français,m,0,0.0,42.86960152,1.10156515
5c710337bc6ab00001d7aade,109,2,2024-02-27T09:24:47.673Z,french_457.wav,0,poule,1945,34,3,5,français,m,1,0.1,79.85160671,0.90608198
5c710337bc6ab00001d7aade,109,2,2024-02-27T09:24:47.673Z,french_457.wav,0,poule,1945,34,3,5,français,m,2,0.2,98.12255829,0.87189229
5c710337bc6ab00001d7aade,109,2,2024-02-27T09:24:47.673Z,french_457.wav,0,poule,1945,34,3,5,français,m,3,0.25666667,78.01153847,1.12024719
5c710337bc6ab00001d7aade,110,2,2024-02-27T09:24:47.673Z,french_244.wav,0,pull,1203,34,3,5,français,m,0,0.0,-1.19097064,0.99374935
5c710337bc6ab00001d7aade,110,2,2024-02-27T09:24:47.673Z,french_244.wav,0,pull,1203,34,3,5,français,m,1,0.1,-92.85229973,0.05831089
5c710337bc6ab00001d7aade,110,2,2024-02-27T09:24:47.673Z,french_244.wav,0,pull,1203,34,3,5,français,m,2,0.2,-96.93666457,1.01399938
5c710337bc6ab00001d7aade,110,2,2024-02-27T09:24:47.673Z,french_244.wav,0,pull,1203,34,3,5,français,m,3,0.25666667,-48.92774089,0.05507298
5c710337bc6ab00001d7aade,111,2,2024-02-27T09:24:47.673Z,french_809.wav,0,poule,1661,34,3,5,français,m,0,0.0,-35.34138518,0.91250327
5c710337bc6ab00001d7aade,111,2,2024-02-27T09:24:47.673Z,french_809.wav,0,poule,1661,34,3,5,français,m,1,0.1,-27.53268432,1.55486221
5c710337bc6ab00001d7aade,111,2,2024-02-27T09:24:47.673Z,french_809.wav,0,poule,1661,34,3,5,français,m,2,0.2,-4.59062168,0.05513513
5c710337bc6ab00001d7aade,111,2,2024-02-27T09:24:47.673Z,french_809.wav,0,poule,1661,34,3,5,français,m,3,0.25666667,54.17413939,0.74937359
5c710337bc6ab00001d7aade,112,2,2024-02-27T09:24:47.673Z,french_688.wav,0,poule,462,34,3,5,français,m,0,0.0,-12.19437797,1.87578392
5c710337bc6ab00001d7aade,112,2,2024-02-27T09:24:47.673Z,french_688.wav,0,poule,462,34,3,5,français,m,1,0.1,-70.42225937,1.69222134
5c710337bc6ab00001d7aade,112,2,2024-02-27T09:24:47.673Z,french_688.wav,0,poule,462,34,3,5,français,m,2,0.2,-86.95466997,1.82069748
5c710337bc6ab00001d7aade,112,2,2024-02-27T09:24:47.673Z,french_688.wav,0,poule,462,34,3,5,français,m,3,0.25666667,-17.4398035,1.64542948
5c710337bc6ab00001d7aade,113,2,2024-02-27T09:24:47.673Z,french_499.wav,0,pull,531,34,3,5,français,m,0,0.0,24.28229917,0.76159538
5c710337bc6ab00001d7aade,113,2,2024-02-27T09:24:47.673Z,french_499.wav,0,pull,531,34,3,5,français,m,1,0.1,-90.85236303,0.50536641
5c710337bc6ab00001d7aade,113,2,2024-02-27T09:24:47.673Z,french_499.wav,0,pull,531,34,3,5,français,m,2,0.2,-60.29957953,0.99158085
5c710337bc6ab00001d7aade,113,2,2024-02-27T09:24:47.673Z,french_499.wav,0,pull,531,34,3,5,français,m,3,0.25666667,91.79807534,1.05465089
5c710337bc6ab00001d7aade,114,2,2024-02-27T09:24:47.673Z,french_79.wav,0,pull,615,34,3,5,français,m,0,0.0,-17.81057473,1.07647634
5c710337bc6ab00001d7aade,114,2,2024-02-27T09:24:47.673Z,french_79.wav,0,pull,615,34,3,5,français,m,1,0.1,-79.49788956,0.19758175
5c710337bc6ab00001d7aade,114,2,2024-02-27T09:24:47.673Z,french_79.wav,0,pull,615,34,3,5,français,m,2,0.2,21.64031361,1.4893643
5c710337bc6ab00001d7aade,114,2,2024-02-27T09:24:47.673Z,french_79.wav,0,pull,615,34,3,5,français,m,3,0.25666667,9.8962074,1.60982877
5c710337bc6ab00001d7aade,115,2,2024-02-27T09:24:47.673Z,french_248.wav,0,pull,1532,34,3,5,français,m,0,0.0,-72.14952141,0.31572296
5c710337bc6ab00001d7aade,115,2,2024-02-27T09:24:47.673Z,french_248.wav,0,pull,1532,34,3,5,français,m,1,0.1,-0.62089361,0.98183681
5c710337bc6ab00001d7aade,115,2,2024-02-27T09:24:47.673Z,french_248.wav,0,pull,1532,34,3,5,français,m,2,0.2,-1.54726874,1.57355183
5c710337bc6ab00001d7aade,115,2,2024-02-27T09:24:47.673Z,french_248.wav,0,pull,1532,34,3,5,français,m,3,0.25666667,-50.42909266,0.39982355
5c710337bc6ab00001d7aade,116,2,2024-02-27T09:24:47.673Z,french_290.wav,0,pull,632,34,3,5,français,m,0,0.0,44.0184541,1.95811598
5c710337bc6ab00001d7aade,116,2,2024-02-27T09:24:47.673Z,french_290.wav,0,pull,632,34,3,5,français,m,1,0.1,34.90106467,0.34352798
5c710337bc6ab00001d7aade,116,2,2024-02-27T09:24:47.673Z,french_290.wav,0,pull,632,34,3,5,français,m,2,0.2,79.90705756,0.77799391
5c710337bc6ab00001d7aade,116,2,2024-02-27T09:24:47.673Z,french_290.wav,0,pull,632,34,3,5,français,m,3,0.25666667,-45.9390609,0.55231539
5c710337bc6ab00001d7aade,117,2,2024-02-27T09:24:47.673Z,french_875.wav,0,pull,551,34,3,5,français,m,0,0.0,-21.85805239,1.53415162
5c710337bc6ab00001d7aade,117,2,2024-02-27T09:24:47.673Z,french_875.wav,0,pull,551,34,3,5,français,m,1,0.1,89.69626046,1.00812403
5c710337bc6ab00001d7aade,117,2,2024-02-27T09:24:47.673Z,french_875.wav,0,pull,551,34,3,5,français,m,2,0.2,-30.27044373,0.85877698
5c710337bc6ab00001d7aade,117,2,2024-02-27T09:24:47.673Z,french_875.wav,0,pull,551,34,3,5,français,m,3,0.25666667,34.72149061,1.23447623
5c710337bc6ab00001d7aade,118,2,2024-02-27T09:24:47.673Z,french_895.wav,0,pull,1008,34,3,5,français,m,0,0.0,52.32100115,0.06001912
5c710337bc6ab00001d7aade,118,2,2024-02-27T09:24:47.673Z,french_895.wav,0,pull,1008,34,3,5,français,m,1,0.1,-68.39097894,0.92594104
5c710337bc6ab00001d7aade,118,2,2024-02-27T09:24:47.673Z,french_895.wav,0,pull,1008,34,3,5,français,m,2,0.2,86.56169168,1.18275101
5c710337bc6ab00001d7aade,118,2,2024-02-27T09:24:47.673Z,french_895.wav,0,pull,1008,34,3,5,français,m,3,0.25666667,-55.69575084,0.90868208
5c710337bc6ab00001d7aade,119,2,2024-02-27T09:24:47.673Z,french_755.wav,0,pull,1371,34,3,5,français,m,0,0.0,-17.09048823,0.26038806
5c710337bc6ab00001d7aade,119,2,2024-02-27T09:24:47.673Z,french_755.wav,0,pull,1371,34,3,5,français,m,1,0.1,56.35208106,0.92084882
5c710337bc6ab00001d7aade,119,2,2024-02-27T09:24:47.673Z,french_755.wav,0,pull,1371,34,3,5,français,m,2,0.2,33.77031601,1.14499291
5c710337bc6ab00001d7aade,119,2,2024-02-27T09:24:47.673Z,french_755.wav,0,pull,1371,34,3,5,français,m,3,0.25666667,73.0579331,1.40582081
5c710337bc6ab00001d7aade,120,2,2024-02-27T09:24:47.673Z,french_997.wav,0,pull,427,34,3,5,français,m,0,0.0,70.02211451,0.23520638
5c710337bc6ab00001d7aade,120,2,2024-02-27T09:24:47.673Z,french_997.wav,0,pull,427,34,3,5,français,m,1,0.1,69.24362731,0.40856699
5c710337bc6ab00001d7aade,120,2,2024-02-27T09:24:47.673Z,french_997.wav,0,pull,427,34,3,5,français,m,2,0.2,73.007848,1.59962624
5c710337bc6ab00001d7aade,120,2,2024-02-27T09:24:47.673Z,french_997.wav,0,pull,427,34,3,5,français,m,3,0.25666667,83.15376715,0.8906701
5c710337bc6ab00001d7aade,121,2,2024-02-27T09:24:47.673Z,french_987.wav,0,pull,519,34,3,5,français,m,0,0.0,29.59235099,0.62183529
5c710337bc6ab00001d7aade,121,2,2024-02-27T09:24:47.673Z,french_987.wav,0,pull,519,34,3,5,français,m,1,0.1,34.94187385,0.21370909
5c710337bc6ab00001d7aade,121,2,2024-02-27T09:24:47.673Z,french_987.wav,0,pull,519,34,3,5,français,m,2,0.2,50.69614072,0.33639435
5c710337bc6ab00001d7aade,121,2,2024-02-27T09:24:47.673Z,french_987.wav,0,pull,519,34,3,5,français,m,3,0.25666667,30.08512425,1.23768731
5c710337bc6ab00001d7aade,122,2,2024-02-27T09:24:47.673Z,french_757.wav,0,pull,709,34,3,5,français,m,0,0.0,-5.26413125,0.41150667
5c710337bc6ab00001d7aade,122,2,2024-02-27T09:24:47.673Z,french_757.wav,0,pull,709,34,3,5,français,m,1,0.1,38.836188,1.11153135
5c710337bc6ab00001d7aade,122,2,2024-02-27T09:24:47.673Z,french_757.wav,0,pull,709,34,3,5,français,m,2,0.2,-78.24448509,1.45974829
5c710337bc6ab00001d7aade,122,2,2024-02-27T09:24:47.673Z,french_757.wav,0,pull,709,34,3,5,français,m,3,0.25666667,87.29383111,0.22730951
5c710337bc6ab00001d7aade,123,2,2024-02-27T09:24:47.673Z,french_823.wav,0,pull,389,34,3,5,français,m,0,0.0,-89.53533563,0.87621895
5c710337bc6ab00001d7aade,123,2,2024-02-27T09:24:47.673Z,french_823.wav,0,pull,389,34,3,5,français,m,1,0.1,14.01752274,0.92757563
5c710337bc6ab00001d7aade,123,2,2024-02-27T09:24:47.673Z,french_823.wav,0,pull,389,34,3,5,français,m,2,0.2,33.24657022,1.30685671
5c710337bc6ab00001d7aade,123,2,2024-02-27T09:24:47.673Z,french_823.wav,0,pull,389,34,3,5,français,m,3,0.25666667,-78.84260648,1.33840969
5c710337bc6ab00001d7aade,124,2,2024-02-27T09:24:47.673Z,french_496.wav,0,pull,558,34,3,5,français,m,0,0.0,95.35910422,1.71732874
5c710337bc6ab00001d7aade,124,2,2024-02-27T09:24:47.673Z,french_496.wav,0,pull,558,34,3,5,français,m,1,0.1,-6.65722592,0.79073406
5c710337bc6ab00001d7aade,124,2,2024-02-27T09:24:47.673Z,french_496.wav,0,pull,558,34,3,5,français,m,2,0.2,-0.21871516,0.34583293
5c710337bc6ab00001d7aade,124,2,2024-02-27T09:24:47.673Z,french_496.wav,0,pull,558,34,3,5,français,m,3,0.25666667,-55.34055424,0.39020762
5c710337bc6ab00001d7aade,125,2,2024-02-27T09:24:47.673Z,french_660.wav,0,pull,1164,34,3,5,français,m,0,0.0,-75.02051955,0.75293762
5c710337bc6ab00001d7aade,125,2,2024-02-27T09:24:47.673Z,french_660.wav,0,pull,1164,34,3,5,français,m,1,0.1,-36.41679043,0.97452375
5c710337bc6ab00001d7aade,125,2,2024-02-27T09:24:47.673Z,french_660.wav,0,pull,1164,34,3,5,français,m,2,0.2,-45.60366398,1.88941483
5c710337bc6ab00001d7aade,125,2,2024-02-27T09:24:47.673Z,french_660.wav,0,pull,1164,34,3,5,français,m,3,0.25666667,13.07838485,0.53297117
5c710337bc6ab00001d7aade,126,2,2024-02-27T09:24:47.673Z,french_40.wav,0,pull,1984,34,3,5,français,m,0,0.0,-78.27349013,1.3593064
5c710337bc6ab00001d7aade,126,2,2024-02-27T09:24:47.673Z,french_40.wav,0,pull,1984,34,3,5,français,m,1,0.1,-11.45872421,0.13307668
5c710337bc6ab00001d7aade,126,2,2024-02-27T09:24:47.673Z,french_40.wav,0,pull,1984,34,3,5,français,m,2,0.2,54.77710365,1.8527892
5c710337bc6ab00001d7aade,126,2,2024-02-27T09:24:47.673Z,french_40.wav,0,pull,1984,34,3,5,français,m,3,0.25666667,77.61698443,1.82448351
5c710337bc6ab00001d7aade,127,2,2024-02-27T09:24:47.673Z,french_316.wav,0,pull,645,34,3,5,français,m,0,0.0,71.43385859,0.02011656
5c710337bc6ab00001d7aade,127,2,2024-02-27T09:24:47.673Z,french_316.wav,0,pull,645,34,3,5,français,m,1,0.1,-31.05932013,1.43477753
5c710337bc6ab00001d7aade,127,2,2024-02-27T09:24:47.673Z,french_316.wav,0,pull,645,34,3,5,français,m,2,0.2,7.51523711,0.06852206
5c710337bc6ab00001d7aade,127,2,2024-02-27T09:24:47.673Z,french_316.wav,0,pull,645,34,3,5,français,m,3,0.25666667,-46.68412198,1.51807936
5c710337bc6ab00001d7aade,128,2,2024-02-27T09:24:47.673Z,french_840.wav,0,pull,931,34,3,5,français,m,0,0.0,13.6338747,1.10667495
5c710337bc6ab00001d7aade,128,2,2024-02-27T09:24:47.673Z,french_840.wav,0,pull,931,34,3,5,français,m,1,0.1,-48.5646874,1.60365116
5c710337bc6ab00001d7aade,128,2,2024-02-27T09:24:47.673Z,french_840.wav,0,pull,931,34,3,5,français,m,2,0.2,-42.92936875,0.82861267
5c710337bc6ab00001d7aade,128,2,2024-02-27T09:24:47.673Z,french_840.wav,0,pull,931,34,3,5,français,m,3,0.25666667,-22.57825883,0.56371323
5c710337bc6ab00001d7aade,129,2,2024-02-27T09:24:47.673Z,french_90.wav,0,poule,697,34,3,5,français,m,0,0.0,-66.53104779,1.39730001
5c710337bc6ab00001d7aade,129,2,2024-02-27T09:24:47.673Z,french_90.wav,0,poule,697,34,3,5,français,m,1,0.1,5.55931872,1.52187206
5c710337bc6ab00001d7aade,129,2,2024-02-27T09:24:47.673Z,french_90.wav,0,poule,697,34,3,5,français,m,2,0.2,41.91338709,1.66100559
5c710337bc6ab00001d7aade,129,2,2024-02-27T09:24:47.673Z,french_90.wav,0,poule,697,34,3,5,français,m,3,0.25666667,-36.12417317,1.31779225
5c710337bc6ab00001d7aade,130,2,2024-02-27T09:24:47.673Z,french_801.wav,0,pull,459,34,3,5,français,m,0,0.0,-2.50424847,1.53837519
5c710337bc6ab00001d7aade,130,2,2024-02-27T09:24:47.673Z,french_801.wav,0,pull,459,34,3,5,français,m,1,0.1,-38.14130366,1.1394832
5c710337bc6ab00001d7aade,130,2,2024-02-27T09:24:47.673Z,french_801.wav,0,pull,459,34,3,5,français,m,2,0.2,29.8899248,1.04638934
5c710337bc6ab00001d7aade,130,2,2024-02-27T09:24:47.673Z,french_801.wav,0,pull,459,34,3,5,français,m,3,0.25666667,6.94729426,1.11851907
5c710337bc6ab00001d7aade,131,2,2024-02-27T09:24:47.673Z,french_687.wav,0,pull,505,34,3,5,français,m,0,0.0,-41.56393701,1.23976021
5c710337bc6ab00001d7aade,131,2,2024-02-27T09:24:47.673Z,french_687.wav,0,pull,505,34,3,5,français,m,1,0.1,-5.27268445,0.49715047
5c710337bc6ab00001d7aade,131,2,2024-02-27T09:24:47.673Z,french_687.wav,0,pull,505,34,3,5,français,m,2,0.2,58.5588678,0.70596761
5c710337bc6ab00001d7aade,131,2,2024-02-27T09:24:47.673Z,french_687.wav,0,pull,505,34,3,5,français,m,3,0.25666667,-41.26863304,1.34000296
5c710337bc6ab00001d7aade,132,2,2024-02-27T09:24:47.673Z,french_159.wav,0,pull,666,34,3,5,français,m,0,0.0,-35.81772681,1.09204322
5c710337bc6ab00001d7aade,132,2,2024-02-27T09:24:47.673Z,french_159.wav,0,pull,666,34,3,5,français,m,1,0.1,-81.24007344,1.04236488
5c710337bc6ab00001d7aade,132,2,2024-02-27T09:24:47.673Z,french_159.wav,0,pull,666,34,3,5,français,m,2,0.2,-76.66667718,0.27370424
5c710337bc6ab00001d7aade,132,2,2024-02-27T09:24:47.673Z,french_159.wav,0,pull,666,34,3,5,français,m,3,0.25666667,-12.73742482,0.41375192
5c710337bc6ab00001d7aade,133,2,2024-02-27T09:24:47.673Z,french_820.wav,0,poule,1135,34,3,5,français,m,0,0.0,-23.2512771,0.85914582
5c710337bc6ab00001d7aade,133,2,2024-02-27T09:24:47.673Z,french_820.wav,0,poule,1135,34,3,5,français,m,1,0.1,-3.42093224,1.44867235
5c710337bc6ab00001d7aade,133,2,2024-02-27T09:24:47.673Z,french_820.wav,0,poule,1135,34,3,5,français,m,2,0.2,-78.83822409,1.61907263
5c710337bc6ab00001d7aade,133,2,2024-02-27T09:24:47.673Z,french_820.wav,0,poule,1135,34,3,5,français,m,3,0.25666667,-24.79307177,1.11055267
5c710337bc6ab00001d7aade,134,2,2024-02-27T09:24:47.673Z,french_814.wav,0,pull,601,34,3,5,français,m,0,0.0,83.0056253,1.4499936
5c710337bc6ab00001d7aade,134,2,2024-02-27T09:24:47.673Z,french_814.wav,0,pull,601,34,3,5,français,m,1,0.1,-71.4586846,0.77595229
5c710337bc6ab00001d7aade,134,2,2024-02-27T09:24:47.673Z,french_814.wav,0,pull,601,34,3,5,français,m,2,0.2,12.63844789,0.21302651
5c710337bc6ab00001d7aade,134,2,2024-02-27T09:24:47.673Z,french_814.wav,0,pull,601,34,3,5,français,m,3,0.25666667,12.39326704,0.16177964
5c710337bc6ab00001d7aade,135,2,2024-02-27T09:24:47.673Z,french_965.wav,0,poule,487,34,3,5,français,m,0,0.0,40.44340114,0.70170615
5c710337bc6ab00001d7aade,135,2,2024-02-27T09:24:47.673Z,french_965.wav,0,poule,487,34,3,5,français,m,1,0.1,-11.08391972,1.63180194
5c710337bc6ab00001d7aade,135,2,2024-02-27T09:24:47.673Z,french_965.wav,0,poule,487,34,3,5,français,m,2,0.2,-2.7382686,1.33837455
5c710337bc6ab00001d7aade,135,2,2024-02-27T09:24:47.673Z,french_965.wav,0,poule,487,34,3,5,français,m,3,0.25666667,-30.15899093,1.47207372
5c710337bc6ab00001d7aade,136,2,2024-02-27T09:24:47.673Z,french_98.wav,0,pull,537,34,3,5,français,m,0,0.0,-5.34356544,0.47275823
5c710337bc6ab00001d7aade,136,2,2024-02-27T09:24:47.673Z,french_98.wav,0,pull,537,34,3,5,français,m,1,0.1,-51.77157259,0.98771666
5c710337bc6ab00001d7aade,136,2,2024-02-27T09:24:47.673Z,french_98.wav,0,pull,537,34,3,5,français,m,2,0.2,16.6615471,0.01400035
5c710337bc6ab00001d7aade,136,2,2024-02-27T09:24:47.673Z,french_98.wav,0,pull,537,34,3,5,français,m,3,0.25666667,-37.68560636,0.42827786
5c710337bc6ab00001d7aade,137,2,2024-02-27T09:24:47.673Z,french_509.wav,0,pull,720,34,3,5,français,m,0,0.0,98.86127545,0.38470371
5c710337bc6ab00001d7aade,137,2,2024-02-27T09:24:47.673Z,french_509.wav,0,pull,720,34,3,5,français,m,1,0.1,-58.47415861,0.77077576
5c710337bc6ab00001d7aade,137,2,2024-02-27T09:24:47.673Z,french_509.wav,0,pull,720,34,3,5,français,m,2,0.2,23.95425933,1.30836253
5c710337bc6ab00001d7aade,137,2,2024-02-27T09:24:47.673Z,french_509.wav,0,pull,720,34,3,5,français,m,3,0.25666667,74.34097669,1.2187589
5c710337bc6ab00001d7aade,138,2,2024-02-27T09:24:47.673Z,french_411.wav,0,poule,778,34,3,5,français,m,0,0.0,65.70741219,1.12073031
5c710337bc6ab00001d7aade,138,2,2024-02-27T09:24:47.673Z,french_411.wav,0,poule,778,34,3,5,français,m,1,0.1,9.47903784,1.20345695
5c710337bc6ab00001d7aade,138,2,2024-02-27T09:24:47.673Z,french_411.wav,0,poule,778,34,3,5,français,m,2,0.2,88.46874173,1.7567893
5c710337bc6ab00001d7aade,138,2,2024-02-27T09:24:47.673Z,french_411.wav,0,poule,778,34,3,5,français,m,3,0.25666667,-33.05830924,0.68949127
5c710337bc6ab00001d7aade,139,2,2024-02-27T09:24:47.673Z,french_46.wav,0,poule,453,34,3,5,français,m,0,0.0,-59.72524318,1.59606806
5c710337bc6ab00001d7aade,139,2,2024-02-27T09:24:47.673Z,french_46.wav,0,poule,453,34,3,5,français,m,1,0.1,-28.22082853,1.01173367
5c710337bc6ab00001d7aade,139,2,2024-02-27T09:24:47.673Z,french_46.wav,0,poule,453,34,3,5,français,m,2,0.2,2.0739194,0.40164164
5c710337bc6ab00001d7aade,139,2,2024-02-27T09:24:47.673Z,french_46.wav,0,poule,453,34,3,5,français,m,3,0.25666667,-12.25343829,1.6352238
5c710337bc6ab00001d7aade,140,2,2024-02-27T09:24:47.673Z,french_732.wav,0,poule,1202,34,3,5,français,m,0,0.0,-82.9393053,0.90840431
5c710337bc6ab00001d7aade,140,2,2024-02-27T09:24:47.673Z,french_732.wav,0,poule,1202,34,3,5,français,m,1,0.1,-79.22735873,0.47468339
5c710337bc6ab00001d7aade,140,2,2024-02-27T09:24:47.673Z,french_732.wav,0,poule,1202,34,3,5,français,m,2,0.2,-67.09796721,1.61768905
5c710337bc6ab00001d7aade,140,2,2024-02-27T09:24:47.673Z,french_732.wav,0,poule,1202,34,3,5,français,m,3,0.25666667,35.15971491,1.44596926
5c710337bc6ab00001d7aade,141,2,2024-02-27T09:24:47.673Z,french_289.wav,0,pull,593,34,3,5,français,m,0,0.0,-36.76000605,0.0295717
5c710337bc6ab00001d7aade,141,2,2024-02-27T09:24:47.673Z,french_289.wav,0,pull,593,34,3,5,français,m,1,0.1,10.32506406,0.30354321
5c710337bc6ab00001d7aade,141,2,2024-02-27T09:24:47.673Z,french_289.wav,0,pull,593,34,3,5,français,m,2,0.2,-63.16699613,0.64873245
5c710337bc6ab00001d7aade,141,2,2024-02-27T09:24:47.673Z,french_289.wav,0,pull,593,34,3,5,français,m,3,0.25666667,44.4452875,1.33679234
5c710337bc6ab00001d7aade,142,2,2024-02-27T09:24:47.673Z,french_990.wav,0,pull,1698,34,3,5,français,m,0,0.0,31.68812365,0.81704568
5c710337bc6ab00001d7aade,142,2,2024-02-27T09:24:47.673Z,french_990.wav,0,pull,1698,34,3,5,français,m,1,0.1,-82.48323459,1.80008391
5c710337bc6ab00001d7aade,142,2,2024-02-27T09:24:47.673Z,french_990.wav,0,pull,1698,34,3,5,français,m,2,0.2,39.0525666,1.73012532
5c710337bc6ab00001d7aade,142,2,2024-02-27T09:24:47.673Z,french_990.wav,0,pull,1698,34,3,5,français,m,3,0.25666667,-59.77120272,0.71793452
5c710337bc6ab00001d7aade,143,2,2024-02-27T09:24:47.673Z,french_207.wav,0,poule,795,34,3,5,français,m,0,0.0,15.24625839,0.95120839
5c710337bc6ab00001d7aade,143,2,2024-02-27T09:24:47.673Z,french_207.wav,0,poule,795,34,3,5,français,m,1,0.1,68.60229744,1.50295804
5c710337bc6ab00001d7aade,143,2,2024-02-27T09:24:47.673Z,french_207.wav,0,poule,795,34,3,5,français,m,2,0.2,51.04898438,0.44335537
5c710337bc6ab00001d7aade,143,2,2024-02-27T09:24:47.673Z,french_207.wav,0,poule,795,34,3,5,français,m,3,0.25666667,8.99799409,1.65047569
5c710337bc6ab00001d7aade,144,2,2024-02-27T09:24:47.673Z,french_426.wav,0,pull,550,34,3,5,français,m,0,0.0,94.83015244,1.95768421
5c710337bc6ab00001d7aade,144,2,2024-02-27T09:24:47.673Z,french_426.wav,0,pull,550,34,3,5,français,m,1,0.1,80.74954266,0.5170286
5c710337bc6ab00001d7aade,144,2,2024-02-27T09:24:47.673Z,french_426.wav,0,pull,550,34,3,5,français,m,2,0.2,14.22402444,0.27456075
5c710337bc6ab00001d7aade,144,2,2024-02-27T09:24:47.673Z,french_426.wav,0,pull,550,34,3,5,français,m,3,0.25666667,92.85203769,1.53042381
5c710337bc6ab00001d7aade,145,2,2024-02-27T09:24:47.673Z,french_736.wav,0,poule,717,34,3,5,français,m,0,0.0,-58.2057669,1.39182764
5c710337bc6ab00001d7aade,145,2,2024-02-27T09:24:47.673Z,french_736.wav,0,poule,717,34,3,5,français,m,1,0.1,67.4754916,0.85405242
5c710337bc6ab00001d7aade,145,2,2024-02-27T09:24:47.673Z,french_736.wav,0,poule,717,34,3,5,français,m,2,0.2,92.18157431,1.06665121
5c710337bc6ab00001d7aade,145,2,2024-02-27T09:24:47.673Z,french_736.wav,0,poule,717,34,3,5,français,m,3,0.25666667,88.23593553,0.29553719
5c710337bc6ab00001d7aade,146,2,2024-02-27T09:24:47.673Z,french_63.wav,0,poule,519,34,3,5,français,m,0,0.0,-81.8544396,0.29798693
5c710337bc6ab00001d7aade,146,2,2024-02-27T09:24:47.673Z,french_63.wav,0,poule,519,34,3,5,français,m,1,0.1,15.35577337,0.29415435
5c710337bc6ab00001d7aade,146,2,2024-02-27T09:24:47.673Z,french_63.wav,0,poule,519,34,3,5,français,m,2,0.2,-93.67975396,1.48728433
5c710337bc6ab00001d7aade,146,2,2024-02-27T09:24:47.673Z,french_63.wav,0,poule,519,34,3,5,français,m,3,0.25666667,6.98256112,1.07216934
5c710337bc6ab00001d7aade,147,2,2024-02-27T09:24:47.673Z,french_54.wav,0,pull,728,34,3,5,français,m,0,0.0,77.13223303,0.44302914
5c710337bc6ab00001d7aade,147,2,2024-02-27T09:24:47.673Z,french_54.wav,0,pull,728,34,3,5,français,m,1,0.1,-5.6152706,0.26201868
5c710337bc6ab00001d7aade,147,2,2024-02-27T09:24:47.673Z,french_54.wav,0,pull,728,34,3,5,français,m,2,0.2,22.05383838,0.27892
5c710337bc6ab00001d7aade,147,2,2024-02-27T09:24:47.673Z,french_54.wav,0,pull,728,34,3,5,français,m,3,0.25666667,-9.52451309,0.30908576
5c710337bc6ab00001d7aade,148,2,2024-02-27T09:24:47.673Z,french_851.wav,0,poule,1050,34,3,5,français,m,0,0.0,-16.14738252,1.77999263
5c710337bc6ab00001d7aade,148,2,2024-02-27T09:24:47.673Z,french_851.wav,0,poule,1050,34,3,5,français,m,1,0.1,19.84507786,0.90385235
5c710337bc6ab00001d7aade,148,2,2024-02-27T09:24:47.673Z,french_851.wav,0,poule,1050,34,3,5,français,m,2,0.2,-46.64792285,0.51993189
5c710337bc6ab00001d7aade,148,2,2024-02-27T09:24:47.673Z,french_851.wav,0,poule,1050,34,3,5,français,m,3,0.25666667,-81.41203514,1.06673989
5c710337bc6ab00001d7aade,149,2,2024-02-27T09:24:47.673Z,french_657.wav,0,poule,519,34,3,5,français,m,0,0.0,99.76716584,0.85695778
5c710337bc6ab00001d7aade,149,2,2024-02-27T09:24:47.673Z,french_657.wav,0,poule,519,34,3,5,français,m,1,0.1,11.51898435,1.00645436
5c710337bc6ab00001d7aade,149,2,2024-02-27T09:24:47.673Z,french_657.wav,0,poule,519,34,3,5,français,m,2,0.2,-43.45408234,0.73989588
5c710337bc6ab00001d7aade,149,2,2024-02-27T09:24:47.673Z,french_657.wav,0,poule,519,34,3,5,français,m,3,0.25666667,22.46427071,1.57217431
5c710337bc6ab00001d7aade,150,3,2024-02-27T09:24:47.673Z,french_65.wav,0,poule,377,34,3,5,français,m,0,0.0,-17.53877645,1.80859796
5c710337bc6ab00001d7aade,150,3,2024-02-27T09:24:47.673Z,french_65.wav,0,poule,377,34,3,5,français,m,1,0.1,77.85789868,1.24255314
5c710337bc6ab00001d7aade,150,3,2024-02-27T09:24:47.673Z,french_65.wav,0,poule,377,34,3,5,français,m,2,0.2,16.40180032,1.28894604
5c710337bc6ab00001d7aade,150,3,2024-02-27T09:24:47.673Z,french_65.wav,0,poule,377,34,3,5,français,m,3,0.25666667,56.20856175,0.80043142
5c710337bc6ab00001d7aade,151,3,2024-02-27T09:24:47.673Z,french_18.wav,0,pull,366,34,3,5,français,m,0,0.0,29.29326365,1.56476478
5c710337bc6ab00001d7aade,151,3,2024-02-27T09:24:47.673Z,french_18.wav,0,pull,366,34,3,5,français,m,1,0.1,-65.9497706,0.7748919
5c710337bc6ab00001d7aade,151,3,2024-02-27T09:24:47.673Z,french_18.wav,0,pull,366,34,3,5,français,m,2,0.2,-68.38187686,0.73946843
5c710337bc6ab00001d7aade,151,3,2024-02-27T09:24:47.673Z,french_18.wav,0,pull,366,34,3,5,français,m,3,0.25666667,26.32477662,1.33435109
5c710337bc6ab00001d7aade,152,3,2024-02-27T09:24:47.673Z,french_522.wav,0,poule,607,34,3,5,français,m,0,0.0,-33.95775035,0.92167055
5c710337bc6ab00001d7aade,152,3,2024-02-27T09:24:47.673Z,french_522.wav,0,poule,607,34,3,5,français,m,1,0.1,-8.89346692,1.03421615
5c710337bc6ab00001d7aade,152,3,2024-02-27T09:24:47.673Z,french_522.wav,0,poule,607,34,3,5,français,m,2,0.2,-13.71087049,0.39118917
5c710337bc6ab00001d7aade,152,3,2024-02-27T09:24:47.673Z,french_522.wav,0,poule,607,34,3,5,français,m,3,0.25666667,29.03245504,1.12010972
5c710337bc6ab00001d7aade,153,3,2024-02-27T09:24:47.673Z,french_279.wav,0,poule,2631,34,3,5,français,m,0,0.0,-82.72654322,1.91034617
5c710337bc6ab00001d7aade,153,3,2024-02-27T09:24:47.673Z,french_279.wav,0,poule,2631,34,3,5,français,m,1,0.1,51.19533055,0.35578453
5c710337bc6ab00001d7aade,153,3,2024-02-27T09:24:47.673Z,french_279.wav,0,poule,2631,34,3,5,français,m,2,0.2,81.3850192,1.45645662
5c710337bc6ab00001d7aade,153,3,2024-02-27T09:24:47.673Z,french_279.wav,0,poule,2631,34,3,5,français,m,3,0.25666667,12.9967417,1.34605049
5c710337bc6ab00001d7aade,154,3,2024-02-27T09:24:47.673Z,french_22.wav,0,pull,482,34,3,5,français,m,0,0.0,71.14052921,0.14678418
5c710337bc6ab00001d7aade,154,3,2024-02-27T09:24:47.673Z,french_22.wav,0,pull,482,34,3,5,français,m,1,0.1,32.6622244,0.81024714
5c710337bc6ab00001d7aade,154,3,2024-02-27T09:24:47.673Z,french_22.wav,0,pull,482,34,3,5,français,m,2,0.2,96.1292121,1.14392668
5c710337bc6ab00001d7aade,154,3,2024-02-27T09:24:47.673Z,french_22.wav,0,pull,482,34,3,5,français,m,3,0.25666667,65.79523532,1.62437335
5c710337bc6ab00001d7aade,155,3,2024-02-27T09:24:47.673Z,french_607.wav,0,poule,294,34,3,5,français,m,0,0.0,86.31857573,1.61060215
5c710337bc6ab00001d7aade,155,3,2024-02-27T09:24:47.673Z,french_607.wav,0,poule,294,34,3,5,français,m,1,0.1,-46.02697415,1.76940735
5c710337bc6ab00001d7aade,155,3,2024-02-27T09:24:47.673Z,french_607.wav,0,poule,294,34,3,5,français,m,2,0.2,45.41214831,0.70600977
5c710337bc6ab00001d7aade,155,3,2024-02-27T09:24:47.673Z,french_607.wav,0,poule,294,34,3,5,français,m,3,0.25666667,58.05056059,0.79164166
5c710337bc6ab00001d7aade,156,3,2024-02-27T09:24:47.673Z,french_404.wav,0,pull,583,34,3,5,français,m,0,0.0,-69.94435752,1.52233517
5c710337bc6ab00001d7aade,156,3,2024-02-27T09:24:47.673Z,french_404.wav,0,pull,583,34,3,5,français,m,1,0.1,-71.78209065,0.64310095
5c710337bc6ab00001d7aade,156,3,2024-02-27T09:24:47.673Z,french_404.wav,0,pull,583,34,3,5,français,m,2,0.2,1.54660235,1.70982079
5c710337bc6ab00001d7aade,156,3,2024-02-27T09:24:47.673Z,french_404.wav,0,pull,583,34,3,5,français,m,3,0.25666667,-64.99062427,0.43662649
5c710337bc6ab00001d7aade,157,3,2024-02-27T09:24:47.673Z,french_251.wav,0,pull,498,34,3,5,français,m,0,0.0,24.13853868,0.84222584
5c710337bc6ab00001d7aade,157,3,2024-02-27T09:24:47.673Z,french_251.wav,0,pull,498,34,3,5,français,m,1,0.1,69.59392202,0.35569373
5c710337bc6ab00001d7aade,157,3,2024-02-27T09:24:47.673Z,french_251.wav,0,pull,498,34,3,5,français,m,2,0.2,5.2598313,1.18426262
5c710337bc6ab00001d7aade,157,3,2024-02-27T09:24:47.673Z,french_251.wav,0,pull,498,34,3,5,français,m,3,0.25666667,49.58604743,1.47594706
5c710337bc6ab00001d7aade,158,3,2024-02-27T09:24:47.673Z,french_586.wav,0,poule,433,34,3,5,français,m,0,0.0,86.96734506,0.62271677
5c710337bc6ab00001d7aade,158,3,2024-02-27T09:24:47.673Z,french_586.wav,0,poule,433,34,3,5,français,m,1,0.1,-8.603444,1.69916535
5c710337bc6ab00001d7aade,158,3,2024-02-27T09:24:47.673Z,french_586.wav,0,poule,433,34,3,5,français,m,2,0.2,11.78169212,1.65961944
5c710337bc6ab00001d7aade,158,3,2024-02-27T09:24:47.673Z,french_586.wav,0,poule,433,34,3,5,français,m,3,0.25666667,14.18547806,1.90120182
5c710337bc6ab00001d7aade,159,3,2024-02-27T09:24:47.673Z,french_565.wav,0,pull,700,34,3,5,français,m,0,0.0,50.78822436,1.00864226
5c710337bc6ab00001d7aade,159,3,2024-02-27T09:24:47.673Z,french_565.wav,0,pull,700,34,3,5,français,m,1,0.1,-75.93967217,1.52231663
5c710337bc6ab00001d7aade,159,3,2024-02-27T09:24:47.673Z,french_565.wav,0,pull,700,34,3,5,français,m,2,0.2,-58.95969425,0.24874103
5c710337bc6ab00001d7aade,159,3,2024-02-27T09:24:47.673Z,french_565.wav,0,pull,700,34,3,5,français,m,3,0.25666667,-53.32673619,1.47271882
5c710337bc6ab00001d7aade,160,3,2024-02-27T09:24:47.673Z,french_735.wav,0,pull,599,34,3,5,français,m,0,0.0,16.11120967,0.14330821
5c710337bc6ab00001d7aade,160,3,2024-02-27T09:24:47.673Z,french_735.wav,0,pull,599,34,3,5,français,m,1,0.1,-19.98897555,0.00237292
5c710337bc6ab00001d7aade,160,3,2024-02-27T09:24:47.673Z,french_735.wav,0,pull,599,34,3,5,français,m,2,0.2,68.29513728,1.1733856
5c710337bc6ab00001d7aade,160,3,2024-02-27T09:24:47.673Z,french_735.wav,0,pull,599,34,3,5,français,m,3,0.25666667,31.40150104,0.51599842
5c710337bc6ab00001d7aade,161,3,2024-02-27T09:24:47.673Z,french_788.wav,0,pull,455,34,3,5,français,m,0,0.0,-49.59093674,1.03975343
5c710337bc6ab00001d7aade,161,3,2024-02-27T09:24:47.673Z,french_788.wav,0,pull,455,34,3,5,français,m,1,0.1,-37.12859592,0.12530513
5c710337bc6ab00001d7aade,161,3,2024-02-27T09:24:47.673Z,french_788.wav,0,pull,455,34,3,5,français,m,2,0.2,78.06548219,0.40268526
5c710337bc6ab00001d7aade,161,3,2024-02-27T09:24:47.673Z,french_788.wav,0,pull,455,34,3,5,français,m,3,0.25666667,52.38730842,1.72021211
5c710337bc6ab00001d7aade,162,3,2024-02-27T09:24:47.673Z,french_628.wav,0,poule,297,34,3,5,français,m,0,0.0,68.49177404,1.08718887
5c710337bc6ab00001d7aade,162,3,2024-02-27T09:24:47.673Z,french_628.wav,0,poule,297,34,3,5,français,m,1,0.1,-37.23139728,1.92014291
5c710337bc6ab00001d7aade,162,3,2024-02-27T09:24:47.673Z,french_628.wav,0,poule,297,34,3,5,français,m,2,0.2,-66.57894256,1.74485312
5c710337bc6ab00001d7aade,162,3,2024-02-27T09:24:47.673Z,french_628.wav,0,poule,297,34,3,5,français,m,3,0.25666667,94.63403104,1.25946788
5c710337bc6ab00001d7aade,163,3,2024-02-27T09:24:47.673Z,french_246.wav,0,poule,390,34,3,5,français,m,0,0.0,-61.30298939,1.31566238
5c710337bc6ab00001d7aade,163,3,2024-02-27T09:24:47.673Z,french_246.wav,0,poule,390,34,3,5,français,m,1,0.1,15.83987086,1.23869052
5c710337bc6ab00001d7aade,163,3,2024-02-27T09:24:47.673Z,french_246.wav,0,poule,390,34,3,5,français,m,2,0.2,80.17394669,1.57286335
5c710337bc6ab00001d7aade,163,3,2024-02-27T09:24:47.673Z,french_246.wav,0,poule,390,34,3,5,français,m,3,0.25666667,-81.65507189,0.07583844
5c710337bc6ab00001d7aade,164,3,2024-02-27T09:24:47.673Z,french_678.wav,0,pull,568,34,3,5,français,m,0,0.0,8.99494286,0.31277465
5c710337bc6ab00001d7aade,164,3,2024-02-27T09:24:47.673Z,french_678.wav,0,pull,568,34,3,5,français,m,1,0.1,56.3447022,0.04822955
5c710337bc6ab00001d7aade,164,3,2024-02-27T09:24:47.673Z,french_678.wav,0,pull,568,34,3,5,français,m,2,0.2,-85.36803825,0.03738606
5c710337bc6ab00001d7aade,164,3,2024-02-27T09:24:47.673Z,french_678.wav,0,pull,568,34,3,5,français,m,3,0.25666667,-65.39277698,1.60364947
5c710337bc6ab00001d7aade,165,3,2024-02-27T09:24:47.673Z,french_345.wav,0,pull,968,34,3,5,français,m,0,0.0,-15.34440167,0.71900559
5c710337bc6ab00001d7aade,165,3,2024-02-27T09:24:47.673Z,french_345.wav,0,pull,968,34,3,5,français,m,1,0.1,10.78758757,1.22956467
5c710337bc6ab00001d7aade,165,3,2024-02-27T09:24:47.673Z,french_345.wav,0,pull,968,34,3,5,français,m,2,0.2,-99.05600522,1.71608101
5c710337bc6ab00001d7aade,165,3,2024-02-27T09:24:47.673Z,french_345.wav,0,pull,968,34,3,5,français,m,3,0.25666667,-6.99010662,1.92257683
5c710337bc6ab00001d7aade,166,3,2024-02-27T09:24:47.673Z,french_977.wav,0,pull,2029,34,3,5,français,m,0,0.0,-23.34946859,1.58788712
5c710337bc6ab00001d7aade,166,3,2024-02-27T09:24:47.673Z,french_977.wav,0,pull,2029,34,3,5,français,m,1,0.1,-74.17160997,0.25032328
5c710337bc6ab00001d7aade,166,3,2024-02-27T09:24:47.673Z,french_977.wav,0,pull,2029,34,3,5,français,m,2,0.2,31.43852713,0.90752219
5c710337bc6ab00001d7aade,166,3,2024-02-27T09:24:47.673Z,french_977.wav,0,pull,2029,34,3,5,français,m,3,0.25666667,-10.29160018,1.52460946
5c710337bc6ab00001d7aade,167,3,2024-02-27T09:24:47.673Z,french_637.wav,0,pull,759,34,3,5,français,m,0,0.0,35.81604326,0.01301393
5c710337bc6ab00001d7aade,167,3,2024-02-27T09:24:47.673Z,french_637.wav,0,pull,759,34,3,5,français,m,1,0.1,-3.18432816,0.82513299
5c710337bc6ab00001d7aade,167,3,2024-02-27T09:24:47.673Z,french_637.wav,0,pull,759,34,3,5,français,m,2,0.2,50.06715701,0.10233849
5c710337bc6ab00001d7aade,167,3,2024-02-27T09:24:47.673Z,french_637.wav,0,pull,759,34,3,5,français,m,3,0.25666667,13.82838787,0.87921638
5c710337bc6ab00001d7aade,168,3,2024-02-27T09:24:47.673Z,french_97.wav,0,pull,526,34,3,5,français,m,0,0.0,-26.25195718,1.78322942
5c710337bc6ab00001d7aade,168,3,2024-02-27T09:24:47.673Z,french_97.wav,0,pull,526,34,3,5,français,m,1,0.1,46.36733761,0.61428926
5c710337bc6ab00001d7aade,168,3,2024-02-27T09:24:47.673Z,french_97.wav,0,pull,526,34,3,5,français,m,2,0.2,-70.05850246,0.23760427
5c710337bc6ab00001d7aade,168,3,2024-02-27T09:24:47.673Z,french_97.wav,0,pull,526,34,3,5,français,m,3,0.25666667,-12.16166803,0.84541126
5c710337bc6ab00001d7aade,169,3,2024-02-27T09:24:47.673Z,french_417.wav,0,poule,933,34,3,5,français,m,0,0.0,-52.68130191,1.49469738
5c710337bc6ab00001d7aade,169,3,2024-02-27T09:24:47.673Z,french_417.wav,0,poule,933,34,3,5,français,m,1,0.1,73.91368418,1.06358835
5c710337bc6ab00001d7aade,169,3,2024-02-27T09:24:47.673Z,french_417.wav,0,poule,933,34,3,5,français,m,2,0.2,7.73324389,1.12421265
5c710337bc6ab00001d7aade,169,3,2024-02-27T09:24:47.673Z,french_417.wav,0,poule,933,34,3,5,français,m,3,0.25666667,92.88066518,0.65436219
5c710337bc6ab00001d7aade,170,3,2024-02-27T09:24:47.673Z,french_485.wav,0,poule,334,34,3,5,français,m,0,0.0,49.72116837,1.80184077
5c710337bc6ab00001d7aade,170,3,2024-02-27T09:24:47.673Z,french_485.wav,0,poule,334,34,3,5,français,m,1,0.1,30.83147643,1.80095915
5c710337bc6ab00001d7aade,170,3,2024-02-27T09:24:47.673Z,french_485.wav,0,poule,334,34,3,5,français,m,2,0.2,37.98454641,1.42682554
5c710337bc6ab00001d7aade,170,3,2024-02-27T09:24:47.673Z,french_485.wav,0,poule,334,34,3,5,français,m,3,0.25666667,-93.0468476,0.86529676
5c710337bc6ab00001d7aade,171,3,2024-02-27T09:24:47.673Z,french_614.wav,0,pull,419,34,3,5,français,m,0,0.0,13.55245103,0.76920018
5c710337bc6ab00001d7aade,171,3,2024-02-27T09:24:47.673Z,french_614.wav,0,pull,419,34,3,5,français,m,1,0.1,56.56377999,1.46632319
5c710337bc6ab00001d7aade,171,3,2024-02-27T09:24:47.673Z,french_614.wav,0,pull,419,34,3,5,français,m,2,0.2,18.28165036,0.77890927
5c710337bc6ab00001d7aade,171,3,2024-02-27T09:24:47.673Z,french_614.wav,0,pull,419,34,3,5,français,m,3,0.25666667,42.87971424,1.0073418
5c710337bc6ab00001d7aade,172,3,2024-02-27T09:24:47.673Z,french_370.wav,0,pull,564,34,3,5,français,m,0,0.0,-31.30279389,1.88170435
5c710337bc6ab00001d7aade,172,3,2024-02-27T09:24:47.673Z,french_370.wav,0,pull,564,34,3,5,français,m,1,0.1,96.47349065,0.75067332
5c710337bc6ab00001d7aade,172,3,2024-02-27T09:24:47.673Z,french_370.wav,0,pull,564,34,3,5,français,m,2,0.2,23.18843017,1.06279648
5c710337bc6ab00001d7aade,172,3,2024-02-27T09:24:47.673Z,french_370.wav,0,pull,564,34,3,5,français,m,3,0.25666667,81.62933181,0.58974769
5c710337bc6ab00001d7aade,173,3,2024-02-27T09:24:47.673Z,french_591.wav,0,pull,484,34,3,5,français,m,0,0.0,2.66615607,1.05020949
5c710337bc6ab00001d7aade,173,3,2024-02-27T09:24:47.673Z,french_591.wav,0,pull,484,34,3,5,français,m,1,0.1,-24.26502045,0.55521736
5c710337bc6ab00001d7aade,173,3,2024-02-27T09:24:47.673Z,french_591.wav,0,pull,484,34,3,5,français,m,2,0.2,-31.81388833,0.20807215
5c710337bc6ab00001d7aade,173,3,2024-02-27T09:24:47.673Z,french_591.wav,0,pull,484,34,3,5,français,m,3,0.25666667,34.70768216,1.08119284
5c710337bc6ab00001d7aade,174,3,2024-02-27T09:24:47.673Z,french_974.wav,0,poule,560,34,3,5,français,m,0,0.0,-56.73984936,0.20875225
5c710337bc6ab00001d7aade,174,3,2024-02-27T09:24:47.673Z,french_974.wav,0,poule,560,34,3,5,français,m,1,0.1,32.58414802,0.25167591
5c710337bc6ab00001d7aade,174,3,2024-02-27T09:24:47.673Z,french_974.wav,0,poule,560,34,3,5,français,m,2,0.2,-45.44939314,1.19458688
5c710337bc6ab00001d7aade,174,3,2024-02-27T09:24:47.673Z,french_974.wav,0,poule,560,34,3,5,français,m,3,0.25666667,-96.65983196,0.25310381
5c710337bc6ab00001d7aade,175,3,2024-02-27T09:24:47.673Z,french_594.wav,0,poule,266,34,3,5,français,m,0,0.0,-77.17245549,1.803544
5c710337bc6ab00001d7aade,175,3,2024-02-27T09:24:47.673Z,french_594.wav,0,poule,266,34,3,5,français,m,1,0.1,-9.42910309,1.0387293
5c710337bc6ab00001d7aade,175,3,2024-02-27T09:24:47.673Z,french_594.wav,0,poule,266,34,3,5,français,m,2,0.2,28.840902,1.64762654
5c710337bc6ab00001d7aade,175,3,2024-02-27T09:24:47.673Z,french_594.wav,0,poule,266,34,3,5,français,m,3,0.25666667,-27.68960177,0.23150428
5c710337bc6ab00001d7aade,176,3,2024-02-27T09:24:47.673Z,french_656.wav,0,pull,543,34,3,5,français,m,0,0.0,-58.27241095,0.65184251
5c710337bc6ab00001d7aade,176,3,2024-02-27T09:24:47.673Z,french_656.wav,0,pull,543,34,3,5,français,m,1,0.1,5.28471923,0.59376501
5c710337bc6ab00001d7aade,176,3,2024-02-27T09:24:47.673Z,french_656.wav,0,pull,543,34,3,5,français,m,2,0.2,-0.12743408,1.90668759
5c710337bc6ab00001d7aade,176,3,2024-02-27T09:24:47.673Z,french_656.wav,0,pull,543,34,3,5,français,m,3,0.25666667,84.54596147,1.25760212
5c710337bc6ab00001d7aade,177,3,2024-02-27T09:24:47.673Z,french_654.wav,0,pull,742,34,3,5,français,m,0,0.0,4.75004181,0.71611878
5c710337bc6ab00001d7aade,177,3,2024-02-27T09:24:47.673Z,french_654.wav,0,pull,742,34,3,5,français,m,1,0.1,-26.31758413,1.28432707
5c710337bc6ab00001d7aade,177,3,2024-02-27T09:24:47.673Z,french_654.wav,0,pull,742,34,3,5,français,m,2,0.2,5.97151275,0.58455266
5c710337bc6ab00001d7aade,177,3,2024-02-27T09:24:47.673Z,french_654.wav,0,pull,742,34,3,5,français,m,3,0.25666667,-86.03507884,1.03676738
5c710337bc6ab00001d7aade,178,3,2024-02-27T09:24:47.673Z,french_897.wav,0,pull,453,34,3,5,français,m,0,0.0,-2.62488743,0.95618392
5c710337bc6ab00001d7aade,178,3,2024-02-27T09:24:47.673Z,french_897.wav,0,pull,453,34,3,5,français,m,1,0.1,-35.09835725,0.97615626
5c710337bc6ab00001d7aade,178,3,2024-02-27T09:24:47.673Z,french_897.wav,0,pull,453,34,3,5,français,m,2,0.2,-7.90226738,0.33556547
5c710337bc6ab00001d7aade,178,3,2024-02-27T09:24:47.673Z,french_897.wav,0,pull,453,34,3,5,français,m,3,0.25666667,34.22753828,0.12618193
5c710337bc6ab00001d7aade,179,3,2024-02-27T09:24:47.673Z,french_500.wav,0,pull,1411,34,3,5,français,m,0,0.0,-64.77507575,1.1238598
5c710337bc6ab00001d7aade,179,3,2024-02-27T09:24:47.673Z,french_500.wav,0,pull,1411,34,3,5,français,m,1,0.1,-6.64685947,1.28070421
5c710337bc6ab00001d7aade,179,3,2024-02-27T09:24:47.673Z,french_500.wav,0,pull,1411,34,3,5,français,m,2,0.2,-63.06704172,0.36817987
5c710337bc6ab00001d7aade,179,3,2024-02-27T09:24:47.673Z,french_500.wav,0,pull,1411,34,3,5,français,m,3,0.25666667,-2.53403127,0.89472864
5c710337bc6ab00001d7aade,180,3,2024-02-27T09:24:47.673Z,french_375.wav,0,pull,1439,34,3,5,français,m,0,0.0,25.91972282,0.89929791
5c710337bc6ab00001d7aade,180,3,2024-02-27T09:24:47.673Z,french_375.wav,0,pull,1439,34,3,5,français,m,1,0.1,-60.98407933,0.6101435
5c710337bc6ab00001d7aade,180,3,2024-02-27T09:24:47.673Z,french_375.wav,0,pull,1439,34,3,5,français,m,2,0.2,-55.02276561,1.65353502
5c710337bc6ab00001d7aade,180,3,2024-02-27T09:24:47.673Z,french_375.wav,0,pull,1439,34,3,5,français,m,3,0.25666667,50.70039074,0.66964756
5c710337bc6ab00001d7aade,181,3,2024-02-27T09:24:47.673Z,french_364.wav,0,poule,317,34,3,5,français,m,0,0.0,-32.92421433,1.35253812
5c710337bc6ab00001d7aade,181,3,2024-02-27T09:24:47.673Z,french_364.wav,0,poule,317,34,3,5,français,m,1,0.1,-56.96078069,1.83722727
5c710337bc6ab00001d7aade,181,3,2024-02-27T09:24:47.673Z,french_364.wav,0,poule,317,34,3,5,français,m,2,0.2,44.72635853,1.43933089
5c710337bc6ab00001d7aade,181,3,2024-02-27T09:24:47.673Z,french_364.wav,0,poule,317,34,3,5,français,m,3,0.25666667,23.55157996,1.1354083
5c710337bc6ab00001d7aade,182,3,2024-02-27T09:24:47.673Z,french_608.wav,0,pull,627,34,3,5,français,m,0,0.0,-21.93815625,0.80217517
5c710337bc6ab00001d7aade,182,3,2024-02-27T09:24:47.673Z,french_608.wav,0,pull,627,34,3,5,français,m,1,0.1,68.35071967,1.13802751
5c710337bc6ab00001d7aade,182,3,2024-02-27T09:24:47.673Z,french_608.wav,0,pull,627,34,3,5,français,m,2,0.2,-10.44332041,0.09203458
5c710337bc6ab00001d7aade,182,3,2024-02-27T09:24:47.673Z,french_608.wav,0,pull,627,34,3,5,français,m,3,0.25666667,-49.43801065,0.18129022
5c710337bc6ab00001d7aade,183,3,2024-02-27T09:24:47.673Z,french_143.wav,0,pull,511,34,3,5,français,m,0,0.0,-46.09253598,1.27633083
5c710337bc6ab00001d7aade,183,3,2024-02-27T09:24:47.673Z,french_143.wav,0,pull,511,34,3,5,français,m,1,0.1,41.21858491,0.28919458
5c710337bc6ab00001d7aade,183,3,2024-02-27T09:24:47.673Z,french_143.wav,0,pull,511,34,3,5,français,m,2,0.2,10.38405582,0.61917155
5c710337bc6ab00001d7aade,183,3,2024-02-27T09:24:47.673Z,french_143.wav,0,pull,511,34,3,5,français,m,3,0.25666667,-99.98168054,0.37925836
5c710337bc6ab00001d7aade,184,3,2024-02-27T09:24:47.673Z,french_698.wav,0,poule,446,34,3,5,français,m,0,0.0,77.87531809,1.86418809
5c710337bc6ab00001d7aade,184,3,2024-02-27T09:24:47.673Z,french_698.wav,0,poule,446,34,3,5,français,m,1,0.1,-26.89699032,0.30357323
5c710337bc6ab00001d7aade,184,3,2024-02-27T09:24:47.673Z,french_698.wav,0,poule,446,34,3,5,français,m,2,0.2,-54.93316964,1.97458381
5c710337bc6ab00001d7aade,184,3,2024-02-27T09:24:47.673Z,french_698.wav,0,poule,446,34,3,5,français,m,3,0.25666667,-94.94644501,1.01877906
5c710337bc6ab00001d7aade,185,3,2024-02-27T09:24:47.673Z,french_679.wav,0,pull,568,34,3,5,français,m,0,0.0,-12.30272173,0.22564891
5c710337bc6ab00001d7aade,185,3,2024-02-27T09:24:47.673Z,french_679.wav,0,pull,568,34,3,5,français,m,1,0.1,-25.8054218,0.32954228
5c710337bc6ab00001d7aade,185,3,2024-02-27T09:24:47.673Z,french_679.wav,0,pull,568,34,3,5,français,m,2,0.2,-49.36641871,0.69268874
5c710337bc6ab00001d7aade,185,3,2024-02-27T09:24:47.673Z,french_679.wav,0,pull,568,34,3,5,français,m,3,0.25666667,3.29240265,1.86334945
5c710337bc6ab00001d7aade,186,3,2024-02-27T09:24:47.673Z,french_315.wav,0,pull,658,34,3,5,français,m,0,0.0,84.5751695,1.39276289
5c710337bc6ab00001d7aade,186,3,2024-02-27T09:24:47.673Z,french_315.wav,0,pull,658,34,3,5,français,m,1,0.1,-54.9339599,0.42909402
5c710337bc6ab00001d7aade,186,3,2024-02-27T09:24:47.673Z,french_315.wav,0,pull,658,34,3,5,français,m,2,0.2,-20.4659381,1.80166787
5c710337bc6ab00001d7aade,186,3,2024-02-27T09:24:47.673Z,french_315.wav,0,pull,658,34,3,5,français,m,3,0.256666667,0.0497627412,1.01422067
5c710337bc6ab00001d7aade,187,3,2024-02-27T09:24:47.673Z,french_751.wav,0,pull,1009,34,3,5,français,m,0,0.0,43.14158788,0.5897858
5c710337bc6ab00001d7aade,187,3,2024-02-27T09:24:47.673Z,french_751.wav,0,pull,1009,34,3,5,français,m,1,0.1,18.43858874,0.77618244
5c710337bc6ab00001d7aade,187,3,2024-02-27T09:24:47.673Z,french_751.wav,0,pull,1009,34,3,5,français,m,2,0.2,79.49995567,1.33641446
5c710337bc6ab00001d7aade,187,3,2024-02-27T09:24:47.673Z,french_751.wav,0,pull,1009,34,3,5,français,m,3,0.25666667,54.04463095,0.80537668
5c710337bc6ab00001d7aade,188,3,2024-02-27T09:24:47.673Z,french_664.wav,0,poule,428,34,3,5,français,m,0,0.0,-2.08032019,1.43741932
5c710337bc6ab00001d7aade,188,3,2024-02-27T09:24:47.673Z,french_664.wav,0,poule,428,34,3,5,français,m,1,0.1,-67.02716902,1.07099048
5c710337bc6ab00001d7aade,188,3,2024-02-27T09:24:47.673Z,french_664.wav,0,poule,428,34,3,5,français,m,2,0.2,95.17650789,1.92774669
5c710337bc6ab00001d7aade,188,3,2024-02-27T09:24:47.673Z,french_664.wav,0,poule,428,34,3,5,français,m,3,0.25666667,-41.34718039,0.70027683
5c710337bc6ab00001d7aade,189,3,2024-02-27T09:24:47.673Z,french_815.wav,0,pull,306,34,3,5,français,m,0,0.0,-30.97778369,1.45421986
5c710337bc6ab00001d7aade,189,3,2024-02-27T09:24:47.673Z,french_815.wav,0,pull,306,34,3,5,français,m,1,0.1,-10.3506413,0.28044698
5c710337bc6ab00001d7aade,189,3,2024-02-27T09:24:47.673Z,french_815.wav,0,pull,306,34,3,5,français,m,2,0.2,61.86726268,1.88309962
5c710337bc6ab00001d7aade,189,3,2024-02-27T09:24:47.673Z,french_815.wav,0,pull,306,34,3,5,français,m,3,0.25666667,-32.12586702,1.86356454
5c710337bc6ab00001d7aade,190,3,2024-02-27T09:24:47.673Z,french_748.wav,0,pull,626,34,3,5,français,m,0,0.0,66.19282508,0.41357469
5c710337bc6ab00001d7aade,190,3,2024-02-27T09:24:47.673Z,french_748.wav,0,pull,626,34,3,5,français,m,1,0.1,-81.39884416,1.04952
