subj,trial,block,date,stim,stim_order,response,rt,age,english,french,language,sex,param_index,segment,pitch,stretch
5ba8a047ef181f0001672bc2,0,0,2024-02-24T08:48:13.287Z,french_484.wav,0,pull,4894,30,3,5,français,f,0,0.0,-9.6162674,0.19772274
5ba8a047ef181f0001672bc2,0,0,2024-02-24T08:48:13.287Z,french_484.wav,0,pull,4894,30,3,5,français,f,1,0.1,9.27811619,0.11941549
5ba8a047ef181f0001672bc2,0,0,2024-02-24T08:48:13.287Z,french_484.wav,0,pull,4894,30,3,5,français,f,2,0.2,-71.03065972,1.54802806
5ba8a047ef181f0001672bc2,0,0,2024-02-24T08:48:13.287Z,french_484.wav,0,pull,4894,30,3,5,français,f,3,0.25666667,-29.12959292,1.03524562
5ba8a047ef181f0001672bc2,1,0,2024-02-24T08:48:13.287Z,french_834.wav,0,poule,2439,30,3,5,français,f,0,0.0,-86.08965853,1.35817583
5ba8a047ef181f0001672bc2,1,0,2024-02-24T08:48:13.287Z,french_834.wav,0,poule,2439,30,3,5,français,f,1,0.1,69.78931281,0.2902945
5ba8a047ef181f0001672bc2,1,0,2024-02-24T08:48:13.287Z,french_834.wav,0,poule,2439,30,3,5,français,f,2,0.2,-42.1324214,0.84488429
5ba8a047ef181f0001672bc2,1,0,2024-02-24T08:48:13.287Z,french_834.wav,0,poule,2439,30,3,5,français,f,3,0.25666667,-13.11810425,0.59655356
5ba8a047ef181f0001672bc2,2,0,2024-02-24T08:48:13.287Z,french_17.wav,0,poule,5554,30,3,5,français,f,0,0.0,61.86852427,1.05769551
5ba8a047ef181f0001672bc2,2,0,2024-02-24T08:48:13.287Z,french_17.wav,0,poule,5554,30,3,5,français,f,1,0.1,14.81642836,0.81667418
5ba8a047ef181f0001672bc2,2,0,2024-02-24T08:48:13.287Z,french_17.wav,0,poule,5554,30,3,5,français,f,2,0.2,-8.48865215,0.51249479
5ba8a047ef181f0001672bc2,2,0,2024-02-24T08:48:13.287Z,french_17.wav,0,poule,5554,30,3,5,français,f,3,0.25666667,71.68336874,0.29939213
5ba8a047ef181f0001672bc2,3,0,2024-02-24T08:48:13.287Z,french_579.wav,0,poule,3176,30,3,5,français,f,0,0.0,43.6749768,0.88309836
5ba8a047ef181f0001672bc2,3,0,2024-02-24T08:48:13.287Z,french_579.wav,0,poule,3176,30,3,5,français,f,1,0.1,44.80331973,0.15383342
5ba8a047ef181f0001672bc2,3,0,2024-02-24T08:48:13.287Z,french_579.wav,0,poule,3176,30,3,5,français,f,2,0.2,80.34685553,0.11279804
5ba8a047ef181f0001672bc2,3,0,2024-02-24T08:48:13.287Z,french_579.wav,0,poule,3176,30,3,5,français,f,3,0.25666667,-77.70594339,1.88524282
5ba8a047ef181f0001672bc2,4,0,2024-02-24T08:48:13.287Z,french_538.wav,0,poule,5096,30,3,5,français,f,0,0.0,-62.11881418,0.72316351
5ba8a047ef181f0001672bc2,4,0,2024-02-24T08:48:13.287Z,french_538.wav,0,poule,5096,30,3,5,français,f,1,0.1,-49.1326041,0.52652182
5ba8a047ef181f0001672bc2,4,0,2024-02-24T08:48:13.287Z,french_538.wav,0,poule,5096,30,3,5,français,f,2,0.2,11.48721962,0.30218135
5ba8a047ef181f0001672bc2,4,0,2024-02-24T08:48:13.287Z,french_538.wav,0,poule,5096,30,3,5,français,f,3,0.25666667,-26.18142206,1.69243497
5ba8a047ef181f0001672bc2,5,0,2024-02-24T08:48:13.287Z,french_174.wav,0,poule,2329,30,3,5,français,f,0,0.0,1.45674265,0.26044346
5ba8a047ef181f0001672bc2,5,0,2024-02-24T08:48:13.287Z,french_174.wav,0,poule,2329,30,3,5,français,f,1,0.1,47.27057229,1.87217745
5ba8a047ef181f0001672bc2,5,0,2024-02-24T08:48:13.287Z,french_174.wav,0,poule,2329,30,3,5,français,f,2,0.2,-41.5239841,1.40485436
5ba8a047ef181f0001672bc2,5,0,2024-02-24T08:48:13.287Z,french_174.wav,0,poule,2329,30,3,5,français,f,3,0.25666667,32.3517821,1.2389409
5ba8a047ef181f0001672bc2,6,0,2024-02-24T08:48:13.287Z,french_89.wav,0,poule,973,30,3,5,français,f,0,0.0,-79.59355323,1.69180454
5ba8a047ef181f0001672bc2,6,0,2024-02-24T08:48:13.287Z,french_89.wav,0,poule,973,30,3,5,français,f,1,0.1,-86.9945706,1.08047967
5ba8a047ef181f0001672bc2,6,0,2024-02-24T08:48:13.287Z,french_89.wav,0,poule,973,30,3,5,français,f,2,0.2,81.38410409,1.92177075
5ba8a047ef181f0001672bc2,6,0,2024-02-24T08:48:13.287Z,french_89.wav,0,poule,973,30,3,5,français,f,3,0.25666667,-11.31628481,1.93759104
5ba8a047ef181f0001672bc2,7,0,2024-02-24T08:48:13.287Z,french_630.wav,0,pull,4612,30,3,5,français,f,0,0.0,77.73428331,1.3363399
5ba8a047ef181f0001672bc2,7,0,2024-02-24T08:48:13.287Z,french_630.wav,0,pull,4612,30,3,5,français,f,1,0.1,-25.60495453,1.21399003
5ba8a047ef181f0001672bc2,7,0,2024-02-24T08:48:13.287Z,french_630.wav,0,pull,4612,30,3,5,français,f,2,0.2,64.05787884,0.69039687
5ba8a047ef181f0001672bc2,7,0,2024-02-24T08:48:13.287Z,french_630.wav,0,pull,4612,30,3,5,français,f,3,0.25666667,12.38181906,0.92340198
5ba8a047ef181f0001672bc2,8,0,2024-02-24T08:48:13.287Z,french_661.wav,0,poule,1990,30,3,5,français,f,0,0.0,34.1047988,1.29957539
5ba8a047ef181f0001672bc2,8,0,2024-02-24T08:48:13.287Z,french_661.wav,0,poule,1990,30,3,5,français,f,1,0.1,-45.42737183,0.81809843
5ba8a047ef181f0001672bc2,8,0,2024-02-24T08:48:13.287Z,french_661.wav,0,poule,1990,30,3,5,français,f,2,0.2,-32.96226792,1.39938296
5ba8a047ef181f0001672bc2,8,0,2024-02-24T08:48:13.287Z,french_661.wav,0,poule,1990,30,3,5,français,f,3,0.25666667,51.87575508,1.33634107
5ba8a047ef181f0001672bc2,9,0,2024-02-24T08:48:13.287Z,french_709.wav,0,pull,2526,30,3,5,français,f,0,0.0,-79.1228884,1.66046785
5ba8a047ef181f0001672bc2,9,0,2024-02-24T08:48:13.287Z,french_709.wav,0,pull,2526,30,3,5,français,f,1,0.1,-27.45222572,0.50815509
5ba8a047ef181f0001672bc2,9,0,2024-02-24T08:48:13.287Z,french_709.wav,0,pull,2526,30,3,5,français,f,2,0.2,-11.54770291,1.01994244
5ba8a047ef181f0001672bc2,9,0,2024-02-24T08:48:13.287Z,french_709.wav,0,pull,2526,30,3,5,français,f,3,0.25666667,-99.06734201,1.8368488
5ba8a047ef181f0001672bc2,10,0,2024-02-24T08:48:13.287Z,french_792.wav,0,poule,1837,30,3,5,français,f,0,0.0,-30.95032355,0.5884638
5ba8a047ef181f0001672bc2,10,0,2024-02-24T08:48:13.287Z,french_792.wav,0,poule,1837,30,3,5,français,f,1,0.1,73.05460755,1.61732216
5ba8a047ef181f0001672bc2,10,0,2024-02-24T08:48:13.287Z,french_792.wav,0,poule,1837,30,3,5,français,f,2,0.2,-0.6809714,1.33614238
5ba8a047ef181f0001672bc2,10,0,2024-02-24T08:48:13.287Z,french_792.wav,0,poule,1837,30,3,5,français,f,3,0.25666667,25.15150688,0.65397567
5ba8a047ef181f0001672bc2,11,0,2024-02-24T08:48:13.287Z,french_467.wav,0,pull,2325,30,3,5,français,f,0,0.0,26.36588123,0.49078583
5ba8a047ef181f0001672bc2,11,0,2024-02-24T08:48:13.287Z,french_467.wav,0,pull,2325,30,3,5,français,f,1,0.1,-91.62831039,1.37574102
5ba8a047ef181f0001672bc2,11,0,2024-02-24T08:48:13.287Z,french_467.wav,0,pull,2325,30,3,5,français,f,2,0.2,14.27679522,0.10009029
5ba8a047ef181f0001672bc2,11,0,2024-02-24T08:48:13.287Z,french_467.wav,0,pull,2325,30,3,5,français,f,3,0.25666667,-77.75485007,1.32516535
5ba8a047ef181f0001672bc2,12,0,2024-02-24T08:48:13.287Z,french_172.wav,0,poule,1223,30,3,5,français,f,0,0.0,48.7065843,1.72774852
5ba8a047ef181f0001672bc2,12,0,2024-02-24T08:48:13.287Z,french_172.wav,0,poule,1223,30,3,5,français,f,1,0.1,36.17213003,0.94223675
5ba8a047ef181f0001672bc2,12,0,2024-02-24T08:48:13.287Z,french_172.wav,0,poule,1223,30,3,5,français,f,2,0.2,22.16215467,1.06724209
5ba8a047ef181f0001672bc2,12,0,2024-02-24T08:48:13.287Z,french_172.wav,0,poule,1223,30,3,5,français,f,3,0.25666667,3.80373218,1.19623342
5ba8a047ef181f0001672bc2,13,0,2024-02-24T08:48:13.287Z,french_761.wav,0,poule,626,30,3,5,français,f,0,0.0,-26.32638144,1.05429599
5ba8a047ef181f0001672bc2,13,0,2024-02-24T08:48:13.287Z,french_761.wav,0,poule,626,30,3,5,français,f,1,0.1,78.13411122,0.90631559
5ba8a047ef181f0001672bc2,13,0,2024-02-24T08:48:13.287Z,french_761.wav,0,poule,626,30,3,5,français,f,2,0.2,-6.36477673,1.36732306
5ba8a047ef181f0001672bc2,13,0,2024-02-24T08:48:13.287Z,french_761.wav,0,poule,626,30,3,5,français,f,3,0.25666667,-77.19672863,0.83755281
5ba8a047ef181f0001672bc2,14,0,2024-02-24T08:48:13.287Z,french_308.wav,0,pull,2249,30,3,5,français,f,0,0.0,10.28514005,0.92806529
5ba8a047ef181f0001672bc2,14,0,2024-02-24T08:48:13.287Z,french_308.wav,0,pull,2249,30,3,5,français,f,1,0.1,-39.60290217,0.73191769
5ba8a047ef181f0001672bc2,14,0,2024-02-24T08:48:13.287Z,french_308.wav,0,pull,2249,30,3,5,français,f,2,0.2,99.30719553,0.07740888
5ba8a047ef181f0001672bc2,14,0,2024-02-24T08:48:13.287Z,french_308.wav,0,pull,2249,30,3,5,français,f,3,0.25666667,64.43745932,0.80481059
5ba8a047ef181f0001672bc2,15,0,2024-02-24T08:48:13.287Z,french_410.wav,0,poule,685,30,3,5,français,f,0,0.0,-57.70995681,0.42078672
5ba8a047ef181f0001672bc2,15,0,2024-02-24T08:48:13.287Z,french_410.wav,0,poule,685,30,3,5,français,f,1,0.1,48.77026686,1.91428116
5ba8a047ef181f0001672bc2,15,0,2024-02-24T08:48:13.287Z,french_410.wav,0,poule,685,30,3,5,français,f,2,0.2,-48.38648813,0.69257086
5ba8a047ef181f0001672bc2,15,0,2024-02-24T08:48:13.287Z,french_410.wav,0,poule,685,30,3,5,français,f,3,0.25666667,53.40375253,1.23009328
5ba8a047ef181f0001672bc2,16,0,2024-02-24T08:48:13.287Z,french_568.wav,0,pull,2337,30,3,5,français,f,0,0.0,-18.10302265,1.34189827
5ba8a047ef181f0001672bc2,16,0,2024-02-24T08:48:13.287Z,french_568.wav,0,pull,2337,30,3,5,français,f,1,0.1,9.93139794,1.47029794
5ba8a047ef181f0001672bc2,16,0,2024-02-24T08:48:13.287Z,french_568.wav,0,pull,2337,30,3,5,français,f,2,0.2,91.46195775,0.17269775
5ba8a047ef181f0001672bc2,16,0,2024-02-24T08:48:13.287Z,french_568.wav,0,pull,2337,30,3,5,français,f,3,0.25666667,56.10040773,1.22679594
5ba8a047ef181f0001672bc2,17,0,2024-02-24T08:48:13.287Z,french_570.wav,0,poule,1799,30,3,5,français,f,0,0.0,-73.07970403,1.97071113
5ba8a047ef181f0001672bc2,17,0,2024-02-24T08:48:13.287Z,french_570.wav,0,poule,1799,30,3,5,français,f,1,0.1,-29.06072458,1.64236312
5ba8a047ef181f0001672bc2,17,0,2024-02-24T08:48:13.287Z,french_570.wav,0,poule,1799,30,3,5,français,f,2,0.2,-25.44054287,0.27343611
5ba8a047ef181f0001672bc2,17,0,2024-02-24T08:48:13.287Z,french_570.wav,0,poule,1799,30,3,5,français,f,3,0.25666667,96.93308839,1.31029171
5ba8a047ef181f0001672bc2,18,0,2024-02-24T08:48:13.287Z,french_827.wav,0,poule,1963,30,3,5,français,f,0,0.0,52.76736232,0.65431252
5ba8a047ef181f0001672bc2,18,0,2024-02-24T08:48:13.287Z,french_827.wav,0,poule,1963,30,3,5,français,f,1,0.1,43.3684124,1.37281261
5ba8a047ef181f0001672bc2,18,0,2024-02-24T08:48:13.287Z,french_827.wav,0,poule,1963,30,3,5,français,f,2,0.2,5.13351566,0.35708699
5ba8a047ef181f0001672bc2,18,0,2024-02-24T08:48:13.287Z,french_827.wav,0,poule,1963,30,3,5,français,f,3,0.25666667,57.45570888,0.33493738
5ba8a047ef181f0001672bc2,19,0,2024-02-24T08:48:13.287Z,french_876.wav,0,poule,595,30,3,5,français,f,0,0.0,-63.60663495,1.31328738
5ba8a047ef181f0001672bc2,19,0,2024-02-24T08:48:13.287Z,french_876.wav,0,poule,595,30,3,5,français,f,1,0.1,-33.069551,1.53761103
5ba8a047ef181f0001672bc2,19,0,2024-02-24T08:48:13.287Z,french_876.wav,0,poule,595,30,3,5,français,f,2,0.2,44.38072254,1.15738415
5ba8a047ef181f0001672bc2,19,0,2024-02-24T08:48:13.287Z,french_876.wav,0,poule,595,30,3,5,français,f,3,0.25666667,3.25210733,1.33428182
5ba8a047ef181f0001672bc2,20,0,2024-02-24T08:48:13.287Z,french_432.wav,0,poule,1475,30,3,5,français,f,0,0.0,41.78718943,1.64767318
5ba8a047ef181f0001672bc2,20,0,2024-02-24T08:48:13.287Z,french_432.wav,0,poule,1475,30,3,5,français,f,1,0.1,-73.8341876,1.66923601
5ba8a047ef181f0001672bc2,20,0,2024-02-24T08:48:13.287Z,french_432.wav,0,poule,1475,30,3,5,français,f,2,0.2,2.46605077,1.63004177
5ba8a047ef181f0001672bc2,20,0,2024-02-24T08:48:13.287Z,french_432.wav,0,poule,1475,30,3,5,français,f,3,0.25666667,-5.34058627,1.91522166
5ba8a047ef181f0001672bc2,21,0,2024-02-24T08:48:13.287Z,french_84.wav,0,poule,1711,30,3,5,français,f,0,0.0,-54.85806939,1.84853156
5ba8a047ef181f0001672bc2,21,0,2024-02-24T08:48:13.287Z,french_84.wav,0,poule,1711,30,3,5,français,f,1,0.1,52.61671493,1.627657
5ba8a047ef181f0001672bc2,21,0,2024-02-24T08:48:13.287Z,french_84.wav,0,poule,1711,30,3,5,français,f,2,0.2,-3.50081054,1.36210905
5ba8a047ef181f0001672bc2,21,0,2024-02-24T08:48:13.287Z,french_84.wav,0,poule,1711,30,3,5,français,f,3,0.25666667,-40.76156086,0.69575672
5ba8a047ef181f0001672bc2,22,0,2024-02-24T08:48:13.287Z,french_383.wav,0,poule,1322,30,3,5,français,f,0,0.0,-42.4544387,1.97405967
5ba8a047ef181f0001672bc2,22,0,2024-02-24T08:48:13.287Z,french_383.wav,0,poule,1322,30,3,5,français,f,1,0.1,-90.68336638,0.7318817
5ba8a047ef181f0001672bc2,22,0,2024-02-24T08:48:13.287Z,french_383.wav,0,poule,1322,30,3,5,français,f,2,0.2,-23.68224062,1.2439139
5ba8a047ef181f0001672bc2,22,0,2024-02-24T08:48:13.287Z,french_383.wav,0,poule,1322,30,3,5,français,f,3,0.25666667,-19.21071009,0.24057374
5ba8a047ef181f0001672bc2,23,0,2024-02-24T08:48:13.287Z,french_407.wav,0,poule,1333,30,3,5,français,f,0,0.0,-57.6292462,1.8651924
5ba8a047ef181f0001672bc2,23,0,2024-02-24T08:48:13.287Z,french_407.wav,0,poule,1333,30,3,5,français,f,1,0.1,-25.10683904,1.55880725
5ba8a047ef181f0001672bc2,23,0,2024-02-24T08:48:13.287Z,french_407.wav,0,poule,1333,30,3,5,français,f,2,0.2,13.09742102,1.30220718
5ba8a047ef181f0001672bc2,23,0,2024-02-24T08:48:13.287Z,french_407.wav,0,poule,1333,30,3,5,français,f,3,0.25666667,-8.98604593,1.55663467
5ba8a047ef181f0001672bc2,24,0,2024-02-24T08:48:13.287Z,french_855.wav,0,poule,642,30,3,5,français,f,0,0.0,2.71159552,1.64624975
5ba8a047ef181f0001672bc2,24,0,2024-02-24T08:48:13.287Z,french_855.wav,0,poule,642,30,3,5,français,f,1,0.1,66.05842931,0.54809415
5ba8a047ef181f0001672bc2,24,0,2024-02-24T08:48:13.287Z,french_855.wav,0,poule,642,30,3,5,français,f,2,0.2,41.00995311,1.64541289
5ba8a047ef181f0001672bc2,24,0,2024-02-24T08:48:13.287Z,french_855.wav,0,poule,642,30,3,5,français,f,3,0.25666667,98.2962498,1.22205238
5ba8a047ef181f0001672bc2,25,0,2024-02-24T08:48:13.287Z,french_157.wav,0,poule,819,30,3,5,français,f,0,0.0,-6.6246598,1.79360699
5ba8a047ef181f0001672bc2,25,0,2024-02-24T08:48:13.287Z,french_157.wav,0,poule,819,30,3,5,français,f,1,0.1,49.95824353,1.27582672
5ba8a047ef181f0001672bc2,25,0,2024-02-24T08:48:13.287Z,french_157.wav,0,poule,819,30,3,5,français,f,2,0.2,50.90371108,1.55422844
5ba8a047ef181f0001672bc2,25,0,2024-02-24T08:48:13.287Z,french_157.wav,0,poule,819,30,3,5,français,f,3,0.25666667,-96.22740321,0.51380788
5ba8a047ef181f0001672bc2,26,0,2024-02-24T08:48:13.287Z,french_180.wav,0,pull,1914,30,3,5,français,f,0,0.0,51.39712435,0.88084927
5ba8a047ef181f0001672bc2,26,0,2024-02-24T08:48:13.287Z,french_180.wav,0,pull,1914,30,3,5,français,f,1,0.1,1.53552767,1.20367685
5ba8a047ef181f0001672bc2,26,0,2024-02-24T08:48:13.287Z,french_180.wav,0,pull,1914,30,3,5,français,f,2,0.2,26.54664149,0.46174189
5ba8a047ef181f0001672bc2,26,0,2024-02-24T08:48:13.287Z,french_180.wav,0,pull,1914,30,3,5,français,f,3,0.25666667,87.56909972,1.40614512
5ba8a047ef181f0001672bc2,27,0,2024-02-24T08:48:13.287Z,french_462.wav,0,poule,792,30,3,5,français,f,0,0.0,-21.95394664,1.87011175
5ba8a047ef181f0001672bc2,27,0,2024-02-24T08:48:13.287Z,french_462.wav,0,poule,792,30,3,5,français,f,1,0.1,40.83343907,1.54087482
5ba8a047ef181f0001672bc2,27,0,2024-02-24T08:48:13.287Z,french_462.wav,0,poule,792,30,3,5,français,f,2,0.2,-14.27053038,0.9591328
5ba8a047ef181f0001672bc2,27,0,2024-02-24T08:48:13.287Z,french_462.wav,0,poule,792,30,3,5,français,f,3,0.25666667,85.20745493,0.45105527
5ba8a047ef181f0001672bc2,28,0,2024-02-24T08:48:13.287Z,french_803.wav,0,poule,618,30,3,5,français,f,0,0.0,52.60083548,1.16065927
5ba8a047ef181f0001672bc2,28,0,2024-02-24T08:48:13.287Z,french_803.wav,0,poule,618,30,3,5,français,f,1,0.1,69.87806401,1.31848068
5ba8a047ef181f0001672bc2,28,0,2024-02-24T08:48:13.287Z,french_803.wav,0,poule,618,30,3,5,français,f,2,0.2,-5.78457695,1.09352717
5ba8a047ef181f0001672bc2,28,0,2024-02-24T08:48:13.287Z,french_803.wav,0,poule,618,30,3,5,français,f,3,0.25666667,80.81591727,0.48205773
5ba8a047ef181f0001672bc2,29,0,2024-02-24T08:48:13.287Z,french_926.wav,0,pull,757,30,3,5,français,f,0,0.0,-38.30420493,1.0266732
5ba8a047ef181f0001672bc2,29,0,2024-02-24T08:48:13.287Z,french_926.wav,0,pull,757,30,3,5,français,f,1,0.1,-97.26803886,0.03873156
5ba8a047ef181f0001672bc2,29,0,2024-02-24T08:48:13.287Z,french_926.wav,0,pull,757,30,3,5,français,f,2,0.2,55.3544282,0.32593073
5ba8a047ef181f0001672bc2,29,0,2024-02-24T08:48:13.287Z,french_926.wav,0,pull,757,30,3,5,français,f,3,0.25666667,8.78644418,0.80695306
5ba8a047ef181f0001672bc2,30,0,2024-02-24T08:48:13.287Z,french_268.wav,0,poule,2299,30,3,5,français,f,0,0.0,-31.22986491,0.61965618
5ba8a047ef181f0001672bc2,30,0,2024-02-24T08:48:13.287Z,french_268.wav,0,poule,2299,30,3,5,français,f,1,0.1,85.41130684,0.43772331
5ba8a047ef181f0001672bc2,30,0,2024-02-24T08:48:13.287Z,french_268.wav,0,poule,2299,30,3,5,français,f,2,0.2,51.81326747,0.97717852
5ba8a047ef181f0001672bc2,30,0,2024-02-24T08:48:13.287Z,french_268.wav,0,poule,2299,30,3,5,français,f,3,0.25666667,-9.66270327,0.83042374
5ba8a047ef181f0001672bc2,31,0,2024-02-24T08:48:13.287Z,french_802.wav,0,poule,820,30,3,5,français,f,0,0.0,-73.24347689,0.39190156
5ba8a047ef181f0001672bc2,31,0,2024-02-24T08:48:13.287Z,french_802.wav,0,poule,820,30,3,5,français,f,1,0.1,14.85977478,1.18064228
5ba8a047ef181f0001672bc2,31,0,2024-02-24T08:48:13.287Z,french_802.wav,0,poule,820,30,3,5,français,f,2,0.2,-45.72901481,1.4654249
5ba8a047ef181f0001672bc2,31,0,2024-02-24T08:48:13.287Z,french_802.wav,0,poule,820,30,3,5,français,f,3,0.25666667,-78.69015161,0.6030906
5ba8a047ef181f0001672bc2,32,0,2024-02-24T08:48:13.287Z,french_460.wav,0,pull,1089,30,3,5,français,f,0,0.0,-46.82547924,0.18532774
5ba8a047ef181f0001672bc2,32,0,2024-02-24T08:48:13.287Z,french_460.wav,0,pull,1089,30,3,5,français,f,1,0.1,-89.06595485,0.73005791
5ba8a047ef181f0001672bc2,32,0,2024-02-24T08:48:13.287Z,french_460.wav,0,pull,1089,30,3,5,français,f,2,0.2,-15.88362663,0.27848928
5ba8a047ef181f0001672bc2,32,0,2024-02-24T08:48:13.287Z,french_460.wav,0,pull,1089,30,3,5,français,f,3,0.25666667,-55.00298372,1.6971829
5ba8a047ef181f0001672bc2,33,0,2024-02-24T08:48:13.287Z,french_266.wav,0,poule,842,30,3,5,français,f,0,0.0,58.27883453,0.79886668
5ba8a047ef181f0001672bc2,33,0,2024-02-24T08:48:13.287Z,french_266.wav,0,poule,842,30,3,5,français,f,1,0.1,-28.04411439,1.49488383
5ba8a047ef181f0001672bc2,33,0,2024-02-24T08:48:13.287Z,french_266.wav,0,poule,842,30,3,5,français,f,2,0.2,-38.46127027,0.15170522
5ba8a047ef181f0001672bc2,33,0,2024-02-24T08:48:13.287Z,french_266.wav,0,poule,842,30,3,5,français,f,3,0.25666667,-84.67234247,1.57053192
5ba8a047ef181f0001672bc2,34,0,2024-02-24T08:48:13.287Z,french_414.wav,0,poule,633,30,3,5,français,f,0,0.0,-53.65137821,1.15122316
5ba8a047ef181f0001672bc2,34,0,2024-02-24T08:48:13.287Z,french_414.wav,0,poule,633,30,3,5,français,f,1,0.1,61.14227183,1.54420741
5ba8a047ef181f0001672bc2,34,0,2024-02-24T08:48:13.287Z,french_414.wav,0,poule,633,30,3,5,français,f,2,0.2,-13.28017505,1.48861563
5ba8a047ef181f0001672bc2,34,0,2024-02-24T08:48:13.287Z,french_414.wav,0,poule,633,30,3,5,français,f,3,0.25666667,99.20914295,0.34805763
5ba8a047ef181f0001672bc2,35,0,2024-02-24T08:48:13.287Z,french_553.wav,0,poule,1018,30,3,5,français,f,0,0.0,-1.38146628,0.44011383
5ba8a047ef181f0001672bc2,35,0,2024-02-24T08:48:13.287Z,french_553.wav,0,poule,1018,30,3,5,français,f,1,0.1,-34.28745567,1.14829302
5ba8a047ef181f0001672bc2,35,0,2024-02-24T08:48:13.287Z,french_553.wav,0,poule,1018,30,3,5,français,f,2,0.2,6.87532462,1.07508961
5ba8a047ef181f0001672bc2,35,0,2024-02-24T08:48:13.287Z,french_553.wav,0,poule,1018,30,3,5,français,f,3,0.25666667,90.98690029,0.10252166
5ba8a047ef181f0001672bc2,36,0,2024-02-24T08:48:13.287Z,french_327.wav,0,poule,652,30,3,5,français,f,0,0.0,75.01862194,1.26930687
5ba8a047ef181f0001672bc2,36,0,2024-02-24T08:48:13.287Z,french_327.wav,0,poule,652,30,3,5,français,f,1,0.1,-83.8502905,1.47688931
5ba8a047ef181f0001672bc2,36,0,2024-02-24T08:48:13.287Z,french_327.wav,0,poule,652,30,3,5,français,f,2,0.2,63.63621512,1.339502
5ba8a047ef181f0001672bc2,36,0,2024-02-24T08:48:13.287Z,french_327.wav,0,poule,652,30,3,5,français,f,3,0.25666667,-22.5018405,0.76786237
5ba8a047ef181f0001672bc2,37,0,2024-02-24T08:48:13.287Z,french_881.wav,0,poule,598,30,3,5,français,f,0,0.0,-25.82648211,0.15296837
5ba8a047ef181f0001672bc2,37,0,2024-02-24T08:48:13.287Z,french_881.wav,0,poule,598,30,3,5,français,f,1,0.1,13.08751975,1.42149925
5ba8a047ef181f0001672bc2,37,0,2024-02-24T08:48:13.287Z,french_881.wav,0,poule,598,30,3,5,français,f,2,0.2,-84.06590477,1.29281362
5ba8a047ef181f0001672bc2,37,0,2024-02-24T08:48:13.287Z,french_881.wav,0,poule,598,30,3,5,français,f,3,0.25666667,-28.7935441,1.41538706
5ba8a047ef181f0001672bc2,38,0,2024-02-24T08:48:13.287Z,french_736.wav,0,pull,2297,30,3,5,français,f,0,0.0,-58.2057669,1.39182764
5ba8a047ef181f0001672bc2,38,0,2024-02-24T08:48:13.287Z,french_736.wav,0,pull,2297,30,3,5,français,f,1,0.1,67.4754916,0.85405242
5ba8a047ef181f0001672bc2,38,0,2024-02-24T08:48:13.287Z,french_736.wav,0,pull,2297,30,3,5,français,f,2,0.2,92.18157431,1.06665121
5ba8a047ef181f0001672bc2,38,0,2024-02-24T08:48:13.287Z,french_736.wav,0,pull,2297,30,3,5,français,f,3,0.25666667,88.23593553,0.29553719
5ba8a047ef181f0001672bc2,39,0,2024-02-24T08:48:13.287Z,french_281.wav,0,pull,670,30,3,5,français,f,0,0.0,4.01359856,1.28629226
5ba8a047ef181f0001672bc2,39,0,2024-02-24T08:48:13.287Z,french_281.wav,0,pull,670,30,3,5,français,f,1,0.1,1.45942388,0.42556587
5ba8a047ef181f0001672bc2,39,0,2024-02-24T08:48:13.287Z,french_281.wav,0,pull,670,30,3,5,français,f,2,0.2,95.6401263,0.86080411
5ba8a047ef181f0001672bc2,39,0,2024-02-24T08:48:13.287Z,french_281.wav,0,pull,670,30,3,5,français,f,3,0.25666667,25.46106052,1.04114743
5ba8a047ef181f0001672bc2,40,0,2024-02-24T08:48:13.287Z,french_195.wav,0,poule,562,30,3,5,français,f,0,0.0,-1.90342588,0.62941576
5ba8a047ef181f0001672bc2,40,0,2024-02-24T08:48:13.287Z,french_195.wav,0,poule,562,30,3,5,français,f,1,0.1,-8.12665825,1.90753939
5ba8a047ef181f0001672bc2,40,0,2024-02-24T08:48:13.287Z,french_195.wav,0,poule,562,30,3,5,français,f,2,0.2,-5.61431002,1.47732259
5ba8a047ef181f0001672bc2,40,0,2024-02-24T08:48:13.287Z,french_195.wav,0,poule,562,30,3,5,français,f,3,0.25666667,-66.29175925,0.68212586
5ba8a047ef181f0001672bc2,41,0,2024-02-24T08:48:13.287Z,french_22.wav,0,poule,1238,30,3,5,français,f,0,0.0,71.14052921,0.14678418
5ba8a047ef181f0001672bc2,41,0,2024-02-24T08:48:13.287Z,french_22.wav,0,poule,1238,30,3,5,français,f,1,0.1,32.6622244,0.81024714
5ba8a047ef181f0001672bc2,41,0,2024-02-24T08:48:13.287Z,french_22.wav,0,poule,1238,30,3,5,français,f,2,0.2,96.1292121,1.14392668
5ba8a047ef181f0001672bc2,41,0,2024-02-24T08:48:13.287Z,french_22.wav,0,poule,1238,30,3,5,français,f,3,0.25666667,65.79523532,1.62437335
5ba8a047ef181f0001672bc2,42,0,2024-02-24T08:48:13.287Z,french_352.wav,0,poule,1220,30,3,5,français,f,0,0.0,74.68489003,0.29948735
5ba8a047ef181f0001672bc2,42,0,2024-02-24T08:48:13.287Z,french_352.wav,0,poule,1220,30,3,5,français,f,1,0.1,96.39949195,0.51724136
5ba8a047ef181f0001672bc2,42,0,2024-02-24T08:48:13.287Z,french_352.wav,0,poule,1220,30,3,5,français,f,2,0.2,90.64764472,1.48158799
5ba8a047ef181f0001672bc2,42,0,2024-02-24T08:48:13.287Z,french_352.wav,0,poule,1220,30,3,5,français,f,3,0.25666667,65.55341103,0.97952247
5ba8a047ef181f0001672bc2,43,0,2024-02-24T08:48:13.287Z,french_48.wav,0,poule,2981,30,3,5,français,f,0,0.0,39.79198264,1.78905862
5ba8a047ef181f0001672bc2,43,0,2024-02-24T08:48:13.287Z,french_48.wav,0,poule,2981,30,3,5,français,f,1,0.1,66.47948286,1.41226809
5ba8a047ef181f0001672bc2,43,0,2024-02-24T08:48:13.287Z,french_48.wav,0,poule,2981,30,3,5,français,f,2,0.2,57.39946228,1.54721415
5ba8a047ef181f0001672bc2,43,0,2024-02-24T08:48:13.287Z,french_48.wav,0,poule,2981,30,3,5,français,f,3,0.25666667,-39.27972342,0.33574946
5ba8a047ef181f0001672bc2,44,0,2024-02-24T08:48:13.287Z,french_925.wav,0,poule,3467,30,3,5,français,f,0,0.0,-30.51780923,1.09841649
5ba8a047ef181f0001672bc2,44,0,2024-02-24T08:48:13.287Z,french_925.wav,0,poule,3467,30,3,5,français,f,1,0.1,35.11933452,0.05099013
5ba8a047ef181f0001672bc2,44,0,2024-02-24T08:48:13.287Z,french_925.wav,0,poule,3467,30,3,5,français,f,2,0.2,-97.7648117,1.83429048
5ba8a047ef181f0001672bc2,44,0,2024-02-24T08:48:13.287Z,french_925.wav,0,poule,3467,30,3,5,français,f,3,0.25666667,-62.39495561,1.66107303
5ba8a047ef181f0001672bc2,45,0,2024-02-24T08:48:13.287Z,french_104.wav,0,poule,1277,30,3,5,français,f,0,0.0,-10.23090517,1.0322013
5ba8a047ef181f0001672bc2,45,0,2024-02-24T08:48:13.287Z,french_104.wav,0,poule,1277,30,3,5,français,f,1,0.1,92.61712743,0.84344174
5ba8a047ef181f0001672bc2,45,0,2024-02-24T08:48:13.287Z,french_104.wav,0,poule,1277,30,3,5,français,f,2,0.2,0.22426759,1.03962656
5ba8a047ef181f0001672bc2,45,0,2024-02-24T08:48:13.287Z,french_104.wav,0,poule,1277,30,3,5,français,f,3,0.25666667,32.30673442,1.9472426
5ba8a047ef181f0001672bc2,46,0,2024-02-24T08:48:13.287Z,french_806.wav,0,poule,926,30,3,5,français,f,0,0.0,97.26957313,1.48673004
5ba8a047ef181f0001672bc2,46,0,2024-02-24T08:48:13.287Z,french_806.wav,0,poule,926,30,3,5,français,f,1,0.1,79.44562669,1.9967546
5ba8a047ef181f0001672bc2,46,0,2024-02-24T08:48:13.287Z,french_806.wav,0,poule,926,30,3,5,français,f,2,0.2,79.77586719,0.9238106
5ba8a047ef181f0001672bc2,46,0,2024-02-24T08:48:13.287Z,french_806.wav,0,poule,926,30,3,5,français,f,3,0.25666667,-46.2684083,1.39755131
5ba8a047ef181f0001672bc2,47,0,2024-02-24T08:48:13.287Z,french_960.wav,0,pull,835,30,3,5,français,f,0,0.0,-21.44081237,0.51475761
5ba8a047ef181f0001672bc2,47,0,2024-02-24T08:48:13.287Z,french_960.wav,0,pull,835,30,3,5,français,f,1,0.1,-88.4923718,1.11613408
5ba8a047ef181f0001672bc2,47,0,2024-02-24T08:48:13.287Z,french_960.wav,0,pull,835,30,3,5,français,f,2,0.2,38.79957112,0.09358172
5ba8a047ef181f0001672bc2,47,0,2024-02-24T08:48:13.287Z,french_960.wav,0,pull,835,30,3,5,français,f,3,0.25666667,-94.67313386,1.96196729
5ba8a047ef181f0001672bc2,48,0,2024-02-24T08:48:13.287Z,french_378.wav,0,pull,817,30,3,5,français,f,0,0.0,74.25757507,1.44636003
5ba8a047ef181f0001672bc2,48,0,2024-02-24T08:48:13.287Z,french_378.wav,0,pull,817,30,3,5,français,f,1,0.1,69.54270197,0.18429149
5ba8a047ef181f0001672bc2,48,0,2024-02-24T08:48:13.287Z,french_378.wav,0,pull,817,30,3,5,français,f,2,0.2,91.83328043,0.75177649
5ba8a047ef181f0001672bc2,48,0,2024-02-24T08:48:13.287Z,french_378.wav,0,pull,817,30,3,5,français,f,3,0.25666667,65.12199987,0.49263706
5ba8a047ef181f0001672bc2,49,0,2024-02-24T08:48:13.287Z,french_403.wav,0,pull,1808,30,3,5,français,f,0,0.0,-74.59140771,1.12132674
5ba8a047ef181f0001672bc2,49,0,2024-02-24T08:48:13.287Z,french_403.wav,0,pull,1808,30,3,5,français,f,1,0.1,29.14043257,1.20077734
5ba8a047ef181f0001672bc2,49,0,2024-02-24T08:48:13.287Z,french_403.wav,0,pull,1808,30,3,5,français,f,2,0.2,37.28402081,0.75804668
5ba8a047ef181f0001672bc2,49,0,2024-02-24T08:48:13.287Z,french_403.wav,0,pull,1808,30,3,5,français,f,3,0.25666667,-66.4238982,0.86443687
5ba8a047ef181f0001672bc2,50,1,2024-02-24T08:48:13.287Z,french_679.wav,0,pull,2898,30,3,5,français,f,0,0.0,-12.30272173,0.22564891
5ba8a047ef181f0001672bc2,50,1,2024-02-24T08:48:13.287Z,french_679.wav,0,pull,2898,30,3,5,français,f,1,0.1,-25.8054218,0.32954228
5ba8a047ef181f0001672bc2,50,1,2024-02-24T08:48:13.287Z,french_679.wav,0,pull,2898,30,3,5,français,f,2,0.2,-49.36641871,0.69268874
5ba8a047ef181f0001672bc2,50,1,2024-02-24T08:48:13.287Z,french_679.wav,0,pull,2898,30,3,5,français,f,3,0.25666667,3.29240265,1.86334945
5ba8a047ef181f0001672bc2,51,1,2024-02-24T08:48:13.287Z,french_509.wav,0,poule,1039,30,3,5,français,f,0,0.0,98.86127545,0.38470371
5ba8a047ef181f0001672bc2,51,1,2024-02-24T08:48:13.287Z,french_509.wav,0,poule,1039,30,3,5,français,f,1,0.1,-58.47415861,0.77077576
5ba8a047ef181f0001672bc2,51,1,2024-02-24T08:48:13.287Z,french_509.wav,0,poule,1039,30,3,5,français,f,2,0.2,23.95425933,1.30836253
5ba8a047ef181f0001672bc2,51,1,2024-02-24T08:48:13.287Z,french_509.wav,0,poule,1039,30,3,5,français,f,3,0.25666667,74.34097669,1.2187589
5ba8a047ef181f0001672bc2,52,1,2024-02-24T08:48:13.287Z,french_93.wav,0,pull,1085,30,3,5,français,f,0,0.0,23.57211404,0.62732128
5ba8a047ef181f0001672bc2,52,1,2024-02-24T08:48:13.287Z,french_93.wav,0,pull,1085,30,3,5,français,f,1,0.1,-16.15934767,0.10811818
5ba8a047ef181f0001672bc2,52,1,2024-02-24T08:48:13.287Z,french_93.wav,0,pull,1085,30,3,5,français,f,2,0.2,25.54711871,0.30787392
5ba8a047ef181f0001672bc2,52,1,2024-02-24T08:48:13.287Z,french_93.wav,0,pull,1085,30,3,5,français,f,3,0.25666667,65.09284613,1.57978374
5ba8a047ef181f0001672bc2,53,1,2024-02-24T08:48:13.287Z,french_56.wav,0,pull,2717,30,3,5,français,f,0,0.0,-45.81384366,0.89556329
5ba8a047ef181f0001672bc2,53,1,2024-02-24T08:48:13.287Z,french_56.wav,0,pull,2717,30,3,5,français,f,1,0.1,-31.22745768,1.16444889
5ba8a047ef181f0001672bc2,53,1,2024-02-24T08:48:13.287Z,french_56.wav,0,pull,2717,30,3,5,français,f,2,0.2,7.07301694,0.03247946
5ba8a047ef181f0001672bc2,53,1,2024-02-24T08:48:13.287Z,french_56.wav,0,pull,2717,30,3,5,français,f,3,0.25666667,85.51747291,0.10908846
5ba8a047ef181f0001672bc2,54,1,2024-02-24T08:48:13.287Z,french_11.wav,0,poule,741,30,3,5,français,f,0,0.0,-27.01625533,0.65463853
5ba8a047ef181f0001672bc2,54,1,2024-02-24T08:48:13.287Z,french_11.wav,0,poule,741,30,3,5,français,f,1,0.1,30.5454192,0.82547758
5ba8a047ef181f0001672bc2,54,1,2024-02-24T08:48:13.287Z,french_11.wav,0,poule,741,30,3,5,français,f,2,0.2,-10.3355652,1.18020414
5ba8a047ef181f0001672bc2,54,1,2024-02-24T08:48:13.287Z,french_11.wav,0,poule,741,30,3,5,français,f,3,0.25666667,-1.40658107,0.75245655
5ba8a047ef181f0001672bc2,55,1,2024-02-24T08:48:13.287Z,french_946.wav,0,pull,756,30,3,5,français,f,0,0.0,-59.20376503,1.07432488
5ba8a047ef181f0001672bc2,55,1,2024-02-24T08:48:13.287Z,french_946.wav,0,pull,756,30,3,5,français,f,1,0.1,41.31347152,0.26624757
5ba8a047ef181f0001672bc2,55,1,2024-02-24T08:48:13.287Z,french_946.wav,0,pull,756,30,3,5,français,f,2,0.2,-58.18080138,0.53636085
5ba8a047ef181f0001672bc2,55,1,2024-02-24T08:48:13.287Z,french_946.wav,0,pull,756,30,3,5,français,f,3,0.25666667,-28.00273528,1.77786979
5ba8a047ef181f0001672bc2,56,1,2024-02-24T08:48:13.287Z,french_315.wav,0,poule,464,30,3,5,français,f,0,0.0,84.5751695,1.39276289
5ba8a047ef181f0001672bc2,56,1,2024-02-24T08:48:13.287Z,french_315.wav,0,poule,464,30,3,5,français,f,1,0.1,-54.9339599,0.42909402
5ba8a047ef181f0001672bc2,56,1,2024-02-24T08:48:13.287Z,french_315.wav,0,poule,464,30,3,5,français,f,2,0.2,-20.4659381,1.80166787
5ba8a047ef181f0001672bc2,56,1,2024-02-24T08:48:13.287Z,french_315.wav,0,poule,464,30,3,5,français,f,3,0.256666667,0.0497627412,1.01422067
5ba8a047ef181f0001672bc2,57,1,2024-02-24T08:48:13.287Z,french_302.wav,0,poule,760,30,3,5,français,f,0,0.0,8.4067376,0.06791418
5ba8a047ef181f0001672bc2,57,1,2024-02-24T08:48:13.287Z,french_302.wav,0,poule,760,30,3,5,français,f,1,0.1,-29.32780789,1.46578571
5ba8a047ef181f0001672bc2,57,1,2024-02-24T08:48:13.287Z,french_302.wav,0,poule,760,30,3,5,français,f,2,0.2,-43.35590711,1.81098556
5ba8a047ef181f0001672bc2,57,1,2024-02-24T08:48:13.287Z,french_302.wav,0,poule,760,30,3,5,français,f,3,0.25666667,-44.50549756,1.40235265
5ba8a047ef181f0001672bc2,58,1,2024-02-24T08:48:13.287Z,french_132.wav,0,poule,552,30,3,5,français,f,0,0.0,55.7159221,0.1336911
5ba8a047ef181f0001672bc2,58,1,2024-02-24T08:48:13.287Z,french_132.wav,0,poule,552,30,3,5,français,f,1,0.1,96.01047895,1.63690434
5ba8a047ef181f0001672bc2,58,1,2024-02-24T08:48:13.287Z,french_132.wav,0,poule,552,30,3,5,français,f,2,0.2,-30.71931346,0.7825174
5ba8a047ef181f0001672bc2,58,1,2024-02-24T08:48:13.287Z,french_132.wav,0,poule,552,30,3,5,français,f,3,0.25666667,34.53763016,1.49477333
5ba8a047ef181f0001672bc2,59,1,2024-02-24T08:48:13.287Z,french_442.wav,0,pull,517,30,3,5,français,f,0,0.0,60.29330972,0.95088916
5ba8a047ef181f0001672bc2,59,1,2024-02-24T08:48:13.287Z,french_442.wav,0,pull,517,30,3,5,français,f,1,0.1,96.30587546,0.89420653
5ba8a047ef181f0001672bc2,59,1,2024-02-24T08:48:13.287Z,french_442.wav,0,pull,517,30,3,5,français,f,2,0.2,3.75375275,0.09745987
5ba8a047ef181f0001672bc2,59,1,2024-02-24T08:48:13.287Z,french_442.wav,0,pull,517,30,3,5,français,f,3,0.25666667,65.23357012,0.42759775
5ba8a047ef181f0001672bc2,60,1,2024-02-24T08:48:13.287Z,french_973.wav,0,poule,399,30,3,5,français,f,0,0.0,-99.0384004,1.64247416
5ba8a047ef181f0001672bc2,60,1,2024-02-24T08:48:13.287Z,french_973.wav,0,poule,399,30,3,5,français,f,1,0.1,40.13117567,0.98090528
5ba8a047ef181f0001672bc2,60,1,2024-02-24T08:48:13.287Z,french_973.wav,0,poule,399,30,3,5,français,f,2,0.2,49.54188212,1.75566355
5ba8a047ef181f0001672bc2,60,1,2024-02-24T08:48:13.287Z,french_973.wav,0,poule,399,30,3,5,français,f,3,0.25666667,89.60941169,0.64442147
5ba8a047ef181f0001672bc2,61,1,2024-02-24T08:48:13.287Z,french_563.wav,0,poule,507,30,3,5,français,f,0,0.0,1.48089244,0.83142925
5ba8a047ef181f0001672bc2,61,1,2024-02-24T08:48:13.287Z,french_563.wav,0,poule,507,30,3,5,français,f,1,0.1,19.03426996,1.65727988
5ba8a047ef181f0001672bc2,61,1,2024-02-24T08:48:13.287Z,french_563.wav,0,poule,507,30,3,5,français,f,2,0.2,-28.07832236,1.36487064
5ba8a047ef181f0001672bc2,61,1,2024-02-24T08:48:13.287Z,french_563.wav,0,poule,507,30,3,5,français,f,3,0.25666667,33.25369521,0.18463038
5ba8a047ef181f0001672bc2,62,1,2024-02-24T08:48:13.287Z,french_949.wav,0,poule,1358,30,3,5,français,f,0,0.0,29.18752906,0.08608659
5ba8a047ef181f0001672bc2,62,1,2024-02-24T08:48:13.287Z,french_949.wav,0,poule,1358,30,3,5,français,f,1,0.1,-67.27756955,1.93613179
5ba8a047ef181f0001672bc2,62,1,2024-02-24T08:48:13.287Z,french_949.wav,0,poule,1358,30,3,5,français,f,2,0.2,55.26419326,0.81834021
5ba8a047ef181f0001672bc2,62,1,2024-02-24T08:48:13.287Z,french_949.wav,0,poule,1358,30,3,5,français,f,3,0.25666667,11.27327126,0.09029871
5ba8a047ef181f0001672bc2,63,1,2024-02-24T08:48:13.287Z,french_706.wav,0,poule,1434,30,3,5,français,f,0,0.0,53.91986852,0.595313
5ba8a047ef181f0001672bc2,63,1,2024-02-24T08:48:13.287Z,french_706.wav,0,poule,1434,30,3,5,français,f,1,0.1,-86.79287422,0.19033695
5ba8a047ef181f0001672bc2,63,1,2024-02-24T08:48:13.287Z,french_706.wav,0,poule,1434,30,3,5,français,f,2,0.2,-18.13553248,1.2444166
5ba8a047ef181f0001672bc2,63,1,2024-02-24T08:48:13.287Z,french_706.wav,0,poule,1434,30,3,5,français,f,3,0.25666667,-98.41078943,0.51551453
5ba8a047ef181f0001672bc2,64,1,2024-02-24T08:48:13.287Z,french_810.wav,0,poule,1002,30,3,5,français,f,0,0.0,76.35600219,0.51042634
5ba8a047ef181f0001672bc2,64,1,2024-02-24T08:48:13.287Z,french_810.wav,0,poule,1002,30,3,5,français,f,1,0.1,33.05643104,0.40354819
5ba8a047ef181f0001672bc2,64,1,2024-02-24T08:48:13.287Z,french_810.wav,0,poule,1002,30,3,5,français,f,2,0.2,14.69103946,0.8135704
5ba8a047ef181f0001672bc2,64,1,2024-02-24T08:48:13.287Z,french_810.wav,0,poule,1002,30,3,5,français,f,3,0.25666667,-16.26362119,0.38644961
5ba8a047ef181f0001672bc2,65,1,2024-02-24T08:48:13.287Z,french_355.wav,0,pull,732,30,3,5,français,f,0,0.0,-92.75119925,0.18544254
5ba8a047ef181f0001672bc2,65,1,2024-02-24T08:48:13.287Z,french_355.wav,0,pull,732,30,3,5,français,f,1,0.1,77.20775246,0.07031399
5ba8a047ef181f0001672bc2,65,1,2024-02-24T08:48:13.287Z,french_355.wav,0,pull,732,30,3,5,français,f,2,0.2,-51.05688592,0.46666342
5ba8a047ef181f0001672bc2,65,1,2024-02-24T08:48:13.287Z,french_355.wav,0,pull,732,30,3,5,français,f,3,0.25666667,27.03743598,1.78468618
5ba8a047ef181f0001672bc2,66,1,2024-02-24T08:48:13.287Z,french_297.wav,0,poule,538,30,3,5,français,f,0,0.0,66.56614261,0.35086225
5ba8a047ef181f0001672bc2,66,1,2024-02-24T08:48:13.287Z,french_297.wav,0,poule,538,30,3,5,français,f,1,0.1,-3.32812159,1.7876007
5ba8a047ef181f0001672bc2,66,1,2024-02-24T08:48:13.287Z,french_297.wav,0,poule,538,30,3,5,français,f,2,0.2,85.62103424,0.63077709
5ba8a047ef181f0001672bc2,66,1,2024-02-24T08:48:13.287Z,french_297.wav,0,poule,538,30,3,5,français,f,3,0.25666667,92.99895728,0.65985351
5ba8a047ef181f0001672bc2,67,1,2024-02-24T08:48:13.287Z,french_762.wav,0,poule,1412,30,3,5,français,f,0,0.0,-45.61990315,0.95776955
5ba8a047ef181f0001672bc2,67,1,2024-02-24T08:48:13.287Z,french_762.wav,0,poule,1412,30,3,5,français,f,1,0.1,-38.16727298,0.16992331
5ba8a047ef181f0001672bc2,67,1,2024-02-24T08:48:13.287Z,french_762.wav,0,poule,1412,30,3,5,français,f,2,0.2,-15.44626984,1.21301125
5ba8a047ef181f0001672bc2,67,1,2024-02-24T08:48:13.287Z,french_762.wav,0,poule,1412,30,3,5,français,f,3,0.25666667,-31.31206952,0.49399223
5ba8a047ef181f0001672bc2,68,1,2024-02-24T08:48:13.287Z,french_940.wav,0,poule,650,30,3,5,français,f,0,0.0,60.64207397,1.38818271
5ba8a047ef181f0001672bc2,68,1,2024-02-24T08:48:13.287Z,french_940.wav,0,poule,650,30,3,5,français,f,1,0.1,-16.07257124,1.64047706
5ba8a047ef181f0001672bc2,68,1,2024-02-24T08:48:13.287Z,french_940.wav,0,poule,650,30,3,5,français,f,2,0.2,-38.93693506,1.31963125
5ba8a047ef181f0001672bc2,68,1,2024-02-24T08:48:13.287Z,french_940.wav,0,poule,650,30,3,5,français,f,3,0.25666667,-22.19838027,1.73227719
5ba8a047ef181f0001672bc2,69,1,2024-02-24T08:48:13.287Z,french_97.wav,0,pull,763,30,3,5,français,f,0,0.0,-26.25195718,1.78322942
5ba8a047ef181f0001672bc2,69,1,2024-02-24T08:48:13.287Z,french_97.wav,0,pull,763,30,3,5,français,f,1,0.1,46.36733761,0.61428926
5ba8a047ef181f0001672bc2,69,1,2024-02-24T08:48:13.287Z,french_97.wav,0,pull,763,30,3,5,français,f,2,0.2,-70.05850246,0.23760427
5ba8a047ef181f0001672bc2,69,1,2024-02-24T08:48:13.287Z,french_97.wav,0,pull,763,30,3,5,français,f,3,0.25666667,-12.16166803,0.84541126
5ba8a047ef181f0001672bc2,70,1,2024-02-24T08:48:13.287Z,french_831.wav,0,pull,1189,30,3,5,français,f,0,0.0,63.54740934,1.51153345
5ba8a047ef181f0001672bc2,70,1,2024-02-24T08:48:13.287Z,french_831.wav,0,pull,1189,30,3,5,français,f,1,0.1,37.72830153,0.09945987
5ba8a047ef181f0001672bc2,70,1,2024-02-24T08:48:13.287Z,french_831.wav,0,pull,1189,30,3,5,français,f,2,0.2,-3.45882983,0.22010167
5ba8a047ef181f0001672bc2,70,1,2024-02-24T08:48:13.287Z,french_831.wav,0,pull,1189,30,3,5,français,f,3,0.25666667,83.86154552,0.71497999
5ba8a047ef181f0001672bc2,71,1,2024-02-24T08:48:13.287Z,french_187.wav,0,poule,522,30,3,5,français,f,0,0.0,-18.61743148,0.79177474
5ba8a047ef181f0001672bc2,71,1,2024-02-24T08:48:13.287Z,french_187.wav,0,poule,522,30,3,5,français,f,1,0.1,27.93687652,0.90472294
5ba8a047ef181f0001672bc2,71,1,2024-02-24T08:48:13.287Z,french_187.wav,0,poule,522,30,3,5,français,f,2,0.2,6.26647606,1.3885115
5ba8a047ef181f0001672bc2,71,1,2024-02-24T08:48:13.287Z,french_187.wav,0,poule,522,30,3,5,français,f,3,0.25666667,58.88972832,1.88547829
5ba8a047ef181f0001672bc2,72,1,2024-02-24T08:48:13.287Z,french_968.wav,0,poule,893,30,3,5,français,f,0,0.0,45.43845159,0.89884875
5ba8a047ef181f0001672bc2,72,1,2024-02-24T08:48:13.287Z,french_968.wav,0,poule,893,30,3,5,français,f,1,0.1,86.71618344,1.25950681
5ba8a047ef181f0001672bc2,72,1,2024-02-24T08:48:13.287Z,french_968.wav,0,poule,893,30,3,5,français,f,2,0.2,-29.06718199,0.29298434
5ba8a047ef181f0001672bc2,72,1,2024-02-24T08:48:13.287Z,french_968.wav,0,poule,893,30,3,5,français,f,3,0.25666667,11.394495,1.98021593
5ba8a047ef181f0001672bc2,73,1,2024-02-24T08:48:13.287Z,french_992.wav,0,poule,614,30,3,5,français,f,0,0.0,88.64163737,1.670281
5ba8a047ef181f0001672bc2,73,1,2024-02-24T08:48:13.287Z,french_992.wav,0,poule,614,30,3,5,français,f,1,0.1,46.51622821,0.7447474
5ba8a047ef181f0001672bc2,73,1,2024-02-24T08:48:13.287Z,french_992.wav,0,poule,614,30,3,5,français,f,2,0.2,89.40723484,0.87778012
5ba8a047ef181f0001672bc2,73,1,2024-02-24T08:48:13.287Z,french_992.wav,0,poule,614,30,3,5,français,f,3,0.25666667,-7.16948766,1.06303204
5ba8a047ef181f0001672bc2,74,1,2024-02-24T08:48:13.287Z,french_86.wav,0,poule,980,30,3,5,français,f,0,0.0,-13.34839912,1.5394535
5ba8a047ef181f0001672bc2,74,1,2024-02-24T08:48:13.287Z,french_86.wav,0,poule,980,30,3,5,français,f,1,0.1,-0.15074382,0.88064418
5ba8a047ef181f0001672bc2,74,1,2024-02-24T08:48:13.287Z,french_86.wav,0,poule,980,30,3,5,français,f,2,0.2,25.45831569,1.66652907
5ba8a047ef181f0001672bc2,74,1,2024-02-24T08:48:13.287Z,french_86.wav,0,poule,980,30,3,5,français,f,3,0.25666667,48.27326553,0.20293469
5ba8a047ef181f0001672bc2,75,1,2024-02-24T08:48:13.287Z,french_39.wav,0,poule,542,30,3,5,français,f,0,0.0,-37.58690814,0.69509593
5ba8a047ef181f0001672bc2,75,1,2024-02-24T08:48:13.287Z,french_39.wav,0,poule,542,30,3,5,français,f,1,0.1,64.36969435,0.9899387
5ba8a047ef181f0001672bc2,75,1,2024-02-24T08:48:13.287Z,french_39.wav,0,poule,542,30,3,5,français,f,2,0.2,-16.17747505,1.54991446
5ba8a047ef181f0001672bc2,75,1,2024-02-24T08:48:13.287Z,french_39.wav,0,poule,542,30,3,5,français,f,3,0.25666667,-31.52468705,1.42558302
5ba8a047ef181f0001672bc2,76,1,2024-02-24T08:48:13.287Z,french_573.wav,0,poule,702,30,3,5,français,f,0,0.0,-82.60587544,1.7811252
5ba8a047ef181f0001672bc2,76,1,2024-02-24T08:48:13.287Z,french_573.wav,0,poule,702,30,3,5,français,f,1,0.1,24.10475325,1.67511136
5ba8a047ef181f0001672bc2,76,1,2024-02-24T08:48:13.287Z,french_573.wav,0,poule,702,30,3,5,français,f,2,0.2,12.83458345,1.07369657
5ba8a047ef181f0001672bc2,76,1,2024-02-24T08:48:13.287Z,french_573.wav,0,poule,702,30,3,5,français,f,3,0.25666667,-92.36985106,0.78659629
5ba8a047ef181f0001672bc2,77,1,2024-02-24T08:48:13.287Z,french_483.wav,0,pull,918,30,3,5,français,f,0,0.0,97.94153635,0.77689604
5ba8a047ef181f0001672bc2,77,1,2024-02-24T08:48:13.287Z,french_483.wav,0,pull,918,30,3,5,français,f,1,0.1,11.27160269,0.07842581
5ba8a047ef181f0001672bc2,77,1,2024-02-24T08:48:13.287Z,french_483.wav,0,pull,918,30,3,5,français,f,2,0.2,92.4188156,1.30147174
5ba8a047ef181f0001672bc2,77,1,2024-02-24T08:48:13.287Z,french_483.wav,0,pull,918,30,3,5,français,f,3,0.25666667,46.65552131,0.73281584
5ba8a047ef181f0001672bc2,78,1,2024-02-24T08:48:13.287Z,french_81.wav,0,poule,422,30,3,5,français,f,0,0.0,43.03410676,0.84411959
5ba8a047ef181f0001672bc2,78,1,2024-02-24T08:48:13.287Z,french_81.wav,0,poule,422,30,3,5,français,f,1,0.1,37.87573495,1.10924478
5ba8a047ef181f0001672bc2,78,1,2024-02-24T08:48:13.287Z,french_81.wav,0,poule,422,30,3,5,français,f,2,0.2,-9.17332854,1.82652056
5ba8a047ef181f0001672bc2,78,1,2024-02-24T08:48:13.287Z,french_81.wav,0,poule,422,30,3,5,français,f,3,0.25666667,10.13667473,1.52638082
5ba8a047ef181f0001672bc2,79,1,2024-02-24T08:48:13.287Z,french_818.wav,0,poule,347,30,3,5,français,f,0,0.0,-26.74770248,1.09674102
5ba8a047ef181f0001672bc2,79,1,2024-02-24T08:48:13.287Z,french_818.wav,0,poule,347,30,3,5,français,f,1,0.1,-33.54864391,0.98606035
5ba8a047ef181f0001672bc2,79,1,2024-02-24T08:48:13.287Z,french_818.wav,0,poule,347,30,3,5,français,f,2,0.2,-23.72939517,1.86933067
5ba8a047ef181f0001672bc2,79,1,2024-02-24T08:48:13.287Z,french_818.wav,0,poule,347,30,3,5,français,f,3,0.25666667,53.93300908,0.6204836
5ba8a047ef181f0001672bc2,80,1,2024-02-24T08:48:13.287Z,french_821.wav,0,pull,861,30,3,5,français,f,0,0.0,70.15336782,1.4099425
5ba8a047ef181f0001672bc2,80,1,2024-02-24T08:48:13.287Z,french_821.wav,0,pull,861,30,3,5,français,f,1,0.1,-1.11865535,1.36643738
5ba8a047ef181f0001672bc2,80,1,2024-02-24T08:48:13.287Z,french_821.wav,0,pull,861,30,3,5,français,f,2,0.2,-91.54006312,0.06599991
5ba8a047ef181f0001672bc2,80,1,2024-02-24T08:48:13.287Z,french_821.wav,0,pull,861,30,3,5,français,f,3,0.25666667,24.13643902,1.20854405
5ba8a047ef181f0001672bc2,81,1,2024-02-24T08:48:13.287Z,french_29.wav,0,poule,738,30,3,5,français,f,0,0.0,82.92052959,1.65542147
5ba8a047ef181f0001672bc2,81,1,2024-02-24T08:48:13.287Z,french_29.wav,0,poule,738,30,3,5,français,f,1,0.1,96.5660735,0.71189304
5ba8a047ef181f0001672bc2,81,1,2024-02-24T08:48:13.287Z,french_29.wav,0,poule,738,30,3,5,français,f,2,0.2,76.1539425,0.4523944
5ba8a047ef181f0001672bc2,81,1,2024-02-24T08:48:13.287Z,french_29.wav,0,poule,738,30,3,5,français,f,3,0.25666667,-7.00195585,1.32757755
5ba8a047ef181f0001672bc2,82,1,2024-02-24T08:48:13.287Z,french_502.wav,0,poule,605,30,3,5,français,f,0,0.0,-20.79410197,1.55473715
5ba8a047ef181f0001672bc2,82,1,2024-02-24T08:48:13.287Z,french_502.wav,0,poule,605,30,3,5,français,f,1,0.1,-29.31354171,0.75660833
5ba8a047ef181f0001672bc2,82,1,2024-02-24T08:48:13.287Z,french_502.wav,0,poule,605,30,3,5,français,f,2,0.2,66.76157716,1.40053341
5ba8a047ef181f0001672bc2,82,1,2024-02-24T08:48:13.287Z,french_502.wav,0,poule,605,30,3,5,français,f,3,0.25666667,63.6653431,1.0602207
5ba8a047ef181f0001672bc2,83,1,2024-02-24T08:48:13.287Z,french_869.wav,0,poule,922,30,3,5,français,f,0,0.0,-95.34423084,1.39498671
5ba8a047ef181f0001672bc2,83,1,2024-02-24T08:48:13.287Z,french_869.wav,0,poule,922,30,3,5,français,f,1,0.1,11.03315758,1.3153684
5ba8a047ef181f0001672bc2,83,1,2024-02-24T08:48:13.287Z,french_869.wav,0,poule,922,30,3,5,français,f,2,0.2,2.57990287,1.42717997
5ba8a047ef181f0001672bc2,83,1,2024-02-24T08:48:13.287Z,french_869.wav,0,poule,922,30,3,5,français,f,3,0.25666667,46.09103516,1.20642508
5ba8a047ef181f0001672bc2,84,1,2024-02-24T08:48:13.287Z,french_245.wav,0,poule,423,30,3,5,français,f,0,0.0,-61.74573417,0.99313774
5ba8a047ef181f0001672bc2,84,1,2024-02-24T08:48:13.287Z,french_245.wav,0,poule,423,30,3,5,français,f,1,0.1,71.88692077,1.19752892
5ba8a047ef181f0001672bc2,84,1,2024-02-24T08:48:13.287Z,french_245.wav,0,poule,423,30,3,5,français,f,2,0.2,-28.60272728,1.585112
5ba8a047ef181f0001672bc2,84,1,2024-02-24T08:48:13.287Z,french_245.wav,0,poule,423,30,3,5,français,f,3,0.25666667,-6.96353839,1.16753586
5ba8a047ef181f0001672bc2,85,1,2024-02-24T08:48:13.287Z,french_543.wav,0,poule,1030,30,3,5,français,f,0,0.0,99.95964938,0.10365101
5ba8a047ef181f0001672bc2,85,1,2024-02-24T08:48:13.287Z,french_543.wav,0,poule,1030,30,3,5,français,f,1,0.1,62.1224346,1.02026934
5ba8a047ef181f0001672bc2,85,1,2024-02-24T08:48:13.287Z,french_543.wav,0,poule,1030,30,3,5,français,f,2,0.2,-10.06540024,0.56488883
5ba8a047ef181f0001672bc2,85,1,2024-02-24T08:48:13.287Z,french_543.wav,0,poule,1030,30,3,5,français,f,3,0.25666667,-5.35888672,0.3884986
5ba8a047ef181f0001672bc2,86,1,2024-02-24T08:48:13.287Z,french_583.wav,0,poule,560,30,3,5,français,f,0,0.0,54.77106994,0.72700192
5ba8a047ef181f0001672bc2,86,1,2024-02-24T08:48:13.287Z,french_583.wav,0,poule,560,30,3,5,français,f,1,0.1,-91.79725644,1.43459804
5ba8a047ef181f0001672bc2,86,1,2024-02-24T08:48:13.287Z,french_583.wav,0,poule,560,30,3,5,français,f,2,0.2,19.12152033,0.59283069
5ba8a047ef181f0001672bc2,86,1,2024-02-24T08:48:13.287Z,french_583.wav,0,poule,560,30,3,5,français,f,3,0.25666667,80.05255959,1.58166394
5ba8a047ef181f0001672bc2,87,1,2024-02-24T08:48:13.287Z,french_140.wav,0,pull,1169,30,3,5,français,f,0,0.0,88.20971648,1.40468934
5ba8a047ef181f0001672bc2,87,1,2024-02-24T08:48:13.287Z,french_140.wav,0,pull,1169,30,3,5,français,f,1,0.1,-47.21457526,0.07517377
5ba8a047ef181f0001672bc2,87,1,2024-02-24T08:48:13.287Z,french_140.wav,0,pull,1169,30,3,5,français,f,2,0.2,-33.13299566,0.96987146
5ba8a047ef181f0001672bc2,87,1,2024-02-24T08:48:13.287Z,french_140.wav,0,pull,1169,30,3,5,français,f,3,0.25666667,6.89149494,0.45515396
5ba8a047ef181f0001672bc2,88,1,2024-02-24T08:48:13.287Z,french_51.wav,0,pull,525,30,3,5,français,f,0,0.0,47.2980437,1.21993379
5ba8a047ef181f0001672bc2,88,1,2024-02-24T08:48:13.287Z,french_51.wav,0,pull,525,30,3,5,français,f,1,0.1,-20.71065167,0.59290242
5ba8a047ef181f0001672bc2,88,1,2024-02-24T08:48:13.287Z,french_51.wav,0,pull,525,30,3,5,français,f,2,0.2,-59.15578969,0.43795747
5ba8a047ef181f0001672bc2,88,1,2024-02-24T08:48:13.287Z,french_51.wav,0,pull,525,30,3,5,français,f,3,0.25666667,47.97190204,1.09780803
5ba8a047ef181f0001672bc2,89,1,2024-02-24T08:48:13.287Z,french_211.wav,0,poule,510,30,3,5,français,f,0,0.0,26.09911827,0.38797522
5ba8a047ef181f0001672bc2,89,1,2024-02-24T08:48:13.287Z,french_211.wav,0,poule,510,30,3,5,français,f,1,0.1,37.88219535,0.97106999
5ba8a047ef181f0001672bc2,89,1,2024-02-24T08:48:13.287Z,french_211.wav,0,poule,510,30,3,5,français,f,2,0.2,25.3370042,0.82384696
5ba8a047ef181f0001672bc2,89,1,2024-02-24T08:48:13.287Z,french_211.wav,0,poule,510,30,3,5,français,f,3,0.25666667,-31.50750366,0.88987221
5ba8a047ef181f0001672bc2,90,1,2024-02-24T08:48:13.287Z,french_680.wav,0,poule,369,30,3,5,français,f,0,0.0,-51.31535201,1.24719536
5ba8a047ef181f0001672bc2,90,1,2024-02-24T08:48:13.287Z,french_680.wav,0,poule,369,30,3,5,français,f,1,0.1,-31.64171723,1.74184859
5ba8a047ef181f0001672bc2,90,1,2024-02-24T08:48:13.287Z,french_680.wav,0,poule,369,30,3,5,français,f,2,0.2,81.67923452,0.78878625
5ba8a047ef181f0001672bc2,90,1,2024-02-24T08:48:13.287Z,french_680.wav,0,poule,369,30,3,5,français,f,3,0.25666667,54.52860803,1.82878415
5ba8a047ef181f0001672bc2,91,1,2024-02-24T08:48:13.287Z,french_7.wav,0,poule,361,30,3,5,français,f,0,0.0,-71.02833311,1.79953402
5ba8a047ef181f0001672bc2,91,1,2024-02-24T08:48:13.287Z,french_7.wav,0,poule,361,30,3,5,français,f,1,0.1,-12.38691322,1.89065694
5ba8a047ef181f0001672bc2,91,1,2024-02-24T08:48:13.287Z,french_7.wav,0,poule,361,30,3,5,français,f,2,0.2,-62.8930846,0.59849277
5ba8a047ef181f0001672bc2,91,1,2024-02-24T08:48:13.287Z,french_7.wav,0,poule,361,30,3,5,français,f,3,0.25666667,27.53159518,0.94237915
5ba8a047ef181f0001672bc2,92,1,2024-02-24T08:48:13.287Z,french_251.wav,0,poule,1279,30,3,5,français,f,0,0.0,24.13853868,0.84222584
5ba8a047ef181f0001672bc2,92,1,2024-02-24T08:48:13.287Z,french_251.wav,0,poule,1279,30,3,5,français,f,1,0.1,69.59392202,0.35569373
5ba8a047ef181f0001672bc2,92,1,2024-02-24T08:48:13.287Z,french_251.wav,0,poule,1279,30,3,5,français,f,2,0.2,5.2598313,1.18426262
5ba8a047ef181f0001672bc2,92,1,2024-02-24T08:48:13.287Z,french_251.wav,0,poule,1279,30,3,5,français,f,3,0.25666667,49.58604743,1.47594706
5ba8a047ef181f0001672bc2,93,1,2024-02-24T08:48:13.287Z,french_836.wav,0,poule,1267,30,3,5,français,f,0,0.0,40.23641464,0.42377088
5ba8a047ef181f0001672bc2,93,1,2024-02-24T08:48:13.287Z,french_836.wav,0,poule,1267,30,3,5,français,f,1,0.1,53.79535187,0.63943013
5ba8a047ef181f0001672bc2,93,1,2024-02-24T08:48:13.287Z,french_836.wav,0,poule,1267,30,3,5,français,f,2,0.2,-4.0789246,1.19242466
5ba8a047ef181f0001672bc2,93,1,2024-02-24T08:48:13.287Z,french_836.wav,0,poule,1267,30,3,5,français,f,3,0.25666667,3.8536211,1.488673
5ba8a047ef181f0001672bc2,94,1,2024-02-24T08:48:13.287Z,french_441.wav,0,poule,533,30,3,5,français,f,0,0.0,-52.65918707,0.98643262
5ba8a047ef181f0001672bc2,94,1,2024-02-24T08:48:13.287Z,french_441.wav,0,poule,533,30,3,5,français,f,1,0.1,-61.65013116,1.35237654
5ba8a047ef181f0001672bc2,94,1,2024-02-24T08:48:13.287Z,french_441.wav,0,poule,533,30,3,5,français,f,2,0.2,34.26317373,1.5364694
5ba8a047ef181f0001672bc2,94,1,2024-02-24T08:48:13.287Z,french_441.wav,0,poule,533,30,3,5,français,f,3,0.25666667,30.98760828,1.29655121
5ba8a047ef181f0001672bc2,95,1,2024-02-24T08:48:13.287Z,french_371.wav,0,poule,549,30,3,5,français,f,0,0.0,31.80119749,0.65227963
5ba8a047ef181f0001672bc2,95,1,2024-02-24T08:48:13.287Z,french_371.wav,0,poule,549,30,3,5,français,f,1,0.1,-38.52135119,1.80763105
5ba8a047ef181f0001672bc2,95,1,2024-02-24T08:48:13.287Z,french_371.wav,0,poule,549,30,3,5,français,f,2,0.2,9.85895876,1.44692227
5ba8a047ef181f0001672bc2,95,1,2024-02-24T08:48:13.287Z,french_371.wav,0,poule,549,30,3,5,français,f,3,0.25666667,79.11511398,1.12716888
5ba8a047ef181f0001672bc2,96,1,2024-02-24T08:48:13.287Z,french_975.wav,0,pull,9134,30,3,5,français,f,0,0.0,-26.92402708,1.54282139
5ba8a047ef181f0001672bc2,96,1,2024-02-24T08:48:13.287Z,french_975.wav,0,pull,9134,30,3,5,français,f,1,0.1,-12.18779535,0.57018571
5ba8a047ef181f0001672bc2,96,1,2024-02-24T08:48:13.287Z,french_975.wav,0,pull,9134,30,3,5,français,f,2,0.2,-49.74503626,1.72772198
5ba8a047ef181f0001672bc2,96,1,2024-02-24T08:48:13.287Z,french_975.wav,0,pull,9134,30,3,5,français,f,3,0.25666667,48.08434321,1.83415107
5ba8a047ef181f0001672bc2,97,1,2024-02-24T08:48:13.287Z,french_471.wav,0,poule,1937,30,3,5,français,f,0,0.0,35.47460752,0.77553755
5ba8a047ef181f0001672bc2,97,1,2024-02-24T08:48:13.287Z,french_471.wav,0,poule,1937,30,3,5,français,f,1,0.1,-49.00208302,1.38730058
5ba8a047ef181f0001672bc2,97,1,2024-02-24T08:48:13.287Z,french_471.wav,0,poule,1937,30,3,5,français,f,2,0.2,47.17677121,0.98156507
5ba8a047ef181f0001672bc2,97,1,2024-02-24T08:48:13.287Z,french_471.wav,0,poule,1937,30,3,5,français,f,3,0.25666667,64.34433074,0.66404961
5ba8a047ef181f0001672bc2,98,1,2024-02-24T08:48:13.287Z,french_8.wav,0,poule,1206,30,3,5,français,f,0,0.0,75.36204911,1.20802323
5ba8a047ef181f0001672bc2,98,1,2024-02-24T08:48:13.287Z,french_8.wav,0,poule,1206,30,3,5,français,f,1,0.1,99.77980072,1.04694521
5ba8a047ef181f0001672bc2,98,1,2024-02-24T08:48:13.287Z,french_8.wav,0,poule,1206,30,3,5,français,f,2,0.2,31.87407215,1.95307637
5ba8a047ef181f0001672bc2,98,1,2024-02-24T08:48:13.287Z,french_8.wav,0,poule,1206,30,3,5,français,f,3,0.25666667,-3.14162979,0.34441347
5ba8a047ef181f0001672bc2,99,1,2024-02-24T08:48:13.287Z,french_199.wav,0,poule,339,30,3,5,français,f,0,0.0,-60.03977098,1.87963745
5ba8a047ef181f0001672bc2,99,1,2024-02-24T08:48:13.287Z,french_199.wav,0,poule,339,30,3,5,français,f,1,0.1,7.3213083,1.19076365
5ba8a047ef181f0001672bc2,99,1,2024-02-24T08:48:13.287Z,french_199.wav,0,poule,339,30,3,5,français,f,2,0.2,-32.97621994,1.00205813
5ba8a047ef181f0001672bc2,99,1,2024-02-24T08:48:13.287Z,french_199.wav,0,poule,339,30,3,5,français,f,3,0.25666667,90.87482197,1.05600478
5ba8a047ef181f0001672bc2,100,2,2024-02-24T08:48:13.287Z,french_844.wav,0,pull,855,30,3,5,français,f,0,0.0,29.77319266,0.89130203
5ba8a047ef181f0001672bc2,100,2,2024-02-24T08:48:13.287Z,french_844.wav,0,pull,855,30,3,5,français,f,1,0.1,-6.65775534,0.41170989
5ba8a047ef181f0001672bc2,100,2,2024-02-24T08:48:13.287Z,french_844.wav,0,pull,855,30,3,5,français,f,2,0.2,88.70188171,0.96705276
5ba8a047ef181f0001672bc2,100,2,2024-02-24T08:48:13.287Z,french_844.wav,0,pull,855,30,3,5,français,f,3,0.25666667,-96.32304745,0.58258054
5ba8a047ef181f0001672bc2,101,2,2024-02-24T08:48:13.287Z,french_894.wav,0,poule,1362,30,3,5,français,f,0,0.0,34.15690998,0.96571794
5ba8a047ef181f0001672bc2,101,2,2024-02-24T08:48:13.287Z,french_894.wav,0,poule,1362,30,3,5,français,f,1,0.1,66.60232679,0.73360337
5ba8a047ef181f0001672bc2,101,2,2024-02-24T08:48:13.287Z,french_894.wav,0,poule,1362,30,3,5,français,f,2,0.2,79.95982278,1.43440198
5ba8a047ef181f0001672bc2,101,2,2024-02-24T08:48:13.287Z,french_894.wav,0,poule,1362,30,3,5,français,f,3,0.25666667,-20.39269858,0.64269279
5ba8a047ef181f0001672bc2,102,2,2024-02-24T08:48:13.287Z,french_769.wav,0,poule,568,30,3,5,français,f,0,0.0,78.39802529,0.31346408
5ba8a047ef181f0001672bc2,102,2,2024-02-24T08:48:13.287Z,french_769.wav,0,poule,568,30,3,5,français,f,1,0.1,98.35868913,0.8359084
5ba8a047ef181f0001672bc2,102,2,2024-02-24T08:48:13.287Z,french_769.wav,0,poule,568,30,3,5,français,f,2,0.2,-63.4251983,1.75433615
5ba8a047ef181f0001672bc2,102,2,2024-02-24T08:48:13.287Z,french_769.wav,0,poule,568,30,3,5,français,f,3,0.25666667,-17.35256236,0.30245362
5ba8a047ef181f0001672bc2,103,2,2024-02-24T08:48:13.287Z,french_389.wav,0,poule,415,30,3,5,français,f,0,0.0,69.62296415,1.67675408
5ba8a047ef181f0001672bc2,103,2,2024-02-24T08:48:13.287Z,french_389.wav,0,poule,415,30,3,5,français,f,1,0.1,-41.49433877,1.60540147
5ba8a047ef181f0001672bc2,103,2,2024-02-24T08:48:13.287Z,french_389.wav,0,poule,415,30,3,5,français,f,2,0.2,-65.025051,0.45817867
5ba8a047ef181f0001672bc2,103,2,2024-02-24T08:48:13.287Z,french_389.wav,0,poule,415,30,3,5,français,f,3,0.25666667,10.9117334,1.10562968
5ba8a047ef181f0001672bc2,104,2,2024-02-24T08:48:13.287Z,french_230.wav,0,poule,955,30,3,5,français,f,0,0.0,-41.35992563,1.74508263
5ba8a047ef181f0001672bc2,104,2,2024-02-24T08:48:13.287Z,french_230.wav,0,poule,955,30,3,5,français,f,1,0.1,43.67449439,0.13993269
5ba8a047ef181f0001672bc2,104,2,2024-02-24T08:48:13.287Z,french_230.wav,0,poule,955,30,3,5,français,f,2,0.2,25.98311508,0.94473259
5ba8a047ef181f0001672bc2,104,2,2024-02-24T08:48:13.287Z,french_230.wav,0,poule,955,30,3,5,français,f,3,0.25666667,-21.63443629,1.52757814
5ba8a047ef181f0001672bc2,105,2,2024-02-24T08:48:13.287Z,french_416.wav,0,poule,1805,30,3,5,français,f,0,0.0,27.68943274,1.77963231
5ba8a047ef181f0001672bc2,105,2,2024-02-24T08:48:13.287Z,french_416.wav,0,poule,1805,30,3,5,français,f,1,0.1,-10.10461599,1.68240888
5ba8a047ef181f0001672bc2,105,2,2024-02-24T08:48:13.287Z,french_416.wav,0,poule,1805,30,3,5,français,f,2,0.2,24.64183683,1.38997073
5ba8a047ef181f0001672bc2,105,2,2024-02-24T08:48:13.287Z,french_416.wav,0,poule,1805,30,3,5,français,f,3,0.25666667,96.08137129,0.64151937
5ba8a047ef181f0001672bc2,106,2,2024-02-24T08:48:13.287Z,french_175.wav,0,pull,1817,30,3,5,français,f,0,0.0,-66.64800697,0.89831181
5ba8a047ef181f0001672bc2,106,2,2024-02-24T08:48:13.287Z,french_175.wav,0,pull,1817,30,3,5,français,f,1,0.1,55.8136762,1.16054297
5ba8a047ef181f0001672bc2,106,2,2024-02-24T08:48:13.287Z,french_175.wav,0,pull,1817,30,3,5,français,f,2,0.2,13.86880033,0.04267506
5ba8a047ef181f0001672bc2,106,2,2024-02-24T08:48:13.287Z,french_175.wav,0,pull,1817,30,3,5,français,f,3,0.25666667,79.77573594,1.48091244
5ba8a047ef181f0001672bc2,107,2,2024-02-24T08:48:13.287Z,french_85.wav,0,poule,634,30,3,5,français,f,0,0.0,8.05629124,0.15740805
5ba8a047ef181f0001672bc2,107,2,2024-02-24T08:48:13.287Z,french_85.wav,0,poule,634,30,3,5,français,f,1,0.1,-30.28403137,1.38994818
5ba8a047ef181f0001672bc2,107,2,2024-02-24T08:48:13.287Z,french_85.wav,0,poule,634,30,3,5,français,f,2,0.2,-73.3047666,0.58823714
5ba8a047ef181f0001672bc2,107,2,2024-02-24T08:48:13.287Z,french_85.wav,0,poule,634,30,3,5,français,f,3,0.25666667,49.81841991,0.54603307
5ba8a047ef181f0001672bc2,108,2,2024-02-24T08:48:13.287Z,french_228.wav,0,pull,2227,30,3,5,français,f,0,0.0,-13.78258648,1.36655769
5ba8a047ef181f0001672bc2,108,2,2024-02-24T08:48:13.287Z,french_228.wav,0,pull,2227,30,3,5,français,f,1,0.1,27.88870681,1.56643938
5ba8a047ef181f0001672bc2,108,2,2024-02-24T08:48:13.287Z,french_228.wav,0,pull,2227,30,3,5,français,f,2,0.2,-8.73674486,0.29403468
5ba8a047ef181f0001672bc2,108,2,2024-02-24T08:48:13.287Z,french_228.wav,0,pull,2227,30,3,5,français,f,3,0.25666667,-13.88179653,0.32348249
5ba8a047ef181f0001672bc2,109,2,2024-02-24T08:48:13.287Z,french_596.wav,0,poule,564,30,3,5,français,f,0,0.0,-19.67623174,1.19630482
5ba8a047ef181f0001672bc2,109,2,2024-02-24T08:48:13.287Z,french_596.wav,0,poule,564,30,3,5,français,f,1,0.1,5.02630097,1.45796377
5ba8a047ef181f0001672bc2,109,2,2024-02-24T08:48:13.287Z,french_596.wav,0,poule,564,30,3,5,français,f,2,0.2,17.71933024,1.33112957
5ba8a047ef181f0001672bc2,109,2,2024-02-24T08:48:13.287Z,french_596.wav,0,poule,564,30,3,5,français,f,3,0.25666667,-99.90911374,0.42422988
5ba8a047ef181f0001672bc2,110,2,2024-02-24T08:48:13.287Z,french_843.wav,0,poule,361,30,3,5,français,f,0,0.0,13.6803361,0.65425976
5ba8a047ef181f0001672bc2,110,2,2024-02-24T08:48:13.287Z,french_843.wav,0,poule,361,30,3,5,français,f,1,0.1,92.02668438,1.47814853
5ba8a047ef181f0001672bc2,110,2,2024-02-24T08:48:13.287Z,french_843.wav,0,poule,361,30,3,5,français,f,2,0.2,-93.52604538,0.78236369
5ba8a047ef181f0001672bc2,110,2,2024-02-24T08:48:13.287Z,french_843.wav,0,poule,361,30,3,5,français,f,3,0.25666667,-12.7136852,0.52413001
5ba8a047ef181f0001672bc2,111,2,2024-02-24T08:48:13.287Z,french_284.wav,0,poule,1370,30,3,5,français,f,0,0.0,9.11616736,0.794635
5ba8a047ef181f0001672bc2,111,2,2024-02-24T08:48:13.287Z,french_284.wav,0,poule,1370,30,3,5,français,f,1,0.1,1.28278273,0.64071903
5ba8a047ef181f0001672bc2,111,2,2024-02-24T08:48:13.287Z,french_284.wav,0,poule,1370,30,3,5,français,f,2,0.2,64.48623036,0.85736223
5ba8a047ef181f0001672bc2,111,2,2024-02-24T08:48:13.287Z,french_284.wav,0,poule,1370,30,3,5,français,f,3,0.25666667,-18.83957989,1.30798049
5ba8a047ef181f0001672bc2,112,2,2024-02-24T08:48:13.287Z,french_526.wav,0,poule,443,30,3,5,français,f,0,0.0,88.08406442,1.10890049
5ba8a047ef181f0001672bc2,112,2,2024-02-24T08:48:13.287Z,french_526.wav,0,poule,443,30,3,5,français,f,1,0.1,34.72799638,1.05741796
5ba8a047ef181f0001672bc2,112,2,2024-02-24T08:48:13.287Z,french_526.wav,0,poule,443,30,3,5,français,f,2,0.2,4.2178472,1.4706377
5ba8a047ef181f0001672bc2,112,2,2024-02-24T08:48:13.287Z,french_526.wav,0,poule,443,30,3,5,français,f,3,0.25666667,90.74946068,0.12061003
5ba8a047ef181f0001672bc2,113,2,2024-02-24T08:48:13.287Z,french_445.wav,0,poule,675,30,3,5,français,f,0,0.0,8.73559539,0.8054478
5ba8a047ef181f0001672bc2,113,2,2024-02-24T08:48:13.287Z,french_445.wav,0,poule,675,30,3,5,français,f,1,0.1,-22.15313252,1.73211315
5ba8a047ef181f0001672bc2,113,2,2024-02-24T08:48:13.287Z,french_445.wav,0,poule,675,30,3,5,français,f,2,0.2,26.0955013,0.21896619
5ba8a047ef181f0001672bc2,113,2,2024-02-24T08:48:13.287Z,french_445.wav,0,poule,675,30,3,5,français,f,3,0.25666667,22.70157082,0.54256666
5ba8a047ef181f0001672bc2,114,2,2024-02-24T08:48:13.287Z,french_405.wav,0,poule,1638,30,3,5,français,f,0,0.0,52.22885858,0.59532017
5ba8a047ef181f0001672bc2,114,2,2024-02-24T08:48:13.287Z,french_405.wav,0,poule,1638,30,3,5,français,f,1,0.1,18.90294402,0.31881138
5ba8a047ef181f0001672bc2,114,2,2024-02-24T08:48:13.287Z,french_405.wav,0,poule,1638,30,3,5,français,f,2,0.2,-84.01769715,1.18035169
5ba8a047ef181f0001672bc2,114,2,2024-02-24T08:48:13.287Z,french_405.wav,0,poule,1638,30,3,5,français,f,3,0.25666667,95.02638452,0.2814716
5ba8a047ef181f0001672bc2,115,2,2024-02-24T08:48:13.287Z,french_905.wav,0,pull,536,30,3,5,français,f,0,0.0,87.86620346,1.28585996
5ba8a047ef181f0001672bc2,115,2,2024-02-24T08:48:13.287Z,french_905.wav,0,pull,536,30,3,5,français,f,1,0.1,17.88859649,0.57714405
5ba8a047ef181f0001672bc2,115,2,2024-02-24T08:48:13.287Z,french_905.wav,0,pull,536,30,3,5,français,f,2,0.2,51.58456374,0.3219524
5ba8a047ef181f0001672bc2,115,2,2024-02-24T08:48:13.287Z,french_905.wav,0,pull,536,30,3,5,français,f,3,0.25666667,-98.76806622,1.69480445
5ba8a047ef181f0001672bc2,116,2,2024-02-24T08:48:13.287Z,french_98.wav,0,pull,619,30,3,5,français,f,0,0.0,-5.34356544,0.47275823
5ba8a047ef181f0001672bc2,116,2,2024-02-24T08:48:13.287Z,french_98.wav,0,pull,619,30,3,5,français,f,1,0.1,-51.77157259,0.98771666
5ba8a047ef181f0001672bc2,116,2,2024-02-24T08:48:13.287Z,french_98.wav,0,pull,619,30,3,5,français,f,2,0.2,16.6615471,0.01400035
5ba8a047ef181f0001672bc2,116,2,2024-02-24T08:48:13.287Z,french_98.wav,0,pull,619,30,3,5,français,f,3,0.25666667,-37.68560636,0.42827786
5ba8a047ef181f0001672bc2,117,2,2024-02-24T08:48:13.287Z,french_229.wav,0,pull,611,30,3,5,français,f,0,0.0,17.32899675,0.73401758
5ba8a047ef181f0001672bc2,117,2,2024-02-24T08:48:13.287Z,french_229.wav,0,pull,611,30,3,5,français,f,1,0.1,-73.09434366,0.90990932
5ba8a047ef181f0001672bc2,117,2,2024-02-24T08:48:13.287Z,french_229.wav,0,pull,611,30,3,5,français,f,2,0.2,-24.47190501,0.8791544
5ba8a047ef181f0001672bc2,117,2,2024-02-24T08:48:13.287Z,french_229.wav,0,pull,611,30,3,5,français,f,3,0.25666667,11.45282545,1.1872524
5ba8a047ef181f0001672bc2,118,2,2024-02-24T08:48:13.287Z,french_764.wav,0,poule,380,30,3,5,français,f,0,0.0,-8.95969579,0.46272501
5ba8a047ef181f0001672bc2,118,2,2024-02-24T08:48:13.287Z,french_764.wav,0,poule,380,30,3,5,français,f,1,0.1,5.11158076,1.84250995
5ba8a047ef181f0001672bc2,118,2,2024-02-24T08:48:13.287Z,french_764.wav,0,poule,380,30,3,5,français,f,2,0.2,3.7358826,0.71585727
5ba8a047ef181f0001672bc2,118,2,2024-02-24T08:48:13.287Z,french_764.wav,0,poule,380,30,3,5,français,f,3,0.25666667,-14.74224302,0.58101627
5ba8a047ef181f0001672bc2,119,2,2024-02-24T08:48:13.287Z,french_113.wav,0,poule,715,30,3,5,français,f,0,0.0,0.51528889,0.39555504
5ba8a047ef181f0001672bc2,119,2,2024-02-24T08:48:13.287Z,french_113.wav,0,poule,715,30,3,5,français,f,1,0.1,31.38938416,1.50115078
5ba8a047ef181f0001672bc2,119,2,2024-02-24T08:48:13.287Z,french_113.wav,0,poule,715,30,3,5,français,f,2,0.2,-56.71204584,1.00732686
5ba8a047ef181f0001672bc2,119,2,2024-02-24T08:48:13.287Z,french_113.wav,0,poule,715,30,3,5,français,f,3,0.25666667,95.05763822,0.59062761
5ba8a047ef181f0001672bc2,120,2,2024-02-24T08:48:13.287Z,french_114.wav,0,poule,1322,30,3,5,français,f,0,0.0,36.61172137,1.1665973
5ba8a047ef181f0001672bc2,120,2,2024-02-24T08:48:13.287Z,french_114.wav,0,poule,1322,30,3,5,français,f,1,0.1,1.16528437,0.29978092
5ba8a047ef181f0001672bc2,120,2,2024-02-24T08:48:13.287Z,french_114.wav,0,poule,1322,30,3,5,français,f,2,0.2,91.5106094,1.30847922
5ba8a047ef181f0001672bc2,120,2,2024-02-24T08:48:13.287Z,french_114.wav,0,poule,1322,30,3,5,français,f,3,0.25666667,23.38458366,1.1533172
5ba8a047ef181f0001672bc2,121,2,2024-02-24T08:48:13.287Z,french_59.wav,0,poule,757,30,3,5,français,f,0,0.0,39.36273925,0.85213244
5ba8a047ef181f0001672bc2,121,2,2024-02-24T08:48:13.287Z,french_59.wav,0,poule,757,30,3,5,français,f,1,0.1,-72.05438318,0.54541244
5ba8a047ef181f0001672bc2,121,2,2024-02-24T08:48:13.287Z,french_59.wav,0,poule,757,30,3,5,français,f,2,0.2,-58.73379721,0.77028914
5ba8a047ef181f0001672bc2,121,2,2024-02-24T08:48:13.287Z,french_59.wav,0,poule,757,30,3,5,français,f,3,0.25666667,-71.89754194,0.84538443
5ba8a047ef181f0001672bc2,122,2,2024-02-24T08:48:13.287Z,french_825.wav,0,poule,1444,30,3,5,français,f,0,0.0,84.83698811,1.37161619
5ba8a047ef181f0001672bc2,122,2,2024-02-24T08:48:13.287Z,french_825.wav,0,poule,1444,30,3,5,français,f,1,0.1,58.10246948,1.88160769
5ba8a047ef181f0001672bc2,122,2,2024-02-24T08:48:13.287Z,french_825.wav,0,poule,1444,30,3,5,français,f,2,0.2,95.28795352,0.7228962
5ba8a047ef181f0001672bc2,122,2,2024-02-24T08:48:13.287Z,french_825.wav,0,poule,1444,30,3,5,français,f,3,0.25666667,40.96055212,1.18109596
5ba8a047ef181f0001672bc2,123,2,2024-02-24T08:48:13.287Z,french_492.wav,0,poule,1920,30,3,5,français,f,0,0.0,26.23401792,1.39276004
5ba8a047ef181f0001672bc2,123,2,2024-02-24T08:48:13.287Z,french_492.wav,0,poule,1920,30,3,5,français,f,1,0.1,-24.69700304,1.17915575
5ba8a047ef181f0001672bc2,123,2,2024-02-24T08:48:13.287Z,french_492.wav,0,poule,1920,30,3,5,français,f,2,0.2,20.89476161,0.89700471
5ba8a047ef181f0001672bc2,123,2,2024-02-24T08:48:13.287Z,french_492.wav,0,poule,1920,30,3,5,français,f,3,0.25666667,-5.21833306,0.44164607
5ba8a047ef181f0001672bc2,124,2,2024-02-24T08:48:13.287Z,french_574.wav,0,poule,528,30,3,5,français,f,0,0.0,-78.43657591,1.27247015
5ba8a047ef181f0001672bc2,124,2,2024-02-24T08:48:13.287Z,french_574.wav,0,poule,528,30,3,5,français,f,1,0.1,25.16959944,0.78898338
5ba8a047ef181f0001672bc2,124,2,2024-02-24T08:48:13.287Z,french_574.wav,0,poule,528,30,3,5,français,f,2,0.2,42.97785019,1.49121094
5ba8a047ef181f0001672bc2,124,2,2024-02-24T08:48:13.287Z,french_574.wav,0,poule,528,30,3,5,français,f,3,0.25666667,77.36764491,0.68004104
5ba8a047ef181f0001672bc2,125,2,2024-02-24T08:48:13.287Z,french_829.wav,0,poule,877,30,3,5,français,f,0,0.0,46.725297,0.52675555
5ba8a047ef181f0001672bc2,125,2,2024-02-24T08:48:13.287Z,french_829.wav,0,poule,877,30,3,5,français,f,1,0.1,-84.28207626,1.43556726
5ba8a047ef181f0001672bc2,125,2,2024-02-24T08:48:13.287Z,french_829.wav,0,poule,877,30,3,5,français,f,2,0.2,93.60285392,0.6815656
5ba8a047ef181f0001672bc2,125,2,2024-02-24T08:48:13.287Z,french_829.wav,0,poule,877,30,3,5,français,f,3,0.25666667,-19.92335823,1.46711526
5ba8a047ef181f0001672bc2,126,2,2024-02-24T08:48:13.287Z,french_458.wav,0,pull,702,30,3,5,français,f,0,0.0,13.7688173,1.1950835
5ba8a047ef181f0001672bc2,126,2,2024-02-24T08:48:13.287Z,french_458.wav,0,pull,702,30,3,5,français,f,1,0.1,19.53863665,0.33129566
5ba8a047ef181f0001672bc2,126,2,2024-02-24T08:48:13.287Z,french_458.wav,0,pull,702,30,3,5,français,f,2,0.2,-90.92797006,0.65773392
5ba8a047ef181f0001672bc2,126,2,2024-02-24T08:48:13.287Z,french_458.wav,0,pull,702,30,3,5,français,f,3,0.25666667,55.23452131,1.54778139
5ba8a047ef181f0001672bc2,127,2,2024-02-24T08:48:13.287Z,french_610.wav,0,poule,527,30,3,5,français,f,0,0.0,41.67803598,0.10564039
5ba8a047ef181f0001672bc2,127,2,2024-02-24T08:48:13.287Z,french_610.wav,0,poule,527,30,3,5,français,f,1,0.1,50.6586837,1.22556883
5ba8a047ef181f0001672bc2,127,2,2024-02-24T08:48:13.287Z,french_610.wav,0,poule,527,30,3,5,français,f,2,0.2,-85.20353251,1.48633574
5ba8a047ef181f0001672bc2,127,2,2024-02-24T08:48:13.287Z,french_610.wav,0,poule,527,30,3,5,français,f,3,0.25666667,-12.88596769,1.12124299
5ba8a047ef181f0001672bc2,128,2,2024-02-24T08:48:13.287Z,french_214.wav,0,pull,700,30,3,5,français,f,0,0.0,76.24554567,0.83658468
5ba8a047ef181f0001672bc2,128,2,2024-02-24T08:48:13.287Z,french_214.wav,0,pull,700,30,3,5,français,f,1,0.1,-45.01894732,0.66247732
5ba8a047ef181f0001672bc2,128,2,2024-02-24T08:48:13.287Z,french_214.wav,0,pull,700,30,3,5,français,f,2,0.2,36.56408721,0.57350576
5ba8a047ef181f0001672bc2,128,2,2024-02-24T08:48:13.287Z,french_214.wav,0,pull,700,30,3,5,français,f,3,0.25666667,-35.03381059,1.70097913
5ba8a047ef181f0001672bc2,129,2,2024-02-24T08:48:13.287Z,french_278.wav,0,pull,652,30,3,5,français,f,0,0.0,0.92058819,0.58166089
5ba8a047ef181f0001672bc2,129,2,2024-02-24T08:48:13.287Z,french_278.wav,0,pull,652,30,3,5,français,f,1,0.1,-11.12293645,0.6190237
5ba8a047ef181f0001672bc2,129,2,2024-02-24T08:48:13.287Z,french_278.wav,0,pull,652,30,3,5,français,f,2,0.2,51.74113392,1.02661965
5ba8a047ef181f0001672bc2,129,2,2024-02-24T08:48:13.287Z,french_278.wav,0,pull,652,30,3,5,français,f,3,0.25666667,59.96495371,0.89915078
5ba8a047ef181f0001672bc2,130,2,2024-02-24T08:48:13.287Z,french_519.wav,0,poule,504,30,3,5,français,f,0,0.0,86.76456043,1.09635868
5ba8a047ef181f0001672bc2,130,2,2024-02-24T08:48:13.287Z,french_519.wav,0,poule,504,30,3,5,français,f,1,0.1,8.46145491,1.19136691
5ba8a047ef181f0001672bc2,130,2,2024-02-24T08:48:13.287Z,french_519.wav,0,poule,504,30,3,5,français,f,2,0.2,-48.6822419,1.7889624
5ba8a047ef181f0001672bc2,130,2,2024-02-24T08:48:13.287Z,french_519.wav,0,poule,504,30,3,5,français,f,3,0.25666667,-44.03350662,1.1754675
5ba8a047ef181f0001672bc2,131,2,2024-02-24T08:48:13.287Z,french_989.wav,0,poule,833,30,3,5,français,f,0,0.0,9.12508282,1.4573698
5ba8a047ef181f0001672bc2,131,2,2024-02-24T08:48:13.287Z,french_989.wav,0,poule,833,30,3,5,français,f,1,0.1,-26.45358769,0.87656303
5ba8a047ef181f0001672bc2,131,2,2024-02-24T08:48:13.287Z,french_989.wav,0,poule,833,30,3,5,français,f,2,0.2,-51.08796106,0.58961018
5ba8a047ef181f0001672bc2,131,2,2024-02-24T08:48:13.287Z,french_989.wav,0,poule,833,30,3,5,français,f,3,0.25666667,-22.70445117,1.46090447
5ba8a047ef181f0001672bc2,132,2,2024-02-24T08:48:13.287Z,french_52.wav,0,poule,1282,30,3,5,français,f,0,0.0,77.15950351,1.06345864
5ba8a047ef181f0001672bc2,132,2,2024-02-24T08:48:13.287Z,french_52.wav,0,poule,1282,30,3,5,français,f,1,0.1,66.43146777,1.73071791
5ba8a047ef181f0001672bc2,132,2,2024-02-24T08:48:13.287Z,french_52.wav,0,poule,1282,30,3,5,français,f,2,0.2,76.85444305,1.08790246
5ba8a047ef181f0001672bc2,132,2,2024-02-24T08:48:13.287Z,french_52.wav,0,poule,1282,30,3,5,français,f,3,0.25666667,-69.48513432,0.32336701
5ba8a047ef181f0001672bc2,133,2,2024-02-24T08:48:13.287Z,french_479.wav,0,pull,866,30,3,5,français,f,0,0.0,-77.56228832,0.23971003
5ba8a047ef181f0001672bc2,133,2,2024-02-24T08:48:13.287Z,french_479.wav,0,pull,866,30,3,5,français,f,1,0.1,-51.14246902,1.41057828
5ba8a047ef181f0001672bc2,133,2,2024-02-24T08:48:13.287Z,french_479.wav,0,pull,866,30,3,5,français,f,2,0.2,54.51803315,0.5803481
5ba8a047ef181f0001672bc2,133,2,2024-02-24T08:48:13.287Z,french_479.wav,0,pull,866,30,3,5,français,f,3,0.25666667,-8.31356421,0.39274068
5ba8a047ef181f0001672bc2,134,2,2024-02-24T08:48:13.287Z,french_387.wav,0,poule,1420,30,3,5,français,f,0,0.0,-24.2271051,0.1957751
5ba8a047ef181f0001672bc2,134,2,2024-02-24T08:48:13.287Z,french_387.wav,0,poule,1420,30,3,5,français,f,1,0.1,-69.58889879,0.86781049
5ba8a047ef181f0001672bc2,134,2,2024-02-24T08:48:13.287Z,french_387.wav,0,poule,1420,30,3,5,français,f,2,0.2,21.02997226,1.73501265
5ba8a047ef181f0001672bc2,134,2,2024-02-24T08:48:13.287Z,french_387.wav,0,poule,1420,30,3,5,français,f,3,0.25666667,58.82746302,1.75042849
5ba8a047ef181f0001672bc2,135,2,2024-02-24T08:48:13.287Z,french_606.wav,0,poule,464,30,3,5,français,f,0,0.0,-20.93687271,1.9895698
5ba8a047ef181f0001672bc2,135,2,2024-02-24T08:48:13.287Z,french_606.wav,0,poule,464,30,3,5,français,f,1,0.1,59.55385743,1.17728958
5ba8a047ef181f0001672bc2,135,2,2024-02-24T08:48:13.287Z,french_606.wav,0,poule,464,30,3,5,français,f,2,0.2,61.58713619,1.48827242
5ba8a047ef181f0001672bc2,135,2,2024-02-24T08:48:13.287Z,french_606.wav,0,poule,464,30,3,5,français,f,3,0.25666667,-92.8987734,0.79910733
5ba8a047ef181f0001672bc2,136,2,2024-02-24T08:48:13.287Z,french_534.wav,0,poule,451,30,3,5,français,f,0,0.0,96.41776506,0.28463844
5ba8a047ef181f0001672bc2,136,2,2024-02-24T08:48:13.287Z,french_534.wav,0,poule,451,30,3,5,français,f,1,0.1,-53.52749338,1.69872517
5ba8a047ef181f0001672bc2,136,2,2024-02-24T08:48:13.287Z,french_534.wav,0,poule,451,30,3,5,français,f,2,0.2,51.10087415,0.80798533
5ba8a047ef181f0001672bc2,136,2,2024-02-24T08:48:13.287Z,french_534.wav,0,poule,451,30,3,5,français,f,3,0.25666667,27.39654188,1.79838566
5ba8a047ef181f0001672bc2,137,2,2024-02-24T08:48:13.287Z,french_897.wav,0,pull,620,30,3,5,français,f,0,0.0,-2.62488743,0.95618392
5ba8a047ef181f0001672bc2,137,2,2024-02-24T08:48:13.287Z,french_897.wav,0,pull,620,30,3,5,français,f,1,0.1,-35.09835725,0.97615626
5ba8a047ef181f0001672bc2,137,2,2024-02-24T08:48:13.287Z,french_897.wav,0,pull,620,30,3,5,français,f,2,0.2,-7.90226738,0.33556547
5ba8a047ef181f0001672bc2,137,2,2024-02-24T08:48:13.287Z,french_897.wav,0,pull,620,30,3,5,français,f,3,0.25666667,34.22753828,0.12618193
5ba8a047ef181f0001672bc2,138,2,2024-02-24T08:48:13.287Z,french_577.wav,0,pull,636,30,3,5,français,f,0,0.0,-34.34323574,0.85646341
5ba8a047ef181f0001672bc2,138,2,2024-02-24T08:48:13.287Z,french_577.wav,0,pull,636,30,3,5,français,f,1,0.1,42.3591335,0.14355807
5ba8a047ef181f0001672bc2,138,2,2024-02-24T08:48:13.287Z,french_577.wav,0,pull,636,30,3,5,français,f,2,0.2,-17.66243752,0.33082023
5ba8a047ef181f0001672bc2,138,2,2024-02-24T08:48:13.287Z,french_577.wav,0,pull,636,30,3,5,français,f,3,0.25666667,-25.14969583,0.85136365
5ba8a047ef181f0001672bc2,139,2,2024-02-24T08:48:13.287Z,french_170.wav,0,poule,403,30,3,5,français,f,0,0.0,33.63406691,1.37140183
5ba8a047ef181f0001672bc2,139,2,2024-02-24T08:48:13.287Z,french_170.wav,0,poule,403,30,3,5,français,f,1,0.1,-66.14633185,0.98919038
5ba8a047ef181f0001672bc2,139,2,2024-02-24T08:48:13.287Z,french_170.wav,0,poule,403,30,3,5,français,f,2,0.2,-74.26701986,1.38629831
5ba8a047ef181f0001672bc2,139,2,2024-02-24T08:48:13.287Z,french_170.wav,0,poule,403,30,3,5,français,f,3,0.25666667,32.33295865,0.43392523
5ba8a047ef181f0001672bc2,140,2,2024-02-24T08:48:13.287Z,french_618.wav,0,poule,1513,30,3,5,français,f,0,0.0,-48.84080529,0.47316377
5ba8a047ef181f0001672bc2,140,2,2024-02-24T08:48:13.287Z,french_618.wav,0,poule,1513,30,3,5,français,f,1,0.1,52.1949693,0.45430598
5ba8a047ef181f0001672bc2,140,2,2024-02-24T08:48:13.287Z,french_618.wav,0,poule,1513,30,3,5,français,f,2,0.2,2.68255661,0.75800451
5ba8a047ef181f0001672bc2,140,2,2024-02-24T08:48:13.287Z,french_618.wav,0,poule,1513,30,3,5,français,f,3,0.25666667,-32.43465806,0.99622678
5ba8a047ef181f0001672bc2,141,2,2024-02-24T08:48:13.287Z,french_100.wav,0,poule,484,30,3,5,français,f,0,0.0,-35.75508116,1.72997046
5ba8a047ef181f0001672bc2,141,2,2024-02-24T08:48:13.287Z,french_100.wav,0,poule,484,30,3,5,français,f,1,0.1,57.82815341,1.04300978
5ba8a047ef181f0001672bc2,141,2,2024-02-24T08:48:13.287Z,french_100.wav,0,poule,484,30,3,5,français,f,2,0.2,31.92112674,1.01595182
5ba8a047ef181f0001672bc2,141,2,2024-02-24T08:48:13.287Z,french_100.wav,0,poule,484,30,3,5,français,f,3,0.25666667,34.87308497,1.9286069
5ba8a047ef181f0001672bc2,142,2,2024-02-24T08:48:13.287Z,french_434.wav,0,poule,472,30,3,5,français,f,0,0.0,7.9294609,1.64452419
5ba8a047ef181f0001672bc2,142,2,2024-02-24T08:48:13.287Z,french_434.wav,0,poule,472,30,3,5,français,f,1,0.1,36.47837772,0.73911435
5ba8a047ef181f0001672bc2,142,2,2024-02-24T08:48:13.287Z,french_434.wav,0,poule,472,30,3,5,français,f,2,0.2,71.3301905,0.53221197
5ba8a047ef181f0001672bc2,142,2,2024-02-24T08:48:13.287Z,french_434.wav,0,poule,472,30,3,5,français,f,3,0.25666667,-21.81717993,1.83629349
5ba8a047ef181f0001672bc2,143,2,2024-02-24T08:48:13.287Z,french_777.wav,0,pull,460,30,3,5,français,f,0,0.0,8.03786355,1.59828936
5ba8a047ef181f0001672bc2,143,2,2024-02-24T08:48:13.287Z,french_777.wav,0,pull,460,30,3,5,français,f,1,0.1,-25.18391206,0.4858639
5ba8a047ef181f0001672bc2,143,2,2024-02-24T08:48:13.287Z,french_777.wav,0,pull,460,30,3,5,français,f,2,0.2,-83.38753258,1.25666852
5ba8a047ef181f0001672bc2,143,2,2024-02-24T08:48:13.287Z,french_777.wav,0,pull,460,30,3,5,français,f,3,0.25666667,40.68339476,1.11090511
5ba8a047ef181f0001672bc2,144,2,2024-02-24T08:48:13.287Z,french_835.wav,0,poule,456,30,3,5,français,f,0,0.0,-1.43190356,0.4805844
5ba8a047ef181f0001672bc2,144,2,2024-02-24T08:48:13.287Z,french_835.wav,0,poule,456,30,3,5,français,f,1,0.1,-99.33286499,1.12822193
5ba8a047ef181f0001672bc2,144,2,2024-02-24T08:48:13.287Z,french_835.wav,0,poule,456,30,3,5,français,f,2,0.2,34.34373885,1.41477947
5ba8a047ef181f0001672bc2,144,2,2024-02-24T08:48:13.287Z,french_835.wav,0,poule,456,30,3,5,français,f,3,0.25666667,39.86329231,0.63497531
5ba8a047ef181f0001672bc2,145,2,2024-02-24T08:48:13.287Z,french_572.wav,0,pull,631,30,3,5,français,f,0,0.0,39.88309013,1.43577141
5ba8a047ef181f0001672bc2,145,2,2024-02-24T08:48:13.287Z,french_572.wav,0,pull,631,30,3,5,français,f,1,0.1,-96.79862589,0.70754044
5ba8a047ef181f0001672bc2,145,2,2024-02-24T08:48:13.287Z,french_572.wav,0,pull,631,30,3,5,français,f,2,0.2,-22.12237888,0.13254452
5ba8a047ef181f0001672bc2,145,2,2024-02-24T08:48:13.287Z,french_572.wav,0,pull,631,30,3,5,français,f,3,0.25666667,-29.01009828,0.2743676
5ba8a047ef181f0001672bc2,146,2,2024-02-24T08:48:13.287Z,french_638.wav,0,poule,905,30,3,5,français,f,0,0.0,-18.90498038,0.47409532
5ba8a047ef181f0001672bc2,146,2,2024-02-24T08:48:13.287Z,french_638.wav,0,poule,905,30,3,5,français,f,1,0.1,-28.86355513,1.76910273
5ba8a047ef181f0001672bc2,146,2,2024-02-24T08:48:13.287Z,french_638.wav,0,poule,905,30,3,5,français,f,2,0.2,-97.62198235,0.72222374
5ba8a047ef181f0001672bc2,146,2,2024-02-24T08:48:13.287Z,french_638.wav,0,poule,905,30,3,5,français,f,3,0.25666667,26.30993693,0.09803926
5ba8a047ef181f0001672bc2,147,2,2024-02-24T08:48:13.287Z,french_491.wav,0,poule,1026,30,3,5,français,f,0,0.0,48.686868,0.42969684
5ba8a047ef181f0001672bc2,147,2,2024-02-24T08:48:13.287Z,french_491.wav,0,poule,1026,30,3,5,français,f,1,0.1,-48.1683993,1.38937301
5ba8a047ef181f0001672bc2,147,2,2024-02-24T08:48:13.287Z,french_491.wav,0,poule,1026,30,3,5,français,f,2,0.2,-42.3609681,1.25630672
5ba8a047ef181f0001672bc2,147,2,2024-02-24T08:48:13.287Z,french_491.wav,0,poule,1026,30,3,5,français,f,3,0.256666667,0.024958216,0.04562268
5ba8a047ef181f0001672bc2,148,2,2024-02-24T08:48:13.287Z,french_66.wav,0,pull,563,30,3,5,français,f,0,0.0,3.84925572,1.88939432
5ba8a047ef181f0001672bc2,148,2,2024-02-24T08:48:13.287Z,french_66.wav,0,pull,563,30,3,5,français,f,1,0.1,75.48045935,0.3012797
5ba8a047ef181f0001672bc2,148,2,2024-02-24T08:48:13.287Z,french_66.wav,0,pull,563,30,3,5,français,f,2,0.2,22.76512124,0.5045755
5ba8a047ef181f0001672bc2,148,2,2024-02-24T08:48:13.287Z,french_66.wav,0,pull,563,30,3,5,français,f,3,0.25666667,45.08821781,1.63034278
5ba8a047ef181f0001672bc2,149,2,2024-02-24T08:48:13.287Z,french_271.wav,0,poule,569,30,3,5,français,f,0,0.0,-86.49285917,1.06522616
5ba8a047ef181f0001672bc2,149,2,2024-02-24T08:48:13.287Z,french_271.wav,0,poule,569,30,3,5,français,f,1,0.1,54.15727338,1.2372135
5ba8a047ef181f0001672bc2,149,2,2024-02-24T08:48:13.287Z,french_271.wav,0,poule,569,30,3,5,français,f,2,0.2,-55.0986676,1.00925168
5ba8a047ef181f0001672bc2,149,2,2024-02-24T08:48:13.287Z,french_271.wav,0,poule,569,30,3,5,français,f,3,0.25666667,7.9559813,0.76785851
5ba8a047ef181f0001672bc2,150,3,2024-02-24T08:48:13.287Z,french_121.wav,0,poule,497,30,3,5,français,f,0,0.0,35.32035933,0.75756688
5ba8a047ef181f0001672bc2,150,3,2024-02-24T08:48:13.287Z,french_121.wav,0,poule,497,30,3,5,français,f,1,0.1,-67.07725169,1.37771724
5ba8a047ef181f0001672bc2,150,3,2024-02-24T08:48:13.287Z,french_121.wav,0,poule,497,30,3,5,français,f,2,0.2,83.36951387,1.17860501
5ba8a047ef181f0001672bc2,150,3,2024-02-24T08:48:13.287Z,french_121.wav,0,poule,497,30,3,5,français,f,3,0.25666667,37.65048559,1.25500134
5ba8a047ef181f0001672bc2,151,3,2024-02-24T08:48:13.287Z,french_36.wav,0,poule,556,30,3,5,français,f,0,0.0,97.14143801,0.84704198
5ba8a047ef181f0001672bc2,151,3,2024-02-24T08:48:13.287Z,french_36.wav,0,poule,556,30,3,5,français,f,1,0.1,96.24936774,1.47086473
5ba8a047ef181f0001672bc2,151,3,2024-02-24T08:48:13.287Z,french_36.wav,0,poule,556,30,3,5,français,f,2,0.2,69.49703902,1.29858496
5ba8a047ef181f0001672bc2,151,3,2024-02-24T08:48:13.287Z,french_36.wav,0,poule,556,30,3,5,français,f,3,0.25666667,-77.37121036,1.24445776
5ba8a047ef181f0001672bc2,152,3,2024-02-24T08:48:13.287Z,french_528.wav,0,poule,684,30,3,5,français,f,0,0.0,88.85530458,1.69331748
5ba8a047ef181f0001672bc2,152,3,2024-02-24T08:48:13.287Z,french_528.wav,0,poule,684,30,3,5,français,f,1,0.1,-87.19636625,0.73621757
5ba8a047ef181f0001672bc2,152,3,2024-02-24T08:48:13.287Z,french_528.wav,0,poule,684,30,3,5,français,f,2,0.2,-45.08147721,0.82405603
5ba8a047ef181f0001672bc2,152,3,2024-02-24T08:48:13.287Z,french_528.wav,0,poule,684,30,3,5,français,f,3,0.25666667,86.03081593,0.01123483
5ba8a047ef181f0001672bc2,153,3,2024-02-24T08:48:13.287Z,french_619.wav,0,pull,725,30,3,5,français,f,0,0.0,-58.15289928,0.63115023
5ba8a047ef181f0001672bc2,153,3,2024-02-24T08:48:13.287Z,french_619.wav,0,pull,725,30,3,5,français,f,1,0.1,30.86987971,0.12868397
5ba8a047ef181f0001672bc2,153,3,2024-02-24T08:48:13.287Z,french_619.wav,0,pull,725,30,3,5,français,f,2,0.2,96.84221096,0.73139592
5ba8a047ef181f0001672bc2,153,3,2024-02-24T08:48:13.287Z,french_619.wav,0,pull,725,30,3,5,français,f,3,0.25666667,69.41225319,1.17738103
5ba8a047ef181f0001672bc2,154,3,2024-02-24T08:48:13.287Z,french_351.wav,0,poule,1183,30,3,5,français,f,0,0.0,-22.87012194,0.67033139
5ba8a047ef181f0001672bc2,154,3,2024-02-24T08:48:13.287Z,french_351.wav,0,poule,1183,30,3,5,français,f,1,0.1,10.68995272,0.80045466
5ba8a047ef181f0001672bc2,154,3,2024-02-24T08:48:13.287Z,french_351.wav,0,poule,1183,30,3,5,français,f,2,0.2,60.8101445,0.88778875
5ba8a047ef181f0001672bc2,154,3,2024-02-24T08:48:13.287Z,french_351.wav,0,poule,1183,30,3,5,français,f,3,0.25666667,32.12752515,0.26390259
5ba8a047ef181f0001672bc2,155,3,2024-02-24T08:48:13.287Z,french_382.wav,0,poule,447,30,3,5,français,f,0,0.0,-28.76508335,1.75225743
5ba8a047ef181f0001672bc2,155,3,2024-02-24T08:48:13.287Z,french_382.wav,0,poule,447,30,3,5,français,f,1,0.1,37.36249056,1.09069334
5ba8a047ef181f0001672bc2,155,3,2024-02-24T08:48:13.287Z,french_382.wav,0,poule,447,30,3,5,français,f,2,0.2,12.02014155,1.36067751
5ba8a047ef181f0001672bc2,155,3,2024-02-24T08:48:13.287Z,french_382.wav,0,poule,447,30,3,5,français,f,3,0.25666667,-78.65251684,0.9131152
5ba8a047ef181f0001672bc2,156,3,2024-02-24T08:48:13.287Z,french_990.wav,0,poule,737,30,3,5,français,f,0,0.0,31.68812365,0.81704568
5ba8a047ef181f0001672bc2,156,3,2024-02-24T08:48:13.287Z,french_990.wav,0,poule,737,30,3,5,français,f,1,0.1,-82.48323459,1.80008391
5ba8a047ef181f0001672bc2,156,3,2024-02-24T08:48:13.287Z,french_990.wav,0,poule,737,30,3,5,français,f,2,0.2,39.0525666,1.73012532
5ba8a047ef181f0001672bc2,156,3,2024-02-24T08:48:13.287Z,french_990.wav,0,poule,737,30,3,5,français,f,3,0.25666667,-59.77120272,0.71793452
5ba8a047ef181f0001672bc2,157,3,2024-02-24T08:48:13.287Z,french_725.wav,0,poule,941,30,3,5,français,f,0,0.0,61.28532458,0.86285292
5ba8a047ef181f0001672bc2,157,3,2024-02-24T08:48:13.287Z,french_725.wav,0,poule,941,30,3,5,français,f,1,0.1,25.43953492,0.5175718
5ba8a047ef181f0001672bc2,157,3,2024-02-24T08:48:13.287Z,french_725.wav,0,poule,941,30,3,5,français,f,2,0.2,31.92964858,1.72668514
5ba8a047ef181f0001672bc2,157,3,2024-02-24T08:48:13.287Z,french_725.wav,0,poule,941,30,3,5,français,f,3,0.25666667,-96.80759498,1.79225728
5ba8a047ef181f0001672bc2,158,3,2024-02-24T08:48:13.287Z,french_956.wav,0,poule,946,30,3,5,français,f,0,0.0,-17.2568339,1.05718214
5ba8a047ef181f0001672bc2,158,3,2024-02-24T08:48:13.287Z,french_956.wav,0,poule,946,30,3,5,français,f,1,0.1,60.67626876,1.43914937
5ba8a047ef181f0001672bc2,158,3,2024-02-24T08:48:13.287Z,french_956.wav,0,poule,946,30,3,5,français,f,2,0.2,40.71216363,0.83140318
5ba8a047ef181f0001672bc2,158,3,2024-02-24T08:48:13.287Z,french_956.wav,0,poule,946,30,3,5,français,f,3,0.25666667,16.50619481,0.14426626
5ba8a047ef181f0001672bc2,159,3,2024-02-24T08:48:13.287Z,french_913.wav,0,poule,1359,30,3,5,français,f,0,0.0,5.31236155,1.37558602
5ba8a047ef181f0001672bc2,159,3,2024-02-24T08:48:13.287Z,french_913.wav,0,poule,1359,30,3,5,français,f,1,0.1,-59.65057946,0.3561265
5ba8a047ef181f0001672bc2,159,3,2024-02-24T08:48:13.287Z,french_913.wav,0,poule,1359,30,3,5,français,f,2,0.2,27.87230438,1.61604884
5ba8a047ef181f0001672bc2,159,3,2024-02-24T08:48:13.287Z,french_913.wav,0,poule,1359,30,3,5,français,f,3,0.25666667,-58.49443874,0.97981321
5ba8a047ef181f0001672bc2,160,3,2024-02-24T08:48:13.287Z,french_464.wav,0,poule,721,30,3,5,français,f,0,0.0,-77.91073693,1.45882001
5ba8a047ef181f0001672bc2,160,3,2024-02-24T08:48:13.287Z,french_464.wav,0,poule,721,30,3,5,français,f,1,0.1,-4.27403448,1.08668269
5ba8a047ef181f0001672bc2,160,3,2024-02-24T08:48:13.287Z,french_464.wav,0,poule,721,30,3,5,français,f,2,0.2,93.79465132,1.80605145
5ba8a047ef181f0001672bc2,160,3,2024-02-24T08:48:13.287Z,french_464.wav,0,poule,721,30,3,5,français,f,3,0.25666667,49.64849416,1.6602635
5ba8a047ef181f0001672bc2,161,3,2024-02-24T08:48:13.287Z,french_865.wav,0,pull,763,30,3,5,français,f,0,0.0,50.32963137,0.72864737
5ba8a047ef181f0001672bc2,161,3,2024-02-24T08:48:13.287Z,french_865.wav,0,pull,763,30,3,5,français,f,1,0.1,-34.20059836,0.63562985
5ba8a047ef181f0001672bc2,161,3,2024-02-24T08:48:13.287Z,french_865.wav,0,pull,763,30,3,5,français,f,2,0.2,-1.26220982,0.61823994
5ba8a047ef181f0001672bc2,161,3,2024-02-24T08:48:13.287Z,french_865.wav,0,pull,763,30,3,5,français,f,3,0.25666667,-35.44054545,1.79442015
5ba8a047ef181f0001672bc2,162,3,2024-02-24T08:48:13.287Z,french_282.wav,0,poule,476,30,3,5,français,f,0,0.0,-97.43488085,0.55303377
5ba8a047ef181f0001672bc2,162,3,2024-02-24T08:48:13.287Z,french_282.wav,0,poule,476,30,3,5,français,f,1,0.1,96.20897113,1.41145651
5ba8a047ef181f0001672bc2,162,3,2024-02-24T08:48:13.287Z,french_282.wav,0,poule,476,30,3,5,français,f,2,0.2,27.16020646,1.83661618
5ba8a047ef181f0001672bc2,162,3,2024-02-24T08:48:13.287Z,french_282.wav,0,poule,476,30,3,5,français,f,3,0.25666667,-13.14092169,0.36912502
5ba8a047ef181f0001672bc2,163,3,2024-02-24T08:48:13.287Z,french_609.wav,0,poule,1385,30,3,5,français,f,0,0.0,11.6890167,1.75568789
5ba8a047ef181f0001672bc2,163,3,2024-02-24T08:48:13.287Z,french_609.wav,0,poule,1385,30,3,5,français,f,1,0.1,-35.50971605,1.50542158
5ba8a047ef181f0001672bc2,163,3,2024-02-24T08:48:13.287Z,french_609.wav,0,poule,1385,30,3,5,français,f,2,0.2,-98.47760025,0.96032408
5ba8a047ef181f0001672bc2,163,3,2024-02-24T08:48:13.287Z,french_609.wav,0,poule,1385,30,3,5,français,f,3,0.25666667,-64.00925784,1.1186533
5ba8a047ef181f0001672bc2,164,3,2024-02-24T08:48:13.287Z,french_870.wav,0,pull,825,30,3,5,français,f,0,0.0,93.84124937,1.21813626
5ba8a047ef181f0001672bc2,164,3,2024-02-24T08:48:13.287Z,french_870.wav,0,pull,825,30,3,5,français,f,1,0.1,28.95893835,0.388995
5ba8a047ef181f0001672bc2,164,3,2024-02-24T08:48:13.287Z,french_870.wav,0,pull,825,30,3,5,français,f,2,0.2,47.67512023,1.25544279
5ba8a047ef181f0001672bc2,164,3,2024-02-24T08:48:13.287Z,french_870.wav,0,pull,825,30,3,5,français,f,3,0.25666667,-4.48390189,0.09184868
5ba8a047ef181f0001672bc2,165,3,2024-02-24T08:48:13.287Z,french_899.wav,0,pull,1167,30,3,5,français,f,0,0.0,-28.57126009,0.27570035
5ba8a047ef181f0001672bc2,165,3,2024-02-24T08:48:13.287Z,french_899.wav,0,pull,1167,30,3,5,français,f,1,0.1,-0.09971188,0.02539286
5ba8a047ef181f0001672bc2,165,3,2024-02-24T08:48:13.287Z,french_899.wav,0,pull,1167,30,3,5,français,f,2,0.2,21.79777269,0.56520269
5ba8a047ef181f0001672bc2,165,3,2024-02-24T08:48:13.287Z,french_899.wav,0,pull,1167,30,3,5,français,f,3,0.25666667,-88.2290065,1.36421593
5ba8a047ef181f0001672bc2,166,3,2024-02-24T08:48:13.287Z,french_696.wav,0,pull,1296,30,3,5,français,f,0,0.0,39.34258856,1.15492287
5ba8a047ef181f0001672bc2,166,3,2024-02-24T08:48:13.287Z,french_696.wav,0,pull,1296,30,3,5,français,f,1,0.1,16.85699936,0.81118798
5ba8a047ef181f0001672bc2,166,3,2024-02-24T08:48:13.287Z,french_696.wav,0,pull,1296,30,3,5,français,f,2,0.2,-58.01570434,0.43841119
5ba8a047ef181f0001672bc2,166,3,2024-02-24T08:48:13.287Z,french_696.wav,0,pull,1296,30,3,5,français,f,3,0.25666667,-91.70212518,1.32812972
5ba8a047ef181f0001672bc2,167,3,2024-02-24T08:48:13.287Z,french_397.wav,0,poule,1042,30,3,5,français,f,0,0.0,-13.81470081,1.26162917
5ba8a047ef181f0001672bc2,167,3,2024-02-24T08:48:13.287Z,french_397.wav,0,poule,1042,30,3,5,français,f,1,0.1,50.38281738,1.19612478
5ba8a047ef181f0001672bc2,167,3,2024-02-24T08:48:13.287Z,french_397.wav,0,poule,1042,30,3,5,français,f,2,0.2,50.22980228,1.02842354
5ba8a047ef181f0001672bc2,167,3,2024-02-24T08:48:13.287Z,french_397.wav,0,poule,1042,30,3,5,français,f,3,0.25666667,-83.86271009,0.53389444
5ba8a047ef181f0001672bc2,168,3,2024-02-24T08:48:13.287Z,french_730.wav,0,poule,453,30,3,5,français,f,0,0.0,45.92676741,0.18014666
5ba8a047ef181f0001672bc2,168,3,2024-02-24T08:48:13.287Z,french_730.wav,0,poule,453,30,3,5,français,f,1,0.1,-44.36449205,1.39371349
5ba8a047ef181f0001672bc2,168,3,2024-02-24T08:48:13.287Z,french_730.wav,0,poule,453,30,3,5,français,f,2,0.2,-0.92451291,1.11032992
5ba8a047ef181f0001672bc2,168,3,2024-02-24T08:48:13.287Z,french_730.wav,0,poule,453,30,3,5,français,f,3,0.25666667,30.80646356,1.142585
5ba8a047ef181f0001672bc2,169,3,2024-02-24T08:48:13.287Z,french_448.wav,0,poule,358,30,3,5,français,f,0,0.0,31.66119151,0.87276462
5ba8a047ef181f0001672bc2,169,3,2024-02-24T08:48:13.287Z,french_448.wav,0,poule,358,30,3,5,français,f,1,0.1,20.17093967,1.08469616
5ba8a047ef181f0001672bc2,169,3,2024-02-24T08:48:13.287Z,french_448.wav,0,poule,358,30,3,5,français,f,2,0.2,-46.84568686,1.99629221
5ba8a047ef181f0001672bc2,169,3,2024-02-24T08:48:13.287Z,french_448.wav,0,poule,358,30,3,5,français,f,3,0.25666667,10.399138,0.44449425
5ba8a047ef181f0001672bc2,170,3,2024-02-24T08:48:13.287Z,french_929.wav,0,pull,552,30,3,5,français,f,0,0.0,-0.81023728,1.80594317
5ba8a047ef181f0001672bc2,170,3,2024-02-24T08:48:13.287Z,french_929.wav,0,pull,552,30,3,5,français,f,1,0.1,49.23140571,0.75886247
5ba8a047ef181f0001672bc2,170,3,2024-02-24T08:48:13.287Z,french_929.wav,0,pull,552,30,3,5,français,f,2,0.2,-9.18427249,0.13714517
5ba8a047ef181f0001672bc2,170,3,2024-02-24T08:48:13.287Z,french_929.wav,0,pull,552,30,3,5,français,f,3,0.25666667,2.49300226,0.57622003
5ba8a047ef181f0001672bc2,171,3,2024-02-24T08:48:13.287Z,french_800.wav,0,pull,522,30,3,5,français,f,0,0.0,43.61588251,1.33995655
5ba8a047ef181f0001672bc2,171,3,2024-02-24T08:48:13.287Z,french_800.wav,0,pull,522,30,3,5,français,f,1,0.1,-17.8471941,0.26774995
5ba8a047ef181f0001672bc2,171,3,2024-02-24T08:48:13.287Z,french_800.wav,0,pull,522,30,3,5,français,f,2,0.2,-10.2363333,0.87274599
5ba8a047ef181f0001672bc2,171,3,2024-02-24T08:48:13.287Z,french_800.wav,0,pull,522,30,3,5,français,f,3,0.25666667,-85.1878963,0.37568781
5ba8a047ef181f0001672bc2,172,3,2024-02-24T08:48:13.287Z,french_490.wav,0,poule,866,30,3,5,français,f,0,0.0,-77.54246231,1.03559912
5ba8a047ef181f0001672bc2,172,3,2024-02-24T08:48:13.287Z,french_490.wav,0,poule,866,30,3,5,français,f,1,0.1,-0.13066058,0.94588293
5ba8a047ef181f0001672bc2,172,3,2024-02-24T08:48:13.287Z,french_490.wav,0,poule,866,30,3,5,français,f,2,0.2,-90.37490593,1.16449319
5ba8a047ef181f0001672bc2,172,3,2024-02-24T08:48:13.287Z,french_490.wav,0,poule,866,30,3,5,français,f,3,0.25666667,62.21960288,1.46557017
5ba8a047ef181f0001672bc2,173,3,2024-02-24T08:48:13.287Z,french_600.wav,0,poule,907,30,3,5,français,f,0,0.0,29.66563504,0.34173365
5ba8a047ef181f0001672bc2,173,3,2024-02-24T08:48:13.287Z,french_600.wav,0,poule,907,30,3,5,français,f,1,0.1,-8.64659381,0.28144694
5ba8a047ef181f0001672bc2,173,3,2024-02-24T08:48:13.287Z,french_600.wav,0,poule,907,30,3,5,français,f,2,0.2,-34.77347642,1.5541161
5ba8a047ef181f0001672bc2,173,3,2024-02-24T08:48:13.287Z,french_600.wav,0,poule,907,30,3,5,français,f,3,0.25666667,-62.75040759,1.60255421
5ba8a047ef181f0001672bc2,174,3,2024-02-24T08:48:13.287Z,french_639.wav,0,poule,616,30,3,5,français,f,0,0.0,11.64385005,1.86180111
5ba8a047ef181f0001672bc2,174,3,2024-02-24T08:48:13.287Z,french_639.wav,0,poule,616,30,3,5,français,f,1,0.1,-83.53772589,1.31531339
5ba8a047ef181f0001672bc2,174,3,2024-02-24T08:48:13.287Z,french_639.wav,0,poule,616,30,3,5,français,f,2,0.2,-26.70113898,0.16484712
5ba8a047ef181f0001672bc2,174,3,2024-02-24T08:48:13.287Z,french_639.wav,0,poule,616,30,3,5,français,f,3,0.25666667,-28.21717215,0.08923993
5ba8a047ef181f0001672bc2,175,3,2024-02-24T08:48:13.287Z,french_786.wav,0,poule,1468,30,3,5,français,f,0,0.0,46.81596915,0.36321177
5ba8a047ef181f0001672bc2,175,3,2024-02-24T08:48:13.287Z,french_786.wav,0,poule,1468,30,3,5,français,f,1,0.1,35.10066142,1.24415108
5ba8a047ef181f0001672bc2,175,3,2024-02-24T08:48:13.287Z,french_786.wav,0,poule,1468,30,3,5,français,f,2,0.2,15.54537814,1.19760647
5ba8a047ef181f0001672bc2,175,3,2024-02-24T08:48:13.287Z,french_786.wav,0,poule,1468,30,3,5,français,f,3,0.25666667,97.25347056,0.79076548
5ba8a047ef181f0001672bc2,176,3,2024-02-24T08:48:13.287Z,french_44.wav,0,pull,919,30,3,5,français,f,0,0.0,89.66608323,1.27808882
5ba8a047ef181f0001672bc2,176,3,2024-02-24T08:48:13.287Z,french_44.wav,0,pull,919,30,3,5,français,f,1,0.1,-59.25624901,0.57075293
5ba8a047ef181f0001672bc2,176,3,2024-02-24T08:48:13.287Z,french_44.wav,0,pull,919,30,3,5,français,f,2,0.2,-68.11161816,0.14730706
5ba8a047ef181f0001672bc2,176,3,2024-02-24T08:48:13.287Z,french_44.wav,0,pull,919,30,3,5,français,f,3,0.25666667,57.66656697,1.61481461
5ba8a047ef181f0001672bc2,177,3,2024-02-24T08:48:13.287Z,french_347.wav,0,poule,1023,30,3,5,français,f,0,0.0,-50.57249908,1.7558536
5ba8a047ef181f0001672bc2,177,3,2024-02-24T08:48:13.287Z,french_347.wav,0,poule,1023,30,3,5,français,f,1,0.1,-0.96259157,0.42717605
5ba8a047ef181f0001672bc2,177,3,2024-02-24T08:48:13.287Z,french_347.wav,0,poule,1023,30,3,5,français,f,2,0.2,56.28626554,1.32943016
5ba8a047ef181f0001672bc2,177,3,2024-02-24T08:48:13.287Z,french_347.wav,0,poule,1023,30,3,5,français,f,3,0.25666667,46.89576118,0.4771217
5ba8a047ef181f0001672bc2,178,3,2024-02-24T08:48:13.287Z,french_768.wav,0,poule,763,30,3,5,français,f,0,0.0,43.80393873,0.16736189
5ba8a047ef181f0001672bc2,178,3,2024-02-24T08:48:13.287Z,french_768.wav,0,poule,763,30,3,5,français,f,1,0.1,23.97019037,0.82539527
5ba8a047ef181f0001672bc2,178,3,2024-02-24T08:48:13.287Z,french_768.wav,0,poule,763,30,3,5,français,f,2,0.2,96.73627246,1.26581733
5ba8a047ef181f0001672bc2,178,3,2024-02-24T08:48:13.287Z,french_768.wav,0,poule,763,30,3,5,français,f,3,0.25666667,86.69297093,1.40091334
5ba8a047ef181f0001672bc2,179,3,2024-02-24T08:48:13.287Z,french_64.wav,0,poule,728,30,3,5,français,f,0,0.0,-2.85479512,1.8205441
5ba8a047ef181f0001672bc2,179,3,2024-02-24T08:48:13.287Z,french_64.wav,0,poule,728,30,3,5,français,f,1,0.1,-22.43053594,0.65122302
5ba8a047ef181f0001672bc2,179,3,2024-02-24T08:48:13.287Z,french_64.wav,0,poule,728,30,3,5,français,f,2,0.2,99.07991634,0.54405082
5ba8a047ef181f0001672bc2,179,3,2024-02-24T08:48:13.287Z,french_64.wav,0,poule,728,30,3,5,français,f,3,0.25666667,-6.95169827,0.02019369
5ba8a047ef181f0001672bc2,180,3,2024-02-24T08:48:13.287Z,french_599.wav,0,poule,2158,30,3,5,français,f,0,0.0,67.35107794,1.27225877
5ba8a047ef181f0001672bc2,180,3,2024-02-24T08:48:13.287Z,french_599.wav,0,poule,2158,30,3,5,français,f,1,0.1,-80.59112066,1.42607556
5ba8a047ef181f0001672bc2,180,3,2024-02-24T08:48:13.287Z,french_599.wav,0,poule,2158,30,3,5,français,f,2,0.2,8.51369184,0.27008032
5ba8a047ef181f0001672bc2,180,3,2024-02-24T08:48:13.287Z,french_599.wav,0,poule,2158,30,3,5,français,f,3,0.25666667,74.29539318,0.36016313
5ba8a047ef181f0001672bc2,181,3,2024-02-24T08:48:13.287Z,french_592.wav,0,pull,703,30,3,5,français,f,0,0.0,-60.74271859,0.07910076
5ba8a047ef181f0001672bc2,181,3,2024-02-24T08:48:13.287Z,french_592.wav,0,pull,703,30,3,5,français,f,1,0.1,93.57737247,0.09988206
5ba8a047ef181f0001672bc2,181,3,2024-02-24T08:48:13.287Z,french_592.wav,0,pull,703,30,3,5,français,f,2,0.2,-53.75438764,0.64371435
5ba8a047ef181f0001672bc2,181,3,2024-02-24T08:48:13.287Z,french_592.wav,0,pull,703,30,3,5,français,f,3,0.25666667,-2.22241718,0.65219405
5ba8a047ef181f0001672bc2,182,3,2024-02-24T08:48:13.287Z,french_380.wav,0,poule,750,30,3,5,français,f,0,0.0,24.49292531,0.14533116
5ba8a047ef181f0001672bc2,182,3,2024-02-24T08:48:13.287Z,french_380.wav,0,poule,750,30,3,5,français,f,1,0.1,-93.89933718,1.07880785
5ba8a047ef181f0001672bc2,182,3,2024-02-24T08:48:13.287Z,french_380.wav,0,poule,750,30,3,5,français,f,2,0.2,-85.93529796,1.01737492
5ba8a047ef181f0001672bc2,182,3,2024-02-24T08:48:13.287Z,french_380.wav,0,poule,750,30,3,5,français,f,3,0.25666667,58.85582409,1.87499145
5ba8a047ef181f0001672bc2,183,3,2024-02-24T08:48:13.287Z,french_346.wav,0,pull,966,30,3,5,français,f,0,0.0,-9.57888942,1.97053356
5ba8a047ef181f0001672bc2,183,3,2024-02-24T08:48:13.287Z,french_346.wav,0,pull,966,30,3,5,français,f,1,0.1,44.75165277,0.16189102
5ba8a047ef181f0001672bc2,183,3,2024-02-24T08:48:13.287Z,french_346.wav,0,pull,966,30,3,5,français,f,2,0.2,-77.92949754,0.34896721
5ba8a047ef181f0001672bc2,183,3,2024-02-24T08:48:13.287Z,french_346.wav,0,pull,966,30,3,5,français,f,3,0.25666667,-10.35911767,1.54776001
5ba8a047ef181f0001672bc2,184,3,2024-02-24T08:48:13.287Z,french_215.wav,0,pull,3444,30,3,5,français,f,0,0.0,-76.5324967,0.00928887
5ba8a047ef181f0001672bc2,184,3,2024-02-24T08:48:13.287Z,french_215.wav,0,pull,3444,30,3,5,français,f,1,0.1,-12.7876278,1.85204819
5ba8a047ef181f0001672bc2,184,3,2024-02-24T08:48:13.287Z,french_215.wav,0,pull,3444,30,3,5,français,f,2,0.2,-43.60684601,1.20297214
5ba8a047ef181f0001672bc2,184,3,2024-02-24T08:48:13.287Z,french_215.wav,0,pull,3444,30,3,5,français,f,3,0.25666667,3.65547736,1.48182424
5ba8a047ef181f0001672bc2,185,3,2024-02-24T08:48:13.287Z,french_972.wav,0,poule,391,30,3,5,français,f,0,0.0,10.38102426,0.90840989
5ba8a047ef181f0001672bc2,185,3,2024-02-24T08:48:13.287Z,french_972.wav,0,poule,391,30,3,5,français,f,1,0.1,-66.54271468,1.6485676
5ba8a047ef181f0001672bc2,185,3,2024-02-24T08:48:13.287Z,french_972.wav,0,poule,391,30,3,5,français,f,2,0.2,-2.89265523,0.79956718
5ba8a047ef181f0001672bc2,185,3,2024-02-24T08:48:13.287Z,french_972.wav,0,poule,391,30,3,5,français,f,3,0.25666667,-87.42126356,1.28352811
5ba8a047ef181f0001672bc2,186,3,2024-02-24T08:48:13.287Z,french_480.wav,0,poule,452,30,3,5,français,f,0,0.0,60.74421865,1.29752088
5ba8a047ef181f0001672bc2,186,3,2024-02-24T08:48:13.287Z,french_480.wav,0,poule,452,30,3,5,français,f,1,0.1,-29.59792655,1.96700759
5ba8a047ef181f0001672bc2,186,3,2024-02-24T08:48:13.287Z,french_480.wav,0,poule,452,30,3,5,français,f,2,0.2,62.18386975,1.69632814
5ba8a047ef181f0001672bc2,186,3,2024-02-24T08:48:13.287Z,french_480.wav,0,poule,452,30,3,5,français,f,3,0.25666667,-29.20855136,1.65374165
5ba8a047ef181f0001672bc2,187,3,2024-02-24T08:48:13.287Z,french_569.wav,0,poule,653,30,3,5,français,f,0,0.0,14.0156596,1.29627558
5ba8a047ef181f0001672bc2,187,3,2024-02-24T08:48:13.287Z,french_569.wav,0,poule,653,30,3,5,français,f,1,0.1,85.00283799,1.08637511
5ba8a047ef181f0001672bc2,187,3,2024-02-24T08:48:13.287Z,french_569.wav,0,poule,653,30,3,5,français,f,2,0.2,-53.61423207,1.60007367
5ba8a047ef181f0001672bc2,187,3,2024-02-24T08:48:13.287Z,french_569.wav,0,poule,653,30,3,5,français,f,3,0.25666667,-38.88478833,0.57872623
5ba8a047ef181f0001672bc2,188,3,2024-02-24T08:48:13.287Z,french_974.wav,0,pull,919,30,3,5,français,f,0,0.0,-56.73984936,0.20875225
5ba8a047ef181f0001672bc2,188,3,2024-02-24T08:48:13.287Z,french_974.wav,0,pull,919,30,3,5,français,f,1,0.1,32.58414802,0.25167591
5ba8a047ef181f0001672bc2,188,3,2024-02-24T08:48:13.287Z,french_974.wav,0,pull,919,30,3,5,français,f,2,0.2,-45.44939314,1.19458688
5ba8a047ef181f0001672bc2,188,3,2024-02-24T08:48:13.287Z,french_974.wav,0,pull,919,30,3,5,français,f,3,0.25666667,-96.65983196,0.25310381
5ba8a047ef181f0001672bc2,189,3,2024-02-24T08:48:13.287Z,french_511.wav,0,poule,398,30,3,5,français,f,0,0.0,-19.9871771,1.33271467
5ba8a047ef181f0001672bc2,189,3,2024-02-24T08:48:13.287Z,french_511.wav,0,poule,398,30,3,5,français,f,1,0.1,-61.98813266,1.54343533
5ba8a047ef181f0001672bc2,189,3,2024-02-24T08:48:13.287Z,french_511.wav,0,poule,398,30,3,5,français,f,2,0.2,-51.99144191,1.11888865
5ba8a047ef181f0001672bc2,189,3,2024-02-24T08:48:13.287Z,french_511.wav,0,poule,398,30,3,5,français,f,3,0.25666667,26.5419494,1.56196296
5ba8a047ef181f0001672bc2,190,3,2024-02-24T08:48:13.287Z,french_847.wav,0,pull,1069,30,3,5,français,f,0,0.0,-8.33122073,1.64160395
