subj,trial,block,date,stim,stim_order,response,rt,age,english,french,language,sex,param_index,segment,pitch,stretch
5f85c88c61e23608718cbd03,0,0,2024-02-27T09:23:12.830Z,french_950.wav,0,poule,3407,34,4,5,francais,m,0,0.0,6.46729125,1.1492664
5f85c88c61e23608718cbd03,0,0,2024-02-27T09:23:12.830Z,french_950.wav,0,poule,3407,34,4,5,francais,m,1,0.1,89.94723115,1.37343317
5f85c88c61e23608718cbd03,0,0,2024-02-27T09:23:12.830Z,french_950.wav,0,poule,3407,34,4,5,francais,m,2,0.2,33.92654299,1.07181876
5f85c88c61e23608718cbd03,0,0,2024-02-27T09:23:12.830Z,french_950.wav,0,poule,3407,34,4,5,francais,m,3,0.25666667,4.68690548,0.13073982
5f85c88c61e23608718cbd03,1,0,2024-02-27T09:23:12.830Z,french_832.wav,0,poule,1839,34,4,5,francais,m,0,0.0,72.4957568,1.55241154
5f85c88c61e23608718cbd03,1,0,2024-02-27T09:23:12.830Z,french_832.wav,0,poule,1839,34,4,5,francais,m,1,0.1,-42.52759542,0.51342339
5f85c88c61e23608718cbd03,1,0,2024-02-27T09:23:12.830Z,french_832.wav,0,poule,1839,34,4,5,francais,m,2,0.2,-19.34515336,1.23436829
5f85c88c61e23608718cbd03,1,0,2024-02-27T09:23:12.830Z,french_832.wav,0,poule,1839,34,4,5,francais,m,3,0.25666667,29.69631954,0.63501701
5f85c88c61e23608718cbd03,2,0,2024-02-27T09:23:12.830Z,french_781.wav,0,pull,5959,34,4,5,francais,m,0,0.0,33.25938538,1.27105286
5f85c88c61e23608718cbd03,2,0,2024-02-27T09:23:12.830Z,french_781.wav,0,pull,5959,34,4,5,francais,m,1,0.1,-13.90292419,0.93357863
5f85c88c61e23608718cbd03,2,0,2024-02-27T09:23:12.830Z,french_781.wav,0,pull,5959,34,4,5,francais,m,2,0.2,-71.59350782,1.0124146
5f85c88c61e23608718cbd03,2,0,2024-02-27T09:23:12.830Z,french_781.wav,0,pull,5959,34,4,5,francais,m,3,0.25666667,57.07291034,0.68511696
5f85c88c61e23608718cbd03,3,0,2024-02-27T09:23:12.830Z,french_454.wav,0,pull,2474,34,4,5,francais,m,0,0.0,-2.34959028,0.74247593
5f85c88c61e23608718cbd03,3,0,2024-02-27T09:23:12.830Z,french_454.wav,0,pull,2474,34,4,5,francais,m,1,0.1,-12.00596157,1.74271244
5f85c88c61e23608718cbd03,3,0,2024-02-27T09:23:12.830Z,french_454.wav,0,pull,2474,34,4,5,francais,m,2,0.2,53.09832594,0.67609159
5f85c88c61e23608718cbd03,3,0,2024-02-27T09:23:12.830Z,french_454.wav,0,pull,2474,34,4,5,francais,m,3,0.25666667,2.06709411,1.84499539
5f85c88c61e23608718cbd03,4,0,2024-02-27T09:23:12.830Z,french_613.wav,0,poule,2337,34,4,5,francais,m,0,0.0,-39.45599103,0.33894647
5f85c88c61e23608718cbd03,4,0,2024-02-27T09:23:12.830Z,french_613.wav,0,poule,2337,34,4,5,francais,m,1,0.1,37.73715393,0.28387009
5f85c88c61e23608718cbd03,4,0,2024-02-27T09:23:12.830Z,french_613.wav,0,poule,2337,34,4,5,francais,m,2,0.2,-28.02237212,1.91952712
5f85c88c61e23608718cbd03,4,0,2024-02-27T09:23:12.830Z,french_613.wav,0,poule,2337,34,4,5,francais,m,3,0.25666667,-24.74266242,0.2340562
5f85c88c61e23608718cbd03,5,0,2024-02-27T09:23:12.830Z,french_836.wav,0,poule,783,34,4,5,francais,m,0,0.0,40.23641464,0.42377088
5f85c88c61e23608718cbd03,5,0,2024-02-27T09:23:12.830Z,french_836.wav,0,poule,783,34,4,5,francais,m,1,0.1,53.79535187,0.63943013
5f85c88c61e23608718cbd03,5,0,2024-02-27T09:23:12.830Z,french_836.wav,0,poule,783,34,4,5,francais,m,2,0.2,-4.0789246,1.19242466
5f85c88c61e23608718cbd03,5,0,2024-02-27T09:23:12.830Z,french_836.wav,0,poule,783,34,4,5,francais,m,3,0.25666667,3.8536211,1.488673
5f85c88c61e23608718cbd03,6,0,2024-02-27T09:23:12.830Z,french_336.wav,0,pull,1134,34,4,5,francais,m,0,0.0,-59.08437243,0.65572155
5f85c88c61e23608718cbd03,6,0,2024-02-27T09:23:12.830Z,french_336.wav,0,pull,1134,34,4,5,francais,m,1,0.1,-11.33502928,1.68249373
5f85c88c61e23608718cbd03,6,0,2024-02-27T09:23:12.830Z,french_336.wav,0,pull,1134,34,4,5,francais,m,2,0.2,-8.85944942,0.52457197
5f85c88c61e23608718cbd03,6,0,2024-02-27T09:23:12.830Z,french_336.wav,0,pull,1134,34,4,5,francais,m,3,0.25666667,-2.33471857,1.1312199
5f85c88c61e23608718cbd03,7,0,2024-02-27T09:23:12.830Z,french_329.wav,0,pull,2844,34,4,5,francais,m,0,0.0,14.6954169,0.80369944
5f85c88c61e23608718cbd03,7,0,2024-02-27T09:23:12.830Z,french_329.wav,0,pull,2844,34,4,5,francais,m,1,0.1,-60.61079034,1.40829285
5f85c88c61e23608718cbd03,7,0,2024-02-27T09:23:12.830Z,french_329.wav,0,pull,2844,34,4,5,francais,m,2,0.2,-27.52715396,0.22971006
5f85c88c61e23608718cbd03,7,0,2024-02-27T09:23:12.830Z,french_329.wav,0,pull,2844,34,4,5,francais,m,3,0.25666667,-71.65343532,0.37653007
5f85c88c61e23608718cbd03,8,0,2024-02-27T09:23:12.830Z,french_260.wav,0,poule,2328,34,4,5,francais,m,0,0.0,-3.22947754,0.22766361
5f85c88c61e23608718cbd03,8,0,2024-02-27T09:23:12.830Z,french_260.wav,0,poule,2328,34,4,5,francais,m,1,0.1,-16.22535722,1.16747398
5f85c88c61e23608718cbd03,8,0,2024-02-27T09:23:12.830Z,french_260.wav,0,poule,2328,34,4,5,francais,m,2,0.2,-91.54207183,1.39667181
5f85c88c61e23608718cbd03,8,0,2024-02-27T09:23:12.830Z,french_260.wav,0,poule,2328,34,4,5,francais,m,3,0.25666667,-55.70642268,1.03484551
5f85c88c61e23608718cbd03,9,0,2024-02-27T09:23:12.830Z,french_99.wav,0,poule,2399,34,4,5,francais,m,0,0.0,82.47343156,0.8791919
5f85c88c61e23608718cbd03,9,0,2024-02-27T09:23:12.830Z,french_99.wav,0,poule,2399,34,4,5,francais,m,1,0.1,79.23143861,0.93561146
5f85c88c61e23608718cbd03,9,0,2024-02-27T09:23:12.830Z,french_99.wav,0,poule,2399,34,4,5,francais,m,2,0.2,34.81001375,1.15477002
5f85c88c61e23608718cbd03,9,0,2024-02-27T09:23:12.830Z,french_99.wav,0,poule,2399,34,4,5,francais,m,3,0.25666667,28.26612214,0.77336938
5f85c88c61e23608718cbd03,10,0,2024-02-27T09:23:12.830Z,french_700.wav,0,pull,2612,34,4,5,francais,m,0,0.0,27.78595998,1.84943535
5f85c88c61e23608718cbd03,10,0,2024-02-27T09:23:12.830Z,french_700.wav,0,pull,2612,34,4,5,francais,m,1,0.1,-29.96160528,0.52483958
5f85c88c61e23608718cbd03,10,0,2024-02-27T09:23:12.830Z,french_700.wav,0,pull,2612,34,4,5,francais,m,2,0.2,60.6733782,0.55672926
5f85c88c61e23608718cbd03,10,0,2024-02-27T09:23:12.830Z,french_700.wav,0,pull,2612,34,4,5,francais,m,3,0.25666667,39.12324738,0.96842636
5f85c88c61e23608718cbd03,11,0,2024-02-27T09:23:12.830Z,french_14.wav,0,poule,1232,34,4,5,francais,m,0,0.0,29.04259121,1.27596418
5f85c88c61e23608718cbd03,11,0,2024-02-27T09:23:12.830Z,french_14.wav,0,poule,1232,34,4,5,francais,m,1,0.1,-13.93862831,1.81664743
5f85c88c61e23608718cbd03,11,0,2024-02-27T09:23:12.830Z,french_14.wav,0,poule,1232,34,4,5,francais,m,2,0.2,-3.57455278,1.61822265
5f85c88c61e23608718cbd03,11,0,2024-02-27T09:23:12.830Z,french_14.wav,0,poule,1232,34,4,5,francais,m,3,0.25666667,14.81088412,1.58848758
5f85c88c61e23608718cbd03,12,0,2024-02-27T09:23:12.830Z,french_850.wav,0,pull,1499,34,4,5,francais,m,0,0.0,-88.87179188,0.91597825
5f85c88c61e23608718cbd03,12,0,2024-02-27T09:23:12.830Z,french_850.wav,0,pull,1499,34,4,5,francais,m,1,0.1,15.70736636,0.21425776
5f85c88c61e23608718cbd03,12,0,2024-02-27T09:23:12.830Z,french_850.wav,0,pull,1499,34,4,5,francais,m,2,0.2,67.7730952,1.52338939
5f85c88c61e23608718cbd03,12,0,2024-02-27T09:23:12.830Z,french_850.wav,0,pull,1499,34,4,5,francais,m,3,0.25666667,-20.3872908,0.55241946
5f85c88c61e23608718cbd03,13,0,2024-02-27T09:23:12.830Z,french_733.wav,0,poule,1096,34,4,5,francais,m,0,0.0,96.30835656,1.00234216
5f85c88c61e23608718cbd03,13,0,2024-02-27T09:23:12.830Z,french_733.wav,0,poule,1096,34,4,5,francais,m,1,0.1,-16.80147809,0.65355169
5f85c88c61e23608718cbd03,13,0,2024-02-27T09:23:12.830Z,french_733.wav,0,poule,1096,34,4,5,francais,m,2,0.2,34.50045069,1.63394937
5f85c88c61e23608718cbd03,13,0,2024-02-27T09:23:12.830Z,french_733.wav,0,poule,1096,34,4,5,francais,m,3,0.25666667,-6.11336577,0.15404628
5f85c88c61e23608718cbd03,14,0,2024-02-27T09:23:12.830Z,french_451.wav,0,poule,2010,34,4,5,francais,m,0,0.0,4.63188994,1.82787098
5f85c88c61e23608718cbd03,14,0,2024-02-27T09:23:12.830Z,french_451.wav,0,poule,2010,34,4,5,francais,m,1,0.1,28.08955108,0.29502826
5f85c88c61e23608718cbd03,14,0,2024-02-27T09:23:12.830Z,french_451.wav,0,poule,2010,34,4,5,francais,m,2,0.2,71.15157801,0.14883578
5f85c88c61e23608718cbd03,14,0,2024-02-27T09:23:12.830Z,french_451.wav,0,poule,2010,34,4,5,francais,m,3,0.25666667,-28.31676071,0.64245631
5f85c88c61e23608718cbd03,15,0,2024-02-27T09:23:12.830Z,french_860.wav,0,poule,1407,34,4,5,francais,m,0,0.0,33.37389434,1.87718004
5f85c88c61e23608718cbd03,15,0,2024-02-27T09:23:12.830Z,french_860.wav,0,poule,1407,34,4,5,francais,m,1,0.1,66.22312498,1.50950791
5f85c88c61e23608718cbd03,15,0,2024-02-27T09:23:12.830Z,french_860.wav,0,poule,1407,34,4,5,francais,m,2,0.2,-4.57961146,0.09437067
5f85c88c61e23608718cbd03,15,0,2024-02-27T09:23:12.830Z,french_860.wav,0,poule,1407,34,4,5,francais,m,3,0.25666667,50.69207221,1.19183747
5f85c88c61e23608718cbd03,16,0,2024-02-27T09:23:12.830Z,french_911.wav,0,pull,3117,34,4,5,francais,m,0,0.0,11.85203828,0.91676267
5f85c88c61e23608718cbd03,16,0,2024-02-27T09:23:12.830Z,french_911.wav,0,pull,3117,34,4,5,francais,m,1,0.1,-24.36206963,0.3897793
5f85c88c61e23608718cbd03,16,0,2024-02-27T09:23:12.830Z,french_911.wav,0,pull,3117,34,4,5,francais,m,2,0.2,-79.91713821,0.96594055
5f85c88c61e23608718cbd03,16,0,2024-02-27T09:23:12.830Z,french_911.wav,0,pull,3117,34,4,5,francais,m,3,0.25666667,-65.93332008,1.97851167
5f85c88c61e23608718cbd03,17,0,2024-02-27T09:23:12.830Z,french_808.wav,0,pull,889,34,4,5,francais,m,0,0.0,-62.09526538,1.28254738
5f85c88c61e23608718cbd03,17,0,2024-02-27T09:23:12.830Z,french_808.wav,0,pull,889,34,4,5,francais,m,1,0.1,21.23234707,0.50843795
5f85c88c61e23608718cbd03,17,0,2024-02-27T09:23:12.830Z,french_808.wav,0,pull,889,34,4,5,francais,m,2,0.2,-93.15759374,0.88416038
5f85c88c61e23608718cbd03,17,0,2024-02-27T09:23:12.830Z,french_808.wav,0,pull,889,34,4,5,francais,m,3,0.25666667,-35.4638748,1.60061847
5f85c88c61e23608718cbd03,18,0,2024-02-27T09:23:12.830Z,french_270.wav,0,poule,1128,34,4,5,francais,m,0,0.0,-78.86827529,1.67831185
5f85c88c61e23608718cbd03,18,0,2024-02-27T09:23:12.830Z,french_270.wav,0,poule,1128,34,4,5,francais,m,1,0.1,-82.37829284,0.76287252
5f85c88c61e23608718cbd03,18,0,2024-02-27T09:23:12.830Z,french_270.wav,0,poule,1128,34,4,5,francais,m,2,0.2,-56.83639547,1.7160191
5f85c88c61e23608718cbd03,18,0,2024-02-27T09:23:12.830Z,french_270.wav,0,poule,1128,34,4,5,francais,m,3,0.25666667,11.60888519,0.82403755
5f85c88c61e23608718cbd03,19,0,2024-02-27T09:23:12.830Z,french_128.wav,0,pull,1506,34,4,5,francais,m,0,0.0,-0.75176629,0.45078366
5f85c88c61e23608718cbd03,19,0,2024-02-27T09:23:12.830Z,french_128.wav,0,pull,1506,34,4,5,francais,m,1,0.1,-3.23197706,0.83766587
5f85c88c61e23608718cbd03,19,0,2024-02-27T09:23:12.830Z,french_128.wav,0,pull,1506,34,4,5,francais,m,2,0.2,64.47029617,1.36622775
5f85c88c61e23608718cbd03,19,0,2024-02-27T09:23:12.830Z,french_128.wav,0,pull,1506,34,4,5,francais,m,3,0.25666667,94.12909321,1.47043343
5f85c88c61e23608718cbd03,20,0,2024-02-27T09:23:12.830Z,french_249.wav,0,poule,1558,34,4,5,francais,m,0,0.0,-14.62389142,0.54824935
5f85c88c61e23608718cbd03,20,0,2024-02-27T09:23:12.830Z,french_249.wav,0,poule,1558,34,4,5,francais,m,1,0.1,82.35169727,0.81625332
5f85c88c61e23608718cbd03,20,0,2024-02-27T09:23:12.830Z,french_249.wav,0,poule,1558,34,4,5,francais,m,2,0.2,-37.79288698,0.28914805
5f85c88c61e23608718cbd03,20,0,2024-02-27T09:23:12.830Z,french_249.wav,0,poule,1558,34,4,5,francais,m,3,0.25666667,-94.5306765,0.43241605
5f85c88c61e23608718cbd03,21,0,2024-02-27T09:23:12.830Z,french_775.wav,0,poule,792,34,4,5,francais,m,0,0.0,-25.73289632,0.08278175
5f85c88c61e23608718cbd03,21,0,2024-02-27T09:23:12.830Z,french_775.wav,0,poule,792,34,4,5,francais,m,1,0.1,52.55800123,0.7848412
5f85c88c61e23608718cbd03,21,0,2024-02-27T09:23:12.830Z,french_775.wav,0,poule,792,34,4,5,francais,m,2,0.2,-82.88064372,1.99473571
5f85c88c61e23608718cbd03,21,0,2024-02-27T09:23:12.830Z,french_775.wav,0,poule,792,34,4,5,francais,m,3,0.25666667,71.02003497,0.87564379
5f85c88c61e23608718cbd03,22,0,2024-02-27T09:23:12.830Z,french_969.wav,0,poule,656,34,4,5,francais,m,0,0.0,-10.47620341,0.56181474
5f85c88c61e23608718cbd03,22,0,2024-02-27T09:23:12.830Z,french_969.wav,0,poule,656,34,4,5,francais,m,1,0.1,-9.05898311,1.62172025
5f85c88c61e23608718cbd03,22,0,2024-02-27T09:23:12.830Z,french_969.wav,0,poule,656,34,4,5,francais,m,2,0.2,-40.12378042,1.31687422
5f85c88c61e23608718cbd03,22,0,2024-02-27T09:23:12.830Z,french_969.wav,0,poule,656,34,4,5,francais,m,3,0.25666667,9.74664574,0.40962586
5f85c88c61e23608718cbd03,23,0,2024-02-27T09:23:12.830Z,french_753.wav,0,poule,1077,34,4,5,francais,m,0,0.0,-59.12708259,1.15236918
5f85c88c61e23608718cbd03,23,0,2024-02-27T09:23:12.830Z,french_753.wav,0,poule,1077,34,4,5,francais,m,1,0.1,-84.15149344,1.24278656
5f85c88c61e23608718cbd03,23,0,2024-02-27T09:23:12.830Z,french_753.wav,0,poule,1077,34,4,5,francais,m,2,0.2,-30.31197396,0.56738218
5f85c88c61e23608718cbd03,23,0,2024-02-27T09:23:12.830Z,french_753.wav,0,poule,1077,34,4,5,francais,m,3,0.25666667,-23.11550189,0.65045955
5f85c88c61e23608718cbd03,24,0,2024-02-27T09:23:12.830Z,french_666.wav,0,poule,2130,34,4,5,francais,m,0,0.0,51.58977068,0.51416215
5f85c88c61e23608718cbd03,24,0,2024-02-27T09:23:12.830Z,french_666.wav,0,poule,2130,34,4,5,francais,m,1,0.1,81.806625,0.1213722
5f85c88c61e23608718cbd03,24,0,2024-02-27T09:23:12.830Z,french_666.wav,0,poule,2130,34,4,5,francais,m,2,0.2,10.32462757,1.14435945
5f85c88c61e23608718cbd03,24,0,2024-02-27T09:23:12.830Z,french_666.wav,0,poule,2130,34,4,5,francais,m,3,0.25666667,-51.25764779,1.68381456
5f85c88c61e23608718cbd03,25,0,2024-02-27T09:23:12.830Z,french_804.wav,0,poule,1619,34,4,5,francais,m,0,0.0,26.75542793,1.45857154
5f85c88c61e23608718cbd03,25,0,2024-02-27T09:23:12.830Z,french_804.wav,0,poule,1619,34,4,5,francais,m,1,0.1,-36.26520541,0.22938299
5f85c88c61e23608718cbd03,25,0,2024-02-27T09:23:12.830Z,french_804.wav,0,poule,1619,34,4,5,francais,m,2,0.2,56.17292919,1.23693855
5f85c88c61e23608718cbd03,25,0,2024-02-27T09:23:12.830Z,french_804.wav,0,poule,1619,34,4,5,francais,m,3,0.25666667,8.82571189,1.26994951
5f85c88c61e23608718cbd03,26,0,2024-02-27T09:23:12.830Z,french_199.wav,0,poule,1180,34,4,5,francais,m,0,0.0,-60.03977098,1.87963745
5f85c88c61e23608718cbd03,26,0,2024-02-27T09:23:12.830Z,french_199.wav,0,poule,1180,34,4,5,francais,m,1,0.1,7.3213083,1.19076365
5f85c88c61e23608718cbd03,26,0,2024-02-27T09:23:12.830Z,french_199.wav,0,poule,1180,34,4,5,francais,m,2,0.2,-32.97621994,1.00205813
5f85c88c61e23608718cbd03,26,0,2024-02-27T09:23:12.830Z,french_199.wav,0,poule,1180,34,4,5,francais,m,3,0.25666667,90.87482197,1.05600478
5f85c88c61e23608718cbd03,27,0,2024-02-27T09:23:12.830Z,french_790.wav,0,pull,3362,34,4,5,francais,m,0,0.0,-78.0899986,0.03777082
5f85c88c61e23608718cbd03,27,0,2024-02-27T09:23:12.830Z,french_790.wav,0,pull,3362,34,4,5,francais,m,1,0.1,-13.38999599,1.54425687
5f85c88c61e23608718cbd03,27,0,2024-02-27T09:23:12.830Z,french_790.wav,0,pull,3362,34,4,5,francais,m,2,0.2,-59.88967217,0.07634696
5f85c88c61e23608718cbd03,27,0,2024-02-27T09:23:12.830Z,french_790.wav,0,pull,3362,34,4,5,francais,m,3,0.25666667,34.06701256,1.62279479
5f85c88c61e23608718cbd03,28,0,2024-02-27T09:23:12.830Z,french_424.wav,0,poule,2652,34,4,5,francais,m,0,0.0,61.39777876,0.24361375
5f85c88c61e23608718cbd03,28,0,2024-02-27T09:23:12.830Z,french_424.wav,0,poule,2652,34,4,5,francais,m,1,0.1,-8.76552132,1.04711526
5f85c88c61e23608718cbd03,28,0,2024-02-27T09:23:12.830Z,french_424.wav,0,poule,2652,34,4,5,francais,m,2,0.2,33.4280736,1.33335174
5f85c88c61e23608718cbd03,28,0,2024-02-27T09:23:12.830Z,french_424.wav,0,poule,2652,34,4,5,francais,m,3,0.25666667,8.6823295,0.59077303
5f85c88c61e23608718cbd03,29,0,2024-02-27T09:23:12.830Z,french_629.wav,0,poule,2398,34,4,5,francais,m,0,0.0,81.54997922,0.65130664
5f85c88c61e23608718cbd03,29,0,2024-02-27T09:23:12.830Z,french_629.wav,0,poule,2398,34,4,5,francais,m,1,0.1,-25.83506989,0.18523019
5f85c88c61e23608718cbd03,29,0,2024-02-27T09:23:12.830Z,french_629.wav,0,poule,2398,34,4,5,francais,m,2,0.2,-50.62902687,1.20696076
5f85c88c61e23608718cbd03,29,0,2024-02-27T09:23:12.830Z,french_629.wav,0,poule,2398,34,4,5,francais,m,3,0.25666667,-69.1271608,0.57946161
5f85c88c61e23608718cbd03,30,0,2024-02-27T09:23:12.830Z,french_612.wav,0,pull,928,34,4,5,francais,m,0,0.0,43.10783066,0.49686358
5f85c88c61e23608718cbd03,30,0,2024-02-27T09:23:12.830Z,french_612.wav,0,pull,928,34,4,5,francais,m,1,0.1,-4.14995098,1.10500502
5f85c88c61e23608718cbd03,30,0,2024-02-27T09:23:12.830Z,french_612.wav,0,pull,928,34,4,5,francais,m,2,0.2,22.17563662,0.22222502
5f85c88c61e23608718cbd03,30,0,2024-02-27T09:23:12.830Z,french_612.wav,0,pull,928,34,4,5,francais,m,3,0.25666667,-48.75850842,1.14111641
5f85c88c61e23608718cbd03,31,0,2024-02-27T09:23:12.830Z,french_884.wav,0,poule,559,34,4,5,francais,m,0,0.0,44.18626496,0.26295785
5f85c88c61e23608718cbd03,31,0,2024-02-27T09:23:12.830Z,french_884.wav,0,poule,559,34,4,5,francais,m,1,0.1,-64.95611773,1.5401655
5f85c88c61e23608718cbd03,31,0,2024-02-27T09:23:12.830Z,french_884.wav,0,poule,559,34,4,5,francais,m,2,0.2,-49.1644617,1.25089254
5f85c88c61e23608718cbd03,31,0,2024-02-27T09:23:12.830Z,french_884.wav,0,poule,559,34,4,5,francais,m,3,0.25666667,-37.6294576,1.82171191
5f85c88c61e23608718cbd03,32,0,2024-02-27T09:23:12.830Z,french_67.wav,0,pull,830,34,4,5,francais,m,0,0.0,-85.58948589,0.63200809
5f85c88c61e23608718cbd03,32,0,2024-02-27T09:23:12.830Z,french_67.wav,0,pull,830,34,4,5,francais,m,1,0.1,13.09838054,1.95867716
5f85c88c61e23608718cbd03,32,0,2024-02-27T09:23:12.830Z,french_67.wav,0,pull,830,34,4,5,francais,m,2,0.2,-56.56906679,0.48937635
5f85c88c61e23608718cbd03,32,0,2024-02-27T09:23:12.830Z,french_67.wav,0,pull,830,34,4,5,francais,m,3,0.25666667,57.4599261,1.24156625
5f85c88c61e23608718cbd03,33,0,2024-02-27T09:23:12.830Z,french_109.wav,0,pull,1411,34,4,5,francais,m,0,0.0,-57.66612313,0.91141338
5f85c88c61e23608718cbd03,33,0,2024-02-27T09:23:12.830Z,french_109.wav,0,pull,1411,34,4,5,francais,m,1,0.1,-72.54090479,1.63809523
5f85c88c61e23608718cbd03,33,0,2024-02-27T09:23:12.830Z,french_109.wav,0,pull,1411,34,4,5,francais,m,2,0.2,-5.66573875,1.08686957
5f85c88c61e23608718cbd03,33,0,2024-02-27T09:23:12.830Z,french_109.wav,0,pull,1411,34,4,5,francais,m,3,0.25666667,-86.22212262,0.85420458
5f85c88c61e23608718cbd03,34,0,2024-02-27T09:23:12.830Z,french_89.wav,0,poule,1473,34,4,5,francais,m,0,0.0,-79.59355323,1.69180454
5f85c88c61e23608718cbd03,34,0,2024-02-27T09:23:12.830Z,french_89.wav,0,poule,1473,34,4,5,francais,m,1,0.1,-86.9945706,1.08047967
5f85c88c61e23608718cbd03,34,0,2024-02-27T09:23:12.830Z,french_89.wav,0,poule,1473,34,4,5,francais,m,2,0.2,81.38410409,1.92177075
5f85c88c61e23608718cbd03,34,0,2024-02-27T09:23:12.830Z,french_89.wav,0,poule,1473,34,4,5,francais,m,3,0.25666667,-11.31628481,1.93759104
5f85c88c61e23608718cbd03,35,0,2024-02-27T09:23:12.830Z,french_415.wav,0,pull,625,34,4,5,francais,m,0,0.0,-78.44301617,1.61962555
5f85c88c61e23608718cbd03,35,0,2024-02-27T09:23:12.830Z,french_415.wav,0,pull,625,34,4,5,francais,m,1,0.1,84.17180311,0.78674907
5f85c88c61e23608718cbd03,35,0,2024-02-27T09:23:12.830Z,french_415.wav,0,pull,625,34,4,5,francais,m,2,0.2,32.05176365,0.83302444
5f85c88c61e23608718cbd03,35,0,2024-02-27T09:23:12.830Z,french_415.wav,0,pull,625,34,4,5,francais,m,3,0.25666667,1.79049447,0.85177262
5f85c88c61e23608718cbd03,36,0,2024-02-27T09:23:12.830Z,french_23.wav,0,pull,877,34,4,5,francais,m,0,0.0,60.31001525,1.86606536
5f85c88c61e23608718cbd03,36,0,2024-02-27T09:23:12.830Z,french_23.wav,0,pull,877,34,4,5,francais,m,1,0.1,-66.5420171,0.5728784
5f85c88c61e23608718cbd03,36,0,2024-02-27T09:23:12.830Z,french_23.wav,0,pull,877,34,4,5,francais,m,2,0.2,63.07925381,0.71513043
5f85c88c61e23608718cbd03,36,0,2024-02-27T09:23:12.830Z,french_23.wav,0,pull,877,34,4,5,francais,m,3,0.25666667,-69.51509132,1.52612213
5f85c88c61e23608718cbd03,37,0,2024-02-27T09:23:12.830Z,french_964.wav,0,poule,584,34,4,5,francais,m,0,0.0,-56.07629317,1.19943116
5f85c88c61e23608718cbd03,37,0,2024-02-27T09:23:12.830Z,french_964.wav,0,poule,584,34,4,5,francais,m,1,0.1,-19.45500988,0.89458005
5f85c88c61e23608718cbd03,37,0,2024-02-27T09:23:12.830Z,french_964.wav,0,poule,584,34,4,5,francais,m,2,0.2,97.83653085,1.94180509
5f85c88c61e23608718cbd03,37,0,2024-02-27T09:23:12.830Z,french_964.wav,0,poule,584,34,4,5,francais,m,3,0.25666667,70.5600413,0.3273771
5f85c88c61e23608718cbd03,38,0,2024-02-27T09:23:12.830Z,french_341.wav,0,poule,1589,34,4,5,francais,m,0,0.0,20.04332725,1.4438644
5f85c88c61e23608718cbd03,38,0,2024-02-27T09:23:12.830Z,french_341.wav,0,poule,1589,34,4,5,francais,m,1,0.1,-82.29685822,0.08336385
5f85c88c61e23608718cbd03,38,0,2024-02-27T09:23:12.830Z,french_341.wav,0,poule,1589,34,4,5,francais,m,2,0.2,-35.12302466,0.04329086
5f85c88c61e23608718cbd03,38,0,2024-02-27T09:23:12.830Z,french_341.wav,0,poule,1589,34,4,5,francais,m,3,0.25666667,58.90486556,0.76896482
5f85c88c61e23608718cbd03,39,0,2024-02-27T09:23:12.830Z,french_368.wav,0,poule,1355,34,4,5,francais,m,0,0.0,-50.29275674,1.3762211
5f85c88c61e23608718cbd03,39,0,2024-02-27T09:23:12.830Z,french_368.wav,0,poule,1355,34,4,5,francais,m,1,0.1,-46.19812301,0.86881993
5f85c88c61e23608718cbd03,39,0,2024-02-27T09:23:12.830Z,french_368.wav,0,poule,1355,34,4,5,francais,m,2,0.2,11.95097834,1.63580042
5f85c88c61e23608718cbd03,39,0,2024-02-27T09:23:12.830Z,french_368.wav,0,poule,1355,34,4,5,francais,m,3,0.25666667,56.55273669,0.08134077
5f85c88c61e23608718cbd03,40,0,2024-02-27T09:23:12.830Z,french_244.wav,0,poule,840,34,4,5,francais,m,0,0.0,-1.19097064,0.99374935
5f85c88c61e23608718cbd03,40,0,2024-02-27T09:23:12.830Z,french_244.wav,0,poule,840,34,4,5,francais,m,1,0.1,-92.85229973,0.05831089
5f85c88c61e23608718cbd03,40,0,2024-02-27T09:23:12.830Z,french_244.wav,0,poule,840,34,4,5,francais,m,2,0.2,-96.93666457,1.01399938
5f85c88c61e23608718cbd03,40,0,2024-02-27T09:23:12.830Z,french_244.wav,0,poule,840,34,4,5,francais,m,3,0.25666667,-48.92774089,0.05507298
5f85c88c61e23608718cbd03,41,0,2024-02-27T09:23:12.830Z,french_74.wav,0,pull,618,34,4,5,francais,m,0,0.0,50.9707996,1.5114138
5f85c88c61e23608718cbd03,41,0,2024-02-27T09:23:12.830Z,french_74.wav,0,pull,618,34,4,5,francais,m,1,0.1,-38.59052132,1.75968469
5f85c88c61e23608718cbd03,41,0,2024-02-27T09:23:12.830Z,french_74.wav,0,pull,618,34,4,5,francais,m,2,0.2,-99.50726314,0.36574043
5f85c88c61e23608718cbd03,41,0,2024-02-27T09:23:12.830Z,french_74.wav,0,pull,618,34,4,5,francais,m,3,0.25666667,55.85777384,0.66231561
5f85c88c61e23608718cbd03,42,0,2024-02-27T09:23:12.830Z,french_538.wav,0,pull,1414,34,4,5,francais,m,0,0.0,-62.11881418,0.72316351
5f85c88c61e23608718cbd03,42,0,2024-02-27T09:23:12.830Z,french_538.wav,0,pull,1414,34,4,5,francais,m,1,0.1,-49.1326041,0.52652182
5f85c88c61e23608718cbd03,42,0,2024-02-27T09:23:12.830Z,french_538.wav,0,pull,1414,34,4,5,francais,m,2,0.2,11.48721962,0.30218135
5f85c88c61e23608718cbd03,42,0,2024-02-27T09:23:12.830Z,french_538.wav,0,pull,1414,34,4,5,francais,m,3,0.25666667,-26.18142206,1.69243497
5f85c88c61e23608718cbd03,43,0,2024-02-27T09:23:12.830Z,french_650.wav,0,poule,540,34,4,5,francais,m,0,0.0,-98.04674504,0.50091073
5f85c88c61e23608718cbd03,43,0,2024-02-27T09:23:12.830Z,french_650.wav,0,poule,540,34,4,5,francais,m,1,0.1,-80.1546697,0.94744897
5f85c88c61e23608718cbd03,43,0,2024-02-27T09:23:12.830Z,french_650.wav,0,poule,540,34,4,5,francais,m,2,0.2,-60.9727692,0.76656919
5f85c88c61e23608718cbd03,43,0,2024-02-27T09:23:12.830Z,french_650.wav,0,poule,540,34,4,5,francais,m,3,0.25666667,39.39299736,1.29747512
5f85c88c61e23608718cbd03,44,0,2024-02-27T09:23:12.830Z,french_721.wav,0,poule,1695,34,4,5,francais,m,0,0.0,83.32262744,0.77898197
5f85c88c61e23608718cbd03,44,0,2024-02-27T09:23:12.830Z,french_721.wav,0,poule,1695,34,4,5,francais,m,1,0.1,53.43911967,1.2749748
5f85c88c61e23608718cbd03,44,0,2024-02-27T09:23:12.830Z,french_721.wav,0,poule,1695,34,4,5,francais,m,2,0.2,45.88272958,1.13618558
5f85c88c61e23608718cbd03,44,0,2024-02-27T09:23:12.830Z,french_721.wav,0,poule,1695,34,4,5,francais,m,3,0.25666667,34.59804534,1.96642304
5f85c88c61e23608718cbd03,45,0,2024-02-27T09:23:12.830Z,french_400.wav,0,pull,643,34,4,5,francais,m,0,0.0,-93.78872851,1.79390568
5f85c88c61e23608718cbd03,45,0,2024-02-27T09:23:12.830Z,french_400.wav,0,pull,643,34,4,5,francais,m,1,0.1,52.09991665,0.45516445
5f85c88c61e23608718cbd03,45,0,2024-02-27T09:23:12.830Z,french_400.wav,0,pull,643,34,4,5,francais,m,2,0.2,99.5217597,0.71943881
5f85c88c61e23608718cbd03,45,0,2024-02-27T09:23:12.830Z,french_400.wav,0,pull,643,34,4,5,francais,m,3,0.25666667,34.2913143,0.66600511
5f85c88c61e23608718cbd03,46,0,2024-02-27T09:23:12.830Z,french_73.wav,0,poule,518,34,4,5,francais,m,0,0.0,79.91377479,0.94290919
5f85c88c61e23608718cbd03,46,0,2024-02-27T09:23:12.830Z,french_73.wav,0,poule,518,34,4,5,francais,m,1,0.1,21.44914026,0.58511712
5f85c88c61e23608718cbd03,46,0,2024-02-27T09:23:12.830Z,french_73.wav,0,poule,518,34,4,5,francais,m,2,0.2,94.23892751,1.07660977
5f85c88c61e23608718cbd03,46,0,2024-02-27T09:23:12.830Z,french_73.wav,0,poule,518,34,4,5,francais,m,3,0.25666667,-26.36168046,0.0399298
5f85c88c61e23608718cbd03,47,0,2024-02-27T09:23:12.830Z,french_536.wav,0,poule,715,34,4,5,francais,m,0,0.0,68.67423581,1.72386473
5f85c88c61e23608718cbd03,47,0,2024-02-27T09:23:12.830Z,french_536.wav,0,poule,715,34,4,5,francais,m,1,0.1,-41.0053329,0.5365144
5f85c88c61e23608718cbd03,47,0,2024-02-27T09:23:12.830Z,french_536.wav,0,poule,715,34,4,5,francais,m,2,0.2,83.63020031,1.03248729
5f85c88c61e23608718cbd03,47,0,2024-02-27T09:23:12.830Z,french_536.wav,0,poule,715,34,4,5,francais,m,3,0.25666667,91.23175369,0.91736707
5f85c88c61e23608718cbd03,48,0,2024-02-27T09:23:12.830Z,french_223.wav,0,pull,906,34,4,5,francais,m,0,0.0,4.95143367,1.93703508
5f85c88c61e23608718cbd03,48,0,2024-02-27T09:23:12.830Z,french_223.wav,0,pull,906,34,4,5,francais,m,1,0.1,55.42619629,0.30698411
5f85c88c61e23608718cbd03,48,0,2024-02-27T09:23:12.830Z,french_223.wav,0,pull,906,34,4,5,francais,m,2,0.2,77.82995017,0.10644958
5f85c88c61e23608718cbd03,48,0,2024-02-27T09:23:12.830Z,french_223.wav,0,pull,906,34,4,5,francais,m,3,0.25666667,-85.84724551,0.25911965
5f85c88c61e23608718cbd03,49,0,2024-02-27T09:23:12.830Z,french_785.wav,0,poule,572,34,4,5,francais,m,0,0.0,-85.51822201,1.39201941
5f85c88c61e23608718cbd03,49,0,2024-02-27T09:23:12.830Z,french_785.wav,0,poule,572,34,4,5,francais,m,1,0.1,-3.83792251,0.93814534
5f85c88c61e23608718cbd03,49,0,2024-02-27T09:23:12.830Z,french_785.wav,0,poule,572,34,4,5,francais,m,2,0.2,45.88945115,0.59493864
5f85c88c61e23608718cbd03,49,0,2024-02-27T09:23:12.830Z,french_785.wav,0,poule,572,34,4,5,francais,m,3,0.25666667,38.51931882,0.08649149
5f85c88c61e23608718cbd03,50,1,2024-02-27T09:26:03.917Z,french_362.wav,0,pull,1931,34,4,5,francais,m,0,0.0,-5.18125688,1.66521149
5f85c88c61e23608718cbd03,50,1,2024-02-27T09:26:03.917Z,french_362.wav,0,pull,1931,34,4,5,francais,m,1,0.1,-33.24228679,1.63330091
5f85c88c61e23608718cbd03,50,1,2024-02-27T09:26:03.917Z,french_362.wav,0,pull,1931,34,4,5,francais,m,2,0.2,13.99395474,0.18995652
5f85c88c61e23608718cbd03,50,1,2024-02-27T09:26:03.917Z,french_362.wav,0,pull,1931,34,4,5,francais,m,3,0.25666667,-44.70505318,0.66219279
5f85c88c61e23608718cbd03,51,1,2024-02-27T09:26:03.917Z,french_816.wav,0,poule,966,34,4,5,francais,m,0,0.0,-39.39804621,1.26291691
5f85c88c61e23608718cbd03,51,1,2024-02-27T09:26:03.917Z,french_816.wav,0,poule,966,34,4,5,francais,m,1,0.1,14.23792488,1.60181117
5f85c88c61e23608718cbd03,51,1,2024-02-27T09:26:03.917Z,french_816.wav,0,poule,966,34,4,5,francais,m,2,0.2,-84.08825282,0.57012939
5f85c88c61e23608718cbd03,51,1,2024-02-27T09:26:03.917Z,french_816.wav,0,poule,966,34,4,5,francais,m,3,0.25666667,-46.46940665,1.06315664
5f85c88c61e23608718cbd03,52,1,2024-02-27T09:26:03.917Z,french_279.wav,0,poule,675,34,4,5,francais,m,0,0.0,-82.72654322,1.91034617
5f85c88c61e23608718cbd03,52,1,2024-02-27T09:26:03.917Z,french_279.wav,0,poule,675,34,4,5,francais,m,1,0.1,51.19533055,0.35578453
5f85c88c61e23608718cbd03,52,1,2024-02-27T09:26:03.917Z,french_279.wav,0,poule,675,34,4,5,francais,m,2,0.2,81.3850192,1.45645662
5f85c88c61e23608718cbd03,52,1,2024-02-27T09:26:03.917Z,french_279.wav,0,poule,675,34,4,5,francais,m,3,0.25666667,12.9967417,1.34605049
5f85c88c61e23608718cbd03,53,1,2024-02-27T09:26:03.917Z,french_557.wav,0,poule,745,34,4,5,francais,m,0,0.0,-4.17762648,0.38732741
5f85c88c61e23608718cbd03,53,1,2024-02-27T09:26:03.917Z,french_557.wav,0,poule,745,34,4,5,francais,m,1,0.1,91.9464138,1.58225164
5f85c88c61e23608718cbd03,53,1,2024-02-27T09:26:03.917Z,french_557.wav,0,poule,745,34,4,5,francais,m,2,0.2,-21.05895405,1.02633772
5f85c88c61e23608718cbd03,53,1,2024-02-27T09:26:03.917Z,french_557.wav,0,poule,745,34,4,5,francais,m,3,0.25666667,45.17146044,0.5187484
5f85c88c61e23608718cbd03,54,1,2024-02-27T09:26:03.917Z,french_568.wav,0,pull,1653,34,4,5,francais,m,0,0.0,-18.10302265,1.34189827
5f85c88c61e23608718cbd03,54,1,2024-02-27T09:26:03.917Z,french_568.wav,0,pull,1653,34,4,5,francais,m,1,0.1,9.93139794,1.47029794
5f85c88c61e23608718cbd03,54,1,2024-02-27T09:26:03.917Z,french_568.wav,0,pull,1653,34,4,5,francais,m,2,0.2,91.46195775,0.17269775
5f85c88c61e23608718cbd03,54,1,2024-02-27T09:26:03.917Z,french_568.wav,0,pull,1653,34,4,5,francais,m,3,0.25666667,56.10040773,1.22679594
5f85c88c61e23608718cbd03,55,1,2024-02-27T09:26:03.917Z,french_160.wav,0,poule,482,34,4,5,francais,m,0,0.0,94.580754,1.48632924
5f85c88c61e23608718cbd03,55,1,2024-02-27T09:26:03.917Z,french_160.wav,0,poule,482,34,4,5,francais,m,1,0.1,-77.59057929,0.83284567
5f85c88c61e23608718cbd03,55,1,2024-02-27T09:26:03.917Z,french_160.wav,0,poule,482,34,4,5,francais,m,2,0.2,49.28871101,1.32543638
5f85c88c61e23608718cbd03,55,1,2024-02-27T09:26:03.917Z,french_160.wav,0,poule,482,34,4,5,francais,m,3,0.25666667,54.34008904,1.18016963
5f85c88c61e23608718cbd03,56,1,2024-02-27T09:26:03.917Z,french_423.wav,0,poule,1175,34,4,5,francais,m,0,0.0,80.03290271,0.31618382
5f85c88c61e23608718cbd03,56,1,2024-02-27T09:26:03.917Z,french_423.wav,0,poule,1175,34,4,5,francais,m,1,0.1,-33.72349736,0.81153422
5f85c88c61e23608718cbd03,56,1,2024-02-27T09:26:03.917Z,french_423.wav,0,poule,1175,34,4,5,francais,m,2,0.2,-38.14858153,0.21197718
5f85c88c61e23608718cbd03,56,1,2024-02-27T09:26:03.917Z,french_423.wav,0,poule,1175,34,4,5,francais,m,3,0.25666667,-48.66398852,0.41633142
5f85c88c61e23608718cbd03,57,1,2024-02-27T09:26:03.917Z,french_537.wav,0,poule,1007,34,4,5,francais,m,0,0.0,24.94182708,0.83905816
5f85c88c61e23608718cbd03,57,1,2024-02-27T09:26:03.917Z,french_537.wav,0,poule,1007,34,4,5,francais,m,1,0.1,44.89034985,0.4078644
5f85c88c61e23608718cbd03,57,1,2024-02-27T09:26:03.917Z,french_537.wav,0,poule,1007,34,4,5,francais,m,2,0.2,79.4977598,1.66123527
5f85c88c61e23608718cbd03,57,1,2024-02-27T09:26:03.917Z,french_537.wav,0,poule,1007,34,4,5,francais,m,3,0.25666667,43.46988515,0.90238518
5f85c88c61e23608718cbd03,58,1,2024-02-27T09:26:03.917Z,french_492.wav,0,poule,590,34,4,5,francais,m,0,0.0,26.23401792,1.39276004
5f85c88c61e23608718cbd03,58,1,2024-02-27T09:26:03.917Z,french_492.wav,0,poule,590,34,4,5,francais,m,1,0.1,-24.69700304,1.17915575
5f85c88c61e23608718cbd03,58,1,2024-02-27T09:26:03.917Z,french_492.wav,0,poule,590,34,4,5,francais,m,2,0.2,20.89476161,0.89700471
5f85c88c61e23608718cbd03,58,1,2024-02-27T09:26:03.917Z,french_492.wav,0,poule,590,34,4,5,francais,m,3,0.25666667,-5.21833306,0.44164607
5f85c88c61e23608718cbd03,59,1,2024-02-27T09:26:03.917Z,french_518.wav,0,pull,508,34,4,5,francais,m,0,0.0,30.08897808,1.28002377
5f85c88c61e23608718cbd03,59,1,2024-02-27T09:26:03.917Z,french_518.wav,0,pull,508,34,4,5,francais,m,1,0.1,-42.00678694,0.31881796
5f85c88c61e23608718cbd03,59,1,2024-02-27T09:26:03.917Z,french_518.wav,0,pull,508,34,4,5,francais,m,2,0.2,47.99304417,0.271149
5f85c88c61e23608718cbd03,59,1,2024-02-27T09:26:03.917Z,french_518.wav,0,pull,508,34,4,5,francais,m,3,0.25666667,-21.59585354,1.06182133
5f85c88c61e23608718cbd03,60,1,2024-02-27T09:26:03.917Z,french_142.wav,0,poule,430,34,4,5,francais,m,0,0.0,-47.01050856,0.88751265
5f85c88c61e23608718cbd03,60,1,2024-02-27T09:26:03.917Z,french_142.wav,0,poule,430,34,4,5,francais,m,1,0.1,44.85636852,1.13664387
5f85c88c61e23608718cbd03,60,1,2024-02-27T09:26:03.917Z,french_142.wav,0,poule,430,34,4,5,francais,m,2,0.2,82.74517116,0.91175928
5f85c88c61e23608718cbd03,60,1,2024-02-27T09:26:03.917Z,french_142.wav,0,poule,430,34,4,5,francais,m,3,0.25666667,-74.59675421,0.66352734
5f85c88c61e23608718cbd03,61,1,2024-02-27T09:26:03.917Z,french_625.wav,0,pull,1223,34,4,5,francais,m,0,0.0,79.19979266,0.47634137
5f85c88c61e23608718cbd03,61,1,2024-02-27T09:26:03.917Z,french_625.wav,0,pull,1223,34,4,5,francais,m,1,0.1,14.54258285,0.73497705
5f85c88c61e23608718cbd03,61,1,2024-02-27T09:26:03.917Z,french_625.wav,0,pull,1223,34,4,5,francais,m,2,0.2,86.07148008,0.05854955
5f85c88c61e23608718cbd03,61,1,2024-02-27T09:26:03.917Z,french_625.wav,0,pull,1223,34,4,5,francais,m,3,0.25666667,45.85831434,0.79046633
5f85c88c61e23608718cbd03,62,1,2024-02-27T09:26:03.917Z,french_87.wav,0,poule,373,34,4,5,francais,m,0,0.0,57.46562038,1.84924107
5f85c88c61e23608718cbd03,62,1,2024-02-27T09:26:03.917Z,french_87.wav,0,poule,373,34,4,5,francais,m,1,0.1,64.37451918,1.35752119
5f85c88c61e23608718cbd03,62,1,2024-02-27T09:26:03.917Z,french_87.wav,0,poule,373,34,4,5,francais,m,2,0.2,34.82822911,1.55092153
5f85c88c61e23608718cbd03,62,1,2024-02-27T09:26:03.917Z,french_87.wav,0,poule,373,34,4,5,francais,m,3,0.25666667,-44.22171713,0.2478561
5f85c88c61e23608718cbd03,63,1,2024-02-27T09:26:03.917Z,french_948.wav,0,poule,348,34,4,5,francais,m,0,0.0,54.2755123,0.60698289
5f85c88c61e23608718cbd03,63,1,2024-02-27T09:26:03.917Z,french_948.wav,0,poule,348,34,4,5,francais,m,1,0.1,-26.53776759,1.07019337
5f85c88c61e23608718cbd03,63,1,2024-02-27T09:26:03.917Z,french_948.wav,0,poule,348,34,4,5,francais,m,2,0.2,-51.24045856,1.47276383
5f85c88c61e23608718cbd03,63,1,2024-02-27T09:26:03.917Z,french_948.wav,0,poule,348,34,4,5,francais,m,3,0.25666667,84.11086463,1.01044713
5f85c88c61e23608718cbd03,64,1,2024-02-27T09:26:03.917Z,french_659.wav,0,poule,457,34,4,5,francais,m,0,0.0,85.50464417,1.33522586
5f85c88c61e23608718cbd03,64,1,2024-02-27T09:26:03.917Z,french_659.wav,0,poule,457,34,4,5,francais,m,1,0.1,65.46448613,1.79413259
5f85c88c61e23608718cbd03,64,1,2024-02-27T09:26:03.917Z,french_659.wav,0,poule,457,34,4,5,francais,m,2,0.2,39.40171471,1.57337642
5f85c88c61e23608718cbd03,64,1,2024-02-27T09:26:03.917Z,french_659.wav,0,poule,457,34,4,5,francais,m,3,0.25666667,-2.24011696,0.55895062
5f85c88c61e23608718cbd03,65,1,2024-02-27T09:26:03.917Z,french_876.wav,0,poule,347,34,4,5,francais,m,0,0.0,-63.60663495,1.31328738
5f85c88c61e23608718cbd03,65,1,2024-02-27T09:26:03.917Z,french_876.wav,0,poule,347,34,4,5,francais,m,1,0.1,-33.069551,1.53761103
5f85c88c61e23608718cbd03,65,1,2024-02-27T09:26:03.917Z,french_876.wav,0,poule,347,34,4,5,francais,m,2,0.2,44.38072254,1.15738415
5f85c88c61e23608718cbd03,65,1,2024-02-27T09:26:03.917Z,french_876.wav,0,poule,347,34,4,5,francais,m,3,0.25666667,3.25210733,1.33428182
5f85c88c61e23608718cbd03,66,1,2024-02-27T09:26:03.917Z,french_942.wav,0,pull,461,34,4,5,francais,m,0,0.0,-53.20970077,1.55725844
5f85c88c61e23608718cbd03,66,1,2024-02-27T09:26:03.917Z,french_942.wav,0,pull,461,34,4,5,francais,m,1,0.1,-81.68739914,1.2093944
5f85c88c61e23608718cbd03,66,1,2024-02-27T09:26:03.917Z,french_942.wav,0,pull,461,34,4,5,francais,m,2,0.2,39.47129185,0.05517711
5f85c88c61e23608718cbd03,66,1,2024-02-27T09:26:03.917Z,french_942.wav,0,pull,461,34,4,5,francais,m,3,0.25666667,-77.13084916,1.56672295
5f85c88c61e23608718cbd03,67,1,2024-02-27T09:26:03.917Z,french_875.wav,0,poule,364,34,4,5,francais,m,0,0.0,-21.85805239,1.53415162
5f85c88c61e23608718cbd03,67,1,2024-02-27T09:26:03.917Z,french_875.wav,0,poule,364,34,4,5,francais,m,1,0.1,89.69626046,1.00812403
5f85c88c61e23608718cbd03,67,1,2024-02-27T09:26:03.917Z,french_875.wav,0,poule,364,34,4,5,francais,m,2,0.2,-30.27044373,0.85877698
5f85c88c61e23608718cbd03,67,1,2024-02-27T09:26:03.917Z,french_875.wav,0,poule,364,34,4,5,francais,m,3,0.25666667,34.72149061,1.23447623
5f85c88c61e23608718cbd03,68,1,2024-02-27T09:26:03.917Z,french_692.wav,0,pull,2938,34,4,5,francais,m,0,0.0,-30.56073905,0.00354931
5f85c88c61e23608718cbd03,68,1,2024-02-27T09:26:03.917Z,french_692.wav,0,pull,2938,34,4,5,francais,m,1,0.1,67.72997498,1.79271885
5f85c88c61e23608718cbd03,68,1,2024-02-27T09:26:03.917Z,french_692.wav,0,pull,2938,34,4,5,francais,m,2,0.2,55.48980932,1.35474436
5f85c88c61e23608718cbd03,68,1,2024-02-27T09:26:03.917Z,french_692.wav,0,pull,2938,34,4,5,francais,m,3,0.25666667,99.47423215,1.33636308
5f85c88c61e23608718cbd03,69,1,2024-02-27T09:26:03.917Z,french_240.wav,0,poule,786,34,4,5,francais,m,0,0.0,77.68768834,0.69241663
5f85c88c61e23608718cbd03,69,1,2024-02-27T09:26:03.917Z,french_240.wav,0,poule,786,34,4,5,francais,m,1,0.1,-29.82643761,1.16068826
5f85c88c61e23608718cbd03,69,1,2024-02-27T09:26:03.917Z,french_240.wav,0,poule,786,34,4,5,francais,m,2,0.2,18.33689373,0.98486954
5f85c88c61e23608718cbd03,69,1,2024-02-27T09:26:03.917Z,french_240.wav,0,poule,786,34,4,5,francais,m,3,0.25666667,24.70133008,0.89191813
5f85c88c61e23608718cbd03,70,1,2024-02-27T09:26:03.917Z,french_208.wav,0,pull,1102,34,4,5,francais,m,0,0.0,8.68990421,0.76850137
5f85c88c61e23608718cbd03,70,1,2024-02-27T09:26:03.917Z,french_208.wav,0,pull,1102,34,4,5,francais,m,1,0.1,-43.18378372,1.33781212
5f85c88c61e23608718cbd03,70,1,2024-02-27T09:26:03.917Z,french_208.wav,0,pull,1102,34,4,5,francais,m,2,0.2,71.27860087,0.39946576
5f85c88c61e23608718cbd03,70,1,2024-02-27T09:26:03.917Z,french_208.wav,0,pull,1102,34,4,5,francais,m,3,0.25666667,-15.56799856,0.17788265
5f85c88c61e23608718cbd03,71,1,2024-02-27T09:26:03.917Z,french_441.wav,0,poule,408,34,4,5,francais,m,0,0.0,-52.65918707,0.98643262
5f85c88c61e23608718cbd03,71,1,2024-02-27T09:26:03.917Z,french_441.wav,0,poule,408,34,4,5,francais,m,1,0.1,-61.65013116,1.35237654
5f85c88c61e23608718cbd03,71,1,2024-02-27T09:26:03.917Z,french_441.wav,0,poule,408,34,4,5,francais,m,2,0.2,34.26317373,1.5364694
5f85c88c61e23608718cbd03,71,1,2024-02-27T09:26:03.917Z,french_441.wav,0,poule,408,34,4,5,francais,m,3,0.25666667,30.98760828,1.29655121
5f85c88c61e23608718cbd03,72,1,2024-02-27T09:26:03.917Z,french_997.wav,0,poule,672,34,4,5,francais,m,0,0.0,70.02211451,0.23520638
5f85c88c61e23608718cbd03,72,1,2024-02-27T09:26:03.917Z,french_997.wav,0,poule,672,34,4,5,francais,m,1,0.1,69.24362731,0.40856699
5f85c88c61e23608718cbd03,72,1,2024-02-27T09:26:03.917Z,french_997.wav,0,poule,672,34,4,5,francais,m,2,0.2,73.007848,1.59962624
5f85c88c61e23608718cbd03,72,1,2024-02-27T09:26:03.917Z,french_997.wav,0,poule,672,34,4,5,francais,m,3,0.25666667,83.15376715,0.8906701
5f85c88c61e23608718cbd03,73,1,2024-02-27T09:26:03.917Z,french_422.wav,0,pull,769,34,4,5,francais,m,0,0.0,84.96144948,0.57918651
5f85c88c61e23608718cbd03,73,1,2024-02-27T09:26:03.917Z,french_422.wav,0,pull,769,34,4,5,francais,m,1,0.1,-4.96569357,1.20973004
5f85c88c61e23608718cbd03,73,1,2024-02-27T09:26:03.917Z,french_422.wav,0,pull,769,34,4,5,francais,m,2,0.2,9.38898655,0.40935242
5f85c88c61e23608718cbd03,73,1,2024-02-27T09:26:03.917Z,french_422.wav,0,pull,769,34,4,5,francais,m,3,0.25666667,-4.34292742,0.41859168
5f85c88c61e23608718cbd03,74,1,2024-02-27T09:26:03.917Z,french_977.wav,0,poule,486,34,4,5,francais,m,0,0.0,-23.34946859,1.58788712
5f85c88c61e23608718cbd03,74,1,2024-02-27T09:26:03.917Z,french_977.wav,0,poule,486,34,4,5,francais,m,1,0.1,-74.17160997,0.25032328
5f85c88c61e23608718cbd03,74,1,2024-02-27T09:26:03.917Z,french_977.wav,0,poule,486,34,4,5,francais,m,2,0.2,31.43852713,0.90752219
5f85c88c61e23608718cbd03,74,1,2024-02-27T09:26:03.917Z,french_977.wav,0,poule,486,34,4,5,francais,m,3,0.25666667,-10.29160018,1.52460946
5f85c88c61e23608718cbd03,75,1,2024-02-27T09:26:03.917Z,french_469.wav,0,poule,4285,34,4,5,francais,m,0,0.0,66.71351684,0.70736983
5f85c88c61e23608718cbd03,75,1,2024-02-27T09:26:03.917Z,french_469.wav,0,poule,4285,34,4,5,francais,m,1,0.1,-62.03219977,0.37939516
5f85c88c61e23608718cbd03,75,1,2024-02-27T09:26:03.917Z,french_469.wav,0,poule,4285,34,4,5,francais,m,2,0.2,3.50074433,0.65236
5f85c88c61e23608718cbd03,75,1,2024-02-27T09:26:03.917Z,french_469.wav,0,poule,4285,34,4,5,francais,m,3,0.25666667,58.03584826,0.94960182
5f85c88c61e23608718cbd03,76,1,2024-02-27T09:26:03.917Z,french_527.wav,0,poule,858,34,4,5,francais,m,0,0.0,97.81644093,0.09503525
5f85c88c61e23608718cbd03,76,1,2024-02-27T09:26:03.917Z,french_527.wav,0,poule,858,34,4,5,francais,m,1,0.1,68.05004199,0.33267387
5f85c88c61e23608718cbd03,76,1,2024-02-27T09:26:03.917Z,french_527.wav,0,poule,858,34,4,5,francais,m,2,0.2,-44.05597581,1.51053464
5f85c88c61e23608718cbd03,76,1,2024-02-27T09:26:03.917Z,french_527.wav,0,poule,858,34,4,5,francais,m,3,0.25666667,40.91945638,1.37458991
5f85c88c61e23608718cbd03,77,1,2024-02-27T09:26:03.917Z,french_978.wav,0,poule,748,34,4,5,francais,m,0,0.0,-36.32035497,0.76958877
5f85c88c61e23608718cbd03,77,1,2024-02-27T09:26:03.917Z,french_978.wav,0,poule,748,34,4,5,francais,m,1,0.1,-92.00024605,0.1229223
5f85c88c61e23608718cbd03,77,1,2024-02-27T09:26:03.917Z,french_978.wav,0,poule,748,34,4,5,francais,m,2,0.2,-85.64640387,1.83920091
5f85c88c61e23608718cbd03,77,1,2024-02-27T09:26:03.917Z,french_978.wav,0,poule,748,34,4,5,francais,m,3,0.25666667,30.4024855,1.45747353
5f85c88c61e23608718cbd03,78,1,2024-02-27T09:26:03.917Z,french_364.wav,0,pull,1800,34,4,5,francais,m,0,0.0,-32.92421433,1.35253812
5f85c88c61e23608718cbd03,78,1,2024-02-27T09:26:03.917Z,french_364.wav,0,pull,1800,34,4,5,francais,m,1,0.1,-56.96078069,1.83722727
5f85c88c61e23608718cbd03,78,1,2024-02-27T09:26:03.917Z,french_364.wav,0,pull,1800,34,4,5,francais,m,2,0.2,44.72635853,1.43933089
5f85c88c61e23608718cbd03,78,1,2024-02-27T09:26:03.917Z,french_364.wav,0,pull,1800,34,4,5,francais,m,3,0.25666667,23.55157996,1.1354083
5f85c88c61e23608718cbd03,79,1,2024-02-27T09:26:03.917Z,french_272.wav,0,pull,1385,34,4,5,francais,m,0,0.0,50.55701535,1.0419248
5f85c88c61e23608718cbd03,79,1,2024-02-27T09:26:03.917Z,french_272.wav,0,pull,1385,34,4,5,francais,m,1,0.1,63.46835537,0.05024982
5f85c88c61e23608718cbd03,79,1,2024-02-27T09:26:03.917Z,french_272.wav,0,pull,1385,34,4,5,francais,m,2,0.2,-46.63250527,0.3554473
5f85c88c61e23608718cbd03,79,1,2024-02-27T09:26:03.917Z,french_272.wav,0,pull,1385,34,4,5,francais,m,3,0.25666667,74.93577843,1.3845464
5f85c88c61e23608718cbd03,80,1,2024-02-27T09:26:03.917Z,french_852.wav,0,poule,1752,34,4,5,francais,m,0,0.0,-21.25647341,1.59129412
5f85c88c61e23608718cbd03,80,1,2024-02-27T09:26:03.917Z,french_852.wav,0,poule,1752,34,4,5,francais,m,1,0.1,44.09899268,0.90931534
5f85c88c61e23608718cbd03,80,1,2024-02-27T09:26:03.917Z,french_852.wav,0,poule,1752,34,4,5,francais,m,2,0.2,-20.54343266,0.17046498
5f85c88c61e23608718cbd03,80,1,2024-02-27T09:26:03.917Z,french_852.wav,0,poule,1752,34,4,5,francais,m,3,0.25666667,-73.6389021,0.95788578
5f85c88c61e23608718cbd03,81,1,2024-02-27T09:26:03.917Z,french_290.wav,0,pull,512,34,4,5,francais,m,0,0.0,44.0184541,1.95811598
5f85c88c61e23608718cbd03,81,1,2024-02-27T09:26:03.917Z,french_290.wav,0,pull,512,34,4,5,francais,m,1,0.1,34.90106467,0.34352798
5f85c88c61e23608718cbd03,81,1,2024-02-27T09:26:03.917Z,french_290.wav,0,pull,512,34,4,5,francais,m,2,0.2,79.90705756,0.77799391
5f85c88c61e23608718cbd03,81,1,2024-02-27T09:26:03.917Z,french_290.wav,0,pull,512,34,4,5,francais,m,3,0.25666667,-45.9390609,0.55231539
5f85c88c61e23608718cbd03,82,1,2024-02-27T09:26:03.917Z,french_490.wav,0,poule,563,34,4,5,francais,m,0,0.0,-77.54246231,1.03559912
5f85c88c61e23608718cbd03,82,1,2024-02-27T09:26:03.917Z,french_490.wav,0,poule,563,34,4,5,francais,m,1,0.1,-0.13066058,0.94588293
5f85c88c61e23608718cbd03,82,1,2024-02-27T09:26:03.917Z,french_490.wav,0,poule,563,34,4,5,francais,m,2,0.2,-90.37490593,1.16449319
5f85c88c61e23608718cbd03,82,1,2024-02-27T09:26:03.917Z,french_490.wav,0,poule,563,34,4,5,francais,m,3,0.25666667,62.21960288,1.46557017
5f85c88c61e23608718cbd03,83,1,2024-02-27T09:26:03.917Z,french_879.wav,0,poule,423,34,4,5,francais,m,0,0.0,-48.96816685,1.19104759
5f85c88c61e23608718cbd03,83,1,2024-02-27T09:26:03.917Z,french_879.wav,0,poule,423,34,4,5,francais,m,1,0.1,-79.01398257,0.98306132
5f85c88c61e23608718cbd03,83,1,2024-02-27T09:26:03.917Z,french_879.wav,0,poule,423,34,4,5,francais,m,2,0.2,-55.9985187,0.68767433
5f85c88c61e23608718cbd03,83,1,2024-02-27T09:26:03.917Z,french_879.wav,0,poule,423,34,4,5,francais,m,3,0.25666667,-98.06504365,1.4115175
5f85c88c61e23608718cbd03,84,1,2024-02-27T09:26:03.917Z,french_203.wav,0,pull,443,34,4,5,francais,m,0,0.0,9.50743764,1.88144993
5f85c88c61e23608718cbd03,84,1,2024-02-27T09:26:03.917Z,french_203.wav,0,pull,443,34,4,5,francais,m,1,0.1,-98.19338414,1.32545529
5f85c88c61e23608718cbd03,84,1,2024-02-27T09:26:03.917Z,french_203.wav,0,pull,443,34,4,5,francais,m,2,0.2,67.11536794,0.82099832
5f85c88c61e23608718cbd03,84,1,2024-02-27T09:26:03.917Z,french_203.wav,0,pull,443,34,4,5,francais,m,3,0.25666667,-71.08115362,1.4347795
5f85c88c61e23608718cbd03,85,1,2024-02-27T09:26:03.917Z,french_664.wav,0,poule,1400,34,4,5,francais,m,0,0.0,-2.08032019,1.43741932
5f85c88c61e23608718cbd03,85,1,2024-02-27T09:26:03.917Z,french_664.wav,0,poule,1400,34,4,5,francais,m,1,0.1,-67.02716902,1.07099048
5f85c88c61e23608718cbd03,85,1,2024-02-27T09:26:03.917Z,french_664.wav,0,poule,1400,34,4,5,francais,m,2,0.2,95.17650789,1.92774669
5f85c88c61e23608718cbd03,85,1,2024-02-27T09:26:03.917Z,french_664.wav,0,poule,1400,34,4,5,francais,m,3,0.25666667,-41.34718039,0.70027683
5f85c88c61e23608718cbd03,86,1,2024-02-27T09:26:03.917Z,french_626.wav,0,poule,595,34,4,5,francais,m,0,0.0,-93.35692854,1.28523942
5f85c88c61e23608718cbd03,86,1,2024-02-27T09:26:03.917Z,french_626.wav,0,poule,595,34,4,5,francais,m,1,0.1,98.43225428,0.26610399
5f85c88c61e23608718cbd03,86,1,2024-02-27T09:26:03.917Z,french_626.wav,0,poule,595,34,4,5,francais,m,2,0.2,-65.0946996,0.08304138
5f85c88c61e23608718cbd03,86,1,2024-02-27T09:26:03.917Z,french_626.wav,0,poule,595,34,4,5,francais,m,3,0.25666667,62.51553639,1.47830697
5f85c88c61e23608718cbd03,87,1,2024-02-27T09:26:03.917Z,french_326.wav,0,poule,585,34,4,5,francais,m,0,0.0,-63.35446608,1.54071776
5f85c88c61e23608718cbd03,87,1,2024-02-27T09:26:03.917Z,french_326.wav,0,poule,585,34,4,5,francais,m,1,0.1,12.54179258,0.67448432
5f85c88c61e23608718cbd03,87,1,2024-02-27T09:26:03.917Z,french_326.wav,0,poule,585,34,4,5,francais,m,2,0.2,2.59324468,0.56210636
5f85c88c61e23608718cbd03,87,1,2024-02-27T09:26:03.917Z,french_326.wav,0,poule,585,34,4,5,francais,m,3,0.25666667,34.92537359,1.5196438
5f85c88c61e23608718cbd03,88,1,2024-02-27T09:26:03.917Z,french_609.wav,0,pull,752,34,4,5,francais,m,0,0.0,11.6890167,1.75568789
5f85c88c61e23608718cbd03,88,1,2024-02-27T09:26:03.917Z,french_609.wav,0,pull,752,34,4,5,francais,m,1,0.1,-35.50971605,1.50542158
5f85c88c61e23608718cbd03,88,1,2024-02-27T09:26:03.917Z,french_609.wav,0,pull,752,34,4,5,francais,m,2,0.2,-98.47760025,0.96032408
5f85c88c61e23608718cbd03,88,1,2024-02-27T09:26:03.917Z,french_609.wav,0,pull,752,34,4,5,francais,m,3,0.25666667,-64.00925784,1.1186533
5f85c88c61e23608718cbd03,89,1,2024-02-27T09:26:03.917Z,french_649.wav,0,pull,1019,34,4,5,francais,m,0,0.0,-26.84796804,0.38564107
5f85c88c61e23608718cbd03,89,1,2024-02-27T09:26:03.917Z,french_649.wav,0,pull,1019,34,4,5,francais,m,1,0.1,90.50092835,0.07645681
5f85c88c61e23608718cbd03,89,1,2024-02-27T09:26:03.917Z,french_649.wav,0,pull,1019,34,4,5,francais,m,2,0.2,-42.32642697,0.18898029
5f85c88c61e23608718cbd03,89,1,2024-02-27T09:26:03.917Z,french_649.wav,0,pull,1019,34,4,5,francais,m,3,0.25666667,-6.05454316,0.88659006
5f85c88c61e23608718cbd03,90,1,2024-02-27T09:26:03.917Z,french_173.wav,0,poule,1074,34,4,5,francais,m,0,0.0,-85.34625679,1.0505287
5f85c88c61e23608718cbd03,90,1,2024-02-27T09:26:03.917Z,french_173.wav,0,poule,1074,34,4,5,francais,m,1,0.1,19.71799215,1.50206547
5f85c88c61e23608718cbd03,90,1,2024-02-27T09:26:03.917Z,french_173.wav,0,poule,1074,34,4,5,francais,m,2,0.2,-84.96079432,1.53807785
5f85c88c61e23608718cbd03,90,1,2024-02-27T09:26:03.917Z,french_173.wav,0,poule,1074,34,4,5,francais,m,3,0.25666667,-20.27996547,1.54027091
5f85c88c61e23608718cbd03,91,1,2024-02-27T09:26:03.917Z,french_565.wav,0,pull,803,34,4,5,francais,m,0,0.0,50.78822436,1.00864226
5f85c88c61e23608718cbd03,91,1,2024-02-27T09:26:03.917Z,french_565.wav,0,pull,803,34,4,5,francais,m,1,0.1,-75.93967217,1.52231663
5f85c88c61e23608718cbd03,91,1,2024-02-27T09:26:03.917Z,french_565.wav,0,pull,803,34,4,5,francais,m,2,0.2,-58.95969425,0.24874103
5f85c88c61e23608718cbd03,91,1,2024-02-27T09:26:03.917Z,french_565.wav,0,pull,803,34,4,5,francais,m,3,0.25666667,-53.32673619,1.47271882
5f85c88c61e23608718cbd03,92,1,2024-02-27T09:26:03.917Z,french_378.wav,0,poule,613,34,4,5,francais,m,0,0.0,74.25757507,1.44636003
5f85c88c61e23608718cbd03,92,1,2024-02-27T09:26:03.917Z,french_378.wav,0,poule,613,34,4,5,francais,m,1,0.1,69.54270197,0.18429149
5f85c88c61e23608718cbd03,92,1,2024-02-27T09:26:03.917Z,french_378.wav,0,poule,613,34,4,5,francais,m,2,0.2,91.83328043,0.75177649
5f85c88c61e23608718cbd03,92,1,2024-02-27T09:26:03.917Z,french_378.wav,0,poule,613,34,4,5,francais,m,3,0.25666667,65.12199987,0.49263706
5f85c88c61e23608718cbd03,93,1,2024-02-27T09:26:03.917Z,french_227.wav,0,poule,857,34,4,5,francais,m,0,0.0,0.51486219,1.24333394
5f85c88c61e23608718cbd03,93,1,2024-02-27T09:26:03.917Z,french_227.wav,0,poule,857,34,4,5,francais,m,1,0.1,-7.58300973,1.87169026
5f85c88c61e23608718cbd03,93,1,2024-02-27T09:26:03.917Z,french_227.wav,0,poule,857,34,4,5,francais,m,2,0.2,-1.58102923,1.73620524
5f85c88c61e23608718cbd03,93,1,2024-02-27T09:26:03.917Z,french_227.wav,0,poule,857,34,4,5,francais,m,3,0.25666667,-53.33162074,0.85172824
5f85c88c61e23608718cbd03,94,1,2024-02-27T09:26:03.917Z,french_401.wav,0,poule,1602,34,4,5,francais,m,0,0.0,-70.28001137,0.55430578
5f85c88c61e23608718cbd03,94,1,2024-02-27T09:26:03.917Z,french_401.wav,0,poule,1602,34,4,5,francais,m,1,0.1,-33.39817342,1.52055291
5f85c88c61e23608718cbd03,94,1,2024-02-27T09:26:03.917Z,french_401.wav,0,poule,1602,34,4,5,francais,m,2,0.2,31.30905025,1.05517946
5f85c88c61e23608718cbd03,94,1,2024-02-27T09:26:03.917Z,french_401.wav,0,poule,1602,34,4,5,francais,m,3,0.25666667,85.09993336,0.68126919
5f85c88c61e23608718cbd03,95,1,2024-02-27T09:26:03.917Z,french_679.wav,0,poule,745,34,4,5,francais,m,0,0.0,-12.30272173,0.22564891
5f85c88c61e23608718cbd03,95,1,2024-02-27T09:26:03.917Z,french_679.wav,0,poule,745,34,4,5,francais,m,1,0.1,-25.8054218,0.32954228
5f85c88c61e23608718cbd03,95,1,2024-02-27T09:26:03.917Z,french_679.wav,0,poule,745,34,4,5,francais,m,2,0.2,-49.36641871,0.69268874
5f85c88c61e23608718cbd03,95,1,2024-02-27T09:26:03.917Z,french_679.wav,0,poule,745,34,4,5,francais,m,3,0.25666667,3.29240265,1.86334945
5f85c88c61e23608718cbd03,96,1,2024-02-27T09:26:03.917Z,french_702.wav,0,poule,566,34,4,5,francais,m,0,0.0,-53.8337347,0.65995653
5f85c88c61e23608718cbd03,96,1,2024-02-27T09:26:03.917Z,french_702.wav,0,poule,566,34,4,5,francais,m,1,0.1,13.17722269,1.48591365
5f85c88c61e23608718cbd03,96,1,2024-02-27T09:26:03.917Z,french_702.wav,0,poule,566,34,4,5,francais,m,2,0.2,-63.63948694,1.16262137
5f85c88c61e23608718cbd03,96,1,2024-02-27T09:26:03.917Z,french_702.wav,0,poule,566,34,4,5,francais,m,3,0.25666667,-7.77006894,1.49403865
5f85c88c61e23608718cbd03,97,1,2024-02-27T09:26:03.917Z,french_407.wav,0,pull,308,34,4,5,francais,m,0,0.0,-57.6292462,1.8651924
5f85c88c61e23608718cbd03,97,1,2024-02-27T09:26:03.917Z,french_407.wav,0,pull,308,34,4,5,francais,m,1,0.1,-25.10683904,1.55880725
5f85c88c61e23608718cbd03,97,1,2024-02-27T09:26:03.917Z,french_407.wav,0,pull,308,34,4,5,francais,m,2,0.2,13.09742102,1.30220718
5f85c88c61e23608718cbd03,97,1,2024-02-27T09:26:03.917Z,french_407.wav,0,pull,308,34,4,5,francais,m,3,0.25666667,-8.98604593,1.55663467
5f85c88c61e23608718cbd03,98,1,2024-02-27T09:26:03.917Z,french_489.wav,0,poule,525,34,4,5,francais,m,0,0.0,0.49645075,0.76062229
5f85c88c61e23608718cbd03,98,1,2024-02-27T09:26:03.917Z,french_489.wav,0,poule,525,34,4,5,francais,m,1,0.1,-49.42249353,1.72041063
5f85c88c61e23608718cbd03,98,1,2024-02-27T09:26:03.917Z,french_489.wav,0,poule,525,34,4,5,francais,m,2,0.2,3.0196593,0.72496435
5f85c88c61e23608718cbd03,98,1,2024-02-27T09:26:03.917Z,french_489.wav,0,poule,525,34,4,5,francais,m,3,0.25666667,11.9492669,0.84736567
5f85c88c61e23608718cbd03,99,1,2024-02-27T09:26:03.917Z,french_207.wav,0,poule,755,34,4,5,francais,m,0,0.0,15.24625839,0.95120839
5f85c88c61e23608718cbd03,99,1,2024-02-27T09:26:03.917Z,french_207.wav,0,poule,755,34,4,5,francais,m,1,0.1,68.60229744,1.50295804
5f85c88c61e23608718cbd03,99,1,2024-02-27T09:26:03.917Z,french_207.wav,0,poule,755,34,4,5,francais,m,2,0.2,51.04898438,0.44335537
5f85c88c61e23608718cbd03,99,1,2024-02-27T09:26:03.917Z,french_207.wav,0,poule,755,34,4,5,francais,m,3,0.25666667,8.99799409,1.65047569
5f85c88c61e23608718cbd03,100,2,2024-02-27T09:27:56.844Z,french_267.wav,0,pull,1276,34,4,5,francais,m,0,0.0,-65.51042118,0.47900721
5f85c88c61e23608718cbd03,100,2,2024-02-27T09:27:56.844Z,french_267.wav,0,pull,1276,34,4,5,francais,m,1,0.1,15.6710232,1.08471332
5f85c88c61e23608718cbd03,100,2,2024-02-27T09:27:56.844Z,french_267.wav,0,pull,1276,34,4,5,francais,m,2,0.2,-16.59501764,0.49268798
5f85c88c61e23608718cbd03,100,2,2024-02-27T09:27:56.844Z,french_267.wav,0,pull,1276,34,4,5,francais,m,3,0.25666667,49.75287867,1.54023863
5f85c88c61e23608718cbd03,101,2,2024-02-27T09:27:56.844Z,french_826.wav,0,pull,777,34,4,5,francais,m,0,0.0,-33.86739367,0.07066528
5f85c88c61e23608718cbd03,101,2,2024-02-27T09:27:56.844Z,french_826.wav,0,pull,777,34,4,5,francais,m,1,0.1,-31.27966971,0.90490109
5f85c88c61e23608718cbd03,101,2,2024-02-27T09:27:56.844Z,french_826.wav,0,pull,777,34,4,5,francais,m,2,0.2,51.84533444,0.66906535
5f85c88c61e23608718cbd03,101,2,2024-02-27T09:27:56.844Z,french_826.wav,0,pull,777,34,4,5,francais,m,3,0.25666667,-81.13386792,0.4882988
5f85c88c61e23608718cbd03,102,2,2024-02-27T09:27:56.844Z,french_327.wav,0,pull,1155,34,4,5,francais,m,0,0.0,75.01862194,1.26930687
5f85c88c61e23608718cbd03,102,2,2024-02-27T09:27:56.844Z,french_327.wav,0,pull,1155,34,4,5,francais,m,1,0.1,-83.8502905,1.47688931
5f85c88c61e23608718cbd03,102,2,2024-02-27T09:27:56.844Z,french_327.wav,0,pull,1155,34,4,5,francais,m,2,0.2,63.63621512,1.339502
5f85c88c61e23608718cbd03,102,2,2024-02-27T09:27:56.844Z,french_327.wav,0,pull,1155,34,4,5,francais,m,3,0.25666667,-22.5018405,0.76786237
5f85c88c61e23608718cbd03,103,2,2024-02-27T09:27:56.844Z,french_718.wav,0,pull,1587,34,4,5,francais,m,0,0.0,60.10154263,0.48894908
5f85c88c61e23608718cbd03,103,2,2024-02-27T09:27:56.844Z,french_718.wav,0,pull,1587,34,4,5,francais,m,1,0.1,11.66591821,1.65193902
5f85c88c61e23608718cbd03,103,2,2024-02-27T09:27:56.844Z,french_718.wav,0,pull,1587,34,4,5,francais,m,2,0.2,18.23831634,1.63024081
5f85c88c61e23608718cbd03,103,2,2024-02-27T09:27:56.844Z,french_718.wav,0,pull,1587,34,4,5,francais,m,3,0.25666667,-0.86268038,0.33166429
5f85c88c61e23608718cbd03,104,2,2024-02-27T09:27:56.844Z,french_416.wav,0,pull,894,34,4,5,francais,m,0,0.0,27.68943274,1.77963231
5f85c88c61e23608718cbd03,104,2,2024-02-27T09:27:56.844Z,french_416.wav,0,pull,894,34,4,5,francais,m,1,0.1,-10.10461599,1.68240888
5f85c88c61e23608718cbd03,104,2,2024-02-27T09:27:56.844Z,french_416.wav,0,pull,894,34,4,5,francais,m,2,0.2,24.64183683,1.38997073
5f85c88c61e23608718cbd03,104,2,2024-02-27T09:27:56.844Z,french_416.wav,0,pull,894,34,4,5,francais,m,3,0.25666667,96.08137129,0.64151937
5f85c88c61e23608718cbd03,105,2,2024-02-27T09:27:56.844Z,french_562.wav,0,poule,452,34,4,5,francais,m,0,0.0,12.26814589,1.17834032
5f85c88c61e23608718cbd03,105,2,2024-02-27T09:27:56.844Z,french_562.wav,0,poule,452,34,4,5,francais,m,1,0.1,-17.58329492,1.15702499
5f85c88c61e23608718cbd03,105,2,2024-02-27T09:27:56.844Z,french_562.wav,0,poule,452,34,4,5,francais,m,2,0.2,-20.00100575,1.2863232
5f85c88c61e23608718cbd03,105,2,2024-02-27T09:27:56.844Z,french_562.wav,0,poule,452,34,4,5,francais,m,3,0.25666667,-50.75971007,0.02470224
5f85c88c61e23608718cbd03,106,2,2024-02-27T09:27:56.844Z,french_357.wav,0,poule,475,34,4,5,francais,m,0,0.0,-39.34197693,1.60610182
5f85c88c61e23608718cbd03,106,2,2024-02-27T09:27:56.844Z,french_357.wav,0,poule,475,34,4,5,francais,m,1,0.1,71.15894406,0.3952593
5f85c88c61e23608718cbd03,106,2,2024-02-27T09:27:56.844Z,french_357.wav,0,poule,475,34,4,5,francais,m,2,0.2,-59.30154436,0.60654741
5f85c88c61e23608718cbd03,106,2,2024-02-27T09:27:56.844Z,french_357.wav,0,poule,475,34,4,5,francais,m,3,0.25666667,60.48174113,0.43480054
5f85c88c61e23608718cbd03,107,2,2024-02-27T09:27:56.844Z,french_779.wav,0,poule,1285,34,4,5,francais,m,0,0.0,-23.73686582,0.65858767
5f85c88c61e23608718cbd03,107,2,2024-02-27T09:27:56.844Z,french_779.wav,0,poule,1285,34,4,5,francais,m,1,0.1,96.23962081,1.55580865
5f85c88c61e23608718cbd03,107,2,2024-02-27T09:27:56.844Z,french_779.wav,0,poule,1285,34,4,5,francais,m,2,0.2,19.26430851,1.22244229
5f85c88c61e23608718cbd03,107,2,2024-02-27T09:27:56.844Z,french_779.wav,0,poule,1285,34,4,5,francais,m,3,0.25666667,-72.92378626,1.83333034
5f85c88c61e23608718cbd03,108,2,2024-02-27T09:27:56.844Z,french_633.wav,0,pull,885,34,4,5,francais,m,0,0.0,86.81441283,1.16860967
5f85c88c61e23608718cbd03,108,2,2024-02-27T09:27:56.844Z,french_633.wav,0,pull,885,34,4,5,francais,m,1,0.1,-4.21988764,0.88033016
5f85c88c61e23608718cbd03,108,2,2024-02-27T09:27:56.844Z,french_633.wav,0,pull,885,34,4,5,francais,m,2,0.2,27.13702415,0.79008737
5f85c88c61e23608718cbd03,108,2,2024-02-27T09:27:56.844Z,french_633.wav,0,pull,885,34,4,5,francais,m,3,0.25666667,25.74151368,1.16621919
5f85c88c61e23608718cbd03,109,2,2024-02-27T09:27:56.844Z,french_517.wav,0,pull,542,34,4,5,francais,m,0,0.0,10.61669355,0.19899019
5f85c88c61e23608718cbd03,109,2,2024-02-27T09:27:56.844Z,french_517.wav,0,pull,542,34,4,5,francais,m,1,0.1,-49.88851761,1.4553669
5f85c88c61e23608718cbd03,109,2,2024-02-27T09:27:56.844Z,french_517.wav,0,pull,542,34,4,5,francais,m,2,0.2,47.72087598,1.48195648
5f85c88c61e23608718cbd03,109,2,2024-02-27T09:27:56.844Z,french_517.wav,0,pull,542,34,4,5,francais,m,3,0.25666667,-22.50236439,0.87629427
5f85c88c61e23608718cbd03,110,2,2024-02-27T09:27:56.844Z,french_49.wav,0,poule,701,34,4,5,francais,m,0,0.0,-34.40531311,0.38592943
5f85c88c61e23608718cbd03,110,2,2024-02-27T09:27:56.844Z,french_49.wav,0,poule,701,34,4,5,francais,m,1,0.1,-47.89713654,0.82636765
5f85c88c61e23608718cbd03,110,2,2024-02-27T09:27:56.844Z,french_49.wav,0,poule,701,34,4,5,francais,m,2,0.2,1.74747298,1.60738751
5f85c88c61e23608718cbd03,110,2,2024-02-27T09:27:56.844Z,french_49.wav,0,poule,701,34,4,5,francais,m,3,0.25666667,24.1153847,0.61367061
5f85c88c61e23608718cbd03,111,2,2024-02-27T09:27:56.844Z,french_395.wav,0,poule,1590,34,4,5,francais,m,0,0.0,53.54317287,1.78210887
5f85c88c61e23608718cbd03,111,2,2024-02-27T09:27:56.844Z,french_395.wav,0,poule,1590,34,4,5,francais,m,1,0.1,-58.7899365,0.28539332
5f85c88c61e23608718cbd03,111,2,2024-02-27T09:27:56.844Z,french_395.wav,0,poule,1590,34,4,5,francais,m,2,0.2,-16.29959602,1.44255764
5f85c88c61e23608718cbd03,111,2,2024-02-27T09:27:56.844Z,french_395.wav,0,poule,1590,34,4,5,francais,m,3,0.25666667,-29.17949613,0.93749012
5f85c88c61e23608718cbd03,112,2,2024-02-27T09:27:56.844Z,french_637.wav,0,poule,2248,34,4,5,francais,m,0,0.0,35.81604326,0.01301393
5f85c88c61e23608718cbd03,112,2,2024-02-27T09:27:56.844Z,french_637.wav,0,poule,2248,34,4,5,francais,m,1,0.1,-3.18432816,0.82513299
5f85c88c61e23608718cbd03,112,2,2024-02-27T09:27:56.844Z,french_637.wav,0,poule,2248,34,4,5,francais,m,2,0.2,50.06715701,0.10233849
5f85c88c61e23608718cbd03,112,2,2024-02-27T09:27:56.844Z,french_637.wav,0,poule,2248,34,4,5,francais,m,3,0.25666667,13.82838787,0.87921638
5f85c88c61e23608718cbd03,113,2,2024-02-27T09:27:56.844Z,french_299.wav,0,pull,887,34,4,5,francais,m,0,0.0,12.52470623,1.64482663
5f85c88c61e23608718cbd03,113,2,2024-02-27T09:27:56.844Z,french_299.wav,0,pull,887,34,4,5,francais,m,1,0.1,-97.26544336,1.84069115
5f85c88c61e23608718cbd03,113,2,2024-02-27T09:27:56.844Z,french_299.wav,0,pull,887,34,4,5,francais,m,2,0.2,-80.62903972,0.25110426
5f85c88c61e23608718cbd03,113,2,2024-02-27T09:27:56.844Z,french_299.wav,0,pull,887,34,4,5,francais,m,3,0.25666667,73.47257664,1.45765737
5f85c88c61e23608718cbd03,114,2,2024-02-27T09:27:56.844Z,french_338.wav,0,poule,598,34,4,5,francais,m,0,0.0,-59.42111132,1.60060286
5f85c88c61e23608718cbd03,114,2,2024-02-27T09:27:56.844Z,french_338.wav,0,poule,598,34,4,5,francais,m,1,0.1,-69.70478814,0.22517269
5f85c88c61e23608718cbd03,114,2,2024-02-27T09:27:56.844Z,french_338.wav,0,poule,598,34,4,5,francais,m,2,0.2,-12.60920347,1.52190999
5f85c88c61e23608718cbd03,114,2,2024-02-27T09:27:56.844Z,french_338.wav,0,poule,598,34,4,5,francais,m,3,0.25666667,-82.44797384,0.82265445
5f85c88c61e23608718cbd03,115,2,2024-02-27T09:27:56.844Z,french_325.wav,0,poule,930,34,4,5,francais,m,0,0.0,88.71142286,0.52996958
5f85c88c61e23608718cbd03,115,2,2024-02-27T09:27:56.844Z,french_325.wav,0,poule,930,34,4,5,francais,m,1,0.1,-56.3206586,1.24996424
5f85c88c61e23608718cbd03,115,2,2024-02-27T09:27:56.844Z,french_325.wav,0,poule,930,34,4,5,francais,m,2,0.2,41.53206129,1.51417943
5f85c88c61e23608718cbd03,115,2,2024-02-27T09:27:56.844Z,french_325.wav,0,poule,930,34,4,5,francais,m,3,0.25666667,-39.91784783,1.21569626
5f85c88c61e23608718cbd03,116,2,2024-02-27T09:27:56.844Z,french_619.wav,0,poule,754,34,4,5,francais,m,0,0.0,-58.15289928,0.63115023
5f85c88c61e23608718cbd03,116,2,2024-02-27T09:27:56.844Z,french_619.wav,0,poule,754,34,4,5,francais,m,1,0.1,30.86987971,0.12868397
5f85c88c61e23608718cbd03,116,2,2024-02-27T09:27:56.844Z,french_619.wav,0,poule,754,34,4,5,francais,m,2,0.2,96.84221096,0.73139592
5f85c88c61e23608718cbd03,116,2,2024-02-27T09:27:56.844Z,french_619.wav,0,poule,754,34,4,5,francais,m,3,0.25666667,69.41225319,1.17738103
5f85c88c61e23608718cbd03,117,2,2024-02-27T09:27:56.844Z,french_806.wav,0,pull,319,34,4,5,francais,m,0,0.0,97.26957313,1.48673004
5f85c88c61e23608718cbd03,117,2,2024-02-27T09:27:56.844Z,french_806.wav,0,pull,319,34,4,5,francais,m,1,0.1,79.44562669,1.9967546
5f85c88c61e23608718cbd03,117,2,2024-02-27T09:27:56.844Z,french_806.wav,0,pull,319,34,4,5,francais,m,2,0.2,79.77586719,0.9238106
5f85c88c61e23608718cbd03,117,2,2024-02-27T09:27:56.844Z,french_806.wav,0,pull,319,34,4,5,francais,m,3,0.25666667,-46.2684083,1.39755131
5f85c88c61e23608718cbd03,118,2,2024-02-27T09:27:56.844Z,french_507.wav,0,pull,1671,34,4,5,francais,m,0,0.0,-39.00130205,0.88980729
5f85c88c61e23608718cbd03,118,2,2024-02-27T09:27:56.844Z,french_507.wav,0,pull,1671,34,4,5,francais,m,1,0.1,8.15448279,1.12034654
5f85c88c61e23608718cbd03,118,2,2024-02-27T09:27:56.844Z,french_507.wav,0,pull,1671,34,4,5,francais,m,2,0.2,-39.88004764,1.15006522
5f85c88c61e23608718cbd03,118,2,2024-02-27T09:27:56.844Z,french_507.wav,0,pull,1671,34,4,5,francais,m,3,0.25666667,66.54300966,1.10945683
5f85c88c61e23608718cbd03,119,2,2024-02-27T09:27:56.844Z,french_254.wav,0,pull,680,34,4,5,francais,m,0,0.0,-80.26287383,0.610966
5f85c88c61e23608718cbd03,119,2,2024-02-27T09:27:56.844Z,french_254.wav,0,pull,680,34,4,5,francais,m,1,0.1,-40.33934554,1.74213191
5f85c88c61e23608718cbd03,119,2,2024-02-27T09:27:56.844Z,french_254.wav,0,pull,680,34,4,5,francais,m,2,0.2,63.1875163,0.92287848
5f85c88c61e23608718cbd03,119,2,2024-02-27T09:27:56.844Z,french_254.wav,0,pull,680,34,4,5,francais,m,3,0.25666667,55.87543548,0.4746978
5f85c88c61e23608718cbd03,120,2,2024-02-27T09:27:56.844Z,french_670.wav,0,poule,520,34,4,5,francais,m,0,0.0,-38.80852857,0.18324618
5f85c88c61e23608718cbd03,120,2,2024-02-27T09:27:56.844Z,french_670.wav,0,poule,520,34,4,5,francais,m,1,0.1,-8.64332938,0.81857347
5f85c88c61e23608718cbd03,120,2,2024-02-27T09:27:56.844Z,french_670.wav,0,poule,520,34,4,5,francais,m,2,0.2,-55.35683075,1.27404838
5f85c88c61e23608718cbd03,120,2,2024-02-27T09:27:56.844Z,french_670.wav,0,poule,520,34,4,5,francais,m,3,0.25666667,17.57735741,1.12537981
5f85c88c61e23608718cbd03,121,2,2024-02-27T09:27:56.844Z,french_462.wav,0,poule,569,34,4,5,francais,m,0,0.0,-21.95394664,1.87011175
5f85c88c61e23608718cbd03,121,2,2024-02-27T09:27:56.844Z,french_462.wav,0,poule,569,34,4,5,francais,m,1,0.1,40.83343907,1.54087482
5f85c88c61e23608718cbd03,121,2,2024-02-27T09:27:56.844Z,french_462.wav,0,poule,569,34,4,5,francais,m,2,0.2,-14.27053038,0.9591328
5f85c88c61e23608718cbd03,121,2,2024-02-27T09:27:56.844Z,french_462.wav,0,poule,569,34,4,5,francais,m,3,0.25666667,85.20745493,0.45105527
5f85c88c61e23608718cbd03,122,2,2024-02-27T09:27:56.844Z,french_757.wav,0,poule,841,34,4,5,francais,m,0,0.0,-5.26413125,0.41150667
5f85c88c61e23608718cbd03,122,2,2024-02-27T09:27:56.844Z,french_757.wav,0,poule,841,34,4,5,francais,m,1,0.1,38.836188,1.11153135
5f85c88c61e23608718cbd03,122,2,2024-02-27T09:27:56.844Z,french_757.wav,0,poule,841,34,4,5,francais,m,2,0.2,-78.24448509,1.45974829
5f85c88c61e23608718cbd03,122,2,2024-02-27T09:27:56.844Z,french_757.wav,0,poule,841,34,4,5,francais,m,3,0.25666667,87.29383111,0.22730951
5f85c88c61e23608718cbd03,123,2,2024-02-27T09:27:56.844Z,french_481.wav,0,poule,639,34,4,5,francais,m,0,0.0,-44.05926666,1.24899263
5f85c88c61e23608718cbd03,123,2,2024-02-27T09:27:56.844Z,french_481.wav,0,poule,639,34,4,5,francais,m,1,0.1,85.82418432,1.22078865
5f85c88c61e23608718cbd03,123,2,2024-02-27T09:27:56.844Z,french_481.wav,0,poule,639,34,4,5,francais,m,2,0.2,87.54559417,0.10859618
5f85c88c61e23608718cbd03,123,2,2024-02-27T09:27:56.844Z,french_481.wav,0,poule,639,34,4,5,francais,m,3,0.25666667,50.04191005,0.19634609
5f85c88c61e23608718cbd03,124,2,2024-02-27T09:27:56.844Z,french_604.wav,0,poule,429,34,4,5,francais,m,0,0.0,-11.11210875,1.64316359
5f85c88c61e23608718cbd03,124,2,2024-02-27T09:27:56.844Z,french_604.wav,0,poule,429,34,4,5,francais,m,1,0.1,-13.90326971,0.56968283
5f85c88c61e23608718cbd03,124,2,2024-02-27T09:27:56.844Z,french_604.wav,0,poule,429,34,4,5,francais,m,2,0.2,-78.59226075,1.3955722
5f85c88c61e23608718cbd03,124,2,2024-02-27T09:27:56.844Z,french_604.wav,0,poule,429,34,4,5,francais,m,3,0.25666667,87.42620436,0.51982143
5f85c88c61e23608718cbd03,125,2,2024-02-27T09:27:56.844Z,french_100.wav,0,poule,705,34,4,5,francais,m,0,0.0,-35.75508116,1.72997046
5f85c88c61e23608718cbd03,125,2,2024-02-27T09:27:56.844Z,french_100.wav,0,poule,705,34,4,5,francais,m,1,0.1,57.82815341,1.04300978
5f85c88c61e23608718cbd03,125,2,2024-02-27T09:27:56.844Z,french_100.wav,0,poule,705,34,4,5,francais,m,2,0.2,31.92112674,1.01595182
5f85c88c61e23608718cbd03,125,2,2024-02-27T09:27:56.844Z,french_100.wav,0,poule,705,34,4,5,francais,m,3,0.25666667,34.87308497,1.9286069
5f85c88c61e23608718cbd03,126,2,2024-02-27T09:27:56.844Z,french_743.wav,0,poule,1162,34,4,5,francais,m,0,0.0,-33.29442342,0.17876133
5f85c88c61e23608718cbd03,126,2,2024-02-27T09:27:56.844Z,french_743.wav,0,poule,1162,34,4,5,francais,m,1,0.1,66.78729562,1.55990879
5f85c88c61e23608718cbd03,126,2,2024-02-27T09:27:56.844Z,french_743.wav,0,poule,1162,34,4,5,francais,m,2,0.2,-0.09457626,1.00824872
5f85c88c61e23608718cbd03,126,2,2024-02-27T09:27:56.844Z,french_743.wav,0,poule,1162,34,4,5,francais,m,3,0.25666667,-6.43111547,1.50563658
5f85c88c61e23608718cbd03,127,2,2024-02-27T09:27:56.844Z,french_275.wav,0,poule,538,34,4,5,francais,m,0,0.0,-71.45872278,0.56157087
5f85c88c61e23608718cbd03,127,2,2024-02-27T09:27:56.844Z,french_275.wav,0,poule,538,34,4,5,francais,m,1,0.1,50.23093754,1.03531052
5f85c88c61e23608718cbd03,127,2,2024-02-27T09:27:56.844Z,french_275.wav,0,poule,538,34,4,5,francais,m,2,0.2,82.04936404,1.31605034
5f85c88c61e23608718cbd03,127,2,2024-02-27T09:27:56.844Z,french_275.wav,0,poule,538,34,4,5,francais,m,3,0.25666667,-63.35862329,0.72936955
5f85c88c61e23608718cbd03,128,2,2024-02-27T09:27:56.844Z,french_46.wav,0,pull,489,34,4,5,francais,m,0,0.0,-59.72524318,1.59606806
5f85c88c61e23608718cbd03,128,2,2024-02-27T09:27:56.844Z,french_46.wav,0,pull,489,34,4,5,francais,m,1,0.1,-28.22082853,1.01173367
5f85c88c61e23608718cbd03,128,2,2024-02-27T09:27:56.844Z,french_46.wav,0,pull,489,34,4,5,francais,m,2,0.2,2.0739194,0.40164164
5f85c88c61e23608718cbd03,128,2,2024-02-27T09:27:56.844Z,french_46.wav,0,pull,489,34,4,5,francais,m,3,0.25666667,-12.25343829,1.6352238
5f85c88c61e23608718cbd03,129,2,2024-02-27T09:27:56.844Z,french_60.wav,0,poule,532,34,4,5,francais,m,0,0.0,-40.9463495,0.32779355
5f85c88c61e23608718cbd03,129,2,2024-02-27T09:27:56.844Z,french_60.wav,0,poule,532,34,4,5,francais,m,1,0.1,8.65325309,0.55656076
5f85c88c61e23608718cbd03,129,2,2024-02-27T09:27:56.844Z,french_60.wav,0,poule,532,34,4,5,francais,m,2,0.2,-18.23980249,0.81322525
5f85c88c61e23608718cbd03,129,2,2024-02-27T09:27:56.844Z,french_60.wav,0,poule,532,34,4,5,francais,m,3,0.25666667,-34.79014982,0.57120985
5f85c88c61e23608718cbd03,130,2,2024-02-27T09:27:56.844Z,french_172.wav,0,poule,1105,34,4,5,francais,m,0,0.0,48.7065843,1.72774852
5f85c88c61e23608718cbd03,130,2,2024-02-27T09:27:56.844Z,french_172.wav,0,poule,1105,34,4,5,francais,m,1,0.1,36.17213003,0.94223675
5f85c88c61e23608718cbd03,130,2,2024-02-27T09:27:56.844Z,french_172.wav,0,poule,1105,34,4,5,francais,m,2,0.2,22.16215467,1.06724209
5f85c88c61e23608718cbd03,130,2,2024-02-27T09:27:56.844Z,french_172.wav,0,poule,1105,34,4,5,francais,m,3,0.25666667,3.80373218,1.19623342
5f85c88c61e23608718cbd03,131,2,2024-02-27T09:27:56.844Z,french_858.wav,0,pull,1045,34,4,5,francais,m,0,0.0,-70.8749608,0.88986318
5f85c88c61e23608718cbd03,131,2,2024-02-27T09:27:56.844Z,french_858.wav,0,pull,1045,34,4,5,francais,m,1,0.1,-68.92821451,0.34092676
5f85c88c61e23608718cbd03,131,2,2024-02-27T09:27:56.844Z,french_858.wav,0,pull,1045,34,4,5,francais,m,2,0.2,48.1063746,0.38776381
5f85c88c61e23608718cbd03,131,2,2024-02-27T09:27:56.844Z,french_858.wav,0,pull,1045,34,4,5,francais,m,3,0.25666667,0.98463207,1.26771376
5f85c88c61e23608718cbd03,132,2,2024-02-27T09:27:56.844Z,french_116.wav,0,poule,498,34,4,5,francais,m,0,0.0,79.79090537,0.91211254
5f85c88c61e23608718cbd03,132,2,2024-02-27T09:27:56.844Z,french_116.wav,0,poule,498,34,4,5,francais,m,1,0.1,-16.04583445,0.43560368
5f85c88c61e23608718cbd03,132,2,2024-02-27T09:27:56.844Z,french_116.wav,0,poule,498,34,4,5,francais,m,2,0.2,31.94743211,0.92781712
5f85c88c61e23608718cbd03,132,2,2024-02-27T09:27:56.844Z,french_116.wav,0,poule,498,34,4,5,francais,m,3,0.25666667,81.27397215,0.62795331
5f85c88c61e23608718cbd03,133,2,2024-02-27T09:27:56.844Z,french_674.wav,0,poule,1375,34,4,5,francais,m,0,0.0,36.8658398,0.63817569
5f85c88c61e23608718cbd03,133,2,2024-02-27T09:27:56.844Z,french_674.wav,0,poule,1375,34,4,5,francais,m,1,0.1,-70.55199619,1.9135219
5f85c88c61e23608718cbd03,133,2,2024-02-27T09:27:56.844Z,french_674.wav,0,poule,1375,34,4,5,francais,m,2,0.2,-3.70121723,1.96782527
5f85c88c61e23608718cbd03,133,2,2024-02-27T09:27:56.844Z,french_674.wav,0,poule,1375,34,4,5,francais,m,3,0.25666667,30.12615154,0.86862342
5f85c88c61e23608718cbd03,134,2,2024-02-27T09:27:56.844Z,french_438.wav,0,poule,1664,34,4,5,francais,m,0,0.0,38.28600595,0.24947118
5f85c88c61e23608718cbd03,134,2,2024-02-27T09:27:56.844Z,french_438.wav,0,poule,1664,34,4,5,francais,m,1,0.1,-2.73615403,0.88566368
5f85c88c61e23608718cbd03,134,2,2024-02-27T09:27:56.844Z,french_438.wav,0,poule,1664,34,4,5,francais,m,2,0.2,-43.32822043,0.23078024
5f85c88c61e23608718cbd03,134,2,2024-02-27T09:27:56.844Z,french_438.wav,0,poule,1664,34,4,5,francais,m,3,0.25666667,-21.43836029,1.64360752
5f85c88c61e23608718cbd03,135,2,2024-02-27T09:27:56.844Z,french_303.wav,0,pull,462,34,4,5,francais,m,0,0.0,-37.35678584,1.71041427
5f85c88c61e23608718cbd03,135,2,2024-02-27T09:27:56.844Z,french_303.wav,0,pull,462,34,4,5,francais,m,1,0.1,-60.74389767,0.8709471
5f85c88c61e23608718cbd03,135,2,2024-02-27T09:27:56.844Z,french_303.wav,0,pull,462,34,4,5,francais,m,2,0.2,74.2341812,1.02400634
5f85c88c61e23608718cbd03,135,2,2024-02-27T09:27:56.844Z,french_303.wav,0,pull,462,34,4,5,francais,m,3,0.25666667,74.10759125,0.07072526
5f85c88c61e23608718cbd03,136,2,2024-02-27T09:27:56.844Z,french_43.wav,0,poule,1463,34,4,5,francais,m,0,0.0,-6.86336629,1.4879687
5f85c88c61e23608718cbd03,136,2,2024-02-27T09:27:56.844Z,french_43.wav,0,poule,1463,34,4,5,francais,m,1,0.1,1.3862511,1.50259819
5f85c88c61e23608718cbd03,136,2,2024-02-27T09:27:56.844Z,french_43.wav,0,poule,1463,34,4,5,francais,m,2,0.2,-46.66652787,1.37505073
5f85c88c61e23608718cbd03,136,2,2024-02-27T09:27:56.844Z,french_43.wav,0,poule,1463,34,4,5,francais,m,3,0.25666667,99.62545591,0.7561706
5f85c88c61e23608718cbd03,137,2,2024-02-27T09:27:56.844Z,french_386.wav,0,poule,516,34,4,5,francais,m,0,0.0,50.68041389,0.75883449
5f85c88c61e23608718cbd03,137,2,2024-02-27T09:27:56.844Z,french_386.wav,0,poule,516,34,4,5,francais,m,1,0.1,19.37586599,1.33167931
5f85c88c61e23608718cbd03,137,2,2024-02-27T09:27:56.844Z,french_386.wav,0,poule,516,34,4,5,francais,m,2,0.2,0.19752764,0.89836148
5f85c88c61e23608718cbd03,137,2,2024-02-27T09:27:56.844Z,french_386.wav,0,poule,516,34,4,5,francais,m,3,0.25666667,-78.73875249,0.64515466
5f85c88c61e23608718cbd03,138,2,2024-02-27T09:27:56.844Z,french_396.wav,0,poule,853,34,4,5,francais,m,0,0.0,-42.7744445,0.31798537
5f85c88c61e23608718cbd03,138,2,2024-02-27T09:27:56.844Z,french_396.wav,0,poule,853,34,4,5,francais,m,1,0.1,3.59774391,0.67756986
5f85c88c61e23608718cbd03,138,2,2024-02-27T09:27:56.844Z,french_396.wav,0,poule,853,34,4,5,francais,m,2,0.2,-86.41595133,1.44355676
5f85c88c61e23608718cbd03,138,2,2024-02-27T09:27:56.844Z,french_396.wav,0,poule,853,34,4,5,francais,m,3,0.25666667,76.20152203,1.44326023
5f85c88c61e23608718cbd03,139,2,2024-02-27T09:27:56.844Z,french_277.wav,0,poule,696,34,4,5,francais,m,0,0.0,25.76771762,1.36859257
5f85c88c61e23608718cbd03,139,2,2024-02-27T09:27:56.844Z,french_277.wav,0,poule,696,34,4,5,francais,m,1,0.1,-70.25975294,1.02052852
5f85c88c61e23608718cbd03,139,2,2024-02-27T09:27:56.844Z,french_277.wav,0,poule,696,34,4,5,francais,m,2,0.2,-52.96477311,1.14771146
5f85c88c61e23608718cbd03,139,2,2024-02-27T09:27:56.844Z,french_277.wav,0,poule,696,34,4,5,francais,m,3,0.25666667,41.51950841,0.3441713
5f85c88c61e23608718cbd03,140,2,2024-02-27T09:27:56.844Z,french_764.wav,0,pull,1030,34,4,5,francais,m,0,0.0,-8.95969579,0.46272501
5f85c88c61e23608718cbd03,140,2,2024-02-27T09:27:56.844Z,french_764.wav,0,pull,1030,34,4,5,francais,m,1,0.1,5.11158076,1.84250995
5f85c88c61e23608718cbd03,140,2,2024-02-27T09:27:56.844Z,french_764.wav,0,pull,1030,34,4,5,francais,m,2,0.2,3.7358826,0.71585727
5f85c88c61e23608718cbd03,140,2,2024-02-27T09:27:56.844Z,french_764.wav,0,pull,1030,34,4,5,francais,m,3,0.25666667,-14.74224302,0.58101627
5f85c88c61e23608718cbd03,141,2,2024-02-27T09:27:56.844Z,french_729.wav,0,pull,727,34,4,5,francais,m,0,0.0,53.20588085,1.49423138
5f85c88c61e23608718cbd03,141,2,2024-02-27T09:27:56.844Z,french_729.wav,0,pull,727,34,4,5,francais,m,1,0.1,89.42375323,0.2074599
5f85c88c61e23608718cbd03,141,2,2024-02-27T09:27:56.844Z,french_729.wav,0,pull,727,34,4,5,francais,m,2,0.2,-13.37040397,1.07839331
5f85c88c61e23608718cbd03,141,2,2024-02-27T09:27:56.844Z,french_729.wav,0,pull,727,34,4,5,francais,m,3,0.25666667,-26.89484255,0.61183567
5f85c88c61e23608718cbd03,142,2,2024-02-27T09:27:56.844Z,french_851.wav,0,pull,732,34,4,5,francais,m,0,0.0,-16.14738252,1.77999263
5f85c88c61e23608718cbd03,142,2,2024-02-27T09:27:56.844Z,french_851.wav,0,pull,732,34,4,5,francais,m,1,0.1,19.84507786,0.90385235
5f85c88c61e23608718cbd03,142,2,2024-02-27T09:27:56.844Z,french_851.wav,0,pull,732,34,4,5,francais,m,2,0.2,-46.64792285,0.51993189
5f85c88c61e23608718cbd03,142,2,2024-02-27T09:27:56.844Z,french_851.wav,0,pull,732,34,4,5,francais,m,3,0.25666667,-81.41203514,1.06673989
5f85c88c61e23608718cbd03,143,2,2024-02-27T09:27:56.844Z,french_410.wav,0,poule,817,34,4,5,francais,m,0,0.0,-57.70995681,0.42078672
5f85c88c61e23608718cbd03,143,2,2024-02-27T09:27:56.844Z,french_410.wav,0,poule,817,34,4,5,francais,m,1,0.1,48.77026686,1.91428116
5f85c88c61e23608718cbd03,143,2,2024-02-27T09:27:56.844Z,french_410.wav,0,poule,817,34,4,5,francais,m,2,0.2,-48.38648813,0.69257086
5f85c88c61e23608718cbd03,143,2,2024-02-27T09:27:56.844Z,french_410.wav,0,poule,817,34,4,5,francais,m,3,0.25666667,53.40375253,1.23009328
5f85c88c61e23608718cbd03,144,2,2024-02-27T09:27:56.844Z,french_651.wav,0,poule,778,34,4,5,francais,m,0,0.0,-39.76270633,0.57054307
5f85c88c61e23608718cbd03,144,2,2024-02-27T09:27:56.844Z,french_651.wav,0,poule,778,34,4,5,francais,m,1,0.1,98.43983978,0.47887101
5f85c88c61e23608718cbd03,144,2,2024-02-27T09:27:56.844Z,french_651.wav,0,poule,778,34,4,5,francais,m,2,0.2,-35.93188367,1.36476361
5f85c88c61e23608718cbd03,144,2,2024-02-27T09:27:56.844Z,french_651.wav,0,poule,778,34,4,5,francais,m,3,0.25666667,-13.56550518,1.70592369
5f85c88c61e23608718cbd03,145,2,2024-02-27T09:27:56.844Z,french_174.wav,0,poule,732,34,4,5,francais,m,0,0.0,1.45674265,0.26044346
5f85c88c61e23608718cbd03,145,2,2024-02-27T09:27:56.844Z,french_174.wav,0,poule,732,34,4,5,francais,m,1,0.1,47.27057229,1.87217745
5f85c88c61e23608718cbd03,145,2,2024-02-27T09:27:56.844Z,french_174.wav,0,poule,732,34,4,5,francais,m,2,0.2,-41.5239841,1.40485436
5f85c88c61e23608718cbd03,145,2,2024-02-27T09:27:56.844Z,french_174.wav,0,poule,732,34,4,5,francais,m,3,0.25666667,32.3517821,1.2389409
5f85c88c61e23608718cbd03,146,2,2024-02-27T09:27:56.844Z,french_923.wav,0,pull,683,34,4,5,francais,m,0,0.0,-57.84523262,1.35677253
5f85c88c61e23608718cbd03,146,2,2024-02-27T09:27:56.844Z,french_923.wav,0,pull,683,34,4,5,francais,m,1,0.1,-15.65652506,1.1280373
5f85c88c61e23608718cbd03,146,2,2024-02-27T09:27:56.844Z,french_923.wav,0,pull,683,34,4,5,francais,m,2,0.2,37.84243464,1.38752537
5f85c88c61e23608718cbd03,146,2,2024-02-27T09:27:56.844Z,french_923.wav,0,pull,683,34,4,5,francais,m,3,0.25666667,15.41728704,1.42596606
5f85c88c61e23608718cbd03,147,2,2024-02-27T09:27:56.844Z,french_865.wav,0,pull,910,34,4,5,francais,m,0,0.0,50.32963137,0.72864737
5f85c88c61e23608718cbd03,147,2,2024-02-27T09:27:56.844Z,french_865.wav,0,pull,910,34,4,5,francais,m,1,0.1,-34.20059836,0.63562985
5f85c88c61e23608718cbd03,147,2,2024-02-27T09:27:56.844Z,french_865.wav,0,pull,910,34,4,5,francais,m,2,0.2,-1.26220982,0.61823994
5f85c88c61e23608718cbd03,147,2,2024-02-27T09:27:56.844Z,french_865.wav,0,pull,910,34,4,5,francais,m,3,0.25666667,-35.44054545,1.79442015
5f85c88c61e23608718cbd03,148,2,2024-02-27T09:27:56.844Z,french_940.wav,0,poule,399,34,4,5,francais,m,0,0.0,60.64207397,1.38818271
5f85c88c61e23608718cbd03,148,2,2024-02-27T09:27:56.844Z,french_940.wav,0,poule,399,34,4,5,francais,m,1,0.1,-16.07257124,1.64047706
5f85c88c61e23608718cbd03,148,2,2024-02-27T09:27:56.844Z,french_940.wav,0,poule,399,34,4,5,francais,m,2,0.2,-38.93693506,1.31963125
5f85c88c61e23608718cbd03,148,2,2024-02-27T09:27:56.844Z,french_940.wav,0,poule,399,34,4,5,francais,m,3,0.25666667,-22.19838027,1.73227719
5f85c88c61e23608718cbd03,149,2,2024-02-27T09:27:56.844Z,french_610.wav,0,poule,825,34,4,5,francais,m,0,0.0,41.67803598,0.10564039
5f85c88c61e23608718cbd03,149,2,2024-02-27T09:27:56.844Z,french_610.wav,0,poule,825,34,4,5,francais,m,1,0.1,50.6586837,1.22556883
5f85c88c61e23608718cbd03,149,2,2024-02-27T09:27:56.844Z,french_610.wav,0,poule,825,34,4,5,francais,m,2,0.2,-85.20353251,1.48633574
5f85c88c61e23608718cbd03,149,2,2024-02-27T09:27:56.844Z,french_610.wav,0,poule,825,34,4,5,francais,m,3,0.25666667,-12.88596769,1.12124299
5f85c88c61e23608718cbd03,150,3,2024-02-27T09:29:40.096Z,french_841.wav,0,poule,995,34,4,5,francais,m,0,0.0,-39.25619305,0.53587318
5f85c88c61e23608718cbd03,150,3,2024-02-27T09:29:40.096Z,french_841.wav,0,poule,995,34,4,5,francais,m,1,0.1,99.64346723,0.26500163
5f85c88c61e23608718cbd03,150,3,2024-02-27T09:29:40.096Z,french_841.wav,0,poule,995,34,4,5,francais,m,2,0.2,76.90020667,1.77796469
5f85c88c61e23608718cbd03,150,3,2024-02-27T09:29:40.096Z,french_841.wav,0,poule,995,34,4,5,francais,m,3,0.25666667,40.01429738,0.75111943
5f85c88c61e23608718cbd03,151,3,2024-02-27T09:29:40.096Z,french_771.wav,0,poule,665,34,4,5,francais,m,0,0.0,-31.32443984,0.10443369
5f85c88c61e23608718cbd03,151,3,2024-02-27T09:29:40.096Z,french_771.wav,0,poule,665,34,4,5,francais,m,1,0.1,2.91896775,0.0162425
5f85c88c61e23608718cbd03,151,3,2024-02-27T09:29:40.096Z,french_771.wav,0,poule,665,34,4,5,francais,m,2,0.2,73.75563113,0.96029425
5f85c88c61e23608718cbd03,151,3,2024-02-27T09:29:40.096Z,french_771.wav,0,poule,665,34,4,5,francais,m,3,0.25666667,61.27629387,1.26482275
5f85c88c61e23608718cbd03,152,3,2024-02-27T09:29:40.096Z,french_111.wav,0,poule,1013,34,4,5,francais,m,0,0.0,1.59326178,0.67104434
5f85c88c61e23608718cbd03,152,3,2024-02-27T09:29:40.096Z,french_111.wav,0,poule,1013,34,4,5,francais,m,1,0.1,-40.8911656,0.22448148
5f85c88c61e23608718cbd03,152,3,2024-02-27T09:29:40.096Z,french_111.wav,0,poule,1013,34,4,5,francais,m,2,0.2,-66.59771714,1.3255008
5f85c88c61e23608718cbd03,152,3,2024-02-27T09:29:40.096Z,french_111.wav,0,poule,1013,34,4,5,francais,m,3,0.25666667,93.67842788,0.49085037
5f85c88c61e23608718cbd03,153,3,2024-02-27T09:29:40.096Z,french_508.wav,0,poule,629,34,4,5,francais,m,0,0.0,40.98112686,1.35724839
5f85c88c61e23608718cbd03,153,3,2024-02-27T09:29:40.096Z,french_508.wav,0,poule,629,34,4,5,francais,m,1,0.1,-56.96831063,1.54051685
5f85c88c61e23608718cbd03,153,3,2024-02-27T09:29:40.096Z,french_508.wav,0,poule,629,34,4,5,francais,m,2,0.2,-35.39284842,1.20443674
5f85c88c61e23608718cbd03,153,3,2024-02-27T09:29:40.096Z,french_508.wav,0,poule,629,34,4,5,francais,m,3,0.25666667,-19.97238517,1.82942033
5f85c88c61e23608718cbd03,154,3,2024-02-27T09:29:40.096Z,french_465.wav,0,poule,741,34,4,5,francais,m,0,0.0,75.74191185,0.24775687
5f85c88c61e23608718cbd03,154,3,2024-02-27T09:29:40.096Z,french_465.wav,0,poule,741,34,4,5,francais,m,1,0.1,-78.40057178,0.61634124
5f85c88c61e23608718cbd03,154,3,2024-02-27T09:29:40.096Z,french_465.wav,0,poule,741,34,4,5,francais,m,2,0.2,-12.36406326,1.57309013
5f85c88c61e23608718cbd03,154,3,2024-02-27T09:29:40.096Z,french_465.wav,0,poule,741,34,4,5,francais,m,3,0.25666667,-26.5706303,0.56284004
5f85c88c61e23608718cbd03,155,3,2024-02-27T09:29:40.096Z,french_705.wav,0,pull,322,34,4,5,francais,m,0,0.0,-31.52083019,1.71356233
5f85c88c61e23608718cbd03,155,3,2024-02-27T09:29:40.096Z,french_705.wav,0,pull,322,34,4,5,francais,m,1,0.1,93.24854214,0.26324818
5f85c88c61e23608718cbd03,155,3,2024-02-27T09:29:40.096Z,french_705.wav,0,pull,322,34,4,5,francais,m,2,0.2,-36.26217339,0.66385994
5f85c88c61e23608718cbd03,155,3,2024-02-27T09:29:40.096Z,french_705.wav,0,pull,322,34,4,5,francais,m,3,0.25666667,58.31905924,1.85027868
5f85c88c61e23608718cbd03,156,3,2024-02-27T09:29:40.096Z,french_892.wav,0,pull,415,34,4,5,francais,m,0,0.0,-9.89123065,1.43345907
5f85c88c61e23608718cbd03,156,3,2024-02-27T09:29:40.096Z,french_892.wav,0,pull,415,34,4,5,francais,m,1,0.1,-29.48301763,0.60115207
5f85c88c61e23608718cbd03,156,3,2024-02-27T09:29:40.096Z,french_892.wav,0,pull,415,34,4,5,francais,m,2,0.2,-20.12274852,0.51672516
5f85c88c61e23608718cbd03,156,3,2024-02-27T09:29:40.096Z,french_892.wav,0,pull,415,34,4,5,francais,m,3,0.25666667,-63.31716547,0.2983609
5f85c88c61e23608718cbd03,157,3,2024-02-27T09:29:40.096Z,french_13.wav,0,poule,399,34,4,5,francais,m,0,0.0,-32.13252367,0.96861247
5f85c88c61e23608718cbd03,157,3,2024-02-27T09:29:40.096Z,french_13.wav,0,poule,399,34,4,5,francais,m,1,0.1,70.64746455,0.7552715
5f85c88c61e23608718cbd03,157,3,2024-02-27T09:29:40.096Z,french_13.wav,0,poule,399,34,4,5,francais,m,2,0.2,-67.50971173,1.7097775
5f85c88c61e23608718cbd03,157,3,2024-02-27T09:29:40.096Z,french_13.wav,0,poule,399,34,4,5,francais,m,3,0.25666667,94.74832862,1.62121013
5f85c88c61e23608718cbd03,158,3,2024-02-27T09:29:40.096Z,french_154.wav,0,poule,567,34,4,5,francais,m,0,0.0,-35.77368222,0.10248514
5f85c88c61e23608718cbd03,158,3,2024-02-27T09:29:40.096Z,french_154.wav,0,poule,567,34,4,5,francais,m,1,0.1,5.93918526,0.42084566
5f85c88c61e23608718cbd03,158,3,2024-02-27T09:29:40.096Z,french_154.wav,0,poule,567,34,4,5,francais,m,2,0.2,36.13172948,1.29147589
5f85c88c61e23608718cbd03,158,3,2024-02-27T09:29:40.096Z,french_154.wav,0,poule,567,34,4,5,francais,m,3,0.25666667,-52.77395679,0.60791213
5f85c88c61e23608718cbd03,159,3,2024-02-27T09:29:40.096Z,french_170.wav,0,poule,555,34,4,5,francais,m,0,0.0,33.63406691,1.37140183
5f85c88c61e23608718cbd03,159,3,2024-02-27T09:29:40.096Z,french_170.wav,0,poule,555,34,4,5,francais,m,1,0.1,-66.14633185,0.98919038
5f85c88c61e23608718cbd03,159,3,2024-02-27T09:29:40.096Z,french_170.wav,0,poule,555,34,4,5,francais,m,2,0.2,-74.26701986,1.38629831
5f85c88c61e23608718cbd03,159,3,2024-02-27T09:29:40.096Z,french_170.wav,0,poule,555,34,4,5,francais,m,3,0.25666667,32.33295865,0.43392523
5f85c88c61e23608718cbd03,160,3,2024-02-27T09:29:40.096Z,french_453.wav,0,pull,414,34,4,5,francais,m,0,0.0,17.16336321,0.53243678
5f85c88c61e23608718cbd03,160,3,2024-02-27T09:29:40.096Z,french_453.wav,0,pull,414,34,4,5,francais,m,1,0.1,-89.93005254,1.83492113
5f85c88c61e23608718cbd03,160,3,2024-02-27T09:29:40.096Z,french_453.wav,0,pull,414,34,4,5,francais,m,2,0.2,91.22824445,1.32944014
5f85c88c61e23608718cbd03,160,3,2024-02-27T09:29:40.096Z,french_453.wav,0,pull,414,34,4,5,francais,m,3,0.25666667,-84.37948707,0.35681228
5f85c88c61e23608718cbd03,161,3,2024-02-27T09:29:40.096Z,french_350.wav,0,pull,713,34,4,5,francais,m,0,0.0,-94.89147327,1.34276454
5f85c88c61e23608718cbd03,161,3,2024-02-27T09:29:40.096Z,french_350.wav,0,pull,713,34,4,5,francais,m,1,0.1,-69.96874844,1.56346818
5f85c88c61e23608718cbd03,161,3,2024-02-27T09:29:40.096Z,french_350.wav,0,pull,713,34,4,5,francais,m,2,0.2,-41.05008416,0.76037532
5f85c88c61e23608718cbd03,161,3,2024-02-27T09:29:40.096Z,french_350.wav,0,pull,713,34,4,5,francais,m,3,0.25666667,27.21030297,1.08356683
5f85c88c61e23608718cbd03,162,3,2024-02-27T09:29:40.096Z,french_251.wav,0,poule,538,34,4,5,francais,m,0,0.0,24.13853868,0.84222584
5f85c88c61e23608718cbd03,162,3,2024-02-27T09:29:40.096Z,french_251.wav,0,poule,538,34,4,5,francais,m,1,0.1,69.59392202,0.35569373
5f85c88c61e23608718cbd03,162,3,2024-02-27T09:29:40.096Z,french_251.wav,0,poule,538,34,4,5,francais,m,2,0.2,5.2598313,1.18426262
5f85c88c61e23608718cbd03,162,3,2024-02-27T09:29:40.096Z,french_251.wav,0,poule,538,34,4,5,francais,m,3,0.25666667,49.58604743,1.47594706
5f85c88c61e23608718cbd03,163,3,2024-02-27T09:29:40.096Z,french_189.wav,0,pull,1370,34,4,5,francais,m,0,0.0,25.45363348,0.70243048
5f85c88c61e23608718cbd03,163,3,2024-02-27T09:29:40.096Z,french_189.wav,0,pull,1370,34,4,5,francais,m,1,0.1,10.19219643,0.78977161
5f85c88c61e23608718cbd03,163,3,2024-02-27T09:29:40.096Z,french_189.wav,0,pull,1370,34,4,5,francais,m,2,0.2,79.32306783,0.18017453
5f85c88c61e23608718cbd03,163,3,2024-02-27T09:29:40.096Z,french_189.wav,0,pull,1370,34,4,5,francais,m,3,0.25666667,77.27494318,0.76350619
5f85c88c61e23608718cbd03,164,3,2024-02-27T09:29:40.096Z,french_812.wav,0,poule,389,34,4,5,francais,m,0,0.0,78.53201718,1.73310634
5f85c88c61e23608718cbd03,164,3,2024-02-27T09:29:40.096Z,french_812.wav,0,poule,389,34,4,5,francais,m,1,0.1,87.32508034,1.73147281
5f85c88c61e23608718cbd03,164,3,2024-02-27T09:29:40.096Z,french_812.wav,0,poule,389,34,4,5,francais,m,2,0.2,77.15455549,1.58178344
5f85c88c61e23608718cbd03,164,3,2024-02-27T09:29:40.096Z,french_812.wav,0,poule,389,34,4,5,francais,m,3,0.25666667,-51.33102937,0.27993183
5f85c88c61e23608718cbd03,165,3,2024-02-27T09:29:40.096Z,french_446.wav,0,poule,1675,34,4,5,francais,m,0,0.0,-77.26428063,0.33935674
5f85c88c61e23608718cbd03,165,3,2024-02-27T09:29:40.096Z,french_446.wav,0,poule,1675,34,4,5,francais,m,1,0.1,-65.30305353,1.45146817
5f85c88c61e23608718cbd03,165,3,2024-02-27T09:29:40.096Z,french_446.wav,0,poule,1675,34,4,5,francais,m,2,0.2,-57.58787345,0.82478891
5f85c88c61e23608718cbd03,165,3,2024-02-27T09:29:40.096Z,french_446.wav,0,poule,1675,34,4,5,francais,m,3,0.25666667,16.67337698,1.36014186
5f85c88c61e23608718cbd03,166,3,2024-02-27T09:29:40.096Z,french_844.wav,0,pull,769,34,4,5,francais,m,0,0.0,29.77319266,0.89130203
5f85c88c61e23608718cbd03,166,3,2024-02-27T09:29:40.096Z,french_844.wav,0,pull,769,34,4,5,francais,m,1,0.1,-6.65775534,0.41170989
5f85c88c61e23608718cbd03,166,3,2024-02-27T09:29:40.096Z,french_844.wav,0,pull,769,34,4,5,francais,m,2,0.2,88.70188171,0.96705276
5f85c88c61e23608718cbd03,166,3,2024-02-27T09:29:40.096Z,french_844.wav,0,pull,769,34,4,5,francais,m,3,0.25666667,-96.32304745,0.58258054
5f85c88c61e23608718cbd03,167,3,2024-02-27T09:29:40.096Z,french_917.wav,0,poule,479,34,4,5,francais,m,0,0.0,50.57286357,1.65201844
5f85c88c61e23608718cbd03,167,3,2024-02-27T09:29:40.096Z,french_917.wav,0,poule,479,34,4,5,francais,m,1,0.1,-63.34867724,1.47811083
5f85c88c61e23608718cbd03,167,3,2024-02-27T09:29:40.096Z,french_917.wav,0,poule,479,34,4,5,francais,m,2,0.2,6.48628749,1.28993383
5f85c88c61e23608718cbd03,167,3,2024-02-27T09:29:40.096Z,french_917.wav,0,poule,479,34,4,5,francais,m,3,0.25666667,42.71671415,0.78276191
5f85c88c61e23608718cbd03,168,3,2024-02-27T09:29:40.096Z,french_665.wav,0,poule,808,34,4,5,francais,m,0,0.0,1.77078633,0.29838278
5f85c88c61e23608718cbd03,168,3,2024-02-27T09:29:40.096Z,french_665.wav,0,poule,808,34,4,5,francais,m,1,0.1,-95.60257374,0.72198918
5f85c88c61e23608718cbd03,168,3,2024-02-27T09:29:40.096Z,french_665.wav,0,poule,808,34,4,5,francais,m,2,0.2,-26.21333041,0.91284695
5f85c88c61e23608718cbd03,168,3,2024-02-27T09:29:40.096Z,french_665.wav,0,poule,808,34,4,5,francais,m,3,0.25666667,-67.7705493,0.52625369
5f85c88c61e23608718cbd03,169,3,2024-02-27T09:29:40.096Z,french_461.wav,0,poule,572,34,4,5,francais,m,0,0.0,76.34817382,0.72953599
5f85c88c61e23608718cbd03,169,3,2024-02-27T09:29:40.096Z,french_461.wav,0,poule,572,34,4,5,francais,m,1,0.1,2.37579461,1.5415695
5f85c88c61e23608718cbd03,169,3,2024-02-27T09:29:40.096Z,french_461.wav,0,poule,572,34,4,5,francais,m,2,0.2,-59.90047781,1.01078515
5f85c88c61e23608718cbd03,169,3,2024-02-27T09:29:40.096Z,french_461.wav,0,poule,572,34,4,5,francais,m,3,0.25666667,20.08623444,1.02737445
5f85c88c61e23608718cbd03,170,3,2024-02-27T09:29:40.096Z,french_819.wav,0,poule,914,34,4,5,francais,m,0,0.0,10.23888344,1.93351894
5f85c88c61e23608718cbd03,170,3,2024-02-27T09:29:40.096Z,french_819.wav,0,poule,914,34,4,5,francais,m,1,0.1,14.33129562,0.24790788
5f85c88c61e23608718cbd03,170,3,2024-02-27T09:29:40.096Z,french_819.wav,0,poule,914,34,4,5,francais,m,2,0.2,-57.61493264,1.58463495
5f85c88c61e23608718cbd03,170,3,2024-02-27T09:29:40.096Z,french_819.wav,0,poule,914,34,4,5,francais,m,3,0.25666667,33.17012155,0.31192511
5f85c88c61e23608718cbd03,171,3,2024-02-27T09:29:40.096Z,french_179.wav,0,poule,736,34,4,5,francais,m,0,0.0,-38.66887761,0.36967864
5f85c88c61e23608718cbd03,171,3,2024-02-27T09:29:40.096Z,french_179.wav,0,poule,736,34,4,5,francais,m,1,0.1,-45.74367449,1.41588785
5f85c88c61e23608718cbd03,171,3,2024-02-27T09:29:40.096Z,french_179.wav,0,poule,736,34,4,5,francais,m,2,0.2,41.91599006,1.38004937
5f85c88c61e23608718cbd03,171,3,2024-02-27T09:29:40.096Z,french_179.wav,0,poule,736,34,4,5,francais,m,3,0.25666667,36.18860402,1.10239155
5f85c88c61e23608718cbd03,172,3,2024-02-27T09:29:40.096Z,french_243.wav,0,poule,603,34,4,5,francais,m,0,0.0,94.15218044,0.53955239
5f85c88c61e23608718cbd03,172,3,2024-02-27T09:29:40.096Z,french_243.wav,0,poule,603,34,4,5,francais,m,1,0.1,77.54642038,1.33237065
5f85c88c61e23608718cbd03,172,3,2024-02-27T09:29:40.096Z,french_243.wav,0,poule,603,34,4,5,francais,m,2,0.2,-54.61145872,1.76705621
5f85c88c61e23608718cbd03,172,3,2024-02-27T09:29:40.096Z,french_243.wav,0,poule,603,34,4,5,francais,m,3,0.25666667,-22.57869657,1.15577178
5f85c88c61e23608718cbd03,173,3,2024-02-27T09:29:40.096Z,french_983.wav,0,pull,627,34,4,5,francais,m,0,0.0,-14.13750987,1.65765615
5f85c88c61e23608718cbd03,173,3,2024-02-27T09:29:40.096Z,french_983.wav,0,pull,627,34,4,5,francais,m,1,0.1,89.20229744,0.32114998
5f85c88c61e23608718cbd03,173,3,2024-02-27T09:29:40.096Z,french_983.wav,0,pull,627,34,4,5,francais,m,2,0.2,38.93652685,0.52368354
5f85c88c61e23608718cbd03,173,3,2024-02-27T09:29:40.096Z,french_983.wav,0,pull,627,34,4,5,francais,m,3,0.25666667,37.63986889,1.60531686
5f85c88c61e23608718cbd03,174,3,2024-02-27T09:29:40.096Z,french_228.wav,0,poule,476,34,4,5,francais,m,0,0.0,-13.78258648,1.36655769
5f85c88c61e23608718cbd03,174,3,2024-02-27T09:29:40.096Z,french_228.wav,0,poule,476,34,4,5,francais,m,1,0.1,27.88870681,1.56643938
5f85c88c61e23608718cbd03,174,3,2024-02-27T09:29:40.096Z,french_228.wav,0,poule,476,34,4,5,francais,m,2,0.2,-8.73674486,0.29403468
5f85c88c61e23608718cbd03,174,3,2024-02-27T09:29:40.096Z,french_228.wav,0,poule,476,34,4,5,francais,m,3,0.25666667,-13.88179653,0.32348249
5f85c88c61e23608718cbd03,175,3,2024-02-27T09:29:40.096Z,french_495.wav,0,poule,582,34,4,5,francais,m,0,0.0,93.48002859,1.03648483
5f85c88c61e23608718cbd03,175,3,2024-02-27T09:29:40.096Z,french_495.wav,0,poule,582,34,4,5,francais,m,1,0.1,99.142871,1.23043948
5f85c88c61e23608718cbd03,175,3,2024-02-27T09:29:40.096Z,french_495.wav,0,poule,582,34,4,5,francais,m,2,0.2,-33.98102163,1.1332488
5f85c88c61e23608718cbd03,175,3,2024-02-27T09:29:40.096Z,french_495.wav,0,poule,582,34,4,5,francais,m,3,0.25666667,38.68354094,0.62015381
5f85c88c61e23608718cbd03,176,3,2024-02-27T09:29:40.096Z,french_219.wav,0,pull,527,34,4,5,francais,m,0,0.0,-98.78648146,1.35832625
5f85c88c61e23608718cbd03,176,3,2024-02-27T09:29:40.096Z,french_219.wav,0,pull,527,34,4,5,francais,m,1,0.1,-54.51672601,0.9105506
5f85c88c61e23608718cbd03,176,3,2024-02-27T09:29:40.096Z,french_219.wav,0,pull,527,34,4,5,francais,m,2,0.2,75.82451993,0.22027405
5f85c88c61e23608718cbd03,176,3,2024-02-27T09:29:40.096Z,french_219.wav,0,pull,527,34,4,5,francais,m,3,0.25666667,42.52821499,1.53742188
5f85c88c61e23608718cbd03,177,3,2024-02-27T09:29:40.096Z,french_533.wav,0,poule,437,34,4,5,francais,m,0,0.0,16.04004141,1.94214745
5f85c88c61e23608718cbd03,177,3,2024-02-27T09:29:40.096Z,french_533.wav,0,poule,437,34,4,5,francais,m,1,0.1,56.74964814,0.96958639
5f85c88c61e23608718cbd03,177,3,2024-02-27T09:29:40.096Z,french_533.wav,0,poule,437,34,4,5,francais,m,2,0.2,94.00728235,1.49563925
5f85c88c61e23608718cbd03,177,3,2024-02-27T09:29:40.096Z,french_533.wav,0,poule,437,34,4,5,francais,m,3,0.25666667,-15.92685786,1.75047909
5f85c88c61e23608718cbd03,178,3,2024-02-27T09:29:40.096Z,french_848.wav,0,poule,1191,34,4,5,francais,m,0,0.0,-60.99605007,1.01059702
5f85c88c61e23608718cbd03,178,3,2024-02-27T09:29:40.096Z,french_848.wav,0,poule,1191,34,4,5,francais,m,1,0.1,-27.05939135,1.98581859
5f85c88c61e23608718cbd03,178,3,2024-02-27T09:29:40.096Z,french_848.wav,0,poule,1191,34,4,5,francais,m,2,0.2,-10.58439289,0.30142011
5f85c88c61e23608718cbd03,178,3,2024-02-27T09:29:40.096Z,french_848.wav,0,poule,1191,34,4,5,francais,m,3,0.25666667,-17.47548333,1.16939553
5f85c88c61e23608718cbd03,179,3,2024-02-27T09:29:40.096Z,french_419.wav,0,poule,395,34,4,5,francais,m,0,0.0,-42.00575778,0.81351681
5f85c88c61e23608718cbd03,179,3,2024-02-27T09:29:40.096Z,french_419.wav,0,poule,395,34,4,5,francais,m,1,0.1,-35.26826913,1.62056968
5f85c88c61e23608718cbd03,179,3,2024-02-27T09:29:40.096Z,french_419.wav,0,poule,395,34,4,5,francais,m,2,0.2,-18.10946272,1.68465097
5f85c88c61e23608718cbd03,179,3,2024-02-27T09:29:40.096Z,french_419.wav,0,poule,395,34,4,5,francais,m,3,0.25666667,-2.55322937,1.07803679
5f85c88c61e23608718cbd03,180,3,2024-02-27T09:29:40.096Z,french_26.wav,0,pull,417,34,4,5,francais,m,0,0.0,-38.52186107,1.55913274
5f85c88c61e23608718cbd03,180,3,2024-02-27T09:29:40.096Z,french_26.wav,0,pull,417,34,4,5,francais,m,1,0.1,92.94908957,0.73355846
5f85c88c61e23608718cbd03,180,3,2024-02-27T09:29:40.096Z,french_26.wav,0,pull,417,34,4,5,francais,m,2,0.2,38.63958599,0.51766924
5f85c88c61e23608718cbd03,180,3,2024-02-27T09:29:40.096Z,french_26.wav,0,pull,417,34,4,5,francais,m,3,0.25666667,81.76747676,0.7935304
5f85c88c61e23608718cbd03,181,3,2024-02-27T09:29:40.096Z,french_202.wav,0,pull,673,34,4,5,francais,m,0,0.0,13.54970771,0.17477243
5f85c88c61e23608718cbd03,181,3,2024-02-27T09:29:40.096Z,french_202.wav,0,pull,673,34,4,5,francais,m,1,0.1,96.46591802,0.30528336
5f85c88c61e23608718cbd03,181,3,2024-02-27T09:29:40.096Z,french_202.wav,0,pull,673,34,4,5,francais,m,2,0.2,96.13650215,0.41819952
5f85c88c61e23608718cbd03,181,3,2024-02-27T09:29:40.096Z,french_202.wav,0,pull,673,34,4,5,francais,m,3,0.25666667,-35.2772524,1.86493567
5f85c88c61e23608718cbd03,182,3,2024-02-27T09:29:40.096Z,french_897.wav,0,poule,561,34,4,5,francais,m,0,0.0,-2.62488743,0.95618392
5f85c88c61e23608718cbd03,182,3,2024-02-27T09:29:40.096Z,french_897.wav,0,poule,561,34,4,5,francais,m,1,0.1,-35.09835725,0.97615626
5f85c88c61e23608718cbd03,182,3,2024-02-27T09:29:40.096Z,french_897.wav,0,poule,561,34,4,5,francais,m,2,0.2,-7.90226738,0.33556547
5f85c88c61e23608718cbd03,182,3,2024-02-27T09:29:40.096Z,french_897.wav,0,poule,561,34,4,5,francais,m,3,0.25666667,34.22753828,0.12618193
5f85c88c61e23608718cbd03,183,3,2024-02-27T09:29:40.096Z,french_903.wav,0,poule,455,34,4,5,francais,m,0,0.0,-17.08871031,0.50691937
5f85c88c61e23608718cbd03,183,3,2024-02-27T09:29:40.096Z,french_903.wav,0,poule,455,34,4,5,francais,m,1,0.1,52.87150714,1.06902364
5f85c88c61e23608718cbd03,183,3,2024-02-27T09:29:40.096Z,french_903.wav,0,poule,455,34,4,5,francais,m,2,0.2,-46.35078868,1.77440634
5f85c88c61e23608718cbd03,183,3,2024-02-27T09:29:40.096Z,french_903.wav,0,poule,455,34,4,5,francais,m,3,0.25666667,67.27089244,0.5573406
5f85c88c61e23608718cbd03,184,3,2024-02-27T09:29:40.096Z,french_439.wav,0,poule,499,34,4,5,francais,m,0,0.0,66.25011988,1.00096297
5f85c88c61e23608718cbd03,184,3,2024-02-27T09:29:40.096Z,french_439.wav,0,poule,499,34,4,5,francais,m,1,0.1,46.32034445,0.12322103
5f85c88c61e23608718cbd03,184,3,2024-02-27T09:29:40.096Z,french_439.wav,0,poule,499,34,4,5,francais,m,2,0.2,38.26264731,1.5814324
5f85c88c61e23608718cbd03,184,3,2024-02-27T09:29:40.096Z,french_439.wav,0,poule,499,34,4,5,francais,m,3,0.25666667,-42.53278778,0.06125751
5f85c88c61e23608718cbd03,185,3,2024-02-27T09:29:40.096Z,french_205.wav,0,poule,828,34,4,5,francais,m,0,0.0,31.24463061,0.69283155
5f85c88c61e23608718cbd03,185,3,2024-02-27T09:29:40.096Z,french_205.wav,0,poule,828,34,4,5,francais,m,1,0.1,-22.87848896,1.55894518
5f85c88c61e23608718cbd03,185,3,2024-02-27T09:29:40.096Z,french_205.wav,0,poule,828,34,4,5,francais,m,2,0.2,-36.82881223,1.67941014
5f85c88c61e23608718cbd03,185,3,2024-02-27T09:29:40.096Z,french_205.wav,0,poule,828,34,4,5,francais,m,3,0.25666667,-47.84026219,0.92091984
5f85c88c61e23608718cbd03,186,3,2024-02-27T09:29:40.096Z,french_427.wav,0,pull,717,34,4,5,francais,m,0,0.0,-76.02138843,1.52776537
5f85c88c61e23608718cbd03,186,3,2024-02-27T09:29:40.096Z,french_427.wav,0,pull,717,34,4,5,francais,m,1,0.1,-79.3514541,0.93213061
5f85c88c61e23608718cbd03,186,3,2024-02-27T09:29:40.096Z,french_427.wav,0,pull,717,34,4,5,francais,m,2,0.2,33.13783193,1.10363763
5f85c88c61e23608718cbd03,186,3,2024-02-27T09:29:40.096Z,french_427.wav,0,pull,717,34,4,5,francais,m,3,0.25666667,-70.0412192,1.44956109
5f85c88c61e23608718cbd03,187,3,2024-02-27T09:29:40.096Z,french_907.wav,0,pull,455,34,4,5,francais,m,0,0.0,9.20754992,1.79705326
5f85c88c61e23608718cbd03,187,3,2024-02-27T09:29:40.096Z,french_907.wav,0,pull,455,34,4,5,francais,m,1,0.1,-39.82714958,0.37644661
5f85c88c61e23608718cbd03,187,3,2024-02-27T09:29:40.096Z,french_907.wav,0,pull,455,34,4,5,francais,m,2,0.2,91.774681,1.35697235
5f85c88c61e23608718cbd03,187,3,2024-02-27T09:29:40.096Z,french_907.wav,0,pull,455,34,4,5,francais,m,3,0.25666667,-60.10887287,0.87178456
5f85c88c61e23608718cbd03,188,3,2024-02-27T09:29:40.096Z,french_502.wav,0,pull,879,34,4,5,francais,m,0,0.0,-20.79410197,1.55473715
5f85c88c61e23608718cbd03,188,3,2024-02-27T09:29:40.096Z,french_502.wav,0,pull,879,34,4,5,francais,m,1,0.1,-29.31354171,0.75660833
5f85c88c61e23608718cbd03,188,3,2024-02-27T09:29:40.096Z,french_502.wav,0,pull,879,34,4,5,francais,m,2,0.2,66.76157716,1.40053341
5f85c88c61e23608718cbd03,188,3,2024-02-27T09:29:40.096Z,french_502.wav,0,pull,879,34,4,5,francais,m,3,0.25666667,63.6653431,1.0602207
5f85c88c61e23608718cbd03,189,3,2024-02-27T09:29:40.096Z,french_113.wav,0,pull,619,34,4,5,francais,m,0,0.0,0.51528889,0.39555504
5f85c88c61e23608718cbd03,189,3,2024-02-27T09:29:40.096Z,french_113.wav,0,pull,619,34,4,5,francais,m,1,0.1,31.38938416,1.50115078
5f85c88c61e23608718cbd03,189,3,2024-02-27T09:29:40.096Z,french_113.wav,0,pull,619,34,4,5,francais,m,2,0.2,-56.71204584,1.00732686
5f85c88c61e23608718cbd03,189,3,2024-02-27T09:29:40.096Z,french_113.wav,0,pull,619,34,4,5,francais,m,3,0.25666667,95.05763822,0.59062761
5f85c88c61e23608718cbd03,190,3,2024-02-27T09:29:40.096Z,french_714.wav,0,poule,391,34,4,5,francais,m,0,0.0,77.35355583,0.35690042
