subj,trial,block,date,stim,stim_order,response,rt,age,english,french,language,sex,param_index,segment,pitch,stretch
659d84fd8455da95c9f44c77,0,0,2024-02-27T10:19:45.597Z,french_61.wav,0,poule,3533,41,5,5,Francais,m,0,0.0,65.32887924,1.15653785
659d84fd8455da95c9f44c77,0,0,2024-02-27T10:19:45.597Z,french_61.wav,0,poule,3533,41,5,5,Francais,m,1,0.1,45.09641809,1.72373813
659d84fd8455da95c9f44c77,0,0,2024-02-27T10:19:45.597Z,french_61.wav,0,poule,3533,41,5,5,Francais,m,2,0.2,-37.75339878,1.38726196
659d84fd8455da95c9f44c77,0,0,2024-02-27T10:19:45.597Z,french_61.wav,0,poule,3533,41,5,5,Francais,m,3,0.25666667,87.5089899,0.41594812
659d84fd8455da95c9f44c77,1,0,2024-02-27T10:19:45.597Z,french_367.wav,0,poule,1530,41,5,5,Francais,m,0,0.0,-74.25610099,1.28932343
659d84fd8455da95c9f44c77,1,0,2024-02-27T10:19:45.597Z,french_367.wav,0,poule,1530,41,5,5,Francais,m,1,0.1,-44.66143863,1.13980767
659d84fd8455da95c9f44c77,1,0,2024-02-27T10:19:45.597Z,french_367.wav,0,poule,1530,41,5,5,Francais,m,2,0.2,-39.26529042,1.487469
659d84fd8455da95c9f44c77,1,0,2024-02-27T10:19:45.597Z,french_367.wav,0,poule,1530,41,5,5,Francais,m,3,0.25666667,-84.95145566,0.37349724
659d84fd8455da95c9f44c77,2,0,2024-02-27T10:19:45.597Z,french_589.wav,0,pull,1816,41,5,5,Francais,m,0,0.0,-25.33744833,1.20649344
659d84fd8455da95c9f44c77,2,0,2024-02-27T10:19:45.597Z,french_589.wav,0,pull,1816,41,5,5,Francais,m,1,0.1,-46.00092507,0.60898863
659d84fd8455da95c9f44c77,2,0,2024-02-27T10:19:45.597Z,french_589.wav,0,pull,1816,41,5,5,Francais,m,2,0.2,-35.85501424,0.34188975
659d84fd8455da95c9f44c77,2,0,2024-02-27T10:19:45.597Z,french_589.wav,0,pull,1816,41,5,5,Francais,m,3,0.25666667,61.35269907,1.06172305
659d84fd8455da95c9f44c77,3,0,2024-02-27T10:19:45.597Z,french_817.wav,0,poule,2808,41,5,5,Francais,m,0,0.0,78.06162864,0.52442488
659d84fd8455da95c9f44c77,3,0,2024-02-27T10:19:45.597Z,french_817.wav,0,poule,2808,41,5,5,Francais,m,1,0.1,7.60258692,1.548285
659d84fd8455da95c9f44c77,3,0,2024-02-27T10:19:45.597Z,french_817.wav,0,poule,2808,41,5,5,Francais,m,2,0.2,-72.81657303,0.10823364
659d84fd8455da95c9f44c77,3,0,2024-02-27T10:19:45.597Z,french_817.wav,0,poule,2808,41,5,5,Francais,m,3,0.25666667,58.9269084,1.31415279
659d84fd8455da95c9f44c77,4,0,2024-02-27T10:19:45.597Z,french_602.wav,0,poule,823,41,5,5,Francais,m,0,0.0,88.5156033,1.15034926
659d84fd8455da95c9f44c77,4,0,2024-02-27T10:19:45.597Z,french_602.wav,0,poule,823,41,5,5,Francais,m,1,0.1,50.37840389,0.70361943
659d84fd8455da95c9f44c77,4,0,2024-02-27T10:19:45.597Z,french_602.wav,0,poule,823,41,5,5,Francais,m,2,0.2,41.99983627,1.85629911
659d84fd8455da95c9f44c77,4,0,2024-02-27T10:19:45.597Z,french_602.wav,0,poule,823,41,5,5,Francais,m,3,0.25666667,11.33520808,0.32194213
659d84fd8455da95c9f44c77,5,0,2024-02-27T10:19:45.597Z,french_81.wav,0,poule,742,41,5,5,Francais,m,0,0.0,43.03410676,0.84411959
659d84fd8455da95c9f44c77,5,0,2024-02-27T10:19:45.597Z,french_81.wav,0,poule,742,41,5,5,Francais,m,1,0.1,37.87573495,1.10924478
659d84fd8455da95c9f44c77,5,0,2024-02-27T10:19:45.597Z,french_81.wav,0,poule,742,41,5,5,Francais,m,2,0.2,-9.17332854,1.82652056
659d84fd8455da95c9f44c77,5,0,2024-02-27T10:19:45.597Z,french_81.wav,0,poule,742,41,5,5,Francais,m,3,0.25666667,10.13667473,1.52638082
659d84fd8455da95c9f44c77,6,0,2024-02-27T10:19:45.597Z,french_326.wav,0,pull,559,41,5,5,Francais,m,0,0.0,-63.35446608,1.54071776
659d84fd8455da95c9f44c77,6,0,2024-02-27T10:19:45.597Z,french_326.wav,0,pull,559,41,5,5,Francais,m,1,0.1,12.54179258,0.67448432
659d84fd8455da95c9f44c77,6,0,2024-02-27T10:19:45.597Z,french_326.wav,0,pull,559,41,5,5,Francais,m,2,0.2,2.59324468,0.56210636
659d84fd8455da95c9f44c77,6,0,2024-02-27T10:19:45.597Z,french_326.wav,0,pull,559,41,5,5,Francais,m,3,0.25666667,34.92537359,1.5196438
659d84fd8455da95c9f44c77,7,0,2024-02-27T10:19:45.597Z,french_210.wav,0,poule,730,41,5,5,Francais,m,0,0.0,68.99377403,1.59687847
659d84fd8455da95c9f44c77,7,0,2024-02-27T10:19:45.597Z,french_210.wav,0,poule,730,41,5,5,Francais,m,1,0.1,17.92188754,0.67113491
659d84fd8455da95c9f44c77,7,0,2024-02-27T10:19:45.597Z,french_210.wav,0,poule,730,41,5,5,Francais,m,2,0.2,87.00714336,1.30631186
659d84fd8455da95c9f44c77,7,0,2024-02-27T10:19:45.597Z,french_210.wav,0,poule,730,41,5,5,Francais,m,3,0.25666667,69.75485878,0.1897549
659d84fd8455da95c9f44c77,8,0,2024-02-27T10:19:45.597Z,french_581.wav,0,pull,571,41,5,5,Francais,m,0,0.0,-12.19849528,0.7315947
659d84fd8455da95c9f44c77,8,0,2024-02-27T10:19:45.597Z,french_581.wav,0,pull,571,41,5,5,Francais,m,1,0.1,96.23210286,0.75639682
659d84fd8455da95c9f44c77,8,0,2024-02-27T10:19:45.597Z,french_581.wav,0,pull,571,41,5,5,Francais,m,2,0.2,-75.71717575,0.47033606
659d84fd8455da95c9f44c77,8,0,2024-02-27T10:19:45.597Z,french_581.wav,0,pull,571,41,5,5,Francais,m,3,0.25666667,36.78246633,0.84951166
659d84fd8455da95c9f44c77,9,0,2024-02-27T10:19:45.597Z,french_618.wav,0,poule,1264,41,5,5,Francais,m,0,0.0,-48.84080529,0.47316377
659d84fd8455da95c9f44c77,9,0,2024-02-27T10:19:45.597Z,french_618.wav,0,poule,1264,41,5,5,Francais,m,1,0.1,52.1949693,0.45430598
659d84fd8455da95c9f44c77,9,0,2024-02-27T10:19:45.597Z,french_618.wav,0,poule,1264,41,5,5,Francais,m,2,0.2,2.68255661,0.75800451
659d84fd8455da95c9f44c77,9,0,2024-02-27T10:19:45.597Z,french_618.wav,0,poule,1264,41,5,5,Francais,m,3,0.25666667,-32.43465806,0.99622678
659d84fd8455da95c9f44c77,10,0,2024-02-27T10:19:45.597Z,french_955.wav,0,pull,1619,41,5,5,Francais,m,0,0.0,49.41572239,1.13440167
659d84fd8455da95c9f44c77,10,0,2024-02-27T10:19:45.597Z,french_955.wav,0,pull,1619,41,5,5,Francais,m,1,0.1,75.37923123,1.49278765
659d84fd8455da95c9f44c77,10,0,2024-02-27T10:19:45.597Z,french_955.wav,0,pull,1619,41,5,5,Francais,m,2,0.2,0.1370905,0.20624254
659d84fd8455da95c9f44c77,10,0,2024-02-27T10:19:45.597Z,french_955.wav,0,pull,1619,41,5,5,Francais,m,3,0.25666667,22.03577701,0.01599226
659d84fd8455da95c9f44c77,11,0,2024-02-27T10:19:45.597Z,french_926.wav,0,pull,1535,41,5,5,Francais,m,0,0.0,-38.30420493,1.0266732
659d84fd8455da95c9f44c77,11,0,2024-02-27T10:19:45.597Z,french_926.wav,0,pull,1535,41,5,5,Francais,m,1,0.1,-97.26803886,0.03873156
659d84fd8455da95c9f44c77,11,0,2024-02-27T10:19:45.597Z,french_926.wav,0,pull,1535,41,5,5,Francais,m,2,0.2,55.3544282,0.32593073
659d84fd8455da95c9f44c77,11,0,2024-02-27T10:19:45.597Z,french_926.wav,0,pull,1535,41,5,5,Francais,m,3,0.25666667,8.78644418,0.80695306
659d84fd8455da95c9f44c77,12,0,2024-02-27T10:19:45.597Z,french_732.wav,0,poule,693,41,5,5,Francais,m,0,0.0,-82.9393053,0.90840431
659d84fd8455da95c9f44c77,12,0,2024-02-27T10:19:45.597Z,french_732.wav,0,poule,693,41,5,5,Francais,m,1,0.1,-79.22735873,0.47468339
659d84fd8455da95c9f44c77,12,0,2024-02-27T10:19:45.597Z,french_732.wav,0,poule,693,41,5,5,Francais,m,2,0.2,-67.09796721,1.61768905
659d84fd8455da95c9f44c77,12,0,2024-02-27T10:19:45.597Z,french_732.wav,0,poule,693,41,5,5,Francais,m,3,0.25666667,35.15971491,1.44596926
659d84fd8455da95c9f44c77,13,0,2024-02-27T10:19:45.597Z,french_932.wav,0,poule,550,41,5,5,Francais,m,0,0.0,-46.06723632,0.59994833
659d84fd8455da95c9f44c77,13,0,2024-02-27T10:19:45.597Z,french_932.wav,0,poule,550,41,5,5,Francais,m,1,0.1,66.80974186,1.29573715
659d84fd8455da95c9f44c77,13,0,2024-02-27T10:19:45.597Z,french_932.wav,0,poule,550,41,5,5,Francais,m,2,0.2,39.28685727,0.97302603
659d84fd8455da95c9f44c77,13,0,2024-02-27T10:19:45.597Z,french_932.wav,0,poule,550,41,5,5,Francais,m,3,0.25666667,-66.26323275,1.65300799
659d84fd8455da95c9f44c77,14,0,2024-02-27T10:19:45.597Z,french_997.wav,0,poule,942,41,5,5,Francais,m,0,0.0,70.02211451,0.23520638
659d84fd8455da95c9f44c77,14,0,2024-02-27T10:19:45.597Z,french_997.wav,0,poule,942,41,5,5,Francais,m,1,0.1,69.24362731,0.40856699
659d84fd8455da95c9f44c77,14,0,2024-02-27T10:19:45.597Z,french_997.wav,0,poule,942,41,5,5,Francais,m,2,0.2,73.007848,1.59962624
659d84fd8455da95c9f44c77,14,0,2024-02-27T10:19:45.597Z,french_997.wav,0,poule,942,41,5,5,Francais,m,3,0.25666667,83.15376715,0.8906701
659d84fd8455da95c9f44c77,15,0,2024-02-27T10:19:45.597Z,french_693.wav,0,pull,2079,41,5,5,Francais,m,0,0.0,-47.08934597,0.01342517
659d84fd8455da95c9f44c77,15,0,2024-02-27T10:19:45.597Z,french_693.wav,0,pull,2079,41,5,5,Francais,m,1,0.1,72.6108529,0.89682207
659d84fd8455da95c9f44c77,15,0,2024-02-27T10:19:45.597Z,french_693.wav,0,pull,2079,41,5,5,Francais,m,2,0.2,-29.7137536,1.48476447
659d84fd8455da95c9f44c77,15,0,2024-02-27T10:19:45.597Z,french_693.wav,0,pull,2079,41,5,5,Francais,m,3,0.25666667,50.01737174,0.05087926
659d84fd8455da95c9f44c77,16,0,2024-02-27T10:19:45.597Z,french_956.wav,0,poule,621,41,5,5,Francais,m,0,0.0,-17.2568339,1.05718214
659d84fd8455da95c9f44c77,16,0,2024-02-27T10:19:45.597Z,french_956.wav,0,poule,621,41,5,5,Francais,m,1,0.1,60.67626876,1.43914937
659d84fd8455da95c9f44c77,16,0,2024-02-27T10:19:45.597Z,french_956.wav,0,poule,621,41,5,5,Francais,m,2,0.2,40.71216363,0.83140318
659d84fd8455da95c9f44c77,16,0,2024-02-27T10:19:45.597Z,french_956.wav,0,poule,621,41,5,5,Francais,m,3,0.25666667,16.50619481,0.14426626
659d84fd8455da95c9f44c77,17,0,2024-02-27T10:19:45.597Z,french_477.wav,0,poule,668,41,5,5,Francais,m,0,0.0,-42.83355645,0.5966768
659d84fd8455da95c9f44c77,17,0,2024-02-27T10:19:45.597Z,french_477.wav,0,poule,668,41,5,5,Francais,m,1,0.1,-62.82113547,0.86071515
659d84fd8455da95c9f44c77,17,0,2024-02-27T10:19:45.597Z,french_477.wav,0,poule,668,41,5,5,Francais,m,2,0.2,87.24330329,1.68377915
659d84fd8455da95c9f44c77,17,0,2024-02-27T10:19:45.597Z,french_477.wav,0,poule,668,41,5,5,Francais,m,3,0.25666667,51.53483355,1.05396705
659d84fd8455da95c9f44c77,18,0,2024-02-27T10:19:45.597Z,french_304.wav,0,poule,1272,41,5,5,Francais,m,0,0.0,58.70341866,1.21350262
659d84fd8455da95c9f44c77,18,0,2024-02-27T10:19:45.597Z,french_304.wav,0,poule,1272,41,5,5,Francais,m,1,0.1,64.39481967,0.74970721
659d84fd8455da95c9f44c77,18,0,2024-02-27T10:19:45.597Z,french_304.wav,0,poule,1272,41,5,5,Francais,m,2,0.2,24.44185136,0.32537914
659d84fd8455da95c9f44c77,18,0,2024-02-27T10:19:45.597Z,french_304.wav,0,poule,1272,41,5,5,Francais,m,3,0.25666667,-92.24598877,0.12166717
659d84fd8455da95c9f44c77,19,0,2024-02-27T10:19:45.597Z,french_93.wav,0,poule,1829,41,5,5,Francais,m,0,0.0,23.57211404,0.62732128
659d84fd8455da95c9f44c77,19,0,2024-02-27T10:19:45.597Z,french_93.wav,0,poule,1829,41,5,5,Francais,m,1,0.1,-16.15934767,0.10811818
659d84fd8455da95c9f44c77,19,0,2024-02-27T10:19:45.597Z,french_93.wav,0,poule,1829,41,5,5,Francais,m,2,0.2,25.54711871,0.30787392
659d84fd8455da95c9f44c77,19,0,2024-02-27T10:19:45.597Z,french_93.wav,0,poule,1829,41,5,5,Francais,m,3,0.25666667,65.09284613,1.57978374
659d84fd8455da95c9f44c77,20,0,2024-02-27T10:19:45.597Z,french_630.wav,0,poule,613,41,5,5,Francais,m,0,0.0,77.73428331,1.3363399
659d84fd8455da95c9f44c77,20,0,2024-02-27T10:19:45.597Z,french_630.wav,0,poule,613,41,5,5,Francais,m,1,0.1,-25.60495453,1.21399003
659d84fd8455da95c9f44c77,20,0,2024-02-27T10:19:45.597Z,french_630.wav,0,poule,613,41,5,5,Francais,m,2,0.2,64.05787884,0.69039687
659d84fd8455da95c9f44c77,20,0,2024-02-27T10:19:45.597Z,french_630.wav,0,poule,613,41,5,5,Francais,m,3,0.25666667,12.38181906,0.92340198
659d84fd8455da95c9f44c77,21,0,2024-02-27T10:19:45.597Z,french_643.wav,0,poule,814,41,5,5,Francais,m,0,0.0,63.91458592,0.06817761
659d84fd8455da95c9f44c77,21,0,2024-02-27T10:19:45.597Z,french_643.wav,0,poule,814,41,5,5,Francais,m,1,0.1,-87.79617997,1.72915736
659d84fd8455da95c9f44c77,21,0,2024-02-27T10:19:45.597Z,french_643.wav,0,poule,814,41,5,5,Francais,m,2,0.2,-35.4412084,1.06879305
659d84fd8455da95c9f44c77,21,0,2024-02-27T10:19:45.597Z,french_643.wav,0,poule,814,41,5,5,Francais,m,3,0.25666667,41.82610472,1.26220402
659d84fd8455da95c9f44c77,22,0,2024-02-27T10:19:45.597Z,french_768.wav,0,poule,684,41,5,5,Francais,m,0,0.0,43.80393873,0.16736189
659d84fd8455da95c9f44c77,22,0,2024-02-27T10:19:45.597Z,french_768.wav,0,poule,684,41,5,5,Francais,m,1,0.1,23.97019037,0.82539527
659d84fd8455da95c9f44c77,22,0,2024-02-27T10:19:45.597Z,french_768.wav,0,poule,684,41,5,5,Francais,m,2,0.2,96.73627246,1.26581733
659d84fd8455da95c9f44c77,22,0,2024-02-27T10:19:45.597Z,french_768.wav,0,poule,684,41,5,5,Francais,m,3,0.25666667,86.69297093,1.40091334
659d84fd8455da95c9f44c77,23,0,2024-02-27T10:19:45.597Z,french_11.wav,0,poule,640,41,5,5,Francais,m,0,0.0,-27.01625533,0.65463853
659d84fd8455da95c9f44c77,23,0,2024-02-27T10:19:45.597Z,french_11.wav,0,poule,640,41,5,5,Francais,m,1,0.1,30.5454192,0.82547758
659d84fd8455da95c9f44c77,23,0,2024-02-27T10:19:45.597Z,french_11.wav,0,poule,640,41,5,5,Francais,m,2,0.2,-10.3355652,1.18020414
659d84fd8455da95c9f44c77,23,0,2024-02-27T10:19:45.597Z,french_11.wav,0,poule,640,41,5,5,Francais,m,3,0.25666667,-1.40658107,0.75245655
659d84fd8455da95c9f44c77,24,0,2024-02-27T10:19:45.597Z,french_134.wav,0,poule,660,41,5,5,Francais,m,0,0.0,-65.58132827,0.68669704
659d84fd8455da95c9f44c77,24,0,2024-02-27T10:19:45.597Z,french_134.wav,0,poule,660,41,5,5,Francais,m,1,0.1,-89.82992505,1.50131287
659d84fd8455da95c9f44c77,24,0,2024-02-27T10:19:45.597Z,french_134.wav,0,poule,660,41,5,5,Francais,m,2,0.2,9.99695038,0.69598371
659d84fd8455da95c9f44c77,24,0,2024-02-27T10:19:45.597Z,french_134.wav,0,poule,660,41,5,5,Francais,m,3,0.25666667,24.50908123,1.57047358
659d84fd8455da95c9f44c77,25,0,2024-02-27T10:19:45.597Z,french_486.wav,0,poule,569,41,5,5,Francais,m,0,0.0,-65.13732965,0.7755652
659d84fd8455da95c9f44c77,25,0,2024-02-27T10:19:45.597Z,french_486.wav,0,poule,569,41,5,5,Francais,m,1,0.1,-93.57114331,0.9577819
659d84fd8455da95c9f44c77,25,0,2024-02-27T10:19:45.597Z,french_486.wav,0,poule,569,41,5,5,Francais,m,2,0.2,-51.69797787,0.68553835
659d84fd8455da95c9f44c77,25,0,2024-02-27T10:19:45.597Z,french_486.wav,0,poule,569,41,5,5,Francais,m,3,0.25666667,-3.30938414,0.55056833
659d84fd8455da95c9f44c77,26,0,2024-02-27T10:19:45.597Z,french_733.wav,0,poule,1199,41,5,5,Francais,m,0,0.0,96.30835656,1.00234216
659d84fd8455da95c9f44c77,26,0,2024-02-27T10:19:45.597Z,french_733.wav,0,poule,1199,41,5,5,Francais,m,1,0.1,-16.80147809,0.65355169
659d84fd8455da95c9f44c77,26,0,2024-02-27T10:19:45.597Z,french_733.wav,0,poule,1199,41,5,5,Francais,m,2,0.2,34.50045069,1.63394937
659d84fd8455da95c9f44c77,26,0,2024-02-27T10:19:45.597Z,french_733.wav,0,poule,1199,41,5,5,Francais,m,3,0.25666667,-6.11336577,0.15404628
659d84fd8455da95c9f44c77,27,0,2024-02-27T10:19:45.597Z,french_7.wav,0,pull,1224,41,5,5,Francais,m,0,0.0,-71.02833311,1.79953402
659d84fd8455da95c9f44c77,27,0,2024-02-27T10:19:45.597Z,french_7.wav,0,pull,1224,41,5,5,Francais,m,1,0.1,-12.38691322,1.89065694
659d84fd8455da95c9f44c77,27,0,2024-02-27T10:19:45.597Z,french_7.wav,0,pull,1224,41,5,5,Francais,m,2,0.2,-62.8930846,0.59849277
659d84fd8455da95c9f44c77,27,0,2024-02-27T10:19:45.597Z,french_7.wav,0,pull,1224,41,5,5,Francais,m,3,0.25666667,27.53159518,0.94237915
659d84fd8455da95c9f44c77,28,0,2024-02-27T10:19:45.597Z,french_916.wav,0,pull,1368,41,5,5,Francais,m,0,0.0,-87.80939928,0.07100827
659d84fd8455da95c9f44c77,28,0,2024-02-27T10:19:45.597Z,french_916.wav,0,pull,1368,41,5,5,Francais,m,1,0.1,68.91902004,0.08308916
659d84fd8455da95c9f44c77,28,0,2024-02-27T10:19:45.597Z,french_916.wav,0,pull,1368,41,5,5,Francais,m,2,0.2,20.82551071,0.48942561
659d84fd8455da95c9f44c77,28,0,2024-02-27T10:19:45.597Z,french_916.wav,0,pull,1368,41,5,5,Francais,m,3,0.25666667,-10.41164891,0.67278955
659d84fd8455da95c9f44c77,29,0,2024-02-27T10:19:45.597Z,french_945.wav,0,poule,956,41,5,5,Francais,m,0,0.0,-68.75533602,0.74886616
659d84fd8455da95c9f44c77,29,0,2024-02-27T10:19:45.597Z,french_945.wav,0,poule,956,41,5,5,Francais,m,1,0.1,-70.31736245,1.09629777
659d84fd8455da95c9f44c77,29,0,2024-02-27T10:19:45.597Z,french_945.wav,0,poule,956,41,5,5,Francais,m,2,0.2,30.11750803,0.8052417
659d84fd8455da95c9f44c77,29,0,2024-02-27T10:19:45.597Z,french_945.wav,0,poule,956,41,5,5,Francais,m,3,0.25666667,-35.89247017,0.22664311
659d84fd8455da95c9f44c77,30,0,2024-02-27T10:19:45.597Z,french_883.wav,0,poule,556,41,5,5,Francais,m,0,0.0,79.42425648,0.82987007
659d84fd8455da95c9f44c77,30,0,2024-02-27T10:19:45.597Z,french_883.wav,0,poule,556,41,5,5,Francais,m,1,0.1,-55.57656198,1.06788753
659d84fd8455da95c9f44c77,30,0,2024-02-27T10:19:45.597Z,french_883.wav,0,poule,556,41,5,5,Francais,m,2,0.2,-42.3009185,1.49414105
659d84fd8455da95c9f44c77,30,0,2024-02-27T10:19:45.597Z,french_883.wav,0,poule,556,41,5,5,Francais,m,3,0.25666667,9.11567641,1.30049822
659d84fd8455da95c9f44c77,31,0,2024-02-27T10:19:45.597Z,french_439.wav,0,poule,990,41,5,5,Francais,m,0,0.0,66.25011988,1.00096297
659d84fd8455da95c9f44c77,31,0,2024-02-27T10:19:45.597Z,french_439.wav,0,poule,990,41,5,5,Francais,m,1,0.1,46.32034445,0.12322103
659d84fd8455da95c9f44c77,31,0,2024-02-27T10:19:45.597Z,french_439.wav,0,poule,990,41,5,5,Francais,m,2,0.2,38.26264731,1.5814324
659d84fd8455da95c9f44c77,31,0,2024-02-27T10:19:45.597Z,french_439.wav,0,poule,990,41,5,5,Francais,m,3,0.25666667,-42.53278778,0.06125751
659d84fd8455da95c9f44c77,32,0,2024-02-27T10:19:45.597Z,french_320.wav,0,pull,682,41,5,5,Francais,m,0,0.0,-12.08882056,1.76987467
659d84fd8455da95c9f44c77,32,0,2024-02-27T10:19:45.597Z,french_320.wav,0,pull,682,41,5,5,Francais,m,1,0.1,-69.15560276,1.70079501
659d84fd8455da95c9f44c77,32,0,2024-02-27T10:19:45.597Z,french_320.wav,0,pull,682,41,5,5,Francais,m,2,0.2,33.30000548,0.4524157
659d84fd8455da95c9f44c77,32,0,2024-02-27T10:19:45.597Z,french_320.wav,0,pull,682,41,5,5,Francais,m,3,0.25666667,-65.44816773,0.78128465
659d84fd8455da95c9f44c77,33,0,2024-02-27T10:19:45.597Z,french_106.wav,0,poule,593,41,5,5,Francais,m,0,0.0,-80.93311261,0.79978414
659d84fd8455da95c9f44c77,33,0,2024-02-27T10:19:45.597Z,french_106.wav,0,poule,593,41,5,5,Francais,m,1,0.1,7.33604761,0.87655026
659d84fd8455da95c9f44c77,33,0,2024-02-27T10:19:45.597Z,french_106.wav,0,poule,593,41,5,5,Francais,m,2,0.2,53.45287064,1.02362607
659d84fd8455da95c9f44c77,33,0,2024-02-27T10:19:45.597Z,french_106.wav,0,poule,593,41,5,5,Francais,m,3,0.25666667,-26.77526802,1.25354946
659d84fd8455da95c9f44c77,34,0,2024-02-27T10:19:45.597Z,french_684.wav,0,poule,612,41,5,5,Francais,m,0,0.0,48.27990123,1.19178247
659d84fd8455da95c9f44c77,34,0,2024-02-27T10:19:45.597Z,french_684.wav,0,poule,612,41,5,5,Francais,m,1,0.1,7.94375198,1.19295899
659d84fd8455da95c9f44c77,34,0,2024-02-27T10:19:45.597Z,french_684.wav,0,poule,612,41,5,5,Francais,m,2,0.2,8.02227037,0.65877552
659d84fd8455da95c9f44c77,34,0,2024-02-27T10:19:45.597Z,french_684.wav,0,poule,612,41,5,5,Francais,m,3,0.25666667,-51.87380122,1.73612438
659d84fd8455da95c9f44c77,35,0,2024-02-27T10:19:45.597Z,french_343.wav,0,poule,596,41,5,5,Francais,m,0,0.0,-21.71261116,1.74552957
659d84fd8455da95c9f44c77,35,0,2024-02-27T10:19:45.597Z,french_343.wav,0,poule,596,41,5,5,Francais,m,1,0.1,63.21036052,1.86769095
659d84fd8455da95c9f44c77,35,0,2024-02-27T10:19:45.597Z,french_343.wav,0,poule,596,41,5,5,Francais,m,2,0.2,-29.86802649,0.55355845
659d84fd8455da95c9f44c77,35,0,2024-02-27T10:19:45.597Z,french_343.wav,0,poule,596,41,5,5,Francais,m,3,0.25666667,57.96835755,1.24725328
659d84fd8455da95c9f44c77,36,0,2024-02-27T10:19:45.597Z,french_468.wav,0,poule,1164,41,5,5,Francais,m,0,0.0,62.98081683,0.39126421
659d84fd8455da95c9f44c77,36,0,2024-02-27T10:19:45.597Z,french_468.wav,0,poule,1164,41,5,5,Francais,m,1,0.1,-56.79667237,1.86845908
659d84fd8455da95c9f44c77,36,0,2024-02-27T10:19:45.597Z,french_468.wav,0,poule,1164,41,5,5,Francais,m,2,0.2,16.07172023,0.61680923
659d84fd8455da95c9f44c77,36,0,2024-02-27T10:19:45.597Z,french_468.wav,0,poule,1164,41,5,5,Francais,m,3,0.25666667,67.64788087,0.75086704
659d84fd8455da95c9f44c77,37,0,2024-02-27T10:19:45.597Z,french_578.wav,0,poule,1488,41,5,5,Francais,m,0,0.0,-7.38817871,1.21970749
659d84fd8455da95c9f44c77,37,0,2024-02-27T10:19:45.597Z,french_578.wav,0,poule,1488,41,5,5,Francais,m,1,0.1,-62.82402322,1.48191428
659d84fd8455da95c9f44c77,37,0,2024-02-27T10:19:45.597Z,french_578.wav,0,poule,1488,41,5,5,Francais,m,2,0.2,-74.03812343,0.32639168
659d84fd8455da95c9f44c77,37,0,2024-02-27T10:19:45.597Z,french_578.wav,0,poule,1488,41,5,5,Francais,m,3,0.25666667,-40.1929109,0.05147762
659d84fd8455da95c9f44c77,38,0,2024-02-27T10:19:45.597Z,french_142.wav,0,poule,655,41,5,5,Francais,m,0,0.0,-47.01050856,0.88751265
659d84fd8455da95c9f44c77,38,0,2024-02-27T10:19:45.597Z,french_142.wav,0,poule,655,41,5,5,Francais,m,1,0.1,44.85636852,1.13664387
659d84fd8455da95c9f44c77,38,0,2024-02-27T10:19:45.597Z,french_142.wav,0,poule,655,41,5,5,Francais,m,2,0.2,82.74517116,0.91175928
659d84fd8455da95c9f44c77,38,0,2024-02-27T10:19:45.597Z,french_142.wav,0,poule,655,41,5,5,Francais,m,3,0.25666667,-74.59675421,0.66352734
659d84fd8455da95c9f44c77,39,0,2024-02-27T10:19:45.597Z,french_387.wav,0,poule,652,41,5,5,Francais,m,0,0.0,-24.2271051,0.1957751
659d84fd8455da95c9f44c77,39,0,2024-02-27T10:19:45.597Z,french_387.wav,0,poule,652,41,5,5,Francais,m,1,0.1,-69.58889879,0.86781049
659d84fd8455da95c9f44c77,39,0,2024-02-27T10:19:45.597Z,french_387.wav,0,poule,652,41,5,5,Francais,m,2,0.2,21.02997226,1.73501265
659d84fd8455da95c9f44c77,39,0,2024-02-27T10:19:45.597Z,french_387.wav,0,poule,652,41,5,5,Francais,m,3,0.25666667,58.82746302,1.75042849
659d84fd8455da95c9f44c77,40,0,2024-02-27T10:19:45.597Z,french_794.wav,0,poule,1256,41,5,5,Francais,m,0,0.0,-41.85324617,0.4524196
659d84fd8455da95c9f44c77,40,0,2024-02-27T10:19:45.597Z,french_794.wav,0,poule,1256,41,5,5,Francais,m,1,0.1,1.64774739,1.94571184
659d84fd8455da95c9f44c77,40,0,2024-02-27T10:19:45.597Z,french_794.wav,0,poule,1256,41,5,5,Francais,m,2,0.2,-16.9250465,1.39882797
659d84fd8455da95c9f44c77,40,0,2024-02-27T10:19:45.597Z,french_794.wav,0,poule,1256,41,5,5,Francais,m,3,0.25666667,-47.53807225,0.19962905
659d84fd8455da95c9f44c77,41,0,2024-02-27T10:19:45.597Z,french_770.wav,0,poule,489,41,5,5,Francais,m,0,0.0,28.65055954,1.27945621
659d84fd8455da95c9f44c77,41,0,2024-02-27T10:19:45.597Z,french_770.wav,0,poule,489,41,5,5,Francais,m,1,0.1,-72.95217839,1.48453538
659d84fd8455da95c9f44c77,41,0,2024-02-27T10:19:45.597Z,french_770.wav,0,poule,489,41,5,5,Francais,m,2,0.2,-37.01197006,1.47789059
659d84fd8455da95c9f44c77,41,0,2024-02-27T10:19:45.597Z,french_770.wav,0,poule,489,41,5,5,Francais,m,3,0.25666667,17.9887053,1.81501711
659d84fd8455da95c9f44c77,42,0,2024-02-27T10:19:45.597Z,french_538.wav,0,poule,1256,41,5,5,Francais,m,0,0.0,-62.11881418,0.72316351
659d84fd8455da95c9f44c77,42,0,2024-02-27T10:19:45.597Z,french_538.wav,0,poule,1256,41,5,5,Francais,m,1,0.1,-49.1326041,0.52652182
659d84fd8455da95c9f44c77,42,0,2024-02-27T10:19:45.597Z,french_538.wav,0,poule,1256,41,5,5,Francais,m,2,0.2,11.48721962,0.30218135
659d84fd8455da95c9f44c77,42,0,2024-02-27T10:19:45.597Z,french_538.wav,0,poule,1256,41,5,5,Francais,m,3,0.25666667,-26.18142206,1.69243497
659d84fd8455da95c9f44c77,43,0,2024-02-27T10:19:45.597Z,french_984.wav,0,poule,627,41,5,5,Francais,m,0,0.0,-47.91850728,0.65620753
659d84fd8455da95c9f44c77,43,0,2024-02-27T10:19:45.597Z,french_984.wav,0,poule,627,41,5,5,Francais,m,1,0.1,26.54192822,0.71747565
659d84fd8455da95c9f44c77,43,0,2024-02-27T10:19:45.597Z,french_984.wav,0,poule,627,41,5,5,Francais,m,2,0.2,31.46018772,1.52452255
659d84fd8455da95c9f44c77,43,0,2024-02-27T10:19:45.597Z,french_984.wav,0,poule,627,41,5,5,Francais,m,3,0.25666667,54.61358492,1.85839607
659d84fd8455da95c9f44c77,44,0,2024-02-27T10:19:45.597Z,french_534.wav,0,poule,1232,41,5,5,Francais,m,0,0.0,96.41776506,0.28463844
659d84fd8455da95c9f44c77,44,0,2024-02-27T10:19:45.597Z,french_534.wav,0,poule,1232,41,5,5,Francais,m,1,0.1,-53.52749338,1.69872517
659d84fd8455da95c9f44c77,44,0,2024-02-27T10:19:45.597Z,french_534.wav,0,poule,1232,41,5,5,Francais,m,2,0.2,51.10087415,0.80798533
659d84fd8455da95c9f44c77,44,0,2024-02-27T10:19:45.597Z,french_534.wav,0,poule,1232,41,5,5,Francais,m,3,0.25666667,27.39654188,1.79838566
659d84fd8455da95c9f44c77,45,0,2024-02-27T10:19:45.597Z,french_573.wav,0,pull,2203,41,5,5,Francais,m,0,0.0,-82.60587544,1.7811252
659d84fd8455da95c9f44c77,45,0,2024-02-27T10:19:45.597Z,french_573.wav,0,pull,2203,41,5,5,Francais,m,1,0.1,24.10475325,1.67511136
659d84fd8455da95c9f44c77,45,0,2024-02-27T10:19:45.597Z,french_573.wav,0,pull,2203,41,5,5,Francais,m,2,0.2,12.83458345,1.07369657
659d84fd8455da95c9f44c77,45,0,2024-02-27T10:19:45.597Z,french_573.wav,0,pull,2203,41,5,5,Francais,m,3,0.25666667,-92.36985106,0.78659629
659d84fd8455da95c9f44c77,46,0,2024-02-27T10:19:45.597Z,french_459.wav,0,pull,609,41,5,5,Francais,m,0,0.0,4.79398058,1.10654006
659d84fd8455da95c9f44c77,46,0,2024-02-27T10:19:45.597Z,french_459.wav,0,pull,609,41,5,5,Francais,m,1,0.1,85.90612859,1.2996969
659d84fd8455da95c9f44c77,46,0,2024-02-27T10:19:45.597Z,french_459.wav,0,pull,609,41,5,5,Francais,m,2,0.2,-69.41023595,0.20520219
659d84fd8455da95c9f44c77,46,0,2024-02-27T10:19:45.597Z,french_459.wav,0,pull,609,41,5,5,Francais,m,3,0.25666667,-22.07588814,1.17361701
659d84fd8455da95c9f44c77,47,0,2024-02-27T10:19:45.597Z,french_588.wav,0,poule,462,41,5,5,Francais,m,0,0.0,5.6059992,1.40293782
659d84fd8455da95c9f44c77,47,0,2024-02-27T10:19:45.597Z,french_588.wav,0,poule,462,41,5,5,Francais,m,1,0.1,-3.58339119,1.60743551
659d84fd8455da95c9f44c77,47,0,2024-02-27T10:19:45.597Z,french_588.wav,0,poule,462,41,5,5,Francais,m,2,0.2,-47.44163498,0.8250453
659d84fd8455da95c9f44c77,47,0,2024-02-27T10:19:45.597Z,french_588.wav,0,poule,462,41,5,5,Francais,m,3,0.25666667,15.68204657,1.87203226
659d84fd8455da95c9f44c77,48,0,2024-02-27T10:19:45.597Z,french_111.wav,0,poule,748,41,5,5,Francais,m,0,0.0,1.59326178,0.67104434
659d84fd8455da95c9f44c77,48,0,2024-02-27T10:19:45.597Z,french_111.wav,0,poule,748,41,5,5,Francais,m,1,0.1,-40.8911656,0.22448148
659d84fd8455da95c9f44c77,48,0,2024-02-27T10:19:45.597Z,french_111.wav,0,poule,748,41,5,5,Francais,m,2,0.2,-66.59771714,1.3255008
659d84fd8455da95c9f44c77,48,0,2024-02-27T10:19:45.597Z,french_111.wav,0,poule,748,41,5,5,Francais,m,3,0.25666667,93.67842788,0.49085037
659d84fd8455da95c9f44c77,49,0,2024-02-27T10:19:45.597Z,french_394.wav,0,poule,644,41,5,5,Francais,m,0,0.0,-46.0867736,1.77850735
659d84fd8455da95c9f44c77,49,0,2024-02-27T10:19:45.597Z,french_394.wav,0,poule,644,41,5,5,Francais,m,1,0.1,-42.56429646,0.50210825
659d84fd8455da95c9f44c77,49,0,2024-02-27T10:19:45.597Z,french_394.wav,0,poule,644,41,5,5,Francais,m,2,0.2,31.61260766,1.1233825
659d84fd8455da95c9f44c77,49,0,2024-02-27T10:19:45.597Z,french_394.wav,0,poule,644,41,5,5,Francais,m,3,0.25666667,-7.99475259,0.72186821
659d84fd8455da95c9f44c77,50,1,2024-02-27T10:19:45.597Z,french_992.wav,0,poule,725,41,5,5,Francais,m,0,0.0,88.64163737,1.670281
659d84fd8455da95c9f44c77,50,1,2024-02-27T10:19:45.597Z,french_992.wav,0,poule,725,41,5,5,Francais,m,1,0.1,46.51622821,0.7447474
659d84fd8455da95c9f44c77,50,1,2024-02-27T10:19:45.597Z,french_992.wav,0,poule,725,41,5,5,Francais,m,2,0.2,89.40723484,0.87778012
659d84fd8455da95c9f44c77,50,1,2024-02-27T10:19:45.597Z,french_992.wav,0,poule,725,41,5,5,Francais,m,3,0.25666667,-7.16948766,1.06303204
659d84fd8455da95c9f44c77,51,1,2024-02-27T10:19:45.597Z,french_701.wav,0,poule,474,41,5,5,Francais,m,0,0.0,-44.50216008,0.81644439
659d84fd8455da95c9f44c77,51,1,2024-02-27T10:19:45.597Z,french_701.wav,0,poule,474,41,5,5,Francais,m,1,0.1,39.62093866,1.46668212
659d84fd8455da95c9f44c77,51,1,2024-02-27T10:19:45.597Z,french_701.wav,0,poule,474,41,5,5,Francais,m,2,0.2,59.49522687,1.68659205
659d84fd8455da95c9f44c77,51,1,2024-02-27T10:19:45.597Z,french_701.wav,0,poule,474,41,5,5,Francais,m,3,0.25666667,-55.32580216,1.60664037
659d84fd8455da95c9f44c77,52,1,2024-02-27T10:19:45.597Z,french_703.wav,0,poule,602,41,5,5,Francais,m,0,0.0,84.48201003,0.82331622
659d84fd8455da95c9f44c77,52,1,2024-02-27T10:19:45.597Z,french_703.wav,0,poule,602,41,5,5,Francais,m,1,0.1,-13.2968245,1.50639414
659d84fd8455da95c9f44c77,52,1,2024-02-27T10:19:45.597Z,french_703.wav,0,poule,602,41,5,5,Francais,m,2,0.2,-49.01598543,0.83966854
659d84fd8455da95c9f44c77,52,1,2024-02-27T10:19:45.597Z,french_703.wav,0,poule,602,41,5,5,Francais,m,3,0.25666667,-63.56156529,1.27848793
659d84fd8455da95c9f44c77,53,1,2024-02-27T10:19:45.597Z,french_613.wav,0,poule,836,41,5,5,Francais,m,0,0.0,-39.45599103,0.33894647
659d84fd8455da95c9f44c77,53,1,2024-02-27T10:19:45.597Z,french_613.wav,0,poule,836,41,5,5,Francais,m,1,0.1,37.73715393,0.28387009
659d84fd8455da95c9f44c77,53,1,2024-02-27T10:19:45.597Z,french_613.wav,0,poule,836,41,5,5,Francais,m,2,0.2,-28.02237212,1.91952712
659d84fd8455da95c9f44c77,53,1,2024-02-27T10:19:45.597Z,french_613.wav,0,poule,836,41,5,5,Francais,m,3,0.25666667,-24.74266242,0.2340562
659d84fd8455da95c9f44c77,54,1,2024-02-27T10:19:45.597Z,french_792.wav,0,poule,548,41,5,5,Francais,m,0,0.0,-30.95032355,0.5884638
659d84fd8455da95c9f44c77,54,1,2024-02-27T10:19:45.597Z,french_792.wav,0,poule,548,41,5,5,Francais,m,1,0.1,73.05460755,1.61732216
659d84fd8455da95c9f44c77,54,1,2024-02-27T10:19:45.597Z,french_792.wav,0,poule,548,41,5,5,Francais,m,2,0.2,-0.6809714,1.33614238
659d84fd8455da95c9f44c77,54,1,2024-02-27T10:19:45.597Z,french_792.wav,0,poule,548,41,5,5,Francais,m,3,0.25666667,25.15150688,0.65397567
659d84fd8455da95c9f44c77,55,1,2024-02-27T10:19:45.597Z,french_218.wav,0,poule,1257,41,5,5,Francais,m,0,0.0,50.58163299,1.39700525
659d84fd8455da95c9f44c77,55,1,2024-02-27T10:19:45.597Z,french_218.wav,0,poule,1257,41,5,5,Francais,m,1,0.1,-62.47432707,0.24728847
659d84fd8455da95c9f44c77,55,1,2024-02-27T10:19:45.597Z,french_218.wav,0,poule,1257,41,5,5,Francais,m,2,0.2,-11.24403131,1.10420939
659d84fd8455da95c9f44c77,55,1,2024-02-27T10:19:45.597Z,french_218.wav,0,poule,1257,41,5,5,Francais,m,3,0.25666667,-76.23808147,0.34157158
659d84fd8455da95c9f44c77,56,1,2024-02-27T10:19:45.597Z,french_675.wav,0,poule,1114,41,5,5,Francais,m,0,0.0,-70.79994344,1.47729798
659d84fd8455da95c9f44c77,56,1,2024-02-27T10:19:45.597Z,french_675.wav,0,poule,1114,41,5,5,Francais,m,1,0.1,-7.59389362,0.30115563
659d84fd8455da95c9f44c77,56,1,2024-02-27T10:19:45.597Z,french_675.wav,0,poule,1114,41,5,5,Francais,m,2,0.2,-3.58790265,1.39440132
659d84fd8455da95c9f44c77,56,1,2024-02-27T10:19:45.597Z,french_675.wav,0,poule,1114,41,5,5,Francais,m,3,0.25666667,-30.70883091,1.61039035
659d84fd8455da95c9f44c77,57,1,2024-02-27T10:19:45.597Z,french_662.wav,0,pull,1079,41,5,5,Francais,m,0,0.0,69.59464859,0.59800434
659d84fd8455da95c9f44c77,57,1,2024-02-27T10:19:45.597Z,french_662.wav,0,pull,1079,41,5,5,Francais,m,1,0.1,92.96629611,0.25880336
659d84fd8455da95c9f44c77,57,1,2024-02-27T10:19:45.597Z,french_662.wav,0,pull,1079,41,5,5,Francais,m,2,0.2,83.22574806,0.52365302
659d84fd8455da95c9f44c77,57,1,2024-02-27T10:19:45.597Z,french_662.wav,0,pull,1079,41,5,5,Francais,m,3,0.25666667,59.78978888,1.67953256
659d84fd8455da95c9f44c77,58,1,2024-02-27T10:19:45.597Z,french_112.wav,0,poule,989,41,5,5,Francais,m,0,0.0,-70.30580716,0.18088618
659d84fd8455da95c9f44c77,58,1,2024-02-27T10:19:45.597Z,french_112.wav,0,poule,989,41,5,5,Francais,m,1,0.1,33.64373442,1.43869791
659d84fd8455da95c9f44c77,58,1,2024-02-27T10:19:45.597Z,french_112.wav,0,poule,989,41,5,5,Francais,m,2,0.2,26.55830463,0.89230346
659d84fd8455da95c9f44c77,58,1,2024-02-27T10:19:45.597Z,french_112.wav,0,poule,989,41,5,5,Francais,m,3,0.25666667,46.16769785,0.14009493
659d84fd8455da95c9f44c77,59,1,2024-02-27T10:19:45.597Z,french_514.wav,0,poule,1281,41,5,5,Francais,m,0,0.0,-99.76210077,0.60226465
659d84fd8455da95c9f44c77,59,1,2024-02-27T10:19:45.597Z,french_514.wav,0,poule,1281,41,5,5,Francais,m,1,0.1,-57.79872095,0.08785461
659d84fd8455da95c9f44c77,59,1,2024-02-27T10:19:45.597Z,french_514.wav,0,poule,1281,41,5,5,Francais,m,2,0.2,-51.12304885,1.82353854
659d84fd8455da95c9f44c77,59,1,2024-02-27T10:19:45.597Z,french_514.wav,0,poule,1281,41,5,5,Francais,m,3,0.25666667,51.53874679,1.77009288
659d84fd8455da95c9f44c77,60,1,2024-02-27T10:19:45.597Z,french_163.wav,0,poule,611,41,5,5,Francais,m,0,0.0,95.00435891,1.26837246
659d84fd8455da95c9f44c77,60,1,2024-02-27T10:19:45.597Z,french_163.wav,0,poule,611,41,5,5,Francais,m,1,0.1,41.67922454,0.25754486
659d84fd8455da95c9f44c77,60,1,2024-02-27T10:19:45.597Z,french_163.wav,0,poule,611,41,5,5,Francais,m,2,0.2,-79.43338234,1.96804031
659d84fd8455da95c9f44c77,60,1,2024-02-27T10:19:45.597Z,french_163.wav,0,poule,611,41,5,5,Francais,m,3,0.25666667,-47.45672342,0.46721947
659d84fd8455da95c9f44c77,61,1,2024-02-27T10:19:45.597Z,french_153.wav,0,poule,517,41,5,5,Francais,m,0,0.0,47.87386837,0.75426526
659d84fd8455da95c9f44c77,61,1,2024-02-27T10:19:45.597Z,french_153.wav,0,poule,517,41,5,5,Francais,m,1,0.1,7.07648522,1.23801955
659d84fd8455da95c9f44c77,61,1,2024-02-27T10:19:45.597Z,french_153.wav,0,poule,517,41,5,5,Francais,m,2,0.2,20.87760624,0.38230121
659d84fd8455da95c9f44c77,61,1,2024-02-27T10:19:45.597Z,french_153.wav,0,poule,517,41,5,5,Francais,m,3,0.25666667,-54.47130494,0.58190832
659d84fd8455da95c9f44c77,62,1,2024-02-27T10:19:45.597Z,french_46.wav,0,pull,1602,41,5,5,Francais,m,0,0.0,-59.72524318,1.59606806
659d84fd8455da95c9f44c77,62,1,2024-02-27T10:19:45.597Z,french_46.wav,0,pull,1602,41,5,5,Francais,m,1,0.1,-28.22082853,1.01173367
659d84fd8455da95c9f44c77,62,1,2024-02-27T10:19:45.597Z,french_46.wav,0,pull,1602,41,5,5,Francais,m,2,0.2,2.0739194,0.40164164
659d84fd8455da95c9f44c77,62,1,2024-02-27T10:19:45.597Z,french_46.wav,0,pull,1602,41,5,5,Francais,m,3,0.25666667,-12.25343829,1.6352238
659d84fd8455da95c9f44c77,63,1,2024-02-27T10:19:45.597Z,french_727.wav,0,poule,918,41,5,5,Francais,m,0,0.0,-15.29396541,0.40840987
659d84fd8455da95c9f44c77,63,1,2024-02-27T10:19:45.597Z,french_727.wav,0,poule,918,41,5,5,Francais,m,1,0.1,-26.29552155,0.3000398
659d84fd8455da95c9f44c77,63,1,2024-02-27T10:19:45.597Z,french_727.wav,0,poule,918,41,5,5,Francais,m,2,0.2,79.97121571,1.00640838
659d84fd8455da95c9f44c77,63,1,2024-02-27T10:19:45.597Z,french_727.wav,0,poule,918,41,5,5,Francais,m,3,0.25666667,55.89998316,1.06507384
659d84fd8455da95c9f44c77,64,1,2024-02-27T10:19:45.597Z,french_999.wav,0,poule,614,41,5,5,Francais,m,0,0.0,47.65145935,0.42993564
659d84fd8455da95c9f44c77,64,1,2024-02-27T10:19:45.597Z,french_999.wav,0,poule,614,41,5,5,Francais,m,1,0.1,64.90222313,1.41824969
659d84fd8455da95c9f44c77,64,1,2024-02-27T10:19:45.597Z,french_999.wav,0,poule,614,41,5,5,Francais,m,2,0.2,79.66636989,1.25132817
659d84fd8455da95c9f44c77,64,1,2024-02-27T10:19:45.597Z,french_999.wav,0,poule,614,41,5,5,Francais,m,3,0.25666667,-10.95327426,1.10016678
659d84fd8455da95c9f44c77,65,1,2024-02-27T10:19:45.597Z,french_74.wav,0,pull,1203,41,5,5,Francais,m,0,0.0,50.9707996,1.5114138
659d84fd8455da95c9f44c77,65,1,2024-02-27T10:19:45.597Z,french_74.wav,0,pull,1203,41,5,5,Francais,m,1,0.1,-38.59052132,1.75968469
659d84fd8455da95c9f44c77,65,1,2024-02-27T10:19:45.597Z,french_74.wav,0,pull,1203,41,5,5,Francais,m,2,0.2,-99.50726314,0.36574043
659d84fd8455da95c9f44c77,65,1,2024-02-27T10:19:45.597Z,french_74.wav,0,pull,1203,41,5,5,Francais,m,3,0.25666667,55.85777384,0.66231561
659d84fd8455da95c9f44c77,66,1,2024-02-27T10:19:45.597Z,french_203.wav,0,pull,684,41,5,5,Francais,m,0,0.0,9.50743764,1.88144993
659d84fd8455da95c9f44c77,66,1,2024-02-27T10:19:45.597Z,french_203.wav,0,pull,684,41,5,5,Francais,m,1,0.1,-98.19338414,1.32545529
659d84fd8455da95c9f44c77,66,1,2024-02-27T10:19:45.597Z,french_203.wav,0,pull,684,41,5,5,Francais,m,2,0.2,67.11536794,0.82099832
659d84fd8455da95c9f44c77,66,1,2024-02-27T10:19:45.597Z,french_203.wav,0,pull,684,41,5,5,Francais,m,3,0.25666667,-71.08115362,1.4347795
659d84fd8455da95c9f44c77,67,1,2024-02-27T10:19:45.597Z,french_172.wav,0,poule,529,41,5,5,Francais,m,0,0.0,48.7065843,1.72774852
659d84fd8455da95c9f44c77,67,1,2024-02-27T10:19:45.597Z,french_172.wav,0,poule,529,41,5,5,Francais,m,1,0.1,36.17213003,0.94223675
659d84fd8455da95c9f44c77,67,1,2024-02-27T10:19:45.597Z,french_172.wav,0,poule,529,41,5,5,Francais,m,2,0.2,22.16215467,1.06724209
659d84fd8455da95c9f44c77,67,1,2024-02-27T10:19:45.597Z,french_172.wav,0,poule,529,41,5,5,Francais,m,3,0.25666667,3.80373218,1.19623342
659d84fd8455da95c9f44c77,68,1,2024-02-27T10:19:45.597Z,french_568.wav,0,poule,1178,41,5,5,Francais,m,0,0.0,-18.10302265,1.34189827
659d84fd8455da95c9f44c77,68,1,2024-02-27T10:19:45.597Z,french_568.wav,0,poule,1178,41,5,5,Francais,m,1,0.1,9.93139794,1.47029794
659d84fd8455da95c9f44c77,68,1,2024-02-27T10:19:45.597Z,french_568.wav,0,poule,1178,41,5,5,Francais,m,2,0.2,91.46195775,0.17269775
659d84fd8455da95c9f44c77,68,1,2024-02-27T10:19:45.597Z,french_568.wav,0,poule,1178,41,5,5,Francais,m,3,0.25666667,56.10040773,1.22679594
659d84fd8455da95c9f44c77,69,1,2024-02-27T10:19:45.597Z,french_313.wav,0,poule,710,41,5,5,Francais,m,0,0.0,50.15458506,0.55380102
659d84fd8455da95c9f44c77,69,1,2024-02-27T10:19:45.597Z,french_313.wav,0,poule,710,41,5,5,Francais,m,1,0.1,2.46815661,0.88494107
659d84fd8455da95c9f44c77,69,1,2024-02-27T10:19:45.597Z,french_313.wav,0,poule,710,41,5,5,Francais,m,2,0.2,44.14025365,0.65214702
659d84fd8455da95c9f44c77,69,1,2024-02-27T10:19:45.597Z,french_313.wav,0,poule,710,41,5,5,Francais,m,3,0.25666667,-56.8276357,0.5616472
659d84fd8455da95c9f44c77,70,1,2024-02-27T10:19:45.597Z,french_532.wav,0,poule,873,41,5,5,Francais,m,0,0.0,51.6664435,1.30171402
659d84fd8455da95c9f44c77,70,1,2024-02-27T10:19:45.597Z,french_532.wav,0,poule,873,41,5,5,Francais,m,1,0.1,12.38327687,0.03929558
659d84fd8455da95c9f44c77,70,1,2024-02-27T10:19:45.597Z,french_532.wav,0,poule,873,41,5,5,Francais,m,2,0.2,-89.35582175,1.38931331
659d84fd8455da95c9f44c77,70,1,2024-02-27T10:19:45.597Z,french_532.wav,0,poule,873,41,5,5,Francais,m,3,0.25666667,25.37493155,0.74157834
659d84fd8455da95c9f44c77,71,1,2024-02-27T10:19:45.597Z,french_471.wav,0,poule,717,41,5,5,Francais,m,0,0.0,35.47460752,0.77553755
659d84fd8455da95c9f44c77,71,1,2024-02-27T10:19:45.597Z,french_471.wav,0,poule,717,41,5,5,Francais,m,1,0.1,-49.00208302,1.38730058
659d84fd8455da95c9f44c77,71,1,2024-02-27T10:19:45.597Z,french_471.wav,0,poule,717,41,5,5,Francais,m,2,0.2,47.17677121,0.98156507
659d84fd8455da95c9f44c77,71,1,2024-02-27T10:19:45.597Z,french_471.wav,0,poule,717,41,5,5,Francais,m,3,0.25666667,64.34433074,0.66404961
659d84fd8455da95c9f44c77,72,1,2024-02-27T10:19:45.597Z,french_574.wav,0,poule,553,41,5,5,Francais,m,0,0.0,-78.43657591,1.27247015
659d84fd8455da95c9f44c77,72,1,2024-02-27T10:19:45.597Z,french_574.wav,0,poule,553,41,5,5,Francais,m,1,0.1,25.16959944,0.78898338
659d84fd8455da95c9f44c77,72,1,2024-02-27T10:19:45.597Z,french_574.wav,0,poule,553,41,5,5,Francais,m,2,0.2,42.97785019,1.49121094
659d84fd8455da95c9f44c77,72,1,2024-02-27T10:19:45.597Z,french_574.wav,0,poule,553,41,5,5,Francais,m,3,0.25666667,77.36764491,0.68004104
659d84fd8455da95c9f44c77,73,1,2024-02-27T10:19:45.597Z,french_967.wav,0,poule,1090,41,5,5,Francais,m,0,0.0,79.70451557,1.26694721
659d84fd8455da95c9f44c77,73,1,2024-02-27T10:19:45.597Z,french_967.wav,0,poule,1090,41,5,5,Francais,m,1,0.1,-96.60134716,0.15349476
659d84fd8455da95c9f44c77,73,1,2024-02-27T10:19:45.597Z,french_967.wav,0,poule,1090,41,5,5,Francais,m,2,0.2,12.1279289,0.99393875
659d84fd8455da95c9f44c77,73,1,2024-02-27T10:19:45.597Z,french_967.wav,0,poule,1090,41,5,5,Francais,m,3,0.25666667,-44.3997303,1.32782977
659d84fd8455da95c9f44c77,74,1,2024-02-27T10:19:45.597Z,french_517.wav,0,poule,816,41,5,5,Francais,m,0,0.0,10.61669355,0.19899019
659d84fd8455da95c9f44c77,74,1,2024-02-27T10:19:45.597Z,french_517.wav,0,poule,816,41,5,5,Francais,m,1,0.1,-49.88851761,1.4553669
659d84fd8455da95c9f44c77,74,1,2024-02-27T10:19:45.597Z,french_517.wav,0,poule,816,41,5,5,Francais,m,2,0.2,47.72087598,1.48195648
659d84fd8455da95c9f44c77,74,1,2024-02-27T10:19:45.597Z,french_517.wav,0,poule,816,41,5,5,Francais,m,3,0.25666667,-22.50236439,0.87629427
659d84fd8455da95c9f44c77,75,1,2024-02-27T10:19:45.597Z,french_183.wav,0,poule,543,41,5,5,Francais,m,0,0.0,-70.39448934,1.64690622
659d84fd8455da95c9f44c77,75,1,2024-02-27T10:19:45.597Z,french_183.wav,0,poule,543,41,5,5,Francais,m,1,0.1,53.65669982,0.19500459
659d84fd8455da95c9f44c77,75,1,2024-02-27T10:19:45.597Z,french_183.wav,0,poule,543,41,5,5,Francais,m,2,0.2,-2.56135136,1.70333754
659d84fd8455da95c9f44c77,75,1,2024-02-27T10:19:45.597Z,french_183.wav,0,poule,543,41,5,5,Francais,m,3,0.25666667,49.12124255,0.71175446
659d84fd8455da95c9f44c77,76,1,2024-02-27T10:19:45.597Z,french_591.wav,0,pull,755,41,5,5,Francais,m,0,0.0,2.66615607,1.05020949
659d84fd8455da95c9f44c77,76,1,2024-02-27T10:19:45.597Z,french_591.wav,0,pull,755,41,5,5,Francais,m,1,0.1,-24.26502045,0.55521736
659d84fd8455da95c9f44c77,76,1,2024-02-27T10:19:45.597Z,french_591.wav,0,pull,755,41,5,5,Francais,m,2,0.2,-31.81388833,0.20807215
659d84fd8455da95c9f44c77,76,1,2024-02-27T10:19:45.597Z,french_591.wav,0,pull,755,41,5,5,Francais,m,3,0.25666667,34.70768216,1.08119284
659d84fd8455da95c9f44c77,77,1,2024-02-27T10:19:45.597Z,french_1000.wav,0,pull,1111,41,5,5,Francais,m,0,0.0,-14.94486739,0.60674079
659d84fd8455da95c9f44c77,77,1,2024-02-27T10:19:45.597Z,french_1000.wav,0,pull,1111,41,5,5,Francais,m,1,0.1,-3.70752284,0.18450848
659d84fd8455da95c9f44c77,77,1,2024-02-27T10:19:45.597Z,french_1000.wav,0,pull,1111,41,5,5,Francais,m,2,0.2,-14.04083749,1.64475948
659d84fd8455da95c9f44c77,77,1,2024-02-27T10:19:45.597Z,french_1000.wav,0,pull,1111,41,5,5,Francais,m,3,0.25666667,-29.27941665,0.26397745
659d84fd8455da95c9f44c77,78,1,2024-02-27T10:19:45.597Z,french_788.wav,0,pull,1598,41,5,5,Francais,m,0,0.0,-49.59093674,1.03975343
659d84fd8455da95c9f44c77,78,1,2024-02-27T10:19:45.597Z,french_788.wav,0,pull,1598,41,5,5,Francais,m,1,0.1,-37.12859592,0.12530513
659d84fd8455da95c9f44c77,78,1,2024-02-27T10:19:45.597Z,french_788.wav,0,pull,1598,41,5,5,Francais,m,2,0.2,78.06548219,0.40268526
659d84fd8455da95c9f44c77,78,1,2024-02-27T10:19:45.597Z,french_788.wav,0,pull,1598,41,5,5,Francais,m,3,0.25666667,52.38730842,1.72021211
659d84fd8455da95c9f44c77,79,1,2024-02-27T10:19:45.597Z,french_556.wav,0,pull,1076,41,5,5,Francais,m,0,0.0,57.69742807,1.23910924
659d84fd8455da95c9f44c77,79,1,2024-02-27T10:19:45.597Z,french_556.wav,0,pull,1076,41,5,5,Francais,m,1,0.1,74.69192241,0.49477788
659d84fd8455da95c9f44c77,79,1,2024-02-27T10:19:45.597Z,french_556.wav,0,pull,1076,41,5,5,Francais,m,2,0.2,-92.88512431,1.56323012
659d84fd8455da95c9f44c77,79,1,2024-02-27T10:19:45.597Z,french_556.wav,0,pull,1076,41,5,5,Francais,m,3,0.25666667,27.11476112,1.7455964
659d84fd8455da95c9f44c77,80,1,2024-02-27T10:19:45.597Z,french_857.wav,0,pull,868,41,5,5,Francais,m,0,0.0,40.93487779,1.95936394
659d84fd8455da95c9f44c77,80,1,2024-02-27T10:19:45.597Z,french_857.wav,0,pull,868,41,5,5,Francais,m,1,0.1,-17.75235864,1.43648621
659d84fd8455da95c9f44c77,80,1,2024-02-27T10:19:45.597Z,french_857.wav,0,pull,868,41,5,5,Francais,m,2,0.2,39.31370365,1.12127335
659d84fd8455da95c9f44c77,80,1,2024-02-27T10:19:45.597Z,french_857.wav,0,pull,868,41,5,5,Francais,m,3,0.25666667,-10.04228362,0.40363044
659d84fd8455da95c9f44c77,81,1,2024-02-27T10:19:45.597Z,french_10.wav,0,poule,1216,41,5,5,Francais,m,0,0.0,34.48773494,0.90390655
659d84fd8455da95c9f44c77,81,1,2024-02-27T10:19:45.597Z,french_10.wav,0,poule,1216,41,5,5,Francais,m,1,0.1,82.41652137,1.13926368
659d84fd8455da95c9f44c77,81,1,2024-02-27T10:19:45.597Z,french_10.wav,0,poule,1216,41,5,5,Francais,m,2,0.2,-51.47900312,1.63497012
659d84fd8455da95c9f44c77,81,1,2024-02-27T10:19:45.597Z,french_10.wav,0,poule,1216,41,5,5,Francais,m,3,0.25666667,70.4490668,0.74730693
659d84fd8455da95c9f44c77,82,1,2024-02-27T10:19:45.597Z,french_549.wav,0,poule,563,41,5,5,Francais,m,0,0.0,40.06296083,1.11554245
659d84fd8455da95c9f44c77,82,1,2024-02-27T10:19:45.597Z,french_549.wav,0,poule,563,41,5,5,Francais,m,1,0.1,-25.7595798,1.21579497
659d84fd8455da95c9f44c77,82,1,2024-02-27T10:19:45.597Z,french_549.wav,0,poule,563,41,5,5,Francais,m,2,0.2,45.79306888,1.32867101
659d84fd8455da95c9f44c77,82,1,2024-02-27T10:19:45.597Z,french_549.wav,0,poule,563,41,5,5,Francais,m,3,0.25666667,27.44668145,0.7142841
659d84fd8455da95c9f44c77,83,1,2024-02-27T10:19:45.597Z,french_923.wav,0,poule,416,41,5,5,Francais,m,0,0.0,-57.84523262,1.35677253
659d84fd8455da95c9f44c77,83,1,2024-02-27T10:19:45.597Z,french_923.wav,0,poule,416,41,5,5,Francais,m,1,0.1,-15.65652506,1.1280373
659d84fd8455da95c9f44c77,83,1,2024-02-27T10:19:45.597Z,french_923.wav,0,poule,416,41,5,5,Francais,m,2,0.2,37.84243464,1.38752537
659d84fd8455da95c9f44c77,83,1,2024-02-27T10:19:45.597Z,french_923.wav,0,poule,416,41,5,5,Francais,m,3,0.25666667,15.41728704,1.42596606
659d84fd8455da95c9f44c77,84,1,2024-02-27T10:19:45.597Z,french_526.wav,0,poule,559,41,5,5,Francais,m,0,0.0,88.08406442,1.10890049
659d84fd8455da95c9f44c77,84,1,2024-02-27T10:19:45.597Z,french_526.wav,0,poule,559,41,5,5,Francais,m,1,0.1,34.72799638,1.05741796
659d84fd8455da95c9f44c77,84,1,2024-02-27T10:19:45.597Z,french_526.wav,0,poule,559,41,5,5,Francais,m,2,0.2,4.2178472,1.4706377
659d84fd8455da95c9f44c77,84,1,2024-02-27T10:19:45.597Z,french_526.wav,0,poule,559,41,5,5,Francais,m,3,0.25666667,90.74946068,0.12061003
659d84fd8455da95c9f44c77,85,1,2024-02-27T10:19:45.597Z,french_139.wav,0,poule,647,41,5,5,Francais,m,0,0.0,55.8945715,0.94357116
659d84fd8455da95c9f44c77,85,1,2024-02-27T10:19:45.597Z,french_139.wav,0,poule,647,41,5,5,Francais,m,1,0.1,-37.58065727,0.51247941
659d84fd8455da95c9f44c77,85,1,2024-02-27T10:19:45.597Z,french_139.wav,0,poule,647,41,5,5,Francais,m,2,0.2,-36.76334563,1.17002066
659d84fd8455da95c9f44c77,85,1,2024-02-27T10:19:45.597Z,french_139.wav,0,poule,647,41,5,5,Francais,m,3,0.25666667,4.9296063,0.00285273
659d84fd8455da95c9f44c77,86,1,2024-02-27T10:19:45.597Z,french_844.wav,0,poule,1100,41,5,5,Francais,m,0,0.0,29.77319266,0.89130203
659d84fd8455da95c9f44c77,86,1,2024-02-27T10:19:45.597Z,french_844.wav,0,poule,1100,41,5,5,Francais,m,1,0.1,-6.65775534,0.41170989
659d84fd8455da95c9f44c77,86,1,2024-02-27T10:19:45.597Z,french_844.wav,0,poule,1100,41,5,5,Francais,m,2,0.2,88.70188171,0.96705276
659d84fd8455da95c9f44c77,86,1,2024-02-27T10:19:45.597Z,french_844.wav,0,poule,1100,41,5,5,Francais,m,3,0.25666667,-96.32304745,0.58258054
659d84fd8455da95c9f44c77,87,1,2024-02-27T10:19:45.597Z,french_615.wav,0,pull,1281,41,5,5,Francais,m,0,0.0,-99.04240885,1.08448469
659d84fd8455da95c9f44c77,87,1,2024-02-27T10:19:45.597Z,french_615.wav,0,pull,1281,41,5,5,Francais,m,1,0.1,-49.15643876,1.88363881
659d84fd8455da95c9f44c77,87,1,2024-02-27T10:19:45.597Z,french_615.wav,0,pull,1281,41,5,5,Francais,m,2,0.2,-66.91195639,1.28593097
659d84fd8455da95c9f44c77,87,1,2024-02-27T10:19:45.597Z,french_615.wav,0,pull,1281,41,5,5,Francais,m,3,0.25666667,-56.29346357,1.82136606
659d84fd8455da95c9f44c77,88,1,2024-02-27T10:19:45.597Z,french_860.wav,0,pull,763,41,5,5,Francais,m,0,0.0,33.37389434,1.87718004
659d84fd8455da95c9f44c77,88,1,2024-02-27T10:19:45.597Z,french_860.wav,0,pull,763,41,5,5,Francais,m,1,0.1,66.22312498,1.50950791
659d84fd8455da95c9f44c77,88,1,2024-02-27T10:19:45.597Z,french_860.wav,0,pull,763,41,5,5,Francais,m,2,0.2,-4.57961146,0.09437067
659d84fd8455da95c9f44c77,88,1,2024-02-27T10:19:45.597Z,french_860.wav,0,pull,763,41,5,5,Francais,m,3,0.25666667,50.69207221,1.19183747
659d84fd8455da95c9f44c77,89,1,2024-02-27T10:19:45.597Z,french_612.wav,0,pull,742,41,5,5,Francais,m,0,0.0,43.10783066,0.49686358
659d84fd8455da95c9f44c77,89,1,2024-02-27T10:19:45.597Z,french_612.wav,0,pull,742,41,5,5,Francais,m,1,0.1,-4.14995098,1.10500502
659d84fd8455da95c9f44c77,89,1,2024-02-27T10:19:45.597Z,french_612.wav,0,pull,742,41,5,5,Francais,m,2,0.2,22.17563662,0.22222502
659d84fd8455da95c9f44c77,89,1,2024-02-27T10:19:45.597Z,french_612.wav,0,pull,742,41,5,5,Francais,m,3,0.25666667,-48.75850842,1.14111641
659d84fd8455da95c9f44c77,90,1,2024-02-27T10:19:45.597Z,french_523.wav,0,pull,926,41,5,5,Francais,m,0,0.0,-20.54401218,1.01178449
659d84fd8455da95c9f44c77,90,1,2024-02-27T10:19:45.597Z,french_523.wav,0,pull,926,41,5,5,Francais,m,1,0.1,-64.61887171,1.79283511
659d84fd8455da95c9f44c77,90,1,2024-02-27T10:19:45.597Z,french_523.wav,0,pull,926,41,5,5,Francais,m,2,0.2,-56.67652055,0.92711934
659d84fd8455da95c9f44c77,90,1,2024-02-27T10:19:45.597Z,french_523.wav,0,pull,926,41,5,5,Francais,m,3,0.25666667,-29.90055738,1.0186138
659d84fd8455da95c9f44c77,91,1,2024-02-27T10:19:45.597Z,french_8.wav,0,poule,696,41,5,5,Francais,m,0,0.0,75.36204911,1.20802323
659d84fd8455da95c9f44c77,91,1,2024-02-27T10:19:45.597Z,french_8.wav,0,poule,696,41,5,5,Francais,m,1,0.1,99.77980072,1.04694521
659d84fd8455da95c9f44c77,91,1,2024-02-27T10:19:45.597Z,french_8.wav,0,poule,696,41,5,5,Francais,m,2,0.2,31.87407215,1.95307637
659d84fd8455da95c9f44c77,91,1,2024-02-27T10:19:45.597Z,french_8.wav,0,poule,696,41,5,5,Francais,m,3,0.25666667,-3.14162979,0.34441347
659d84fd8455da95c9f44c77,92,1,2024-02-27T10:19:45.597Z,french_456.wav,0,poule,695,41,5,5,Francais,m,0,0.0,-27.91969988,0.874098
659d84fd8455da95c9f44c77,92,1,2024-02-27T10:19:45.597Z,french_456.wav,0,poule,695,41,5,5,Francais,m,1,0.1,-6.9905469,0.40632282
659d84fd8455da95c9f44c77,92,1,2024-02-27T10:19:45.597Z,french_456.wav,0,poule,695,41,5,5,Francais,m,2,0.2,7.34213132,0.88508218
659d84fd8455da95c9f44c77,92,1,2024-02-27T10:19:45.597Z,french_456.wav,0,poule,695,41,5,5,Francais,m,3,0.25666667,-16.30576404,1.43350061
659d84fd8455da95c9f44c77,93,1,2024-02-27T10:19:45.597Z,french_696.wav,0,poule,579,41,5,5,Francais,m,0,0.0,39.34258856,1.15492287
659d84fd8455da95c9f44c77,93,1,2024-02-27T10:19:45.597Z,french_696.wav,0,poule,579,41,5,5,Francais,m,1,0.1,16.85699936,0.81118798
659d84fd8455da95c9f44c77,93,1,2024-02-27T10:19:45.597Z,french_696.wav,0,poule,579,41,5,5,Francais,m,2,0.2,-58.01570434,0.43841119
659d84fd8455da95c9f44c77,93,1,2024-02-27T10:19:45.597Z,french_696.wav,0,poule,579,41,5,5,Francais,m,3,0.25666667,-91.70212518,1.32812972
659d84fd8455da95c9f44c77,94,1,2024-02-27T10:19:45.597Z,french_318.wav,0,poule,1398,41,5,5,Francais,m,0,0.0,51.46520294,0.36120202
659d84fd8455da95c9f44c77,94,1,2024-02-27T10:19:45.597Z,french_318.wav,0,poule,1398,41,5,5,Francais,m,1,0.1,86.78866558,0.00996795
659d84fd8455da95c9f44c77,94,1,2024-02-27T10:19:45.597Z,french_318.wav,0,poule,1398,41,5,5,Francais,m,2,0.2,-10.27725715,1.05940341
659d84fd8455da95c9f44c77,94,1,2024-02-27T10:19:45.597Z,french_318.wav,0,poule,1398,41,5,5,Francais,m,3,0.25666667,9.68065634,1.37923943
659d84fd8455da95c9f44c77,95,1,2024-02-27T10:19:45.597Z,french_533.wav,0,pull,671,41,5,5,Francais,m,0,0.0,16.04004141,1.94214745
659d84fd8455da95c9f44c77,95,1,2024-02-27T10:19:45.597Z,french_533.wav,0,pull,671,41,5,5,Francais,m,1,0.1,56.74964814,0.96958639
659d84fd8455da95c9f44c77,95,1,2024-02-27T10:19:45.597Z,french_533.wav,0,pull,671,41,5,5,Francais,m,2,0.2,94.00728235,1.49563925
659d84fd8455da95c9f44c77,95,1,2024-02-27T10:19:45.597Z,french_533.wav,0,pull,671,41,5,5,Francais,m,3,0.25666667,-15.92685786,1.75047909
659d84fd8455da95c9f44c77,96,1,2024-02-27T10:19:45.597Z,french_5.wav,0,poule,1089,41,5,5,Francais,m,0,0.0,-2.8714843,1.07181682
659d84fd8455da95c9f44c77,96,1,2024-02-27T10:19:45.597Z,french_5.wav,0,poule,1089,41,5,5,Francais,m,1,0.1,-50.9441672,0.56733338
659d84fd8455da95c9f44c77,96,1,2024-02-27T10:19:45.597Z,french_5.wav,0,poule,1089,41,5,5,Francais,m,2,0.2,56.21180826,0.26773361
659d84fd8455da95c9f44c77,96,1,2024-02-27T10:19:45.597Z,french_5.wav,0,poule,1089,41,5,5,Francais,m,3,0.25666667,-57.18619957,1.97613039
659d84fd8455da95c9f44c77,97,1,2024-02-27T10:19:45.597Z,french_741.wav,0,pull,753,41,5,5,Francais,m,0,0.0,52.99239945,1.20115282
659d84fd8455da95c9f44c77,97,1,2024-02-27T10:19:45.597Z,french_741.wav,0,pull,753,41,5,5,Francais,m,1,0.1,-62.37721768,0.53106937
659d84fd8455da95c9f44c77,97,1,2024-02-27T10:19:45.597Z,french_741.wav,0,pull,753,41,5,5,Francais,m,2,0.2,54.26195155,1.91925029
659d84fd8455da95c9f44c77,97,1,2024-02-27T10:19:45.597Z,french_741.wav,0,pull,753,41,5,5,Francais,m,3,0.25666667,8.23350592,0.42380295
659d84fd8455da95c9f44c77,98,1,2024-02-27T10:19:45.597Z,french_783.wav,0,poule,1138,41,5,5,Francais,m,0,0.0,-1.39366148,1.02261841
659d84fd8455da95c9f44c77,98,1,2024-02-27T10:19:45.597Z,french_783.wav,0,poule,1138,41,5,5,Francais,m,1,0.1,-51.98505422,1.36670641
659d84fd8455da95c9f44c77,98,1,2024-02-27T10:19:45.597Z,french_783.wav,0,poule,1138,41,5,5,Francais,m,2,0.2,-59.48644931,1.36831513
659d84fd8455da95c9f44c77,98,1,2024-02-27T10:19:45.597Z,french_783.wav,0,poule,1138,41,5,5,Francais,m,3,0.25666667,-72.0894269,1.17814646
659d84fd8455da95c9f44c77,99,1,2024-02-27T10:19:45.597Z,french_2.wav,0,pull,628,41,5,5,Francais,m,0,0.0,-28.21412584,1.58504822
659d84fd8455da95c9f44c77,99,1,2024-02-27T10:19:45.597Z,french_2.wav,0,pull,628,41,5,5,Francais,m,1,0.1,66.62162467,1.83034999
659d84fd8455da95c9f44c77,99,1,2024-02-27T10:19:45.597Z,french_2.wav,0,pull,628,41,5,5,Francais,m,2,0.2,16.24659996,0.31217517
659d84fd8455da95c9f44c77,99,1,2024-02-27T10:19:45.597Z,french_2.wav,0,pull,628,41,5,5,Francais,m,3,0.25666667,-46.42897327,1.81400659
659d84fd8455da95c9f44c77,100,2,2024-02-27T10:19:45.597Z,french_943.wav,0,pull,773,41,5,5,Francais,m,0,0.0,27.08075724,1.18472309
659d84fd8455da95c9f44c77,100,2,2024-02-27T10:19:45.597Z,french_943.wav,0,pull,773,41,5,5,Francais,m,1,0.1,11.89706259,0.18520331
659d84fd8455da95c9f44c77,100,2,2024-02-27T10:19:45.597Z,french_943.wav,0,pull,773,41,5,5,Francais,m,2,0.2,-68.36208072,0.55970606
659d84fd8455da95c9f44c77,100,2,2024-02-27T10:19:45.597Z,french_943.wav,0,pull,773,41,5,5,Francais,m,3,0.25666667,93.65942771,0.63383354
659d84fd8455da95c9f44c77,101,2,2024-02-27T10:19:45.597Z,french_457.wav,0,pull,768,41,5,5,Francais,m,0,0.0,42.86960152,1.10156515
659d84fd8455da95c9f44c77,101,2,2024-02-27T10:19:45.597Z,french_457.wav,0,pull,768,41,5,5,Francais,m,1,0.1,79.85160671,0.90608198
659d84fd8455da95c9f44c77,101,2,2024-02-27T10:19:45.597Z,french_457.wav,0,pull,768,41,5,5,Francais,m,2,0.2,98.12255829,0.87189229
659d84fd8455da95c9f44c77,101,2,2024-02-27T10:19:45.597Z,french_457.wav,0,pull,768,41,5,5,Francais,m,3,0.25666667,78.01153847,1.12024719
659d84fd8455da95c9f44c77,102,2,2024-02-27T10:19:45.597Z,french_374.wav,0,pull,683,41,5,5,Francais,m,0,0.0,23.12233407,0.63582229
659d84fd8455da95c9f44c77,102,2,2024-02-27T10:19:45.597Z,french_374.wav,0,pull,683,41,5,5,Francais,m,1,0.1,4.88786521,0.48218095
659d84fd8455da95c9f44c77,102,2,2024-02-27T10:19:45.597Z,french_374.wav,0,pull,683,41,5,5,Francais,m,2,0.2,75.40336837,0.81003499
659d84fd8455da95c9f44c77,102,2,2024-02-27T10:19:45.597Z,french_374.wav,0,pull,683,41,5,5,Francais,m,3,0.25666667,-52.23092949,1.31471089
659d84fd8455da95c9f44c77,103,2,2024-02-27T10:19:45.597Z,french_359.wav,0,poule,625,41,5,5,Francais,m,0,0.0,4.86221528,1.66863127
659d84fd8455da95c9f44c77,103,2,2024-02-27T10:19:45.597Z,french_359.wav,0,poule,625,41,5,5,Francais,m,1,0.1,41.19609007,0.25992168
659d84fd8455da95c9f44c77,103,2,2024-02-27T10:19:45.597Z,french_359.wav,0,poule,625,41,5,5,Francais,m,2,0.2,55.98013436,1.95186144
659d84fd8455da95c9f44c77,103,2,2024-02-27T10:19:45.597Z,french_359.wav,0,poule,625,41,5,5,Francais,m,3,0.25666667,-59.88256532,1.64110453
659d84fd8455da95c9f44c77,104,2,2024-02-27T10:19:45.597Z,french_966.wav,0,pull,561,41,5,5,Francais,m,0,0.0,94.80811126,1.26057873
659d84fd8455da95c9f44c77,104,2,2024-02-27T10:19:45.597Z,french_966.wav,0,pull,561,41,5,5,Francais,m,1,0.1,-90.73743651,1.58996588
659d84fd8455da95c9f44c77,104,2,2024-02-27T10:19:45.597Z,french_966.wav,0,pull,561,41,5,5,Francais,m,2,0.2,94.60686235,0.08752829
659d84fd8455da95c9f44c77,104,2,2024-02-27T10:19:45.597Z,french_966.wav,0,pull,561,41,5,5,Francais,m,3,0.25666667,-83.76406221,0.32239013
659d84fd8455da95c9f44c77,105,2,2024-02-27T10:19:45.597Z,french_548.wav,0,pull,675,41,5,5,Francais,m,0,0.0,1.54236609,0.97335898
659d84fd8455da95c9f44c77,105,2,2024-02-27T10:19:45.597Z,french_548.wav,0,pull,675,41,5,5,Francais,m,1,0.1,42.93927178,0.92328993
659d84fd8455da95c9f44c77,105,2,2024-02-27T10:19:45.597Z,french_548.wav,0,pull,675,41,5,5,Francais,m,2,0.2,94.14256546,0.31229256
659d84fd8455da95c9f44c77,105,2,2024-02-27T10:19:45.597Z,french_548.wav,0,pull,675,41,5,5,Francais,m,3,0.25666667,78.31055202,0.51911246
659d84fd8455da95c9f44c77,106,2,2024-02-27T10:19:45.597Z,french_231.wav,0,poule,1170,41,5,5,Francais,m,0,0.0,15.23586761,1.95048297
659d84fd8455da95c9f44c77,106,2,2024-02-27T10:19:45.597Z,french_231.wav,0,poule,1170,41,5,5,Francais,m,1,0.1,15.03275874,1.45451509
659d84fd8455da95c9f44c77,106,2,2024-02-27T10:19:45.597Z,french_231.wav,0,poule,1170,41,5,5,Francais,m,2,0.2,-80.75641997,1.67801628
659d84fd8455da95c9f44c77,106,2,2024-02-27T10:19:45.597Z,french_231.wav,0,poule,1170,41,5,5,Francais,m,3,0.25666667,-36.14562296,1.39710855
659d84fd8455da95c9f44c77,107,2,2024-02-27T10:19:45.597Z,french_346.wav,0,poule,992,41,5,5,Francais,m,0,0.0,-9.57888942,1.97053356
659d84fd8455da95c9f44c77,107,2,2024-02-27T10:19:45.597Z,french_346.wav,0,poule,992,41,5,5,Francais,m,1,0.1,44.75165277,0.16189102
659d84fd8455da95c9f44c77,107,2,2024-02-27T10:19:45.597Z,french_346.wav,0,poule,992,41,5,5,Francais,m,2,0.2,-77.92949754,0.34896721
659d84fd8455da95c9f44c77,107,2,2024-02-27T10:19:45.597Z,french_346.wav,0,poule,992,41,5,5,Francais,m,3,0.25666667,-10.35911767,1.54776001
659d84fd8455da95c9f44c77,108,2,2024-02-27T10:19:45.597Z,french_6.wav,0,pull,615,41,5,5,Francais,m,0,0.0,67.46153681,1.53277947
659d84fd8455da95c9f44c77,108,2,2024-02-27T10:19:45.597Z,french_6.wav,0,pull,615,41,5,5,Francais,m,1,0.1,-88.84735091,1.45938327
659d84fd8455da95c9f44c77,108,2,2024-02-27T10:19:45.597Z,french_6.wav,0,pull,615,41,5,5,Francais,m,2,0.2,-91.91919173,0.73643418
659d84fd8455da95c9f44c77,108,2,2024-02-27T10:19:45.597Z,french_6.wav,0,pull,615,41,5,5,Francais,m,3,0.25666667,29.60258617,1.91810532
659d84fd8455da95c9f44c77,109,2,2024-02-27T10:19:45.597Z,french_700.wav,0,poule,2243,41,5,5,Francais,m,0,0.0,27.78595998,1.84943535
659d84fd8455da95c9f44c77,109,2,2024-02-27T10:19:45.597Z,french_700.wav,0,poule,2243,41,5,5,Francais,m,1,0.1,-29.96160528,0.52483958
659d84fd8455da95c9f44c77,109,2,2024-02-27T10:19:45.597Z,french_700.wav,0,poule,2243,41,5,5,Francais,m,2,0.2,60.6733782,0.55672926
659d84fd8455da95c9f44c77,109,2,2024-02-27T10:19:45.597Z,french_700.wav,0,poule,2243,41,5,5,Francais,m,3,0.25666667,39.12324738,0.96842636
659d84fd8455da95c9f44c77,110,2,2024-02-27T10:19:45.597Z,french_934.wav,0,poule,928,41,5,5,Francais,m,0,0.0,-9.72159443,1.08583672
659d84fd8455da95c9f44c77,110,2,2024-02-27T10:19:45.597Z,french_934.wav,0,poule,928,41,5,5,Francais,m,1,0.1,-11.38125641,0.99463139
659d84fd8455da95c9f44c77,110,2,2024-02-27T10:19:45.597Z,french_934.wav,0,poule,928,41,5,5,Francais,m,2,0.2,-15.93762726,1.46206623
659d84fd8455da95c9f44c77,110,2,2024-02-27T10:19:45.597Z,french_934.wav,0,poule,928,41,5,5,Francais,m,3,0.25666667,-19.962769,1.59629023
659d84fd8455da95c9f44c77,111,2,2024-02-27T10:19:45.597Z,french_274.wav,0,pull,662,41,5,5,Francais,m,0,0.0,43.75822691,1.39255027
659d84fd8455da95c9f44c77,111,2,2024-02-27T10:19:45.597Z,french_274.wav,0,pull,662,41,5,5,Francais,m,1,0.1,86.10199067,1.73272922
659d84fd8455da95c9f44c77,111,2,2024-02-27T10:19:45.597Z,french_274.wav,0,pull,662,41,5,5,Francais,m,2,0.2,-33.25278445,0.27567755
659d84fd8455da95c9f44c77,111,2,2024-02-27T10:19:45.597Z,french_274.wav,0,pull,662,41,5,5,Francais,m,3,0.25666667,-94.53609652,1.08955952
659d84fd8455da95c9f44c77,112,2,2024-02-27T10:19:45.597Z,french_664.wav,0,poule,535,41,5,5,Francais,m,0,0.0,-2.08032019,1.43741932
659d84fd8455da95c9f44c77,112,2,2024-02-27T10:19:45.597Z,french_664.wav,0,poule,535,41,5,5,Francais,m,1,0.1,-67.02716902,1.07099048
659d84fd8455da95c9f44c77,112,2,2024-02-27T10:19:45.597Z,french_664.wav,0,poule,535,41,5,5,Francais,m,2,0.2,95.17650789,1.92774669
659d84fd8455da95c9f44c77,112,2,2024-02-27T10:19:45.597Z,french_664.wav,0,poule,535,41,5,5,Francais,m,3,0.25666667,-41.34718039,0.70027683
659d84fd8455da95c9f44c77,113,2,2024-02-27T10:19:45.597Z,french_208.wav,0,poule,690,41,5,5,Francais,m,0,0.0,8.68990421,0.76850137
659d84fd8455da95c9f44c77,113,2,2024-02-27T10:19:45.597Z,french_208.wav,0,poule,690,41,5,5,Francais,m,1,0.1,-43.18378372,1.33781212
659d84fd8455da95c9f44c77,113,2,2024-02-27T10:19:45.597Z,french_208.wav,0,poule,690,41,5,5,Francais,m,2,0.2,71.27860087,0.39946576
659d84fd8455da95c9f44c77,113,2,2024-02-27T10:19:45.597Z,french_208.wav,0,poule,690,41,5,5,Francais,m,3,0.25666667,-15.56799856,0.17788265
659d84fd8455da95c9f44c77,114,2,2024-02-27T10:19:45.597Z,french_140.wav,0,poule,1221,41,5,5,Francais,m,0,0.0,88.20971648,1.40468934
659d84fd8455da95c9f44c77,114,2,2024-02-27T10:19:45.597Z,french_140.wav,0,poule,1221,41,5,5,Francais,m,1,0.1,-47.21457526,0.07517377
659d84fd8455da95c9f44c77,114,2,2024-02-27T10:19:45.597Z,french_140.wav,0,poule,1221,41,5,5,Francais,m,2,0.2,-33.13299566,0.96987146
659d84fd8455da95c9f44c77,114,2,2024-02-27T10:19:45.597Z,french_140.wav,0,poule,1221,41,5,5,Francais,m,3,0.25666667,6.89149494,0.45515396
659d84fd8455da95c9f44c77,115,2,2024-02-27T10:19:45.597Z,french_650.wav,0,poule,623,41,5,5,Francais,m,0,0.0,-98.04674504,0.50091073
659d84fd8455da95c9f44c77,115,2,2024-02-27T10:19:45.597Z,french_650.wav,0,poule,623,41,5,5,Francais,m,1,0.1,-80.1546697,0.94744897
659d84fd8455da95c9f44c77,115,2,2024-02-27T10:19:45.597Z,french_650.wav,0,poule,623,41,5,5,Francais,m,2,0.2,-60.9727692,0.76656919
659d84fd8455da95c9f44c77,115,2,2024-02-27T10:19:45.597Z,french_650.wav,0,poule,623,41,5,5,Francais,m,3,0.25666667,39.39299736,1.29747512
659d84fd8455da95c9f44c77,116,2,2024-02-27T10:19:45.597Z,french_392.wav,0,poule,1390,41,5,5,Francais,m,0,0.0,-11.14407327,1.55151156
659d84fd8455da95c9f44c77,116,2,2024-02-27T10:19:45.597Z,french_392.wav,0,poule,1390,41,5,5,Francais,m,1,0.1,-20.38505303,0.49285085
659d84fd8455da95c9f44c77,116,2,2024-02-27T10:19:45.597Z,french_392.wav,0,poule,1390,41,5,5,Francais,m,2,0.2,21.27154916,0.56092788
659d84fd8455da95c9f44c77,116,2,2024-02-27T10:19:45.597Z,french_392.wav,0,poule,1390,41,5,5,Francais,m,3,0.25666667,-29.54267832,1.54424804
659d84fd8455da95c9f44c77,117,2,2024-02-27T10:19:45.597Z,french_3.wav,0,pull,586,41,5,5,Francais,m,0,0.0,-14.61439924,1.57160784
659d84fd8455da95c9f44c77,117,2,2024-02-27T10:19:45.597Z,french_3.wav,0,pull,586,41,5,5,Francais,m,1,0.1,31.18450832,1.95729533
659d84fd8455da95c9f44c77,117,2,2024-02-27T10:19:45.597Z,french_3.wav,0,pull,586,41,5,5,Francais,m,2,0.2,25.79538703,1.5259075
659d84fd8455da95c9f44c77,117,2,2024-02-27T10:19:45.597Z,french_3.wav,0,pull,586,41,5,5,Francais,m,3,0.25666667,-0.91933426,1.3870147
659d84fd8455da95c9f44c77,118,2,2024-02-27T10:19:45.597Z,french_42.wav,0,poule,1202,41,5,5,Francais,m,0,0.0,-62.21237173,0.70589884
659d84fd8455da95c9f44c77,118,2,2024-02-27T10:19:45.597Z,french_42.wav,0,poule,1202,41,5,5,Francais,m,1,0.1,-98.4992591,0.40467669
659d84fd8455da95c9f44c77,118,2,2024-02-27T10:19:45.597Z,french_42.wav,0,poule,1202,41,5,5,Francais,m,2,0.2,97.73183718,0.72488221
659d84fd8455da95c9f44c77,118,2,2024-02-27T10:19:45.597Z,french_42.wav,0,poule,1202,41,5,5,Francais,m,3,0.25666667,-56.73891221,0.44273829
659d84fd8455da95c9f44c77,119,2,2024-02-27T10:19:45.597Z,french_872.wav,0,poule,648,41,5,5,Francais,m,0,0.0,85.31192626,1.27180188
659d84fd8455da95c9f44c77,119,2,2024-02-27T10:19:45.597Z,french_872.wav,0,poule,648,41,5,5,Francais,m,1,0.1,-62.96284321,0.82867252
659d84fd8455da95c9f44c77,119,2,2024-02-27T10:19:45.597Z,french_872.wav,0,poule,648,41,5,5,Francais,m,2,0.2,93.26127986,1.69740624
659d84fd8455da95c9f44c77,119,2,2024-02-27T10:19:45.597Z,french_872.wav,0,poule,648,41,5,5,Francais,m,3,0.25666667,48.13314647,0.31258738
659d84fd8455da95c9f44c77,120,2,2024-02-27T10:19:45.597Z,french_953.wav,0,poule,1099,41,5,5,Francais,m,0,0.0,-27.22394829,1.27693125
659d84fd8455da95c9f44c77,120,2,2024-02-27T10:19:45.597Z,french_953.wav,0,poule,1099,41,5,5,Francais,m,1,0.1,-3.36109764,0.12331262
659d84fd8455da95c9f44c77,120,2,2024-02-27T10:19:45.597Z,french_953.wav,0,poule,1099,41,5,5,Francais,m,2,0.2,79.96390299,1.48485403
659d84fd8455da95c9f44c77,120,2,2024-02-27T10:19:45.597Z,french_953.wav,0,poule,1099,41,5,5,Francais,m,3,0.25666667,-20.83871742,0.51230705
659d84fd8455da95c9f44c77,121,2,2024-02-27T10:19:45.597Z,french_302.wav,0,poule,945,41,5,5,Francais,m,0,0.0,8.4067376,0.06791418
659d84fd8455da95c9f44c77,121,2,2024-02-27T10:19:45.597Z,french_302.wav,0,poule,945,41,5,5,Francais,m,1,0.1,-29.32780789,1.46578571
659d84fd8455da95c9f44c77,121,2,2024-02-27T10:19:45.597Z,french_302.wav,0,poule,945,41,5,5,Francais,m,2,0.2,-43.35590711,1.81098556
659d84fd8455da95c9f44c77,121,2,2024-02-27T10:19:45.597Z,french_302.wav,0,poule,945,41,5,5,Francais,m,3,0.25666667,-44.50549756,1.40235265
659d84fd8455da95c9f44c77,122,2,2024-02-27T10:19:45.597Z,french_881.wav,0,poule,568,41,5,5,Francais,m,0,0.0,-25.82648211,0.15296837
659d84fd8455da95c9f44c77,122,2,2024-02-27T10:19:45.597Z,french_881.wav,0,poule,568,41,5,5,Francais,m,1,0.1,13.08751975,1.42149925
659d84fd8455da95c9f44c77,122,2,2024-02-27T10:19:45.597Z,french_881.wav,0,poule,568,41,5,5,Francais,m,2,0.2,-84.06590477,1.29281362
659d84fd8455da95c9f44c77,122,2,2024-02-27T10:19:45.597Z,french_881.wav,0,poule,568,41,5,5,Francais,m,3,0.25666667,-28.7935441,1.41538706
659d84fd8455da95c9f44c77,123,2,2024-02-27T10:19:45.597Z,french_79.wav,0,poule,528,41,5,5,Francais,m,0,0.0,-17.81057473,1.07647634
659d84fd8455da95c9f44c77,123,2,2024-02-27T10:19:45.597Z,french_79.wav,0,poule,528,41,5,5,Francais,m,1,0.1,-79.49788956,0.19758175
659d84fd8455da95c9f44c77,123,2,2024-02-27T10:19:45.597Z,french_79.wav,0,poule,528,41,5,5,Francais,m,2,0.2,21.64031361,1.4893643
659d84fd8455da95c9f44c77,123,2,2024-02-27T10:19:45.597Z,french_79.wav,0,poule,528,41,5,5,Francais,m,3,0.25666667,9.8962074,1.60982877
659d84fd8455da95c9f44c77,124,2,2024-02-27T10:19:45.597Z,french_336.wav,0,pull,693,41,5,5,Francais,m,0,0.0,-59.08437243,0.65572155
659d84fd8455da95c9f44c77,124,2,2024-02-27T10:19:45.597Z,french_336.wav,0,pull,693,41,5,5,Francais,m,1,0.1,-11.33502928,1.68249373
659d84fd8455da95c9f44c77,124,2,2024-02-27T10:19:45.597Z,french_336.wav,0,pull,693,41,5,5,Francais,m,2,0.2,-8.85944942,0.52457197
659d84fd8455da95c9f44c77,124,2,2024-02-27T10:19:45.597Z,french_336.wav,0,pull,693,41,5,5,Francais,m,3,0.25666667,-2.33471857,1.1312199
659d84fd8455da95c9f44c77,125,2,2024-02-27T10:19:45.597Z,french_506.wav,0,poule,1325,41,5,5,Francais,m,0,0.0,-29.72839746,0.56251
659d84fd8455da95c9f44c77,125,2,2024-02-27T10:19:45.597Z,french_506.wav,0,poule,1325,41,5,5,Francais,m,1,0.1,-47.17385777,1.58526303
659d84fd8455da95c9f44c77,125,2,2024-02-27T10:19:45.597Z,french_506.wav,0,poule,1325,41,5,5,Francais,m,2,0.2,-30.03244322,0.59604728
659d84fd8455da95c9f44c77,125,2,2024-02-27T10:19:45.597Z,french_506.wav,0,poule,1325,41,5,5,Francais,m,3,0.25666667,17.7760196,1.67426799
659d84fd8455da95c9f44c77,126,2,2024-02-27T10:19:45.597Z,french_234.wav,0,poule,627,41,5,5,Francais,m,0,0.0,40.80444991,0.6735757
659d84fd8455da95c9f44c77,126,2,2024-02-27T10:19:45.597Z,french_234.wav,0,poule,627,41,5,5,Francais,m,1,0.1,-12.8326651,0.4328315
659d84fd8455da95c9f44c77,126,2,2024-02-27T10:19:45.597Z,french_234.wav,0,poule,627,41,5,5,Francais,m,2,0.2,35.77292413,1.793606
659d84fd8455da95c9f44c77,126,2,2024-02-27T10:19:45.597Z,french_234.wav,0,poule,627,41,5,5,Francais,m,3,0.25666667,70.48005605,0.88572041
659d84fd8455da95c9f44c77,127,2,2024-02-27T10:19:45.597Z,french_397.wav,0,poule,525,41,5,5,Francais,m,0,0.0,-13.81470081,1.26162917
659d84fd8455da95c9f44c77,127,2,2024-02-27T10:19:45.597Z,french_397.wav,0,poule,525,41,5,5,Francais,m,1,0.1,50.38281738,1.19612478
659d84fd8455da95c9f44c77,127,2,2024-02-27T10:19:45.597Z,french_397.wav,0,poule,525,41,5,5,Francais,m,2,0.2,50.22980228,1.02842354
659d84fd8455da95c9f44c77,127,2,2024-02-27T10:19:45.597Z,french_397.wav,0,poule,525,41,5,5,Francais,m,3,0.25666667,-83.86271009,0.53389444
659d84fd8455da95c9f44c77,128,2,2024-02-27T10:19:45.597Z,french_971.wav,0,poule,630,41,5,5,Francais,m,0,0.0,96.00351489,1.9961872
659d84fd8455da95c9f44c77,128,2,2024-02-27T10:19:45.597Z,french_971.wav,0,poule,630,41,5,5,Francais,m,1,0.1,-55.9328558,0.96234699
659d84fd8455da95c9f44c77,128,2,2024-02-27T10:19:45.597Z,french_971.wav,0,poule,630,41,5,5,Francais,m,2,0.2,-62.43027521,1.29823686
659d84fd8455da95c9f44c77,128,2,2024-02-27T10:19:45.597Z,french_971.wav,0,poule,630,41,5,5,Francais,m,3,0.25666667,67.10785382,1.44437919
659d84fd8455da95c9f44c77,129,2,2024-02-27T10:19:45.597Z,french_680.wav,0,pull,590,41,5,5,Francais,m,0,0.0,-51.31535201,1.24719536
659d84fd8455da95c9f44c77,129,2,2024-02-27T10:19:45.597Z,french_680.wav,0,pull,590,41,5,5,Francais,m,1,0.1,-31.64171723,1.74184859
659d84fd8455da95c9f44c77,129,2,2024-02-27T10:19:45.597Z,french_680.wav,0,pull,590,41,5,5,Francais,m,2,0.2,81.67923452,0.78878625
659d84fd8455da95c9f44c77,129,2,2024-02-27T10:19:45.597Z,french_680.wav,0,pull,590,41,5,5,Francais,m,3,0.25666667,54.52860803,1.82878415
659d84fd8455da95c9f44c77,130,2,2024-02-27T10:19:45.597Z,french_888.wav,0,pull,1385,41,5,5,Francais,m,0,0.0,-7.09076065,0.01679895
659d84fd8455da95c9f44c77,130,2,2024-02-27T10:19:45.597Z,french_888.wav,0,pull,1385,41,5,5,Francais,m,1,0.1,62.1549683,1.75942782
659d84fd8455da95c9f44c77,130,2,2024-02-27T10:19:45.597Z,french_888.wav,0,pull,1385,41,5,5,Francais,m,2,0.2,-14.42714579,0.28698877
659d84fd8455da95c9f44c77,130,2,2024-02-27T10:19:45.597Z,french_888.wav,0,pull,1385,41,5,5,Francais,m,3,0.25666667,-85.6987995,1.72009857
659d84fd8455da95c9f44c77,131,2,2024-02-27T10:19:45.597Z,french_649.wav,0,pull,1327,41,5,5,Francais,m,0,0.0,-26.84796804,0.38564107
659d84fd8455da95c9f44c77,131,2,2024-02-27T10:19:45.597Z,french_649.wav,0,pull,1327,41,5,5,Francais,m,1,0.1,90.50092835,0.07645681
659d84fd8455da95c9f44c77,131,2,2024-02-27T10:19:45.597Z,french_649.wav,0,pull,1327,41,5,5,Francais,m,2,0.2,-42.32642697,0.18898029
659d84fd8455da95c9f44c77,131,2,2024-02-27T10:19:45.597Z,french_649.wav,0,pull,1327,41,5,5,Francais,m,3,0.25666667,-6.05454316,0.88659006
659d84fd8455da95c9f44c77,132,2,2024-02-27T10:19:45.597Z,french_228.wav,0,pull,1250,41,5,5,Francais,m,0,0.0,-13.78258648,1.36655769
659d84fd8455da95c9f44c77,132,2,2024-02-27T10:19:45.597Z,french_228.wav,0,pull,1250,41,5,5,Francais,m,1,0.1,27.88870681,1.56643938
659d84fd8455da95c9f44c77,132,2,2024-02-27T10:19:45.597Z,french_228.wav,0,pull,1250,41,5,5,Francais,m,2,0.2,-8.73674486,0.29403468
659d84fd8455da95c9f44c77,132,2,2024-02-27T10:19:45.597Z,french_228.wav,0,pull,1250,41,5,5,Francais,m,3,0.25666667,-13.88179653,0.32348249
659d84fd8455da95c9f44c77,133,2,2024-02-27T10:19:45.597Z,french_154.wav,0,poule,574,41,5,5,Francais,m,0,0.0,-35.77368222,0.10248514
659d84fd8455da95c9f44c77,133,2,2024-02-27T10:19:45.597Z,french_154.wav,0,poule,574,41,5,5,Francais,m,1,0.1,5.93918526,0.42084566
659d84fd8455da95c9f44c77,133,2,2024-02-27T10:19:45.597Z,french_154.wav,0,poule,574,41,5,5,Francais,m,2,0.2,36.13172948,1.29147589
659d84fd8455da95c9f44c77,133,2,2024-02-27T10:19:45.597Z,french_154.wav,0,poule,574,41,5,5,Francais,m,3,0.25666667,-52.77395679,0.60791213
659d84fd8455da95c9f44c77,134,2,2024-02-27T10:19:45.597Z,french_928.wav,0,pull,953,41,5,5,Francais,m,0,0.0,23.35867854,0.39112769
659d84fd8455da95c9f44c77,134,2,2024-02-27T10:19:45.597Z,french_928.wav,0,pull,953,41,5,5,Francais,m,1,0.1,-18.47737087,1.71601552
659d84fd8455da95c9f44c77,134,2,2024-02-27T10:19:45.597Z,french_928.wav,0,pull,953,41,5,5,Francais,m,2,0.2,41.22883985,0.4467351
659d84fd8455da95c9f44c77,134,2,2024-02-27T10:19:45.597Z,french_928.wav,0,pull,953,41,5,5,Francais,m,3,0.25666667,67.72155047,0.12145746
659d84fd8455da95c9f44c77,135,2,2024-02-27T10:19:45.597Z,french_120.wav,0,poule,1563,41,5,5,Francais,m,0,0.0,59.29212404,1.04724114
659d84fd8455da95c9f44c77,135,2,2024-02-27T10:19:45.597Z,french_120.wav,0,poule,1563,41,5,5,Francais,m,1,0.1,4.80411823,0.97380182
659d84fd8455da95c9f44c77,135,2,2024-02-27T10:19:45.597Z,french_120.wav,0,poule,1563,41,5,5,Francais,m,2,0.2,12.26509955,0.22521264
659d84fd8455da95c9f44c77,135,2,2024-02-27T10:19:45.597Z,french_120.wav,0,poule,1563,41,5,5,Francais,m,3,0.25666667,-79.44354783,0.8027629
659d84fd8455da95c9f44c77,136,2,2024-02-27T10:19:45.597Z,french_660.wav,0,poule,685,41,5,5,Francais,m,0,0.0,-75.02051955,0.75293762
659d84fd8455da95c9f44c77,136,2,2024-02-27T10:19:45.597Z,french_660.wav,0,poule,685,41,5,5,Francais,m,1,0.1,-36.41679043,0.97452375
659d84fd8455da95c9f44c77,136,2,2024-02-27T10:19:45.597Z,french_660.wav,0,poule,685,41,5,5,Francais,m,2,0.2,-45.60366398,1.88941483
659d84fd8455da95c9f44c77,136,2,2024-02-27T10:19:45.597Z,french_660.wav,0,poule,685,41,5,5,Francais,m,3,0.25666667,13.07838485,0.53297117
659d84fd8455da95c9f44c77,137,2,2024-02-27T10:19:45.597Z,french_669.wav,0,pull,532,41,5,5,Francais,m,0,0.0,0.0785638242,1.32851713
659d84fd8455da95c9f44c77,137,2,2024-02-27T10:19:45.597Z,french_669.wav,0,pull,532,41,5,5,Francais,m,1,0.1,6.42084207,1.65603836
659d84fd8455da95c9f44c77,137,2,2024-02-27T10:19:45.597Z,french_669.wav,0,pull,532,41,5,5,Francais,m,2,0.2,84.3922519,1.32676382
659d84fd8455da95c9f44c77,137,2,2024-02-27T10:19:45.597Z,french_669.wav,0,pull,532,41,5,5,Francais,m,3,0.256666667,1.87399725,0.80161972
659d84fd8455da95c9f44c77,138,2,2024-02-27T10:19:45.597Z,french_924.wav,0,poule,1192,41,5,5,Francais,m,0,0.0,19.51956159,0.29322561
659d84fd8455da95c9f44c77,138,2,2024-02-27T10:19:45.597Z,french_924.wav,0,poule,1192,41,5,5,Francais,m,1,0.1,-22.93629197,0.34885274
659d84fd8455da95c9f44c77,138,2,2024-02-27T10:19:45.597Z,french_924.wav,0,poule,1192,41,5,5,Francais,m,2,0.2,72.54596199,0.3497483
659d84fd8455da95c9f44c77,138,2,2024-02-27T10:19:45.597Z,french_924.wav,0,poule,1192,41,5,5,Francais,m,3,0.25666667,13.27885696,0.14375838
659d84fd8455da95c9f44c77,139,2,2024-02-27T10:19:45.597Z,french_775.wav,0,poule,672,41,5,5,Francais,m,0,0.0,-25.73289632,0.08278175
659d84fd8455da95c9f44c77,139,2,2024-02-27T10:19:45.597Z,french_775.wav,0,poule,672,41,5,5,Francais,m,1,0.1,52.55800123,0.7848412
659d84fd8455da95c9f44c77,139,2,2024-02-27T10:19:45.597Z,french_775.wav,0,poule,672,41,5,5,Francais,m,2,0.2,-82.88064372,1.99473571
659d84fd8455da95c9f44c77,139,2,2024-02-27T10:19:45.597Z,french_775.wav,0,poule,672,41,5,5,Francais,m,3,0.25666667,71.02003497,0.87564379
659d84fd8455da95c9f44c77,140,2,2024-02-27T10:19:45.597Z,french_401.wav,0,poule,476,41,5,5,Francais,m,0,0.0,-70.28001137,0.55430578
659d84fd8455da95c9f44c77,140,2,2024-02-27T10:19:45.597Z,french_401.wav,0,poule,476,41,5,5,Francais,m,1,0.1,-33.39817342,1.52055291
659d84fd8455da95c9f44c77,140,2,2024-02-27T10:19:45.597Z,french_401.wav,0,poule,476,41,5,5,Francais,m,2,0.2,31.30905025,1.05517946
659d84fd8455da95c9f44c77,140,2,2024-02-27T10:19:45.597Z,french_401.wav,0,poule,476,41,5,5,Francais,m,3,0.25666667,85.09993336,0.68126919
659d84fd8455da95c9f44c77,141,2,2024-02-27T10:19:45.597Z,french_855.wav,0,poule,583,41,5,5,Francais,m,0,0.0,2.71159552,1.64624975
659d84fd8455da95c9f44c77,141,2,2024-02-27T10:19:45.597Z,french_855.wav,0,poule,583,41,5,5,Francais,m,1,0.1,66.05842931,0.54809415
659d84fd8455da95c9f44c77,141,2,2024-02-27T10:19:45.597Z,french_855.wav,0,poule,583,41,5,5,Francais,m,2,0.2,41.00995311,1.64541289
659d84fd8455da95c9f44c77,141,2,2024-02-27T10:19:45.597Z,french_855.wav,0,poule,583,41,5,5,Francais,m,3,0.25666667,98.2962498,1.22205238
659d84fd8455da95c9f44c77,142,2,2024-02-27T10:19:45.597Z,french_527.wav,0,poule,550,41,5,5,Francais,m,0,0.0,97.81644093,0.09503525
659d84fd8455da95c9f44c77,142,2,2024-02-27T10:19:45.597Z,french_527.wav,0,poule,550,41,5,5,Francais,m,1,0.1,68.05004199,0.33267387
659d84fd8455da95c9f44c77,142,2,2024-02-27T10:19:45.597Z,french_527.wav,0,poule,550,41,5,5,Francais,m,2,0.2,-44.05597581,1.51053464
659d84fd8455da95c9f44c77,142,2,2024-02-27T10:19:45.597Z,french_527.wav,0,poule,550,41,5,5,Francais,m,3,0.25666667,40.91945638,1.37458991
659d84fd8455da95c9f44c77,143,2,2024-02-27T10:19:45.597Z,french_729.wav,0,poule,625,41,5,5,Francais,m,0,0.0,53.20588085,1.49423138
659d84fd8455da95c9f44c77,143,2,2024-02-27T10:19:45.597Z,french_729.wav,0,poule,625,41,5,5,Francais,m,1,0.1,89.42375323,0.2074599
659d84fd8455da95c9f44c77,143,2,2024-02-27T10:19:45.597Z,french_729.wav,0,poule,625,41,5,5,Francais,m,2,0.2,-13.37040397,1.07839331
659d84fd8455da95c9f44c77,143,2,2024-02-27T10:19:45.597Z,french_729.wav,0,poule,625,41,5,5,Francais,m,3,0.25666667,-26.89484255,0.61183567
659d84fd8455da95c9f44c77,144,2,2024-02-27T10:19:45.597Z,french_704.wav,0,pull,516,41,5,5,Francais,m,0,0.0,47.78235411,1.53952375
659d84fd8455da95c9f44c77,144,2,2024-02-27T10:19:45.597Z,french_704.wav,0,pull,516,41,5,5,Francais,m,1,0.1,-55.43932,1.15285736
659d84fd8455da95c9f44c77,144,2,2024-02-27T10:19:45.597Z,french_704.wav,0,pull,516,41,5,5,Francais,m,2,0.2,-4.4200676,1.9057017
659d84fd8455da95c9f44c77,144,2,2024-02-27T10:19:45.597Z,french_704.wav,0,pull,516,41,5,5,Francais,m,3,0.25666667,92.51428674,1.54517481
659d84fd8455da95c9f44c77,145,2,2024-02-27T10:19:45.597Z,french_702.wav,0,poule,661,41,5,5,Francais,m,0,0.0,-53.8337347,0.65995653
659d84fd8455da95c9f44c77,145,2,2024-02-27T10:19:45.597Z,french_702.wav,0,poule,661,41,5,5,Francais,m,1,0.1,13.17722269,1.48591365
659d84fd8455da95c9f44c77,145,2,2024-02-27T10:19:45.597Z,french_702.wav,0,poule,661,41,5,5,Francais,m,2,0.2,-63.63948694,1.16262137
659d84fd8455da95c9f44c77,145,2,2024-02-27T10:19:45.597Z,french_702.wav,0,poule,661,41,5,5,Francais,m,3,0.25666667,-7.77006894,1.49403865
659d84fd8455da95c9f44c77,146,2,2024-02-27T10:19:45.597Z,french_960.wav,0,poule,866,41,5,5,Francais,m,0,0.0,-21.44081237,0.51475761
659d84fd8455da95c9f44c77,146,2,2024-02-27T10:19:45.597Z,french_960.wav,0,poule,866,41,5,5,Francais,m,1,0.1,-88.4923718,1.11613408
659d84fd8455da95c9f44c77,146,2,2024-02-27T10:19:45.597Z,french_960.wav,0,poule,866,41,5,5,Francais,m,2,0.2,38.79957112,0.09358172
659d84fd8455da95c9f44c77,146,2,2024-02-27T10:19:45.597Z,french_960.wav,0,poule,866,41,5,5,Francais,m,3,0.25666667,-94.67313386,1.96196729
659d84fd8455da95c9f44c77,147,2,2024-02-27T10:19:45.597Z,french_257.wav,0,poule,623,41,5,5,Francais,m,0,0.0,1.27289853,1.18383926
659d84fd8455da95c9f44c77,147,2,2024-02-27T10:19:45.597Z,french_257.wav,0,poule,623,41,5,5,Francais,m,1,0.1,62.04423448,0.46495515
659d84fd8455da95c9f44c77,147,2,2024-02-27T10:19:45.597Z,french_257.wav,0,poule,623,41,5,5,Francais,m,2,0.2,19.88889926,0.91766752
659d84fd8455da95c9f44c77,147,2,2024-02-27T10:19:45.597Z,french_257.wav,0,poule,623,41,5,5,Francais,m,3,0.25666667,-46.96649461,1.75135473
659d84fd8455da95c9f44c77,148,2,2024-02-27T10:19:45.597Z,french_974.wav,0,poule,529,41,5,5,Francais,m,0,0.0,-56.73984936,0.20875225
659d84fd8455da95c9f44c77,148,2,2024-02-27T10:19:45.597Z,french_974.wav,0,poule,529,41,5,5,Francais,m,1,0.1,32.58414802,0.25167591
659d84fd8455da95c9f44c77,148,2,2024-02-27T10:19:45.597Z,french_974.wav,0,poule,529,41,5,5,Francais,m,2,0.2,-45.44939314,1.19458688
659d84fd8455da95c9f44c77,148,2,2024-02-27T10:19:45.597Z,french_974.wav,0,poule,529,41,5,5,Francais,m,3,0.25666667,-96.65983196,0.25310381
659d84fd8455da95c9f44c77,149,2,2024-02-27T10:19:45.597Z,french_852.wav,0,pull,748,41,5,5,Francais,m,0,0.0,-21.25647341,1.59129412
659d84fd8455da95c9f44c77,149,2,2024-02-27T10:19:45.597Z,french_852.wav,0,pull,748,41,5,5,Francais,m,1,0.1,44.09899268,0.90931534
659d84fd8455da95c9f44c77,149,2,2024-02-27T10:19:45.597Z,french_852.wav,0,pull,748,41,5,5,Francais,m,2,0.2,-20.54343266,0.17046498
659d84fd8455da95c9f44c77,149,2,2024-02-27T10:19:45.597Z,french_852.wav,0,pull,748,41,5,5,Francais,m,3,0.25666667,-73.6389021,0.95788578
659d84fd8455da95c9f44c77,150,3,2024-02-27T10:19:45.597Z,french_469.wav,0,poule,566,41,5,5,Francais,m,0,0.0,66.71351684,0.70736983
659d84fd8455da95c9f44c77,150,3,2024-02-27T10:19:45.597Z,french_469.wav,0,poule,566,41,5,5,Francais,m,1,0.1,-62.03219977,0.37939516
659d84fd8455da95c9f44c77,150,3,2024-02-27T10:19:45.597Z,french_469.wav,0,poule,566,41,5,5,Francais,m,2,0.2,3.50074433,0.65236
659d84fd8455da95c9f44c77,150,3,2024-02-27T10:19:45.597Z,french_469.wav,0,poule,566,41,5,5,Francais,m,3,0.25666667,58.03584826,0.94960182
659d84fd8455da95c9f44c77,151,3,2024-02-27T10:19:45.597Z,french_32.wav,0,poule,532,41,5,5,Francais,m,0,0.0,-95.97477456,1.5242089
659d84fd8455da95c9f44c77,151,3,2024-02-27T10:19:45.597Z,french_32.wav,0,poule,532,41,5,5,Francais,m,1,0.1,-25.31572866,0.2047991
659d84fd8455da95c9f44c77,151,3,2024-02-27T10:19:45.597Z,french_32.wav,0,poule,532,41,5,5,Francais,m,2,0.2,-25.0492654,1.11388434
659d84fd8455da95c9f44c77,151,3,2024-02-27T10:19:45.597Z,french_32.wav,0,poule,532,41,5,5,Francais,m,3,0.25666667,-74.56689772,1.18772321
659d84fd8455da95c9f44c77,152,3,2024-02-27T10:19:45.597Z,french_763.wav,0,pull,391,41,5,5,Francais,m,0,0.0,-96.72958763,0.69845728
659d84fd8455da95c9f44c77,152,3,2024-02-27T10:19:45.597Z,french_763.wav,0,pull,391,41,5,5,Francais,m,1,0.1,95.66434095,1.4089076
659d84fd8455da95c9f44c77,152,3,2024-02-27T10:19:45.597Z,french_763.wav,0,pull,391,41,5,5,Francais,m,2,0.2,-84.28875962,1.74428554
659d84fd8455da95c9f44c77,152,3,2024-02-27T10:19:45.597Z,french_763.wav,0,pull,391,41,5,5,Francais,m,3,0.25666667,-41.37848175,0.12054272
659d84fd8455da95c9f44c77,153,3,2024-02-27T10:19:45.597Z,french_254.wav,0,pull,515,41,5,5,Francais,m,0,0.0,-80.26287383,0.610966
659d84fd8455da95c9f44c77,153,3,2024-02-27T10:19:45.597Z,french_254.wav,0,pull,515,41,5,5,Francais,m,1,0.1,-40.33934554,1.74213191
659d84fd8455da95c9f44c77,153,3,2024-02-27T10:19:45.597Z,french_254.wav,0,pull,515,41,5,5,Francais,m,2,0.2,63.1875163,0.92287848
659d84fd8455da95c9f44c77,153,3,2024-02-27T10:19:45.597Z,french_254.wav,0,pull,515,41,5,5,Francais,m,3,0.25666667,55.87543548,0.4746978
659d84fd8455da95c9f44c77,154,3,2024-02-27T10:19:45.597Z,french_98.wav,0,poule,1354,41,5,5,Francais,m,0,0.0,-5.34356544,0.47275823
659d84fd8455da95c9f44c77,154,3,2024-02-27T10:19:45.597Z,french_98.wav,0,poule,1354,41,5,5,Francais,m,1,0.1,-51.77157259,0.98771666
659d84fd8455da95c9f44c77,154,3,2024-02-27T10:19:45.597Z,french_98.wav,0,poule,1354,41,5,5,Francais,m,2,0.2,16.6615471,0.01400035
659d84fd8455da95c9f44c77,154,3,2024-02-27T10:19:45.597Z,french_98.wav,0,poule,1354,41,5,5,Francais,m,3,0.25666667,-37.68560636,0.42827786
659d84fd8455da95c9f44c77,155,3,2024-02-27T10:19:45.597Z,french_821.wav,0,pull,1635,41,5,5,Francais,m,0,0.0,70.15336782,1.4099425
659d84fd8455da95c9f44c77,155,3,2024-02-27T10:19:45.597Z,french_821.wav,0,pull,1635,41,5,5,Francais,m,1,0.1,-1.11865535,1.36643738
659d84fd8455da95c9f44c77,155,3,2024-02-27T10:19:45.597Z,french_821.wav,0,pull,1635,41,5,5,Francais,m,2,0.2,-91.54006312,0.06599991
659d84fd8455da95c9f44c77,155,3,2024-02-27T10:19:45.597Z,french_821.wav,0,pull,1635,41,5,5,Francais,m,3,0.25666667,24.13643902,1.20854405
659d84fd8455da95c9f44c77,156,3,2024-02-27T10:19:45.597Z,french_674.wav,0,pull,694,41,5,5,Francais,m,0,0.0,36.8658398,0.63817569
659d84fd8455da95c9f44c77,156,3,2024-02-27T10:19:45.597Z,french_674.wav,0,pull,694,41,5,5,Francais,m,1,0.1,-70.55199619,1.9135219
659d84fd8455da95c9f44c77,156,3,2024-02-27T10:19:45.597Z,french_674.wav,0,pull,694,41,5,5,Francais,m,2,0.2,-3.70121723,1.96782527
659d84fd8455da95c9f44c77,156,3,2024-02-27T10:19:45.597Z,french_674.wav,0,pull,694,41,5,5,Francais,m,3,0.25666667,30.12615154,0.86862342
659d84fd8455da95c9f44c77,157,3,2024-02-27T10:19:45.597Z,french_179.wav,0,poule,471,41,5,5,Francais,m,0,0.0,-38.66887761,0.36967864
659d84fd8455da95c9f44c77,157,3,2024-02-27T10:19:45.597Z,french_179.wav,0,poule,471,41,5,5,Francais,m,1,0.1,-45.74367449,1.41588785
659d84fd8455da95c9f44c77,157,3,2024-02-27T10:19:45.597Z,french_179.wav,0,poule,471,41,5,5,Francais,m,2,0.2,41.91599006,1.38004937
659d84fd8455da95c9f44c77,157,3,2024-02-27T10:19:45.597Z,french_179.wav,0,poule,471,41,5,5,Francais,m,3,0.25666667,36.18860402,1.10239155
659d84fd8455da95c9f44c77,158,3,2024-02-27T10:19:45.597Z,french_345.wav,0,poule,798,41,5,5,Francais,m,0,0.0,-15.34440167,0.71900559
659d84fd8455da95c9f44c77,158,3,2024-02-27T10:19:45.597Z,french_345.wav,0,poule,798,41,5,5,Francais,m,1,0.1,10.78758757,1.22956467
659d84fd8455da95c9f44c77,158,3,2024-02-27T10:19:45.597Z,french_345.wav,0,poule,798,41,5,5,Francais,m,2,0.2,-99.05600522,1.71608101
659d84fd8455da95c9f44c77,158,3,2024-02-27T10:19:45.597Z,french_345.wav,0,poule,798,41,5,5,Francais,m,3,0.25666667,-6.99010662,1.92257683
659d84fd8455da95c9f44c77,159,3,2024-02-27T10:19:45.597Z,french_518.wav,0,pull,636,41,5,5,Francais,m,0,0.0,30.08897808,1.28002377
659d84fd8455da95c9f44c77,159,3,2024-02-27T10:19:45.597Z,french_518.wav,0,pull,636,41,5,5,Francais,m,1,0.1,-42.00678694,0.31881796
659d84fd8455da95c9f44c77,159,3,2024-02-27T10:19:45.597Z,french_518.wav,0,pull,636,41,5,5,Francais,m,2,0.2,47.99304417,0.271149
659d84fd8455da95c9f44c77,159,3,2024-02-27T10:19:45.597Z,french_518.wav,0,pull,636,41,5,5,Francais,m,3,0.25666667,-21.59585354,1.06182133
659d84fd8455da95c9f44c77,160,3,2024-02-27T10:19:45.597Z,french_237.wav,0,pull,825,41,5,5,Francais,m,0,0.0,-1.09426196,0.40664609
659d84fd8455da95c9f44c77,160,3,2024-02-27T10:19:45.597Z,french_237.wav,0,pull,825,41,5,5,Francais,m,1,0.1,-48.49856075,0.23529618
659d84fd8455da95c9f44c77,160,3,2024-02-27T10:19:45.597Z,french_237.wav,0,pull,825,41,5,5,Francais,m,2,0.2,36.42993093,0.05363011
659d84fd8455da95c9f44c77,160,3,2024-02-27T10:19:45.597Z,french_237.wav,0,pull,825,41,5,5,Francais,m,3,0.25666667,-47.65767162,1.34950367
659d84fd8455da95c9f44c77,161,3,2024-02-27T10:19:45.597Z,french_119.wav,0,pull,580,41,5,5,Francais,m,0,0.0,9.8100641,0.76259974
659d84fd8455da95c9f44c77,161,3,2024-02-27T10:19:45.597Z,french_119.wav,0,pull,580,41,5,5,Francais,m,1,0.1,19.57169954,1.49190063
659d84fd8455da95c9f44c77,161,3,2024-02-27T10:19:45.597Z,french_119.wav,0,pull,580,41,5,5,Francais,m,2,0.2,-1.41265712,0.43709034
659d84fd8455da95c9f44c77,161,3,2024-02-27T10:19:45.597Z,french_119.wav,0,pull,580,41,5,5,Francais,m,3,0.25666667,-78.33165967,1.93463996
659d84fd8455da95c9f44c77,162,3,2024-02-27T10:19:45.597Z,french_72.wav,0,pull,839,41,5,5,Francais,m,0,0.0,87.98067932,1.39679477
659d84fd8455da95c9f44c77,162,3,2024-02-27T10:19:45.597Z,french_72.wav,0,pull,839,41,5,5,Francais,m,1,0.1,-81.71579554,1.50716855
659d84fd8455da95c9f44c77,162,3,2024-02-27T10:19:45.597Z,french_72.wav,0,pull,839,41,5,5,Francais,m,2,0.2,90.50171836,0.40298903
659d84fd8455da95c9f44c77,162,3,2024-02-27T10:19:45.597Z,french_72.wav,0,pull,839,41,5,5,Francais,m,3,0.25666667,-62.13003885,0.67217346
659d84fd8455da95c9f44c77,163,3,2024-02-27T10:19:45.597Z,french_554.wav,0,poule,794,41,5,5,Francais,m,0,0.0,-31.9650703,1.45983082
659d84fd8455da95c9f44c77,163,3,2024-02-27T10:19:45.597Z,french_554.wav,0,poule,794,41,5,5,Francais,m,1,0.1,78.95364823,0.40013818
659d84fd8455da95c9f44c77,163,3,2024-02-27T10:19:45.597Z,french_554.wav,0,poule,794,41,5,5,Francais,m,2,0.2,-0.5294376,0.96374115
659d84fd8455da95c9f44c77,163,3,2024-02-27T10:19:45.597Z,french_554.wav,0,poule,794,41,5,5,Francais,m,3,0.25666667,-36.78296127,1.20732856
659d84fd8455da95c9f44c77,164,3,2024-02-27T10:19:45.597Z,french_85.wav,0,poule,646,41,5,5,Francais,m,0,0.0,8.05629124,0.15740805
659d84fd8455da95c9f44c77,164,3,2024-02-27T10:19:45.597Z,french_85.wav,0,poule,646,41,5,5,Francais,m,1,0.1,-30.28403137,1.38994818
659d84fd8455da95c9f44c77,164,3,2024-02-27T10:19:45.597Z,french_85.wav,0,poule,646,41,5,5,Francais,m,2,0.2,-73.3047666,0.58823714
659d84fd8455da95c9f44c77,164,3,2024-02-27T10:19:45.597Z,french_85.wav,0,poule,646,41,5,5,Francais,m,3,0.25666667,49.81841991,0.54603307
659d84fd8455da95c9f44c77,165,3,2024-02-27T10:19:45.597Z,french_809.wav,0,pull,3384,41,5,5,Francais,m,0,0.0,-35.34138518,0.91250327
659d84fd8455da95c9f44c77,165,3,2024-02-27T10:19:45.597Z,french_809.wav,0,pull,3384,41,5,5,Francais,m,1,0.1,-27.53268432,1.55486221
659d84fd8455da95c9f44c77,165,3,2024-02-27T10:19:45.597Z,french_809.wav,0,pull,3384,41,5,5,Francais,m,2,0.2,-4.59062168,0.05513513
659d84fd8455da95c9f44c77,165,3,2024-02-27T10:19:45.597Z,french_809.wav,0,pull,3384,41,5,5,Francais,m,3,0.25666667,54.17413939,0.74937359
659d84fd8455da95c9f44c77,166,3,2024-02-27T10:19:45.597Z,french_977.wav,0,poule,691,41,5,5,Francais,m,0,0.0,-23.34946859,1.58788712
659d84fd8455da95c9f44c77,166,3,2024-02-27T10:19:45.597Z,french_977.wav,0,poule,691,41,5,5,Francais,m,1,0.1,-74.17160997,0.25032328
659d84fd8455da95c9f44c77,166,3,2024-02-27T10:19:45.597Z,french_977.wav,0,poule,691,41,5,5,Francais,m,2,0.2,31.43852713,0.90752219
659d84fd8455da95c9f44c77,166,3,2024-02-27T10:19:45.597Z,french_977.wav,0,poule,691,41,5,5,Francais,m,3,0.25666667,-10.29160018,1.52460946
659d84fd8455da95c9f44c77,167,3,2024-02-27T10:19:45.597Z,french_579.wav,0,pull,1163,41,5,5,Francais,m,0,0.0,43.6749768,0.88309836
659d84fd8455da95c9f44c77,167,3,2024-02-27T10:19:45.597Z,french_579.wav,0,pull,1163,41,5,5,Francais,m,1,0.1,44.80331973,0.15383342
659d84fd8455da95c9f44c77,167,3,2024-02-27T10:19:45.597Z,french_579.wav,0,pull,1163,41,5,5,Francais,m,2,0.2,80.34685553,0.11279804
659d84fd8455da95c9f44c77,167,3,2024-02-27T10:19:45.597Z,french_579.wav,0,pull,1163,41,5,5,Francais,m,3,0.25666667,-77.70594339,1.88524282
659d84fd8455da95c9f44c77,168,3,2024-02-27T10:19:45.597Z,french_449.wav,0,pull,5038,41,5,5,Francais,m,0,0.0,49.95404734,0.88379096
659d84fd8455da95c9f44c77,168,3,2024-02-27T10:19:45.597Z,french_449.wav,0,pull,5038,41,5,5,Francais,m,1,0.1,-42.73933853,1.13878319
659d84fd8455da95c9f44c77,168,3,2024-02-27T10:19:45.597Z,french_449.wav,0,pull,5038,41,5,5,Francais,m,2,0.2,16.44287486,0.43325684
659d84fd8455da95c9f44c77,168,3,2024-02-27T10:19:45.597Z,french_449.wav,0,pull,5038,41,5,5,Francais,m,3,0.25666667,-12.34539139,0.01727343
659d84fd8455da95c9f44c77,169,3,2024-02-27T10:19:45.597Z,french_824.wav,0,poule,4697,41,5,5,Francais,m,0,0.0,95.58094713,1.84230129
659d84fd8455da95c9f44c77,169,3,2024-02-27T10:19:45.597Z,french_824.wav,0,poule,4697,41,5,5,Francais,m,1,0.1,-47.05258515,1.74244762
659d84fd8455da95c9f44c77,169,3,2024-02-27T10:19:45.597Z,french_824.wav,0,poule,4697,41,5,5,Francais,m,2,0.2,43.18521816,1.04703492
659d84fd8455da95c9f44c77,169,3,2024-02-27T10:19:45.597Z,french_824.wav,0,poule,4697,41,5,5,Francais,m,3,0.25666667,-5.69582576,0.75358401
659d84fd8455da95c9f44c77,170,3,2024-02-27T10:19:45.597Z,french_414.wav,0,poule,722,41,5,5,Francais,m,0,0.0,-53.65137821,1.15122316
659d84fd8455da95c9f44c77,170,3,2024-02-27T10:19:45.597Z,french_414.wav,0,poule,722,41,5,5,Francais,m,1,0.1,61.14227183,1.54420741
659d84fd8455da95c9f44c77,170,3,2024-02-27T10:19:45.597Z,french_414.wav,0,poule,722,41,5,5,Francais,m,2,0.2,-13.28017505,1.48861563
659d84fd8455da95c9f44c77,170,3,2024-02-27T10:19:45.597Z,french_414.wav,0,poule,722,41,5,5,Francais,m,3,0.25666667,99.20914295,0.34805763
659d84fd8455da95c9f44c77,171,3,2024-02-27T10:19:45.597Z,french_476.wav,0,poule,1442,41,5,5,Francais,m,0,0.0,-83.79523633,0.72975737
659d84fd8455da95c9f44c77,171,3,2024-02-27T10:19:45.597Z,french_476.wav,0,poule,1442,41,5,5,Francais,m,1,0.1,62.15522278,1.65535888
659d84fd8455da95c9f44c77,171,3,2024-02-27T10:19:45.597Z,french_476.wav,0,poule,1442,41,5,5,Francais,m,2,0.2,-62.9629606,1.94146275
659d84fd8455da95c9f44c77,171,3,2024-02-27T10:19:45.597Z,french_476.wav,0,poule,1442,41,5,5,Francais,m,3,0.25666667,29.80880048,1.32492406
659d84fd8455da95c9f44c77,172,3,2024-02-27T10:19:45.597Z,french_498.wav,0,pull,3729,41,5,5,Francais,m,0,0.0,4.68377609,1.22559932
659d84fd8455da95c9f44c77,172,3,2024-02-27T10:19:45.597Z,french_498.wav,0,pull,3729,41,5,5,Francais,m,1,0.1,-15.28708952,1.70630703
659d84fd8455da95c9f44c77,172,3,2024-02-27T10:19:45.597Z,french_498.wav,0,pull,3729,41,5,5,Francais,m,2,0.2,12.01036293,0.54123502
659d84fd8455da95c9f44c77,172,3,2024-02-27T10:19:45.597Z,french_498.wav,0,pull,3729,41,5,5,Francais,m,3,0.25666667,2.49690218,0.39602685
659d84fd8455da95c9f44c77,173,3,2024-02-27T10:19:45.597Z,french_746.wav,0,poule,3789,41,5,5,Francais,m,0,0.0,-21.92593336,0.5521476
659d84fd8455da95c9f44c77,173,3,2024-02-27T10:19:45.597Z,french_746.wav,0,poule,3789,41,5,5,Francais,m,1,0.1,-33.34916741,1.58954792
659d84fd8455da95c9f44c77,173,3,2024-02-27T10:19:45.597Z,french_746.wav,0,poule,3789,41,5,5,Francais,m,2,0.2,-5.0291103,0.89586439
659d84fd8455da95c9f44c77,173,3,2024-02-27T10:19:45.597Z,french_746.wav,0,poule,3789,41,5,5,Francais,m,3,0.25666667,-67.6368859,0.35939035
659d84fd8455da95c9f44c77,174,3,2024-02-27T10:19:45.597Z,french_582.wav,0,pull,1283,41,5,5,Francais,m,0,0.0,1.47980053,0.83350323
659d84fd8455da95c9f44c77,174,3,2024-02-27T10:19:45.597Z,french_582.wav,0,pull,1283,41,5,5,Francais,m,1,0.1,-89.13888063,1.99658076
659d84fd8455da95c9f44c77,174,3,2024-02-27T10:19:45.597Z,french_582.wav,0,pull,1283,41,5,5,Francais,m,2,0.2,1.45566029,0.72464724
659d84fd8455da95c9f44c77,174,3,2024-02-27T10:19:45.597Z,french_582.wav,0,pull,1283,41,5,5,Francais,m,3,0.25666667,-76.25724372,1.09622387
659d84fd8455da95c9f44c77,175,3,2024-02-27T10:19:45.597Z,french_865.wav,0,poule,1298,41,5,5,Francais,m,0,0.0,50.32963137,0.72864737
659d84fd8455da95c9f44c77,175,3,2024-02-27T10:19:45.597Z,french_865.wav,0,poule,1298,41,5,5,Francais,m,1,0.1,-34.20059836,0.63562985
659d84fd8455da95c9f44c77,175,3,2024-02-27T10:19:45.597Z,french_865.wav,0,poule,1298,41,5,5,Francais,m,2,0.2,-1.26220982,0.61823994
659d84fd8455da95c9f44c77,175,3,2024-02-27T10:19:45.597Z,french_865.wav,0,poule,1298,41,5,5,Francais,m,3,0.25666667,-35.44054545,1.79442015
659d84fd8455da95c9f44c77,176,3,2024-02-27T10:19:45.597Z,french_108.wav,0,poule,965,41,5,5,Francais,m,0,0.0,-38.50953818,1.14488094
659d84fd8455da95c9f44c77,176,3,2024-02-27T10:19:45.597Z,french_108.wav,0,poule,965,41,5,5,Francais,m,1,0.1,44.47590219,1.3820118
659d84fd8455da95c9f44c77,176,3,2024-02-27T10:19:45.597Z,french_108.wav,0,poule,965,41,5,5,Francais,m,2,0.2,35.73303492,1.04224754
659d84fd8455da95c9f44c77,176,3,2024-02-27T10:19:45.597Z,french_108.wav,0,poule,965,41,5,5,Francais,m,3,0.25666667,-90.35369633,1.51933791
659d84fd8455da95c9f44c77,177,3,2024-02-27T10:19:45.597Z,french_751.wav,0,pull,3487,41,5,5,Francais,m,0,0.0,43.14158788,0.5897858
659d84fd8455da95c9f44c77,177,3,2024-02-27T10:19:45.597Z,french_751.wav,0,pull,3487,41,5,5,Francais,m,1,0.1,18.43858874,0.77618244
659d84fd8455da95c9f44c77,177,3,2024-02-27T10:19:45.597Z,french_751.wav,0,pull,3487,41,5,5,Francais,m,2,0.2,79.49995567,1.33641446
659d84fd8455da95c9f44c77,177,3,2024-02-27T10:19:45.597Z,french_751.wav,0,pull,3487,41,5,5,Francais,m,3,0.25666667,54.04463095,0.80537668
659d84fd8455da95c9f44c77,178,3,2024-02-27T10:19:45.597Z,french_931.wav,0,pull,676,41,5,5,Francais,m,0,0.0,64.75046939,1.51932084
659d84fd8455da95c9f44c77,178,3,2024-02-27T10:19:45.597Z,french_931.wav,0,pull,676,41,5,5,Francais,m,1,0.1,-55.9473081,1.08335674
659d84fd8455da95c9f44c77,178,3,2024-02-27T10:19:45.597Z,french_931.wav,0,pull,676,41,5,5,Francais,m,2,0.2,32.85596214,0.78781639
659d84fd8455da95c9f44c77,178,3,2024-02-27T10:19:45.597Z,french_931.wav,0,pull,676,41,5,5,Francais,m,3,0.25666667,-89.33798771,0.66435238
659d84fd8455da95c9f44c77,179,3,2024-02-27T10:19:45.597Z,french_360.wav,0,pull,1012,41,5,5,Francais,m,0,0.0,-0.00235073025,1.59141319
659d84fd8455da95c9f44c77,179,3,2024-02-27T10:19:45.597Z,french_360.wav,0,pull,1012,41,5,5,Francais,m,1,0.1,75.1310722,0.32502124
659d84fd8455da95c9f44c77,179,3,2024-02-27T10:19:45.597Z,french_360.wav,0,pull,1012,41,5,5,Francais,m,2,0.2,-55.9073348,0.48861064
659d84fd8455da95c9f44c77,179,3,2024-02-27T10:19:45.597Z,french_360.wav,0,pull,1012,41,5,5,Francais,m,3,0.256666667,-59.6885988,0.13551716
659d84fd8455da95c9f44c77,180,3,2024-02-27T10:19:45.597Z,french_708.wav,0,poule,1143,41,5,5,Francais,m,0,0.0,77.88438146,0.30850898
659d84fd8455da95c9f44c77,180,3,2024-02-27T10:19:45.597Z,french_708.wav,0,poule,1143,41,5,5,Francais,m,1,0.1,-89.66132416,1.49064351
659d84fd8455da95c9f44c77,180,3,2024-02-27T10:19:45.597Z,french_708.wav,0,poule,1143,41,5,5,Francais,m,2,0.2,66.08375885,1.28629193
659d84fd8455da95c9f44c77,180,3,2024-02-27T10:19:45.597Z,french_708.wav,0,poule,1143,41,5,5,Francais,m,3,0.25666667,-39.93161414,1.01533724
659d84fd8455da95c9f44c77,181,3,2024-02-27T10:19:45.597Z,french_655.wav,0,poule,756,41,5,5,Francais,m,0,0.0,4.60078694,1.00375004
659d84fd8455da95c9f44c77,181,3,2024-02-27T10:19:45.597Z,french_655.wav,0,poule,756,41,5,5,Francais,m,1,0.1,90.51966262,1.23726083
659d84fd8455da95c9f44c77,181,3,2024-02-27T10:19:45.597Z,french_655.wav,0,poule,756,41,5,5,Francais,m,2,0.2,-72.80105835,1.08672065
659d84fd8455da95c9f44c77,181,3,2024-02-27T10:19:45.597Z,french_655.wav,0,poule,756,41,5,5,Francais,m,3,0.25666667,32.46228297,0.32613357
659d84fd8455da95c9f44c77,182,3,2024-02-27T10:19:45.597Z,french_217.wav,0,poule,1795,41,5,5,Francais,m,0,0.0,-8.63904718,0.91131932
659d84fd8455da95c9f44c77,182,3,2024-02-27T10:19:45.597Z,french_217.wav,0,poule,1795,41,5,5,Francais,m,1,0.1,71.12460489,1.66035555
659d84fd8455da95c9f44c77,182,3,2024-02-27T10:19:45.597Z,french_217.wav,0,poule,1795,41,5,5,Francais,m,2,0.2,81.48384407,0.95248702
659d84fd8455da95c9f44c77,182,3,2024-02-27T10:19:45.597Z,french_217.wav,0,poule,1795,41,5,5,Francais,m,3,0.25666667,64.01477431,0.54451157
659d84fd8455da95c9f44c77,183,3,2024-02-27T10:19:45.597Z,french_738.wav,0,poule,1119,41,5,5,Francais,m,0,0.0,9.63502306,1.8953007
659d84fd8455da95c9f44c77,183,3,2024-02-27T10:19:45.597Z,french_738.wav,0,poule,1119,41,5,5,Francais,m,1,0.1,23.45464863,0.66483685
659d84fd8455da95c9f44c77,183,3,2024-02-27T10:19:45.597Z,french_738.wav,0,poule,1119,41,5,5,Francais,m,2,0.2,-41.48525502,0.56687756
659d84fd8455da95c9f44c77,183,3,2024-02-27T10:19:45.597Z,french_738.wav,0,poule,1119,41,5,5,Francais,m,3,0.25666667,10.13311751,1.74946228
659d84fd8455da95c9f44c77,184,3,2024-02-27T10:19:45.597Z,french_717.wav,0,pull,813,41,5,5,Francais,m,0,0.0,-84.32189387,1.00877352
659d84fd8455da95c9f44c77,184,3,2024-02-27T10:19:45.597Z,french_717.wav,0,pull,813,41,5,5,Francais,m,1,0.1,40.2374262,0.42603024
659d84fd8455da95c9f44c77,184,3,2024-02-27T10:19:45.597Z,french_717.wav,0,pull,813,41,5,5,Francais,m,2,0.2,80.19404777,0.00517131
659d84fd8455da95c9f44c77,184,3,2024-02-27T10:19:45.597Z,french_717.wav,0,pull,813,41,5,5,Francais,m,3,0.25666667,-31.07147466,1.19241547
659d84fd8455da95c9f44c77,185,3,2024-02-27T10:19:45.597Z,french_340.wav,0,pull,1433,41,5,5,Francais,m,0,0.0,-77.74428769,1.5012345
659d84fd8455da95c9f44c77,185,3,2024-02-27T10:19:45.597Z,french_340.wav,0,pull,1433,41,5,5,Francais,m,1,0.1,-23.36816436,1.72338521
659d84fd8455da95c9f44c77,185,3,2024-02-27T10:19:45.597Z,french_340.wav,0,pull,1433,41,5,5,Francais,m,2,0.2,-44.47255335,0.55046319
659d84fd8455da95c9f44c77,185,3,2024-02-27T10:19:45.597Z,french_340.wav,0,pull,1433,41,5,5,Francais,m,3,0.25666667,-51.35474548,0.98182936
659d84fd8455da95c9f44c77,186,3,2024-02-27T10:19:45.597Z,french_271.wav,0,pull,1573,41,5,5,Francais,m,0,0.0,-86.49285917,1.06522616
659d84fd8455da95c9f44c77,186,3,2024-02-27T10:19:45.597Z,french_271.wav,0,pull,1573,41,5,5,Francais,m,1,0.1,54.15727338,1.2372135
659d84fd8455da95c9f44c77,186,3,2024-02-27T10:19:45.597Z,french_271.wav,0,pull,1573,41,5,5,Francais,m,2,0.2,-55.0986676,1.00925168
659d84fd8455da95c9f44c77,186,3,2024-02-27T10:19:45.597Z,french_271.wav,0,pull,1573,41,5,5,Francais,m,3,0.25666667,7.9559813,0.76785851
659d84fd8455da95c9f44c77,187,3,2024-02-27T10:19:45.597Z,french_43.wav,0,pull,1080,41,5,5,Francais,m,0,0.0,-6.86336629,1.4879687
659d84fd8455da95c9f44c77,187,3,2024-02-27T10:19:45.597Z,french_43.wav,0,pull,1080,41,5,5,Francais,m,1,0.1,1.3862511,1.50259819
659d84fd8455da95c9f44c77,187,3,2024-02-27T10:19:45.597Z,french_43.wav,0,pull,1080,41,5,5,Francais,m,2,0.2,-46.66652787,1.37505073
659d84fd8455da95c9f44c77,187,3,2024-02-27T10:19:45.597Z,french_43.wav,0,pull,1080,41,5,5,Francais,m,3,0.25666667,99.62545591,0.7561706
659d84fd8455da95c9f44c77,188,3,2024-02-27T10:19:45.597Z,french_438.wav,0,pull,1371,41,5,5,Francais,m,0,0.0,38.28600595,0.24947118
659d84fd8455da95c9f44c77,188,3,2024-02-27T10:19:45.597Z,french_438.wav,0,pull,1371,41,5,5,Francais,m,1,0.1,-2.73615403,0.88566368
659d84fd8455da95c9f44c77,188,3,2024-02-27T10:19:45.597Z,french_438.wav,0,pull,1371,41,5,5,Francais,m,2,0.2,-43.32822043,0.23078024
659d84fd8455da95c9f44c77,188,3,2024-02-27T10:19:45.597Z,french_438.wav,0,pull,1371,41,5,5,Francais,m,3,0.25666667,-21.43836029,1.64360752
659d84fd8455da95c9f44c77,189,3,2024-02-27T10:19:45.597Z,french_762.wav,0,poule,987,41,5,5,Francais,m,0,0.0,-45.61990315,0.95776955
659d84fd8455da95c9f44c77,189,3,2024-02-27T10:19:45.597Z,french_762.wav,0,poule,987,41,5,5,Francais,m,1,0.1,-38.16727298,0.16992331
659d84fd8455da95c9f44c77,189,3,2024-02-27T10:19:45.597Z,french_762.wav,0,poule,987,41,5,5,Francais,m,2,0.2,-15.44626984,1.21301125
659d84fd8455da95c9f44c77,189,3,2024-02-27T10:19:45.597Z,french_762.wav,0,poule,987,41,5,5,Francais,m,3,0.25666667,-31.31206952,0.49399223
659d84fd8455da95c9f44c77,190,3,2024-02-27T10:19:45.597Z,french_827.wav,0,poule,1388,41,5,5,Francais,m,0,0.0,52.76736232,0.65431252
