subj,trial,block,date,stim,stim_order,response,rt,age,english,french,language,sex,param_index,segment,pitch,stretch
5e627e9d93cdd8000a498bbf,0,0,2024-02-27T09:51:04.205Z,french_776.wav,0,poule,9669,32,4,5,Francais,f,0,0.0,-9.17095967,0.42962635
5e627e9d93cdd8000a498bbf,0,0,2024-02-27T09:51:04.205Z,french_776.wav,0,poule,9669,32,4,5,Francais,f,1,0.1,-70.57850226,1.70698124
5e627e9d93cdd8000a498bbf,0,0,2024-02-27T09:51:04.205Z,french_776.wav,0,poule,9669,32,4,5,Francais,f,2,0.2,63.21349252,1.25010697
5e627e9d93cdd8000a498bbf,0,0,2024-02-27T09:51:04.205Z,french_776.wav,0,poule,9669,32,4,5,Francais,f,3,0.25666667,59.47578694,1.52671833
5e627e9d93cdd8000a498bbf,1,0,2024-02-27T09:51:04.205Z,french_215.wav,0,pull,4366,32,4,5,Francais,f,0,0.0,-76.5324967,0.00928887
5e627e9d93cdd8000a498bbf,1,0,2024-02-27T09:51:04.205Z,french_215.wav,0,pull,4366,32,4,5,Francais,f,1,0.1,-12.7876278,1.85204819
5e627e9d93cdd8000a498bbf,1,0,2024-02-27T09:51:04.205Z,french_215.wav,0,pull,4366,32,4,5,Francais,f,2,0.2,-43.60684601,1.20297214
5e627e9d93cdd8000a498bbf,1,0,2024-02-27T09:51:04.205Z,french_215.wav,0,pull,4366,32,4,5,Francais,f,3,0.25666667,3.65547736,1.48182424
5e627e9d93cdd8000a498bbf,2,0,2024-02-27T09:51:04.205Z,french_635.wav,0,poule,2419,32,4,5,Francais,f,0,0.0,33.90344979,1.89496442
5e627e9d93cdd8000a498bbf,2,0,2024-02-27T09:51:04.205Z,french_635.wav,0,poule,2419,32,4,5,Francais,f,1,0.1,-75.47627702,0.79794333
5e627e9d93cdd8000a498bbf,2,0,2024-02-27T09:51:04.205Z,french_635.wav,0,poule,2419,32,4,5,Francais,f,2,0.2,49.7914685,1.70645199
5e627e9d93cdd8000a498bbf,2,0,2024-02-27T09:51:04.205Z,french_635.wav,0,poule,2419,32,4,5,Francais,f,3,0.25666667,43.41419086,1.41022612
5e627e9d93cdd8000a498bbf,3,0,2024-02-27T09:51:04.205Z,french_999.wav,0,poule,728,32,4,5,Francais,f,0,0.0,47.65145935,0.42993564
5e627e9d93cdd8000a498bbf,3,0,2024-02-27T09:51:04.205Z,french_999.wav,0,poule,728,32,4,5,Francais,f,1,0.1,64.90222313,1.41824969
5e627e9d93cdd8000a498bbf,3,0,2024-02-27T09:51:04.205Z,french_999.wav,0,poule,728,32,4,5,Francais,f,2,0.2,79.66636989,1.25132817
5e627e9d93cdd8000a498bbf,3,0,2024-02-27T09:51:04.205Z,french_999.wav,0,poule,728,32,4,5,Francais,f,3,0.25666667,-10.95327426,1.10016678
5e627e9d93cdd8000a498bbf,4,0,2024-02-27T09:51:04.205Z,french_358.wav,0,poule,538,32,4,5,Francais,f,0,0.0,-21.88755711,1.21014447
5e627e9d93cdd8000a498bbf,4,0,2024-02-27T09:51:04.205Z,french_358.wav,0,poule,538,32,4,5,Francais,f,1,0.1,-5.628981,1.2650669
5e627e9d93cdd8000a498bbf,4,0,2024-02-27T09:51:04.205Z,french_358.wav,0,poule,538,32,4,5,Francais,f,2,0.2,-60.01307733,0.97277603
5e627e9d93cdd8000a498bbf,4,0,2024-02-27T09:51:04.205Z,french_358.wav,0,poule,538,32,4,5,Francais,f,3,0.25666667,65.58947466,0.28969343
5e627e9d93cdd8000a498bbf,5,0,2024-02-27T09:51:04.205Z,french_165.wav,0,pull,1852,32,4,5,Francais,f,0,0.0,34.81781775,0.27086967
5e627e9d93cdd8000a498bbf,5,0,2024-02-27T09:51:04.205Z,french_165.wav,0,pull,1852,32,4,5,Francais,f,1,0.1,-0.63630456,1.42196963
5e627e9d93cdd8000a498bbf,5,0,2024-02-27T09:51:04.205Z,french_165.wav,0,pull,1852,32,4,5,Francais,f,2,0.2,85.92593744,1.99513726
5e627e9d93cdd8000a498bbf,5,0,2024-02-27T09:51:04.205Z,french_165.wav,0,pull,1852,32,4,5,Francais,f,3,0.25666667,7.56589877,0.37439059
5e627e9d93cdd8000a498bbf,6,0,2024-02-27T09:51:04.205Z,french_908.wav,0,pull,1573,32,4,5,Francais,f,0,0.0,-17.448813,1.41004623
5e627e9d93cdd8000a498bbf,6,0,2024-02-27T09:51:04.205Z,french_908.wav,0,pull,1573,32,4,5,Francais,f,1,0.1,35.46481843,0.76159164
5e627e9d93cdd8000a498bbf,6,0,2024-02-27T09:51:04.205Z,french_908.wav,0,pull,1573,32,4,5,Francais,f,2,0.2,-20.0899606,1.03892063
5e627e9d93cdd8000a498bbf,6,0,2024-02-27T09:51:04.205Z,french_908.wav,0,pull,1573,32,4,5,Francais,f,3,0.25666667,-29.56589343,1.03966959
5e627e9d93cdd8000a498bbf,7,0,2024-02-27T09:51:04.205Z,french_890.wav,0,poule,1079,32,4,5,Francais,f,0,0.0,17.48321345,1.85587598
5e627e9d93cdd8000a498bbf,7,0,2024-02-27T09:51:04.205Z,french_890.wav,0,poule,1079,32,4,5,Francais,f,1,0.1,-18.95749083,0.79262665
5e627e9d93cdd8000a498bbf,7,0,2024-02-27T09:51:04.205Z,french_890.wav,0,poule,1079,32,4,5,Francais,f,2,0.2,0.74707456,0.19694232
5e627e9d93cdd8000a498bbf,7,0,2024-02-27T09:51:04.205Z,french_890.wav,0,poule,1079,32,4,5,Francais,f,3,0.25666667,92.62024404,1.22282027
5e627e9d93cdd8000a498bbf,8,0,2024-02-27T09:51:04.205Z,french_424.wav,0,poule,1224,32,4,5,Francais,f,0,0.0,61.39777876,0.24361375
5e627e9d93cdd8000a498bbf,8,0,2024-02-27T09:51:04.205Z,french_424.wav,0,poule,1224,32,4,5,Francais,f,1,0.1,-8.76552132,1.04711526
5e627e9d93cdd8000a498bbf,8,0,2024-02-27T09:51:04.205Z,french_424.wav,0,poule,1224,32,4,5,Francais,f,2,0.2,33.4280736,1.33335174
5e627e9d93cdd8000a498bbf,8,0,2024-02-27T09:51:04.205Z,french_424.wav,0,poule,1224,32,4,5,Francais,f,3,0.25666667,8.6823295,0.59077303
5e627e9d93cdd8000a498bbf,9,0,2024-02-27T09:51:04.205Z,french_573.wav,0,poule,948,32,4,5,Francais,f,0,0.0,-82.60587544,1.7811252
5e627e9d93cdd8000a498bbf,9,0,2024-02-27T09:51:04.205Z,french_573.wav,0,poule,948,32,4,5,Francais,f,1,0.1,24.10475325,1.67511136
5e627e9d93cdd8000a498bbf,9,0,2024-02-27T09:51:04.205Z,french_573.wav,0,poule,948,32,4,5,Francais,f,2,0.2,12.83458345,1.07369657
5e627e9d93cdd8000a498bbf,9,0,2024-02-27T09:51:04.205Z,french_573.wav,0,poule,948,32,4,5,Francais,f,3,0.25666667,-92.36985106,0.78659629
5e627e9d93cdd8000a498bbf,10,0,2024-02-27T09:51:04.205Z,french_949.wav,0,pull,824,32,4,5,Francais,f,0,0.0,29.18752906,0.08608659
5e627e9d93cdd8000a498bbf,10,0,2024-02-27T09:51:04.205Z,french_949.wav,0,pull,824,32,4,5,Francais,f,1,0.1,-67.27756955,1.93613179
5e627e9d93cdd8000a498bbf,10,0,2024-02-27T09:51:04.205Z,french_949.wav,0,pull,824,32,4,5,Francais,f,2,0.2,55.26419326,0.81834021
5e627e9d93cdd8000a498bbf,10,0,2024-02-27T09:51:04.205Z,french_949.wav,0,pull,824,32,4,5,Francais,f,3,0.25666667,11.27327126,0.09029871
5e627e9d93cdd8000a498bbf,11,0,2024-02-27T09:51:04.205Z,french_729.wav,0,poule,1515,32,4,5,Francais,f,0,0.0,53.20588085,1.49423138
5e627e9d93cdd8000a498bbf,11,0,2024-02-27T09:51:04.205Z,french_729.wav,0,poule,1515,32,4,5,Francais,f,1,0.1,89.42375323,0.2074599
5e627e9d93cdd8000a498bbf,11,0,2024-02-27T09:51:04.205Z,french_729.wav,0,poule,1515,32,4,5,Francais,f,2,0.2,-13.37040397,1.07839331
5e627e9d93cdd8000a498bbf,11,0,2024-02-27T09:51:04.205Z,french_729.wav,0,poule,1515,32,4,5,Francais,f,3,0.25666667,-26.89484255,0.61183567
5e627e9d93cdd8000a498bbf,12,0,2024-02-27T09:51:04.205Z,french_851.wav,0,poule,1548,32,4,5,Francais,f,0,0.0,-16.14738252,1.77999263
5e627e9d93cdd8000a498bbf,12,0,2024-02-27T09:51:04.205Z,french_851.wav,0,poule,1548,32,4,5,Francais,f,1,0.1,19.84507786,0.90385235
5e627e9d93cdd8000a498bbf,12,0,2024-02-27T09:51:04.205Z,french_851.wav,0,poule,1548,32,4,5,Francais,f,2,0.2,-46.64792285,0.51993189
5e627e9d93cdd8000a498bbf,12,0,2024-02-27T09:51:04.205Z,french_851.wav,0,poule,1548,32,4,5,Francais,f,3,0.25666667,-81.41203514,1.06673989
5e627e9d93cdd8000a498bbf,13,0,2024-02-27T09:51:04.205Z,french_641.wav,0,poule,660,32,4,5,Francais,f,0,0.0,-92.89939655,0.72916007
5e627e9d93cdd8000a498bbf,13,0,2024-02-27T09:51:04.205Z,french_641.wav,0,poule,660,32,4,5,Francais,f,1,0.1,80.14352585,1.01323436
5e627e9d93cdd8000a498bbf,13,0,2024-02-27T09:51:04.205Z,french_641.wav,0,poule,660,32,4,5,Francais,f,2,0.2,74.03041043,0.998205
5e627e9d93cdd8000a498bbf,13,0,2024-02-27T09:51:04.205Z,french_641.wav,0,poule,660,32,4,5,Francais,f,3,0.25666667,18.97683281,0.30086371
5e627e9d93cdd8000a498bbf,14,0,2024-02-27T09:51:04.205Z,french_61.wav,0,poule,2265,32,4,5,Francais,f,0,0.0,65.32887924,1.15653785
5e627e9d93cdd8000a498bbf,14,0,2024-02-27T09:51:04.205Z,french_61.wav,0,poule,2265,32,4,5,Francais,f,1,0.1,45.09641809,1.72373813
5e627e9d93cdd8000a498bbf,14,0,2024-02-27T09:51:04.205Z,french_61.wav,0,poule,2265,32,4,5,Francais,f,2,0.2,-37.75339878,1.38726196
5e627e9d93cdd8000a498bbf,14,0,2024-02-27T09:51:04.205Z,french_61.wav,0,poule,2265,32,4,5,Francais,f,3,0.25666667,87.5089899,0.41594812
5e627e9d93cdd8000a498bbf,15,0,2024-02-27T09:51:04.205Z,french_745.wav,0,poule,498,32,4,5,Francais,f,0,0.0,-23.86566831,1.27696082
5e627e9d93cdd8000a498bbf,15,0,2024-02-27T09:51:04.205Z,french_745.wav,0,poule,498,32,4,5,Francais,f,1,0.1,-33.24912316,1.44075169
5e627e9d93cdd8000a498bbf,15,0,2024-02-27T09:51:04.205Z,french_745.wav,0,poule,498,32,4,5,Francais,f,2,0.2,45.69666298,0.50413087
5e627e9d93cdd8000a498bbf,15,0,2024-02-27T09:51:04.205Z,french_745.wav,0,poule,498,32,4,5,Francais,f,3,0.25666667,-83.60192647,0.37289443
5e627e9d93cdd8000a498bbf,16,0,2024-02-27T09:51:04.205Z,french_661.wav,0,poule,385,32,4,5,Francais,f,0,0.0,34.1047988,1.29957539
5e627e9d93cdd8000a498bbf,16,0,2024-02-27T09:51:04.205Z,french_661.wav,0,poule,385,32,4,5,Francais,f,1,0.1,-45.42737183,0.81809843
5e627e9d93cdd8000a498bbf,16,0,2024-02-27T09:51:04.205Z,french_661.wav,0,poule,385,32,4,5,Francais,f,2,0.2,-32.96226792,1.39938296
5e627e9d93cdd8000a498bbf,16,0,2024-02-27T09:51:04.205Z,french_661.wav,0,poule,385,32,4,5,Francais,f,3,0.25666667,51.87575508,1.33634107
5e627e9d93cdd8000a498bbf,17,0,2024-02-27T09:51:04.205Z,french_995.wav,0,pull,1312,32,4,5,Francais,f,0,0.0,-29.39777781,0.04069973
5e627e9d93cdd8000a498bbf,17,0,2024-02-27T09:51:04.205Z,french_995.wav,0,pull,1312,32,4,5,Francais,f,1,0.1,22.57403903,0.75529124
5e627e9d93cdd8000a498bbf,17,0,2024-02-27T09:51:04.205Z,french_995.wav,0,pull,1312,32,4,5,Francais,f,2,0.2,-65.41348422,0.72194837
5e627e9d93cdd8000a498bbf,17,0,2024-02-27T09:51:04.205Z,french_995.wav,0,pull,1312,32,4,5,Francais,f,3,0.25666667,24.23364448,0.85657711
5e627e9d93cdd8000a498bbf,18,0,2024-02-27T09:51:04.205Z,french_364.wav,0,poule,1583,32,4,5,Francais,f,0,0.0,-32.92421433,1.35253812
5e627e9d93cdd8000a498bbf,18,0,2024-02-27T09:51:04.205Z,french_364.wav,0,poule,1583,32,4,5,Francais,f,1,0.1,-56.96078069,1.83722727
5e627e9d93cdd8000a498bbf,18,0,2024-02-27T09:51:04.205Z,french_364.wav,0,poule,1583,32,4,5,Francais,f,2,0.2,44.72635853,1.43933089
5e627e9d93cdd8000a498bbf,18,0,2024-02-27T09:51:04.205Z,french_364.wav,0,poule,1583,32,4,5,Francais,f,3,0.25666667,23.55157996,1.1354083
5e627e9d93cdd8000a498bbf,19,0,2024-02-27T09:51:04.205Z,french_673.wav,0,poule,525,32,4,5,Francais,f,0,0.0,97.1433432,1.2603
5e627e9d93cdd8000a498bbf,19,0,2024-02-27T09:51:04.205Z,french_673.wav,0,poule,525,32,4,5,Francais,f,1,0.1,1.59516127,0.42137615
5e627e9d93cdd8000a498bbf,19,0,2024-02-27T09:51:04.205Z,french_673.wav,0,poule,525,32,4,5,Francais,f,2,0.2,27.02161491,0.87652171
5e627e9d93cdd8000a498bbf,19,0,2024-02-27T09:51:04.205Z,french_673.wav,0,poule,525,32,4,5,Francais,f,3,0.25666667,62.92522021,1.1230089
5e627e9d93cdd8000a498bbf,20,0,2024-02-27T09:51:04.205Z,french_346.wav,0,poule,877,32,4,5,Francais,f,0,0.0,-9.57888942,1.97053356
5e627e9d93cdd8000a498bbf,20,0,2024-02-27T09:51:04.205Z,french_346.wav,0,poule,877,32,4,5,Francais,f,1,0.1,44.75165277,0.16189102
5e627e9d93cdd8000a498bbf,20,0,2024-02-27T09:51:04.205Z,french_346.wav,0,poule,877,32,4,5,Francais,f,2,0.2,-77.92949754,0.34896721
5e627e9d93cdd8000a498bbf,20,0,2024-02-27T09:51:04.205Z,french_346.wav,0,poule,877,32,4,5,Francais,f,3,0.25666667,-10.35911767,1.54776001
5e627e9d93cdd8000a498bbf,21,0,2024-02-27T09:51:04.205Z,french_112.wav,0,poule,658,32,4,5,Francais,f,0,0.0,-70.30580716,0.18088618
5e627e9d93cdd8000a498bbf,21,0,2024-02-27T09:51:04.205Z,french_112.wav,0,poule,658,32,4,5,Francais,f,1,0.1,33.64373442,1.43869791
5e627e9d93cdd8000a498bbf,21,0,2024-02-27T09:51:04.205Z,french_112.wav,0,poule,658,32,4,5,Francais,f,2,0.2,26.55830463,0.89230346
5e627e9d93cdd8000a498bbf,21,0,2024-02-27T09:51:04.205Z,french_112.wav,0,poule,658,32,4,5,Francais,f,3,0.25666667,46.16769785,0.14009493
5e627e9d93cdd8000a498bbf,22,0,2024-02-27T09:51:04.205Z,french_848.wav,0,poule,606,32,4,5,Francais,f,0,0.0,-60.99605007,1.01059702
5e627e9d93cdd8000a498bbf,22,0,2024-02-27T09:51:04.205Z,french_848.wav,0,poule,606,32,4,5,Francais,f,1,0.1,-27.05939135,1.98581859
5e627e9d93cdd8000a498bbf,22,0,2024-02-27T09:51:04.205Z,french_848.wav,0,poule,606,32,4,5,Francais,f,2,0.2,-10.58439289,0.30142011
5e627e9d93cdd8000a498bbf,22,0,2024-02-27T09:51:04.205Z,french_848.wav,0,poule,606,32,4,5,Francais,f,3,0.25666667,-17.47548333,1.16939553
5e627e9d93cdd8000a498bbf,23,0,2024-02-27T09:51:04.205Z,french_670.wav,0,poule,803,32,4,5,Francais,f,0,0.0,-38.80852857,0.18324618
5e627e9d93cdd8000a498bbf,23,0,2024-02-27T09:51:04.205Z,french_670.wav,0,poule,803,32,4,5,Francais,f,1,0.1,-8.64332938,0.81857347
5e627e9d93cdd8000a498bbf,23,0,2024-02-27T09:51:04.205Z,french_670.wav,0,poule,803,32,4,5,Francais,f,2,0.2,-55.35683075,1.27404838
5e627e9d93cdd8000a498bbf,23,0,2024-02-27T09:51:04.205Z,french_670.wav,0,poule,803,32,4,5,Francais,f,3,0.25666667,17.57735741,1.12537981
5e627e9d93cdd8000a498bbf,24,0,2024-02-27T09:51:04.205Z,french_306.wav,0,poule,1371,32,4,5,Francais,f,0,0.0,22.4772117,0.91979461
5e627e9d93cdd8000a498bbf,24,0,2024-02-27T09:51:04.205Z,french_306.wav,0,poule,1371,32,4,5,Francais,f,1,0.1,-23.30683659,1.83006101
5e627e9d93cdd8000a498bbf,24,0,2024-02-27T09:51:04.205Z,french_306.wav,0,poule,1371,32,4,5,Francais,f,2,0.2,-85.44667034,1.25602607
5e627e9d93cdd8000a498bbf,24,0,2024-02-27T09:51:04.205Z,french_306.wav,0,poule,1371,32,4,5,Francais,f,3,0.25666667,-79.47374411,0.84497865
5e627e9d93cdd8000a498bbf,25,0,2024-02-27T09:51:04.205Z,french_122.wav,0,poule,932,32,4,5,Francais,f,0,0.0,-9.1094999,0.88070358
5e627e9d93cdd8000a498bbf,25,0,2024-02-27T09:51:04.205Z,french_122.wav,0,poule,932,32,4,5,Francais,f,1,0.1,-91.51691393,1.99267891
5e627e9d93cdd8000a498bbf,25,0,2024-02-27T09:51:04.205Z,french_122.wav,0,poule,932,32,4,5,Francais,f,2,0.2,-80.73944639,0.69956237
5e627e9d93cdd8000a498bbf,25,0,2024-02-27T09:51:04.205Z,french_122.wav,0,poule,932,32,4,5,Francais,f,3,0.25666667,-5.35945859,0.8489229
5e627e9d93cdd8000a498bbf,26,0,2024-02-27T09:51:04.205Z,french_724.wav,0,poule,1545,32,4,5,Francais,f,0,0.0,-58.96674975,0.30578628
5e627e9d93cdd8000a498bbf,26,0,2024-02-27T09:51:04.205Z,french_724.wav,0,poule,1545,32,4,5,Francais,f,1,0.1,-95.33611412,0.57010607
5e627e9d93cdd8000a498bbf,26,0,2024-02-27T09:51:04.205Z,french_724.wav,0,poule,1545,32,4,5,Francais,f,2,0.2,-56.69004984,1.33615123
5e627e9d93cdd8000a498bbf,26,0,2024-02-27T09:51:04.205Z,french_724.wav,0,poule,1545,32,4,5,Francais,f,3,0.25666667,-50.97008283,1.59962144
5e627e9d93cdd8000a498bbf,27,0,2024-02-27T09:51:04.205Z,french_963.wav,0,poule,950,32,4,5,Francais,f,0,0.0,47.65214736,0.44378955
5e627e9d93cdd8000a498bbf,27,0,2024-02-27T09:51:04.205Z,french_963.wav,0,poule,950,32,4,5,Francais,f,1,0.1,6.38608236,0.94107122
5e627e9d93cdd8000a498bbf,27,0,2024-02-27T09:51:04.205Z,french_963.wav,0,poule,950,32,4,5,Francais,f,2,0.2,90.58649254,1.48470349
5e627e9d93cdd8000a498bbf,27,0,2024-02-27T09:51:04.205Z,french_963.wav,0,poule,950,32,4,5,Francais,f,3,0.25666667,-7.76898595,1.98203536
5e627e9d93cdd8000a498bbf,28,0,2024-02-27T09:51:04.205Z,french_200.wav,0,poule,743,32,4,5,Francais,f,0,0.0,-10.65818699,0.95052916
5e627e9d93cdd8000a498bbf,28,0,2024-02-27T09:51:04.205Z,french_200.wav,0,poule,743,32,4,5,Francais,f,1,0.1,-8.96413357,0.11424824
5e627e9d93cdd8000a498bbf,28,0,2024-02-27T09:51:04.205Z,french_200.wav,0,poule,743,32,4,5,Francais,f,2,0.2,-78.89627616,1.718039
5e627e9d93cdd8000a498bbf,28,0,2024-02-27T09:51:04.205Z,french_200.wav,0,poule,743,32,4,5,Francais,f,3,0.25666667,8.01745362,1.42690066
5e627e9d93cdd8000a498bbf,29,0,2024-02-27T09:51:04.205Z,french_43.wav,0,poule,237,32,4,5,Francais,f,0,0.0,-6.86336629,1.4879687
5e627e9d93cdd8000a498bbf,29,0,2024-02-27T09:51:04.205Z,french_43.wav,0,poule,237,32,4,5,Francais,f,1,0.1,1.3862511,1.50259819
5e627e9d93cdd8000a498bbf,29,0,2024-02-27T09:51:04.205Z,french_43.wav,0,poule,237,32,4,5,Francais,f,2,0.2,-46.66652787,1.37505073
5e627e9d93cdd8000a498bbf,29,0,2024-02-27T09:51:04.205Z,french_43.wav,0,poule,237,32,4,5,Francais,f,3,0.25666667,99.62545591,0.7561706
5e627e9d93cdd8000a498bbf,30,0,2024-02-27T09:51:04.205Z,french_491.wav,0,poule,352,32,4,5,Francais,f,0,0.0,48.686868,0.42969684
5e627e9d93cdd8000a498bbf,30,0,2024-02-27T09:51:04.205Z,french_491.wav,0,poule,352,32,4,5,Francais,f,1,0.1,-48.1683993,1.38937301
5e627e9d93cdd8000a498bbf,30,0,2024-02-27T09:51:04.205Z,french_491.wav,0,poule,352,32,4,5,Francais,f,2,0.2,-42.3609681,1.25630672
5e627e9d93cdd8000a498bbf,30,0,2024-02-27T09:51:04.205Z,french_491.wav,0,poule,352,32,4,5,Francais,f,3,0.256666667,0.024958216,0.04562268
5e627e9d93cdd8000a498bbf,31,0,2024-02-27T09:51:04.205Z,french_167.wav,0,poule,218,32,4,5,Francais,f,0,0.0,35.64973643,1.28189169
5e627e9d93cdd8000a498bbf,31,0,2024-02-27T09:51:04.205Z,french_167.wav,0,poule,218,32,4,5,Francais,f,1,0.1,44.83065125,1.79221575
5e627e9d93cdd8000a498bbf,31,0,2024-02-27T09:51:04.205Z,french_167.wav,0,poule,218,32,4,5,Francais,f,2,0.2,-2.88275541,1.75452965
5e627e9d93cdd8000a498bbf,31,0,2024-02-27T09:51:04.205Z,french_167.wav,0,poule,218,32,4,5,Francais,f,3,0.25666667,-92.53521205,1.25057705
5e627e9d93cdd8000a498bbf,32,0,2024-02-27T09:51:04.205Z,french_914.wav,0,poule,174,32,4,5,Francais,f,0,0.0,-34.97252921,0.97835832
5e627e9d93cdd8000a498bbf,32,0,2024-02-27T09:51:04.205Z,french_914.wav,0,poule,174,32,4,5,Francais,f,1,0.1,-72.63984802,0.99245682
5e627e9d93cdd8000a498bbf,32,0,2024-02-27T09:51:04.205Z,french_914.wav,0,poule,174,32,4,5,Francais,f,2,0.2,-17.99574982,1.64333977
5e627e9d93cdd8000a498bbf,32,0,2024-02-27T09:51:04.205Z,french_914.wav,0,poule,174,32,4,5,Francais,f,3,0.25666667,97.045673,1.63101446
5e627e9d93cdd8000a498bbf,33,0,2024-02-27T09:51:04.205Z,french_16.wav,0,poule,236,32,4,5,Francais,f,0,0.0,-0.6461067,1.33944457
5e627e9d93cdd8000a498bbf,33,0,2024-02-27T09:51:04.205Z,french_16.wav,0,poule,236,32,4,5,Francais,f,1,0.1,90.1568776,0.35137866
5e627e9d93cdd8000a498bbf,33,0,2024-02-27T09:51:04.205Z,french_16.wav,0,poule,236,32,4,5,Francais,f,2,0.2,64.8388413,1.61271584
5e627e9d93cdd8000a498bbf,33,0,2024-02-27T09:51:04.205Z,french_16.wav,0,poule,236,32,4,5,Francais,f,3,0.25666667,-49.08803112,0.05305125
5e627e9d93cdd8000a498bbf,34,0,2024-02-27T09:51:04.205Z,french_920.wav,0,pull,926,32,4,5,Francais,f,0,0.0,98.83591172,0.7646584
5e627e9d93cdd8000a498bbf,34,0,2024-02-27T09:51:04.205Z,french_920.wav,0,pull,926,32,4,5,Francais,f,1,0.1,-64.95643085,1.02879579
5e627e9d93cdd8000a498bbf,34,0,2024-02-27T09:51:04.205Z,french_920.wav,0,pull,926,32,4,5,Francais,f,2,0.2,1.57326281,1.0684491
5e627e9d93cdd8000a498bbf,34,0,2024-02-27T09:51:04.205Z,french_920.wav,0,pull,926,32,4,5,Francais,f,3,0.25666667,-25.63648329,0.89198175
5e627e9d93cdd8000a498bbf,35,0,2024-02-27T09:51:04.205Z,french_460.wav,0,pull,622,32,4,5,Francais,f,0,0.0,-46.82547924,0.18532774
5e627e9d93cdd8000a498bbf,35,0,2024-02-27T09:51:04.205Z,french_460.wav,0,pull,622,32,4,5,Francais,f,1,0.1,-89.06595485,0.73005791
5e627e9d93cdd8000a498bbf,35,0,2024-02-27T09:51:04.205Z,french_460.wav,0,pull,622,32,4,5,Francais,f,2,0.2,-15.88362663,0.27848928
5e627e9d93cdd8000a498bbf,35,0,2024-02-27T09:51:04.205Z,french_460.wav,0,pull,622,32,4,5,Francais,f,3,0.25666667,-55.00298372,1.6971829
5e627e9d93cdd8000a498bbf,36,0,2024-02-27T09:51:04.205Z,french_726.wav,0,pull,508,32,4,5,Francais,f,0,0.0,24.00791096,1.57962765
5e627e9d93cdd8000a498bbf,36,0,2024-02-27T09:51:04.205Z,french_726.wav,0,pull,508,32,4,5,Francais,f,1,0.1,-92.28715444,0.67026409
5e627e9d93cdd8000a498bbf,36,0,2024-02-27T09:51:04.205Z,french_726.wav,0,pull,508,32,4,5,Francais,f,2,0.2,-14.16316682,0.1799528
5e627e9d93cdd8000a498bbf,36,0,2024-02-27T09:51:04.205Z,french_726.wav,0,pull,508,32,4,5,Francais,f,3,0.25666667,30.70182153,1.72405897
5e627e9d93cdd8000a498bbf,37,0,2024-02-27T09:51:04.205Z,french_831.wav,0,pull,527,32,4,5,Francais,f,0,0.0,63.54740934,1.51153345
5e627e9d93cdd8000a498bbf,37,0,2024-02-27T09:51:04.205Z,french_831.wav,0,pull,527,32,4,5,Francais,f,1,0.1,37.72830153,0.09945987
5e627e9d93cdd8000a498bbf,37,0,2024-02-27T09:51:04.205Z,french_831.wav,0,pull,527,32,4,5,Francais,f,2,0.2,-3.45882983,0.22010167
5e627e9d93cdd8000a498bbf,37,0,2024-02-27T09:51:04.205Z,french_831.wav,0,pull,527,32,4,5,Francais,f,3,0.25666667,83.86154552,0.71497999
5e627e9d93cdd8000a498bbf,38,0,2024-02-27T09:51:04.205Z,french_837.wav,0,poule,1241,32,4,5,Francais,f,0,0.0,12.86528577,1.70928146
5e627e9d93cdd8000a498bbf,38,0,2024-02-27T09:51:04.205Z,french_837.wav,0,poule,1241,32,4,5,Francais,f,1,0.1,80.83337189,0.14925978
5e627e9d93cdd8000a498bbf,38,0,2024-02-27T09:51:04.205Z,french_837.wav,0,poule,1241,32,4,5,Francais,f,2,0.2,-88.94110826,0.83215091
5e627e9d93cdd8000a498bbf,38,0,2024-02-27T09:51:04.205Z,french_837.wav,0,poule,1241,32,4,5,Francais,f,3,0.25666667,32.10555955,1.23671449
5e627e9d93cdd8000a498bbf,39,0,2024-02-27T09:51:04.205Z,french_70.wav,0,poule,907,32,4,5,Francais,f,0,0.0,24.17054112,1.64784081
5e627e9d93cdd8000a498bbf,39,0,2024-02-27T09:51:04.205Z,french_70.wav,0,poule,907,32,4,5,Francais,f,1,0.1,-33.49200779,0.51465366
5e627e9d93cdd8000a498bbf,39,0,2024-02-27T09:51:04.205Z,french_70.wav,0,poule,907,32,4,5,Francais,f,2,0.2,-94.66214176,1.24573935
5e627e9d93cdd8000a498bbf,39,0,2024-02-27T09:51:04.205Z,french_70.wav,0,poule,907,32,4,5,Francais,f,3,0.25666667,65.90688931,1.78963367
5e627e9d93cdd8000a498bbf,40,0,2024-02-27T09:51:04.205Z,french_369.wav,0,poule,868,32,4,5,Francais,f,0,0.0,6.84974499,1.45229952
5e627e9d93cdd8000a498bbf,40,0,2024-02-27T09:51:04.205Z,french_369.wav,0,poule,868,32,4,5,Francais,f,1,0.1,61.60531042,0.56068962
5e627e9d93cdd8000a498bbf,40,0,2024-02-27T09:51:04.205Z,french_369.wav,0,poule,868,32,4,5,Francais,f,2,0.2,34.70817747,0.98283966
5e627e9d93cdd8000a498bbf,40,0,2024-02-27T09:51:04.205Z,french_369.wav,0,poule,868,32,4,5,Francais,f,3,0.25666667,-13.14208541,1.24311155
5e627e9d93cdd8000a498bbf,41,0,2024-02-27T09:51:04.205Z,french_919.wav,0,pull,544,32,4,5,Francais,f,0,0.0,-50.18617417,1.92623259
5e627e9d93cdd8000a498bbf,41,0,2024-02-27T09:51:04.205Z,french_919.wav,0,pull,544,32,4,5,Francais,f,1,0.1,-24.76321709,1.20800331
5e627e9d93cdd8000a498bbf,41,0,2024-02-27T09:51:04.205Z,french_919.wav,0,pull,544,32,4,5,Francais,f,2,0.2,-27.90521194,0.01078602
5e627e9d93cdd8000a498bbf,41,0,2024-02-27T09:51:04.205Z,french_919.wav,0,pull,544,32,4,5,Francais,f,3,0.25666667,55.47311868,0.27796628
5e627e9d93cdd8000a498bbf,42,0,2024-02-27T09:51:04.205Z,french_152.wav,0,poule,410,32,4,5,Francais,f,0,0.0,-3.84179402,0.21245747
5e627e9d93cdd8000a498bbf,42,0,2024-02-27T09:51:04.205Z,french_152.wav,0,poule,410,32,4,5,Francais,f,1,0.1,56.28738818,1.74384484
5e627e9d93cdd8000a498bbf,42,0,2024-02-27T09:51:04.205Z,french_152.wav,0,poule,410,32,4,5,Francais,f,2,0.2,-25.33799013,1.40208126
5e627e9d93cdd8000a498bbf,42,0,2024-02-27T09:51:04.205Z,french_152.wav,0,poule,410,32,4,5,Francais,f,3,0.25666667,-10.23447911,0.94312755
5e627e9d93cdd8000a498bbf,43,0,2024-02-27T09:51:04.205Z,french_946.wav,0,poule,1632,32,4,5,Francais,f,0,0.0,-59.20376503,1.07432488
5e627e9d93cdd8000a498bbf,43,0,2024-02-27T09:51:04.205Z,french_946.wav,0,poule,1632,32,4,5,Francais,f,1,0.1,41.31347152,0.26624757
5e627e9d93cdd8000a498bbf,43,0,2024-02-27T09:51:04.205Z,french_946.wav,0,poule,1632,32,4,5,Francais,f,2,0.2,-58.18080138,0.53636085
5e627e9d93cdd8000a498bbf,43,0,2024-02-27T09:51:04.205Z,french_946.wav,0,poule,1632,32,4,5,Francais,f,3,0.25666667,-28.00273528,1.77786979
5e627e9d93cdd8000a498bbf,44,0,2024-02-27T09:51:04.205Z,french_924.wav,0,poule,1315,32,4,5,Francais,f,0,0.0,19.51956159,0.29322561
5e627e9d93cdd8000a498bbf,44,0,2024-02-27T09:51:04.205Z,french_924.wav,0,poule,1315,32,4,5,Francais,f,1,0.1,-22.93629197,0.34885274
5e627e9d93cdd8000a498bbf,44,0,2024-02-27T09:51:04.205Z,french_924.wav,0,poule,1315,32,4,5,Francais,f,2,0.2,72.54596199,0.3497483
5e627e9d93cdd8000a498bbf,44,0,2024-02-27T09:51:04.205Z,french_924.wav,0,poule,1315,32,4,5,Francais,f,3,0.25666667,13.27885696,0.14375838
5e627e9d93cdd8000a498bbf,45,0,2024-02-27T09:51:04.205Z,french_901.wav,0,poule,485,32,4,5,Francais,f,0,0.0,-25.19173586,1.14646858
5e627e9d93cdd8000a498bbf,45,0,2024-02-27T09:51:04.205Z,french_901.wav,0,poule,485,32,4,5,Francais,f,1,0.1,-52.79367362,1.72960478
5e627e9d93cdd8000a498bbf,45,0,2024-02-27T09:51:04.205Z,french_901.wav,0,poule,485,32,4,5,Francais,f,2,0.2,31.61264675,1.50121635
5e627e9d93cdd8000a498bbf,45,0,2024-02-27T09:51:04.205Z,french_901.wav,0,poule,485,32,4,5,Francais,f,3,0.25666667,-8.05782551,0.87544333
5e627e9d93cdd8000a498bbf,46,0,2024-02-27T09:51:04.205Z,french_689.wav,0,poule,789,32,4,5,Francais,f,0,0.0,-76.83712438,1.91162084
5e627e9d93cdd8000a498bbf,46,0,2024-02-27T09:51:04.205Z,french_689.wav,0,poule,789,32,4,5,Francais,f,1,0.1,64.54047654,0.68488006
5e627e9d93cdd8000a498bbf,46,0,2024-02-27T09:51:04.205Z,french_689.wav,0,poule,789,32,4,5,Francais,f,2,0.2,42.91011154,0.17067082
5e627e9d93cdd8000a498bbf,46,0,2024-02-27T09:51:04.205Z,french_689.wav,0,poule,789,32,4,5,Francais,f,3,0.25666667,-94.73892594,1.05586556
5e627e9d93cdd8000a498bbf,47,0,2024-02-27T09:51:04.205Z,french_775.wav,0,poule,378,32,4,5,Francais,f,0,0.0,-25.73289632,0.08278175
5e627e9d93cdd8000a498bbf,47,0,2024-02-27T09:51:04.205Z,french_775.wav,0,poule,378,32,4,5,Francais,f,1,0.1,52.55800123,0.7848412
5e627e9d93cdd8000a498bbf,47,0,2024-02-27T09:51:04.205Z,french_775.wav,0,poule,378,32,4,5,Francais,f,2,0.2,-82.88064372,1.99473571
5e627e9d93cdd8000a498bbf,47,0,2024-02-27T09:51:04.205Z,french_775.wav,0,poule,378,32,4,5,Francais,f,3,0.25666667,71.02003497,0.87564379
5e627e9d93cdd8000a498bbf,48,0,2024-02-27T09:51:04.205Z,french_51.wav,0,pull,877,32,4,5,Francais,f,0,0.0,47.2980437,1.21993379
5e627e9d93cdd8000a498bbf,48,0,2024-02-27T09:51:04.205Z,french_51.wav,0,pull,877,32,4,5,Francais,f,1,0.1,-20.71065167,0.59290242
5e627e9d93cdd8000a498bbf,48,0,2024-02-27T09:51:04.205Z,french_51.wav,0,pull,877,32,4,5,Francais,f,2,0.2,-59.15578969,0.43795747
5e627e9d93cdd8000a498bbf,48,0,2024-02-27T09:51:04.205Z,french_51.wav,0,pull,877,32,4,5,Francais,f,3,0.25666667,47.97190204,1.09780803
5e627e9d93cdd8000a498bbf,49,0,2024-02-27T09:51:04.205Z,french_312.wav,0,poule,663,32,4,5,Francais,f,0,0.0,-19.98952993,1.92157149
5e627e9d93cdd8000a498bbf,49,0,2024-02-27T09:51:04.205Z,french_312.wav,0,poule,663,32,4,5,Francais,f,1,0.1,50.70617954,0.53263035
5e627e9d93cdd8000a498bbf,49,0,2024-02-27T09:51:04.205Z,french_312.wav,0,poule,663,32,4,5,Francais,f,2,0.2,80.27383631,1.8452111
5e627e9d93cdd8000a498bbf,49,0,2024-02-27T09:51:04.205Z,french_312.wav,0,poule,663,32,4,5,Francais,f,3,0.25666667,31.55502425,1.73122835
5e627e9d93cdd8000a498bbf,50,1,2024-02-27T09:51:04.205Z,french_677.wav,0,poule,1430,32,4,5,Francais,f,0,0.0,-14.76179085,0.10277679
5e627e9d93cdd8000a498bbf,50,1,2024-02-27T09:51:04.205Z,french_677.wav,0,poule,1430,32,4,5,Francais,f,1,0.1,-96.15101895,0.35083798
5e627e9d93cdd8000a498bbf,50,1,2024-02-27T09:51:04.205Z,french_677.wav,0,poule,1430,32,4,5,Francais,f,2,0.2,48.20621423,0.65953763
5e627e9d93cdd8000a498bbf,50,1,2024-02-27T09:51:04.205Z,french_677.wav,0,poule,1430,32,4,5,Francais,f,3,0.25666667,23.33985038,0.76581679
5e627e9d93cdd8000a498bbf,51,1,2024-02-27T09:51:04.205Z,french_149.wav,0,poule,349,32,4,5,Francais,f,0,0.0,28.00275788,1.27183806
5e627e9d93cdd8000a498bbf,51,1,2024-02-27T09:51:04.205Z,french_149.wav,0,poule,349,32,4,5,Francais,f,1,0.1,-46.87803807,1.3685485
5e627e9d93cdd8000a498bbf,51,1,2024-02-27T09:51:04.205Z,french_149.wav,0,poule,349,32,4,5,Francais,f,2,0.2,32.76049197,0.82981236
5e627e9d93cdd8000a498bbf,51,1,2024-02-27T09:51:04.205Z,french_149.wav,0,poule,349,32,4,5,Francais,f,3,0.25666667,-11.80275259,1.21825334
5e627e9d93cdd8000a498bbf,52,1,2024-02-27T09:51:04.205Z,french_597.wav,0,pull,1047,32,4,5,Francais,f,0,0.0,78.21673508,0.32061172
5e627e9d93cdd8000a498bbf,52,1,2024-02-27T09:51:04.205Z,french_597.wav,0,pull,1047,32,4,5,Francais,f,1,0.1,48.44931265,1.01687051
5e627e9d93cdd8000a498bbf,52,1,2024-02-27T09:51:04.205Z,french_597.wav,0,pull,1047,32,4,5,Francais,f,2,0.2,-9.21876948,0.22158162
5e627e9d93cdd8000a498bbf,52,1,2024-02-27T09:51:04.205Z,french_597.wav,0,pull,1047,32,4,5,Francais,f,3,0.25666667,-95.47680095,0.62073139
5e627e9d93cdd8000a498bbf,53,1,2024-02-27T09:51:04.205Z,french_989.wav,0,poule,751,32,4,5,Francais,f,0,0.0,9.12508282,1.4573698
5e627e9d93cdd8000a498bbf,53,1,2024-02-27T09:51:04.205Z,french_989.wav,0,poule,751,32,4,5,Francais,f,1,0.1,-26.45358769,0.87656303
5e627e9d93cdd8000a498bbf,53,1,2024-02-27T09:51:04.205Z,french_989.wav,0,poule,751,32,4,5,Francais,f,2,0.2,-51.08796106,0.58961018
5e627e9d93cdd8000a498bbf,53,1,2024-02-27T09:51:04.205Z,french_989.wav,0,poule,751,32,4,5,Francais,f,3,0.25666667,-22.70445117,1.46090447
5e627e9d93cdd8000a498bbf,54,1,2024-02-27T09:51:04.205Z,french_552.wav,0,poule,379,32,4,5,Francais,f,0,0.0,-52.32363839,0.44295398
5e627e9d93cdd8000a498bbf,54,1,2024-02-27T09:51:04.205Z,french_552.wav,0,poule,379,32,4,5,Francais,f,1,0.1,23.44364533,1.4520287
5e627e9d93cdd8000a498bbf,54,1,2024-02-27T09:51:04.205Z,french_552.wav,0,poule,379,32,4,5,Francais,f,2,0.2,72.20212972,0.63620541
5e627e9d93cdd8000a498bbf,54,1,2024-02-27T09:51:04.205Z,french_552.wav,0,poule,379,32,4,5,Francais,f,3,0.25666667,-25.42911122,1.39952151
5e627e9d93cdd8000a498bbf,55,1,2024-02-27T09:51:04.205Z,french_601.wav,0,poule,444,32,4,5,Francais,f,0,0.0,57.33302671,0.25823262
5e627e9d93cdd8000a498bbf,55,1,2024-02-27T09:51:04.205Z,french_601.wav,0,poule,444,32,4,5,Francais,f,1,0.1,78.53356314,0.70648058
5e627e9d93cdd8000a498bbf,55,1,2024-02-27T09:51:04.205Z,french_601.wav,0,poule,444,32,4,5,Francais,f,2,0.2,-65.46800755,1.49897987
5e627e9d93cdd8000a498bbf,55,1,2024-02-27T09:51:04.205Z,french_601.wav,0,poule,444,32,4,5,Francais,f,3,0.25666667,15.04245158,0.53904812
5e627e9d93cdd8000a498bbf,56,1,2024-02-27T09:51:04.205Z,french_461.wav,0,poule,329,32,4,5,Francais,f,0,0.0,76.34817382,0.72953599
5e627e9d93cdd8000a498bbf,56,1,2024-02-27T09:51:04.205Z,french_461.wav,0,poule,329,32,4,5,Francais,f,1,0.1,2.37579461,1.5415695
5e627e9d93cdd8000a498bbf,56,1,2024-02-27T09:51:04.205Z,french_461.wav,0,poule,329,32,4,5,Francais,f,2,0.2,-59.90047781,1.01078515
5e627e9d93cdd8000a498bbf,56,1,2024-02-27T09:51:04.205Z,french_461.wav,0,poule,329,32,4,5,Francais,f,3,0.25666667,20.08623444,1.02737445
5e627e9d93cdd8000a498bbf,57,1,2024-02-27T09:51:04.205Z,french_711.wav,0,poule,289,32,4,5,Francais,f,0,0.0,35.46622773,1.8142291
5e627e9d93cdd8000a498bbf,57,1,2024-02-27T09:51:04.205Z,french_711.wav,0,poule,289,32,4,5,Francais,f,1,0.1,62.41897997,1.39339975
5e627e9d93cdd8000a498bbf,57,1,2024-02-27T09:51:04.205Z,french_711.wav,0,poule,289,32,4,5,Francais,f,2,0.2,-12.16405894,1.57822467
5e627e9d93cdd8000a498bbf,57,1,2024-02-27T09:51:04.205Z,french_711.wav,0,poule,289,32,4,5,Francais,f,3,0.25666667,23.8007589,1.63044315
5e627e9d93cdd8000a498bbf,58,1,2024-02-27T09:51:04.205Z,french_76.wav,0,poule,844,32,4,5,Francais,f,0,0.0,34.97070553,0.55167233
5e627e9d93cdd8000a498bbf,58,1,2024-02-27T09:51:04.205Z,french_76.wav,0,poule,844,32,4,5,Francais,f,1,0.1,46.59279974,0.47394225
5e627e9d93cdd8000a498bbf,58,1,2024-02-27T09:51:04.205Z,french_76.wav,0,poule,844,32,4,5,Francais,f,2,0.2,69.89439798,0.76682402
5e627e9d93cdd8000a498bbf,58,1,2024-02-27T09:51:04.205Z,french_76.wav,0,poule,844,32,4,5,Francais,f,3,0.25666667,4.40224836,1.69716011
5e627e9d93cdd8000a498bbf,59,1,2024-02-27T09:51:04.205Z,french_546.wav,0,poule,919,32,4,5,Francais,f,0,0.0,36.39546499,1.70532748
5e627e9d93cdd8000a498bbf,59,1,2024-02-27T09:51:04.205Z,french_546.wav,0,poule,919,32,4,5,Francais,f,1,0.1,-76.59722628,1.24815266
5e627e9d93cdd8000a498bbf,59,1,2024-02-27T09:51:04.205Z,french_546.wav,0,poule,919,32,4,5,Francais,f,2,0.2,-20.75900546,1.81852615
5e627e9d93cdd8000a498bbf,59,1,2024-02-27T09:51:04.205Z,french_546.wav,0,poule,919,32,4,5,Francais,f,3,0.25666667,8.86958668,0.22376713
5e627e9d93cdd8000a498bbf,60,1,2024-02-27T09:51:04.205Z,french_129.wav,0,pull,560,32,4,5,Francais,f,0,0.0,13.25855459,0.8608045
5e627e9d93cdd8000a498bbf,60,1,2024-02-27T09:51:04.205Z,french_129.wav,0,pull,560,32,4,5,Francais,f,1,0.1,-92.03942204,1.75332116
5e627e9d93cdd8000a498bbf,60,1,2024-02-27T09:51:04.205Z,french_129.wav,0,pull,560,32,4,5,Francais,f,2,0.2,62.50888813,0.44840231
5e627e9d93cdd8000a498bbf,60,1,2024-02-27T09:51:04.205Z,french_129.wav,0,pull,560,32,4,5,Francais,f,3,0.25666667,39.35321197,1.56291845
5e627e9d93cdd8000a498bbf,61,1,2024-02-27T09:51:04.205Z,french_325.wav,0,poule,300,32,4,5,Francais,f,0,0.0,88.71142286,0.52996958
5e627e9d93cdd8000a498bbf,61,1,2024-02-27T09:51:04.205Z,french_325.wav,0,poule,300,32,4,5,Francais,f,1,0.1,-56.3206586,1.24996424
5e627e9d93cdd8000a498bbf,61,1,2024-02-27T09:51:04.205Z,french_325.wav,0,poule,300,32,4,5,Francais,f,2,0.2,41.53206129,1.51417943
5e627e9d93cdd8000a498bbf,61,1,2024-02-27T09:51:04.205Z,french_325.wav,0,poule,300,32,4,5,Francais,f,3,0.25666667,-39.91784783,1.21569626
5e627e9d93cdd8000a498bbf,62,1,2024-02-27T09:51:04.205Z,french_449.wav,0,poule,293,32,4,5,Francais,f,0,0.0,49.95404734,0.88379096
5e627e9d93cdd8000a498bbf,62,1,2024-02-27T09:51:04.205Z,french_449.wav,0,poule,293,32,4,5,Francais,f,1,0.1,-42.73933853,1.13878319
5e627e9d93cdd8000a498bbf,62,1,2024-02-27T09:51:04.205Z,french_449.wav,0,poule,293,32,4,5,Francais,f,2,0.2,16.44287486,0.43325684
5e627e9d93cdd8000a498bbf,62,1,2024-02-27T09:51:04.205Z,french_449.wav,0,poule,293,32,4,5,Francais,f,3,0.25666667,-12.34539139,0.01727343
5e627e9d93cdd8000a498bbf,63,1,2024-02-27T09:51:04.205Z,french_34.wav,0,pull,693,32,4,5,Francais,f,0,0.0,-97.24360174,1.95744133
5e627e9d93cdd8000a498bbf,63,1,2024-02-27T09:51:04.205Z,french_34.wav,0,pull,693,32,4,5,Francais,f,1,0.1,62.38297295,1.24423752
5e627e9d93cdd8000a498bbf,63,1,2024-02-27T09:51:04.205Z,french_34.wav,0,pull,693,32,4,5,Francais,f,2,0.2,-49.09622703,1.91649641
5e627e9d93cdd8000a498bbf,63,1,2024-02-27T09:51:04.205Z,french_34.wav,0,pull,693,32,4,5,Francais,f,3,0.25666667,-40.35720841,1.03651442
5e627e9d93cdd8000a498bbf,64,1,2024-02-27T09:51:04.205Z,french_839.wav,0,poule,433,32,4,5,Francais,f,0,0.0,11.03740457,0.76467652
5e627e9d93cdd8000a498bbf,64,1,2024-02-27T09:51:04.205Z,french_839.wav,0,poule,433,32,4,5,Francais,f,1,0.1,23.46119987,0.76268055
5e627e9d93cdd8000a498bbf,64,1,2024-02-27T09:51:04.205Z,french_839.wav,0,poule,433,32,4,5,Francais,f,2,0.2,-0.31614798,1.64444165
5e627e9d93cdd8000a498bbf,64,1,2024-02-27T09:51:04.205Z,french_839.wav,0,poule,433,32,4,5,Francais,f,3,0.25666667,62.63183259,0.69482811
5e627e9d93cdd8000a498bbf,65,1,2024-02-27T09:51:04.205Z,french_737.wav,0,poule,318,32,4,5,Francais,f,0,0.0,13.02374388,1.19502519
5e627e9d93cdd8000a498bbf,65,1,2024-02-27T09:51:04.205Z,french_737.wav,0,poule,318,32,4,5,Francais,f,1,0.1,-10.41694685,0.96501463
5e627e9d93cdd8000a498bbf,65,1,2024-02-27T09:51:04.205Z,french_737.wav,0,poule,318,32,4,5,Francais,f,2,0.2,-16.29618142,0.50712422
5e627e9d93cdd8000a498bbf,65,1,2024-02-27T09:51:04.205Z,french_737.wav,0,poule,318,32,4,5,Francais,f,3,0.25666667,15.62671798,0.54653665
5e627e9d93cdd8000a498bbf,66,1,2024-02-27T09:51:04.205Z,french_276.wav,0,poule,234,32,4,5,Francais,f,0,0.0,-30.59490391,1.59191255
5e627e9d93cdd8000a498bbf,66,1,2024-02-27T09:51:04.205Z,french_276.wav,0,poule,234,32,4,5,Francais,f,1,0.1,35.14119383,1.08920427
5e627e9d93cdd8000a498bbf,66,1,2024-02-27T09:51:04.205Z,french_276.wav,0,poule,234,32,4,5,Francais,f,2,0.2,-47.54137466,1.15204711
5e627e9d93cdd8000a498bbf,66,1,2024-02-27T09:51:04.205Z,french_276.wav,0,poule,234,32,4,5,Francais,f,3,0.25666667,-36.46330553,0.56107217
5e627e9d93cdd8000a498bbf,67,1,2024-02-27T09:51:04.205Z,french_510.wav,0,poule,868,32,4,5,Francais,f,0,0.0,-82.87799208,0.24901575
5e627e9d93cdd8000a498bbf,67,1,2024-02-27T09:51:04.205Z,french_510.wav,0,poule,868,32,4,5,Francais,f,1,0.1,65.34741866,0.57837344
5e627e9d93cdd8000a498bbf,67,1,2024-02-27T09:51:04.205Z,french_510.wav,0,poule,868,32,4,5,Francais,f,2,0.2,-27.05880307,0.73430832
5e627e9d93cdd8000a498bbf,67,1,2024-02-27T09:51:04.205Z,french_510.wav,0,poule,868,32,4,5,Francais,f,3,0.25666667,51.91290048,0.23551409
5e627e9d93cdd8000a498bbf,68,1,2024-02-27T09:51:04.205Z,french_513.wav,0,poule,300,32,4,5,Francais,f,0,0.0,84.63539274,1.68726635
5e627e9d93cdd8000a498bbf,68,1,2024-02-27T09:51:04.205Z,french_513.wav,0,poule,300,32,4,5,Francais,f,1,0.1,36.6114333,0.88690679
5e627e9d93cdd8000a498bbf,68,1,2024-02-27T09:51:04.205Z,french_513.wav,0,poule,300,32,4,5,Francais,f,2,0.2,14.49628471,0.37350839
5e627e9d93cdd8000a498bbf,68,1,2024-02-27T09:51:04.205Z,french_513.wav,0,poule,300,32,4,5,Francais,f,3,0.25666667,-17.17346171,1.74122924
5e627e9d93cdd8000a498bbf,69,1,2024-02-27T09:51:04.205Z,french_739.wav,0,poule,269,32,4,5,Francais,f,0,0.0,-65.51142402,1.38110817
5e627e9d93cdd8000a498bbf,69,1,2024-02-27T09:51:04.205Z,french_739.wav,0,poule,269,32,4,5,Francais,f,1,0.1,67.74002461,1.74639645
5e627e9d93cdd8000a498bbf,69,1,2024-02-27T09:51:04.205Z,french_739.wav,0,poule,269,32,4,5,Francais,f,2,0.2,-44.34086757,0.59251892
5e627e9d93cdd8000a498bbf,69,1,2024-02-27T09:51:04.205Z,french_739.wav,0,poule,269,32,4,5,Francais,f,3,0.25666667,26.46822732,0.96604097
5e627e9d93cdd8000a498bbf,70,1,2024-02-27T09:51:04.205Z,french_572.wav,0,poule,375,32,4,5,Francais,f,0,0.0,39.88309013,1.43577141
5e627e9d93cdd8000a498bbf,70,1,2024-02-27T09:51:04.205Z,french_572.wav,0,poule,375,32,4,5,Francais,f,1,0.1,-96.79862589,0.70754044
5e627e9d93cdd8000a498bbf,70,1,2024-02-27T09:51:04.205Z,french_572.wav,0,poule,375,32,4,5,Francais,f,2,0.2,-22.12237888,0.13254452
5e627e9d93cdd8000a498bbf,70,1,2024-02-27T09:51:04.205Z,french_572.wav,0,poule,375,32,4,5,Francais,f,3,0.25666667,-29.01009828,0.2743676
5e627e9d93cdd8000a498bbf,71,1,2024-02-27T09:51:04.205Z,french_642.wav,0,poule,315,32,4,5,Francais,f,0,0.0,94.74505174,1.94145252
5e627e9d93cdd8000a498bbf,71,1,2024-02-27T09:51:04.205Z,french_642.wav,0,poule,315,32,4,5,Francais,f,1,0.1,-41.90916732,1.43327494
5e627e9d93cdd8000a498bbf,71,1,2024-02-27T09:51:04.205Z,french_642.wav,0,poule,315,32,4,5,Francais,f,2,0.2,-70.07976965,0.59817774
5e627e9d93cdd8000a498bbf,71,1,2024-02-27T09:51:04.205Z,french_642.wav,0,poule,315,32,4,5,Francais,f,3,0.25666667,42.72168091,1.11755549
5e627e9d93cdd8000a498bbf,72,1,2024-02-27T09:51:04.205Z,french_279.wav,0,poule,256,32,4,5,Francais,f,0,0.0,-82.72654322,1.91034617
5e627e9d93cdd8000a498bbf,72,1,2024-02-27T09:51:04.205Z,french_279.wav,0,poule,256,32,4,5,Francais,f,1,0.1,51.19533055,0.35578453
5e627e9d93cdd8000a498bbf,72,1,2024-02-27T09:51:04.205Z,french_279.wav,0,poule,256,32,4,5,Francais,f,2,0.2,81.3850192,1.45645662
5e627e9d93cdd8000a498bbf,72,1,2024-02-27T09:51:04.205Z,french_279.wav,0,poule,256,32,4,5,Francais,f,3,0.25666667,12.9967417,1.34605049
5e627e9d93cdd8000a498bbf,73,1,2024-02-27T09:51:04.205Z,french_231.wav,0,poule,493,32,4,5,Francais,f,0,0.0,15.23586761,1.95048297
5e627e9d93cdd8000a498bbf,73,1,2024-02-27T09:51:04.205Z,french_231.wav,0,poule,493,32,4,5,Francais,f,1,0.1,15.03275874,1.45451509
5e627e9d93cdd8000a498bbf,73,1,2024-02-27T09:51:04.205Z,french_231.wav,0,poule,493,32,4,5,Francais,f,2,0.2,-80.75641997,1.67801628
5e627e9d93cdd8000a498bbf,73,1,2024-02-27T09:51:04.205Z,french_231.wav,0,poule,493,32,4,5,Francais,f,3,0.25666667,-36.14562296,1.39710855
5e627e9d93cdd8000a498bbf,74,1,2024-02-27T09:51:04.205Z,french_527.wav,0,poule,772,32,4,5,Francais,f,0,0.0,97.81644093,0.09503525
5e627e9d93cdd8000a498bbf,74,1,2024-02-27T09:51:04.205Z,french_527.wav,0,poule,772,32,4,5,Francais,f,1,0.1,68.05004199,0.33267387
5e627e9d93cdd8000a498bbf,74,1,2024-02-27T09:51:04.205Z,french_527.wav,0,poule,772,32,4,5,Francais,f,2,0.2,-44.05597581,1.51053464
5e627e9d93cdd8000a498bbf,74,1,2024-02-27T09:51:04.205Z,french_527.wav,0,poule,772,32,4,5,Francais,f,3,0.25666667,40.91945638,1.37458991
5e627e9d93cdd8000a498bbf,75,1,2024-02-27T09:51:04.205Z,french_542.wav,0,pull,490,32,4,5,Francais,f,0,0.0,88.21755363,1.84211071
5e627e9d93cdd8000a498bbf,75,1,2024-02-27T09:51:04.205Z,french_542.wav,0,pull,490,32,4,5,Francais,f,1,0.1,59.97016865,1.57396898
5e627e9d93cdd8000a498bbf,75,1,2024-02-27T09:51:04.205Z,french_542.wav,0,pull,490,32,4,5,Francais,f,2,0.2,-54.94167031,1.14268549
5e627e9d93cdd8000a498bbf,75,1,2024-02-27T09:51:04.205Z,french_542.wav,0,pull,490,32,4,5,Francais,f,3,0.25666667,-74.88408835,1.52682198
5e627e9d93cdd8000a498bbf,76,1,2024-02-27T09:51:04.205Z,french_393.wav,0,poule,1055,32,4,5,Francais,f,0,0.0,-4.17853165,1.11841435
5e627e9d93cdd8000a498bbf,76,1,2024-02-27T09:51:04.205Z,french_393.wav,0,poule,1055,32,4,5,Francais,f,1,0.1,-52.7672758,1.14982518
5e627e9d93cdd8000a498bbf,76,1,2024-02-27T09:51:04.205Z,french_393.wav,0,poule,1055,32,4,5,Francais,f,2,0.2,-35.65632354,1.99911749
5e627e9d93cdd8000a498bbf,76,1,2024-02-27T09:51:04.205Z,french_393.wav,0,poule,1055,32,4,5,Francais,f,3,0.25666667,-38.23501308,0.07284053
5e627e9d93cdd8000a498bbf,77,1,2024-02-27T09:51:04.205Z,french_694.wav,0,poule,263,32,4,5,Francais,f,0,0.0,17.77218449,1.83585748
5e627e9d93cdd8000a498bbf,77,1,2024-02-27T09:51:04.205Z,french_694.wav,0,poule,263,32,4,5,Francais,f,1,0.1,99.46599521,0.80026037
5e627e9d93cdd8000a498bbf,77,1,2024-02-27T09:51:04.205Z,french_694.wav,0,poule,263,32,4,5,Francais,f,2,0.2,-15.42512366,1.77531791
5e627e9d93cdd8000a498bbf,77,1,2024-02-27T09:51:04.205Z,french_694.wav,0,poule,263,32,4,5,Francais,f,3,0.25666667,-86.21441247,1.07868716
5e627e9d93cdd8000a498bbf,78,1,2024-02-27T09:51:04.205Z,french_892.wav,0,pull,690,32,4,5,Francais,f,0,0.0,-9.89123065,1.43345907
5e627e9d93cdd8000a498bbf,78,1,2024-02-27T09:51:04.205Z,french_892.wav,0,pull,690,32,4,5,Francais,f,1,0.1,-29.48301763,0.60115207
5e627e9d93cdd8000a498bbf,78,1,2024-02-27T09:51:04.205Z,french_892.wav,0,pull,690,32,4,5,Francais,f,2,0.2,-20.12274852,0.51672516
5e627e9d93cdd8000a498bbf,78,1,2024-02-27T09:51:04.205Z,french_892.wav,0,pull,690,32,4,5,Francais,f,3,0.25666667,-63.31716547,0.2983609
5e627e9d93cdd8000a498bbf,79,1,2024-02-27T09:51:04.205Z,french_329.wav,0,pull,774,32,4,5,Francais,f,0,0.0,14.6954169,0.80369944
5e627e9d93cdd8000a498bbf,79,1,2024-02-27T09:51:04.205Z,french_329.wav,0,pull,774,32,4,5,Francais,f,1,0.1,-60.61079034,1.40829285
5e627e9d93cdd8000a498bbf,79,1,2024-02-27T09:51:04.205Z,french_329.wav,0,pull,774,32,4,5,Francais,f,2,0.2,-27.52715396,0.22971006
5e627e9d93cdd8000a498bbf,79,1,2024-02-27T09:51:04.205Z,french_329.wav,0,pull,774,32,4,5,Francais,f,3,0.25666667,-71.65343532,0.37653007
5e627e9d93cdd8000a498bbf,80,1,2024-02-27T09:51:04.205Z,french_507.wav,0,pull,370,32,4,5,Francais,f,0,0.0,-39.00130205,0.88980729
5e627e9d93cdd8000a498bbf,80,1,2024-02-27T09:51:04.205Z,french_507.wav,0,pull,370,32,4,5,Francais,f,1,0.1,8.15448279,1.12034654
5e627e9d93cdd8000a498bbf,80,1,2024-02-27T09:51:04.205Z,french_507.wav,0,pull,370,32,4,5,Francais,f,2,0.2,-39.88004764,1.15006522
5e627e9d93cdd8000a498bbf,80,1,2024-02-27T09:51:04.205Z,french_507.wav,0,pull,370,32,4,5,Francais,f,3,0.25666667,66.54300966,1.10945683
5e627e9d93cdd8000a498bbf,81,1,2024-02-27T09:51:04.205Z,french_68.wav,0,pull,1008,32,4,5,Francais,f,0,0.0,58.83829029,1.80244508
5e627e9d93cdd8000a498bbf,81,1,2024-02-27T09:51:04.205Z,french_68.wav,0,pull,1008,32,4,5,Francais,f,1,0.1,77.59339865,1.3442738
5e627e9d93cdd8000a498bbf,81,1,2024-02-27T09:51:04.205Z,french_68.wav,0,pull,1008,32,4,5,Francais,f,2,0.2,-73.88341881,1.16581557
5e627e9d93cdd8000a498bbf,81,1,2024-02-27T09:51:04.205Z,french_68.wav,0,pull,1008,32,4,5,Francais,f,3,0.25666667,-24.56901296,0.71132336
5e627e9d93cdd8000a498bbf,82,1,2024-02-27T09:51:04.205Z,french_274.wav,0,poule,430,32,4,5,Francais,f,0,0.0,43.75822691,1.39255027
5e627e9d93cdd8000a498bbf,82,1,2024-02-27T09:51:04.205Z,french_274.wav,0,poule,430,32,4,5,Francais,f,1,0.1,86.10199067,1.73272922
5e627e9d93cdd8000a498bbf,82,1,2024-02-27T09:51:04.205Z,french_274.wav,0,poule,430,32,4,5,Francais,f,2,0.2,-33.25278445,0.27567755
5e627e9d93cdd8000a498bbf,82,1,2024-02-27T09:51:04.205Z,french_274.wav,0,poule,430,32,4,5,Francais,f,3,0.25666667,-94.53609652,1.08955952
5e627e9d93cdd8000a498bbf,83,1,2024-02-27T09:51:04.205Z,french_452.wav,0,poule,513,32,4,5,Francais,f,0,0.0,-0.54521087,0.71963755
5e627e9d93cdd8000a498bbf,83,1,2024-02-27T09:51:04.205Z,french_452.wav,0,poule,513,32,4,5,Francais,f,1,0.1,21.1278642,1.49294629
5e627e9d93cdd8000a498bbf,83,1,2024-02-27T09:51:04.205Z,french_452.wav,0,poule,513,32,4,5,Francais,f,2,0.2,-42.86108881,1.86627756
5e627e9d93cdd8000a498bbf,83,1,2024-02-27T09:51:04.205Z,french_452.wav,0,poule,513,32,4,5,Francais,f,3,0.25666667,77.96430269,0.60359825
5e627e9d93cdd8000a498bbf,84,1,2024-02-27T09:51:04.205Z,french_937.wav,0,poule,201,32,4,5,Francais,f,0,0.0,27.89553513,1.9323197
5e627e9d93cdd8000a498bbf,84,1,2024-02-27T09:51:04.205Z,french_937.wav,0,poule,201,32,4,5,Francais,f,1,0.1,-51.2753628,1.67315664
5e627e9d93cdd8000a498bbf,84,1,2024-02-27T09:51:04.205Z,french_937.wav,0,poule,201,32,4,5,Francais,f,2,0.2,-75.08991272,1.14592467
5e627e9d93cdd8000a498bbf,84,1,2024-02-27T09:51:04.205Z,french_937.wav,0,poule,201,32,4,5,Francais,f,3,0.25666667,-24.40434042,1.81837395
5e627e9d93cdd8000a498bbf,85,1,2024-02-27T09:51:04.205Z,french_31.wav,0,poule,256,32,4,5,Francais,f,0,0.0,-16.52506352,1.57904125
5e627e9d93cdd8000a498bbf,85,1,2024-02-27T09:51:04.205Z,french_31.wav,0,poule,256,32,4,5,Francais,f,1,0.1,-80.19736258,0.88688051
5e627e9d93cdd8000a498bbf,85,1,2024-02-27T09:51:04.205Z,french_31.wav,0,poule,256,32,4,5,Francais,f,2,0.2,-47.04996605,0.44579633
5e627e9d93cdd8000a498bbf,85,1,2024-02-27T09:51:04.205Z,french_31.wav,0,poule,256,32,4,5,Francais,f,3,0.25666667,35.27279848,1.71139476
5e627e9d93cdd8000a498bbf,86,1,2024-02-27T09:51:04.205Z,french_558.wav,0,poule,277,32,4,5,Francais,f,0,0.0,-24.56305845,0.85912435
5e627e9d93cdd8000a498bbf,86,1,2024-02-27T09:51:04.205Z,french_558.wav,0,poule,277,32,4,5,Francais,f,1,0.1,18.75830467,1.74056956
5e627e9d93cdd8000a498bbf,86,1,2024-02-27T09:51:04.205Z,french_558.wav,0,poule,277,32,4,5,Francais,f,2,0.2,-0.86444976,0.35762899
5e627e9d93cdd8000a498bbf,86,1,2024-02-27T09:51:04.205Z,french_558.wav,0,poule,277,32,4,5,Francais,f,3,0.25666667,-67.61408917,1.29508782
5e627e9d93cdd8000a498bbf,87,1,2024-02-27T09:51:04.205Z,french_793.wav,0,pull,383,32,4,5,Francais,f,0,0.0,24.81509803,0.12690374
5e627e9d93cdd8000a498bbf,87,1,2024-02-27T09:51:04.205Z,french_793.wav,0,pull,383,32,4,5,Francais,f,1,0.1,-63.66512484,0.60816637
5e627e9d93cdd8000a498bbf,87,1,2024-02-27T09:51:04.205Z,french_793.wav,0,pull,383,32,4,5,Francais,f,2,0.2,-35.07665133,0.42682998
5e627e9d93cdd8000a498bbf,87,1,2024-02-27T09:51:04.205Z,french_793.wav,0,pull,383,32,4,5,Francais,f,3,0.25666667,-2.30327069,0.74050477
5e627e9d93cdd8000a498bbf,88,1,2024-02-27T09:51:04.205Z,french_674.wav,0,poule,797,32,4,5,Francais,f,0,0.0,36.8658398,0.63817569
5e627e9d93cdd8000a498bbf,88,1,2024-02-27T09:51:04.205Z,french_674.wav,0,poule,797,32,4,5,Francais,f,1,0.1,-70.55199619,1.9135219
5e627e9d93cdd8000a498bbf,88,1,2024-02-27T09:51:04.205Z,french_674.wav,0,poule,797,32,4,5,Francais,f,2,0.2,-3.70121723,1.96782527
5e627e9d93cdd8000a498bbf,88,1,2024-02-27T09:51:04.205Z,french_674.wav,0,poule,797,32,4,5,Francais,f,3,0.25666667,30.12615154,0.86862342
5e627e9d93cdd8000a498bbf,89,1,2024-02-27T09:51:04.205Z,french_586.wav,0,poule,316,32,4,5,Francais,f,0,0.0,86.96734506,0.62271677
5e627e9d93cdd8000a498bbf,89,1,2024-02-27T09:51:04.205Z,french_586.wav,0,poule,316,32,4,5,Francais,f,1,0.1,-8.603444,1.69916535
5e627e9d93cdd8000a498bbf,89,1,2024-02-27T09:51:04.205Z,french_586.wav,0,poule,316,32,4,5,Francais,f,2,0.2,11.78169212,1.65961944
5e627e9d93cdd8000a498bbf,89,1,2024-02-27T09:51:04.205Z,french_586.wav,0,poule,316,32,4,5,Francais,f,3,0.25666667,14.18547806,1.90120182
5e627e9d93cdd8000a498bbf,90,1,2024-02-27T09:51:04.205Z,french_787.wav,0,poule,372,32,4,5,Francais,f,0,0.0,-96.56930436,0.95025141
5e627e9d93cdd8000a498bbf,90,1,2024-02-27T09:51:04.205Z,french_787.wav,0,poule,372,32,4,5,Francais,f,1,0.1,-14.18878177,1.10577547
5e627e9d93cdd8000a498bbf,90,1,2024-02-27T09:51:04.205Z,french_787.wav,0,poule,372,32,4,5,Francais,f,2,0.2,-34.79884993,0.4132657
5e627e9d93cdd8000a498bbf,90,1,2024-02-27T09:51:04.205Z,french_787.wav,0,poule,372,32,4,5,Francais,f,3,0.25666667,-70.75211023,0.64958401
5e627e9d93cdd8000a498bbf,91,1,2024-02-27T09:51:04.205Z,french_266.wav,0,poule,358,32,4,5,Francais,f,0,0.0,58.27883453,0.79886668
5e627e9d93cdd8000a498bbf,91,1,2024-02-27T09:51:04.205Z,french_266.wav,0,poule,358,32,4,5,Francais,f,1,0.1,-28.04411439,1.49488383
5e627e9d93cdd8000a498bbf,91,1,2024-02-27T09:51:04.205Z,french_266.wav,0,poule,358,32,4,5,Francais,f,2,0.2,-38.46127027,0.15170522
5e627e9d93cdd8000a498bbf,91,1,2024-02-27T09:51:04.205Z,french_266.wav,0,poule,358,32,4,5,Francais,f,3,0.25666667,-84.67234247,1.57053192
5e627e9d93cdd8000a498bbf,92,1,2024-02-27T09:51:04.205Z,french_48.wav,0,poule,267,32,4,5,Francais,f,0,0.0,39.79198264,1.78905862
5e627e9d93cdd8000a498bbf,92,1,2024-02-27T09:51:04.205Z,french_48.wav,0,poule,267,32,4,5,Francais,f,1,0.1,66.47948286,1.41226809
5e627e9d93cdd8000a498bbf,92,1,2024-02-27T09:51:04.205Z,french_48.wav,0,poule,267,32,4,5,Francais,f,2,0.2,57.39946228,1.54721415
5e627e9d93cdd8000a498bbf,92,1,2024-02-27T09:51:04.205Z,french_48.wav,0,poule,267,32,4,5,Francais,f,3,0.25666667,-39.27972342,0.33574946
5e627e9d93cdd8000a498bbf,93,1,2024-02-27T09:51:04.205Z,french_177.wav,0,poule,447,32,4,5,Francais,f,0,0.0,-69.89314337,1.41470617
5e627e9d93cdd8000a498bbf,93,1,2024-02-27T09:51:04.205Z,french_177.wav,0,poule,447,32,4,5,Francais,f,1,0.1,8.10824913,0.24806543
5e627e9d93cdd8000a498bbf,93,1,2024-02-27T09:51:04.205Z,french_177.wav,0,poule,447,32,4,5,Francais,f,2,0.2,41.02901981,1.01013957
5e627e9d93cdd8000a498bbf,93,1,2024-02-27T09:51:04.205Z,french_177.wav,0,poule,447,32,4,5,Francais,f,3,0.25666667,-9.46888932,0.18165289
5e627e9d93cdd8000a498bbf,94,1,2024-02-27T09:51:04.205Z,french_185.wav,0,poule,195,32,4,5,Francais,f,0,0.0,61.04894301,1.56575395
5e627e9d93cdd8000a498bbf,94,1,2024-02-27T09:51:04.205Z,french_185.wav,0,poule,195,32,4,5,Francais,f,1,0.1,4.55457692,1.97883698
5e627e9d93cdd8000a498bbf,94,1,2024-02-27T09:51:04.205Z,french_185.wav,0,poule,195,32,4,5,Francais,f,2,0.2,51.77529612,1.92093932
5e627e9d93cdd8000a498bbf,94,1,2024-02-27T09:51:04.205Z,french_185.wav,0,poule,195,32,4,5,Francais,f,3,0.25666667,-22.06501589,0.68389876
5e627e9d93cdd8000a498bbf,95,1,2024-02-27T09:51:04.205Z,french_959.wav,0,poule,385,32,4,5,Francais,f,0,0.0,-92.66274659,1.46575448
5e627e9d93cdd8000a498bbf,95,1,2024-02-27T09:51:04.205Z,french_959.wav,0,poule,385,32,4,5,Francais,f,1,0.1,10.27191584,1.6425047
5e627e9d93cdd8000a498bbf,95,1,2024-02-27T09:51:04.205Z,french_959.wav,0,poule,385,32,4,5,Francais,f,2,0.2,-51.62824615,0.28117244
5e627e9d93cdd8000a498bbf,95,1,2024-02-27T09:51:04.205Z,french_959.wav,0,poule,385,32,4,5,Francais,f,3,0.25666667,-30.4370249,1.68634793
5e627e9d93cdd8000a498bbf,96,1,2024-02-27T09:51:04.205Z,french_35.wav,0,poule,435,32,4,5,Francais,f,0,0.0,-91.9197252,1.92941129
5e627e9d93cdd8000a498bbf,96,1,2024-02-27T09:51:04.205Z,french_35.wav,0,poule,435,32,4,5,Francais,f,1,0.1,-51.10479589,1.66263878
5e627e9d93cdd8000a498bbf,96,1,2024-02-27T09:51:04.205Z,french_35.wav,0,poule,435,32,4,5,Francais,f,2,0.2,-15.74458639,0.60493147
5e627e9d93cdd8000a498bbf,96,1,2024-02-27T09:51:04.205Z,french_35.wav,0,poule,435,32,4,5,Francais,f,3,0.25666667,-11.36352661,1.17557979
5e627e9d93cdd8000a498bbf,97,1,2024-02-27T09:51:04.205Z,french_201.wav,0,poule,781,32,4,5,Francais,f,0,0.0,8.42387769,1.26451206
5e627e9d93cdd8000a498bbf,97,1,2024-02-27T09:51:04.205Z,french_201.wav,0,poule,781,32,4,5,Francais,f,1,0.1,8.12168757,1.63493769
5e627e9d93cdd8000a498bbf,97,1,2024-02-27T09:51:04.205Z,french_201.wav,0,poule,781,32,4,5,Francais,f,2,0.2,-23.47755607,1.48075017
5e627e9d93cdd8000a498bbf,97,1,2024-02-27T09:51:04.205Z,french_201.wav,0,poule,781,32,4,5,Francais,f,3,0.25666667,-30.65193461,1.0984385
5e627e9d93cdd8000a498bbf,98,1,2024-02-27T09:51:04.205Z,french_191.wav,0,poule,548,32,4,5,Francais,f,0,0.0,61.70033847,1.87867126
5e627e9d93cdd8000a498bbf,98,1,2024-02-27T09:51:04.205Z,french_191.wav,0,poule,548,32,4,5,Francais,f,1,0.1,-19.77100541,0.40395676
5e627e9d93cdd8000a498bbf,98,1,2024-02-27T09:51:04.205Z,french_191.wav,0,poule,548,32,4,5,Francais,f,2,0.2,-44.48193137,1.14362057
5e627e9d93cdd8000a498bbf,98,1,2024-02-27T09:51:04.205Z,french_191.wav,0,poule,548,32,4,5,Francais,f,3,0.25666667,-92.19007218,1.68692384
5e627e9d93cdd8000a498bbf,99,1,2024-02-27T09:51:04.205Z,french_858.wav,0,pull,749,32,4,5,Francais,f,0,0.0,-70.8749608,0.88986318
5e627e9d93cdd8000a498bbf,99,1,2024-02-27T09:51:04.205Z,french_858.wav,0,pull,749,32,4,5,Francais,f,1,0.1,-68.92821451,0.34092676
5e627e9d93cdd8000a498bbf,99,1,2024-02-27T09:51:04.205Z,french_858.wav,0,pull,749,32,4,5,Francais,f,2,0.2,48.1063746,0.38776381
5e627e9d93cdd8000a498bbf,99,1,2024-02-27T09:51:04.205Z,french_858.wav,0,pull,749,32,4,5,Francais,f,3,0.25666667,0.98463207,1.26771376
5e627e9d93cdd8000a498bbf,100,2,2024-02-27T09:51:04.205Z,french_678.wav,0,pull,917,32,4,5,Francais,f,0,0.0,8.99494286,0.31277465
5e627e9d93cdd8000a498bbf,100,2,2024-02-27T09:51:04.205Z,french_678.wav,0,pull,917,32,4,5,Francais,f,1,0.1,56.3447022,0.04822955
5e627e9d93cdd8000a498bbf,100,2,2024-02-27T09:51:04.205Z,french_678.wav,0,pull,917,32,4,5,Francais,f,2,0.2,-85.36803825,0.03738606
5e627e9d93cdd8000a498bbf,100,2,2024-02-27T09:51:04.205Z,french_678.wav,0,pull,917,32,4,5,Francais,f,3,0.25666667,-65.39277698,1.60364947
5e627e9d93cdd8000a498bbf,101,2,2024-02-27T09:51:04.205Z,french_537.wav,0,poule,385,32,4,5,Francais,f,0,0.0,24.94182708,0.83905816
5e627e9d93cdd8000a498bbf,101,2,2024-02-27T09:51:04.205Z,french_537.wav,0,poule,385,32,4,5,Francais,f,1,0.1,44.89034985,0.4078644
5e627e9d93cdd8000a498bbf,101,2,2024-02-27T09:51:04.205Z,french_537.wav,0,poule,385,32,4,5,Francais,f,2,0.2,79.4977598,1.66123527
5e627e9d93cdd8000a498bbf,101,2,2024-02-27T09:51:04.205Z,french_537.wav,0,poule,385,32,4,5,Francais,f,3,0.25666667,43.46988515,0.90238518
5e627e9d93cdd8000a498bbf,102,2,2024-02-27T09:51:04.205Z,french_718.wav,0,poule,497,32,4,5,Francais,f,0,0.0,60.10154263,0.48894908
5e627e9d93cdd8000a498bbf,102,2,2024-02-27T09:51:04.205Z,french_718.wav,0,poule,497,32,4,5,Francais,f,1,0.1,11.66591821,1.65193902
5e627e9d93cdd8000a498bbf,102,2,2024-02-27T09:51:04.205Z,french_718.wav,0,poule,497,32,4,5,Francais,f,2,0.2,18.23831634,1.63024081
5e627e9d93cdd8000a498bbf,102,2,2024-02-27T09:51:04.205Z,french_718.wav,0,poule,497,32,4,5,Francais,f,3,0.25666667,-0.86268038,0.33166429
5e627e9d93cdd8000a498bbf,103,2,2024-02-27T09:51:04.205Z,french_526.wav,0,poule,262,32,4,5,Francais,f,0,0.0,88.08406442,1.10890049
5e627e9d93cdd8000a498bbf,103,2,2024-02-27T09:51:04.205Z,french_526.wav,0,poule,262,32,4,5,Francais,f,1,0.1,34.72799638,1.05741796
5e627e9d93cdd8000a498bbf,103,2,2024-02-27T09:51:04.205Z,french_526.wav,0,poule,262,32,4,5,Francais,f,2,0.2,4.2178472,1.4706377
5e627e9d93cdd8000a498bbf,103,2,2024-02-27T09:51:04.205Z,french_526.wav,0,poule,262,32,4,5,Francais,f,3,0.25666667,90.74946068,0.12061003
5e627e9d93cdd8000a498bbf,104,2,2024-02-27T09:51:04.205Z,french_234.wav,0,poule,334,32,4,5,Francais,f,0,0.0,40.80444991,0.6735757
5e627e9d93cdd8000a498bbf,104,2,2024-02-27T09:51:04.205Z,french_234.wav,0,poule,334,32,4,5,Francais,f,1,0.1,-12.8326651,0.4328315
5e627e9d93cdd8000a498bbf,104,2,2024-02-27T09:51:04.205Z,french_234.wav,0,poule,334,32,4,5,Francais,f,2,0.2,35.77292413,1.793606
5e627e9d93cdd8000a498bbf,104,2,2024-02-27T09:51:04.205Z,french_234.wav,0,poule,334,32,4,5,Francais,f,3,0.25666667,70.48005605,0.88572041
5e627e9d93cdd8000a498bbf,105,2,2024-02-27T09:51:04.205Z,french_669.wav,0,pull,574,32,4,5,Francais,f,0,0.0,0.0785638242,1.32851713
5e627e9d93cdd8000a498bbf,105,2,2024-02-27T09:51:04.205Z,french_669.wav,0,pull,574,32,4,5,Francais,f,1,0.1,6.42084207,1.65603836
5e627e9d93cdd8000a498bbf,105,2,2024-02-27T09:51:04.205Z,french_669.wav,0,pull,574,32,4,5,Francais,f,2,0.2,84.3922519,1.32676382
5e627e9d93cdd8000a498bbf,105,2,2024-02-27T09:51:04.205Z,french_669.wav,0,pull,574,32,4,5,Francais,f,3,0.256666667,1.87399725,0.80161972
5e627e9d93cdd8000a498bbf,106,2,2024-02-27T09:51:04.205Z,french_389.wav,0,pull,504,32,4,5,Francais,f,0,0.0,69.62296415,1.67675408
5e627e9d93cdd8000a498bbf,106,2,2024-02-27T09:51:04.205Z,french_389.wav,0,pull,504,32,4,5,Francais,f,1,0.1,-41.49433877,1.60540147
5e627e9d93cdd8000a498bbf,106,2,2024-02-27T09:51:04.205Z,french_389.wav,0,pull,504,32,4,5,Francais,f,2,0.2,-65.025051,0.45817867
5e627e9d93cdd8000a498bbf,106,2,2024-02-27T09:51:04.205Z,french_389.wav,0,pull,504,32,4,5,Francais,f,3,0.25666667,10.9117334,1.10562968
5e627e9d93cdd8000a498bbf,107,2,2024-02-27T09:51:04.205Z,french_885.wav,0,poule,337,32,4,5,Francais,f,0,0.0,33.82264354,0.94046277
5e627e9d93cdd8000a498bbf,107,2,2024-02-27T09:51:04.205Z,french_885.wav,0,poule,337,32,4,5,Francais,f,1,0.1,-17.07734064,0.79714646
5e627e9d93cdd8000a498bbf,107,2,2024-02-27T09:51:04.205Z,french_885.wav,0,poule,337,32,4,5,Francais,f,2,0.2,-15.93967404,1.26873891
5e627e9d93cdd8000a498bbf,107,2,2024-02-27T09:51:04.205Z,french_885.wav,0,poule,337,32,4,5,Francais,f,3,0.25666667,58.67746901,1.69592015
5e627e9d93cdd8000a498bbf,108,2,2024-02-27T09:51:04.205Z,french_530.wav,0,poule,347,32,4,5,Francais,f,0,0.0,-48.266975,0.22885815
5e627e9d93cdd8000a498bbf,108,2,2024-02-27T09:51:04.205Z,french_530.wav,0,poule,347,32,4,5,Francais,f,1,0.1,10.53522492,0.99708564
5e627e9d93cdd8000a498bbf,108,2,2024-02-27T09:51:04.205Z,french_530.wav,0,poule,347,32,4,5,Francais,f,2,0.2,-70.81391458,0.43471164
5e627e9d93cdd8000a498bbf,108,2,2024-02-27T09:51:04.205Z,french_530.wav,0,poule,347,32,4,5,Francais,f,3,0.25666667,-13.69241617,0.61022423
5e627e9d93cdd8000a498bbf,109,2,2024-02-27T09:51:04.205Z,french_82.wav,0,poule,364,32,4,5,Francais,f,0,0.0,82.26293442,0.95636636
5e627e9d93cdd8000a498bbf,109,2,2024-02-27T09:51:04.205Z,french_82.wav,0,poule,364,32,4,5,Francais,f,1,0.1,-13.98955844,0.8765529
5e627e9d93cdd8000a498bbf,109,2,2024-02-27T09:51:04.205Z,french_82.wav,0,poule,364,32,4,5,Francais,f,2,0.2,44.8739745,0.75785774
5e627e9d93cdd8000a498bbf,109,2,2024-02-27T09:51:04.205Z,french_82.wav,0,poule,364,32,4,5,Francais,f,3,0.25666667,23.31967993,0.26363467
5e627e9d93cdd8000a498bbf,110,2,2024-02-27T09:51:04.205Z,french_448.wav,0,poule,556,32,4,5,Francais,f,0,0.0,31.66119151,0.87276462
5e627e9d93cdd8000a498bbf,110,2,2024-02-27T09:51:04.205Z,french_448.wav,0,poule,556,32,4,5,Francais,f,1,0.1,20.17093967,1.08469616
5e627e9d93cdd8000a498bbf,110,2,2024-02-27T09:51:04.205Z,french_448.wav,0,poule,556,32,4,5,Francais,f,2,0.2,-46.84568686,1.99629221
5e627e9d93cdd8000a498bbf,110,2,2024-02-27T09:51:04.205Z,french_448.wav,0,poule,556,32,4,5,Francais,f,3,0.25666667,10.399138,0.44449425
5e627e9d93cdd8000a498bbf,111,2,2024-02-27T09:51:04.205Z,french_53.wav,0,poule,246,32,4,5,Francais,f,0,0.0,-2.35814843,1.83928924
5e627e9d93cdd8000a498bbf,111,2,2024-02-27T09:51:04.205Z,french_53.wav,0,poule,246,32,4,5,Francais,f,1,0.1,-48.73544303,0.78912936
5e627e9d93cdd8000a498bbf,111,2,2024-02-27T09:51:04.205Z,french_53.wav,0,poule,246,32,4,5,Francais,f,2,0.2,38.27016364,0.60668558
5e627e9d93cdd8000a498bbf,111,2,2024-02-27T09:51:04.205Z,french_53.wav,0,poule,246,32,4,5,Francais,f,3,0.25666667,-31.96265424,0.83130548
5e627e9d93cdd8000a498bbf,112,2,2024-02-27T09:51:04.205Z,french_71.wav,0,poule,350,32,4,5,Francais,f,0,0.0,-97.29707499,0.6163898
5e627e9d93cdd8000a498bbf,112,2,2024-02-27T09:51:04.205Z,french_71.wav,0,poule,350,32,4,5,Francais,f,1,0.1,41.74238765,1.06775198
5e627e9d93cdd8000a498bbf,112,2,2024-02-27T09:51:04.205Z,french_71.wav,0,poule,350,32,4,5,Francais,f,2,0.2,-91.89336592,1.31906527
5e627e9d93cdd8000a498bbf,112,2,2024-02-27T09:51:04.205Z,french_71.wav,0,poule,350,32,4,5,Francais,f,3,0.25666667,53.06515209,0.58556407
5e627e9d93cdd8000a498bbf,113,2,2024-02-27T09:51:04.205Z,french_271.wav,0,poule,334,32,4,5,Francais,f,0,0.0,-86.49285917,1.06522616
5e627e9d93cdd8000a498bbf,113,2,2024-02-27T09:51:04.205Z,french_271.wav,0,poule,334,32,4,5,Francais,f,1,0.1,54.15727338,1.2372135
5e627e9d93cdd8000a498bbf,113,2,2024-02-27T09:51:04.205Z,french_271.wav,0,poule,334,32,4,5,Francais,f,2,0.2,-55.0986676,1.00925168
5e627e9d93cdd8000a498bbf,113,2,2024-02-27T09:51:04.205Z,french_271.wav,0,poule,334,32,4,5,Francais,f,3,0.25666667,7.9559813,0.76785851
5e627e9d93cdd8000a498bbf,114,2,2024-02-27T09:51:04.205Z,french_753.wav,0,poule,220,32,4,5,Francais,f,0,0.0,-59.12708259,1.15236918
5e627e9d93cdd8000a498bbf,114,2,2024-02-27T09:51:04.205Z,french_753.wav,0,poule,220,32,4,5,Francais,f,1,0.1,-84.15149344,1.24278656
5e627e9d93cdd8000a498bbf,114,2,2024-02-27T09:51:04.205Z,french_753.wav,0,poule,220,32,4,5,Francais,f,2,0.2,-30.31197396,0.56738218
5e627e9d93cdd8000a498bbf,114,2,2024-02-27T09:51:04.205Z,french_753.wav,0,poule,220,32,4,5,Francais,f,3,0.25666667,-23.11550189,0.65045955
5e627e9d93cdd8000a498bbf,115,2,2024-02-27T09:51:04.205Z,french_802.wav,0,poule,218,32,4,5,Francais,f,0,0.0,-73.24347689,0.39190156
5e627e9d93cdd8000a498bbf,115,2,2024-02-27T09:51:04.205Z,french_802.wav,0,poule,218,32,4,5,Francais,f,1,0.1,14.85977478,1.18064228
5e627e9d93cdd8000a498bbf,115,2,2024-02-27T09:51:04.205Z,french_802.wav,0,poule,218,32,4,5,Francais,f,2,0.2,-45.72901481,1.4654249
5e627e9d93cdd8000a498bbf,115,2,2024-02-27T09:51:04.205Z,french_802.wav,0,poule,218,32,4,5,Francais,f,3,0.25666667,-78.69015161,0.6030906
5e627e9d93cdd8000a498bbf,116,2,2024-02-27T09:51:04.205Z,french_131.wav,0,poule,198,32,4,5,Francais,f,0,0.0,55.95469812,0.7326606
5e627e9d93cdd8000a498bbf,116,2,2024-02-27T09:51:04.205Z,french_131.wav,0,poule,198,32,4,5,Francais,f,1,0.1,-96.48122085,0.77747938
5e627e9d93cdd8000a498bbf,116,2,2024-02-27T09:51:04.205Z,french_131.wav,0,poule,198,32,4,5,Francais,f,2,0.2,-45.26115565,1.02132862
5e627e9d93cdd8000a498bbf,116,2,2024-02-27T09:51:04.205Z,french_131.wav,0,poule,198,32,4,5,Francais,f,3,0.25666667,97.10583427,0.34109041
5e627e9d93cdd8000a498bbf,117,2,2024-02-27T09:51:04.205Z,french_649.wav,0,pull,1222,32,4,5,Francais,f,0,0.0,-26.84796804,0.38564107
5e627e9d93cdd8000a498bbf,117,2,2024-02-27T09:51:04.205Z,french_649.wav,0,pull,1222,32,4,5,Francais,f,1,0.1,90.50092835,0.07645681
5e627e9d93cdd8000a498bbf,117,2,2024-02-27T09:51:04.205Z,french_649.wav,0,pull,1222,32,4,5,Francais,f,2,0.2,-42.32642697,0.18898029
5e627e9d93cdd8000a498bbf,117,2,2024-02-27T09:51:04.205Z,french_649.wav,0,pull,1222,32,4,5,Francais,f,3,0.25666667,-6.05454316,0.88659006
5e627e9d93cdd8000a498bbf,118,2,2024-02-27T09:51:04.205Z,french_252.wav,0,poule,374,32,4,5,Francais,f,0,0.0,-68.3996329,0.41781817
5e627e9d93cdd8000a498bbf,118,2,2024-02-27T09:51:04.205Z,french_252.wav,0,poule,374,32,4,5,Francais,f,1,0.1,79.02734002,1.03502761
5e627e9d93cdd8000a498bbf,118,2,2024-02-27T09:51:04.205Z,french_252.wav,0,poule,374,32,4,5,Francais,f,2,0.2,-18.50805447,0.82044901
5e627e9d93cdd8000a498bbf,118,2,2024-02-27T09:51:04.205Z,french_252.wav,0,poule,374,32,4,5,Francais,f,3,0.25666667,-85.84066145,1.09163249
5e627e9d93cdd8000a498bbf,119,2,2024-02-27T09:51:04.205Z,french_696.wav,0,poule,301,32,4,5,Francais,f,0,0.0,39.34258856,1.15492287
5e627e9d93cdd8000a498bbf,119,2,2024-02-27T09:51:04.205Z,french_696.wav,0,poule,301,32,4,5,Francais,f,1,0.1,16.85699936,0.81118798
5e627e9d93cdd8000a498bbf,119,2,2024-02-27T09:51:04.205Z,french_696.wav,0,poule,301,32,4,5,Francais,f,2,0.2,-58.01570434,0.43841119
5e627e9d93cdd8000a498bbf,119,2,2024-02-27T09:51:04.205Z,french_696.wav,0,poule,301,32,4,5,Francais,f,3,0.25666667,-91.70212518,1.32812972
5e627e9d93cdd8000a498bbf,120,2,2024-02-27T09:51:04.205Z,french_686.wav,0,poule,404,32,4,5,Francais,f,0,0.0,20.49516986,1.86861476
5e627e9d93cdd8000a498bbf,120,2,2024-02-27T09:51:04.205Z,french_686.wav,0,poule,404,32,4,5,Francais,f,1,0.1,27.4040505,1.87689714
5e627e9d93cdd8000a498bbf,120,2,2024-02-27T09:51:04.205Z,french_686.wav,0,poule,404,32,4,5,Francais,f,2,0.2,31.96095965,0.80940067
5e627e9d93cdd8000a498bbf,120,2,2024-02-27T09:51:04.205Z,french_686.wav,0,poule,404,32,4,5,Francais,f,3,0.25666667,61.08066052,0.04075967
5e627e9d93cdd8000a498bbf,121,2,2024-02-27T09:51:04.205Z,french_815.wav,0,poule,496,32,4,5,Francais,f,0,0.0,-30.97778369,1.45421986
5e627e9d93cdd8000a498bbf,121,2,2024-02-27T09:51:04.205Z,french_815.wav,0,poule,496,32,4,5,Francais,f,1,0.1,-10.3506413,0.28044698
5e627e9d93cdd8000a498bbf,121,2,2024-02-27T09:51:04.205Z,french_815.wav,0,poule,496,32,4,5,Francais,f,2,0.2,61.86726268,1.88309962
5e627e9d93cdd8000a498bbf,121,2,2024-02-27T09:51:04.205Z,french_815.wav,0,poule,496,32,4,5,Francais,f,3,0.25666667,-32.12586702,1.86356454
5e627e9d93cdd8000a498bbf,122,2,2024-02-27T09:51:04.205Z,french_752.wav,0,poule,972,32,4,5,Francais,f,0,0.0,-49.05511086,0.41123153
5e627e9d93cdd8000a498bbf,122,2,2024-02-27T09:51:04.205Z,french_752.wav,0,poule,972,32,4,5,Francais,f,1,0.1,68.97169656,0.36604045
5e627e9d93cdd8000a498bbf,122,2,2024-02-27T09:51:04.205Z,french_752.wav,0,poule,972,32,4,5,Francais,f,2,0.2,35.56747744,0.22184937
5e627e9d93cdd8000a498bbf,122,2,2024-02-27T09:51:04.205Z,french_752.wav,0,poule,972,32,4,5,Francais,f,3,0.25666667,3.91641015,1.3158831
5e627e9d93cdd8000a498bbf,123,2,2024-02-27T09:51:04.205Z,french_850.wav,0,poule,324,32,4,5,Francais,f,0,0.0,-88.87179188,0.91597825
5e627e9d93cdd8000a498bbf,123,2,2024-02-27T09:51:04.205Z,french_850.wav,0,poule,324,32,4,5,Francais,f,1,0.1,15.70736636,0.21425776
5e627e9d93cdd8000a498bbf,123,2,2024-02-27T09:51:04.205Z,french_850.wav,0,poule,324,32,4,5,Francais,f,2,0.2,67.7730952,1.52338939
5e627e9d93cdd8000a498bbf,123,2,2024-02-27T09:51:04.205Z,french_850.wav,0,poule,324,32,4,5,Francais,f,3,0.25666667,-20.3872908,0.55241946
5e627e9d93cdd8000a498bbf,124,2,2024-02-27T09:51:04.205Z,french_529.wav,0,poule,383,32,4,5,Francais,f,0,0.0,54.97727121,0.19662293
5e627e9d93cdd8000a498bbf,124,2,2024-02-27T09:51:04.205Z,french_529.wav,0,poule,383,32,4,5,Francais,f,1,0.1,-15.05833494,1.39103506
5e627e9d93cdd8000a498bbf,124,2,2024-02-27T09:51:04.205Z,french_529.wav,0,poule,383,32,4,5,Francais,f,2,0.2,4.35581279,0.62492467
5e627e9d93cdd8000a498bbf,124,2,2024-02-27T09:51:04.205Z,french_529.wav,0,poule,383,32,4,5,Francais,f,3,0.25666667,-47.03433584,1.10830727
5e627e9d93cdd8000a498bbf,125,2,2024-02-27T09:51:04.205Z,french_354.wav,0,pull,400,32,4,5,Francais,f,0,0.0,-52.94558073,1.79880208
5e627e9d93cdd8000a498bbf,125,2,2024-02-27T09:51:04.205Z,french_354.wav,0,pull,400,32,4,5,Francais,f,1,0.1,92.39955521,1.0939287
5e627e9d93cdd8000a498bbf,125,2,2024-02-27T09:51:04.205Z,french_354.wav,0,pull,400,32,4,5,Francais,f,2,0.2,-42.31606849,0.57130202
5e627e9d93cdd8000a498bbf,125,2,2024-02-27T09:51:04.205Z,french_354.wav,0,pull,400,32,4,5,Francais,f,3,0.25666667,97.06976377,1.82278353
5e627e9d93cdd8000a498bbf,126,2,2024-02-27T09:51:04.205Z,french_971.wav,0,poule,724,32,4,5,Francais,f,0,0.0,96.00351489,1.9961872
5e627e9d93cdd8000a498bbf,126,2,2024-02-27T09:51:04.205Z,french_971.wav,0,poule,724,32,4,5,Francais,f,1,0.1,-55.9328558,0.96234699
5e627e9d93cdd8000a498bbf,126,2,2024-02-27T09:51:04.205Z,french_971.wav,0,poule,724,32,4,5,Francais,f,2,0.2,-62.43027521,1.29823686
5e627e9d93cdd8000a498bbf,126,2,2024-02-27T09:51:04.205Z,french_971.wav,0,poule,724,32,4,5,Francais,f,3,0.25666667,67.10785382,1.44437919
5e627e9d93cdd8000a498bbf,127,2,2024-02-27T09:51:04.205Z,french_700.wav,0,poule,390,32,4,5,Francais,f,0,0.0,27.78595998,1.84943535
5e627e9d93cdd8000a498bbf,127,2,2024-02-27T09:51:04.205Z,french_700.wav,0,poule,390,32,4,5,Francais,f,1,0.1,-29.96160528,0.52483958
5e627e9d93cdd8000a498bbf,127,2,2024-02-27T09:51:04.205Z,french_700.wav,0,poule,390,32,4,5,Francais,f,2,0.2,60.6733782,0.55672926
5e627e9d93cdd8000a498bbf,127,2,2024-02-27T09:51:04.205Z,french_700.wav,0,poule,390,32,4,5,Francais,f,3,0.25666667,39.12324738,0.96842636
5e627e9d93cdd8000a498bbf,128,2,2024-02-27T09:51:04.205Z,french_519.wav,0,poule,337,32,4,5,Francais,f,0,0.0,86.76456043,1.09635868
5e627e9d93cdd8000a498bbf,128,2,2024-02-27T09:51:04.205Z,french_519.wav,0,poule,337,32,4,5,Francais,f,1,0.1,8.46145491,1.19136691
5e627e9d93cdd8000a498bbf,128,2,2024-02-27T09:51:04.205Z,french_519.wav,0,poule,337,32,4,5,Francais,f,2,0.2,-48.6822419,1.7889624
5e627e9d93cdd8000a498bbf,128,2,2024-02-27T09:51:04.205Z,french_519.wav,0,poule,337,32,4,5,Francais,f,3,0.25666667,-44.03350662,1.1754675
5e627e9d93cdd8000a498bbf,129,2,2024-02-27T09:51:04.205Z,french_69.wav,0,poule,643,32,4,5,Francais,f,0,0.0,-60.6968374,1.40310832
5e627e9d93cdd8000a498bbf,129,2,2024-02-27T09:51:04.205Z,french_69.wav,0,poule,643,32,4,5,Francais,f,1,0.1,-13.66133732,0.07324596
5e627e9d93cdd8000a498bbf,129,2,2024-02-27T09:51:04.205Z,french_69.wav,0,poule,643,32,4,5,Francais,f,2,0.2,-49.05218158,0.92091935
5e627e9d93cdd8000a498bbf,129,2,2024-02-27T09:51:04.205Z,french_69.wav,0,poule,643,32,4,5,Francais,f,3,0.25666667,-62.82393396,0.56730757
5e627e9d93cdd8000a498bbf,130,2,2024-02-27T09:51:04.205Z,french_747.wav,0,pull,728,32,4,5,Francais,f,0,0.0,81.67289695,0.03581997
5e627e9d93cdd8000a498bbf,130,2,2024-02-27T09:51:04.205Z,french_747.wav,0,pull,728,32,4,5,Francais,f,1,0.1,-95.51692527,0.40356434
5e627e9d93cdd8000a498bbf,130,2,2024-02-27T09:51:04.205Z,french_747.wav,0,pull,728,32,4,5,Francais,f,2,0.2,8.63144179,0.58773385
5e627e9d93cdd8000a498bbf,130,2,2024-02-27T09:51:04.205Z,french_747.wav,0,pull,728,32,4,5,Francais,f,3,0.25666667,-85.56554801,1.10376778
5e627e9d93cdd8000a498bbf,131,2,2024-02-27T09:51:04.205Z,french_895.wav,0,pull,896,32,4,5,Francais,f,0,0.0,52.32100115,0.06001912
5e627e9d93cdd8000a498bbf,131,2,2024-02-27T09:51:04.205Z,french_895.wav,0,pull,896,32,4,5,Francais,f,1,0.1,-68.39097894,0.92594104
5e627e9d93cdd8000a498bbf,131,2,2024-02-27T09:51:04.205Z,french_895.wav,0,pull,896,32,4,5,Francais,f,2,0.2,86.56169168,1.18275101
5e627e9d93cdd8000a498bbf,131,2,2024-02-27T09:51:04.205Z,french_895.wav,0,pull,896,32,4,5,Francais,f,3,0.25666667,-55.69575084,0.90868208
5e627e9d93cdd8000a498bbf,132,2,2024-02-27T09:51:04.205Z,french_447.wav,0,poule,314,32,4,5,Francais,f,0,0.0,-15.50115845,0.77909013
5e627e9d93cdd8000a498bbf,132,2,2024-02-27T09:51:04.205Z,french_447.wav,0,poule,314,32,4,5,Francais,f,1,0.1,-4.86998407,1.31519509
5e627e9d93cdd8000a498bbf,132,2,2024-02-27T09:51:04.205Z,french_447.wav,0,poule,314,32,4,5,Francais,f,2,0.2,-86.84595189,1.40793423
5e627e9d93cdd8000a498bbf,132,2,2024-02-27T09:51:04.205Z,french_447.wav,0,poule,314,32,4,5,Francais,f,3,0.25666667,-28.81346371,0.16835643
5e627e9d93cdd8000a498bbf,133,2,2024-02-27T09:51:04.205Z,french_474.wav,0,poule,1475,32,4,5,Francais,f,0,0.0,94.09836303,0.01406103
5e627e9d93cdd8000a498bbf,133,2,2024-02-27T09:51:04.205Z,french_474.wav,0,poule,1475,32,4,5,Francais,f,1,0.1,43.08248712,1.41739343
5e627e9d93cdd8000a498bbf,133,2,2024-02-27T09:51:04.205Z,french_474.wav,0,poule,1475,32,4,5,Francais,f,2,0.2,-98.14389097,1.7994516
5e627e9d93cdd8000a498bbf,133,2,2024-02-27T09:51:04.205Z,french_474.wav,0,poule,1475,32,4,5,Francais,f,3,0.25666667,-80.28643924,0.15166218
5e627e9d93cdd8000a498bbf,134,2,2024-02-27T09:51:04.205Z,french_692.wav,0,pull,1330,32,4,5,Francais,f,0,0.0,-30.56073905,0.00354931
5e627e9d93cdd8000a498bbf,134,2,2024-02-27T09:51:04.205Z,french_692.wav,0,pull,1330,32,4,5,Francais,f,1,0.1,67.72997498,1.79271885
5e627e9d93cdd8000a498bbf,134,2,2024-02-27T09:51:04.205Z,french_692.wav,0,pull,1330,32,4,5,Francais,f,2,0.2,55.48980932,1.35474436
5e627e9d93cdd8000a498bbf,134,2,2024-02-27T09:51:04.205Z,french_692.wav,0,pull,1330,32,4,5,Francais,f,3,0.25666667,99.47423215,1.33636308
5e627e9d93cdd8000a498bbf,135,2,2024-02-27T09:51:04.205Z,french_846.wav,0,poule,1223,32,4,5,Francais,f,0,0.0,70.67693031,1.34255937
5e627e9d93cdd8000a498bbf,135,2,2024-02-27T09:51:04.205Z,french_846.wav,0,poule,1223,32,4,5,Francais,f,1,0.1,-66.50397015,0.4230684
5e627e9d93cdd8000a498bbf,135,2,2024-02-27T09:51:04.205Z,french_846.wav,0,poule,1223,32,4,5,Francais,f,2,0.2,37.81388611,1.53749893
5e627e9d93cdd8000a498bbf,135,2,2024-02-27T09:51:04.205Z,french_846.wav,0,poule,1223,32,4,5,Francais,f,3,0.25666667,-25.90764661,0.57819313
5e627e9d93cdd8000a498bbf,136,2,2024-02-27T09:51:04.205Z,french_357.wav,0,poule,477,32,4,5,Francais,f,0,0.0,-39.34197693,1.60610182
5e627e9d93cdd8000a498bbf,136,2,2024-02-27T09:51:04.205Z,french_357.wav,0,poule,477,32,4,5,Francais,f,1,0.1,71.15894406,0.3952593
5e627e9d93cdd8000a498bbf,136,2,2024-02-27T09:51:04.205Z,french_357.wav,0,poule,477,32,4,5,Francais,f,2,0.2,-59.30154436,0.60654741
5e627e9d93cdd8000a498bbf,136,2,2024-02-27T09:51:04.205Z,french_357.wav,0,poule,477,32,4,5,Francais,f,3,0.25666667,60.48174113,0.43480054
5e627e9d93cdd8000a498bbf,137,2,2024-02-27T09:51:04.205Z,french_89.wav,0,poule,377,32,4,5,Francais,f,0,0.0,-79.59355323,1.69180454
5e627e9d93cdd8000a498bbf,137,2,2024-02-27T09:51:04.205Z,french_89.wav,0,poule,377,32,4,5,Francais,f,1,0.1,-86.9945706,1.08047967
5e627e9d93cdd8000a498bbf,137,2,2024-02-27T09:51:04.205Z,french_89.wav,0,poule,377,32,4,5,Francais,f,2,0.2,81.38410409,1.92177075
5e627e9d93cdd8000a498bbf,137,2,2024-02-27T09:51:04.205Z,french_89.wav,0,poule,377,32,4,5,Francais,f,3,0.25666667,-11.31628481,1.93759104
5e627e9d93cdd8000a498bbf,138,2,2024-02-27T09:51:04.205Z,french_794.wav,0,poule,259,32,4,5,Francais,f,0,0.0,-41.85324617,0.4524196
5e627e9d93cdd8000a498bbf,138,2,2024-02-27T09:51:04.205Z,french_794.wav,0,poule,259,32,4,5,Francais,f,1,0.1,1.64774739,1.94571184
5e627e9d93cdd8000a498bbf,138,2,2024-02-27T09:51:04.205Z,french_794.wav,0,poule,259,32,4,5,Francais,f,2,0.2,-16.9250465,1.39882797
5e627e9d93cdd8000a498bbf,138,2,2024-02-27T09:51:04.205Z,french_794.wav,0,poule,259,32,4,5,Francais,f,3,0.25666667,-47.53807225,0.19962905
5e627e9d93cdd8000a498bbf,139,2,2024-02-27T09:51:04.205Z,french_92.wav,0,poule,265,32,4,5,Francais,f,0,0.0,59.20081487,1.21926368
5e627e9d93cdd8000a498bbf,139,2,2024-02-27T09:51:04.205Z,french_92.wav,0,poule,265,32,4,5,Francais,f,1,0.1,95.6548793,1.56053314
5e627e9d93cdd8000a498bbf,139,2,2024-02-27T09:51:04.205Z,french_92.wav,0,poule,265,32,4,5,Francais,f,2,0.2,-36.19224385,1.38632022
5e627e9d93cdd8000a498bbf,139,2,2024-02-27T09:51:04.205Z,french_92.wav,0,poule,265,32,4,5,Francais,f,3,0.25666667,68.24894855,1.29084252
5e627e9d93cdd8000a498bbf,140,2,2024-02-27T09:51:04.205Z,french_12.wav,0,poule,260,32,4,5,Francais,f,0,0.0,-57.76127346,1.31680682
5e627e9d93cdd8000a498bbf,140,2,2024-02-27T09:51:04.205Z,french_12.wav,0,poule,260,32,4,5,Francais,f,1,0.1,13.80138245,1.40135686
5e627e9d93cdd8000a498bbf,140,2,2024-02-27T09:51:04.205Z,french_12.wav,0,poule,260,32,4,5,Francais,f,2,0.2,70.02389064,0.63152994
5e627e9d93cdd8000a498bbf,140,2,2024-02-27T09:51:04.205Z,french_12.wav,0,poule,260,32,4,5,Francais,f,3,0.25666667,-46.37027392,0.33836826
5e627e9d93cdd8000a498bbf,141,2,2024-02-27T09:51:04.205Z,french_211.wav,0,poule,306,32,4,5,Francais,f,0,0.0,26.09911827,0.38797522
5e627e9d93cdd8000a498bbf,141,2,2024-02-27T09:51:04.205Z,french_211.wav,0,poule,306,32,4,5,Francais,f,1,0.1,37.88219535,0.97106999
5e627e9d93cdd8000a498bbf,141,2,2024-02-27T09:51:04.205Z,french_211.wav,0,poule,306,32,4,5,Francais,f,2,0.2,25.3370042,0.82384696
5e627e9d93cdd8000a498bbf,141,2,2024-02-27T09:51:04.205Z,french_211.wav,0,poule,306,32,4,5,Francais,f,3,0.25666667,-31.50750366,0.88987221
5e627e9d93cdd8000a498bbf,142,2,2024-02-27T09:51:04.205Z,french_880.wav,0,poule,155,32,4,5,Francais,f,0,0.0,34.54343789,1.97652899
5e627e9d93cdd8000a498bbf,142,2,2024-02-27T09:51:04.205Z,french_880.wav,0,poule,155,32,4,5,Francais,f,1,0.1,76.62551814,0.35866047
5e627e9d93cdd8000a498bbf,142,2,2024-02-27T09:51:04.205Z,french_880.wav,0,poule,155,32,4,5,Francais,f,2,0.2,69.99614697,1.49815227
5e627e9d93cdd8000a498bbf,142,2,2024-02-27T09:51:04.205Z,french_880.wav,0,poule,155,32,4,5,Francais,f,3,0.25666667,-97.30266151,1.92878763
5e627e9d93cdd8000a498bbf,143,2,2024-02-27T09:51:04.205Z,french_524.wav,0,poule,112,32,4,5,Francais,f,0,0.0,29.26114001,1.50805134
5e627e9d93cdd8000a498bbf,143,2,2024-02-27T09:51:04.205Z,french_524.wav,0,poule,112,32,4,5,Francais,f,1,0.1,51.10918927,1.00551207
5e627e9d93cdd8000a498bbf,143,2,2024-02-27T09:51:04.205Z,french_524.wav,0,poule,112,32,4,5,Francais,f,2,0.2,-43.7486939,1.81734516
5e627e9d93cdd8000a498bbf,143,2,2024-02-27T09:51:04.205Z,french_524.wav,0,poule,112,32,4,5,Francais,f,3,0.25666667,-29.29338592,0.93830148
5e627e9d93cdd8000a498bbf,144,2,2024-02-27T09:51:04.205Z,french_164.wav,0,poule,285,32,4,5,Francais,f,0,0.0,-18.17175111,1.54231832
5e627e9d93cdd8000a498bbf,144,2,2024-02-27T09:51:04.205Z,french_164.wav,0,poule,285,32,4,5,Francais,f,1,0.1,76.91542059,0.85273823
5e627e9d93cdd8000a498bbf,144,2,2024-02-27T09:51:04.205Z,french_164.wav,0,poule,285,32,4,5,Francais,f,2,0.2,-44.02896165,1.08595521
5e627e9d93cdd8000a498bbf,144,2,2024-02-27T09:51:04.205Z,french_164.wav,0,poule,285,32,4,5,Francais,f,3,0.25666667,-52.20678857,1.30612675
5e627e9d93cdd8000a498bbf,145,2,2024-02-27T09:51:04.205Z,french_738.wav,0,poule,304,32,4,5,Francais,f,0,0.0,9.63502306,1.8953007
5e627e9d93cdd8000a498bbf,145,2,2024-02-27T09:51:04.205Z,french_738.wav,0,poule,304,32,4,5,Francais,f,1,0.1,23.45464863,0.66483685
5e627e9d93cdd8000a498bbf,145,2,2024-02-27T09:51:04.205Z,french_738.wav,0,poule,304,32,4,5,Francais,f,2,0.2,-41.48525502,0.56687756
5e627e9d93cdd8000a498bbf,145,2,2024-02-27T09:51:04.205Z,french_738.wav,0,poule,304,32,4,5,Francais,f,3,0.25666667,10.13311751,1.74946228
5e627e9d93cdd8000a498bbf,146,2,2024-02-27T09:51:04.205Z,french_190.wav,0,poule,223,32,4,5,Francais,f,0,0.0,69.06529403,1.3481685
5e627e9d93cdd8000a498bbf,146,2,2024-02-27T09:51:04.205Z,french_190.wav,0,poule,223,32,4,5,Francais,f,1,0.1,69.42395119,0.73404764
5e627e9d93cdd8000a498bbf,146,2,2024-02-27T09:51:04.205Z,french_190.wav,0,poule,223,32,4,5,Francais,f,2,0.2,67.79801708,1.27794388
5e627e9d93cdd8000a498bbf,146,2,2024-02-27T09:51:04.205Z,french_190.wav,0,poule,223,32,4,5,Francais,f,3,0.25666667,63.92857008,1.43465572
5e627e9d93cdd8000a498bbf,147,2,2024-02-27T09:51:04.205Z,french_834.wav,0,poule,620,32,4,5,Francais,f,0,0.0,-86.08965853,1.35817583
5e627e9d93cdd8000a498bbf,147,2,2024-02-27T09:51:04.205Z,french_834.wav,0,poule,620,32,4,5,Francais,f,1,0.1,69.78931281,0.2902945
5e627e9d93cdd8000a498bbf,147,2,2024-02-27T09:51:04.205Z,french_834.wav,0,poule,620,32,4,5,Francais,f,2,0.2,-42.1324214,0.84488429
5e627e9d93cdd8000a498bbf,147,2,2024-02-27T09:51:04.205Z,french_834.wav,0,poule,620,32,4,5,Francais,f,3,0.25666667,-13.11810425,0.59655356
5e627e9d93cdd8000a498bbf,148,2,2024-02-27T09:51:04.205Z,french_893.wav,0,pull,777,32,4,5,Francais,f,0,0.0,-94.12021506,0.88252126
5e627e9d93cdd8000a498bbf,148,2,2024-02-27T09:51:04.205Z,french_893.wav,0,pull,777,32,4,5,Francais,f,1,0.1,53.79826098,0.31460198
5e627e9d93cdd8000a498bbf,148,2,2024-02-27T09:51:04.205Z,french_893.wav,0,pull,777,32,4,5,Francais,f,2,0.2,-24.3553788,1.36492904
5e627e9d93cdd8000a498bbf,148,2,2024-02-27T09:51:04.205Z,french_893.wav,0,pull,777,32,4,5,Francais,f,3,0.25666667,-81.90861644,1.93292807
5e627e9d93cdd8000a498bbf,149,2,2024-02-27T09:51:04.205Z,french_866.wav,0,poule,762,32,4,5,Francais,f,0,0.0,-60.69074585,1.64484001
5e627e9d93cdd8000a498bbf,149,2,2024-02-27T09:51:04.205Z,french_866.wav,0,poule,762,32,4,5,Francais,f,1,0.1,-41.67968152,0.19415831
5e627e9d93cdd8000a498bbf,149,2,2024-02-27T09:51:04.205Z,french_866.wav,0,poule,762,32,4,5,Francais,f,2,0.2,-8.99838874,1.20864699
5e627e9d93cdd8000a498bbf,149,2,2024-02-27T09:51:04.205Z,french_866.wav,0,poule,762,32,4,5,Francais,f,3,0.25666667,40.83736488,0.81730442
5e627e9d93cdd8000a498bbf,150,3,2024-02-27T09:51:04.205Z,french_883.wav,0,poule,348,32,4,5,Francais,f,0,0.0,79.42425648,0.82987007
5e627e9d93cdd8000a498bbf,150,3,2024-02-27T09:51:04.205Z,french_883.wav,0,poule,348,32,4,5,Francais,f,1,0.1,-55.57656198,1.06788753
5e627e9d93cdd8000a498bbf,150,3,2024-02-27T09:51:04.205Z,french_883.wav,0,poule,348,32,4,5,Francais,f,2,0.2,-42.3009185,1.49414105
5e627e9d93cdd8000a498bbf,150,3,2024-02-27T09:51:04.205Z,french_883.wav,0,poule,348,32,4,5,Francais,f,3,0.25666667,9.11567641,1.30049822
5e627e9d93cdd8000a498bbf,151,3,2024-02-27T09:51:04.205Z,french_708.wav,0,pull,1110,32,4,5,Francais,f,0,0.0,77.88438146,0.30850898
5e627e9d93cdd8000a498bbf,151,3,2024-02-27T09:51:04.205Z,french_708.wav,0,pull,1110,32,4,5,Francais,f,1,0.1,-89.66132416,1.49064351
5e627e9d93cdd8000a498bbf,151,3,2024-02-27T09:51:04.205Z,french_708.wav,0,pull,1110,32,4,5,Francais,f,2,0.2,66.08375885,1.28629193
5e627e9d93cdd8000a498bbf,151,3,2024-02-27T09:51:04.205Z,french_708.wav,0,pull,1110,32,4,5,Francais,f,3,0.25666667,-39.93161414,1.01533724
5e627e9d93cdd8000a498bbf,152,3,2024-02-27T09:51:04.205Z,french_780.wav,0,pull,1819,32,4,5,Francais,f,0,0.0,-26.4428256,1.10618342
5e627e9d93cdd8000a498bbf,152,3,2024-02-27T09:51:04.205Z,french_780.wav,0,pull,1819,32,4,5,Francais,f,1,0.1,71.38381251,1.00150251
5e627e9d93cdd8000a498bbf,152,3,2024-02-27T09:51:04.205Z,french_780.wav,0,pull,1819,32,4,5,Francais,f,2,0.2,23.58434052,0.69699056
5e627e9d93cdd8000a498bbf,152,3,2024-02-27T09:51:04.205Z,french_780.wav,0,pull,1819,32,4,5,Francais,f,3,0.25666667,-77.81567576,1.24957366
5e627e9d93cdd8000a498bbf,153,3,2024-02-27T09:51:04.205Z,french_905.wav,0,poule,670,32,4,5,Francais,f,0,0.0,87.86620346,1.28585996
5e627e9d93cdd8000a498bbf,153,3,2024-02-27T09:51:04.205Z,french_905.wav,0,poule,670,32,4,5,Francais,f,1,0.1,17.88859649,0.57714405
5e627e9d93cdd8000a498bbf,153,3,2024-02-27T09:51:04.205Z,french_905.wav,0,poule,670,32,4,5,Francais,f,2,0.2,51.58456374,0.3219524
5e627e9d93cdd8000a498bbf,153,3,2024-02-27T09:51:04.205Z,french_905.wav,0,poule,670,32,4,5,Francais,f,3,0.25666667,-98.76806622,1.69480445
5e627e9d93cdd8000a498bbf,154,3,2024-02-27T09:51:04.205Z,french_133.wav,0,poule,365,32,4,5,Francais,f,0,0.0,-94.78194954,1.29113753
5e627e9d93cdd8000a498bbf,154,3,2024-02-27T09:51:04.205Z,french_133.wav,0,poule,365,32,4,5,Francais,f,1,0.1,8.44061072,0.84384968
5e627e9d93cdd8000a498bbf,154,3,2024-02-27T09:51:04.205Z,french_133.wav,0,poule,365,32,4,5,Francais,f,2,0.2,55.81768563,1.85990436
5e627e9d93cdd8000a498bbf,154,3,2024-02-27T09:51:04.205Z,french_133.wav,0,poule,365,32,4,5,Francais,f,3,0.25666667,73.94294787,1.64621091
5e627e9d93cdd8000a498bbf,155,3,2024-02-27T09:51:04.205Z,french_446.wav,0,poule,351,32,4,5,Francais,f,0,0.0,-77.26428063,0.33935674
5e627e9d93cdd8000a498bbf,155,3,2024-02-27T09:51:04.205Z,french_446.wav,0,poule,351,32,4,5,Francais,f,1,0.1,-65.30305353,1.45146817
5e627e9d93cdd8000a498bbf,155,3,2024-02-27T09:51:04.205Z,french_446.wav,0,poule,351,32,4,5,Francais,f,2,0.2,-57.58787345,0.82478891
5e627e9d93cdd8000a498bbf,155,3,2024-02-27T09:51:04.205Z,french_446.wav,0,poule,351,32,4,5,Francais,f,3,0.25666667,16.67337698,1.36014186
5e627e9d93cdd8000a498bbf,156,3,2024-02-27T09:51:04.205Z,french_856.wav,0,poule,622,32,4,5,Francais,f,0,0.0,-64.45291012,0.77997639
5e627e9d93cdd8000a498bbf,156,3,2024-02-27T09:51:04.205Z,french_856.wav,0,poule,622,32,4,5,Francais,f,1,0.1,51.16318907,0.05317495
5e627e9d93cdd8000a498bbf,156,3,2024-02-27T09:51:04.205Z,french_856.wav,0,poule,622,32,4,5,Francais,f,2,0.2,51.97117103,0.19638347
5e627e9d93cdd8000a498bbf,156,3,2024-02-27T09:51:04.205Z,french_856.wav,0,poule,622,32,4,5,Francais,f,3,0.25666667,78.82524423,1.64847488
5e627e9d93cdd8000a498bbf,157,3,2024-02-27T09:51:04.205Z,french_232.wav,0,poule,184,32,4,5,Francais,f,0,0.0,48.62304181,1.60041799
5e627e9d93cdd8000a498bbf,157,3,2024-02-27T09:51:04.205Z,french_232.wav,0,poule,184,32,4,5,Francais,f,1,0.1,-66.91586117,0.5698369
5e627e9d93cdd8000a498bbf,157,3,2024-02-27T09:51:04.205Z,french_232.wav,0,poule,184,32,4,5,Francais,f,2,0.2,-71.38800945,1.21368891
5e627e9d93cdd8000a498bbf,157,3,2024-02-27T09:51:04.205Z,french_232.wav,0,poule,184,32,4,5,Francais,f,3,0.25666667,32.42157584,1.05085576
5e627e9d93cdd8000a498bbf,158,3,2024-02-27T09:51:04.205Z,french_243.wav,0,poule,271,32,4,5,Francais,f,0,0.0,94.15218044,0.53955239
5e627e9d93cdd8000a498bbf,158,3,2024-02-27T09:51:04.205Z,french_243.wav,0,poule,271,32,4,5,Francais,f,1,0.1,77.54642038,1.33237065
5e627e9d93cdd8000a498bbf,158,3,2024-02-27T09:51:04.205Z,french_243.wav,0,poule,271,32,4,5,Francais,f,2,0.2,-54.61145872,1.76705621
5e627e9d93cdd8000a498bbf,158,3,2024-02-27T09:51:04.205Z,french_243.wav,0,poule,271,32,4,5,Francais,f,3,0.25666667,-22.57869657,1.15577178
5e627e9d93cdd8000a498bbf,159,3,2024-02-27T09:51:04.205Z,french_227.wav,0,poule,290,32,4,5,Francais,f,0,0.0,0.51486219,1.24333394
5e627e9d93cdd8000a498bbf,159,3,2024-02-27T09:51:04.205Z,french_227.wav,0,poule,290,32,4,5,Francais,f,1,0.1,-7.58300973,1.87169026
5e627e9d93cdd8000a498bbf,159,3,2024-02-27T09:51:04.205Z,french_227.wav,0,poule,290,32,4,5,Francais,f,2,0.2,-1.58102923,1.73620524
5e627e9d93cdd8000a498bbf,159,3,2024-02-27T09:51:04.205Z,french_227.wav,0,poule,290,32,4,5,Francais,f,3,0.25666667,-53.33162074,0.85172824
5e627e9d93cdd8000a498bbf,160,3,2024-02-27T09:51:04.205Z,french_150.wav,0,poule,261,32,4,5,Francais,f,0,0.0,8.70975457,0.6151883
5e627e9d93cdd8000a498bbf,160,3,2024-02-27T09:51:04.205Z,french_150.wav,0,poule,261,32,4,5,Francais,f,1,0.1,-27.10460474,1.35739255
5e627e9d93cdd8000a498bbf,160,3,2024-02-27T09:51:04.205Z,french_150.wav,0,poule,261,32,4,5,Francais,f,2,0.2,-81.59186784,1.42530839
5e627e9d93cdd8000a498bbf,160,3,2024-02-27T09:51:04.205Z,french_150.wav,0,poule,261,32,4,5,Francais,f,3,0.25666667,-72.54184128,0.64697028
5e627e9d93cdd8000a498bbf,161,3,2024-02-27T09:51:04.205Z,french_472.wav,0,poule,318,32,4,5,Francais,f,0,0.0,-9.46806957,0.85855516
5e627e9d93cdd8000a498bbf,161,3,2024-02-27T09:51:04.205Z,french_472.wav,0,poule,318,32,4,5,Francais,f,1,0.1,45.81973918,1.60383991
5e627e9d93cdd8000a498bbf,161,3,2024-02-27T09:51:04.205Z,french_472.wav,0,poule,318,32,4,5,Francais,f,2,0.2,-32.95266456,0.80244772
5e627e9d93cdd8000a498bbf,161,3,2024-02-27T09:51:04.205Z,french_472.wav,0,poule,318,32,4,5,Francais,f,3,0.25666667,-10.56557549,1.48234138
5e627e9d93cdd8000a498bbf,162,3,2024-02-27T09:51:04.205Z,french_261.wav,0,pull,737,32,4,5,Francais,f,0,0.0,-67.20699789,0.47660487
5e627e9d93cdd8000a498bbf,162,3,2024-02-27T09:51:04.205Z,french_261.wav,0,pull,737,32,4,5,Francais,f,1,0.1,49.58913881,0.48219997
5e627e9d93cdd8000a498bbf,162,3,2024-02-27T09:51:04.205Z,french_261.wav,0,pull,737,32,4,5,Francais,f,2,0.2,-41.06882289,1.35396927
5e627e9d93cdd8000a498bbf,162,3,2024-02-27T09:51:04.205Z,french_261.wav,0,pull,737,32,4,5,Francais,f,3,0.25666667,25.85265167,1.38442255
5e627e9d93cdd8000a498bbf,163,3,2024-02-27T09:51:04.205Z,french_470.wav,0,poule,368,32,4,5,Francais,f,0,0.0,35.80891732,1.18984778
5e627e9d93cdd8000a498bbf,163,3,2024-02-27T09:51:04.205Z,french_470.wav,0,poule,368,32,4,5,Francais,f,1,0.1,-69.45523052,0.95727089
5e627e9d93cdd8000a498bbf,163,3,2024-02-27T09:51:04.205Z,french_470.wav,0,poule,368,32,4,5,Francais,f,2,0.2,14.95046841,1.94704509
5e627e9d93cdd8000a498bbf,163,3,2024-02-27T09:51:04.205Z,french_470.wav,0,poule,368,32,4,5,Francais,f,3,0.25666667,17.64450191,1.37814226
5e627e9d93cdd8000a498bbf,164,3,2024-02-27T09:51:04.205Z,french_606.wav,0,pull,363,32,4,5,Francais,f,0,0.0,-20.93687271,1.9895698
5e627e9d93cdd8000a498bbf,164,3,2024-02-27T09:51:04.205Z,french_606.wav,0,pull,363,32,4,5,Francais,f,1,0.1,59.55385743,1.17728958
5e627e9d93cdd8000a498bbf,164,3,2024-02-27T09:51:04.205Z,french_606.wav,0,pull,363,32,4,5,Francais,f,2,0.2,61.58713619,1.48827242
5e627e9d93cdd8000a498bbf,164,3,2024-02-27T09:51:04.205Z,french_606.wav,0,pull,363,32,4,5,Francais,f,3,0.25666667,-92.8987734,0.79910733
5e627e9d93cdd8000a498bbf,165,3,2024-02-27T09:51:04.205Z,french_982.wav,0,poule,301,32,4,5,Francais,f,0,0.0,-37.50079515,0.32253899
5e627e9d93cdd8000a498bbf,165,3,2024-02-27T09:51:04.205Z,french_982.wav,0,poule,301,32,4,5,Francais,f,1,0.1,-23.37923681,1.88868261
5e627e9d93cdd8000a498bbf,165,3,2024-02-27T09:51:04.205Z,french_982.wav,0,poule,301,32,4,5,Francais,f,2,0.2,-55.8234839,0.59835015
5e627e9d93cdd8000a498bbf,165,3,2024-02-27T09:51:04.205Z,french_982.wav,0,poule,301,32,4,5,Francais,f,3,0.25666667,-58.92111767,1.21615752
5e627e9d93cdd8000a498bbf,166,3,2024-02-27T09:51:04.205Z,french_73.wav,0,poule,300,32,4,5,Francais,f,0,0.0,79.91377479,0.94290919
5e627e9d93cdd8000a498bbf,166,3,2024-02-27T09:51:04.205Z,french_73.wav,0,poule,300,32,4,5,Francais,f,1,0.1,21.44914026,0.58511712
5e627e9d93cdd8000a498bbf,166,3,2024-02-27T09:51:04.205Z,french_73.wav,0,poule,300,32,4,5,Francais,f,2,0.2,94.23892751,1.07660977
5e627e9d93cdd8000a498bbf,166,3,2024-02-27T09:51:04.205Z,french_73.wav,0,poule,300,32,4,5,Francais,f,3,0.25666667,-26.36168046,0.0399298
5e627e9d93cdd8000a498bbf,167,3,2024-02-27T09:51:04.205Z,french_607.wav,0,poule,178,32,4,5,Francais,f,0,0.0,86.31857573,1.61060215
5e627e9d93cdd8000a498bbf,167,3,2024-02-27T09:51:04.205Z,french_607.wav,0,poule,178,32,4,5,Francais,f,1,0.1,-46.02697415,1.76940735
5e627e9d93cdd8000a498bbf,167,3,2024-02-27T09:51:04.205Z,french_607.wav,0,poule,178,32,4,5,Francais,f,2,0.2,45.41214831,0.70600977
5e627e9d93cdd8000a498bbf,167,3,2024-02-27T09:51:04.205Z,french_607.wav,0,poule,178,32,4,5,Francais,f,3,0.25666667,58.05056059,0.79164166
5e627e9d93cdd8000a498bbf,168,3,2024-02-27T09:51:04.205Z,french_878.wav,0,poule,356,32,4,5,Francais,f,0,0.0,-11.41587957,1.5495917
5e627e9d93cdd8000a498bbf,168,3,2024-02-27T09:51:04.205Z,french_878.wav,0,poule,356,32,4,5,Francais,f,1,0.1,-52.86145621,0.92573348
5e627e9d93cdd8000a498bbf,168,3,2024-02-27T09:51:04.205Z,french_878.wav,0,poule,356,32,4,5,Francais,f,2,0.2,10.56905128,0.71371417
5e627e9d93cdd8000a498bbf,168,3,2024-02-27T09:51:04.205Z,french_878.wav,0,poule,356,32,4,5,Francais,f,3,0.25666667,87.23323491,0.72785239
5e627e9d93cdd8000a498bbf,169,3,2024-02-27T09:51:04.205Z,french_539.wav,0,poule,175,32,4,5,Francais,f,0,0.0,-25.67038427,1.25415191
5e627e9d93cdd8000a498bbf,169,3,2024-02-27T09:51:04.205Z,french_539.wav,0,poule,175,32,4,5,Francais,f,1,0.1,48.64308398,1.80742897
5e627e9d93cdd8000a498bbf,169,3,2024-02-27T09:51:04.205Z,french_539.wav,0,poule,175,32,4,5,Francais,f,2,0.2,-77.82337419,1.66801057
5e627e9d93cdd8000a498bbf,169,3,2024-02-27T09:51:04.205Z,french_539.wav,0,poule,175,32,4,5,Francais,f,3,0.25666667,-42.20378119,0.618258
5e627e9d93cdd8000a498bbf,170,3,2024-02-27T09:51:04.205Z,french_750.wav,0,poule,208,32,4,5,Francais,f,0,0.0,36.16157767,1.69010054
5e627e9d93cdd8000a498bbf,170,3,2024-02-27T09:51:04.205Z,french_750.wav,0,poule,208,32,4,5,Francais,f,1,0.1,-94.09249833,0.7877665
5e627e9d93cdd8000a498bbf,170,3,2024-02-27T09:51:04.205Z,french_750.wav,0,poule,208,32,4,5,Francais,f,2,0.2,97.07405484,0.99353813
5e627e9d93cdd8000a498bbf,170,3,2024-02-27T09:51:04.205Z,french_750.wav,0,poule,208,32,4,5,Francais,f,3,0.25666667,-8.28043626,0.64245914
5e627e9d93cdd8000a498bbf,171,3,2024-02-27T09:51:04.205Z,french_550.wav,0,poule,367,32,4,5,Francais,f,0,0.0,-75.40042164,1.22660115
5e627e9d93cdd8000a498bbf,171,3,2024-02-27T09:51:04.205Z,french_550.wav,0,poule,367,32,4,5,Francais,f,1,0.1,3.66999977,1.1302768
5e627e9d93cdd8000a498bbf,171,3,2024-02-27T09:51:04.205Z,french_550.wav,0,poule,367,32,4,5,Francais,f,2,0.2,-80.45508953,0.71194131
5e627e9d93cdd8000a498bbf,171,3,2024-02-27T09:51:04.205Z,french_550.wav,0,poule,367,32,4,5,Francais,f,3,0.25666667,-81.93938104,1.14992067
5e627e9d93cdd8000a498bbf,172,3,2024-02-27T09:51:04.205Z,french_340.wav,0,pull,783,32,4,5,Francais,f,0,0.0,-77.74428769,1.5012345
5e627e9d93cdd8000a498bbf,172,3,2024-02-27T09:51:04.205Z,french_340.wav,0,pull,783,32,4,5,Francais,f,1,0.1,-23.36816436,1.72338521
5e627e9d93cdd8000a498bbf,172,3,2024-02-27T09:51:04.205Z,french_340.wav,0,pull,783,32,4,5,Francais,f,2,0.2,-44.47255335,0.55046319
5e627e9d93cdd8000a498bbf,172,3,2024-02-27T09:51:04.205Z,french_340.wav,0,pull,783,32,4,5,Francais,f,3,0.25666667,-51.35474548,0.98182936
5e627e9d93cdd8000a498bbf,173,3,2024-02-27T09:51:04.205Z,french_258.wav,0,pull,1091,32,4,5,Francais,f,0,0.0,49.87761594,0.27922365
5e627e9d93cdd8000a498bbf,173,3,2024-02-27T09:51:04.205Z,french_258.wav,0,pull,1091,32,4,5,Francais,f,1,0.1,-83.77774399,1.89432374
5e627e9d93cdd8000a498bbf,173,3,2024-02-27T09:51:04.205Z,french_258.wav,0,pull,1091,32,4,5,Francais,f,2,0.2,58.69904626,0.22934206
5e627e9d93cdd8000a498bbf,173,3,2024-02-27T09:51:04.205Z,french_258.wav,0,pull,1091,32,4,5,Francais,f,3,0.25666667,-57.68721695,0.35615934
5e627e9d93cdd8000a498bbf,174,3,2024-02-27T09:51:04.205Z,french_871.wav,0,poule,436,32,4,5,Francais,f,0,0.0,-4.85456223,1.97775754
5e627e9d93cdd8000a498bbf,174,3,2024-02-27T09:51:04.205Z,french_871.wav,0,poule,436,32,4,5,Francais,f,1,0.1,78.38715758,1.19373072
5e627e9d93cdd8000a498bbf,174,3,2024-02-27T09:51:04.205Z,french_871.wav,0,poule,436,32,4,5,Francais,f,2,0.2,-65.12117647,1.5578529
5e627e9d93cdd8000a498bbf,174,3,2024-02-27T09:51:04.205Z,french_871.wav,0,poule,436,32,4,5,Francais,f,3,0.25666667,96.09900544,1.61262149
5e627e9d93cdd8000a498bbf,175,3,2024-02-27T09:51:04.205Z,french_555.wav,0,poule,1007,32,4,5,Francais,f,0,0.0,-94.33978787,0.59318307
5e627e9d93cdd8000a498bbf,175,3,2024-02-27T09:51:04.205Z,french_555.wav,0,poule,1007,32,4,5,Francais,f,1,0.1,93.76530939,0.913599
5e627e9d93cdd8000a498bbf,175,3,2024-02-27T09:51:04.205Z,french_555.wav,0,poule,1007,32,4,5,Francais,f,2,0.2,60.24178239,1.32127388
5e627e9d93cdd8000a498bbf,175,3,2024-02-27T09:51:04.205Z,french_555.wav,0,poule,1007,32,4,5,Francais,f,3,0.25666667,52.06264798,1.40091244
5e627e9d93cdd8000a498bbf,176,3,2024-02-27T09:51:04.205Z,french_939.wav,0,pull,323,32,4,5,Francais,f,0,0.0,26.75853805,1.87296773
5e627e9d93cdd8000a498bbf,176,3,2024-02-27T09:51:04.205Z,french_939.wav,0,pull,323,32,4,5,Francais,f,1,0.1,6.19803181,1.06061528
5e627e9d93cdd8000a498bbf,176,3,2024-02-27T09:51:04.205Z,french_939.wav,0,pull,323,32,4,5,Francais,f,2,0.2,-16.72335747,1.33482008
5e627e9d93cdd8000a498bbf,176,3,2024-02-27T09:51:04.205Z,french_939.wav,0,pull,323,32,4,5,Francais,f,3,0.25666667,96.23810145,0.73381464
5e627e9d93cdd8000a498bbf,177,3,2024-02-27T09:51:04.205Z,french_754.wav,0,pull,839,32,4,5,Francais,f,0,0.0,11.6644261,0.15061695
5e627e9d93cdd8000a498bbf,177,3,2024-02-27T09:51:04.205Z,french_754.wav,0,pull,839,32,4,5,Francais,f,1,0.1,5.00985124,0.57469516
5e627e9d93cdd8000a498bbf,177,3,2024-02-27T09:51:04.205Z,french_754.wav,0,pull,839,32,4,5,Francais,f,2,0.2,23.99974903,0.45412791
5e627e9d93cdd8000a498bbf,177,3,2024-02-27T09:51:04.205Z,french_754.wav,0,pull,839,32,4,5,Francais,f,3,0.25666667,23.77807811,0.27591884
5e627e9d93cdd8000a498bbf,178,3,2024-02-27T09:51:04.205Z,french_994.wav,0,poule,292,32,4,5,Francais,f,0,0.0,-39.66278541,0.39681658
5e627e9d93cdd8000a498bbf,178,3,2024-02-27T09:51:04.205Z,french_994.wav,0,poule,292,32,4,5,Francais,f,1,0.1,66.70535545,1.6498105
5e627e9d93cdd8000a498bbf,178,3,2024-02-27T09:51:04.205Z,french_994.wav,0,poule,292,32,4,5,Francais,f,2,0.2,-87.43703712,1.48803434
5e627e9d93cdd8000a498bbf,178,3,2024-02-27T09:51:04.205Z,french_994.wav,0,poule,292,32,4,5,Francais,f,3,0.25666667,-41.83233866,1.54058484
5e627e9d93cdd8000a498bbf,179,3,2024-02-27T09:51:04.205Z,french_253.wav,0,poule,244,32,4,5,Francais,f,0,0.0,46.57034738,1.71066879
5e627e9d93cdd8000a498bbf,179,3,2024-02-27T09:51:04.205Z,french_253.wav,0,poule,244,32,4,5,Francais,f,1,0.1,95.71705704,0.77231307
5e627e9d93cdd8000a498bbf,179,3,2024-02-27T09:51:04.205Z,french_253.wav,0,poule,244,32,4,5,Francais,f,2,0.2,-25.2299753,0.81370988
5e627e9d93cdd8000a498bbf,179,3,2024-02-27T09:51:04.205Z,french_253.wav,0,poule,244,32,4,5,Francais,f,3,0.25666667,-10.51050389,1.71668189
5e627e9d93cdd8000a498bbf,180,3,2024-02-27T09:51:04.205Z,french_124.wav,0,poule,280,32,4,5,Francais,f,0,0.0,-40.67960973,1.69845324
5e627e9d93cdd8000a498bbf,180,3,2024-02-27T09:51:04.205Z,french_124.wav,0,poule,280,32,4,5,Francais,f,1,0.1,1.84202377,0.10570995
5e627e9d93cdd8000a498bbf,180,3,2024-02-27T09:51:04.205Z,french_124.wav,0,poule,280,32,4,5,Francais,f,2,0.2,31.56915939,0.86198312
5e627e9d93cdd8000a498bbf,180,3,2024-02-27T09:51:04.205Z,french_124.wav,0,poule,280,32,4,5,Francais,f,3,0.25666667,9.71654757,1.20479065
5e627e9d93cdd8000a498bbf,181,3,2024-02-27T09:51:04.205Z,french_876.wav,0,poule,493,32,4,5,Francais,f,0,0.0,-63.60663495,1.31328738
5e627e9d93cdd8000a498bbf,181,3,2024-02-27T09:51:04.205Z,french_876.wav,0,poule,493,32,4,5,Francais,f,1,0.1,-33.069551,1.53761103
5e627e9d93cdd8000a498bbf,181,3,2024-02-27T09:51:04.205Z,french_876.wav,0,poule,493,32,4,5,Francais,f,2,0.2,44.38072254,1.15738415
5e627e9d93cdd8000a498bbf,181,3,2024-02-27T09:51:04.205Z,french_876.wav,0,poule,493,32,4,5,Francais,f,3,0.25666667,3.25210733,1.33428182
5e627e9d93cdd8000a498bbf,182,3,2024-02-27T09:51:04.205Z,french_443.wav,0,poule,786,32,4,5,Francais,f,0,0.0,-70.8287672,0.48827419
5e627e9d93cdd8000a498bbf,182,3,2024-02-27T09:51:04.205Z,french_443.wav,0,poule,786,32,4,5,Francais,f,1,0.1,-57.74098156,0.38931866
5e627e9d93cdd8000a498bbf,182,3,2024-02-27T09:51:04.205Z,french_443.wav,0,poule,786,32,4,5,Francais,f,2,0.2,-4.83347895,0.64406231
5e627e9d93cdd8000a498bbf,182,3,2024-02-27T09:51:04.205Z,french_443.wav,0,poule,786,32,4,5,Francais,f,3,0.25666667,-81.70376308,1.21599086
5e627e9d93cdd8000a498bbf,183,3,2024-02-27T09:51:04.205Z,french_37.wav,0,poule,278,32,4,5,Francais,f,0,0.0,74.40318054,1.78030803
5e627e9d93cdd8000a498bbf,183,3,2024-02-27T09:51:04.205Z,french_37.wav,0,poule,278,32,4,5,Francais,f,1,0.1,1.61071593,1.06555703
5e627e9d93cdd8000a498bbf,183,3,2024-02-27T09:51:04.205Z,french_37.wav,0,poule,278,32,4,5,Francais,f,2,0.2,-60.86815184,0.67417333
5e627e9d93cdd8000a498bbf,183,3,2024-02-27T09:51:04.205Z,french_37.wav,0,poule,278,32,4,5,Francais,f,3,0.25666667,35.44737922,1.14925698
5e627e9d93cdd8000a498bbf,184,3,2024-02-27T09:51:04.205Z,french_349.wav,0,poule,129,32,4,5,Francais,f,0,0.0,73.89254537,0.17403551
5e627e9d93cdd8000a498bbf,184,3,2024-02-27T09:51:04.205Z,french_349.wav,0,poule,129,32,4,5,Francais,f,1,0.1,-84.33493486,1.66487719
5e627e9d93cdd8000a498bbf,184,3,2024-02-27T09:51:04.205Z,french_349.wav,0,poule,129,32,4,5,Francais,f,2,0.2,-3.2709249,1.53740634
5e627e9d93cdd8000a498bbf,184,3,2024-02-27T09:51:04.205Z,french_349.wav,0,poule,129,32,4,5,Francais,f,3,0.25666667,-21.54511299,1.56834066
5e627e9d93cdd8000a498bbf,185,3,2024-02-27T09:51:04.205Z,french_585.wav,0,pull,286,32,4,5,Francais,f,0,0.0,55.40756654,1.79357949
5e627e9d93cdd8000a498bbf,185,3,2024-02-27T09:51:04.205Z,french_585.wav,0,pull,286,32,4,5,Francais,f,1,0.1,-99.68924549,1.94389706
5e627e9d93cdd8000a498bbf,185,3,2024-02-27T09:51:04.205Z,french_585.wav,0,pull,286,32,4,5,Francais,f,2,0.2,-52.13930441,0.70685753
5e627e9d93cdd8000a498bbf,185,3,2024-02-27T09:51:04.205Z,french_585.wav,0,pull,286,32,4,5,Francais,f,3,0.25666667,-49.42840454,0.08344351
5e627e9d93cdd8000a498bbf,186,3,2024-02-27T09:51:04.205Z,french_749.wav,0,poule,398,32,4,5,Francais,f,0,0.0,-6.52512876,1.71102694
5e627e9d93cdd8000a498bbf,186,3,2024-02-27T09:51:04.205Z,french_749.wav,0,poule,398,32,4,5,Francais,f,1,0.1,66.04972296,0.07130547
5e627e9d93cdd8000a498bbf,186,3,2024-02-27T09:51:04.205Z,french_749.wav,0,poule,398,32,4,5,Francais,f,2,0.2,-72.89621134,1.03709586
5e627e9d93cdd8000a498bbf,186,3,2024-02-27T09:51:04.205Z,french_749.wav,0,poule,398,32,4,5,Francais,f,3,0.25666667,-46.82302434,1.99027801
5e627e9d93cdd8000a498bbf,187,3,2024-02-27T09:51:04.205Z,french_206.wav,0,pull,835,32,4,5,Francais,f,0,0.0,54.3984601,1.52634336
5e627e9d93cdd8000a498bbf,187,3,2024-02-27T09:51:04.205Z,french_206.wav,0,pull,835,32,4,5,Francais,f,1,0.1,63.13301153,0.52222794
5e627e9d93cdd8000a498bbf,187,3,2024-02-27T09:51:04.205Z,french_206.wav,0,pull,835,32,4,5,Francais,f,2,0.2,42.02994149,1.32066154
5e627e9d93cdd8000a498bbf,187,3,2024-02-27T09:51:04.205Z,french_206.wav,0,pull,835,32,4,5,Francais,f,3,0.25666667,-16.37363905,0.63957267
5e627e9d93cdd8000a498bbf,188,3,2024-02-27T09:51:04.205Z,french_184.wav,0,poule,250,32,4,5,Francais,f,0,0.0,48.36861498,1.86119552
5e627e9d93cdd8000a498bbf,188,3,2024-02-27T09:51:04.205Z,french_184.wav,0,poule,250,32,4,5,Francais,f,1,0.1,-2.94347193,0.96576449
5e627e9d93cdd8000a498bbf,188,3,2024-02-27T09:51:04.205Z,french_184.wav,0,poule,250,32,4,5,Francais,f,2,0.2,-52.00472355,1.69315982
5e627e9d93cdd8000a498bbf,188,3,2024-02-27T09:51:04.205Z,french_184.wav,0,poule,250,32,4,5,Francais,f,3,0.25666667,-36.80137507,0.52689434
5e627e9d93cdd8000a498bbf,189,3,2024-02-27T09:51:04.205Z,french_639.wav,0,poule,338,32,4,5,Francais,f,0,0.0,11.64385005,1.86180111
5e627e9d93cdd8000a498bbf,189,3,2024-02-27T09:51:04.205Z,french_639.wav,0,poule,338,32,4,5,Francais,f,1,0.1,-83.53772589,1.31531339
5e627e9d93cdd8000a498bbf,189,3,2024-02-27T09:51:04.205Z,french_639.wav,0,poule,338,32,4,5,Francais,f,2,0.2,-26.70113898,0.16484712
5e627e9d93cdd8000a498bbf,189,3,2024-02-27T09:51:04.205Z,french_639.wav,0,poule,338,32,4,5,Francais,f,3,0.25666667,-28.21717215,0.08923993
5e627e9d93cdd8000a498bbf,190,3,2024-02-27T09:51:04.205Z,french_370.wav,0,poule,318,32,4,5,Francais,f,0,0.0,-31.30279389,1.88170435
