subj,trial,block,date,stim,stim_order,response,rt,age,english,french,language,sex,param_index,segment,pitch,stretch
5c4130f08daebb0001d1a27b,0,0,2024-02-24T08:13:23.572Z,french_127.wav,0,pull,1410,25,5,5,français,m,0,0.0,56.99195339,1.23888103
5c4130f08daebb0001d1a27b,0,0,2024-02-24T08:13:23.572Z,french_127.wav,0,pull,1410,25,5,5,français,m,1,0.1,71.02339704,1.9853403
5c4130f08daebb0001d1a27b,0,0,2024-02-24T08:13:23.572Z,french_127.wav,0,pull,1410,25,5,5,français,m,2,0.2,72.81237495,0.22936254
5c4130f08daebb0001d1a27b,0,0,2024-02-24T08:13:23.572Z,french_127.wav,0,pull,1410,25,5,5,français,m,3,0.25666667,99.25740409,0.23690129
5c4130f08daebb0001d1a27b,1,0,2024-02-24T08:13:23.572Z,french_989.wav,0,poule,1302,25,5,5,français,m,0,0.0,9.12508282,1.4573698
5c4130f08daebb0001d1a27b,1,0,2024-02-24T08:13:23.572Z,french_989.wav,0,poule,1302,25,5,5,français,m,1,0.1,-26.45358769,0.87656303
5c4130f08daebb0001d1a27b,1,0,2024-02-24T08:13:23.572Z,french_989.wav,0,poule,1302,25,5,5,français,m,2,0.2,-51.08796106,0.58961018
5c4130f08daebb0001d1a27b,1,0,2024-02-24T08:13:23.572Z,french_989.wav,0,poule,1302,25,5,5,français,m,3,0.25666667,-22.70445117,1.46090447
5c4130f08daebb0001d1a27b,2,0,2024-02-24T08:13:23.572Z,french_580.wav,0,poule,1474,25,5,5,français,m,0,0.0,27.05941303,0.35053576
5c4130f08daebb0001d1a27b,2,0,2024-02-24T08:13:23.572Z,french_580.wav,0,poule,1474,25,5,5,français,m,1,0.1,-10.3346088,1.97169455
5c4130f08daebb0001d1a27b,2,0,2024-02-24T08:13:23.572Z,french_580.wav,0,poule,1474,25,5,5,français,m,2,0.2,-24.27512535,0.90308202
5c4130f08daebb0001d1a27b,2,0,2024-02-24T08:13:23.572Z,french_580.wav,0,poule,1474,25,5,5,français,m,3,0.25666667,34.7313677,0.94790865
5c4130f08daebb0001d1a27b,3,0,2024-02-24T08:13:23.572Z,french_12.wav,0,poule,1398,25,5,5,français,m,0,0.0,-57.76127346,1.31680682
5c4130f08daebb0001d1a27b,3,0,2024-02-24T08:13:23.572Z,french_12.wav,0,poule,1398,25,5,5,français,m,1,0.1,13.80138245,1.40135686
5c4130f08daebb0001d1a27b,3,0,2024-02-24T08:13:23.572Z,french_12.wav,0,poule,1398,25,5,5,français,m,2,0.2,70.02389064,0.63152994
5c4130f08daebb0001d1a27b,3,0,2024-02-24T08:13:23.572Z,french_12.wav,0,poule,1398,25,5,5,français,m,3,0.25666667,-46.37027392,0.33836826
5c4130f08daebb0001d1a27b,4,0,2024-02-24T08:13:23.572Z,french_586.wav,0,poule,782,25,5,5,français,m,0,0.0,86.96734506,0.62271677
5c4130f08daebb0001d1a27b,4,0,2024-02-24T08:13:23.572Z,french_586.wav,0,poule,782,25,5,5,français,m,1,0.1,-8.603444,1.69916535
5c4130f08daebb0001d1a27b,4,0,2024-02-24T08:13:23.572Z,french_586.wav,0,poule,782,25,5,5,français,m,2,0.2,11.78169212,1.65961944
5c4130f08daebb0001d1a27b,4,0,2024-02-24T08:13:23.572Z,french_586.wav,0,poule,782,25,5,5,français,m,3,0.25666667,14.18547806,1.90120182
5c4130f08daebb0001d1a27b,5,0,2024-02-24T08:13:23.572Z,french_392.wav,0,poule,762,25,5,5,français,m,0,0.0,-11.14407327,1.55151156
5c4130f08daebb0001d1a27b,5,0,2024-02-24T08:13:23.572Z,french_392.wav,0,poule,762,25,5,5,français,m,1,0.1,-20.38505303,0.49285085
5c4130f08daebb0001d1a27b,5,0,2024-02-24T08:13:23.572Z,french_392.wav,0,poule,762,25,5,5,français,m,2,0.2,21.27154916,0.56092788
5c4130f08daebb0001d1a27b,5,0,2024-02-24T08:13:23.572Z,french_392.wav,0,poule,762,25,5,5,français,m,3,0.25666667,-29.54267832,1.54424804
5c4130f08daebb0001d1a27b,6,0,2024-02-24T08:13:23.572Z,french_589.wav,0,pull,7806,25,5,5,français,m,0,0.0,-25.33744833,1.20649344
5c4130f08daebb0001d1a27b,6,0,2024-02-24T08:13:23.572Z,french_589.wav,0,pull,7806,25,5,5,français,m,1,0.1,-46.00092507,0.60898863
5c4130f08daebb0001d1a27b,6,0,2024-02-24T08:13:23.572Z,french_589.wav,0,pull,7806,25,5,5,français,m,2,0.2,-35.85501424,0.34188975
5c4130f08daebb0001d1a27b,6,0,2024-02-24T08:13:23.572Z,french_589.wav,0,pull,7806,25,5,5,français,m,3,0.25666667,61.35269907,1.06172305
5c4130f08daebb0001d1a27b,7,0,2024-02-24T08:13:23.572Z,french_500.wav,0,poule,768,25,5,5,français,m,0,0.0,-64.77507575,1.1238598
5c4130f08daebb0001d1a27b,7,0,2024-02-24T08:13:23.572Z,french_500.wav,0,poule,768,25,5,5,français,m,1,0.1,-6.64685947,1.28070421
5c4130f08daebb0001d1a27b,7,0,2024-02-24T08:13:23.572Z,french_500.wav,0,poule,768,25,5,5,français,m,2,0.2,-63.06704172,0.36817987
5c4130f08daebb0001d1a27b,7,0,2024-02-24T08:13:23.572Z,french_500.wav,0,poule,768,25,5,5,français,m,3,0.25666667,-2.53403127,0.89472864
5c4130f08daebb0001d1a27b,8,0,2024-02-24T08:13:23.572Z,french_209.wav,0,poule,948,25,5,5,français,m,0,0.0,39.72931143,1.72926101
5c4130f08daebb0001d1a27b,8,0,2024-02-24T08:13:23.572Z,french_209.wav,0,poule,948,25,5,5,français,m,1,0.1,-11.10080972,1.89016293
5c4130f08daebb0001d1a27b,8,0,2024-02-24T08:13:23.572Z,french_209.wav,0,poule,948,25,5,5,français,m,2,0.2,-43.22344663,1.93253512
5c4130f08daebb0001d1a27b,8,0,2024-02-24T08:13:23.572Z,french_209.wav,0,poule,948,25,5,5,français,m,3,0.25666667,-3.52460634,0.82956566
5c4130f08daebb0001d1a27b,9,0,2024-02-24T08:13:23.572Z,french_48.wav,0,poule,510,25,5,5,français,m,0,0.0,39.79198264,1.78905862
5c4130f08daebb0001d1a27b,9,0,2024-02-24T08:13:23.572Z,french_48.wav,0,poule,510,25,5,5,français,m,1,0.1,66.47948286,1.41226809
5c4130f08daebb0001d1a27b,9,0,2024-02-24T08:13:23.572Z,french_48.wav,0,poule,510,25,5,5,français,m,2,0.2,57.39946228,1.54721415
5c4130f08daebb0001d1a27b,9,0,2024-02-24T08:13:23.572Z,french_48.wav,0,poule,510,25,5,5,français,m,3,0.25666667,-39.27972342,0.33574946
5c4130f08daebb0001d1a27b,10,0,2024-02-24T08:13:23.572Z,french_730.wav,0,poule,940,25,5,5,français,m,0,0.0,45.92676741,0.18014666
5c4130f08daebb0001d1a27b,10,0,2024-02-24T08:13:23.572Z,french_730.wav,0,poule,940,25,5,5,français,m,1,0.1,-44.36449205,1.39371349
5c4130f08daebb0001d1a27b,10,0,2024-02-24T08:13:23.572Z,french_730.wav,0,poule,940,25,5,5,français,m,2,0.2,-0.92451291,1.11032992
5c4130f08daebb0001d1a27b,10,0,2024-02-24T08:13:23.572Z,french_730.wav,0,poule,940,25,5,5,français,m,3,0.25666667,30.80646356,1.142585
5c4130f08daebb0001d1a27b,11,0,2024-02-24T08:13:23.572Z,french_827.wav,0,poule,979,25,5,5,français,m,0,0.0,52.76736232,0.65431252
5c4130f08daebb0001d1a27b,11,0,2024-02-24T08:13:23.572Z,french_827.wav,0,poule,979,25,5,5,français,m,1,0.1,43.3684124,1.37281261
5c4130f08daebb0001d1a27b,11,0,2024-02-24T08:13:23.572Z,french_827.wav,0,poule,979,25,5,5,français,m,2,0.2,5.13351566,0.35708699
5c4130f08daebb0001d1a27b,11,0,2024-02-24T08:13:23.572Z,french_827.wav,0,poule,979,25,5,5,français,m,3,0.25666667,57.45570888,0.33493738
5c4130f08daebb0001d1a27b,12,0,2024-02-24T08:13:23.572Z,french_684.wav,0,poule,1212,25,5,5,français,m,0,0.0,48.27990123,1.19178247
5c4130f08daebb0001d1a27b,12,0,2024-02-24T08:13:23.572Z,french_684.wav,0,poule,1212,25,5,5,français,m,1,0.1,7.94375198,1.19295899
5c4130f08daebb0001d1a27b,12,0,2024-02-24T08:13:23.572Z,french_684.wav,0,poule,1212,25,5,5,français,m,2,0.2,8.02227037,0.65877552
5c4130f08daebb0001d1a27b,12,0,2024-02-24T08:13:23.572Z,french_684.wav,0,poule,1212,25,5,5,français,m,3,0.25666667,-51.87380122,1.73612438
5c4130f08daebb0001d1a27b,13,0,2024-02-24T08:13:23.572Z,french_574.wav,0,poule,864,25,5,5,français,m,0,0.0,-78.43657591,1.27247015
5c4130f08daebb0001d1a27b,13,0,2024-02-24T08:13:23.572Z,french_574.wav,0,poule,864,25,5,5,français,m,1,0.1,25.16959944,0.78898338
5c4130f08daebb0001d1a27b,13,0,2024-02-24T08:13:23.572Z,french_574.wav,0,poule,864,25,5,5,français,m,2,0.2,42.97785019,1.49121094
5c4130f08daebb0001d1a27b,13,0,2024-02-24T08:13:23.572Z,french_574.wav,0,poule,864,25,5,5,français,m,3,0.25666667,77.36764491,0.68004104
5c4130f08daebb0001d1a27b,14,0,2024-02-24T08:13:23.572Z,french_564.wav,0,poule,1076,25,5,5,français,m,0,0.0,-42.85760261,0.14777183
5c4130f08daebb0001d1a27b,14,0,2024-02-24T08:13:23.572Z,french_564.wav,0,poule,1076,25,5,5,français,m,1,0.1,78.12316343,1.08229262
5c4130f08daebb0001d1a27b,14,0,2024-02-24T08:13:23.572Z,french_564.wav,0,poule,1076,25,5,5,français,m,2,0.2,32.53186734,0.52251513
5c4130f08daebb0001d1a27b,14,0,2024-02-24T08:13:23.572Z,french_564.wav,0,poule,1076,25,5,5,français,m,3,0.25666667,60.20924512,1.40255579
5c4130f08daebb0001d1a27b,15,0,2024-02-24T08:13:23.572Z,french_216.wav,0,poule,482,25,5,5,français,m,0,0.0,94.47877999,1.14166801
5c4130f08daebb0001d1a27b,15,0,2024-02-24T08:13:23.572Z,french_216.wav,0,poule,482,25,5,5,français,m,1,0.1,-35.64680956,0.96477388
5c4130f08daebb0001d1a27b,15,0,2024-02-24T08:13:23.572Z,french_216.wav,0,poule,482,25,5,5,français,m,2,0.2,-6.49582042,1.30348701
5c4130f08daebb0001d1a27b,15,0,2024-02-24T08:13:23.572Z,french_216.wav,0,poule,482,25,5,5,français,m,3,0.25666667,88.58272088,1.4092971
5c4130f08daebb0001d1a27b,16,0,2024-02-24T08:13:23.572Z,french_671.wav,0,poule,416,25,5,5,français,m,0,0.0,-43.02390558,0.93196934
5c4130f08daebb0001d1a27b,16,0,2024-02-24T08:13:23.572Z,french_671.wav,0,poule,416,25,5,5,français,m,1,0.1,13.89093856,1.15314194
5c4130f08daebb0001d1a27b,16,0,2024-02-24T08:13:23.572Z,french_671.wav,0,poule,416,25,5,5,français,m,2,0.2,3.48608914,0.54353121
5c4130f08daebb0001d1a27b,16,0,2024-02-24T08:13:23.572Z,french_671.wav,0,poule,416,25,5,5,français,m,3,0.25666667,-98.36263583,1.08598707
5c4130f08daebb0001d1a27b,17,0,2024-02-24T08:13:23.572Z,french_765.wav,0,poule,273,25,5,5,français,m,0,0.0,37.74619949,1.94846132
5c4130f08daebb0001d1a27b,17,0,2024-02-24T08:13:23.572Z,french_765.wav,0,poule,273,25,5,5,français,m,1,0.1,35.79177818,0.74629838
5c4130f08daebb0001d1a27b,17,0,2024-02-24T08:13:23.572Z,french_765.wav,0,poule,273,25,5,5,français,m,2,0.2,-4.82792988,1.12672767
5c4130f08daebb0001d1a27b,17,0,2024-02-24T08:13:23.572Z,french_765.wav,0,poule,273,25,5,5,français,m,3,0.25666667,-29.99687949,0.50330326
5c4130f08daebb0001d1a27b,18,0,2024-02-24T08:13:23.572Z,french_111.wav,0,poule,359,25,5,5,français,m,0,0.0,1.59326178,0.67104434
5c4130f08daebb0001d1a27b,18,0,2024-02-24T08:13:23.572Z,french_111.wav,0,poule,359,25,5,5,français,m,1,0.1,-40.8911656,0.22448148
5c4130f08daebb0001d1a27b,18,0,2024-02-24T08:13:23.572Z,french_111.wav,0,poule,359,25,5,5,français,m,2,0.2,-66.59771714,1.3255008
5c4130f08daebb0001d1a27b,18,0,2024-02-24T08:13:23.572Z,french_111.wav,0,poule,359,25,5,5,français,m,3,0.25666667,93.67842788,0.49085037
5c4130f08daebb0001d1a27b,19,0,2024-02-24T08:13:23.572Z,french_43.wav,0,poule,707,25,5,5,français,m,0,0.0,-6.86336629,1.4879687
5c4130f08daebb0001d1a27b,19,0,2024-02-24T08:13:23.572Z,french_43.wav,0,poule,707,25,5,5,français,m,1,0.1,1.3862511,1.50259819
5c4130f08daebb0001d1a27b,19,0,2024-02-24T08:13:23.572Z,french_43.wav,0,poule,707,25,5,5,français,m,2,0.2,-46.66652787,1.37505073
5c4130f08daebb0001d1a27b,19,0,2024-02-24T08:13:23.572Z,french_43.wav,0,poule,707,25,5,5,français,m,3,0.25666667,99.62545591,0.7561706
5c4130f08daebb0001d1a27b,20,0,2024-02-24T08:13:23.572Z,french_165.wav,0,poule,405,25,5,5,français,m,0,0.0,34.81781775,0.27086967
5c4130f08daebb0001d1a27b,20,0,2024-02-24T08:13:23.572Z,french_165.wav,0,poule,405,25,5,5,français,m,1,0.1,-0.63630456,1.42196963
5c4130f08daebb0001d1a27b,20,0,2024-02-24T08:13:23.572Z,french_165.wav,0,poule,405,25,5,5,français,m,2,0.2,85.92593744,1.99513726
5c4130f08daebb0001d1a27b,20,0,2024-02-24T08:13:23.572Z,french_165.wav,0,poule,405,25,5,5,français,m,3,0.25666667,7.56589877,0.37439059
5c4130f08daebb0001d1a27b,21,0,2024-02-24T08:13:23.572Z,french_863.wav,0,poule,418,25,5,5,français,m,0,0.0,30.03534105,0.49205925
5c4130f08daebb0001d1a27b,21,0,2024-02-24T08:13:23.572Z,french_863.wav,0,poule,418,25,5,5,français,m,1,0.1,70.10019967,1.5612805
5c4130f08daebb0001d1a27b,21,0,2024-02-24T08:13:23.572Z,french_863.wav,0,poule,418,25,5,5,français,m,2,0.2,38.31171189,1.70745742
5c4130f08daebb0001d1a27b,21,0,2024-02-24T08:13:23.572Z,french_863.wav,0,poule,418,25,5,5,français,m,3,0.25666667,76.0150774,0.79908683
5c4130f08daebb0001d1a27b,22,0,2024-02-24T08:13:23.572Z,french_927.wav,0,poule,392,25,5,5,français,m,0,0.0,-10.52890049,0.60201579
5c4130f08daebb0001d1a27b,22,0,2024-02-24T08:13:23.572Z,french_927.wav,0,poule,392,25,5,5,français,m,1,0.1,-14.60087289,1.35124195
5c4130f08daebb0001d1a27b,22,0,2024-02-24T08:13:23.572Z,french_927.wav,0,poule,392,25,5,5,français,m,2,0.2,-23.19620382,0.97713268
5c4130f08daebb0001d1a27b,22,0,2024-02-24T08:13:23.572Z,french_927.wav,0,poule,392,25,5,5,français,m,3,0.25666667,-4.91748489,0.83956459
5c4130f08daebb0001d1a27b,23,0,2024-02-24T08:13:23.572Z,french_330.wav,0,poule,388,25,5,5,français,m,0,0.0,-46.98301203,1.92315583
5c4130f08daebb0001d1a27b,23,0,2024-02-24T08:13:23.572Z,french_330.wav,0,poule,388,25,5,5,français,m,1,0.1,55.18277966,0.64158591
5c4130f08daebb0001d1a27b,23,0,2024-02-24T08:13:23.572Z,french_330.wav,0,poule,388,25,5,5,français,m,2,0.2,68.01781419,0.71457858
5c4130f08daebb0001d1a27b,23,0,2024-02-24T08:13:23.572Z,french_330.wav,0,poule,388,25,5,5,français,m,3,0.25666667,-65.13341665,0.26661962
5c4130f08daebb0001d1a27b,24,0,2024-02-24T08:13:23.572Z,french_377.wav,0,poule,327,25,5,5,français,m,0,0.0,99.29202042,1.14982617
5c4130f08daebb0001d1a27b,24,0,2024-02-24T08:13:23.572Z,french_377.wav,0,poule,327,25,5,5,français,m,1,0.1,26.86177352,1.68513437
5c4130f08daebb0001d1a27b,24,0,2024-02-24T08:13:23.572Z,french_377.wav,0,poule,327,25,5,5,français,m,2,0.2,-57.22110681,0.38363532
5c4130f08daebb0001d1a27b,24,0,2024-02-24T08:13:23.572Z,french_377.wav,0,poule,327,25,5,5,français,m,3,0.25666667,67.5545455,0.68728301
5c4130f08daebb0001d1a27b,25,0,2024-02-24T08:13:23.572Z,french_994.wav,0,pull,2153,25,5,5,français,m,0,0.0,-39.66278541,0.39681658
5c4130f08daebb0001d1a27b,25,0,2024-02-24T08:13:23.572Z,french_994.wav,0,pull,2153,25,5,5,français,m,1,0.1,66.70535545,1.6498105
5c4130f08daebb0001d1a27b,25,0,2024-02-24T08:13:23.572Z,french_994.wav,0,pull,2153,25,5,5,français,m,2,0.2,-87.43703712,1.48803434
5c4130f08daebb0001d1a27b,25,0,2024-02-24T08:13:23.572Z,french_994.wav,0,pull,2153,25,5,5,français,m,3,0.25666667,-41.83233866,1.54058484
5c4130f08daebb0001d1a27b,26,0,2024-02-24T08:13:23.572Z,french_277.wav,0,pull,7820,25,5,5,français,m,0,0.0,25.76771762,1.36859257
5c4130f08daebb0001d1a27b,26,0,2024-02-24T08:13:23.572Z,french_277.wav,0,pull,7820,25,5,5,français,m,1,0.1,-70.25975294,1.02052852
5c4130f08daebb0001d1a27b,26,0,2024-02-24T08:13:23.572Z,french_277.wav,0,pull,7820,25,5,5,français,m,2,0.2,-52.96477311,1.14771146
5c4130f08daebb0001d1a27b,26,0,2024-02-24T08:13:23.572Z,french_277.wav,0,pull,7820,25,5,5,français,m,3,0.25666667,41.51950841,0.3441713
5c4130f08daebb0001d1a27b,27,0,2024-02-24T08:13:23.572Z,french_442.wav,0,poule,1234,25,5,5,français,m,0,0.0,60.29330972,0.95088916
5c4130f08daebb0001d1a27b,27,0,2024-02-24T08:13:23.572Z,french_442.wav,0,poule,1234,25,5,5,français,m,1,0.1,96.30587546,0.89420653
5c4130f08daebb0001d1a27b,27,0,2024-02-24T08:13:23.572Z,french_442.wav,0,poule,1234,25,5,5,français,m,2,0.2,3.75375275,0.09745987
5c4130f08daebb0001d1a27b,27,0,2024-02-24T08:13:23.572Z,french_442.wav,0,poule,1234,25,5,5,français,m,3,0.25666667,65.23357012,0.42759775
5c4130f08daebb0001d1a27b,28,0,2024-02-24T08:13:23.572Z,french_952.wav,0,pull,847,25,5,5,français,m,0,0.0,89.6944408,1.65049473
5c4130f08daebb0001d1a27b,28,0,2024-02-24T08:13:23.572Z,french_952.wav,0,pull,847,25,5,5,français,m,1,0.1,29.6191185,0.9962644
5c4130f08daebb0001d1a27b,28,0,2024-02-24T08:13:23.572Z,french_952.wav,0,pull,847,25,5,5,français,m,2,0.2,82.60414553,0.25471402
5c4130f08daebb0001d1a27b,28,0,2024-02-24T08:13:23.572Z,french_952.wav,0,pull,847,25,5,5,français,m,3,0.25666667,-20.57336344,0.85149117
5c4130f08daebb0001d1a27b,29,0,2024-02-24T08:13:23.572Z,french_906.wav,0,pull,898,25,5,5,français,m,0,0.0,-13.49448879,0.31236465
5c4130f08daebb0001d1a27b,29,0,2024-02-24T08:13:23.572Z,french_906.wav,0,pull,898,25,5,5,français,m,1,0.1,31.46373863,1.12113229
5c4130f08daebb0001d1a27b,29,0,2024-02-24T08:13:23.572Z,french_906.wav,0,pull,898,25,5,5,français,m,2,0.2,-49.02376816,0.0749788
5c4130f08daebb0001d1a27b,29,0,2024-02-24T08:13:23.572Z,french_906.wav,0,pull,898,25,5,5,français,m,3,0.25666667,26.58933429,0.8331551
5c4130f08daebb0001d1a27b,30,0,2024-02-24T08:13:23.572Z,french_639.wav,0,poule,616,25,5,5,français,m,0,0.0,11.64385005,1.86180111
5c4130f08daebb0001d1a27b,30,0,2024-02-24T08:13:23.572Z,french_639.wav,0,poule,616,25,5,5,français,m,1,0.1,-83.53772589,1.31531339
5c4130f08daebb0001d1a27b,30,0,2024-02-24T08:13:23.572Z,french_639.wav,0,poule,616,25,5,5,français,m,2,0.2,-26.70113898,0.16484712
5c4130f08daebb0001d1a27b,30,0,2024-02-24T08:13:23.572Z,french_639.wav,0,poule,616,25,5,5,français,m,3,0.25666667,-28.21717215,0.08923993
5c4130f08daebb0001d1a27b,31,0,2024-02-24T08:13:23.572Z,french_400.wav,0,poule,628,25,5,5,français,m,0,0.0,-93.78872851,1.79390568
5c4130f08daebb0001d1a27b,31,0,2024-02-24T08:13:23.572Z,french_400.wav,0,poule,628,25,5,5,français,m,1,0.1,52.09991665,0.45516445
5c4130f08daebb0001d1a27b,31,0,2024-02-24T08:13:23.572Z,french_400.wav,0,poule,628,25,5,5,français,m,2,0.2,99.5217597,0.71943881
5c4130f08daebb0001d1a27b,31,0,2024-02-24T08:13:23.572Z,french_400.wav,0,poule,628,25,5,5,français,m,3,0.25666667,34.2913143,0.66600511
5c4130f08daebb0001d1a27b,32,0,2024-02-24T08:13:23.572Z,french_443.wav,0,poule,622,25,5,5,français,m,0,0.0,-70.8287672,0.48827419
5c4130f08daebb0001d1a27b,32,0,2024-02-24T08:13:23.572Z,french_443.wav,0,poule,622,25,5,5,français,m,1,0.1,-57.74098156,0.38931866
5c4130f08daebb0001d1a27b,32,0,2024-02-24T08:13:23.572Z,french_443.wav,0,poule,622,25,5,5,français,m,2,0.2,-4.83347895,0.64406231
5c4130f08daebb0001d1a27b,32,0,2024-02-24T08:13:23.572Z,french_443.wav,0,poule,622,25,5,5,français,m,3,0.25666667,-81.70376308,1.21599086
5c4130f08daebb0001d1a27b,33,0,2024-02-24T08:13:23.572Z,french_949.wav,0,poule,414,25,5,5,français,m,0,0.0,29.18752906,0.08608659
5c4130f08daebb0001d1a27b,33,0,2024-02-24T08:13:23.572Z,french_949.wav,0,poule,414,25,5,5,français,m,1,0.1,-67.27756955,1.93613179
5c4130f08daebb0001d1a27b,33,0,2024-02-24T08:13:23.572Z,french_949.wav,0,poule,414,25,5,5,français,m,2,0.2,55.26419326,0.81834021
5c4130f08daebb0001d1a27b,33,0,2024-02-24T08:13:23.572Z,french_949.wav,0,poule,414,25,5,5,français,m,3,0.25666667,11.27327126,0.09029871
5c4130f08daebb0001d1a27b,34,0,2024-02-24T08:13:23.572Z,french_196.wav,0,poule,1026,25,5,5,français,m,0,0.0,-51.30508497,1.16005851
5c4130f08daebb0001d1a27b,34,0,2024-02-24T08:13:23.572Z,french_196.wav,0,poule,1026,25,5,5,français,m,1,0.1,89.17651026,0.87725998
5c4130f08daebb0001d1a27b,34,0,2024-02-24T08:13:23.572Z,french_196.wav,0,poule,1026,25,5,5,français,m,2,0.2,77.92993737,1.23506332
5c4130f08daebb0001d1a27b,34,0,2024-02-24T08:13:23.572Z,french_196.wav,0,poule,1026,25,5,5,français,m,3,0.25666667,-86.11962375,1.33141167
5c4130f08daebb0001d1a27b,35,0,2024-02-24T08:13:23.572Z,french_188.wav,0,pull,580,25,5,5,français,m,0,0.0,49.6210254,1.07409835
5c4130f08daebb0001d1a27b,35,0,2024-02-24T08:13:23.572Z,french_188.wav,0,pull,580,25,5,5,français,m,1,0.1,-51.2490581,0.05018037
5c4130f08daebb0001d1a27b,35,0,2024-02-24T08:13:23.572Z,french_188.wav,0,pull,580,25,5,5,français,m,2,0.2,40.00177065,1.57813661
5c4130f08daebb0001d1a27b,35,0,2024-02-24T08:13:23.572Z,french_188.wav,0,pull,580,25,5,5,français,m,3,0.25666667,-3.28540475,0.4516863
5c4130f08daebb0001d1a27b,36,0,2024-02-24T08:13:23.572Z,french_642.wav,0,poule,726,25,5,5,français,m,0,0.0,94.74505174,1.94145252
5c4130f08daebb0001d1a27b,36,0,2024-02-24T08:13:23.572Z,french_642.wav,0,poule,726,25,5,5,français,m,1,0.1,-41.90916732,1.43327494
5c4130f08daebb0001d1a27b,36,0,2024-02-24T08:13:23.572Z,french_642.wav,0,poule,726,25,5,5,français,m,2,0.2,-70.07976965,0.59817774
5c4130f08daebb0001d1a27b,36,0,2024-02-24T08:13:23.572Z,french_642.wav,0,poule,726,25,5,5,français,m,3,0.25666667,42.72168091,1.11755549
5c4130f08daebb0001d1a27b,37,0,2024-02-24T08:13:23.572Z,french_208.wav,0,poule,425,25,5,5,français,m,0,0.0,8.68990421,0.76850137
5c4130f08daebb0001d1a27b,37,0,2024-02-24T08:13:23.572Z,french_208.wav,0,poule,425,25,5,5,français,m,1,0.1,-43.18378372,1.33781212
5c4130f08daebb0001d1a27b,37,0,2024-02-24T08:13:23.572Z,french_208.wav,0,poule,425,25,5,5,français,m,2,0.2,71.27860087,0.39946576
5c4130f08daebb0001d1a27b,37,0,2024-02-24T08:13:23.572Z,french_208.wav,0,poule,425,25,5,5,français,m,3,0.25666667,-15.56799856,0.17788265
5c4130f08daebb0001d1a27b,38,0,2024-02-24T08:13:23.572Z,french_338.wav,0,poule,340,25,5,5,français,m,0,0.0,-59.42111132,1.60060286
5c4130f08daebb0001d1a27b,38,0,2024-02-24T08:13:23.572Z,french_338.wav,0,poule,340,25,5,5,français,m,1,0.1,-69.70478814,0.22517269
5c4130f08daebb0001d1a27b,38,0,2024-02-24T08:13:23.572Z,french_338.wav,0,poule,340,25,5,5,français,m,2,0.2,-12.60920347,1.52190999
5c4130f08daebb0001d1a27b,38,0,2024-02-24T08:13:23.572Z,french_338.wav,0,poule,340,25,5,5,français,m,3,0.25666667,-82.44797384,0.82265445
5c4130f08daebb0001d1a27b,39,0,2024-02-24T08:13:23.572Z,french_143.wav,0,poule,457,25,5,5,français,m,0,0.0,-46.09253598,1.27633083
5c4130f08daebb0001d1a27b,39,0,2024-02-24T08:13:23.572Z,french_143.wav,0,poule,457,25,5,5,français,m,1,0.1,41.21858491,0.28919458
5c4130f08daebb0001d1a27b,39,0,2024-02-24T08:13:23.572Z,french_143.wav,0,poule,457,25,5,5,français,m,2,0.2,10.38405582,0.61917155
5c4130f08daebb0001d1a27b,39,0,2024-02-24T08:13:23.572Z,french_143.wav,0,poule,457,25,5,5,français,m,3,0.25666667,-99.98168054,0.37925836
5c4130f08daebb0001d1a27b,40,0,2024-02-24T08:13:23.572Z,french_602.wav,0,pull,512,25,5,5,français,m,0,0.0,88.5156033,1.15034926
5c4130f08daebb0001d1a27b,40,0,2024-02-24T08:13:23.572Z,french_602.wav,0,pull,512,25,5,5,français,m,1,0.1,50.37840389,0.70361943
5c4130f08daebb0001d1a27b,40,0,2024-02-24T08:13:23.572Z,french_602.wav,0,pull,512,25,5,5,français,m,2,0.2,41.99983627,1.85629911
5c4130f08daebb0001d1a27b,40,0,2024-02-24T08:13:23.572Z,french_602.wav,0,pull,512,25,5,5,français,m,3,0.25666667,11.33520808,0.32194213
5c4130f08daebb0001d1a27b,41,0,2024-02-24T08:13:23.572Z,french_218.wav,0,poule,420,25,5,5,français,m,0,0.0,50.58163299,1.39700525
5c4130f08daebb0001d1a27b,41,0,2024-02-24T08:13:23.572Z,french_218.wav,0,poule,420,25,5,5,français,m,1,0.1,-62.47432707,0.24728847
5c4130f08daebb0001d1a27b,41,0,2024-02-24T08:13:23.572Z,french_218.wav,0,poule,420,25,5,5,français,m,2,0.2,-11.24403131,1.10420939
5c4130f08daebb0001d1a27b,41,0,2024-02-24T08:13:23.572Z,french_218.wav,0,poule,420,25,5,5,français,m,3,0.25666667,-76.23808147,0.34157158
5c4130f08daebb0001d1a27b,42,0,2024-02-24T08:13:23.572Z,french_299.wav,0,poule,535,25,5,5,français,m,0,0.0,12.52470623,1.64482663
5c4130f08daebb0001d1a27b,42,0,2024-02-24T08:13:23.572Z,french_299.wav,0,poule,535,25,5,5,français,m,1,0.1,-97.26544336,1.84069115
5c4130f08daebb0001d1a27b,42,0,2024-02-24T08:13:23.572Z,french_299.wav,0,poule,535,25,5,5,français,m,2,0.2,-80.62903972,0.25110426
5c4130f08daebb0001d1a27b,42,0,2024-02-24T08:13:23.572Z,french_299.wav,0,poule,535,25,5,5,français,m,3,0.25666667,73.47257664,1.45765737
5c4130f08daebb0001d1a27b,43,0,2024-02-24T08:13:23.572Z,french_160.wav,0,poule,545,25,5,5,français,m,0,0.0,94.580754,1.48632924
5c4130f08daebb0001d1a27b,43,0,2024-02-24T08:13:23.572Z,french_160.wav,0,poule,545,25,5,5,français,m,1,0.1,-77.59057929,0.83284567
5c4130f08daebb0001d1a27b,43,0,2024-02-24T08:13:23.572Z,french_160.wav,0,poule,545,25,5,5,français,m,2,0.2,49.28871101,1.32543638
5c4130f08daebb0001d1a27b,43,0,2024-02-24T08:13:23.572Z,french_160.wav,0,poule,545,25,5,5,français,m,3,0.25666667,54.34008904,1.18016963
5c4130f08daebb0001d1a27b,44,0,2024-02-24T08:13:23.572Z,french_78.wav,0,poule,186,25,5,5,français,m,0,0.0,-36.45256911,0.98498246
5c4130f08daebb0001d1a27b,44,0,2024-02-24T08:13:23.572Z,french_78.wav,0,poule,186,25,5,5,français,m,1,0.1,52.80709263,1.84515784
5c4130f08daebb0001d1a27b,44,0,2024-02-24T08:13:23.572Z,french_78.wav,0,poule,186,25,5,5,français,m,2,0.2,-45.25624127,1.50799972
5c4130f08daebb0001d1a27b,44,0,2024-02-24T08:13:23.572Z,french_78.wav,0,poule,186,25,5,5,français,m,3,0.25666667,18.96418323,1.61920031
5c4130f08daebb0001d1a27b,45,0,2024-02-24T08:13:23.572Z,french_378.wav,0,poule,322,25,5,5,français,m,0,0.0,74.25757507,1.44636003
5c4130f08daebb0001d1a27b,45,0,2024-02-24T08:13:23.572Z,french_378.wav,0,poule,322,25,5,5,français,m,1,0.1,69.54270197,0.18429149
5c4130f08daebb0001d1a27b,45,0,2024-02-24T08:13:23.572Z,french_378.wav,0,poule,322,25,5,5,français,m,2,0.2,91.83328043,0.75177649
5c4130f08daebb0001d1a27b,45,0,2024-02-24T08:13:23.572Z,french_378.wav,0,poule,322,25,5,5,français,m,3,0.25666667,65.12199987,0.49263706
5c4130f08daebb0001d1a27b,46,0,2024-02-24T08:13:23.572Z,french_709.wav,0,poule,177,25,5,5,français,m,0,0.0,-79.1228884,1.66046785
5c4130f08daebb0001d1a27b,46,0,2024-02-24T08:13:23.572Z,french_709.wav,0,poule,177,25,5,5,français,m,1,0.1,-27.45222572,0.50815509
5c4130f08daebb0001d1a27b,46,0,2024-02-24T08:13:23.572Z,french_709.wav,0,poule,177,25,5,5,français,m,2,0.2,-11.54770291,1.01994244
5c4130f08daebb0001d1a27b,46,0,2024-02-24T08:13:23.572Z,french_709.wav,0,poule,177,25,5,5,français,m,3,0.25666667,-99.06734201,1.8368488
5c4130f08daebb0001d1a27b,47,0,2024-02-24T08:13:23.572Z,french_846.wav,0,poule,220,25,5,5,français,m,0,0.0,70.67693031,1.34255937
5c4130f08daebb0001d1a27b,47,0,2024-02-24T08:13:23.572Z,french_846.wav,0,poule,220,25,5,5,français,m,1,0.1,-66.50397015,0.4230684
5c4130f08daebb0001d1a27b,47,0,2024-02-24T08:13:23.572Z,french_846.wav,0,poule,220,25,5,5,français,m,2,0.2,37.81388611,1.53749893
5c4130f08daebb0001d1a27b,47,0,2024-02-24T08:13:23.572Z,french_846.wav,0,poule,220,25,5,5,français,m,3,0.25666667,-25.90764661,0.57819313
5c4130f08daebb0001d1a27b,48,0,2024-02-24T08:13:23.572Z,french_733.wav,0,poule,203,25,5,5,français,m,0,0.0,96.30835656,1.00234216
5c4130f08daebb0001d1a27b,48,0,2024-02-24T08:13:23.572Z,french_733.wav,0,poule,203,25,5,5,français,m,1,0.1,-16.80147809,0.65355169
5c4130f08daebb0001d1a27b,48,0,2024-02-24T08:13:23.572Z,french_733.wav,0,poule,203,25,5,5,français,m,2,0.2,34.50045069,1.63394937
5c4130f08daebb0001d1a27b,48,0,2024-02-24T08:13:23.572Z,french_733.wav,0,poule,203,25,5,5,français,m,3,0.25666667,-6.11336577,0.15404628
5c4130f08daebb0001d1a27b,49,0,2024-02-24T08:13:23.572Z,french_112.wav,0,poule,197,25,5,5,français,m,0,0.0,-70.30580716,0.18088618
5c4130f08daebb0001d1a27b,49,0,2024-02-24T08:13:23.572Z,french_112.wav,0,poule,197,25,5,5,français,m,1,0.1,33.64373442,1.43869791
5c4130f08daebb0001d1a27b,49,0,2024-02-24T08:13:23.572Z,french_112.wav,0,poule,197,25,5,5,français,m,2,0.2,26.55830463,0.89230346
5c4130f08daebb0001d1a27b,49,0,2024-02-24T08:13:23.572Z,french_112.wav,0,poule,197,25,5,5,français,m,3,0.25666667,46.16769785,0.14009493
5c4130f08daebb0001d1a27b,50,1,2024-02-24T08:13:23.572Z,french_250.wav,0,poule,612,25,5,5,français,m,0,0.0,34.1596777,0.91954119
5c4130f08daebb0001d1a27b,50,1,2024-02-24T08:13:23.572Z,french_250.wav,0,poule,612,25,5,5,français,m,1,0.1,-44.36149414,1.97424998
5c4130f08daebb0001d1a27b,50,1,2024-02-24T08:13:23.572Z,french_250.wav,0,poule,612,25,5,5,français,m,2,0.2,5.0850049,0.32778381
5c4130f08daebb0001d1a27b,50,1,2024-02-24T08:13:23.572Z,french_250.wav,0,poule,612,25,5,5,français,m,3,0.25666667,-37.48818875,0.84724669
5c4130f08daebb0001d1a27b,51,1,2024-02-24T08:13:23.572Z,french_663.wav,0,poule,908,25,5,5,français,m,0,0.0,9.26283991,1.50228176
5c4130f08daebb0001d1a27b,51,1,2024-02-24T08:13:23.572Z,french_663.wav,0,poule,908,25,5,5,français,m,1,0.1,8.63416543,0.75616041
5c4130f08daebb0001d1a27b,51,1,2024-02-24T08:13:23.572Z,french_663.wav,0,poule,908,25,5,5,français,m,2,0.2,-94.49816933,0.98085129
5c4130f08daebb0001d1a27b,51,1,2024-02-24T08:13:23.572Z,french_663.wav,0,poule,908,25,5,5,français,m,3,0.25666667,-21.43071833,1.35574544
5c4130f08daebb0001d1a27b,52,1,2024-02-24T08:13:23.572Z,french_325.wav,0,poule,494,25,5,5,français,m,0,0.0,88.71142286,0.52996958
5c4130f08daebb0001d1a27b,52,1,2024-02-24T08:13:23.572Z,french_325.wav,0,poule,494,25,5,5,français,m,1,0.1,-56.3206586,1.24996424
5c4130f08daebb0001d1a27b,52,1,2024-02-24T08:13:23.572Z,french_325.wav,0,poule,494,25,5,5,français,m,2,0.2,41.53206129,1.51417943
5c4130f08daebb0001d1a27b,52,1,2024-02-24T08:13:23.572Z,french_325.wav,0,poule,494,25,5,5,français,m,3,0.25666667,-39.91784783,1.21569626
5c4130f08daebb0001d1a27b,53,1,2024-02-24T08:13:23.572Z,french_157.wav,0,poule,146,25,5,5,français,m,0,0.0,-6.6246598,1.79360699
5c4130f08daebb0001d1a27b,53,1,2024-02-24T08:13:23.572Z,french_157.wav,0,poule,146,25,5,5,français,m,1,0.1,49.95824353,1.27582672
5c4130f08daebb0001d1a27b,53,1,2024-02-24T08:13:23.572Z,french_157.wav,0,poule,146,25,5,5,français,m,2,0.2,50.90371108,1.55422844
5c4130f08daebb0001d1a27b,53,1,2024-02-24T08:13:23.572Z,french_157.wav,0,poule,146,25,5,5,français,m,3,0.25666667,-96.22740321,0.51380788
5c4130f08daebb0001d1a27b,54,1,2024-02-24T08:13:23.572Z,french_425.wav,0,poule,406,25,5,5,français,m,0,0.0,36.0896382,0.72680638
5c4130f08daebb0001d1a27b,54,1,2024-02-24T08:13:23.572Z,french_425.wav,0,poule,406,25,5,5,français,m,1,0.1,-60.28824884,0.01839492
5c4130f08daebb0001d1a27b,54,1,2024-02-24T08:13:23.572Z,french_425.wav,0,poule,406,25,5,5,français,m,2,0.2,-83.12671609,1.09901753
5c4130f08daebb0001d1a27b,54,1,2024-02-24T08:13:23.572Z,french_425.wav,0,poule,406,25,5,5,français,m,3,0.25666667,32.66103116,1.13928828
5c4130f08daebb0001d1a27b,55,1,2024-02-24T08:13:23.572Z,french_643.wav,0,pull,652,25,5,5,français,m,0,0.0,63.91458592,0.06817761
5c4130f08daebb0001d1a27b,55,1,2024-02-24T08:13:23.572Z,french_643.wav,0,pull,652,25,5,5,français,m,1,0.1,-87.79617997,1.72915736
5c4130f08daebb0001d1a27b,55,1,2024-02-24T08:13:23.572Z,french_643.wav,0,pull,652,25,5,5,français,m,2,0.2,-35.4412084,1.06879305
5c4130f08daebb0001d1a27b,55,1,2024-02-24T08:13:23.572Z,french_643.wav,0,pull,652,25,5,5,français,m,3,0.25666667,41.82610472,1.26220402
5c4130f08daebb0001d1a27b,56,1,2024-02-24T08:13:23.572Z,french_233.wav,0,pull,320,25,5,5,français,m,0,0.0,-74.05194232,1.46941626
5c4130f08daebb0001d1a27b,56,1,2024-02-24T08:13:23.572Z,french_233.wav,0,pull,320,25,5,5,français,m,1,0.1,45.77276391,0.63238632
5c4130f08daebb0001d1a27b,56,1,2024-02-24T08:13:23.572Z,french_233.wav,0,pull,320,25,5,5,français,m,2,0.2,-37.66213209,1.46686039
5c4130f08daebb0001d1a27b,56,1,2024-02-24T08:13:23.572Z,french_233.wav,0,pull,320,25,5,5,français,m,3,0.25666667,-32.85858595,1.82755258
5c4130f08daebb0001d1a27b,57,1,2024-02-24T08:13:23.572Z,french_313.wav,0,poule,1005,25,5,5,français,m,0,0.0,50.15458506,0.55380102
5c4130f08daebb0001d1a27b,57,1,2024-02-24T08:13:23.572Z,french_313.wav,0,poule,1005,25,5,5,français,m,1,0.1,2.46815661,0.88494107
5c4130f08daebb0001d1a27b,57,1,2024-02-24T08:13:23.572Z,french_313.wav,0,poule,1005,25,5,5,français,m,2,0.2,44.14025365,0.65214702
5c4130f08daebb0001d1a27b,57,1,2024-02-24T08:13:23.572Z,french_313.wav,0,poule,1005,25,5,5,français,m,3,0.25666667,-56.8276357,0.5616472
5c4130f08daebb0001d1a27b,58,1,2024-02-24T08:13:23.572Z,french_658.wav,0,poule,366,25,5,5,français,m,0,0.0,-96.64822149,1.39139244
5c4130f08daebb0001d1a27b,58,1,2024-02-24T08:13:23.572Z,french_658.wav,0,poule,366,25,5,5,français,m,1,0.1,49.0828934,0.52881355
5c4130f08daebb0001d1a27b,58,1,2024-02-24T08:13:23.572Z,french_658.wav,0,poule,366,25,5,5,français,m,2,0.2,12.17217875,0.81868418
5c4130f08daebb0001d1a27b,58,1,2024-02-24T08:13:23.572Z,french_658.wav,0,poule,366,25,5,5,français,m,3,0.25666667,21.40759607,0.56425508
5c4130f08daebb0001d1a27b,59,1,2024-02-24T08:13:23.572Z,french_240.wav,0,poule,830,25,5,5,français,m,0,0.0,77.68768834,0.69241663
5c4130f08daebb0001d1a27b,59,1,2024-02-24T08:13:23.572Z,french_240.wav,0,poule,830,25,5,5,français,m,1,0.1,-29.82643761,1.16068826
5c4130f08daebb0001d1a27b,59,1,2024-02-24T08:13:23.572Z,french_240.wav,0,poule,830,25,5,5,français,m,2,0.2,18.33689373,0.98486954
5c4130f08daebb0001d1a27b,59,1,2024-02-24T08:13:23.572Z,french_240.wav,0,poule,830,25,5,5,français,m,3,0.25666667,24.70133008,0.89191813
5c4130f08daebb0001d1a27b,60,1,2024-02-24T08:13:23.572Z,french_976.wav,0,poule,340,25,5,5,français,m,0,0.0,-70.02335232,0.30263581
5c4130f08daebb0001d1a27b,60,1,2024-02-24T08:13:23.572Z,french_976.wav,0,poule,340,25,5,5,français,m,1,0.1,-61.25816472,1.77513966
5c4130f08daebb0001d1a27b,60,1,2024-02-24T08:13:23.572Z,french_976.wav,0,poule,340,25,5,5,français,m,2,0.2,38.21349803,0.48920434
5c4130f08daebb0001d1a27b,60,1,2024-02-24T08:13:23.572Z,french_976.wav,0,poule,340,25,5,5,français,m,3,0.25666667,27.10323863,1.97348905
5c4130f08daebb0001d1a27b,61,1,2024-02-24T08:13:23.572Z,french_291.wav,0,poule,286,25,5,5,français,m,0,0.0,-84.80785011,0.63456403
5c4130f08daebb0001d1a27b,61,1,2024-02-24T08:13:23.572Z,french_291.wav,0,poule,286,25,5,5,français,m,1,0.1,-36.68987184,1.00353926
5c4130f08daebb0001d1a27b,61,1,2024-02-24T08:13:23.572Z,french_291.wav,0,poule,286,25,5,5,français,m,2,0.2,-96.57368066,1.89833315
5c4130f08daebb0001d1a27b,61,1,2024-02-24T08:13:23.572Z,french_291.wav,0,poule,286,25,5,5,français,m,3,0.25666667,-53.58057918,1.00269885
5c4130f08daebb0001d1a27b,62,1,2024-02-24T08:13:23.572Z,french_452.wav,0,poule,150,25,5,5,français,m,0,0.0,-0.54521087,0.71963755
5c4130f08daebb0001d1a27b,62,1,2024-02-24T08:13:23.572Z,french_452.wav,0,poule,150,25,5,5,français,m,1,0.1,21.1278642,1.49294629
5c4130f08daebb0001d1a27b,62,1,2024-02-24T08:13:23.572Z,french_452.wav,0,poule,150,25,5,5,français,m,2,0.2,-42.86108881,1.86627756
5c4130f08daebb0001d1a27b,62,1,2024-02-24T08:13:23.572Z,french_452.wav,0,poule,150,25,5,5,français,m,3,0.25666667,77.96430269,0.60359825
5c4130f08daebb0001d1a27b,63,1,2024-02-24T08:13:23.572Z,french_673.wav,0,poule,196,25,5,5,français,m,0,0.0,97.1433432,1.2603
5c4130f08daebb0001d1a27b,63,1,2024-02-24T08:13:23.572Z,french_673.wav,0,poule,196,25,5,5,français,m,1,0.1,1.59516127,0.42137615
5c4130f08daebb0001d1a27b,63,1,2024-02-24T08:13:23.572Z,french_673.wav,0,poule,196,25,5,5,français,m,2,0.2,27.02161491,0.87652171
5c4130f08daebb0001d1a27b,63,1,2024-02-24T08:13:23.572Z,french_673.wav,0,poule,196,25,5,5,français,m,3,0.25666667,62.92522021,1.1230089
5c4130f08daebb0001d1a27b,64,1,2024-02-24T08:13:23.572Z,french_16.wav,0,poule,166,25,5,5,français,m,0,0.0,-0.6461067,1.33944457
5c4130f08daebb0001d1a27b,64,1,2024-02-24T08:13:23.572Z,french_16.wav,0,poule,166,25,5,5,français,m,1,0.1,90.1568776,0.35137866
5c4130f08daebb0001d1a27b,64,1,2024-02-24T08:13:23.572Z,french_16.wav,0,poule,166,25,5,5,français,m,2,0.2,64.8388413,1.61271584
5c4130f08daebb0001d1a27b,64,1,2024-02-24T08:13:23.572Z,french_16.wav,0,poule,166,25,5,5,français,m,3,0.25666667,-49.08803112,0.05305125
5c4130f08daebb0001d1a27b,65,1,2024-02-24T08:13:23.572Z,french_251.wav,0,poule,264,25,5,5,français,m,0,0.0,24.13853868,0.84222584
5c4130f08daebb0001d1a27b,65,1,2024-02-24T08:13:23.572Z,french_251.wav,0,poule,264,25,5,5,français,m,1,0.1,69.59392202,0.35569373
5c4130f08daebb0001d1a27b,65,1,2024-02-24T08:13:23.572Z,french_251.wav,0,poule,264,25,5,5,français,m,2,0.2,5.2598313,1.18426262
5c4130f08daebb0001d1a27b,65,1,2024-02-24T08:13:23.572Z,french_251.wav,0,poule,264,25,5,5,français,m,3,0.25666667,49.58604743,1.47594706
5c4130f08daebb0001d1a27b,66,1,2024-02-24T08:13:23.572Z,french_703.wav,0,poule,370,25,5,5,français,m,0,0.0,84.48201003,0.82331622
5c4130f08daebb0001d1a27b,66,1,2024-02-24T08:13:23.572Z,french_703.wav,0,poule,370,25,5,5,français,m,1,0.1,-13.2968245,1.50639414
5c4130f08daebb0001d1a27b,66,1,2024-02-24T08:13:23.572Z,french_703.wav,0,poule,370,25,5,5,français,m,2,0.2,-49.01598543,0.83966854
5c4130f08daebb0001d1a27b,66,1,2024-02-24T08:13:23.572Z,french_703.wav,0,poule,370,25,5,5,français,m,3,0.25666667,-63.56156529,1.27848793
5c4130f08daebb0001d1a27b,67,1,2024-02-24T08:13:23.572Z,french_412.wav,0,poule,735,25,5,5,français,m,0,0.0,-59.33534007,1.02487397
5c4130f08daebb0001d1a27b,67,1,2024-02-24T08:13:23.572Z,french_412.wav,0,poule,735,25,5,5,français,m,1,0.1,-79.1774496,0.54283138
5c4130f08daebb0001d1a27b,67,1,2024-02-24T08:13:23.572Z,french_412.wav,0,poule,735,25,5,5,français,m,2,0.2,-38.59435565,0.86213444
5c4130f08daebb0001d1a27b,67,1,2024-02-24T08:13:23.572Z,french_412.wav,0,poule,735,25,5,5,français,m,3,0.25666667,65.74010912,0.54314794
5c4130f08daebb0001d1a27b,68,1,2024-02-24T08:13:23.572Z,french_203.wav,0,poule,266,25,5,5,français,m,0,0.0,9.50743764,1.88144993
5c4130f08daebb0001d1a27b,68,1,2024-02-24T08:13:23.572Z,french_203.wav,0,poule,266,25,5,5,français,m,1,0.1,-98.19338414,1.32545529
5c4130f08daebb0001d1a27b,68,1,2024-02-24T08:13:23.572Z,french_203.wav,0,poule,266,25,5,5,français,m,2,0.2,67.11536794,0.82099832
5c4130f08daebb0001d1a27b,68,1,2024-02-24T08:13:23.572Z,french_203.wav,0,poule,266,25,5,5,français,m,3,0.25666667,-71.08115362,1.4347795
5c4130f08daebb0001d1a27b,69,1,2024-02-24T08:13:23.572Z,french_571.wav,0,poule,152,25,5,5,français,m,0,0.0,31.56469904,0.97268691
5c4130f08daebb0001d1a27b,69,1,2024-02-24T08:13:23.572Z,french_571.wav,0,poule,152,25,5,5,français,m,1,0.1,44.5277229,1.62706688
5c4130f08daebb0001d1a27b,69,1,2024-02-24T08:13:23.572Z,french_571.wav,0,poule,152,25,5,5,français,m,2,0.2,41.67262287,1.42821868
5c4130f08daebb0001d1a27b,69,1,2024-02-24T08:13:23.572Z,french_571.wav,0,poule,152,25,5,5,français,m,3,0.25666667,9.54247743,0.83693393
5c4130f08daebb0001d1a27b,70,1,2024-02-24T08:13:23.572Z,french_418.wav,0,poule,276,25,5,5,français,m,0,0.0,69.65568707,1.45647369
5c4130f08daebb0001d1a27b,70,1,2024-02-24T08:13:23.572Z,french_418.wav,0,poule,276,25,5,5,français,m,1,0.1,-73.62960571,0.96644453
5c4130f08daebb0001d1a27b,70,1,2024-02-24T08:13:23.572Z,french_418.wav,0,poule,276,25,5,5,français,m,2,0.2,-12.19608601,0.59086709
5c4130f08daebb0001d1a27b,70,1,2024-02-24T08:13:23.572Z,french_418.wav,0,poule,276,25,5,5,français,m,3,0.25666667,31.099867,1.25987346
5c4130f08daebb0001d1a27b,71,1,2024-02-24T08:13:23.572Z,french_779.wav,0,poule,273,25,5,5,français,m,0,0.0,-23.73686582,0.65858767
5c4130f08daebb0001d1a27b,71,1,2024-02-24T08:13:23.572Z,french_779.wav,0,poule,273,25,5,5,français,m,1,0.1,96.23962081,1.55580865
5c4130f08daebb0001d1a27b,71,1,2024-02-24T08:13:23.572Z,french_779.wav,0,poule,273,25,5,5,français,m,2,0.2,19.26430851,1.22244229
5c4130f08daebb0001d1a27b,71,1,2024-02-24T08:13:23.572Z,french_779.wav,0,poule,273,25,5,5,français,m,3,0.25666667,-72.92378626,1.83333034
5c4130f08daebb0001d1a27b,72,1,2024-02-24T08:13:23.572Z,french_451.wav,0,poule,346,25,5,5,français,m,0,0.0,4.63188994,1.82787098
5c4130f08daebb0001d1a27b,72,1,2024-02-24T08:13:23.572Z,french_451.wav,0,poule,346,25,5,5,français,m,1,0.1,28.08955108,0.29502826
5c4130f08daebb0001d1a27b,72,1,2024-02-24T08:13:23.572Z,french_451.wav,0,poule,346,25,5,5,français,m,2,0.2,71.15157801,0.14883578
5c4130f08daebb0001d1a27b,72,1,2024-02-24T08:13:23.572Z,french_451.wav,0,poule,346,25,5,5,français,m,3,0.25666667,-28.31676071,0.64245631
5c4130f08daebb0001d1a27b,73,1,2024-02-24T08:13:23.572Z,french_360.wav,0,poule,288,25,5,5,français,m,0,0.0,-0.00235073025,1.59141319
5c4130f08daebb0001d1a27b,73,1,2024-02-24T08:13:23.572Z,french_360.wav,0,poule,288,25,5,5,français,m,1,0.1,75.1310722,0.32502124
5c4130f08daebb0001d1a27b,73,1,2024-02-24T08:13:23.572Z,french_360.wav,0,poule,288,25,5,5,français,m,2,0.2,-55.9073348,0.48861064
5c4130f08daebb0001d1a27b,73,1,2024-02-24T08:13:23.572Z,french_360.wav,0,poule,288,25,5,5,français,m,3,0.256666667,-59.6885988,0.13551716
5c4130f08daebb0001d1a27b,74,1,2024-02-24T08:13:23.572Z,french_57.wav,0,poule,254,25,5,5,français,m,0,0.0,5.04798132,0.30893924
5c4130f08daebb0001d1a27b,74,1,2024-02-24T08:13:23.572Z,french_57.wav,0,poule,254,25,5,5,français,m,1,0.1,34.86476391,1.37192861
5c4130f08daebb0001d1a27b,74,1,2024-02-24T08:13:23.572Z,french_57.wav,0,poule,254,25,5,5,français,m,2,0.2,8.76450083,1.2366194
5c4130f08daebb0001d1a27b,74,1,2024-02-24T08:13:23.572Z,french_57.wav,0,poule,254,25,5,5,français,m,3,0.25666667,-66.01533982,1.17459784
5c4130f08daebb0001d1a27b,75,1,2024-02-24T08:13:23.572Z,french_394.wav,0,poule,205,25,5,5,français,m,0,0.0,-46.0867736,1.77850735
5c4130f08daebb0001d1a27b,75,1,2024-02-24T08:13:23.572Z,french_394.wav,0,poule,205,25,5,5,français,m,1,0.1,-42.56429646,0.50210825
5c4130f08daebb0001d1a27b,75,1,2024-02-24T08:13:23.572Z,french_394.wav,0,poule,205,25,5,5,français,m,2,0.2,31.61260766,1.1233825
5c4130f08daebb0001d1a27b,75,1,2024-02-24T08:13:23.572Z,french_394.wav,0,poule,205,25,5,5,français,m,3,0.25666667,-7.99475259,0.72186821
5c4130f08daebb0001d1a27b,76,1,2024-02-24T08:13:23.572Z,french_659.wav,0,poule,268,25,5,5,français,m,0,0.0,85.50464417,1.33522586
5c4130f08daebb0001d1a27b,76,1,2024-02-24T08:13:23.572Z,french_659.wav,0,poule,268,25,5,5,français,m,1,0.1,65.46448613,1.79413259
5c4130f08daebb0001d1a27b,76,1,2024-02-24T08:13:23.572Z,french_659.wav,0,poule,268,25,5,5,français,m,2,0.2,39.40171471,1.57337642
5c4130f08daebb0001d1a27b,76,1,2024-02-24T08:13:23.572Z,french_659.wav,0,poule,268,25,5,5,français,m,3,0.25666667,-2.24011696,0.55895062
5c4130f08daebb0001d1a27b,77,1,2024-02-24T08:13:23.572Z,french_577.wav,0,poule,405,25,5,5,français,m,0,0.0,-34.34323574,0.85646341
5c4130f08daebb0001d1a27b,77,1,2024-02-24T08:13:23.572Z,french_577.wav,0,poule,405,25,5,5,français,m,1,0.1,42.3591335,0.14355807
5c4130f08daebb0001d1a27b,77,1,2024-02-24T08:13:23.572Z,french_577.wav,0,poule,405,25,5,5,français,m,2,0.2,-17.66243752,0.33082023
5c4130f08daebb0001d1a27b,77,1,2024-02-24T08:13:23.572Z,french_577.wav,0,poule,405,25,5,5,français,m,3,0.25666667,-25.14969583,0.85136365
5c4130f08daebb0001d1a27b,78,1,2024-02-24T08:13:23.572Z,french_220.wav,0,poule,259,25,5,5,français,m,0,0.0,99.39862809,1.95391084
5c4130f08daebb0001d1a27b,78,1,2024-02-24T08:13:23.572Z,french_220.wav,0,poule,259,25,5,5,français,m,1,0.1,-16.44954754,1.60430152
5c4130f08daebb0001d1a27b,78,1,2024-02-24T08:13:23.572Z,french_220.wav,0,poule,259,25,5,5,français,m,2,0.2,-73.93109837,1.1953066
5c4130f08daebb0001d1a27b,78,1,2024-02-24T08:13:23.572Z,french_220.wav,0,poule,259,25,5,5,français,m,3,0.25666667,-37.75571533,0.34699919
5c4130f08daebb0001d1a27b,79,1,2024-02-24T08:13:23.572Z,french_700.wav,0,poule,246,25,5,5,français,m,0,0.0,27.78595998,1.84943535
5c4130f08daebb0001d1a27b,79,1,2024-02-24T08:13:23.572Z,french_700.wav,0,poule,246,25,5,5,français,m,1,0.1,-29.96160528,0.52483958
5c4130f08daebb0001d1a27b,79,1,2024-02-24T08:13:23.572Z,french_700.wav,0,poule,246,25,5,5,français,m,2,0.2,60.6733782,0.55672926
5c4130f08daebb0001d1a27b,79,1,2024-02-24T08:13:23.572Z,french_700.wav,0,poule,246,25,5,5,français,m,3,0.25666667,39.12324738,0.96842636
5c4130f08daebb0001d1a27b,80,1,2024-02-24T08:13:23.572Z,french_244.wav,0,poule,300,25,5,5,français,m,0,0.0,-1.19097064,0.99374935
5c4130f08daebb0001d1a27b,80,1,2024-02-24T08:13:23.572Z,french_244.wav,0,poule,300,25,5,5,français,m,1,0.1,-92.85229973,0.05831089
5c4130f08daebb0001d1a27b,80,1,2024-02-24T08:13:23.572Z,french_244.wav,0,poule,300,25,5,5,français,m,2,0.2,-96.93666457,1.01399938
5c4130f08daebb0001d1a27b,80,1,2024-02-24T08:13:23.572Z,french_244.wav,0,poule,300,25,5,5,français,m,3,0.25666667,-48.92774089,0.05507298
5c4130f08daebb0001d1a27b,81,1,2024-02-24T08:13:23.572Z,french_176.wav,0,poule,200,25,5,5,français,m,0,0.0,0.09776701,1.90735666
5c4130f08daebb0001d1a27b,81,1,2024-02-24T08:13:23.572Z,french_176.wav,0,poule,200,25,5,5,français,m,1,0.1,32.80523404,1.52678684
5c4130f08daebb0001d1a27b,81,1,2024-02-24T08:13:23.572Z,french_176.wav,0,poule,200,25,5,5,français,m,2,0.2,16.78979069,1.98703072
5c4130f08daebb0001d1a27b,81,1,2024-02-24T08:13:23.572Z,french_176.wav,0,poule,200,25,5,5,français,m,3,0.25666667,-52.73391922,1.7200077
5c4130f08daebb0001d1a27b,82,1,2024-02-24T08:13:23.572Z,french_456.wav,0,poule,332,25,5,5,français,m,0,0.0,-27.91969988,0.874098
5c4130f08daebb0001d1a27b,82,1,2024-02-24T08:13:23.572Z,french_456.wav,0,poule,332,25,5,5,français,m,1,0.1,-6.9905469,0.40632282
5c4130f08daebb0001d1a27b,82,1,2024-02-24T08:13:23.572Z,french_456.wav,0,poule,332,25,5,5,français,m,2,0.2,7.34213132,0.88508218
5c4130f08daebb0001d1a27b,82,1,2024-02-24T08:13:23.572Z,french_456.wav,0,poule,332,25,5,5,français,m,3,0.25666667,-16.30576404,1.43350061
5c4130f08daebb0001d1a27b,83,1,2024-02-24T08:13:23.572Z,french_490.wav,0,poule,207,25,5,5,français,m,0,0.0,-77.54246231,1.03559912
5c4130f08daebb0001d1a27b,83,1,2024-02-24T08:13:23.572Z,french_490.wav,0,poule,207,25,5,5,français,m,1,0.1,-0.13066058,0.94588293
5c4130f08daebb0001d1a27b,83,1,2024-02-24T08:13:23.572Z,french_490.wav,0,poule,207,25,5,5,français,m,2,0.2,-90.37490593,1.16449319
5c4130f08daebb0001d1a27b,83,1,2024-02-24T08:13:23.572Z,french_490.wav,0,poule,207,25,5,5,français,m,3,0.25666667,62.21960288,1.46557017
5c4130f08daebb0001d1a27b,84,1,2024-02-24T08:13:23.572Z,french_136.wav,0,poule,154,25,5,5,français,m,0,0.0,-19.24670356,0.58320819
5c4130f08daebb0001d1a27b,84,1,2024-02-24T08:13:23.572Z,french_136.wav,0,poule,154,25,5,5,français,m,1,0.1,-19.07264886,1.75711633
5c4130f08daebb0001d1a27b,84,1,2024-02-24T08:13:23.572Z,french_136.wav,0,poule,154,25,5,5,français,m,2,0.2,-15.66011034,0.20485265
5c4130f08daebb0001d1a27b,84,1,2024-02-24T08:13:23.572Z,french_136.wav,0,poule,154,25,5,5,français,m,3,0.25666667,-21.38655245,0.63500763
5c4130f08daebb0001d1a27b,85,1,2024-02-24T08:13:23.572Z,french_142.wav,0,poule,204,25,5,5,français,m,0,0.0,-47.01050856,0.88751265
5c4130f08daebb0001d1a27b,85,1,2024-02-24T08:13:23.572Z,french_142.wav,0,poule,204,25,5,5,français,m,1,0.1,44.85636852,1.13664387
5c4130f08daebb0001d1a27b,85,1,2024-02-24T08:13:23.572Z,french_142.wav,0,poule,204,25,5,5,français,m,2,0.2,82.74517116,0.91175928
5c4130f08daebb0001d1a27b,85,1,2024-02-24T08:13:23.572Z,french_142.wav,0,poule,204,25,5,5,français,m,3,0.25666667,-74.59675421,0.66352734
5c4130f08daebb0001d1a27b,86,1,2024-02-24T08:13:23.572Z,french_178.wav,0,poule,232,25,5,5,français,m,0,0.0,26.38045069,1.33493468
5c4130f08daebb0001d1a27b,86,1,2024-02-24T08:13:23.572Z,french_178.wav,0,poule,232,25,5,5,français,m,1,0.1,54.67313893,1.2022917
5c4130f08daebb0001d1a27b,86,1,2024-02-24T08:13:23.572Z,french_178.wav,0,poule,232,25,5,5,français,m,2,0.2,58.86585948,1.32810738
5c4130f08daebb0001d1a27b,86,1,2024-02-24T08:13:23.572Z,french_178.wav,0,poule,232,25,5,5,français,m,3,0.25666667,8.14592544,0.94030025
5c4130f08daebb0001d1a27b,87,1,2024-02-24T08:13:23.572Z,french_720.wav,0,poule,269,25,5,5,français,m,0,0.0,-84.90658582,1.45299565
5c4130f08daebb0001d1a27b,87,1,2024-02-24T08:13:23.572Z,french_720.wav,0,poule,269,25,5,5,français,m,1,0.1,42.34331668,1.58494494
5c4130f08daebb0001d1a27b,87,1,2024-02-24T08:13:23.572Z,french_720.wav,0,poule,269,25,5,5,français,m,2,0.2,-51.84568825,1.67187292
5c4130f08daebb0001d1a27b,87,1,2024-02-24T08:13:23.572Z,french_720.wav,0,poule,269,25,5,5,français,m,3,0.25666667,70.93496883,0.90000718
5c4130f08daebb0001d1a27b,88,1,2024-02-24T08:13:23.572Z,french_145.wav,0,poule,250,25,5,5,français,m,0,0.0,45.95226671,0.38136586
5c4130f08daebb0001d1a27b,88,1,2024-02-24T08:13:23.572Z,french_145.wav,0,poule,250,25,5,5,français,m,1,0.1,-66.66601381,1.38589502
5c4130f08daebb0001d1a27b,88,1,2024-02-24T08:13:23.572Z,french_145.wav,0,poule,250,25,5,5,français,m,2,0.2,-89.77596615,0.43712509
5c4130f08daebb0001d1a27b,88,1,2024-02-24T08:13:23.572Z,french_145.wav,0,poule,250,25,5,5,français,m,3,0.25666667,8.03115864,1.92826262
5c4130f08daebb0001d1a27b,89,1,2024-02-24T08:13:23.572Z,french_832.wav,0,poule,228,25,5,5,français,m,0,0.0,72.4957568,1.55241154
5c4130f08daebb0001d1a27b,89,1,2024-02-24T08:13:23.572Z,french_832.wav,0,poule,228,25,5,5,français,m,1,0.1,-42.52759542,0.51342339
5c4130f08daebb0001d1a27b,89,1,2024-02-24T08:13:23.572Z,french_832.wav,0,poule,228,25,5,5,français,m,2,0.2,-19.34515336,1.23436829
5c4130f08daebb0001d1a27b,89,1,2024-02-24T08:13:23.572Z,french_832.wav,0,poule,228,25,5,5,français,m,3,0.25666667,29.69631954,0.63501701
5c4130f08daebb0001d1a27b,90,1,2024-02-24T08:13:23.572Z,french_147.wav,0,poule,208,25,5,5,français,m,0,0.0,-8.88234032,0.56903223
5c4130f08daebb0001d1a27b,90,1,2024-02-24T08:13:23.572Z,french_147.wav,0,poule,208,25,5,5,français,m,1,0.1,-14.76798318,0.94922216
5c4130f08daebb0001d1a27b,90,1,2024-02-24T08:13:23.572Z,french_147.wav,0,poule,208,25,5,5,français,m,2,0.2,-57.87683145,1.80420194
5c4130f08daebb0001d1a27b,90,1,2024-02-24T08:13:23.572Z,french_147.wav,0,poule,208,25,5,5,français,m,3,0.25666667,44.89226386,0.62760473
5c4130f08daebb0001d1a27b,91,1,2024-02-24T08:13:23.572Z,french_429.wav,0,poule,185,25,5,5,français,m,0,0.0,-86.61428582,0.48550144
5c4130f08daebb0001d1a27b,91,1,2024-02-24T08:13:23.572Z,french_429.wav,0,poule,185,25,5,5,français,m,1,0.1,-42.15720505,1.43221201
5c4130f08daebb0001d1a27b,91,1,2024-02-24T08:13:23.572Z,french_429.wav,0,poule,185,25,5,5,français,m,2,0.2,57.81850322,1.77393014
5c4130f08daebb0001d1a27b,91,1,2024-02-24T08:13:23.572Z,french_429.wav,0,poule,185,25,5,5,français,m,3,0.25666667,56.8864302,0.85506946
5c4130f08daebb0001d1a27b,92,1,2024-02-24T08:13:23.572Z,french_690.wav,0,poule,454,25,5,5,français,m,0,0.0,79.01312907,1.49686193
5c4130f08daebb0001d1a27b,92,1,2024-02-24T08:13:23.572Z,french_690.wav,0,poule,454,25,5,5,français,m,1,0.1,-50.63616883,0.92741038
5c4130f08daebb0001d1a27b,92,1,2024-02-24T08:13:23.572Z,french_690.wav,0,poule,454,25,5,5,français,m,2,0.2,19.49439666,0.30770403
5c4130f08daebb0001d1a27b,92,1,2024-02-24T08:13:23.572Z,french_690.wav,0,poule,454,25,5,5,français,m,3,0.25666667,-20.64233715,0.53460579
5c4130f08daebb0001d1a27b,93,1,2024-02-24T08:13:23.572Z,french_424.wav,0,poule,269,25,5,5,français,m,0,0.0,61.39777876,0.24361375
5c4130f08daebb0001d1a27b,93,1,2024-02-24T08:13:23.572Z,french_424.wav,0,poule,269,25,5,5,français,m,1,0.1,-8.76552132,1.04711526
5c4130f08daebb0001d1a27b,93,1,2024-02-24T08:13:23.572Z,french_424.wav,0,poule,269,25,5,5,français,m,2,0.2,33.4280736,1.33335174
5c4130f08daebb0001d1a27b,93,1,2024-02-24T08:13:23.572Z,french_424.wav,0,poule,269,25,5,5,français,m,3,0.25666667,8.6823295,0.59077303
5c4130f08daebb0001d1a27b,94,1,2024-02-24T08:13:23.572Z,french_850.wav,0,poule,276,25,5,5,français,m,0,0.0,-88.87179188,0.91597825
5c4130f08daebb0001d1a27b,94,1,2024-02-24T08:13:23.572Z,french_850.wav,0,poule,276,25,5,5,français,m,1,0.1,15.70736636,0.21425776
5c4130f08daebb0001d1a27b,94,1,2024-02-24T08:13:23.572Z,french_850.wav,0,poule,276,25,5,5,français,m,2,0.2,67.7730952,1.52338939
5c4130f08daebb0001d1a27b,94,1,2024-02-24T08:13:23.572Z,french_850.wav,0,poule,276,25,5,5,français,m,3,0.25666667,-20.3872908,0.55241946
5c4130f08daebb0001d1a27b,95,1,2024-02-24T08:13:23.572Z,french_777.wav,0,poule,238,25,5,5,français,m,0,0.0,8.03786355,1.59828936
5c4130f08daebb0001d1a27b,95,1,2024-02-24T08:13:23.572Z,french_777.wav,0,poule,238,25,5,5,français,m,1,0.1,-25.18391206,0.4858639
5c4130f08daebb0001d1a27b,95,1,2024-02-24T08:13:23.572Z,french_777.wav,0,poule,238,25,5,5,français,m,2,0.2,-83.38753258,1.25666852
5c4130f08daebb0001d1a27b,95,1,2024-02-24T08:13:23.572Z,french_777.wav,0,poule,238,25,5,5,français,m,3,0.25666667,40.68339476,1.11090511
5c4130f08daebb0001d1a27b,96,1,2024-02-24T08:13:23.572Z,french_967.wav,0,poule,444,25,5,5,français,m,0,0.0,79.70451557,1.26694721
5c4130f08daebb0001d1a27b,96,1,2024-02-24T08:13:23.572Z,french_967.wav,0,poule,444,25,5,5,français,m,1,0.1,-96.60134716,0.15349476
5c4130f08daebb0001d1a27b,96,1,2024-02-24T08:13:23.572Z,french_967.wav,0,poule,444,25,5,5,français,m,2,0.2,12.1279289,0.99393875
5c4130f08daebb0001d1a27b,96,1,2024-02-24T08:13:23.572Z,french_967.wav,0,poule,444,25,5,5,français,m,3,0.25666667,-44.3997303,1.32782977
5c4130f08daebb0001d1a27b,97,1,2024-02-24T08:13:23.572Z,french_81.wav,0,poule,592,25,5,5,français,m,0,0.0,43.03410676,0.84411959
5c4130f08daebb0001d1a27b,97,1,2024-02-24T08:13:23.572Z,french_81.wav,0,poule,592,25,5,5,français,m,1,0.1,37.87573495,1.10924478
5c4130f08daebb0001d1a27b,97,1,2024-02-24T08:13:23.572Z,french_81.wav,0,poule,592,25,5,5,français,m,2,0.2,-9.17332854,1.82652056
5c4130f08daebb0001d1a27b,97,1,2024-02-24T08:13:23.572Z,french_81.wav,0,poule,592,25,5,5,français,m,3,0.25666667,10.13667473,1.52638082
5c4130f08daebb0001d1a27b,98,1,2024-02-24T08:13:23.572Z,french_606.wav,0,poule,166,25,5,5,français,m,0,0.0,-20.93687271,1.9895698
5c4130f08daebb0001d1a27b,98,1,2024-02-24T08:13:23.572Z,french_606.wav,0,poule,166,25,5,5,français,m,1,0.1,59.55385743,1.17728958
5c4130f08daebb0001d1a27b,98,1,2024-02-24T08:13:23.572Z,french_606.wav,0,poule,166,25,5,5,français,m,2,0.2,61.58713619,1.48827242
5c4130f08daebb0001d1a27b,98,1,2024-02-24T08:13:23.572Z,french_606.wav,0,poule,166,25,5,5,français,m,3,0.25666667,-92.8987734,0.79910733
5c4130f08daebb0001d1a27b,99,1,2024-02-24T08:13:23.572Z,french_368.wav,0,poule,258,25,5,5,français,m,0,0.0,-50.29275674,1.3762211
5c4130f08daebb0001d1a27b,99,1,2024-02-24T08:13:23.572Z,french_368.wav,0,poule,258,25,5,5,français,m,1,0.1,-46.19812301,0.86881993
5c4130f08daebb0001d1a27b,99,1,2024-02-24T08:13:23.572Z,french_368.wav,0,poule,258,25,5,5,français,m,2,0.2,11.95097834,1.63580042
5c4130f08daebb0001d1a27b,99,1,2024-02-24T08:13:23.572Z,french_368.wav,0,poule,258,25,5,5,français,m,3,0.25666667,56.55273669,0.08134077
5c4130f08daebb0001d1a27b,100,2,2024-02-24T08:13:23.572Z,french_83.wav,0,poule,298,25,5,5,français,m,0,0.0,45.44740295,0.80263788
5c4130f08daebb0001d1a27b,100,2,2024-02-24T08:13:23.572Z,french_83.wav,0,poule,298,25,5,5,français,m,1,0.1,42.82646372,1.96742974
5c4130f08daebb0001d1a27b,100,2,2024-02-24T08:13:23.572Z,french_83.wav,0,poule,298,25,5,5,français,m,2,0.2,-9.21139132,0.40483772
5c4130f08daebb0001d1a27b,100,2,2024-02-24T08:13:23.572Z,french_83.wav,0,poule,298,25,5,5,français,m,3,0.25666667,30.29486893,0.1024326
5c4130f08daebb0001d1a27b,101,2,2024-02-24T08:13:23.572Z,french_68.wav,0,poule,242,25,5,5,français,m,0,0.0,58.83829029,1.80244508
5c4130f08daebb0001d1a27b,101,2,2024-02-24T08:13:23.572Z,french_68.wav,0,poule,242,25,5,5,français,m,1,0.1,77.59339865,1.3442738
5c4130f08daebb0001d1a27b,101,2,2024-02-24T08:13:23.572Z,french_68.wav,0,poule,242,25,5,5,français,m,2,0.2,-73.88341881,1.16581557
5c4130f08daebb0001d1a27b,101,2,2024-02-24T08:13:23.572Z,french_68.wav,0,poule,242,25,5,5,français,m,3,0.25666667,-24.56901296,0.71132336
5c4130f08daebb0001d1a27b,102,2,2024-02-24T08:13:23.572Z,french_855.wav,0,poule,486,25,5,5,français,m,0,0.0,2.71159552,1.64624975
5c4130f08daebb0001d1a27b,102,2,2024-02-24T08:13:23.572Z,french_855.wav,0,poule,486,25,5,5,français,m,1,0.1,66.05842931,0.54809415
5c4130f08daebb0001d1a27b,102,2,2024-02-24T08:13:23.572Z,french_855.wav,0,poule,486,25,5,5,français,m,2,0.2,41.00995311,1.64541289
5c4130f08daebb0001d1a27b,102,2,2024-02-24T08:13:23.572Z,french_855.wav,0,poule,486,25,5,5,français,m,3,0.25666667,98.2962498,1.22205238
5c4130f08daebb0001d1a27b,103,2,2024-02-24T08:13:23.572Z,french_752.wav,0,poule,310,25,5,5,français,m,0,0.0,-49.05511086,0.41123153
5c4130f08daebb0001d1a27b,103,2,2024-02-24T08:13:23.572Z,french_752.wav,0,poule,310,25,5,5,français,m,1,0.1,68.97169656,0.36604045
5c4130f08daebb0001d1a27b,103,2,2024-02-24T08:13:23.572Z,french_752.wav,0,poule,310,25,5,5,français,m,2,0.2,35.56747744,0.22184937
5c4130f08daebb0001d1a27b,103,2,2024-02-24T08:13:23.572Z,french_752.wav,0,poule,310,25,5,5,français,m,3,0.25666667,3.91641015,1.3158831
5c4130f08daebb0001d1a27b,104,2,2024-02-24T08:13:23.572Z,french_191.wav,0,poule,232,25,5,5,français,m,0,0.0,61.70033847,1.87867126
5c4130f08daebb0001d1a27b,104,2,2024-02-24T08:13:23.572Z,french_191.wav,0,poule,232,25,5,5,français,m,1,0.1,-19.77100541,0.40395676
5c4130f08daebb0001d1a27b,104,2,2024-02-24T08:13:23.572Z,french_191.wav,0,poule,232,25,5,5,français,m,2,0.2,-44.48193137,1.14362057
5c4130f08daebb0001d1a27b,104,2,2024-02-24T08:13:23.572Z,french_191.wav,0,poule,232,25,5,5,français,m,3,0.25666667,-92.19007218,1.68692384
5c4130f08daebb0001d1a27b,105,2,2024-02-24T08:13:23.572Z,french_818.wav,0,poule,169,25,5,5,français,m,0,0.0,-26.74770248,1.09674102
5c4130f08daebb0001d1a27b,105,2,2024-02-24T08:13:23.572Z,french_818.wav,0,poule,169,25,5,5,français,m,1,0.1,-33.54864391,0.98606035
5c4130f08daebb0001d1a27b,105,2,2024-02-24T08:13:23.572Z,french_818.wav,0,poule,169,25,5,5,français,m,2,0.2,-23.72939517,1.86933067
5c4130f08daebb0001d1a27b,105,2,2024-02-24T08:13:23.572Z,french_818.wav,0,poule,169,25,5,5,français,m,3,0.25666667,53.93300908,0.6204836
5c4130f08daebb0001d1a27b,106,2,2024-02-24T08:13:23.572Z,french_731.wav,0,poule,895,25,5,5,français,m,0,0.0,52.82888701,1.42077684
5c4130f08daebb0001d1a27b,106,2,2024-02-24T08:13:23.572Z,french_731.wav,0,poule,895,25,5,5,français,m,1,0.1,44.66747194,0.2996776
5c4130f08daebb0001d1a27b,106,2,2024-02-24T08:13:23.572Z,french_731.wav,0,poule,895,25,5,5,français,m,2,0.2,83.54065351,1.21708869
5c4130f08daebb0001d1a27b,106,2,2024-02-24T08:13:23.572Z,french_731.wav,0,poule,895,25,5,5,français,m,3,0.25666667,-50.41579204,1.31490505
5c4130f08daebb0001d1a27b,107,2,2024-02-24T08:13:23.572Z,french_656.wav,0,poule,304,25,5,5,français,m,0,0.0,-58.27241095,0.65184251
5c4130f08daebb0001d1a27b,107,2,2024-02-24T08:13:23.572Z,french_656.wav,0,poule,304,25,5,5,français,m,1,0.1,5.28471923,0.59376501
5c4130f08daebb0001d1a27b,107,2,2024-02-24T08:13:23.572Z,french_656.wav,0,poule,304,25,5,5,français,m,2,0.2,-0.12743408,1.90668759
5c4130f08daebb0001d1a27b,107,2,2024-02-24T08:13:23.572Z,french_656.wav,0,poule,304,25,5,5,français,m,3,0.25666667,84.54596147,1.25760212
5c4130f08daebb0001d1a27b,108,2,2024-02-24T08:13:23.572Z,french_884.wav,0,poule,216,25,5,5,français,m,0,0.0,44.18626496,0.26295785
5c4130f08daebb0001d1a27b,108,2,2024-02-24T08:13:23.572Z,french_884.wav,0,poule,216,25,5,5,français,m,1,0.1,-64.95611773,1.5401655
5c4130f08daebb0001d1a27b,108,2,2024-02-24T08:13:23.572Z,french_884.wav,0,poule,216,25,5,5,français,m,2,0.2,-49.1644617,1.25089254
5c4130f08daebb0001d1a27b,108,2,2024-02-24T08:13:23.572Z,french_884.wav,0,poule,216,25,5,5,français,m,3,0.25666667,-37.6294576,1.82171191
5c4130f08daebb0001d1a27b,109,2,2024-02-24T08:13:23.572Z,french_481.wav,0,poule,236,25,5,5,français,m,0,0.0,-44.05926666,1.24899263
5c4130f08daebb0001d1a27b,109,2,2024-02-24T08:13:23.572Z,french_481.wav,0,poule,236,25,5,5,français,m,1,0.1,85.82418432,1.22078865
5c4130f08daebb0001d1a27b,109,2,2024-02-24T08:13:23.572Z,french_481.wav,0,poule,236,25,5,5,français,m,2,0.2,87.54559417,0.10859618
5c4130f08daebb0001d1a27b,109,2,2024-02-24T08:13:23.572Z,french_481.wav,0,poule,236,25,5,5,français,m,3,0.25666667,50.04191005,0.19634609
5c4130f08daebb0001d1a27b,110,2,2024-02-24T08:13:23.572Z,french_876.wav,0,poule,234,25,5,5,français,m,0,0.0,-63.60663495,1.31328738
5c4130f08daebb0001d1a27b,110,2,2024-02-24T08:13:23.572Z,french_876.wav,0,poule,234,25,5,5,français,m,1,0.1,-33.069551,1.53761103
5c4130f08daebb0001d1a27b,110,2,2024-02-24T08:13:23.572Z,french_876.wav,0,poule,234,25,5,5,français,m,2,0.2,44.38072254,1.15738415
5c4130f08daebb0001d1a27b,110,2,2024-02-24T08:13:23.572Z,french_876.wav,0,poule,234,25,5,5,français,m,3,0.25666667,3.25210733,1.33428182
5c4130f08daebb0001d1a27b,111,2,2024-02-24T08:13:23.572Z,french_296.wav,0,poule,232,25,5,5,français,m,0,0.0,93.71479572,0.08926169
5c4130f08daebb0001d1a27b,111,2,2024-02-24T08:13:23.572Z,french_296.wav,0,poule,232,25,5,5,français,m,1,0.1,-75.79046522,1.27041306
5c4130f08daebb0001d1a27b,111,2,2024-02-24T08:13:23.572Z,french_296.wav,0,poule,232,25,5,5,français,m,2,0.2,-87.29598303,1.46433067
5c4130f08daebb0001d1a27b,111,2,2024-02-24T08:13:23.572Z,french_296.wav,0,poule,232,25,5,5,français,m,3,0.25666667,31.73776098,0.42599999
5c4130f08daebb0001d1a27b,112,2,2024-02-24T08:13:23.572Z,french_551.wav,0,poule,304,25,5,5,français,m,0,0.0,-87.08357851,1.2328931
5c4130f08daebb0001d1a27b,112,2,2024-02-24T08:13:23.572Z,french_551.wav,0,poule,304,25,5,5,français,m,1,0.1,71.56090061,1.28136219
5c4130f08daebb0001d1a27b,112,2,2024-02-24T08:13:23.572Z,french_551.wav,0,poule,304,25,5,5,français,m,2,0.2,-46.55712742,0.3781059
5c4130f08daebb0001d1a27b,112,2,2024-02-24T08:13:23.572Z,french_551.wav,0,poule,304,25,5,5,français,m,3,0.25666667,-57.93002391,1.42095582
5c4130f08daebb0001d1a27b,113,2,2024-02-24T08:13:23.572Z,french_140.wav,0,poule,702,25,5,5,français,m,0,0.0,88.20971648,1.40468934
5c4130f08daebb0001d1a27b,113,2,2024-02-24T08:13:23.572Z,french_140.wav,0,poule,702,25,5,5,français,m,1,0.1,-47.21457526,0.07517377
5c4130f08daebb0001d1a27b,113,2,2024-02-24T08:13:23.572Z,french_140.wav,0,poule,702,25,5,5,français,m,2,0.2,-33.13299566,0.96987146
5c4130f08daebb0001d1a27b,113,2,2024-02-24T08:13:23.572Z,french_140.wav,0,poule,702,25,5,5,français,m,3,0.25666667,6.89149494,0.45515396
5c4130f08daebb0001d1a27b,114,2,2024-02-24T08:13:23.572Z,french_152.wav,0,pull,6789,25,5,5,français,m,0,0.0,-3.84179402,0.21245747
5c4130f08daebb0001d1a27b,114,2,2024-02-24T08:13:23.572Z,french_152.wav,0,pull,6789,25,5,5,français,m,1,0.1,56.28738818,1.74384484
5c4130f08daebb0001d1a27b,114,2,2024-02-24T08:13:23.572Z,french_152.wav,0,pull,6789,25,5,5,français,m,2,0.2,-25.33799013,1.40208126
5c4130f08daebb0001d1a27b,114,2,2024-02-24T08:13:23.572Z,french_152.wav,0,pull,6789,25,5,5,français,m,3,0.25666667,-10.23447911,0.94312755
5c4130f08daebb0001d1a27b,115,2,2024-02-24T08:13:23.572Z,french_351.wav,0,poule,1348,25,5,5,français,m,0,0.0,-22.87012194,0.67033139
5c4130f08daebb0001d1a27b,115,2,2024-02-24T08:13:23.572Z,french_351.wav,0,poule,1348,25,5,5,français,m,1,0.1,10.68995272,0.80045466
5c4130f08daebb0001d1a27b,115,2,2024-02-24T08:13:23.572Z,french_351.wav,0,poule,1348,25,5,5,français,m,2,0.2,60.8101445,0.88778875
5c4130f08daebb0001d1a27b,115,2,2024-02-24T08:13:23.572Z,french_351.wav,0,poule,1348,25,5,5,français,m,3,0.25666667,32.12752515,0.26390259
5c4130f08daebb0001d1a27b,116,2,2024-02-24T08:13:23.572Z,french_885.wav,0,poule,803,25,5,5,français,m,0,0.0,33.82264354,0.94046277
5c4130f08daebb0001d1a27b,116,2,2024-02-24T08:13:23.572Z,french_885.wav,0,poule,803,25,5,5,français,m,1,0.1,-17.07734064,0.79714646
5c4130f08daebb0001d1a27b,116,2,2024-02-24T08:13:23.572Z,french_885.wav,0,poule,803,25,5,5,français,m,2,0.2,-15.93967404,1.26873891
5c4130f08daebb0001d1a27b,116,2,2024-02-24T08:13:23.572Z,french_885.wav,0,poule,803,25,5,5,français,m,3,0.25666667,58.67746901,1.69592015
5c4130f08daebb0001d1a27b,117,2,2024-02-24T08:13:23.572Z,french_287.wav,0,poule,354,25,5,5,français,m,0,0.0,-6.24804435,1.11596696
5c4130f08daebb0001d1a27b,117,2,2024-02-24T08:13:23.572Z,french_287.wav,0,poule,354,25,5,5,français,m,1,0.1,-47.42967866,0.08887129
5c4130f08daebb0001d1a27b,117,2,2024-02-24T08:13:23.572Z,french_287.wav,0,poule,354,25,5,5,français,m,2,0.2,-83.16585562,1.70974676
5c4130f08daebb0001d1a27b,117,2,2024-02-24T08:13:23.572Z,french_287.wav,0,poule,354,25,5,5,français,m,3,0.25666667,77.49694817,0.42476907
5c4130f08daebb0001d1a27b,118,2,2024-02-24T08:13:23.572Z,french_862.wav,0,pull,1462,25,5,5,français,m,0,0.0,99.41401176,0.02807195
5c4130f08daebb0001d1a27b,118,2,2024-02-24T08:13:23.572Z,french_862.wav,0,pull,1462,25,5,5,français,m,1,0.1,35.25307956,0.7885189
5c4130f08daebb0001d1a27b,118,2,2024-02-24T08:13:23.572Z,french_862.wav,0,pull,1462,25,5,5,français,m,2,0.2,-56.34938096,0.76649358
5c4130f08daebb0001d1a27b,118,2,2024-02-24T08:13:23.572Z,french_862.wav,0,pull,1462,25,5,5,français,m,3,0.25666667,-51.21225279,1.75346492
5c4130f08daebb0001d1a27b,119,2,2024-02-24T08:13:23.572Z,french_61.wav,0,poule,251,25,5,5,français,m,0,0.0,65.32887924,1.15653785
5c4130f08daebb0001d1a27b,119,2,2024-02-24T08:13:23.572Z,french_61.wav,0,poule,251,25,5,5,français,m,1,0.1,45.09641809,1.72373813
5c4130f08daebb0001d1a27b,119,2,2024-02-24T08:13:23.572Z,french_61.wav,0,poule,251,25,5,5,français,m,2,0.2,-37.75339878,1.38726196
5c4130f08daebb0001d1a27b,119,2,2024-02-24T08:13:23.572Z,french_61.wav,0,poule,251,25,5,5,français,m,3,0.25666667,87.5089899,0.41594812
5c4130f08daebb0001d1a27b,120,2,2024-02-24T08:13:23.572Z,french_31.wav,0,poule,193,25,5,5,français,m,0,0.0,-16.52506352,1.57904125
5c4130f08daebb0001d1a27b,120,2,2024-02-24T08:13:23.572Z,french_31.wav,0,poule,193,25,5,5,français,m,1,0.1,-80.19736258,0.88688051
5c4130f08daebb0001d1a27b,120,2,2024-02-24T08:13:23.572Z,french_31.wav,0,poule,193,25,5,5,français,m,2,0.2,-47.04996605,0.44579633
5c4130f08daebb0001d1a27b,120,2,2024-02-24T08:13:23.572Z,french_31.wav,0,poule,193,25,5,5,français,m,3,0.25666667,35.27279848,1.71139476
5c4130f08daebb0001d1a27b,121,2,2024-02-24T08:13:23.572Z,french_321.wav,0,poule,274,25,5,5,français,m,0,0.0,-11.01764706,1.39443046
5c4130f08daebb0001d1a27b,121,2,2024-02-24T08:13:23.572Z,french_321.wav,0,poule,274,25,5,5,français,m,1,0.1,9.90480799,1.51913173
5c4130f08daebb0001d1a27b,121,2,2024-02-24T08:13:23.572Z,french_321.wav,0,poule,274,25,5,5,français,m,2,0.2,44.10153768,0.74961169
5c4130f08daebb0001d1a27b,121,2,2024-02-24T08:13:23.572Z,french_321.wav,0,poule,274,25,5,5,français,m,3,0.25666667,10.91862898,1.74221707
5c4130f08daebb0001d1a27b,122,2,2024-02-24T08:13:23.572Z,french_943.wav,0,poule,329,25,5,5,français,m,0,0.0,27.08075724,1.18472309
5c4130f08daebb0001d1a27b,122,2,2024-02-24T08:13:23.572Z,french_943.wav,0,poule,329,25,5,5,français,m,1,0.1,11.89706259,0.18520331
5c4130f08daebb0001d1a27b,122,2,2024-02-24T08:13:23.572Z,french_943.wav,0,poule,329,25,5,5,français,m,2,0.2,-68.36208072,0.55970606
5c4130f08daebb0001d1a27b,122,2,2024-02-24T08:13:23.572Z,french_943.wav,0,poule,329,25,5,5,français,m,3,0.25666667,93.65942771,0.63383354
5c4130f08daebb0001d1a27b,123,2,2024-02-24T08:13:23.572Z,french_55.wav,0,poule,118,25,5,5,français,m,0,0.0,54.29815268,1.84925003
5c4130f08daebb0001d1a27b,123,2,2024-02-24T08:13:23.572Z,french_55.wav,0,poule,118,25,5,5,français,m,1,0.1,66.77804826,1.2451745
5c4130f08daebb0001d1a27b,123,2,2024-02-24T08:13:23.572Z,french_55.wav,0,poule,118,25,5,5,français,m,2,0.2,-38.71051383,1.48535221
5c4130f08daebb0001d1a27b,123,2,2024-02-24T08:13:23.572Z,french_55.wav,0,poule,118,25,5,5,français,m,3,0.25666667,0.30980485,1.20016501
5c4130f08daebb0001d1a27b,124,2,2024-02-24T08:13:23.572Z,french_625.wav,0,poule,254,25,5,5,français,m,0,0.0,79.19979266,0.47634137
5c4130f08daebb0001d1a27b,124,2,2024-02-24T08:13:23.572Z,french_625.wav,0,poule,254,25,5,5,français,m,1,0.1,14.54258285,0.73497705
5c4130f08daebb0001d1a27b,124,2,2024-02-24T08:13:23.572Z,french_625.wav,0,poule,254,25,5,5,français,m,2,0.2,86.07148008,0.05854955
5c4130f08daebb0001d1a27b,124,2,2024-02-24T08:13:23.572Z,french_625.wav,0,poule,254,25,5,5,français,m,3,0.25666667,45.85831434,0.79046633
5c4130f08daebb0001d1a27b,125,2,2024-02-24T08:13:23.572Z,french_938.wav,0,poule,238,25,5,5,français,m,0,0.0,-81.44382825,1.9747372
5c4130f08daebb0001d1a27b,125,2,2024-02-24T08:13:23.572Z,french_938.wav,0,poule,238,25,5,5,français,m,1,0.1,70.63637201,1.46978645
5c4130f08daebb0001d1a27b,125,2,2024-02-24T08:13:23.572Z,french_938.wav,0,poule,238,25,5,5,français,m,2,0.2,29.19185054,1.77157462
5c4130f08daebb0001d1a27b,125,2,2024-02-24T08:13:23.572Z,french_938.wav,0,poule,238,25,5,5,français,m,3,0.25666667,62.72928817,1.30296517
5c4130f08daebb0001d1a27b,126,2,2024-02-24T08:13:23.572Z,french_304.wav,0,poule,1196,25,5,5,français,m,0,0.0,58.70341866,1.21350262
5c4130f08daebb0001d1a27b,126,2,2024-02-24T08:13:23.572Z,french_304.wav,0,poule,1196,25,5,5,français,m,1,0.1,64.39481967,0.74970721
5c4130f08daebb0001d1a27b,126,2,2024-02-24T08:13:23.572Z,french_304.wav,0,poule,1196,25,5,5,français,m,2,0.2,24.44185136,0.32537914
5c4130f08daebb0001d1a27b,126,2,2024-02-24T08:13:23.572Z,french_304.wav,0,poule,1196,25,5,5,français,m,3,0.25666667,-92.24598877,0.12166717
5c4130f08daebb0001d1a27b,127,2,2024-02-24T08:13:23.572Z,french_445.wav,0,poule,338,25,5,5,français,m,0,0.0,8.73559539,0.8054478
5c4130f08daebb0001d1a27b,127,2,2024-02-24T08:13:23.572Z,french_445.wav,0,poule,338,25,5,5,français,m,1,0.1,-22.15313252,1.73211315
5c4130f08daebb0001d1a27b,127,2,2024-02-24T08:13:23.572Z,french_445.wav,0,poule,338,25,5,5,français,m,2,0.2,26.0955013,0.21896619
5c4130f08daebb0001d1a27b,127,2,2024-02-24T08:13:23.572Z,french_445.wav,0,poule,338,25,5,5,français,m,3,0.25666667,22.70157082,0.54256666
5c4130f08daebb0001d1a27b,128,2,2024-02-24T08:13:23.572Z,french_590.wav,0,poule,392,25,5,5,français,m,0,0.0,-77.28287391,1.10563408
5c4130f08daebb0001d1a27b,128,2,2024-02-24T08:13:23.572Z,french_590.wav,0,poule,392,25,5,5,français,m,1,0.1,-59.34931175,0.27897949
5c4130f08daebb0001d1a27b,128,2,2024-02-24T08:13:23.572Z,french_590.wav,0,poule,392,25,5,5,français,m,2,0.2,-59.15957395,1.42245938
5c4130f08daebb0001d1a27b,128,2,2024-02-24T08:13:23.572Z,french_590.wav,0,poule,392,25,5,5,français,m,3,0.25666667,88.90935082,0.18524725
5c4130f08daebb0001d1a27b,129,2,2024-02-24T08:13:23.572Z,french_63.wav,0,pull,1310,25,5,5,français,m,0,0.0,-81.8544396,0.29798693
5c4130f08daebb0001d1a27b,129,2,2024-02-24T08:13:23.572Z,french_63.wav,0,pull,1310,25,5,5,français,m,1,0.1,15.35577337,0.29415435
5c4130f08daebb0001d1a27b,129,2,2024-02-24T08:13:23.572Z,french_63.wav,0,pull,1310,25,5,5,français,m,2,0.2,-93.67975396,1.48728433
5c4130f08daebb0001d1a27b,129,2,2024-02-24T08:13:23.572Z,french_63.wav,0,pull,1310,25,5,5,français,m,3,0.25666667,6.98256112,1.07216934
5c4130f08daebb0001d1a27b,130,2,2024-02-24T08:13:23.572Z,french_674.wav,0,poule,364,25,5,5,français,m,0,0.0,36.8658398,0.63817569
5c4130f08daebb0001d1a27b,130,2,2024-02-24T08:13:23.572Z,french_674.wav,0,poule,364,25,5,5,français,m,1,0.1,-70.55199619,1.9135219
5c4130f08daebb0001d1a27b,130,2,2024-02-24T08:13:23.572Z,french_674.wav,0,poule,364,25,5,5,français,m,2,0.2,-3.70121723,1.96782527
5c4130f08daebb0001d1a27b,130,2,2024-02-24T08:13:23.572Z,french_674.wav,0,poule,364,25,5,5,français,m,3,0.25666667,30.12615154,0.86862342
5c4130f08daebb0001d1a27b,131,2,2024-02-24T08:13:23.572Z,french_843.wav,0,poule,269,25,5,5,français,m,0,0.0,13.6803361,0.65425976
5c4130f08daebb0001d1a27b,131,2,2024-02-24T08:13:23.572Z,french_843.wav,0,poule,269,25,5,5,français,m,1,0.1,92.02668438,1.47814853
5c4130f08daebb0001d1a27b,131,2,2024-02-24T08:13:23.572Z,french_843.wav,0,poule,269,25,5,5,français,m,2,0.2,-93.52604538,0.78236369
5c4130f08daebb0001d1a27b,131,2,2024-02-24T08:13:23.572Z,french_843.wav,0,poule,269,25,5,5,français,m,3,0.25666667,-12.7136852,0.52413001
5c4130f08daebb0001d1a27b,132,2,2024-02-24T08:13:23.572Z,french_104.wav,0,poule,1660,25,5,5,français,m,0,0.0,-10.23090517,1.0322013
5c4130f08daebb0001d1a27b,132,2,2024-02-24T08:13:23.572Z,french_104.wav,0,poule,1660,25,5,5,français,m,1,0.1,92.61712743,0.84344174
5c4130f08daebb0001d1a27b,132,2,2024-02-24T08:13:23.572Z,french_104.wav,0,poule,1660,25,5,5,français,m,2,0.2,0.22426759,1.03962656
5c4130f08daebb0001d1a27b,132,2,2024-02-24T08:13:23.572Z,french_104.wav,0,poule,1660,25,5,5,français,m,3,0.25666667,32.30673442,1.9472426
5c4130f08daebb0001d1a27b,133,2,2024-02-24T08:13:23.572Z,french_397.wav,0,poule,290,25,5,5,français,m,0,0.0,-13.81470081,1.26162917
5c4130f08daebb0001d1a27b,133,2,2024-02-24T08:13:23.572Z,french_397.wav,0,poule,290,25,5,5,français,m,1,0.1,50.38281738,1.19612478
5c4130f08daebb0001d1a27b,133,2,2024-02-24T08:13:23.572Z,french_397.wav,0,poule,290,25,5,5,français,m,2,0.2,50.22980228,1.02842354
5c4130f08daebb0001d1a27b,133,2,2024-02-24T08:13:23.572Z,french_397.wav,0,poule,290,25,5,5,français,m,3,0.25666667,-83.86271009,0.53389444
5c4130f08daebb0001d1a27b,134,2,2024-02-24T08:13:23.572Z,french_274.wav,0,poule,398,25,5,5,français,m,0,0.0,43.75822691,1.39255027
5c4130f08daebb0001d1a27b,134,2,2024-02-24T08:13:23.572Z,french_274.wav,0,poule,398,25,5,5,français,m,1,0.1,86.10199067,1.73272922
5c4130f08daebb0001d1a27b,134,2,2024-02-24T08:13:23.572Z,french_274.wav,0,poule,398,25,5,5,français,m,2,0.2,-33.25278445,0.27567755
5c4130f08daebb0001d1a27b,134,2,2024-02-24T08:13:23.572Z,french_274.wav,0,poule,398,25,5,5,français,m,3,0.25666667,-94.53609652,1.08955952
5c4130f08daebb0001d1a27b,135,2,2024-02-24T08:13:23.572Z,french_896.wav,0,poule,242,25,5,5,français,m,0,0.0,-50.03367973,0.4350745
5c4130f08daebb0001d1a27b,135,2,2024-02-24T08:13:23.572Z,french_896.wav,0,poule,242,25,5,5,français,m,1,0.1,73.95849411,1.7879982
5c4130f08daebb0001d1a27b,135,2,2024-02-24T08:13:23.572Z,french_896.wav,0,poule,242,25,5,5,français,m,2,0.2,16.78858773,0.61207276
5c4130f08daebb0001d1a27b,135,2,2024-02-24T08:13:23.572Z,french_896.wav,0,poule,242,25,5,5,français,m,3,0.25666667,-49.02431976,0.35432813
5c4130f08daebb0001d1a27b,136,2,2024-02-24T08:13:23.572Z,french_754.wav,0,pull,1137,25,5,5,français,m,0,0.0,11.6644261,0.15061695
5c4130f08daebb0001d1a27b,136,2,2024-02-24T08:13:23.572Z,french_754.wav,0,pull,1137,25,5,5,français,m,1,0.1,5.00985124,0.57469516
5c4130f08daebb0001d1a27b,136,2,2024-02-24T08:13:23.572Z,french_754.wav,0,pull,1137,25,5,5,français,m,2,0.2,23.99974903,0.45412791
5c4130f08daebb0001d1a27b,136,2,2024-02-24T08:13:23.572Z,french_754.wav,0,pull,1137,25,5,5,français,m,3,0.25666667,23.77807811,0.27591884
5c4130f08daebb0001d1a27b,137,2,2024-02-24T08:13:23.572Z,french_645.wav,0,poule,889,25,5,5,français,m,0,0.0,39.28095882,1.44479402
5c4130f08daebb0001d1a27b,137,2,2024-02-24T08:13:23.572Z,french_645.wav,0,poule,889,25,5,5,français,m,1,0.1,36.97709506,1.97267477
5c4130f08daebb0001d1a27b,137,2,2024-02-24T08:13:23.572Z,french_645.wav,0,poule,889,25,5,5,français,m,2,0.2,-20.56368862,0.33303832
5c4130f08daebb0001d1a27b,137,2,2024-02-24T08:13:23.572Z,french_645.wav,0,poule,889,25,5,5,français,m,3,0.25666667,45.13755494,0.87530899
5c4130f08daebb0001d1a27b,138,2,2024-02-24T08:13:23.572Z,french_256.wav,0,poule,252,25,5,5,français,m,0,0.0,34.00641445,1.19838094
5c4130f08daebb0001d1a27b,138,2,2024-02-24T08:13:23.572Z,french_256.wav,0,poule,252,25,5,5,français,m,1,0.1,78.12380502,0.9412232
5c4130f08daebb0001d1a27b,138,2,2024-02-24T08:13:23.572Z,french_256.wav,0,poule,252,25,5,5,français,m,2,0.2,84.97245465,1.34630265
5c4130f08daebb0001d1a27b,138,2,2024-02-24T08:13:23.572Z,french_256.wav,0,poule,252,25,5,5,français,m,3,0.25666667,29.4187394,1.86077871
5c4130f08daebb0001d1a27b,139,2,2024-02-24T08:13:23.572Z,french_440.wav,0,poule,512,25,5,5,français,m,0,0.0,-59.81098651,0.93400427
5c4130f08daebb0001d1a27b,139,2,2024-02-24T08:13:23.572Z,french_440.wav,0,poule,512,25,5,5,français,m,1,0.1,55.41661021,0.25641934
5c4130f08daebb0001d1a27b,139,2,2024-02-24T08:13:23.572Z,french_440.wav,0,poule,512,25,5,5,français,m,2,0.2,43.77043266,0.61594081
5c4130f08daebb0001d1a27b,139,2,2024-02-24T08:13:23.572Z,french_440.wav,0,poule,512,25,5,5,français,m,3,0.25666667,-5.41632891,1.32329824
5c4130f08daebb0001d1a27b,140,2,2024-02-24T08:13:23.572Z,french_345.wav,0,poule,1103,25,5,5,français,m,0,0.0,-15.34440167,0.71900559
5c4130f08daebb0001d1a27b,140,2,2024-02-24T08:13:23.572Z,french_345.wav,0,poule,1103,25,5,5,français,m,1,0.1,10.78758757,1.22956467
5c4130f08daebb0001d1a27b,140,2,2024-02-24T08:13:23.572Z,french_345.wav,0,poule,1103,25,5,5,français,m,2,0.2,-99.05600522,1.71608101
5c4130f08daebb0001d1a27b,140,2,2024-02-24T08:13:23.572Z,french_345.wav,0,poule,1103,25,5,5,français,m,3,0.25666667,-6.99010662,1.92257683
5c4130f08daebb0001d1a27b,141,2,2024-02-24T08:13:23.572Z,french_664.wav,0,poule,930,25,5,5,français,m,0,0.0,-2.08032019,1.43741932
5c4130f08daebb0001d1a27b,141,2,2024-02-24T08:13:23.572Z,french_664.wav,0,poule,930,25,5,5,français,m,1,0.1,-67.02716902,1.07099048
5c4130f08daebb0001d1a27b,141,2,2024-02-24T08:13:23.572Z,french_664.wav,0,poule,930,25,5,5,français,m,2,0.2,95.17650789,1.92774669
5c4130f08daebb0001d1a27b,141,2,2024-02-24T08:13:23.572Z,french_664.wav,0,poule,930,25,5,5,français,m,3,0.25666667,-41.34718039,0.70027683
5c4130f08daebb0001d1a27b,142,2,2024-02-24T08:13:23.572Z,french_107.wav,0,poule,2748,25,5,5,français,m,0,0.0,67.03881883,1.87266913
5c4130f08daebb0001d1a27b,142,2,2024-02-24T08:13:23.572Z,french_107.wav,0,poule,2748,25,5,5,français,m,1,0.1,45.78296109,0.27229476
5c4130f08daebb0001d1a27b,142,2,2024-02-24T08:13:23.572Z,french_107.wav,0,poule,2748,25,5,5,français,m,2,0.2,-43.22729876,1.08803063
5c4130f08daebb0001d1a27b,142,2,2024-02-24T08:13:23.572Z,french_107.wav,0,poule,2748,25,5,5,français,m,3,0.25666667,-74.69599774,1.63601275
5c4130f08daebb0001d1a27b,143,2,2024-02-24T08:13:23.572Z,french_263.wav,0,pull,3280,25,5,5,français,m,0,0.0,25.02930943,0.29249845
5c4130f08daebb0001d1a27b,143,2,2024-02-24T08:13:23.572Z,french_263.wav,0,pull,3280,25,5,5,français,m,1,0.1,77.59070044,1.82268286
5c4130f08daebb0001d1a27b,143,2,2024-02-24T08:13:23.572Z,french_263.wav,0,pull,3280,25,5,5,français,m,2,0.2,61.13366196,0.69638669
5c4130f08daebb0001d1a27b,143,2,2024-02-24T08:13:23.572Z,french_263.wav,0,pull,3280,25,5,5,français,m,3,0.25666667,-46.58539851,0.57279137
5c4130f08daebb0001d1a27b,144,2,2024-02-24T08:13:23.572Z,french_668.wav,0,poule,1060,25,5,5,français,m,0,0.0,44.4696917,0.61167569
5c4130f08daebb0001d1a27b,144,2,2024-02-24T08:13:23.572Z,french_668.wav,0,poule,1060,25,5,5,français,m,1,0.1,63.48880943,0.96933631
5c4130f08daebb0001d1a27b,144,2,2024-02-24T08:13:23.572Z,french_668.wav,0,poule,1060,25,5,5,français,m,2,0.2,96.50351719,1.39779359
5c4130f08daebb0001d1a27b,144,2,2024-02-24T08:13:23.572Z,french_668.wav,0,poule,1060,25,5,5,français,m,3,0.25666667,-38.26923088,1.779663
5c4130f08daebb0001d1a27b,145,2,2024-02-24T08:13:23.572Z,french_886.wav,0,pull,1989,25,5,5,français,m,0,0.0,-29.93146366,0.4543131
5c4130f08daebb0001d1a27b,145,2,2024-02-24T08:13:23.572Z,french_886.wav,0,pull,1989,25,5,5,français,m,1,0.1,-19.22170842,1.74784503
5c4130f08daebb0001d1a27b,145,2,2024-02-24T08:13:23.572Z,french_886.wav,0,pull,1989,25,5,5,français,m,2,0.2,-71.55320982,1.04864587
5c4130f08daebb0001d1a27b,145,2,2024-02-24T08:13:23.572Z,french_886.wav,0,pull,1989,25,5,5,français,m,3,0.25666667,-23.6698032,1.15835862
5c4130f08daebb0001d1a27b,146,2,2024-02-24T08:13:23.572Z,french_135.wav,0,poule,657,25,5,5,français,m,0,0.0,-14.44114523,1.1198793
5c4130f08daebb0001d1a27b,146,2,2024-02-24T08:13:23.572Z,french_135.wav,0,poule,657,25,5,5,français,m,1,0.1,22.88033262,0.12707755
5c4130f08daebb0001d1a27b,146,2,2024-02-24T08:13:23.572Z,french_135.wav,0,poule,657,25,5,5,français,m,2,0.2,45.87784319,1.72429487
5c4130f08daebb0001d1a27b,146,2,2024-02-24T08:13:23.572Z,french_135.wav,0,poule,657,25,5,5,français,m,3,0.25666667,14.60103067,0.79769027
5c4130f08daebb0001d1a27b,147,2,2024-02-24T08:13:23.572Z,french_816.wav,0,poule,638,25,5,5,français,m,0,0.0,-39.39804621,1.26291691
5c4130f08daebb0001d1a27b,147,2,2024-02-24T08:13:23.572Z,french_816.wav,0,poule,638,25,5,5,français,m,1,0.1,14.23792488,1.60181117
5c4130f08daebb0001d1a27b,147,2,2024-02-24T08:13:23.572Z,french_816.wav,0,poule,638,25,5,5,français,m,2,0.2,-84.08825282,0.57012939
5c4130f08daebb0001d1a27b,147,2,2024-02-24T08:13:23.572Z,french_816.wav,0,poule,638,25,5,5,français,m,3,0.25666667,-46.46940665,1.06315664
5c4130f08daebb0001d1a27b,148,2,2024-02-24T08:13:23.572Z,french_566.wav,0,poule,588,25,5,5,français,m,0,0.0,64.79843522,1.40647024
5c4130f08daebb0001d1a27b,148,2,2024-02-24T08:13:23.572Z,french_566.wav,0,poule,588,25,5,5,français,m,1,0.1,34.55507538,1.25726542
5c4130f08daebb0001d1a27b,148,2,2024-02-24T08:13:23.572Z,french_566.wav,0,poule,588,25,5,5,français,m,2,0.2,88.9191899,0.22445964
5c4130f08daebb0001d1a27b,148,2,2024-02-24T08:13:23.572Z,french_566.wav,0,poule,588,25,5,5,français,m,3,0.25666667,20.7211509,0.73474601
5c4130f08daebb0001d1a27b,149,2,2024-02-24T08:13:23.572Z,french_347.wav,0,poule,413,25,5,5,français,m,0,0.0,-50.57249908,1.7558536
5c4130f08daebb0001d1a27b,149,2,2024-02-24T08:13:23.572Z,french_347.wav,0,poule,413,25,5,5,français,m,1,0.1,-0.96259157,0.42717605
5c4130f08daebb0001d1a27b,149,2,2024-02-24T08:13:23.572Z,french_347.wav,0,poule,413,25,5,5,français,m,2,0.2,56.28626554,1.32943016
5c4130f08daebb0001d1a27b,149,2,2024-02-24T08:13:23.572Z,french_347.wav,0,poule,413,25,5,5,français,m,3,0.25666667,46.89576118,0.4771217
5c4130f08daebb0001d1a27b,150,3,2024-02-24T08:13:23.572Z,french_385.wav,0,poule,509,25,5,5,français,m,0,0.0,-5.35501711,1.94967077
5c4130f08daebb0001d1a27b,150,3,2024-02-24T08:13:23.572Z,french_385.wav,0,poule,509,25,5,5,français,m,1,0.1,28.75563306,0.4629862
5c4130f08daebb0001d1a27b,150,3,2024-02-24T08:13:23.572Z,french_385.wav,0,poule,509,25,5,5,français,m,2,0.2,60.61846434,0.74478567
5c4130f08daebb0001d1a27b,150,3,2024-02-24T08:13:23.572Z,french_385.wav,0,poule,509,25,5,5,français,m,3,0.25666667,-78.89426498,0.69826307
5c4130f08daebb0001d1a27b,151,3,2024-02-24T08:13:23.572Z,french_172.wav,0,poule,2034,25,5,5,français,m,0,0.0,48.7065843,1.72774852
5c4130f08daebb0001d1a27b,151,3,2024-02-24T08:13:23.572Z,french_172.wav,0,poule,2034,25,5,5,français,m,1,0.1,36.17213003,0.94223675
5c4130f08daebb0001d1a27b,151,3,2024-02-24T08:13:23.572Z,french_172.wav,0,poule,2034,25,5,5,français,m,2,0.2,22.16215467,1.06724209
5c4130f08daebb0001d1a27b,151,3,2024-02-24T08:13:23.572Z,french_172.wav,0,poule,2034,25,5,5,français,m,3,0.25666667,3.80373218,1.19623342
5c4130f08daebb0001d1a27b,152,3,2024-02-24T08:13:23.572Z,french_708.wav,0,poule,284,25,5,5,français,m,0,0.0,77.88438146,0.30850898
5c4130f08daebb0001d1a27b,152,3,2024-02-24T08:13:23.572Z,french_708.wav,0,poule,284,25,5,5,français,m,1,0.1,-89.66132416,1.49064351
5c4130f08daebb0001d1a27b,152,3,2024-02-24T08:13:23.572Z,french_708.wav,0,poule,284,25,5,5,français,m,2,0.2,66.08375885,1.28629193
5c4130f08daebb0001d1a27b,152,3,2024-02-24T08:13:23.572Z,french_708.wav,0,poule,284,25,5,5,français,m,3,0.25666667,-39.93161414,1.01533724
5c4130f08daebb0001d1a27b,153,3,2024-02-24T08:13:23.572Z,french_729.wav,0,poule,388,25,5,5,français,m,0,0.0,53.20588085,1.49423138
5c4130f08daebb0001d1a27b,153,3,2024-02-24T08:13:23.572Z,french_729.wav,0,poule,388,25,5,5,français,m,1,0.1,89.42375323,0.2074599
5c4130f08daebb0001d1a27b,153,3,2024-02-24T08:13:23.572Z,french_729.wav,0,poule,388,25,5,5,français,m,2,0.2,-13.37040397,1.07839331
5c4130f08daebb0001d1a27b,153,3,2024-02-24T08:13:23.572Z,french_729.wav,0,poule,388,25,5,5,français,m,3,0.25666667,-26.89484255,0.61183567
5c4130f08daebb0001d1a27b,154,3,2024-02-24T08:13:23.572Z,french_349.wav,0,poule,874,25,5,5,français,m,0,0.0,73.89254537,0.17403551
5c4130f08daebb0001d1a27b,154,3,2024-02-24T08:13:23.572Z,french_349.wav,0,poule,874,25,5,5,français,m,1,0.1,-84.33493486,1.66487719
5c4130f08daebb0001d1a27b,154,3,2024-02-24T08:13:23.572Z,french_349.wav,0,poule,874,25,5,5,français,m,2,0.2,-3.2709249,1.53740634
5c4130f08daebb0001d1a27b,154,3,2024-02-24T08:13:23.572Z,french_349.wav,0,poule,874,25,5,5,français,m,3,0.25666667,-21.54511299,1.56834066
5c4130f08daebb0001d1a27b,155,3,2024-02-24T08:13:23.572Z,french_790.wav,0,pull,1000,25,5,5,français,m,0,0.0,-78.0899986,0.03777082
5c4130f08daebb0001d1a27b,155,3,2024-02-24T08:13:23.572Z,french_790.wav,0,pull,1000,25,5,5,français,m,1,0.1,-13.38999599,1.54425687
5c4130f08daebb0001d1a27b,155,3,2024-02-24T08:13:23.572Z,french_790.wav,0,pull,1000,25,5,5,français,m,2,0.2,-59.88967217,0.07634696
5c4130f08daebb0001d1a27b,155,3,2024-02-24T08:13:23.572Z,french_790.wav,0,pull,1000,25,5,5,français,m,3,0.25666667,34.06701256,1.62279479
5c4130f08daebb0001d1a27b,156,3,2024-02-24T08:13:23.572Z,french_175.wav,0,poule,456,25,5,5,français,m,0,0.0,-66.64800697,0.89831181
5c4130f08daebb0001d1a27b,156,3,2024-02-24T08:13:23.572Z,french_175.wav,0,poule,456,25,5,5,français,m,1,0.1,55.8136762,1.16054297
5c4130f08daebb0001d1a27b,156,3,2024-02-24T08:13:23.572Z,french_175.wav,0,poule,456,25,5,5,français,m,2,0.2,13.86880033,0.04267506
5c4130f08daebb0001d1a27b,156,3,2024-02-24T08:13:23.572Z,french_175.wav,0,poule,456,25,5,5,français,m,3,0.25666667,79.77573594,1.48091244
5c4130f08daebb0001d1a27b,157,3,2024-02-24T08:13:23.572Z,french_553.wav,0,poule,394,25,5,5,français,m,0,0.0,-1.38146628,0.44011383
5c4130f08daebb0001d1a27b,157,3,2024-02-24T08:13:23.572Z,french_553.wav,0,poule,394,25,5,5,français,m,1,0.1,-34.28745567,1.14829302
5c4130f08daebb0001d1a27b,157,3,2024-02-24T08:13:23.572Z,french_553.wav,0,poule,394,25,5,5,français,m,2,0.2,6.87532462,1.07508961
5c4130f08daebb0001d1a27b,157,3,2024-02-24T08:13:23.572Z,french_553.wav,0,poule,394,25,5,5,français,m,3,0.25666667,90.98690029,0.10252166
5c4130f08daebb0001d1a27b,158,3,2024-02-24T08:13:23.572Z,french_748.wav,0,poule,606,25,5,5,français,m,0,0.0,66.19282508,0.41357469
5c4130f08daebb0001d1a27b,158,3,2024-02-24T08:13:23.572Z,french_748.wav,0,poule,606,25,5,5,français,m,1,0.1,-81.39884416,1.04952
5c4130f08daebb0001d1a27b,158,3,2024-02-24T08:13:23.572Z,french_748.wav,0,poule,606,25,5,5,français,m,2,0.2,72.72612179,1.37113635
5c4130f08daebb0001d1a27b,158,3,2024-02-24T08:13:23.572Z,french_748.wav,0,poule,606,25,5,5,français,m,3,0.25666667,76.03481505,1.54211369
5c4130f08daebb0001d1a27b,159,3,2024-02-24T08:13:23.572Z,french_833.wav,0,pull,744,25,5,5,français,m,0,0.0,-6.16556676,1.54939137
5c4130f08daebb0001d1a27b,159,3,2024-02-24T08:13:23.572Z,french_833.wav,0,pull,744,25,5,5,français,m,1,0.1,-32.48345992,0.45028205
5c4130f08daebb0001d1a27b,159,3,2024-02-24T08:13:23.572Z,french_833.wav,0,pull,744,25,5,5,français,m,2,0.2,-28.28033803,0.55227402
5c4130f08daebb0001d1a27b,159,3,2024-02-24T08:13:23.572Z,french_833.wav,0,pull,744,25,5,5,français,m,3,0.25666667,48.73445236,0.7790443
5c4130f08daebb0001d1a27b,160,3,2024-02-24T08:13:23.572Z,french_736.wav,0,poule,253,25,5,5,français,m,0,0.0,-58.2057669,1.39182764
5c4130f08daebb0001d1a27b,160,3,2024-02-24T08:13:23.572Z,french_736.wav,0,poule,253,25,5,5,français,m,1,0.1,67.4754916,0.85405242
5c4130f08daebb0001d1a27b,160,3,2024-02-24T08:13:23.572Z,french_736.wav,0,poule,253,25,5,5,français,m,2,0.2,92.18157431,1.06665121
5c4130f08daebb0001d1a27b,160,3,2024-02-24T08:13:23.572Z,french_736.wav,0,poule,253,25,5,5,français,m,3,0.25666667,88.23593553,0.29553719
5c4130f08daebb0001d1a27b,161,3,2024-02-24T08:13:23.572Z,french_704.wav,0,poule,156,25,5,5,français,m,0,0.0,47.78235411,1.53952375
5c4130f08daebb0001d1a27b,161,3,2024-02-24T08:13:23.572Z,french_704.wav,0,poule,156,25,5,5,français,m,1,0.1,-55.43932,1.15285736
5c4130f08daebb0001d1a27b,161,3,2024-02-24T08:13:23.572Z,french_704.wav,0,poule,156,25,5,5,français,m,2,0.2,-4.4200676,1.9057017
5c4130f08daebb0001d1a27b,161,3,2024-02-24T08:13:23.572Z,french_704.wav,0,poule,156,25,5,5,français,m,3,0.25666667,92.51428674,1.54517481
5c4130f08daebb0001d1a27b,162,3,2024-02-24T08:13:23.572Z,french_212.wav,0,poule,100,25,5,5,français,m,0,0.0,-65.85125812,0.99084671
5c4130f08daebb0001d1a27b,162,3,2024-02-24T08:13:23.572Z,french_212.wav,0,poule,100,25,5,5,français,m,1,0.1,4.72891676,1.71951251
5c4130f08daebb0001d1a27b,162,3,2024-02-24T08:13:23.572Z,french_212.wav,0,poule,100,25,5,5,français,m,2,0.2,52.80654505,1.56745001
5c4130f08daebb0001d1a27b,162,3,2024-02-24T08:13:23.572Z,french_212.wav,0,poule,100,25,5,5,français,m,3,0.25666667,75.91927134,1.70119676
5c4130f08daebb0001d1a27b,163,3,2024-02-24T08:13:23.572Z,french_457.wav,0,poule,310,25,5,5,français,m,0,0.0,42.86960152,1.10156515
5c4130f08daebb0001d1a27b,163,3,2024-02-24T08:13:23.572Z,french_457.wav,0,poule,310,25,5,5,français,m,1,0.1,79.85160671,0.90608198
5c4130f08daebb0001d1a27b,163,3,2024-02-24T08:13:23.572Z,french_457.wav,0,poule,310,25,5,5,français,m,2,0.2,98.12255829,0.87189229
5c4130f08daebb0001d1a27b,163,3,2024-02-24T08:13:23.572Z,french_457.wav,0,poule,310,25,5,5,français,m,3,0.25666667,78.01153847,1.12024719
5c4130f08daebb0001d1a27b,164,3,2024-02-24T08:13:23.572Z,french_861.wav,0,poule,415,25,5,5,français,m,0,0.0,-47.60379447,1.17561317
5c4130f08daebb0001d1a27b,164,3,2024-02-24T08:13:23.572Z,french_861.wav,0,poule,415,25,5,5,français,m,1,0.1,8.05593032,0.12143354
5c4130f08daebb0001d1a27b,164,3,2024-02-24T08:13:23.572Z,french_861.wav,0,poule,415,25,5,5,français,m,2,0.2,-18.27545885,0.42948795
5c4130f08daebb0001d1a27b,164,3,2024-02-24T08:13:23.572Z,french_861.wav,0,poule,415,25,5,5,français,m,3,0.25666667,49.68481265,0.3832977
5c4130f08daebb0001d1a27b,165,3,2024-02-24T08:13:23.572Z,french_560.wav,0,poule,364,25,5,5,français,m,0,0.0,-42.00998938,1.48749501
5c4130f08daebb0001d1a27b,165,3,2024-02-24T08:13:23.572Z,french_560.wav,0,poule,364,25,5,5,français,m,1,0.1,-57.33016448,0.25124208
5c4130f08daebb0001d1a27b,165,3,2024-02-24T08:13:23.572Z,french_560.wav,0,poule,364,25,5,5,français,m,2,0.2,94.61210268,1.70870291
5c4130f08daebb0001d1a27b,165,3,2024-02-24T08:13:23.572Z,french_560.wav,0,poule,364,25,5,5,français,m,3,0.25666667,-53.14621565,0.91259566
5c4130f08daebb0001d1a27b,166,3,2024-02-24T08:13:23.572Z,french_819.wav,0,poule,244,25,5,5,français,m,0,0.0,10.23888344,1.93351894
5c4130f08daebb0001d1a27b,166,3,2024-02-24T08:13:23.572Z,french_819.wav,0,poule,244,25,5,5,français,m,1,0.1,14.33129562,0.24790788
5c4130f08daebb0001d1a27b,166,3,2024-02-24T08:13:23.572Z,french_819.wav,0,poule,244,25,5,5,français,m,2,0.2,-57.61493264,1.58463495
5c4130f08daebb0001d1a27b,166,3,2024-02-24T08:13:23.572Z,french_819.wav,0,poule,244,25,5,5,français,m,3,0.25666667,33.17012155,0.31192511
5c4130f08daebb0001d1a27b,167,3,2024-02-24T08:13:23.572Z,french_518.wav,0,poule,413,25,5,5,français,m,0,0.0,30.08897808,1.28002377
5c4130f08daebb0001d1a27b,167,3,2024-02-24T08:13:23.572Z,french_518.wav,0,poule,413,25,5,5,français,m,1,0.1,-42.00678694,0.31881796
5c4130f08daebb0001d1a27b,167,3,2024-02-24T08:13:23.572Z,french_518.wav,0,poule,413,25,5,5,français,m,2,0.2,47.99304417,0.271149
5c4130f08daebb0001d1a27b,167,3,2024-02-24T08:13:23.572Z,french_518.wav,0,poule,413,25,5,5,français,m,3,0.25666667,-21.59585354,1.06182133
5c4130f08daebb0001d1a27b,168,3,2024-02-24T08:13:23.572Z,french_743.wav,0,pull,1006,25,5,5,français,m,0,0.0,-33.29442342,0.17876133
5c4130f08daebb0001d1a27b,168,3,2024-02-24T08:13:23.572Z,french_743.wav,0,pull,1006,25,5,5,français,m,1,0.1,66.78729562,1.55990879
5c4130f08daebb0001d1a27b,168,3,2024-02-24T08:13:23.572Z,french_743.wav,0,pull,1006,25,5,5,français,m,2,0.2,-0.09457626,1.00824872
5c4130f08daebb0001d1a27b,168,3,2024-02-24T08:13:23.572Z,french_743.wav,0,pull,1006,25,5,5,français,m,3,0.25666667,-6.43111547,1.50563658
5c4130f08daebb0001d1a27b,169,3,2024-02-24T08:13:23.572Z,french_516.wav,0,poule,308,25,5,5,français,m,0,0.0,-18.05376101,1.88602221
5c4130f08daebb0001d1a27b,169,3,2024-02-24T08:13:23.572Z,french_516.wav,0,poule,308,25,5,5,français,m,1,0.1,46.96361083,1.82153179
5c4130f08daebb0001d1a27b,169,3,2024-02-24T08:13:23.572Z,french_516.wav,0,poule,308,25,5,5,français,m,2,0.2,63.85228851,1.94475993
5c4130f08daebb0001d1a27b,169,3,2024-02-24T08:13:23.572Z,french_516.wav,0,poule,308,25,5,5,français,m,3,0.25666667,-69.83202403,1.41132457
5c4130f08daebb0001d1a27b,170,3,2024-02-24T08:13:23.572Z,french_248.wav,0,poule,430,25,5,5,français,m,0,0.0,-72.14952141,0.31572296
5c4130f08daebb0001d1a27b,170,3,2024-02-24T08:13:23.572Z,french_248.wav,0,poule,430,25,5,5,français,m,1,0.1,-0.62089361,0.98183681
5c4130f08daebb0001d1a27b,170,3,2024-02-24T08:13:23.572Z,french_248.wav,0,poule,430,25,5,5,français,m,2,0.2,-1.54726874,1.57355183
5c4130f08daebb0001d1a27b,170,3,2024-02-24T08:13:23.572Z,french_248.wav,0,poule,430,25,5,5,français,m,3,0.25666667,-50.42909266,0.39982355
5c4130f08daebb0001d1a27b,171,3,2024-02-24T08:13:23.572Z,french_395.wav,0,poule,452,25,5,5,français,m,0,0.0,53.54317287,1.78210887
5c4130f08daebb0001d1a27b,171,3,2024-02-24T08:13:23.572Z,french_395.wav,0,poule,452,25,5,5,français,m,1,0.1,-58.7899365,0.28539332
5c4130f08daebb0001d1a27b,171,3,2024-02-24T08:13:23.572Z,french_395.wav,0,poule,452,25,5,5,français,m,2,0.2,-16.29959602,1.44255764
5c4130f08daebb0001d1a27b,171,3,2024-02-24T08:13:23.572Z,french_395.wav,0,poule,452,25,5,5,français,m,3,0.25666667,-29.17949613,0.93749012
5c4130f08daebb0001d1a27b,172,3,2024-02-24T08:13:23.572Z,french_517.wav,0,poule,202,25,5,5,français,m,0,0.0,10.61669355,0.19899019
5c4130f08daebb0001d1a27b,172,3,2024-02-24T08:13:23.572Z,french_517.wav,0,poule,202,25,5,5,français,m,1,0.1,-49.88851761,1.4553669
5c4130f08daebb0001d1a27b,172,3,2024-02-24T08:13:23.572Z,french_517.wav,0,poule,202,25,5,5,français,m,2,0.2,47.72087598,1.48195648
5c4130f08daebb0001d1a27b,172,3,2024-02-24T08:13:23.572Z,french_517.wav,0,poule,202,25,5,5,français,m,3,0.25666667,-22.50236439,0.87629427
5c4130f08daebb0001d1a27b,173,3,2024-02-24T08:13:23.572Z,french_570.wav,0,poule,382,25,5,5,français,m,0,0.0,-73.07970403,1.97071113
5c4130f08daebb0001d1a27b,173,3,2024-02-24T08:13:23.572Z,french_570.wav,0,poule,382,25,5,5,français,m,1,0.1,-29.06072458,1.64236312
5c4130f08daebb0001d1a27b,173,3,2024-02-24T08:13:23.572Z,french_570.wav,0,poule,382,25,5,5,français,m,2,0.2,-25.44054287,0.27343611
5c4130f08daebb0001d1a27b,173,3,2024-02-24T08:13:23.572Z,french_570.wav,0,poule,382,25,5,5,français,m,3,0.25666667,96.93308839,1.31029171
5c4130f08daebb0001d1a27b,174,3,2024-02-24T08:13:23.572Z,french_820.wav,0,poule,120,25,5,5,français,m,0,0.0,-23.2512771,0.85914582
5c4130f08daebb0001d1a27b,174,3,2024-02-24T08:13:23.572Z,french_820.wav,0,poule,120,25,5,5,français,m,1,0.1,-3.42093224,1.44867235
5c4130f08daebb0001d1a27b,174,3,2024-02-24T08:13:23.572Z,french_820.wav,0,poule,120,25,5,5,français,m,2,0.2,-78.83822409,1.61907263
5c4130f08daebb0001d1a27b,174,3,2024-02-24T08:13:23.572Z,french_820.wav,0,poule,120,25,5,5,français,m,3,0.25666667,-24.79307177,1.11055267
5c4130f08daebb0001d1a27b,175,3,2024-02-24T08:13:23.572Z,french_795.wav,0,poule,1448,25,5,5,français,m,0,0.0,33.06955163,0.26323542
5c4130f08daebb0001d1a27b,175,3,2024-02-24T08:13:23.572Z,french_795.wav,0,poule,1448,25,5,5,français,m,1,0.1,99.3644883,0.35684642
5c4130f08daebb0001d1a27b,175,3,2024-02-24T08:13:23.572Z,french_795.wav,0,poule,1448,25,5,5,français,m,2,0.2,-80.69510174,0.7045199
5c4130f08daebb0001d1a27b,175,3,2024-02-24T08:13:23.572Z,french_795.wav,0,poule,1448,25,5,5,français,m,3,0.25666667,67.54375124,0.58342204
5c4130f08daebb0001d1a27b,176,3,2024-02-24T08:13:23.572Z,french_94.wav,0,poule,322,25,5,5,français,m,0,0.0,-38.18468722,1.72805858
5c4130f08daebb0001d1a27b,176,3,2024-02-24T08:13:23.572Z,french_94.wav,0,poule,322,25,5,5,français,m,1,0.1,61.36042124,0.90054349
5c4130f08daebb0001d1a27b,176,3,2024-02-24T08:13:23.572Z,french_94.wav,0,poule,322,25,5,5,français,m,2,0.2,-21.02312881,0.35857958
5c4130f08daebb0001d1a27b,176,3,2024-02-24T08:13:23.572Z,french_94.wav,0,poule,322,25,5,5,français,m,3,0.25666667,-24.03892562,0.71397413
5c4130f08daebb0001d1a27b,177,3,2024-02-24T08:13:23.572Z,french_374.wav,0,poule,806,25,5,5,français,m,0,0.0,23.12233407,0.63582229
5c4130f08daebb0001d1a27b,177,3,2024-02-24T08:13:23.572Z,french_374.wav,0,poule,806,25,5,5,français,m,1,0.1,4.88786521,0.48218095
5c4130f08daebb0001d1a27b,177,3,2024-02-24T08:13:23.572Z,french_374.wav,0,poule,806,25,5,5,français,m,2,0.2,75.40336837,0.81003499
5c4130f08daebb0001d1a27b,177,3,2024-02-24T08:13:23.572Z,french_374.wav,0,poule,806,25,5,5,français,m,3,0.25666667,-52.23092949,1.31471089
5c4130f08daebb0001d1a27b,178,3,2024-02-24T08:13:23.572Z,french_494.wav,0,poule,316,25,5,5,français,m,0,0.0,-13.98983301,1.71774812
5c4130f08daebb0001d1a27b,178,3,2024-02-24T08:13:23.572Z,french_494.wav,0,poule,316,25,5,5,français,m,1,0.1,-42.16987525,1.14165471
5c4130f08daebb0001d1a27b,178,3,2024-02-24T08:13:23.572Z,french_494.wav,0,poule,316,25,5,5,français,m,2,0.2,38.88383452,0.86838156
5c4130f08daebb0001d1a27b,178,3,2024-02-24T08:13:23.572Z,french_494.wav,0,poule,316,25,5,5,français,m,3,0.25666667,78.77057746,1.71181958
5c4130f08daebb0001d1a27b,179,3,2024-02-24T08:13:23.572Z,french_631.wav,0,poule,166,25,5,5,français,m,0,0.0,87.50143958,0.46380881
5c4130f08daebb0001d1a27b,179,3,2024-02-24T08:13:23.572Z,french_631.wav,0,poule,166,25,5,5,français,m,1,0.1,43.81698528,0.9935464
5c4130f08daebb0001d1a27b,179,3,2024-02-24T08:13:23.572Z,french_631.wav,0,poule,166,25,5,5,français,m,2,0.2,97.72878597,1.55852459
5c4130f08daebb0001d1a27b,179,3,2024-02-24T08:13:23.572Z,french_631.wav,0,poule,166,25,5,5,français,m,3,0.25666667,25.13380659,0.71365297
5c4130f08daebb0001d1a27b,180,3,2024-02-24T08:13:23.572Z,french_44.wav,0,poule,263,25,5,5,français,m,0,0.0,89.66608323,1.27808882
5c4130f08daebb0001d1a27b,180,3,2024-02-24T08:13:23.572Z,french_44.wav,0,poule,263,25,5,5,français,m,1,0.1,-59.25624901,0.57075293
5c4130f08daebb0001d1a27b,180,3,2024-02-24T08:13:23.572Z,french_44.wav,0,poule,263,25,5,5,français,m,2,0.2,-68.11161816,0.14730706
5c4130f08daebb0001d1a27b,180,3,2024-02-24T08:13:23.572Z,french_44.wav,0,poule,263,25,5,5,français,m,3,0.25666667,57.66656697,1.61481461
5c4130f08daebb0001d1a27b,181,3,2024-02-24T08:13:23.572Z,french_893.wav,0,poule,204,25,5,5,français,m,0,0.0,-94.12021506,0.88252126
5c4130f08daebb0001d1a27b,181,3,2024-02-24T08:13:23.572Z,french_893.wav,0,poule,204,25,5,5,français,m,1,0.1,53.79826098,0.31460198
5c4130f08daebb0001d1a27b,181,3,2024-02-24T08:13:23.572Z,french_893.wav,0,poule,204,25,5,5,français,m,2,0.2,-24.3553788,1.36492904
5c4130f08daebb0001d1a27b,181,3,2024-02-24T08:13:23.572Z,french_893.wav,0,poule,204,25,5,5,français,m,3,0.25666667,-81.90861644,1.93292807
5c4130f08daebb0001d1a27b,182,3,2024-02-24T08:13:23.572Z,french_72.wav,0,poule,132,25,5,5,français,m,0,0.0,87.98067932,1.39679477
5c4130f08daebb0001d1a27b,182,3,2024-02-24T08:13:23.572Z,french_72.wav,0,poule,132,25,5,5,français,m,1,0.1,-81.71579554,1.50716855
5c4130f08daebb0001d1a27b,182,3,2024-02-24T08:13:23.572Z,french_72.wav,0,poule,132,25,5,5,français,m,2,0.2,90.50171836,0.40298903
5c4130f08daebb0001d1a27b,182,3,2024-02-24T08:13:23.572Z,french_72.wav,0,poule,132,25,5,5,français,m,3,0.25666667,-62.13003885,0.67217346
5c4130f08daebb0001d1a27b,183,3,2024-02-24T08:13:23.572Z,french_781.wav,0,poule,127,25,5,5,français,m,0,0.0,33.25938538,1.27105286
5c4130f08daebb0001d1a27b,183,3,2024-02-24T08:13:23.572Z,french_781.wav,0,poule,127,25,5,5,français,m,1,0.1,-13.90292419,0.93357863
5c4130f08daebb0001d1a27b,183,3,2024-02-24T08:13:23.572Z,french_781.wav,0,poule,127,25,5,5,français,m,2,0.2,-71.59350782,1.0124146
5c4130f08daebb0001d1a27b,183,3,2024-02-24T08:13:23.572Z,french_781.wav,0,poule,127,25,5,5,français,m,3,0.25666667,57.07291034,0.68511696
5c4130f08daebb0001d1a27b,184,3,2024-02-24T08:13:23.572Z,french_273.wav,0,poule,300,25,5,5,français,m,0,0.0,-64.70279697,0.53531099
5c4130f08daebb0001d1a27b,184,3,2024-02-24T08:13:23.572Z,french_273.wav,0,poule,300,25,5,5,français,m,1,0.1,51.79292953,0.11586536
5c4130f08daebb0001d1a27b,184,3,2024-02-24T08:13:23.572Z,french_273.wav,0,poule,300,25,5,5,français,m,2,0.2,-96.4801009,0.21168864
5c4130f08daebb0001d1a27b,184,3,2024-02-24T08:13:23.572Z,french_273.wav,0,poule,300,25,5,5,français,m,3,0.25666667,93.42641001,1.2771199
5c4130f08daebb0001d1a27b,185,3,2024-02-24T08:13:23.572Z,french_318.wav,0,pull,2031,25,5,5,français,m,0,0.0,51.46520294,0.36120202
5c4130f08daebb0001d1a27b,185,3,2024-02-24T08:13:23.572Z,french_318.wav,0,pull,2031,25,5,5,français,m,1,0.1,86.78866558,0.00996795
5c4130f08daebb0001d1a27b,185,3,2024-02-24T08:13:23.572Z,french_318.wav,0,pull,2031,25,5,5,français,m,2,0.2,-10.27725715,1.05940341
5c4130f08daebb0001d1a27b,185,3,2024-02-24T08:13:23.572Z,french_318.wav,0,pull,2031,25,5,5,français,m,3,0.25666667,9.68065634,1.37923943
5c4130f08daebb0001d1a27b,186,3,2024-02-24T08:13:23.572Z,french_719.wav,0,poule,605,25,5,5,français,m,0,0.0,-0.39387326,0.47887204
5c4130f08daebb0001d1a27b,186,3,2024-02-24T08:13:23.572Z,french_719.wav,0,poule,605,25,5,5,français,m,1,0.1,1.52424656,1.22874683
5c4130f08daebb0001d1a27b,186,3,2024-02-24T08:13:23.572Z,french_719.wav,0,poule,605,25,5,5,français,m,2,0.2,34.63950895,0.97564384
5c4130f08daebb0001d1a27b,186,3,2024-02-24T08:13:23.572Z,french_719.wav,0,poule,605,25,5,5,français,m,3,0.25666667,-19.23986751,0.79252429
5c4130f08daebb0001d1a27b,187,3,2024-02-24T08:13:23.572Z,french_41.wav,0,poule,230,25,5,5,français,m,0,0.0,-11.6612147,0.49328208
5c4130f08daebb0001d1a27b,187,3,2024-02-24T08:13:23.572Z,french_41.wav,0,poule,230,25,5,5,français,m,1,0.1,96.56624365,1.84762861
5c4130f08daebb0001d1a27b,187,3,2024-02-24T08:13:23.572Z,french_41.wav,0,poule,230,25,5,5,français,m,2,0.2,69.39294216,1.1434724
5c4130f08daebb0001d1a27b,187,3,2024-02-24T08:13:23.572Z,french_41.wav,0,poule,230,25,5,5,français,m,3,0.25666667,-30.30775932,1.13333186
5c4130f08daebb0001d1a27b,188,3,2024-02-24T08:13:23.572Z,french_20.wav,0,poule,466,25,5,5,français,m,0,0.0,-78.24291845,1.07200279
5c4130f08daebb0001d1a27b,188,3,2024-02-24T08:13:23.572Z,french_20.wav,0,poule,466,25,5,5,français,m,1,0.1,-38.50442353,1.52694999
5c4130f08daebb0001d1a27b,188,3,2024-02-24T08:13:23.572Z,french_20.wav,0,poule,466,25,5,5,français,m,2,0.2,8.39731749,0.86133356
5c4130f08daebb0001d1a27b,188,3,2024-02-24T08:13:23.572Z,french_20.wav,0,poule,466,25,5,5,français,m,3,0.25666667,-43.87764948,0.74788424
5c4130f08daebb0001d1a27b,189,3,2024-02-24T08:13:23.572Z,french_1.wav,0,poule,244,25,5,5,français,m,0,0.0,91.87409443,0.51984737
5c4130f08daebb0001d1a27b,189,3,2024-02-24T08:13:23.572Z,french_1.wav,0,poule,244,25,5,5,français,m,1,0.1,-48.89112434,0.07214845
5c4130f08daebb0001d1a27b,189,3,2024-02-24T08:13:23.572Z,french_1.wav,0,poule,244,25,5,5,français,m,2,0.2,27.67932603,1.75660136
5c4130f08daebb0001d1a27b,189,3,2024-02-24T08:13:23.572Z,french_1.wav,0,poule,244,25,5,5,français,m,3,0.25666667,13.64945055,0.58315139
5c4130f08daebb0001d1a27b,190,3,2024-02-24T08:13:23.572Z,french_34.wav,0,poule,191,25,5,5,français,m,0,0.0,-97.24360174,1.95744133
