subj,trial,block,date,stim,stim_order,response,rt,age,english,french,language,sex,param_index,segment,pitch,stretch
5d726b8a0c3f0f0017cdfcf7,0,0,2024-02-27T10:02:05.706Z,french_413.wav,0,poule,1502,33,4,5,Français,m,0,0.0,-15.90568805,0.35618922
5d726b8a0c3f0f0017cdfcf7,0,0,2024-02-27T10:02:05.706Z,french_413.wav,0,poule,1502,33,4,5,Français,m,1,0.1,76.04965913,1.72047272
5d726b8a0c3f0f0017cdfcf7,0,0,2024-02-27T10:02:05.706Z,french_413.wav,0,poule,1502,33,4,5,Français,m,2,0.2,55.08996682,1.40872317
5d726b8a0c3f0f0017cdfcf7,0,0,2024-02-27T10:02:05.706Z,french_413.wav,0,poule,1502,33,4,5,Français,m,3,0.25666667,17.39731584,1.8089724
5d726b8a0c3f0f0017cdfcf7,1,0,2024-02-27T10:02:05.706Z,french_300.wav,0,poule,1301,33,4,5,Français,m,0,0.0,-13.28568226,1.4723541
5d726b8a0c3f0f0017cdfcf7,1,0,2024-02-27T10:02:05.706Z,french_300.wav,0,poule,1301,33,4,5,Français,m,1,0.1,80.95964609,1.07308012
5d726b8a0c3f0f0017cdfcf7,1,0,2024-02-27T10:02:05.706Z,french_300.wav,0,poule,1301,33,4,5,Français,m,2,0.2,97.81212175,1.14674573
5d726b8a0c3f0f0017cdfcf7,1,0,2024-02-27T10:02:05.706Z,french_300.wav,0,poule,1301,33,4,5,Français,m,3,0.25666667,60.85112551,1.78656344
5d726b8a0c3f0f0017cdfcf7,2,0,2024-02-27T10:02:05.706Z,french_608.wav,0,pull,756,33,4,5,Français,m,0,0.0,-21.93815625,0.80217517
5d726b8a0c3f0f0017cdfcf7,2,0,2024-02-27T10:02:05.706Z,french_608.wav,0,pull,756,33,4,5,Français,m,1,0.1,68.35071967,1.13802751
5d726b8a0c3f0f0017cdfcf7,2,0,2024-02-27T10:02:05.706Z,french_608.wav,0,pull,756,33,4,5,Français,m,2,0.2,-10.44332041,0.09203458
5d726b8a0c3f0f0017cdfcf7,2,0,2024-02-27T10:02:05.706Z,french_608.wav,0,pull,756,33,4,5,Français,m,3,0.25666667,-49.43801065,0.18129022
5d726b8a0c3f0f0017cdfcf7,3,0,2024-02-27T10:02:05.706Z,french_71.wav,0,poule,840,33,4,5,Français,m,0,0.0,-97.29707499,0.6163898
5d726b8a0c3f0f0017cdfcf7,3,0,2024-02-27T10:02:05.706Z,french_71.wav,0,poule,840,33,4,5,Français,m,1,0.1,41.74238765,1.06775198
5d726b8a0c3f0f0017cdfcf7,3,0,2024-02-27T10:02:05.706Z,french_71.wav,0,poule,840,33,4,5,Français,m,2,0.2,-91.89336592,1.31906527
5d726b8a0c3f0f0017cdfcf7,3,0,2024-02-27T10:02:05.706Z,french_71.wav,0,poule,840,33,4,5,Français,m,3,0.25666667,53.06515209,0.58556407
5d726b8a0c3f0f0017cdfcf7,4,0,2024-02-27T10:02:05.706Z,french_42.wav,0,poule,2767,33,4,5,Français,m,0,0.0,-62.21237173,0.70589884
5d726b8a0c3f0f0017cdfcf7,4,0,2024-02-27T10:02:05.706Z,french_42.wav,0,poule,2767,33,4,5,Français,m,1,0.1,-98.4992591,0.40467669
5d726b8a0c3f0f0017cdfcf7,4,0,2024-02-27T10:02:05.706Z,french_42.wav,0,poule,2767,33,4,5,Français,m,2,0.2,97.73183718,0.72488221
5d726b8a0c3f0f0017cdfcf7,4,0,2024-02-27T10:02:05.706Z,french_42.wav,0,poule,2767,33,4,5,Français,m,3,0.25666667,-56.73891221,0.44273829
5d726b8a0c3f0f0017cdfcf7,5,0,2024-02-27T10:02:05.706Z,french_152.wav,0,poule,506,33,4,5,Français,m,0,0.0,-3.84179402,0.21245747
5d726b8a0c3f0f0017cdfcf7,5,0,2024-02-27T10:02:05.706Z,french_152.wav,0,poule,506,33,4,5,Français,m,1,0.1,56.28738818,1.74384484
5d726b8a0c3f0f0017cdfcf7,5,0,2024-02-27T10:02:05.706Z,french_152.wav,0,poule,506,33,4,5,Français,m,2,0.2,-25.33799013,1.40208126
5d726b8a0c3f0f0017cdfcf7,5,0,2024-02-27T10:02:05.706Z,french_152.wav,0,poule,506,33,4,5,Français,m,3,0.25666667,-10.23447911,0.94312755
5d726b8a0c3f0f0017cdfcf7,6,0,2024-02-27T10:02:05.706Z,french_596.wav,0,poule,723,33,4,5,Français,m,0,0.0,-19.67623174,1.19630482
5d726b8a0c3f0f0017cdfcf7,6,0,2024-02-27T10:02:05.706Z,french_596.wav,0,poule,723,33,4,5,Français,m,1,0.1,5.02630097,1.45796377
5d726b8a0c3f0f0017cdfcf7,6,0,2024-02-27T10:02:05.706Z,french_596.wav,0,poule,723,33,4,5,Français,m,2,0.2,17.71933024,1.33112957
5d726b8a0c3f0f0017cdfcf7,6,0,2024-02-27T10:02:05.706Z,french_596.wav,0,poule,723,33,4,5,Français,m,3,0.25666667,-99.90911374,0.42422988
5d726b8a0c3f0f0017cdfcf7,7,0,2024-02-27T10:02:05.706Z,french_686.wav,0,poule,1705,33,4,5,Français,m,0,0.0,20.49516986,1.86861476
5d726b8a0c3f0f0017cdfcf7,7,0,2024-02-27T10:02:05.706Z,french_686.wav,0,poule,1705,33,4,5,Français,m,1,0.1,27.4040505,1.87689714
5d726b8a0c3f0f0017cdfcf7,7,0,2024-02-27T10:02:05.706Z,french_686.wav,0,poule,1705,33,4,5,Français,m,2,0.2,31.96095965,0.80940067
5d726b8a0c3f0f0017cdfcf7,7,0,2024-02-27T10:02:05.706Z,french_686.wav,0,poule,1705,33,4,5,Français,m,3,0.25666667,61.08066052,0.04075967
5d726b8a0c3f0f0017cdfcf7,8,0,2024-02-27T10:02:05.706Z,french_67.wav,0,poule,455,33,4,5,Français,m,0,0.0,-85.58948589,0.63200809
5d726b8a0c3f0f0017cdfcf7,8,0,2024-02-27T10:02:05.706Z,french_67.wav,0,poule,455,33,4,5,Français,m,1,0.1,13.09838054,1.95867716
5d726b8a0c3f0f0017cdfcf7,8,0,2024-02-27T10:02:05.706Z,french_67.wav,0,poule,455,33,4,5,Français,m,2,0.2,-56.56906679,0.48937635
5d726b8a0c3f0f0017cdfcf7,8,0,2024-02-27T10:02:05.706Z,french_67.wav,0,poule,455,33,4,5,Français,m,3,0.25666667,57.4599261,1.24156625
5d726b8a0c3f0f0017cdfcf7,9,0,2024-02-27T10:02:05.706Z,french_473.wav,0,poule,3372,33,4,5,Français,m,0,0.0,-59.88543895,0.32878746
5d726b8a0c3f0f0017cdfcf7,9,0,2024-02-27T10:02:05.706Z,french_473.wav,0,poule,3372,33,4,5,Français,m,1,0.1,36.52277503,0.29204452
5d726b8a0c3f0f0017cdfcf7,9,0,2024-02-27T10:02:05.706Z,french_473.wav,0,poule,3372,33,4,5,Français,m,2,0.2,-76.47045714,0.65259503
5d726b8a0c3f0f0017cdfcf7,9,0,2024-02-27T10:02:05.706Z,french_473.wav,0,poule,3372,33,4,5,Français,m,3,0.25666667,-69.05057232,0.35645849
5d726b8a0c3f0f0017cdfcf7,10,0,2024-02-27T10:02:05.706Z,french_352.wav,0,poule,774,33,4,5,Français,m,0,0.0,74.68489003,0.29948735
5d726b8a0c3f0f0017cdfcf7,10,0,2024-02-27T10:02:05.706Z,french_352.wav,0,poule,774,33,4,5,Français,m,1,0.1,96.39949195,0.51724136
5d726b8a0c3f0f0017cdfcf7,10,0,2024-02-27T10:02:05.706Z,french_352.wav,0,poule,774,33,4,5,Français,m,2,0.2,90.64764472,1.48158799
5d726b8a0c3f0f0017cdfcf7,10,0,2024-02-27T10:02:05.706Z,french_352.wav,0,poule,774,33,4,5,Français,m,3,0.25666667,65.55341103,0.97952247
5d726b8a0c3f0f0017cdfcf7,11,0,2024-02-27T10:02:05.706Z,french_484.wav,0,poule,2319,33,4,5,Français,m,0,0.0,-9.6162674,0.19772274
5d726b8a0c3f0f0017cdfcf7,11,0,2024-02-27T10:02:05.706Z,french_484.wav,0,poule,2319,33,4,5,Français,m,1,0.1,9.27811619,0.11941549
5d726b8a0c3f0f0017cdfcf7,11,0,2024-02-27T10:02:05.706Z,french_484.wav,0,poule,2319,33,4,5,Français,m,2,0.2,-71.03065972,1.54802806
5d726b8a0c3f0f0017cdfcf7,11,0,2024-02-27T10:02:05.706Z,french_484.wav,0,poule,2319,33,4,5,Français,m,3,0.25666667,-29.12959292,1.03524562
5d726b8a0c3f0f0017cdfcf7,12,0,2024-02-27T10:02:05.706Z,french_505.wav,0,poule,519,33,4,5,Français,m,0,0.0,-38.72168331,1.89725183
5d726b8a0c3f0f0017cdfcf7,12,0,2024-02-27T10:02:05.706Z,french_505.wav,0,poule,519,33,4,5,Français,m,1,0.1,-12.49542568,0.88243769
5d726b8a0c3f0f0017cdfcf7,12,0,2024-02-27T10:02:05.706Z,french_505.wav,0,poule,519,33,4,5,Français,m,2,0.2,71.90880982,1.24748728
5d726b8a0c3f0f0017cdfcf7,12,0,2024-02-27T10:02:05.706Z,french_505.wav,0,poule,519,33,4,5,Français,m,3,0.25666667,-94.40337553,0.62032879
5d726b8a0c3f0f0017cdfcf7,13,0,2024-02-27T10:02:05.706Z,french_375.wav,0,poule,547,33,4,5,Français,m,0,0.0,25.91972282,0.89929791
5d726b8a0c3f0f0017cdfcf7,13,0,2024-02-27T10:02:05.706Z,french_375.wav,0,poule,547,33,4,5,Français,m,1,0.1,-60.98407933,0.6101435
5d726b8a0c3f0f0017cdfcf7,13,0,2024-02-27T10:02:05.706Z,french_375.wav,0,poule,547,33,4,5,Français,m,2,0.2,-55.02276561,1.65353502
5d726b8a0c3f0f0017cdfcf7,13,0,2024-02-27T10:02:05.706Z,french_375.wav,0,poule,547,33,4,5,Français,m,3,0.25666667,50.70039074,0.66964756
5d726b8a0c3f0f0017cdfcf7,14,0,2024-02-27T10:02:05.706Z,french_341.wav,0,pull,856,33,4,5,Français,m,0,0.0,20.04332725,1.4438644
5d726b8a0c3f0f0017cdfcf7,14,0,2024-02-27T10:02:05.706Z,french_341.wav,0,pull,856,33,4,5,Français,m,1,0.1,-82.29685822,0.08336385
5d726b8a0c3f0f0017cdfcf7,14,0,2024-02-27T10:02:05.706Z,french_341.wav,0,pull,856,33,4,5,Français,m,2,0.2,-35.12302466,0.04329086
5d726b8a0c3f0f0017cdfcf7,14,0,2024-02-27T10:02:05.706Z,french_341.wav,0,pull,856,33,4,5,Français,m,3,0.25666667,58.90486556,0.76896482
5d726b8a0c3f0f0017cdfcf7,15,0,2024-02-27T10:02:05.706Z,french_904.wav,0,poule,425,33,4,5,Français,m,0,0.0,-3.33486868,1.84649441
5d726b8a0c3f0f0017cdfcf7,15,0,2024-02-27T10:02:05.706Z,french_904.wav,0,poule,425,33,4,5,Français,m,1,0.1,-72.00110742,1.91186975
5d726b8a0c3f0f0017cdfcf7,15,0,2024-02-27T10:02:05.706Z,french_904.wav,0,poule,425,33,4,5,Français,m,2,0.2,32.54458222,0.71589927
5d726b8a0c3f0f0017cdfcf7,15,0,2024-02-27T10:02:05.706Z,french_904.wav,0,poule,425,33,4,5,Français,m,3,0.25666667,13.13318907,0.21658524
5d726b8a0c3f0f0017cdfcf7,16,0,2024-02-27T10:02:05.706Z,french_847.wav,0,poule,666,33,4,5,Français,m,0,0.0,-8.33122073,1.64160395
5d726b8a0c3f0f0017cdfcf7,16,0,2024-02-27T10:02:05.706Z,french_847.wav,0,poule,666,33,4,5,Français,m,1,0.1,28.51239659,0.11991739
5d726b8a0c3f0f0017cdfcf7,16,0,2024-02-27T10:02:05.706Z,french_847.wav,0,poule,666,33,4,5,Français,m,2,0.2,-26.33136573,1.12824789
5d726b8a0c3f0f0017cdfcf7,16,0,2024-02-27T10:02:05.706Z,french_847.wav,0,poule,666,33,4,5,Français,m,3,0.25666667,21.45038454,0.68287375
5d726b8a0c3f0f0017cdfcf7,17,0,2024-02-27T10:02:05.706Z,french_5.wav,0,pull,516,33,4,5,Français,m,0,0.0,-2.8714843,1.07181682
5d726b8a0c3f0f0017cdfcf7,17,0,2024-02-27T10:02:05.706Z,french_5.wav,0,pull,516,33,4,5,Français,m,1,0.1,-50.9441672,0.56733338
5d726b8a0c3f0f0017cdfcf7,17,0,2024-02-27T10:02:05.706Z,french_5.wav,0,pull,516,33,4,5,Français,m,2,0.2,56.21180826,0.26773361
5d726b8a0c3f0f0017cdfcf7,17,0,2024-02-27T10:02:05.706Z,french_5.wav,0,pull,516,33,4,5,Français,m,3,0.25666667,-57.18619957,1.97613039
5d726b8a0c3f0f0017cdfcf7,18,0,2024-02-27T10:02:05.706Z,french_230.wav,0,poule,1782,33,4,5,Français,m,0,0.0,-41.35992563,1.74508263
5d726b8a0c3f0f0017cdfcf7,18,0,2024-02-27T10:02:05.706Z,french_230.wav,0,poule,1782,33,4,5,Français,m,1,0.1,43.67449439,0.13993269
5d726b8a0c3f0f0017cdfcf7,18,0,2024-02-27T10:02:05.706Z,french_230.wav,0,poule,1782,33,4,5,Français,m,2,0.2,25.98311508,0.94473259
5d726b8a0c3f0f0017cdfcf7,18,0,2024-02-27T10:02:05.706Z,french_230.wav,0,poule,1782,33,4,5,Français,m,3,0.25666667,-21.63443629,1.52757814
5d726b8a0c3f0f0017cdfcf7,19,0,2024-02-27T10:02:05.706Z,french_487.wav,0,poule,4994,33,4,5,Français,m,0,0.0,26.50580686,1.63350644
5d726b8a0c3f0f0017cdfcf7,19,0,2024-02-27T10:02:05.706Z,french_487.wav,0,poule,4994,33,4,5,Français,m,1,0.1,-34.14449754,1.29368608
5d726b8a0c3f0f0017cdfcf7,19,0,2024-02-27T10:02:05.706Z,french_487.wav,0,poule,4994,33,4,5,Français,m,2,0.2,66.18137857,0.20656395
5d726b8a0c3f0f0017cdfcf7,19,0,2024-02-27T10:02:05.706Z,french_487.wav,0,poule,4994,33,4,5,Français,m,3,0.25666667,-7.03677771,1.93991824
5d726b8a0c3f0f0017cdfcf7,20,0,2024-02-27T10:02:05.706Z,french_518.wav,0,pull,1722,33,4,5,Français,m,0,0.0,30.08897808,1.28002377
5d726b8a0c3f0f0017cdfcf7,20,0,2024-02-27T10:02:05.706Z,french_518.wav,0,pull,1722,33,4,5,Français,m,1,0.1,-42.00678694,0.31881796
5d726b8a0c3f0f0017cdfcf7,20,0,2024-02-27T10:02:05.706Z,french_518.wav,0,pull,1722,33,4,5,Français,m,2,0.2,47.99304417,0.271149
5d726b8a0c3f0f0017cdfcf7,20,0,2024-02-27T10:02:05.706Z,french_518.wav,0,pull,1722,33,4,5,Français,m,3,0.25666667,-21.59585354,1.06182133
5d726b8a0c3f0f0017cdfcf7,21,0,2024-02-27T10:02:05.706Z,french_36.wav,0,poule,2059,33,4,5,Français,m,0,0.0,97.14143801,0.84704198
5d726b8a0c3f0f0017cdfcf7,21,0,2024-02-27T10:02:05.706Z,french_36.wav,0,poule,2059,33,4,5,Français,m,1,0.1,96.24936774,1.47086473
5d726b8a0c3f0f0017cdfcf7,21,0,2024-02-27T10:02:05.706Z,french_36.wav,0,poule,2059,33,4,5,Français,m,2,0.2,69.49703902,1.29858496
5d726b8a0c3f0f0017cdfcf7,21,0,2024-02-27T10:02:05.706Z,french_36.wav,0,poule,2059,33,4,5,Français,m,3,0.25666667,-77.37121036,1.24445776
5d726b8a0c3f0f0017cdfcf7,22,0,2024-02-27T10:02:05.706Z,french_248.wav,0,pull,834,33,4,5,Français,m,0,0.0,-72.14952141,0.31572296
5d726b8a0c3f0f0017cdfcf7,22,0,2024-02-27T10:02:05.706Z,french_248.wav,0,pull,834,33,4,5,Français,m,1,0.1,-0.62089361,0.98183681
5d726b8a0c3f0f0017cdfcf7,22,0,2024-02-27T10:02:05.706Z,french_248.wav,0,pull,834,33,4,5,Français,m,2,0.2,-1.54726874,1.57355183
5d726b8a0c3f0f0017cdfcf7,22,0,2024-02-27T10:02:05.706Z,french_248.wav,0,pull,834,33,4,5,Français,m,3,0.25666667,-50.42909266,0.39982355
5d726b8a0c3f0f0017cdfcf7,23,0,2024-02-27T10:02:05.706Z,french_683.wav,0,poule,614,33,4,5,Français,m,0,0.0,21.98154849,0.17421097
5d726b8a0c3f0f0017cdfcf7,23,0,2024-02-27T10:02:05.706Z,french_683.wav,0,poule,614,33,4,5,Français,m,1,0.1,59.44126587,0.03094343
5d726b8a0c3f0f0017cdfcf7,23,0,2024-02-27T10:02:05.706Z,french_683.wav,0,poule,614,33,4,5,Français,m,2,0.2,-51.05687534,0.79924543
5d726b8a0c3f0f0017cdfcf7,23,0,2024-02-27T10:02:05.706Z,french_683.wav,0,poule,614,33,4,5,Français,m,3,0.25666667,-9.70916743,0.82068176
5d726b8a0c3f0f0017cdfcf7,24,0,2024-02-27T10:02:05.706Z,french_545.wav,0,pull,897,33,4,5,Français,m,0,0.0,-11.63741059,1.28855558
5d726b8a0c3f0f0017cdfcf7,24,0,2024-02-27T10:02:05.706Z,french_545.wav,0,pull,897,33,4,5,Français,m,1,0.1,-9.34763636,0.4133233
5d726b8a0c3f0f0017cdfcf7,24,0,2024-02-27T10:02:05.706Z,french_545.wav,0,pull,897,33,4,5,Français,m,2,0.2,-52.50880558,1.98413737
5d726b8a0c3f0f0017cdfcf7,24,0,2024-02-27T10:02:05.706Z,french_545.wav,0,pull,897,33,4,5,Français,m,3,0.25666667,-35.41027588,0.10366118
5d726b8a0c3f0f0017cdfcf7,25,0,2024-02-27T10:02:05.706Z,french_559.wav,0,pull,961,33,4,5,Français,m,0,0.0,64.66028359,0.94999591
5d726b8a0c3f0f0017cdfcf7,25,0,2024-02-27T10:02:05.706Z,french_559.wav,0,pull,961,33,4,5,Français,m,1,0.1,-43.2680873,1.38482691
5d726b8a0c3f0f0017cdfcf7,25,0,2024-02-27T10:02:05.706Z,french_559.wav,0,pull,961,33,4,5,Français,m,2,0.2,-64.36892284,1.27938883
5d726b8a0c3f0f0017cdfcf7,25,0,2024-02-27T10:02:05.706Z,french_559.wav,0,pull,961,33,4,5,Français,m,3,0.25666667,44.10109235,0.16591499
5d726b8a0c3f0f0017cdfcf7,26,0,2024-02-27T10:02:05.706Z,french_677.wav,0,poule,1089,33,4,5,Français,m,0,0.0,-14.76179085,0.10277679
5d726b8a0c3f0f0017cdfcf7,26,0,2024-02-27T10:02:05.706Z,french_677.wav,0,poule,1089,33,4,5,Français,m,1,0.1,-96.15101895,0.35083798
5d726b8a0c3f0f0017cdfcf7,26,0,2024-02-27T10:02:05.706Z,french_677.wav,0,poule,1089,33,4,5,Français,m,2,0.2,48.20621423,0.65953763
5d726b8a0c3f0f0017cdfcf7,26,0,2024-02-27T10:02:05.706Z,french_677.wav,0,poule,1089,33,4,5,Français,m,3,0.25666667,23.33985038,0.76581679
5d726b8a0c3f0f0017cdfcf7,27,0,2024-02-27T10:02:05.706Z,french_762.wav,0,pull,5627,33,4,5,Français,m,0,0.0,-45.61990315,0.95776955
5d726b8a0c3f0f0017cdfcf7,27,0,2024-02-27T10:02:05.706Z,french_762.wav,0,pull,5627,33,4,5,Français,m,1,0.1,-38.16727298,0.16992331
5d726b8a0c3f0f0017cdfcf7,27,0,2024-02-27T10:02:05.706Z,french_762.wav,0,pull,5627,33,4,5,Français,m,2,0.2,-15.44626984,1.21301125
5d726b8a0c3f0f0017cdfcf7,27,0,2024-02-27T10:02:05.706Z,french_762.wav,0,pull,5627,33,4,5,Français,m,3,0.25666667,-31.31206952,0.49399223
5d726b8a0c3f0f0017cdfcf7,28,0,2024-02-27T10:02:05.706Z,french_735.wav,0,pull,872,33,4,5,Français,m,0,0.0,16.11120967,0.14330821
5d726b8a0c3f0f0017cdfcf7,28,0,2024-02-27T10:02:05.706Z,french_735.wav,0,pull,872,33,4,5,Français,m,1,0.1,-19.98897555,0.00237292
5d726b8a0c3f0f0017cdfcf7,28,0,2024-02-27T10:02:05.706Z,french_735.wav,0,pull,872,33,4,5,Français,m,2,0.2,68.29513728,1.1733856
5d726b8a0c3f0f0017cdfcf7,28,0,2024-02-27T10:02:05.706Z,french_735.wav,0,pull,872,33,4,5,Français,m,3,0.25666667,31.40150104,0.51599842
5d726b8a0c3f0f0017cdfcf7,29,0,2024-02-27T10:02:05.706Z,french_327.wav,0,pull,1349,33,4,5,Français,m,0,0.0,75.01862194,1.26930687
5d726b8a0c3f0f0017cdfcf7,29,0,2024-02-27T10:02:05.706Z,french_327.wav,0,pull,1349,33,4,5,Français,m,1,0.1,-83.8502905,1.47688931
5d726b8a0c3f0f0017cdfcf7,29,0,2024-02-27T10:02:05.706Z,french_327.wav,0,pull,1349,33,4,5,Français,m,2,0.2,63.63621512,1.339502
5d726b8a0c3f0f0017cdfcf7,29,0,2024-02-27T10:02:05.706Z,french_327.wav,0,pull,1349,33,4,5,Français,m,3,0.25666667,-22.5018405,0.76786237
5d726b8a0c3f0f0017cdfcf7,30,0,2024-02-27T10:02:05.706Z,french_795.wav,0,poule,1250,33,4,5,Français,m,0,0.0,33.06955163,0.26323542
5d726b8a0c3f0f0017cdfcf7,30,0,2024-02-27T10:02:05.706Z,french_795.wav,0,poule,1250,33,4,5,Français,m,1,0.1,99.3644883,0.35684642
5d726b8a0c3f0f0017cdfcf7,30,0,2024-02-27T10:02:05.706Z,french_795.wav,0,poule,1250,33,4,5,Français,m,2,0.2,-80.69510174,0.7045199
5d726b8a0c3f0f0017cdfcf7,30,0,2024-02-27T10:02:05.706Z,french_795.wav,0,poule,1250,33,4,5,Français,m,3,0.25666667,67.54375124,0.58342204
5d726b8a0c3f0f0017cdfcf7,31,0,2024-02-27T10:02:05.706Z,french_568.wav,0,pull,2654,33,4,5,Français,m,0,0.0,-18.10302265,1.34189827
5d726b8a0c3f0f0017cdfcf7,31,0,2024-02-27T10:02:05.706Z,french_568.wav,0,pull,2654,33,4,5,Français,m,1,0.1,9.93139794,1.47029794
5d726b8a0c3f0f0017cdfcf7,31,0,2024-02-27T10:02:05.706Z,french_568.wav,0,pull,2654,33,4,5,Français,m,2,0.2,91.46195775,0.17269775
5d726b8a0c3f0f0017cdfcf7,31,0,2024-02-27T10:02:05.706Z,french_568.wav,0,pull,2654,33,4,5,Français,m,3,0.25666667,56.10040773,1.22679594
5d726b8a0c3f0f0017cdfcf7,32,0,2024-02-27T10:02:05.706Z,french_251.wav,0,poule,4346,33,4,5,Français,m,0,0.0,24.13853868,0.84222584
5d726b8a0c3f0f0017cdfcf7,32,0,2024-02-27T10:02:05.706Z,french_251.wav,0,poule,4346,33,4,5,Français,m,1,0.1,69.59392202,0.35569373
5d726b8a0c3f0f0017cdfcf7,32,0,2024-02-27T10:02:05.706Z,french_251.wav,0,poule,4346,33,4,5,Français,m,2,0.2,5.2598313,1.18426262
5d726b8a0c3f0f0017cdfcf7,32,0,2024-02-27T10:02:05.706Z,french_251.wav,0,poule,4346,33,4,5,Français,m,3,0.25666667,49.58604743,1.47594706
5d726b8a0c3f0f0017cdfcf7,33,0,2024-02-27T10:02:05.706Z,french_816.wav,0,poule,1230,33,4,5,Français,m,0,0.0,-39.39804621,1.26291691
5d726b8a0c3f0f0017cdfcf7,33,0,2024-02-27T10:02:05.706Z,french_816.wav,0,poule,1230,33,4,5,Français,m,1,0.1,14.23792488,1.60181117
5d726b8a0c3f0f0017cdfcf7,33,0,2024-02-27T10:02:05.706Z,french_816.wav,0,poule,1230,33,4,5,Français,m,2,0.2,-84.08825282,0.57012939
5d726b8a0c3f0f0017cdfcf7,33,0,2024-02-27T10:02:05.706Z,french_816.wav,0,poule,1230,33,4,5,Français,m,3,0.25666667,-46.46940665,1.06315664
5d726b8a0c3f0f0017cdfcf7,34,0,2024-02-27T10:02:05.706Z,french_661.wav,0,poule,789,33,4,5,Français,m,0,0.0,34.1047988,1.29957539
5d726b8a0c3f0f0017cdfcf7,34,0,2024-02-27T10:02:05.706Z,french_661.wav,0,poule,789,33,4,5,Français,m,1,0.1,-45.42737183,0.81809843
5d726b8a0c3f0f0017cdfcf7,34,0,2024-02-27T10:02:05.706Z,french_661.wav,0,poule,789,33,4,5,Français,m,2,0.2,-32.96226792,1.39938296
5d726b8a0c3f0f0017cdfcf7,34,0,2024-02-27T10:02:05.706Z,french_661.wav,0,poule,789,33,4,5,Français,m,3,0.25666667,51.87575508,1.33634107
5d726b8a0c3f0f0017cdfcf7,35,0,2024-02-27T10:02:05.706Z,french_594.wav,0,poule,1914,33,4,5,Français,m,0,0.0,-77.17245549,1.803544
5d726b8a0c3f0f0017cdfcf7,35,0,2024-02-27T10:02:05.706Z,french_594.wav,0,poule,1914,33,4,5,Français,m,1,0.1,-9.42910309,1.0387293
5d726b8a0c3f0f0017cdfcf7,35,0,2024-02-27T10:02:05.706Z,french_594.wav,0,poule,1914,33,4,5,Français,m,2,0.2,28.840902,1.64762654
5d726b8a0c3f0f0017cdfcf7,35,0,2024-02-27T10:02:05.706Z,french_594.wav,0,poule,1914,33,4,5,Français,m,3,0.25666667,-27.68960177,0.23150428
5d726b8a0c3f0f0017cdfcf7,36,0,2024-02-27T10:02:05.706Z,french_926.wav,0,poule,3635,33,4,5,Français,m,0,0.0,-38.30420493,1.0266732
5d726b8a0c3f0f0017cdfcf7,36,0,2024-02-27T10:02:05.706Z,french_926.wav,0,poule,3635,33,4,5,Français,m,1,0.1,-97.26803886,0.03873156
5d726b8a0c3f0f0017cdfcf7,36,0,2024-02-27T10:02:05.706Z,french_926.wav,0,poule,3635,33,4,5,Français,m,2,0.2,55.3544282,0.32593073
5d726b8a0c3f0f0017cdfcf7,36,0,2024-02-27T10:02:05.706Z,french_926.wav,0,poule,3635,33,4,5,Français,m,3,0.25666667,8.78644418,0.80695306
5d726b8a0c3f0f0017cdfcf7,37,0,2024-02-27T10:02:05.706Z,french_547.wav,0,pull,1569,33,4,5,Français,m,0,0.0,-72.35697933,0.54090293
5d726b8a0c3f0f0017cdfcf7,37,0,2024-02-27T10:02:05.706Z,french_547.wav,0,pull,1569,33,4,5,Français,m,1,0.1,-74.8664908,1.21231176
5d726b8a0c3f0f0017cdfcf7,37,0,2024-02-27T10:02:05.706Z,french_547.wav,0,pull,1569,33,4,5,Français,m,2,0.2,67.97778582,1.67585204
5d726b8a0c3f0f0017cdfcf7,37,0,2024-02-27T10:02:05.706Z,french_547.wav,0,pull,1569,33,4,5,Français,m,3,0.25666667,23.13057238,0.28113426
5d726b8a0c3f0f0017cdfcf7,38,0,2024-02-27T10:02:05.706Z,french_382.wav,0,pull,4831,33,4,5,Français,m,0,0.0,-28.76508335,1.75225743
5d726b8a0c3f0f0017cdfcf7,38,0,2024-02-27T10:02:05.706Z,french_382.wav,0,pull,4831,33,4,5,Français,m,1,0.1,37.36249056,1.09069334
5d726b8a0c3f0f0017cdfcf7,38,0,2024-02-27T10:02:05.706Z,french_382.wav,0,pull,4831,33,4,5,Français,m,2,0.2,12.02014155,1.36067751
5d726b8a0c3f0f0017cdfcf7,38,0,2024-02-27T10:02:05.706Z,french_382.wav,0,pull,4831,33,4,5,Français,m,3,0.25666667,-78.65251684,0.9131152
5d726b8a0c3f0f0017cdfcf7,39,0,2024-02-27T10:02:05.706Z,french_807.wav,0,pull,706,33,4,5,Français,m,0,0.0,41.22965042,0.26309645
5d726b8a0c3f0f0017cdfcf7,39,0,2024-02-27T10:02:05.706Z,french_807.wav,0,pull,706,33,4,5,Français,m,1,0.1,55.45523643,0.30227962
5d726b8a0c3f0f0017cdfcf7,39,0,2024-02-27T10:02:05.706Z,french_807.wav,0,pull,706,33,4,5,Français,m,2,0.2,-56.08981041,0.58983644
5d726b8a0c3f0f0017cdfcf7,39,0,2024-02-27T10:02:05.706Z,french_807.wav,0,pull,706,33,4,5,Français,m,3,0.25666667,27.67304414,1.26996728
5d726b8a0c3f0f0017cdfcf7,40,0,2024-02-27T10:02:05.706Z,french_307.wav,0,poule,768,33,4,5,Français,m,0,0.0,1.2534749,1.28672407
5d726b8a0c3f0f0017cdfcf7,40,0,2024-02-27T10:02:05.706Z,french_307.wav,0,poule,768,33,4,5,Français,m,1,0.1,79.3326992,0.47718292
5d726b8a0c3f0f0017cdfcf7,40,0,2024-02-27T10:02:05.706Z,french_307.wav,0,poule,768,33,4,5,Français,m,2,0.2,24.93038066,1.37451018
5d726b8a0c3f0f0017cdfcf7,40,0,2024-02-27T10:02:05.706Z,french_307.wav,0,poule,768,33,4,5,Français,m,3,0.25666667,-37.26133342,1.21026525
5d726b8a0c3f0f0017cdfcf7,41,0,2024-02-27T10:02:05.706Z,french_700.wav,0,pull,1849,33,4,5,Français,m,0,0.0,27.78595998,1.84943535
5d726b8a0c3f0f0017cdfcf7,41,0,2024-02-27T10:02:05.706Z,french_700.wav,0,pull,1849,33,4,5,Français,m,1,0.1,-29.96160528,0.52483958
5d726b8a0c3f0f0017cdfcf7,41,0,2024-02-27T10:02:05.706Z,french_700.wav,0,pull,1849,33,4,5,Français,m,2,0.2,60.6733782,0.55672926
5d726b8a0c3f0f0017cdfcf7,41,0,2024-02-27T10:02:05.706Z,french_700.wav,0,pull,1849,33,4,5,Français,m,3,0.25666667,39.12324738,0.96842636
5d726b8a0c3f0f0017cdfcf7,42,0,2024-02-27T10:02:05.706Z,french_525.wav,0,poule,2555,33,4,5,Français,m,0,0.0,-55.71805546,1.48564319
5d726b8a0c3f0f0017cdfcf7,42,0,2024-02-27T10:02:05.706Z,french_525.wav,0,poule,2555,33,4,5,Français,m,1,0.1,69.57832018,0.7646222
5d726b8a0c3f0f0017cdfcf7,42,0,2024-02-27T10:02:05.706Z,french_525.wav,0,poule,2555,33,4,5,Français,m,2,0.2,-61.51619627,1.98360061
5d726b8a0c3f0f0017cdfcf7,42,0,2024-02-27T10:02:05.706Z,french_525.wav,0,poule,2555,33,4,5,Français,m,3,0.25666667,-40.26288332,1.91122687
5d726b8a0c3f0f0017cdfcf7,43,0,2024-02-27T10:02:05.706Z,french_761.wav,0,poule,2882,33,4,5,Français,m,0,0.0,-26.32638144,1.05429599
5d726b8a0c3f0f0017cdfcf7,43,0,2024-02-27T10:02:05.706Z,french_761.wav,0,poule,2882,33,4,5,Français,m,1,0.1,78.13411122,0.90631559
5d726b8a0c3f0f0017cdfcf7,43,0,2024-02-27T10:02:05.706Z,french_761.wav,0,poule,2882,33,4,5,Français,m,2,0.2,-6.36477673,1.36732306
5d726b8a0c3f0f0017cdfcf7,43,0,2024-02-27T10:02:05.706Z,french_761.wav,0,poule,2882,33,4,5,Français,m,3,0.25666667,-77.19672863,0.83755281
5d726b8a0c3f0f0017cdfcf7,44,0,2024-02-27T10:02:05.706Z,french_362.wav,0,poule,2604,33,4,5,Français,m,0,0.0,-5.18125688,1.66521149
5d726b8a0c3f0f0017cdfcf7,44,0,2024-02-27T10:02:05.706Z,french_362.wav,0,poule,2604,33,4,5,Français,m,1,0.1,-33.24228679,1.63330091
5d726b8a0c3f0f0017cdfcf7,44,0,2024-02-27T10:02:05.706Z,french_362.wav,0,poule,2604,33,4,5,Français,m,2,0.2,13.99395474,0.18995652
5d726b8a0c3f0f0017cdfcf7,44,0,2024-02-27T10:02:05.706Z,french_362.wav,0,poule,2604,33,4,5,Français,m,3,0.25666667,-44.70505318,0.66219279
5d726b8a0c3f0f0017cdfcf7,45,0,2024-02-27T10:02:05.706Z,french_640.wav,0,poule,3070,33,4,5,Français,m,0,0.0,-15.56807975,1.93294171
5d726b8a0c3f0f0017cdfcf7,45,0,2024-02-27T10:02:05.706Z,french_640.wav,0,poule,3070,33,4,5,Français,m,1,0.1,54.79262645,1.3982646
5d726b8a0c3f0f0017cdfcf7,45,0,2024-02-27T10:02:05.706Z,french_640.wav,0,poule,3070,33,4,5,Français,m,2,0.2,-80.20485071,1.35271381
5d726b8a0c3f0f0017cdfcf7,45,0,2024-02-27T10:02:05.706Z,french_640.wav,0,poule,3070,33,4,5,Français,m,3,0.25666667,-47.69326323,0.1240569
5d726b8a0c3f0f0017cdfcf7,46,0,2024-02-27T10:02:05.706Z,french_282.wav,0,poule,5405,33,4,5,Français,m,0,0.0,-97.43488085,0.55303377
5d726b8a0c3f0f0017cdfcf7,46,0,2024-02-27T10:02:05.706Z,french_282.wav,0,poule,5405,33,4,5,Français,m,1,0.1,96.20897113,1.41145651
5d726b8a0c3f0f0017cdfcf7,46,0,2024-02-27T10:02:05.706Z,french_282.wav,0,poule,5405,33,4,5,Français,m,2,0.2,27.16020646,1.83661618
5d726b8a0c3f0f0017cdfcf7,46,0,2024-02-27T10:02:05.706Z,french_282.wav,0,poule,5405,33,4,5,Français,m,3,0.25666667,-13.14092169,0.36912502
5d726b8a0c3f0f0017cdfcf7,47,0,2024-02-27T10:02:05.706Z,french_4.wav,0,poule,5460,33,4,5,Français,m,0,0.0,98.95945082,0.64471479
5d726b8a0c3f0f0017cdfcf7,47,0,2024-02-27T10:02:05.706Z,french_4.wav,0,poule,5460,33,4,5,Français,m,1,0.1,-3.3646243,0.78588128
5d726b8a0c3f0f0017cdfcf7,47,0,2024-02-27T10:02:05.706Z,french_4.wav,0,poule,5460,33,4,5,Français,m,2,0.2,-24.17143146,0.06764648
5d726b8a0c3f0f0017cdfcf7,47,0,2024-02-27T10:02:05.706Z,french_4.wav,0,poule,5460,33,4,5,Français,m,3,0.25666667,88.72564355,1.26067449
5d726b8a0c3f0f0017cdfcf7,48,0,2024-02-27T10:02:05.706Z,french_429.wav,0,poule,1438,33,4,5,Français,m,0,0.0,-86.61428582,0.48550144
5d726b8a0c3f0f0017cdfcf7,48,0,2024-02-27T10:02:05.706Z,french_429.wav,0,poule,1438,33,4,5,Français,m,1,0.1,-42.15720505,1.43221201
5d726b8a0c3f0f0017cdfcf7,48,0,2024-02-27T10:02:05.706Z,french_429.wav,0,poule,1438,33,4,5,Français,m,2,0.2,57.81850322,1.77393014
5d726b8a0c3f0f0017cdfcf7,48,0,2024-02-27T10:02:05.706Z,french_429.wav,0,poule,1438,33,4,5,Français,m,3,0.25666667,56.8864302,0.85506946
5d726b8a0c3f0f0017cdfcf7,49,0,2024-02-27T10:02:05.706Z,french_317.wav,0,poule,536,33,4,5,Français,m,0,0.0,16.10159391,1.00024107
5d726b8a0c3f0f0017cdfcf7,49,0,2024-02-27T10:02:05.706Z,french_317.wav,0,poule,536,33,4,5,Français,m,1,0.1,-3.4784276,1.04292902
5d726b8a0c3f0f0017cdfcf7,49,0,2024-02-27T10:02:05.706Z,french_317.wav,0,poule,536,33,4,5,Français,m,2,0.2,-59.35796464,1.9831422
5d726b8a0c3f0f0017cdfcf7,49,0,2024-02-27T10:02:05.706Z,french_317.wav,0,poule,536,33,4,5,Français,m,3,0.25666667,-1.67752252,0.01532069
5d726b8a0c3f0f0017cdfcf7,50,1,2024-02-27T10:05:08.801Z,french_673.wav,0,poule,4719,33,4,5,Français,m,0,0.0,97.1433432,1.2603
5d726b8a0c3f0f0017cdfcf7,50,1,2024-02-27T10:05:08.801Z,french_673.wav,0,poule,4719,33,4,5,Français,m,1,0.1,1.59516127,0.42137615
5d726b8a0c3f0f0017cdfcf7,50,1,2024-02-27T10:05:08.801Z,french_673.wav,0,poule,4719,33,4,5,Français,m,2,0.2,27.02161491,0.87652171
5d726b8a0c3f0f0017cdfcf7,50,1,2024-02-27T10:05:08.801Z,french_673.wav,0,poule,4719,33,4,5,Français,m,3,0.25666667,62.92522021,1.1230089
5d726b8a0c3f0f0017cdfcf7,51,1,2024-02-27T10:05:08.801Z,french_953.wav,0,poule,1209,33,4,5,Français,m,0,0.0,-27.22394829,1.27693125
5d726b8a0c3f0f0017cdfcf7,51,1,2024-02-27T10:05:08.801Z,french_953.wav,0,poule,1209,33,4,5,Français,m,1,0.1,-3.36109764,0.12331262
5d726b8a0c3f0f0017cdfcf7,51,1,2024-02-27T10:05:08.801Z,french_953.wav,0,poule,1209,33,4,5,Français,m,2,0.2,79.96390299,1.48485403
5d726b8a0c3f0f0017cdfcf7,51,1,2024-02-27T10:05:08.801Z,french_953.wav,0,poule,1209,33,4,5,Français,m,3,0.25666667,-20.83871742,0.51230705
5d726b8a0c3f0f0017cdfcf7,52,1,2024-02-27T10:05:08.801Z,french_326.wav,0,poule,3500,33,4,5,Français,m,0,0.0,-63.35446608,1.54071776
5d726b8a0c3f0f0017cdfcf7,52,1,2024-02-27T10:05:08.801Z,french_326.wav,0,poule,3500,33,4,5,Français,m,1,0.1,12.54179258,0.67448432
5d726b8a0c3f0f0017cdfcf7,52,1,2024-02-27T10:05:08.801Z,french_326.wav,0,poule,3500,33,4,5,Français,m,2,0.2,2.59324468,0.56210636
5d726b8a0c3f0f0017cdfcf7,52,1,2024-02-27T10:05:08.801Z,french_326.wav,0,poule,3500,33,4,5,Français,m,3,0.25666667,34.92537359,1.5196438
5d726b8a0c3f0f0017cdfcf7,53,1,2024-02-27T10:05:08.801Z,french_919.wav,0,poule,617,33,4,5,Français,m,0,0.0,-50.18617417,1.92623259
5d726b8a0c3f0f0017cdfcf7,53,1,2024-02-27T10:05:08.801Z,french_919.wav,0,poule,617,33,4,5,Français,m,1,0.1,-24.76321709,1.20800331
5d726b8a0c3f0f0017cdfcf7,53,1,2024-02-27T10:05:08.801Z,french_919.wav,0,poule,617,33,4,5,Français,m,2,0.2,-27.90521194,0.01078602
5d726b8a0c3f0f0017cdfcf7,53,1,2024-02-27T10:05:08.801Z,french_919.wav,0,poule,617,33,4,5,Français,m,3,0.25666667,55.47311868,0.27796628
5d726b8a0c3f0f0017cdfcf7,54,1,2024-02-27T10:05:08.801Z,french_301.wav,0,poule,405,33,4,5,Français,m,0,0.0,69.85248337,0.52307933
5d726b8a0c3f0f0017cdfcf7,54,1,2024-02-27T10:05:08.801Z,french_301.wav,0,poule,405,33,4,5,Français,m,1,0.1,-5.79297453,1.24080119
5d726b8a0c3f0f0017cdfcf7,54,1,2024-02-27T10:05:08.801Z,french_301.wav,0,poule,405,33,4,5,Français,m,2,0.2,45.5401504,0.43993349
5d726b8a0c3f0f0017cdfcf7,54,1,2024-02-27T10:05:08.801Z,french_301.wav,0,poule,405,33,4,5,Français,m,3,0.25666667,54.55962649,1.3035803
5d726b8a0c3f0f0017cdfcf7,55,1,2024-02-27T10:05:08.801Z,french_836.wav,0,poule,558,33,4,5,Français,m,0,0.0,40.23641464,0.42377088
5d726b8a0c3f0f0017cdfcf7,55,1,2024-02-27T10:05:08.801Z,french_836.wav,0,poule,558,33,4,5,Français,m,1,0.1,53.79535187,0.63943013
5d726b8a0c3f0f0017cdfcf7,55,1,2024-02-27T10:05:08.801Z,french_836.wav,0,poule,558,33,4,5,Français,m,2,0.2,-4.0789246,1.19242466
5d726b8a0c3f0f0017cdfcf7,55,1,2024-02-27T10:05:08.801Z,french_836.wav,0,poule,558,33,4,5,Français,m,3,0.25666667,3.8536211,1.488673
5d726b8a0c3f0f0017cdfcf7,56,1,2024-02-27T10:05:08.801Z,french_7.wav,0,poule,1823,33,4,5,Français,m,0,0.0,-71.02833311,1.79953402
5d726b8a0c3f0f0017cdfcf7,56,1,2024-02-27T10:05:08.801Z,french_7.wav,0,poule,1823,33,4,5,Français,m,1,0.1,-12.38691322,1.89065694
5d726b8a0c3f0f0017cdfcf7,56,1,2024-02-27T10:05:08.801Z,french_7.wav,0,poule,1823,33,4,5,Français,m,2,0.2,-62.8930846,0.59849277
5d726b8a0c3f0f0017cdfcf7,56,1,2024-02-27T10:05:08.801Z,french_7.wav,0,poule,1823,33,4,5,Français,m,3,0.25666667,27.53159518,0.94237915
5d726b8a0c3f0f0017cdfcf7,57,1,2024-02-27T10:05:08.801Z,french_163.wav,0,poule,632,33,4,5,Français,m,0,0.0,95.00435891,1.26837246
5d726b8a0c3f0f0017cdfcf7,57,1,2024-02-27T10:05:08.801Z,french_163.wav,0,poule,632,33,4,5,Français,m,1,0.1,41.67922454,0.25754486
5d726b8a0c3f0f0017cdfcf7,57,1,2024-02-27T10:05:08.801Z,french_163.wav,0,poule,632,33,4,5,Français,m,2,0.2,-79.43338234,1.96804031
5d726b8a0c3f0f0017cdfcf7,57,1,2024-02-27T10:05:08.801Z,french_163.wav,0,poule,632,33,4,5,Français,m,3,0.25666667,-47.45672342,0.46721947
5d726b8a0c3f0f0017cdfcf7,58,1,2024-02-27T10:05:08.801Z,french_635.wav,0,poule,925,33,4,5,Français,m,0,0.0,33.90344979,1.89496442
5d726b8a0c3f0f0017cdfcf7,58,1,2024-02-27T10:05:08.801Z,french_635.wav,0,poule,925,33,4,5,Français,m,1,0.1,-75.47627702,0.79794333
5d726b8a0c3f0f0017cdfcf7,58,1,2024-02-27T10:05:08.801Z,french_635.wav,0,poule,925,33,4,5,Français,m,2,0.2,49.7914685,1.70645199
5d726b8a0c3f0f0017cdfcf7,58,1,2024-02-27T10:05:08.801Z,french_635.wav,0,poule,925,33,4,5,Français,m,3,0.25666667,43.41419086,1.41022612
5d726b8a0c3f0f0017cdfcf7,59,1,2024-02-27T10:05:08.801Z,french_496.wav,0,poule,1873,33,4,5,Français,m,0,0.0,95.35910422,1.71732874
5d726b8a0c3f0f0017cdfcf7,59,1,2024-02-27T10:05:08.801Z,french_496.wav,0,poule,1873,33,4,5,Français,m,1,0.1,-6.65722592,0.79073406
5d726b8a0c3f0f0017cdfcf7,59,1,2024-02-27T10:05:08.801Z,french_496.wav,0,poule,1873,33,4,5,Français,m,2,0.2,-0.21871516,0.34583293
5d726b8a0c3f0f0017cdfcf7,59,1,2024-02-27T10:05:08.801Z,french_496.wav,0,poule,1873,33,4,5,Français,m,3,0.25666667,-55.34055424,0.39020762
5d726b8a0c3f0f0017cdfcf7,60,1,2024-02-27T10:05:08.801Z,french_141.wav,0,poule,828,33,4,5,Français,m,0,0.0,88.60100695,0.97838459
5d726b8a0c3f0f0017cdfcf7,60,1,2024-02-27T10:05:08.801Z,french_141.wav,0,poule,828,33,4,5,Français,m,1,0.1,68.96819773,1.47503319
5d726b8a0c3f0f0017cdfcf7,60,1,2024-02-27T10:05:08.801Z,french_141.wav,0,poule,828,33,4,5,Français,m,2,0.2,1.7368606,1.40537453
5d726b8a0c3f0f0017cdfcf7,60,1,2024-02-27T10:05:08.801Z,french_141.wav,0,poule,828,33,4,5,Français,m,3,0.25666667,19.36556264,0.305772
5d726b8a0c3f0f0017cdfcf7,61,1,2024-02-27T10:05:08.801Z,french_176.wav,0,poule,2215,33,4,5,Français,m,0,0.0,0.09776701,1.90735666
5d726b8a0c3f0f0017cdfcf7,61,1,2024-02-27T10:05:08.801Z,french_176.wav,0,poule,2215,33,4,5,Français,m,1,0.1,32.80523404,1.52678684
5d726b8a0c3f0f0017cdfcf7,61,1,2024-02-27T10:05:08.801Z,french_176.wav,0,poule,2215,33,4,5,Français,m,2,0.2,16.78979069,1.98703072
5d726b8a0c3f0f0017cdfcf7,61,1,2024-02-27T10:05:08.801Z,french_176.wav,0,poule,2215,33,4,5,Français,m,3,0.25666667,-52.73391922,1.7200077
5d726b8a0c3f0f0017cdfcf7,62,1,2024-02-27T10:05:08.801Z,french_956.wav,0,poule,617,33,4,5,Français,m,0,0.0,-17.2568339,1.05718214
5d726b8a0c3f0f0017cdfcf7,62,1,2024-02-27T10:05:08.801Z,french_956.wav,0,poule,617,33,4,5,Français,m,1,0.1,60.67626876,1.43914937
5d726b8a0c3f0f0017cdfcf7,62,1,2024-02-27T10:05:08.801Z,french_956.wav,0,poule,617,33,4,5,Français,m,2,0.2,40.71216363,0.83140318
5d726b8a0c3f0f0017cdfcf7,62,1,2024-02-27T10:05:08.801Z,french_956.wav,0,poule,617,33,4,5,Français,m,3,0.25666667,16.50619481,0.14426626
5d726b8a0c3f0f0017cdfcf7,63,1,2024-02-27T10:05:08.801Z,french_422.wav,0,poule,2396,33,4,5,Français,m,0,0.0,84.96144948,0.57918651
5d726b8a0c3f0f0017cdfcf7,63,1,2024-02-27T10:05:08.801Z,french_422.wav,0,poule,2396,33,4,5,Français,m,1,0.1,-4.96569357,1.20973004
5d726b8a0c3f0f0017cdfcf7,63,1,2024-02-27T10:05:08.801Z,french_422.wav,0,poule,2396,33,4,5,Français,m,2,0.2,9.38898655,0.40935242
5d726b8a0c3f0f0017cdfcf7,63,1,2024-02-27T10:05:08.801Z,french_422.wav,0,poule,2396,33,4,5,Français,m,3,0.25666667,-4.34292742,0.41859168
5d726b8a0c3f0f0017cdfcf7,64,1,2024-02-27T10:05:08.801Z,french_969.wav,0,poule,370,33,4,5,Français,m,0,0.0,-10.47620341,0.56181474
5d726b8a0c3f0f0017cdfcf7,64,1,2024-02-27T10:05:08.801Z,french_969.wav,0,poule,370,33,4,5,Français,m,1,0.1,-9.05898311,1.62172025
5d726b8a0c3f0f0017cdfcf7,64,1,2024-02-27T10:05:08.801Z,french_969.wav,0,poule,370,33,4,5,Français,m,2,0.2,-40.12378042,1.31687422
5d726b8a0c3f0f0017cdfcf7,64,1,2024-02-27T10:05:08.801Z,french_969.wav,0,poule,370,33,4,5,Français,m,3,0.25666667,9.74664574,0.40962586
5d726b8a0c3f0f0017cdfcf7,65,1,2024-02-27T10:05:08.801Z,french_120.wav,0,pull,518,33,4,5,Français,m,0,0.0,59.29212404,1.04724114
5d726b8a0c3f0f0017cdfcf7,65,1,2024-02-27T10:05:08.801Z,french_120.wav,0,pull,518,33,4,5,Français,m,1,0.1,4.80411823,0.97380182
5d726b8a0c3f0f0017cdfcf7,65,1,2024-02-27T10:05:08.801Z,french_120.wav,0,pull,518,33,4,5,Français,m,2,0.2,12.26509955,0.22521264
5d726b8a0c3f0f0017cdfcf7,65,1,2024-02-27T10:05:08.801Z,french_120.wav,0,pull,518,33,4,5,Français,m,3,0.25666667,-79.44354783,0.8027629
5d726b8a0c3f0f0017cdfcf7,66,1,2024-02-27T10:05:08.801Z,french_425.wav,0,pull,621,33,4,5,Français,m,0,0.0,36.0896382,0.72680638
5d726b8a0c3f0f0017cdfcf7,66,1,2024-02-27T10:05:08.801Z,french_425.wav,0,pull,621,33,4,5,Français,m,1,0.1,-60.28824884,0.01839492
5d726b8a0c3f0f0017cdfcf7,66,1,2024-02-27T10:05:08.801Z,french_425.wav,0,pull,621,33,4,5,Français,m,2,0.2,-83.12671609,1.09901753
5d726b8a0c3f0f0017cdfcf7,66,1,2024-02-27T10:05:08.801Z,french_425.wav,0,pull,621,33,4,5,Français,m,3,0.25666667,32.66103116,1.13928828
5d726b8a0c3f0f0017cdfcf7,67,1,2024-02-27T10:05:08.801Z,french_29.wav,0,pull,562,33,4,5,Français,m,0,0.0,82.92052959,1.65542147
5d726b8a0c3f0f0017cdfcf7,67,1,2024-02-27T10:05:08.801Z,french_29.wav,0,pull,562,33,4,5,Français,m,1,0.1,96.5660735,0.71189304
5d726b8a0c3f0f0017cdfcf7,67,1,2024-02-27T10:05:08.801Z,french_29.wav,0,pull,562,33,4,5,Français,m,2,0.2,76.1539425,0.4523944
5d726b8a0c3f0f0017cdfcf7,67,1,2024-02-27T10:05:08.801Z,french_29.wav,0,pull,562,33,4,5,Français,m,3,0.25666667,-7.00195585,1.32757755
5d726b8a0c3f0f0017cdfcf7,68,1,2024-02-27T10:05:08.801Z,french_24.wav,0,pull,2041,33,4,5,Français,m,0,0.0,-90.56488298,1.23408284
5d726b8a0c3f0f0017cdfcf7,68,1,2024-02-27T10:05:08.801Z,french_24.wav,0,pull,2041,33,4,5,Français,m,1,0.1,-50.97686263,0.21485458
5d726b8a0c3f0f0017cdfcf7,68,1,2024-02-27T10:05:08.801Z,french_24.wav,0,pull,2041,33,4,5,Français,m,2,0.2,15.79918005,0.7737077
5d726b8a0c3f0f0017cdfcf7,68,1,2024-02-27T10:05:08.801Z,french_24.wav,0,pull,2041,33,4,5,Français,m,3,0.25666667,3.83977191,0.99994749
5d726b8a0c3f0f0017cdfcf7,69,1,2024-02-27T10:05:08.801Z,french_482.wav,0,poule,222,33,4,5,Français,m,0,0.0,30.59556471,1.3609553
5d726b8a0c3f0f0017cdfcf7,69,1,2024-02-27T10:05:08.801Z,french_482.wav,0,poule,222,33,4,5,Français,m,1,0.1,-28.15674373,1.03507415
5d726b8a0c3f0f0017cdfcf7,69,1,2024-02-27T10:05:08.801Z,french_482.wav,0,poule,222,33,4,5,Français,m,2,0.2,-30.08163346,1.60461159
5d726b8a0c3f0f0017cdfcf7,69,1,2024-02-27T10:05:08.801Z,french_482.wav,0,poule,222,33,4,5,Français,m,3,0.25666667,89.23902938,0.68082645
5d726b8a0c3f0f0017cdfcf7,70,1,2024-02-27T10:05:08.801Z,french_999.wav,0,poule,843,33,4,5,Français,m,0,0.0,47.65145935,0.42993564
5d726b8a0c3f0f0017cdfcf7,70,1,2024-02-27T10:05:08.801Z,french_999.wav,0,poule,843,33,4,5,Français,m,1,0.1,64.90222313,1.41824969
5d726b8a0c3f0f0017cdfcf7,70,1,2024-02-27T10:05:08.801Z,french_999.wav,0,poule,843,33,4,5,Français,m,2,0.2,79.66636989,1.25132817
5d726b8a0c3f0f0017cdfcf7,70,1,2024-02-27T10:05:08.801Z,french_999.wav,0,poule,843,33,4,5,Français,m,3,0.25666667,-10.95327426,1.10016678
5d726b8a0c3f0f0017cdfcf7,71,1,2024-02-27T10:05:08.801Z,french_393.wav,0,poule,436,33,4,5,Français,m,0,0.0,-4.17853165,1.11841435
5d726b8a0c3f0f0017cdfcf7,71,1,2024-02-27T10:05:08.801Z,french_393.wav,0,poule,436,33,4,5,Français,m,1,0.1,-52.7672758,1.14982518
5d726b8a0c3f0f0017cdfcf7,71,1,2024-02-27T10:05:08.801Z,french_393.wav,0,poule,436,33,4,5,Français,m,2,0.2,-35.65632354,1.99911749
5d726b8a0c3f0f0017cdfcf7,71,1,2024-02-27T10:05:08.801Z,french_393.wav,0,poule,436,33,4,5,Français,m,3,0.25666667,-38.23501308,0.07284053
5d726b8a0c3f0f0017cdfcf7,72,1,2024-02-27T10:05:08.801Z,french_610.wav,0,poule,1026,33,4,5,Français,m,0,0.0,41.67803598,0.10564039
5d726b8a0c3f0f0017cdfcf7,72,1,2024-02-27T10:05:08.801Z,french_610.wav,0,poule,1026,33,4,5,Français,m,1,0.1,50.6586837,1.22556883
5d726b8a0c3f0f0017cdfcf7,72,1,2024-02-27T10:05:08.801Z,french_610.wav,0,poule,1026,33,4,5,Français,m,2,0.2,-85.20353251,1.48633574
5d726b8a0c3f0f0017cdfcf7,72,1,2024-02-27T10:05:08.801Z,french_610.wav,0,poule,1026,33,4,5,Français,m,3,0.25666667,-12.88596769,1.12124299
5d726b8a0c3f0f0017cdfcf7,73,1,2024-02-27T10:05:08.801Z,french_648.wav,0,poule,674,33,4,5,Français,m,0,0.0,45.21338473,1.3610165
5d726b8a0c3f0f0017cdfcf7,73,1,2024-02-27T10:05:08.801Z,french_648.wav,0,poule,674,33,4,5,Français,m,1,0.1,35.84509453,0.40626065
5d726b8a0c3f0f0017cdfcf7,73,1,2024-02-27T10:05:08.801Z,french_648.wav,0,poule,674,33,4,5,Français,m,2,0.2,-67.01500747,0.74636895
5d726b8a0c3f0f0017cdfcf7,73,1,2024-02-27T10:05:08.801Z,french_648.wav,0,poule,674,33,4,5,Français,m,3,0.25666667,-57.94291625,1.66903202
5d726b8a0c3f0f0017cdfcf7,74,1,2024-02-27T10:05:08.801Z,french_367.wav,0,poule,440,33,4,5,Français,m,0,0.0,-74.25610099,1.28932343
5d726b8a0c3f0f0017cdfcf7,74,1,2024-02-27T10:05:08.801Z,french_367.wav,0,poule,440,33,4,5,Français,m,1,0.1,-44.66143863,1.13980767
5d726b8a0c3f0f0017cdfcf7,74,1,2024-02-27T10:05:08.801Z,french_367.wav,0,poule,440,33,4,5,Français,m,2,0.2,-39.26529042,1.487469
5d726b8a0c3f0f0017cdfcf7,74,1,2024-02-27T10:05:08.801Z,french_367.wav,0,poule,440,33,4,5,Français,m,3,0.25666667,-84.95145566,0.37349724
5d726b8a0c3f0f0017cdfcf7,75,1,2024-02-27T10:05:08.801Z,french_253.wav,0,poule,1142,33,4,5,Français,m,0,0.0,46.57034738,1.71066879
5d726b8a0c3f0f0017cdfcf7,75,1,2024-02-27T10:05:08.801Z,french_253.wav,0,poule,1142,33,4,5,Français,m,1,0.1,95.71705704,0.77231307
5d726b8a0c3f0f0017cdfcf7,75,1,2024-02-27T10:05:08.801Z,french_253.wav,0,poule,1142,33,4,5,Français,m,2,0.2,-25.2299753,0.81370988
5d726b8a0c3f0f0017cdfcf7,75,1,2024-02-27T10:05:08.801Z,french_253.wav,0,poule,1142,33,4,5,Français,m,3,0.25666667,-10.51050389,1.71668189
5d726b8a0c3f0f0017cdfcf7,76,1,2024-02-27T10:05:08.801Z,french_902.wav,0,poule,506,33,4,5,Français,m,0,0.0,27.03523978,0.1459181
5d726b8a0c3f0f0017cdfcf7,76,1,2024-02-27T10:05:08.801Z,french_902.wav,0,poule,506,33,4,5,Français,m,1,0.1,-67.54213764,1.3453624
5d726b8a0c3f0f0017cdfcf7,76,1,2024-02-27T10:05:08.801Z,french_902.wav,0,poule,506,33,4,5,Français,m,2,0.2,21.7683879,1.83277685
5d726b8a0c3f0f0017cdfcf7,76,1,2024-02-27T10:05:08.801Z,french_902.wav,0,poule,506,33,4,5,Français,m,3,0.25666667,-96.90742585,0.52631336
5d726b8a0c3f0f0017cdfcf7,77,1,2024-02-27T10:05:08.801Z,french_642.wav,0,pull,2801,33,4,5,Français,m,0,0.0,94.74505174,1.94145252
5d726b8a0c3f0f0017cdfcf7,77,1,2024-02-27T10:05:08.801Z,french_642.wav,0,pull,2801,33,4,5,Français,m,1,0.1,-41.90916732,1.43327494
5d726b8a0c3f0f0017cdfcf7,77,1,2024-02-27T10:05:08.801Z,french_642.wav,0,pull,2801,33,4,5,Français,m,2,0.2,-70.07976965,0.59817774
5d726b8a0c3f0f0017cdfcf7,77,1,2024-02-27T10:05:08.801Z,french_642.wav,0,pull,2801,33,4,5,Français,m,3,0.25666667,42.72168091,1.11755549
5d726b8a0c3f0f0017cdfcf7,78,1,2024-02-27T10:05:08.801Z,french_509.wav,0,poule,1810,33,4,5,Français,m,0,0.0,98.86127545,0.38470371
5d726b8a0c3f0f0017cdfcf7,78,1,2024-02-27T10:05:08.801Z,french_509.wav,0,poule,1810,33,4,5,Français,m,1,0.1,-58.47415861,0.77077576
5d726b8a0c3f0f0017cdfcf7,78,1,2024-02-27T10:05:08.801Z,french_509.wav,0,poule,1810,33,4,5,Français,m,2,0.2,23.95425933,1.30836253
5d726b8a0c3f0f0017cdfcf7,78,1,2024-02-27T10:05:08.801Z,french_509.wav,0,poule,1810,33,4,5,Français,m,3,0.25666667,74.34097669,1.2187589
5d726b8a0c3f0f0017cdfcf7,79,1,2024-02-27T10:05:08.801Z,french_645.wav,0,poule,4375,33,4,5,Français,m,0,0.0,39.28095882,1.44479402
5d726b8a0c3f0f0017cdfcf7,79,1,2024-02-27T10:05:08.801Z,french_645.wav,0,poule,4375,33,4,5,Français,m,1,0.1,36.97709506,1.97267477
5d726b8a0c3f0f0017cdfcf7,79,1,2024-02-27T10:05:08.801Z,french_645.wav,0,poule,4375,33,4,5,Français,m,2,0.2,-20.56368862,0.33303832
5d726b8a0c3f0f0017cdfcf7,79,1,2024-02-27T10:05:08.801Z,french_645.wav,0,poule,4375,33,4,5,Français,m,3,0.25666667,45.13755494,0.87530899
5d726b8a0c3f0f0017cdfcf7,80,1,2024-02-27T10:05:08.801Z,french_130.wav,0,poule,505,33,4,5,Français,m,0,0.0,-60.11706856,0.96947481
5d726b8a0c3f0f0017cdfcf7,80,1,2024-02-27T10:05:08.801Z,french_130.wav,0,poule,505,33,4,5,Français,m,1,0.1,-55.59065296,0.3967065
5d726b8a0c3f0f0017cdfcf7,80,1,2024-02-27T10:05:08.801Z,french_130.wav,0,poule,505,33,4,5,Français,m,2,0.2,42.64329023,1.87184893
5d726b8a0c3f0f0017cdfcf7,80,1,2024-02-27T10:05:08.801Z,french_130.wav,0,poule,505,33,4,5,Français,m,3,0.25666667,-50.60909081,1.6881176
5d726b8a0c3f0f0017cdfcf7,81,1,2024-02-27T10:05:08.801Z,french_350.wav,0,poule,732,33,4,5,Français,m,0,0.0,-94.89147327,1.34276454
5d726b8a0c3f0f0017cdfcf7,81,1,2024-02-27T10:05:08.801Z,french_350.wav,0,poule,732,33,4,5,Français,m,1,0.1,-69.96874844,1.56346818
5d726b8a0c3f0f0017cdfcf7,81,1,2024-02-27T10:05:08.801Z,french_350.wav,0,poule,732,33,4,5,Français,m,2,0.2,-41.05008416,0.76037532
5d726b8a0c3f0f0017cdfcf7,81,1,2024-02-27T10:05:08.801Z,french_350.wav,0,poule,732,33,4,5,Français,m,3,0.25666667,27.21030297,1.08356683
5d726b8a0c3f0f0017cdfcf7,82,1,2024-02-27T10:05:08.801Z,french_16.wav,0,poule,1232,33,4,5,Français,m,0,0.0,-0.6461067,1.33944457
5d726b8a0c3f0f0017cdfcf7,82,1,2024-02-27T10:05:08.801Z,french_16.wav,0,poule,1232,33,4,5,Français,m,1,0.1,90.1568776,0.35137866
5d726b8a0c3f0f0017cdfcf7,82,1,2024-02-27T10:05:08.801Z,french_16.wav,0,poule,1232,33,4,5,Français,m,2,0.2,64.8388413,1.61271584
5d726b8a0c3f0f0017cdfcf7,82,1,2024-02-27T10:05:08.801Z,french_16.wav,0,poule,1232,33,4,5,Français,m,3,0.25666667,-49.08803112,0.05305125
5d726b8a0c3f0f0017cdfcf7,83,1,2024-02-27T10:05:08.801Z,french_185.wav,0,poule,1397,33,4,5,Français,m,0,0.0,61.04894301,1.56575395
5d726b8a0c3f0f0017cdfcf7,83,1,2024-02-27T10:05:08.801Z,french_185.wav,0,poule,1397,33,4,5,Français,m,1,0.1,4.55457692,1.97883698
5d726b8a0c3f0f0017cdfcf7,83,1,2024-02-27T10:05:08.801Z,french_185.wav,0,poule,1397,33,4,5,Français,m,2,0.2,51.77529612,1.92093932
5d726b8a0c3f0f0017cdfcf7,83,1,2024-02-27T10:05:08.801Z,french_185.wav,0,poule,1397,33,4,5,Français,m,3,0.25666667,-22.06501589,0.68389876
5d726b8a0c3f0f0017cdfcf7,84,1,2024-02-27T10:05:08.801Z,french_793.wav,0,pull,772,33,4,5,Français,m,0,0.0,24.81509803,0.12690374
5d726b8a0c3f0f0017cdfcf7,84,1,2024-02-27T10:05:08.801Z,french_793.wav,0,pull,772,33,4,5,Français,m,1,0.1,-63.66512484,0.60816637
5d726b8a0c3f0f0017cdfcf7,84,1,2024-02-27T10:05:08.801Z,french_793.wav,0,pull,772,33,4,5,Français,m,2,0.2,-35.07665133,0.42682998
5d726b8a0c3f0f0017cdfcf7,84,1,2024-02-27T10:05:08.801Z,french_793.wav,0,pull,772,33,4,5,Français,m,3,0.25666667,-2.30327069,0.74050477
5d726b8a0c3f0f0017cdfcf7,85,1,2024-02-27T10:05:08.801Z,french_657.wav,0,poule,353,33,4,5,Français,m,0,0.0,99.76716584,0.85695778
5d726b8a0c3f0f0017cdfcf7,85,1,2024-02-27T10:05:08.801Z,french_657.wav,0,poule,353,33,4,5,Français,m,1,0.1,11.51898435,1.00645436
5d726b8a0c3f0f0017cdfcf7,85,1,2024-02-27T10:05:08.801Z,french_657.wav,0,poule,353,33,4,5,Français,m,2,0.2,-43.45408234,0.73989588
5d726b8a0c3f0f0017cdfcf7,85,1,2024-02-27T10:05:08.801Z,french_657.wav,0,poule,353,33,4,5,Français,m,3,0.25666667,22.46427071,1.57217431
5d726b8a0c3f0f0017cdfcf7,86,1,2024-02-27T10:05:08.801Z,french_994.wav,0,poule,702,33,4,5,Français,m,0,0.0,-39.66278541,0.39681658
5d726b8a0c3f0f0017cdfcf7,86,1,2024-02-27T10:05:08.801Z,french_994.wav,0,poule,702,33,4,5,Français,m,1,0.1,66.70535545,1.6498105
5d726b8a0c3f0f0017cdfcf7,86,1,2024-02-27T10:05:08.801Z,french_994.wav,0,poule,702,33,4,5,Français,m,2,0.2,-87.43703712,1.48803434
5d726b8a0c3f0f0017cdfcf7,86,1,2024-02-27T10:05:08.801Z,french_994.wav,0,poule,702,33,4,5,Français,m,3,0.25666667,-41.83233866,1.54058484
5d726b8a0c3f0f0017cdfcf7,87,1,2024-02-27T10:05:08.801Z,french_986.wav,0,pull,654,33,4,5,Français,m,0,0.0,-69.96795985,1.93285955
5d726b8a0c3f0f0017cdfcf7,87,1,2024-02-27T10:05:08.801Z,french_986.wav,0,pull,654,33,4,5,Français,m,1,0.1,-65.30377544,1.55838575
5d726b8a0c3f0f0017cdfcf7,87,1,2024-02-27T10:05:08.801Z,french_986.wav,0,pull,654,33,4,5,Français,m,2,0.2,27.38987225,0.12645153
5d726b8a0c3f0f0017cdfcf7,87,1,2024-02-27T10:05:08.801Z,french_986.wav,0,pull,654,33,4,5,Français,m,3,0.25666667,-55.80740264,0.78072242
5d726b8a0c3f0f0017cdfcf7,88,1,2024-02-27T10:05:08.801Z,french_460.wav,0,pull,557,33,4,5,Français,m,0,0.0,-46.82547924,0.18532774
5d726b8a0c3f0f0017cdfcf7,88,1,2024-02-27T10:05:08.801Z,french_460.wav,0,pull,557,33,4,5,Français,m,1,0.1,-89.06595485,0.73005791
5d726b8a0c3f0f0017cdfcf7,88,1,2024-02-27T10:05:08.801Z,french_460.wav,0,pull,557,33,4,5,Français,m,2,0.2,-15.88362663,0.27848928
5d726b8a0c3f0f0017cdfcf7,88,1,2024-02-27T10:05:08.801Z,french_460.wav,0,pull,557,33,4,5,Français,m,3,0.25666667,-55.00298372,1.6971829
5d726b8a0c3f0f0017cdfcf7,89,1,2024-02-27T10:05:08.801Z,french_229.wav,0,poule,520,33,4,5,Français,m,0,0.0,17.32899675,0.73401758
5d726b8a0c3f0f0017cdfcf7,89,1,2024-02-27T10:05:08.801Z,french_229.wav,0,poule,520,33,4,5,Français,m,1,0.1,-73.09434366,0.90990932
5d726b8a0c3f0f0017cdfcf7,89,1,2024-02-27T10:05:08.801Z,french_229.wav,0,poule,520,33,4,5,Français,m,2,0.2,-24.47190501,0.8791544
5d726b8a0c3f0f0017cdfcf7,89,1,2024-02-27T10:05:08.801Z,french_229.wav,0,poule,520,33,4,5,Français,m,3,0.25666667,11.45282545,1.1872524
5d726b8a0c3f0f0017cdfcf7,90,1,2024-02-27T10:05:08.801Z,french_366.wav,0,poule,1980,33,4,5,Français,m,0,0.0,-11.67543603,0.93730839
5d726b8a0c3f0f0017cdfcf7,90,1,2024-02-27T10:05:08.801Z,french_366.wav,0,poule,1980,33,4,5,Français,m,1,0.1,-73.020852,0.54674712
5d726b8a0c3f0f0017cdfcf7,90,1,2024-02-27T10:05:08.801Z,french_366.wav,0,poule,1980,33,4,5,Français,m,2,0.2,-53.53259577,0.98192793
5d726b8a0c3f0f0017cdfcf7,90,1,2024-02-27T10:05:08.801Z,french_366.wav,0,poule,1980,33,4,5,Français,m,3,0.25666667,19.02620798,0.14835446
5d726b8a0c3f0f0017cdfcf7,91,1,2024-02-27T10:05:08.801Z,french_470.wav,0,poule,357,33,4,5,Français,m,0,0.0,35.80891732,1.18984778
5d726b8a0c3f0f0017cdfcf7,91,1,2024-02-27T10:05:08.801Z,french_470.wav,0,poule,357,33,4,5,Français,m,1,0.1,-69.45523052,0.95727089
5d726b8a0c3f0f0017cdfcf7,91,1,2024-02-27T10:05:08.801Z,french_470.wav,0,poule,357,33,4,5,Français,m,2,0.2,14.95046841,1.94704509
5d726b8a0c3f0f0017cdfcf7,91,1,2024-02-27T10:05:08.801Z,french_470.wav,0,poule,357,33,4,5,Français,m,3,0.25666667,17.64450191,1.37814226
5d726b8a0c3f0f0017cdfcf7,92,1,2024-02-27T10:05:08.801Z,french_804.wav,0,poule,2227,33,4,5,Français,m,0,0.0,26.75542793,1.45857154
5d726b8a0c3f0f0017cdfcf7,92,1,2024-02-27T10:05:08.801Z,french_804.wav,0,poule,2227,33,4,5,Français,m,1,0.1,-36.26520541,0.22938299
5d726b8a0c3f0f0017cdfcf7,92,1,2024-02-27T10:05:08.801Z,french_804.wav,0,poule,2227,33,4,5,Français,m,2,0.2,56.17292919,1.23693855
5d726b8a0c3f0f0017cdfcf7,92,1,2024-02-27T10:05:08.801Z,french_804.wav,0,poule,2227,33,4,5,Français,m,3,0.25666667,8.82571189,1.26994951
5d726b8a0c3f0f0017cdfcf7,93,1,2024-02-27T10:05:08.801Z,french_52.wav,0,poule,459,33,4,5,Français,m,0,0.0,77.15950351,1.06345864
5d726b8a0c3f0f0017cdfcf7,93,1,2024-02-27T10:05:08.801Z,french_52.wav,0,poule,459,33,4,5,Français,m,1,0.1,66.43146777,1.73071791
5d726b8a0c3f0f0017cdfcf7,93,1,2024-02-27T10:05:08.801Z,french_52.wav,0,poule,459,33,4,5,Français,m,2,0.2,76.85444305,1.08790246
5d726b8a0c3f0f0017cdfcf7,93,1,2024-02-27T10:05:08.801Z,french_52.wav,0,poule,459,33,4,5,Français,m,3,0.25666667,-69.48513432,0.32336701
5d726b8a0c3f0f0017cdfcf7,94,1,2024-02-27T10:05:08.801Z,french_1000.wav,0,poule,848,33,4,5,Français,m,0,0.0,-14.94486739,0.60674079
5d726b8a0c3f0f0017cdfcf7,94,1,2024-02-27T10:05:08.801Z,french_1000.wav,0,poule,848,33,4,5,Français,m,1,0.1,-3.70752284,0.18450848
5d726b8a0c3f0f0017cdfcf7,94,1,2024-02-27T10:05:08.801Z,french_1000.wav,0,poule,848,33,4,5,Français,m,2,0.2,-14.04083749,1.64475948
5d726b8a0c3f0f0017cdfcf7,94,1,2024-02-27T10:05:08.801Z,french_1000.wav,0,poule,848,33,4,5,Français,m,3,0.25666667,-29.27941665,0.26397745
5d726b8a0c3f0f0017cdfcf7,95,1,2024-02-27T10:05:08.801Z,french_910.wav,0,poule,727,33,4,5,Français,m,0,0.0,-48.65293901,0.34246772
5d726b8a0c3f0f0017cdfcf7,95,1,2024-02-27T10:05:08.801Z,french_910.wav,0,poule,727,33,4,5,Français,m,1,0.1,-4.89021115,1.03510625
5d726b8a0c3f0f0017cdfcf7,95,1,2024-02-27T10:05:08.801Z,french_910.wav,0,poule,727,33,4,5,Français,m,2,0.2,-57.2651588,1.59317518
5d726b8a0c3f0f0017cdfcf7,95,1,2024-02-27T10:05:08.801Z,french_910.wav,0,poule,727,33,4,5,Français,m,3,0.25666667,-57.53771148,0.91667414
5d726b8a0c3f0f0017cdfcf7,96,1,2024-02-27T10:05:08.801Z,french_411.wav,0,poule,346,33,4,5,Français,m,0,0.0,65.70741219,1.12073031
5d726b8a0c3f0f0017cdfcf7,96,1,2024-02-27T10:05:08.801Z,french_411.wav,0,poule,346,33,4,5,Français,m,1,0.1,9.47903784,1.20345695
5d726b8a0c3f0f0017cdfcf7,96,1,2024-02-27T10:05:08.801Z,french_411.wav,0,poule,346,33,4,5,Français,m,2,0.2,88.46874173,1.7567893
5d726b8a0c3f0f0017cdfcf7,96,1,2024-02-27T10:05:08.801Z,french_411.wav,0,poule,346,33,4,5,Français,m,3,0.25666667,-33.05830924,0.68949127
5d726b8a0c3f0f0017cdfcf7,97,1,2024-02-27T10:05:08.801Z,french_972.wav,0,poule,1033,33,4,5,Français,m,0,0.0,10.38102426,0.90840989
5d726b8a0c3f0f0017cdfcf7,97,1,2024-02-27T10:05:08.801Z,french_972.wav,0,poule,1033,33,4,5,Français,m,1,0.1,-66.54271468,1.6485676
5d726b8a0c3f0f0017cdfcf7,97,1,2024-02-27T10:05:08.801Z,french_972.wav,0,poule,1033,33,4,5,Français,m,2,0.2,-2.89265523,0.79956718
5d726b8a0c3f0f0017cdfcf7,97,1,2024-02-27T10:05:08.801Z,french_972.wav,0,poule,1033,33,4,5,Français,m,3,0.25666667,-87.42126356,1.28352811
5d726b8a0c3f0f0017cdfcf7,98,1,2024-02-27T10:05:08.801Z,french_113.wav,0,poule,6048,33,4,5,Français,m,0,0.0,0.51528889,0.39555504
5d726b8a0c3f0f0017cdfcf7,98,1,2024-02-27T10:05:08.801Z,french_113.wav,0,poule,6048,33,4,5,Français,m,1,0.1,31.38938416,1.50115078
5d726b8a0c3f0f0017cdfcf7,98,1,2024-02-27T10:05:08.801Z,french_113.wav,0,poule,6048,33,4,5,Français,m,2,0.2,-56.71204584,1.00732686
5d726b8a0c3f0f0017cdfcf7,98,1,2024-02-27T10:05:08.801Z,french_113.wav,0,poule,6048,33,4,5,Français,m,3,0.25666667,95.05763822,0.59062761
5d726b8a0c3f0f0017cdfcf7,99,1,2024-02-27T10:05:08.801Z,french_339.wav,0,poule,1724,33,4,5,Français,m,0,0.0,54.2761061,1.89825103
5d726b8a0c3f0f0017cdfcf7,99,1,2024-02-27T10:05:08.801Z,french_339.wav,0,poule,1724,33,4,5,Français,m,1,0.1,63.28603184,0.66946091
5d726b8a0c3f0f0017cdfcf7,99,1,2024-02-27T10:05:08.801Z,french_339.wav,0,poule,1724,33,4,5,Français,m,2,0.2,-39.09064926,1.06421907
5d726b8a0c3f0f0017cdfcf7,99,1,2024-02-27T10:05:08.801Z,french_339.wav,0,poule,1724,33,4,5,Français,m,3,0.25666667,-65.51257867,1.4091401
5d726b8a0c3f0f0017cdfcf7,100,2,2024-02-27T10:05:08.801Z,french_184.wav,0,poule,1793,33,4,5,Français,m,0,0.0,48.36861498,1.86119552
5d726b8a0c3f0f0017cdfcf7,100,2,2024-02-27T10:05:08.801Z,french_184.wav,0,poule,1793,33,4,5,Français,m,1,0.1,-2.94347193,0.96576449
5d726b8a0c3f0f0017cdfcf7,100,2,2024-02-27T10:05:08.801Z,french_184.wav,0,poule,1793,33,4,5,Français,m,2,0.2,-52.00472355,1.69315982
5d726b8a0c3f0f0017cdfcf7,100,2,2024-02-27T10:05:08.801Z,french_184.wav,0,poule,1793,33,4,5,Français,m,3,0.25666667,-36.80137507,0.52689434
5d726b8a0c3f0f0017cdfcf7,101,2,2024-02-27T10:05:08.801Z,french_225.wav,0,poule,2797,33,4,5,Français,m,0,0.0,29.07754255,1.10473325
5d726b8a0c3f0f0017cdfcf7,101,2,2024-02-27T10:05:08.801Z,french_225.wav,0,poule,2797,33,4,5,Français,m,1,0.1,99.63110947,0.86614983
5d726b8a0c3f0f0017cdfcf7,101,2,2024-02-27T10:05:08.801Z,french_225.wav,0,poule,2797,33,4,5,Français,m,2,0.2,-11.85966914,1.10071
5d726b8a0c3f0f0017cdfcf7,101,2,2024-02-27T10:05:08.801Z,french_225.wav,0,poule,2797,33,4,5,Français,m,3,0.25666667,-24.94738594,1.32437332
5d726b8a0c3f0f0017cdfcf7,102,2,2024-02-27T10:05:08.801Z,french_941.wav,0,pull,2554,33,4,5,Français,m,0,0.0,-66.32571195,0.9896497
5d726b8a0c3f0f0017cdfcf7,102,2,2024-02-27T10:05:08.801Z,french_941.wav,0,pull,2554,33,4,5,Français,m,1,0.1,85.09907795,0.67654191
5d726b8a0c3f0f0017cdfcf7,102,2,2024-02-27T10:05:08.801Z,french_941.wav,0,pull,2554,33,4,5,Français,m,2,0.2,87.37862016,1.4708398
5d726b8a0c3f0f0017cdfcf7,102,2,2024-02-27T10:05:08.801Z,french_941.wav,0,pull,2554,33,4,5,Français,m,3,0.25666667,-18.39108149,0.82969394
5d726b8a0c3f0f0017cdfcf7,103,2,2024-02-27T10:05:08.801Z,french_228.wav,0,poule,923,33,4,5,Français,m,0,0.0,-13.78258648,1.36655769
5d726b8a0c3f0f0017cdfcf7,103,2,2024-02-27T10:05:08.801Z,french_228.wav,0,poule,923,33,4,5,Français,m,1,0.1,27.88870681,1.56643938
5d726b8a0c3f0f0017cdfcf7,103,2,2024-02-27T10:05:08.801Z,french_228.wav,0,poule,923,33,4,5,Français,m,2,0.2,-8.73674486,0.29403468
5d726b8a0c3f0f0017cdfcf7,103,2,2024-02-27T10:05:08.801Z,french_228.wav,0,poule,923,33,4,5,Français,m,3,0.25666667,-13.88179653,0.32348249
5d726b8a0c3f0f0017cdfcf7,104,2,2024-02-27T10:05:08.801Z,french_2.wav,0,poule,1567,33,4,5,Français,m,0,0.0,-28.21412584,1.58504822
5d726b8a0c3f0f0017cdfcf7,104,2,2024-02-27T10:05:08.801Z,french_2.wav,0,poule,1567,33,4,5,Français,m,1,0.1,66.62162467,1.83034999
5d726b8a0c3f0f0017cdfcf7,104,2,2024-02-27T10:05:08.801Z,french_2.wav,0,poule,1567,33,4,5,Français,m,2,0.2,16.24659996,0.31217517
5d726b8a0c3f0f0017cdfcf7,104,2,2024-02-27T10:05:08.801Z,french_2.wav,0,poule,1567,33,4,5,Français,m,3,0.25666667,-46.42897327,1.81400659
5d726b8a0c3f0f0017cdfcf7,105,2,2024-02-27T10:05:08.801Z,french_595.wav,0,pull,1033,33,4,5,Français,m,0,0.0,-73.15061419,1.40746522
5d726b8a0c3f0f0017cdfcf7,105,2,2024-02-27T10:05:08.801Z,french_595.wav,0,pull,1033,33,4,5,Français,m,1,0.1,67.23643261,0.48150889
5d726b8a0c3f0f0017cdfcf7,105,2,2024-02-27T10:05:08.801Z,french_595.wav,0,pull,1033,33,4,5,Français,m,2,0.2,29.33444659,0.65461581
5d726b8a0c3f0f0017cdfcf7,105,2,2024-02-27T10:05:08.801Z,french_595.wav,0,pull,1033,33,4,5,Français,m,3,0.25666667,-65.67909684,0.62395538
5d726b8a0c3f0f0017cdfcf7,106,2,2024-02-27T10:05:08.801Z,french_494.wav,0,poule,4022,33,4,5,Français,m,0,0.0,-13.98983301,1.71774812
5d726b8a0c3f0f0017cdfcf7,106,2,2024-02-27T10:05:08.801Z,french_494.wav,0,poule,4022,33,4,5,Français,m,1,0.1,-42.16987525,1.14165471
5d726b8a0c3f0f0017cdfcf7,106,2,2024-02-27T10:05:08.801Z,french_494.wav,0,poule,4022,33,4,5,Français,m,2,0.2,38.88383452,0.86838156
5d726b8a0c3f0f0017cdfcf7,106,2,2024-02-27T10:05:08.801Z,french_494.wav,0,poule,4022,33,4,5,Français,m,3,0.25666667,78.77057746,1.71181958
5d726b8a0c3f0f0017cdfcf7,107,2,2024-02-27T10:05:08.801Z,french_867.wav,0,poule,6041,33,4,5,Français,m,0,0.0,-56.83459408,0.56298114
5d726b8a0c3f0f0017cdfcf7,107,2,2024-02-27T10:05:08.801Z,french_867.wav,0,poule,6041,33,4,5,Français,m,1,0.1,-43.30462201,1.09173708
5d726b8a0c3f0f0017cdfcf7,107,2,2024-02-27T10:05:08.801Z,french_867.wav,0,poule,6041,33,4,5,Français,m,2,0.2,-57.08778715,1.10722732
5d726b8a0c3f0f0017cdfcf7,107,2,2024-02-27T10:05:08.801Z,french_867.wav,0,poule,6041,33,4,5,Français,m,3,0.25666667,26.25433727,0.48299304
5d726b8a0c3f0f0017cdfcf7,108,2,2024-02-27T10:05:08.801Z,french_174.wav,0,poule,589,33,4,5,Français,m,0,0.0,1.45674265,0.26044346
5d726b8a0c3f0f0017cdfcf7,108,2,2024-02-27T10:05:08.801Z,french_174.wav,0,poule,589,33,4,5,Français,m,1,0.1,47.27057229,1.87217745
5d726b8a0c3f0f0017cdfcf7,108,2,2024-02-27T10:05:08.801Z,french_174.wav,0,poule,589,33,4,5,Français,m,2,0.2,-41.5239841,1.40485436
5d726b8a0c3f0f0017cdfcf7,108,2,2024-02-27T10:05:08.801Z,french_174.wav,0,poule,589,33,4,5,Français,m,3,0.25666667,32.3517821,1.2389409
5d726b8a0c3f0f0017cdfcf7,109,2,2024-02-27T10:05:08.801Z,french_819.wav,0,pull,386,33,4,5,Français,m,0,0.0,10.23888344,1.93351894
5d726b8a0c3f0f0017cdfcf7,109,2,2024-02-27T10:05:08.801Z,french_819.wav,0,pull,386,33,4,5,Français,m,1,0.1,14.33129562,0.24790788
5d726b8a0c3f0f0017cdfcf7,109,2,2024-02-27T10:05:08.801Z,french_819.wav,0,pull,386,33,4,5,Français,m,2,0.2,-57.61493264,1.58463495
5d726b8a0c3f0f0017cdfcf7,109,2,2024-02-27T10:05:08.801Z,french_819.wav,0,pull,386,33,4,5,Français,m,3,0.25666667,33.17012155,0.31192511
5d726b8a0c3f0f0017cdfcf7,110,2,2024-02-27T10:05:08.801Z,french_898.wav,0,poule,321,33,4,5,Français,m,0,0.0,-10.33405821,1.53220968
5d726b8a0c3f0f0017cdfcf7,110,2,2024-02-27T10:05:08.801Z,french_898.wav,0,poule,321,33,4,5,Français,m,1,0.1,56.62547765,1.11219982
5d726b8a0c3f0f0017cdfcf7,110,2,2024-02-27T10:05:08.801Z,french_898.wav,0,poule,321,33,4,5,Français,m,2,0.2,26.06756425,1.10520568
5d726b8a0c3f0f0017cdfcf7,110,2,2024-02-27T10:05:08.801Z,french_898.wav,0,poule,321,33,4,5,Français,m,3,0.25666667,61.22858123,0.66903516
5d726b8a0c3f0f0017cdfcf7,111,2,2024-02-27T10:05:08.801Z,french_381.wav,0,pull,662,33,4,5,Français,m,0,0.0,-36.22739734,0.39069554
5d726b8a0c3f0f0017cdfcf7,111,2,2024-02-27T10:05:08.801Z,french_381.wav,0,pull,662,33,4,5,Français,m,1,0.1,63.18659678,0.02424263
5d726b8a0c3f0f0017cdfcf7,111,2,2024-02-27T10:05:08.801Z,french_381.wav,0,pull,662,33,4,5,Français,m,2,0.2,-88.25823098,0.59540025
5d726b8a0c3f0f0017cdfcf7,111,2,2024-02-27T10:05:08.801Z,french_381.wav,0,pull,662,33,4,5,Français,m,3,0.25666667,39.00702017,0.84340327
5d726b8a0c3f0f0017cdfcf7,112,2,2024-02-27T10:05:08.801Z,french_82.wav,0,pull,2534,33,4,5,Français,m,0,0.0,82.26293442,0.95636636
5d726b8a0c3f0f0017cdfcf7,112,2,2024-02-27T10:05:08.801Z,french_82.wav,0,pull,2534,33,4,5,Français,m,1,0.1,-13.98955844,0.8765529
5d726b8a0c3f0f0017cdfcf7,112,2,2024-02-27T10:05:08.801Z,french_82.wav,0,pull,2534,33,4,5,Français,m,2,0.2,44.8739745,0.75785774
5d726b8a0c3f0f0017cdfcf7,112,2,2024-02-27T10:05:08.801Z,french_82.wav,0,pull,2534,33,4,5,Français,m,3,0.25666667,23.31967993,0.26363467
5d726b8a0c3f0f0017cdfcf7,113,2,2024-02-27T10:05:08.801Z,french_678.wav,0,pull,1315,33,4,5,Français,m,0,0.0,8.99494286,0.31277465
5d726b8a0c3f0f0017cdfcf7,113,2,2024-02-27T10:05:08.801Z,french_678.wav,0,pull,1315,33,4,5,Français,m,1,0.1,56.3447022,0.04822955
5d726b8a0c3f0f0017cdfcf7,113,2,2024-02-27T10:05:08.801Z,french_678.wav,0,pull,1315,33,4,5,Français,m,2,0.2,-85.36803825,0.03738606
5d726b8a0c3f0f0017cdfcf7,113,2,2024-02-27T10:05:08.801Z,french_678.wav,0,pull,1315,33,4,5,Français,m,3,0.25666667,-65.39277698,1.60364947
5d726b8a0c3f0f0017cdfcf7,114,2,2024-02-27T10:05:08.801Z,french_220.wav,0,poule,564,33,4,5,Français,m,0,0.0,99.39862809,1.95391084
5d726b8a0c3f0f0017cdfcf7,114,2,2024-02-27T10:05:08.801Z,french_220.wav,0,poule,564,33,4,5,Français,m,1,0.1,-16.44954754,1.60430152
5d726b8a0c3f0f0017cdfcf7,114,2,2024-02-27T10:05:08.801Z,french_220.wav,0,poule,564,33,4,5,Français,m,2,0.2,-73.93109837,1.1953066
5d726b8a0c3f0f0017cdfcf7,114,2,2024-02-27T10:05:08.801Z,french_220.wav,0,poule,564,33,4,5,Français,m,3,0.25666667,-37.75571533,0.34699919
5d726b8a0c3f0f0017cdfcf7,115,2,2024-02-27T10:05:08.801Z,french_693.wav,0,pull,903,33,4,5,Français,m,0,0.0,-47.08934597,0.01342517
5d726b8a0c3f0f0017cdfcf7,115,2,2024-02-27T10:05:08.801Z,french_693.wav,0,pull,903,33,4,5,Français,m,1,0.1,72.6108529,0.89682207
5d726b8a0c3f0f0017cdfcf7,115,2,2024-02-27T10:05:08.801Z,french_693.wav,0,pull,903,33,4,5,Français,m,2,0.2,-29.7137536,1.48476447
5d726b8a0c3f0f0017cdfcf7,115,2,2024-02-27T10:05:08.801Z,french_693.wav,0,pull,903,33,4,5,Français,m,3,0.25666667,50.01737174,0.05087926
5d726b8a0c3f0f0017cdfcf7,116,2,2024-02-27T10:05:08.801Z,french_800.wav,0,pull,4169,33,4,5,Français,m,0,0.0,43.61588251,1.33995655
5d726b8a0c3f0f0017cdfcf7,116,2,2024-02-27T10:05:08.801Z,french_800.wav,0,pull,4169,33,4,5,Français,m,1,0.1,-17.8471941,0.26774995
5d726b8a0c3f0f0017cdfcf7,116,2,2024-02-27T10:05:08.801Z,french_800.wav,0,pull,4169,33,4,5,Français,m,2,0.2,-10.2363333,0.87274599
5d726b8a0c3f0f0017cdfcf7,116,2,2024-02-27T10:05:08.801Z,french_800.wav,0,pull,4169,33,4,5,Français,m,3,0.25666667,-85.1878963,0.37568781
5d726b8a0c3f0f0017cdfcf7,117,2,2024-02-27T10:05:08.801Z,french_618.wav,0,pull,1801,33,4,5,Français,m,0,0.0,-48.84080529,0.47316377
5d726b8a0c3f0f0017cdfcf7,117,2,2024-02-27T10:05:08.801Z,french_618.wav,0,pull,1801,33,4,5,Français,m,1,0.1,52.1949693,0.45430598
5d726b8a0c3f0f0017cdfcf7,117,2,2024-02-27T10:05:08.801Z,french_618.wav,0,pull,1801,33,4,5,Français,m,2,0.2,2.68255661,0.75800451
5d726b8a0c3f0f0017cdfcf7,117,2,2024-02-27T10:05:08.801Z,french_618.wav,0,pull,1801,33,4,5,Français,m,3,0.25666667,-32.43465806,0.99622678
5d726b8a0c3f0f0017cdfcf7,118,2,2024-02-27T10:05:08.801Z,french_370.wav,0,poule,488,33,4,5,Français,m,0,0.0,-31.30279389,1.88170435
5d726b8a0c3f0f0017cdfcf7,118,2,2024-02-27T10:05:08.801Z,french_370.wav,0,poule,488,33,4,5,Français,m,1,0.1,96.47349065,0.75067332
5d726b8a0c3f0f0017cdfcf7,118,2,2024-02-27T10:05:08.801Z,french_370.wav,0,poule,488,33,4,5,Français,m,2,0.2,23.18843017,1.06279648
5d726b8a0c3f0f0017cdfcf7,118,2,2024-02-27T10:05:08.801Z,french_370.wav,0,poule,488,33,4,5,Français,m,3,0.25666667,81.62933181,0.58974769
5d726b8a0c3f0f0017cdfcf7,119,2,2024-02-27T10:05:08.801Z,french_580.wav,0,poule,627,33,4,5,Français,m,0,0.0,27.05941303,0.35053576
5d726b8a0c3f0f0017cdfcf7,119,2,2024-02-27T10:05:08.801Z,french_580.wav,0,poule,627,33,4,5,Français,m,1,0.1,-10.3346088,1.97169455
5d726b8a0c3f0f0017cdfcf7,119,2,2024-02-27T10:05:08.801Z,french_580.wav,0,poule,627,33,4,5,Français,m,2,0.2,-24.27512535,0.90308202
5d726b8a0c3f0f0017cdfcf7,119,2,2024-02-27T10:05:08.801Z,french_580.wav,0,poule,627,33,4,5,Français,m,3,0.25666667,34.7313677,0.94790865
5d726b8a0c3f0f0017cdfcf7,120,2,2024-02-27T10:05:08.801Z,french_859.wav,0,poule,308,33,4,5,Français,m,0,0.0,52.92786792,1.14238893
5d726b8a0c3f0f0017cdfcf7,120,2,2024-02-27T10:05:08.801Z,french_859.wav,0,poule,308,33,4,5,Français,m,1,0.1,18.54274392,1.12707434
5d726b8a0c3f0f0017cdfcf7,120,2,2024-02-27T10:05:08.801Z,french_859.wav,0,poule,308,33,4,5,Français,m,2,0.2,-25.06242892,1.93999144
5d726b8a0c3f0f0017cdfcf7,120,2,2024-02-27T10:05:08.801Z,french_859.wav,0,poule,308,33,4,5,Français,m,3,0.25666667,0.70946668,1.31682519
5d726b8a0c3f0f0017cdfcf7,121,2,2024-02-27T10:05:08.801Z,french_924.wav,0,pull,963,33,4,5,Français,m,0,0.0,19.51956159,0.29322561
5d726b8a0c3f0f0017cdfcf7,121,2,2024-02-27T10:05:08.801Z,french_924.wav,0,pull,963,33,4,5,Français,m,1,0.1,-22.93629197,0.34885274
5d726b8a0c3f0f0017cdfcf7,121,2,2024-02-27T10:05:08.801Z,french_924.wav,0,pull,963,33,4,5,Français,m,2,0.2,72.54596199,0.3497483
5d726b8a0c3f0f0017cdfcf7,121,2,2024-02-27T10:05:08.801Z,french_924.wav,0,pull,963,33,4,5,Français,m,3,0.25666667,13.27885696,0.14375838
5d726b8a0c3f0f0017cdfcf7,122,2,2024-02-27T10:05:08.801Z,french_440.wav,0,pull,1216,33,4,5,Français,m,0,0.0,-59.81098651,0.93400427
5d726b8a0c3f0f0017cdfcf7,122,2,2024-02-27T10:05:08.801Z,french_440.wav,0,pull,1216,33,4,5,Français,m,1,0.1,55.41661021,0.25641934
5d726b8a0c3f0f0017cdfcf7,122,2,2024-02-27T10:05:08.801Z,french_440.wav,0,pull,1216,33,4,5,Français,m,2,0.2,43.77043266,0.61594081
5d726b8a0c3f0f0017cdfcf7,122,2,2024-02-27T10:05:08.801Z,french_440.wav,0,pull,1216,33,4,5,Français,m,3,0.25666667,-5.41632891,1.32329824
5d726b8a0c3f0f0017cdfcf7,123,2,2024-02-27T10:05:08.801Z,french_173.wav,0,poule,283,33,4,5,Français,m,0,0.0,-85.34625679,1.0505287
5d726b8a0c3f0f0017cdfcf7,123,2,2024-02-27T10:05:08.801Z,french_173.wav,0,poule,283,33,4,5,Français,m,1,0.1,19.71799215,1.50206547
5d726b8a0c3f0f0017cdfcf7,123,2,2024-02-27T10:05:08.801Z,french_173.wav,0,poule,283,33,4,5,Français,m,2,0.2,-84.96079432,1.53807785
5d726b8a0c3f0f0017cdfcf7,123,2,2024-02-27T10:05:08.801Z,french_173.wav,0,poule,283,33,4,5,Français,m,3,0.25666667,-20.27996547,1.54027091
5d726b8a0c3f0f0017cdfcf7,124,2,2024-02-27T10:05:08.801Z,french_863.wav,0,poule,346,33,4,5,Français,m,0,0.0,30.03534105,0.49205925
5d726b8a0c3f0f0017cdfcf7,124,2,2024-02-27T10:05:08.801Z,french_863.wav,0,poule,346,33,4,5,Français,m,1,0.1,70.10019967,1.5612805
5d726b8a0c3f0f0017cdfcf7,124,2,2024-02-27T10:05:08.801Z,french_863.wav,0,poule,346,33,4,5,Français,m,2,0.2,38.31171189,1.70745742
5d726b8a0c3f0f0017cdfcf7,124,2,2024-02-27T10:05:08.801Z,french_863.wav,0,poule,346,33,4,5,Français,m,3,0.25666667,76.0150774,0.79908683
5d726b8a0c3f0f0017cdfcf7,125,2,2024-02-27T10:05:08.801Z,french_826.wav,0,pull,2176,33,4,5,Français,m,0,0.0,-33.86739367,0.07066528
5d726b8a0c3f0f0017cdfcf7,125,2,2024-02-27T10:05:08.801Z,french_826.wav,0,pull,2176,33,4,5,Français,m,1,0.1,-31.27966971,0.90490109
5d726b8a0c3f0f0017cdfcf7,125,2,2024-02-27T10:05:08.801Z,french_826.wav,0,pull,2176,33,4,5,Français,m,2,0.2,51.84533444,0.66906535
5d726b8a0c3f0f0017cdfcf7,125,2,2024-02-27T10:05:08.801Z,french_826.wav,0,pull,2176,33,4,5,Français,m,3,0.25666667,-81.13386792,0.4882988
5d726b8a0c3f0f0017cdfcf7,126,2,2024-02-27T10:05:08.801Z,french_331.wav,0,pull,1512,33,4,5,Français,m,0,0.0,-65.4197333,1.29365297
5d726b8a0c3f0f0017cdfcf7,126,2,2024-02-27T10:05:08.801Z,french_331.wav,0,pull,1512,33,4,5,Français,m,1,0.1,-42.63112693,1.19213918
5d726b8a0c3f0f0017cdfcf7,126,2,2024-02-27T10:05:08.801Z,french_331.wav,0,pull,1512,33,4,5,Français,m,2,0.2,-74.29271092,0.93002313
5d726b8a0c3f0f0017cdfcf7,126,2,2024-02-27T10:05:08.801Z,french_331.wav,0,pull,1512,33,4,5,Français,m,3,0.25666667,-22.37665177,1.59897964
5d726b8a0c3f0f0017cdfcf7,127,2,2024-02-27T10:05:08.801Z,french_639.wav,0,poule,659,33,4,5,Français,m,0,0.0,11.64385005,1.86180111
5d726b8a0c3f0f0017cdfcf7,127,2,2024-02-27T10:05:08.801Z,french_639.wav,0,poule,659,33,4,5,Français,m,1,0.1,-83.53772589,1.31531339
5d726b8a0c3f0f0017cdfcf7,127,2,2024-02-27T10:05:08.801Z,french_639.wav,0,poule,659,33,4,5,Français,m,2,0.2,-26.70113898,0.16484712
5d726b8a0c3f0f0017cdfcf7,127,2,2024-02-27T10:05:08.801Z,french_639.wav,0,poule,659,33,4,5,Français,m,3,0.25666667,-28.21717215,0.08923993
5d726b8a0c3f0f0017cdfcf7,128,2,2024-02-27T10:05:08.801Z,french_373.wav,0,poule,245,33,4,5,Français,m,0,0.0,27.88559689,1.35161412
5d726b8a0c3f0f0017cdfcf7,128,2,2024-02-27T10:05:08.801Z,french_373.wav,0,poule,245,33,4,5,Français,m,1,0.1,61.41244142,1.00997609
5d726b8a0c3f0f0017cdfcf7,128,2,2024-02-27T10:05:08.801Z,french_373.wav,0,poule,245,33,4,5,Français,m,2,0.2,37.97273047,1.87297461
5d726b8a0c3f0f0017cdfcf7,128,2,2024-02-27T10:05:08.801Z,french_373.wav,0,poule,245,33,4,5,Français,m,3,0.25666667,-82.72738113,0.97441242
5d726b8a0c3f0f0017cdfcf7,129,2,2024-02-27T10:05:08.801Z,french_354.wav,0,pull,1115,33,4,5,Français,m,0,0.0,-52.94558073,1.79880208
5d726b8a0c3f0f0017cdfcf7,129,2,2024-02-27T10:05:08.801Z,french_354.wav,0,pull,1115,33,4,5,Français,m,1,0.1,92.39955521,1.0939287
5d726b8a0c3f0f0017cdfcf7,129,2,2024-02-27T10:05:08.801Z,french_354.wav,0,pull,1115,33,4,5,Français,m,2,0.2,-42.31606849,0.57130202
5d726b8a0c3f0f0017cdfcf7,129,2,2024-02-27T10:05:08.801Z,french_354.wav,0,pull,1115,33,4,5,Français,m,3,0.25666667,97.06976377,1.82278353
5d726b8a0c3f0f0017cdfcf7,130,2,2024-02-27T10:05:08.801Z,french_158.wav,0,poule,237,33,4,5,Français,m,0,0.0,72.88318106,1.5476705
5d726b8a0c3f0f0017cdfcf7,130,2,2024-02-27T10:05:08.801Z,french_158.wav,0,poule,237,33,4,5,Français,m,1,0.1,51.2800476,1.92933226
5d726b8a0c3f0f0017cdfcf7,130,2,2024-02-27T10:05:08.801Z,french_158.wav,0,poule,237,33,4,5,Français,m,2,0.2,-29.39007937,1.77733774
5d726b8a0c3f0f0017cdfcf7,130,2,2024-02-27T10:05:08.801Z,french_158.wav,0,poule,237,33,4,5,Français,m,3,0.25666667,87.52810159,1.82253327
5d726b8a0c3f0f0017cdfcf7,131,2,2024-02-27T10:05:08.801Z,french_592.wav,0,pull,876,33,4,5,Français,m,0,0.0,-60.74271859,0.07910076
5d726b8a0c3f0f0017cdfcf7,131,2,2024-02-27T10:05:08.801Z,french_592.wav,0,pull,876,33,4,5,Français,m,1,0.1,93.57737247,0.09988206
5d726b8a0c3f0f0017cdfcf7,131,2,2024-02-27T10:05:08.801Z,french_592.wav,0,pull,876,33,4,5,Français,m,2,0.2,-53.75438764,0.64371435
5d726b8a0c3f0f0017cdfcf7,131,2,2024-02-27T10:05:08.801Z,french_592.wav,0,pull,876,33,4,5,Français,m,3,0.25666667,-2.22241718,0.65219405
5d726b8a0c3f0f0017cdfcf7,132,2,2024-02-27T10:05:08.801Z,french_550.wav,0,poule,3617,33,4,5,Français,m,0,0.0,-75.40042164,1.22660115
5d726b8a0c3f0f0017cdfcf7,132,2,2024-02-27T10:05:08.801Z,french_550.wav,0,poule,3617,33,4,5,Français,m,1,0.1,3.66999977,1.1302768
5d726b8a0c3f0f0017cdfcf7,132,2,2024-02-27T10:05:08.801Z,french_550.wav,0,poule,3617,33,4,5,Français,m,2,0.2,-80.45508953,0.71194131
5d726b8a0c3f0f0017cdfcf7,132,2,2024-02-27T10:05:08.801Z,french_550.wav,0,poule,3617,33,4,5,Français,m,3,0.25666667,-81.93938104,1.14992067
5d726b8a0c3f0f0017cdfcf7,133,2,2024-02-27T10:05:08.801Z,french_164.wav,0,poule,713,33,4,5,Français,m,0,0.0,-18.17175111,1.54231832
5d726b8a0c3f0f0017cdfcf7,133,2,2024-02-27T10:05:08.801Z,french_164.wav,0,poule,713,33,4,5,Français,m,1,0.1,76.91542059,0.85273823
5d726b8a0c3f0f0017cdfcf7,133,2,2024-02-27T10:05:08.801Z,french_164.wav,0,poule,713,33,4,5,Français,m,2,0.2,-44.02896165,1.08595521
5d726b8a0c3f0f0017cdfcf7,133,2,2024-02-27T10:05:08.801Z,french_164.wav,0,poule,713,33,4,5,Français,m,3,0.25666667,-52.20678857,1.30612675
5d726b8a0c3f0f0017cdfcf7,134,2,2024-02-27T10:05:08.801Z,french_498.wav,0,poule,345,33,4,5,Français,m,0,0.0,4.68377609,1.22559932
5d726b8a0c3f0f0017cdfcf7,134,2,2024-02-27T10:05:08.801Z,french_498.wav,0,poule,345,33,4,5,Français,m,1,0.1,-15.28708952,1.70630703
5d726b8a0c3f0f0017cdfcf7,134,2,2024-02-27T10:05:08.801Z,french_498.wav,0,poule,345,33,4,5,Français,m,2,0.2,12.01036293,0.54123502
5d726b8a0c3f0f0017cdfcf7,134,2,2024-02-27T10:05:08.801Z,french_498.wav,0,poule,345,33,4,5,Français,m,3,0.25666667,2.49690218,0.39602685
5d726b8a0c3f0f0017cdfcf7,135,2,2024-02-27T10:05:08.801Z,french_896.wav,0,poule,409,33,4,5,Français,m,0,0.0,-50.03367973,0.4350745
5d726b8a0c3f0f0017cdfcf7,135,2,2024-02-27T10:05:08.801Z,french_896.wav,0,poule,409,33,4,5,Français,m,1,0.1,73.95849411,1.7879982
5d726b8a0c3f0f0017cdfcf7,135,2,2024-02-27T10:05:08.801Z,french_896.wav,0,poule,409,33,4,5,Français,m,2,0.2,16.78858773,0.61207276
5d726b8a0c3f0f0017cdfcf7,135,2,2024-02-27T10:05:08.801Z,french_896.wav,0,poule,409,33,4,5,Français,m,3,0.25666667,-49.02431976,0.35432813
5d726b8a0c3f0f0017cdfcf7,136,2,2024-02-27T10:05:08.801Z,french_303.wav,0,poule,692,33,4,5,Français,m,0,0.0,-37.35678584,1.71041427
5d726b8a0c3f0f0017cdfcf7,136,2,2024-02-27T10:05:08.801Z,french_303.wav,0,poule,692,33,4,5,Français,m,1,0.1,-60.74389767,0.8709471
5d726b8a0c3f0f0017cdfcf7,136,2,2024-02-27T10:05:08.801Z,french_303.wav,0,poule,692,33,4,5,Français,m,2,0.2,74.2341812,1.02400634
5d726b8a0c3f0f0017cdfcf7,136,2,2024-02-27T10:05:08.801Z,french_303.wav,0,poule,692,33,4,5,Français,m,3,0.25666667,74.10759125,0.07072526
5d726b8a0c3f0f0017cdfcf7,137,2,2024-02-27T10:05:08.801Z,french_148.wav,0,poule,1472,33,4,5,Français,m,0,0.0,-65.76338754,1.63378801
5d726b8a0c3f0f0017cdfcf7,137,2,2024-02-27T10:05:08.801Z,french_148.wav,0,poule,1472,33,4,5,Français,m,1,0.1,-45.02607009,0.19427674
5d726b8a0c3f0f0017cdfcf7,137,2,2024-02-27T10:05:08.801Z,french_148.wav,0,poule,1472,33,4,5,Français,m,2,0.2,-4.18875901,1.20463049
5d726b8a0c3f0f0017cdfcf7,137,2,2024-02-27T10:05:08.801Z,french_148.wav,0,poule,1472,33,4,5,Français,m,3,0.25666667,85.40607693,0.17184116
5d726b8a0c3f0f0017cdfcf7,138,2,2024-02-27T10:05:08.801Z,french_882.wav,0,poule,9410,33,4,5,Français,m,0,0.0,-76.64131244,0.67668261
5d726b8a0c3f0f0017cdfcf7,138,2,2024-02-27T10:05:08.801Z,french_882.wav,0,poule,9410,33,4,5,Français,m,1,0.1,-39.91871486,0.28498495
5d726b8a0c3f0f0017cdfcf7,138,2,2024-02-27T10:05:08.801Z,french_882.wav,0,poule,9410,33,4,5,Français,m,2,0.2,-10.31613543,0.59130788
5d726b8a0c3f0f0017cdfcf7,138,2,2024-02-27T10:05:08.801Z,french_882.wav,0,poule,9410,33,4,5,Français,m,3,0.25666667,20.39966841,1.12904738
5d726b8a0c3f0f0017cdfcf7,139,2,2024-02-27T10:05:08.801Z,french_982.wav,0,poule,668,33,4,5,Français,m,0,0.0,-37.50079515,0.32253899
5d726b8a0c3f0f0017cdfcf7,139,2,2024-02-27T10:05:08.801Z,french_982.wav,0,poule,668,33,4,5,Français,m,1,0.1,-23.37923681,1.88868261
5d726b8a0c3f0f0017cdfcf7,139,2,2024-02-27T10:05:08.801Z,french_982.wav,0,poule,668,33,4,5,Français,m,2,0.2,-55.8234839,0.59835015
5d726b8a0c3f0f0017cdfcf7,139,2,2024-02-27T10:05:08.801Z,french_982.wav,0,poule,668,33,4,5,Français,m,3,0.25666667,-58.92111767,1.21615752
5d726b8a0c3f0f0017cdfcf7,140,2,2024-02-27T10:05:08.801Z,french_312.wav,0,poule,300,33,4,5,Français,m,0,0.0,-19.98952993,1.92157149
5d726b8a0c3f0f0017cdfcf7,140,2,2024-02-27T10:05:08.801Z,french_312.wav,0,poule,300,33,4,5,Français,m,1,0.1,50.70617954,0.53263035
5d726b8a0c3f0f0017cdfcf7,140,2,2024-02-27T10:05:08.801Z,french_312.wav,0,poule,300,33,4,5,Français,m,2,0.2,80.27383631,1.8452111
5d726b8a0c3f0f0017cdfcf7,140,2,2024-02-27T10:05:08.801Z,french_312.wav,0,poule,300,33,4,5,Français,m,3,0.25666667,31.55502425,1.73122835
5d726b8a0c3f0f0017cdfcf7,141,2,2024-02-27T10:05:08.801Z,french_436.wav,0,pull,542,33,4,5,Français,m,0,0.0,21.52139078,0.27861971
5d726b8a0c3f0f0017cdfcf7,141,2,2024-02-27T10:05:08.801Z,french_436.wav,0,pull,542,33,4,5,Français,m,1,0.1,91.02122448,0.31750307
5d726b8a0c3f0f0017cdfcf7,141,2,2024-02-27T10:05:08.801Z,french_436.wav,0,pull,542,33,4,5,Français,m,2,0.2,28.53627776,0.35857003
5d726b8a0c3f0f0017cdfcf7,141,2,2024-02-27T10:05:08.801Z,french_436.wav,0,pull,542,33,4,5,Français,m,3,0.25666667,-78.88687792,1.70163595
5d726b8a0c3f0f0017cdfcf7,142,2,2024-02-27T10:05:08.801Z,french_486.wav,0,poule,499,33,4,5,Français,m,0,0.0,-65.13732965,0.7755652
5d726b8a0c3f0f0017cdfcf7,142,2,2024-02-27T10:05:08.801Z,french_486.wav,0,poule,499,33,4,5,Français,m,1,0.1,-93.57114331,0.9577819
5d726b8a0c3f0f0017cdfcf7,142,2,2024-02-27T10:05:08.801Z,french_486.wav,0,poule,499,33,4,5,Français,m,2,0.2,-51.69797787,0.68553835
5d726b8a0c3f0f0017cdfcf7,142,2,2024-02-27T10:05:08.801Z,french_486.wav,0,poule,499,33,4,5,Français,m,3,0.25666667,-3.30938414,0.55056833
5d726b8a0c3f0f0017cdfcf7,143,2,2024-02-27T10:05:08.801Z,french_730.wav,0,poule,425,33,4,5,Français,m,0,0.0,45.92676741,0.18014666
5d726b8a0c3f0f0017cdfcf7,143,2,2024-02-27T10:05:08.801Z,french_730.wav,0,poule,425,33,4,5,Français,m,1,0.1,-44.36449205,1.39371349
5d726b8a0c3f0f0017cdfcf7,143,2,2024-02-27T10:05:08.801Z,french_730.wav,0,poule,425,33,4,5,Français,m,2,0.2,-0.92451291,1.11032992
5d726b8a0c3f0f0017cdfcf7,143,2,2024-02-27T10:05:08.801Z,french_730.wav,0,poule,425,33,4,5,Français,m,3,0.25666667,30.80646356,1.142585
5d726b8a0c3f0f0017cdfcf7,144,2,2024-02-27T10:05:08.801Z,french_286.wav,0,pull,691,33,4,5,Français,m,0,0.0,-12.75776796,0.7334837
5d726b8a0c3f0f0017cdfcf7,144,2,2024-02-27T10:05:08.801Z,french_286.wav,0,pull,691,33,4,5,Français,m,1,0.1,37.83162005,0.13945261
5d726b8a0c3f0f0017cdfcf7,144,2,2024-02-27T10:05:08.801Z,french_286.wav,0,pull,691,33,4,5,Français,m,2,0.2,-73.99987606,0.89700821
5d726b8a0c3f0f0017cdfcf7,144,2,2024-02-27T10:05:08.801Z,french_286.wav,0,pull,691,33,4,5,Français,m,3,0.25666667,-99.59641202,0.06192005
5d726b8a0c3f0f0017cdfcf7,145,2,2024-02-27T10:05:08.801Z,french_238.wav,0,poule,3566,33,4,5,Français,m,0,0.0,-7.77377299,1.79398275
5d726b8a0c3f0f0017cdfcf7,145,2,2024-02-27T10:05:08.801Z,french_238.wav,0,poule,3566,33,4,5,Français,m,1,0.1,24.08862247,0.12404774
5d726b8a0c3f0f0017cdfcf7,145,2,2024-02-27T10:05:08.801Z,french_238.wav,0,poule,3566,33,4,5,Français,m,2,0.2,87.10581208,0.76943839
5d726b8a0c3f0f0017cdfcf7,145,2,2024-02-27T10:05:08.801Z,french_238.wav,0,poule,3566,33,4,5,Français,m,3,0.25666667,73.57906518,1.68164748
5d726b8a0c3f0f0017cdfcf7,146,2,2024-02-27T10:05:08.801Z,french_893.wav,0,poule,2671,33,4,5,Français,m,0,0.0,-94.12021506,0.88252126
5d726b8a0c3f0f0017cdfcf7,146,2,2024-02-27T10:05:08.801Z,french_893.wav,0,poule,2671,33,4,5,Français,m,1,0.1,53.79826098,0.31460198
5d726b8a0c3f0f0017cdfcf7,146,2,2024-02-27T10:05:08.801Z,french_893.wav,0,poule,2671,33,4,5,Français,m,2,0.2,-24.3553788,1.36492904
5d726b8a0c3f0f0017cdfcf7,146,2,2024-02-27T10:05:08.801Z,french_893.wav,0,poule,2671,33,4,5,Français,m,3,0.25666667,-81.90861644,1.93292807
5d726b8a0c3f0f0017cdfcf7,147,2,2024-02-27T10:05:08.801Z,french_62.wav,0,pull,483,33,4,5,Français,m,0,0.0,-14.31975686,0.1654928
5d726b8a0c3f0f0017cdfcf7,147,2,2024-02-27T10:05:08.801Z,french_62.wav,0,pull,483,33,4,5,Français,m,1,0.1,44.56193131,0.95189119
5d726b8a0c3f0f0017cdfcf7,147,2,2024-02-27T10:05:08.801Z,french_62.wav,0,pull,483,33,4,5,Français,m,2,0.2,-86.7672378,0.13775192
5d726b8a0c3f0f0017cdfcf7,147,2,2024-02-27T10:05:08.801Z,french_62.wav,0,pull,483,33,4,5,Français,m,3,0.25666667,88.73328565,1.69441392
5d726b8a0c3f0f0017cdfcf7,148,2,2024-02-27T10:05:08.801Z,french_806.wav,0,poule,256,33,4,5,Français,m,0,0.0,97.26957313,1.48673004
5d726b8a0c3f0f0017cdfcf7,148,2,2024-02-27T10:05:08.801Z,french_806.wav,0,poule,256,33,4,5,Français,m,1,0.1,79.44562669,1.9967546
5d726b8a0c3f0f0017cdfcf7,148,2,2024-02-27T10:05:08.801Z,french_806.wav,0,poule,256,33,4,5,Français,m,2,0.2,79.77586719,0.9238106
5d726b8a0c3f0f0017cdfcf7,148,2,2024-02-27T10:05:08.801Z,french_806.wav,0,poule,256,33,4,5,Français,m,3,0.25666667,-46.2684083,1.39755131
5d726b8a0c3f0f0017cdfcf7,149,2,2024-02-27T10:05:08.801Z,french_888.wav,0,pull,838,33,4,5,Français,m,0,0.0,-7.09076065,0.01679895
5d726b8a0c3f0f0017cdfcf7,149,2,2024-02-27T10:05:08.801Z,french_888.wav,0,pull,838,33,4,5,Français,m,1,0.1,62.1549683,1.75942782
5d726b8a0c3f0f0017cdfcf7,149,2,2024-02-27T10:05:08.801Z,french_888.wav,0,pull,838,33,4,5,Français,m,2,0.2,-14.42714579,0.28698877
5d726b8a0c3f0f0017cdfcf7,149,2,2024-02-27T10:05:08.801Z,french_888.wav,0,pull,838,33,4,5,Français,m,3,0.25666667,-85.6987995,1.72009857
5d726b8a0c3f0f0017cdfcf7,150,3,2024-02-27T10:09:01.054Z,french_623.wav,0,pull,1375,33,4,5,Français,m,0,0.0,39.03330695,1.53300878
5d726b8a0c3f0f0017cdfcf7,150,3,2024-02-27T10:09:01.054Z,french_623.wav,0,pull,1375,33,4,5,Français,m,1,0.1,53.03253456,0.64917122
5d726b8a0c3f0f0017cdfcf7,150,3,2024-02-27T10:09:01.054Z,french_623.wav,0,pull,1375,33,4,5,Français,m,2,0.2,-58.78521604,0.12116027
5d726b8a0c3f0f0017cdfcf7,150,3,2024-02-27T10:09:01.054Z,french_623.wav,0,pull,1375,33,4,5,Français,m,3,0.25666667,58.72042033,1.19887121
5d726b8a0c3f0f0017cdfcf7,151,3,2024-02-27T10:09:01.054Z,french_709.wav,0,poule,371,33,4,5,Français,m,0,0.0,-79.1228884,1.66046785
5d726b8a0c3f0f0017cdfcf7,151,3,2024-02-27T10:09:01.054Z,french_709.wav,0,poule,371,33,4,5,Français,m,1,0.1,-27.45222572,0.50815509
5d726b8a0c3f0f0017cdfcf7,151,3,2024-02-27T10:09:01.054Z,french_709.wav,0,poule,371,33,4,5,Français,m,2,0.2,-11.54770291,1.01994244
5d726b8a0c3f0f0017cdfcf7,151,3,2024-02-27T10:09:01.054Z,french_709.wav,0,poule,371,33,4,5,Français,m,3,0.25666667,-99.06734201,1.8368488
5d726b8a0c3f0f0017cdfcf7,152,3,2024-02-27T10:09:01.054Z,french_601.wav,0,pull,504,33,4,5,Français,m,0,0.0,57.33302671,0.25823262
5d726b8a0c3f0f0017cdfcf7,152,3,2024-02-27T10:09:01.054Z,french_601.wav,0,pull,504,33,4,5,Français,m,1,0.1,78.53356314,0.70648058
5d726b8a0c3f0f0017cdfcf7,152,3,2024-02-27T10:09:01.054Z,french_601.wav,0,pull,504,33,4,5,Français,m,2,0.2,-65.46800755,1.49897987
5d726b8a0c3f0f0017cdfcf7,152,3,2024-02-27T10:09:01.054Z,french_601.wav,0,pull,504,33,4,5,Français,m,3,0.25666667,15.04245158,0.53904812
5d726b8a0c3f0f0017cdfcf7,153,3,2024-02-27T10:09:01.054Z,french_889.wav,0,poule,216,33,4,5,Français,m,0,0.0,-11.44618348,1.60032155
5d726b8a0c3f0f0017cdfcf7,153,3,2024-02-27T10:09:01.054Z,french_889.wav,0,poule,216,33,4,5,Français,m,1,0.1,14.52697714,0.84860504
5d726b8a0c3f0f0017cdfcf7,153,3,2024-02-27T10:09:01.054Z,french_889.wav,0,poule,216,33,4,5,Français,m,2,0.2,-51.60315894,1.67734449
5d726b8a0c3f0f0017cdfcf7,153,3,2024-02-27T10:09:01.054Z,french_889.wav,0,poule,216,33,4,5,Français,m,3,0.25666667,40.16126686,0.04411269
5d726b8a0c3f0f0017cdfcf7,154,3,2024-02-27T10:09:01.054Z,french_599.wav,0,pull,553,33,4,5,Français,m,0,0.0,67.35107794,1.27225877
5d726b8a0c3f0f0017cdfcf7,154,3,2024-02-27T10:09:01.054Z,french_599.wav,0,pull,553,33,4,5,Français,m,1,0.1,-80.59112066,1.42607556
5d726b8a0c3f0f0017cdfcf7,154,3,2024-02-27T10:09:01.054Z,french_599.wav,0,pull,553,33,4,5,Français,m,2,0.2,8.51369184,0.27008032
5d726b8a0c3f0f0017cdfcf7,154,3,2024-02-27T10:09:01.054Z,french_599.wav,0,pull,553,33,4,5,Français,m,3,0.25666667,74.29539318,0.36016313
5d726b8a0c3f0f0017cdfcf7,155,3,2024-02-27T10:09:01.054Z,french_973.wav,0,poule,286,33,4,5,Français,m,0,0.0,-99.0384004,1.64247416
5d726b8a0c3f0f0017cdfcf7,155,3,2024-02-27T10:09:01.054Z,french_973.wav,0,poule,286,33,4,5,Français,m,1,0.1,40.13117567,0.98090528
5d726b8a0c3f0f0017cdfcf7,155,3,2024-02-27T10:09:01.054Z,french_973.wav,0,poule,286,33,4,5,Français,m,2,0.2,49.54188212,1.75566355
5d726b8a0c3f0f0017cdfcf7,155,3,2024-02-27T10:09:01.054Z,french_973.wav,0,poule,286,33,4,5,Français,m,3,0.25666667,89.60941169,0.64442147
5d726b8a0c3f0f0017cdfcf7,156,3,2024-02-27T10:09:01.054Z,french_711.wav,0,poule,264,33,4,5,Français,m,0,0.0,35.46622773,1.8142291
5d726b8a0c3f0f0017cdfcf7,156,3,2024-02-27T10:09:01.054Z,french_711.wav,0,poule,264,33,4,5,Français,m,1,0.1,62.41897997,1.39339975
5d726b8a0c3f0f0017cdfcf7,156,3,2024-02-27T10:09:01.054Z,french_711.wav,0,poule,264,33,4,5,Français,m,2,0.2,-12.16405894,1.57822467
5d726b8a0c3f0f0017cdfcf7,156,3,2024-02-27T10:09:01.054Z,french_711.wav,0,poule,264,33,4,5,Français,m,3,0.25666667,23.8007589,1.63044315
5d726b8a0c3f0f0017cdfcf7,157,3,2024-02-27T10:09:01.054Z,french_552.wav,0,poule,268,33,4,5,Français,m,0,0.0,-52.32363839,0.44295398
5d726b8a0c3f0f0017cdfcf7,157,3,2024-02-27T10:09:01.054Z,french_552.wav,0,poule,268,33,4,5,Français,m,1,0.1,23.44364533,1.4520287
5d726b8a0c3f0f0017cdfcf7,157,3,2024-02-27T10:09:01.054Z,french_552.wav,0,poule,268,33,4,5,Français,m,2,0.2,72.20212972,0.63620541
5d726b8a0c3f0f0017cdfcf7,157,3,2024-02-27T10:09:01.054Z,french_552.wav,0,poule,268,33,4,5,Français,m,3,0.25666667,-25.42911122,1.39952151
5d726b8a0c3f0f0017cdfcf7,158,3,2024-02-27T10:09:01.054Z,french_123.wav,0,poule,286,33,4,5,Français,m,0,0.0,47.28842571,1.09614989
5d726b8a0c3f0f0017cdfcf7,158,3,2024-02-27T10:09:01.054Z,french_123.wav,0,poule,286,33,4,5,Français,m,1,0.1,40.8763752,1.93529177
5d726b8a0c3f0f0017cdfcf7,158,3,2024-02-27T10:09:01.054Z,french_123.wav,0,poule,286,33,4,5,Français,m,2,0.2,-0.29365354,0.05812677
5d726b8a0c3f0f0017cdfcf7,158,3,2024-02-27T10:09:01.054Z,french_123.wav,0,poule,286,33,4,5,Français,m,3,0.25666667,-9.49286286,0.68816992
5d726b8a0c3f0f0017cdfcf7,159,3,2024-02-27T10:09:01.054Z,french_984.wav,0,poule,366,33,4,5,Français,m,0,0.0,-47.91850728,0.65620753
5d726b8a0c3f0f0017cdfcf7,159,3,2024-02-27T10:09:01.054Z,french_984.wav,0,poule,366,33,4,5,Français,m,1,0.1,26.54192822,0.71747565
5d726b8a0c3f0f0017cdfcf7,159,3,2024-02-27T10:09:01.054Z,french_984.wav,0,poule,366,33,4,5,Français,m,2,0.2,31.46018772,1.52452255
5d726b8a0c3f0f0017cdfcf7,159,3,2024-02-27T10:09:01.054Z,french_984.wav,0,poule,366,33,4,5,Français,m,3,0.25666667,54.61358492,1.85839607
5d726b8a0c3f0f0017cdfcf7,160,3,2024-02-27T10:09:01.054Z,french_967.wav,0,poule,854,33,4,5,Français,m,0,0.0,79.70451557,1.26694721
5d726b8a0c3f0f0017cdfcf7,160,3,2024-02-27T10:09:01.054Z,french_967.wav,0,poule,854,33,4,5,Français,m,1,0.1,-96.60134716,0.15349476
5d726b8a0c3f0f0017cdfcf7,160,3,2024-02-27T10:09:01.054Z,french_967.wav,0,poule,854,33,4,5,Français,m,2,0.2,12.1279289,0.99393875
5d726b8a0c3f0f0017cdfcf7,160,3,2024-02-27T10:09:01.054Z,french_967.wav,0,poule,854,33,4,5,Français,m,3,0.25666667,-44.3997303,1.32782977
5d726b8a0c3f0f0017cdfcf7,161,3,2024-02-27T10:09:01.054Z,french_574.wav,0,poule,497,33,4,5,Français,m,0,0.0,-78.43657591,1.27247015
5d726b8a0c3f0f0017cdfcf7,161,3,2024-02-27T10:09:01.054Z,french_574.wav,0,poule,497,33,4,5,Français,m,1,0.1,25.16959944,0.78898338
5d726b8a0c3f0f0017cdfcf7,161,3,2024-02-27T10:09:01.054Z,french_574.wav,0,poule,497,33,4,5,Français,m,2,0.2,42.97785019,1.49121094
5d726b8a0c3f0f0017cdfcf7,161,3,2024-02-27T10:09:01.054Z,french_574.wav,0,poule,497,33,4,5,Français,m,3,0.25666667,77.36764491,0.68004104
5d726b8a0c3f0f0017cdfcf7,162,3,2024-02-27T10:09:01.054Z,french_707.wav,0,pull,294,33,4,5,Français,m,0,0.0,77.25708539,0.72667473
5d726b8a0c3f0f0017cdfcf7,162,3,2024-02-27T10:09:01.054Z,french_707.wav,0,pull,294,33,4,5,Français,m,1,0.1,-54.8008957,1.98017833
5d726b8a0c3f0f0017cdfcf7,162,3,2024-02-27T10:09:01.054Z,french_707.wav,0,pull,294,33,4,5,Français,m,2,0.2,-15.62691875,0.70006776
5d726b8a0c3f0f0017cdfcf7,162,3,2024-02-27T10:09:01.054Z,french_707.wav,0,pull,294,33,4,5,Français,m,3,0.25666667,8.64437522,1.11828401
5d726b8a0c3f0f0017cdfcf7,163,3,2024-02-27T10:09:01.054Z,french_469.wav,0,poule,1825,33,4,5,Français,m,0,0.0,66.71351684,0.70736983
5d726b8a0c3f0f0017cdfcf7,163,3,2024-02-27T10:09:01.054Z,french_469.wav,0,poule,1825,33,4,5,Français,m,1,0.1,-62.03219977,0.37939516
5d726b8a0c3f0f0017cdfcf7,163,3,2024-02-27T10:09:01.054Z,french_469.wav,0,poule,1825,33,4,5,Français,m,2,0.2,3.50074433,0.65236
5d726b8a0c3f0f0017cdfcf7,163,3,2024-02-27T10:09:01.054Z,french_469.wav,0,poule,1825,33,4,5,Français,m,3,0.25666667,58.03584826,0.94960182
5d726b8a0c3f0f0017cdfcf7,164,3,2024-02-27T10:09:01.054Z,french_813.wav,0,poule,933,33,4,5,Français,m,0,0.0,-37.07388554,0.1380457
5d726b8a0c3f0f0017cdfcf7,164,3,2024-02-27T10:09:01.054Z,french_813.wav,0,poule,933,33,4,5,Français,m,1,0.1,74.87893645,0.44333359
5d726b8a0c3f0f0017cdfcf7,164,3,2024-02-27T10:09:01.054Z,french_813.wav,0,poule,933,33,4,5,Français,m,2,0.2,-91.66198227,0.5462976
5d726b8a0c3f0f0017cdfcf7,164,3,2024-02-27T10:09:01.054Z,french_813.wav,0,poule,933,33,4,5,Français,m,3,0.25666667,81.38219901,1.94163826
5d726b8a0c3f0f0017cdfcf7,165,3,2024-02-27T10:09:01.054Z,french_571.wav,0,poule,400,33,4,5,Français,m,0,0.0,31.56469904,0.97268691
5d726b8a0c3f0f0017cdfcf7,165,3,2024-02-27T10:09:01.054Z,french_571.wav,0,poule,400,33,4,5,Français,m,1,0.1,44.5277229,1.62706688
5d726b8a0c3f0f0017cdfcf7,165,3,2024-02-27T10:09:01.054Z,french_571.wav,0,poule,400,33,4,5,Français,m,2,0.2,41.67262287,1.42821868
5d726b8a0c3f0f0017cdfcf7,165,3,2024-02-27T10:09:01.054Z,french_571.wav,0,poule,400,33,4,5,Français,m,3,0.25666667,9.54247743,0.83693393
5d726b8a0c3f0f0017cdfcf7,166,3,2024-02-27T10:09:01.054Z,french_817.wav,0,pull,584,33,4,5,Français,m,0,0.0,78.06162864,0.52442488
5d726b8a0c3f0f0017cdfcf7,166,3,2024-02-27T10:09:01.054Z,french_817.wav,0,pull,584,33,4,5,Français,m,1,0.1,7.60258692,1.548285
5d726b8a0c3f0f0017cdfcf7,166,3,2024-02-27T10:09:01.054Z,french_817.wav,0,pull,584,33,4,5,Français,m,2,0.2,-72.81657303,0.10823364
5d726b8a0c3f0f0017cdfcf7,166,3,2024-02-27T10:09:01.054Z,french_817.wav,0,pull,584,33,4,5,Français,m,3,0.25666667,58.9269084,1.31415279
5d726b8a0c3f0f0017cdfcf7,167,3,2024-02-27T10:09:01.054Z,french_33.wav,0,poule,446,33,4,5,Français,m,0,0.0,57.46883034,0.51774601
5d726b8a0c3f0f0017cdfcf7,167,3,2024-02-27T10:09:01.054Z,french_33.wav,0,poule,446,33,4,5,Français,m,1,0.1,-37.75467747,0.34297047
5d726b8a0c3f0f0017cdfcf7,167,3,2024-02-27T10:09:01.054Z,french_33.wav,0,poule,446,33,4,5,Français,m,2,0.2,37.26126111,0.88429292
5d726b8a0c3f0f0017cdfcf7,167,3,2024-02-27T10:09:01.054Z,french_33.wav,0,poule,446,33,4,5,Français,m,3,0.25666667,30.73694303,0.45040489
5d726b8a0c3f0f0017cdfcf7,168,3,2024-02-27T10:09:01.054Z,french_497.wav,0,poule,690,33,4,5,Français,m,0,0.0,-34.77858655,0.98641894
5d726b8a0c3f0f0017cdfcf7,168,3,2024-02-27T10:09:01.054Z,french_497.wav,0,poule,690,33,4,5,Français,m,1,0.1,-52.52188589,1.48106735
5d726b8a0c3f0f0017cdfcf7,168,3,2024-02-27T10:09:01.054Z,french_497.wav,0,poule,690,33,4,5,Français,m,2,0.2,81.6415951,1.37619597
5d726b8a0c3f0f0017cdfcf7,168,3,2024-02-27T10:09:01.054Z,french_497.wav,0,poule,690,33,4,5,Français,m,3,0.25666667,23.98828418,1.87248846
5d726b8a0c3f0f0017cdfcf7,169,3,2024-02-27T10:09:01.054Z,french_20.wav,0,poule,4655,33,4,5,Français,m,0,0.0,-78.24291845,1.07200279
5d726b8a0c3f0f0017cdfcf7,169,3,2024-02-27T10:09:01.054Z,french_20.wav,0,poule,4655,33,4,5,Français,m,1,0.1,-38.50442353,1.52694999
5d726b8a0c3f0f0017cdfcf7,169,3,2024-02-27T10:09:01.054Z,french_20.wav,0,poule,4655,33,4,5,Français,m,2,0.2,8.39731749,0.86133356
5d726b8a0c3f0f0017cdfcf7,169,3,2024-02-27T10:09:01.054Z,french_20.wav,0,poule,4655,33,4,5,Français,m,3,0.25666667,-43.87764948,0.74788424
5d726b8a0c3f0f0017cdfcf7,170,3,2024-02-27T10:09:01.054Z,french_491.wav,0,poule,1019,33,4,5,Français,m,0,0.0,48.686868,0.42969684
5d726b8a0c3f0f0017cdfcf7,170,3,2024-02-27T10:09:01.054Z,french_491.wav,0,poule,1019,33,4,5,Français,m,1,0.1,-48.1683993,1.38937301
5d726b8a0c3f0f0017cdfcf7,170,3,2024-02-27T10:09:01.054Z,french_491.wav,0,poule,1019,33,4,5,Français,m,2,0.2,-42.3609681,1.25630672
5d726b8a0c3f0f0017cdfcf7,170,3,2024-02-27T10:09:01.054Z,french_491.wav,0,poule,1019,33,4,5,Français,m,3,0.256666667,0.024958216,0.04562268
5d726b8a0c3f0f0017cdfcf7,171,3,2024-02-27T10:09:01.054Z,french_598.wav,0,pull,577,33,4,5,Français,m,0,0.0,21.68363658,1.67467049
5d726b8a0c3f0f0017cdfcf7,171,3,2024-02-27T10:09:01.054Z,french_598.wav,0,pull,577,33,4,5,Français,m,1,0.1,-21.32750779,0.64095668
5d726b8a0c3f0f0017cdfcf7,171,3,2024-02-27T10:09:01.054Z,french_598.wav,0,pull,577,33,4,5,Français,m,2,0.2,7.72514192,0.23575639
5d726b8a0c3f0f0017cdfcf7,171,3,2024-02-27T10:09:01.054Z,french_598.wav,0,pull,577,33,4,5,Français,m,3,0.25666667,-29.17866519,0.51628457
5d726b8a0c3f0f0017cdfcf7,172,3,2024-02-27T10:09:01.054Z,french_951.wav,0,poule,356,33,4,5,Français,m,0,0.0,-15.86004077,0.48185357
5d726b8a0c3f0f0017cdfcf7,172,3,2024-02-27T10:09:01.054Z,french_951.wav,0,poule,356,33,4,5,Français,m,1,0.1,60.12120799,0.27819881
5d726b8a0c3f0f0017cdfcf7,172,3,2024-02-27T10:09:01.054Z,french_951.wav,0,poule,356,33,4,5,Français,m,2,0.2,81.27761476,1.97659335
5d726b8a0c3f0f0017cdfcf7,172,3,2024-02-27T10:09:01.054Z,french_951.wav,0,poule,356,33,4,5,Français,m,3,0.25666667,61.27828768,1.07257799
5d726b8a0c3f0f0017cdfcf7,173,3,2024-02-27T10:09:01.054Z,french_745.wav,0,pull,583,33,4,5,Français,m,0,0.0,-23.86566831,1.27696082
5d726b8a0c3f0f0017cdfcf7,173,3,2024-02-27T10:09:01.054Z,french_745.wav,0,pull,583,33,4,5,Français,m,1,0.1,-33.24912316,1.44075169
5d726b8a0c3f0f0017cdfcf7,173,3,2024-02-27T10:09:01.054Z,french_745.wav,0,pull,583,33,4,5,Français,m,2,0.2,45.69666298,0.50413087
5d726b8a0c3f0f0017cdfcf7,173,3,2024-02-27T10:09:01.054Z,french_745.wav,0,pull,583,33,4,5,Français,m,3,0.25666667,-83.60192647,0.37289443
5d726b8a0c3f0f0017cdfcf7,174,3,2024-02-27T10:09:01.054Z,french_292.wav,0,poule,569,33,4,5,Français,m,0,0.0,-5.98307963,1.30181039
5d726b8a0c3f0f0017cdfcf7,174,3,2024-02-27T10:09:01.054Z,french_292.wav,0,poule,569,33,4,5,Français,m,1,0.1,-89.4143915,0.71580693
5d726b8a0c3f0f0017cdfcf7,174,3,2024-02-27T10:09:01.054Z,french_292.wav,0,poule,569,33,4,5,Français,m,2,0.2,50.82370108,0.58623796
5d726b8a0c3f0f0017cdfcf7,174,3,2024-02-27T10:09:01.054Z,french_292.wav,0,poule,569,33,4,5,Français,m,3,0.25666667,-75.87081721,1.49080339
5d726b8a0c3f0f0017cdfcf7,175,3,2024-02-27T10:09:01.054Z,french_770.wav,0,poule,416,33,4,5,Français,m,0,0.0,28.65055954,1.27945621
5d726b8a0c3f0f0017cdfcf7,175,3,2024-02-27T10:09:01.054Z,french_770.wav,0,poule,416,33,4,5,Français,m,1,0.1,-72.95217839,1.48453538
5d726b8a0c3f0f0017cdfcf7,175,3,2024-02-27T10:09:01.054Z,french_770.wav,0,poule,416,33,4,5,Français,m,2,0.2,-37.01197006,1.47789059
5d726b8a0c3f0f0017cdfcf7,175,3,2024-02-27T10:09:01.054Z,french_770.wav,0,poule,416,33,4,5,Français,m,3,0.25666667,17.9887053,1.81501711
5d726b8a0c3f0f0017cdfcf7,176,3,2024-02-27T10:09:01.054Z,french_106.wav,0,poule,338,33,4,5,Français,m,0,0.0,-80.93311261,0.79978414
5d726b8a0c3f0f0017cdfcf7,176,3,2024-02-27T10:09:01.054Z,french_106.wav,0,poule,338,33,4,5,Français,m,1,0.1,7.33604761,0.87655026
5d726b8a0c3f0f0017cdfcf7,176,3,2024-02-27T10:09:01.054Z,french_106.wav,0,poule,338,33,4,5,Français,m,2,0.2,53.45287064,1.02362607
5d726b8a0c3f0f0017cdfcf7,176,3,2024-02-27T10:09:01.054Z,french_106.wav,0,poule,338,33,4,5,Français,m,3,0.25666667,-26.77526802,1.25354946
5d726b8a0c3f0f0017cdfcf7,177,3,2024-02-27T10:09:01.054Z,french_139.wav,0,poule,408,33,4,5,Français,m,0,0.0,55.8945715,0.94357116
5d726b8a0c3f0f0017cdfcf7,177,3,2024-02-27T10:09:01.054Z,french_139.wav,0,poule,408,33,4,5,Français,m,1,0.1,-37.58065727,0.51247941
5d726b8a0c3f0f0017cdfcf7,177,3,2024-02-27T10:09:01.054Z,french_139.wav,0,poule,408,33,4,5,Français,m,2,0.2,-36.76334563,1.17002066
5d726b8a0c3f0f0017cdfcf7,177,3,2024-02-27T10:09:01.054Z,french_139.wav,0,poule,408,33,4,5,Français,m,3,0.25666667,4.9296063,0.00285273
5d726b8a0c3f0f0017cdfcf7,178,3,2024-02-27T10:09:01.054Z,french_536.wav,0,poule,527,33,4,5,Français,m,0,0.0,68.67423581,1.72386473
5d726b8a0c3f0f0017cdfcf7,178,3,2024-02-27T10:09:01.054Z,french_536.wav,0,poule,527,33,4,5,Français,m,1,0.1,-41.0053329,0.5365144
5d726b8a0c3f0f0017cdfcf7,178,3,2024-02-27T10:09:01.054Z,french_536.wav,0,poule,527,33,4,5,Français,m,2,0.2,83.63020031,1.03248729
5d726b8a0c3f0f0017cdfcf7,178,3,2024-02-27T10:09:01.054Z,french_536.wav,0,poule,527,33,4,5,Français,m,3,0.25666667,91.23175369,0.91736707
5d726b8a0c3f0f0017cdfcf7,179,3,2024-02-27T10:09:01.054Z,french_156.wav,0,poule,266,33,4,5,Français,m,0,0.0,31.92379501,1.0555525
5d726b8a0c3f0f0017cdfcf7,179,3,2024-02-27T10:09:01.054Z,french_156.wav,0,poule,266,33,4,5,Français,m,1,0.1,-44.87917853,1.35077548
5d726b8a0c3f0f0017cdfcf7,179,3,2024-02-27T10:09:01.054Z,french_156.wav,0,poule,266,33,4,5,Français,m,2,0.2,-30.25450012,0.66649605
5d726b8a0c3f0f0017cdfcf7,179,3,2024-02-27T10:09:01.054Z,french_156.wav,0,poule,266,33,4,5,Français,m,3,0.25666667,-8.41227372,1.59075988
5d726b8a0c3f0f0017cdfcf7,180,3,2024-02-27T10:09:01.054Z,french_273.wav,0,pull,509,33,4,5,Français,m,0,0.0,-64.70279697,0.53531099
5d726b8a0c3f0f0017cdfcf7,180,3,2024-02-27T10:09:01.054Z,french_273.wav,0,pull,509,33,4,5,Français,m,1,0.1,51.79292953,0.11586536
5d726b8a0c3f0f0017cdfcf7,180,3,2024-02-27T10:09:01.054Z,french_273.wav,0,pull,509,33,4,5,Français,m,2,0.2,-96.4801009,0.21168864
5d726b8a0c3f0f0017cdfcf7,180,3,2024-02-27T10:09:01.054Z,french_273.wav,0,pull,509,33,4,5,Français,m,3,0.25666667,93.42641001,1.2771199
5d726b8a0c3f0f0017cdfcf7,181,3,2024-02-27T10:09:01.054Z,french_630.wav,0,poule,1305,33,4,5,Français,m,0,0.0,77.73428331,1.3363399
5d726b8a0c3f0f0017cdfcf7,181,3,2024-02-27T10:09:01.054Z,french_630.wav,0,poule,1305,33,4,5,Français,m,1,0.1,-25.60495453,1.21399003
5d726b8a0c3f0f0017cdfcf7,181,3,2024-02-27T10:09:01.054Z,french_630.wav,0,poule,1305,33,4,5,Français,m,2,0.2,64.05787884,0.69039687
5d726b8a0c3f0f0017cdfcf7,181,3,2024-02-27T10:09:01.054Z,french_630.wav,0,poule,1305,33,4,5,Français,m,3,0.25666667,12.38181906,0.92340198
5d726b8a0c3f0f0017cdfcf7,182,3,2024-02-27T10:09:01.054Z,french_244.wav,0,poule,898,33,4,5,Français,m,0,0.0,-1.19097064,0.99374935
5d726b8a0c3f0f0017cdfcf7,182,3,2024-02-27T10:09:01.054Z,french_244.wav,0,poule,898,33,4,5,Français,m,1,0.1,-92.85229973,0.05831089
5d726b8a0c3f0f0017cdfcf7,182,3,2024-02-27T10:09:01.054Z,french_244.wav,0,poule,898,33,4,5,Français,m,2,0.2,-96.93666457,1.01399938
5d726b8a0c3f0f0017cdfcf7,182,3,2024-02-27T10:09:01.054Z,french_244.wav,0,poule,898,33,4,5,Français,m,3,0.25666667,-48.92774089,0.05507298
5d726b8a0c3f0f0017cdfcf7,183,3,2024-02-27T10:09:01.054Z,french_217.wav,0,pull,6945,33,4,5,Français,m,0,0.0,-8.63904718,0.91131932
5d726b8a0c3f0f0017cdfcf7,183,3,2024-02-27T10:09:01.054Z,french_217.wav,0,pull,6945,33,4,5,Français,m,1,0.1,71.12460489,1.66035555
5d726b8a0c3f0f0017cdfcf7,183,3,2024-02-27T10:09:01.054Z,french_217.wav,0,pull,6945,33,4,5,Français,m,2,0.2,81.48384407,0.95248702
5d726b8a0c3f0f0017cdfcf7,183,3,2024-02-27T10:09:01.054Z,french_217.wav,0,pull,6945,33,4,5,Français,m,3,0.25666667,64.01477431,0.54451157
5d726b8a0c3f0f0017cdfcf7,184,3,2024-02-27T10:09:01.054Z,french_528.wav,0,poule,608,33,4,5,Français,m,0,0.0,88.85530458,1.69331748
5d726b8a0c3f0f0017cdfcf7,184,3,2024-02-27T10:09:01.054Z,french_528.wav,0,poule,608,33,4,5,Français,m,1,0.1,-87.19636625,0.73621757
5d726b8a0c3f0f0017cdfcf7,184,3,2024-02-27T10:09:01.054Z,french_528.wav,0,poule,608,33,4,5,Français,m,2,0.2,-45.08147721,0.82405603
5d726b8a0c3f0f0017cdfcf7,184,3,2024-02-27T10:09:01.054Z,french_528.wav,0,poule,608,33,4,5,Français,m,3,0.25666667,86.03081593,0.01123483
5d726b8a0c3f0f0017cdfcf7,185,3,2024-02-27T10:09:01.054Z,french_424.wav,0,poule,4662,33,4,5,Français,m,0,0.0,61.39777876,0.24361375
5d726b8a0c3f0f0017cdfcf7,185,3,2024-02-27T10:09:01.054Z,french_424.wav,0,poule,4662,33,4,5,Français,m,1,0.1,-8.76552132,1.04711526
5d726b8a0c3f0f0017cdfcf7,185,3,2024-02-27T10:09:01.054Z,french_424.wav,0,poule,4662,33,4,5,Français,m,2,0.2,33.4280736,1.33335174
5d726b8a0c3f0f0017cdfcf7,185,3,2024-02-27T10:09:01.054Z,french_424.wav,0,poule,4662,33,4,5,Français,m,3,0.25666667,8.6823295,0.59077303
5d726b8a0c3f0f0017cdfcf7,186,3,2024-02-27T10:09:01.054Z,french_302.wav,0,poule,1927,33,4,5,Français,m,0,0.0,8.4067376,0.06791418
5d726b8a0c3f0f0017cdfcf7,186,3,2024-02-27T10:09:01.054Z,french_302.wav,0,poule,1927,33,4,5,Français,m,1,0.1,-29.32780789,1.46578571
5d726b8a0c3f0f0017cdfcf7,186,3,2024-02-27T10:09:01.054Z,french_302.wav,0,poule,1927,33,4,5,Français,m,2,0.2,-43.35590711,1.81098556
5d726b8a0c3f0f0017cdfcf7,186,3,2024-02-27T10:09:01.054Z,french_302.wav,0,poule,1927,33,4,5,Français,m,3,0.25666667,-44.50549756,1.40235265
5d726b8a0c3f0f0017cdfcf7,187,3,2024-02-27T10:09:01.054Z,french_638.wav,0,poule,709,33,4,5,Français,m,0,0.0,-18.90498038,0.47409532
5d726b8a0c3f0f0017cdfcf7,187,3,2024-02-27T10:09:01.054Z,french_638.wav,0,poule,709,33,4,5,Français,m,1,0.1,-28.86355513,1.76910273
5d726b8a0c3f0f0017cdfcf7,187,3,2024-02-27T10:09:01.054Z,french_638.wav,0,poule,709,33,4,5,Français,m,2,0.2,-97.62198235,0.72222374
5d726b8a0c3f0f0017cdfcf7,187,3,2024-02-27T10:09:01.054Z,french_638.wav,0,poule,709,33,4,5,Français,m,3,0.25666667,26.30993693,0.09803926
5d726b8a0c3f0f0017cdfcf7,188,3,2024-02-27T10:09:01.054Z,french_849.wav,0,poule,696,33,4,5,Français,m,0,0.0,-28.99181256,1.60316931
5d726b8a0c3f0f0017cdfcf7,188,3,2024-02-27T10:09:01.054Z,french_849.wav,0,poule,696,33,4,5,Français,m,1,0.1,-23.83365043,0.33831848
5d726b8a0c3f0f0017cdfcf7,188,3,2024-02-27T10:09:01.054Z,french_849.wav,0,poule,696,33,4,5,Français,m,2,0.2,-51.88410218,1.05589654
5d726b8a0c3f0f0017cdfcf7,188,3,2024-02-27T10:09:01.054Z,french_849.wav,0,poule,696,33,4,5,Français,m,3,0.25666667,-29.11212869,1.53017224
5d726b8a0c3f0f0017cdfcf7,189,3,2024-02-27T10:09:01.054Z,french_144.wav,0,pull,664,33,4,5,Français,m,0,0.0,54.7439873,1.65699933
5d726b8a0c3f0f0017cdfcf7,189,3,2024-02-27T10:09:01.054Z,french_144.wav,0,pull,664,33,4,5,Français,m,1,0.1,-90.40840953,0.10946834
5d726b8a0c3f0f0017cdfcf7,189,3,2024-02-27T10:09:01.054Z,french_144.wav,0,pull,664,33,4,5,Français,m,2,0.2,-23.8496949,0.63660565
5d726b8a0c3f0f0017cdfcf7,189,3,2024-02-27T10:09:01.054Z,french_144.wav,0,pull,664,33,4,5,Français,m,3,0.25666667,9.69074846,0.31092992
