subj,trial,block,date,stim,stim_order,response,rt,age,english,french,language,sex,param_index,segment,pitch,stretch
657b128079618c853ed056b4,0,0,2024-02-24T09:13:04.163Z,french_17.wav,0,pull,5354,62,4,5,français,m,0,0.0,61.86852427,1.05769551
657b128079618c853ed056b4,0,0,2024-02-24T09:13:04.163Z,french_17.wav,0,pull,5354,62,4,5,français,m,1,0.1,14.81642836,0.81667418
657b128079618c853ed056b4,0,0,2024-02-24T09:13:04.163Z,french_17.wav,0,pull,5354,62,4,5,français,m,2,0.2,-8.48865215,0.51249479
657b128079618c853ed056b4,0,0,2024-02-24T09:13:04.163Z,french_17.wav,0,pull,5354,62,4,5,français,m,3,0.25666667,71.68336874,0.29939213
657b128079618c853ed056b4,1,0,2024-02-24T09:13:04.163Z,french_98.wav,0,poule,3763,62,4,5,français,m,0,0.0,-5.34356544,0.47275823
657b128079618c853ed056b4,1,0,2024-02-24T09:13:04.163Z,french_98.wav,0,poule,3763,62,4,5,français,m,1,0.1,-51.77157259,0.98771666
657b128079618c853ed056b4,1,0,2024-02-24T09:13:04.163Z,french_98.wav,0,poule,3763,62,4,5,français,m,2,0.2,16.6615471,0.01400035
657b128079618c853ed056b4,1,0,2024-02-24T09:13:04.163Z,french_98.wav,0,poule,3763,62,4,5,français,m,3,0.25666667,-37.68560636,0.42827786
657b128079618c853ed056b4,2,0,2024-02-24T09:13:04.163Z,french_134.wav,0,poule,1340,62,4,5,français,m,0,0.0,-65.58132827,0.68669704
657b128079618c853ed056b4,2,0,2024-02-24T09:13:04.163Z,french_134.wav,0,poule,1340,62,4,5,français,m,1,0.1,-89.82992505,1.50131287
657b128079618c853ed056b4,2,0,2024-02-24T09:13:04.163Z,french_134.wav,0,poule,1340,62,4,5,français,m,2,0.2,9.99695038,0.69598371
657b128079618c853ed056b4,2,0,2024-02-24T09:13:04.163Z,french_134.wav,0,poule,1340,62,4,5,français,m,3,0.25666667,24.50908123,1.57047358
657b128079618c853ed056b4,3,0,2024-02-24T09:13:04.163Z,french_819.wav,0,poule,831,62,4,5,français,m,0,0.0,10.23888344,1.93351894
657b128079618c853ed056b4,3,0,2024-02-24T09:13:04.163Z,french_819.wav,0,poule,831,62,4,5,français,m,1,0.1,14.33129562,0.24790788
657b128079618c853ed056b4,3,0,2024-02-24T09:13:04.163Z,french_819.wav,0,poule,831,62,4,5,français,m,2,0.2,-57.61493264,1.58463495
657b128079618c853ed056b4,3,0,2024-02-24T09:13:04.163Z,french_819.wav,0,poule,831,62,4,5,français,m,3,0.25666667,33.17012155,0.31192511
657b128079618c853ed056b4,4,0,2024-02-24T09:13:04.163Z,french_810.wav,0,poule,2551,62,4,5,français,m,0,0.0,76.35600219,0.51042634
657b128079618c853ed056b4,4,0,2024-02-24T09:13:04.163Z,french_810.wav,0,poule,2551,62,4,5,français,m,1,0.1,33.05643104,0.40354819
657b128079618c853ed056b4,4,0,2024-02-24T09:13:04.163Z,french_810.wav,0,poule,2551,62,4,5,français,m,2,0.2,14.69103946,0.8135704
657b128079618c853ed056b4,4,0,2024-02-24T09:13:04.163Z,french_810.wav,0,poule,2551,62,4,5,français,m,3,0.25666667,-16.26362119,0.38644961
657b128079618c853ed056b4,5,0,2024-02-24T09:13:04.163Z,french_394.wav,0,pull,1301,62,4,5,français,m,0,0.0,-46.0867736,1.77850735
657b128079618c853ed056b4,5,0,2024-02-24T09:13:04.163Z,french_394.wav,0,pull,1301,62,4,5,français,m,1,0.1,-42.56429646,0.50210825
657b128079618c853ed056b4,5,0,2024-02-24T09:13:04.163Z,french_394.wav,0,pull,1301,62,4,5,français,m,2,0.2,31.61260766,1.1233825
657b128079618c853ed056b4,5,0,2024-02-24T09:13:04.163Z,french_394.wav,0,pull,1301,62,4,5,français,m,3,0.25666667,-7.99475259,0.72186821
657b128079618c853ed056b4,6,0,2024-02-24T09:13:04.163Z,french_910.wav,0,poule,1689,62,4,5,français,m,0,0.0,-48.65293901,0.34246772
657b128079618c853ed056b4,6,0,2024-02-24T09:13:04.163Z,french_910.wav,0,poule,1689,62,4,5,français,m,1,0.1,-4.89021115,1.03510625
657b128079618c853ed056b4,6,0,2024-02-24T09:13:04.163Z,french_910.wav,0,poule,1689,62,4,5,français,m,2,0.2,-57.2651588,1.59317518
657b128079618c853ed056b4,6,0,2024-02-24T09:13:04.163Z,french_910.wav,0,poule,1689,62,4,5,français,m,3,0.25666667,-57.53771148,0.91667414
657b128079618c853ed056b4,7,0,2024-02-24T09:13:04.163Z,french_852.wav,0,poule,932,62,4,5,français,m,0,0.0,-21.25647341,1.59129412
657b128079618c853ed056b4,7,0,2024-02-24T09:13:04.163Z,french_852.wav,0,poule,932,62,4,5,français,m,1,0.1,44.09899268,0.90931534
657b128079618c853ed056b4,7,0,2024-02-24T09:13:04.163Z,french_852.wav,0,poule,932,62,4,5,français,m,2,0.2,-20.54343266,0.17046498
657b128079618c853ed056b4,7,0,2024-02-24T09:13:04.163Z,french_852.wav,0,poule,932,62,4,5,français,m,3,0.25666667,-73.6389021,0.95788578
657b128079618c853ed056b4,8,0,2024-02-24T09:13:04.163Z,french_697.wav,0,poule,883,62,4,5,français,m,0,0.0,-19.8565912,1.89587242
657b128079618c853ed056b4,8,0,2024-02-24T09:13:04.163Z,french_697.wav,0,poule,883,62,4,5,français,m,1,0.1,-16.18456076,0.49072185
657b128079618c853ed056b4,8,0,2024-02-24T09:13:04.163Z,french_697.wav,0,poule,883,62,4,5,français,m,2,0.2,-70.77550193,1.8362568
657b128079618c853ed056b4,8,0,2024-02-24T09:13:04.163Z,french_697.wav,0,poule,883,62,4,5,français,m,3,0.25666667,-81.21106402,0.50078837
657b128079618c853ed056b4,9,0,2024-02-24T09:13:04.163Z,french_396.wav,0,pull,907,62,4,5,français,m,0,0.0,-42.7744445,0.31798537
657b128079618c853ed056b4,9,0,2024-02-24T09:13:04.163Z,french_396.wav,0,pull,907,62,4,5,français,m,1,0.1,3.59774391,0.67756986
657b128079618c853ed056b4,9,0,2024-02-24T09:13:04.163Z,french_396.wav,0,pull,907,62,4,5,français,m,2,0.2,-86.41595133,1.44355676
657b128079618c853ed056b4,9,0,2024-02-24T09:13:04.163Z,french_396.wav,0,pull,907,62,4,5,français,m,3,0.25666667,76.20152203,1.44326023
657b128079618c853ed056b4,10,0,2024-02-24T09:13:04.163Z,french_69.wav,0,pull,2531,62,4,5,français,m,0,0.0,-60.6968374,1.40310832
657b128079618c853ed056b4,10,0,2024-02-24T09:13:04.163Z,french_69.wav,0,pull,2531,62,4,5,français,m,1,0.1,-13.66133732,0.07324596
657b128079618c853ed056b4,10,0,2024-02-24T09:13:04.163Z,french_69.wav,0,pull,2531,62,4,5,français,m,2,0.2,-49.05218158,0.92091935
657b128079618c853ed056b4,10,0,2024-02-24T09:13:04.163Z,french_69.wav,0,pull,2531,62,4,5,français,m,3,0.25666667,-62.82393396,0.56730757
657b128079618c853ed056b4,11,0,2024-02-24T09:13:04.163Z,french_871.wav,0,poule,853,62,4,5,français,m,0,0.0,-4.85456223,1.97775754
657b128079618c853ed056b4,11,0,2024-02-24T09:13:04.163Z,french_871.wav,0,poule,853,62,4,5,français,m,1,0.1,78.38715758,1.19373072
657b128079618c853ed056b4,11,0,2024-02-24T09:13:04.163Z,french_871.wav,0,poule,853,62,4,5,français,m,2,0.2,-65.12117647,1.5578529
657b128079618c853ed056b4,11,0,2024-02-24T09:13:04.163Z,french_871.wav,0,poule,853,62,4,5,français,m,3,0.25666667,96.09900544,1.61262149
657b128079618c853ed056b4,12,0,2024-02-24T09:13:04.163Z,french_324.wav,0,pull,1559,62,4,5,français,m,0,0.0,19.03085887,0.73874118
657b128079618c853ed056b4,12,0,2024-02-24T09:13:04.163Z,french_324.wav,0,pull,1559,62,4,5,français,m,1,0.1,67.89064078,0.03678538
657b128079618c853ed056b4,12,0,2024-02-24T09:13:04.163Z,french_324.wav,0,pull,1559,62,4,5,français,m,2,0.2,-77.83323733,0.54818629
657b128079618c853ed056b4,12,0,2024-02-24T09:13:04.163Z,french_324.wav,0,pull,1559,62,4,5,français,m,3,0.25666667,-13.49414868,1.04853797
657b128079618c853ed056b4,13,0,2024-02-24T09:13:04.163Z,french_563.wav,0,poule,992,62,4,5,français,m,0,0.0,1.48089244,0.83142925
657b128079618c853ed056b4,13,0,2024-02-24T09:13:04.163Z,french_563.wav,0,poule,992,62,4,5,français,m,1,0.1,19.03426996,1.65727988
657b128079618c853ed056b4,13,0,2024-02-24T09:13:04.163Z,french_563.wav,0,poule,992,62,4,5,français,m,2,0.2,-28.07832236,1.36487064
657b128079618c853ed056b4,13,0,2024-02-24T09:13:04.163Z,french_563.wav,0,poule,992,62,4,5,français,m,3,0.25666667,33.25369521,0.18463038
657b128079618c853ed056b4,14,0,2024-02-24T09:13:04.163Z,french_474.wav,0,pull,4185,62,4,5,français,m,0,0.0,94.09836303,0.01406103
657b128079618c853ed056b4,14,0,2024-02-24T09:13:04.163Z,french_474.wav,0,pull,4185,62,4,5,français,m,1,0.1,43.08248712,1.41739343
657b128079618c853ed056b4,14,0,2024-02-24T09:13:04.163Z,french_474.wav,0,pull,4185,62,4,5,français,m,2,0.2,-98.14389097,1.7994516
657b128079618c853ed056b4,14,0,2024-02-24T09:13:04.163Z,french_474.wav,0,pull,4185,62,4,5,français,m,3,0.25666667,-80.28643924,0.15166218
657b128079618c853ed056b4,15,0,2024-02-24T09:13:04.163Z,french_66.wav,0,poule,2019,62,4,5,français,m,0,0.0,3.84925572,1.88939432
657b128079618c853ed056b4,15,0,2024-02-24T09:13:04.163Z,french_66.wav,0,poule,2019,62,4,5,français,m,1,0.1,75.48045935,0.3012797
657b128079618c853ed056b4,15,0,2024-02-24T09:13:04.163Z,french_66.wav,0,poule,2019,62,4,5,français,m,2,0.2,22.76512124,0.5045755
657b128079618c853ed056b4,15,0,2024-02-24T09:13:04.163Z,french_66.wav,0,poule,2019,62,4,5,français,m,3,0.25666667,45.08821781,1.63034278
657b128079618c853ed056b4,16,0,2024-02-24T09:13:04.163Z,french_93.wav,0,pull,2703,62,4,5,français,m,0,0.0,23.57211404,0.62732128
657b128079618c853ed056b4,16,0,2024-02-24T09:13:04.163Z,french_93.wav,0,pull,2703,62,4,5,français,m,1,0.1,-16.15934767,0.10811818
657b128079618c853ed056b4,16,0,2024-02-24T09:13:04.163Z,french_93.wav,0,pull,2703,62,4,5,français,m,2,0.2,25.54711871,0.30787392
657b128079618c853ed056b4,16,0,2024-02-24T09:13:04.163Z,french_93.wav,0,pull,2703,62,4,5,français,m,3,0.25666667,65.09284613,1.57978374
657b128079618c853ed056b4,17,0,2024-02-24T09:13:04.163Z,french_8.wav,0,poule,864,62,4,5,français,m,0,0.0,75.36204911,1.20802323
657b128079618c853ed056b4,17,0,2024-02-24T09:13:04.163Z,french_8.wav,0,poule,864,62,4,5,français,m,1,0.1,99.77980072,1.04694521
657b128079618c853ed056b4,17,0,2024-02-24T09:13:04.163Z,french_8.wav,0,poule,864,62,4,5,français,m,2,0.2,31.87407215,1.95307637
657b128079618c853ed056b4,17,0,2024-02-24T09:13:04.163Z,french_8.wav,0,poule,864,62,4,5,français,m,3,0.25666667,-3.14162979,0.34441347
657b128079618c853ed056b4,18,0,2024-02-24T09:13:04.163Z,french_714.wav,0,poule,870,62,4,5,français,m,0,0.0,77.35355583,0.35690042
657b128079618c853ed056b4,18,0,2024-02-24T09:13:04.163Z,french_714.wav,0,poule,870,62,4,5,français,m,1,0.1,-16.5812175,0.7400083
657b128079618c853ed056b4,18,0,2024-02-24T09:13:04.163Z,french_714.wav,0,poule,870,62,4,5,français,m,2,0.2,-79.42314022,1.17849399
657b128079618c853ed056b4,18,0,2024-02-24T09:13:04.163Z,french_714.wav,0,poule,870,62,4,5,français,m,3,0.25666667,64.71981705,1.38365213
657b128079618c853ed056b4,19,0,2024-02-24T09:13:04.163Z,french_431.wav,0,poule,760,62,4,5,français,m,0,0.0,-54.98282588,1.39465542
657b128079618c853ed056b4,19,0,2024-02-24T09:13:04.163Z,french_431.wav,0,poule,760,62,4,5,français,m,1,0.1,-84.59035382,1.77814632
657b128079618c853ed056b4,19,0,2024-02-24T09:13:04.163Z,french_431.wav,0,poule,760,62,4,5,français,m,2,0.2,-24.91317649,0.57412197
657b128079618c853ed056b4,19,0,2024-02-24T09:13:04.163Z,french_431.wav,0,poule,760,62,4,5,français,m,3,0.25666667,11.58207854,1.85348509
657b128079618c853ed056b4,20,0,2024-02-24T09:13:04.163Z,french_992.wav,0,poule,1080,62,4,5,français,m,0,0.0,88.64163737,1.670281
657b128079618c853ed056b4,20,0,2024-02-24T09:13:04.163Z,french_992.wav,0,poule,1080,62,4,5,français,m,1,0.1,46.51622821,0.7447474
657b128079618c853ed056b4,20,0,2024-02-24T09:13:04.163Z,french_992.wav,0,poule,1080,62,4,5,français,m,2,0.2,89.40723484,0.87778012
657b128079618c853ed056b4,20,0,2024-02-24T09:13:04.163Z,french_992.wav,0,poule,1080,62,4,5,français,m,3,0.25666667,-7.16948766,1.06303204
657b128079618c853ed056b4,21,0,2024-02-24T09:13:04.163Z,french_887.wav,0,poule,828,62,4,5,français,m,0,0.0,68.65167503,1.16380924
657b128079618c853ed056b4,21,0,2024-02-24T09:13:04.163Z,french_887.wav,0,poule,828,62,4,5,français,m,1,0.1,-55.72044546,1.74073633
657b128079618c853ed056b4,21,0,2024-02-24T09:13:04.163Z,french_887.wav,0,poule,828,62,4,5,français,m,2,0.2,-97.59121662,1.00138394
657b128079618c853ed056b4,21,0,2024-02-24T09:13:04.163Z,french_887.wav,0,poule,828,62,4,5,français,m,3,0.25666667,-40.12897823,1.21780512
657b128079618c853ed056b4,22,0,2024-02-24T09:13:04.163Z,french_398.wav,0,poule,690,62,4,5,français,m,0,0.0,6.24181165,1.03823517
657b128079618c853ed056b4,22,0,2024-02-24T09:13:04.163Z,french_398.wav,0,poule,690,62,4,5,français,m,1,0.1,-92.25652661,1.54229831
657b128079618c853ed056b4,22,0,2024-02-24T09:13:04.163Z,french_398.wav,0,poule,690,62,4,5,français,m,2,0.2,-10.16879246,1.61201148
657b128079618c853ed056b4,22,0,2024-02-24T09:13:04.163Z,french_398.wav,0,poule,690,62,4,5,français,m,3,0.25666667,42.06293659,1.50798312
657b128079618c853ed056b4,23,0,2024-02-24T09:13:04.163Z,french_292.wav,0,pull,1439,62,4,5,français,m,0,0.0,-5.98307963,1.30181039
657b128079618c853ed056b4,23,0,2024-02-24T09:13:04.163Z,french_292.wav,0,pull,1439,62,4,5,français,m,1,0.1,-89.4143915,0.71580693
657b128079618c853ed056b4,23,0,2024-02-24T09:13:04.163Z,french_292.wav,0,pull,1439,62,4,5,français,m,2,0.2,50.82370108,0.58623796
657b128079618c853ed056b4,23,0,2024-02-24T09:13:04.163Z,french_292.wav,0,pull,1439,62,4,5,français,m,3,0.25666667,-75.87081721,1.49080339
657b128079618c853ed056b4,24,0,2024-02-24T09:13:04.163Z,french_444.wav,0,poule,835,62,4,5,français,m,0,0.0,55.47353293,0.9328321
657b128079618c853ed056b4,24,0,2024-02-24T09:13:04.163Z,french_444.wav,0,poule,835,62,4,5,français,m,1,0.1,12.04434333,1.46542582
657b128079618c853ed056b4,24,0,2024-02-24T09:13:04.163Z,french_444.wav,0,poule,835,62,4,5,français,m,2,0.2,14.09264182,1.44584709
657b128079618c853ed056b4,24,0,2024-02-24T09:13:04.163Z,french_444.wav,0,poule,835,62,4,5,français,m,3,0.25666667,-80.20656615,1.50777595
657b128079618c853ed056b4,25,0,2024-02-24T09:13:04.163Z,french_808.wav,0,pull,921,62,4,5,français,m,0,0.0,-62.09526538,1.28254738
657b128079618c853ed056b4,25,0,2024-02-24T09:13:04.163Z,french_808.wav,0,pull,921,62,4,5,français,m,1,0.1,21.23234707,0.50843795
657b128079618c853ed056b4,25,0,2024-02-24T09:13:04.163Z,french_808.wav,0,pull,921,62,4,5,français,m,2,0.2,-93.15759374,0.88416038
657b128079618c853ed056b4,25,0,2024-02-24T09:13:04.163Z,french_808.wav,0,pull,921,62,4,5,français,m,3,0.25666667,-35.4638748,1.60061847
657b128079618c853ed056b4,26,0,2024-02-24T09:13:04.163Z,french_554.wav,0,pull,1107,62,4,5,français,m,0,0.0,-31.9650703,1.45983082
657b128079618c853ed056b4,26,0,2024-02-24T09:13:04.163Z,french_554.wav,0,pull,1107,62,4,5,français,m,1,0.1,78.95364823,0.40013818
657b128079618c853ed056b4,26,0,2024-02-24T09:13:04.163Z,french_554.wav,0,pull,1107,62,4,5,français,m,2,0.2,-0.5294376,0.96374115
657b128079618c853ed056b4,26,0,2024-02-24T09:13:04.163Z,french_554.wav,0,pull,1107,62,4,5,français,m,3,0.25666667,-36.78296127,1.20732856
657b128079618c853ed056b4,27,0,2024-02-24T09:13:04.163Z,french_487.wav,0,poule,2577,62,4,5,français,m,0,0.0,26.50580686,1.63350644
657b128079618c853ed056b4,27,0,2024-02-24T09:13:04.163Z,french_487.wav,0,poule,2577,62,4,5,français,m,1,0.1,-34.14449754,1.29368608
657b128079618c853ed056b4,27,0,2024-02-24T09:13:04.163Z,french_487.wav,0,poule,2577,62,4,5,français,m,2,0.2,66.18137857,0.20656395
657b128079618c853ed056b4,27,0,2024-02-24T09:13:04.163Z,french_487.wav,0,poule,2577,62,4,5,français,m,3,0.25666667,-7.03677771,1.93991824
657b128079618c853ed056b4,28,0,2024-02-24T09:13:04.163Z,french_994.wav,0,poule,1163,62,4,5,français,m,0,0.0,-39.66278541,0.39681658
657b128079618c853ed056b4,28,0,2024-02-24T09:13:04.163Z,french_994.wav,0,poule,1163,62,4,5,français,m,1,0.1,66.70535545,1.6498105
657b128079618c853ed056b4,28,0,2024-02-24T09:13:04.163Z,french_994.wav,0,poule,1163,62,4,5,français,m,2,0.2,-87.43703712,1.48803434
657b128079618c853ed056b4,28,0,2024-02-24T09:13:04.163Z,french_994.wav,0,poule,1163,62,4,5,français,m,3,0.25666667,-41.83233866,1.54058484
657b128079618c853ed056b4,29,0,2024-02-24T09:13:04.163Z,french_5.wav,0,pull,991,62,4,5,français,m,0,0.0,-2.8714843,1.07181682
657b128079618c853ed056b4,29,0,2024-02-24T09:13:04.163Z,french_5.wav,0,pull,991,62,4,5,français,m,1,0.1,-50.9441672,0.56733338
657b128079618c853ed056b4,29,0,2024-02-24T09:13:04.163Z,french_5.wav,0,pull,991,62,4,5,français,m,2,0.2,56.21180826,0.26773361
657b128079618c853ed056b4,29,0,2024-02-24T09:13:04.163Z,french_5.wav,0,pull,991,62,4,5,français,m,3,0.25666667,-57.18619957,1.97613039
657b128079618c853ed056b4,30,0,2024-02-24T09:13:04.163Z,french_659.wav,0,poule,865,62,4,5,français,m,0,0.0,85.50464417,1.33522586
657b128079618c853ed056b4,30,0,2024-02-24T09:13:04.163Z,french_659.wav,0,poule,865,62,4,5,français,m,1,0.1,65.46448613,1.79413259
657b128079618c853ed056b4,30,0,2024-02-24T09:13:04.163Z,french_659.wav,0,poule,865,62,4,5,français,m,2,0.2,39.40171471,1.57337642
657b128079618c853ed056b4,30,0,2024-02-24T09:13:04.163Z,french_659.wav,0,poule,865,62,4,5,français,m,3,0.25666667,-2.24011696,0.55895062
657b128079618c853ed056b4,31,0,2024-02-24T09:13:04.163Z,french_457.wav,0,poule,1623,62,4,5,français,m,0,0.0,42.86960152,1.10156515
657b128079618c853ed056b4,31,0,2024-02-24T09:13:04.163Z,french_457.wav,0,poule,1623,62,4,5,français,m,1,0.1,79.85160671,0.90608198
657b128079618c853ed056b4,31,0,2024-02-24T09:13:04.163Z,french_457.wav,0,poule,1623,62,4,5,français,m,2,0.2,98.12255829,0.87189229
657b128079618c853ed056b4,31,0,2024-02-24T09:13:04.163Z,french_457.wav,0,poule,1623,62,4,5,français,m,3,0.25666667,78.01153847,1.12024719
657b128079618c853ed056b4,32,0,2024-02-24T09:13:04.163Z,french_611.wav,0,pull,1451,62,4,5,français,m,0,0.0,-21.77805362,0.549449
657b128079618c853ed056b4,32,0,2024-02-24T09:13:04.163Z,french_611.wav,0,pull,1451,62,4,5,français,m,1,0.1,-45.2722057,0.20224538
657b128079618c853ed056b4,32,0,2024-02-24T09:13:04.163Z,french_611.wav,0,pull,1451,62,4,5,français,m,2,0.2,67.02777506,1.0051208
657b128079618c853ed056b4,32,0,2024-02-24T09:13:04.163Z,french_611.wav,0,pull,1451,62,4,5,français,m,3,0.25666667,-75.35716628,1.31223223
657b128079618c853ed056b4,33,0,2024-02-24T09:13:04.163Z,french_486.wav,0,poule,1689,62,4,5,français,m,0,0.0,-65.13732965,0.7755652
657b128079618c853ed056b4,33,0,2024-02-24T09:13:04.163Z,french_486.wav,0,poule,1689,62,4,5,français,m,1,0.1,-93.57114331,0.9577819
657b128079618c853ed056b4,33,0,2024-02-24T09:13:04.163Z,french_486.wav,0,poule,1689,62,4,5,français,m,2,0.2,-51.69797787,0.68553835
657b128079618c853ed056b4,33,0,2024-02-24T09:13:04.163Z,french_486.wav,0,poule,1689,62,4,5,français,m,3,0.25666667,-3.30938414,0.55056833
657b128079618c853ed056b4,34,0,2024-02-24T09:13:04.163Z,french_412.wav,0,pull,1224,62,4,5,français,m,0,0.0,-59.33534007,1.02487397
657b128079618c853ed056b4,34,0,2024-02-24T09:13:04.163Z,french_412.wav,0,pull,1224,62,4,5,français,m,1,0.1,-79.1774496,0.54283138
657b128079618c853ed056b4,34,0,2024-02-24T09:13:04.163Z,french_412.wav,0,pull,1224,62,4,5,français,m,2,0.2,-38.59435565,0.86213444
657b128079618c853ed056b4,34,0,2024-02-24T09:13:04.163Z,french_412.wav,0,pull,1224,62,4,5,français,m,3,0.25666667,65.74010912,0.54314794
657b128079618c853ed056b4,35,0,2024-02-24T09:13:04.163Z,french_989.wav,0,poule,888,62,4,5,français,m,0,0.0,9.12508282,1.4573698
657b128079618c853ed056b4,35,0,2024-02-24T09:13:04.163Z,french_989.wav,0,poule,888,62,4,5,français,m,1,0.1,-26.45358769,0.87656303
657b128079618c853ed056b4,35,0,2024-02-24T09:13:04.163Z,french_989.wav,0,poule,888,62,4,5,français,m,2,0.2,-51.08796106,0.58961018
657b128079618c853ed056b4,35,0,2024-02-24T09:13:04.163Z,french_989.wav,0,poule,888,62,4,5,français,m,3,0.25666667,-22.70445117,1.46090447
657b128079618c853ed056b4,36,0,2024-02-24T09:13:04.163Z,french_62.wav,0,pull,977,62,4,5,français,m,0,0.0,-14.31975686,0.1654928
657b128079618c853ed056b4,36,0,2024-02-24T09:13:04.163Z,french_62.wav,0,pull,977,62,4,5,français,m,1,0.1,44.56193131,0.95189119
657b128079618c853ed056b4,36,0,2024-02-24T09:13:04.163Z,french_62.wav,0,pull,977,62,4,5,français,m,2,0.2,-86.7672378,0.13775192
657b128079618c853ed056b4,36,0,2024-02-24T09:13:04.163Z,french_62.wav,0,pull,977,62,4,5,français,m,3,0.25666667,88.73328565,1.69441392
657b128079618c853ed056b4,37,0,2024-02-24T09:13:04.163Z,french_9.wav,0,poule,875,62,4,5,français,m,0,0.0,19.3207086,1.35934995
657b128079618c853ed056b4,37,0,2024-02-24T09:13:04.163Z,french_9.wav,0,poule,875,62,4,5,français,m,1,0.1,55.1250277,1.31727385
657b128079618c853ed056b4,37,0,2024-02-24T09:13:04.163Z,french_9.wav,0,poule,875,62,4,5,français,m,2,0.2,31.60633129,0.52824511
657b128079618c853ed056b4,37,0,2024-02-24T09:13:04.163Z,french_9.wav,0,poule,875,62,4,5,français,m,3,0.25666667,31.4464946,1.75131645
657b128079618c853ed056b4,38,0,2024-02-24T09:13:04.163Z,french_436.wav,0,pull,1191,62,4,5,français,m,0,0.0,21.52139078,0.27861971
657b128079618c853ed056b4,38,0,2024-02-24T09:13:04.163Z,french_436.wav,0,pull,1191,62,4,5,français,m,1,0.1,91.02122448,0.31750307
657b128079618c853ed056b4,38,0,2024-02-24T09:13:04.163Z,french_436.wav,0,pull,1191,62,4,5,français,m,2,0.2,28.53627776,0.35857003
657b128079618c853ed056b4,38,0,2024-02-24T09:13:04.163Z,french_436.wav,0,pull,1191,62,4,5,français,m,3,0.25666667,-78.88687792,1.70163595
657b128079618c853ed056b4,39,0,2024-02-24T09:13:04.163Z,french_203.wav,0,poule,833,62,4,5,français,m,0,0.0,9.50743764,1.88144993
657b128079618c853ed056b4,39,0,2024-02-24T09:13:04.163Z,french_203.wav,0,poule,833,62,4,5,français,m,1,0.1,-98.19338414,1.32545529
657b128079618c853ed056b4,39,0,2024-02-24T09:13:04.163Z,french_203.wav,0,poule,833,62,4,5,français,m,2,0.2,67.11536794,0.82099832
657b128079618c853ed056b4,39,0,2024-02-24T09:13:04.163Z,french_203.wav,0,poule,833,62,4,5,français,m,3,0.25666667,-71.08115362,1.4347795
657b128079618c853ed056b4,40,0,2024-02-24T09:13:04.163Z,french_282.wav,0,poule,932,62,4,5,français,m,0,0.0,-97.43488085,0.55303377
657b128079618c853ed056b4,40,0,2024-02-24T09:13:04.163Z,french_282.wav,0,poule,932,62,4,5,français,m,1,0.1,96.20897113,1.41145651
657b128079618c853ed056b4,40,0,2024-02-24T09:13:04.163Z,french_282.wav,0,poule,932,62,4,5,français,m,2,0.2,27.16020646,1.83661618
657b128079618c853ed056b4,40,0,2024-02-24T09:13:04.163Z,french_282.wav,0,poule,932,62,4,5,français,m,3,0.25666667,-13.14092169,0.36912502
657b128079618c853ed056b4,41,0,2024-02-24T09:13:04.163Z,french_980.wav,0,poule,909,62,4,5,français,m,0,0.0,-38.7537279,0.7061587
657b128079618c853ed056b4,41,0,2024-02-24T09:13:04.163Z,french_980.wav,0,poule,909,62,4,5,français,m,1,0.1,12.31277697,1.27161124
657b128079618c853ed056b4,41,0,2024-02-24T09:13:04.163Z,french_980.wav,0,poule,909,62,4,5,français,m,2,0.2,6.50697833,0.8921187
657b128079618c853ed056b4,41,0,2024-02-24T09:13:04.163Z,french_980.wav,0,poule,909,62,4,5,français,m,3,0.25666667,-34.92912415,1.97802528
657b128079618c853ed056b4,42,0,2024-02-24T09:13:04.163Z,french_493.wav,0,poule,2161,62,4,5,français,m,0,0.0,-68.32294441,0.52835731
657b128079618c853ed056b4,42,0,2024-02-24T09:13:04.163Z,french_493.wav,0,poule,2161,62,4,5,français,m,1,0.1,-10.78892258,0.49612748
657b128079618c853ed056b4,42,0,2024-02-24T09:13:04.163Z,french_493.wav,0,poule,2161,62,4,5,français,m,2,0.2,91.72278204,1.46473376
657b128079618c853ed056b4,42,0,2024-02-24T09:13:04.163Z,french_493.wav,0,poule,2161,62,4,5,français,m,3,0.25666667,-45.09260027,1.2872874
657b128079618c853ed056b4,43,0,2024-02-24T09:13:04.163Z,french_18.wav,0,poule,780,62,4,5,français,m,0,0.0,29.29326365,1.56476478
657b128079618c853ed056b4,43,0,2024-02-24T09:13:04.163Z,french_18.wav,0,poule,780,62,4,5,français,m,1,0.1,-65.9497706,0.7748919
657b128079618c853ed056b4,43,0,2024-02-24T09:13:04.163Z,french_18.wav,0,poule,780,62,4,5,français,m,2,0.2,-68.38187686,0.73946843
657b128079618c853ed056b4,43,0,2024-02-24T09:13:04.163Z,french_18.wav,0,poule,780,62,4,5,français,m,3,0.25666667,26.32477662,1.33435109
657b128079618c853ed056b4,44,0,2024-02-24T09:13:04.163Z,french_858.wav,0,pull,1009,62,4,5,français,m,0,0.0,-70.8749608,0.88986318
657b128079618c853ed056b4,44,0,2024-02-24T09:13:04.163Z,french_858.wav,0,pull,1009,62,4,5,français,m,1,0.1,-68.92821451,0.34092676
657b128079618c853ed056b4,44,0,2024-02-24T09:13:04.163Z,french_858.wav,0,pull,1009,62,4,5,français,m,2,0.2,48.1063746,0.38776381
657b128079618c853ed056b4,44,0,2024-02-24T09:13:04.163Z,french_858.wav,0,pull,1009,62,4,5,français,m,3,0.25666667,0.98463207,1.26771376
657b128079618c853ed056b4,45,0,2024-02-24T09:13:04.163Z,french_80.wav,0,pull,723,62,4,5,français,m,0,0.0,-4.85614904,0.67500586
657b128079618c853ed056b4,45,0,2024-02-24T09:13:04.163Z,french_80.wav,0,pull,723,62,4,5,français,m,1,0.1,-36.95221558,0.10692408
657b128079618c853ed056b4,45,0,2024-02-24T09:13:04.163Z,french_80.wav,0,pull,723,62,4,5,français,m,2,0.2,-16.65007611,1.27299782
657b128079618c853ed056b4,45,0,2024-02-24T09:13:04.163Z,french_80.wav,0,pull,723,62,4,5,français,m,3,0.25666667,57.44018977,0.9780754
657b128079618c853ed056b4,46,0,2024-02-24T09:13:04.163Z,french_932.wav,0,poule,637,62,4,5,français,m,0,0.0,-46.06723632,0.59994833
657b128079618c853ed056b4,46,0,2024-02-24T09:13:04.163Z,french_932.wav,0,poule,637,62,4,5,français,m,1,0.1,66.80974186,1.29573715
657b128079618c853ed056b4,46,0,2024-02-24T09:13:04.163Z,french_932.wav,0,poule,637,62,4,5,français,m,2,0.2,39.28685727,0.97302603
657b128079618c853ed056b4,46,0,2024-02-24T09:13:04.163Z,french_932.wav,0,poule,637,62,4,5,français,m,3,0.25666667,-66.26323275,1.65300799
657b128079618c853ed056b4,47,0,2024-02-24T09:13:04.163Z,french_668.wav,0,poule,805,62,4,5,français,m,0,0.0,44.4696917,0.61167569
657b128079618c853ed056b4,47,0,2024-02-24T09:13:04.163Z,french_668.wav,0,poule,805,62,4,5,français,m,1,0.1,63.48880943,0.96933631
657b128079618c853ed056b4,47,0,2024-02-24T09:13:04.163Z,french_668.wav,0,poule,805,62,4,5,français,m,2,0.2,96.50351719,1.39779359
657b128079618c853ed056b4,47,0,2024-02-24T09:13:04.163Z,french_668.wav,0,poule,805,62,4,5,français,m,3,0.25666667,-38.26923088,1.779663
657b128079618c853ed056b4,48,0,2024-02-24T09:13:04.163Z,french_956.wav,0,poule,871,62,4,5,français,m,0,0.0,-17.2568339,1.05718214
657b128079618c853ed056b4,48,0,2024-02-24T09:13:04.163Z,french_956.wav,0,poule,871,62,4,5,français,m,1,0.1,60.67626876,1.43914937
657b128079618c853ed056b4,48,0,2024-02-24T09:13:04.163Z,french_956.wav,0,poule,871,62,4,5,français,m,2,0.2,40.71216363,0.83140318
657b128079618c853ed056b4,48,0,2024-02-24T09:13:04.163Z,french_956.wav,0,poule,871,62,4,5,français,m,3,0.25666667,16.50619481,0.14426626
657b128079618c853ed056b4,49,0,2024-02-24T09:13:04.163Z,french_184.wav,0,poule,909,62,4,5,français,m,0,0.0,48.36861498,1.86119552
657b128079618c853ed056b4,49,0,2024-02-24T09:13:04.163Z,french_184.wav,0,poule,909,62,4,5,français,m,1,0.1,-2.94347193,0.96576449
657b128079618c853ed056b4,49,0,2024-02-24T09:13:04.163Z,french_184.wav,0,poule,909,62,4,5,français,m,2,0.2,-52.00472355,1.69315982
657b128079618c853ed056b4,49,0,2024-02-24T09:13:04.163Z,french_184.wav,0,poule,909,62,4,5,français,m,3,0.25666667,-36.80137507,0.52689434
657b128079618c853ed056b4,50,1,2024-02-24T09:13:04.163Z,french_403.wav,0,poule,1120,62,4,5,français,m,0,0.0,-74.59140771,1.12132674
657b128079618c853ed056b4,50,1,2024-02-24T09:13:04.163Z,french_403.wav,0,poule,1120,62,4,5,français,m,1,0.1,29.14043257,1.20077734
657b128079618c853ed056b4,50,1,2024-02-24T09:13:04.163Z,french_403.wav,0,poule,1120,62,4,5,français,m,2,0.2,37.28402081,0.75804668
657b128079618c853ed056b4,50,1,2024-02-24T09:13:04.163Z,french_403.wav,0,poule,1120,62,4,5,français,m,3,0.25666667,-66.4238982,0.86443687
657b128079618c853ed056b4,51,1,2024-02-24T09:13:04.163Z,french_350.wav,0,poule,594,62,4,5,français,m,0,0.0,-94.89147327,1.34276454
657b128079618c853ed056b4,51,1,2024-02-24T09:13:04.163Z,french_350.wav,0,poule,594,62,4,5,français,m,1,0.1,-69.96874844,1.56346818
657b128079618c853ed056b4,51,1,2024-02-24T09:13:04.163Z,french_350.wav,0,poule,594,62,4,5,français,m,2,0.2,-41.05008416,0.76037532
657b128079618c853ed056b4,51,1,2024-02-24T09:13:04.163Z,french_350.wav,0,poule,594,62,4,5,français,m,3,0.25666667,27.21030297,1.08356683
657b128079618c853ed056b4,52,1,2024-02-24T09:13:04.163Z,french_998.wav,0,poule,371,62,4,5,français,m,0,0.0,41.25843424,1.12001973
657b128079618c853ed056b4,52,1,2024-02-24T09:13:04.163Z,french_998.wav,0,poule,371,62,4,5,français,m,1,0.1,16.31759718,1.22226563
657b128079618c853ed056b4,52,1,2024-02-24T09:13:04.163Z,french_998.wav,0,poule,371,62,4,5,français,m,2,0.2,-45.05489169,1.68799636
657b128079618c853ed056b4,52,1,2024-02-24T09:13:04.163Z,french_998.wav,0,poule,371,62,4,5,français,m,3,0.25666667,-0.1364182,0.6107462
657b128079618c853ed056b4,53,1,2024-02-24T09:13:04.163Z,french_127.wav,0,poule,494,62,4,5,français,m,0,0.0,56.99195339,1.23888103
657b128079618c853ed056b4,53,1,2024-02-24T09:13:04.163Z,french_127.wav,0,poule,494,62,4,5,français,m,1,0.1,71.02339704,1.9853403
657b128079618c853ed056b4,53,1,2024-02-24T09:13:04.163Z,french_127.wav,0,poule,494,62,4,5,français,m,2,0.2,72.81237495,0.22936254
657b128079618c853ed056b4,53,1,2024-02-24T09:13:04.163Z,french_127.wav,0,poule,494,62,4,5,français,m,3,0.25666667,99.25740409,0.23690129
657b128079618c853ed056b4,54,1,2024-02-24T09:13:04.163Z,french_35.wav,0,poule,525,62,4,5,français,m,0,0.0,-91.9197252,1.92941129
657b128079618c853ed056b4,54,1,2024-02-24T09:13:04.163Z,french_35.wav,0,poule,525,62,4,5,français,m,1,0.1,-51.10479589,1.66263878
657b128079618c853ed056b4,54,1,2024-02-24T09:13:04.163Z,french_35.wav,0,poule,525,62,4,5,français,m,2,0.2,-15.74458639,0.60493147
657b128079618c853ed056b4,54,1,2024-02-24T09:13:04.163Z,french_35.wav,0,poule,525,62,4,5,français,m,3,0.25666667,-11.36352661,1.17557979
657b128079618c853ed056b4,55,1,2024-02-24T09:13:04.163Z,french_138.wav,0,poule,455,62,4,5,français,m,0,0.0,52.19266886,1.6075583
657b128079618c853ed056b4,55,1,2024-02-24T09:13:04.163Z,french_138.wav,0,poule,455,62,4,5,français,m,1,0.1,-20.87110469,1.57175316
657b128079618c853ed056b4,55,1,2024-02-24T09:13:04.163Z,french_138.wav,0,poule,455,62,4,5,français,m,2,0.2,-63.85285305,0.73019834
657b128079618c853ed056b4,55,1,2024-02-24T09:13:04.163Z,french_138.wav,0,poule,455,62,4,5,français,m,3,0.25666667,35.09837538,0.12473077
657b128079618c853ed056b4,56,1,2024-02-24T09:13:04.163Z,french_541.wav,0,poule,884,62,4,5,français,m,0,0.0,53.31308138,1.84251248
657b128079618c853ed056b4,56,1,2024-02-24T09:13:04.163Z,french_541.wav,0,poule,884,62,4,5,français,m,1,0.1,48.16539561,0.97729738
657b128079618c853ed056b4,56,1,2024-02-24T09:13:04.163Z,french_541.wav,0,poule,884,62,4,5,français,m,2,0.2,-38.85260984,1.28801687
657b128079618c853ed056b4,56,1,2024-02-24T09:13:04.163Z,french_541.wav,0,poule,884,62,4,5,français,m,3,0.25666667,47.13501746,0.86548213
657b128079618c853ed056b4,57,1,2024-02-24T09:13:04.163Z,french_827.wav,0,poule,594,62,4,5,français,m,0,0.0,52.76736232,0.65431252
657b128079618c853ed056b4,57,1,2024-02-24T09:13:04.163Z,french_827.wav,0,poule,594,62,4,5,français,m,1,0.1,43.3684124,1.37281261
657b128079618c853ed056b4,57,1,2024-02-24T09:13:04.163Z,french_827.wav,0,poule,594,62,4,5,français,m,2,0.2,5.13351566,0.35708699
657b128079618c853ed056b4,57,1,2024-02-24T09:13:04.163Z,french_827.wav,0,poule,594,62,4,5,français,m,3,0.25666667,57.45570888,0.33493738
657b128079618c853ed056b4,58,1,2024-02-24T09:13:04.163Z,french_747.wav,0,pull,1223,62,4,5,français,m,0,0.0,81.67289695,0.03581997
657b128079618c853ed056b4,58,1,2024-02-24T09:13:04.163Z,french_747.wav,0,pull,1223,62,4,5,français,m,1,0.1,-95.51692527,0.40356434
657b128079618c853ed056b4,58,1,2024-02-24T09:13:04.163Z,french_747.wav,0,pull,1223,62,4,5,français,m,2,0.2,8.63144179,0.58773385
657b128079618c853ed056b4,58,1,2024-02-24T09:13:04.163Z,french_747.wav,0,pull,1223,62,4,5,français,m,3,0.25666667,-85.56554801,1.10376778
657b128079618c853ed056b4,59,1,2024-02-24T09:13:04.163Z,french_112.wav,0,poule,377,62,4,5,français,m,0,0.0,-70.30580716,0.18088618
657b128079618c853ed056b4,59,1,2024-02-24T09:13:04.163Z,french_112.wav,0,poule,377,62,4,5,français,m,1,0.1,33.64373442,1.43869791
657b128079618c853ed056b4,59,1,2024-02-24T09:13:04.163Z,french_112.wav,0,poule,377,62,4,5,français,m,2,0.2,26.55830463,0.89230346
657b128079618c853ed056b4,59,1,2024-02-24T09:13:04.163Z,french_112.wav,0,poule,377,62,4,5,français,m,3,0.25666667,46.16769785,0.14009493
657b128079618c853ed056b4,60,1,2024-02-24T09:13:04.163Z,french_113.wav,0,poule,742,62,4,5,français,m,0,0.0,0.51528889,0.39555504
657b128079618c853ed056b4,60,1,2024-02-24T09:13:04.163Z,french_113.wav,0,poule,742,62,4,5,français,m,1,0.1,31.38938416,1.50115078
657b128079618c853ed056b4,60,1,2024-02-24T09:13:04.163Z,french_113.wav,0,poule,742,62,4,5,français,m,2,0.2,-56.71204584,1.00732686
657b128079618c853ed056b4,60,1,2024-02-24T09:13:04.163Z,french_113.wav,0,poule,742,62,4,5,français,m,3,0.25666667,95.05763822,0.59062761
657b128079618c853ed056b4,61,1,2024-02-24T09:13:04.163Z,french_152.wav,0,poule,423,62,4,5,français,m,0,0.0,-3.84179402,0.21245747
657b128079618c853ed056b4,61,1,2024-02-24T09:13:04.163Z,french_152.wav,0,poule,423,62,4,5,français,m,1,0.1,56.28738818,1.74384484
657b128079618c853ed056b4,61,1,2024-02-24T09:13:04.163Z,french_152.wav,0,poule,423,62,4,5,français,m,2,0.2,-25.33799013,1.40208126
657b128079618c853ed056b4,61,1,2024-02-24T09:13:04.163Z,french_152.wav,0,poule,423,62,4,5,français,m,3,0.25666667,-10.23447911,0.94312755
657b128079618c853ed056b4,62,1,2024-02-24T09:13:04.163Z,french_437.wav,0,pull,1541,62,4,5,français,m,0,0.0,59.70067771,0.22659206
657b128079618c853ed056b4,62,1,2024-02-24T09:13:04.163Z,french_437.wav,0,pull,1541,62,4,5,français,m,1,0.1,78.61233767,0.85429053
657b128079618c853ed056b4,62,1,2024-02-24T09:13:04.163Z,french_437.wav,0,pull,1541,62,4,5,français,m,2,0.2,76.18154157,1.36297282
657b128079618c853ed056b4,62,1,2024-02-24T09:13:04.163Z,french_437.wav,0,pull,1541,62,4,5,français,m,3,0.25666667,-54.28538078,1.46039745
657b128079618c853ed056b4,63,1,2024-02-24T09:13:04.163Z,french_471.wav,0,poule,1634,62,4,5,français,m,0,0.0,35.47460752,0.77553755
657b128079618c853ed056b4,63,1,2024-02-24T09:13:04.163Z,french_471.wav,0,poule,1634,62,4,5,français,m,1,0.1,-49.00208302,1.38730058
657b128079618c853ed056b4,63,1,2024-02-24T09:13:04.163Z,french_471.wav,0,poule,1634,62,4,5,français,m,2,0.2,47.17677121,0.98156507
657b128079618c853ed056b4,63,1,2024-02-24T09:13:04.163Z,french_471.wav,0,poule,1634,62,4,5,français,m,3,0.25666667,64.34433074,0.66404961
657b128079618c853ed056b4,64,1,2024-02-24T09:13:04.163Z,french_916.wav,0,pull,629,62,4,5,français,m,0,0.0,-87.80939928,0.07100827
657b128079618c853ed056b4,64,1,2024-02-24T09:13:04.163Z,french_916.wav,0,pull,629,62,4,5,français,m,1,0.1,68.91902004,0.08308916
657b128079618c853ed056b4,64,1,2024-02-24T09:13:04.163Z,french_916.wav,0,pull,629,62,4,5,français,m,2,0.2,20.82551071,0.48942561
657b128079618c853ed056b4,64,1,2024-02-24T09:13:04.163Z,french_916.wav,0,pull,629,62,4,5,français,m,3,0.25666667,-10.41164891,0.67278955
657b128079618c853ed056b4,65,1,2024-02-24T09:13:04.163Z,french_109.wav,0,poule,382,62,4,5,français,m,0,0.0,-57.66612313,0.91141338
657b128079618c853ed056b4,65,1,2024-02-24T09:13:04.163Z,french_109.wav,0,poule,382,62,4,5,français,m,1,0.1,-72.54090479,1.63809523
657b128079618c853ed056b4,65,1,2024-02-24T09:13:04.163Z,french_109.wav,0,poule,382,62,4,5,français,m,2,0.2,-5.66573875,1.08686957
657b128079618c853ed056b4,65,1,2024-02-24T09:13:04.163Z,french_109.wav,0,poule,382,62,4,5,français,m,3,0.25666667,-86.22212262,0.85420458
657b128079618c853ed056b4,66,1,2024-02-24T09:13:04.163Z,french_868.wav,0,poule,491,62,4,5,français,m,0,0.0,-35.95288605,1.76613711
657b128079618c853ed056b4,66,1,2024-02-24T09:13:04.163Z,french_868.wav,0,poule,491,62,4,5,français,m,1,0.1,-17.44977395,1.66440326
657b128079618c853ed056b4,66,1,2024-02-24T09:13:04.163Z,french_868.wav,0,poule,491,62,4,5,français,m,2,0.2,-64.01864585,0.72417379
657b128079618c853ed056b4,66,1,2024-02-24T09:13:04.163Z,french_868.wav,0,poule,491,62,4,5,français,m,3,0.25666667,14.1526891,0.87347262
657b128079618c853ed056b4,67,1,2024-02-24T09:13:04.163Z,french_106.wav,0,poule,1005,62,4,5,français,m,0,0.0,-80.93311261,0.79978414
657b128079618c853ed056b4,67,1,2024-02-24T09:13:04.163Z,french_106.wav,0,poule,1005,62,4,5,français,m,1,0.1,7.33604761,0.87655026
657b128079618c853ed056b4,67,1,2024-02-24T09:13:04.163Z,french_106.wav,0,poule,1005,62,4,5,français,m,2,0.2,53.45287064,1.02362607
657b128079618c853ed056b4,67,1,2024-02-24T09:13:04.163Z,french_106.wav,0,poule,1005,62,4,5,français,m,3,0.25666667,-26.77526802,1.25354946
657b128079618c853ed056b4,68,1,2024-02-24T09:13:04.163Z,french_744.wav,0,poule,574,62,4,5,français,m,0,0.0,20.71284991,1.22360564
657b128079618c853ed056b4,68,1,2024-02-24T09:13:04.163Z,french_744.wav,0,poule,574,62,4,5,français,m,1,0.1,43.41893938,1.58460028
657b128079618c853ed056b4,68,1,2024-02-24T09:13:04.163Z,french_744.wav,0,poule,574,62,4,5,français,m,2,0.2,65.94530402,0.38406236
657b128079618c853ed056b4,68,1,2024-02-24T09:13:04.163Z,french_744.wav,0,poule,574,62,4,5,français,m,3,0.25666667,-59.234779,0.69273959
657b128079618c853ed056b4,69,1,2024-02-24T09:13:04.163Z,french_899.wav,0,pull,846,62,4,5,français,m,0,0.0,-28.57126009,0.27570035
657b128079618c853ed056b4,69,1,2024-02-24T09:13:04.163Z,french_899.wav,0,pull,846,62,4,5,français,m,1,0.1,-0.09971188,0.02539286
657b128079618c853ed056b4,69,1,2024-02-24T09:13:04.163Z,french_899.wav,0,pull,846,62,4,5,français,m,2,0.2,21.79777269,0.56520269
657b128079618c853ed056b4,69,1,2024-02-24T09:13:04.163Z,french_899.wav,0,pull,846,62,4,5,français,m,3,0.25666667,-88.2290065,1.36421593
657b128079618c853ed056b4,70,1,2024-02-24T09:13:04.163Z,french_101.wav,0,poule,675,62,4,5,français,m,0,0.0,2.45558497,0.33272101
657b128079618c853ed056b4,70,1,2024-02-24T09:13:04.163Z,french_101.wav,0,poule,675,62,4,5,français,m,1,0.1,-89.46857105,1.30167387
657b128079618c853ed056b4,70,1,2024-02-24T09:13:04.163Z,french_101.wav,0,poule,675,62,4,5,français,m,2,0.2,26.84471845,0.45771198
657b128079618c853ed056b4,70,1,2024-02-24T09:13:04.163Z,french_101.wav,0,poule,675,62,4,5,français,m,3,0.25666667,-40.2942876,1.30875705
657b128079618c853ed056b4,71,1,2024-02-24T09:13:04.163Z,french_258.wav,0,poule,531,62,4,5,français,m,0,0.0,49.87761594,0.27922365
657b128079618c853ed056b4,71,1,2024-02-24T09:13:04.163Z,french_258.wav,0,poule,531,62,4,5,français,m,1,0.1,-83.77774399,1.89432374
657b128079618c853ed056b4,71,1,2024-02-24T09:13:04.163Z,french_258.wav,0,poule,531,62,4,5,français,m,2,0.2,58.69904626,0.22934206
657b128079618c853ed056b4,71,1,2024-02-24T09:13:04.163Z,french_258.wav,0,poule,531,62,4,5,français,m,3,0.25666667,-57.68721695,0.35615934
657b128079618c853ed056b4,72,1,2024-02-24T09:13:04.163Z,french_445.wav,0,poule,408,62,4,5,français,m,0,0.0,8.73559539,0.8054478
657b128079618c853ed056b4,72,1,2024-02-24T09:13:04.163Z,french_445.wav,0,poule,408,62,4,5,français,m,1,0.1,-22.15313252,1.73211315
657b128079618c853ed056b4,72,1,2024-02-24T09:13:04.163Z,french_445.wav,0,poule,408,62,4,5,français,m,2,0.2,26.0955013,0.21896619
657b128079618c853ed056b4,72,1,2024-02-24T09:13:04.163Z,french_445.wav,0,poule,408,62,4,5,français,m,3,0.25666667,22.70157082,0.54256666
657b128079618c853ed056b4,73,1,2024-02-24T09:13:04.163Z,french_89.wav,0,poule,579,62,4,5,français,m,0,0.0,-79.59355323,1.69180454
657b128079618c853ed056b4,73,1,2024-02-24T09:13:04.163Z,french_89.wav,0,poule,579,62,4,5,français,m,1,0.1,-86.9945706,1.08047967
657b128079618c853ed056b4,73,1,2024-02-24T09:13:04.163Z,french_89.wav,0,poule,579,62,4,5,français,m,2,0.2,81.38410409,1.92177075
657b128079618c853ed056b4,73,1,2024-02-24T09:13:04.163Z,french_89.wav,0,poule,579,62,4,5,français,m,3,0.25666667,-11.31628481,1.93759104
657b128079618c853ed056b4,74,1,2024-02-24T09:13:04.163Z,french_391.wav,0,poule,447,62,4,5,français,m,0,0.0,-76.68975493,1.01472424
657b128079618c853ed056b4,74,1,2024-02-24T09:13:04.163Z,french_391.wav,0,poule,447,62,4,5,français,m,1,0.1,-61.92507962,1.84772624
657b128079618c853ed056b4,74,1,2024-02-24T09:13:04.163Z,french_391.wav,0,poule,447,62,4,5,français,m,2,0.2,-59.03609545,1.36374408
657b128079618c853ed056b4,74,1,2024-02-24T09:13:04.163Z,french_391.wav,0,poule,447,62,4,5,français,m,3,0.25666667,88.69049446,1.21538153
657b128079618c853ed056b4,75,1,2024-02-24T09:13:04.163Z,french_597.wav,0,pull,748,62,4,5,français,m,0,0.0,78.21673508,0.32061172
657b128079618c853ed056b4,75,1,2024-02-24T09:13:04.163Z,french_597.wav,0,pull,748,62,4,5,français,m,1,0.1,48.44931265,1.01687051
657b128079618c853ed056b4,75,1,2024-02-24T09:13:04.163Z,french_597.wav,0,pull,748,62,4,5,français,m,2,0.2,-9.21876948,0.22158162
657b128079618c853ed056b4,75,1,2024-02-24T09:13:04.163Z,french_597.wav,0,pull,748,62,4,5,français,m,3,0.25666667,-95.47680095,0.62073139
657b128079618c853ed056b4,76,1,2024-02-24T09:13:04.163Z,french_456.wav,0,pull,576,62,4,5,français,m,0,0.0,-27.91969988,0.874098
657b128079618c853ed056b4,76,1,2024-02-24T09:13:04.163Z,french_456.wav,0,pull,576,62,4,5,français,m,1,0.1,-6.9905469,0.40632282
657b128079618c853ed056b4,76,1,2024-02-24T09:13:04.163Z,french_456.wav,0,pull,576,62,4,5,français,m,2,0.2,7.34213132,0.88508218
657b128079618c853ed056b4,76,1,2024-02-24T09:13:04.163Z,french_456.wav,0,pull,576,62,4,5,français,m,3,0.25666667,-16.30576404,1.43350061
657b128079618c853ed056b4,77,1,2024-02-24T09:13:04.163Z,french_238.wav,0,pull,640,62,4,5,français,m,0,0.0,-7.77377299,1.79398275
657b128079618c853ed056b4,77,1,2024-02-24T09:13:04.163Z,french_238.wav,0,pull,640,62,4,5,français,m,1,0.1,24.08862247,0.12404774
657b128079618c853ed056b4,77,1,2024-02-24T09:13:04.163Z,french_238.wav,0,pull,640,62,4,5,français,m,2,0.2,87.10581208,0.76943839
657b128079618c853ed056b4,77,1,2024-02-24T09:13:04.163Z,french_238.wav,0,pull,640,62,4,5,français,m,3,0.25666667,73.57906518,1.68164748
657b128079618c853ed056b4,78,1,2024-02-24T09:13:04.163Z,french_946.wav,0,pull,1825,62,4,5,français,m,0,0.0,-59.20376503,1.07432488
657b128079618c853ed056b4,78,1,2024-02-24T09:13:04.163Z,french_946.wav,0,pull,1825,62,4,5,français,m,1,0.1,41.31347152,0.26624757
657b128079618c853ed056b4,78,1,2024-02-24T09:13:04.163Z,french_946.wav,0,pull,1825,62,4,5,français,m,2,0.2,-58.18080138,0.53636085
657b128079618c853ed056b4,78,1,2024-02-24T09:13:04.163Z,french_946.wav,0,pull,1825,62,4,5,français,m,3,0.25666667,-28.00273528,1.77786979
657b128079618c853ed056b4,79,1,2024-02-24T09:13:04.163Z,french_693.wav,0,pull,1069,62,4,5,français,m,0,0.0,-47.08934597,0.01342517
657b128079618c853ed056b4,79,1,2024-02-24T09:13:04.163Z,french_693.wav,0,pull,1069,62,4,5,français,m,1,0.1,72.6108529,0.89682207
657b128079618c853ed056b4,79,1,2024-02-24T09:13:04.163Z,french_693.wav,0,pull,1069,62,4,5,français,m,2,0.2,-29.7137536,1.48476447
657b128079618c853ed056b4,79,1,2024-02-24T09:13:04.163Z,french_693.wav,0,pull,1069,62,4,5,français,m,3,0.25666667,50.01737174,0.05087926
657b128079618c853ed056b4,80,1,2024-02-24T09:13:04.163Z,french_853.wav,0,pull,919,62,4,5,français,m,0,0.0,-51.03576257,1.07641583
657b128079618c853ed056b4,80,1,2024-02-24T09:13:04.163Z,french_853.wav,0,pull,919,62,4,5,français,m,1,0.1,41.51658453,0.77538457
657b128079618c853ed056b4,80,1,2024-02-24T09:13:04.163Z,french_853.wav,0,pull,919,62,4,5,français,m,2,0.2,-92.89610403,0.19170679
657b128079618c853ed056b4,80,1,2024-02-24T09:13:04.163Z,french_853.wav,0,pull,919,62,4,5,français,m,3,0.25666667,-36.6460181,1.18241166
657b128079618c853ed056b4,81,1,2024-02-24T09:13:04.163Z,french_845.wav,0,poule,768,62,4,5,français,m,0,0.0,-4.24220541,1.81527349
657b128079618c853ed056b4,81,1,2024-02-24T09:13:04.163Z,french_845.wav,0,poule,768,62,4,5,français,m,1,0.1,-33.05758094,0.43145559
657b128079618c853ed056b4,81,1,2024-02-24T09:13:04.163Z,french_845.wav,0,poule,768,62,4,5,français,m,2,0.2,-22.8575131,1.45726833
657b128079618c853ed056b4,81,1,2024-02-24T09:13:04.163Z,french_845.wav,0,poule,768,62,4,5,français,m,3,0.25666667,-28.52835037,1.38023089
657b128079618c853ed056b4,82,1,2024-02-24T09:13:04.163Z,french_609.wav,0,poule,336,62,4,5,français,m,0,0.0,11.6890167,1.75568789
657b128079618c853ed056b4,82,1,2024-02-24T09:13:04.163Z,french_609.wav,0,poule,336,62,4,5,français,m,1,0.1,-35.50971605,1.50542158
657b128079618c853ed056b4,82,1,2024-02-24T09:13:04.163Z,french_609.wav,0,poule,336,62,4,5,français,m,2,0.2,-98.47760025,0.96032408
657b128079618c853ed056b4,82,1,2024-02-24T09:13:04.163Z,french_609.wav,0,poule,336,62,4,5,français,m,3,0.25666667,-64.00925784,1.1186533
657b128079618c853ed056b4,83,1,2024-02-24T09:13:04.163Z,french_687.wav,0,pull,858,62,4,5,français,m,0,0.0,-41.56393701,1.23976021
657b128079618c853ed056b4,83,1,2024-02-24T09:13:04.163Z,french_687.wav,0,pull,858,62,4,5,français,m,1,0.1,-5.27268445,0.49715047
657b128079618c853ed056b4,83,1,2024-02-24T09:13:04.163Z,french_687.wav,0,pull,858,62,4,5,français,m,2,0.2,58.5588678,0.70596761
657b128079618c853ed056b4,83,1,2024-02-24T09:13:04.163Z,french_687.wav,0,pull,858,62,4,5,français,m,3,0.25666667,-41.26863304,1.34000296
657b128079618c853ed056b4,84,1,2024-02-24T09:13:04.163Z,french_568.wav,0,poule,461,62,4,5,français,m,0,0.0,-18.10302265,1.34189827
657b128079618c853ed056b4,84,1,2024-02-24T09:13:04.163Z,french_568.wav,0,poule,461,62,4,5,français,m,1,0.1,9.93139794,1.47029794
657b128079618c853ed056b4,84,1,2024-02-24T09:13:04.163Z,french_568.wav,0,poule,461,62,4,5,français,m,2,0.2,91.46195775,0.17269775
657b128079618c853ed056b4,84,1,2024-02-24T09:13:04.163Z,french_568.wav,0,poule,461,62,4,5,français,m,3,0.25666667,56.10040773,1.22679594
657b128079618c853ed056b4,85,1,2024-02-24T09:13:04.163Z,french_361.wav,0,poule,611,62,4,5,français,m,0,0.0,-18.04801315,1.02641127
657b128079618c853ed056b4,85,1,2024-02-24T09:13:04.163Z,french_361.wav,0,poule,611,62,4,5,français,m,1,0.1,93.73679052,0.21625505
657b128079618c853ed056b4,85,1,2024-02-24T09:13:04.163Z,french_361.wav,0,poule,611,62,4,5,français,m,2,0.2,42.88870655,1.63254817
657b128079618c853ed056b4,85,1,2024-02-24T09:13:04.163Z,french_361.wav,0,poule,611,62,4,5,français,m,3,0.25666667,45.1087167,0.1659632
657b128079618c853ed056b4,86,1,2024-02-24T09:13:04.163Z,french_414.wav,0,poule,496,62,4,5,français,m,0,0.0,-53.65137821,1.15122316
657b128079618c853ed056b4,86,1,2024-02-24T09:13:04.163Z,french_414.wav,0,poule,496,62,4,5,français,m,1,0.1,61.14227183,1.54420741
657b128079618c853ed056b4,86,1,2024-02-24T09:13:04.163Z,french_414.wav,0,poule,496,62,4,5,français,m,2,0.2,-13.28017505,1.48861563
657b128079618c853ed056b4,86,1,2024-02-24T09:13:04.163Z,french_414.wav,0,poule,496,62,4,5,français,m,3,0.25666667,99.20914295,0.34805763
657b128079618c853ed056b4,87,1,2024-02-24T09:13:04.163Z,french_511.wav,0,poule,470,62,4,5,français,m,0,0.0,-19.9871771,1.33271467
657b128079618c853ed056b4,87,1,2024-02-24T09:13:04.163Z,french_511.wav,0,poule,470,62,4,5,français,m,1,0.1,-61.98813266,1.54343533
657b128079618c853ed056b4,87,1,2024-02-24T09:13:04.163Z,french_511.wav,0,poule,470,62,4,5,français,m,2,0.2,-51.99144191,1.11888865
657b128079618c853ed056b4,87,1,2024-02-24T09:13:04.163Z,french_511.wav,0,poule,470,62,4,5,français,m,3,0.25666667,26.5419494,1.56196296
657b128079618c853ed056b4,88,1,2024-02-24T09:13:04.163Z,french_464.wav,0,poule,358,62,4,5,français,m,0,0.0,-77.91073693,1.45882001
657b128079618c853ed056b4,88,1,2024-02-24T09:13:04.163Z,french_464.wav,0,poule,358,62,4,5,français,m,1,0.1,-4.27403448,1.08668269
657b128079618c853ed056b4,88,1,2024-02-24T09:13:04.163Z,french_464.wav,0,poule,358,62,4,5,français,m,2,0.2,93.79465132,1.80605145
657b128079618c853ed056b4,88,1,2024-02-24T09:13:04.163Z,french_464.wav,0,poule,358,62,4,5,français,m,3,0.25666667,49.64849416,1.6602635
657b128079618c853ed056b4,89,1,2024-02-24T09:13:04.163Z,french_519.wav,0,poule,374,62,4,5,français,m,0,0.0,86.76456043,1.09635868
657b128079618c853ed056b4,89,1,2024-02-24T09:13:04.163Z,french_519.wav,0,poule,374,62,4,5,français,m,1,0.1,8.46145491,1.19136691
657b128079618c853ed056b4,89,1,2024-02-24T09:13:04.163Z,french_519.wav,0,poule,374,62,4,5,français,m,2,0.2,-48.6822419,1.7889624
657b128079618c853ed056b4,89,1,2024-02-24T09:13:04.163Z,french_519.wav,0,poule,374,62,4,5,français,m,3,0.25666667,-44.03350662,1.1754675
657b128079618c853ed056b4,90,1,2024-02-24T09:13:04.163Z,french_385.wav,0,pull,636,62,4,5,français,m,0,0.0,-5.35501711,1.94967077
657b128079618c853ed056b4,90,1,2024-02-24T09:13:04.163Z,french_385.wav,0,pull,636,62,4,5,français,m,1,0.1,28.75563306,0.4629862
657b128079618c853ed056b4,90,1,2024-02-24T09:13:04.163Z,french_385.wav,0,pull,636,62,4,5,français,m,2,0.2,60.61846434,0.74478567
657b128079618c853ed056b4,90,1,2024-02-24T09:13:04.163Z,french_385.wav,0,pull,636,62,4,5,français,m,3,0.25666667,-78.89426498,0.69826307
657b128079618c853ed056b4,91,1,2024-02-24T09:13:04.163Z,french_82.wav,0,pull,457,62,4,5,français,m,0,0.0,82.26293442,0.95636636
657b128079618c853ed056b4,91,1,2024-02-24T09:13:04.163Z,french_82.wav,0,pull,457,62,4,5,français,m,1,0.1,-13.98955844,0.8765529
657b128079618c853ed056b4,91,1,2024-02-24T09:13:04.163Z,french_82.wav,0,pull,457,62,4,5,français,m,2,0.2,44.8739745,0.75785774
657b128079618c853ed056b4,91,1,2024-02-24T09:13:04.163Z,french_82.wav,0,pull,457,62,4,5,français,m,3,0.25666667,23.31967993,0.26363467
657b128079618c853ed056b4,92,1,2024-02-24T09:13:04.163Z,french_316.wav,0,pull,756,62,4,5,français,m,0,0.0,71.43385859,0.02011656
657b128079618c853ed056b4,92,1,2024-02-24T09:13:04.163Z,french_316.wav,0,pull,756,62,4,5,français,m,1,0.1,-31.05932013,1.43477753
657b128079618c853ed056b4,92,1,2024-02-24T09:13:04.163Z,french_316.wav,0,pull,756,62,4,5,français,m,2,0.2,7.51523711,0.06852206
657b128079618c853ed056b4,92,1,2024-02-24T09:13:04.163Z,french_316.wav,0,pull,756,62,4,5,français,m,3,0.25666667,-46.68412198,1.51807936
657b128079618c853ed056b4,93,1,2024-02-24T09:13:04.163Z,french_481.wav,0,pull,1082,62,4,5,français,m,0,0.0,-44.05926666,1.24899263
657b128079618c853ed056b4,93,1,2024-02-24T09:13:04.163Z,french_481.wav,0,pull,1082,62,4,5,français,m,1,0.1,85.82418432,1.22078865
657b128079618c853ed056b4,93,1,2024-02-24T09:13:04.163Z,french_481.wav,0,pull,1082,62,4,5,français,m,2,0.2,87.54559417,0.10859618
657b128079618c853ed056b4,93,1,2024-02-24T09:13:04.163Z,french_481.wav,0,pull,1082,62,4,5,français,m,3,0.25666667,50.04191005,0.19634609
657b128079618c853ed056b4,94,1,2024-02-24T09:13:04.163Z,french_458.wav,0,pull,526,62,4,5,français,m,0,0.0,13.7688173,1.1950835
657b128079618c853ed056b4,94,1,2024-02-24T09:13:04.163Z,french_458.wav,0,pull,526,62,4,5,français,m,1,0.1,19.53863665,0.33129566
657b128079618c853ed056b4,94,1,2024-02-24T09:13:04.163Z,french_458.wav,0,pull,526,62,4,5,français,m,2,0.2,-90.92797006,0.65773392
657b128079618c853ed056b4,94,1,2024-02-24T09:13:04.163Z,french_458.wav,0,pull,526,62,4,5,français,m,3,0.25666667,55.23452131,1.54778139
657b128079618c853ed056b4,95,1,2024-02-24T09:13:04.163Z,french_39.wav,0,poule,527,62,4,5,français,m,0,0.0,-37.58690814,0.69509593
657b128079618c853ed056b4,95,1,2024-02-24T09:13:04.163Z,french_39.wav,0,poule,527,62,4,5,français,m,1,0.1,64.36969435,0.9899387
657b128079618c853ed056b4,95,1,2024-02-24T09:13:04.163Z,french_39.wav,0,poule,527,62,4,5,français,m,2,0.2,-16.17747505,1.54991446
657b128079618c853ed056b4,95,1,2024-02-24T09:13:04.163Z,french_39.wav,0,poule,527,62,4,5,français,m,3,0.25666667,-31.52468705,1.42558302
657b128079618c853ed056b4,96,1,2024-02-24T09:13:04.163Z,french_525.wav,0,poule,496,62,4,5,français,m,0,0.0,-55.71805546,1.48564319
657b128079618c853ed056b4,96,1,2024-02-24T09:13:04.163Z,french_525.wav,0,poule,496,62,4,5,français,m,1,0.1,69.57832018,0.7646222
657b128079618c853ed056b4,96,1,2024-02-24T09:13:04.163Z,french_525.wav,0,poule,496,62,4,5,français,m,2,0.2,-61.51619627,1.98360061
657b128079618c853ed056b4,96,1,2024-02-24T09:13:04.163Z,french_525.wav,0,poule,496,62,4,5,français,m,3,0.25666667,-40.26288332,1.91122687
657b128079618c853ed056b4,97,1,2024-02-24T09:13:04.163Z,french_370.wav,0,poule,388,62,4,5,français,m,0,0.0,-31.30279389,1.88170435
657b128079618c853ed056b4,97,1,2024-02-24T09:13:04.163Z,french_370.wav,0,poule,388,62,4,5,français,m,1,0.1,96.47349065,0.75067332
657b128079618c853ed056b4,97,1,2024-02-24T09:13:04.163Z,french_370.wav,0,poule,388,62,4,5,français,m,2,0.2,23.18843017,1.06279648
657b128079618c853ed056b4,97,1,2024-02-24T09:13:04.163Z,french_370.wav,0,poule,388,62,4,5,français,m,3,0.25666667,81.62933181,0.58974769
657b128079618c853ed056b4,98,1,2024-02-24T09:13:04.163Z,french_817.wav,0,poule,738,62,4,5,français,m,0,0.0,78.06162864,0.52442488
657b128079618c853ed056b4,98,1,2024-02-24T09:13:04.163Z,french_817.wav,0,poule,738,62,4,5,français,m,1,0.1,7.60258692,1.548285
657b128079618c853ed056b4,98,1,2024-02-24T09:13:04.163Z,french_817.wav,0,poule,738,62,4,5,français,m,2,0.2,-72.81657303,0.10823364
657b128079618c853ed056b4,98,1,2024-02-24T09:13:04.163Z,french_817.wav,0,poule,738,62,4,5,français,m,3,0.25666667,58.9269084,1.31415279
657b128079618c853ed056b4,99,1,2024-02-24T09:13:04.163Z,french_731.wav,0,poule,2224,62,4,5,français,m,0,0.0,52.82888701,1.42077684
657b128079618c853ed056b4,99,1,2024-02-24T09:13:04.163Z,french_731.wav,0,poule,2224,62,4,5,français,m,1,0.1,44.66747194,0.2996776
657b128079618c853ed056b4,99,1,2024-02-24T09:13:04.163Z,french_731.wav,0,poule,2224,62,4,5,français,m,2,0.2,83.54065351,1.21708869
657b128079618c853ed056b4,99,1,2024-02-24T09:13:04.163Z,french_731.wav,0,poule,2224,62,4,5,français,m,3,0.25666667,-50.41579204,1.31490505
657b128079618c853ed056b4,100,2,2024-02-24T09:13:04.163Z,french_333.wav,0,pull,599,62,4,5,français,m,0,0.0,10.14997655,0.96169616
657b128079618c853ed056b4,100,2,2024-02-24T09:13:04.163Z,french_333.wav,0,pull,599,62,4,5,français,m,1,0.1,13.88697857,0.82290304
657b128079618c853ed056b4,100,2,2024-02-24T09:13:04.163Z,french_333.wav,0,pull,599,62,4,5,français,m,2,0.2,3.86253466,0.18816998
657b128079618c853ed056b4,100,2,2024-02-24T09:13:04.163Z,french_333.wav,0,pull,599,62,4,5,français,m,3,0.25666667,47.83568498,1.34102864
657b128079618c853ed056b4,101,2,2024-02-24T09:13:04.163Z,french_972.wav,0,poule,417,62,4,5,français,m,0,0.0,10.38102426,0.90840989
657b128079618c853ed056b4,101,2,2024-02-24T09:13:04.163Z,french_972.wav,0,poule,417,62,4,5,français,m,1,0.1,-66.54271468,1.6485676
657b128079618c853ed056b4,101,2,2024-02-24T09:13:04.163Z,french_972.wav,0,poule,417,62,4,5,français,m,2,0.2,-2.89265523,0.79956718
657b128079618c853ed056b4,101,2,2024-02-24T09:13:04.163Z,french_972.wav,0,poule,417,62,4,5,français,m,3,0.25666667,-87.42126356,1.28352811
657b128079618c853ed056b4,102,2,2024-02-24T09:13:04.163Z,french_313.wav,0,pull,648,62,4,5,français,m,0,0.0,50.15458506,0.55380102
657b128079618c853ed056b4,102,2,2024-02-24T09:13:04.163Z,french_313.wav,0,pull,648,62,4,5,français,m,1,0.1,2.46815661,0.88494107
657b128079618c853ed056b4,102,2,2024-02-24T09:13:04.163Z,french_313.wav,0,pull,648,62,4,5,français,m,2,0.2,44.14025365,0.65214702
657b128079618c853ed056b4,102,2,2024-02-24T09:13:04.163Z,french_313.wav,0,pull,648,62,4,5,français,m,3,0.25666667,-56.8276357,0.5616472
657b128079618c853ed056b4,103,2,2024-02-24T09:13:04.163Z,french_399.wav,0,poule,665,62,4,5,français,m,0,0.0,60.88638106,0.92905576
657b128079618c853ed056b4,103,2,2024-02-24T09:13:04.163Z,french_399.wav,0,poule,665,62,4,5,français,m,1,0.1,69.51712014,1.13956386
657b128079618c853ed056b4,103,2,2024-02-24T09:13:04.163Z,french_399.wav,0,poule,665,62,4,5,français,m,2,0.2,11.9354414,0.89341089
657b128079618c853ed056b4,103,2,2024-02-24T09:13:04.163Z,french_399.wav,0,poule,665,62,4,5,français,m,3,0.25666667,71.82951649,1.81253855
657b128079618c853ed056b4,104,2,2024-02-24T09:13:04.163Z,french_914.wav,0,poule,442,62,4,5,français,m,0,0.0,-34.97252921,0.97835832
657b128079618c853ed056b4,104,2,2024-02-24T09:13:04.163Z,french_914.wav,0,poule,442,62,4,5,français,m,1,0.1,-72.63984802,0.99245682
657b128079618c853ed056b4,104,2,2024-02-24T09:13:04.163Z,french_914.wav,0,poule,442,62,4,5,français,m,2,0.2,-17.99574982,1.64333977
657b128079618c853ed056b4,104,2,2024-02-24T09:13:04.163Z,french_914.wav,0,poule,442,62,4,5,français,m,3,0.25666667,97.045673,1.63101446
657b128079618c853ed056b4,105,2,2024-02-24T09:13:04.163Z,french_680.wav,0,poule,393,62,4,5,français,m,0,0.0,-51.31535201,1.24719536
657b128079618c853ed056b4,105,2,2024-02-24T09:13:04.163Z,french_680.wav,0,poule,393,62,4,5,français,m,1,0.1,-31.64171723,1.74184859
657b128079618c853ed056b4,105,2,2024-02-24T09:13:04.163Z,french_680.wav,0,poule,393,62,4,5,français,m,2,0.2,81.67923452,0.78878625
657b128079618c853ed056b4,105,2,2024-02-24T09:13:04.163Z,french_680.wav,0,poule,393,62,4,5,français,m,3,0.25666667,54.52860803,1.82878415
657b128079618c853ed056b4,106,2,2024-02-24T09:13:04.163Z,french_872.wav,0,poule,538,62,4,5,français,m,0,0.0,85.31192626,1.27180188
657b128079618c853ed056b4,106,2,2024-02-24T09:13:04.163Z,french_872.wav,0,poule,538,62,4,5,français,m,1,0.1,-62.96284321,0.82867252
657b128079618c853ed056b4,106,2,2024-02-24T09:13:04.163Z,french_872.wav,0,poule,538,62,4,5,français,m,2,0.2,93.26127986,1.69740624
657b128079618c853ed056b4,106,2,2024-02-24T09:13:04.163Z,french_872.wav,0,poule,538,62,4,5,français,m,3,0.25666667,48.13314647,0.31258738
657b128079618c853ed056b4,107,2,2024-02-24T09:13:04.163Z,french_882.wav,0,pull,651,62,4,5,français,m,0,0.0,-76.64131244,0.67668261
657b128079618c853ed056b4,107,2,2024-02-24T09:13:04.163Z,french_882.wav,0,pull,651,62,4,5,français,m,1,0.1,-39.91871486,0.28498495
657b128079618c853ed056b4,107,2,2024-02-24T09:13:04.163Z,french_882.wav,0,pull,651,62,4,5,français,m,2,0.2,-10.31613543,0.59130788
657b128079618c853ed056b4,107,2,2024-02-24T09:13:04.163Z,french_882.wav,0,pull,651,62,4,5,français,m,3,0.25666667,20.39966841,1.12904738
657b128079618c853ed056b4,108,2,2024-02-24T09:13:04.163Z,french_472.wav,0,poule,446,62,4,5,français,m,0,0.0,-9.46806957,0.85855516
657b128079618c853ed056b4,108,2,2024-02-24T09:13:04.163Z,french_472.wav,0,poule,446,62,4,5,français,m,1,0.1,45.81973918,1.60383991
657b128079618c853ed056b4,108,2,2024-02-24T09:13:04.163Z,french_472.wav,0,poule,446,62,4,5,français,m,2,0.2,-32.95266456,0.80244772
657b128079618c853ed056b4,108,2,2024-02-24T09:13:04.163Z,french_472.wav,0,poule,446,62,4,5,français,m,3,0.25666667,-10.56557549,1.48234138
657b128079618c853ed056b4,109,2,2024-02-24T09:13:04.163Z,french_502.wav,0,poule,419,62,4,5,français,m,0,0.0,-20.79410197,1.55473715
657b128079618c853ed056b4,109,2,2024-02-24T09:13:04.163Z,french_502.wav,0,poule,419,62,4,5,français,m,1,0.1,-29.31354171,0.75660833
657b128079618c853ed056b4,109,2,2024-02-24T09:13:04.163Z,french_502.wav,0,poule,419,62,4,5,français,m,2,0.2,66.76157716,1.40053341
657b128079618c853ed056b4,109,2,2024-02-24T09:13:04.163Z,french_502.wav,0,poule,419,62,4,5,français,m,3,0.25666667,63.6653431,1.0602207
657b128079618c853ed056b4,110,2,2024-02-24T09:13:04.163Z,french_666.wav,0,pull,646,62,4,5,français,m,0,0.0,51.58977068,0.51416215
657b128079618c853ed056b4,110,2,2024-02-24T09:13:04.163Z,french_666.wav,0,pull,646,62,4,5,français,m,1,0.1,81.806625,0.1213722
657b128079618c853ed056b4,110,2,2024-02-24T09:13:04.163Z,french_666.wav,0,pull,646,62,4,5,français,m,2,0.2,10.32462757,1.14435945
657b128079618c853ed056b4,110,2,2024-02-24T09:13:04.163Z,french_666.wav,0,pull,646,62,4,5,français,m,3,0.25666667,-51.25764779,1.68381456
657b128079618c853ed056b4,111,2,2024-02-24T09:13:04.163Z,french_993.wav,0,poule,538,62,4,5,français,m,0,0.0,3.12847982,1.75015027
657b128079618c853ed056b4,111,2,2024-02-24T09:13:04.163Z,french_993.wav,0,poule,538,62,4,5,français,m,1,0.1,-78.95304083,0.83743251
657b128079618c853ed056b4,111,2,2024-02-24T09:13:04.163Z,french_993.wav,0,poule,538,62,4,5,français,m,2,0.2,-13.84245357,0.53594991
657b128079618c853ed056b4,111,2,2024-02-24T09:13:04.163Z,french_993.wav,0,poule,538,62,4,5,français,m,3,0.25666667,66.66979397,1.46895698
657b128079618c853ed056b4,112,2,2024-02-24T09:13:04.163Z,french_600.wav,0,pull,2467,62,4,5,français,m,0,0.0,29.66563504,0.34173365
657b128079618c853ed056b4,112,2,2024-02-24T09:13:04.163Z,french_600.wav,0,pull,2467,62,4,5,français,m,1,0.1,-8.64659381,0.28144694
657b128079618c853ed056b4,112,2,2024-02-24T09:13:04.163Z,french_600.wav,0,pull,2467,62,4,5,français,m,2,0.2,-34.77347642,1.5541161
657b128079618c853ed056b4,112,2,2024-02-24T09:13:04.163Z,french_600.wav,0,pull,2467,62,4,5,français,m,3,0.25666667,-62.75040759,1.60255421
657b128079618c853ed056b4,113,2,2024-02-24T09:13:04.163Z,french_131.wav,0,poule,867,62,4,5,français,m,0,0.0,55.95469812,0.7326606
657b128079618c853ed056b4,113,2,2024-02-24T09:13:04.163Z,french_131.wav,0,poule,867,62,4,5,français,m,1,0.1,-96.48122085,0.77747938
657b128079618c853ed056b4,113,2,2024-02-24T09:13:04.163Z,french_131.wav,0,poule,867,62,4,5,français,m,2,0.2,-45.26115565,1.02132862
657b128079618c853ed056b4,113,2,2024-02-24T09:13:04.163Z,french_131.wav,0,poule,867,62,4,5,français,m,3,0.25666667,97.10583427,0.34109041
657b128079618c853ed056b4,114,2,2024-02-24T09:13:04.163Z,french_762.wav,0,pull,648,62,4,5,français,m,0,0.0,-45.61990315,0.95776955
657b128079618c853ed056b4,114,2,2024-02-24T09:13:04.163Z,french_762.wav,0,pull,648,62,4,5,français,m,1,0.1,-38.16727298,0.16992331
657b128079618c853ed056b4,114,2,2024-02-24T09:13:04.163Z,french_762.wav,0,pull,648,62,4,5,français,m,2,0.2,-15.44626984,1.21301125
657b128079618c853ed056b4,114,2,2024-02-24T09:13:04.163Z,french_762.wav,0,pull,648,62,4,5,français,m,3,0.25666667,-31.31206952,0.49399223
657b128079618c853ed056b4,115,2,2024-02-24T09:13:04.163Z,french_212.wav,0,poule,380,62,4,5,français,m,0,0.0,-65.85125812,0.99084671
657b128079618c853ed056b4,115,2,2024-02-24T09:13:04.163Z,french_212.wav,0,poule,380,62,4,5,français,m,1,0.1,4.72891676,1.71951251
657b128079618c853ed056b4,115,2,2024-02-24T09:13:04.163Z,french_212.wav,0,poule,380,62,4,5,français,m,2,0.2,52.80654505,1.56745001
657b128079618c853ed056b4,115,2,2024-02-24T09:13:04.163Z,french_212.wav,0,poule,380,62,4,5,français,m,3,0.25666667,75.91927134,1.70119676
657b128079618c853ed056b4,116,2,2024-02-24T09:13:04.163Z,french_931.wav,0,pull,872,62,4,5,français,m,0,0.0,64.75046939,1.51932084
657b128079618c853ed056b4,116,2,2024-02-24T09:13:04.163Z,french_931.wav,0,pull,872,62,4,5,français,m,1,0.1,-55.9473081,1.08335674
657b128079618c853ed056b4,116,2,2024-02-24T09:13:04.163Z,french_931.wav,0,pull,872,62,4,5,français,m,2,0.2,32.85596214,0.78781639
657b128079618c853ed056b4,116,2,2024-02-24T09:13:04.163Z,french_931.wav,0,pull,872,62,4,5,français,m,3,0.25666667,-89.33798771,0.66435238
657b128079618c853ed056b4,117,2,2024-02-24T09:13:04.163Z,french_828.wav,0,pull,626,62,4,5,français,m,0,0.0,-2.7154125,0.72553522
657b128079618c853ed056b4,117,2,2024-02-24T09:13:04.163Z,french_828.wav,0,pull,626,62,4,5,français,m,1,0.1,-36.83814983,1.24313396
657b128079618c853ed056b4,117,2,2024-02-24T09:13:04.163Z,french_828.wav,0,pull,626,62,4,5,français,m,2,0.2,-50.98592502,0.62544862
657b128079618c853ed056b4,117,2,2024-02-24T09:13:04.163Z,french_828.wav,0,pull,626,62,4,5,français,m,3,0.25666667,-48.36073317,1.19233037
657b128079618c853ed056b4,118,2,2024-02-24T09:13:04.163Z,french_213.wav,0,pull,588,62,4,5,français,m,0,0.0,18.19792563,0.91602818
657b128079618c853ed056b4,118,2,2024-02-24T09:13:04.163Z,french_213.wav,0,pull,588,62,4,5,français,m,1,0.1,59.29536603,0.93215034
657b128079618c853ed056b4,118,2,2024-02-24T09:13:04.163Z,french_213.wav,0,pull,588,62,4,5,français,m,2,0.2,83.4693574,1.11468909
657b128079618c853ed056b4,118,2,2024-02-24T09:13:04.163Z,french_213.wav,0,pull,588,62,4,5,français,m,3,0.25666667,-3.87812814,1.61202928
657b128079618c853ed056b4,119,2,2024-02-24T09:13:04.163Z,french_246.wav,0,poule,636,62,4,5,français,m,0,0.0,-61.30298939,1.31566238
657b128079618c853ed056b4,119,2,2024-02-24T09:13:04.163Z,french_246.wav,0,poule,636,62,4,5,français,m,1,0.1,15.83987086,1.23869052
657b128079618c853ed056b4,119,2,2024-02-24T09:13:04.163Z,french_246.wav,0,poule,636,62,4,5,français,m,2,0.2,80.17394669,1.57286335
657b128079618c853ed056b4,119,2,2024-02-24T09:13:04.163Z,french_246.wav,0,poule,636,62,4,5,français,m,3,0.25666667,-81.65507189,0.07583844
657b128079618c853ed056b4,120,2,2024-02-24T09:13:04.163Z,french_593.wav,0,pull,525,62,4,5,français,m,0,0.0,28.63563643,0.95899308
657b128079618c853ed056b4,120,2,2024-02-24T09:13:04.163Z,french_593.wav,0,pull,525,62,4,5,français,m,1,0.1,-92.54588956,1.11632192
657b128079618c853ed056b4,120,2,2024-02-24T09:13:04.163Z,french_593.wav,0,pull,525,62,4,5,français,m,2,0.2,54.29574758,0.28179711
657b128079618c853ed056b4,120,2,2024-02-24T09:13:04.163Z,french_593.wav,0,pull,525,62,4,5,français,m,3,0.25666667,-51.0775076,1.92785686
657b128079618c853ed056b4,121,2,2024-02-24T09:13:04.163Z,french_363.wav,0,poule,909,62,4,5,français,m,0,0.0,53.04818478,0.48026107
657b128079618c853ed056b4,121,2,2024-02-24T09:13:04.163Z,french_363.wav,0,poule,909,62,4,5,français,m,1,0.1,68.67010762,1.94302888
657b128079618c853ed056b4,121,2,2024-02-24T09:13:04.163Z,french_363.wav,0,poule,909,62,4,5,français,m,2,0.2,-91.11205335,0.36511891
657b128079618c853ed056b4,121,2,2024-02-24T09:13:04.163Z,french_363.wav,0,poule,909,62,4,5,français,m,3,0.25666667,-38.9131055,1.6181542
657b128079618c853ed056b4,122,2,2024-02-24T09:13:04.163Z,french_878.wav,0,pull,600,62,4,5,français,m,0,0.0,-11.41587957,1.5495917
657b128079618c853ed056b4,122,2,2024-02-24T09:13:04.163Z,french_878.wav,0,pull,600,62,4,5,français,m,1,0.1,-52.86145621,0.92573348
657b128079618c853ed056b4,122,2,2024-02-24T09:13:04.163Z,french_878.wav,0,pull,600,62,4,5,français,m,2,0.2,10.56905128,0.71371417
657b128079618c853ed056b4,122,2,2024-02-24T09:13:04.163Z,french_878.wav,0,pull,600,62,4,5,français,m,3,0.25666667,87.23323491,0.72785239
657b128079618c853ed056b4,123,2,2024-02-24T09:13:04.163Z,french_373.wav,0,poule,437,62,4,5,français,m,0,0.0,27.88559689,1.35161412
657b128079618c853ed056b4,123,2,2024-02-24T09:13:04.163Z,french_373.wav,0,poule,437,62,4,5,français,m,1,0.1,61.41244142,1.00997609
657b128079618c853ed056b4,123,2,2024-02-24T09:13:04.163Z,french_373.wav,0,poule,437,62,4,5,français,m,2,0.2,37.97273047,1.87297461
657b128079618c853ed056b4,123,2,2024-02-24T09:13:04.163Z,french_373.wav,0,poule,437,62,4,5,français,m,3,0.25666667,-82.72738113,0.97441242
657b128079618c853ed056b4,124,2,2024-02-24T09:13:04.163Z,french_614.wav,0,poule,529,62,4,5,français,m,0,0.0,13.55245103,0.76920018
657b128079618c853ed056b4,124,2,2024-02-24T09:13:04.163Z,french_614.wav,0,poule,529,62,4,5,français,m,1,0.1,56.56377999,1.46632319
657b128079618c853ed056b4,124,2,2024-02-24T09:13:04.163Z,french_614.wav,0,poule,529,62,4,5,français,m,2,0.2,18.28165036,0.77890927
657b128079618c853ed056b4,124,2,2024-02-24T09:13:04.163Z,french_614.wav,0,poule,529,62,4,5,français,m,3,0.25666667,42.87971424,1.0073418
657b128079618c853ed056b4,125,2,2024-02-24T09:13:04.163Z,french_664.wav,0,poule,648,62,4,5,français,m,0,0.0,-2.08032019,1.43741932
657b128079618c853ed056b4,125,2,2024-02-24T09:13:04.163Z,french_664.wav,0,poule,648,62,4,5,français,m,1,0.1,-67.02716902,1.07099048
657b128079618c853ed056b4,125,2,2024-02-24T09:13:04.163Z,french_664.wav,0,poule,648,62,4,5,français,m,2,0.2,95.17650789,1.92774669
657b128079618c853ed056b4,125,2,2024-02-24T09:13:04.163Z,french_664.wav,0,poule,648,62,4,5,français,m,3,0.25666667,-41.34718039,0.70027683
657b128079618c853ed056b4,126,2,2024-02-24T09:13:04.163Z,french_799.wav,0,poule,801,62,4,5,français,m,0,0.0,-36.40535669,1.51597666
657b128079618c853ed056b4,126,2,2024-02-24T09:13:04.163Z,french_799.wav,0,poule,801,62,4,5,français,m,1,0.1,61.69828746,0.87708619
657b128079618c853ed056b4,126,2,2024-02-24T09:13:04.163Z,french_799.wav,0,poule,801,62,4,5,français,m,2,0.2,66.97541187,1.35480731
657b128079618c853ed056b4,126,2,2024-02-24T09:13:04.163Z,french_799.wav,0,poule,801,62,4,5,français,m,3,0.25666667,-86.21475416,0.58642825
657b128079618c853ed056b4,127,2,2024-02-24T09:13:04.163Z,french_986.wav,0,pull,649,62,4,5,français,m,0,0.0,-69.96795985,1.93285955
657b128079618c853ed056b4,127,2,2024-02-24T09:13:04.163Z,french_986.wav,0,pull,649,62,4,5,français,m,1,0.1,-65.30377544,1.55838575
657b128079618c853ed056b4,127,2,2024-02-24T09:13:04.163Z,french_986.wav,0,pull,649,62,4,5,français,m,2,0.2,27.38987225,0.12645153
657b128079618c853ed056b4,127,2,2024-02-24T09:13:04.163Z,french_986.wav,0,pull,649,62,4,5,français,m,3,0.25666667,-55.80740264,0.78072242
657b128079618c853ed056b4,128,2,2024-02-24T09:13:04.163Z,french_987.wav,0,pull,626,62,4,5,français,m,0,0.0,29.59235099,0.62183529
657b128079618c853ed056b4,128,2,2024-02-24T09:13:04.163Z,french_987.wav,0,pull,626,62,4,5,français,m,1,0.1,34.94187385,0.21370909
657b128079618c853ed056b4,128,2,2024-02-24T09:13:04.163Z,french_987.wav,0,pull,626,62,4,5,français,m,2,0.2,50.69614072,0.33639435
657b128079618c853ed056b4,128,2,2024-02-24T09:13:04.163Z,french_987.wav,0,pull,626,62,4,5,français,m,3,0.25666667,30.08512425,1.23768731
657b128079618c853ed056b4,129,2,2024-02-24T09:13:04.163Z,french_555.wav,0,poule,1018,62,4,5,français,m,0,0.0,-94.33978787,0.59318307
657b128079618c853ed056b4,129,2,2024-02-24T09:13:04.163Z,french_555.wav,0,poule,1018,62,4,5,français,m,1,0.1,93.76530939,0.913599
657b128079618c853ed056b4,129,2,2024-02-24T09:13:04.163Z,french_555.wav,0,poule,1018,62,4,5,français,m,2,0.2,60.24178239,1.32127388
657b128079618c853ed056b4,129,2,2024-02-24T09:13:04.163Z,french_555.wav,0,poule,1018,62,4,5,français,m,3,0.25666667,52.06264798,1.40091244
657b128079618c853ed056b4,130,2,2024-02-24T09:13:04.163Z,french_219.wav,0,pull,564,62,4,5,français,m,0,0.0,-98.78648146,1.35832625
657b128079618c853ed056b4,130,2,2024-02-24T09:13:04.163Z,french_219.wav,0,pull,564,62,4,5,français,m,1,0.1,-54.51672601,0.9105506
657b128079618c853ed056b4,130,2,2024-02-24T09:13:04.163Z,french_219.wav,0,pull,564,62,4,5,français,m,2,0.2,75.82451993,0.22027405
657b128079618c853ed056b4,130,2,2024-02-24T09:13:04.163Z,french_219.wav,0,pull,564,62,4,5,français,m,3,0.25666667,42.52821499,1.53742188
657b128079618c853ed056b4,131,2,2024-02-24T09:13:04.163Z,french_631.wav,0,poule,573,62,4,5,français,m,0,0.0,87.50143958,0.46380881
657b128079618c853ed056b4,131,2,2024-02-24T09:13:04.163Z,french_631.wav,0,poule,573,62,4,5,français,m,1,0.1,43.81698528,0.9935464
657b128079618c853ed056b4,131,2,2024-02-24T09:13:04.163Z,french_631.wav,0,poule,573,62,4,5,français,m,2,0.2,97.72878597,1.55852459
657b128079618c853ed056b4,131,2,2024-02-24T09:13:04.163Z,french_631.wav,0,poule,573,62,4,5,français,m,3,0.25666667,25.13380659,0.71365297
657b128079618c853ed056b4,132,2,2024-02-24T09:13:04.163Z,french_949.wav,0,pull,1568,62,4,5,français,m,0,0.0,29.18752906,0.08608659
657b128079618c853ed056b4,132,2,2024-02-24T09:13:04.163Z,french_949.wav,0,pull,1568,62,4,5,français,m,1,0.1,-67.27756955,1.93613179
657b128079618c853ed056b4,132,2,2024-02-24T09:13:04.163Z,french_949.wav,0,pull,1568,62,4,5,français,m,2,0.2,55.26419326,0.81834021
657b128079618c853ed056b4,132,2,2024-02-24T09:13:04.163Z,french_949.wav,0,pull,1568,62,4,5,français,m,3,0.25666667,11.27327126,0.09029871
657b128079618c853ed056b4,133,2,2024-02-24T09:13:04.163Z,french_195.wav,0,poule,403,62,4,5,français,m,0,0.0,-1.90342588,0.62941576
657b128079618c853ed056b4,133,2,2024-02-24T09:13:04.163Z,french_195.wav,0,poule,403,62,4,5,français,m,1,0.1,-8.12665825,1.90753939
657b128079618c853ed056b4,133,2,2024-02-24T09:13:04.163Z,french_195.wav,0,poule,403,62,4,5,français,m,2,0.2,-5.61431002,1.47732259
657b128079618c853ed056b4,133,2,2024-02-24T09:13:04.163Z,french_195.wav,0,poule,403,62,4,5,français,m,3,0.25666667,-66.29175925,0.68212586
657b128079618c853ed056b4,134,2,2024-02-24T09:13:04.163Z,french_641.wav,0,poule,531,62,4,5,français,m,0,0.0,-92.89939655,0.72916007
657b128079618c853ed056b4,134,2,2024-02-24T09:13:04.163Z,french_641.wav,0,poule,531,62,4,5,français,m,1,0.1,80.14352585,1.01323436
657b128079618c853ed056b4,134,2,2024-02-24T09:13:04.163Z,french_641.wav,0,poule,531,62,4,5,français,m,2,0.2,74.03041043,0.998205
657b128079618c853ed056b4,134,2,2024-02-24T09:13:04.163Z,french_641.wav,0,poule,531,62,4,5,français,m,3,0.25666667,18.97683281,0.30086371
657b128079618c853ed056b4,135,2,2024-02-24T09:13:04.163Z,french_879.wav,0,poule,549,62,4,5,français,m,0,0.0,-48.96816685,1.19104759
657b128079618c853ed056b4,135,2,2024-02-24T09:13:04.163Z,french_879.wav,0,poule,549,62,4,5,français,m,1,0.1,-79.01398257,0.98306132
657b128079618c853ed056b4,135,2,2024-02-24T09:13:04.163Z,french_879.wav,0,poule,549,62,4,5,français,m,2,0.2,-55.9985187,0.68767433
657b128079618c853ed056b4,135,2,2024-02-24T09:13:04.163Z,french_879.wav,0,poule,549,62,4,5,français,m,3,0.25666667,-98.06504365,1.4115175
657b128079618c853ed056b4,136,2,2024-02-24T09:13:04.163Z,french_133.wav,0,poule,544,62,4,5,français,m,0,0.0,-94.78194954,1.29113753
657b128079618c853ed056b4,136,2,2024-02-24T09:13:04.163Z,french_133.wav,0,poule,544,62,4,5,français,m,1,0.1,8.44061072,0.84384968
657b128079618c853ed056b4,136,2,2024-02-24T09:13:04.163Z,french_133.wav,0,poule,544,62,4,5,français,m,2,0.2,55.81768563,1.85990436
657b128079618c853ed056b4,136,2,2024-02-24T09:13:04.163Z,french_133.wav,0,poule,544,62,4,5,français,m,3,0.25666667,73.94294787,1.64621091
657b128079618c853ed056b4,137,2,2024-02-24T09:13:04.163Z,french_938.wav,0,poule,572,62,4,5,français,m,0,0.0,-81.44382825,1.9747372
657b128079618c853ed056b4,137,2,2024-02-24T09:13:04.163Z,french_938.wav,0,poule,572,62,4,5,français,m,1,0.1,70.63637201,1.46978645
657b128079618c853ed056b4,137,2,2024-02-24T09:13:04.163Z,french_938.wav,0,poule,572,62,4,5,français,m,2,0.2,29.19185054,1.77157462
657b128079618c853ed056b4,137,2,2024-02-24T09:13:04.163Z,french_938.wav,0,poule,572,62,4,5,français,m,3,0.25666667,62.72928817,1.30296517
657b128079618c853ed056b4,138,2,2024-02-24T09:13:04.163Z,french_490.wav,0,poule,640,62,4,5,français,m,0,0.0,-77.54246231,1.03559912
657b128079618c853ed056b4,138,2,2024-02-24T09:13:04.163Z,french_490.wav,0,poule,640,62,4,5,français,m,1,0.1,-0.13066058,0.94588293
657b128079618c853ed056b4,138,2,2024-02-24T09:13:04.163Z,french_490.wav,0,poule,640,62,4,5,français,m,2,0.2,-90.37490593,1.16449319
657b128079618c853ed056b4,138,2,2024-02-24T09:13:04.163Z,french_490.wav,0,poule,640,62,4,5,français,m,3,0.25666667,62.21960288,1.46557017
657b128079618c853ed056b4,139,2,2024-02-24T09:13:04.163Z,french_441.wav,0,poule,596,62,4,5,français,m,0,0.0,-52.65918707,0.98643262
657b128079618c853ed056b4,139,2,2024-02-24T09:13:04.163Z,french_441.wav,0,poule,596,62,4,5,français,m,1,0.1,-61.65013116,1.35237654
657b128079618c853ed056b4,139,2,2024-02-24T09:13:04.163Z,french_441.wav,0,poule,596,62,4,5,français,m,2,0.2,34.26317373,1.5364694
657b128079618c853ed056b4,139,2,2024-02-24T09:13:04.163Z,french_441.wav,0,poule,596,62,4,5,français,m,3,0.25666667,30.98760828,1.29655121
657b128079618c853ed056b4,140,2,2024-02-24T09:13:04.163Z,french_229.wav,0,poule,528,62,4,5,français,m,0,0.0,17.32899675,0.73401758
657b128079618c853ed056b4,140,2,2024-02-24T09:13:04.163Z,french_229.wav,0,poule,528,62,4,5,français,m,1,0.1,-73.09434366,0.90990932
657b128079618c853ed056b4,140,2,2024-02-24T09:13:04.163Z,french_229.wav,0,poule,528,62,4,5,français,m,2,0.2,-24.47190501,0.8791544
657b128079618c853ed056b4,140,2,2024-02-24T09:13:04.163Z,french_229.wav,0,poule,528,62,4,5,français,m,3,0.25666667,11.45282545,1.1872524
657b128079618c853ed056b4,141,2,2024-02-24T09:13:04.163Z,french_763.wav,0,poule,486,62,4,5,français,m,0,0.0,-96.72958763,0.69845728
657b128079618c853ed056b4,141,2,2024-02-24T09:13:04.163Z,french_763.wav,0,poule,486,62,4,5,français,m,1,0.1,95.66434095,1.4089076
657b128079618c853ed056b4,141,2,2024-02-24T09:13:04.163Z,french_763.wav,0,poule,486,62,4,5,français,m,2,0.2,-84.28875962,1.74428554
657b128079618c853ed056b4,141,2,2024-02-24T09:13:04.163Z,french_763.wav,0,poule,486,62,4,5,français,m,3,0.25666667,-41.37848175,0.12054272
657b128079618c853ed056b4,142,2,2024-02-24T09:13:04.163Z,french_936.wav,0,pull,819,62,4,5,français,m,0,0.0,-20.69739044,1.81100612
657b128079618c853ed056b4,142,2,2024-02-24T09:13:04.163Z,french_936.wav,0,pull,819,62,4,5,français,m,1,0.1,11.25896305,0.34150345
657b128079618c853ed056b4,142,2,2024-02-24T09:13:04.163Z,french_936.wav,0,pull,819,62,4,5,français,m,2,0.2,-73.43688333,0.78598688
657b128079618c853ed056b4,142,2,2024-02-24T09:13:04.163Z,french_936.wav,0,pull,819,62,4,5,français,m,3,0.25666667,14.6038409,0.34536881
657b128079618c853ed056b4,143,2,2024-02-24T09:13:04.163Z,french_990.wav,0,poule,363,62,4,5,français,m,0,0.0,31.68812365,0.81704568
657b128079618c853ed056b4,143,2,2024-02-24T09:13:04.163Z,french_990.wav,0,poule,363,62,4,5,français,m,1,0.1,-82.48323459,1.80008391
657b128079618c853ed056b4,143,2,2024-02-24T09:13:04.163Z,french_990.wav,0,poule,363,62,4,5,français,m,2,0.2,39.0525666,1.73012532
657b128079618c853ed056b4,143,2,2024-02-24T09:13:04.163Z,french_990.wav,0,poule,363,62,4,5,français,m,3,0.25666667,-59.77120272,0.71793452
657b128079618c853ed056b4,144,2,2024-02-24T09:13:04.163Z,french_847.wav,0,pull,604,62,4,5,français,m,0,0.0,-8.33122073,1.64160395
657b128079618c853ed056b4,144,2,2024-02-24T09:13:04.163Z,french_847.wav,0,pull,604,62,4,5,français,m,1,0.1,28.51239659,0.11991739
657b128079618c853ed056b4,144,2,2024-02-24T09:13:04.163Z,french_847.wav,0,pull,604,62,4,5,français,m,2,0.2,-26.33136573,1.12824789
657b128079618c853ed056b4,144,2,2024-02-24T09:13:04.163Z,french_847.wav,0,pull,604,62,4,5,français,m,3,0.25666667,21.45038454,0.68287375
657b128079618c853ed056b4,145,2,2024-02-24T09:13:04.163Z,french_702.wav,0,poule,431,62,4,5,français,m,0,0.0,-53.8337347,0.65995653
657b128079618c853ed056b4,145,2,2024-02-24T09:13:04.163Z,french_702.wav,0,poule,431,62,4,5,français,m,1,0.1,13.17722269,1.48591365
657b128079618c853ed056b4,145,2,2024-02-24T09:13:04.163Z,french_702.wav,0,poule,431,62,4,5,français,m,2,0.2,-63.63948694,1.16262137
657b128079618c853ed056b4,145,2,2024-02-24T09:13:04.163Z,french_702.wav,0,poule,431,62,4,5,français,m,3,0.25666667,-7.77006894,1.49403865
657b128079618c853ed056b4,146,2,2024-02-24T09:13:04.163Z,french_848.wav,0,poule,628,62,4,5,français,m,0,0.0,-60.99605007,1.01059702
657b128079618c853ed056b4,146,2,2024-02-24T09:13:04.163Z,french_848.wav,0,poule,628,62,4,5,français,m,1,0.1,-27.05939135,1.98581859
657b128079618c853ed056b4,146,2,2024-02-24T09:13:04.163Z,french_848.wav,0,poule,628,62,4,5,français,m,2,0.2,-10.58439289,0.30142011
657b128079618c853ed056b4,146,2,2024-02-24T09:13:04.163Z,french_848.wav,0,poule,628,62,4,5,français,m,3,0.25666667,-17.47548333,1.16939553
657b128079618c853ed056b4,147,2,2024-02-24T09:13:04.163Z,french_674.wav,0,poule,526,62,4,5,français,m,0,0.0,36.8658398,0.63817569
657b128079618c853ed056b4,147,2,2024-02-24T09:13:04.163Z,french_674.wav,0,poule,526,62,4,5,français,m,1,0.1,-70.55199619,1.9135219
657b128079618c853ed056b4,147,2,2024-02-24T09:13:04.163Z,french_674.wav,0,poule,526,62,4,5,français,m,2,0.2,-3.70121723,1.96782527
657b128079618c853ed056b4,147,2,2024-02-24T09:13:04.163Z,french_674.wav,0,poule,526,62,4,5,français,m,3,0.25666667,30.12615154,0.86862342
657b128079618c853ed056b4,148,2,2024-02-24T09:13:04.163Z,french_211.wav,0,poule,2232,62,4,5,français,m,0,0.0,26.09911827,0.38797522
657b128079618c853ed056b4,148,2,2024-02-24T09:13:04.163Z,french_211.wav,0,poule,2232,62,4,5,français,m,1,0.1,37.88219535,0.97106999
657b128079618c853ed056b4,148,2,2024-02-24T09:13:04.163Z,french_211.wav,0,poule,2232,62,4,5,français,m,2,0.2,25.3370042,0.82384696
657b128079618c853ed056b4,148,2,2024-02-24T09:13:04.163Z,french_211.wav,0,poule,2232,62,4,5,français,m,3,0.25666667,-31.50750366,0.88987221
657b128079618c853ed056b4,149,2,2024-02-24T09:13:04.163Z,french_123.wav,0,pull,433,62,4,5,français,m,0,0.0,47.28842571,1.09614989
657b128079618c853ed056b4,149,2,2024-02-24T09:13:04.163Z,french_123.wav,0,pull,433,62,4,5,français,m,1,0.1,40.8763752,1.93529177
657b128079618c853ed056b4,149,2,2024-02-24T09:13:04.163Z,french_123.wav,0,pull,433,62,4,5,français,m,2,0.2,-0.29365354,0.05812677
657b128079618c853ed056b4,149,2,2024-02-24T09:13:04.163Z,french_123.wav,0,pull,433,62,4,5,français,m,3,0.25666667,-9.49286286,0.68816992
657b128079618c853ed056b4,150,3,2024-02-24T09:13:04.163Z,french_45.wav,0,pull,809,62,4,5,français,m,0,0.0,6.51510613,0.83763225
657b128079618c853ed056b4,150,3,2024-02-24T09:13:04.163Z,french_45.wav,0,pull,809,62,4,5,français,m,1,0.1,-86.25018513,1.19709151
657b128079618c853ed056b4,150,3,2024-02-24T09:13:04.163Z,french_45.wav,0,pull,809,62,4,5,français,m,2,0.2,-60.46903131,0.87484565
657b128079618c853ed056b4,150,3,2024-02-24T09:13:04.163Z,french_45.wav,0,pull,809,62,4,5,français,m,3,0.25666667,-48.31089161,0.45414185
657b128079618c853ed056b4,151,3,2024-02-24T09:13:04.163Z,french_988.wav,0,poule,875,62,4,5,français,m,0,0.0,-4.11470775,0.28957615
657b128079618c853ed056b4,151,3,2024-02-24T09:13:04.163Z,french_988.wav,0,poule,875,62,4,5,français,m,1,0.1,-66.00013865,0.7977557
657b128079618c853ed056b4,151,3,2024-02-24T09:13:04.163Z,french_988.wav,0,poule,875,62,4,5,français,m,2,0.2,59.59027652,1.24206297
657b128079618c853ed056b4,151,3,2024-02-24T09:13:04.163Z,french_988.wav,0,poule,875,62,4,5,français,m,3,0.25666667,0.47429662,1.11640868
657b128079618c853ed056b4,152,3,2024-02-24T09:13:04.163Z,french_332.wav,0,poule,500,62,4,5,français,m,0,0.0,-88.68220121,0.82286563
657b128079618c853ed056b4,152,3,2024-02-24T09:13:04.163Z,french_332.wav,0,poule,500,62,4,5,français,m,1,0.1,68.217882,1.40641777
657b128079618c853ed056b4,152,3,2024-02-24T09:13:04.163Z,french_332.wav,0,poule,500,62,4,5,français,m,2,0.2,-19.05049855,0.59183839
657b128079618c853ed056b4,152,3,2024-02-24T09:13:04.163Z,french_332.wav,0,poule,500,62,4,5,français,m,3,0.25666667,-98.47604088,0.80823464
657b128079618c853ed056b4,153,3,2024-02-24T09:13:04.163Z,french_615.wav,0,poule,529,62,4,5,français,m,0,0.0,-99.04240885,1.08448469
657b128079618c853ed056b4,153,3,2024-02-24T09:13:04.163Z,french_615.wav,0,poule,529,62,4,5,français,m,1,0.1,-49.15643876,1.88363881
657b128079618c853ed056b4,153,3,2024-02-24T09:13:04.163Z,french_615.wav,0,poule,529,62,4,5,français,m,2,0.2,-66.91195639,1.28593097
657b128079618c853ed056b4,153,3,2024-02-24T09:13:04.163Z,french_615.wav,0,poule,529,62,4,5,français,m,3,0.25666667,-56.29346357,1.82136606
657b128079618c853ed056b4,154,3,2024-02-24T09:13:04.163Z,french_999.wav,0,poule,1528,62,4,5,français,m,0,0.0,47.65145935,0.42993564
657b128079618c853ed056b4,154,3,2024-02-24T09:13:04.163Z,french_999.wav,0,poule,1528,62,4,5,français,m,1,0.1,64.90222313,1.41824969
657b128079618c853ed056b4,154,3,2024-02-24T09:13:04.163Z,french_999.wav,0,poule,1528,62,4,5,français,m,2,0.2,79.66636989,1.25132817
657b128079618c853ed056b4,154,3,2024-02-24T09:13:04.163Z,french_999.wav,0,poule,1528,62,4,5,français,m,3,0.25666667,-10.95327426,1.10016678
657b128079618c853ed056b4,155,3,2024-02-24T09:13:04.163Z,french_496.wav,0,pull,846,62,4,5,français,m,0,0.0,95.35910422,1.71732874
657b128079618c853ed056b4,155,3,2024-02-24T09:13:04.163Z,french_496.wav,0,pull,846,62,4,5,français,m,1,0.1,-6.65722592,0.79073406
657b128079618c853ed056b4,155,3,2024-02-24T09:13:04.163Z,french_496.wav,0,pull,846,62,4,5,français,m,2,0.2,-0.21871516,0.34583293
657b128079618c853ed056b4,155,3,2024-02-24T09:13:04.163Z,french_496.wav,0,pull,846,62,4,5,français,m,3,0.25666667,-55.34055424,0.39020762
657b128079618c853ed056b4,156,3,2024-02-24T09:13:04.163Z,french_968.wav,0,pull,584,62,4,5,français,m,0,0.0,45.43845159,0.89884875
657b128079618c853ed056b4,156,3,2024-02-24T09:13:04.163Z,french_968.wav,0,pull,584,62,4,5,français,m,1,0.1,86.71618344,1.25950681
657b128079618c853ed056b4,156,3,2024-02-24T09:13:04.163Z,french_968.wav,0,pull,584,62,4,5,français,m,2,0.2,-29.06718199,0.29298434
657b128079618c853ed056b4,156,3,2024-02-24T09:13:04.163Z,french_968.wav,0,pull,584,62,4,5,français,m,3,0.25666667,11.394495,1.98021593
657b128079618c853ed056b4,157,3,2024-02-24T09:13:04.163Z,french_156.wav,0,poule,608,62,4,5,français,m,0,0.0,31.92379501,1.0555525
657b128079618c853ed056b4,157,3,2024-02-24T09:13:04.163Z,french_156.wav,0,poule,608,62,4,5,français,m,1,0.1,-44.87917853,1.35077548
657b128079618c853ed056b4,157,3,2024-02-24T09:13:04.163Z,french_156.wav,0,poule,608,62,4,5,français,m,2,0.2,-30.25450012,0.66649605
657b128079618c853ed056b4,157,3,2024-02-24T09:13:04.163Z,french_156.wav,0,poule,608,62,4,5,français,m,3,0.25666667,-8.41227372,1.59075988
657b128079618c853ed056b4,158,3,2024-02-24T09:13:04.163Z,french_876.wav,0,poule,391,62,4,5,français,m,0,0.0,-63.60663495,1.31328738
657b128079618c853ed056b4,158,3,2024-02-24T09:13:04.163Z,french_876.wav,0,poule,391,62,4,5,français,m,1,0.1,-33.069551,1.53761103
657b128079618c853ed056b4,158,3,2024-02-24T09:13:04.163Z,french_876.wav,0,poule,391,62,4,5,français,m,2,0.2,44.38072254,1.15738415
657b128079618c853ed056b4,158,3,2024-02-24T09:13:04.163Z,french_876.wav,0,poule,391,62,4,5,français,m,3,0.25666667,3.25210733,1.33428182
657b128079618c853ed056b4,159,3,2024-02-24T09:13:04.163Z,french_230.wav,0,poule,1251,62,4,5,français,m,0,0.0,-41.35992563,1.74508263
657b128079618c853ed056b4,159,3,2024-02-24T09:13:04.163Z,french_230.wav,0,poule,1251,62,4,5,français,m,1,0.1,43.67449439,0.13993269
657b128079618c853ed056b4,159,3,2024-02-24T09:13:04.163Z,french_230.wav,0,poule,1251,62,4,5,français,m,2,0.2,25.98311508,0.94473259
657b128079618c853ed056b4,159,3,2024-02-24T09:13:04.163Z,french_230.wav,0,poule,1251,62,4,5,français,m,3,0.25666667,-21.63443629,1.52757814
657b128079618c853ed056b4,160,3,2024-02-24T09:13:04.163Z,french_60.wav,0,pull,686,62,4,5,français,m,0,0.0,-40.9463495,0.32779355
657b128079618c853ed056b4,160,3,2024-02-24T09:13:04.163Z,french_60.wav,0,pull,686,62,4,5,français,m,1,0.1,8.65325309,0.55656076
657b128079618c853ed056b4,160,3,2024-02-24T09:13:04.163Z,french_60.wav,0,pull,686,62,4,5,français,m,2,0.2,-18.23980249,0.81322525
657b128079618c853ed056b4,160,3,2024-02-24T09:13:04.163Z,french_60.wav,0,pull,686,62,4,5,français,m,3,0.25666667,-34.79014982,0.57120985
657b128079618c853ed056b4,161,3,2024-02-24T09:13:04.163Z,french_905.wav,0,pull,853,62,4,5,français,m,0,0.0,87.86620346,1.28585996
657b128079618c853ed056b4,161,3,2024-02-24T09:13:04.163Z,french_905.wav,0,pull,853,62,4,5,français,m,1,0.1,17.88859649,0.57714405
657b128079618c853ed056b4,161,3,2024-02-24T09:13:04.163Z,french_905.wav,0,pull,853,62,4,5,français,m,2,0.2,51.58456374,0.3219524
657b128079618c853ed056b4,161,3,2024-02-24T09:13:04.163Z,french_905.wav,0,pull,853,62,4,5,français,m,3,0.25666667,-98.76806622,1.69480445
657b128079618c853ed056b4,162,3,2024-02-24T09:13:04.163Z,french_342.wav,0,pull,595,62,4,5,français,m,0,0.0,-84.22246184,0.80111929
657b128079618c853ed056b4,162,3,2024-02-24T09:13:04.163Z,french_342.wav,0,pull,595,62,4,5,français,m,1,0.1,-88.55202377,0.92289162
657b128079618c853ed056b4,162,3,2024-02-24T09:13:04.163Z,french_342.wav,0,pull,595,62,4,5,français,m,2,0.2,12.74462997,0.96187701
657b128079618c853ed056b4,162,3,2024-02-24T09:13:04.163Z,french_342.wav,0,pull,595,62,4,5,français,m,3,0.25666667,-73.67155113,0.57764427
657b128079618c853ed056b4,163,3,2024-02-24T09:13:04.163Z,french_685.wav,0,poule,889,62,4,5,français,m,0,0.0,-62.74714371,1.57330944
657b128079618c853ed056b4,163,3,2024-02-24T09:13:04.163Z,french_685.wav,0,poule,889,62,4,5,français,m,1,0.1,48.52467862,1.34151114
657b128079618c853ed056b4,163,3,2024-02-24T09:13:04.163Z,french_685.wav,0,poule,889,62,4,5,français,m,2,0.2,4.749694,0.18097188
657b128079618c853ed056b4,163,3,2024-02-24T09:13:04.163Z,french_685.wav,0,poule,889,62,4,5,français,m,3,0.25666667,88.03032973,0.30113467
657b128079618c853ed056b4,164,3,2024-02-24T09:13:04.163Z,french_904.wav,0,poule,487,62,4,5,français,m,0,0.0,-3.33486868,1.84649441
657b128079618c853ed056b4,164,3,2024-02-24T09:13:04.163Z,french_904.wav,0,poule,487,62,4,5,français,m,1,0.1,-72.00110742,1.91186975
657b128079618c853ed056b4,164,3,2024-02-24T09:13:04.163Z,french_904.wav,0,poule,487,62,4,5,français,m,2,0.2,32.54458222,0.71589927
657b128079618c853ed056b4,164,3,2024-02-24T09:13:04.163Z,french_904.wav,0,poule,487,62,4,5,français,m,3,0.25666667,13.13318907,0.21658524
657b128079618c853ed056b4,165,3,2024-02-24T09:13:04.163Z,french_417.wav,0,poule,678,62,4,5,français,m,0,0.0,-52.68130191,1.49469738
657b128079618c853ed056b4,165,3,2024-02-24T09:13:04.163Z,french_417.wav,0,poule,678,62,4,5,français,m,1,0.1,73.91368418,1.06358835
657b128079618c853ed056b4,165,3,2024-02-24T09:13:04.163Z,french_417.wav,0,poule,678,62,4,5,français,m,2,0.2,7.73324389,1.12421265
657b128079618c853ed056b4,165,3,2024-02-24T09:13:04.163Z,french_417.wav,0,poule,678,62,4,5,français,m,3,0.25666667,92.88066518,0.65436219
657b128079618c853ed056b4,166,3,2024-02-24T09:13:04.163Z,french_75.wav,0,pull,734,62,4,5,français,m,0,0.0,-2.54190785,0.75594209
657b128079618c853ed056b4,166,3,2024-02-24T09:13:04.163Z,french_75.wav,0,pull,734,62,4,5,français,m,1,0.1,-18.79561653,0.77713134
657b128079618c853ed056b4,166,3,2024-02-24T09:13:04.163Z,french_75.wav,0,pull,734,62,4,5,français,m,2,0.2,-63.16754008,0.0667883
657b128079618c853ed056b4,166,3,2024-02-24T09:13:04.163Z,french_75.wav,0,pull,734,62,4,5,français,m,3,0.25666667,-38.64547488,0.54855801
657b128079618c853ed056b4,167,3,2024-02-24T09:13:04.163Z,french_583.wav,0,poule,608,62,4,5,français,m,0,0.0,54.77106994,0.72700192
657b128079618c853ed056b4,167,3,2024-02-24T09:13:04.163Z,french_583.wav,0,poule,608,62,4,5,français,m,1,0.1,-91.79725644,1.43459804
657b128079618c853ed056b4,167,3,2024-02-24T09:13:04.163Z,french_583.wav,0,poule,608,62,4,5,français,m,2,0.2,19.12152033,0.59283069
657b128079618c853ed056b4,167,3,2024-02-24T09:13:04.163Z,french_583.wav,0,poule,608,62,4,5,français,m,3,0.25666667,80.05255959,1.58166394
657b128079618c853ed056b4,168,3,2024-02-24T09:13:04.163Z,french_901.wav,0,poule,1245,62,4,5,français,m,0,0.0,-25.19173586,1.14646858
657b128079618c853ed056b4,168,3,2024-02-24T09:13:04.163Z,french_901.wav,0,poule,1245,62,4,5,français,m,1,0.1,-52.79367362,1.72960478
657b128079618c853ed056b4,168,3,2024-02-24T09:13:04.163Z,french_901.wav,0,poule,1245,62,4,5,français,m,2,0.2,31.61264675,1.50121635
657b128079618c853ed056b4,168,3,2024-02-24T09:13:04.163Z,french_901.wav,0,poule,1245,62,4,5,français,m,3,0.25666667,-8.05782551,0.87544333
657b128079618c853ed056b4,169,3,2024-02-24T09:13:04.163Z,french_547.wav,0,poule,706,62,4,5,français,m,0,0.0,-72.35697933,0.54090293
657b128079618c853ed056b4,169,3,2024-02-24T09:13:04.163Z,french_547.wav,0,poule,706,62,4,5,français,m,1,0.1,-74.8664908,1.21231176
657b128079618c853ed056b4,169,3,2024-02-24T09:13:04.163Z,french_547.wav,0,poule,706,62,4,5,français,m,2,0.2,67.97778582,1.67585204
657b128079618c853ed056b4,169,3,2024-02-24T09:13:04.163Z,french_547.wav,0,poule,706,62,4,5,français,m,3,0.25666667,23.13057238,0.28113426
657b128079618c853ed056b4,170,3,2024-02-24T09:13:04.163Z,french_91.wav,0,poule,648,62,4,5,français,m,0,0.0,22.16772641,0.07376739
657b128079618c853ed056b4,170,3,2024-02-24T09:13:04.163Z,french_91.wav,0,poule,648,62,4,5,français,m,1,0.1,4.75787086,1.79269703
657b128079618c853ed056b4,170,3,2024-02-24T09:13:04.163Z,french_91.wav,0,poule,648,62,4,5,français,m,2,0.2,16.21543539,1.59138707
657b128079618c853ed056b4,170,3,2024-02-24T09:13:04.163Z,french_91.wav,0,poule,648,62,4,5,français,m,3,0.25666667,-31.35162056,1.67096256
657b128079618c853ed056b4,171,3,2024-02-24T09:13:04.163Z,french_7.wav,0,poule,678,62,4,5,français,m,0,0.0,-71.02833311,1.79953402
657b128079618c853ed056b4,171,3,2024-02-24T09:13:04.163Z,french_7.wav,0,poule,678,62,4,5,français,m,1,0.1,-12.38691322,1.89065694
657b128079618c853ed056b4,171,3,2024-02-24T09:13:04.163Z,french_7.wav,0,poule,678,62,4,5,français,m,2,0.2,-62.8930846,0.59849277
657b128079618c853ed056b4,171,3,2024-02-24T09:13:04.163Z,french_7.wav,0,poule,678,62,4,5,français,m,3,0.25666667,27.53159518,0.94237915
657b128079618c853ed056b4,172,3,2024-02-24T09:13:04.163Z,french_893.wav,0,poule,859,62,4,5,français,m,0,0.0,-94.12021506,0.88252126
657b128079618c853ed056b4,172,3,2024-02-24T09:13:04.163Z,french_893.wav,0,poule,859,62,4,5,français,m,1,0.1,53.79826098,0.31460198
657b128079618c853ed056b4,172,3,2024-02-24T09:13:04.163Z,french_893.wav,0,poule,859,62,4,5,français,m,2,0.2,-24.3553788,1.36492904
657b128079618c853ed056b4,172,3,2024-02-24T09:13:04.163Z,french_893.wav,0,poule,859,62,4,5,français,m,3,0.25666667,-81.90861644,1.93292807
657b128079618c853ed056b4,173,3,2024-02-24T09:13:04.163Z,french_896.wav,0,poule,529,62,4,5,français,m,0,0.0,-50.03367973,0.4350745
657b128079618c853ed056b4,173,3,2024-02-24T09:13:04.163Z,french_896.wav,0,poule,529,62,4,5,français,m,1,0.1,73.95849411,1.7879982
657b128079618c853ed056b4,173,3,2024-02-24T09:13:04.163Z,french_896.wav,0,poule,529,62,4,5,français,m,2,0.2,16.78858773,0.61207276
657b128079618c853ed056b4,173,3,2024-02-24T09:13:04.163Z,french_896.wav,0,poule,529,62,4,5,français,m,3,0.25666667,-49.02431976,0.35432813
657b128079618c853ed056b4,174,3,2024-02-24T09:13:04.163Z,french_266.wav,0,poule,1454,62,4,5,français,m,0,0.0,58.27883453,0.79886668
657b128079618c853ed056b4,174,3,2024-02-24T09:13:04.163Z,french_266.wav,0,poule,1454,62,4,5,français,m,1,0.1,-28.04411439,1.49488383
657b128079618c853ed056b4,174,3,2024-02-24T09:13:04.163Z,french_266.wav,0,poule,1454,62,4,5,français,m,2,0.2,-38.46127027,0.15170522
657b128079618c853ed056b4,174,3,2024-02-24T09:13:04.163Z,french_266.wav,0,poule,1454,62,4,5,français,m,3,0.25666667,-84.67234247,1.57053192
657b128079618c853ed056b4,175,3,2024-02-24T09:13:04.163Z,french_79.wav,0,poule,534,62,4,5,français,m,0,0.0,-17.81057473,1.07647634
657b128079618c853ed056b4,175,3,2024-02-24T09:13:04.163Z,french_79.wav,0,poule,534,62,4,5,français,m,1,0.1,-79.49788956,0.19758175
657b128079618c853ed056b4,175,3,2024-02-24T09:13:04.163Z,french_79.wav,0,poule,534,62,4,5,français,m,2,0.2,21.64031361,1.4893643
657b128079618c853ed056b4,175,3,2024-02-24T09:13:04.163Z,french_79.wav,0,poule,534,62,4,5,français,m,3,0.25666667,9.8962074,1.60982877
657b128079618c853ed056b4,176,3,2024-02-24T09:13:04.163Z,french_141.wav,0,poule,901,62,4,5,français,m,0,0.0,88.60100695,0.97838459
657b128079618c853ed056b4,176,3,2024-02-24T09:13:04.163Z,french_141.wav,0,poule,901,62,4,5,français,m,1,0.1,68.96819773,1.47503319
657b128079618c853ed056b4,176,3,2024-02-24T09:13:04.163Z,french_141.wav,0,poule,901,62,4,5,français,m,2,0.2,1.7368606,1.40537453
657b128079618c853ed056b4,176,3,2024-02-24T09:13:04.163Z,french_141.wav,0,poule,901,62,4,5,français,m,3,0.25666667,19.36556264,0.305772
657b128079618c853ed056b4,177,3,2024-02-24T09:13:04.163Z,french_206.wav,0,poule,643,62,4,5,français,m,0,0.0,54.3984601,1.52634336
657b128079618c853ed056b4,177,3,2024-02-24T09:13:04.163Z,french_206.wav,0,poule,643,62,4,5,français,m,1,0.1,63.13301153,0.52222794
657b128079618c853ed056b4,177,3,2024-02-24T09:13:04.163Z,french_206.wav,0,poule,643,62,4,5,français,m,2,0.2,42.02994149,1.32066154
657b128079618c853ed056b4,177,3,2024-02-24T09:13:04.163Z,french_206.wav,0,poule,643,62,4,5,français,m,3,0.25666667,-16.37363905,0.63957267
657b128079618c853ed056b4,178,3,2024-02-24T09:13:04.163Z,french_47.wav,0,pull,731,62,4,5,français,m,0,0.0,85.02614504,1.30132326
657b128079618c853ed056b4,178,3,2024-02-24T09:13:04.163Z,french_47.wav,0,pull,731,62,4,5,français,m,1,0.1,79.4123752,0.75427136
657b128079618c853ed056b4,178,3,2024-02-24T09:13:04.163Z,french_47.wav,0,pull,731,62,4,5,français,m,2,0.2,52.99117024,0.35196824
657b128079618c853ed056b4,178,3,2024-02-24T09:13:04.163Z,french_47.wav,0,pull,731,62,4,5,français,m,3,0.25666667,-70.6267891,0.96175292
657b128079618c853ed056b4,179,3,2024-02-24T09:13:04.163Z,french_377.wav,0,pull,673,62,4,5,français,m,0,0.0,99.29202042,1.14982617
657b128079618c853ed056b4,179,3,2024-02-24T09:13:04.163Z,french_377.wav,0,pull,673,62,4,5,français,m,1,0.1,26.86177352,1.68513437
657b128079618c853ed056b4,179,3,2024-02-24T09:13:04.163Z,french_377.wav,0,pull,673,62,4,5,français,m,2,0.2,-57.22110681,0.38363532
657b128079618c853ed056b4,179,3,2024-02-24T09:13:04.163Z,french_377.wav,0,pull,673,62,4,5,français,m,3,0.25666667,67.5545455,0.68728301
657b128079618c853ed056b4,180,3,2024-02-24T09:13:04.163Z,french_726.wav,0,pull,981,62,4,5,français,m,0,0.0,24.00791096,1.57962765
657b128079618c853ed056b4,180,3,2024-02-24T09:13:04.163Z,french_726.wav,0,pull,981,62,4,5,français,m,1,0.1,-92.28715444,0.67026409
657b128079618c853ed056b4,180,3,2024-02-24T09:13:04.163Z,french_726.wav,0,pull,981,62,4,5,français,m,2,0.2,-14.16316682,0.1799528
657b128079618c853ed056b4,180,3,2024-02-24T09:13:04.163Z,french_726.wav,0,pull,981,62,4,5,français,m,3,0.25666667,30.70182153,1.72405897
657b128079618c853ed056b4,181,3,2024-02-24T09:13:04.163Z,french_256.wav,0,pull,635,62,4,5,français,m,0,0.0,34.00641445,1.19838094
657b128079618c853ed056b4,181,3,2024-02-24T09:13:04.163Z,french_256.wav,0,pull,635,62,4,5,français,m,1,0.1,78.12380502,0.9412232
657b128079618c853ed056b4,181,3,2024-02-24T09:13:04.163Z,french_256.wav,0,pull,635,62,4,5,français,m,2,0.2,84.97245465,1.34630265
657b128079618c853ed056b4,181,3,2024-02-24T09:13:04.163Z,french_256.wav,0,pull,635,62,4,5,français,m,3,0.25666667,29.4187394,1.86077871
657b128079618c853ed056b4,182,3,2024-02-24T09:13:04.163Z,french_390.wav,0,pull,924,62,4,5,français,m,0,0.0,13.63716389,0.73987932
657b128079618c853ed056b4,182,3,2024-02-24T09:13:04.163Z,french_390.wav,0,pull,924,62,4,5,français,m,1,0.1,-61.62928039,1.19791102
657b128079618c853ed056b4,182,3,2024-02-24T09:13:04.163Z,french_390.wav,0,pull,924,62,4,5,français,m,2,0.2,89.99724903,0.30500022
657b128079618c853ed056b4,182,3,2024-02-24T09:13:04.163Z,french_390.wav,0,pull,924,62,4,5,français,m,3,0.25666667,-99.60285567,1.08417724
657b128079618c853ed056b4,183,3,2024-02-24T09:13:04.163Z,french_813.wav,0,pull,488,62,4,5,français,m,0,0.0,-37.07388554,0.1380457
657b128079618c853ed056b4,183,3,2024-02-24T09:13:04.163Z,french_813.wav,0,pull,488,62,4,5,français,m,1,0.1,74.87893645,0.44333359
657b128079618c853ed056b4,183,3,2024-02-24T09:13:04.163Z,french_813.wav,0,pull,488,62,4,5,français,m,2,0.2,-91.66198227,0.5462976
657b128079618c853ed056b4,183,3,2024-02-24T09:13:04.163Z,french_813.wav,0,pull,488,62,4,5,français,m,3,0.25666667,81.38219901,1.94163826
657b128079618c853ed056b4,184,3,2024-02-24T09:13:04.163Z,french_891.wav,0,pull,649,62,4,5,français,m,0,0.0,36.15157251,0.11830574
657b128079618c853ed056b4,184,3,2024-02-24T09:13:04.163Z,french_891.wav,0,pull,649,62,4,5,français,m,1,0.1,9.92087077,0.00778599
657b128079618c853ed056b4,184,3,2024-02-24T09:13:04.163Z,french_891.wav,0,pull,649,62,4,5,français,m,2,0.2,64.79051962,0.40739404
657b128079618c853ed056b4,184,3,2024-02-24T09:13:04.163Z,french_891.wav,0,pull,649,62,4,5,français,m,3,0.25666667,25.43576317,0.71071781
657b128079618c853ed056b4,185,3,2024-02-24T09:13:04.163Z,french_57.wav,0,poule,587,62,4,5,français,m,0,0.0,5.04798132,0.30893924
657b128079618c853ed056b4,185,3,2024-02-24T09:13:04.163Z,french_57.wav,0,poule,587,62,4,5,français,m,1,0.1,34.86476391,1.37192861
657b128079618c853ed056b4,185,3,2024-02-24T09:13:04.163Z,french_57.wav,0,poule,587,62,4,5,français,m,2,0.2,8.76450083,1.2366194
657b128079618c853ed056b4,185,3,2024-02-24T09:13:04.163Z,french_57.wav,0,poule,587,62,4,5,français,m,3,0.25666667,-66.01533982,1.17459784
657b128079618c853ed056b4,186,3,2024-02-24T09:13:04.163Z,french_837.wav,0,pull,528,62,4,5,français,m,0,0.0,12.86528577,1.70928146
657b128079618c853ed056b4,186,3,2024-02-24T09:13:04.163Z,french_837.wav,0,pull,528,62,4,5,français,m,1,0.1,80.83337189,0.14925978
657b128079618c853ed056b4,186,3,2024-02-24T09:13:04.163Z,french_837.wav,0,pull,528,62,4,5,français,m,2,0.2,-88.94110826,0.83215091
657b128079618c853ed056b4,186,3,2024-02-24T09:13:04.163Z,french_837.wav,0,pull,528,62,4,5,français,m,3,0.25666667,32.10555955,1.23671449
657b128079618c853ed056b4,187,3,2024-02-24T09:13:04.163Z,french_505.wav,0,poule,361,62,4,5,français,m,0,0.0,-38.72168331,1.89725183
657b128079618c853ed056b4,187,3,2024-02-24T09:13:04.163Z,french_505.wav,0,poule,361,62,4,5,français,m,1,0.1,-12.49542568,0.88243769
657b128079618c853ed056b4,187,3,2024-02-24T09:13:04.163Z,french_505.wav,0,poule,361,62,4,5,français,m,2,0.2,71.90880982,1.24748728
657b128079618c853ed056b4,187,3,2024-02-24T09:13:04.163Z,french_505.wav,0,poule,361,62,4,5,français,m,3,0.25666667,-94.40337553,0.62032879
657b128079618c853ed056b4,188,3,2024-02-24T09:13:04.163Z,french_948.wav,0,poule,689,62,4,5,français,m,0,0.0,54.2755123,0.60698289
657b128079618c853ed056b4,188,3,2024-02-24T09:13:04.163Z,french_948.wav,0,poule,689,62,4,5,français,m,1,0.1,-26.53776759,1.07019337
657b128079618c853ed056b4,188,3,2024-02-24T09:13:04.163Z,french_948.wav,0,poule,689,62,4,5,français,m,2,0.2,-51.24045856,1.47276383
657b128079618c853ed056b4,188,3,2024-02-24T09:13:04.163Z,french_948.wav,0,poule,689,62,4,5,français,m,3,0.25666667,84.11086463,1.01044713
657b128079618c853ed056b4,189,3,2024-02-24T09:13:04.163Z,french_367.wav,0,poule,437,62,4,5,français,m,0,0.0,-74.25610099,1.28932343
657b128079618c853ed056b4,189,3,2024-02-24T09:13:04.163Z,french_367.wav,0,poule,437,62,4,5,français,m,1,0.1,-44.66143863,1.13980767
657b128079618c853ed056b4,189,3,2024-02-24T09:13:04.163Z,french_367.wav,0,poule,437,62,4,5,français,m,2,0.2,-39.26529042,1.487469
657b128079618c853ed056b4,189,3,2024-02-24T09:13:04.163Z,french_367.wav,0,poule,437,62,4,5,français,m,3,0.25666667,-84.95145566,0.37349724
657b128079618c853ed056b4,190,3,2024-02-24T09:13:04.163Z,french_432.wav,0,poule,804,62,4,5,français,m,0,0.0,41.78718943,1.64767318
657b128079618c853ed056b4,190,3,2024-02-24T09:13:04.163Z,french_432.wav,0,poule,804,62,4,5,français,m,1,0.1,-73.8341876,1.66923601
