subj,trial,block,date,stim,stim_order,response,rt,age,english,french,language,sex,param_index,segment,pitch,stretch
5eb7031b5e4ac262cd77c949,0,0,2024-02-27T09:32:09.429Z,french_181.wav,0,poule,15696,45,3,5,français,m,0,0.0,52.63626805,0.9763228
5eb7031b5e4ac262cd77c949,0,0,2024-02-27T09:32:09.429Z,french_181.wav,0,poule,15696,45,3,5,français,m,1,0.1,57.50479679,1.59974154
5eb7031b5e4ac262cd77c949,0,0,2024-02-27T09:32:09.429Z,french_181.wav,0,poule,15696,45,3,5,français,m,2,0.2,-83.63706112,1.01502959
5eb7031b5e4ac262cd77c949,0,0,2024-02-27T09:32:09.429Z,french_181.wav,0,poule,15696,45,3,5,français,m,3,0.25666667,-1.92902825,0.93700507
5eb7031b5e4ac262cd77c949,1,0,2024-02-27T09:32:09.429Z,french_245.wav,0,poule,2849,45,3,5,français,m,0,0.0,-61.74573417,0.99313774
5eb7031b5e4ac262cd77c949,1,0,2024-02-27T09:32:09.429Z,french_245.wav,0,poule,2849,45,3,5,français,m,1,0.1,71.88692077,1.19752892
5eb7031b5e4ac262cd77c949,1,0,2024-02-27T09:32:09.429Z,french_245.wav,0,poule,2849,45,3,5,français,m,2,0.2,-28.60272728,1.585112
5eb7031b5e4ac262cd77c949,1,0,2024-02-27T09:32:09.429Z,french_245.wav,0,poule,2849,45,3,5,français,m,3,0.25666667,-6.96353839,1.16753586
5eb7031b5e4ac262cd77c949,2,0,2024-02-27T09:32:09.429Z,french_87.wav,0,poule,2236,45,3,5,français,m,0,0.0,57.46562038,1.84924107
5eb7031b5e4ac262cd77c949,2,0,2024-02-27T09:32:09.429Z,french_87.wav,0,poule,2236,45,3,5,français,m,1,0.1,64.37451918,1.35752119
5eb7031b5e4ac262cd77c949,2,0,2024-02-27T09:32:09.429Z,french_87.wav,0,poule,2236,45,3,5,français,m,2,0.2,34.82822911,1.55092153
5eb7031b5e4ac262cd77c949,2,0,2024-02-27T09:32:09.429Z,french_87.wav,0,poule,2236,45,3,5,français,m,3,0.25666667,-44.22171713,0.2478561
5eb7031b5e4ac262cd77c949,3,0,2024-02-27T09:32:09.429Z,french_462.wav,0,poule,1948,45,3,5,français,m,0,0.0,-21.95394664,1.87011175
5eb7031b5e4ac262cd77c949,3,0,2024-02-27T09:32:09.429Z,french_462.wav,0,poule,1948,45,3,5,français,m,1,0.1,40.83343907,1.54087482
5eb7031b5e4ac262cd77c949,3,0,2024-02-27T09:32:09.429Z,french_462.wav,0,poule,1948,45,3,5,français,m,2,0.2,-14.27053038,0.9591328
5eb7031b5e4ac262cd77c949,3,0,2024-02-27T09:32:09.429Z,french_462.wav,0,poule,1948,45,3,5,français,m,3,0.25666667,85.20745493,0.45105527
5eb7031b5e4ac262cd77c949,4,0,2024-02-27T09:32:09.429Z,french_791.wav,0,pull,4574,45,3,5,français,m,0,0.0,-81.64215326,0.09493453
5eb7031b5e4ac262cd77c949,4,0,2024-02-27T09:32:09.429Z,french_791.wav,0,pull,4574,45,3,5,français,m,1,0.1,84.74526907,0.0053506
5eb7031b5e4ac262cd77c949,4,0,2024-02-27T09:32:09.429Z,french_791.wav,0,pull,4574,45,3,5,français,m,2,0.2,-10.10354349,1.61132934
5eb7031b5e4ac262cd77c949,4,0,2024-02-27T09:32:09.429Z,french_791.wav,0,pull,4574,45,3,5,français,m,3,0.25666667,-10.14583619,1.39802197
5eb7031b5e4ac262cd77c949,5,0,2024-02-27T09:32:09.429Z,french_26.wav,0,poule,2126,45,3,5,français,m,0,0.0,-38.52186107,1.55913274
5eb7031b5e4ac262cd77c949,5,0,2024-02-27T09:32:09.429Z,french_26.wav,0,poule,2126,45,3,5,français,m,1,0.1,92.94908957,0.73355846
5eb7031b5e4ac262cd77c949,5,0,2024-02-27T09:32:09.429Z,french_26.wav,0,poule,2126,45,3,5,français,m,2,0.2,38.63958599,0.51766924
5eb7031b5e4ac262cd77c949,5,0,2024-02-27T09:32:09.429Z,french_26.wav,0,poule,2126,45,3,5,français,m,3,0.25666667,81.76747676,0.7935304
5eb7031b5e4ac262cd77c949,6,0,2024-02-27T09:32:09.429Z,french_806.wav,0,poule,1090,45,3,5,français,m,0,0.0,97.26957313,1.48673004
5eb7031b5e4ac262cd77c949,6,0,2024-02-27T09:32:09.429Z,french_806.wav,0,poule,1090,45,3,5,français,m,1,0.1,79.44562669,1.9967546
5eb7031b5e4ac262cd77c949,6,0,2024-02-27T09:32:09.429Z,french_806.wav,0,poule,1090,45,3,5,français,m,2,0.2,79.77586719,0.9238106
5eb7031b5e4ac262cd77c949,6,0,2024-02-27T09:32:09.429Z,french_806.wav,0,poule,1090,45,3,5,français,m,3,0.25666667,-46.2684083,1.39755131
5eb7031b5e4ac262cd77c949,7,0,2024-02-27T09:32:09.429Z,french_691.wav,0,poule,795,45,3,5,français,m,0,0.0,89.02514599,1.04651451
5eb7031b5e4ac262cd77c949,7,0,2024-02-27T09:32:09.429Z,french_691.wav,0,poule,795,45,3,5,français,m,1,0.1,84.72414094,1.61938954
5eb7031b5e4ac262cd77c949,7,0,2024-02-27T09:32:09.429Z,french_691.wav,0,poule,795,45,3,5,français,m,2,0.2,-3.6265137,1.34588415
5eb7031b5e4ac262cd77c949,7,0,2024-02-27T09:32:09.429Z,french_691.wav,0,poule,795,45,3,5,français,m,3,0.25666667,-99.35319265,1.50620009
5eb7031b5e4ac262cd77c949,8,0,2024-02-27T09:32:09.429Z,french_310.wav,0,pull,2094,45,3,5,français,m,0,0.0,-83.78338178,0.11877442
5eb7031b5e4ac262cd77c949,8,0,2024-02-27T09:32:09.429Z,french_310.wav,0,pull,2094,45,3,5,français,m,1,0.1,-13.73891655,1.32851017
5eb7031b5e4ac262cd77c949,8,0,2024-02-27T09:32:09.429Z,french_310.wav,0,pull,2094,45,3,5,français,m,2,0.2,58.07821313,0.76082745
5eb7031b5e4ac262cd77c949,8,0,2024-02-27T09:32:09.429Z,french_310.wav,0,pull,2094,45,3,5,français,m,3,0.25666667,26.26954934,1.37378881
5eb7031b5e4ac262cd77c949,9,0,2024-02-27T09:32:09.429Z,french_264.wav,0,poule,2655,45,3,5,français,m,0,0.0,-17.29134877,0.96448196
5eb7031b5e4ac262cd77c949,9,0,2024-02-27T09:32:09.429Z,french_264.wav,0,poule,2655,45,3,5,français,m,1,0.1,-10.91480705,1.52626855
5eb7031b5e4ac262cd77c949,9,0,2024-02-27T09:32:09.429Z,french_264.wav,0,poule,2655,45,3,5,français,m,2,0.2,-52.17023247,1.44831705
5eb7031b5e4ac262cd77c949,9,0,2024-02-27T09:32:09.429Z,french_264.wav,0,poule,2655,45,3,5,français,m,3,0.25666667,-37.31404804,1.66094276
5eb7031b5e4ac262cd77c949,10,0,2024-02-27T09:32:09.429Z,french_655.wav,0,poule,1000,45,3,5,français,m,0,0.0,4.60078694,1.00375004
5eb7031b5e4ac262cd77c949,10,0,2024-02-27T09:32:09.429Z,french_655.wav,0,poule,1000,45,3,5,français,m,1,0.1,90.51966262,1.23726083
5eb7031b5e4ac262cd77c949,10,0,2024-02-27T09:32:09.429Z,french_655.wav,0,poule,1000,45,3,5,français,m,2,0.2,-72.80105835,1.08672065
5eb7031b5e4ac262cd77c949,10,0,2024-02-27T09:32:09.429Z,french_655.wav,0,poule,1000,45,3,5,français,m,3,0.25666667,32.46228297,0.32613357
5eb7031b5e4ac262cd77c949,11,0,2024-02-27T09:32:09.429Z,french_727.wav,0,pull,1791,45,3,5,français,m,0,0.0,-15.29396541,0.40840987
5eb7031b5e4ac262cd77c949,11,0,2024-02-27T09:32:09.429Z,french_727.wav,0,pull,1791,45,3,5,français,m,1,0.1,-26.29552155,0.3000398
5eb7031b5e4ac262cd77c949,11,0,2024-02-27T09:32:09.429Z,french_727.wav,0,pull,1791,45,3,5,français,m,2,0.2,79.97121571,1.00640838
5eb7031b5e4ac262cd77c949,11,0,2024-02-27T09:32:09.429Z,french_727.wav,0,pull,1791,45,3,5,français,m,3,0.25666667,55.89998316,1.06507384
5eb7031b5e4ac262cd77c949,12,0,2024-02-27T09:32:09.429Z,french_50.wav,0,pull,622,45,3,5,français,m,0,0.0,-85.65055263,1.56155391
5eb7031b5e4ac262cd77c949,12,0,2024-02-27T09:32:09.429Z,french_50.wav,0,pull,622,45,3,5,français,m,1,0.1,-8.41774185,0.5849625
5eb7031b5e4ac262cd77c949,12,0,2024-02-27T09:32:09.429Z,french_50.wav,0,pull,622,45,3,5,français,m,2,0.2,31.4658541,1.04346227
5eb7031b5e4ac262cd77c949,12,0,2024-02-27T09:32:09.429Z,french_50.wav,0,pull,622,45,3,5,français,m,3,0.25666667,98.77299977,0.72937699
5eb7031b5e4ac262cd77c949,13,0,2024-02-27T09:32:09.429Z,french_441.wav,0,pull,1954,45,3,5,français,m,0,0.0,-52.65918707,0.98643262
5eb7031b5e4ac262cd77c949,13,0,2024-02-27T09:32:09.429Z,french_441.wav,0,pull,1954,45,3,5,français,m,1,0.1,-61.65013116,1.35237654
5eb7031b5e4ac262cd77c949,13,0,2024-02-27T09:32:09.429Z,french_441.wav,0,pull,1954,45,3,5,français,m,2,0.2,34.26317373,1.5364694
5eb7031b5e4ac262cd77c949,13,0,2024-02-27T09:32:09.429Z,french_441.wav,0,pull,1954,45,3,5,français,m,3,0.25666667,30.98760828,1.29655121
5eb7031b5e4ac262cd77c949,14,0,2024-02-27T09:32:09.429Z,french_381.wav,0,pull,1104,45,3,5,français,m,0,0.0,-36.22739734,0.39069554
5eb7031b5e4ac262cd77c949,14,0,2024-02-27T09:32:09.429Z,french_381.wav,0,pull,1104,45,3,5,français,m,1,0.1,63.18659678,0.02424263
5eb7031b5e4ac262cd77c949,14,0,2024-02-27T09:32:09.429Z,french_381.wav,0,pull,1104,45,3,5,français,m,2,0.2,-88.25823098,0.59540025
5eb7031b5e4ac262cd77c949,14,0,2024-02-27T09:32:09.429Z,french_381.wav,0,pull,1104,45,3,5,français,m,3,0.25666667,39.00702017,0.84340327
5eb7031b5e4ac262cd77c949,15,0,2024-02-27T09:32:09.429Z,french_849.wav,0,pull,720,45,3,5,français,m,0,0.0,-28.99181256,1.60316931
5eb7031b5e4ac262cd77c949,15,0,2024-02-27T09:32:09.429Z,french_849.wav,0,pull,720,45,3,5,français,m,1,0.1,-23.83365043,0.33831848
5eb7031b5e4ac262cd77c949,15,0,2024-02-27T09:32:09.429Z,french_849.wav,0,pull,720,45,3,5,français,m,2,0.2,-51.88410218,1.05589654
5eb7031b5e4ac262cd77c949,15,0,2024-02-27T09:32:09.429Z,french_849.wav,0,pull,720,45,3,5,français,m,3,0.25666667,-29.11212869,1.53017224
5eb7031b5e4ac262cd77c949,16,0,2024-02-27T09:32:09.429Z,french_492.wav,0,pull,742,45,3,5,français,m,0,0.0,26.23401792,1.39276004
5eb7031b5e4ac262cd77c949,16,0,2024-02-27T09:32:09.429Z,french_492.wav,0,pull,742,45,3,5,français,m,1,0.1,-24.69700304,1.17915575
5eb7031b5e4ac262cd77c949,16,0,2024-02-27T09:32:09.429Z,french_492.wav,0,pull,742,45,3,5,français,m,2,0.2,20.89476161,0.89700471
5eb7031b5e4ac262cd77c949,16,0,2024-02-27T09:32:09.429Z,french_492.wav,0,pull,742,45,3,5,français,m,3,0.25666667,-5.21833306,0.44164607
5eb7031b5e4ac262cd77c949,17,0,2024-02-27T09:32:09.429Z,french_416.wav,0,poule,4517,45,3,5,français,m,0,0.0,27.68943274,1.77963231
5eb7031b5e4ac262cd77c949,17,0,2024-02-27T09:32:09.429Z,french_416.wav,0,poule,4517,45,3,5,français,m,1,0.1,-10.10461599,1.68240888
5eb7031b5e4ac262cd77c949,17,0,2024-02-27T09:32:09.429Z,french_416.wav,0,poule,4517,45,3,5,français,m,2,0.2,24.64183683,1.38997073
5eb7031b5e4ac262cd77c949,17,0,2024-02-27T09:32:09.429Z,french_416.wav,0,poule,4517,45,3,5,français,m,3,0.25666667,96.08137129,0.64151937
5eb7031b5e4ac262cd77c949,18,0,2024-02-27T09:32:09.429Z,french_804.wav,0,poule,3033,45,3,5,français,m,0,0.0,26.75542793,1.45857154
5eb7031b5e4ac262cd77c949,18,0,2024-02-27T09:32:09.429Z,french_804.wav,0,poule,3033,45,3,5,français,m,1,0.1,-36.26520541,0.22938299
5eb7031b5e4ac262cd77c949,18,0,2024-02-27T09:32:09.429Z,french_804.wav,0,poule,3033,45,3,5,français,m,2,0.2,56.17292919,1.23693855
5eb7031b5e4ac262cd77c949,18,0,2024-02-27T09:32:09.429Z,french_804.wav,0,poule,3033,45,3,5,français,m,3,0.25666667,8.82571189,1.26994951
5eb7031b5e4ac262cd77c949,19,0,2024-02-27T09:32:09.429Z,french_756.wav,0,poule,645,45,3,5,français,m,0,0.0,35.62001521,0.86430693
5eb7031b5e4ac262cd77c949,19,0,2024-02-27T09:32:09.429Z,french_756.wav,0,poule,645,45,3,5,français,m,1,0.1,29.8199127,1.17673467
5eb7031b5e4ac262cd77c949,19,0,2024-02-27T09:32:09.429Z,french_756.wav,0,poule,645,45,3,5,français,m,2,0.2,-2.36977437,1.63370718
5eb7031b5e4ac262cd77c949,19,0,2024-02-27T09:32:09.429Z,french_756.wav,0,poule,645,45,3,5,français,m,3,0.25666667,-73.14220453,1.98740672
5eb7031b5e4ac262cd77c949,20,0,2024-02-27T09:32:09.429Z,french_974.wav,0,pull,2419,45,3,5,français,m,0,0.0,-56.73984936,0.20875225
5eb7031b5e4ac262cd77c949,20,0,2024-02-27T09:32:09.429Z,french_974.wav,0,pull,2419,45,3,5,français,m,1,0.1,32.58414802,0.25167591
5eb7031b5e4ac262cd77c949,20,0,2024-02-27T09:32:09.429Z,french_974.wav,0,pull,2419,45,3,5,français,m,2,0.2,-45.44939314,1.19458688
5eb7031b5e4ac262cd77c949,20,0,2024-02-27T09:32:09.429Z,french_974.wav,0,pull,2419,45,3,5,français,m,3,0.25666667,-96.65983196,0.25310381
5eb7031b5e4ac262cd77c949,21,0,2024-02-27T09:32:09.429Z,french_933.wav,0,poule,710,45,3,5,français,m,0,0.0,-24.27897726,0.66366025
5eb7031b5e4ac262cd77c949,21,0,2024-02-27T09:32:09.429Z,french_933.wav,0,poule,710,45,3,5,français,m,1,0.1,45.4380102,1.16686233
5eb7031b5e4ac262cd77c949,21,0,2024-02-27T09:32:09.429Z,french_933.wav,0,poule,710,45,3,5,français,m,2,0.2,44.52165476,0.86083852
5eb7031b5e4ac262cd77c949,21,0,2024-02-27T09:32:09.429Z,french_933.wav,0,poule,710,45,3,5,français,m,3,0.25666667,11.96128215,1.88972919
5eb7031b5e4ac262cd77c949,22,0,2024-02-27T09:32:09.429Z,french_465.wav,0,pull,924,45,3,5,français,m,0,0.0,75.74191185,0.24775687
5eb7031b5e4ac262cd77c949,22,0,2024-02-27T09:32:09.429Z,french_465.wav,0,pull,924,45,3,5,français,m,1,0.1,-78.40057178,0.61634124
5eb7031b5e4ac262cd77c949,22,0,2024-02-27T09:32:09.429Z,french_465.wav,0,pull,924,45,3,5,français,m,2,0.2,-12.36406326,1.57309013
5eb7031b5e4ac262cd77c949,22,0,2024-02-27T09:32:09.429Z,french_465.wav,0,pull,924,45,3,5,français,m,3,0.25666667,-26.5706303,0.56284004
5eb7031b5e4ac262cd77c949,23,0,2024-02-27T09:32:09.429Z,french_389.wav,0,poule,619,45,3,5,français,m,0,0.0,69.62296415,1.67675408
5eb7031b5e4ac262cd77c949,23,0,2024-02-27T09:32:09.429Z,french_389.wav,0,poule,619,45,3,5,français,m,1,0.1,-41.49433877,1.60540147
5eb7031b5e4ac262cd77c949,23,0,2024-02-27T09:32:09.429Z,french_389.wav,0,poule,619,45,3,5,français,m,2,0.2,-65.025051,0.45817867
5eb7031b5e4ac262cd77c949,23,0,2024-02-27T09:32:09.429Z,french_389.wav,0,poule,619,45,3,5,français,m,3,0.25666667,10.9117334,1.10562968
5eb7031b5e4ac262cd77c949,24,0,2024-02-27T09:32:09.429Z,french_690.wav,0,pull,826,45,3,5,français,m,0,0.0,79.01312907,1.49686193
5eb7031b5e4ac262cd77c949,24,0,2024-02-27T09:32:09.429Z,french_690.wav,0,pull,826,45,3,5,français,m,1,0.1,-50.63616883,0.92741038
5eb7031b5e4ac262cd77c949,24,0,2024-02-27T09:32:09.429Z,french_690.wav,0,pull,826,45,3,5,français,m,2,0.2,19.49439666,0.30770403
5eb7031b5e4ac262cd77c949,24,0,2024-02-27T09:32:09.429Z,french_690.wav,0,pull,826,45,3,5,français,m,3,0.25666667,-20.64233715,0.53460579
5eb7031b5e4ac262cd77c949,25,0,2024-02-27T09:32:09.429Z,french_939.wav,0,poule,1729,45,3,5,français,m,0,0.0,26.75853805,1.87296773
5eb7031b5e4ac262cd77c949,25,0,2024-02-27T09:32:09.429Z,french_939.wav,0,poule,1729,45,3,5,français,m,1,0.1,6.19803181,1.06061528
5eb7031b5e4ac262cd77c949,25,0,2024-02-27T09:32:09.429Z,french_939.wav,0,poule,1729,45,3,5,français,m,2,0.2,-16.72335747,1.33482008
5eb7031b5e4ac262cd77c949,25,0,2024-02-27T09:32:09.429Z,french_939.wav,0,poule,1729,45,3,5,français,m,3,0.25666667,96.23810145,0.73381464
5eb7031b5e4ac262cd77c949,26,0,2024-02-27T09:32:09.429Z,french_920.wav,0,poule,523,45,3,5,français,m,0,0.0,98.83591172,0.7646584
5eb7031b5e4ac262cd77c949,26,0,2024-02-27T09:32:09.429Z,french_920.wav,0,poule,523,45,3,5,français,m,1,0.1,-64.95643085,1.02879579
5eb7031b5e4ac262cd77c949,26,0,2024-02-27T09:32:09.429Z,french_920.wav,0,poule,523,45,3,5,français,m,2,0.2,1.57326281,1.0684491
5eb7031b5e4ac262cd77c949,26,0,2024-02-27T09:32:09.429Z,french_920.wav,0,poule,523,45,3,5,français,m,3,0.25666667,-25.63648329,0.89198175
5eb7031b5e4ac262cd77c949,27,0,2024-02-27T09:32:09.429Z,french_948.wav,0,pull,1134,45,3,5,français,m,0,0.0,54.2755123,0.60698289
5eb7031b5e4ac262cd77c949,27,0,2024-02-27T09:32:09.429Z,french_948.wav,0,pull,1134,45,3,5,français,m,1,0.1,-26.53776759,1.07019337
5eb7031b5e4ac262cd77c949,27,0,2024-02-27T09:32:09.429Z,french_948.wav,0,pull,1134,45,3,5,français,m,2,0.2,-51.24045856,1.47276383
5eb7031b5e4ac262cd77c949,27,0,2024-02-27T09:32:09.429Z,french_948.wav,0,pull,1134,45,3,5,français,m,3,0.25666667,84.11086463,1.01044713
5eb7031b5e4ac262cd77c949,28,0,2024-02-27T09:32:09.429Z,french_818.wav,0,poule,631,45,3,5,français,m,0,0.0,-26.74770248,1.09674102
5eb7031b5e4ac262cd77c949,28,0,2024-02-27T09:32:09.429Z,french_818.wav,0,poule,631,45,3,5,français,m,1,0.1,-33.54864391,0.98606035
5eb7031b5e4ac262cd77c949,28,0,2024-02-27T09:32:09.429Z,french_818.wav,0,poule,631,45,3,5,français,m,2,0.2,-23.72939517,1.86933067
5eb7031b5e4ac262cd77c949,28,0,2024-02-27T09:32:09.429Z,french_818.wav,0,poule,631,45,3,5,français,m,3,0.25666667,53.93300908,0.6204836
5eb7031b5e4ac262cd77c949,29,0,2024-02-27T09:32:09.429Z,french_612.wav,0,pull,793,45,3,5,français,m,0,0.0,43.10783066,0.49686358
5eb7031b5e4ac262cd77c949,29,0,2024-02-27T09:32:09.429Z,french_612.wav,0,pull,793,45,3,5,français,m,1,0.1,-4.14995098,1.10500502
5eb7031b5e4ac262cd77c949,29,0,2024-02-27T09:32:09.429Z,french_612.wav,0,pull,793,45,3,5,français,m,2,0.2,22.17563662,0.22222502
5eb7031b5e4ac262cd77c949,29,0,2024-02-27T09:32:09.429Z,french_612.wav,0,pull,793,45,3,5,français,m,3,0.25666667,-48.75850842,1.14111641
5eb7031b5e4ac262cd77c949,30,0,2024-02-27T09:32:09.429Z,french_170.wav,0,poule,500,45,3,5,français,m,0,0.0,33.63406691,1.37140183
5eb7031b5e4ac262cd77c949,30,0,2024-02-27T09:32:09.429Z,french_170.wav,0,poule,500,45,3,5,français,m,1,0.1,-66.14633185,0.98919038
5eb7031b5e4ac262cd77c949,30,0,2024-02-27T09:32:09.429Z,french_170.wav,0,poule,500,45,3,5,français,m,2,0.2,-74.26701986,1.38629831
5eb7031b5e4ac262cd77c949,30,0,2024-02-27T09:32:09.429Z,french_170.wav,0,poule,500,45,3,5,français,m,3,0.25666667,32.33295865,0.43392523
5eb7031b5e4ac262cd77c949,31,0,2024-02-27T09:32:09.429Z,french_884.wav,0,poule,464,45,3,5,français,m,0,0.0,44.18626496,0.26295785
5eb7031b5e4ac262cd77c949,31,0,2024-02-27T09:32:09.429Z,french_884.wav,0,poule,464,45,3,5,français,m,1,0.1,-64.95611773,1.5401655
5eb7031b5e4ac262cd77c949,31,0,2024-02-27T09:32:09.429Z,french_884.wav,0,poule,464,45,3,5,français,m,2,0.2,-49.1644617,1.25089254
5eb7031b5e4ac262cd77c949,31,0,2024-02-27T09:32:09.429Z,french_884.wav,0,poule,464,45,3,5,français,m,3,0.25666667,-37.6294576,1.82171191
5eb7031b5e4ac262cd77c949,32,0,2024-02-27T09:32:09.429Z,french_270.wav,0,poule,480,45,3,5,français,m,0,0.0,-78.86827529,1.67831185
5eb7031b5e4ac262cd77c949,32,0,2024-02-27T09:32:09.429Z,french_270.wav,0,poule,480,45,3,5,français,m,1,0.1,-82.37829284,0.76287252
5eb7031b5e4ac262cd77c949,32,0,2024-02-27T09:32:09.429Z,french_270.wav,0,poule,480,45,3,5,français,m,2,0.2,-56.83639547,1.7160191
5eb7031b5e4ac262cd77c949,32,0,2024-02-27T09:32:09.429Z,french_270.wav,0,poule,480,45,3,5,français,m,3,0.25666667,11.60888519,0.82403755
5eb7031b5e4ac262cd77c949,33,0,2024-02-27T09:32:09.429Z,french_796.wav,0,pull,1544,45,3,5,français,m,0,0.0,-38.09805788,1.93486201
5eb7031b5e4ac262cd77c949,33,0,2024-02-27T09:32:09.429Z,french_796.wav,0,pull,1544,45,3,5,français,m,1,0.1,-51.81358868,1.49994235
5eb7031b5e4ac262cd77c949,33,0,2024-02-27T09:32:09.429Z,french_796.wav,0,pull,1544,45,3,5,français,m,2,0.2,88.47322764,1.42581223
5eb7031b5e4ac262cd77c949,33,0,2024-02-27T09:32:09.429Z,french_796.wav,0,pull,1544,45,3,5,français,m,3,0.25666667,-34.90405205,0.47367866
5eb7031b5e4ac262cd77c949,34,0,2024-02-27T09:32:09.429Z,french_18.wav,0,poule,762,45,3,5,français,m,0,0.0,29.29326365,1.56476478
5eb7031b5e4ac262cd77c949,34,0,2024-02-27T09:32:09.429Z,french_18.wav,0,poule,762,45,3,5,français,m,1,0.1,-65.9497706,0.7748919
5eb7031b5e4ac262cd77c949,34,0,2024-02-27T09:32:09.429Z,french_18.wav,0,poule,762,45,3,5,français,m,2,0.2,-68.38187686,0.73946843
5eb7031b5e4ac262cd77c949,34,0,2024-02-27T09:32:09.429Z,french_18.wav,0,poule,762,45,3,5,français,m,3,0.25666667,26.32477662,1.33435109
5eb7031b5e4ac262cd77c949,35,0,2024-02-27T09:32:09.429Z,french_353.wav,0,poule,453,45,3,5,français,m,0,0.0,-27.01804801,0.51521002
5eb7031b5e4ac262cd77c949,35,0,2024-02-27T09:32:09.429Z,french_353.wav,0,poule,453,45,3,5,français,m,1,0.1,16.22716876,1.40915564
5eb7031b5e4ac262cd77c949,35,0,2024-02-27T09:32:09.429Z,french_353.wav,0,poule,453,45,3,5,français,m,2,0.2,-38.75476954,1.13160084
5eb7031b5e4ac262cd77c949,35,0,2024-02-27T09:32:09.429Z,french_353.wav,0,poule,453,45,3,5,français,m,3,0.25666667,38.92446625,0.21009684
5eb7031b5e4ac262cd77c949,36,0,2024-02-27T09:32:09.429Z,french_954.wav,0,pull,885,45,3,5,français,m,0,0.0,-31.81965022,1.69468269
5eb7031b5e4ac262cd77c949,36,0,2024-02-27T09:32:09.429Z,french_954.wav,0,pull,885,45,3,5,français,m,1,0.1,82.90828133,0.7734121
5eb7031b5e4ac262cd77c949,36,0,2024-02-27T09:32:09.429Z,french_954.wav,0,pull,885,45,3,5,français,m,2,0.2,94.68318648,0.43346946
5eb7031b5e4ac262cd77c949,36,0,2024-02-27T09:32:09.429Z,french_954.wav,0,pull,885,45,3,5,français,m,3,0.25666667,-42.01635115,0.14112827
5eb7031b5e4ac262cd77c949,37,0,2024-02-27T09:32:09.429Z,french_192.wav,0,pull,1018,45,3,5,français,m,0,0.0,73.17690414,1.47156363
5eb7031b5e4ac262cd77c949,37,0,2024-02-27T09:32:09.429Z,french_192.wav,0,pull,1018,45,3,5,français,m,1,0.1,14.65884197,0.92412776
5eb7031b5e4ac262cd77c949,37,0,2024-02-27T09:32:09.429Z,french_192.wav,0,pull,1018,45,3,5,français,m,2,0.2,-6.29840632,0.27182316
5eb7031b5e4ac262cd77c949,37,0,2024-02-27T09:32:09.429Z,french_192.wav,0,pull,1018,45,3,5,français,m,3,0.25666667,-32.28340249,1.34820636
5eb7031b5e4ac262cd77c949,38,0,2024-02-27T09:32:09.429Z,french_730.wav,0,poule,610,45,3,5,français,m,0,0.0,45.92676741,0.18014666
5eb7031b5e4ac262cd77c949,38,0,2024-02-27T09:32:09.429Z,french_730.wav,0,poule,610,45,3,5,français,m,1,0.1,-44.36449205,1.39371349
5eb7031b5e4ac262cd77c949,38,0,2024-02-27T09:32:09.429Z,french_730.wav,0,poule,610,45,3,5,français,m,2,0.2,-0.92451291,1.11032992
5eb7031b5e4ac262cd77c949,38,0,2024-02-27T09:32:09.429Z,french_730.wav,0,poule,610,45,3,5,français,m,3,0.25666667,30.80646356,1.142585
5eb7031b5e4ac262cd77c949,39,0,2024-02-27T09:32:09.429Z,french_768.wav,0,poule,1300,45,3,5,français,m,0,0.0,43.80393873,0.16736189
5eb7031b5e4ac262cd77c949,39,0,2024-02-27T09:32:09.429Z,french_768.wav,0,poule,1300,45,3,5,français,m,1,0.1,23.97019037,0.82539527
5eb7031b5e4ac262cd77c949,39,0,2024-02-27T09:32:09.429Z,french_768.wav,0,poule,1300,45,3,5,français,m,2,0.2,96.73627246,1.26581733
5eb7031b5e4ac262cd77c949,39,0,2024-02-27T09:32:09.429Z,french_768.wav,0,poule,1300,45,3,5,français,m,3,0.25666667,86.69297093,1.40091334
5eb7031b5e4ac262cd77c949,40,0,2024-02-27T09:32:09.429Z,french_335.wav,0,pull,825,45,3,5,français,m,0,0.0,-60.92786521,0.89558721
5eb7031b5e4ac262cd77c949,40,0,2024-02-27T09:32:09.429Z,french_335.wav,0,pull,825,45,3,5,français,m,1,0.1,31.54292158,1.14451351
5eb7031b5e4ac262cd77c949,40,0,2024-02-27T09:32:09.429Z,french_335.wav,0,pull,825,45,3,5,français,m,2,0.2,82.84770607,0.29770625
5eb7031b5e4ac262cd77c949,40,0,2024-02-27T09:32:09.429Z,french_335.wav,0,pull,825,45,3,5,français,m,3,0.25666667,75.81016287,0.45932577
5eb7031b5e4ac262cd77c949,41,0,2024-02-27T09:32:09.429Z,french_997.wav,0,poule,950,45,3,5,français,m,0,0.0,70.02211451,0.23520638
5eb7031b5e4ac262cd77c949,41,0,2024-02-27T09:32:09.429Z,french_997.wav,0,poule,950,45,3,5,français,m,1,0.1,69.24362731,0.40856699
5eb7031b5e4ac262cd77c949,41,0,2024-02-27T09:32:09.429Z,french_997.wav,0,poule,950,45,3,5,français,m,2,0.2,73.007848,1.59962624
5eb7031b5e4ac262cd77c949,41,0,2024-02-27T09:32:09.429Z,french_997.wav,0,poule,950,45,3,5,français,m,3,0.25666667,83.15376715,0.8906701
5eb7031b5e4ac262cd77c949,42,0,2024-02-27T09:32:09.429Z,french_569.wav,0,poule,823,45,3,5,français,m,0,0.0,14.0156596,1.29627558
5eb7031b5e4ac262cd77c949,42,0,2024-02-27T09:32:09.429Z,french_569.wav,0,poule,823,45,3,5,français,m,1,0.1,85.00283799,1.08637511
5eb7031b5e4ac262cd77c949,42,0,2024-02-27T09:32:09.429Z,french_569.wav,0,poule,823,45,3,5,français,m,2,0.2,-53.61423207,1.60007367
5eb7031b5e4ac262cd77c949,42,0,2024-02-27T09:32:09.429Z,french_569.wav,0,poule,823,45,3,5,français,m,3,0.25666667,-38.88478833,0.57872623
5eb7031b5e4ac262cd77c949,43,0,2024-02-27T09:32:09.429Z,french_855.wav,0,poule,525,45,3,5,français,m,0,0.0,2.71159552,1.64624975
5eb7031b5e4ac262cd77c949,43,0,2024-02-27T09:32:09.429Z,french_855.wav,0,poule,525,45,3,5,français,m,1,0.1,66.05842931,0.54809415
5eb7031b5e4ac262cd77c949,43,0,2024-02-27T09:32:09.429Z,french_855.wav,0,poule,525,45,3,5,français,m,2,0.2,41.00995311,1.64541289
5eb7031b5e4ac262cd77c949,43,0,2024-02-27T09:32:09.429Z,french_855.wav,0,poule,525,45,3,5,français,m,3,0.25666667,98.2962498,1.22205238
5eb7031b5e4ac262cd77c949,44,0,2024-02-27T09:32:09.429Z,french_692.wav,0,pull,1261,45,3,5,français,m,0,0.0,-30.56073905,0.00354931
5eb7031b5e4ac262cd77c949,44,0,2024-02-27T09:32:09.429Z,french_692.wav,0,pull,1261,45,3,5,français,m,1,0.1,67.72997498,1.79271885
5eb7031b5e4ac262cd77c949,44,0,2024-02-27T09:32:09.429Z,french_692.wav,0,pull,1261,45,3,5,français,m,2,0.2,55.48980932,1.35474436
5eb7031b5e4ac262cd77c949,44,0,2024-02-27T09:32:09.429Z,french_692.wav,0,pull,1261,45,3,5,français,m,3,0.25666667,99.47423215,1.33636308
5eb7031b5e4ac262cd77c949,45,0,2024-02-27T09:32:09.429Z,french_538.wav,0,pull,908,45,3,5,français,m,0,0.0,-62.11881418,0.72316351
5eb7031b5e4ac262cd77c949,45,0,2024-02-27T09:32:09.429Z,french_538.wav,0,pull,908,45,3,5,français,m,1,0.1,-49.1326041,0.52652182
5eb7031b5e4ac262cd77c949,45,0,2024-02-27T09:32:09.429Z,french_538.wav,0,pull,908,45,3,5,français,m,2,0.2,11.48721962,0.30218135
5eb7031b5e4ac262cd77c949,45,0,2024-02-27T09:32:09.429Z,french_538.wav,0,pull,908,45,3,5,français,m,3,0.25666667,-26.18142206,1.69243497
5eb7031b5e4ac262cd77c949,46,0,2024-02-27T09:32:09.429Z,french_881.wav,0,poule,490,45,3,5,français,m,0,0.0,-25.82648211,0.15296837
5eb7031b5e4ac262cd77c949,46,0,2024-02-27T09:32:09.429Z,french_881.wav,0,poule,490,45,3,5,français,m,1,0.1,13.08751975,1.42149925
5eb7031b5e4ac262cd77c949,46,0,2024-02-27T09:32:09.429Z,french_881.wav,0,poule,490,45,3,5,français,m,2,0.2,-84.06590477,1.29281362
5eb7031b5e4ac262cd77c949,46,0,2024-02-27T09:32:09.429Z,french_881.wav,0,poule,490,45,3,5,français,m,3,0.25666667,-28.7935441,1.41538706
5eb7031b5e4ac262cd77c949,47,0,2024-02-27T09:32:09.429Z,french_436.wav,0,pull,854,45,3,5,français,m,0,0.0,21.52139078,0.27861971
5eb7031b5e4ac262cd77c949,47,0,2024-02-27T09:32:09.429Z,french_436.wav,0,pull,854,45,3,5,français,m,1,0.1,91.02122448,0.31750307
5eb7031b5e4ac262cd77c949,47,0,2024-02-27T09:32:09.429Z,french_436.wav,0,pull,854,45,3,5,français,m,2,0.2,28.53627776,0.35857003
5eb7031b5e4ac262cd77c949,47,0,2024-02-27T09:32:09.429Z,french_436.wav,0,pull,854,45,3,5,français,m,3,0.25666667,-78.88687792,1.70163595
5eb7031b5e4ac262cd77c949,48,0,2024-02-27T09:32:09.429Z,french_269.wav,0,pull,810,45,3,5,français,m,0,0.0,34.85044548,0.000617924031
5eb7031b5e4ac262cd77c949,48,0,2024-02-27T09:32:09.429Z,french_269.wav,0,pull,810,45,3,5,français,m,1,0.1,47.51511781,1.05540646
5eb7031b5e4ac262cd77c949,48,0,2024-02-27T09:32:09.429Z,french_269.wav,0,pull,810,45,3,5,français,m,2,0.2,34.15302515,0.984234213
5eb7031b5e4ac262cd77c949,48,0,2024-02-27T09:32:09.429Z,french_269.wav,0,pull,810,45,3,5,français,m,3,0.25666667,-55.0259295,0.845106618
5eb7031b5e4ac262cd77c949,49,0,2024-02-27T09:32:09.429Z,french_449.wav,0,poule,1117,45,3,5,français,m,0,0.0,49.95404734,0.88379096
5eb7031b5e4ac262cd77c949,49,0,2024-02-27T09:32:09.429Z,french_449.wav,0,poule,1117,45,3,5,français,m,1,0.1,-42.73933853,1.13878319
5eb7031b5e4ac262cd77c949,49,0,2024-02-27T09:32:09.429Z,french_449.wav,0,poule,1117,45,3,5,français,m,2,0.2,16.44287486,0.43325684
5eb7031b5e4ac262cd77c949,49,0,2024-02-27T09:32:09.429Z,french_449.wav,0,poule,1117,45,3,5,français,m,3,0.25666667,-12.34539139,0.01727343
5eb7031b5e4ac262cd77c949,50,1,2024-02-27T09:35:29.631Z,french_231.wav,0,poule,1001,45,3,5,français,m,0,0.0,15.23586761,1.95048297
5eb7031b5e4ac262cd77c949,50,1,2024-02-27T09:35:29.631Z,french_231.wav,0,poule,1001,45,3,5,français,m,1,0.1,15.03275874,1.45451509
5eb7031b5e4ac262cd77c949,50,1,2024-02-27T09:35:29.631Z,french_231.wav,0,poule,1001,45,3,5,français,m,2,0.2,-80.75641997,1.67801628
5eb7031b5e4ac262cd77c949,50,1,2024-02-27T09:35:29.631Z,french_231.wav,0,poule,1001,45,3,5,français,m,3,0.25666667,-36.14562296,1.39710855
5eb7031b5e4ac262cd77c949,51,1,2024-02-27T09:35:29.631Z,french_724.wav,0,poule,972,45,3,5,français,m,0,0.0,-58.96674975,0.30578628
5eb7031b5e4ac262cd77c949,51,1,2024-02-27T09:35:29.631Z,french_724.wav,0,poule,972,45,3,5,français,m,1,0.1,-95.33611412,0.57010607
5eb7031b5e4ac262cd77c949,51,1,2024-02-27T09:35:29.631Z,french_724.wav,0,poule,972,45,3,5,français,m,2,0.2,-56.69004984,1.33615123
5eb7031b5e4ac262cd77c949,51,1,2024-02-27T09:35:29.631Z,french_724.wav,0,poule,972,45,3,5,français,m,3,0.25666667,-50.97008283,1.59962144
5eb7031b5e4ac262cd77c949,52,1,2024-02-27T09:35:29.631Z,french_422.wav,0,poule,1408,45,3,5,français,m,0,0.0,84.96144948,0.57918651
5eb7031b5e4ac262cd77c949,52,1,2024-02-27T09:35:29.631Z,french_422.wav,0,poule,1408,45,3,5,français,m,1,0.1,-4.96569357,1.20973004
5eb7031b5e4ac262cd77c949,52,1,2024-02-27T09:35:29.631Z,french_422.wav,0,poule,1408,45,3,5,français,m,2,0.2,9.38898655,0.40935242
5eb7031b5e4ac262cd77c949,52,1,2024-02-27T09:35:29.631Z,french_422.wav,0,poule,1408,45,3,5,français,m,3,0.25666667,-4.34292742,0.41859168
5eb7031b5e4ac262cd77c949,53,1,2024-02-27T09:35:29.631Z,french_4.wav,0,pull,705,45,3,5,français,m,0,0.0,98.95945082,0.64471479
5eb7031b5e4ac262cd77c949,53,1,2024-02-27T09:35:29.631Z,french_4.wav,0,pull,705,45,3,5,français,m,1,0.1,-3.3646243,0.78588128
5eb7031b5e4ac262cd77c949,53,1,2024-02-27T09:35:29.631Z,french_4.wav,0,pull,705,45,3,5,français,m,2,0.2,-24.17143146,0.06764648
5eb7031b5e4ac262cd77c949,53,1,2024-02-27T09:35:29.631Z,french_4.wav,0,pull,705,45,3,5,français,m,3,0.25666667,88.72564355,1.26067449
5eb7031b5e4ac262cd77c949,54,1,2024-02-27T09:35:29.631Z,french_698.wav,0,poule,558,45,3,5,français,m,0,0.0,77.87531809,1.86418809
5eb7031b5e4ac262cd77c949,54,1,2024-02-27T09:35:29.631Z,french_698.wav,0,poule,558,45,3,5,français,m,1,0.1,-26.89699032,0.30357323
5eb7031b5e4ac262cd77c949,54,1,2024-02-27T09:35:29.631Z,french_698.wav,0,poule,558,45,3,5,français,m,2,0.2,-54.93316964,1.97458381
5eb7031b5e4ac262cd77c949,54,1,2024-02-27T09:35:29.631Z,french_698.wav,0,poule,558,45,3,5,français,m,3,0.25666667,-94.94644501,1.01877906
5eb7031b5e4ac262cd77c949,55,1,2024-02-27T09:35:29.631Z,french_891.wav,0,pull,745,45,3,5,français,m,0,0.0,36.15157251,0.11830574
5eb7031b5e4ac262cd77c949,55,1,2024-02-27T09:35:29.631Z,french_891.wav,0,pull,745,45,3,5,français,m,1,0.1,9.92087077,0.00778599
5eb7031b5e4ac262cd77c949,55,1,2024-02-27T09:35:29.631Z,french_891.wav,0,pull,745,45,3,5,français,m,2,0.2,64.79051962,0.40739404
5eb7031b5e4ac262cd77c949,55,1,2024-02-27T09:35:29.631Z,french_891.wav,0,pull,745,45,3,5,français,m,3,0.25666667,25.43576317,0.71071781
5eb7031b5e4ac262cd77c949,56,1,2024-02-27T09:35:29.631Z,french_990.wav,0,poule,539,45,3,5,français,m,0,0.0,31.68812365,0.81704568
5eb7031b5e4ac262cd77c949,56,1,2024-02-27T09:35:29.631Z,french_990.wav,0,poule,539,45,3,5,français,m,1,0.1,-82.48323459,1.80008391
5eb7031b5e4ac262cd77c949,56,1,2024-02-27T09:35:29.631Z,french_990.wav,0,poule,539,45,3,5,français,m,2,0.2,39.0525666,1.73012532
5eb7031b5e4ac262cd77c949,56,1,2024-02-27T09:35:29.631Z,french_990.wav,0,poule,539,45,3,5,français,m,3,0.25666667,-59.77120272,0.71793452
5eb7031b5e4ac262cd77c949,57,1,2024-02-27T09:35:29.631Z,french_242.wav,0,poule,912,45,3,5,français,m,0,0.0,19.1317605,0.13091957
5eb7031b5e4ac262cd77c949,57,1,2024-02-27T09:35:29.631Z,french_242.wav,0,poule,912,45,3,5,français,m,1,0.1,-45.8995637,1.80487076
5eb7031b5e4ac262cd77c949,57,1,2024-02-27T09:35:29.631Z,french_242.wav,0,poule,912,45,3,5,français,m,2,0.2,0.0160089686,1.56599149
5eb7031b5e4ac262cd77c949,57,1,2024-02-27T09:35:29.631Z,french_242.wav,0,poule,912,45,3,5,français,m,3,0.256666667,88.294087,1.35043951
5eb7031b5e4ac262cd77c949,58,1,2024-02-27T09:35:29.631Z,french_96.wav,0,poule,661,45,3,5,français,m,0,0.0,-35.67204937,1.29614461
5eb7031b5e4ac262cd77c949,58,1,2024-02-27T09:35:29.631Z,french_96.wav,0,poule,661,45,3,5,français,m,1,0.1,-14.5967046,0.74963508
5eb7031b5e4ac262cd77c949,58,1,2024-02-27T09:35:29.631Z,french_96.wav,0,poule,661,45,3,5,français,m,2,0.2,23.77171322,0.96397917
5eb7031b5e4ac262cd77c949,58,1,2024-02-27T09:35:29.631Z,french_96.wav,0,poule,661,45,3,5,français,m,3,0.25666667,-43.45086892,0.69619931
5eb7031b5e4ac262cd77c949,59,1,2024-02-27T09:35:29.631Z,french_522.wav,0,poule,489,45,3,5,français,m,0,0.0,-33.95775035,0.92167055
5eb7031b5e4ac262cd77c949,59,1,2024-02-27T09:35:29.631Z,french_522.wav,0,poule,489,45,3,5,français,m,1,0.1,-8.89346692,1.03421615
5eb7031b5e4ac262cd77c949,59,1,2024-02-27T09:35:29.631Z,french_522.wav,0,poule,489,45,3,5,français,m,2,0.2,-13.71087049,0.39118917
5eb7031b5e4ac262cd77c949,59,1,2024-02-27T09:35:29.631Z,french_522.wav,0,poule,489,45,3,5,français,m,3,0.25666667,29.03245504,1.12010972
5eb7031b5e4ac262cd77c949,60,1,2024-02-27T09:35:29.631Z,french_854.wav,0,poule,498,45,3,5,français,m,0,0.0,-7.31529778,1.19205775
5eb7031b5e4ac262cd77c949,60,1,2024-02-27T09:35:29.631Z,french_854.wav,0,poule,498,45,3,5,français,m,1,0.1,-99.41756076,1.8519083
5eb7031b5e4ac262cd77c949,60,1,2024-02-27T09:35:29.631Z,french_854.wav,0,poule,498,45,3,5,français,m,2,0.2,9.72781791,0.75121465
5eb7031b5e4ac262cd77c949,60,1,2024-02-27T09:35:29.631Z,french_854.wav,0,poule,498,45,3,5,français,m,3,0.25666667,12.92966386,0.73809803
5eb7031b5e4ac262cd77c949,61,1,2024-02-27T09:35:29.631Z,french_902.wav,0,poule,354,45,3,5,français,m,0,0.0,27.03523978,0.1459181
5eb7031b5e4ac262cd77c949,61,1,2024-02-27T09:35:29.631Z,french_902.wav,0,poule,354,45,3,5,français,m,1,0.1,-67.54213764,1.3453624
5eb7031b5e4ac262cd77c949,61,1,2024-02-27T09:35:29.631Z,french_902.wav,0,poule,354,45,3,5,français,m,2,0.2,21.7683879,1.83277685
5eb7031b5e4ac262cd77c949,61,1,2024-02-27T09:35:29.631Z,french_902.wav,0,poule,354,45,3,5,français,m,3,0.25666667,-96.90742585,0.52631336
5eb7031b5e4ac262cd77c949,62,1,2024-02-27T09:35:29.631Z,french_73.wav,0,poule,933,45,3,5,français,m,0,0.0,79.91377479,0.94290919
5eb7031b5e4ac262cd77c949,62,1,2024-02-27T09:35:29.631Z,french_73.wav,0,poule,933,45,3,5,français,m,1,0.1,21.44914026,0.58511712
5eb7031b5e4ac262cd77c949,62,1,2024-02-27T09:35:29.631Z,french_73.wav,0,poule,933,45,3,5,français,m,2,0.2,94.23892751,1.07660977
5eb7031b5e4ac262cd77c949,62,1,2024-02-27T09:35:29.631Z,french_73.wav,0,poule,933,45,3,5,français,m,3,0.25666667,-26.36168046,0.0399298
5eb7031b5e4ac262cd77c949,63,1,2024-02-27T09:35:29.631Z,french_977.wav,0,poule,578,45,3,5,français,m,0,0.0,-23.34946859,1.58788712
5eb7031b5e4ac262cd77c949,63,1,2024-02-27T09:35:29.631Z,french_977.wav,0,poule,578,45,3,5,français,m,1,0.1,-74.17160997,0.25032328
5eb7031b5e4ac262cd77c949,63,1,2024-02-27T09:35:29.631Z,french_977.wav,0,poule,578,45,3,5,français,m,2,0.2,31.43852713,0.90752219
5eb7031b5e4ac262cd77c949,63,1,2024-02-27T09:35:29.631Z,french_977.wav,0,poule,578,45,3,5,français,m,3,0.25666667,-10.29160018,1.52460946
5eb7031b5e4ac262cd77c949,64,1,2024-02-27T09:35:29.631Z,french_578.wav,0,poule,458,45,3,5,français,m,0,0.0,-7.38817871,1.21970749
5eb7031b5e4ac262cd77c949,64,1,2024-02-27T09:35:29.631Z,french_578.wav,0,poule,458,45,3,5,français,m,1,0.1,-62.82402322,1.48191428
5eb7031b5e4ac262cd77c949,64,1,2024-02-27T09:35:29.631Z,french_578.wav,0,poule,458,45,3,5,français,m,2,0.2,-74.03812343,0.32639168
5eb7031b5e4ac262cd77c949,64,1,2024-02-27T09:35:29.631Z,french_578.wav,0,poule,458,45,3,5,français,m,3,0.25666667,-40.1929109,0.05147762
5eb7031b5e4ac262cd77c949,65,1,2024-02-27T09:35:29.631Z,french_388.wav,0,poule,660,45,3,5,français,m,0,0.0,-56.99851318,0.76802497
5eb7031b5e4ac262cd77c949,65,1,2024-02-27T09:35:29.631Z,french_388.wav,0,poule,660,45,3,5,français,m,1,0.1,-28.42117093,1.07190306
5eb7031b5e4ac262cd77c949,65,1,2024-02-27T09:35:29.631Z,french_388.wav,0,poule,660,45,3,5,français,m,2,0.2,-17.37440647,0.91030877
5eb7031b5e4ac262cd77c949,65,1,2024-02-27T09:35:29.631Z,french_388.wav,0,poule,660,45,3,5,français,m,3,0.25666667,19.5608334,0.1576099
5eb7031b5e4ac262cd77c949,66,1,2024-02-27T09:35:29.631Z,french_516.wav,0,poule,380,45,3,5,français,m,0,0.0,-18.05376101,1.88602221
5eb7031b5e4ac262cd77c949,66,1,2024-02-27T09:35:29.631Z,french_516.wav,0,poule,380,45,3,5,français,m,1,0.1,46.96361083,1.82153179
5eb7031b5e4ac262cd77c949,66,1,2024-02-27T09:35:29.631Z,french_516.wav,0,poule,380,45,3,5,français,m,2,0.2,63.85228851,1.94475993
5eb7031b5e4ac262cd77c949,66,1,2024-02-27T09:35:29.631Z,french_516.wav,0,poule,380,45,3,5,français,m,3,0.25666667,-69.83202403,1.41132457
5eb7031b5e4ac262cd77c949,67,1,2024-02-27T09:35:29.631Z,french_222.wav,0,pull,822,45,3,5,français,m,0,0.0,-98.35523197,0.13834953
5eb7031b5e4ac262cd77c949,67,1,2024-02-27T09:35:29.631Z,french_222.wav,0,pull,822,45,3,5,français,m,1,0.1,61.03285987,0.55930016
5eb7031b5e4ac262cd77c949,67,1,2024-02-27T09:35:29.631Z,french_222.wav,0,pull,822,45,3,5,français,m,2,0.2,-86.01422932,0.40370114
5eb7031b5e4ac262cd77c949,67,1,2024-02-27T09:35:29.631Z,french_222.wav,0,pull,822,45,3,5,français,m,3,0.25666667,61.26386047,0.21495758
5eb7031b5e4ac262cd77c949,68,1,2024-02-27T09:35:29.631Z,french_956.wav,0,poule,708,45,3,5,français,m,0,0.0,-17.2568339,1.05718214
5eb7031b5e4ac262cd77c949,68,1,2024-02-27T09:35:29.631Z,french_956.wav,0,poule,708,45,3,5,français,m,1,0.1,60.67626876,1.43914937
5eb7031b5e4ac262cd77c949,68,1,2024-02-27T09:35:29.631Z,french_956.wav,0,poule,708,45,3,5,français,m,2,0.2,40.71216363,0.83140318
5eb7031b5e4ac262cd77c949,68,1,2024-02-27T09:35:29.631Z,french_956.wav,0,poule,708,45,3,5,français,m,3,0.25666667,16.50619481,0.14426626
5eb7031b5e4ac262cd77c949,69,1,2024-02-27T09:35:29.631Z,french_43.wav,0,poule,553,45,3,5,français,m,0,0.0,-6.86336629,1.4879687
5eb7031b5e4ac262cd77c949,69,1,2024-02-27T09:35:29.631Z,french_43.wav,0,poule,553,45,3,5,français,m,1,0.1,1.3862511,1.50259819
5eb7031b5e4ac262cd77c949,69,1,2024-02-27T09:35:29.631Z,french_43.wav,0,poule,553,45,3,5,français,m,2,0.2,-46.66652787,1.37505073
5eb7031b5e4ac262cd77c949,69,1,2024-02-27T09:35:29.631Z,french_43.wav,0,poule,553,45,3,5,français,m,3,0.25666667,99.62545591,0.7561706
5eb7031b5e4ac262cd77c949,70,1,2024-02-27T09:35:29.631Z,french_674.wav,0,poule,677,45,3,5,français,m,0,0.0,36.8658398,0.63817569
5eb7031b5e4ac262cd77c949,70,1,2024-02-27T09:35:29.631Z,french_674.wav,0,poule,677,45,3,5,français,m,1,0.1,-70.55199619,1.9135219
5eb7031b5e4ac262cd77c949,70,1,2024-02-27T09:35:29.631Z,french_674.wav,0,poule,677,45,3,5,français,m,2,0.2,-3.70121723,1.96782527
5eb7031b5e4ac262cd77c949,70,1,2024-02-27T09:35:29.631Z,french_674.wav,0,poule,677,45,3,5,français,m,3,0.25666667,30.12615154,0.86862342
5eb7031b5e4ac262cd77c949,71,1,2024-02-27T09:35:29.631Z,french_201.wav,0,poule,541,45,3,5,français,m,0,0.0,8.42387769,1.26451206
5eb7031b5e4ac262cd77c949,71,1,2024-02-27T09:35:29.631Z,french_201.wav,0,poule,541,45,3,5,français,m,1,0.1,8.12168757,1.63493769
5eb7031b5e4ac262cd77c949,71,1,2024-02-27T09:35:29.631Z,french_201.wav,0,poule,541,45,3,5,français,m,2,0.2,-23.47755607,1.48075017
5eb7031b5e4ac262cd77c949,71,1,2024-02-27T09:35:29.631Z,french_201.wav,0,poule,541,45,3,5,français,m,3,0.25666667,-30.65193461,1.0984385
5eb7031b5e4ac262cd77c949,72,1,2024-02-27T09:35:29.631Z,french_399.wav,0,poule,409,45,3,5,français,m,0,0.0,60.88638106,0.92905576
5eb7031b5e4ac262cd77c949,72,1,2024-02-27T09:35:29.631Z,french_399.wav,0,poule,409,45,3,5,français,m,1,0.1,69.51712014,1.13956386
5eb7031b5e4ac262cd77c949,72,1,2024-02-27T09:35:29.631Z,french_399.wav,0,poule,409,45,3,5,français,m,2,0.2,11.9354414,0.89341089
5eb7031b5e4ac262cd77c949,72,1,2024-02-27T09:35:29.631Z,french_399.wav,0,poule,409,45,3,5,français,m,3,0.25666667,71.82951649,1.81253855
5eb7031b5e4ac262cd77c949,73,1,2024-02-27T09:35:29.631Z,french_755.wav,0,poule,596,45,3,5,français,m,0,0.0,-17.09048823,0.26038806
5eb7031b5e4ac262cd77c949,73,1,2024-02-27T09:35:29.631Z,french_755.wav,0,poule,596,45,3,5,français,m,1,0.1,56.35208106,0.92084882
5eb7031b5e4ac262cd77c949,73,1,2024-02-27T09:35:29.631Z,french_755.wav,0,poule,596,45,3,5,français,m,2,0.2,33.77031601,1.14499291
5eb7031b5e4ac262cd77c949,73,1,2024-02-27T09:35:29.631Z,french_755.wav,0,poule,596,45,3,5,français,m,3,0.25666667,73.0579331,1.40582081
5eb7031b5e4ac262cd77c949,74,1,2024-02-27T09:35:29.631Z,french_94.wav,0,poule,784,45,3,5,français,m,0,0.0,-38.18468722,1.72805858
5eb7031b5e4ac262cd77c949,74,1,2024-02-27T09:35:29.631Z,french_94.wav,0,poule,784,45,3,5,français,m,1,0.1,61.36042124,0.90054349
5eb7031b5e4ac262cd77c949,74,1,2024-02-27T09:35:29.631Z,french_94.wav,0,poule,784,45,3,5,français,m,2,0.2,-21.02312881,0.35857958
5eb7031b5e4ac262cd77c949,74,1,2024-02-27T09:35:29.631Z,french_94.wav,0,poule,784,45,3,5,français,m,3,0.25666667,-24.03892562,0.71397413
5eb7031b5e4ac262cd77c949,75,1,2024-02-27T09:35:29.631Z,french_942.wav,0,poule,682,45,3,5,français,m,0,0.0,-53.20970077,1.55725844
5eb7031b5e4ac262cd77c949,75,1,2024-02-27T09:35:29.631Z,french_942.wav,0,poule,682,45,3,5,français,m,1,0.1,-81.68739914,1.2093944
5eb7031b5e4ac262cd77c949,75,1,2024-02-27T09:35:29.631Z,french_942.wav,0,poule,682,45,3,5,français,m,2,0.2,39.47129185,0.05517711
5eb7031b5e4ac262cd77c949,75,1,2024-02-27T09:35:29.631Z,french_942.wav,0,poule,682,45,3,5,français,m,3,0.25666667,-77.13084916,1.56672295
5eb7031b5e4ac262cd77c949,76,1,2024-02-27T09:35:29.631Z,french_464.wav,0,poule,872,45,3,5,français,m,0,0.0,-77.91073693,1.45882001
5eb7031b5e4ac262cd77c949,76,1,2024-02-27T09:35:29.631Z,french_464.wav,0,poule,872,45,3,5,français,m,1,0.1,-4.27403448,1.08668269
5eb7031b5e4ac262cd77c949,76,1,2024-02-27T09:35:29.631Z,french_464.wav,0,poule,872,45,3,5,français,m,2,0.2,93.79465132,1.80605145
5eb7031b5e4ac262cd77c949,76,1,2024-02-27T09:35:29.631Z,french_464.wav,0,poule,872,45,3,5,français,m,3,0.25666667,49.64849416,1.6602635
5eb7031b5e4ac262cd77c949,77,1,2024-02-27T09:35:29.631Z,french_315.wav,0,poule,444,45,3,5,français,m,0,0.0,84.5751695,1.39276289
5eb7031b5e4ac262cd77c949,77,1,2024-02-27T09:35:29.631Z,french_315.wav,0,poule,444,45,3,5,français,m,1,0.1,-54.9339599,0.42909402
5eb7031b5e4ac262cd77c949,77,1,2024-02-27T09:35:29.631Z,french_315.wav,0,poule,444,45,3,5,français,m,2,0.2,-20.4659381,1.80166787
5eb7031b5e4ac262cd77c949,77,1,2024-02-27T09:35:29.631Z,french_315.wav,0,poule,444,45,3,5,français,m,3,0.256666667,0.0497627412,1.01422067
5eb7031b5e4ac262cd77c949,78,1,2024-02-27T09:35:29.631Z,french_65.wav,0,poule,397,45,3,5,français,m,0,0.0,-17.53877645,1.80859796
5eb7031b5e4ac262cd77c949,78,1,2024-02-27T09:35:29.631Z,french_65.wav,0,poule,397,45,3,5,français,m,1,0.1,77.85789868,1.24255314
5eb7031b5e4ac262cd77c949,78,1,2024-02-27T09:35:29.631Z,french_65.wav,0,poule,397,45,3,5,français,m,2,0.2,16.40180032,1.28894604
5eb7031b5e4ac262cd77c949,78,1,2024-02-27T09:35:29.631Z,french_65.wav,0,poule,397,45,3,5,français,m,3,0.25666667,56.20856175,0.80043142
5eb7031b5e4ac262cd77c949,79,1,2024-02-27T09:35:29.631Z,french_709.wav,0,poule,487,45,3,5,français,m,0,0.0,-79.1228884,1.66046785
5eb7031b5e4ac262cd77c949,79,1,2024-02-27T09:35:29.631Z,french_709.wav,0,poule,487,45,3,5,français,m,1,0.1,-27.45222572,0.50815509
5eb7031b5e4ac262cd77c949,79,1,2024-02-27T09:35:29.631Z,french_709.wav,0,poule,487,45,3,5,français,m,2,0.2,-11.54770291,1.01994244
5eb7031b5e4ac262cd77c949,79,1,2024-02-27T09:35:29.631Z,french_709.wav,0,poule,487,45,3,5,français,m,3,0.25666667,-99.06734201,1.8368488
5eb7031b5e4ac262cd77c949,80,1,2024-02-27T09:35:29.631Z,french_453.wav,0,poule,638,45,3,5,français,m,0,0.0,17.16336321,0.53243678
5eb7031b5e4ac262cd77c949,80,1,2024-02-27T09:35:29.631Z,french_453.wav,0,poule,638,45,3,5,français,m,1,0.1,-89.93005254,1.83492113
5eb7031b5e4ac262cd77c949,80,1,2024-02-27T09:35:29.631Z,french_453.wav,0,poule,638,45,3,5,français,m,2,0.2,91.22824445,1.32944014
5eb7031b5e4ac262cd77c949,80,1,2024-02-27T09:35:29.631Z,french_453.wav,0,poule,638,45,3,5,français,m,3,0.25666667,-84.37948707,0.35681228
5eb7031b5e4ac262cd77c949,81,1,2024-02-27T09:35:29.631Z,french_443.wav,0,poule,1109,45,3,5,français,m,0,0.0,-70.8287672,0.48827419
5eb7031b5e4ac262cd77c949,81,1,2024-02-27T09:35:29.631Z,french_443.wav,0,poule,1109,45,3,5,français,m,1,0.1,-57.74098156,0.38931866
5eb7031b5e4ac262cd77c949,81,1,2024-02-27T09:35:29.631Z,french_443.wav,0,poule,1109,45,3,5,français,m,2,0.2,-4.83347895,0.64406231
5eb7031b5e4ac262cd77c949,81,1,2024-02-27T09:35:29.631Z,french_443.wav,0,poule,1109,45,3,5,français,m,3,0.25666667,-81.70376308,1.21599086
5eb7031b5e4ac262cd77c949,82,1,2024-02-27T09:35:29.631Z,french_39.wav,0,poule,313,45,3,5,français,m,0,0.0,-37.58690814,0.69509593
5eb7031b5e4ac262cd77c949,82,1,2024-02-27T09:35:29.631Z,french_39.wav,0,poule,313,45,3,5,français,m,1,0.1,64.36969435,0.9899387
5eb7031b5e4ac262cd77c949,82,1,2024-02-27T09:35:29.631Z,french_39.wav,0,poule,313,45,3,5,français,m,2,0.2,-16.17747505,1.54991446
5eb7031b5e4ac262cd77c949,82,1,2024-02-27T09:35:29.631Z,french_39.wav,0,poule,313,45,3,5,français,m,3,0.25666667,-31.52468705,1.42558302
5eb7031b5e4ac262cd77c949,83,1,2024-02-27T09:35:29.631Z,french_294.wav,0,poule,447,45,3,5,français,m,0,0.0,18.73906337,1.13845915
5eb7031b5e4ac262cd77c949,83,1,2024-02-27T09:35:29.631Z,french_294.wav,0,poule,447,45,3,5,français,m,1,0.1,4.75064209,1.03898668
5eb7031b5e4ac262cd77c949,83,1,2024-02-27T09:35:29.631Z,french_294.wav,0,poule,447,45,3,5,français,m,2,0.2,-81.40088776,1.62818909
5eb7031b5e4ac262cd77c949,83,1,2024-02-27T09:35:29.631Z,french_294.wav,0,poule,447,45,3,5,français,m,3,0.25666667,-89.40929498,0.49616963
5eb7031b5e4ac262cd77c949,84,1,2024-02-27T09:35:29.631Z,french_413.wav,0,poule,446,45,3,5,français,m,0,0.0,-15.90568805,0.35618922
5eb7031b5e4ac262cd77c949,84,1,2024-02-27T09:35:29.631Z,french_413.wav,0,poule,446,45,3,5,français,m,1,0.1,76.04965913,1.72047272
5eb7031b5e4ac262cd77c949,84,1,2024-02-27T09:35:29.631Z,french_413.wav,0,poule,446,45,3,5,français,m,2,0.2,55.08996682,1.40872317
5eb7031b5e4ac262cd77c949,84,1,2024-02-27T09:35:29.631Z,french_413.wav,0,poule,446,45,3,5,français,m,3,0.25666667,17.39731584,1.8089724
5eb7031b5e4ac262cd77c949,85,1,2024-02-27T09:35:29.631Z,french_426.wav,0,pull,745,45,3,5,français,m,0,0.0,94.83015244,1.95768421
5eb7031b5e4ac262cd77c949,85,1,2024-02-27T09:35:29.631Z,french_426.wav,0,pull,745,45,3,5,français,m,1,0.1,80.74954266,0.5170286
5eb7031b5e4ac262cd77c949,85,1,2024-02-27T09:35:29.631Z,french_426.wav,0,pull,745,45,3,5,français,m,2,0.2,14.22402444,0.27456075
5eb7031b5e4ac262cd77c949,85,1,2024-02-27T09:35:29.631Z,french_426.wav,0,pull,745,45,3,5,français,m,3,0.25666667,92.85203769,1.53042381
5eb7031b5e4ac262cd77c949,86,1,2024-02-27T09:35:29.631Z,french_635.wav,0,poule,707,45,3,5,français,m,0,0.0,33.90344979,1.89496442
5eb7031b5e4ac262cd77c949,86,1,2024-02-27T09:35:29.631Z,french_635.wav,0,poule,707,45,3,5,français,m,1,0.1,-75.47627702,0.79794333
5eb7031b5e4ac262cd77c949,86,1,2024-02-27T09:35:29.631Z,french_635.wav,0,poule,707,45,3,5,français,m,2,0.2,49.7914685,1.70645199
5eb7031b5e4ac262cd77c949,86,1,2024-02-27T09:35:29.631Z,french_635.wav,0,poule,707,45,3,5,français,m,3,0.25666667,43.41419086,1.41022612
5eb7031b5e4ac262cd77c949,87,1,2024-02-27T09:35:29.631Z,french_223.wav,0,pull,1088,45,3,5,français,m,0,0.0,4.95143367,1.93703508
5eb7031b5e4ac262cd77c949,87,1,2024-02-27T09:35:29.631Z,french_223.wav,0,pull,1088,45,3,5,français,m,1,0.1,55.42619629,0.30698411
5eb7031b5e4ac262cd77c949,87,1,2024-02-27T09:35:29.631Z,french_223.wav,0,pull,1088,45,3,5,français,m,2,0.2,77.82995017,0.10644958
5eb7031b5e4ac262cd77c949,87,1,2024-02-27T09:35:29.631Z,french_223.wav,0,pull,1088,45,3,5,français,m,3,0.25666667,-85.84724551,0.25911965
5eb7031b5e4ac262cd77c949,88,1,2024-02-27T09:35:29.631Z,french_744.wav,0,poule,437,45,3,5,français,m,0,0.0,20.71284991,1.22360564
5eb7031b5e4ac262cd77c949,88,1,2024-02-27T09:35:29.631Z,french_744.wav,0,poule,437,45,3,5,français,m,1,0.1,43.41893938,1.58460028
5eb7031b5e4ac262cd77c949,88,1,2024-02-27T09:35:29.631Z,french_744.wav,0,poule,437,45,3,5,français,m,2,0.2,65.94530402,0.38406236
5eb7031b5e4ac262cd77c949,88,1,2024-02-27T09:35:29.631Z,french_744.wav,0,poule,437,45,3,5,français,m,3,0.25666667,-59.234779,0.69273959
5eb7031b5e4ac262cd77c949,89,1,2024-02-27T09:35:29.631Z,french_895.wav,0,poule,811,45,3,5,français,m,0,0.0,52.32100115,0.06001912
5eb7031b5e4ac262cd77c949,89,1,2024-02-27T09:35:29.631Z,french_895.wav,0,poule,811,45,3,5,français,m,1,0.1,-68.39097894,0.92594104
5eb7031b5e4ac262cd77c949,89,1,2024-02-27T09:35:29.631Z,french_895.wav,0,poule,811,45,3,5,français,m,2,0.2,86.56169168,1.18275101
5eb7031b5e4ac262cd77c949,89,1,2024-02-27T09:35:29.631Z,french_895.wav,0,poule,811,45,3,5,français,m,3,0.25666667,-55.69575084,0.90868208
5eb7031b5e4ac262cd77c949,90,1,2024-02-27T09:35:29.631Z,french_838.wav,0,poule,639,45,3,5,français,m,0,0.0,-11.78713781,0.60255839
5eb7031b5e4ac262cd77c949,90,1,2024-02-27T09:35:29.631Z,french_838.wav,0,poule,639,45,3,5,français,m,1,0.1,70.11555366,0.34480099
5eb7031b5e4ac262cd77c949,90,1,2024-02-27T09:35:29.631Z,french_838.wav,0,poule,639,45,3,5,français,m,2,0.2,60.74924786,1.0262929
5eb7031b5e4ac262cd77c949,90,1,2024-02-27T09:35:29.631Z,french_838.wav,0,poule,639,45,3,5,français,m,3,0.25666667,37.89669618,0.88829748
5eb7031b5e4ac262cd77c949,91,1,2024-02-27T09:35:29.631Z,french_425.wav,0,pull,789,45,3,5,français,m,0,0.0,36.0896382,0.72680638
5eb7031b5e4ac262cd77c949,91,1,2024-02-27T09:35:29.631Z,french_425.wav,0,pull,789,45,3,5,français,m,1,0.1,-60.28824884,0.01839492
5eb7031b5e4ac262cd77c949,91,1,2024-02-27T09:35:29.631Z,french_425.wav,0,pull,789,45,3,5,français,m,2,0.2,-83.12671609,1.09901753
5eb7031b5e4ac262cd77c949,91,1,2024-02-27T09:35:29.631Z,french_425.wav,0,pull,789,45,3,5,français,m,3,0.25666667,32.66103116,1.13928828
5eb7031b5e4ac262cd77c949,92,1,2024-02-27T09:35:29.631Z,french_567.wav,0,poule,499,45,3,5,français,m,0,0.0,27.43626477,1.24283832
5eb7031b5e4ac262cd77c949,92,1,2024-02-27T09:35:29.631Z,french_567.wav,0,poule,499,45,3,5,français,m,1,0.1,41.78362701,1.94246111
5eb7031b5e4ac262cd77c949,92,1,2024-02-27T09:35:29.631Z,french_567.wav,0,poule,499,45,3,5,français,m,2,0.2,54.76706712,1.04642714
5eb7031b5e4ac262cd77c949,92,1,2024-02-27T09:35:29.631Z,french_567.wav,0,poule,499,45,3,5,français,m,3,0.25666667,32.83264266,0.77358904
5eb7031b5e4ac262cd77c949,93,1,2024-02-27T09:35:29.631Z,french_209.wav,0,poule,449,45,3,5,français,m,0,0.0,39.72931143,1.72926101
5eb7031b5e4ac262cd77c949,93,1,2024-02-27T09:35:29.631Z,french_209.wav,0,poule,449,45,3,5,français,m,1,0.1,-11.10080972,1.89016293
5eb7031b5e4ac262cd77c949,93,1,2024-02-27T09:35:29.631Z,french_209.wav,0,poule,449,45,3,5,français,m,2,0.2,-43.22344663,1.93253512
5eb7031b5e4ac262cd77c949,93,1,2024-02-27T09:35:29.631Z,french_209.wav,0,poule,449,45,3,5,français,m,3,0.25666667,-3.52460634,0.82956566
5eb7031b5e4ac262cd77c949,94,1,2024-02-27T09:35:29.631Z,french_743.wav,0,poule,586,45,3,5,français,m,0,0.0,-33.29442342,0.17876133
5eb7031b5e4ac262cd77c949,94,1,2024-02-27T09:35:29.631Z,french_743.wav,0,poule,586,45,3,5,français,m,1,0.1,66.78729562,1.55990879
5eb7031b5e4ac262cd77c949,94,1,2024-02-27T09:35:29.631Z,french_743.wav,0,poule,586,45,3,5,français,m,2,0.2,-0.09457626,1.00824872
5eb7031b5e4ac262cd77c949,94,1,2024-02-27T09:35:29.631Z,french_743.wav,0,poule,586,45,3,5,français,m,3,0.25666667,-6.43111547,1.50563658
5eb7031b5e4ac262cd77c949,95,1,2024-02-27T09:35:29.631Z,french_740.wav,0,poule,663,45,3,5,français,m,0,0.0,-63.22643447,1.41698272
5eb7031b5e4ac262cd77c949,95,1,2024-02-27T09:35:29.631Z,french_740.wav,0,poule,663,45,3,5,français,m,1,0.1,-76.79793208,1.15791198
5eb7031b5e4ac262cd77c949,95,1,2024-02-27T09:35:29.631Z,french_740.wav,0,poule,663,45,3,5,français,m,2,0.2,-90.89358737,1.97460827
5eb7031b5e4ac262cd77c949,95,1,2024-02-27T09:35:29.631Z,french_740.wav,0,poule,663,45,3,5,français,m,3,0.25666667,-87.57687491,0.61281255
5eb7031b5e4ac262cd77c949,96,1,2024-02-27T09:35:29.631Z,french_868.wav,0,poule,875,45,3,5,français,m,0,0.0,-35.95288605,1.76613711
5eb7031b5e4ac262cd77c949,96,1,2024-02-27T09:35:29.631Z,french_868.wav,0,poule,875,45,3,5,français,m,1,0.1,-17.44977395,1.66440326
5eb7031b5e4ac262cd77c949,96,1,2024-02-27T09:35:29.631Z,french_868.wav,0,poule,875,45,3,5,français,m,2,0.2,-64.01864585,0.72417379
5eb7031b5e4ac262cd77c949,96,1,2024-02-27T09:35:29.631Z,french_868.wav,0,poule,875,45,3,5,français,m,3,0.25666667,14.1526891,0.87347262
5eb7031b5e4ac262cd77c949,97,1,2024-02-27T09:35:29.631Z,french_872.wav,0,poule,687,45,3,5,français,m,0,0.0,85.31192626,1.27180188
5eb7031b5e4ac262cd77c949,97,1,2024-02-27T09:35:29.631Z,french_872.wav,0,poule,687,45,3,5,français,m,1,0.1,-62.96284321,0.82867252
5eb7031b5e4ac262cd77c949,97,1,2024-02-27T09:35:29.631Z,french_872.wav,0,poule,687,45,3,5,français,m,2,0.2,93.26127986,1.69740624
5eb7031b5e4ac262cd77c949,97,1,2024-02-27T09:35:29.631Z,french_872.wav,0,poule,687,45,3,5,français,m,3,0.25666667,48.13314647,0.31258738
5eb7031b5e4ac262cd77c949,98,1,2024-02-27T09:35:29.631Z,french_505.wav,0,poule,654,45,3,5,français,m,0,0.0,-38.72168331,1.89725183
5eb7031b5e4ac262cd77c949,98,1,2024-02-27T09:35:29.631Z,french_505.wav,0,poule,654,45,3,5,français,m,1,0.1,-12.49542568,0.88243769
5eb7031b5e4ac262cd77c949,98,1,2024-02-27T09:35:29.631Z,french_505.wav,0,poule,654,45,3,5,français,m,2,0.2,71.90880982,1.24748728
5eb7031b5e4ac262cd77c949,98,1,2024-02-27T09:35:29.631Z,french_505.wav,0,poule,654,45,3,5,français,m,3,0.25666667,-94.40337553,0.62032879
5eb7031b5e4ac262cd77c949,99,1,2024-02-27T09:35:29.631Z,french_419.wav,0,poule,547,45,3,5,français,m,0,0.0,-42.00575778,0.81351681
5eb7031b5e4ac262cd77c949,99,1,2024-02-27T09:35:29.631Z,french_419.wav,0,poule,547,45,3,5,français,m,1,0.1,-35.26826913,1.62056968
5eb7031b5e4ac262cd77c949,99,1,2024-02-27T09:35:29.631Z,french_419.wav,0,poule,547,45,3,5,français,m,2,0.2,-18.10946272,1.68465097
5eb7031b5e4ac262cd77c949,99,1,2024-02-27T09:35:29.631Z,french_419.wav,0,poule,547,45,3,5,français,m,3,0.25666667,-2.55322937,1.07803679
5eb7031b5e4ac262cd77c949,100,2,2024-02-27T09:35:29.631Z,french_293.wav,0,pull,1631,45,3,5,français,m,0,0.0,-11.30043192,0.58860684
5eb7031b5e4ac262cd77c949,100,2,2024-02-27T09:35:29.631Z,french_293.wav,0,pull,1631,45,3,5,français,m,1,0.1,-69.36716709,0.23928943
5eb7031b5e4ac262cd77c949,100,2,2024-02-27T09:35:29.631Z,french_293.wav,0,pull,1631,45,3,5,français,m,2,0.2,65.20751159,1.00971501
5eb7031b5e4ac262cd77c949,100,2,2024-02-27T09:35:29.631Z,french_293.wav,0,pull,1631,45,3,5,français,m,3,0.25666667,27.71872742,0.31746318
5eb7031b5e4ac262cd77c949,101,2,2024-02-27T09:35:29.631Z,french_893.wav,0,poule,556,45,3,5,français,m,0,0.0,-94.12021506,0.88252126
5eb7031b5e4ac262cd77c949,101,2,2024-02-27T09:35:29.631Z,french_893.wav,0,poule,556,45,3,5,français,m,1,0.1,53.79826098,0.31460198
5eb7031b5e4ac262cd77c949,101,2,2024-02-27T09:35:29.631Z,french_893.wav,0,poule,556,45,3,5,français,m,2,0.2,-24.3553788,1.36492904
5eb7031b5e4ac262cd77c949,101,2,2024-02-27T09:35:29.631Z,french_893.wav,0,poule,556,45,3,5,français,m,3,0.25666667,-81.90861644,1.93292807
5eb7031b5e4ac262cd77c949,102,2,2024-02-27T09:35:29.631Z,french_365.wav,0,poule,633,45,3,5,français,m,0,0.0,-98.04571794,1.18023288
5eb7031b5e4ac262cd77c949,102,2,2024-02-27T09:35:29.631Z,french_365.wav,0,poule,633,45,3,5,français,m,1,0.1,-73.67698607,1.95707288
5eb7031b5e4ac262cd77c949,102,2,2024-02-27T09:35:29.631Z,french_365.wav,0,poule,633,45,3,5,français,m,2,0.2,-96.43604562,0.58641449
5eb7031b5e4ac262cd77c949,102,2,2024-02-27T09:35:29.631Z,french_365.wav,0,poule,633,45,3,5,français,m,3,0.25666667,37.7893414,1.65360278
5eb7031b5e4ac262cd77c949,103,2,2024-02-27T09:35:29.631Z,french_28.wav,0,poule,542,45,3,5,français,m,0,0.0,-42.04092007,0.8096396
5eb7031b5e4ac262cd77c949,103,2,2024-02-27T09:35:29.631Z,french_28.wav,0,poule,542,45,3,5,français,m,1,0.1,-47.89065573,0.68168646
5eb7031b5e4ac262cd77c949,103,2,2024-02-27T09:35:29.631Z,french_28.wav,0,poule,542,45,3,5,français,m,2,0.2,88.67668081,0.86103635
5eb7031b5e4ac262cd77c949,103,2,2024-02-27T09:35:29.631Z,french_28.wav,0,poule,542,45,3,5,français,m,3,0.25666667,23.25138011,1.13642067
5eb7031b5e4ac262cd77c949,104,2,2024-02-27T09:35:29.631Z,french_789.wav,0,poule,750,45,3,5,français,m,0,0.0,16.13130467,1.41580253
5eb7031b5e4ac262cd77c949,104,2,2024-02-27T09:35:29.631Z,french_789.wav,0,poule,750,45,3,5,français,m,1,0.1,-53.51301261,1.63533644
5eb7031b5e4ac262cd77c949,104,2,2024-02-27T09:35:29.631Z,french_789.wav,0,poule,750,45,3,5,français,m,2,0.2,91.10833978,0.42839577
5eb7031b5e4ac262cd77c949,104,2,2024-02-27T09:35:29.631Z,french_789.wav,0,poule,750,45,3,5,français,m,3,0.25666667,9.61415248,0.64971622
5eb7031b5e4ac262cd77c949,105,2,2024-02-27T09:35:29.631Z,french_272.wav,0,pull,607,45,3,5,français,m,0,0.0,50.55701535,1.0419248
5eb7031b5e4ac262cd77c949,105,2,2024-02-27T09:35:29.631Z,french_272.wav,0,pull,607,45,3,5,français,m,1,0.1,63.46835537,0.05024982
5eb7031b5e4ac262cd77c949,105,2,2024-02-27T09:35:29.631Z,french_272.wav,0,pull,607,45,3,5,français,m,2,0.2,-46.63250527,0.3554473
5eb7031b5e4ac262cd77c949,105,2,2024-02-27T09:35:29.631Z,french_272.wav,0,pull,607,45,3,5,français,m,3,0.25666667,74.93577843,1.3845464
5eb7031b5e4ac262cd77c949,106,2,2024-02-27T09:35:29.631Z,french_596.wav,0,poule,422,45,3,5,français,m,0,0.0,-19.67623174,1.19630482
5eb7031b5e4ac262cd77c949,106,2,2024-02-27T09:35:29.631Z,french_596.wav,0,poule,422,45,3,5,français,m,1,0.1,5.02630097,1.45796377
5eb7031b5e4ac262cd77c949,106,2,2024-02-27T09:35:29.631Z,french_596.wav,0,poule,422,45,3,5,français,m,2,0.2,17.71933024,1.33112957
5eb7031b5e4ac262cd77c949,106,2,2024-02-27T09:35:29.631Z,french_596.wav,0,poule,422,45,3,5,français,m,3,0.25666667,-99.90911374,0.42422988
5eb7031b5e4ac262cd77c949,107,2,2024-02-27T09:35:29.631Z,french_595.wav,0,poule,783,45,3,5,français,m,0,0.0,-73.15061419,1.40746522
5eb7031b5e4ac262cd77c949,107,2,2024-02-27T09:35:29.631Z,french_595.wav,0,poule,783,45,3,5,français,m,1,0.1,67.23643261,0.48150889
5eb7031b5e4ac262cd77c949,107,2,2024-02-27T09:35:29.631Z,french_595.wav,0,poule,783,45,3,5,français,m,2,0.2,29.33444659,0.65461581
5eb7031b5e4ac262cd77c949,107,2,2024-02-27T09:35:29.631Z,french_595.wav,0,poule,783,45,3,5,français,m,3,0.25666667,-65.67909684,0.62395538
5eb7031b5e4ac262cd77c949,108,2,2024-02-27T09:35:29.631Z,french_178.wav,0,poule,471,45,3,5,français,m,0,0.0,26.38045069,1.33493468
5eb7031b5e4ac262cd77c949,108,2,2024-02-27T09:35:29.631Z,french_178.wav,0,poule,471,45,3,5,français,m,1,0.1,54.67313893,1.2022917
5eb7031b5e4ac262cd77c949,108,2,2024-02-27T09:35:29.631Z,french_178.wav,0,poule,471,45,3,5,français,m,2,0.2,58.86585948,1.32810738
5eb7031b5e4ac262cd77c949,108,2,2024-02-27T09:35:29.631Z,french_178.wav,0,poule,471,45,3,5,français,m,3,0.25666667,8.14592544,0.94030025
5eb7031b5e4ac262cd77c949,109,2,2024-02-27T09:35:29.631Z,french_905.wav,0,poule,625,45,3,5,français,m,0,0.0,87.86620346,1.28585996
5eb7031b5e4ac262cd77c949,109,2,2024-02-27T09:35:29.631Z,french_905.wav,0,poule,625,45,3,5,français,m,1,0.1,17.88859649,0.57714405
5eb7031b5e4ac262cd77c949,109,2,2024-02-27T09:35:29.631Z,french_905.wav,0,poule,625,45,3,5,français,m,2,0.2,51.58456374,0.3219524
5eb7031b5e4ac262cd77c949,109,2,2024-02-27T09:35:29.631Z,french_905.wav,0,poule,625,45,3,5,français,m,3,0.25666667,-98.76806622,1.69480445
5eb7031b5e4ac262cd77c949,110,2,2024-02-27T09:35:29.631Z,french_159.wav,0,poule,556,45,3,5,français,m,0,0.0,-35.81772681,1.09204322
5eb7031b5e4ac262cd77c949,110,2,2024-02-27T09:35:29.631Z,french_159.wav,0,poule,556,45,3,5,français,m,1,0.1,-81.24007344,1.04236488
5eb7031b5e4ac262cd77c949,110,2,2024-02-27T09:35:29.631Z,french_159.wav,0,poule,556,45,3,5,français,m,2,0.2,-76.66667718,0.27370424
5eb7031b5e4ac262cd77c949,110,2,2024-02-27T09:35:29.631Z,french_159.wav,0,poule,556,45,3,5,français,m,3,0.25666667,-12.73742482,0.41375192
5eb7031b5e4ac262cd77c949,111,2,2024-02-27T09:35:29.631Z,french_991.wav,0,poule,539,45,3,5,français,m,0,0.0,-95.18678644,1.24715664
5eb7031b5e4ac262cd77c949,111,2,2024-02-27T09:35:29.631Z,french_991.wav,0,poule,539,45,3,5,français,m,1,0.1,-65.70936013,0.64410058
5eb7031b5e4ac262cd77c949,111,2,2024-02-27T09:35:29.631Z,french_991.wav,0,poule,539,45,3,5,français,m,2,0.2,44.22545462,0.83152977
5eb7031b5e4ac262cd77c949,111,2,2024-02-27T09:35:29.631Z,french_991.wav,0,poule,539,45,3,5,français,m,3,0.25666667,31.01090832,1.93309413
5eb7031b5e4ac262cd77c949,112,2,2024-02-27T09:35:29.631Z,french_487.wav,0,poule,456,45,3,5,français,m,0,0.0,26.50580686,1.63350644
5eb7031b5e4ac262cd77c949,112,2,2024-02-27T09:35:29.631Z,french_487.wav,0,poule,456,45,3,5,français,m,1,0.1,-34.14449754,1.29368608
5eb7031b5e4ac262cd77c949,112,2,2024-02-27T09:35:29.631Z,french_487.wav,0,poule,456,45,3,5,français,m,2,0.2,66.18137857,0.20656395
5eb7031b5e4ac262cd77c949,112,2,2024-02-27T09:35:29.631Z,french_487.wav,0,poule,456,45,3,5,français,m,3,0.25666667,-7.03677771,1.93991824
5eb7031b5e4ac262cd77c949,113,2,2024-02-27T09:35:29.631Z,french_262.wav,0,poule,619,45,3,5,français,m,0,0.0,-64.23156272,0.64961321
5eb7031b5e4ac262cd77c949,113,2,2024-02-27T09:35:29.631Z,french_262.wav,0,poule,619,45,3,5,français,m,1,0.1,-18.68430003,0.97192609
5eb7031b5e4ac262cd77c949,113,2,2024-02-27T09:35:29.631Z,french_262.wav,0,poule,619,45,3,5,français,m,2,0.2,-74.67542291,0.40249154
5eb7031b5e4ac262cd77c949,113,2,2024-02-27T09:35:29.631Z,french_262.wav,0,poule,619,45,3,5,français,m,3,0.25666667,29.36963449,0.8696964
5eb7031b5e4ac262cd77c949,114,2,2024-02-27T09:35:29.631Z,french_921.wav,0,poule,383,45,3,5,français,m,0,0.0,24.11125356,1.60122976
5eb7031b5e4ac262cd77c949,114,2,2024-02-27T09:35:29.631Z,french_921.wav,0,poule,383,45,3,5,français,m,1,0.1,37.62729467,0.45720022
5eb7031b5e4ac262cd77c949,114,2,2024-02-27T09:35:29.631Z,french_921.wav,0,poule,383,45,3,5,français,m,2,0.2,-94.55025244,1.67775241
5eb7031b5e4ac262cd77c949,114,2,2024-02-27T09:35:29.631Z,french_921.wav,0,poule,383,45,3,5,français,m,3,0.25666667,10.27679313,0.96598245
5eb7031b5e4ac262cd77c949,115,2,2024-02-27T09:35:29.631Z,french_988.wav,0,poule,478,45,3,5,français,m,0,0.0,-4.11470775,0.28957615
5eb7031b5e4ac262cd77c949,115,2,2024-02-27T09:35:29.631Z,french_988.wav,0,poule,478,45,3,5,français,m,1,0.1,-66.00013865,0.7977557
5eb7031b5e4ac262cd77c949,115,2,2024-02-27T09:35:29.631Z,french_988.wav,0,poule,478,45,3,5,français,m,2,0.2,59.59027652,1.24206297
5eb7031b5e4ac262cd77c949,115,2,2024-02-27T09:35:29.631Z,french_988.wav,0,poule,478,45,3,5,français,m,3,0.25666667,0.47429662,1.11640868
5eb7031b5e4ac262cd77c949,116,2,2024-02-27T09:35:29.631Z,french_957.wav,0,poule,529,45,3,5,français,m,0,0.0,-18.56504594,1.70357669
5eb7031b5e4ac262cd77c949,116,2,2024-02-27T09:35:29.631Z,french_957.wav,0,poule,529,45,3,5,français,m,1,0.1,17.87447177,1.95920141
5eb7031b5e4ac262cd77c949,116,2,2024-02-27T09:35:29.631Z,french_957.wav,0,poule,529,45,3,5,français,m,2,0.2,57.20134839,1.7386973
5eb7031b5e4ac262cd77c949,116,2,2024-02-27T09:35:29.631Z,french_957.wav,0,poule,529,45,3,5,français,m,3,0.25666667,64.73544538,0.56015389
5eb7031b5e4ac262cd77c949,117,2,2024-02-27T09:35:29.631Z,french_979.wav,0,poule,675,45,3,5,français,m,0,0.0,58.05333973,1.60321768
5eb7031b5e4ac262cd77c949,117,2,2024-02-27T09:35:29.631Z,french_979.wav,0,poule,675,45,3,5,français,m,1,0.1,-10.78982684,0.5155038
5eb7031b5e4ac262cd77c949,117,2,2024-02-27T09:35:29.631Z,french_979.wav,0,poule,675,45,3,5,français,m,2,0.2,-1.76147191,0.80270828
5eb7031b5e4ac262cd77c949,117,2,2024-02-27T09:35:29.631Z,french_979.wav,0,poule,675,45,3,5,français,m,3,0.25666667,35.54131035,0.30870089
5eb7031b5e4ac262cd77c949,118,2,2024-02-27T09:35:29.631Z,french_704.wav,0,poule,1053,45,3,5,français,m,0,0.0,47.78235411,1.53952375
5eb7031b5e4ac262cd77c949,118,2,2024-02-27T09:35:29.631Z,french_704.wav,0,poule,1053,45,3,5,français,m,1,0.1,-55.43932,1.15285736
5eb7031b5e4ac262cd77c949,118,2,2024-02-27T09:35:29.631Z,french_704.wav,0,poule,1053,45,3,5,français,m,2,0.2,-4.4200676,1.9057017
5eb7031b5e4ac262cd77c949,118,2,2024-02-27T09:35:29.631Z,french_704.wav,0,poule,1053,45,3,5,français,m,3,0.25666667,92.51428674,1.54517481
5eb7031b5e4ac262cd77c949,119,2,2024-02-27T09:35:29.631Z,french_275.wav,0,poule,635,45,3,5,français,m,0,0.0,-71.45872278,0.56157087
5eb7031b5e4ac262cd77c949,119,2,2024-02-27T09:35:29.631Z,french_275.wav,0,poule,635,45,3,5,français,m,1,0.1,50.23093754,1.03531052
5eb7031b5e4ac262cd77c949,119,2,2024-02-27T09:35:29.631Z,french_275.wav,0,poule,635,45,3,5,français,m,2,0.2,82.04936404,1.31605034
5eb7031b5e4ac262cd77c949,119,2,2024-02-27T09:35:29.631Z,french_275.wav,0,poule,635,45,3,5,français,m,3,0.25666667,-63.35862329,0.72936955
5eb7031b5e4ac262cd77c949,120,2,2024-02-27T09:35:29.631Z,french_20.wav,0,poule,590,45,3,5,français,m,0,0.0,-78.24291845,1.07200279
5eb7031b5e4ac262cd77c949,120,2,2024-02-27T09:35:29.631Z,french_20.wav,0,poule,590,45,3,5,français,m,1,0.1,-38.50442353,1.52694999
5eb7031b5e4ac262cd77c949,120,2,2024-02-27T09:35:29.631Z,french_20.wav,0,poule,590,45,3,5,français,m,2,0.2,8.39731749,0.86133356
5eb7031b5e4ac262cd77c949,120,2,2024-02-27T09:35:29.631Z,french_20.wav,0,poule,590,45,3,5,français,m,3,0.25666667,-43.87764948,0.74788424
5eb7031b5e4ac262cd77c949,121,2,2024-02-27T09:35:29.631Z,french_226.wav,0,poule,798,45,3,5,français,m,0,0.0,85.32452385,1.68909252
5eb7031b5e4ac262cd77c949,121,2,2024-02-27T09:35:29.631Z,french_226.wav,0,poule,798,45,3,5,français,m,1,0.1,-25.06918931,0.17046025
5eb7031b5e4ac262cd77c949,121,2,2024-02-27T09:35:29.631Z,french_226.wav,0,poule,798,45,3,5,français,m,2,0.2,-17.89357971,0.61029189
5eb7031b5e4ac262cd77c949,121,2,2024-02-27T09:35:29.631Z,french_226.wav,0,poule,798,45,3,5,français,m,3,0.25666667,45.31971501,0.53544367
5eb7031b5e4ac262cd77c949,122,2,2024-02-27T09:35:29.631Z,french_828.wav,0,poule,732,45,3,5,français,m,0,0.0,-2.7154125,0.72553522
5eb7031b5e4ac262cd77c949,122,2,2024-02-27T09:35:29.631Z,french_828.wav,0,poule,732,45,3,5,français,m,1,0.1,-36.83814983,1.24313396
5eb7031b5e4ac262cd77c949,122,2,2024-02-27T09:35:29.631Z,french_828.wav,0,poule,732,45,3,5,français,m,2,0.2,-50.98592502,0.62544862
5eb7031b5e4ac262cd77c949,122,2,2024-02-27T09:35:29.631Z,french_828.wav,0,poule,732,45,3,5,français,m,3,0.25666667,-48.36073317,1.19233037
5eb7031b5e4ac262cd77c949,123,2,2024-02-27T09:35:29.631Z,french_573.wav,0,poule,728,45,3,5,français,m,0,0.0,-82.60587544,1.7811252
5eb7031b5e4ac262cd77c949,123,2,2024-02-27T09:35:29.631Z,french_573.wav,0,poule,728,45,3,5,français,m,1,0.1,24.10475325,1.67511136
5eb7031b5e4ac262cd77c949,123,2,2024-02-27T09:35:29.631Z,french_573.wav,0,poule,728,45,3,5,français,m,2,0.2,12.83458345,1.07369657
5eb7031b5e4ac262cd77c949,123,2,2024-02-27T09:35:29.631Z,french_573.wav,0,poule,728,45,3,5,français,m,3,0.25666667,-92.36985106,0.78659629
5eb7031b5e4ac262cd77c949,124,2,2024-02-27T09:35:29.631Z,french_476.wav,0,poule,509,45,3,5,français,m,0,0.0,-83.79523633,0.72975737
5eb7031b5e4ac262cd77c949,124,2,2024-02-27T09:35:29.631Z,french_476.wav,0,poule,509,45,3,5,français,m,1,0.1,62.15522278,1.65535888
5eb7031b5e4ac262cd77c949,124,2,2024-02-27T09:35:29.631Z,french_476.wav,0,poule,509,45,3,5,français,m,2,0.2,-62.9629606,1.94146275
5eb7031b5e4ac262cd77c949,124,2,2024-02-27T09:35:29.631Z,french_476.wav,0,poule,509,45,3,5,français,m,3,0.25666667,29.80880048,1.32492406
5eb7031b5e4ac262cd77c949,125,2,2024-02-27T09:35:29.631Z,french_610.wav,0,poule,416,45,3,5,français,m,0,0.0,41.67803598,0.10564039
5eb7031b5e4ac262cd77c949,125,2,2024-02-27T09:35:29.631Z,french_610.wav,0,poule,416,45,3,5,français,m,1,0.1,50.6586837,1.22556883
5eb7031b5e4ac262cd77c949,125,2,2024-02-27T09:35:29.631Z,french_610.wav,0,poule,416,45,3,5,français,m,2,0.2,-85.20353251,1.48633574
5eb7031b5e4ac262cd77c949,125,2,2024-02-27T09:35:29.631Z,french_610.wav,0,poule,416,45,3,5,français,m,3,0.25666667,-12.88596769,1.12124299
5eb7031b5e4ac262cd77c949,126,2,2024-02-27T09:35:29.631Z,french_930.wav,0,poule,442,45,3,5,français,m,0,0.0,-85.15004264,1.38463402
5eb7031b5e4ac262cd77c949,126,2,2024-02-27T09:35:29.631Z,french_930.wav,0,poule,442,45,3,5,français,m,1,0.1,-51.05179236,1.37480081
5eb7031b5e4ac262cd77c949,126,2,2024-02-27T09:35:29.631Z,french_930.wav,0,poule,442,45,3,5,français,m,2,0.2,60.60693854,0.42262721
5eb7031b5e4ac262cd77c949,126,2,2024-02-27T09:35:29.631Z,french_930.wav,0,poule,442,45,3,5,français,m,3,0.25666667,60.89136328,1.58192794
5eb7031b5e4ac262cd77c949,127,2,2024-02-27T09:35:29.631Z,french_697.wav,0,poule,455,45,3,5,français,m,0,0.0,-19.8565912,1.89587242
5eb7031b5e4ac262cd77c949,127,2,2024-02-27T09:35:29.631Z,french_697.wav,0,poule,455,45,3,5,français,m,1,0.1,-16.18456076,0.49072185
5eb7031b5e4ac262cd77c949,127,2,2024-02-27T09:35:29.631Z,french_697.wav,0,poule,455,45,3,5,français,m,2,0.2,-70.77550193,1.8362568
5eb7031b5e4ac262cd77c949,127,2,2024-02-27T09:35:29.631Z,french_697.wav,0,poule,455,45,3,5,français,m,3,0.25666667,-81.21106402,0.50078837
5eb7031b5e4ac262cd77c949,128,2,2024-02-27T09:35:29.631Z,french_994.wav,0,poule,333,45,3,5,français,m,0,0.0,-39.66278541,0.39681658
5eb7031b5e4ac262cd77c949,128,2,2024-02-27T09:35:29.631Z,french_994.wav,0,poule,333,45,3,5,français,m,1,0.1,66.70535545,1.6498105
5eb7031b5e4ac262cd77c949,128,2,2024-02-27T09:35:29.631Z,french_994.wav,0,poule,333,45,3,5,français,m,2,0.2,-87.43703712,1.48803434
5eb7031b5e4ac262cd77c949,128,2,2024-02-27T09:35:29.631Z,french_994.wav,0,poule,333,45,3,5,français,m,3,0.25666667,-41.83233866,1.54058484
5eb7031b5e4ac262cd77c949,129,2,2024-02-27T09:35:29.631Z,french_606.wav,0,poule,393,45,3,5,français,m,0,0.0,-20.93687271,1.9895698
5eb7031b5e4ac262cd77c949,129,2,2024-02-27T09:35:29.631Z,french_606.wav,0,poule,393,45,3,5,français,m,1,0.1,59.55385743,1.17728958
5eb7031b5e4ac262cd77c949,129,2,2024-02-27T09:35:29.631Z,french_606.wav,0,poule,393,45,3,5,français,m,2,0.2,61.58713619,1.48827242
5eb7031b5e4ac262cd77c949,129,2,2024-02-27T09:35:29.631Z,french_606.wav,0,poule,393,45,3,5,français,m,3,0.25666667,-92.8987734,0.79910733
5eb7031b5e4ac262cd77c949,130,2,2024-02-27T09:35:29.631Z,french_847.wav,0,poule,579,45,3,5,français,m,0,0.0,-8.33122073,1.64160395
5eb7031b5e4ac262cd77c949,130,2,2024-02-27T09:35:29.631Z,french_847.wav,0,poule,579,45,3,5,français,m,1,0.1,28.51239659,0.11991739
5eb7031b5e4ac262cd77c949,130,2,2024-02-27T09:35:29.631Z,french_847.wav,0,poule,579,45,3,5,français,m,2,0.2,-26.33136573,1.12824789
5eb7031b5e4ac262cd77c949,130,2,2024-02-27T09:35:29.631Z,french_847.wav,0,poule,579,45,3,5,français,m,3,0.25666667,21.45038454,0.68287375
5eb7031b5e4ac262cd77c949,131,2,2024-02-27T09:35:29.631Z,french_637.wav,0,pull,835,45,3,5,français,m,0,0.0,35.81604326,0.01301393
5eb7031b5e4ac262cd77c949,131,2,2024-02-27T09:35:29.631Z,french_637.wav,0,pull,835,45,3,5,français,m,1,0.1,-3.18432816,0.82513299
5eb7031b5e4ac262cd77c949,131,2,2024-02-27T09:35:29.631Z,french_637.wav,0,pull,835,45,3,5,français,m,2,0.2,50.06715701,0.10233849
5eb7031b5e4ac262cd77c949,131,2,2024-02-27T09:35:29.631Z,french_637.wav,0,pull,835,45,3,5,français,m,3,0.25666667,13.82838787,0.87921638
5eb7031b5e4ac262cd77c949,132,2,2024-02-27T09:35:29.631Z,french_439.wav,0,poule,469,45,3,5,français,m,0,0.0,66.25011988,1.00096297
5eb7031b5e4ac262cd77c949,132,2,2024-02-27T09:35:29.631Z,french_439.wav,0,poule,469,45,3,5,français,m,1,0.1,46.32034445,0.12322103
5eb7031b5e4ac262cd77c949,132,2,2024-02-27T09:35:29.631Z,french_439.wav,0,poule,469,45,3,5,français,m,2,0.2,38.26264731,1.5814324
5eb7031b5e4ac262cd77c949,132,2,2024-02-27T09:35:29.631Z,french_439.wav,0,poule,469,45,3,5,français,m,3,0.25666667,-42.53278778,0.06125751
5eb7031b5e4ac262cd77c949,133,2,2024-02-27T09:35:29.631Z,french_414.wav,0,poule,406,45,3,5,français,m,0,0.0,-53.65137821,1.15122316
5eb7031b5e4ac262cd77c949,133,2,2024-02-27T09:35:29.631Z,french_414.wav,0,poule,406,45,3,5,français,m,1,0.1,61.14227183,1.54420741
5eb7031b5e4ac262cd77c949,133,2,2024-02-27T09:35:29.631Z,french_414.wav,0,poule,406,45,3,5,français,m,2,0.2,-13.28017505,1.48861563
5eb7031b5e4ac262cd77c949,133,2,2024-02-27T09:35:29.631Z,french_414.wav,0,poule,406,45,3,5,français,m,3,0.25666667,99.20914295,0.34805763
5eb7031b5e4ac262cd77c949,134,2,2024-02-27T09:35:29.631Z,french_964.wav,0,poule,333,45,3,5,français,m,0,0.0,-56.07629317,1.19943116
5eb7031b5e4ac262cd77c949,134,2,2024-02-27T09:35:29.631Z,french_964.wav,0,poule,333,45,3,5,français,m,1,0.1,-19.45500988,0.89458005
5eb7031b5e4ac262cd77c949,134,2,2024-02-27T09:35:29.631Z,french_964.wav,0,poule,333,45,3,5,français,m,2,0.2,97.83653085,1.94180509
5eb7031b5e4ac262cd77c949,134,2,2024-02-27T09:35:29.631Z,french_964.wav,0,poule,333,45,3,5,français,m,3,0.25666667,70.5600413,0.3273771
5eb7031b5e4ac262cd77c949,135,2,2024-02-27T09:35:29.631Z,french_305.wav,0,poule,474,45,3,5,français,m,0,0.0,-54.69953739,0.89911595
5eb7031b5e4ac262cd77c949,135,2,2024-02-27T09:35:29.631Z,french_305.wav,0,poule,474,45,3,5,français,m,1,0.1,-55.57420142,0.95414013
5eb7031b5e4ac262cd77c949,135,2,2024-02-27T09:35:29.631Z,french_305.wav,0,poule,474,45,3,5,français,m,2,0.2,69.52625069,1.47998422
5eb7031b5e4ac262cd77c949,135,2,2024-02-27T09:35:29.631Z,french_305.wav,0,poule,474,45,3,5,français,m,3,0.25666667,-71.2713804,1.78847242
5eb7031b5e4ac262cd77c949,136,2,2024-02-27T09:35:29.631Z,french_564.wav,0,poule,422,45,3,5,français,m,0,0.0,-42.85760261,0.14777183
5eb7031b5e4ac262cd77c949,136,2,2024-02-27T09:35:29.631Z,french_564.wav,0,poule,422,45,3,5,français,m,1,0.1,78.12316343,1.08229262
5eb7031b5e4ac262cd77c949,136,2,2024-02-27T09:35:29.631Z,french_564.wav,0,poule,422,45,3,5,français,m,2,0.2,32.53186734,0.52251513
5eb7031b5e4ac262cd77c949,136,2,2024-02-27T09:35:29.631Z,french_564.wav,0,poule,422,45,3,5,français,m,3,0.25666667,60.20924512,1.40255579
5eb7031b5e4ac262cd77c949,137,2,2024-02-27T09:35:29.631Z,french_36.wav,0,poule,432,45,3,5,français,m,0,0.0,97.14143801,0.84704198
5eb7031b5e4ac262cd77c949,137,2,2024-02-27T09:35:29.631Z,french_36.wav,0,poule,432,45,3,5,français,m,1,0.1,96.24936774,1.47086473
5eb7031b5e4ac262cd77c949,137,2,2024-02-27T09:35:29.631Z,french_36.wav,0,poule,432,45,3,5,français,m,2,0.2,69.49703902,1.29858496
5eb7031b5e4ac262cd77c949,137,2,2024-02-27T09:35:29.631Z,french_36.wav,0,poule,432,45,3,5,français,m,3,0.25666667,-77.37121036,1.24445776
5eb7031b5e4ac262cd77c949,138,2,2024-02-27T09:35:29.631Z,french_473.wav,0,pull,775,45,3,5,français,m,0,0.0,-59.88543895,0.32878746
5eb7031b5e4ac262cd77c949,138,2,2024-02-27T09:35:29.631Z,french_473.wav,0,pull,775,45,3,5,français,m,1,0.1,36.52277503,0.29204452
5eb7031b5e4ac262cd77c949,138,2,2024-02-27T09:35:29.631Z,french_473.wav,0,pull,775,45,3,5,français,m,2,0.2,-76.47045714,0.65259503
5eb7031b5e4ac262cd77c949,138,2,2024-02-27T09:35:29.631Z,french_473.wav,0,pull,775,45,3,5,français,m,3,0.25666667,-69.05057232,0.35645849
5eb7031b5e4ac262cd77c949,139,2,2024-02-27T09:35:29.631Z,french_971.wav,0,poule,490,45,3,5,français,m,0,0.0,96.00351489,1.9961872
5eb7031b5e4ac262cd77c949,139,2,2024-02-27T09:35:29.631Z,french_971.wav,0,poule,490,45,3,5,français,m,1,0.1,-55.9328558,0.96234699
5eb7031b5e4ac262cd77c949,139,2,2024-02-27T09:35:29.631Z,french_971.wav,0,poule,490,45,3,5,français,m,2,0.2,-62.43027521,1.29823686
5eb7031b5e4ac262cd77c949,139,2,2024-02-27T09:35:29.631Z,french_971.wav,0,poule,490,45,3,5,français,m,3,0.25666667,67.10785382,1.44437919
5eb7031b5e4ac262cd77c949,140,2,2024-02-27T09:35:29.631Z,french_352.wav,0,poule,875,45,3,5,français,m,0,0.0,74.68489003,0.29948735
5eb7031b5e4ac262cd77c949,140,2,2024-02-27T09:35:29.631Z,french_352.wav,0,poule,875,45,3,5,français,m,1,0.1,96.39949195,0.51724136
5eb7031b5e4ac262cd77c949,140,2,2024-02-27T09:35:29.631Z,french_352.wav,0,poule,875,45,3,5,français,m,2,0.2,90.64764472,1.48158799
5eb7031b5e4ac262cd77c949,140,2,2024-02-27T09:35:29.631Z,french_352.wav,0,poule,875,45,3,5,français,m,3,0.25666667,65.55341103,0.97952247
5eb7031b5e4ac262cd77c949,141,2,2024-02-27T09:35:29.631Z,french_710.wav,0,poule,461,45,3,5,français,m,0,0.0,-54.00258077,0.87889336
5eb7031b5e4ac262cd77c949,141,2,2024-02-27T09:35:29.631Z,french_710.wav,0,poule,461,45,3,5,français,m,1,0.1,34.45486491,0.7692559
5eb7031b5e4ac262cd77c949,141,2,2024-02-27T09:35:29.631Z,french_710.wav,0,poule,461,45,3,5,français,m,2,0.2,63.8215693,0.4253567
5eb7031b5e4ac262cd77c949,141,2,2024-02-27T09:35:29.631Z,french_710.wav,0,poule,461,45,3,5,français,m,3,0.25666667,15.83931319,0.40649008
5eb7031b5e4ac262cd77c949,142,2,2024-02-27T09:35:29.631Z,french_317.wav,0,poule,466,45,3,5,français,m,0,0.0,16.10159391,1.00024107
5eb7031b5e4ac262cd77c949,142,2,2024-02-27T09:35:29.631Z,french_317.wav,0,poule,466,45,3,5,français,m,1,0.1,-3.4784276,1.04292902
5eb7031b5e4ac262cd77c949,142,2,2024-02-27T09:35:29.631Z,french_317.wav,0,poule,466,45,3,5,français,m,2,0.2,-59.35796464,1.9831422
5eb7031b5e4ac262cd77c949,142,2,2024-02-27T09:35:29.631Z,french_317.wav,0,poule,466,45,3,5,français,m,3,0.25666667,-1.67752252,0.01532069
5eb7031b5e4ac262cd77c949,143,2,2024-02-27T09:35:29.631Z,french_232.wav,0,poule,446,45,3,5,français,m,0,0.0,48.62304181,1.60041799
5eb7031b5e4ac262cd77c949,143,2,2024-02-27T09:35:29.631Z,french_232.wav,0,poule,446,45,3,5,français,m,1,0.1,-66.91586117,0.5698369
5eb7031b5e4ac262cd77c949,143,2,2024-02-27T09:35:29.631Z,french_232.wav,0,poule,446,45,3,5,français,m,2,0.2,-71.38800945,1.21368891
5eb7031b5e4ac262cd77c949,143,2,2024-02-27T09:35:29.631Z,french_232.wav,0,poule,446,45,3,5,français,m,3,0.25666667,32.42157584,1.05085576
5eb7031b5e4ac262cd77c949,144,2,2024-02-27T09:35:29.631Z,french_565.wav,0,poule,462,45,3,5,français,m,0,0.0,50.78822436,1.00864226
5eb7031b5e4ac262cd77c949,144,2,2024-02-27T09:35:29.631Z,french_565.wav,0,poule,462,45,3,5,français,m,1,0.1,-75.93967217,1.52231663
5eb7031b5e4ac262cd77c949,144,2,2024-02-27T09:35:29.631Z,french_565.wav,0,poule,462,45,3,5,français,m,2,0.2,-58.95969425,0.24874103
5eb7031b5e4ac262cd77c949,144,2,2024-02-27T09:35:29.631Z,french_565.wav,0,poule,462,45,3,5,français,m,3,0.25666667,-53.32673619,1.47271882
5eb7031b5e4ac262cd77c949,145,2,2024-02-27T09:35:29.631Z,french_263.wav,0,poule,436,45,3,5,français,m,0,0.0,25.02930943,0.29249845
5eb7031b5e4ac262cd77c949,145,2,2024-02-27T09:35:29.631Z,french_263.wav,0,poule,436,45,3,5,français,m,1,0.1,77.59070044,1.82268286
5eb7031b5e4ac262cd77c949,145,2,2024-02-27T09:35:29.631Z,french_263.wav,0,poule,436,45,3,5,français,m,2,0.2,61.13366196,0.69638669
5eb7031b5e4ac262cd77c949,145,2,2024-02-27T09:35:29.631Z,french_263.wav,0,poule,436,45,3,5,français,m,3,0.25666667,-46.58539851,0.57279137
5eb7031b5e4ac262cd77c949,146,2,2024-02-27T09:35:29.631Z,french_145.wav,0,poule,402,45,3,5,français,m,0,0.0,45.95226671,0.38136586
5eb7031b5e4ac262cd77c949,146,2,2024-02-27T09:35:29.631Z,french_145.wav,0,poule,402,45,3,5,français,m,1,0.1,-66.66601381,1.38589502
5eb7031b5e4ac262cd77c949,146,2,2024-02-27T09:35:29.631Z,french_145.wav,0,poule,402,45,3,5,français,m,2,0.2,-89.77596615,0.43712509
5eb7031b5e4ac262cd77c949,146,2,2024-02-27T09:35:29.631Z,french_145.wav,0,poule,402,45,3,5,français,m,3,0.25666667,8.03115864,1.92826262
5eb7031b5e4ac262cd77c949,147,2,2024-02-27T09:35:29.631Z,french_375.wav,0,poule,450,45,3,5,français,m,0,0.0,25.91972282,0.89929791
5eb7031b5e4ac262cd77c949,147,2,2024-02-27T09:35:29.631Z,french_375.wav,0,poule,450,45,3,5,français,m,1,0.1,-60.98407933,0.6101435
5eb7031b5e4ac262cd77c949,147,2,2024-02-27T09:35:29.631Z,french_375.wav,0,poule,450,45,3,5,français,m,2,0.2,-55.02276561,1.65353502
5eb7031b5e4ac262cd77c949,147,2,2024-02-27T09:35:29.631Z,french_375.wav,0,poule,450,45,3,5,français,m,3,0.25666667,50.70039074,0.66964756
5eb7031b5e4ac262cd77c949,148,2,2024-02-27T09:35:29.631Z,french_523.wav,0,poule,393,45,3,5,français,m,0,0.0,-20.54401218,1.01178449
5eb7031b5e4ac262cd77c949,148,2,2024-02-27T09:35:29.631Z,french_523.wav,0,poule,393,45,3,5,français,m,1,0.1,-64.61887171,1.79283511
5eb7031b5e4ac262cd77c949,148,2,2024-02-27T09:35:29.631Z,french_523.wav,0,poule,393,45,3,5,français,m,2,0.2,-56.67652055,0.92711934
5eb7031b5e4ac262cd77c949,148,2,2024-02-27T09:35:29.631Z,french_523.wav,0,poule,393,45,3,5,français,m,3,0.25666667,-29.90055738,1.0186138
5eb7031b5e4ac262cd77c949,149,2,2024-02-27T09:35:29.631Z,french_850.wav,0,poule,566,45,3,5,français,m,0,0.0,-88.87179188,0.91597825
5eb7031b5e4ac262cd77c949,149,2,2024-02-27T09:35:29.631Z,french_850.wav,0,poule,566,45,3,5,français,m,1,0.1,15.70736636,0.21425776
5eb7031b5e4ac262cd77c949,149,2,2024-02-27T09:35:29.631Z,french_850.wav,0,poule,566,45,3,5,français,m,2,0.2,67.7730952,1.52338939
5eb7031b5e4ac262cd77c949,149,2,2024-02-27T09:35:29.631Z,french_850.wav,0,poule,566,45,3,5,français,m,3,0.25666667,-20.3872908,0.55241946
5eb7031b5e4ac262cd77c949,150,3,2024-02-27T09:35:29.631Z,french_660.wav,0,poule,1034,45,3,5,français,m,0,0.0,-75.02051955,0.75293762
5eb7031b5e4ac262cd77c949,150,3,2024-02-27T09:35:29.631Z,french_660.wav,0,poule,1034,45,3,5,français,m,1,0.1,-36.41679043,0.97452375
5eb7031b5e4ac262cd77c949,150,3,2024-02-27T09:35:29.631Z,french_660.wav,0,poule,1034,45,3,5,français,m,2,0.2,-45.60366398,1.88941483
5eb7031b5e4ac262cd77c949,150,3,2024-02-27T09:35:29.631Z,french_660.wav,0,poule,1034,45,3,5,français,m,3,0.25666667,13.07838485,0.53297117
5eb7031b5e4ac262cd77c949,151,3,2024-02-27T09:35:29.631Z,french_518.wav,0,poule,1198,45,3,5,français,m,0,0.0,30.08897808,1.28002377
5eb7031b5e4ac262cd77c949,151,3,2024-02-27T09:35:29.631Z,french_518.wav,0,poule,1198,45,3,5,français,m,1,0.1,-42.00678694,0.31881796
5eb7031b5e4ac262cd77c949,151,3,2024-02-27T09:35:29.631Z,french_518.wav,0,poule,1198,45,3,5,français,m,2,0.2,47.99304417,0.271149
5eb7031b5e4ac262cd77c949,151,3,2024-02-27T09:35:29.631Z,french_518.wav,0,poule,1198,45,3,5,français,m,3,0.25666667,-21.59585354,1.06182133
5eb7031b5e4ac262cd77c949,152,3,2024-02-27T09:35:29.631Z,french_100.wav,0,poule,851,45,3,5,français,m,0,0.0,-35.75508116,1.72997046
5eb7031b5e4ac262cd77c949,152,3,2024-02-27T09:35:29.631Z,french_100.wav,0,poule,851,45,3,5,français,m,1,0.1,57.82815341,1.04300978
5eb7031b5e4ac262cd77c949,152,3,2024-02-27T09:35:29.631Z,french_100.wav,0,poule,851,45,3,5,français,m,2,0.2,31.92112674,1.01595182
5eb7031b5e4ac262cd77c949,152,3,2024-02-27T09:35:29.631Z,french_100.wav,0,poule,851,45,3,5,français,m,3,0.25666667,34.87308497,1.9286069
5eb7031b5e4ac262cd77c949,153,3,2024-02-27T09:35:29.631Z,french_614.wav,0,poule,752,45,3,5,français,m,0,0.0,13.55245103,0.76920018
5eb7031b5e4ac262cd77c949,153,3,2024-02-27T09:35:29.631Z,french_614.wav,0,poule,752,45,3,5,français,m,1,0.1,56.56377999,1.46632319
5eb7031b5e4ac262cd77c949,153,3,2024-02-27T09:35:29.631Z,french_614.wav,0,poule,752,45,3,5,français,m,2,0.2,18.28165036,0.77890927
5eb7031b5e4ac262cd77c949,153,3,2024-02-27T09:35:29.631Z,french_614.wav,0,poule,752,45,3,5,français,m,3,0.25666667,42.87971424,1.0073418
5eb7031b5e4ac262cd77c949,154,3,2024-02-27T09:35:29.631Z,french_885.wav,0,poule,648,45,3,5,français,m,0,0.0,33.82264354,0.94046277
5eb7031b5e4ac262cd77c949,154,3,2024-02-27T09:35:29.631Z,french_885.wav,0,poule,648,45,3,5,français,m,1,0.1,-17.07734064,0.79714646
5eb7031b5e4ac262cd77c949,154,3,2024-02-27T09:35:29.631Z,french_885.wav,0,poule,648,45,3,5,français,m,2,0.2,-15.93967404,1.26873891
5eb7031b5e4ac262cd77c949,154,3,2024-02-27T09:35:29.631Z,french_885.wav,0,poule,648,45,3,5,français,m,3,0.25666667,58.67746901,1.69592015
5eb7031b5e4ac262cd77c949,155,3,2024-02-27T09:35:29.631Z,french_156.wav,0,poule,1299,45,3,5,français,m,0,0.0,31.92379501,1.0555525
5eb7031b5e4ac262cd77c949,155,3,2024-02-27T09:35:29.631Z,french_156.wav,0,poule,1299,45,3,5,français,m,1,0.1,-44.87917853,1.35077548
5eb7031b5e4ac262cd77c949,155,3,2024-02-27T09:35:29.631Z,french_156.wav,0,poule,1299,45,3,5,français,m,2,0.2,-30.25450012,0.66649605
5eb7031b5e4ac262cd77c949,155,3,2024-02-27T09:35:29.631Z,french_156.wav,0,poule,1299,45,3,5,français,m,3,0.25666667,-8.41227372,1.59075988
5eb7031b5e4ac262cd77c949,156,3,2024-02-27T09:35:29.631Z,french_602.wav,0,poule,634,45,3,5,français,m,0,0.0,88.5156033,1.15034926
5eb7031b5e4ac262cd77c949,156,3,2024-02-27T09:35:29.631Z,french_602.wav,0,poule,634,45,3,5,français,m,1,0.1,50.37840389,0.70361943
5eb7031b5e4ac262cd77c949,156,3,2024-02-27T09:35:29.631Z,french_602.wav,0,poule,634,45,3,5,français,m,2,0.2,41.99983627,1.85629911
5eb7031b5e4ac262cd77c949,156,3,2024-02-27T09:35:29.631Z,french_602.wav,0,poule,634,45,3,5,français,m,3,0.25666667,11.33520808,0.32194213
5eb7031b5e4ac262cd77c949,157,3,2024-02-27T09:35:29.631Z,french_783.wav,0,poule,420,45,3,5,français,m,0,0.0,-1.39366148,1.02261841
5eb7031b5e4ac262cd77c949,157,3,2024-02-27T09:35:29.631Z,french_783.wav,0,poule,420,45,3,5,français,m,1,0.1,-51.98505422,1.36670641
5eb7031b5e4ac262cd77c949,157,3,2024-02-27T09:35:29.631Z,french_783.wav,0,poule,420,45,3,5,français,m,2,0.2,-59.48644931,1.36831513
5eb7031b5e4ac262cd77c949,157,3,2024-02-27T09:35:29.631Z,french_783.wav,0,poule,420,45,3,5,français,m,3,0.25666667,-72.0894269,1.17814646
5eb7031b5e4ac262cd77c949,158,3,2024-02-27T09:35:29.631Z,french_190.wav,0,poule,467,45,3,5,français,m,0,0.0,69.06529403,1.3481685
5eb7031b5e4ac262cd77c949,158,3,2024-02-27T09:35:29.631Z,french_190.wav,0,poule,467,45,3,5,français,m,1,0.1,69.42395119,0.73404764
5eb7031b5e4ac262cd77c949,158,3,2024-02-27T09:35:29.631Z,french_190.wav,0,poule,467,45,3,5,français,m,2,0.2,67.79801708,1.27794388
5eb7031b5e4ac262cd77c949,158,3,2024-02-27T09:35:29.631Z,french_190.wav,0,poule,467,45,3,5,français,m,3,0.25666667,63.92857008,1.43465572
5eb7031b5e4ac262cd77c949,159,3,2024-02-27T09:35:29.631Z,french_820.wav,0,poule,391,45,3,5,français,m,0,0.0,-23.2512771,0.85914582
5eb7031b5e4ac262cd77c949,159,3,2024-02-27T09:35:29.631Z,french_820.wav,0,poule,391,45,3,5,français,m,1,0.1,-3.42093224,1.44867235
5eb7031b5e4ac262cd77c949,159,3,2024-02-27T09:35:29.631Z,french_820.wav,0,poule,391,45,3,5,français,m,2,0.2,-78.83822409,1.61907263
5eb7031b5e4ac262cd77c949,159,3,2024-02-27T09:35:29.631Z,french_820.wav,0,poule,391,45,3,5,français,m,3,0.25666667,-24.79307177,1.11055267
5eb7031b5e4ac262cd77c949,160,3,2024-02-27T09:35:29.631Z,french_500.wav,0,poule,621,45,3,5,français,m,0,0.0,-64.77507575,1.1238598
5eb7031b5e4ac262cd77c949,160,3,2024-02-27T09:35:29.631Z,french_500.wav,0,poule,621,45,3,5,français,m,1,0.1,-6.64685947,1.28070421
5eb7031b5e4ac262cd77c949,160,3,2024-02-27T09:35:29.631Z,french_500.wav,0,poule,621,45,3,5,français,m,2,0.2,-63.06704172,0.36817987
5eb7031b5e4ac262cd77c949,160,3,2024-02-27T09:35:29.631Z,french_500.wav,0,poule,621,45,3,5,français,m,3,0.25666667,-2.53403127,0.89472864
5eb7031b5e4ac262cd77c949,161,3,2024-02-27T09:35:29.631Z,french_403.wav,0,poule,474,45,3,5,français,m,0,0.0,-74.59140771,1.12132674
5eb7031b5e4ac262cd77c949,161,3,2024-02-27T09:35:29.631Z,french_403.wav,0,poule,474,45,3,5,français,m,1,0.1,29.14043257,1.20077734
5eb7031b5e4ac262cd77c949,161,3,2024-02-27T09:35:29.631Z,french_403.wav,0,poule,474,45,3,5,français,m,2,0.2,37.28402081,0.75804668
5eb7031b5e4ac262cd77c949,161,3,2024-02-27T09:35:29.631Z,french_403.wav,0,poule,474,45,3,5,français,m,3,0.25666667,-66.4238982,0.86443687
5eb7031b5e4ac262cd77c949,162,3,2024-02-27T09:35:29.631Z,french_848.wav,0,poule,439,45,3,5,français,m,0,0.0,-60.99605007,1.01059702
5eb7031b5e4ac262cd77c949,162,3,2024-02-27T09:35:29.631Z,french_848.wav,0,poule,439,45,3,5,français,m,1,0.1,-27.05939135,1.98581859
5eb7031b5e4ac262cd77c949,162,3,2024-02-27T09:35:29.631Z,french_848.wav,0,poule,439,45,3,5,français,m,2,0.2,-10.58439289,0.30142011
5eb7031b5e4ac262cd77c949,162,3,2024-02-27T09:35:29.631Z,french_848.wav,0,poule,439,45,3,5,français,m,3,0.25666667,-17.47548333,1.16939553
5eb7031b5e4ac262cd77c949,163,3,2024-02-27T09:35:29.631Z,french_926.wav,0,pull,844,45,3,5,français,m,0,0.0,-38.30420493,1.0266732
5eb7031b5e4ac262cd77c949,163,3,2024-02-27T09:35:29.631Z,french_926.wav,0,pull,844,45,3,5,français,m,1,0.1,-97.26803886,0.03873156
5eb7031b5e4ac262cd77c949,163,3,2024-02-27T09:35:29.631Z,french_926.wav,0,pull,844,45,3,5,français,m,2,0.2,55.3544282,0.32593073
5eb7031b5e4ac262cd77c949,163,3,2024-02-27T09:35:29.631Z,french_926.wav,0,pull,844,45,3,5,français,m,3,0.25666667,8.78644418,0.80695306
5eb7031b5e4ac262cd77c949,164,3,2024-02-27T09:35:29.631Z,french_71.wav,0,poule,442,45,3,5,français,m,0,0.0,-97.29707499,0.6163898
5eb7031b5e4ac262cd77c949,164,3,2024-02-27T09:35:29.631Z,french_71.wav,0,poule,442,45,3,5,français,m,1,0.1,41.74238765,1.06775198
5eb7031b5e4ac262cd77c949,164,3,2024-02-27T09:35:29.631Z,french_71.wav,0,poule,442,45,3,5,français,m,2,0.2,-91.89336592,1.31906527
5eb7031b5e4ac262cd77c949,164,3,2024-02-27T09:35:29.631Z,french_71.wav,0,poule,442,45,3,5,français,m,3,0.25666667,53.06515209,0.58556407
5eb7031b5e4ac262cd77c949,165,3,2024-02-27T09:35:29.631Z,french_717.wav,0,pull,707,45,3,5,français,m,0,0.0,-84.32189387,1.00877352
5eb7031b5e4ac262cd77c949,165,3,2024-02-27T09:35:29.631Z,french_717.wav,0,pull,707,45,3,5,français,m,1,0.1,40.2374262,0.42603024
5eb7031b5e4ac262cd77c949,165,3,2024-02-27T09:35:29.631Z,french_717.wav,0,pull,707,45,3,5,français,m,2,0.2,80.19404777,0.00517131
5eb7031b5e4ac262cd77c949,165,3,2024-02-27T09:35:29.631Z,french_717.wav,0,pull,707,45,3,5,français,m,3,0.25666667,-31.07147466,1.19241547
5eb7031b5e4ac262cd77c949,166,3,2024-02-27T09:35:29.631Z,french_454.wav,0,poule,561,45,3,5,français,m,0,0.0,-2.34959028,0.74247593
5eb7031b5e4ac262cd77c949,166,3,2024-02-27T09:35:29.631Z,french_454.wav,0,poule,561,45,3,5,français,m,1,0.1,-12.00596157,1.74271244
5eb7031b5e4ac262cd77c949,166,3,2024-02-27T09:35:29.631Z,french_454.wav,0,poule,561,45,3,5,français,m,2,0.2,53.09832594,0.67609159
5eb7031b5e4ac262cd77c949,166,3,2024-02-27T09:35:29.631Z,french_454.wav,0,poule,561,45,3,5,français,m,3,0.25666667,2.06709411,1.84499539
5eb7031b5e4ac262cd77c949,167,3,2024-02-27T09:35:29.631Z,french_897.wav,0,poule,728,45,3,5,français,m,0,0.0,-2.62488743,0.95618392
5eb7031b5e4ac262cd77c949,167,3,2024-02-27T09:35:29.631Z,french_897.wav,0,poule,728,45,3,5,français,m,1,0.1,-35.09835725,0.97615626
5eb7031b5e4ac262cd77c949,167,3,2024-02-27T09:35:29.631Z,french_897.wav,0,poule,728,45,3,5,français,m,2,0.2,-7.90226738,0.33556547
5eb7031b5e4ac262cd77c949,167,3,2024-02-27T09:35:29.631Z,french_897.wav,0,poule,728,45,3,5,français,m,3,0.25666667,34.22753828,0.12618193
5eb7031b5e4ac262cd77c949,168,3,2024-02-27T09:35:29.631Z,french_671.wav,0,poule,542,45,3,5,français,m,0,0.0,-43.02390558,0.93196934
5eb7031b5e4ac262cd77c949,168,3,2024-02-27T09:35:29.631Z,french_671.wav,0,poule,542,45,3,5,français,m,1,0.1,13.89093856,1.15314194
5eb7031b5e4ac262cd77c949,168,3,2024-02-27T09:35:29.631Z,french_671.wav,0,poule,542,45,3,5,français,m,2,0.2,3.48608914,0.54353121
5eb7031b5e4ac262cd77c949,168,3,2024-02-27T09:35:29.631Z,french_671.wav,0,poule,542,45,3,5,français,m,3,0.25666667,-98.36263583,1.08598707
5eb7031b5e4ac262cd77c949,169,3,2024-02-27T09:35:29.631Z,french_814.wav,0,poule,4932,45,3,5,français,m,0,0.0,83.0056253,1.4499936
5eb7031b5e4ac262cd77c949,169,3,2024-02-27T09:35:29.631Z,french_814.wav,0,poule,4932,45,3,5,français,m,1,0.1,-71.4586846,0.77595229
5eb7031b5e4ac262cd77c949,169,3,2024-02-27T09:35:29.631Z,french_814.wav,0,poule,4932,45,3,5,français,m,2,0.2,12.63844789,0.21302651
5eb7031b5e4ac262cd77c949,169,3,2024-02-27T09:35:29.631Z,french_814.wav,0,poule,4932,45,3,5,français,m,3,0.25666667,12.39326704,0.16177964
5eb7031b5e4ac262cd77c949,170,3,2024-02-27T09:35:29.631Z,french_74.wav,0,poule,434,45,3,5,français,m,0,0.0,50.9707996,1.5114138
5eb7031b5e4ac262cd77c949,170,3,2024-02-27T09:35:29.631Z,french_74.wav,0,poule,434,45,3,5,français,m,1,0.1,-38.59052132,1.75968469
5eb7031b5e4ac262cd77c949,170,3,2024-02-27T09:35:29.631Z,french_74.wav,0,poule,434,45,3,5,français,m,2,0.2,-99.50726314,0.36574043
5eb7031b5e4ac262cd77c949,170,3,2024-02-27T09:35:29.631Z,french_74.wav,0,poule,434,45,3,5,français,m,3,0.25666667,55.85777384,0.66231561
5eb7031b5e4ac262cd77c949,171,3,2024-02-27T09:35:29.631Z,french_461.wav,0,poule,422,45,3,5,français,m,0,0.0,76.34817382,0.72953599
5eb7031b5e4ac262cd77c949,171,3,2024-02-27T09:35:29.631Z,french_461.wav,0,poule,422,45,3,5,français,m,1,0.1,2.37579461,1.5415695
5eb7031b5e4ac262cd77c949,171,3,2024-02-27T09:35:29.631Z,french_461.wav,0,poule,422,45,3,5,français,m,2,0.2,-59.90047781,1.01078515
5eb7031b5e4ac262cd77c949,171,3,2024-02-27T09:35:29.631Z,french_461.wav,0,poule,422,45,3,5,français,m,3,0.25666667,20.08623444,1.02737445
5eb7031b5e4ac262cd77c949,172,3,2024-02-27T09:35:29.631Z,french_961.wav,0,poule,666,45,3,5,français,m,0,0.0,-20.33448842,1.15404666
5eb7031b5e4ac262cd77c949,172,3,2024-02-27T09:35:29.631Z,french_961.wav,0,poule,666,45,3,5,français,m,1,0.1,-4.78685128,0.60063951
5eb7031b5e4ac262cd77c949,172,3,2024-02-27T09:35:29.631Z,french_961.wav,0,poule,666,45,3,5,français,m,2,0.2,-11.93718074,0.7481002
5eb7031b5e4ac262cd77c949,172,3,2024-02-27T09:35:29.631Z,french_961.wav,0,poule,666,45,3,5,français,m,3,0.25666667,-89.16955282,0.88090291
5eb7031b5e4ac262cd77c949,173,3,2024-02-27T09:35:29.631Z,french_665.wav,0,poule,602,45,3,5,français,m,0,0.0,1.77078633,0.29838278
5eb7031b5e4ac262cd77c949,173,3,2024-02-27T09:35:29.631Z,french_665.wav,0,poule,602,45,3,5,français,m,1,0.1,-95.60257374,0.72198918
5eb7031b5e4ac262cd77c949,173,3,2024-02-27T09:35:29.631Z,french_665.wav,0,poule,602,45,3,5,français,m,2,0.2,-26.21333041,0.91284695
5eb7031b5e4ac262cd77c949,173,3,2024-02-27T09:35:29.631Z,french_665.wav,0,poule,602,45,3,5,français,m,3,0.25666667,-67.7705493,0.52625369
5eb7031b5e4ac262cd77c949,174,3,2024-02-27T09:35:29.631Z,french_276.wav,0,poule,569,45,3,5,français,m,0,0.0,-30.59490391,1.59191255
5eb7031b5e4ac262cd77c949,174,3,2024-02-27T09:35:29.631Z,french_276.wav,0,poule,569,45,3,5,français,m,1,0.1,35.14119383,1.08920427
5eb7031b5e4ac262cd77c949,174,3,2024-02-27T09:35:29.631Z,french_276.wav,0,poule,569,45,3,5,français,m,2,0.2,-47.54137466,1.15204711
5eb7031b5e4ac262cd77c949,174,3,2024-02-27T09:35:29.631Z,french_276.wav,0,poule,569,45,3,5,français,m,3,0.25666667,-36.46330553,0.56107217
5eb7031b5e4ac262cd77c949,175,3,2024-02-27T09:35:29.631Z,french_778.wav,0,poule,352,45,3,5,français,m,0,0.0,-2.76577218,0.74255963
5eb7031b5e4ac262cd77c949,175,3,2024-02-27T09:35:29.631Z,french_778.wav,0,poule,352,45,3,5,français,m,1,0.1,4.49344871,1.48176587
5eb7031b5e4ac262cd77c949,175,3,2024-02-27T09:35:29.631Z,french_778.wav,0,poule,352,45,3,5,français,m,2,0.2,68.81762054,1.59399306
5eb7031b5e4ac262cd77c949,175,3,2024-02-27T09:35:29.631Z,french_778.wav,0,poule,352,45,3,5,français,m,3,0.25666667,89.13075651,1.18058537
5eb7031b5e4ac262cd77c949,176,3,2024-02-27T09:35:29.631Z,french_398.wav,0,poule,327,45,3,5,français,m,0,0.0,6.24181165,1.03823517
5eb7031b5e4ac262cd77c949,176,3,2024-02-27T09:35:29.631Z,french_398.wav,0,poule,327,45,3,5,français,m,1,0.1,-92.25652661,1.54229831
5eb7031b5e4ac262cd77c949,176,3,2024-02-27T09:35:29.631Z,french_398.wav,0,poule,327,45,3,5,français,m,2,0.2,-10.16879246,1.61201148
5eb7031b5e4ac262cd77c949,176,3,2024-02-27T09:35:29.631Z,french_398.wav,0,poule,327,45,3,5,français,m,3,0.25666667,42.06293659,1.50798312
5eb7031b5e4ac262cd77c949,177,3,2024-02-27T09:35:29.631Z,french_69.wav,0,poule,1096,45,3,5,français,m,0,0.0,-60.6968374,1.40310832
5eb7031b5e4ac262cd77c949,177,3,2024-02-27T09:35:29.631Z,french_69.wav,0,poule,1096,45,3,5,français,m,1,0.1,-13.66133732,0.07324596
5eb7031b5e4ac262cd77c949,177,3,2024-02-27T09:35:29.631Z,french_69.wav,0,poule,1096,45,3,5,français,m,2,0.2,-49.05218158,0.92091935
5eb7031b5e4ac262cd77c949,177,3,2024-02-27T09:35:29.631Z,french_69.wav,0,poule,1096,45,3,5,français,m,3,0.25666667,-62.82393396,0.56730757
5eb7031b5e4ac262cd77c949,178,3,2024-02-27T09:35:29.631Z,french_661.wav,0,poule,353,45,3,5,français,m,0,0.0,34.1047988,1.29957539
5eb7031b5e4ac262cd77c949,178,3,2024-02-27T09:35:29.631Z,french_661.wav,0,poule,353,45,3,5,français,m,1,0.1,-45.42737183,0.81809843
5eb7031b5e4ac262cd77c949,178,3,2024-02-27T09:35:29.631Z,french_661.wav,0,poule,353,45,3,5,français,m,2,0.2,-32.96226792,1.39938296
5eb7031b5e4ac262cd77c949,178,3,2024-02-27T09:35:29.631Z,french_661.wav,0,poule,353,45,3,5,français,m,3,0.25666667,51.87575508,1.33634107
5eb7031b5e4ac262cd77c949,179,3,2024-02-27T09:35:29.631Z,french_862.wav,0,pull,869,45,3,5,français,m,0,0.0,99.41401176,0.02807195
5eb7031b5e4ac262cd77c949,179,3,2024-02-27T09:35:29.631Z,french_862.wav,0,pull,869,45,3,5,français,m,1,0.1,35.25307956,0.7885189
5eb7031b5e4ac262cd77c949,179,3,2024-02-27T09:35:29.631Z,french_862.wav,0,pull,869,45,3,5,français,m,2,0.2,-56.34938096,0.76649358
5eb7031b5e4ac262cd77c949,179,3,2024-02-27T09:35:29.631Z,french_862.wav,0,pull,869,45,3,5,français,m,3,0.25666667,-51.21225279,1.75346492
5eb7031b5e4ac262cd77c949,180,3,2024-02-27T09:35:29.631Z,french_533.wav,0,poule,375,45,3,5,français,m,0,0.0,16.04004141,1.94214745
5eb7031b5e4ac262cd77c949,180,3,2024-02-27T09:35:29.631Z,french_533.wav,0,poule,375,45,3,5,français,m,1,0.1,56.74964814,0.96958639
5eb7031b5e4ac262cd77c949,180,3,2024-02-27T09:35:29.631Z,french_533.wav,0,poule,375,45,3,5,français,m,2,0.2,94.00728235,1.49563925
5eb7031b5e4ac262cd77c949,180,3,2024-02-27T09:35:29.631Z,french_533.wav,0,poule,375,45,3,5,français,m,3,0.25666667,-15.92685786,1.75047909
5eb7031b5e4ac262cd77c949,181,3,2024-02-27T09:35:29.631Z,french_198.wav,0,pull,1446,45,3,5,français,m,0,0.0,72.51067349,0.65547069
5eb7031b5e4ac262cd77c949,181,3,2024-02-27T09:35:29.631Z,french_198.wav,0,pull,1446,45,3,5,français,m,1,0.1,26.15359829,0.30610144
5eb7031b5e4ac262cd77c949,181,3,2024-02-27T09:35:29.631Z,french_198.wav,0,pull,1446,45,3,5,français,m,2,0.2,-38.06500424,0.27462822
5eb7031b5e4ac262cd77c949,181,3,2024-02-27T09:35:29.631Z,french_198.wav,0,pull,1446,45,3,5,français,m,3,0.25666667,-63.59150526,1.37790723
5eb7031b5e4ac262cd77c949,182,3,2024-02-27T09:35:29.631Z,french_179.wav,0,poule,937,45,3,5,français,m,0,0.0,-38.66887761,0.36967864
5eb7031b5e4ac262cd77c949,182,3,2024-02-27T09:35:29.631Z,french_179.wav,0,poule,937,45,3,5,français,m,1,0.1,-45.74367449,1.41588785
5eb7031b5e4ac262cd77c949,182,3,2024-02-27T09:35:29.631Z,french_179.wav,0,poule,937,45,3,5,français,m,2,0.2,41.91599006,1.38004937
5eb7031b5e4ac262cd77c949,182,3,2024-02-27T09:35:29.631Z,french_179.wav,0,poule,937,45,3,5,français,m,3,0.25666667,36.18860402,1.10239155
5eb7031b5e4ac262cd77c949,183,3,2024-02-27T09:35:29.631Z,french_485.wav,0,poule,475,45,3,5,français,m,0,0.0,49.72116837,1.80184077
5eb7031b5e4ac262cd77c949,183,3,2024-02-27T09:35:29.631Z,french_485.wav,0,poule,475,45,3,5,français,m,1,0.1,30.83147643,1.80095915
5eb7031b5e4ac262cd77c949,183,3,2024-02-27T09:35:29.631Z,french_485.wav,0,poule,475,45,3,5,français,m,2,0.2,37.98454641,1.42682554
5eb7031b5e4ac262cd77c949,183,3,2024-02-27T09:35:29.631Z,french_485.wav,0,poule,475,45,3,5,français,m,3,0.25666667,-93.0468476,0.86529676
5eb7031b5e4ac262cd77c949,184,3,2024-02-27T09:35:29.631Z,french_770.wav,0,poule,355,45,3,5,français,m,0,0.0,28.65055954,1.27945621
5eb7031b5e4ac262cd77c949,184,3,2024-02-27T09:35:29.631Z,french_770.wav,0,poule,355,45,3,5,français,m,1,0.1,-72.95217839,1.48453538
5eb7031b5e4ac262cd77c949,184,3,2024-02-27T09:35:29.631Z,french_770.wav,0,poule,355,45,3,5,français,m,2,0.2,-37.01197006,1.47789059
5eb7031b5e4ac262cd77c949,184,3,2024-02-27T09:35:29.631Z,french_770.wav,0,poule,355,45,3,5,français,m,3,0.25666667,17.9887053,1.81501711
5eb7031b5e4ac262cd77c949,185,3,2024-02-27T09:35:29.631Z,french_338.wav,0,poule,632,45,3,5,français,m,0,0.0,-59.42111132,1.60060286
5eb7031b5e4ac262cd77c949,185,3,2024-02-27T09:35:29.631Z,french_338.wav,0,poule,632,45,3,5,français,m,1,0.1,-69.70478814,0.22517269
5eb7031b5e4ac262cd77c949,185,3,2024-02-27T09:35:29.631Z,french_338.wav,0,poule,632,45,3,5,français,m,2,0.2,-12.60920347,1.52190999
5eb7031b5e4ac262cd77c949,185,3,2024-02-27T09:35:29.631Z,french_338.wav,0,poule,632,45,3,5,français,m,3,0.25666667,-82.44797384,0.82265445
5eb7031b5e4ac262cd77c949,186,3,2024-02-27T09:35:29.631Z,french_530.wav,0,poule,865,45,3,5,français,m,0,0.0,-48.266975,0.22885815
5eb7031b5e4ac262cd77c949,186,3,2024-02-27T09:35:29.631Z,french_530.wav,0,poule,865,45,3,5,français,m,1,0.1,10.53522492,0.99708564
5eb7031b5e4ac262cd77c949,186,3,2024-02-27T09:35:29.631Z,french_530.wav,0,poule,865,45,3,5,français,m,2,0.2,-70.81391458,0.43471164
5eb7031b5e4ac262cd77c949,186,3,2024-02-27T09:35:29.631Z,french_530.wav,0,poule,865,45,3,5,français,m,3,0.25666667,-13.69241617,0.61022423
5eb7031b5e4ac262cd77c949,187,3,2024-02-27T09:35:29.631Z,french_118.wav,0,poule,608,45,3,5,français,m,0,0.0,26.93316006,1.47067426
5eb7031b5e4ac262cd77c949,187,3,2024-02-27T09:35:29.631Z,french_118.wav,0,poule,608,45,3,5,français,m,1,0.1,-22.92967869,1.58231537
5eb7031b5e4ac262cd77c949,187,3,2024-02-27T09:35:29.631Z,french_118.wav,0,poule,608,45,3,5,français,m,2,0.2,-61.93287208,1.01494319
5eb7031b5e4ac262cd77c949,187,3,2024-02-27T09:35:29.631Z,french_118.wav,0,poule,608,45,3,5,français,m,3,0.25666667,-97.08418949,0.71977579
5eb7031b5e4ac262cd77c949,188,3,2024-02-27T09:35:29.631Z,french_32.wav,0,poule,569,45,3,5,français,m,0,0.0,-95.97477456,1.5242089
5eb7031b5e4ac262cd77c949,188,3,2024-02-27T09:35:29.631Z,french_32.wav,0,poule,569,45,3,5,français,m,1,0.1,-25.31572866,0.2047991
5eb7031b5e4ac262cd77c949,188,3,2024-02-27T09:35:29.631Z,french_32.wav,0,poule,569,45,3,5,français,m,2,0.2,-25.0492654,1.11388434
5eb7031b5e4ac262cd77c949,188,3,2024-02-27T09:35:29.631Z,french_32.wav,0,poule,569,45,3,5,français,m,3,0.25666667,-74.56689772,1.18772321
5eb7031b5e4ac262cd77c949,189,3,2024-02-27T09:35:29.631Z,french_945.wav,0,poule,1406,45,3,5,français,m,0,0.0,-68.75533602,0.74886616
5eb7031b5e4ac262cd77c949,189,3,2024-02-27T09:35:29.631Z,french_945.wav,0,poule,1406,45,3,5,français,m,1,0.1,-70.31736245,1.09629777
5eb7031b5e4ac262cd77c949,189,3,2024-02-27T09:35:29.631Z,french_945.wav,0,poule,1406,45,3,5,français,m,2,0.2,30.11750803,0.8052417
5eb7031b5e4ac262cd77c949,189,3,2024-02-27T09:35:29.631Z,french_945.wav,0,poule,1406,45,3,5,français,m,3,0.25666667,-35.89247017,0.22664311
