subj,trial,block,date,stim,stim_order,response,rt,age,english,french,language,sex,param_index,segment,pitch,stretch
599f00c54d25e800012fc9a6,0,0,2024-02-27T09:24:18.112Z,french_636.wav,0,pull,3124,42,5,5,français,Male,0,0.0,79.1724471,0.8082817
599f00c54d25e800012fc9a6,0,0,2024-02-27T09:24:18.112Z,french_636.wav,0,pull,3124,42,5,5,français,Male,1,0.1,25.25700376,1.50975093
599f00c54d25e800012fc9a6,0,0,2024-02-27T09:24:18.112Z,french_636.wav,0,pull,3124,42,5,5,français,Male,2,0.2,72.37529148,0.99206968
599f00c54d25e800012fc9a6,0,0,2024-02-27T09:24:18.112Z,french_636.wav,0,pull,3124,42,5,5,français,Male,3,0.25666667,12.21946345,0.17038819
599f00c54d25e800012fc9a6,1,0,2024-02-27T09:24:18.112Z,french_603.wav,0,pull,955,42,5,5,français,Male,0,0.0,59.84554137,1.0661988
599f00c54d25e800012fc9a6,1,0,2024-02-27T09:24:18.112Z,french_603.wav,0,pull,955,42,5,5,français,Male,1,0.1,16.50437024,1.9988244
599f00c54d25e800012fc9a6,1,0,2024-02-27T09:24:18.112Z,french_603.wav,0,pull,955,42,5,5,français,Male,2,0.2,38.82252298,0.61428719
599f00c54d25e800012fc9a6,1,0,2024-02-27T09:24:18.112Z,french_603.wav,0,pull,955,42,5,5,français,Male,3,0.25666667,25.72688984,0.58715273
599f00c54d25e800012fc9a6,2,0,2024-02-27T09:24:18.112Z,french_32.wav,0,poule,1514,42,5,5,français,Male,0,0.0,-95.97477456,1.5242089
599f00c54d25e800012fc9a6,2,0,2024-02-27T09:24:18.112Z,french_32.wav,0,poule,1514,42,5,5,français,Male,1,0.1,-25.31572866,0.2047991
599f00c54d25e800012fc9a6,2,0,2024-02-27T09:24:18.112Z,french_32.wav,0,poule,1514,42,5,5,français,Male,2,0.2,-25.0492654,1.11388434
599f00c54d25e800012fc9a6,2,0,2024-02-27T09:24:18.112Z,french_32.wav,0,poule,1514,42,5,5,français,Male,3,0.25666667,-74.56689772,1.18772321
599f00c54d25e800012fc9a6,3,0,2024-02-27T09:24:18.112Z,french_420.wav,0,pull,1080,42,5,5,français,Male,0,0.0,-21.03631645,1.00707818
599f00c54d25e800012fc9a6,3,0,2024-02-27T09:24:18.112Z,french_420.wav,0,pull,1080,42,5,5,français,Male,1,0.1,59.70125687,0.92270488
599f00c54d25e800012fc9a6,3,0,2024-02-27T09:24:18.112Z,french_420.wav,0,pull,1080,42,5,5,français,Male,2,0.2,54.71539052,1.69105963
599f00c54d25e800012fc9a6,3,0,2024-02-27T09:24:18.112Z,french_420.wav,0,pull,1080,42,5,5,français,Male,3,0.25666667,38.49486436,0.9671157
599f00c54d25e800012fc9a6,4,0,2024-02-27T09:24:18.112Z,french_162.wav,0,poule,1367,42,5,5,français,Male,0,0.0,-20.03052962,1.70466969
599f00c54d25e800012fc9a6,4,0,2024-02-27T09:24:18.112Z,french_162.wav,0,poule,1367,42,5,5,français,Male,1,0.1,-35.11860261,0.77666831
599f00c54d25e800012fc9a6,4,0,2024-02-27T09:24:18.112Z,french_162.wav,0,poule,1367,42,5,5,français,Male,2,0.2,20.80868131,1.88915568
599f00c54d25e800012fc9a6,4,0,2024-02-27T09:24:18.112Z,french_162.wav,0,poule,1367,42,5,5,français,Male,3,0.25666667,50.74802705,1.69994842
599f00c54d25e800012fc9a6,5,0,2024-02-27T09:24:18.112Z,french_152.wav,0,poule,536,42,5,5,français,Male,0,0.0,-3.84179402,0.21245747
599f00c54d25e800012fc9a6,5,0,2024-02-27T09:24:18.112Z,french_152.wav,0,poule,536,42,5,5,français,Male,1,0.1,56.28738818,1.74384484
599f00c54d25e800012fc9a6,5,0,2024-02-27T09:24:18.112Z,french_152.wav,0,poule,536,42,5,5,français,Male,2,0.2,-25.33799013,1.40208126
599f00c54d25e800012fc9a6,5,0,2024-02-27T09:24:18.112Z,french_152.wav,0,poule,536,42,5,5,français,Male,3,0.25666667,-10.23447911,0.94312755
599f00c54d25e800012fc9a6,6,0,2024-02-27T09:24:18.112Z,french_196.wav,0,poule,599,42,5,5,français,Male,0,0.0,-51.30508497,1.16005851
599f00c54d25e800012fc9a6,6,0,2024-02-27T09:24:18.112Z,french_196.wav,0,poule,599,42,5,5,français,Male,1,0.1,89.17651026,0.87725998
599f00c54d25e800012fc9a6,6,0,2024-02-27T09:24:18.112Z,french_196.wav,0,poule,599,42,5,5,français,Male,2,0.2,77.92993737,1.23506332
599f00c54d25e800012fc9a6,6,0,2024-02-27T09:24:18.112Z,french_196.wav,0,poule,599,42,5,5,français,Male,3,0.25666667,-86.11962375,1.33141167
599f00c54d25e800012fc9a6,7,0,2024-02-27T09:24:18.112Z,french_302.wav,0,poule,855,42,5,5,français,Male,0,0.0,8.4067376,0.06791418
599f00c54d25e800012fc9a6,7,0,2024-02-27T09:24:18.112Z,french_302.wav,0,poule,855,42,5,5,français,Male,1,0.1,-29.32780789,1.46578571
599f00c54d25e800012fc9a6,7,0,2024-02-27T09:24:18.112Z,french_302.wav,0,poule,855,42,5,5,français,Male,2,0.2,-43.35590711,1.81098556
599f00c54d25e800012fc9a6,7,0,2024-02-27T09:24:18.112Z,french_302.wav,0,poule,855,42,5,5,français,Male,3,0.25666667,-44.50549756,1.40235265
599f00c54d25e800012fc9a6,8,0,2024-02-27T09:24:18.112Z,french_735.wav,0,poule,1360,42,5,5,français,Male,0,0.0,16.11120967,0.14330821
599f00c54d25e800012fc9a6,8,0,2024-02-27T09:24:18.112Z,french_735.wav,0,poule,1360,42,5,5,français,Male,1,0.1,-19.98897555,0.00237292
599f00c54d25e800012fc9a6,8,0,2024-02-27T09:24:18.112Z,french_735.wav,0,poule,1360,42,5,5,français,Male,2,0.2,68.29513728,1.1733856
599f00c54d25e800012fc9a6,8,0,2024-02-27T09:24:18.112Z,french_735.wav,0,poule,1360,42,5,5,français,Male,3,0.25666667,31.40150104,0.51599842
599f00c54d25e800012fc9a6,9,0,2024-02-27T09:24:18.112Z,french_978.wav,0,poule,725,42,5,5,français,Male,0,0.0,-36.32035497,0.76958877
599f00c54d25e800012fc9a6,9,0,2024-02-27T09:24:18.112Z,french_978.wav,0,poule,725,42,5,5,français,Male,1,0.1,-92.00024605,0.1229223
599f00c54d25e800012fc9a6,9,0,2024-02-27T09:24:18.112Z,french_978.wav,0,poule,725,42,5,5,français,Male,2,0.2,-85.64640387,1.83920091
599f00c54d25e800012fc9a6,9,0,2024-02-27T09:24:18.112Z,french_978.wav,0,poule,725,42,5,5,français,Male,3,0.25666667,30.4024855,1.45747353
599f00c54d25e800012fc9a6,10,0,2024-02-27T09:24:18.112Z,french_389.wav,0,poule,364,42,5,5,français,Male,0,0.0,69.62296415,1.67675408
599f00c54d25e800012fc9a6,10,0,2024-02-27T09:24:18.112Z,french_389.wav,0,poule,364,42,5,5,français,Male,1,0.1,-41.49433877,1.60540147
599f00c54d25e800012fc9a6,10,0,2024-02-27T09:24:18.112Z,french_389.wav,0,poule,364,42,5,5,français,Male,2,0.2,-65.025051,0.45817867
599f00c54d25e800012fc9a6,10,0,2024-02-27T09:24:18.112Z,french_389.wav,0,poule,364,42,5,5,français,Male,3,0.25666667,10.9117334,1.10562968
599f00c54d25e800012fc9a6,11,0,2024-02-27T09:24:18.112Z,french_98.wav,0,poule,660,42,5,5,français,Male,0,0.0,-5.34356544,0.47275823
599f00c54d25e800012fc9a6,11,0,2024-02-27T09:24:18.112Z,french_98.wav,0,poule,660,42,5,5,français,Male,1,0.1,-51.77157259,0.98771666
599f00c54d25e800012fc9a6,11,0,2024-02-27T09:24:18.112Z,french_98.wav,0,poule,660,42,5,5,français,Male,2,0.2,16.6615471,0.01400035
599f00c54d25e800012fc9a6,11,0,2024-02-27T09:24:18.112Z,french_98.wav,0,poule,660,42,5,5,français,Male,3,0.25666667,-37.68560636,0.42827786
599f00c54d25e800012fc9a6,12,0,2024-02-27T09:24:18.112Z,french_530.wav,0,pull,433,42,5,5,français,Male,0,0.0,-48.266975,0.22885815
599f00c54d25e800012fc9a6,12,0,2024-02-27T09:24:18.112Z,french_530.wav,0,pull,433,42,5,5,français,Male,1,0.1,10.53522492,0.99708564
599f00c54d25e800012fc9a6,12,0,2024-02-27T09:24:18.112Z,french_530.wav,0,pull,433,42,5,5,français,Male,2,0.2,-70.81391458,0.43471164
599f00c54d25e800012fc9a6,12,0,2024-02-27T09:24:18.112Z,french_530.wav,0,pull,433,42,5,5,français,Male,3,0.25666667,-13.69241617,0.61022423
599f00c54d25e800012fc9a6,13,0,2024-02-27T09:24:18.112Z,french_680.wav,0,poule,363,42,5,5,français,Male,0,0.0,-51.31535201,1.24719536
599f00c54d25e800012fc9a6,13,0,2024-02-27T09:24:18.112Z,french_680.wav,0,poule,363,42,5,5,français,Male,1,0.1,-31.64171723,1.74184859
599f00c54d25e800012fc9a6,13,0,2024-02-27T09:24:18.112Z,french_680.wav,0,poule,363,42,5,5,français,Male,2,0.2,81.67923452,0.78878625
599f00c54d25e800012fc9a6,13,0,2024-02-27T09:24:18.112Z,french_680.wav,0,poule,363,42,5,5,français,Male,3,0.25666667,54.52860803,1.82878415
599f00c54d25e800012fc9a6,14,0,2024-02-27T09:24:18.112Z,french_212.wav,0,poule,195,42,5,5,français,Male,0,0.0,-65.85125812,0.99084671
599f00c54d25e800012fc9a6,14,0,2024-02-27T09:24:18.112Z,french_212.wav,0,poule,195,42,5,5,français,Male,1,0.1,4.72891676,1.71951251
599f00c54d25e800012fc9a6,14,0,2024-02-27T09:24:18.112Z,french_212.wav,0,poule,195,42,5,5,français,Male,2,0.2,52.80654505,1.56745001
599f00c54d25e800012fc9a6,14,0,2024-02-27T09:24:18.112Z,french_212.wav,0,poule,195,42,5,5,français,Male,3,0.25666667,75.91927134,1.70119676
599f00c54d25e800012fc9a6,15,0,2024-02-27T09:24:18.112Z,french_965.wav,0,poule,323,42,5,5,français,Male,0,0.0,40.44340114,0.70170615
599f00c54d25e800012fc9a6,15,0,2024-02-27T09:24:18.112Z,french_965.wav,0,poule,323,42,5,5,français,Male,1,0.1,-11.08391972,1.63180194
599f00c54d25e800012fc9a6,15,0,2024-02-27T09:24:18.112Z,french_965.wav,0,poule,323,42,5,5,français,Male,2,0.2,-2.7382686,1.33837455
599f00c54d25e800012fc9a6,15,0,2024-02-27T09:24:18.112Z,french_965.wav,0,poule,323,42,5,5,français,Male,3,0.25666667,-30.15899093,1.47207372
599f00c54d25e800012fc9a6,16,0,2024-02-27T09:24:18.112Z,french_897.wav,0,poule,992,42,5,5,français,Male,0,0.0,-2.62488743,0.95618392
599f00c54d25e800012fc9a6,16,0,2024-02-27T09:24:18.112Z,french_897.wav,0,poule,992,42,5,5,français,Male,1,0.1,-35.09835725,0.97615626
599f00c54d25e800012fc9a6,16,0,2024-02-27T09:24:18.112Z,french_897.wav,0,poule,992,42,5,5,français,Male,2,0.2,-7.90226738,0.33556547
599f00c54d25e800012fc9a6,16,0,2024-02-27T09:24:18.112Z,french_897.wav,0,poule,992,42,5,5,français,Male,3,0.25666667,34.22753828,0.12618193
599f00c54d25e800012fc9a6,17,0,2024-02-27T09:24:18.112Z,french_337.wav,0,poule,695,42,5,5,français,Male,0,0.0,-97.64468947,0.15620351
599f00c54d25e800012fc9a6,17,0,2024-02-27T09:24:18.112Z,french_337.wav,0,poule,695,42,5,5,français,Male,1,0.1,-70.83087303,1.65716961
599f00c54d25e800012fc9a6,17,0,2024-02-27T09:24:18.112Z,french_337.wav,0,poule,695,42,5,5,français,Male,2,0.2,-48.67995381,0.82507575
599f00c54d25e800012fc9a6,17,0,2024-02-27T09:24:18.112Z,french_337.wav,0,poule,695,42,5,5,français,Male,3,0.25666667,-82.84031791,0.89595203
599f00c54d25e800012fc9a6,18,0,2024-02-27T09:24:18.112Z,french_514.wav,0,poule,597,42,5,5,français,Male,0,0.0,-99.76210077,0.60226465
599f00c54d25e800012fc9a6,18,0,2024-02-27T09:24:18.112Z,french_514.wav,0,poule,597,42,5,5,français,Male,1,0.1,-57.79872095,0.08785461
599f00c54d25e800012fc9a6,18,0,2024-02-27T09:24:18.112Z,french_514.wav,0,poule,597,42,5,5,français,Male,2,0.2,-51.12304885,1.82353854
599f00c54d25e800012fc9a6,18,0,2024-02-27T09:24:18.112Z,french_514.wav,0,poule,597,42,5,5,français,Male,3,0.25666667,51.53874679,1.77009288
599f00c54d25e800012fc9a6,19,0,2024-02-27T09:24:18.112Z,french_925.wav,0,poule,504,42,5,5,français,Male,0,0.0,-30.51780923,1.09841649
599f00c54d25e800012fc9a6,19,0,2024-02-27T09:24:18.112Z,french_925.wav,0,poule,504,42,5,5,français,Male,1,0.1,35.11933452,0.05099013
599f00c54d25e800012fc9a6,19,0,2024-02-27T09:24:18.112Z,french_925.wav,0,poule,504,42,5,5,français,Male,2,0.2,-97.7648117,1.83429048
599f00c54d25e800012fc9a6,19,0,2024-02-27T09:24:18.112Z,french_925.wav,0,poule,504,42,5,5,français,Male,3,0.25666667,-62.39495561,1.66107303
599f00c54d25e800012fc9a6,20,0,2024-02-27T09:24:18.112Z,french_708.wav,0,poule,491,42,5,5,français,Male,0,0.0,77.88438146,0.30850898
599f00c54d25e800012fc9a6,20,0,2024-02-27T09:24:18.112Z,french_708.wav,0,poule,491,42,5,5,français,Male,1,0.1,-89.66132416,1.49064351
599f00c54d25e800012fc9a6,20,0,2024-02-27T09:24:18.112Z,french_708.wav,0,poule,491,42,5,5,français,Male,2,0.2,66.08375885,1.28629193
599f00c54d25e800012fc9a6,20,0,2024-02-27T09:24:18.112Z,french_708.wav,0,poule,491,42,5,5,français,Male,3,0.25666667,-39.93161414,1.01533724
599f00c54d25e800012fc9a6,21,0,2024-02-27T09:24:18.112Z,french_48.wav,0,poule,387,42,5,5,français,Male,0,0.0,39.79198264,1.78905862
599f00c54d25e800012fc9a6,21,0,2024-02-27T09:24:18.112Z,french_48.wav,0,poule,387,42,5,5,français,Male,1,0.1,66.47948286,1.41226809
599f00c54d25e800012fc9a6,21,0,2024-02-27T09:24:18.112Z,french_48.wav,0,poule,387,42,5,5,français,Male,2,0.2,57.39946228,1.54721415
599f00c54d25e800012fc9a6,21,0,2024-02-27T09:24:18.112Z,french_48.wav,0,poule,387,42,5,5,français,Male,3,0.25666667,-39.27972342,0.33574946
599f00c54d25e800012fc9a6,22,0,2024-02-27T09:24:18.112Z,french_543.wav,0,poule,1401,42,5,5,français,Male,0,0.0,99.95964938,0.10365101
599f00c54d25e800012fc9a6,22,0,2024-02-27T09:24:18.112Z,french_543.wav,0,poule,1401,42,5,5,français,Male,1,0.1,62.1224346,1.02026934
599f00c54d25e800012fc9a6,22,0,2024-02-27T09:24:18.112Z,french_543.wav,0,poule,1401,42,5,5,français,Male,2,0.2,-10.06540024,0.56488883
599f00c54d25e800012fc9a6,22,0,2024-02-27T09:24:18.112Z,french_543.wav,0,poule,1401,42,5,5,français,Male,3,0.25666667,-5.35888672,0.3884986
599f00c54d25e800012fc9a6,23,0,2024-02-27T09:24:18.112Z,french_828.wav,0,poule,586,42,5,5,français,Male,0,0.0,-2.7154125,0.72553522
599f00c54d25e800012fc9a6,23,0,2024-02-27T09:24:18.112Z,french_828.wav,0,poule,586,42,5,5,français,Male,1,0.1,-36.83814983,1.24313396
599f00c54d25e800012fc9a6,23,0,2024-02-27T09:24:18.112Z,french_828.wav,0,poule,586,42,5,5,français,Male,2,0.2,-50.98592502,0.62544862
599f00c54d25e800012fc9a6,23,0,2024-02-27T09:24:18.112Z,french_828.wav,0,poule,586,42,5,5,français,Male,3,0.25666667,-48.36073317,1.19233037
599f00c54d25e800012fc9a6,24,0,2024-02-27T09:24:18.112Z,french_76.wav,0,poule,589,42,5,5,français,Male,0,0.0,34.97070553,0.55167233
599f00c54d25e800012fc9a6,24,0,2024-02-27T09:24:18.112Z,french_76.wav,0,poule,589,42,5,5,français,Male,1,0.1,46.59279974,0.47394225
599f00c54d25e800012fc9a6,24,0,2024-02-27T09:24:18.112Z,french_76.wav,0,poule,589,42,5,5,français,Male,2,0.2,69.89439798,0.76682402
599f00c54d25e800012fc9a6,24,0,2024-02-27T09:24:18.112Z,french_76.wav,0,poule,589,42,5,5,français,Male,3,0.25666667,4.40224836,1.69716011
599f00c54d25e800012fc9a6,25,0,2024-02-27T09:24:18.112Z,french_148.wav,0,poule,408,42,5,5,français,Male,0,0.0,-65.76338754,1.63378801
599f00c54d25e800012fc9a6,25,0,2024-02-27T09:24:18.112Z,french_148.wav,0,poule,408,42,5,5,français,Male,1,0.1,-45.02607009,0.19427674
599f00c54d25e800012fc9a6,25,0,2024-02-27T09:24:18.112Z,french_148.wav,0,poule,408,42,5,5,français,Male,2,0.2,-4.18875901,1.20463049
599f00c54d25e800012fc9a6,25,0,2024-02-27T09:24:18.112Z,french_148.wav,0,poule,408,42,5,5,français,Male,3,0.25666667,85.40607693,0.17184116
599f00c54d25e800012fc9a6,26,0,2024-02-27T09:24:18.112Z,french_710.wav,0,poule,304,42,5,5,français,Male,0,0.0,-54.00258077,0.87889336
599f00c54d25e800012fc9a6,26,0,2024-02-27T09:24:18.112Z,french_710.wav,0,poule,304,42,5,5,français,Male,1,0.1,34.45486491,0.7692559
599f00c54d25e800012fc9a6,26,0,2024-02-27T09:24:18.112Z,french_710.wav,0,poule,304,42,5,5,français,Male,2,0.2,63.8215693,0.4253567
599f00c54d25e800012fc9a6,26,0,2024-02-27T09:24:18.112Z,french_710.wav,0,poule,304,42,5,5,français,Male,3,0.25666667,15.83931319,0.40649008
599f00c54d25e800012fc9a6,27,0,2024-02-27T09:24:18.112Z,french_142.wav,0,poule,276,42,5,5,français,Male,0,0.0,-47.01050856,0.88751265
599f00c54d25e800012fc9a6,27,0,2024-02-27T09:24:18.112Z,french_142.wav,0,poule,276,42,5,5,français,Male,1,0.1,44.85636852,1.13664387
599f00c54d25e800012fc9a6,27,0,2024-02-27T09:24:18.112Z,french_142.wav,0,poule,276,42,5,5,français,Male,2,0.2,82.74517116,0.91175928
599f00c54d25e800012fc9a6,27,0,2024-02-27T09:24:18.112Z,french_142.wav,0,poule,276,42,5,5,français,Male,3,0.25666667,-74.59675421,0.66352734
599f00c54d25e800012fc9a6,28,0,2024-02-27T09:24:18.112Z,french_187.wav,0,poule,294,42,5,5,français,Male,0,0.0,-18.61743148,0.79177474
599f00c54d25e800012fc9a6,28,0,2024-02-27T09:24:18.112Z,french_187.wav,0,poule,294,42,5,5,français,Male,1,0.1,27.93687652,0.90472294
599f00c54d25e800012fc9a6,28,0,2024-02-27T09:24:18.112Z,french_187.wav,0,poule,294,42,5,5,français,Male,2,0.2,6.26647606,1.3885115
599f00c54d25e800012fc9a6,28,0,2024-02-27T09:24:18.112Z,french_187.wav,0,poule,294,42,5,5,français,Male,3,0.25666667,58.88972832,1.88547829
599f00c54d25e800012fc9a6,29,0,2024-02-27T09:24:18.112Z,french_236.wav,0,poule,159,42,5,5,français,Male,0,0.0,25.84118528,0.50094641
599f00c54d25e800012fc9a6,29,0,2024-02-27T09:24:18.112Z,french_236.wav,0,poule,159,42,5,5,français,Male,1,0.1,-8.91572412,0.84977658
599f00c54d25e800012fc9a6,29,0,2024-02-27T09:24:18.112Z,french_236.wav,0,poule,159,42,5,5,français,Male,2,0.2,11.24728016,1.88634356
599f00c54d25e800012fc9a6,29,0,2024-02-27T09:24:18.112Z,french_236.wav,0,poule,159,42,5,5,français,Male,3,0.25666667,27.02911702,1.9832527
599f00c54d25e800012fc9a6,30,0,2024-02-27T09:24:18.112Z,french_698.wav,0,poule,186,42,5,5,français,Male,0,0.0,77.87531809,1.86418809
599f00c54d25e800012fc9a6,30,0,2024-02-27T09:24:18.112Z,french_698.wav,0,poule,186,42,5,5,français,Male,1,0.1,-26.89699032,0.30357323
599f00c54d25e800012fc9a6,30,0,2024-02-27T09:24:18.112Z,french_698.wav,0,poule,186,42,5,5,français,Male,2,0.2,-54.93316964,1.97458381
599f00c54d25e800012fc9a6,30,0,2024-02-27T09:24:18.112Z,french_698.wav,0,poule,186,42,5,5,français,Male,3,0.25666667,-94.94644501,1.01877906
599f00c54d25e800012fc9a6,31,0,2024-02-27T09:24:18.112Z,french_269.wav,0,poule,1464,42,5,5,français,Male,0,0.0,34.85044548,0.000617924031
599f00c54d25e800012fc9a6,31,0,2024-02-27T09:24:18.112Z,french_269.wav,0,poule,1464,42,5,5,français,Male,1,0.1,47.51511781,1.05540646
599f00c54d25e800012fc9a6,31,0,2024-02-27T09:24:18.112Z,french_269.wav,0,poule,1464,42,5,5,français,Male,2,0.2,34.15302515,0.984234213
599f00c54d25e800012fc9a6,31,0,2024-02-27T09:24:18.112Z,french_269.wav,0,poule,1464,42,5,5,français,Male,3,0.25666667,-55.0259295,0.845106618
599f00c54d25e800012fc9a6,32,0,2024-02-27T09:24:18.112Z,french_838.wav,0,poule,609,42,5,5,français,Male,0,0.0,-11.78713781,0.60255839
599f00c54d25e800012fc9a6,32,0,2024-02-27T09:24:18.112Z,french_838.wav,0,poule,609,42,5,5,français,Male,1,0.1,70.11555366,0.34480099
599f00c54d25e800012fc9a6,32,0,2024-02-27T09:24:18.112Z,french_838.wav,0,poule,609,42,5,5,français,Male,2,0.2,60.74924786,1.0262929
599f00c54d25e800012fc9a6,32,0,2024-02-27T09:24:18.112Z,french_838.wav,0,poule,609,42,5,5,français,Male,3,0.25666667,37.89669618,0.88829748
599f00c54d25e800012fc9a6,33,0,2024-02-27T09:24:18.112Z,french_77.wav,0,poule,211,42,5,5,français,Male,0,0.0,-38.97456477,1.51906971
599f00c54d25e800012fc9a6,33,0,2024-02-27T09:24:18.112Z,french_77.wav,0,poule,211,42,5,5,français,Male,1,0.1,-27.77573133,1.43123518
599f00c54d25e800012fc9a6,33,0,2024-02-27T09:24:18.112Z,french_77.wav,0,poule,211,42,5,5,français,Male,2,0.2,62.31685549,1.04030098
599f00c54d25e800012fc9a6,33,0,2024-02-27T09:24:18.112Z,french_77.wav,0,poule,211,42,5,5,français,Male,3,0.25666667,13.7751853,1.45792424
599f00c54d25e800012fc9a6,34,0,2024-02-27T09:24:18.112Z,french_977.wav,0,poule,151,42,5,5,français,Male,0,0.0,-23.34946859,1.58788712
599f00c54d25e800012fc9a6,34,0,2024-02-27T09:24:18.112Z,french_977.wav,0,poule,151,42,5,5,français,Male,1,0.1,-74.17160997,0.25032328
599f00c54d25e800012fc9a6,34,0,2024-02-27T09:24:18.112Z,french_977.wav,0,poule,151,42,5,5,français,Male,2,0.2,31.43852713,0.90752219
599f00c54d25e800012fc9a6,34,0,2024-02-27T09:24:18.112Z,french_977.wav,0,poule,151,42,5,5,français,Male,3,0.25666667,-10.29160018,1.52460946
599f00c54d25e800012fc9a6,35,0,2024-02-27T09:24:18.112Z,french_766.wav,0,poule,310,42,5,5,français,Male,0,0.0,91.85829661,0.12079341
599f00c54d25e800012fc9a6,35,0,2024-02-27T09:24:18.112Z,french_766.wav,0,poule,310,42,5,5,français,Male,1,0.1,29.32583948,0.61287095
599f00c54d25e800012fc9a6,35,0,2024-02-27T09:24:18.112Z,french_766.wav,0,poule,310,42,5,5,français,Male,2,0.2,71.77245069,1.071897
599f00c54d25e800012fc9a6,35,0,2024-02-27T09:24:18.112Z,french_766.wav,0,poule,310,42,5,5,français,Male,3,0.25666667,28.53871253,0.29005596
599f00c54d25e800012fc9a6,36,0,2024-02-27T09:24:18.112Z,french_159.wav,0,poule,698,42,5,5,français,Male,0,0.0,-35.81772681,1.09204322
599f00c54d25e800012fc9a6,36,0,2024-02-27T09:24:18.112Z,french_159.wav,0,poule,698,42,5,5,français,Male,1,0.1,-81.24007344,1.04236488
599f00c54d25e800012fc9a6,36,0,2024-02-27T09:24:18.112Z,french_159.wav,0,poule,698,42,5,5,français,Male,2,0.2,-76.66667718,0.27370424
599f00c54d25e800012fc9a6,36,0,2024-02-27T09:24:18.112Z,french_159.wav,0,poule,698,42,5,5,français,Male,3,0.25666667,-12.73742482,0.41375192
599f00c54d25e800012fc9a6,37,0,2024-02-27T09:24:18.112Z,french_994.wav,0,poule,434,42,5,5,français,Male,0,0.0,-39.66278541,0.39681658
599f00c54d25e800012fc9a6,37,0,2024-02-27T09:24:18.112Z,french_994.wav,0,poule,434,42,5,5,français,Male,1,0.1,66.70535545,1.6498105
599f00c54d25e800012fc9a6,37,0,2024-02-27T09:24:18.112Z,french_994.wav,0,poule,434,42,5,5,français,Male,2,0.2,-87.43703712,1.48803434
599f00c54d25e800012fc9a6,37,0,2024-02-27T09:24:18.112Z,french_994.wav,0,poule,434,42,5,5,français,Male,3,0.25666667,-41.83233866,1.54058484
599f00c54d25e800012fc9a6,38,0,2024-02-27T09:24:18.112Z,french_241.wav,0,poule,469,42,5,5,français,Male,0,0.0,89.40240056,1.53101086
599f00c54d25e800012fc9a6,38,0,2024-02-27T09:24:18.112Z,french_241.wav,0,poule,469,42,5,5,français,Male,1,0.1,40.19017079,0.22293869
599f00c54d25e800012fc9a6,38,0,2024-02-27T09:24:18.112Z,french_241.wav,0,poule,469,42,5,5,français,Male,2,0.2,6.95264839,0.66477428
599f00c54d25e800012fc9a6,38,0,2024-02-27T09:24:18.112Z,french_241.wav,0,poule,469,42,5,5,français,Male,3,0.25666667,60.0147698,1.1640228
599f00c54d25e800012fc9a6,39,0,2024-02-27T09:24:18.112Z,french_62.wav,0,poule,162,42,5,5,français,Male,0,0.0,-14.31975686,0.1654928
599f00c54d25e800012fc9a6,39,0,2024-02-27T09:24:18.112Z,french_62.wav,0,poule,162,42,5,5,français,Male,1,0.1,44.56193131,0.95189119
599f00c54d25e800012fc9a6,39,0,2024-02-27T09:24:18.112Z,french_62.wav,0,poule,162,42,5,5,français,Male,2,0.2,-86.7672378,0.13775192
599f00c54d25e800012fc9a6,39,0,2024-02-27T09:24:18.112Z,french_62.wav,0,poule,162,42,5,5,français,Male,3,0.25666667,88.73328565,1.69441392
599f00c54d25e800012fc9a6,40,0,2024-02-27T09:24:18.112Z,french_185.wav,0,poule,421,42,5,5,français,Male,0,0.0,61.04894301,1.56575395
599f00c54d25e800012fc9a6,40,0,2024-02-27T09:24:18.112Z,french_185.wav,0,poule,421,42,5,5,français,Male,1,0.1,4.55457692,1.97883698
599f00c54d25e800012fc9a6,40,0,2024-02-27T09:24:18.112Z,french_185.wav,0,poule,421,42,5,5,français,Male,2,0.2,51.77529612,1.92093932
599f00c54d25e800012fc9a6,40,0,2024-02-27T09:24:18.112Z,french_185.wav,0,poule,421,42,5,5,français,Male,3,0.25666667,-22.06501589,0.68389876
599f00c54d25e800012fc9a6,41,0,2024-02-27T09:24:18.112Z,french_712.wav,0,poule,500,42,5,5,français,Male,0,0.0,-3.12485416,1.03174297
599f00c54d25e800012fc9a6,41,0,2024-02-27T09:24:18.112Z,french_712.wav,0,poule,500,42,5,5,français,Male,1,0.1,-57.65062989,0.08357112
599f00c54d25e800012fc9a6,41,0,2024-02-27T09:24:18.112Z,french_712.wav,0,poule,500,42,5,5,français,Male,2,0.2,-16.00980978,0.04422576
599f00c54d25e800012fc9a6,41,0,2024-02-27T09:24:18.112Z,french_712.wav,0,poule,500,42,5,5,français,Male,3,0.25666667,99.38372731,1.3735066
599f00c54d25e800012fc9a6,42,0,2024-02-27T09:24:18.112Z,french_222.wav,0,poule,482,42,5,5,français,Male,0,0.0,-98.35523197,0.13834953
599f00c54d25e800012fc9a6,42,0,2024-02-27T09:24:18.112Z,french_222.wav,0,poule,482,42,5,5,français,Male,1,0.1,61.03285987,0.55930016
599f00c54d25e800012fc9a6,42,0,2024-02-27T09:24:18.112Z,french_222.wav,0,poule,482,42,5,5,français,Male,2,0.2,-86.01422932,0.40370114
599f00c54d25e800012fc9a6,42,0,2024-02-27T09:24:18.112Z,french_222.wav,0,poule,482,42,5,5,français,Male,3,0.25666667,61.26386047,0.21495758
599f00c54d25e800012fc9a6,43,0,2024-02-27T09:24:18.112Z,french_779.wav,0,poule,260,42,5,5,français,Male,0,0.0,-23.73686582,0.65858767
599f00c54d25e800012fc9a6,43,0,2024-02-27T09:24:18.112Z,french_779.wav,0,poule,260,42,5,5,français,Male,1,0.1,96.23962081,1.55580865
599f00c54d25e800012fc9a6,43,0,2024-02-27T09:24:18.112Z,french_779.wav,0,poule,260,42,5,5,français,Male,2,0.2,19.26430851,1.22244229
599f00c54d25e800012fc9a6,43,0,2024-02-27T09:24:18.112Z,french_779.wav,0,poule,260,42,5,5,français,Male,3,0.25666667,-72.92378626,1.83333034
599f00c54d25e800012fc9a6,44,0,2024-02-27T09:24:18.112Z,french_163.wav,0,poule,914,42,5,5,français,Male,0,0.0,95.00435891,1.26837246
599f00c54d25e800012fc9a6,44,0,2024-02-27T09:24:18.112Z,french_163.wav,0,poule,914,42,5,5,français,Male,1,0.1,41.67922454,0.25754486
599f00c54d25e800012fc9a6,44,0,2024-02-27T09:24:18.112Z,french_163.wav,0,poule,914,42,5,5,français,Male,2,0.2,-79.43338234,1.96804031
599f00c54d25e800012fc9a6,44,0,2024-02-27T09:24:18.112Z,french_163.wav,0,poule,914,42,5,5,français,Male,3,0.25666667,-47.45672342,0.46721947
599f00c54d25e800012fc9a6,45,0,2024-02-27T09:24:18.112Z,french_118.wav,0,poule,327,42,5,5,français,Male,0,0.0,26.93316006,1.47067426
599f00c54d25e800012fc9a6,45,0,2024-02-27T09:24:18.112Z,french_118.wav,0,poule,327,42,5,5,français,Male,1,0.1,-22.92967869,1.58231537
599f00c54d25e800012fc9a6,45,0,2024-02-27T09:24:18.112Z,french_118.wav,0,poule,327,42,5,5,français,Male,2,0.2,-61.93287208,1.01494319
599f00c54d25e800012fc9a6,45,0,2024-02-27T09:24:18.112Z,french_118.wav,0,poule,327,42,5,5,français,Male,3,0.25666667,-97.08418949,0.71977579
599f00c54d25e800012fc9a6,46,0,2024-02-27T09:24:18.112Z,french_743.wav,0,poule,208,42,5,5,français,Male,0,0.0,-33.29442342,0.17876133
599f00c54d25e800012fc9a6,46,0,2024-02-27T09:24:18.112Z,french_743.wav,0,poule,208,42,5,5,français,Male,1,0.1,66.78729562,1.55990879
599f00c54d25e800012fc9a6,46,0,2024-02-27T09:24:18.112Z,french_743.wav,0,poule,208,42,5,5,français,Male,2,0.2,-0.09457626,1.00824872
599f00c54d25e800012fc9a6,46,0,2024-02-27T09:24:18.112Z,french_743.wav,0,poule,208,42,5,5,français,Male,3,0.25666667,-6.43111547,1.50563658
599f00c54d25e800012fc9a6,47,0,2024-02-27T09:24:18.112Z,french_503.wav,0,poule,169,42,5,5,français,Male,0,0.0,-70.57406247,0.43346158
599f00c54d25e800012fc9a6,47,0,2024-02-27T09:24:18.112Z,french_503.wav,0,poule,169,42,5,5,français,Male,1,0.1,-50.28029143,1.6767429
599f00c54d25e800012fc9a6,47,0,2024-02-27T09:24:18.112Z,french_503.wav,0,poule,169,42,5,5,français,Male,2,0.2,-1.92788211,0.59100625
599f00c54d25e800012fc9a6,47,0,2024-02-27T09:24:18.112Z,french_503.wav,0,poule,169,42,5,5,français,Male,3,0.25666667,82.92590596,1.4727109
599f00c54d25e800012fc9a6,48,0,2024-02-27T09:24:18.112Z,french_747.wav,0,poule,335,42,5,5,français,Male,0,0.0,81.67289695,0.03581997
599f00c54d25e800012fc9a6,48,0,2024-02-27T09:24:18.112Z,french_747.wav,0,poule,335,42,5,5,français,Male,1,0.1,-95.51692527,0.40356434
599f00c54d25e800012fc9a6,48,0,2024-02-27T09:24:18.112Z,french_747.wav,0,poule,335,42,5,5,français,Male,2,0.2,8.63144179,0.58773385
599f00c54d25e800012fc9a6,48,0,2024-02-27T09:24:18.112Z,french_747.wav,0,poule,335,42,5,5,français,Male,3,0.25666667,-85.56554801,1.10376778
599f00c54d25e800012fc9a6,49,0,2024-02-27T09:24:18.112Z,french_947.wav,0,pull,882,42,5,5,français,Male,0,0.0,-44.48466948,0.06372519
599f00c54d25e800012fc9a6,49,0,2024-02-27T09:24:18.112Z,french_947.wav,0,pull,882,42,5,5,français,Male,1,0.1,21.49635037,0.1513717
599f00c54d25e800012fc9a6,49,0,2024-02-27T09:24:18.112Z,french_947.wav,0,pull,882,42,5,5,français,Male,2,0.2,52.91188767,1.07040488
599f00c54d25e800012fc9a6,49,0,2024-02-27T09:24:18.112Z,french_947.wav,0,pull,882,42,5,5,français,Male,3,0.25666667,23.38430508,1.60411559
599f00c54d25e800012fc9a6,50,1,2024-02-27T09:24:18.112Z,french_437.wav,0,pull,1584,42,5,5,français,Male,0,0.0,59.70067771,0.22659206
599f00c54d25e800012fc9a6,50,1,2024-02-27T09:24:18.112Z,french_437.wav,0,pull,1584,42,5,5,français,Male,1,0.1,78.61233767,0.85429053
599f00c54d25e800012fc9a6,50,1,2024-02-27T09:24:18.112Z,french_437.wav,0,pull,1584,42,5,5,français,Male,2,0.2,76.18154157,1.36297282
599f00c54d25e800012fc9a6,50,1,2024-02-27T09:24:18.112Z,french_437.wav,0,pull,1584,42,5,5,français,Male,3,0.25666667,-54.28538078,1.46039745
599f00c54d25e800012fc9a6,51,1,2024-02-27T09:24:18.112Z,french_722.wav,0,pull,511,42,5,5,français,Male,0,0.0,60.56599831,1.86075077
599f00c54d25e800012fc9a6,51,1,2024-02-27T09:24:18.112Z,french_722.wav,0,pull,511,42,5,5,français,Male,1,0.1,-62.73703536,0.80738175
599f00c54d25e800012fc9a6,51,1,2024-02-27T09:24:18.112Z,french_722.wav,0,pull,511,42,5,5,français,Male,2,0.2,-66.13157344,0.80798992
599f00c54d25e800012fc9a6,51,1,2024-02-27T09:24:18.112Z,french_722.wav,0,pull,511,42,5,5,français,Male,3,0.25666667,59.05774632,0.27445487
599f00c54d25e800012fc9a6,52,1,2024-02-27T09:24:18.112Z,french_836.wav,0,poule,575,42,5,5,français,Male,0,0.0,40.23641464,0.42377088
599f00c54d25e800012fc9a6,52,1,2024-02-27T09:24:18.112Z,french_836.wav,0,poule,575,42,5,5,français,Male,1,0.1,53.79535187,0.63943013
599f00c54d25e800012fc9a6,52,1,2024-02-27T09:24:18.112Z,french_836.wav,0,poule,575,42,5,5,français,Male,2,0.2,-4.0789246,1.19242466
599f00c54d25e800012fc9a6,52,1,2024-02-27T09:24:18.112Z,french_836.wav,0,poule,575,42,5,5,français,Male,3,0.25666667,3.8536211,1.488673
599f00c54d25e800012fc9a6,53,1,2024-02-27T09:24:18.112Z,french_562.wav,0,poule,494,42,5,5,français,Male,0,0.0,12.26814589,1.17834032
599f00c54d25e800012fc9a6,53,1,2024-02-27T09:24:18.112Z,french_562.wav,0,poule,494,42,5,5,français,Male,1,0.1,-17.58329492,1.15702499
599f00c54d25e800012fc9a6,53,1,2024-02-27T09:24:18.112Z,french_562.wav,0,poule,494,42,5,5,français,Male,2,0.2,-20.00100575,1.2863232
599f00c54d25e800012fc9a6,53,1,2024-02-27T09:24:18.112Z,french_562.wav,0,poule,494,42,5,5,français,Male,3,0.25666667,-50.75971007,0.02470224
599f00c54d25e800012fc9a6,54,1,2024-02-27T09:24:18.112Z,french_280.wav,0,poule,437,42,5,5,français,Male,0,0.0,-67.41100242,0.87165921
599f00c54d25e800012fc9a6,54,1,2024-02-27T09:24:18.112Z,french_280.wav,0,poule,437,42,5,5,français,Male,1,0.1,-0.65291527,0.40210454
599f00c54d25e800012fc9a6,54,1,2024-02-27T09:24:18.112Z,french_280.wav,0,poule,437,42,5,5,français,Male,2,0.2,-45.07946214,0.8560963
599f00c54d25e800012fc9a6,54,1,2024-02-27T09:24:18.112Z,french_280.wav,0,poule,437,42,5,5,français,Male,3,0.25666667,-37.24252155,1.09108247
599f00c54d25e800012fc9a6,55,1,2024-02-27T09:24:18.112Z,french_463.wav,0,poule,407,42,5,5,français,Male,0,0.0,-19.30652055,0.66062429
599f00c54d25e800012fc9a6,55,1,2024-02-27T09:24:18.112Z,french_463.wav,0,poule,407,42,5,5,français,Male,1,0.1,40.7979064,1.38698103
599f00c54d25e800012fc9a6,55,1,2024-02-27T09:24:18.112Z,french_463.wav,0,poule,407,42,5,5,français,Male,2,0.2,73.8964325,0.77621561
599f00c54d25e800012fc9a6,55,1,2024-02-27T09:24:18.112Z,french_463.wav,0,poule,407,42,5,5,français,Male,3,0.25666667,-55.7146218,0.65457598
599f00c54d25e800012fc9a6,56,1,2024-02-27T09:24:18.112Z,french_52.wav,0,poule,434,42,5,5,français,Male,0,0.0,77.15950351,1.06345864
599f00c54d25e800012fc9a6,56,1,2024-02-27T09:24:18.112Z,french_52.wav,0,poule,434,42,5,5,français,Male,1,0.1,66.43146777,1.73071791
599f00c54d25e800012fc9a6,56,1,2024-02-27T09:24:18.112Z,french_52.wav,0,poule,434,42,5,5,français,Male,2,0.2,76.85444305,1.08790246
599f00c54d25e800012fc9a6,56,1,2024-02-27T09:24:18.112Z,french_52.wav,0,poule,434,42,5,5,français,Male,3,0.25666667,-69.48513432,0.32336701
599f00c54d25e800012fc9a6,57,1,2024-02-27T09:24:18.112Z,french_967.wav,0,pull,953,42,5,5,français,Male,0,0.0,79.70451557,1.26694721
599f00c54d25e800012fc9a6,57,1,2024-02-27T09:24:18.112Z,french_967.wav,0,pull,953,42,5,5,français,Male,1,0.1,-96.60134716,0.15349476
599f00c54d25e800012fc9a6,57,1,2024-02-27T09:24:18.112Z,french_967.wav,0,pull,953,42,5,5,français,Male,2,0.2,12.1279289,0.99393875
599f00c54d25e800012fc9a6,57,1,2024-02-27T09:24:18.112Z,french_967.wav,0,pull,953,42,5,5,français,Male,3,0.25666667,-44.3997303,1.32782977
599f00c54d25e800012fc9a6,58,1,2024-02-27T09:24:18.112Z,french_732.wav,0,poule,723,42,5,5,français,Male,0,0.0,-82.9393053,0.90840431
599f00c54d25e800012fc9a6,58,1,2024-02-27T09:24:18.112Z,french_732.wav,0,poule,723,42,5,5,français,Male,1,0.1,-79.22735873,0.47468339
599f00c54d25e800012fc9a6,58,1,2024-02-27T09:24:18.112Z,french_732.wav,0,poule,723,42,5,5,français,Male,2,0.2,-67.09796721,1.61768905
599f00c54d25e800012fc9a6,58,1,2024-02-27T09:24:18.112Z,french_732.wav,0,poule,723,42,5,5,français,Male,3,0.25666667,35.15971491,1.44596926
599f00c54d25e800012fc9a6,59,1,2024-02-27T09:24:18.112Z,french_837.wav,0,poule,999,42,5,5,français,Male,0,0.0,12.86528577,1.70928146
599f00c54d25e800012fc9a6,59,1,2024-02-27T09:24:18.112Z,french_837.wav,0,poule,999,42,5,5,français,Male,1,0.1,80.83337189,0.14925978
599f00c54d25e800012fc9a6,59,1,2024-02-27T09:24:18.112Z,french_837.wav,0,poule,999,42,5,5,français,Male,2,0.2,-88.94110826,0.83215091
599f00c54d25e800012fc9a6,59,1,2024-02-27T09:24:18.112Z,french_837.wav,0,poule,999,42,5,5,français,Male,3,0.25666667,32.10555955,1.23671449
599f00c54d25e800012fc9a6,60,1,2024-02-27T09:24:18.112Z,french_632.wav,0,poule,873,42,5,5,français,Male,0,0.0,-75.14768165,1.61991752
599f00c54d25e800012fc9a6,60,1,2024-02-27T09:24:18.112Z,french_632.wav,0,poule,873,42,5,5,français,Male,1,0.1,-2.61560916,1.85762338
599f00c54d25e800012fc9a6,60,1,2024-02-27T09:24:18.112Z,french_632.wav,0,poule,873,42,5,5,français,Male,2,0.2,-59.30318173,1.4379908
599f00c54d25e800012fc9a6,60,1,2024-02-27T09:24:18.112Z,french_632.wav,0,poule,873,42,5,5,français,Male,3,0.25666667,-18.46762736,1.77571767
599f00c54d25e800012fc9a6,61,1,2024-02-27T09:24:18.112Z,french_523.wav,0,poule,299,42,5,5,français,Male,0,0.0,-20.54401218,1.01178449
599f00c54d25e800012fc9a6,61,1,2024-02-27T09:24:18.112Z,french_523.wav,0,poule,299,42,5,5,français,Male,1,0.1,-64.61887171,1.79283511
599f00c54d25e800012fc9a6,61,1,2024-02-27T09:24:18.112Z,french_523.wav,0,poule,299,42,5,5,français,Male,2,0.2,-56.67652055,0.92711934
599f00c54d25e800012fc9a6,61,1,2024-02-27T09:24:18.112Z,french_523.wav,0,poule,299,42,5,5,français,Male,3,0.25666667,-29.90055738,1.0186138
599f00c54d25e800012fc9a6,62,1,2024-02-27T09:24:18.112Z,french_36.wav,0,poule,410,42,5,5,français,Male,0,0.0,97.14143801,0.84704198
599f00c54d25e800012fc9a6,62,1,2024-02-27T09:24:18.112Z,french_36.wav,0,poule,410,42,5,5,français,Male,1,0.1,96.24936774,1.47086473
599f00c54d25e800012fc9a6,62,1,2024-02-27T09:24:18.112Z,french_36.wav,0,poule,410,42,5,5,français,Male,2,0.2,69.49703902,1.29858496
599f00c54d25e800012fc9a6,62,1,2024-02-27T09:24:18.112Z,french_36.wav,0,poule,410,42,5,5,français,Male,3,0.25666667,-77.37121036,1.24445776
599f00c54d25e800012fc9a6,63,1,2024-02-27T09:24:18.112Z,french_631.wav,0,poule,465,42,5,5,français,Male,0,0.0,87.50143958,0.46380881
599f00c54d25e800012fc9a6,63,1,2024-02-27T09:24:18.112Z,french_631.wav,0,poule,465,42,5,5,français,Male,1,0.1,43.81698528,0.9935464
599f00c54d25e800012fc9a6,63,1,2024-02-27T09:24:18.112Z,french_631.wav,0,poule,465,42,5,5,français,Male,2,0.2,97.72878597,1.55852459
599f00c54d25e800012fc9a6,63,1,2024-02-27T09:24:18.112Z,french_631.wav,0,poule,465,42,5,5,français,Male,3,0.25666667,25.13380659,0.71365297
599f00c54d25e800012fc9a6,64,1,2024-02-27T09:24:18.112Z,french_429.wav,0,poule,306,42,5,5,français,Male,0,0.0,-86.61428582,0.48550144
599f00c54d25e800012fc9a6,64,1,2024-02-27T09:24:18.112Z,french_429.wav,0,poule,306,42,5,5,français,Male,1,0.1,-42.15720505,1.43221201
599f00c54d25e800012fc9a6,64,1,2024-02-27T09:24:18.112Z,french_429.wav,0,poule,306,42,5,5,français,Male,2,0.2,57.81850322,1.77393014
599f00c54d25e800012fc9a6,64,1,2024-02-27T09:24:18.112Z,french_429.wav,0,poule,306,42,5,5,français,Male,3,0.25666667,56.8864302,0.85506946
599f00c54d25e800012fc9a6,65,1,2024-02-27T09:24:18.112Z,french_493.wav,0,poule,402,42,5,5,français,Male,0,0.0,-68.32294441,0.52835731
599f00c54d25e800012fc9a6,65,1,2024-02-27T09:24:18.112Z,french_493.wav,0,poule,402,42,5,5,français,Male,1,0.1,-10.78892258,0.49612748
599f00c54d25e800012fc9a6,65,1,2024-02-27T09:24:18.112Z,french_493.wav,0,poule,402,42,5,5,français,Male,2,0.2,91.72278204,1.46473376
599f00c54d25e800012fc9a6,65,1,2024-02-27T09:24:18.112Z,french_493.wav,0,poule,402,42,5,5,français,Male,3,0.25666667,-45.09260027,1.2872874
599f00c54d25e800012fc9a6,66,1,2024-02-27T09:24:18.112Z,french_718.wav,0,poule,424,42,5,5,français,Male,0,0.0,60.10154263,0.48894908
599f00c54d25e800012fc9a6,66,1,2024-02-27T09:24:18.112Z,french_718.wav,0,poule,424,42,5,5,français,Male,1,0.1,11.66591821,1.65193902
599f00c54d25e800012fc9a6,66,1,2024-02-27T09:24:18.112Z,french_718.wav,0,poule,424,42,5,5,français,Male,2,0.2,18.23831634,1.63024081
599f00c54d25e800012fc9a6,66,1,2024-02-27T09:24:18.112Z,french_718.wav,0,poule,424,42,5,5,français,Male,3,0.25666667,-0.86268038,0.33166429
599f00c54d25e800012fc9a6,67,1,2024-02-27T09:24:18.112Z,french_43.wav,0,poule,256,42,5,5,français,Male,0,0.0,-6.86336629,1.4879687
599f00c54d25e800012fc9a6,67,1,2024-02-27T09:24:18.112Z,french_43.wav,0,poule,256,42,5,5,français,Male,1,0.1,1.3862511,1.50259819
599f00c54d25e800012fc9a6,67,1,2024-02-27T09:24:18.112Z,french_43.wav,0,poule,256,42,5,5,français,Male,2,0.2,-46.66652787,1.37505073
599f00c54d25e800012fc9a6,67,1,2024-02-27T09:24:18.112Z,french_43.wav,0,poule,256,42,5,5,français,Male,3,0.25666667,99.62545591,0.7561706
599f00c54d25e800012fc9a6,68,1,2024-02-27T09:24:18.112Z,french_97.wav,0,pull,651,42,5,5,français,Male,0,0.0,-26.25195718,1.78322942
599f00c54d25e800012fc9a6,68,1,2024-02-27T09:24:18.112Z,french_97.wav,0,pull,651,42,5,5,français,Male,1,0.1,46.36733761,0.61428926
599f00c54d25e800012fc9a6,68,1,2024-02-27T09:24:18.112Z,french_97.wav,0,pull,651,42,5,5,français,Male,2,0.2,-70.05850246,0.23760427
599f00c54d25e800012fc9a6,68,1,2024-02-27T09:24:18.112Z,french_97.wav,0,pull,651,42,5,5,français,Male,3,0.25666667,-12.16166803,0.84541126
599f00c54d25e800012fc9a6,69,1,2024-02-27T09:24:18.112Z,french_786.wav,0,poule,316,42,5,5,français,Male,0,0.0,46.81596915,0.36321177
599f00c54d25e800012fc9a6,69,1,2024-02-27T09:24:18.112Z,french_786.wav,0,poule,316,42,5,5,français,Male,1,0.1,35.10066142,1.24415108
599f00c54d25e800012fc9a6,69,1,2024-02-27T09:24:18.112Z,french_786.wav,0,poule,316,42,5,5,français,Male,2,0.2,15.54537814,1.19760647
599f00c54d25e800012fc9a6,69,1,2024-02-27T09:24:18.112Z,french_786.wav,0,poule,316,42,5,5,français,Male,3,0.25666667,97.25347056,0.79076548
599f00c54d25e800012fc9a6,70,1,2024-02-27T09:24:18.112Z,french_675.wav,0,poule,386,42,5,5,français,Male,0,0.0,-70.79994344,1.47729798
599f00c54d25e800012fc9a6,70,1,2024-02-27T09:24:18.112Z,french_675.wav,0,poule,386,42,5,5,français,Male,1,0.1,-7.59389362,0.30115563
599f00c54d25e800012fc9a6,70,1,2024-02-27T09:24:18.112Z,french_675.wav,0,poule,386,42,5,5,français,Male,2,0.2,-3.58790265,1.39440132
599f00c54d25e800012fc9a6,70,1,2024-02-27T09:24:18.112Z,french_675.wav,0,poule,386,42,5,5,français,Male,3,0.25666667,-30.70883091,1.61039035
599f00c54d25e800012fc9a6,71,1,2024-02-27T09:24:18.112Z,french_504.wav,0,poule,390,42,5,5,français,Male,0,0.0,-0.09953376,1.58426169
599f00c54d25e800012fc9a6,71,1,2024-02-27T09:24:18.112Z,french_504.wav,0,poule,390,42,5,5,français,Male,1,0.1,-56.24331475,0.92396286
599f00c54d25e800012fc9a6,71,1,2024-02-27T09:24:18.112Z,french_504.wav,0,poule,390,42,5,5,français,Male,2,0.2,-79.12350098,0.70640993
599f00c54d25e800012fc9a6,71,1,2024-02-27T09:24:18.112Z,french_504.wav,0,poule,390,42,5,5,français,Male,3,0.25666667,64.25656878,0.80299587
599f00c54d25e800012fc9a6,72,1,2024-02-27T09:24:18.112Z,french_681.wav,0,poule,366,42,5,5,français,Male,0,0.0,-28.020652,0.15084138
599f00c54d25e800012fc9a6,72,1,2024-02-27T09:24:18.112Z,french_681.wav,0,poule,366,42,5,5,français,Male,1,0.1,-7.04160788,1.22079629
599f00c54d25e800012fc9a6,72,1,2024-02-27T09:24:18.112Z,french_681.wav,0,poule,366,42,5,5,français,Male,2,0.2,53.5795515,1.97804896
599f00c54d25e800012fc9a6,72,1,2024-02-27T09:24:18.112Z,french_681.wav,0,poule,366,42,5,5,français,Male,3,0.25666667,-33.12503676,0.44897499
599f00c54d25e800012fc9a6,73,1,2024-02-27T09:24:18.112Z,french_459.wav,0,poule,408,42,5,5,français,Male,0,0.0,4.79398058,1.10654006
599f00c54d25e800012fc9a6,73,1,2024-02-27T09:24:18.112Z,french_459.wav,0,poule,408,42,5,5,français,Male,1,0.1,85.90612859,1.2996969
599f00c54d25e800012fc9a6,73,1,2024-02-27T09:24:18.112Z,french_459.wav,0,poule,408,42,5,5,français,Male,2,0.2,-69.41023595,0.20520219
599f00c54d25e800012fc9a6,73,1,2024-02-27T09:24:18.112Z,french_459.wav,0,poule,408,42,5,5,français,Male,3,0.25666667,-22.07588814,1.17361701
599f00c54d25e800012fc9a6,74,1,2024-02-27T09:24:18.112Z,french_564.wav,0,pull,296,42,5,5,français,Male,0,0.0,-42.85760261,0.14777183
599f00c54d25e800012fc9a6,74,1,2024-02-27T09:24:18.112Z,french_564.wav,0,pull,296,42,5,5,français,Male,1,0.1,78.12316343,1.08229262
599f00c54d25e800012fc9a6,74,1,2024-02-27T09:24:18.112Z,french_564.wav,0,pull,296,42,5,5,français,Male,2,0.2,32.53186734,0.52251513
599f00c54d25e800012fc9a6,74,1,2024-02-27T09:24:18.112Z,french_564.wav,0,pull,296,42,5,5,français,Male,3,0.25666667,60.20924512,1.40255579
599f00c54d25e800012fc9a6,75,1,2024-02-27T09:24:18.112Z,french_68.wav,0,poule,298,42,5,5,français,Male,0,0.0,58.83829029,1.80244508
599f00c54d25e800012fc9a6,75,1,2024-02-27T09:24:18.112Z,french_68.wav,0,poule,298,42,5,5,français,Male,1,0.1,77.59339865,1.3442738
599f00c54d25e800012fc9a6,75,1,2024-02-27T09:24:18.112Z,french_68.wav,0,poule,298,42,5,5,français,Male,2,0.2,-73.88341881,1.16581557
599f00c54d25e800012fc9a6,75,1,2024-02-27T09:24:18.112Z,french_68.wav,0,poule,298,42,5,5,français,Male,3,0.25666667,-24.56901296,0.71132336
599f00c54d25e800012fc9a6,76,1,2024-02-27T09:24:18.112Z,french_135.wav,0,pull,725,42,5,5,français,Male,0,0.0,-14.44114523,1.1198793
599f00c54d25e800012fc9a6,76,1,2024-02-27T09:24:18.112Z,french_135.wav,0,pull,725,42,5,5,français,Male,1,0.1,22.88033262,0.12707755
599f00c54d25e800012fc9a6,76,1,2024-02-27T09:24:18.112Z,french_135.wav,0,pull,725,42,5,5,français,Male,2,0.2,45.87784319,1.72429487
599f00c54d25e800012fc9a6,76,1,2024-02-27T09:24:18.112Z,french_135.wav,0,pull,725,42,5,5,français,Male,3,0.25666667,14.60103067,0.79769027
599f00c54d25e800012fc9a6,77,1,2024-02-27T09:24:18.112Z,french_397.wav,0,poule,273,42,5,5,français,Male,0,0.0,-13.81470081,1.26162917
599f00c54d25e800012fc9a6,77,1,2024-02-27T09:24:18.112Z,french_397.wav,0,poule,273,42,5,5,français,Male,1,0.1,50.38281738,1.19612478
599f00c54d25e800012fc9a6,77,1,2024-02-27T09:24:18.112Z,french_397.wav,0,poule,273,42,5,5,français,Male,2,0.2,50.22980228,1.02842354
599f00c54d25e800012fc9a6,77,1,2024-02-27T09:24:18.112Z,french_397.wav,0,poule,273,42,5,5,français,Male,3,0.25666667,-83.86271009,0.53389444
599f00c54d25e800012fc9a6,78,1,2024-02-27T09:24:18.112Z,french_112.wav,0,poule,280,42,5,5,français,Male,0,0.0,-70.30580716,0.18088618
599f00c54d25e800012fc9a6,78,1,2024-02-27T09:24:18.112Z,french_112.wav,0,poule,280,42,5,5,français,Male,1,0.1,33.64373442,1.43869791
599f00c54d25e800012fc9a6,78,1,2024-02-27T09:24:18.112Z,french_112.wav,0,poule,280,42,5,5,français,Male,2,0.2,26.55830463,0.89230346
599f00c54d25e800012fc9a6,78,1,2024-02-27T09:24:18.112Z,french_112.wav,0,poule,280,42,5,5,français,Male,3,0.25666667,46.16769785,0.14009493
599f00c54d25e800012fc9a6,79,1,2024-02-27T09:24:18.112Z,french_858.wav,0,pull,590,42,5,5,français,Male,0,0.0,-70.8749608,0.88986318
599f00c54d25e800012fc9a6,79,1,2024-02-27T09:24:18.112Z,french_858.wav,0,pull,590,42,5,5,français,Male,1,0.1,-68.92821451,0.34092676
599f00c54d25e800012fc9a6,79,1,2024-02-27T09:24:18.112Z,french_858.wav,0,pull,590,42,5,5,français,Male,2,0.2,48.1063746,0.38776381
599f00c54d25e800012fc9a6,79,1,2024-02-27T09:24:18.112Z,french_858.wav,0,pull,590,42,5,5,français,Male,3,0.25666667,0.98463207,1.26771376
599f00c54d25e800012fc9a6,80,1,2024-02-27T09:24:18.112Z,french_901.wav,0,poule,372,42,5,5,français,Male,0,0.0,-25.19173586,1.14646858
599f00c54d25e800012fc9a6,80,1,2024-02-27T09:24:18.112Z,french_901.wav,0,poule,372,42,5,5,français,Male,1,0.1,-52.79367362,1.72960478
599f00c54d25e800012fc9a6,80,1,2024-02-27T09:24:18.112Z,french_901.wav,0,poule,372,42,5,5,français,Male,2,0.2,31.61264675,1.50121635
599f00c54d25e800012fc9a6,80,1,2024-02-27T09:24:18.112Z,french_901.wav,0,poule,372,42,5,5,français,Male,3,0.25666667,-8.05782551,0.87544333
599f00c54d25e800012fc9a6,81,1,2024-02-27T09:24:18.112Z,french_557.wav,0,poule,254,42,5,5,français,Male,0,0.0,-4.17762648,0.38732741
599f00c54d25e800012fc9a6,81,1,2024-02-27T09:24:18.112Z,french_557.wav,0,poule,254,42,5,5,français,Male,1,0.1,91.9464138,1.58225164
599f00c54d25e800012fc9a6,81,1,2024-02-27T09:24:18.112Z,french_557.wav,0,poule,254,42,5,5,français,Male,2,0.2,-21.05895405,1.02633772
599f00c54d25e800012fc9a6,81,1,2024-02-27T09:24:18.112Z,french_557.wav,0,poule,254,42,5,5,français,Male,3,0.25666667,45.17146044,0.5187484
599f00c54d25e800012fc9a6,82,1,2024-02-27T09:24:18.112Z,french_424.wav,0,poule,305,42,5,5,français,Male,0,0.0,61.39777876,0.24361375
599f00c54d25e800012fc9a6,82,1,2024-02-27T09:24:18.112Z,french_424.wav,0,poule,305,42,5,5,français,Male,1,0.1,-8.76552132,1.04711526
599f00c54d25e800012fc9a6,82,1,2024-02-27T09:24:18.112Z,french_424.wav,0,poule,305,42,5,5,français,Male,2,0.2,33.4280736,1.33335174
599f00c54d25e800012fc9a6,82,1,2024-02-27T09:24:18.112Z,french_424.wav,0,poule,305,42,5,5,français,Male,3,0.25666667,8.6823295,0.59077303
599f00c54d25e800012fc9a6,83,1,2024-02-27T09:24:18.112Z,french_376.wav,0,pull,215,42,5,5,français,Male,0,0.0,-29.78300729,1.32478843
599f00c54d25e800012fc9a6,83,1,2024-02-27T09:24:18.112Z,french_376.wav,0,pull,215,42,5,5,français,Male,1,0.1,-14.6608331,1.46487259
599f00c54d25e800012fc9a6,83,1,2024-02-27T09:24:18.112Z,french_376.wav,0,pull,215,42,5,5,français,Male,2,0.2,93.91149251,1.42207254
599f00c54d25e800012fc9a6,83,1,2024-02-27T09:24:18.112Z,french_376.wav,0,pull,215,42,5,5,français,Male,3,0.25666667,61.08695399,1.23206205
599f00c54d25e800012fc9a6,84,1,2024-02-27T09:24:18.112Z,french_320.wav,0,poule,160,42,5,5,français,Male,0,0.0,-12.08882056,1.76987467
599f00c54d25e800012fc9a6,84,1,2024-02-27T09:24:18.112Z,french_320.wav,0,poule,160,42,5,5,français,Male,1,0.1,-69.15560276,1.70079501
599f00c54d25e800012fc9a6,84,1,2024-02-27T09:24:18.112Z,french_320.wav,0,poule,160,42,5,5,français,Male,2,0.2,33.30000548,0.4524157
599f00c54d25e800012fc9a6,84,1,2024-02-27T09:24:18.112Z,french_320.wav,0,poule,160,42,5,5,français,Male,3,0.25666667,-65.44816773,0.78128465
599f00c54d25e800012fc9a6,85,1,2024-02-27T09:24:18.112Z,french_295.wav,0,poule,180,42,5,5,français,Male,0,0.0,98.71232228,1.58912918
599f00c54d25e800012fc9a6,85,1,2024-02-27T09:24:18.112Z,french_295.wav,0,poule,180,42,5,5,français,Male,1,0.1,19.8777742,0.8460381
599f00c54d25e800012fc9a6,85,1,2024-02-27T09:24:18.112Z,french_295.wav,0,poule,180,42,5,5,français,Male,2,0.2,2.02188034,1.72839065
599f00c54d25e800012fc9a6,85,1,2024-02-27T09:24:18.112Z,french_295.wav,0,poule,180,42,5,5,français,Male,3,0.25666667,-4.73018768,1.75057888
599f00c54d25e800012fc9a6,86,1,2024-02-27T09:24:18.112Z,french_147.wav,0,poule,208,42,5,5,français,Male,0,0.0,-8.88234032,0.56903223
599f00c54d25e800012fc9a6,86,1,2024-02-27T09:24:18.112Z,french_147.wav,0,poule,208,42,5,5,français,Male,1,0.1,-14.76798318,0.94922216
599f00c54d25e800012fc9a6,86,1,2024-02-27T09:24:18.112Z,french_147.wav,0,poule,208,42,5,5,français,Male,2,0.2,-57.87683145,1.80420194
599f00c54d25e800012fc9a6,86,1,2024-02-27T09:24:18.112Z,french_147.wav,0,poule,208,42,5,5,français,Male,3,0.25666667,44.89226386,0.62760473
599f00c54d25e800012fc9a6,87,1,2024-02-27T09:24:18.112Z,french_458.wav,0,pull,210,42,5,5,français,Male,0,0.0,13.7688173,1.1950835
599f00c54d25e800012fc9a6,87,1,2024-02-27T09:24:18.112Z,french_458.wav,0,pull,210,42,5,5,français,Male,1,0.1,19.53863665,0.33129566
599f00c54d25e800012fc9a6,87,1,2024-02-27T09:24:18.112Z,french_458.wav,0,pull,210,42,5,5,français,Male,2,0.2,-90.92797006,0.65773392
599f00c54d25e800012fc9a6,87,1,2024-02-27T09:24:18.112Z,french_458.wav,0,pull,210,42,5,5,français,Male,3,0.25666667,55.23452131,1.54778139
599f00c54d25e800012fc9a6,88,1,2024-02-27T09:24:18.112Z,french_958.wav,0,poule,221,42,5,5,français,Male,0,0.0,70.65905064,0.553928
599f00c54d25e800012fc9a6,88,1,2024-02-27T09:24:18.112Z,french_958.wav,0,poule,221,42,5,5,français,Male,1,0.1,35.26497317,0.45560148
599f00c54d25e800012fc9a6,88,1,2024-02-27T09:24:18.112Z,french_958.wav,0,poule,221,42,5,5,français,Male,2,0.2,64.29920798,1.65592314
599f00c54d25e800012fc9a6,88,1,2024-02-27T09:24:18.112Z,french_958.wav,0,poule,221,42,5,5,français,Male,3,0.25666667,78.52381542,1.53733
599f00c54d25e800012fc9a6,89,1,2024-02-27T09:24:18.112Z,french_115.wav,0,poule,450,42,5,5,français,Male,0,0.0,79.30886426,0.55665137
599f00c54d25e800012fc9a6,89,1,2024-02-27T09:24:18.112Z,french_115.wav,0,poule,450,42,5,5,français,Male,1,0.1,38.64809671,1.15526328
599f00c54d25e800012fc9a6,89,1,2024-02-27T09:24:18.112Z,french_115.wav,0,poule,450,42,5,5,français,Male,2,0.2,24.58912206,1.92727625
599f00c54d25e800012fc9a6,89,1,2024-02-27T09:24:18.112Z,french_115.wav,0,poule,450,42,5,5,français,Male,3,0.25666667,-50.07125558,0.36414304
599f00c54d25e800012fc9a6,90,1,2024-02-27T09:24:18.112Z,french_85.wav,0,pull,540,42,5,5,français,Male,0,0.0,8.05629124,0.15740805
599f00c54d25e800012fc9a6,90,1,2024-02-27T09:24:18.112Z,french_85.wav,0,pull,540,42,5,5,français,Male,1,0.1,-30.28403137,1.38994818
599f00c54d25e800012fc9a6,90,1,2024-02-27T09:24:18.112Z,french_85.wav,0,pull,540,42,5,5,français,Male,2,0.2,-73.3047666,0.58823714
599f00c54d25e800012fc9a6,90,1,2024-02-27T09:24:18.112Z,french_85.wav,0,pull,540,42,5,5,français,Male,3,0.25666667,49.81841991,0.54603307
599f00c54d25e800012fc9a6,91,1,2024-02-27T09:24:18.112Z,french_754.wav,0,poule,286,42,5,5,français,Male,0,0.0,11.6644261,0.15061695
599f00c54d25e800012fc9a6,91,1,2024-02-27T09:24:18.112Z,french_754.wav,0,poule,286,42,5,5,français,Male,1,0.1,5.00985124,0.57469516
599f00c54d25e800012fc9a6,91,1,2024-02-27T09:24:18.112Z,french_754.wav,0,poule,286,42,5,5,français,Male,2,0.2,23.99974903,0.45412791
599f00c54d25e800012fc9a6,91,1,2024-02-27T09:24:18.112Z,french_754.wav,0,poule,286,42,5,5,français,Male,3,0.25666667,23.77807811,0.27591884
599f00c54d25e800012fc9a6,92,1,2024-02-27T09:24:18.112Z,french_552.wav,0,poule,494,42,5,5,français,Male,0,0.0,-52.32363839,0.44295398
599f00c54d25e800012fc9a6,92,1,2024-02-27T09:24:18.112Z,french_552.wav,0,poule,494,42,5,5,français,Male,1,0.1,23.44364533,1.4520287
599f00c54d25e800012fc9a6,92,1,2024-02-27T09:24:18.112Z,french_552.wav,0,poule,494,42,5,5,français,Male,2,0.2,72.20212972,0.63620541
599f00c54d25e800012fc9a6,92,1,2024-02-27T09:24:18.112Z,french_552.wav,0,poule,494,42,5,5,français,Male,3,0.25666667,-25.42911122,1.39952151
599f00c54d25e800012fc9a6,93,1,2024-02-27T09:24:18.112Z,french_918.wav,0,pull,713,42,5,5,français,Male,0,0.0,73.93932449,1.12285198
599f00c54d25e800012fc9a6,93,1,2024-02-27T09:24:18.112Z,french_918.wav,0,pull,713,42,5,5,français,Male,1,0.1,-96.38016005,0.52569443
599f00c54d25e800012fc9a6,93,1,2024-02-27T09:24:18.112Z,french_918.wav,0,pull,713,42,5,5,français,Male,2,0.2,52.71903464,1.01384132
599f00c54d25e800012fc9a6,93,1,2024-02-27T09:24:18.112Z,french_918.wav,0,pull,713,42,5,5,français,Male,3,0.25666667,71.89996729,0.74683012
599f00c54d25e800012fc9a6,94,1,2024-02-27T09:24:18.112Z,french_815.wav,0,poule,251,42,5,5,français,Male,0,0.0,-30.97778369,1.45421986
599f00c54d25e800012fc9a6,94,1,2024-02-27T09:24:18.112Z,french_815.wav,0,poule,251,42,5,5,français,Male,1,0.1,-10.3506413,0.28044698
599f00c54d25e800012fc9a6,94,1,2024-02-27T09:24:18.112Z,french_815.wav,0,poule,251,42,5,5,français,Male,2,0.2,61.86726268,1.88309962
599f00c54d25e800012fc9a6,94,1,2024-02-27T09:24:18.112Z,french_815.wav,0,poule,251,42,5,5,français,Male,3,0.25666667,-32.12586702,1.86356454
599f00c54d25e800012fc9a6,95,1,2024-02-27T09:24:18.112Z,french_392.wav,0,poule,395,42,5,5,français,Male,0,0.0,-11.14407327,1.55151156
599f00c54d25e800012fc9a6,95,1,2024-02-27T09:24:18.112Z,french_392.wav,0,poule,395,42,5,5,français,Male,1,0.1,-20.38505303,0.49285085
599f00c54d25e800012fc9a6,95,1,2024-02-27T09:24:18.112Z,french_392.wav,0,poule,395,42,5,5,français,Male,2,0.2,21.27154916,0.56092788
599f00c54d25e800012fc9a6,95,1,2024-02-27T09:24:18.112Z,french_392.wav,0,poule,395,42,5,5,français,Male,3,0.25666667,-29.54267832,1.54424804
599f00c54d25e800012fc9a6,96,1,2024-02-27T09:24:18.112Z,french_235.wav,0,poule,187,42,5,5,français,Male,0,0.0,-56.36701875,1.31563667
599f00c54d25e800012fc9a6,96,1,2024-02-27T09:24:18.112Z,french_235.wav,0,poule,187,42,5,5,français,Male,1,0.1,-33.99236587,1.74570455
599f00c54d25e800012fc9a6,96,1,2024-02-27T09:24:18.112Z,french_235.wav,0,poule,187,42,5,5,français,Male,2,0.2,5.32608114,1.41652928
599f00c54d25e800012fc9a6,96,1,2024-02-27T09:24:18.112Z,french_235.wav,0,poule,187,42,5,5,français,Male,3,0.25666667,-55.46298983,0.87975081
599f00c54d25e800012fc9a6,97,1,2024-02-27T09:24:18.112Z,french_937.wav,0,poule,203,42,5,5,français,Male,0,0.0,27.89553513,1.9323197
599f00c54d25e800012fc9a6,97,1,2024-02-27T09:24:18.112Z,french_937.wav,0,poule,203,42,5,5,français,Male,1,0.1,-51.2753628,1.67315664
599f00c54d25e800012fc9a6,97,1,2024-02-27T09:24:18.112Z,french_937.wav,0,poule,203,42,5,5,français,Male,2,0.2,-75.08991272,1.14592467
599f00c54d25e800012fc9a6,97,1,2024-02-27T09:24:18.112Z,french_937.wav,0,poule,203,42,5,5,français,Male,3,0.25666667,-24.40434042,1.81837395
599f00c54d25e800012fc9a6,98,1,2024-02-27T09:24:18.112Z,french_408.wav,0,poule,725,42,5,5,français,Male,0,0.0,-97.26027128,0.27661041
599f00c54d25e800012fc9a6,98,1,2024-02-27T09:24:18.112Z,french_408.wav,0,poule,725,42,5,5,français,Male,1,0.1,85.50928544,0.07889603
599f00c54d25e800012fc9a6,98,1,2024-02-27T09:24:18.112Z,french_408.wav,0,poule,725,42,5,5,français,Male,2,0.2,52.29826895,1.21380046
599f00c54d25e800012fc9a6,98,1,2024-02-27T09:24:18.112Z,french_408.wav,0,poule,725,42,5,5,français,Male,3,0.25666667,54.6689314,1.65990502
599f00c54d25e800012fc9a6,99,1,2024-02-27T09:24:18.112Z,french_454.wav,0,pull,291,42,5,5,français,Male,0,0.0,-2.34959028,0.74247593
599f00c54d25e800012fc9a6,99,1,2024-02-27T09:24:18.112Z,french_454.wav,0,pull,291,42,5,5,français,Male,1,0.1,-12.00596157,1.74271244
599f00c54d25e800012fc9a6,99,1,2024-02-27T09:24:18.112Z,french_454.wav,0,pull,291,42,5,5,français,Male,2,0.2,53.09832594,0.67609159
599f00c54d25e800012fc9a6,99,1,2024-02-27T09:24:18.112Z,french_454.wav,0,pull,291,42,5,5,français,Male,3,0.25666667,2.06709411,1.84499539
599f00c54d25e800012fc9a6,100,2,2024-02-27T09:24:18.112Z,french_760.wav,0,poule,274,42,5,5,français,Male,0,0.0,-33.74521786,1.08104013
599f00c54d25e800012fc9a6,100,2,2024-02-27T09:24:18.112Z,french_760.wav,0,poule,274,42,5,5,français,Male,1,0.1,38.89159258,0.90085836
599f00c54d25e800012fc9a6,100,2,2024-02-27T09:24:18.112Z,french_760.wav,0,poule,274,42,5,5,français,Male,2,0.2,64.82772984,0.36080554
599f00c54d25e800012fc9a6,100,2,2024-02-27T09:24:18.112Z,french_760.wav,0,poule,274,42,5,5,français,Male,3,0.25666667,15.52705732,0.08393315
599f00c54d25e800012fc9a6,101,2,2024-02-27T09:24:18.112Z,french_89.wav,0,pull,540,42,5,5,français,Male,0,0.0,-79.59355323,1.69180454
599f00c54d25e800012fc9a6,101,2,2024-02-27T09:24:18.112Z,french_89.wav,0,pull,540,42,5,5,français,Male,1,0.1,-86.9945706,1.08047967
599f00c54d25e800012fc9a6,101,2,2024-02-27T09:24:18.112Z,french_89.wav,0,pull,540,42,5,5,français,Male,2,0.2,81.38410409,1.92177075
599f00c54d25e800012fc9a6,101,2,2024-02-27T09:24:18.112Z,french_89.wav,0,pull,540,42,5,5,français,Male,3,0.25666667,-11.31628481,1.93759104
599f00c54d25e800012fc9a6,102,2,2024-02-27T09:24:18.112Z,french_17.wav,0,pull,320,42,5,5,français,Male,0,0.0,61.86852427,1.05769551
599f00c54d25e800012fc9a6,102,2,2024-02-27T09:24:18.112Z,french_17.wav,0,pull,320,42,5,5,français,Male,1,0.1,14.81642836,0.81667418
599f00c54d25e800012fc9a6,102,2,2024-02-27T09:24:18.112Z,french_17.wav,0,pull,320,42,5,5,français,Male,2,0.2,-8.48865215,0.51249479
599f00c54d25e800012fc9a6,102,2,2024-02-27T09:24:18.112Z,french_17.wav,0,pull,320,42,5,5,français,Male,3,0.25666667,71.68336874,0.29939213
599f00c54d25e800012fc9a6,103,2,2024-02-27T09:24:18.112Z,french_832.wav,0,pull,620,42,5,5,français,Male,0,0.0,72.4957568,1.55241154
599f00c54d25e800012fc9a6,103,2,2024-02-27T09:24:18.112Z,french_832.wav,0,pull,620,42,5,5,français,Male,1,0.1,-42.52759542,0.51342339
599f00c54d25e800012fc9a6,103,2,2024-02-27T09:24:18.112Z,french_832.wav,0,pull,620,42,5,5,français,Male,2,0.2,-19.34515336,1.23436829
599f00c54d25e800012fc9a6,103,2,2024-02-27T09:24:18.112Z,french_832.wav,0,pull,620,42,5,5,français,Male,3,0.25666667,29.69631954,0.63501701
599f00c54d25e800012fc9a6,104,2,2024-02-27T09:24:18.112Z,french_229.wav,0,pull,435,42,5,5,français,Male,0,0.0,17.32899675,0.73401758
599f00c54d25e800012fc9a6,104,2,2024-02-27T09:24:18.112Z,french_229.wav,0,pull,435,42,5,5,français,Male,1,0.1,-73.09434366,0.90990932
599f00c54d25e800012fc9a6,104,2,2024-02-27T09:24:18.112Z,french_229.wav,0,pull,435,42,5,5,français,Male,2,0.2,-24.47190501,0.8791544
599f00c54d25e800012fc9a6,104,2,2024-02-27T09:24:18.112Z,french_229.wav,0,pull,435,42,5,5,français,Male,3,0.25666667,11.45282545,1.1872524
599f00c54d25e800012fc9a6,105,2,2024-02-27T09:24:18.112Z,french_723.wav,0,poule,464,42,5,5,français,Male,0,0.0,-46.61221312,0.88342187
599f00c54d25e800012fc9a6,105,2,2024-02-27T09:24:18.112Z,french_723.wav,0,poule,464,42,5,5,français,Male,1,0.1,-11.45492587,0.45371046
599f00c54d25e800012fc9a6,105,2,2024-02-27T09:24:18.112Z,french_723.wav,0,poule,464,42,5,5,français,Male,2,0.2,-2.50722763,1.8565603
599f00c54d25e800012fc9a6,105,2,2024-02-27T09:24:18.112Z,french_723.wav,0,poule,464,42,5,5,français,Male,3,0.25666667,-31.56133571,0.74236501
599f00c54d25e800012fc9a6,106,2,2024-02-27T09:24:18.112Z,french_989.wav,0,pull,237,42,5,5,français,Male,0,0.0,9.12508282,1.4573698
599f00c54d25e800012fc9a6,106,2,2024-02-27T09:24:18.112Z,french_989.wav,0,pull,237,42,5,5,français,Male,1,0.1,-26.45358769,0.87656303
599f00c54d25e800012fc9a6,106,2,2024-02-27T09:24:18.112Z,french_989.wav,0,pull,237,42,5,5,français,Male,2,0.2,-51.08796106,0.58961018
599f00c54d25e800012fc9a6,106,2,2024-02-27T09:24:18.112Z,french_989.wav,0,pull,237,42,5,5,français,Male,3,0.25666667,-22.70445117,1.46090447
599f00c54d25e800012fc9a6,107,2,2024-02-27T09:24:18.112Z,french_278.wav,0,poule,304,42,5,5,français,Male,0,0.0,0.92058819,0.58166089
599f00c54d25e800012fc9a6,107,2,2024-02-27T09:24:18.112Z,french_278.wav,0,poule,304,42,5,5,français,Male,1,0.1,-11.12293645,0.6190237
599f00c54d25e800012fc9a6,107,2,2024-02-27T09:24:18.112Z,french_278.wav,0,poule,304,42,5,5,français,Male,2,0.2,51.74113392,1.02661965
599f00c54d25e800012fc9a6,107,2,2024-02-27T09:24:18.112Z,french_278.wav,0,poule,304,42,5,5,français,Male,3,0.25666667,59.96495371,0.89915078
599f00c54d25e800012fc9a6,108,2,2024-02-27T09:24:18.112Z,french_415.wav,0,poule,237,42,5,5,français,Male,0,0.0,-78.44301617,1.61962555
599f00c54d25e800012fc9a6,108,2,2024-02-27T09:24:18.112Z,french_415.wav,0,poule,237,42,5,5,français,Male,1,0.1,84.17180311,0.78674907
599f00c54d25e800012fc9a6,108,2,2024-02-27T09:24:18.112Z,french_415.wav,0,poule,237,42,5,5,français,Male,2,0.2,32.05176365,0.83302444
599f00c54d25e800012fc9a6,108,2,2024-02-27T09:24:18.112Z,french_415.wav,0,poule,237,42,5,5,français,Male,3,0.25666667,1.79049447,0.85177262
599f00c54d25e800012fc9a6,109,2,2024-02-27T09:24:18.112Z,french_161.wav,0,poule,280,42,5,5,français,Male,0,0.0,61.58397479,1.02686065
599f00c54d25e800012fc9a6,109,2,2024-02-27T09:24:18.112Z,french_161.wav,0,poule,280,42,5,5,français,Male,1,0.1,44.64347815,1.42523068
599f00c54d25e800012fc9a6,109,2,2024-02-27T09:24:18.112Z,french_161.wav,0,poule,280,42,5,5,français,Male,2,0.2,-11.65199572,0.36377374
599f00c54d25e800012fc9a6,109,2,2024-02-27T09:24:18.112Z,french_161.wav,0,poule,280,42,5,5,français,Male,3,0.25666667,76.59463145,0.41836879
599f00c54d25e800012fc9a6,110,2,2024-02-27T09:24:18.112Z,french_299.wav,0,pull,291,42,5,5,français,Male,0,0.0,12.52470623,1.64482663
599f00c54d25e800012fc9a6,110,2,2024-02-27T09:24:18.112Z,french_299.wav,0,pull,291,42,5,5,français,Male,1,0.1,-97.26544336,1.84069115
599f00c54d25e800012fc9a6,110,2,2024-02-27T09:24:18.112Z,french_299.wav,0,pull,291,42,5,5,français,Male,2,0.2,-80.62903972,0.25110426
599f00c54d25e800012fc9a6,110,2,2024-02-27T09:24:18.112Z,french_299.wav,0,pull,291,42,5,5,français,Male,3,0.25666667,73.47257664,1.45765737
599f00c54d25e800012fc9a6,111,2,2024-02-27T09:24:18.112Z,french_252.wav,0,poule,382,42,5,5,français,Male,0,0.0,-68.3996329,0.41781817
599f00c54d25e800012fc9a6,111,2,2024-02-27T09:24:18.112Z,french_252.wav,0,poule,382,42,5,5,français,Male,1,0.1,79.02734002,1.03502761
599f00c54d25e800012fc9a6,111,2,2024-02-27T09:24:18.112Z,french_252.wav,0,poule,382,42,5,5,français,Male,2,0.2,-18.50805447,0.82044901
599f00c54d25e800012fc9a6,111,2,2024-02-27T09:24:18.112Z,french_252.wav,0,poule,382,42,5,5,français,Male,3,0.25666667,-85.84066145,1.09163249
599f00c54d25e800012fc9a6,112,2,2024-02-27T09:24:18.112Z,french_442.wav,0,pull,460,42,5,5,français,Male,0,0.0,60.29330972,0.95088916
599f00c54d25e800012fc9a6,112,2,2024-02-27T09:24:18.112Z,french_442.wav,0,pull,460,42,5,5,français,Male,1,0.1,96.30587546,0.89420653
599f00c54d25e800012fc9a6,112,2,2024-02-27T09:24:18.112Z,french_442.wav,0,pull,460,42,5,5,français,Male,2,0.2,3.75375275,0.09745987
599f00c54d25e800012fc9a6,112,2,2024-02-27T09:24:18.112Z,french_442.wav,0,pull,460,42,5,5,français,Male,3,0.25666667,65.23357012,0.42759775
599f00c54d25e800012fc9a6,113,2,2024-02-27T09:24:18.112Z,french_706.wav,0,pull,417,42,5,5,français,Male,0,0.0,53.91986852,0.595313
599f00c54d25e800012fc9a6,113,2,2024-02-27T09:24:18.112Z,french_706.wav,0,pull,417,42,5,5,français,Male,1,0.1,-86.79287422,0.19033695
599f00c54d25e800012fc9a6,113,2,2024-02-27T09:24:18.112Z,french_706.wav,0,pull,417,42,5,5,français,Male,2,0.2,-18.13553248,1.2444166
599f00c54d25e800012fc9a6,113,2,2024-02-27T09:24:18.112Z,french_706.wav,0,pull,417,42,5,5,français,Male,3,0.25666667,-98.41078943,0.51551453
599f00c54d25e800012fc9a6,114,2,2024-02-27T09:24:18.112Z,french_800.wav,0,pull,658,42,5,5,français,Male,0,0.0,43.61588251,1.33995655
599f00c54d25e800012fc9a6,114,2,2024-02-27T09:24:18.112Z,french_800.wav,0,pull,658,42,5,5,français,Male,1,0.1,-17.8471941,0.26774995
599f00c54d25e800012fc9a6,114,2,2024-02-27T09:24:18.112Z,french_800.wav,0,pull,658,42,5,5,français,Male,2,0.2,-10.2363333,0.87274599
599f00c54d25e800012fc9a6,114,2,2024-02-27T09:24:18.112Z,french_800.wav,0,pull,658,42,5,5,français,Male,3,0.25666667,-85.1878963,0.37568781
599f00c54d25e800012fc9a6,115,2,2024-02-27T09:24:18.112Z,french_649.wav,0,poule,447,42,5,5,français,Male,0,0.0,-26.84796804,0.38564107
599f00c54d25e800012fc9a6,115,2,2024-02-27T09:24:18.112Z,french_649.wav,0,poule,447,42,5,5,français,Male,1,0.1,90.50092835,0.07645681
599f00c54d25e800012fc9a6,115,2,2024-02-27T09:24:18.112Z,french_649.wav,0,poule,447,42,5,5,français,Male,2,0.2,-42.32642697,0.18898029
599f00c54d25e800012fc9a6,115,2,2024-02-27T09:24:18.112Z,french_649.wav,0,poule,447,42,5,5,français,Male,3,0.25666667,-6.05454316,0.88659006
599f00c54d25e800012fc9a6,116,2,2024-02-27T09:24:18.112Z,french_250.wav,0,poule,712,42,5,5,français,Male,0,0.0,34.1596777,0.91954119
599f00c54d25e800012fc9a6,116,2,2024-02-27T09:24:18.112Z,french_250.wav,0,poule,712,42,5,5,français,Male,1,0.1,-44.36149414,1.97424998
599f00c54d25e800012fc9a6,116,2,2024-02-27T09:24:18.112Z,french_250.wav,0,poule,712,42,5,5,français,Male,2,0.2,5.0850049,0.32778381
599f00c54d25e800012fc9a6,116,2,2024-02-27T09:24:18.112Z,french_250.wav,0,poule,712,42,5,5,français,Male,3,0.25666667,-37.48818875,0.84724669
599f00c54d25e800012fc9a6,117,2,2024-02-27T09:24:18.112Z,french_416.wav,0,pull,200,42,5,5,français,Male,0,0.0,27.68943274,1.77963231
599f00c54d25e800012fc9a6,117,2,2024-02-27T09:24:18.112Z,french_416.wav,0,pull,200,42,5,5,français,Male,1,0.1,-10.10461599,1.68240888
599f00c54d25e800012fc9a6,117,2,2024-02-27T09:24:18.112Z,french_416.wav,0,pull,200,42,5,5,français,Male,2,0.2,24.64183683,1.38997073
599f00c54d25e800012fc9a6,117,2,2024-02-27T09:24:18.112Z,french_416.wav,0,pull,200,42,5,5,français,Male,3,0.25666667,96.08137129,0.64151937
599f00c54d25e800012fc9a6,118,2,2024-02-27T09:24:18.112Z,french_91.wav,0,poule,892,42,5,5,français,Male,0,0.0,22.16772641,0.07376739
599f00c54d25e800012fc9a6,118,2,2024-02-27T09:24:18.112Z,french_91.wav,0,poule,892,42,5,5,français,Male,1,0.1,4.75787086,1.79269703
599f00c54d25e800012fc9a6,118,2,2024-02-27T09:24:18.112Z,french_91.wav,0,poule,892,42,5,5,français,Male,2,0.2,16.21543539,1.59138707
599f00c54d25e800012fc9a6,118,2,2024-02-27T09:24:18.112Z,french_91.wav,0,poule,892,42,5,5,français,Male,3,0.25666667,-31.35162056,1.67096256
599f00c54d25e800012fc9a6,119,2,2024-02-27T09:24:18.112Z,french_554.wav,0,pull,215,42,5,5,français,Male,0,0.0,-31.9650703,1.45983082
599f00c54d25e800012fc9a6,119,2,2024-02-27T09:24:18.112Z,french_554.wav,0,pull,215,42,5,5,français,Male,1,0.1,78.95364823,0.40013818
599f00c54d25e800012fc9a6,119,2,2024-02-27T09:24:18.112Z,french_554.wav,0,pull,215,42,5,5,français,Male,2,0.2,-0.5294376,0.96374115
599f00c54d25e800012fc9a6,119,2,2024-02-27T09:24:18.112Z,french_554.wav,0,pull,215,42,5,5,français,Male,3,0.25666667,-36.78296127,1.20732856
599f00c54d25e800012fc9a6,120,2,2024-02-27T09:24:18.112Z,french_948.wav,0,pull,225,42,5,5,français,Male,0,0.0,54.2755123,0.60698289
599f00c54d25e800012fc9a6,120,2,2024-02-27T09:24:18.112Z,french_948.wav,0,pull,225,42,5,5,français,Male,1,0.1,-26.53776759,1.07019337
599f00c54d25e800012fc9a6,120,2,2024-02-27T09:24:18.112Z,french_948.wav,0,pull,225,42,5,5,français,Male,2,0.2,-51.24045856,1.47276383
599f00c54d25e800012fc9a6,120,2,2024-02-27T09:24:18.112Z,french_948.wav,0,pull,225,42,5,5,français,Male,3,0.25666667,84.11086463,1.01044713
599f00c54d25e800012fc9a6,121,2,2024-02-27T09:24:18.112Z,french_753.wav,0,pull,180,42,5,5,français,Male,0,0.0,-59.12708259,1.15236918
599f00c54d25e800012fc9a6,121,2,2024-02-27T09:24:18.112Z,french_753.wav,0,pull,180,42,5,5,français,Male,1,0.1,-84.15149344,1.24278656
599f00c54d25e800012fc9a6,121,2,2024-02-27T09:24:18.112Z,french_753.wav,0,pull,180,42,5,5,français,Male,2,0.2,-30.31197396,0.56738218
599f00c54d25e800012fc9a6,121,2,2024-02-27T09:24:18.112Z,french_753.wav,0,pull,180,42,5,5,français,Male,3,0.25666667,-23.11550189,0.65045955
599f00c54d25e800012fc9a6,122,2,2024-02-27T09:24:18.112Z,french_439.wav,0,poule,435,42,5,5,français,Male,0,0.0,66.25011988,1.00096297
599f00c54d25e800012fc9a6,122,2,2024-02-27T09:24:18.112Z,french_439.wav,0,poule,435,42,5,5,français,Male,1,0.1,46.32034445,0.12322103
599f00c54d25e800012fc9a6,122,2,2024-02-27T09:24:18.112Z,french_439.wav,0,poule,435,42,5,5,français,Male,2,0.2,38.26264731,1.5814324
599f00c54d25e800012fc9a6,122,2,2024-02-27T09:24:18.112Z,french_439.wav,0,poule,435,42,5,5,français,Male,3,0.25666667,-42.53278778,0.06125751
599f00c54d25e800012fc9a6,123,2,2024-02-27T09:24:18.112Z,french_176.wav,0,poule,95,42,5,5,français,Male,0,0.0,0.09776701,1.90735666
599f00c54d25e800012fc9a6,123,2,2024-02-27T09:24:18.112Z,french_176.wav,0,poule,95,42,5,5,français,Male,1,0.1,32.80523404,1.52678684
599f00c54d25e800012fc9a6,123,2,2024-02-27T09:24:18.112Z,french_176.wav,0,poule,95,42,5,5,français,Male,2,0.2,16.78979069,1.98703072
599f00c54d25e800012fc9a6,123,2,2024-02-27T09:24:18.112Z,french_176.wav,0,poule,95,42,5,5,français,Male,3,0.25666667,-52.73391922,1.7200077
599f00c54d25e800012fc9a6,124,2,2024-02-27T09:24:18.112Z,french_898.wav,0,poule,242,42,5,5,français,Male,0,0.0,-10.33405821,1.53220968
599f00c54d25e800012fc9a6,124,2,2024-02-27T09:24:18.112Z,french_898.wav,0,poule,242,42,5,5,français,Male,1,0.1,56.62547765,1.11219982
599f00c54d25e800012fc9a6,124,2,2024-02-27T09:24:18.112Z,french_898.wav,0,poule,242,42,5,5,français,Male,2,0.2,26.06756425,1.10520568
599f00c54d25e800012fc9a6,124,2,2024-02-27T09:24:18.112Z,french_898.wav,0,poule,242,42,5,5,français,Male,3,0.25666667,61.22858123,0.66903516
599f00c54d25e800012fc9a6,125,2,2024-02-27T09:24:18.112Z,french_450.wav,0,poule,505,42,5,5,français,Male,0,0.0,32.27162082,0.11495553
599f00c54d25e800012fc9a6,125,2,2024-02-27T09:24:18.112Z,french_450.wav,0,poule,505,42,5,5,français,Male,1,0.1,-17.74326064,0.2876958
599f00c54d25e800012fc9a6,125,2,2024-02-27T09:24:18.112Z,french_450.wav,0,poule,505,42,5,5,français,Male,2,0.2,22.97944113,0.75841823
599f00c54d25e800012fc9a6,125,2,2024-02-27T09:24:18.112Z,french_450.wav,0,poule,505,42,5,5,français,Male,3,0.25666667,-64.06857585,0.46502657
599f00c54d25e800012fc9a6,126,2,2024-02-27T09:24:18.112Z,french_518.wav,0,poule,361,42,5,5,français,Male,0,0.0,30.08897808,1.28002377
599f00c54d25e800012fc9a6,126,2,2024-02-27T09:24:18.112Z,french_518.wav,0,poule,361,42,5,5,français,Male,1,0.1,-42.00678694,0.31881796
599f00c54d25e800012fc9a6,126,2,2024-02-27T09:24:18.112Z,french_518.wav,0,poule,361,42,5,5,français,Male,2,0.2,47.99304417,0.271149
599f00c54d25e800012fc9a6,126,2,2024-02-27T09:24:18.112Z,french_518.wav,0,poule,361,42,5,5,français,Male,3,0.25666667,-21.59585354,1.06182133
599f00c54d25e800012fc9a6,127,2,2024-02-27T09:24:18.112Z,french_774.wav,0,pull,293,42,5,5,français,Male,0,0.0,-35.29041546,0.24909556
599f00c54d25e800012fc9a6,127,2,2024-02-27T09:24:18.112Z,french_774.wav,0,pull,293,42,5,5,français,Male,1,0.1,-21.07774935,0.81236123
599f00c54d25e800012fc9a6,127,2,2024-02-27T09:24:18.112Z,french_774.wav,0,pull,293,42,5,5,français,Male,2,0.2,-42.95062976,0.84475887
599f00c54d25e800012fc9a6,127,2,2024-02-27T09:24:18.112Z,french_774.wav,0,pull,293,42,5,5,français,Male,3,0.25666667,-27.37747858,0.12641702
599f00c54d25e800012fc9a6,128,2,2024-02-27T09:24:18.112Z,french_50.wav,0,pull,273,42,5,5,français,Male,0,0.0,-85.65055263,1.56155391
599f00c54d25e800012fc9a6,128,2,2024-02-27T09:24:18.112Z,french_50.wav,0,pull,273,42,5,5,français,Male,1,0.1,-8.41774185,0.5849625
599f00c54d25e800012fc9a6,128,2,2024-02-27T09:24:18.112Z,french_50.wav,0,pull,273,42,5,5,français,Male,2,0.2,31.4658541,1.04346227
599f00c54d25e800012fc9a6,128,2,2024-02-27T09:24:18.112Z,french_50.wav,0,pull,273,42,5,5,français,Male,3,0.25666667,98.77299977,0.72937699
599f00c54d25e800012fc9a6,129,2,2024-02-27T09:24:18.112Z,french_627.wav,0,poule,116,42,5,5,français,Male,0,0.0,2.1799823,1.97167661
599f00c54d25e800012fc9a6,129,2,2024-02-27T09:24:18.112Z,french_627.wav,0,poule,116,42,5,5,français,Male,1,0.1,30.63833179,1.14790719
599f00c54d25e800012fc9a6,129,2,2024-02-27T09:24:18.112Z,french_627.wav,0,poule,116,42,5,5,français,Male,2,0.2,99.93583097,1.70510721
599f00c54d25e800012fc9a6,129,2,2024-02-27T09:24:18.112Z,french_627.wav,0,poule,116,42,5,5,français,Male,3,0.25666667,-23.95585557,1.67415678
599f00c54d25e800012fc9a6,130,2,2024-02-27T09:24:18.112Z,french_499.wav,0,poule,368,42,5,5,français,Male,0,0.0,24.28229917,0.76159538
599f00c54d25e800012fc9a6,130,2,2024-02-27T09:24:18.112Z,french_499.wav,0,poule,368,42,5,5,français,Male,1,0.1,-90.85236303,0.50536641
599f00c54d25e800012fc9a6,130,2,2024-02-27T09:24:18.112Z,french_499.wav,0,poule,368,42,5,5,français,Male,2,0.2,-60.29957953,0.99158085
599f00c54d25e800012fc9a6,130,2,2024-02-27T09:24:18.112Z,french_499.wav,0,poule,368,42,5,5,français,Male,3,0.25666667,91.79807534,1.05465089
599f00c54d25e800012fc9a6,131,2,2024-02-27T09:24:18.112Z,french_587.wav,0,pull,180,42,5,5,français,Male,0,0.0,-75.34784911,1.71069253
599f00c54d25e800012fc9a6,131,2,2024-02-27T09:24:18.112Z,french_587.wav,0,pull,180,42,5,5,français,Male,1,0.1,20.53880501,1.37718063
599f00c54d25e800012fc9a6,131,2,2024-02-27T09:24:18.112Z,french_587.wav,0,pull,180,42,5,5,français,Male,2,0.2,-66.82934855,1.47865121
599f00c54d25e800012fc9a6,131,2,2024-02-27T09:24:18.112Z,french_587.wav,0,pull,180,42,5,5,français,Male,3,0.25666667,0.42354047,1.29460257
599f00c54d25e800012fc9a6,132,2,2024-02-27T09:24:18.112Z,french_242.wav,0,pull,146,42,5,5,français,Male,0,0.0,19.1317605,0.13091957
599f00c54d25e800012fc9a6,132,2,2024-02-27T09:24:18.112Z,french_242.wav,0,pull,146,42,5,5,français,Male,1,0.1,-45.8995637,1.80487076
599f00c54d25e800012fc9a6,132,2,2024-02-27T09:24:18.112Z,french_242.wav,0,pull,146,42,5,5,français,Male,2,0.2,0.0160089686,1.56599149
599f00c54d25e800012fc9a6,132,2,2024-02-27T09:24:18.112Z,french_242.wav,0,pull,146,42,5,5,français,Male,3,0.256666667,88.294087,1.35043951
599f00c54d25e800012fc9a6,133,2,2024-02-27T09:24:18.112Z,french_349.wav,0,pull,186,42,5,5,français,Male,0,0.0,73.89254537,0.17403551
599f00c54d25e800012fc9a6,133,2,2024-02-27T09:24:18.112Z,french_349.wav,0,pull,186,42,5,5,français,Male,1,0.1,-84.33493486,1.66487719
599f00c54d25e800012fc9a6,133,2,2024-02-27T09:24:18.112Z,french_349.wav,0,pull,186,42,5,5,français,Male,2,0.2,-3.2709249,1.53740634
599f00c54d25e800012fc9a6,133,2,2024-02-27T09:24:18.112Z,french_349.wav,0,pull,186,42,5,5,français,Male,3,0.25666667,-21.54511299,1.56834066
599f00c54d25e800012fc9a6,134,2,2024-02-27T09:24:18.112Z,french_794.wav,0,poule,139,42,5,5,français,Male,0,0.0,-41.85324617,0.4524196
599f00c54d25e800012fc9a6,134,2,2024-02-27T09:24:18.112Z,french_794.wav,0,poule,139,42,5,5,français,Male,1,0.1,1.64774739,1.94571184
599f00c54d25e800012fc9a6,134,2,2024-02-27T09:24:18.112Z,french_794.wav,0,poule,139,42,5,5,français,Male,2,0.2,-16.9250465,1.39882797
599f00c54d25e800012fc9a6,134,2,2024-02-27T09:24:18.112Z,french_794.wav,0,poule,139,42,5,5,français,Male,3,0.25666667,-47.53807225,0.19962905
599f00c54d25e800012fc9a6,135,2,2024-02-27T09:24:18.112Z,french_674.wav,0,poule,161,42,5,5,français,Male,0,0.0,36.8658398,0.63817569
599f00c54d25e800012fc9a6,135,2,2024-02-27T09:24:18.112Z,french_674.wav,0,poule,161,42,5,5,français,Male,1,0.1,-70.55199619,1.9135219
599f00c54d25e800012fc9a6,135,2,2024-02-27T09:24:18.112Z,french_674.wav,0,poule,161,42,5,5,français,Male,2,0.2,-3.70121723,1.96782527
599f00c54d25e800012fc9a6,135,2,2024-02-27T09:24:18.112Z,french_674.wav,0,poule,161,42,5,5,français,Male,3,0.25666667,30.12615154,0.86862342
599f00c54d25e800012fc9a6,136,2,2024-02-27T09:24:18.112Z,french_561.wav,0,poule,403,42,5,5,français,Male,0,0.0,43.72245453,1.14403907
599f00c54d25e800012fc9a6,136,2,2024-02-27T09:24:18.112Z,french_561.wav,0,poule,403,42,5,5,français,Male,1,0.1,-99.96065046,0.22103922
599f00c54d25e800012fc9a6,136,2,2024-02-27T09:24:18.112Z,french_561.wav,0,poule,403,42,5,5,français,Male,2,0.2,-79.74506532,0.12690813
599f00c54d25e800012fc9a6,136,2,2024-02-27T09:24:18.112Z,french_561.wav,0,poule,403,42,5,5,français,Male,3,0.25666667,3.19515671,1.47601923
599f00c54d25e800012fc9a6,137,2,2024-02-27T09:24:18.112Z,french_27.wav,0,poule,288,42,5,5,français,Male,0,0.0,-24.90567196,0.77746957
599f00c54d25e800012fc9a6,137,2,2024-02-27T09:24:18.112Z,french_27.wav,0,poule,288,42,5,5,français,Male,1,0.1,-76.22865867,0.36572894
599f00c54d25e800012fc9a6,137,2,2024-02-27T09:24:18.112Z,french_27.wav,0,poule,288,42,5,5,français,Male,2,0.2,-70.77946922,1.07248112
599f00c54d25e800012fc9a6,137,2,2024-02-27T09:24:18.112Z,french_27.wav,0,poule,288,42,5,5,français,Male,3,0.25666667,-40.13018173,1.35477464
599f00c54d25e800012fc9a6,138,2,2024-02-27T09:24:18.112Z,french_740.wav,0,pull,153,42,5,5,français,Male,0,0.0,-63.22643447,1.41698272
599f00c54d25e800012fc9a6,138,2,2024-02-27T09:24:18.112Z,french_740.wav,0,pull,153,42,5,5,français,Male,1,0.1,-76.79793208,1.15791198
599f00c54d25e800012fc9a6,138,2,2024-02-27T09:24:18.112Z,french_740.wav,0,pull,153,42,5,5,français,Male,2,0.2,-90.89358737,1.97460827
599f00c54d25e800012fc9a6,138,2,2024-02-27T09:24:18.112Z,french_740.wav,0,pull,153,42,5,5,français,Male,3,0.25666667,-87.57687491,0.61281255
599f00c54d25e800012fc9a6,139,2,2024-02-27T09:24:18.112Z,french_285.wav,0,pull,339,42,5,5,français,Male,0,0.0,-14.06099989,0.21649577
599f00c54d25e800012fc9a6,139,2,2024-02-27T09:24:18.112Z,french_285.wav,0,pull,339,42,5,5,français,Male,1,0.1,-5.26283055,0.66520183
599f00c54d25e800012fc9a6,139,2,2024-02-27T09:24:18.112Z,french_285.wav,0,pull,339,42,5,5,français,Male,2,0.2,18.02137941,0.4490454
599f00c54d25e800012fc9a6,139,2,2024-02-27T09:24:18.112Z,french_285.wav,0,pull,339,42,5,5,français,Male,3,0.25666667,46.27962364,1.92778075
599f00c54d25e800012fc9a6,140,2,2024-02-27T09:24:18.112Z,french_871.wav,0,pull,163,42,5,5,français,Male,0,0.0,-4.85456223,1.97775754
599f00c54d25e800012fc9a6,140,2,2024-02-27T09:24:18.112Z,french_871.wav,0,pull,163,42,5,5,français,Male,1,0.1,78.38715758,1.19373072
599f00c54d25e800012fc9a6,140,2,2024-02-27T09:24:18.112Z,french_871.wav,0,pull,163,42,5,5,français,Male,2,0.2,-65.12117647,1.5578529
599f00c54d25e800012fc9a6,140,2,2024-02-27T09:24:18.112Z,french_871.wav,0,pull,163,42,5,5,français,Male,3,0.25666667,96.09900544,1.61262149
599f00c54d25e800012fc9a6,141,2,2024-02-27T09:24:18.112Z,french_679.wav,0,pull,309,42,5,5,français,Male,0,0.0,-12.30272173,0.22564891
599f00c54d25e800012fc9a6,141,2,2024-02-27T09:24:18.112Z,french_679.wav,0,pull,309,42,5,5,français,Male,1,0.1,-25.8054218,0.32954228
599f00c54d25e800012fc9a6,141,2,2024-02-27T09:24:18.112Z,french_679.wav,0,pull,309,42,5,5,français,Male,2,0.2,-49.36641871,0.69268874
599f00c54d25e800012fc9a6,141,2,2024-02-27T09:24:18.112Z,french_679.wav,0,pull,309,42,5,5,français,Male,3,0.25666667,3.29240265,1.86334945
599f00c54d25e800012fc9a6,142,2,2024-02-27T09:24:18.112Z,french_665.wav,0,poule,264,42,5,5,français,Male,0,0.0,1.77078633,0.29838278
599f00c54d25e800012fc9a6,142,2,2024-02-27T09:24:18.112Z,french_665.wav,0,poule,264,42,5,5,français,Male,1,0.1,-95.60257374,0.72198918
599f00c54d25e800012fc9a6,142,2,2024-02-27T09:24:18.112Z,french_665.wav,0,poule,264,42,5,5,français,Male,2,0.2,-26.21333041,0.91284695
599f00c54d25e800012fc9a6,142,2,2024-02-27T09:24:18.112Z,french_665.wav,0,poule,264,42,5,5,français,Male,3,0.25666667,-67.7705493,0.52625369
599f00c54d25e800012fc9a6,143,2,2024-02-27T09:24:18.112Z,french_650.wav,0,pull,311,42,5,5,français,Male,0,0.0,-98.04674504,0.50091073
599f00c54d25e800012fc9a6,143,2,2024-02-27T09:24:18.112Z,french_650.wav,0,pull,311,42,5,5,français,Male,1,0.1,-80.1546697,0.94744897
599f00c54d25e800012fc9a6,143,2,2024-02-27T09:24:18.112Z,french_650.wav,0,pull,311,42,5,5,français,Male,2,0.2,-60.9727692,0.76656919
599f00c54d25e800012fc9a6,143,2,2024-02-27T09:24:18.112Z,french_650.wav,0,pull,311,42,5,5,français,Male,3,0.25666667,39.39299736,1.29747512
599f00c54d25e800012fc9a6,144,2,2024-02-27T09:24:18.112Z,french_18.wav,0,pull,255,42,5,5,français,Male,0,0.0,29.29326365,1.56476478
599f00c54d25e800012fc9a6,144,2,2024-02-27T09:24:18.112Z,french_18.wav,0,pull,255,42,5,5,français,Male,1,0.1,-65.9497706,0.7748919
599f00c54d25e800012fc9a6,144,2,2024-02-27T09:24:18.112Z,french_18.wav,0,pull,255,42,5,5,français,Male,2,0.2,-68.38187686,0.73946843
599f00c54d25e800012fc9a6,144,2,2024-02-27T09:24:18.112Z,french_18.wav,0,pull,255,42,5,5,français,Male,3,0.25666667,26.32477662,1.33435109
599f00c54d25e800012fc9a6,145,2,2024-02-27T09:24:18.112Z,french_357.wav,0,pull,341,42,5,5,français,Male,0,0.0,-39.34197693,1.60610182
599f00c54d25e800012fc9a6,145,2,2024-02-27T09:24:18.112Z,french_357.wav,0,pull,341,42,5,5,français,Male,1,0.1,71.15894406,0.3952593
599f00c54d25e800012fc9a6,145,2,2024-02-27T09:24:18.112Z,french_357.wav,0,pull,341,42,5,5,français,Male,2,0.2,-59.30154436,0.60654741
599f00c54d25e800012fc9a6,145,2,2024-02-27T09:24:18.112Z,french_357.wav,0,pull,341,42,5,5,français,Male,3,0.25666667,60.48174113,0.43480054
599f00c54d25e800012fc9a6,146,2,2024-02-27T09:24:18.112Z,french_447.wav,0,pull,246,42,5,5,français,Male,0,0.0,-15.50115845,0.77909013
599f00c54d25e800012fc9a6,146,2,2024-02-27T09:24:18.112Z,french_447.wav,0,pull,246,42,5,5,français,Male,1,0.1,-4.86998407,1.31519509
599f00c54d25e800012fc9a6,146,2,2024-02-27T09:24:18.112Z,french_447.wav,0,pull,246,42,5,5,français,Male,2,0.2,-86.84595189,1.40793423
599f00c54d25e800012fc9a6,146,2,2024-02-27T09:24:18.112Z,french_447.wav,0,pull,246,42,5,5,français,Male,3,0.25666667,-28.81346371,0.16835643
599f00c54d25e800012fc9a6,147,2,2024-02-27T09:24:18.112Z,french_307.wav,0,pull,238,42,5,5,français,Male,0,0.0,1.2534749,1.28672407
599f00c54d25e800012fc9a6,147,2,2024-02-27T09:24:18.112Z,french_307.wav,0,pull,238,42,5,5,français,Male,1,0.1,79.3326992,0.47718292
599f00c54d25e800012fc9a6,147,2,2024-02-27T09:24:18.112Z,french_307.wav,0,pull,238,42,5,5,français,Male,2,0.2,24.93038066,1.37451018
599f00c54d25e800012fc9a6,147,2,2024-02-27T09:24:18.112Z,french_307.wav,0,pull,238,42,5,5,français,Male,3,0.25666667,-37.26133342,1.21026525
599f00c54d25e800012fc9a6,148,2,2024-02-27T09:24:18.112Z,french_373.wav,0,pull,119,42,5,5,français,Male,0,0.0,27.88559689,1.35161412
599f00c54d25e800012fc9a6,148,2,2024-02-27T09:24:18.112Z,french_373.wav,0,pull,119,42,5,5,français,Male,1,0.1,61.41244142,1.00997609
599f00c54d25e800012fc9a6,148,2,2024-02-27T09:24:18.112Z,french_373.wav,0,pull,119,42,5,5,français,Male,2,0.2,37.97273047,1.87297461
599f00c54d25e800012fc9a6,148,2,2024-02-27T09:24:18.112Z,french_373.wav,0,pull,119,42,5,5,français,Male,3,0.25666667,-82.72738113,0.97441242
599f00c54d25e800012fc9a6,149,2,2024-02-27T09:24:18.112Z,french_390.wav,0,pull,266,42,5,5,français,Male,0,0.0,13.63716389,0.73987932
599f00c54d25e800012fc9a6,149,2,2024-02-27T09:24:18.112Z,french_390.wav,0,pull,266,42,5,5,français,Male,1,0.1,-61.62928039,1.19791102
599f00c54d25e800012fc9a6,149,2,2024-02-27T09:24:18.112Z,french_390.wav,0,pull,266,42,5,5,français,Male,2,0.2,89.99724903,0.30500022
599f00c54d25e800012fc9a6,149,2,2024-02-27T09:24:18.112Z,french_390.wav,0,pull,266,42,5,5,français,Male,3,0.25666667,-99.60285567,1.08417724
599f00c54d25e800012fc9a6,150,3,2024-02-27T09:24:18.112Z,french_817.wav,0,poule,179,42,5,5,français,Male,0,0.0,78.06162864,0.52442488
599f00c54d25e800012fc9a6,150,3,2024-02-27T09:24:18.112Z,french_817.wav,0,poule,179,42,5,5,français,Male,1,0.1,7.60258692,1.548285
599f00c54d25e800012fc9a6,150,3,2024-02-27T09:24:18.112Z,french_817.wav,0,poule,179,42,5,5,français,Male,2,0.2,-72.81657303,0.10823364
599f00c54d25e800012fc9a6,150,3,2024-02-27T09:24:18.112Z,french_817.wav,0,poule,179,42,5,5,français,Male,3,0.25666667,58.9269084,1.31415279
599f00c54d25e800012fc9a6,151,3,2024-02-27T09:24:18.112Z,french_851.wav,0,poule,431,42,5,5,français,Male,0,0.0,-16.14738252,1.77999263
599f00c54d25e800012fc9a6,151,3,2024-02-27T09:24:18.112Z,french_851.wav,0,poule,431,42,5,5,français,Male,1,0.1,19.84507786,0.90385235
599f00c54d25e800012fc9a6,151,3,2024-02-27T09:24:18.112Z,french_851.wav,0,poule,431,42,5,5,français,Male,2,0.2,-46.64792285,0.51993189
599f00c54d25e800012fc9a6,151,3,2024-02-27T09:24:18.112Z,french_851.wav,0,poule,431,42,5,5,français,Male,3,0.25666667,-81.41203514,1.06673989
599f00c54d25e800012fc9a6,152,3,2024-02-27T09:24:18.112Z,french_263.wav,0,poule,309,42,5,5,français,Male,0,0.0,25.02930943,0.29249845
599f00c54d25e800012fc9a6,152,3,2024-02-27T09:24:18.112Z,french_263.wav,0,poule,309,42,5,5,français,Male,1,0.1,77.59070044,1.82268286
599f00c54d25e800012fc9a6,152,3,2024-02-27T09:24:18.112Z,french_263.wav,0,poule,309,42,5,5,français,Male,2,0.2,61.13366196,0.69638669
599f00c54d25e800012fc9a6,152,3,2024-02-27T09:24:18.112Z,french_263.wav,0,poule,309,42,5,5,français,Male,3,0.25666667,-46.58539851,0.57279137
599f00c54d25e800012fc9a6,153,3,2024-02-27T09:24:18.112Z,french_400.wav,0,poule,453,42,5,5,français,Male,0,0.0,-93.78872851,1.79390568
599f00c54d25e800012fc9a6,153,3,2024-02-27T09:24:18.112Z,french_400.wav,0,poule,453,42,5,5,français,Male,1,0.1,52.09991665,0.45516445
599f00c54d25e800012fc9a6,153,3,2024-02-27T09:24:18.112Z,french_400.wav,0,poule,453,42,5,5,français,Male,2,0.2,99.5217597,0.71943881
599f00c54d25e800012fc9a6,153,3,2024-02-27T09:24:18.112Z,french_400.wav,0,poule,453,42,5,5,français,Male,3,0.25666667,34.2913143,0.66600511
599f00c54d25e800012fc9a6,154,3,2024-02-27T09:24:18.112Z,french_850.wav,0,poule,405,42,5,5,français,Male,0,0.0,-88.87179188,0.91597825
599f00c54d25e800012fc9a6,154,3,2024-02-27T09:24:18.112Z,french_850.wav,0,poule,405,42,5,5,français,Male,1,0.1,15.70736636,0.21425776
599f00c54d25e800012fc9a6,154,3,2024-02-27T09:24:18.112Z,french_850.wav,0,poule,405,42,5,5,français,Male,2,0.2,67.7730952,1.52338939
599f00c54d25e800012fc9a6,154,3,2024-02-27T09:24:18.112Z,french_850.wav,0,poule,405,42,5,5,français,Male,3,0.25666667,-20.3872908,0.55241946
599f00c54d25e800012fc9a6,155,3,2024-02-27T09:24:18.112Z,french_941.wav,0,poule,385,42,5,5,français,Male,0,0.0,-66.32571195,0.9896497
599f00c54d25e800012fc9a6,155,3,2024-02-27T09:24:18.112Z,french_941.wav,0,poule,385,42,5,5,français,Male,1,0.1,85.09907795,0.67654191
599f00c54d25e800012fc9a6,155,3,2024-02-27T09:24:18.112Z,french_941.wav,0,poule,385,42,5,5,français,Male,2,0.2,87.37862016,1.4708398
599f00c54d25e800012fc9a6,155,3,2024-02-27T09:24:18.112Z,french_941.wav,0,poule,385,42,5,5,français,Male,3,0.25666667,-18.39108149,0.82969394
599f00c54d25e800012fc9a6,156,3,2024-02-27T09:24:18.112Z,french_878.wav,0,poule,321,42,5,5,français,Male,0,0.0,-11.41587957,1.5495917
599f00c54d25e800012fc9a6,156,3,2024-02-27T09:24:18.112Z,french_878.wav,0,poule,321,42,5,5,français,Male,1,0.1,-52.86145621,0.92573348
599f00c54d25e800012fc9a6,156,3,2024-02-27T09:24:18.112Z,french_878.wav,0,poule,321,42,5,5,français,Male,2,0.2,10.56905128,0.71371417
599f00c54d25e800012fc9a6,156,3,2024-02-27T09:24:18.112Z,french_878.wav,0,poule,321,42,5,5,français,Male,3,0.25666667,87.23323491,0.72785239
599f00c54d25e800012fc9a6,157,3,2024-02-27T09:24:18.112Z,french_524.wav,0,poule,191,42,5,5,français,Male,0,0.0,29.26114001,1.50805134
599f00c54d25e800012fc9a6,157,3,2024-02-27T09:24:18.112Z,french_524.wav,0,poule,191,42,5,5,français,Male,1,0.1,51.10918927,1.00551207
599f00c54d25e800012fc9a6,157,3,2024-02-27T09:24:18.112Z,french_524.wav,0,poule,191,42,5,5,français,Male,2,0.2,-43.7486939,1.81734516
599f00c54d25e800012fc9a6,157,3,2024-02-27T09:24:18.112Z,french_524.wav,0,poule,191,42,5,5,français,Male,3,0.25666667,-29.29338592,0.93830148
599f00c54d25e800012fc9a6,158,3,2024-02-27T09:24:18.112Z,french_305.wav,0,poule,221,42,5,5,français,Male,0,0.0,-54.69953739,0.89911595
599f00c54d25e800012fc9a6,158,3,2024-02-27T09:24:18.112Z,french_305.wav,0,poule,221,42,5,5,français,Male,1,0.1,-55.57420142,0.95414013
599f00c54d25e800012fc9a6,158,3,2024-02-27T09:24:18.112Z,french_305.wav,0,poule,221,42,5,5,français,Male,2,0.2,69.52625069,1.47998422
599f00c54d25e800012fc9a6,158,3,2024-02-27T09:24:18.112Z,french_305.wav,0,poule,221,42,5,5,français,Male,3,0.25666667,-71.2713804,1.78847242
599f00c54d25e800012fc9a6,159,3,2024-02-27T09:24:18.112Z,french_991.wav,0,poule,207,42,5,5,français,Male,0,0.0,-95.18678644,1.24715664
599f00c54d25e800012fc9a6,159,3,2024-02-27T09:24:18.112Z,french_991.wav,0,poule,207,42,5,5,français,Male,1,0.1,-65.70936013,0.64410058
599f00c54d25e800012fc9a6,159,3,2024-02-27T09:24:18.112Z,french_991.wav,0,poule,207,42,5,5,français,Male,2,0.2,44.22545462,0.83152977
599f00c54d25e800012fc9a6,159,3,2024-02-27T09:24:18.112Z,french_991.wav,0,poule,207,42,5,5,français,Male,3,0.25666667,31.01090832,1.93309413
599f00c54d25e800012fc9a6,160,3,2024-02-27T09:24:18.112Z,french_371.wav,0,pull,189,42,5,5,français,Male,0,0.0,31.80119749,0.65227963
599f00c54d25e800012fc9a6,160,3,2024-02-27T09:24:18.112Z,french_371.wav,0,pull,189,42,5,5,français,Male,1,0.1,-38.52135119,1.80763105
599f00c54d25e800012fc9a6,160,3,2024-02-27T09:24:18.112Z,french_371.wav,0,pull,189,42,5,5,français,Male,2,0.2,9.85895876,1.44692227
599f00c54d25e800012fc9a6,160,3,2024-02-27T09:24:18.112Z,french_371.wav,0,pull,189,42,5,5,français,Male,3,0.25666667,79.11511398,1.12716888
599f00c54d25e800012fc9a6,161,3,2024-02-27T09:24:18.112Z,french_209.wav,0,poule,112,42,5,5,français,Male,0,0.0,39.72931143,1.72926101
599f00c54d25e800012fc9a6,161,3,2024-02-27T09:24:18.112Z,french_209.wav,0,poule,112,42,5,5,français,Male,1,0.1,-11.10080972,1.89016293
599f00c54d25e800012fc9a6,161,3,2024-02-27T09:24:18.112Z,french_209.wav,0,poule,112,42,5,5,français,Male,2,0.2,-43.22344663,1.93253512
599f00c54d25e800012fc9a6,161,3,2024-02-27T09:24:18.112Z,french_209.wav,0,poule,112,42,5,5,français,Male,3,0.25666667,-3.52460634,0.82956566
599f00c54d25e800012fc9a6,162,3,2024-02-27T09:24:18.112Z,french_105.wav,0,poule,203,42,5,5,français,Male,0,0.0,-23.09315354,0.81757602
599f00c54d25e800012fc9a6,162,3,2024-02-27T09:24:18.112Z,french_105.wav,0,poule,203,42,5,5,français,Male,1,0.1,-46.9361669,0.98193048
599f00c54d25e800012fc9a6,162,3,2024-02-27T09:24:18.112Z,french_105.wav,0,poule,203,42,5,5,français,Male,2,0.2,-8.58781729,1.53786831
599f00c54d25e800012fc9a6,162,3,2024-02-27T09:24:18.112Z,french_105.wav,0,poule,203,42,5,5,français,Male,3,0.25666667,56.68271074,0.84600103
599f00c54d25e800012fc9a6,163,3,2024-02-27T09:24:18.112Z,french_59.wav,0,poule,263,42,5,5,français,Male,0,0.0,39.36273925,0.85213244
599f00c54d25e800012fc9a6,163,3,2024-02-27T09:24:18.112Z,french_59.wav,0,poule,263,42,5,5,français,Male,1,0.1,-72.05438318,0.54541244
599f00c54d25e800012fc9a6,163,3,2024-02-27T09:24:18.112Z,french_59.wav,0,poule,263,42,5,5,français,Male,2,0.2,-58.73379721,0.77028914
599f00c54d25e800012fc9a6,163,3,2024-02-27T09:24:18.112Z,french_59.wav,0,poule,263,42,5,5,français,Male,3,0.25666667,-71.89754194,0.84538443
599f00c54d25e800012fc9a6,164,3,2024-02-27T09:24:18.112Z,french_701.wav,0,poule,156,42,5,5,français,Male,0,0.0,-44.50216008,0.81644439
599f00c54d25e800012fc9a6,164,3,2024-02-27T09:24:18.112Z,french_701.wav,0,poule,156,42,5,5,français,Male,1,0.1,39.62093866,1.46668212
599f00c54d25e800012fc9a6,164,3,2024-02-27T09:24:18.112Z,french_701.wav,0,poule,156,42,5,5,français,Male,2,0.2,59.49522687,1.68659205
599f00c54d25e800012fc9a6,164,3,2024-02-27T09:24:18.112Z,french_701.wav,0,poule,156,42,5,5,français,Male,3,0.25666667,-55.32580216,1.60664037
599f00c54d25e800012fc9a6,165,3,2024-02-27T09:24:18.112Z,french_841.wav,0,poule,336,42,5,5,français,Male,0,0.0,-39.25619305,0.53587318
599f00c54d25e800012fc9a6,165,3,2024-02-27T09:24:18.112Z,french_841.wav,0,poule,336,42,5,5,français,Male,1,0.1,99.64346723,0.26500163
599f00c54d25e800012fc9a6,165,3,2024-02-27T09:24:18.112Z,french_841.wav,0,poule,336,42,5,5,français,Male,2,0.2,76.90020667,1.77796469
599f00c54d25e800012fc9a6,165,3,2024-02-27T09:24:18.112Z,french_841.wav,0,poule,336,42,5,5,français,Male,3,0.25666667,40.01429738,0.75111943
599f00c54d25e800012fc9a6,166,3,2024-02-27T09:24:18.112Z,french_254.wav,0,poule,220,42,5,5,français,Male,0,0.0,-80.26287383,0.610966
599f00c54d25e800012fc9a6,166,3,2024-02-27T09:24:18.112Z,french_254.wav,0,poule,220,42,5,5,français,Male,1,0.1,-40.33934554,1.74213191
599f00c54d25e800012fc9a6,166,3,2024-02-27T09:24:18.112Z,french_254.wav,0,poule,220,42,5,5,français,Male,2,0.2,63.1875163,0.92287848
599f00c54d25e800012fc9a6,166,3,2024-02-27T09:24:18.112Z,french_254.wav,0,poule,220,42,5,5,français,Male,3,0.25666667,55.87543548,0.4746978
599f00c54d25e800012fc9a6,167,3,2024-02-27T09:24:18.112Z,french_197.wav,0,pull,297,42,5,5,français,Male,0,0.0,-6.69305154,1.22063961
599f00c54d25e800012fc9a6,167,3,2024-02-27T09:24:18.112Z,french_197.wav,0,pull,297,42,5,5,français,Male,1,0.1,23.33285596,0.20505699
599f00c54d25e800012fc9a6,167,3,2024-02-27T09:24:18.112Z,french_197.wav,0,pull,297,42,5,5,français,Male,2,0.2,-47.26714808,1.45150796
599f00c54d25e800012fc9a6,167,3,2024-02-27T09:24:18.112Z,french_197.wav,0,pull,297,42,5,5,français,Male,3,0.25666667,-64.80738279,0.00954455
599f00c54d25e800012fc9a6,168,3,2024-02-27T09:24:18.112Z,french_512.wav,0,pull,454,42,5,5,français,Male,0,0.0,-78.17864001,1.53776746
599f00c54d25e800012fc9a6,168,3,2024-02-27T09:24:18.112Z,french_512.wav,0,pull,454,42,5,5,français,Male,1,0.1,0.33316605,0.01358873
599f00c54d25e800012fc9a6,168,3,2024-02-27T09:24:18.112Z,french_512.wav,0,pull,454,42,5,5,français,Male,2,0.2,-88.66010948,0.2850161
599f00c54d25e800012fc9a6,168,3,2024-02-27T09:24:18.112Z,french_512.wav,0,pull,454,42,5,5,français,Male,3,0.25666667,-69.42732992,0.92419145
599f00c54d25e800012fc9a6,169,3,2024-02-27T09:24:18.112Z,french_670.wav,0,pull,335,42,5,5,français,Male,0,0.0,-38.80852857,0.18324618
599f00c54d25e800012fc9a6,169,3,2024-02-27T09:24:18.112Z,french_670.wav,0,pull,335,42,5,5,français,Male,1,0.1,-8.64332938,0.81857347
599f00c54d25e800012fc9a6,169,3,2024-02-27T09:24:18.112Z,french_670.wav,0,pull,335,42,5,5,français,Male,2,0.2,-55.35683075,1.27404838
599f00c54d25e800012fc9a6,169,3,2024-02-27T09:24:18.112Z,french_670.wav,0,pull,335,42,5,5,français,Male,3,0.25666667,17.57735741,1.12537981
599f00c54d25e800012fc9a6,170,3,2024-02-27T09:24:18.112Z,french_609.wav,0,poule,283,42,5,5,français,Male,0,0.0,11.6890167,1.75568789
599f00c54d25e800012fc9a6,170,3,2024-02-27T09:24:18.112Z,french_609.wav,0,poule,283,42,5,5,français,Male,1,0.1,-35.50971605,1.50542158
599f00c54d25e800012fc9a6,170,3,2024-02-27T09:24:18.112Z,french_609.wav,0,poule,283,42,5,5,français,Male,2,0.2,-98.47760025,0.96032408
599f00c54d25e800012fc9a6,170,3,2024-02-27T09:24:18.112Z,french_609.wav,0,poule,283,42,5,5,français,Male,3,0.25666667,-64.00925784,1.1186533
599f00c54d25e800012fc9a6,171,3,2024-02-27T09:24:18.112Z,french_405.wav,0,pull,482,42,5,5,français,Male,0,0.0,52.22885858,0.59532017
599f00c54d25e800012fc9a6,171,3,2024-02-27T09:24:18.112Z,french_405.wav,0,pull,482,42,5,5,français,Male,1,0.1,18.90294402,0.31881138
599f00c54d25e800012fc9a6,171,3,2024-02-27T09:24:18.112Z,french_405.wav,0,pull,482,42,5,5,français,Male,2,0.2,-84.01769715,1.18035169
599f00c54d25e800012fc9a6,171,3,2024-02-27T09:24:18.112Z,french_405.wav,0,pull,482,42,5,5,français,Male,3,0.25666667,95.02638452,0.2814716
599f00c54d25e800012fc9a6,172,3,2024-02-27T09:24:18.112Z,french_637.wav,0,pull,652,42,5,5,français,Male,0,0.0,35.81604326,0.01301393
599f00c54d25e800012fc9a6,172,3,2024-02-27T09:24:18.112Z,french_637.wav,0,pull,652,42,5,5,français,Male,1,0.1,-3.18432816,0.82513299
599f00c54d25e800012fc9a6,172,3,2024-02-27T09:24:18.112Z,french_637.wav,0,pull,652,42,5,5,français,Male,2,0.2,50.06715701,0.10233849
599f00c54d25e800012fc9a6,172,3,2024-02-27T09:24:18.112Z,french_637.wav,0,pull,652,42,5,5,français,Male,3,0.25666667,13.82838787,0.87921638
599f00c54d25e800012fc9a6,173,3,2024-02-27T09:24:18.112Z,french_857.wav,0,poule,264,42,5,5,français,Male,0,0.0,40.93487779,1.95936394
599f00c54d25e800012fc9a6,173,3,2024-02-27T09:24:18.112Z,french_857.wav,0,poule,264,42,5,5,français,Male,1,0.1,-17.75235864,1.43648621
599f00c54d25e800012fc9a6,173,3,2024-02-27T09:24:18.112Z,french_857.wav,0,poule,264,42,5,5,français,Male,2,0.2,39.31370365,1.12127335
599f00c54d25e800012fc9a6,173,3,2024-02-27T09:24:18.112Z,french_857.wav,0,poule,264,42,5,5,français,Male,3,0.25666667,-10.04228362,0.40363044
599f00c54d25e800012fc9a6,174,3,2024-02-27T09:24:18.112Z,french_673.wav,0,pull,374,42,5,5,français,Male,0,0.0,97.1433432,1.2603
599f00c54d25e800012fc9a6,174,3,2024-02-27T09:24:18.112Z,french_673.wav,0,pull,374,42,5,5,français,Male,1,0.1,1.59516127,0.42137615
599f00c54d25e800012fc9a6,174,3,2024-02-27T09:24:18.112Z,french_673.wav,0,pull,374,42,5,5,français,Male,2,0.2,27.02161491,0.87652171
599f00c54d25e800012fc9a6,174,3,2024-02-27T09:24:18.112Z,french_673.wav,0,pull,374,42,5,5,français,Male,3,0.25666667,62.92522021,1.1230089
599f00c54d25e800012fc9a6,175,3,2024-02-27T09:24:18.112Z,french_427.wav,0,poule,415,42,5,5,français,Male,0,0.0,-76.02138843,1.52776537
599f00c54d25e800012fc9a6,175,3,2024-02-27T09:24:18.112Z,french_427.wav,0,poule,415,42,5,5,français,Male,1,0.1,-79.3514541,0.93213061
599f00c54d25e800012fc9a6,175,3,2024-02-27T09:24:18.112Z,french_427.wav,0,poule,415,42,5,5,français,Male,2,0.2,33.13783193,1.10363763
599f00c54d25e800012fc9a6,175,3,2024-02-27T09:24:18.112Z,french_427.wav,0,poule,415,42,5,5,français,Male,3,0.25666667,-70.0412192,1.44956109
599f00c54d25e800012fc9a6,176,3,2024-02-27T09:24:18.112Z,french_286.wav,0,pull,389,42,5,5,français,Male,0,0.0,-12.75776796,0.7334837
599f00c54d25e800012fc9a6,176,3,2024-02-27T09:24:18.112Z,french_286.wav,0,pull,389,42,5,5,français,Male,1,0.1,37.83162005,0.13945261
599f00c54d25e800012fc9a6,176,3,2024-02-27T09:24:18.112Z,french_286.wav,0,pull,389,42,5,5,français,Male,2,0.2,-73.99987606,0.89700821
599f00c54d25e800012fc9a6,176,3,2024-02-27T09:24:18.112Z,french_286.wav,0,pull,389,42,5,5,français,Male,3,0.25666667,-99.59641202,0.06192005
599f00c54d25e800012fc9a6,177,3,2024-02-27T09:24:18.112Z,french_398.wav,0,poule,164,42,5,5,français,Male,0,0.0,6.24181165,1.03823517
599f00c54d25e800012fc9a6,177,3,2024-02-27T09:24:18.112Z,french_398.wav,0,poule,164,42,5,5,français,Male,1,0.1,-92.25652661,1.54229831
599f00c54d25e800012fc9a6,177,3,2024-02-27T09:24:18.112Z,french_398.wav,0,poule,164,42,5,5,français,Male,2,0.2,-10.16879246,1.61201148
599f00c54d25e800012fc9a6,177,3,2024-02-27T09:24:18.112Z,french_398.wav,0,poule,164,42,5,5,français,Male,3,0.25666667,42.06293659,1.50798312
599f00c54d25e800012fc9a6,178,3,2024-02-27T09:24:18.112Z,french_707.wav,0,poule,230,42,5,5,français,Male,0,0.0,77.25708539,0.72667473
599f00c54d25e800012fc9a6,178,3,2024-02-27T09:24:18.112Z,french_707.wav,0,poule,230,42,5,5,français,Male,1,0.1,-54.8008957,1.98017833
599f00c54d25e800012fc9a6,178,3,2024-02-27T09:24:18.112Z,french_707.wav,0,poule,230,42,5,5,français,Male,2,0.2,-15.62691875,0.70006776
599f00c54d25e800012fc9a6,178,3,2024-02-27T09:24:18.112Z,french_707.wav,0,poule,230,42,5,5,français,Male,3,0.25666667,8.64437522,1.11828401
599f00c54d25e800012fc9a6,179,3,2024-02-27T09:24:18.112Z,french_2.wav,0,poule,172,42,5,5,français,Male,0,0.0,-28.21412584,1.58504822
599f00c54d25e800012fc9a6,179,3,2024-02-27T09:24:18.112Z,french_2.wav,0,poule,172,42,5,5,français,Male,1,0.1,66.62162467,1.83034999
599f00c54d25e800012fc9a6,179,3,2024-02-27T09:24:18.112Z,french_2.wav,0,poule,172,42,5,5,français,Male,2,0.2,16.24659996,0.31217517
599f00c54d25e800012fc9a6,179,3,2024-02-27T09:24:18.112Z,french_2.wav,0,poule,172,42,5,5,français,Male,3,0.25666667,-46.42897327,1.81400659
599f00c54d25e800012fc9a6,180,3,2024-02-27T09:24:18.112Z,french_63.wav,0,pull,366,42,5,5,français,Male,0,0.0,-81.8544396,0.29798693
599f00c54d25e800012fc9a6,180,3,2024-02-27T09:24:18.112Z,french_63.wav,0,pull,366,42,5,5,français,Male,1,0.1,15.35577337,0.29415435
599f00c54d25e800012fc9a6,180,3,2024-02-27T09:24:18.112Z,french_63.wav,0,pull,366,42,5,5,français,Male,2,0.2,-93.67975396,1.48728433
599f00c54d25e800012fc9a6,180,3,2024-02-27T09:24:18.112Z,french_63.wav,0,pull,366,42,5,5,français,Male,3,0.25666667,6.98256112,1.07216934
599f00c54d25e800012fc9a6,181,3,2024-02-27T09:24:18.112Z,french_764.wav,0,poule,232,42,5,5,français,Male,0,0.0,-8.95969579,0.46272501
599f00c54d25e800012fc9a6,181,3,2024-02-27T09:24:18.112Z,french_764.wav,0,poule,232,42,5,5,français,Male,1,0.1,5.11158076,1.84250995
599f00c54d25e800012fc9a6,181,3,2024-02-27T09:24:18.112Z,french_764.wav,0,poule,232,42,5,5,français,Male,2,0.2,3.7358826,0.71585727
599f00c54d25e800012fc9a6,181,3,2024-02-27T09:24:18.112Z,french_764.wav,0,poule,232,42,5,5,français,Male,3,0.25666667,-14.74224302,0.58101627
599f00c54d25e800012fc9a6,182,3,2024-02-27T09:24:18.112Z,french_358.wav,0,poule,306,42,5,5,français,Male,0,0.0,-21.88755711,1.21014447
599f00c54d25e800012fc9a6,182,3,2024-02-27T09:24:18.112Z,french_358.wav,0,poule,306,42,5,5,français,Male,1,0.1,-5.628981,1.2650669
599f00c54d25e800012fc9a6,182,3,2024-02-27T09:24:18.112Z,french_358.wav,0,poule,306,42,5,5,français,Male,2,0.2,-60.01307733,0.97277603
599f00c54d25e800012fc9a6,182,3,2024-02-27T09:24:18.112Z,french_358.wav,0,poule,306,42,5,5,français,Male,3,0.25666667,65.58947466,0.28969343
599f00c54d25e800012fc9a6,183,3,2024-02-27T09:24:18.112Z,french_192.wav,0,poule,274,42,5,5,français,Male,0,0.0,73.17690414,1.47156363
599f00c54d25e800012fc9a6,183,3,2024-02-27T09:24:18.112Z,french_192.wav,0,poule,274,42,5,5,français,Male,1,0.1,14.65884197,0.92412776
599f00c54d25e800012fc9a6,183,3,2024-02-27T09:24:18.112Z,french_192.wav,0,poule,274,42,5,5,français,Male,2,0.2,-6.29840632,0.27182316
599f00c54d25e800012fc9a6,183,3,2024-02-27T09:24:18.112Z,french_192.wav,0,poule,274,42,5,5,français,Male,3,0.25666667,-32.28340249,1.34820636
599f00c54d25e800012fc9a6,184,3,2024-02-27T09:24:18.112Z,french_988.wav,0,pull,340,42,5,5,français,Male,0,0.0,-4.11470775,0.28957615
599f00c54d25e800012fc9a6,184,3,2024-02-27T09:24:18.112Z,french_988.wav,0,pull,340,42,5,5,français,Male,1,0.1,-66.00013865,0.7977557
599f00c54d25e800012fc9a6,184,3,2024-02-27T09:24:18.112Z,french_988.wav,0,pull,340,42,5,5,français,Male,2,0.2,59.59027652,1.24206297
599f00c54d25e800012fc9a6,184,3,2024-02-27T09:24:18.112Z,french_988.wav,0,pull,340,42,5,5,français,Male,3,0.25666667,0.47429662,1.11640868
599f00c54d25e800012fc9a6,185,3,2024-02-27T09:24:18.112Z,french_86.wav,0,poule,206,42,5,5,français,Male,0,0.0,-13.34839912,1.5394535
599f00c54d25e800012fc9a6,185,3,2024-02-27T09:24:18.112Z,french_86.wav,0,poule,206,42,5,5,français,Male,1,0.1,-0.15074382,0.88064418
599f00c54d25e800012fc9a6,185,3,2024-02-27T09:24:18.112Z,french_86.wav,0,poule,206,42,5,5,français,Male,2,0.2,25.45831569,1.66652907
599f00c54d25e800012fc9a6,185,3,2024-02-27T09:24:18.112Z,french_86.wav,0,poule,206,42,5,5,français,Male,3,0.25666667,48.27326553,0.20293469
599f00c54d25e800012fc9a6,186,3,2024-02-27T09:24:18.112Z,french_642.wav,0,poule,442,42,5,5,français,Male,0,0.0,94.74505174,1.94145252
