subj,sex,age,language,english,french,native_lang,date,practice,block,trial,stim,pitch,stretch,response,rt
8723415159,f,25,english,4,5,french,2024-01-25 10:40:17.232188,True,0,0,sounds\french\audio/french_98.wav,"[[  0.          -5.34356544]
 [  0.1        -51.77157259]
 [  0.2         16.6615471 ]
 [  0.25666667 -37.68560636]]","[[0.         0.47275823]
 [0.1        0.98771666]
 [0.2        0.01400035]
 [0.25666667 0.42827786]]",0,5.115
8723415159,f,25,english,4,5,french,2024-01-25 10:40:17.232188,True,0,1,sounds\french\audio/french_372.wav,"[[  0.           2.47243072]
 [  0.1        -60.42501292]
 [  0.2        -16.68820648]
 [  0.25666667  27.86473169]]","[[0.         0.40204166]
 [0.1        1.5432551 ]
 [0.2        1.17639585]
 [0.25666667 1.5977063 ]]",0,5.819
8723415159,f,25,english,4,5,french,2024-01-25 10:40:17.232188,True,0,2,sounds\french\audio/french_814.wav,"[[  0.          83.0056253 ]
 [  0.1        -71.4586846 ]
 [  0.2         12.63844789]
 [  0.25666667  12.39326704]]","[[0.         1.4499936 ]
 [0.1        0.77595229]
 [0.2        0.21302651]
 [0.25666667 0.16177964]]",0,5.558
8723415159,f,25,english,4,5,french,2024-01-25 10:40:17.232188,False,1,3,sounds\french\audio/french_952.wav,"[[  0.          89.6944408 ]
 [  0.1         29.6191185 ]
 [  0.2         82.60414553]
 [  0.25666667 -20.57336344]]","[[0.         1.65049473]
 [0.1        0.9962644 ]
 [0.2        0.25471402]
 [0.25666667 0.85149117]]",0,2.155
8723415159,f,25,english,4,5,french,2024-01-25 10:40:17.232188,False,1,4,sounds\french\audio/french_432.wav,"[[  0.          41.78718943]
 [  0.1        -73.8341876 ]
 [  0.2          2.46605077]
 [  0.25666667  -5.34058627]]","[[0.         1.64767318]
 [0.1        1.66923601]
 [0.2        1.63004177]
 [0.25666667 1.91522166]]",1,2.448
8723415159,f,25,english,4,5,french,2024-01-25 10:40:17.232188,False,1,5,sounds\french\audio/french_171.wav,"[[ 0.         13.3023016 ]
 [ 0.1        25.29505215]
 [ 0.2        -4.58061697]
 [ 0.25666667 34.76288366]]","[[0.         1.00497926]
 [0.1        0.58011724]
 [0.2        1.99843941]
 [0.25666667 1.29013512]]",0,4.023
8723415159,f,25,english,4,5,french,2024-01-25 10:40:17.232188,False,1,6,sounds\french\audio/french_813.wav,"[[  0.         -37.07388554]
 [  0.1         74.87893645]
 [  0.2        -91.66198227]
 [  0.25666667  81.38219901]]","[[0.         0.1380457 ]
 [0.1        0.44333359]
 [0.2        0.5462976 ]
 [0.25666667 1.94163826]]",1,2.546
8723415159,f,25,english,4,5,french,2024-01-25 10:40:17.232188,False,1,7,sounds\french\audio/french_878.wav,"[[  0.         -11.41587957]
 [  0.1        -52.86145621]
 [  0.2         10.56905128]
 [  0.25666667  87.23323491]]","[[0.         1.5495917 ]
 [0.1        0.92573348]
 [0.2        0.71371417]
 [0.25666667 0.72785239]]",1,1.589
8723415159,f,25,english,4,5,french,2024-01-25 10:40:17.232188,False,1,8,sounds\french\audio/french_671.wav,"[[  0.         -43.02390558]
 [  0.1         13.89093856]
 [  0.2          3.48608914]
 [  0.25666667 -98.36263583]]","[[0.         0.93196934]
 [0.1        1.15314194]
 [0.2        0.54353121]
 [0.25666667 1.08598707]]",1,4.803
8723415159,f,25,english,4,5,french,2024-01-25 10:40:17.232188,False,1,9,sounds\french\audio/french_46.wav,"[[  0.         -59.72524318]
 [  0.1        -28.22082853]
 [  0.2          2.0739194 ]
 [  0.25666667 -12.25343829]]","[[0.         1.59606806]
 [0.1        1.01173367]
 [0.2        0.40164164]
 [0.25666667 1.6352238 ]]",0,1.847
8723415159,f,25,english,4,5,french,2024-01-25 10:40:17.232188,False,1,10,sounds\french\audio/french_172.wav,"[[ 0.         48.7065843 ]
 [ 0.1        36.17213003]
 [ 0.2        22.16215467]
 [ 0.25666667  3.80373218]]","[[0.         1.72774852]
 [0.1        0.94223675]
 [0.2        1.06724209]
 [0.25666667 1.19623342]]",1,4.421
8723415159,f,25,english,4,5,french,2024-01-25 10:40:17.232188,False,1,11,sounds\french\audio/french_966.wav,"[[  0.          94.80811126]
 [  0.1        -90.73743651]
 [  0.2         94.60686235]
 [  0.25666667 -83.76406221]]","[[0.         1.26057873]
 [0.1        1.58996588]
 [0.2        0.08752829]
 [0.25666667 0.32239013]]",0,1.626
8723415159,f,25,english,4,5,french,2024-01-25 10:40:17.232188,False,1,12,sounds\french\audio/french_307.wav,"[[  0.           1.2534749 ]
 [  0.1         79.3326992 ]
 [  0.2         24.93038066]
 [  0.25666667 -37.26133342]]","[[0.         1.28672407]
 [0.1        0.47718292]
 [0.2        1.37451018]
 [0.25666667 1.21026525]]",0,2.512
8723415159,f,25,english,4,5,french,2024-01-25 10:40:17.232188,False,1,13,sounds\french\audio/french_476.wav,"[[  0.         -83.79523633]
 [  0.1         62.15522278]
 [  0.2        -62.9629606 ]
 [  0.25666667  29.80880048]]","[[0.         0.72975737]
 [0.1        1.65535888]
 [0.2        1.94146275]
 [0.25666667 1.32492406]]",1,0.728
8723415159,f,25,english,4,5,french,2024-01-25 10:40:17.232188,False,1,14,sounds\french\audio/french_933.wav,"[[  0.         -24.27897726]
 [  0.1         45.4380102 ]
 [  0.2         44.52165476]
 [  0.25666667  11.96128215]]","[[0.         0.66366025]
 [0.1        1.16686233]
 [0.2        0.86083852]
 [0.25666667 1.88972919]]",1,1.603
8723415159,f,25,english,4,5,french,2024-01-25 10:40:17.232188,False,1,15,sounds\french\audio/french_83.wav,"[[ 0.         45.44740295]
 [ 0.1        42.82646372]
 [ 0.2        -9.21139132]
 [ 0.25666667 30.29486893]]","[[0.         0.80263788]
 [0.1        1.96742974]
 [0.2        0.40483772]
 [0.25666667 0.1024326 ]]",1,1.171
8723415159,f,25,english,4,5,french,2024-01-25 10:40:17.232188,False,1,16,sounds\french\audio/french_481.wav,"[[  0.         -44.05926666]
 [  0.1         85.82418432]
 [  0.2         87.54559417]
 [  0.25666667  50.04191005]]","[[0.         1.24899263]
 [0.1        1.22078865]
 [0.2        0.10859618]
 [0.25666667 0.19634609]]",1,2.443
8723415159,f,25,english,4,5,french,2024-01-25 10:40:17.232188,False,1,17,sounds\french\audio/french_437.wav,"[[  0.          59.70067771]
 [  0.1         78.61233767]
 [  0.2         76.18154157]
 [  0.25666667 -54.28538078]]","[[0.         0.22659206]
 [0.1        0.85429053]
 [0.2        1.36297282]
 [0.25666667 1.46039745]]",1,1.811
8723415159,f,25,english,4,5,french,2024-01-25 10:40:17.232188,False,1,18,sounds\french\audio/french_264.wav,"[[  0.         -17.29134877]
 [  0.1        -10.91480705]
 [  0.2        -52.17023247]
 [  0.25666667 -37.31404804]]","[[0.         0.96448196]
 [0.1        1.52626855]
 [0.2        1.44831705]
 [0.25666667 1.66094276]]",1,0.82
8723415159,f,25,english,4,5,french,2024-01-25 10:40:17.232188,False,1,19,sounds\french\audio/french_839.wav,"[[ 0.         11.03740457]
 [ 0.1        23.46119987]
 [ 0.2        -0.31614798]
 [ 0.25666667 62.63183259]]","[[0.         0.76467652]
 [0.1        0.76268055]
 [0.2        1.64444165]
 [0.25666667 0.69482811]]",1,1.198
8723415159,f,25,english,4,5,french,2024-01-25 10:40:17.232188,False,1,20,sounds\french\audio/french_857.wav,"[[  0.          40.93487779]
 [  0.1        -17.75235864]
 [  0.2         39.31370365]
 [  0.25666667 -10.04228362]]","[[0.         1.95936394]
 [0.1        1.43648621]
 [0.2        1.12127335]
 [0.25666667 0.40363044]]",1,2.681
8723415159,f,25,english,4,5,french,2024-01-25 10:40:17.232188,False,1,21,sounds\french\audio/french_27.wav,"[[  0.         -24.90567196]
 [  0.1        -76.22865867]
 [  0.2        -70.77946922]
 [  0.25666667 -40.13018173]]","[[0.         0.77746957]
 [0.1        0.36572894]
 [0.2        1.07248112]
 [0.25666667 1.35477464]]",0,1.904
8723415159,f,25,english,4,5,french,2024-01-25 10:40:17.232188,False,1,22,sounds\french\audio/french_54.wav,"[[ 0.         77.13223303]
 [ 0.1        -5.6152706 ]
 [ 0.2        22.05383838]
 [ 0.25666667 -9.52451309]]","[[0.         0.44302914]
 [0.1        0.26201868]
 [0.2        0.27892   ]
 [0.25666667 0.30908576]]",0,1.117
8723415159,f,25,english,4,5,french,2024-01-25 10:40:17.232188,False,1,23,sounds\french\audio/french_891.wav,"[[ 0.         36.15157251]
 [ 0.1         9.92087077]
 [ 0.2        64.79051962]
 [ 0.25666667 25.43576317]]","[[0.         0.11830574]
 [0.1        0.00778599]
 [0.2        0.40739404]
 [0.25666667 0.71071781]]",0,1.078
8723415159,f,25,english,4,5,french,2024-01-25 10:40:17.232188,False,1,24,sounds\french\audio/french_194.wav,"[[  0.          82.45325258]
 [  0.1         88.9094727 ]
 [  0.2        -44.07936747]
 [  0.25666667  97.80970813]]","[[0.         0.54112087]
 [0.1        0.47601939]
 [0.2        1.71905709]
 [0.25666667 1.16289195]]",0,3.857
8723415159,f,25,english,4,5,french,2024-01-25 10:40:17.232188,False,1,25,sounds\french\audio/french_644.wav,"[[  0.           8.48376577]
 [  0.1          5.7720639 ]
 [  0.2        -22.58890758]
 [  0.25666667 -77.55637272]]","[[0.         1.03282428]
 [0.1        1.52915319]
 [0.2        0.21561806]
 [0.25666667 0.23424831]]",1,0.873
8723415159,f,25,english,4,5,french,2024-01-25 10:40:17.232188,False,1,26,sounds\french\audio/french_211.wav,"[[  0.          26.09911827]
 [  0.1         37.88219535]
 [  0.2         25.3370042 ]
 [  0.25666667 -31.50750366]]","[[0.         0.38797522]
 [0.1        0.97106999]
 [0.2        0.82384696]
 [0.25666667 0.88987221]]",1,1.934
8723415159,f,25,english,4,5,french,2024-01-25 10:40:17.232188,False,1,27,sounds\french\audio/french_396.wav,"[[  0.         -42.7744445 ]
 [  0.1          3.59774391]
 [  0.2        -86.41595133]
 [  0.25666667  76.20152203]]","[[0.         0.31798537]
 [0.1        0.67756986]
 [0.2        1.44355676]
 [0.25666667 1.44326023]]",0,0.863
8723415159,f,25,english,4,5,french,2024-01-25 10:40:17.232188,False,1,28,sounds\french\audio/french_318.wav,"[[  0.          51.46520294]
 [  0.1         86.78866558]
 [  0.2        -10.27725715]
 [  0.25666667   9.68065634]]","[[0.         0.36120202]
 [0.1        0.00996795]
 [0.2        1.05940341]
 [0.25666667 1.37923943]]",0,0.813
8723415159,f,25,english,4,5,french,2024-01-25 10:40:17.232188,False,1,29,sounds\french\audio/french_214.wav,"[[  0.          76.24554567]
 [  0.1        -45.01894732]
 [  0.2         36.56408721]
 [  0.25666667 -35.03381059]]","[[0.         0.83658468]
 [0.1        0.66247732]
 [0.2        0.57350576]
 [0.25666667 1.70097913]]",0,1.626
8723415159,f,25,english,4,5,french,2024-01-25 10:40:17.232188,False,1,30,sounds\french\audio/french_608.wav,"[[  0.         -21.93815625]
 [  0.1         68.35071967]
 [  0.2        -10.44332041]
 [  0.25666667 -49.43801065]]","[[0.         0.80217517]
 [0.1        1.13802751]
 [0.2        0.09203458]
 [0.25666667 0.18129022]]",0,1.649
8723415159,f,25,english,4,5,french,2024-01-25 10:40:17.232188,False,1,31,sounds\french\audio/french_34.wav,"[[  0.         -97.24360174]
 [  0.1         62.38297295]
 [  0.2        -49.09622703]
 [  0.25666667 -40.35720841]]","[[0.         1.95744133]
 [0.1        1.24423752]
 [0.2        1.91649641]
 [0.25666667 1.03651442]]",1,0.809
8723415159,f,25,english,4,5,french,2024-01-25 10:40:17.232188,False,1,32,sounds\french\audio/french_249.wav,"[[  0.         -14.62389142]
 [  0.1         82.35169727]
 [  0.2        -37.79288698]
 [  0.25666667 -94.5306765 ]]","[[0.         0.54824935]
 [0.1        0.81625332]
 [0.2        0.28914805]
 [0.25666667 0.43241605]]",0,0.731
8723415159,f,25,english,4,5,french,2024-01-25 10:40:17.232188,False,1,33,sounds\french\audio/french_382.wav,"[[  0.         -28.76508335]
 [  0.1         37.36249056]
 [  0.2         12.02014155]
 [  0.25666667 -78.65251684]]","[[0.         1.75225743]
 [0.1        1.09069334]
 [0.2        1.36067751]
 [0.25666667 0.9131152 ]]",1,0.584
8723415159,f,25,english,4,5,french,2024-01-25 10:40:17.232188,False,1,34,sounds\french\audio/french_725.wav,"[[  0.          61.28532458]
 [  0.1         25.43953492]
 [  0.2         31.92964858]
 [  0.25666667 -96.80759498]]","[[0.         0.86285292]
 [0.1        0.5175718 ]
 [0.2        1.72668514]
 [0.25666667 1.79225728]]",1,1.988
8723415159,f,25,english,4,5,french,2024-01-25 10:40:17.232188,False,1,35,sounds\french\audio/french_179.wav,"[[  0.         -38.66887761]
 [  0.1        -45.74367449]
 [  0.2         41.91599006]
 [  0.25666667  36.18860402]]","[[0.         0.36967864]
 [0.1        1.41588785]
 [0.2        1.38004937]
 [0.25666667 1.10239155]]",1,0.837
8723415159,f,25,english,4,5,french,2024-01-25 10:40:17.232188,False,1,36,sounds\french\audio/french_725.wav,"[[  0.          61.28532458]
 [  0.1         25.43953492]
 [  0.2         31.92964858]
 [  0.25666667 -96.80759498]]","[[0.         0.86285292]
 [0.1        0.5175718 ]
 [0.2        1.72668514]
 [0.25666667 1.79225728]]",1,1.951
8723415159,f,25,english,4,5,french,2024-01-25 10:40:17.232188,False,1,37,sounds\french\audio/french_182.wav,"[[  0.          -1.23949724]
 [  0.1         97.8493481 ]
 [  0.2        -69.4259963 ]
 [  0.25666667  68.50854418]]","[[0.         0.32203143]
 [0.1        0.76081704]
 [0.2        1.30995173]
 [0.25666667 1.49369116]]",1,1.414
8723415159,f,25,english,4,5,french,2024-01-25 10:40:17.232188,False,1,38,sounds\french\audio/french_374.wav,"[[  0.          23.12233407]
 [  0.1          4.88786521]
 [  0.2         75.40336837]
 [  0.25666667 -52.23092949]]","[[0.         0.63582229]
 [0.1        0.48218095]
 [0.2        0.81003499]
 [0.25666667 1.31471089]]",0,0.741
8723415159,f,25,english,4,5,french,2024-01-25 10:40:17.232188,False,1,39,sounds\french\audio/french_802.wav,"[[  0.         -73.24347689]
 [  0.1         14.85977478]
 [  0.2        -45.72901481]
 [  0.25666667 -78.69015161]]","[[0.         0.39190156]
 [0.1        1.18064228]
 [0.2        1.4654249 ]
 [0.25666667 0.6030906 ]]",1,0.565
8723415159,f,25,english,4,5,french,2024-01-25 10:40:17.232188,False,1,40,sounds\french\audio/french_136.wav,"[[  0.         -19.24670356]
 [  0.1        -19.07264886]
 [  0.2        -15.66011034]
 [  0.25666667 -21.38655245]]","[[0.         0.58320819]
 [0.1        1.75711633]
 [0.2        0.20485265]
 [0.25666667 0.63500763]]",1,1.117
8723415159,f,25,english,4,5,french,2024-01-25 10:40:17.232188,False,1,41,sounds\french\audio/french_867.wav,"[[  0.         -56.83459408]
 [  0.1        -43.30462201]
 [  0.2        -57.08778715]
 [  0.25666667  26.25433727]]","[[0.         0.56298114]
 [0.1        1.09173708]
 [0.2        1.10722732]
 [0.25666667 0.48299304]]",0,0.756
8723415159,f,25,english,4,5,french,2024-01-25 10:40:17.232188,False,1,42,sounds\french\audio/french_828.wav,"[[  0.          -2.7154125 ]
 [  0.1        -36.83814983]
 [  0.2        -50.98592502]
 [  0.25666667 -48.36073317]]","[[0.         0.72553522]
 [0.1        1.24313396]
 [0.2        0.62544862]
 [0.25666667 1.19233037]]",0,0.811
8723415159,f,25,english,4,5,french,2024-01-25 10:40:17.232188,False,1,43,sounds\french\audio/french_898.wav,"[[  0.         -10.33405821]
 [  0.1         56.62547765]
 [  0.2         26.06756425]
 [  0.25666667  61.22858123]]","[[0.         1.53220968]
 [0.1        1.11219982]
 [0.2        1.10520568]
 [0.25666667 0.66903516]]",1,0.683
8723415159,f,25,english,4,5,french,2024-01-25 10:40:17.232188,False,1,44,sounds\french\audio/french_756.wav,"[[  0.          35.62001521]
 [  0.1         29.8199127 ]
 [  0.2         -2.36977437]
 [  0.25666667 -73.14220453]]","[[0.         0.86430693]
 [0.1        1.17673467]
 [0.2        1.63370718]
 [0.25666667 1.98740672]]",1,1.186
8723415159,f,25,english,4,5,french,2024-01-25 10:40:17.232188,False,1,45,sounds\french\audio/french_231.wav,"[[  0.          15.23586761]
 [  0.1         15.03275874]
 [  0.2        -80.75641997]
 [  0.25666667 -36.14562296]]","[[0.         1.95048297]
 [0.1        1.45451509]
 [0.2        1.67801628]
 [0.25666667 1.39710855]]",1,0.586
8723415159,f,25,english,4,5,french,2024-01-25 10:40:17.232188,False,1,46,sounds\french\audio/french_269.wav,"[[  0.          34.85044548]
 [  0.1         47.51511781]
 [  0.2         34.15302515]
 [  0.25666667 -55.0259295 ]]","[[0.00000000e+00 6.17924031e-04]
 [1.00000000e-01 1.05540646e+00]
 [2.00000000e-01 9.84234213e-01]
 [2.56666667e-01 8.45106618e-01]]",1,4.468
8723415159,f,25,english,4,5,french,2024-01-25 10:40:17.232188,False,1,47,sounds\french\audio/french_322.wav,"[[  0.          11.21723197]
 [  0.1         71.99064207]
 [  0.2        -70.2949895 ]
 [  0.25666667 -90.37135255]]","[[0.         0.46669198]
 [0.1        0.00506582]
 [0.2        0.23170645]
 [0.25666667 0.39597554]]",1,0.996
8723415159,f,25,english,4,5,french,2024-01-25 10:40:17.232188,False,1,48,sounds\french\audio/french_669.wav,"[[0.00000000e+00 7.85638242e-02]
 [1.00000000e-01 6.42084207e+00]
 [2.00000000e-01 8.43922519e+01]
 [2.56666667e-01 1.87399725e+00]]","[[0.         1.32851713]
 [0.1        1.65603836]
 [0.2        1.32676382]
 [0.25666667 0.80161972]]",1,0.835
8723415159,f,25,english,4,5,french,2024-01-25 10:40:17.232188,False,1,49,sounds\french\audio/french_145.wav,"[[  0.          45.95226671]
 [  0.1        -66.66601381]
 [  0.2        -89.77596615]
 [  0.25666667   8.03115864]]","[[0.         0.38136586]
 [0.1        1.38589502]
 [0.2        0.43712509]
 [0.25666667 1.92826262]]",1,0.793
8723415159,f,25,english,4,5,french,2024-01-25 10:40:17.232188,False,1,50,sounds\french\audio/french_117.wav,"[[ 0.          6.74214439]
 [ 0.1         3.15736066]
 [ 0.2        10.42128043]
 [ 0.25666667 89.20041031]]","[[0.         0.42718416]
 [0.1        1.82203077]
 [0.2        0.49696174]
 [0.25666667 0.34350523]]",1,2.44
8723415159,f,25,english,4,5,french,2024-01-25 10:40:17.232188,False,1,51,sounds\french\audio/french_338.wav,"[[  0.         -59.42111132]
 [  0.1        -69.70478814]
 [  0.2        -12.60920347]
 [  0.25666667 -82.44797384]]","[[0.         1.60060286]
 [0.1        0.22517269]
 [0.2        1.52190999]
 [0.25666667 0.82265445]]",1,1.078
8723415159,f,25,english,4,5,french,2024-01-25 10:40:17.232188,False,1,52,sounds\french\audio/french_866.wav,"[[  0.         -60.69074585]
 [  0.1        -41.67968152]
 [  0.2         -8.99838874]
 [  0.25666667  40.83736488]]","[[0.         1.64484001]
 [0.1        0.19415831]
 [0.2        1.20864699]
 [0.25666667 0.81730442]]",1,2.385
8723415159,f,25,english,4,5,french,2024-01-25 10:40:17.232188,False,1,53,sounds\french\audio/french_851.wav,"[[  0.         -16.14738252]
 [  0.1         19.84507786]
 [  0.2        -46.64792285]
 [  0.25666667 -81.41203514]]","[[0.         1.77999263]
 [0.1        0.90385235]
 [0.2        0.51993189]
 [0.25666667 1.06673989]]",1,1.133
8723415159,f,25,english,4,5,french,2024-01-25 10:40:17.232188,False,1,54,sounds\french\audio/french_546.wav,"[[  0.          36.39546499]
 [  0.1        -76.59722628]
 [  0.2        -20.75900546]
 [  0.25666667   8.86958668]]","[[0.         1.70532748]
 [0.1        1.24815266]
 [0.2        1.81852615]
 [0.25666667 0.22376713]]",1,0.882
8723415159,f,25,english,4,5,french,2024-01-25 10:40:17.232188,False,1,55,sounds\french\audio/french_598.wav,"[[  0.          21.68363658]
 [  0.1        -21.32750779]
 [  0.2          7.72514192]
 [  0.25666667 -29.17866519]]","[[0.         1.67467049]
 [0.1        0.64095668]
 [0.2        0.23575639]
 [0.25666667 0.51628457]]",1,3.002
8723415159,f,25,english,4,5,french,2024-01-25 10:40:17.232188,False,1,56,sounds\french\audio/french_401.wav,"[[  0.         -70.28001137]
 [  0.1        -33.39817342]
 [  0.2         31.30905025]
 [  0.25666667  85.09993336]]","[[0.         0.55430578]
 [0.1        1.52055291]
 [0.2        1.05517946]
 [0.25666667 0.68126919]]",1,1.017
8723415159,f,25,english,4,5,french,2024-01-25 10:40:17.232188,False,1,57,sounds\french\audio/french_453.wav,"[[  0.          17.16336321]
 [  0.1        -89.93005254]
 [  0.2         91.22824445]
 [  0.25666667 -84.37948707]]","[[0.         0.53243678]
 [0.1        1.83492113]
 [0.2        1.32944014]
 [0.25666667 0.35681228]]",0,0.72
8723415159,f,25,english,4,5,french,2024-01-25 10:40:17.232188,False,1,58,sounds\french\audio/french_790.wav,"[[  0.         -78.0899986 ]
 [  0.1        -13.38999599]
 [  0.2        -59.88967217]
 [  0.25666667  34.06701256]]","[[0.         0.03777082]
 [0.1        1.54425687]
 [0.2        0.07634696]
 [0.25666667 1.62279479]]",0,1.84
8723415159,f,25,english,4,5,french,2024-01-25 10:40:17.232188,False,1,59,sounds\french\audio/french_245.wav,"[[  0.         -61.74573417]
 [  0.1         71.88692077]
 [  0.2        -28.60272728]
 [  0.25666667  -6.96353839]]","[[0.         0.99313774]
 [0.1        1.19752892]
 [0.2        1.585112  ]
 [0.25666667 1.16753586]]",0,3.166
8723415159,f,25,english,4,5,french,2024-01-25 10:40:17.232188,False,1,60,sounds\french\audio/french_364.wav,"[[  0.         -32.92421433]
 [  0.1        -56.96078069]
 [  0.2         44.72635853]
 [  0.25666667  23.55157996]]","[[0.         1.35253812]
 [0.1        1.83722727]
 [0.2        1.43933089]
 [0.25666667 1.1354083 ]]",1,0.533
8723415159,f,25,english,4,5,french,2024-01-25 10:40:17.232188,False,1,61,sounds\french\audio/french_598.wav,"[[  0.          21.68363658]
 [  0.1        -21.32750779]
 [  0.2          7.72514192]
 [  0.25666667 -29.17866519]]","[[0.         1.67467049]
 [0.1        0.64095668]
 [0.2        0.23575639]
 [0.25666667 0.51628457]]",1,0.964
8723415159,f,25,english,4,5,french,2024-01-25 10:40:17.232188,False,1,62,sounds\french\audio/french_551.wav,"[[  0.         -87.08357851]
 [  0.1         71.56090061]
 [  0.2        -46.55712742]
 [  0.25666667 -57.93002391]]","[[0.         1.2328931 ]
 [0.1        1.28136219]
 [0.2        0.3781059 ]
 [0.25666667 1.42095582]]",1,1.948
8723415159,f,25,english,4,5,french,2024-01-25 10:40:17.232188,False,1,63,sounds\french\audio/french_726.wav,"[[  0.          24.00791096]
 [  0.1        -92.28715444]
 [  0.2        -14.16316682]
 [  0.25666667  30.70182153]]","[[0.         1.57962765]
 [0.1        0.67026409]
 [0.2        0.1799528 ]
 [0.25666667 1.72405897]]",1,0.889
8723415159,f,25,english,4,5,french,2024-01-25 10:40:17.232188,False,1,64,sounds\french\audio/french_513.wav,"[[  0.          84.63539274]
 [  0.1         36.6114333 ]
 [  0.2         14.49628471]
 [  0.25666667 -17.17346171]]","[[0.         1.68726635]
 [0.1        0.88690679]
 [0.2        0.37350839]
 [0.25666667 1.74122924]]",0,1.023
8723415159,f,25,english,4,5,french,2024-01-25 10:40:17.232188,False,1,65,sounds\french\audio/french_21.wav,"[[  0.          54.83693262]
 [  0.1        -44.5884084 ]
 [  0.2        -75.20982548]
 [  0.25666667 -57.69855476]]","[[0.         0.05508037]
 [0.1        0.46211883]
 [0.2        1.96075125]
 [0.25666667 0.5365247 ]]",0,0.76
8723415159,f,25,english,4,5,french,2024-01-25 10:40:17.232188,False,1,66,sounds\french\audio/french_967.wav,"[[  0.          79.70451557]
 [  0.1        -96.60134716]
 [  0.2         12.1279289 ]
 [  0.25666667 -44.3997303 ]]","[[0.         1.26694721]
 [0.1        0.15349476]
 [0.2        0.99393875]
 [0.25666667 1.32782977]]",0,0.682
8723415159,f,25,english,4,5,french,2024-01-25 10:40:17.232188,False,1,67,sounds\french\audio/french_232.wav,"[[  0.          48.62304181]
 [  0.1        -66.91586117]
 [  0.2        -71.38800945]
 [  0.25666667  32.42157584]]","[[0.         1.60041799]
 [0.1        0.5698369 ]
 [0.2        1.21368891]
 [0.25666667 1.05085576]]",0,0.755
8723415159,f,25,english,4,5,french,2024-01-25 10:40:17.232188,False,1,68,sounds\french\audio/french_598.wav,"[[  0.          21.68363658]
 [  0.1        -21.32750779]
 [  0.2          7.72514192]
 [  0.25666667 -29.17866519]]","[[0.         1.67467049]
 [0.1        0.64095668]
 [0.2        0.23575639]
 [0.25666667 0.51628457]]",1,1.087
8723415159,f,25,english,4,5,french,2024-01-25 10:40:17.232188,False,1,69,sounds\french\audio/french_647.wav,"[[  0.         -41.18361869]
 [  0.1         11.48241437]
 [  0.2         60.38354651]
 [  0.25666667  15.78737628]]","[[0.         1.9224231 ]
 [0.1        1.96851625]
 [0.2        1.74064919]
 [0.25666667 1.76296374]]",0,0.597
8723415159,f,25,english,4,5,french,2024-01-25 10:40:17.232188,False,1,70,sounds\french\audio/french_439.wav,"[[  0.          66.25011988]
 [  0.1         46.32034445]
 [  0.2         38.26264731]
 [  0.25666667 -42.53278778]]","[[0.         1.00096297]
 [0.1        0.12322103]
 [0.2        1.5814324 ]
 [0.25666667 0.06125751]]",0,0.805
8723415159,f,25,english,4,5,french,2024-01-25 10:40:17.232188,False,1,71,sounds\french\audio/french_142.wav,"[[  0.         -47.01050856]
 [  0.1         44.85636852]
 [  0.2         82.74517116]
 [  0.25666667 -74.59675421]]","[[0.         0.88751265]
 [0.1        1.13664387]
 [0.2        0.91175928]
 [0.25666667 0.66352734]]",0,1.347
8723415159,f,25,english,4,5,french,2024-01-25 10:40:17.232188,False,1,72,sounds\french\audio/french_463.wav,"[[  0.         -19.30652055]
 [  0.1         40.7979064 ]
 [  0.2         73.8964325 ]
 [  0.25666667 -55.7146218 ]]","[[0.         0.66062429]
 [0.1        1.38698103]
 [0.2        0.77621561]
 [0.25666667 0.65457598]]",1,1.542
8723415159,f,25,english,4,5,french,2024-01-25 10:40:17.232188,False,1,73,sounds\french\audio/french_104.wav,"[[  0.         -10.23090517]
 [  0.1         92.61712743]
 [  0.2          0.22426759]
 [  0.25666667  32.30673442]]","[[0.         1.0322013 ]
 [0.1        0.84344174]
 [0.2        1.03962656]
 [0.25666667 1.9472426 ]]",1,2.934
8723415159,f,25,english,4,5,french,2024-01-25 10:40:17.232188,False,1,74,sounds\french\audio/french_913.wav,"[[  0.           5.31236155]
 [  0.1        -59.65057946]
 [  0.2         27.87230438]
 [  0.25666667 -58.49443874]]","[[0.         1.37558602]
 [0.1        0.3561265 ]
 [0.2        1.61604884]
 [0.25666667 0.97981321]]",1,2.935
8723415159,f,25,english,4,5,french,2024-01-25 10:40:17.232188,False,1,75,sounds\french\audio/french_649.wav,"[[  0.         -26.84796804]
 [  0.1         90.50092835]
 [  0.2        -42.32642697]
 [  0.25666667  -6.05454316]]","[[0.         0.38564107]
 [0.1        0.07645681]
 [0.2        0.18898029]
 [0.25666667 0.88659006]]",0,1.207
8723415159,f,25,english,4,5,french,2024-01-25 10:40:17.232188,False,1,76,sounds\french\audio/french_739.wav,"[[  0.         -65.51142402]
 [  0.1         67.74002461]
 [  0.2        -44.34086757]
 [  0.25666667  26.46822732]]","[[0.         1.38110817]
 [0.1        1.74639645]
 [0.2        0.59251892]
 [0.25666667 0.96604097]]",1,1.167
8723415159,f,25,english,4,5,french,2024-01-25 10:40:17.232188,False,1,77,sounds\french\audio/french_331.wav,"[[  0.         -65.4197333 ]
 [  0.1        -42.63112693]
 [  0.2        -74.29271092]
 [  0.25666667 -22.37665177]]","[[0.         1.29365297]
 [0.1        1.19213918]
 [0.2        0.93002313]
 [0.25666667 1.59897964]]",1,1.185
8723415159,f,25,english,4,5,french,2024-01-25 10:40:17.232188,False,1,78,sounds\french\audio/french_288.wav,"[[  0.          -9.24929425]
 [  0.1         97.18434129]
 [  0.2         -8.99940005]
 [  0.25666667 -80.67587563]]","[[0.         1.2144441 ]
 [0.1        0.01267679]
 [0.2        1.13720482]
 [0.25666667 1.56801852]]",0,1.714
8723415159,f,25,english,4,5,french,2024-01-25 10:40:17.232188,False,1,79,sounds\french\audio/french_594.wav,"[[  0.         -77.17245549]
 [  0.1         -9.42910309]
 [  0.2         28.840902  ]
 [  0.25666667 -27.68960177]]","[[0.         1.803544  ]
 [0.1        1.0387293 ]
 [0.2        1.64762654]
 [0.25666667 0.23150428]]",0,1.956
8723415159,f,25,english,4,5,french,2024-01-25 10:40:17.232188,False,1,80,sounds\french\audio/french_676.wav,"[[  0.          77.51634327]
 [  0.1        -98.7950763 ]
 [  0.2        -10.44477989]
 [  0.25666667   3.71960258]]","[[0.         0.52312795]
 [0.1        0.58996043]
 [0.2        1.89966038]
 [0.25666667 0.61903343]]",1,2.312
8723415159,f,25,english,4,5,french,2024-01-25 10:40:17.232188,False,1,81,sounds\french\audio/french_919.wav,"[[  0.         -50.18617417]
 [  0.1        -24.76321709]
 [  0.2        -27.90521194]
 [  0.25666667  55.47311868]]","[[0.         1.92623259]
 [0.1        1.20800331]
 [0.2        0.01078602]
 [0.25666667 0.27796628]]",1,2.397
8723415159,f,25,english,4,5,french,2024-01-25 10:40:17.232188,False,1,82,sounds\french\audio/french_472.wav,"[[  0.          -9.46806957]
 [  0.1         45.81973918]
 [  0.2        -32.95266456]
 [  0.25666667 -10.56557549]]","[[0.         0.85855516]
 [0.1        1.60383991]
 [0.2        0.80244772]
 [0.25666667 1.48234138]]",1,11.83
8723415159,f,25,english,4,5,french,2024-01-25 10:40:17.232188,False,1,83,sounds\french\audio/french_799.wav,"[[  0.         -36.40535669]
 [  0.1         61.69828746]
 [  0.2         66.97541187]
 [  0.25666667 -86.21475416]]","[[0.         1.51597666]
 [0.1        0.87708619]
 [0.2        1.35480731]
 [0.25666667 0.58642825]]",0,2.094
8723415159,f,25,english,4,5,french,2024-01-25 10:40:17.232188,False,1,84,sounds\french\audio/french_528.wav,"[[  0.          88.85530458]
 [  0.1        -87.19636625]
 [  0.2        -45.08147721]
 [  0.25666667  86.03081593]]","[[0.         1.69331748]
 [0.1        0.73621757]
 [0.2        0.82405603]
 [0.25666667 0.01123483]]",0,0.955
8723415159,f,25,english,4,5,french,2024-01-25 10:40:17.232188,False,1,85,sounds\french\audio/french_963.wav,"[[ 0.         47.65214736]
 [ 0.1         6.38608236]
 [ 0.2        90.58649254]
 [ 0.25666667 -7.76898595]]","[[0.         0.44378955]
 [0.1        0.94107122]
 [0.2        1.48470349]
 [0.25666667 1.98203536]]",0,2.037
8723415159,f,25,english,4,5,french,2024-01-25 10:40:17.232188,False,1,86,sounds\french\audio/french_862.wav,"[[  0.          99.41401176]
 [  0.1         35.25307956]
 [  0.2        -56.34938096]
 [  0.25666667 -51.21225279]]","[[0.         0.02807195]
 [0.1        0.7885189 ]
 [0.2        0.76649358]
 [0.25666667 1.75346492]]",0,0.876
8723415159,f,25,english,4,5,french,2024-01-25 10:40:17.232188,False,1,87,sounds\french\audio/french_392.wav,"[[  0.         -11.14407327]
 [  0.1        -20.38505303]
 [  0.2         21.27154916]
 [  0.25666667 -29.54267832]]","[[0.         1.55151156]
 [0.1        0.49285085]
 [0.2        0.56092788]
 [0.25666667 1.54424804]]",1,0.864
8723415159,f,25,english,4,5,french,2024-01-25 10:40:17.232188,False,1,88,sounds\french\audio/french_678.wav,"[[  0.           8.99494286]
 [  0.1         56.3447022 ]
 [  0.2        -85.36803825]
 [  0.25666667 -65.39277698]]","[[0.         0.31277465]
 [0.1        0.04822955]
 [0.2        0.03738606]
 [0.25666667 1.60364947]]",0,0.652
8723415159,f,25,english,4,5,french,2024-01-25 10:40:17.232188,False,1,89,sounds\french\audio/french_963.wav,"[[ 0.         47.65214736]
 [ 0.1         6.38608236]
 [ 0.2        90.58649254]
 [ 0.25666667 -7.76898595]]","[[0.         0.44378955]
 [0.1        0.94107122]
 [0.2        1.48470349]
 [0.25666667 1.98203536]]",1,0.869
8723415159,f,25,english,4,5,french,2024-01-25 10:40:17.232188,False,1,90,sounds\french\audio/french_709.wav,"[[  0.         -79.1228884 ]
 [  0.1        -27.45222572]
 [  0.2        -11.54770291]
 [  0.25666667 -99.06734201]]","[[0.         1.66046785]
 [0.1        0.50815509]
 [0.2        1.01994244]
 [0.25666667 1.8368488 ]]",0,2.521
8723415159,f,25,english,4,5,french,2024-01-25 10:40:17.232188,False,1,91,sounds\french\audio/french_763.wav,"[[  0.         -96.72958763]
 [  0.1         95.66434095]
 [  0.2        -84.28875962]
 [  0.25666667 -41.37848175]]","[[0.         0.69845728]
 [0.1        1.4089076 ]
 [0.2        1.74428554]
 [0.25666667 0.12054272]]",0,3.13
8723415159,f,25,english,4,5,french,2024-01-25 10:40:17.232188,False,1,92,sounds\french\audio/french_775.wav,"[[  0.         -25.73289632]
 [  0.1         52.55800123]
 [  0.2        -82.88064372]
 [  0.25666667  71.02003497]]","[[0.         0.08278175]
 [0.1        0.7848412 ]
 [0.2        1.99473571]
 [0.25666667 0.87564379]]",1,3.283
8723415159,f,25,english,4,5,french,2024-01-25 10:40:17.232188,False,1,93,sounds\french\audio/french_225.wav,"[[  0.          29.07754255]
 [  0.1         99.63110947]
 [  0.2        -11.85966914]
 [  0.25666667 -24.94738594]]","[[0.         1.10473325]
 [0.1        0.86614983]
 [0.2        1.10071   ]
 [0.25666667 1.32437332]]",1,1.658
8723415159,f,25,english,4,5,french,2024-01-25 10:40:17.232188,False,1,94,sounds\french\audio/french_567.wav,"[[ 0.         27.43626477]
 [ 0.1        41.78362701]
 [ 0.2        54.76706712]
 [ 0.25666667 32.83264266]]","[[0.         1.24283832]
 [0.1        1.94246111]
 [0.2        1.04642714]
 [0.25666667 0.77358904]]",0,1.171
8723415159,f,25,english,4,5,french,2024-01-25 10:40:17.232188,False,1,95,sounds\french\audio/french_878.wav,"[[  0.         -11.41587957]
 [  0.1        -52.86145621]
 [  0.2         10.56905128]
 [  0.25666667  87.23323491]]","[[0.         1.5495917 ]
 [0.1        0.92573348]
 [0.2        0.71371417]
 [0.25666667 0.72785239]]",0,0.593
8723415159,f,25,english,4,5,french,2024-01-25 10:40:17.232188,False,1,96,sounds\french\audio/french_578.wav,"[[  0.          -7.38817871]
 [  0.1        -62.82402322]
 [  0.2        -74.03812343]
 [  0.25666667 -40.1929109 ]]","[[0.         1.21970749]
 [0.1        1.48191428]
 [0.2        0.32639168]
 [0.25666667 0.05147762]]",0,0.986
8723415159,f,25,english,4,5,french,2024-01-25 10:40:17.232188,False,1,97,sounds\french\audio/french_365.wav,"[[  0.         -98.04571794]
 [  0.1        -73.67698607]
 [  0.2        -96.43604562]
 [  0.25666667  37.7893414 ]]","[[0.         1.18023288]
 [0.1        1.95707288]
 [0.2        0.58641449]
 [0.25666667 1.65360278]]",1,0.552
8723415159,f,25,english,4,5,french,2024-01-25 10:40:17.232188,False,1,98,sounds\french\audio/french_460.wav,"[[  0.         -46.82547924]
 [  0.1        -89.06595485]
 [  0.2        -15.88362663]
 [  0.25666667 -55.00298372]]","[[0.         0.18532774]
 [0.1        0.73005791]
 [0.2        0.27848928]
 [0.25666667 1.6971829 ]]",0,0.61
8723415159,f,25,english,4,5,french,2024-01-25 10:40:17.232188,False,1,99,sounds\french\audio/french_271.wav,"[[  0.         -86.49285917]
 [  0.1         54.15727338]
 [  0.2        -55.0986676 ]
 [  0.25666667   7.9559813 ]]","[[0.         1.06522616]
 [0.1        1.2372135 ]
 [0.2        1.00925168]
 [0.25666667 0.76785851]]",1,1.214
8723415159,f,25,english,4,5,french,2024-01-25 10:40:17.232188,False,1,100,sounds\french\audio/french_410.wav,"[[  0.         -57.70995681]
 [  0.1         48.77026686]
 [  0.2        -48.38648813]
 [  0.25666667  53.40375253]]","[[0.         0.42078672]
 [0.1        1.91428116]
 [0.2        0.69257086]
 [0.25666667 1.23009328]]",0,1.024
8723415159,f,25,english,4,5,french,2024-01-25 10:40:17.232188,False,1,101,sounds\french\audio/french_713.wav,"[[  0.          93.33204992]
 [  0.1        -15.69856834]
 [  0.2         18.82527382]
 [  0.25666667 -49.17212055]]","[[0.         0.23689023]
 [0.1        0.32059987]
 [0.2        0.78497323]
 [0.25666667 0.28269646]]",0,1.096
8723415159,f,25,english,4,5,french,2024-01-25 10:40:17.232188,False,1,102,sounds\french\audio/french_976.wav,"[[  0.         -70.02335232]
 [  0.1        -61.25816472]
 [  0.2         38.21349803]
 [  0.25666667  27.10323863]]","[[0.         0.30263581]
 [0.1        1.77513966]
 [0.2        0.48920434]
 [0.25666667 1.97348905]]",1,0.644
8723415159,f,25,english,4,5,french,2024-01-25 10:40:17.232188,False,1,103,sounds\french\audio/french_952.wav,"[[  0.          89.6944408 ]
 [  0.1         29.6191185 ]
 [  0.2         82.60414553]
 [  0.25666667 -20.57336344]]","[[0.         1.65049473]
 [0.1        0.9962644 ]
 [0.2        0.25471402]
 [0.25666667 0.85149117]]",1,1.871
8723415159,f,25,english,4,5,french,2024-01-25 10:40:17.232188,False,1,104,sounds\french\audio/french_763.wav,"[[  0.         -96.72958763]
 [  0.1         95.66434095]
 [  0.2        -84.28875962]
 [  0.25666667 -41.37848175]]","[[0.         0.69845728]
 [0.1        1.4089076 ]
 [0.2        1.74428554]
 [0.25666667 0.12054272]]",1,0.658
8723415159,f,25,english,4,5,french,2024-01-25 10:40:17.232188,False,1,105,sounds\french\audio/french_826.wav,"[[  0.         -33.86739367]
 [  0.1        -31.27966971]
 [  0.2         51.84533444]
 [  0.25666667 -81.13386792]]","[[0.         0.07066528]
 [0.1        0.90490109]
 [0.2        0.66906535]
 [0.25666667 0.4882988 ]]",1,0.579
8723415159,f,25,english,4,5,french,2024-01-25 10:40:17.232188,False,1,106,sounds\french\audio/french_915.wav,"[[  0.         -64.10930236]
 [  0.1         -7.16601985]
 [  0.2        -76.9677693 ]
 [  0.25666667  64.27469246]]","[[0.         0.7615396 ]
 [0.1        1.77142655]
 [0.2        1.45350334]
 [0.25666667 1.62999495]]",1,0.461
8723415159,f,25,english,4,5,french,2024-01-25 10:40:17.232188,False,1,107,sounds\french\audio/french_68.wav,"[[  0.          58.83829029]
 [  0.1         77.59339865]
 [  0.2        -73.88341881]
 [  0.25666667 -24.56901296]]","[[0.         1.80244508]
 [0.1        1.3442738 ]
 [0.2        1.16581557]
 [0.25666667 0.71132336]]",1,0.446
8723415159,f,25,english,4,5,french,2024-01-25 10:40:17.232188,False,1,108,sounds\french\audio/french_347.wav,"[[  0.         -50.57249908]
 [  0.1         -0.96259157]
 [  0.2         56.28626554]
 [  0.25666667  46.89576118]]","[[0.         1.7558536 ]
 [0.1        0.42717605]
 [0.2        1.32943016]
 [0.25666667 0.4771217 ]]",0,1.489
8723415159,f,25,english,4,5,french,2024-01-25 10:40:17.232188,False,1,109,sounds\french\audio/french_375.wav,"[[  0.          25.91972282]
 [  0.1        -60.98407933]
 [  0.2        -55.02276561]
 [  0.25666667  50.70039074]]","[[0.         0.89929791]
 [0.1        0.6101435 ]
 [0.2        1.65353502]
 [0.25666667 0.66964756]]",0,2.592
8723415159,f,25,english,4,5,french,2024-01-25 10:40:17.232188,False,1,110,sounds\french\audio/french_29.wav,"[[ 0.         82.92052959]
 [ 0.1        96.5660735 ]
 [ 0.2        76.1539425 ]
 [ 0.25666667 -7.00195585]]","[[0.         1.65542147]
 [0.1        0.71189304]
 [0.2        0.4523944 ]
 [0.25666667 1.32757755]]",0,3.263
8723415159,f,25,english,4,5,french,2024-01-25 10:40:17.232188,False,1,111,sounds\french\audio/french_72.wav,"[[  0.          87.98067932]
 [  0.1        -81.71579554]
 [  0.2         90.50171836]
 [  0.25666667 -62.13003885]]","[[0.         1.39679477]
 [0.1        1.50716855]
 [0.2        0.40298903]
 [0.25666667 0.67217346]]",1,1.552
8723415159,f,25,english,4,5,french,2024-01-25 10:40:17.232188,False,1,112,sounds\french\audio/french_962.wav,"[[  0.         -23.88621243]
 [  0.1         -2.32674089]
 [  0.2         99.5739753 ]
 [  0.25666667 -60.89946795]]","[[0.         0.58686494]
 [0.1        1.96763724]
 [0.2        0.1339284 ]
 [0.25666667 0.14371278]]",1,0.592
8723415159,f,25,english,4,5,french,2024-01-25 10:40:17.232188,False,1,113,sounds\french\audio/french_993.wav,"[[  0.           3.12847982]
 [  0.1        -78.95304083]
 [  0.2        -13.84245357]
 [  0.25666667  66.66979397]]","[[0.         1.75015027]
 [0.1        0.83743251]
 [0.2        0.53594991]
 [0.25666667 1.46895698]]",1,1.623
8723415159,f,25,english,4,5,french,2024-01-25 10:40:17.232188,False,1,114,sounds\french\audio/french_837.wav,"[[  0.          12.86528577]
 [  0.1         80.83337189]
 [  0.2        -88.94110826]
 [  0.25666667  32.10555955]]","[[0.         1.70928146]
 [0.1        0.14925978]
 [0.2        0.83215091]
 [0.25666667 1.23671449]]",0,0.818
8723415159,f,25,english,4,5,french,2024-01-25 10:40:17.232188,False,1,115,sounds\french\audio/french_436.wav,"[[  0.          21.52139078]
 [  0.1         91.02122448]
 [  0.2         28.53627776]
 [  0.25666667 -78.88687792]]","[[0.         0.27861971]
 [0.1        0.31750307]
 [0.2        0.35857003]
 [0.25666667 1.70163595]]",0,2.345
8723415159,f,25,english,4,5,french,2024-01-25 10:40:17.232188,False,1,116,sounds\french\audio/french_80.wav,"[[  0.          -4.85614904]
 [  0.1        -36.95221558]
 [  0.2        -16.65007611]
 [  0.25666667  57.44018977]]","[[0.         0.67500586]
 [0.1        0.10692408]
 [0.2        1.27299782]
 [0.25666667 0.9780754 ]]",0,0.611
8723415159,f,25,english,4,5,french,2024-01-25 10:40:17.232188,False,1,117,sounds\french\audio/french_508.wav,"[[  0.          40.98112686]
 [  0.1        -56.96831063]
 [  0.2        -35.39284842]
 [  0.25666667 -19.97238517]]","[[0.         1.35724839]
 [0.1        1.54051685]
 [0.2        1.20443674]
 [0.25666667 1.82942033]]",1,0.437
8723415159,f,25,english,4,5,french,2024-01-25 10:40:17.232188,False,1,118,sounds\french\audio/french_544.wav,"[[  0.         -53.15565046]
 [  0.1        -92.4791724 ]
 [  0.2         38.15839594]
 [  0.25666667  24.38113977]]","[[0.         1.35860228]
 [0.1        0.93453098]
 [0.2        0.5056151 ]
 [0.25666667 1.47508   ]]",1,1.786
8723415159,f,25,english,4,5,french,2024-01-25 10:40:17.232188,False,1,119,sounds\french\audio/french_617.wav,"[[  0.         -34.18466024]
 [  0.1         35.41565559]
 [  0.2         59.04414741]
 [  0.25666667  80.0519445 ]]","[[0.         0.10021852]
 [0.1        0.72859392]
 [0.2        0.77782194]
 [0.25666667 1.13599019]]",1,2.511
8723415159,f,25,english,4,5,french,2024-01-25 10:40:17.232188,False,1,120,sounds\french\audio/french_588.wav,"[[  0.           5.6059992 ]
 [  0.1         -3.58339119]
 [  0.2        -47.44163498]
 [  0.25666667  15.68204657]]","[[0.         1.40293782]
 [0.1        1.60743551]
 [0.2        0.8250453 ]
 [0.25666667 1.87203226]]",0,1.02
8723415159,f,25,english,4,5,french,2024-01-25 10:40:17.232188,False,1,121,sounds\french\audio/french_757.wav,"[[  0.          -5.26413125]
 [  0.1         38.836188  ]
 [  0.2        -78.24448509]
 [  0.25666667  87.29383111]]","[[0.         0.41150667]
 [0.1        1.11153135]
 [0.2        1.45974829]
 [0.25666667 0.22730951]]",0,0.733
8723415159,f,25,english,4,5,french,2024-01-25 10:40:17.232188,False,1,122,sounds\french\audio/french_292.wav,"[[  0.          -5.98307963]
 [  0.1        -89.4143915 ]
 [  0.2         50.82370108]
 [  0.25666667 -75.87081721]]","[[0.         1.30181039]
 [0.1        0.71580693]
 [0.2        0.58623796]
 [0.25666667 1.49080339]]",0,0.874
8723415159,f,25,english,4,5,french,2024-01-25 10:40:17.232188,False,1,123,sounds\french\audio/french_873.wav,"[[  0.         -12.1574241 ]
 [  0.1        -18.24590524]
 [  0.2        -68.65561389]
 [  0.25666667 -45.4488766 ]]","[[0.         0.39218062]
 [0.1        1.88422008]
 [0.2        1.05802306]
 [0.25666667 0.58030918]]",1,0.482
8723415159,f,25,english,4,5,french,2024-01-25 10:40:17.232188,False,1,124,sounds\french\audio/french_267.wav,"[[  0.         -65.51042118]
 [  0.1         15.6710232 ]
 [  0.2        -16.59501764]
 [  0.25666667  49.75287867]]","[[0.         0.47900721]
 [0.1        1.08471332]
 [0.2        0.49268798]
 [0.25666667 1.54023863]]",1,0.947
8723415159,f,25,english,4,5,french,2024-01-25 10:40:17.232188,False,1,125,sounds\french\audio/french_426.wav,"[[ 0.         94.83015244]
 [ 0.1        80.74954266]
 [ 0.2        14.22402444]
 [ 0.25666667 92.85203769]]","[[0.         1.95768421]
 [0.1        0.5170286 ]
 [0.2        0.27456075]
 [0.25666667 1.53042381]]",1,1.923
8723415159,f,25,english,4,5,french,2024-01-25 10:40:17.232188,False,1,126,sounds\french\audio/french_152.wav,"[[  0.          -3.84179402]
 [  0.1         56.28738818]
 [  0.2        -25.33799013]
 [  0.25666667 -10.23447911]]","[[0.         0.21245747]
 [0.1        1.74384484]
 [0.2        1.40208126]
 [0.25666667 0.94312755]]",0,1.346
8723415159,f,25,english,4,5,french,2024-01-25 10:40:17.232188,False,1,127,sounds\french\audio/french_741.wav,"[[  0.          52.99239945]
 [  0.1        -62.37721768]
 [  0.2         54.26195155]
 [  0.25666667   8.23350592]]","[[0.         1.20115282]
 [0.1        0.53106937]
 [0.2        1.91925029]
 [0.25666667 0.42380295]]",1,0.662
8723415159,f,25,english,4,5,french,2024-01-25 10:40:17.232188,False,1,128,sounds\french\audio/french_328.wav,"[[  0.         -82.86069205]
 [  0.1        -76.70984367]
 [  0.2        -82.63579977]
 [  0.25666667 -88.21582145]]","[[0.         0.98291516]
 [0.1        1.53428028]
 [0.2        1.97086095]
 [0.25666667 0.71580661]]",0,0.764
8723415159,f,25,english,4,5,french,2024-01-25 10:40:17.232188,False,1,129,sounds\french\audio/french_140.wav,"[[  0.          88.20971648]
 [  0.1        -47.21457526]
 [  0.2        -33.13299566]
 [  0.25666667   6.89149494]]","[[0.         1.40468934]
 [0.1        0.07517377]
 [0.2        0.96987146]
 [0.25666667 0.45515396]]",1,0.743
8723415159,f,25,english,4,5,french,2024-01-25 10:40:17.232188,False,1,130,sounds\french\audio/french_536.wav,"[[  0.          68.67423581]
 [  0.1        -41.0053329 ]
 [  0.2         83.63020031]
 [  0.25666667  91.23175369]]","[[0.         1.72386473]
 [0.1        0.5365144 ]
 [0.2        1.03248729]
 [0.25666667 0.91736707]]",0,0.528
8723415159,f,25,english,4,5,french,2024-01-25 10:40:17.232188,False,1,131,sounds\french\audio/french_301.wav,"[[ 0.         69.85248337]
 [ 0.1        -5.79297453]
 [ 0.2        45.5401504 ]
 [ 0.25666667 54.55962649]]","[[0.         0.52307933]
 [0.1        1.24080119]
 [0.2        0.43993349]
 [0.25666667 1.3035803 ]]",1,2.854
8723415159,f,25,english,4,5,french,2024-01-25 10:40:17.232188,False,1,132,sounds\french\audio/french_187.wav,"[[  0.         -18.61743148]
 [  0.1         27.93687652]
 [  0.2          6.26647606]
 [  0.25666667  58.88972832]]","[[0.         0.79177474]
 [0.1        0.90472294]
 [0.2        1.3885115 ]
 [0.25666667 1.88547829]]",1,3.358
8723415159,f,25,english,4,5,french,2024-01-25 10:40:17.232188,False,1,133,sounds\french\audio/french_820.wav,"[[  0.         -23.2512771 ]
 [  0.1         -3.42093224]
 [  0.2        -78.83822409]
 [  0.25666667 -24.79307177]]","[[0.         0.85914582]
 [0.1        1.44867235]
 [0.2        1.61907263]
 [0.25666667 1.11055267]]",0,1.176
8723415159,f,25,english,4,5,french,2024-01-25 10:40:17.232188,False,1,134,sounds\french\audio/french_955.wav,"[[ 0.         49.41572239]
 [ 0.1        75.37923123]
 [ 0.2         0.1370905 ]
 [ 0.25666667 22.03577701]]","[[0.         1.13440167]
 [0.1        1.49278765]
 [0.2        0.20624254]
 [0.25666667 0.01599226]]",0,0.537
8723415159,f,25,english,4,5,french,2024-01-25 10:40:17.232188,False,1,135,sounds\french\audio/french_267.wav,"[[  0.         -65.51042118]
 [  0.1         15.6710232 ]
 [  0.2        -16.59501764]
 [  0.25666667  49.75287867]]","[[0.         0.47900721]
 [0.1        1.08471332]
 [0.2        0.49268798]
 [0.25666667 1.54023863]]",1,0.689
8723415159,f,25,english,4,5,french,2024-01-25 10:40:17.232188,False,1,136,sounds\french\audio/french_615.wav,"[[  0.         -99.04240885]
 [  0.1        -49.15643876]
 [  0.2        -66.91195639]
 [  0.25666667 -56.29346357]]","[[0.         1.08448469]
 [0.1        1.88363881]
 [0.2        1.28593097]
 [0.25666667 1.82136606]]",0,0.544
8723415159,f,25,english,4,5,french,2024-01-25 10:40:17.232188,False,1,137,sounds\french\audio/french_672.wav,"[[ 0.         -6.36877595]
 [ 0.1        45.21137281]
 [ 0.2        80.52737907]
 [ 0.25666667 83.07440583]]","[[0.         1.19503778]
 [0.1        0.09977323]
 [0.2        0.72738581]
 [0.25666667 0.28099012]]",0,2.871
8723415159,f,25,english,4,5,french,2024-01-25 10:40:17.232188,False,1,138,sounds\french\audio/french_106.wav,"[[  0.         -80.93311261]
 [  0.1          7.33604761]
 [  0.2         53.45287064]
 [  0.25666667 -26.77526802]]","[[0.         0.79978414]
 [0.1        0.87655026]
 [0.2        1.02362607]
 [0.25666667 1.25354946]]",1,0.886
8723415159,f,25,english,4,5,french,2024-01-25 10:40:17.232188,False,1,139,sounds\french\audio/french_361.wav,"[[  0.         -18.04801315]
 [  0.1         93.73679052]
 [  0.2         42.88870655]
 [  0.25666667  45.1087167 ]]","[[0.         1.02641127]
 [0.1        0.21625505]
 [0.2        1.63254817]
 [0.25666667 0.1659632 ]]",1,1.077
8723415159,f,25,english,4,5,french,2024-01-25 10:40:17.232188,False,1,140,sounds\french\audio/french_40.wav,"[[  0.         -78.27349013]
 [  0.1        -11.45872421]
 [  0.2         54.77710365]
 [  0.25666667  77.61698443]]","[[0.         1.3593064 ]
 [0.1        0.13307668]
 [0.2        1.8527892 ]
 [0.25666667 1.82448351]]",0,3.615
8723415159,f,25,english,4,5,french,2024-01-25 10:40:17.232188,False,1,141,sounds\french\audio/french_252.wav,"[[  0.         -68.3996329 ]
 [  0.1         79.02734002]
 [  0.2        -18.50805447]
 [  0.25666667 -85.84066145]]","[[0.         0.41781817]
 [0.1        1.03502761]
 [0.2        0.82044901]
 [0.25666667 1.09163249]]",0,0.657
8723415159,f,25,english,4,5,french,2024-01-25 10:40:17.232188,False,1,142,sounds\french\audio/french_702.wav,"[[  0.         -53.8337347 ]
 [  0.1         13.17722269]
 [  0.2        -63.63948694]
 [  0.25666667  -7.77006894]]","[[0.         0.65995653]
 [0.1        1.48591365]
 [0.2        1.16262137]
 [0.25666667 1.49403865]]",1,0.584
8723415159,f,25,english,4,5,french,2024-01-25 10:40:17.232188,False,1,143,sounds\french\audio/french_491.wav,"[[ 0.00000000e+00  4.86868680e+01]
 [ 1.00000000e-01 -4.81683993e+01]
 [ 2.00000000e-01 -4.23609681e+01]
 [ 2.56666667e-01  2.49582160e-02]]","[[0.         0.42969684]
 [0.1        1.38937301]
 [0.2        1.25630672]
 [0.25666667 0.04562268]]",1,0.823
8723415159,f,25,english,4,5,french,2024-01-25 10:40:17.232188,False,1,144,sounds\french\audio/french_91.wav,"[[  0.          22.16772641]
 [  0.1          4.75787086]
 [  0.2         16.21543539]
 [  0.25666667 -31.35162056]]","[[0.         0.07376739]
 [0.1        1.79269703]
 [0.2        1.59138707]
 [0.25666667 1.67096256]]",1,0.366
8723415159,f,25,english,4,5,french,2024-01-25 10:40:17.232188,False,1,145,sounds\french\audio/french_457.wav,"[[ 0.         42.86960152]
 [ 0.1        79.85160671]
 [ 0.2        98.12255829]
 [ 0.25666667 78.01153847]]","[[0.         1.10156515]
 [0.1        0.90608198]
 [0.2        0.87189229]
 [0.25666667 1.12024719]]",1,0.579
8723415159,f,25,english,4,5,french,2024-01-25 10:40:17.232188,False,1,146,sounds\french\audio/french_896.wav,"[[  0.         -50.03367973]
 [  0.1         73.95849411]
 [  0.2         16.78858773]
 [  0.25666667 -49.02431976]]","[[0.         0.4350745 ]
 [0.1        1.7879982 ]
 [0.2        0.61207276]
 [0.25666667 0.35432813]]",1,0.406
8723415159,f,25,english,4,5,french,2024-01-25 10:40:17.232188,False,1,147,sounds\french\audio/french_605.wav,"[[  0.         -36.16596328]
 [  0.1        -79.4068097 ]
 [  0.2        -61.39154049]
 [  0.25666667  44.72298118]]","[[0.         1.67360444]
 [0.1        0.60127341]
 [0.2        0.37070459]
 [0.25666667 1.73994467]]",1,2.884
8723415159,f,25,english,4,5,french,2024-01-25 10:40:17.232188,False,1,148,sounds\french\audio/french_859.wav,"[[  0.          52.92786792]
 [  0.1         18.54274392]
 [  0.2        -25.06242892]
 [  0.25666667   0.70946668]]","[[0.         1.14238893]
 [0.1        1.12707434]
 [0.2        1.93999144]
 [0.25666667 1.31682519]]",1,1.067
8723415159,f,25,english,4,5,french,2024-01-25 10:40:17.232188,False,1,149,sounds\french\audio/french_727.wav,"[[  0.         -15.29396541]
 [  0.1        -26.29552155]
 [  0.2         79.97121571]
 [  0.25666667  55.89998316]]","[[0.         0.40840987]
 [0.1        0.3000398 ]
 [0.2        1.00640838]
 [0.25666667 1.06507384]]",0,0.75
8723415159,f,25,english,4,5,french,2024-01-25 10:40:17.232188,False,1,150,sounds\french\audio/french_349.wav,"[[  0.          73.89254537]
 [  0.1        -84.33493486]
 [  0.2         -3.2709249 ]
 [  0.25666667 -21.54511299]]","[[0.         0.17403551]
 [0.1        1.66487719]
 [0.2        1.53740634]
 [0.25666667 1.56834066]]",0,0.641
8723415159,f,25,english,4,5,french,2024-01-25 10:40:17.232188,False,1,151,sounds\french\audio/french_65.wav,"[[  0.         -17.53877645]
 [  0.1         77.85789868]
 [  0.2         16.40180032]
 [  0.25666667  56.20856175]]","[[0.         1.80859796]
 [0.1        1.24255314]
 [0.2        1.28894604]
 [0.25666667 0.80043142]]",1,0.788
8723415159,f,25,english,4,5,french,2024-01-25 10:40:17.232188,False,1,152,sounds\french\audio/french_129.wav,"[[  0.          13.25855459]
 [  0.1        -92.03942204]
 [  0.2         62.50888813]
 [  0.25666667  39.35321197]]","[[0.         0.8608045 ]
 [0.1        1.75332116]
 [0.2        0.44840231]
 [0.25666667 1.56291845]]",1,0.985
8723415159,f,25,english,4,5,french,2024-01-25 10:40:17.232188,False,1,153,sounds\french\audio/french_32.wav,"[[  0.         -95.97477456]
 [  0.1        -25.31572866]
 [  0.2        -25.0492654 ]
 [  0.25666667 -74.56689772]]","[[0.         1.5242089 ]
 [0.1        0.2047991 ]
 [0.2        1.11388434]
 [0.25666667 1.18772321]]",1,1.458
8723415159,f,25,english,4,5,french,2024-01-25 10:40:17.232188,False,1,154,sounds\french\audio/french_518.wav,"[[  0.          30.08897808]
 [  0.1        -42.00678694]
 [  0.2         47.99304417]
 [  0.25666667 -21.59585354]]","[[0.         1.28002377]
 [0.1        0.31881796]
 [0.2        0.271149  ]
 [0.25666667 1.06182133]]",0,0.636
8723415159,f,25,english,4,5,french,2024-01-25 10:40:17.232188,False,1,155,sounds\french\audio/french_380.wav,"[[  0.          24.49292531]
 [  0.1        -93.89933718]
 [  0.2        -85.93529796]
 [  0.25666667  58.85582409]]","[[0.         0.14533116]
 [0.1        1.07880785]
 [0.2        1.01737492]
 [0.25666667 1.87499145]]",0,0.955
8723415159,f,25,english,4,5,french,2024-01-25 10:40:17.232188,False,1,156,sounds\french\audio/french_304.wav,"[[  0.          58.70341866]
 [  0.1         64.39481967]
 [  0.2         24.44185136]
 [  0.25666667 -92.24598877]]","[[0.         1.21350262]
 [0.1        0.74970721]
 [0.2        0.32537914]
 [0.25666667 0.12166717]]",1,2.21
8723415159,f,25,english,4,5,french,2024-01-25 10:40:17.232188,False,1,157,sounds\french\audio/french_406.wav,"[[  0.          58.13533855]
 [  0.1         16.77938971]
 [  0.2        -34.29610563]
 [  0.25666667   5.14727068]]","[[0.         1.29537269]
 [0.1        1.03128378]
 [0.2        1.90878176]
 [0.25666667 1.43946259]]",1,1.057
8723415159,f,25,english,4,5,french,2024-01-25 10:40:17.232188,False,1,158,sounds\french\audio/french_577.wav,"[[  0.         -34.34323574]
 [  0.1         42.3591335 ]
 [  0.2        -17.66243752]
 [  0.25666667 -25.14969583]]","[[0.         0.85646341]
 [0.1        0.14355807]
 [0.2        0.33082023]
 [0.25666667 0.85136365]]",0,1.827
8723415159,f,25,english,4,5,french,2024-01-25 10:40:17.232188,False,1,159,sounds\french\audio/french_144.wav,"[[  0.          54.7439873 ]
 [  0.1        -90.40840953]
 [  0.2        -23.8496949 ]
 [  0.25666667   9.69074846]]","[[0.         1.65699933]
 [0.1        0.10946834]
 [0.2        0.63660565]
 [0.25666667 0.31092992]]",0,0.427
8723415159,f,25,english,4,5,french,2024-01-25 10:40:17.232188,False,1,160,sounds\french\audio/french_296.wav,"[[  0.          93.71479572]
 [  0.1        -75.79046522]
 [  0.2        -87.29598303]
 [  0.25666667  31.73776098]]","[[0.         0.08926169]
 [0.1        1.27041306]
 [0.2        1.46433067]
 [0.25666667 0.42599999]]",1,0.436
8723415159,f,25,english,4,5,french,2024-01-25 10:40:17.232188,False,1,161,sounds\french\audio/french_850.wav,"[[  0.         -88.87179188]
 [  0.1         15.70736636]
 [  0.2         67.7730952 ]
 [  0.25666667 -20.3872908 ]]","[[0.         0.91597825]
 [0.1        0.21425776]
 [0.2        1.52338939]
 [0.25666667 0.55241946]]",1,0.261
8723415159,f,25,english,4,5,french,2024-01-25 10:40:17.232188,False,1,162,sounds\french\audio/french_256.wav,"[[ 0.         34.00641445]
 [ 0.1        78.12380502]
 [ 0.2        84.97245465]
 [ 0.25666667 29.4187394 ]]","[[0.         1.19838094]
 [0.1        0.9412232 ]
 [0.2        1.34630265]
 [0.25666667 1.86077871]]",1,0.301
8723415159,f,25,english,4,5,french,2024-01-25 10:40:17.232188,False,1,163,sounds\french\audio/french_324.wav,"[[  0.          19.03085887]
 [  0.1         67.89064078]
 [  0.2        -77.83323733]
 [  0.25666667 -13.49414868]]","[[0.         0.73874118]
 [0.1        0.03678538]
 [0.2        0.54818629]
 [0.25666667 1.04853797]]",1,1.803
8723415159,f,25,english,4,5,french,2024-01-25 10:40:17.232188,False,1,164,sounds\french\audio/french_485.wav,"[[  0.          49.72116837]
 [  0.1         30.83147643]
 [  0.2         37.98454641]
 [  0.25666667 -93.0468476 ]]","[[0.         1.80184077]
 [0.1        1.80095915]
 [0.2        1.42682554]
 [0.25666667 0.86529676]]",1,0.443
8723415159,f,25,english,4,5,french,2024-01-25 10:40:17.232188,False,1,165,sounds\french\audio/french_958.wav,"[[ 0.         70.65905064]
 [ 0.1        35.26497317]
 [ 0.2        64.29920798]
 [ 0.25666667 78.52381542]]","[[0.         0.553928  ]
 [0.1        0.45560148]
 [0.2        1.65592314]
 [0.25666667 1.53733   ]]",1,3.412
8723415159,f,25,english,4,5,french,2024-01-25 10:40:17.232188,False,1,166,sounds\french\audio/french_823.wav,"[[  0.         -89.53533563]
 [  0.1         14.01752274]
 [  0.2         33.24657022]
 [  0.25666667 -78.84260648]]","[[0.         0.87621895]
 [0.1        0.92757563]
 [0.2        1.30685671]
 [0.25666667 1.33840969]]",1,0.827
8723415159,f,25,english,4,5,french,2024-01-25 10:40:17.232188,False,1,167,sounds\french\audio/french_31.wav,"[[  0.         -16.52506352]
 [  0.1        -80.19736258]
 [  0.2        -47.04996605]
 [  0.25666667  35.27279848]]","[[0.         1.57904125]
 [0.1        0.88688051]
 [0.2        0.44579633]
 [0.25666667 1.71139476]]",0,1.403
8723415159,f,25,english,4,5,french,2024-01-25 10:40:17.232188,False,1,168,sounds\french\audio/french_385.wav,"[[  0.          -5.35501711]
 [  0.1         28.75563306]
 [  0.2         60.61846434]
 [  0.25666667 -78.89426498]]","[[0.         1.94967077]
 [0.1        0.4629862 ]
 [0.2        0.74478567]
 [0.25666667 0.69826307]]",0,1.615
8723415159,f,25,english,4,5,french,2024-01-25 10:40:17.232188,False,1,169,sounds\french\audio/french_338.wav,"[[  0.         -59.42111132]
 [  0.1        -69.70478814]
 [  0.2        -12.60920347]
 [  0.25666667 -82.44797384]]","[[0.         1.60060286]
 [0.1        0.22517269]
 [0.2        1.52190999]
 [0.25666667 0.82265445]]",0,1.255
8723415159,f,25,english,4,5,french,2024-01-25 10:40:17.232188,False,1,170,sounds\french\audio/french_919.wav,"[[  0.         -50.18617417]
 [  0.1        -24.76321709]
 [  0.2        -27.90521194]
 [  0.25666667  55.47311868]]","[[0.         1.92623259]
 [0.1        1.20800331]
 [0.2        0.01078602]
 [0.25666667 0.27796628]]",0,0.556
8723415159,f,25,english,4,5,french,2024-01-25 10:40:17.232188,False,1,171,sounds\french\audio/french_938.wav,"[[  0.         -81.44382825]
 [  0.1         70.63637201]
 [  0.2         29.19185054]
 [  0.25666667  62.72928817]]","[[0.         1.9747372 ]
 [0.1        1.46978645]
 [0.2        1.77157462]
 [0.25666667 1.30296517]]",0,1.995
8723415159,f,25,english,4,5,french,2024-01-25 10:40:17.232188,False,1,172,sounds\french\audio/french_997.wav,"[[ 0.         70.02211451]
 [ 0.1        69.24362731]
 [ 0.2        73.007848  ]
 [ 0.25666667 83.15376715]]","[[0.         0.23520638]
 [0.1        0.40856699]
 [0.2        1.59962624]
 [0.25666667 0.8906701 ]]",0,2.531
8723415159,f,25,english,4,5,french,2024-01-25 10:40:17.232188,False,1,173,sounds\french\audio/french_767.wav,"[[  0.          91.79298807]
 [  0.1        -10.9319541 ]
 [  0.2        -18.13246944]
 [  0.25666667  -6.11346908]]","[[0.         1.15796888]
 [0.1        0.37743288]
 [0.2        1.06132115]
 [0.25666667 0.41668969]]",0,1.563
8723415159,f,25,english,4,5,french,2024-01-25 10:40:17.232188,False,1,174,sounds\french\audio/french_623.wav,"[[  0.          39.03330695]
 [  0.1         53.03253456]
 [  0.2        -58.78521604]
 [  0.25666667  58.72042033]]","[[0.         1.53300878]
 [0.1        0.64917122]
 [0.2        0.12116027]
 [0.25666667 1.19887121]]",1,0.781
8723415159,f,25,english,4,5,french,2024-01-25 10:40:17.232188,False,1,175,sounds\french\audio/french_478.wav,"[[  0.          83.43470999]
 [  0.1         -2.90020724]
 [  0.2          3.04122674]
 [  0.25666667 -16.94968741]]","[[0.         1.59134243]
 [0.1        1.87737404]
 [0.2        1.09323353]
 [0.25666667 0.48225636]]",0,2.646
8723415159,f,25,english,4,5,french,2024-01-25 10:40:17.232188,False,1,176,sounds\french\audio/french_670.wav,"[[  0.         -38.80852857]
 [  0.1         -8.64332938]
 [  0.2        -55.35683075]
 [  0.25666667  17.57735741]]","[[0.         0.18324618]
 [0.1        0.81857347]
 [0.2        1.27404838]
 [0.25666667 1.12537981]]",1,1.787
8723415159,f,25,english,4,5,french,2024-01-25 10:40:17.232188,False,1,177,sounds\french\audio/french_485.wav,"[[  0.          49.72116837]
 [  0.1         30.83147643]
 [  0.2         37.98454641]
 [  0.25666667 -93.0468476 ]]","[[0.         1.80184077]
 [0.1        1.80095915]
 [0.2        1.42682554]
 [0.25666667 0.86529676]]",1,1.994
8723415159,f,25,english,4,5,french,2024-01-25 10:40:17.232188,False,1,178,sounds\french\audio/french_95.wav,"[[ 0.         35.71270194]
 [ 0.1        34.21637588]
 [ 0.2        69.23850983]
 [ 0.25666667 -5.02213551]]","[[0.         1.05464779]
 [0.1        0.916907  ]
 [0.2        0.63861668]
 [0.25666667 0.96363956]]",1,1.104
8723415159,f,25,english,4,5,french,2024-01-25 10:40:17.232188,False,1,179,sounds\french\audio/french_11.wav,"[[  0.         -27.01625533]
 [  0.1         30.5454192 ]
 [  0.2        -10.3355652 ]
 [  0.25666667  -1.40658107]]","[[0.         0.65463853]
 [0.1        0.82547758]
 [0.2        1.18020414]
 [0.25666667 0.75245655]]",1,0.745
8723415159,f,25,english,4,5,french,2024-01-25 10:40:17.232188,False,1,180,sounds\french\audio/french_222.wav,"[[  0.         -98.35523197]
 [  0.1         61.03285987]
 [  0.2        -86.01422932]
 [  0.25666667  61.26386047]]","[[0.         0.13834953]
 [0.1        0.55930016]
 [0.2        0.40370114]
 [0.25666667 0.21495758]]",1,1.561
8723415159,f,25,english,4,5,french,2024-01-25 10:40:17.232188,False,1,181,sounds\french\audio/french_769.wav,"[[  0.          78.39802529]
 [  0.1         98.35868913]
 [  0.2        -63.4251983 ]
 [  0.25666667 -17.35256236]]","[[0.         0.31346408]
 [0.1        0.8359084 ]
 [0.2        1.75433615]
 [0.25666667 0.30245362]]",1,2.221
8723415159,f,25,english,4,5,french,2024-01-25 10:40:17.232188,False,1,182,sounds\french\audio/french_389.wav,"[[  0.          69.62296415]
 [  0.1        -41.49433877]
 [  0.2        -65.025051  ]
 [  0.25666667  10.9117334 ]]","[[0.         1.67675408]
 [0.1        1.60540147]
 [0.2        0.45817867]
 [0.25666667 1.10562968]]",1,0.924
8723415159,f,25,english,4,5,french,2024-01-25 10:40:17.232188,False,1,183,sounds\french\audio/french_532.wav,"[[  0.          51.6664435 ]
 [  0.1         12.38327687]
 [  0.2        -89.35582175]
 [  0.25666667  25.37493155]]","[[0.         1.30171402]
 [0.1        0.03929558]
 [0.2        1.38931331]
 [0.25666667 0.74157834]]",1,2.452
8723415159,f,25,english,4,5,french,2024-01-25 10:40:17.232188,False,1,184,sounds\french\audio/french_733.wav,"[[  0.          96.30835656]
 [  0.1        -16.80147809]
 [  0.2         34.50045069]
 [  0.25666667  -6.11336577]]","[[0.         1.00234216]
 [0.1        0.65355169]
 [0.2        1.63394937]
 [0.25666667 0.15404628]]",1,1.038
8723415159,f,25,english,4,5,french,2024-01-25 10:40:17.232188,False,1,185,sounds\french\audio/french_380.wav,"[[  0.          24.49292531]
 [  0.1        -93.89933718]
 [  0.2        -85.93529796]
 [  0.25666667  58.85582409]]","[[0.         0.14533116]
 [0.1        1.07880785]
 [0.2        1.01737492]
 [0.25666667 1.87499145]]",1,1.56
8723415159,f,25,english,4,5,french,2024-01-25 10:40:17.232188,False,1,186,sounds\french\audio/french_436.wav,"[[  0.          21.52139078]
 [  0.1         91.02122448]
 [  0.2         28.53627776]
 [  0.25666667 -78.88687792]]","[[0.         0.27861971]
 [0.1        0.31750307]
 [0.2        0.35857003]
 [0.25666667 1.70163595]]",0,1.907
8723415159,f,25,english,4,5,french,2024-01-25 10:40:17.232188,False,1,187,sounds\french\audio/french_821.wav,"[[  0.          70.15336782]
 [  0.1         -1.11865535]
 [  0.2        -91.54006312]
 [  0.25666667  24.13643902]]","[[0.         1.4099425 ]
 [0.1        1.36643738]
 [0.2        0.06599991]
 [0.25666667 1.20854405]]",1,0.553
8723415159,f,25,english,4,5,french,2024-01-25 10:40:17.232188,False,1,188,sounds\french\audio/french_320.wav,"[[  0.         -12.08882056]
 [  0.1        -69.15560276]
 [  0.2         33.30000548]
 [  0.25666667 -65.44816773]]","[[0.         1.76987467]
 [0.1        1.70079501]
 [0.2        0.4524157 ]
 [0.25666667 0.78128465]]",1,0.896
8723415159,f,25,english,4,5,french,2024-01-25 10:40:17.232188,False,1,189,sounds\french\audio/french_211.wav,"[[  0.          26.09911827]
 [  0.1         37.88219535]
 [  0.2         25.3370042 ]
 [  0.25666667 -31.50750366]]","[[0.         0.38797522]
 [0.1        0.97106999]
 [0.2        0.82384696]
 [0.25666667 0.88987221]]",0,1.667
8723415159,f,25,english,4,5,french,2024-01-25 10:40:17.232188,False,1,190,sounds\french\audio/french_808.wav,"[[  0.         -62.09526538]
 [  0.1         21.23234707]
 [  0.2        -93.15759374]
 [  0.25666667 -35.4638748 ]]","[[0.         1.28254738]
 [0.1        0.50843795]
 [0.2        0.88416038]
 [0.25666667 1.60061847]]",0,1.872
8723415159,f,25,english,4,5,french,2024-01-25 10:40:17.232188,False,1,191,sounds\french\audio/french_967.wav,"[[  0.          79.70451557]
 [  0.1        -96.60134716]
 [  0.2         12.1279289 ]
 [  0.25666667 -44.3997303 ]]","[[0.         1.26694721]
 [0.1        0.15349476]
 [0.2        0.99393875]
 [0.25666667 1.32782977]]",0,0.504
8723415159,f,25,english,4,5,french,2024-01-25 10:40:17.232188,False,1,192,sounds\french\audio/french_861.wav,"[[  0.         -47.60379447]
 [  0.1          8.05593032]
 [  0.2        -18.27545885]
 [  0.25666667  49.68481265]]","[[0.         1.17561317]
 [0.1        0.12143354]
 [0.2        0.42948795]
 [0.25666667 0.3832977 ]]",0,0.689
8723415159,f,25,english,4,5,french,2024-01-25 10:40:17.232188,False,1,193,sounds\french\audio/french_780.wav,"[[  0.         -26.4428256 ]
 [  0.1         71.38381251]
 [  0.2         23.58434052]
 [  0.25666667 -77.81567576]]","[[0.         1.10618342]
 [0.1        1.00150251]
 [0.2        0.69699056]
 [0.25666667 1.24957366]]",0,2.663
8723415159,f,25,english,4,5,french,2024-01-25 10:40:17.232188,False,1,194,sounds\french\audio/french_173.wav,"[[  0.         -85.34625679]
 [  0.1         19.71799215]
 [  0.2        -84.96079432]
 [  0.25666667 -20.27996547]]","[[0.         1.0505287 ]
 [0.1        1.50206547]
 [0.2        1.53807785]
 [0.25666667 1.54027091]]",0,0.758
8723415159,f,25,english,4,5,french,2024-01-25 10:40:17.232188,False,1,195,sounds\french\audio/french_930.wav,"[[  0.         -85.15004264]
 [  0.1        -51.05179236]
 [  0.2         60.60693854]
 [  0.25666667  60.89136328]]","[[0.         1.38463402]
 [0.1        1.37480081]
 [0.2        0.42262721]
 [0.25666667 1.58192794]]",0,1.597
8723415159,f,25,english,4,5,french,2024-01-25 10:40:17.232188,False,1,196,sounds\french\audio/french_417.wav,"[[  0.         -52.68130191]
 [  0.1         73.91368418]
 [  0.2          7.73324389]
 [  0.25666667  92.88066518]]","[[0.         1.49469738]
 [0.1        1.06358835]
 [0.2        1.12421265]
 [0.25666667 0.65436219]]",0,0.652
8723415159,f,25,english,4,5,french,2024-01-25 10:40:17.232188,False,1,197,sounds\french\audio/french_85.wav,"[[  0.           8.05629124]
 [  0.1        -30.28403137]
 [  0.2        -73.3047666 ]
 [  0.25666667  49.81841991]]","[[0.         0.15740805]
 [0.1        1.38994818]
 [0.2        0.58823714]
 [0.25666667 0.54603307]]",0,1.814
8723415159,f,25,english,4,5,french,2024-01-25 10:40:17.232188,False,1,198,sounds\french\audio/french_24.wav,"[[  0.         -90.56488298]
 [  0.1        -50.97686263]
 [  0.2         15.79918005]
 [  0.25666667   3.83977191]]","[[0.         1.23408284]
 [0.1        0.21485458]
 [0.2        0.7737077 ]
 [0.25666667 0.99994749]]",0,0.77
8723415159,f,25,english,4,5,french,2024-01-25 10:40:17.232188,False,1,199,sounds\french\audio/french_345.wav,"[[  0.         -15.34440167]
 [  0.1         10.78758757]
 [  0.2        -99.05600522]
 [  0.25666667  -6.99010662]]","[[0.         0.71900559]
 [0.1        1.22956467]
 [0.2        1.71608101]
 [0.25666667 1.92257683]]",0,2.008
8723415159,f,25,english,4,5,french,2024-01-25 10:40:17.232188,False,1,200,sounds\french\audio/french_28.wav,"[[  0.         -42.04092007]
 [  0.1        -47.89065573]
 [  0.2         88.67668081]
 [  0.25666667  23.25138011]]","[[0.         0.8096396 ]
 [0.1        0.68168646]
 [0.2        0.86103635]
 [0.25666667 1.13642067]]",1,0.549
8723415159,f,25,english,4,5,french,2024-01-25 10:40:17.232188,False,1,201,sounds\french\audio/french_556.wav,"[[  0.          57.69742807]
 [  0.1         74.69192241]
 [  0.2        -92.88512431]
 [  0.25666667  27.11476112]]","[[0.         1.23910924]
 [0.1        0.49477788]
 [0.2        1.56323012]
 [0.25666667 1.7455964 ]]",1,2.337
8723415159,f,25,english,4,5,french,2024-01-25 10:40:17.232188,False,1,202,sounds\french\audio/french_17.wav,"[[ 0.         61.86852427]
 [ 0.1        14.81642836]
 [ 0.2        -8.48865215]
 [ 0.25666667 71.68336874]]","[[0.         1.05769551]
 [0.1        0.81667418]
 [0.2        0.51249479]
 [0.25666667 0.29939213]]",1,1.211
8723415159,f,25,english,4,5,french,2024-01-25 10:40:17.232188,False,1,203,sounds\french\audio/french_86.wav,"[[  0.         -13.34839912]
 [  0.1         -0.15074382]
 [  0.2         25.45831569]
 [  0.25666667  48.27326553]]","[[0.         1.5394535 ]
 [0.1        0.88064418]
 [0.2        1.66652907]
 [0.25666667 0.20293469]]",0,2.647
8723415159,f,25,english,4,5,french,2024-01-25 10:40:17.232188,False,1,204,sounds\french\audio/french_509.wav,"[[  0.          98.86127545]
 [  0.1        -58.47415861]
 [  0.2         23.95425933]
 [  0.25666667  74.34097669]]","[[0.         0.38470371]
 [0.1        0.77077576]
 [0.2        1.30836253]
 [0.25666667 1.2187589 ]]",0,2.636
8723415159,f,25,english,4,5,french,2024-01-25 10:40:17.232188,False,1,205,sounds\french\audio/french_970.wav,"[[  0.          45.66425393]
 [  0.1        -82.79761983]
 [  0.2         16.19264407]
 [  0.25666667  56.04070076]]","[[0.         0.15526341]
 [0.1        0.70533305]
 [0.2        1.08595816]
 [0.25666667 0.89955958]]",0,1.136
8723415159,f,25,english,4,5,french,2024-01-25 10:40:17.232188,False,1,206,sounds\french\audio/french_345.wav,"[[  0.         -15.34440167]
 [  0.1         10.78758757]
 [  0.2        -99.05600522]
 [  0.25666667  -6.99010662]]","[[0.         0.71900559]
 [0.1        1.22956467]
 [0.2        1.71608101]
 [0.25666667 1.92257683]]",0,0.797
8723415159,f,25,english,4,5,french,2024-01-25 10:40:17.232188,False,1,207,sounds\french\audio/french_829.wav,"[[  0.          46.725297  ]
 [  0.1        -84.28207626]
 [  0.2         93.60285392]
 [  0.25666667 -19.92335823]]","[[0.         0.52675555]
 [0.1        1.43556726]
 [0.2        0.6815656 ]
 [0.25666667 1.46711526]]",0,1.09
8723415159,f,25,english,4,5,french,2024-01-25 10:40:17.232188,False,1,208,sounds\french\audio/french_640.wav,"[[  0.         -15.56807975]
 [  0.1         54.79262645]
 [  0.2        -80.20485071]
 [  0.25666667 -47.69326323]]","[[0.         1.93294171]
 [0.1        1.3982646 ]
 [0.2        1.35271381]
 [0.25666667 0.1240569 ]]",1,1.624
8723415159,f,25,english,4,5,french,2024-01-25 10:40:17.232188,False,1,209,sounds\french\audio/french_178.wav,"[[ 0.         26.38045069]
 [ 0.1        54.67313893]
 [ 0.2        58.86585948]
 [ 0.25666667  8.14592544]]","[[0.         1.33493468]
 [0.1        1.2022917 ]
 [0.2        1.32810738]
 [0.25666667 0.94030025]]",0,0.84
8723415159,f,25,english,4,5,french,2024-01-25 10:40:17.232188,False,1,210,sounds\french\audio/french_275.wav,"[[  0.         -71.45872278]
 [  0.1         50.23093754]
 [  0.2         82.04936404]
 [  0.25666667 -63.35862329]]","[[0.         0.56157087]
 [0.1        1.03531052]
 [0.2        1.31605034]
 [0.25666667 0.72936955]]",1,4.807
8723415159,f,25,english,4,5,french,2024-01-25 10:40:17.232188,False,1,211,sounds\french\audio/french_907.wav,"[[  0.           9.20754992]
 [  0.1        -39.82714958]
 [  0.2         91.774681  ]
 [  0.25666667 -60.10887287]]","[[0.         1.79705326]
 [0.1        0.37644661]
 [0.2        1.35697235]
 [0.25666667 0.87178456]]",1,1.244
8723415159,f,25,english,4,5,french,2024-01-25 10:40:17.232188,False,1,212,sounds\french\audio/french_204.wav,"[[  0.         -28.36319627]
 [  0.1        -92.66891013]
 [  0.2         96.29592204]
 [  0.25666667 -46.81515004]]","[[0.         0.07789368]
 [0.1        0.00203791]
 [0.2        1.92374636]
 [0.25666667 0.97947469]]",0,1.162
8723415159,f,25,english,4,5,french,2024-01-25 10:40:17.232188,False,1,213,sounds\french\audio/french_583.wav,"[[  0.          54.77106994]
 [  0.1        -91.79725644]
 [  0.2         19.12152033]
 [  0.25666667  80.05255959]]","[[0.         0.72700192]
 [0.1        1.43459804]
 [0.2        0.59283069]
 [0.25666667 1.58166394]]",1,0.552
8723415159,f,25,english,4,5,french,2024-01-25 10:40:17.232188,False,1,214,sounds\french\audio/french_847.wav,"[[  0.          -8.33122073]
 [  0.1         28.51239659]
 [  0.2        -26.33136573]
 [  0.25666667  21.45038454]]","[[0.         1.64160395]
 [0.1        0.11991739]
 [0.2        1.12824789]
 [0.25666667 0.68287375]]",1,1.413
8723415159,f,25,english,4,5,french,2024-01-25 10:40:17.232188,False,1,215,sounds\french\audio/french_128.wav,"[[ 0.         -0.75176629]
 [ 0.1        -3.23197706]
 [ 0.2        64.47029617]
 [ 0.25666667 94.12909321]]","[[0.         0.45078366]
 [0.1        0.83766587]
 [0.2        1.36622775]
 [0.25666667 1.47043343]]",1,0.848
8723415159,f,25,english,4,5,french,2024-01-25 10:40:17.232188,False,1,216,sounds\french\audio/french_919.wav,"[[  0.         -50.18617417]
 [  0.1        -24.76321709]
 [  0.2        -27.90521194]
 [  0.25666667  55.47311868]]","[[0.         1.92623259]
 [0.1        1.20800331]
 [0.2        0.01078602]
 [0.25666667 0.27796628]]",1,1.001
8723415159,f,25,english,4,5,french,2024-01-25 10:40:17.232188,False,1,217,sounds\french\audio/french_731.wav,"[[  0.          52.82888701]
 [  0.1         44.66747194]
 [  0.2         83.54065351]
 [  0.25666667 -50.41579204]]","[[0.         1.42077684]
 [0.1        0.2996776 ]
 [0.2        1.21708869]
 [0.25666667 1.31490505]]",1,1.796
8723415159,f,25,english,4,5,french,2024-01-25 10:40:17.232188,False,1,218,sounds\french\audio/french_828.wav,"[[  0.          -2.7154125 ]
 [  0.1        -36.83814983]
 [  0.2        -50.98592502]
 [  0.25666667 -48.36073317]]","[[0.         0.72553522]
 [0.1        1.24313396]
 [0.2        0.62544862]
 [0.25666667 1.19233037]]",1,0.724
8723415159,f,25,english,4,5,french,2024-01-25 10:40:17.232188,False,1,219,sounds\french\audio/french_321.wav,"[[  0.         -11.01764706]
 [  0.1          9.90480799]
 [  0.2         44.10153768]
 [  0.25666667  10.91862898]]","[[0.         1.39443046]
 [0.1        1.51913173]
 [0.2        0.74961169]
 [0.25666667 1.74221707]]",1,0.565
8723415159,f,25,english,4,5,french,2024-01-25 10:40:17.232188,False,1,220,sounds\french\audio/french_602.wav,"[[ 0.         88.5156033 ]
 [ 0.1        50.37840389]
 [ 0.2        41.99983627]
 [ 0.25666667 11.33520808]]","[[0.         1.15034926]
 [0.1        0.70361943]
 [0.2        1.85629911]
 [0.25666667 0.32194213]]",1,1.243
8723415159,f,25,english,4,5,french,2024-01-25 10:40:17.232188,False,1,221,sounds\french\audio/french_524.wav,"[[  0.          29.26114001]
 [  0.1         51.10918927]
 [  0.2        -43.7486939 ]
 [  0.25666667 -29.29338592]]","[[0.         1.50805134]
 [0.1        1.00551207]
 [0.2        1.81734516]
 [0.25666667 0.93830148]]",1,0.871
8723415159,f,25,english,4,5,french,2024-01-25 10:40:17.232188,False,1,222,sounds\french\audio/french_809.wav,"[[  0.         -35.34138518]
 [  0.1        -27.53268432]
 [  0.2         -4.59062168]
 [  0.25666667  54.17413939]]","[[0.         0.91250327]
 [0.1        1.55486221]
 [0.2        0.05513513]
 [0.25666667 0.74937359]]",0,1.058
8723415159,f,25,english,4,5,french,2024-01-25 10:40:17.232188,False,1,223,sounds\french\audio/french_224.wav,"[[  0.          29.30439333]
 [  0.1        -18.8355858 ]
 [  0.2         53.95388402]
 [  0.25666667 -99.38068318]]","[[0.         0.07263044]
 [0.1        0.50126241]
 [0.2        0.66381289]
 [0.25666667 0.98911363]]",1,3.655
8723415159,f,25,english,4,5,french,2024-01-25 10:40:17.232188,False,1,224,sounds\french\audio/french_892.wav,"[[  0.          -9.89123065]
 [  0.1        -29.48301763]
 [  0.2        -20.12274852]
 [  0.25666667 -63.31716547]]","[[0.         1.43345907]
 [0.1        0.60115207]
 [0.2        0.51672516]
 [0.25666667 0.2983609 ]]",1,0.895
8723415159,f,25,english,4,5,french,2024-01-25 10:40:17.232188,False,1,225,sounds\french\audio/french_953.wav,"[[  0.         -27.22394829]
 [  0.1         -3.36109764]
 [  0.2         79.96390299]
 [  0.25666667 -20.83871742]]","[[0.         1.27693125]
 [0.1        0.12331262]
 [0.2        1.48485403]
 [0.25666667 0.51230705]]",1,0.481
8723415159,f,25,english,4,5,french,2024-01-25 10:40:17.232188,False,1,226,sounds\french\audio/french_92.wav,"[[  0.          59.20081487]
 [  0.1         95.6548793 ]
 [  0.2        -36.19224385]
 [  0.25666667  68.24894855]]","[[0.         1.21926368]
 [0.1        1.56053314]
 [0.2        1.38632022]
 [0.25666667 1.29084252]]",1,0.685
8723415159,f,25,english,4,5,french,2024-01-25 10:40:17.232188,False,1,227,sounds\french\audio/french_507.wav,"[[  0.         -39.00130205]
 [  0.1          8.15448279]
 [  0.2        -39.88004764]
 [  0.25666667  66.54300966]]","[[0.         0.88980729]
 [0.1        1.12034654]
 [0.2        1.15006522]
 [0.25666667 1.10945683]]",1,0.376
8723415159,f,25,english,4,5,french,2024-01-25 10:40:17.232188,False,1,228,sounds\french\audio/french_625.wav,"[[ 0.         79.19979266]
 [ 0.1        14.54258285]
 [ 0.2        86.07148008]
 [ 0.25666667 45.85831434]]","[[0.         0.47634137]
 [0.1        0.73497705]
 [0.2        0.05854955]
 [0.25666667 0.79046633]]",1,1.146
8723415159,f,25,english,4,5,french,2024-01-25 10:40:17.232188,False,1,229,sounds\french\audio/french_741.wav,"[[  0.          52.99239945]
 [  0.1        -62.37721768]
 [  0.2         54.26195155]
 [  0.25666667   8.23350592]]","[[0.         1.20115282]
 [0.1        0.53106937]
 [0.2        1.91925029]
 [0.25666667 0.42380295]]",1,0.804
8723415159,f,25,english,4,5,french,2024-01-25 10:40:17.232188,False,1,230,sounds\french\audio/french_347.wav,"[[  0.         -50.57249908]
 [  0.1         -0.96259157]
 [  0.2         56.28626554]
 [  0.25666667  46.89576118]]","[[0.         1.7558536 ]
 [0.1        0.42717605]
 [0.2        1.32943016]
 [0.25666667 0.4771217 ]]",1,0.871
8723415159,f,25,english,4,5,french,2024-01-25 10:40:17.232188,False,1,231,sounds\french\audio/french_646.wav,"[[  0.          98.47808426]
 [  0.1         98.7741611 ]
 [  0.2        -51.76092723]
 [  0.25666667  53.55118827]]","[[0.         1.66300853]
 [0.1        0.58876545]
 [0.2        0.47940067]
 [0.25666667 0.48942216]]",0,1.381
8723415159,f,25,english,4,5,french,2024-01-25 10:40:17.232188,False,1,232,sounds\french\audio/french_99.wav,"[[ 0.         82.47343156]
 [ 0.1        79.23143861]
 [ 0.2        34.81001375]
 [ 0.25666667 28.26612214]]","[[0.         0.8791919 ]
 [0.1        0.93561146]
 [0.2        1.15477002]
 [0.25666667 0.77336938]]",1,0.518
8723415159,f,25,english,4,5,french,2024-01-25 10:40:17.232188,False,1,233,sounds\french\audio/french_552.wav,"[[  0.         -52.32363839]
 [  0.1         23.44364533]
 [  0.2         72.20212972]
 [  0.25666667 -25.42911122]]","[[0.         0.44295398]
 [0.1        1.4520287 ]
 [0.2        0.63620541]
 [0.25666667 1.39952151]]",1,0.357
8723415159,f,25,english,4,5,french,2024-01-25 10:40:17.232188,False,1,234,sounds\french\audio/french_329.wav,"[[  0.          14.6954169 ]
 [  0.1        -60.61079034]
 [  0.2        -27.52715396]
 [  0.25666667 -71.65343532]]","[[0.         0.80369944]
 [0.1        1.40829285]
 [0.2        0.22971006]
 [0.25666667 0.37653007]]",1,0.388
8723415159,f,25,english,4,5,french,2024-01-25 10:40:17.232188,False,1,235,sounds\french\audio/french_254.wav,"[[  0.         -80.26287383]
 [  0.1        -40.33934554]
 [  0.2         63.1875163 ]
 [  0.25666667  55.87543548]]","[[0.         0.610966  ]
 [0.1        1.74213191]
 [0.2        0.92287848]
 [0.25666667 0.4746978 ]]",1,0.338
8723415159,f,25,english,4,5,french,2024-01-25 10:40:17.232188,False,1,236,sounds\french\audio/french_370.wav,"[[  0.         -31.30279389]
 [  0.1         96.47349065]
 [  0.2         23.18843017]
 [  0.25666667  81.62933181]]","[[0.         1.88170435]
 [0.1        0.75067332]
 [0.2        1.06279648]
 [0.25666667 0.58974769]]",1,0.377
8723415159,f,25,english,4,5,french,2024-01-25 10:40:17.232188,False,1,237,sounds\french\audio/french_249.wav,"[[  0.         -14.62389142]
 [  0.1         82.35169727]
 [  0.2        -37.79288698]
 [  0.25666667 -94.5306765 ]]","[[0.         0.54824935]
 [0.1        0.81625332]
 [0.2        0.28914805]
 [0.25666667 0.43241605]]",0,1.666
8723415159,f,25,english,4,5,french,2024-01-25 10:40:17.232188,False,1,238,sounds\french\audio/french_883.wav,"[[  0.          79.42425648]
 [  0.1        -55.57656198]
 [  0.2        -42.3009185 ]
 [  0.25666667   9.11567641]]","[[0.         0.82987007]
 [0.1        1.06788753]
 [0.2        1.49414105]
 [0.25666667 1.30049822]]",1,0.828
8723415159,f,25,english,4,5,french,2024-01-25 10:40:17.232188,False,1,239,sounds\french\audio/french_932.wav,"[[  0.         -46.06723632]
 [  0.1         66.80974186]
 [  0.2         39.28685727]
 [  0.25666667 -66.26323275]]","[[0.         0.59994833]
 [0.1        1.29573715]
 [0.2        0.97302603]
 [0.25666667 1.65300799]]",1,0.677
8723415159,f,25,english,4,5,french,2024-01-25 10:40:17.232188,False,1,240,sounds\french\audio/french_624.wav,"[[  0.         -86.93028371]
 [  0.1        -96.54996815]
 [  0.2         92.34248117]
 [  0.25666667 -12.30629338]]","[[0.         1.16085897]
 [0.1        0.25570688]
 [0.2        0.21766843]
 [0.25666667 1.93131174]]",0,1.904
8723415159,f,25,english,4,5,french,2024-01-25 10:40:17.232188,False,1,241,sounds\french\audio/french_605.wav,"[[  0.         -36.16596328]
 [  0.1        -79.4068097 ]
 [  0.2        -61.39154049]
 [  0.25666667  44.72298118]]","[[0.         1.67360444]
 [0.1        0.60127341]
 [0.2        0.37070459]
 [0.25666667 1.73994467]]",1,0.438
8723415159,f,25,english,4,5,french,2024-01-25 10:40:17.232188,False,1,242,sounds\french\audio/french_112.wav,"[[  0.         -70.30580716]
 [  0.1         33.64373442]
 [  0.2         26.55830463]
 [  0.25666667  46.16769785]]","[[0.         0.18088618]
 [0.1        1.43869791]
 [0.2        0.89230346]
 [0.25666667 0.14009493]]",1,2.984
8723415159,f,25,english,4,5,french,2024-01-25 10:40:17.232188,False,1,243,sounds\french\audio/french_365.wav,"[[  0.         -98.04571794]
 [  0.1        -73.67698607]
 [  0.2        -96.43604562]
 [  0.25666667  37.7893414 ]]","[[0.         1.18023288]
 [0.1        1.95707288]
 [0.2        0.58641449]
 [0.25666667 1.65360278]]",1,0.487
8723415159,f,25,english,4,5,french,2024-01-25 10:40:17.232188,False,1,244,sounds\french\audio/french_756.wav,"[[  0.          35.62001521]
 [  0.1         29.8199127 ]
 [  0.2         -2.36977437]
 [  0.25666667 -73.14220453]]","[[0.         0.86430693]
 [0.1        1.17673467]
 [0.2        1.63370718]
 [0.25666667 1.98740672]]",1,0.372
8723415159,f,25,english,4,5,french,2024-01-25 10:40:17.232188,False,1,245,sounds\french\audio/french_934.wav,"[[  0.          -9.72159443]
 [  0.1        -11.38125641]
 [  0.2        -15.93762726]
 [  0.25666667 -19.962769  ]]","[[0.         1.08583672]
 [0.1        0.99463139]
 [0.2        1.46206623]
 [0.25666667 1.59629023]]",1,1.409
8723415159,f,25,english,4,5,french,2024-01-25 10:40:17.232188,False,1,246,sounds\french\audio/french_563.wav,"[[  0.           1.48089244]
 [  0.1         19.03426996]
 [  0.2        -28.07832236]
 [  0.25666667  33.25369521]]","[[0.         0.83142925]
 [0.1        1.65727988]
 [0.2        1.36487064]
 [0.25666667 0.18463038]]",1,0.807
8723415159,f,25,english,4,5,french,2024-01-25 10:40:17.232188,False,1,247,sounds\french\audio/french_220.wav,"[[  0.          99.39862809]
 [  0.1        -16.44954754]
 [  0.2        -73.93109837]
 [  0.25666667 -37.75571533]]","[[0.         1.95391084]
 [0.1        1.60430152]
 [0.2        1.1953066 ]
 [0.25666667 0.34699919]]",0,0.409
8723415159,f,25,english,4,5,french,2024-01-25 10:40:17.232188,False,1,248,sounds\french\audio/french_340.wav,"[[  0.         -77.74428769]
 [  0.1        -23.36816436]
 [  0.2        -44.47255335]
 [  0.25666667 -51.35474548]]","[[0.         1.5012345 ]
 [0.1        1.72338521]
 [0.2        0.55046319]
 [0.25666667 0.98182936]]",1,0.261
8723415159,f,25,english,4,5,french,2024-01-25 10:40:17.232188,False,1,249,sounds\french\audio/french_503.wav,"[[  0.         -70.57406247]
 [  0.1        -50.28029143]
 [  0.2         -1.92788211]
 [  0.25666667  82.92590596]]","[[0.         0.43346158]
 [0.1        1.6767429 ]
 [0.2        0.59100625]
 [0.25666667 1.4727109 ]]",1,0.35
8723415159,f,25,english,4,5,french,2024-01-25 10:40:17.232188,False,1,250,sounds\french\audio/french_938.wav,"[[  0.         -81.44382825]
 [  0.1         70.63637201]
 [  0.2         29.19185054]
 [  0.25666667  62.72928817]]","[[0.         1.9747372 ]
 [0.1        1.46978645]
 [0.2        1.77157462]
 [0.25666667 1.30296517]]",1,0.35
8723415159,f,25,english,4,5,french,2024-01-25 10:40:17.232188,False,1,251,sounds\french\audio/french_123.wav,"[[ 0.         47.28842571]
 [ 0.1        40.8763752 ]
 [ 0.2        -0.29365354]
 [ 0.25666667 -9.49286286]]","[[0.         1.09614989]
 [0.1        1.93529177]
 [0.2        0.05812677]
 [0.25666667 0.68816992]]",0,0.542
8723415159,f,25,english,4,5,french,2024-01-25 10:40:17.232188,False,1,252,sounds\french\audio/french_169.wav,"[[  0.          14.47590961]
 [  0.1         38.07545665]
 [  0.2        -50.40298695]
 [  0.25666667  25.61467991]]","[[0.         1.38784349]
 [0.1        1.28983767]
 [0.2        0.58936297]
 [0.25666667 0.49151359]]",0,0.288
