subj,sex,age,language,english,french,native_lang,date,practice,block,trial,stim,pitch,stretch,response,rt
3,m,24,french,3,5,french,2024-02-09 11:37:30.674810,False,2,303,sounds\french\audio/french_683.wav,"[[  0.          21.98154849]
 [  0.1         59.44126587]
 [  0.2        -51.05687534]
 [  0.25666667  -9.70916743]]","[[0.         0.17421097]
 [0.1        0.03094343]
 [0.2        0.79924543]
 [0.25666667 0.82068176]]",1,1.366
3,m,24,french,3,5,french,2024-02-09 11:37:30.674810,False,2,304,sounds\french\audio/french_997.wav,"[[ 0.         70.02211451]
 [ 0.1        69.24362731]
 [ 0.2        73.007848  ]
 [ 0.25666667 83.15376715]]","[[0.         0.23520638]
 [0.1        0.40856699]
 [0.2        1.59962624]
 [0.25666667 0.8906701 ]]",0,0.999
3,m,24,french,3,5,french,2024-02-09 11:37:30.674810,False,2,305,sounds\french\audio/french_879.wav,"[[  0.         -48.96816685]
 [  0.1        -79.01398257]
 [  0.2        -55.9985187 ]
 [  0.25666667 -98.06504365]]","[[0.         1.19104759]
 [0.1        0.98306132]
 [0.2        0.68767433]
 [0.25666667 1.4115175 ]]",0,0.285
3,m,24,french,3,5,french,2024-02-09 11:37:30.674810,False,2,306,sounds\french\audio/french_836.wav,"[[ 0.         40.23641464]
 [ 0.1        53.79535187]
 [ 0.2        -4.0789246 ]
 [ 0.25666667  3.8536211 ]]","[[0.         0.42377088]
 [0.1        0.63943013]
 [0.2        1.19242466]
 [0.25666667 1.488673  ]]",1,0.515
3,m,24,french,3,5,french,2024-02-09 11:37:30.674810,False,2,307,sounds\french\audio/french_785.wav,"[[  0.         -85.51822201]
 [  0.1         -3.83792251]
 [  0.2         45.88945115]
 [  0.25666667  38.51931882]]","[[0.         1.39201941]
 [0.1        0.93814534]
 [0.2        0.59493864]
 [0.25666667 0.08649149]]",0,0.186
3,m,24,french,3,5,french,2024-02-09 11:37:30.674810,False,2,308,sounds\french\audio/french_431.wav,"[[  0.         -54.98282588]
 [  0.1        -84.59035382]
 [  0.2        -24.91317649]
 [  0.25666667  11.58207854]]","[[0.         1.39465542]
 [0.1        1.77814632]
 [0.2        0.57412197]
 [0.25666667 1.85348509]]",0,0.504
3,m,24,french,3,5,french,2024-02-09 11:37:30.674810,False,2,309,sounds\french\audio/french_877.wav,"[[  0.         -23.96574217]
 [  0.1         51.07186547]
 [  0.2         26.38223439]
 [  0.25666667  57.01482149]]","[[0.         0.96253444]
 [0.1        1.01009898]
 [0.2        1.26042149]
 [0.25666667 0.37917076]]",1,0.969
3,m,24,french,3,5,french,2024-02-09 11:37:30.674810,False,2,310,sounds\french\audio/french_960.wav,"[[  0.         -21.44081237]
 [  0.1        -88.4923718 ]
 [  0.2         38.79957112]
 [  0.25666667 -94.67313386]]","[[0.         0.51475761]
 [0.1        1.11613408]
 [0.2        0.09358172]
 [0.25666667 1.96196729]]",1,0.636
3,m,24,french,3,5,french,2024-02-09 11:37:30.674810,False,2,311,sounds\french\audio/french_231.wav,"[[  0.          15.23586761]
 [  0.1         15.03275874]
 [  0.2        -80.75641997]
 [  0.25666667 -36.14562296]]","[[0.         1.95048297]
 [0.1        1.45451509]
 [0.2        1.67801628]
 [0.25666667 1.39710855]]",0,0.2
3,m,24,french,3,5,french,2024-02-09 11:37:30.674810,False,2,312,sounds\french\audio/french_50.wav,"[[  0.         -85.65055263]
 [  0.1         -8.41774185]
 [  0.2         31.4658541 ]
 [  0.25666667  98.77299977]]","[[0.         1.56155391]
 [0.1        0.5849625 ]
 [0.2        1.04346227]
 [0.25666667 0.72937699]]",0,1.277
3,m,24,french,3,5,french,2024-02-09 11:37:30.674810,False,2,313,sounds\french\audio/french_734.wav,"[[  0.          24.54171911]
 [  0.1         62.00217695]
 [  0.2        -55.547606  ]
 [  0.25666667  25.07561383]]","[[0.         0.95806039]
 [0.1        1.43009574]
 [0.2        0.47319646]
 [0.25666667 0.83118698]]",0,0.473
3,m,24,french,3,5,french,2024-02-09 11:37:30.674810,False,2,314,sounds\french\audio/french_479.wav,"[[  0.         -77.56228832]
 [  0.1        -51.14246902]
 [  0.2         54.51803315]
 [  0.25666667  -8.31356421]]","[[0.         0.23971003]
 [0.1        1.41057828]
 [0.2        0.5803481 ]
 [0.25666667 0.39274068]]",1,0.392
3,m,24,french,3,5,french,2024-02-09 11:37:30.674810,False,2,315,sounds\french\audio/french_969.wav,"[[  0.         -10.47620341]
 [  0.1         -9.05898311]
 [  0.2        -40.12378042]
 [  0.25666667   9.74664574]]","[[0.         0.56181474]
 [0.1        1.62172025]
 [0.2        1.31687422]
 [0.25666667 0.40962586]]",0,0.18
3,m,24,french,3,5,french,2024-02-09 11:37:30.674810,False,2,316,sounds\french\audio/french_143.wav,"[[  0.         -46.09253598]
 [  0.1         41.21858491]
 [  0.2         10.38405582]
 [  0.25666667 -99.98168054]]","[[0.         1.27633083]
 [0.1        0.28919458]
 [0.2        0.61917155]
 [0.25666667 0.37925836]]",0,1.038
3,m,24,french,3,5,french,2024-02-09 11:37:30.674810,False,2,317,sounds\french\audio/french_319.wav,"[[  0.          63.69489547]
 [  0.1         60.76449486]
 [  0.2        -58.82123998]
 [  0.25666667  43.46614377]]","[[0.         0.79356863]
 [0.1        1.37507237]
 [0.2        1.06369674]
 [0.25666667 1.64660946]]",0,0.26
3,m,24,french,3,5,french,2024-02-09 11:37:30.674810,False,2,318,sounds\french\audio/french_253.wav,"[[  0.          46.57034738]
 [  0.1         95.71705704]
 [  0.2        -25.2299753 ]
 [  0.25666667 -10.51050389]]","[[0.         1.71066879]
 [0.1        0.77231307]
 [0.2        0.81370988]
 [0.25666667 1.71668189]]",1,0.659
3,m,24,french,3,5,french,2024-02-09 11:37:30.674810,False,2,319,sounds\french\audio/french_378.wav,"[[ 0.         74.25757507]
 [ 0.1        69.54270197]
 [ 0.2        91.83328043]
 [ 0.25666667 65.12199987]]","[[0.         1.44636003]
 [0.1        0.18429149]
 [0.2        0.75177649]
 [0.25666667 0.49263706]]",0,0.442
3,m,24,french,3,5,french,2024-02-09 11:37:30.674810,False,2,320,sounds\french\audio/french_963.wav,"[[ 0.         47.65214736]
 [ 0.1         6.38608236]
 [ 0.2        90.58649254]
 [ 0.25666667 -7.76898595]]","[[0.         0.44378955]
 [0.1        0.94107122]
 [0.2        1.48470349]
 [0.25666667 1.98203536]]",0,1.156
3,m,24,french,3,5,french,2024-02-09 11:37:30.674810,False,2,321,sounds\french\audio/french_870.wav,"[[ 0.         93.84124937]
 [ 0.1        28.95893835]
 [ 0.2        47.67512023]
 [ 0.25666667 -4.48390189]]","[[0.         1.21813626]
 [0.1        0.388995  ]
 [0.2        1.25544279]
 [0.25666667 0.09184868]]",0,0.517
3,m,24,french,3,5,french,2024-02-09 11:37:30.674810,False,2,322,sounds\french\audio/french_6.wav,"[[  0.          67.46153681]
 [  0.1        -88.84735091]
 [  0.2        -91.91919173]
 [  0.25666667  29.60258617]]","[[0.         1.53277947]
 [0.1        1.45938327]
 [0.2        0.73643418]
 [0.25666667 1.91810532]]",0,0.497
3,m,24,french,3,5,french,2024-02-09 11:37:30.674810,False,2,323,sounds\french\audio/french_852.wav,"[[  0.         -21.25647341]
 [  0.1         44.09899268]
 [  0.2        -20.54343266]
 [  0.25666667 -73.6389021 ]]","[[0.         1.59129412]
 [0.1        0.90931534]
 [0.2        0.17046498]
 [0.25666667 0.95788578]]",1,0.902
3,m,24,french,3,5,french,2024-02-09 11:37:30.674810,False,2,324,sounds\french\audio/french_926.wav,"[[  0.         -38.30420493]
 [  0.1        -97.26803886]
 [  0.2         55.3544282 ]
 [  0.25666667   8.78644418]]","[[0.         1.0266732 ]
 [0.1        0.03873156]
 [0.2        0.32593073]
 [0.25666667 0.80695306]]",1,2.014
3,m,24,french,3,5,french,2024-02-09 11:37:30.674810,False,2,325,sounds\french\audio/french_539.wav,"[[  0.         -25.67038427]
 [  0.1         48.64308398]
 [  0.2        -77.82337419]
 [  0.25666667 -42.20378119]]","[[0.         1.25415191]
 [0.1        1.80742897]
 [0.2        1.66801057]
 [0.25666667 0.618258  ]]",0,0.304
3,m,24,french,3,5,french,2024-02-09 11:37:30.674810,False,2,326,sounds\french\audio/french_238.wav,"[[ 0.         -7.77377299]
 [ 0.1        24.08862247]
 [ 0.2        87.10581208]
 [ 0.25666667 73.57906518]]","[[0.         1.79398275]
 [0.1        0.12404774]
 [0.2        0.76943839]
 [0.25666667 1.68164748]]",0,0.43
3,m,24,french,3,5,french,2024-02-09 11:37:30.674810,False,2,327,sounds\french\audio/french_677.wav,"[[  0.         -14.76179085]
 [  0.1        -96.15101895]
 [  0.2         48.20621423]
 [  0.25666667  23.33985038]]","[[0.         0.10277679]
 [0.1        0.35083798]
 [0.2        0.65953763]
 [0.25666667 0.76581679]]",1,0.624
3,m,24,french,3,5,french,2024-02-09 11:37:30.674810,False,2,328,sounds\french\audio/french_558.wav,"[[  0.         -24.56305845]
 [  0.1         18.75830467]
 [  0.2         -0.86444976]
 [  0.25666667 -67.61408917]]","[[0.         0.85912435]
 [0.1        1.74056956]
 [0.2        0.35762899]
 [0.25666667 1.29508782]]",0,0.373
3,m,24,french,3,5,french,2024-02-09 11:37:30.674810,False,2,329,sounds\french\audio/french_463.wav,"[[  0.         -19.30652055]
 [  0.1         40.7979064 ]
 [  0.2         73.8964325 ]
 [  0.25666667 -55.7146218 ]]","[[0.         0.66062429]
 [0.1        1.38698103]
 [0.2        0.77621561]
 [0.25666667 0.65457598]]",0,0.5
3,m,24,french,3,5,french,2024-02-09 11:37:30.674810,False,2,330,sounds\french\audio/french_193.wav,"[[  0.         -28.32639357]
 [  0.1        -28.26139456]
 [  0.2        -57.21870996]
 [  0.25666667 -51.4120543 ]]","[[0.         1.40536398]
 [0.1        0.96467568]
 [0.2        1.12687293]
 [0.25666667 0.49094377]]",0,1.665
3,m,24,french,3,5,french,2024-02-09 11:37:30.674810,False,2,331,sounds\french\audio/french_524.wav,"[[  0.          29.26114001]
 [  0.1         51.10918927]
 [  0.2        -43.7486939 ]
 [  0.25666667 -29.29338592]]","[[0.         1.50805134]
 [0.1        1.00551207]
 [0.2        1.81734516]
 [0.25666667 0.93830148]]",0,0.376
3,m,24,french,3,5,french,2024-02-09 11:37:30.674810,False,2,332,sounds\french\audio/french_114.wav,"[[ 0.         36.61172137]
 [ 0.1         1.16528437]
 [ 0.2        91.5106094 ]
 [ 0.25666667 23.38458366]]","[[0.         1.1665973 ]
 [0.1        0.29978092]
 [0.2        1.30847922]
 [0.25666667 1.1533172 ]]",1,0.325
3,m,24,french,3,5,french,2024-02-09 11:37:30.674810,False,2,333,sounds\french\audio/french_663.wav,"[[  0.           9.26283991]
 [  0.1          8.63416543]
 [  0.2        -94.49816933]
 [  0.25666667 -21.43071833]]","[[0.         1.50228176]
 [0.1        0.75616041]
 [0.2        0.98085129]
 [0.25666667 1.35574544]]",0,1.336
3,m,24,french,3,5,french,2024-02-09 11:37:30.674810,False,2,334,sounds\french\audio/french_876.wav,"[[  0.         -63.60663495]
 [  0.1        -33.069551  ]
 [  0.2         44.38072254]
 [  0.25666667   3.25210733]]","[[0.         1.31328738]
 [0.1        1.53761103]
 [0.2        1.15738415]
 [0.25666667 1.33428182]]",0,0.352
3,m,24,french,3,5,french,2024-02-09 11:37:30.674810,False,2,335,sounds\french\audio/french_401.wav,"[[  0.         -70.28001137]
 [  0.1        -33.39817342]
 [  0.2         31.30905025]
 [  0.25666667  85.09993336]]","[[0.         0.55430578]
 [0.1        1.52055291]
 [0.2        1.05517946]
 [0.25666667 0.68126919]]",0,0.684
3,m,24,french,3,5,french,2024-02-09 11:37:30.674810,False,2,336,sounds\french\audio/french_977.wav,"[[  0.         -23.34946859]
 [  0.1        -74.17160997]
 [  0.2         31.43852713]
 [  0.25666667 -10.29160018]]","[[0.         1.58788712]
 [0.1        0.25032328]
 [0.2        0.90752219]
 [0.25666667 1.52460946]]",0,1.213
3,m,24,french,3,5,french,2024-02-09 11:37:30.674810,False,2,337,sounds\french\audio/french_581.wav,"[[  0.         -12.19849528]
 [  0.1         96.23210286]
 [  0.2        -75.71717575]
 [  0.25666667  36.78246633]]","[[0.         0.7315947 ]
 [0.1        0.75639682]
 [0.2        0.47033606]
 [0.25666667 0.84951166]]",1,0.255
3,m,24,french,3,5,french,2024-02-09 11:37:30.674810,False,2,338,sounds\french\audio/french_779.wav,"[[  0.         -23.73686582]
 [  0.1         96.23962081]
 [  0.2         19.26430851]
 [  0.25666667 -72.92378626]]","[[0.         0.65858767]
 [0.1        1.55580865]
 [0.2        1.22244229]
 [0.25666667 1.83333034]]",0,0.431
3,m,24,french,3,5,french,2024-02-09 11:37:30.674810,False,2,339,sounds\french\audio/french_303.wav,"[[  0.         -37.35678584]
 [  0.1        -60.74389767]
 [  0.2         74.2341812 ]
 [  0.25666667  74.10759125]]","[[0.         1.71041427]
 [0.1        0.8709471 ]
 [0.2        1.02400634]
 [0.25666667 0.07072526]]",0,1.423
3,m,24,french,3,5,french,2024-02-09 11:37:30.674810,False,2,340,sounds\french\audio/french_316.wav,"[[  0.          71.43385859]
 [  0.1        -31.05932013]
 [  0.2          7.51523711]
 [  0.25666667 -46.68412198]]","[[0.         0.02011656]
 [0.1        1.43477753]
 [0.2        0.06852206]
 [0.25666667 1.51807936]]",1,1.723
3,m,24,french,3,5,french,2024-02-09 11:37:30.674810,False,2,341,sounds\french\audio/french_763.wav,"[[  0.         -96.72958763]
 [  0.1         95.66434095]
 [  0.2        -84.28875962]
 [  0.25666667 -41.37848175]]","[[0.         0.69845728]
 [0.1        1.4089076 ]
 [0.2        1.74428554]
 [0.25666667 0.12054272]]",0,0.176
3,m,24,french,3,5,french,2024-02-09 11:37:30.674810,False,2,342,sounds\french\audio/french_691.wav,"[[  0.          89.02514599]
 [  0.1         84.72414094]
 [  0.2         -3.6265137 ]
 [  0.25666667 -99.35319265]]","[[0.         1.04651451]
 [0.1        1.61938954]
 [0.2        1.34588415]
 [0.25666667 1.50620009]]",1,0.847
3,m,24,french,3,5,french,2024-02-09 11:37:30.674810,False,2,343,sounds\french\audio/french_954.wav,"[[  0.         -31.81965022]
 [  0.1         82.90828133]
 [  0.2         94.68318648]
 [  0.25666667 -42.01635115]]","[[0.         1.69468269]
 [0.1        0.7734121 ]
 [0.2        0.43346946]
 [0.25666667 0.14112827]]",0,0.243
3,m,24,french,3,5,french,2024-02-09 11:37:30.674810,False,2,344,sounds\french\audio/french_271.wav,"[[  0.         -86.49285917]
 [  0.1         54.15727338]
 [  0.2        -55.0986676 ]
 [  0.25666667   7.9559813 ]]","[[0.         1.06522616]
 [0.1        1.2372135 ]
 [0.2        1.00925168]
 [0.25666667 0.76785851]]",0,0.869
3,m,24,french,3,5,french,2024-02-09 11:37:30.674810,False,2,345,sounds\french\audio/french_179.wav,"[[  0.         -38.66887761]
 [  0.1        -45.74367449]
 [  0.2         41.91599006]
 [  0.25666667  36.18860402]]","[[0.         0.36967864]
 [0.1        1.41588785]
 [0.2        1.38004937]
 [0.25666667 1.10239155]]",0,0.763
3,m,24,french,3,5,french,2024-02-09 11:37:30.674810,False,2,346,sounds\french\audio/french_445.wav,"[[  0.           8.73559539]
 [  0.1        -22.15313252]
 [  0.2         26.0955013 ]
 [  0.25666667  22.70157082]]","[[0.         0.8054478 ]
 [0.1        1.73211315]
 [0.2        0.21896619]
 [0.25666667 0.54256666]]",0,1.194
3,m,24,french,3,5,french,2024-02-09 11:37:30.674810,False,2,347,sounds\french\audio/french_779.wav,"[[  0.         -23.73686582]
 [  0.1         96.23962081]
 [  0.2         19.26430851]
 [  0.25666667 -72.92378626]]","[[0.         0.65858767]
 [0.1        1.55580865]
 [0.2        1.22244229]
 [0.25666667 1.83333034]]",0,1.674
3,m,24,french,3,5,french,2024-02-09 11:37:30.674810,False,2,348,sounds\french\audio/french_237.wav,"[[  0.          -1.09426196]
 [  0.1        -48.49856075]
 [  0.2         36.42993093]
 [  0.25666667 -47.65767162]]","[[0.         0.40664609]
 [0.1        0.23529618]
 [0.2        0.05363011]
 [0.25666667 1.34950367]]",1,0.454
3,m,24,french,3,5,french,2024-02-09 11:37:30.674810,False,2,349,sounds\french\audio/french_674.wav,"[[  0.          36.8658398 ]
 [  0.1        -70.55199619]
 [  0.2         -3.70121723]
 [  0.25666667  30.12615154]]","[[0.         0.63817569]
 [0.1        1.9135219 ]
 [0.2        1.96782527]
 [0.25666667 0.86862342]]",0,0.426
3,m,24,french,3,5,french,2024-02-09 11:37:30.674810,False,2,350,sounds\french\audio/french_775.wav,"[[  0.         -25.73289632]
 [  0.1         52.55800123]
 [  0.2        -82.88064372]
 [  0.25666667  71.02003497]]","[[0.         0.08278175]
 [0.1        0.7848412 ]
 [0.2        1.99473571]
 [0.25666667 0.87564379]]",1,0.263
3,m,24,french,3,5,french,2024-02-09 11:37:30.674810,False,2,351,sounds\french\audio/french_936.wav,"[[  0.         -20.69739044]
 [  0.1         11.25896305]
 [  0.2        -73.43688333]
 [  0.25666667  14.6038409 ]]","[[0.         1.81100612]
 [0.1        0.34150345]
 [0.2        0.78598688]
 [0.25666667 0.34536881]]",1,1.531
3,m,24,french,3,5,french,2024-02-09 11:37:30.674810,False,2,352,sounds\french\audio/french_36.wav,"[[  0.          97.14143801]
 [  0.1         96.24936774]
 [  0.2         69.49703902]
 [  0.25666667 -77.37121036]]","[[0.         0.84704198]
 [0.1        1.47086473]
 [0.2        1.29858496]
 [0.25666667 1.24445776]]",0,0.257
3,m,24,french,3,5,french,2024-02-09 11:37:30.674810,False,2,353,sounds\french\audio/french_309.wav,"[[  0.         -43.78964232]
 [  0.1         78.2069368 ]
 [  0.2        -31.15110399]
 [  0.25666667 -73.94684578]]","[[0.         0.29425556]
 [0.1        1.94220297]
 [0.2        1.27018493]
 [0.25666667 1.0788176 ]]",1,0.378
3,m,24,french,3,5,french,2024-02-09 11:37:30.674810,False,2,354,sounds\french\audio/french_903.wav,"[[  0.         -17.08871031]
 [  0.1         52.87150714]
 [  0.2        -46.35078868]
 [  0.25666667  67.27089244]]","[[0.         0.50691937]
 [0.1        1.06902364]
 [0.2        1.77440634]
 [0.25666667 0.5573406 ]]",0,0.34
3,m,24,french,3,5,french,2024-02-09 11:37:30.674810,False,2,355,sounds\french\audio/french_301.wav,"[[ 0.         69.85248337]
 [ 0.1        -5.79297453]
 [ 0.2        45.5401504 ]
 [ 0.25666667 54.55962649]]","[[0.         0.52307933]
 [0.1        1.24080119]
 [0.2        0.43993349]
 [0.25666667 1.3035803 ]]",1,0.928
3,m,24,french,3,5,french,2024-02-09 11:37:30.674810,False,2,356,sounds\french\audio/french_831.wav,"[[ 0.         63.54740934]
 [ 0.1        37.72830153]
 [ 0.2        -3.45882983]
 [ 0.25666667 83.86154552]]","[[0.         1.51153345]
 [0.1        0.09945987]
 [0.2        0.22010167]
 [0.25666667 0.71497999]]",0,0.298
3,m,24,french,3,5,french,2024-02-09 11:37:30.674810,False,2,357,sounds\french\audio/french_726.wav,"[[  0.          24.00791096]
 [  0.1        -92.28715444]
 [  0.2        -14.16316682]
 [  0.25666667  30.70182153]]","[[0.         1.57962765]
 [0.1        0.67026409]
 [0.2        0.1799528 ]
 [0.25666667 1.72405897]]",0,0.362
3,m,24,french,3,5,french,2024-02-09 11:37:30.674810,False,2,358,sounds\french\audio/french_473.wav,"[[  0.         -59.88543895]
 [  0.1         36.52277503]
 [  0.2        -76.47045714]
 [  0.25666667 -69.05057232]]","[[0.         0.32878746]
 [0.1        0.29204452]
 [0.2        0.65259503]
 [0.25666667 0.35645849]]",1,0.366
3,m,24,french,3,5,french,2024-02-09 11:37:30.674810,False,2,359,sounds\french\audio/french_929.wav,"[[ 0.         -0.81023728]
 [ 0.1        49.23140571]
 [ 0.2        -9.18427249]
 [ 0.25666667  2.49300226]]","[[0.         1.80594317]
 [0.1        0.75886247]
 [0.2        0.13714517]
 [0.25666667 0.57622003]]",0,0.214
3,m,24,french,3,5,french,2024-02-09 11:37:30.674810,False,2,360,sounds\french\audio/french_485.wav,"[[  0.          49.72116837]
 [  0.1         30.83147643]
 [  0.2         37.98454641]
 [  0.25666667 -93.0468476 ]]","[[0.         1.80184077]
 [0.1        1.80095915]
 [0.2        1.42682554]
 [0.25666667 0.86529676]]",0,0.429
3,m,24,french,3,5,french,2024-02-09 11:37:30.674810,False,2,361,sounds\french\audio/french_854.wav,"[[  0.          -7.31529778]
 [  0.1        -99.41756076]
 [  0.2          9.72781791]
 [  0.25666667  12.92966386]]","[[0.         1.19205775]
 [0.1        1.8519083 ]
 [0.2        0.75121465]
 [0.25666667 0.73809803]]",1,0.186
3,m,24,french,3,5,french,2024-02-09 11:37:30.674810,False,2,362,sounds\french\audio/french_131.wav,"[[  0.          55.95469812]
 [  0.1        -96.48122085]
 [  0.2        -45.26115565]
 [  0.25666667  97.10583427]]","[[0.         0.7326606 ]
 [0.1        0.77747938]
 [0.2        1.02132862]
 [0.25666667 0.34109041]]",0,0.32
3,m,24,french,3,5,french,2024-02-09 11:37:30.674810,False,2,363,sounds\french\audio/french_720.wav,"[[  0.         -84.90658582]
 [  0.1         42.34331668]
 [  0.2        -51.84568825]
 [  0.25666667  70.93496883]]","[[0.         1.45299565]
 [0.1        1.58494494]
 [0.2        1.67187292]
 [0.25666667 0.90000718]]",1,0.331
3,m,24,french,3,5,french,2024-02-09 11:37:30.674810,False,2,364,sounds\french\audio/french_589.wav,"[[  0.         -25.33744833]
 [  0.1        -46.00092507]
 [  0.2        -35.85501424]
 [  0.25666667  61.35269907]]","[[0.         1.20649344]
 [0.1        0.60898863]
 [0.2        0.34188975]
 [0.25666667 1.06172305]]",0,0.342
3,m,24,french,3,5,french,2024-02-09 11:37:30.674810,False,2,365,sounds\french\audio/french_491.wav,"[[ 0.00000000e+00  4.86868680e+01]
 [ 1.00000000e-01 -4.81683993e+01]
 [ 2.00000000e-01 -4.23609681e+01]
 [ 2.56666667e-01  2.49582160e-02]]","[[0.         0.42969684]
 [0.1        1.38937301]
 [0.2        1.25630672]
 [0.25666667 0.04562268]]",1,0.477
3,m,24,french,3,5,french,2024-02-09 11:37:30.674810,False,2,366,sounds\french\audio/french_906.wav,"[[  0.         -13.49448879]
 [  0.1         31.46373863]
 [  0.2        -49.02376816]
 [  0.25666667  26.58933429]]","[[0.         0.31236465]
 [0.1        1.12113229]
 [0.2        0.0749788 ]
 [0.25666667 0.8331551 ]]",0,0.298
3,m,24,french,3,5,french,2024-02-09 11:37:30.674810,False,2,367,sounds\french\audio/french_120.wav,"[[  0.          59.29212404]
 [  0.1          4.80411823]
 [  0.2         12.26509955]
 [  0.25666667 -79.44354783]]","[[0.         1.04724114]
 [0.1        0.97380182]
 [0.2        0.22521264]
 [0.25666667 0.8027629 ]]",1,1.195
3,m,24,french,3,5,french,2024-02-09 11:37:30.674810,False,2,368,sounds\french\audio/french_310.wav,"[[  0.         -83.78338178]
 [  0.1        -13.73891655]
 [  0.2         58.07821313]
 [  0.25666667  26.26954934]]","[[0.         0.11877442]
 [0.1        1.32851017]
 [0.2        0.76082745]
 [0.25666667 1.37378881]]",0,0.422
3,m,24,french,3,5,french,2024-02-09 11:37:30.674810,False,2,369,sounds\french\audio/french_560.wav,"[[  0.         -42.00998938]
 [  0.1        -57.33016448]
 [  0.2         94.61210268]
 [  0.25666667 -53.14621565]]","[[0.         1.48749501]
 [0.1        0.25124208]
 [0.2        1.70870291]
 [0.25666667 0.91259566]]",0,0.233
3,m,24,french,3,5,french,2024-02-09 11:37:30.674810,False,2,370,sounds\french\audio/french_86.wav,"[[  0.         -13.34839912]
 [  0.1         -0.15074382]
 [  0.2         25.45831569]
 [  0.25666667  48.27326553]]","[[0.         1.5394535 ]
 [0.1        0.88064418]
 [0.2        1.66652907]
 [0.25666667 0.20293469]]",1,0.69
3,m,24,french,3,5,french,2024-02-09 11:37:30.674810,False,2,371,sounds\french\audio/french_384.wav,"[[ 0.         96.27107524]
 [ 0.1        31.19825585]
 [ 0.2        59.60884037]
 [ 0.25666667 90.96213602]]","[[0.         0.63462189]
 [0.1        1.63064356]
 [0.2        0.96291672]
 [0.25666667 1.24636593]]",0,0.328
3,m,24,french,3,5,french,2024-02-09 11:37:30.674810,False,2,372,sounds\french\audio/french_889.wav,"[[  0.         -11.44618348]
 [  0.1         14.52697714]
 [  0.2        -51.60315894]
 [  0.25666667  40.16126686]]","[[0.         1.60032155]
 [0.1        0.84860504]
 [0.2        1.67734449]
 [0.25666667 0.04411269]]",0,0.716
3,m,24,french,3,5,french,2024-02-09 11:37:30.674810,False,2,373,sounds\french\audio/french_982.wav,"[[  0.         -37.50079515]
 [  0.1        -23.37923681]
 [  0.2        -55.8234839 ]
 [  0.25666667 -58.92111767]]","[[0.         0.32253899]
 [0.1        1.88868261]
 [0.2        0.59835015]
 [0.25666667 1.21615752]]",0,0.887
3,m,24,french,3,5,french,2024-02-09 11:37:30.674810,False,2,374,sounds\french\audio/french_187.wav,"[[  0.         -18.61743148]
 [  0.1         27.93687652]
 [  0.2          6.26647606]
 [  0.25666667  58.88972832]]","[[0.         0.79177474]
 [0.1        0.90472294]
 [0.2        1.3885115 ]
 [0.25666667 1.88547829]]",1,0.547
3,m,24,french,3,5,french,2024-02-09 11:37:30.674810,False,2,375,sounds\french\audio/french_393.wav,"[[  0.          -4.17853165]
 [  0.1        -52.7672758 ]
 [  0.2        -35.65632354]
 [  0.25666667 -38.23501308]]","[[0.         1.11841435]
 [0.1        1.14982518]
 [0.2        1.99911749]
 [0.25666667 0.07284053]]",0,0.232
3,m,24,french,3,5,french,2024-02-09 11:37:30.674810,False,2,376,sounds\french\audio/french_298.wav,"[[  0.          77.93003267]
 [  0.1        -23.8442355 ]
 [  0.2        -77.62110697]
 [  0.25666667 -25.23897767]]","[[0.         0.74693873]
 [0.1        1.94963825]
 [0.2        1.02670819]
 [0.25666667 0.18670197]]",1,0.156
3,m,24,french,3,5,french,2024-02-09 11:37:30.674810,False,2,377,sounds\french\audio/french_78.wav,"[[  0.         -36.45256911]
 [  0.1         52.80709263]
 [  0.2        -45.25624127]
 [  0.25666667  18.96418323]]","[[0.         0.98498246]
 [0.1        1.84515784]
 [0.2        1.50799972]
 [0.25666667 1.61920031]]",0,0.168
3,m,24,french,3,5,french,2024-02-09 11:37:30.674810,False,2,378,sounds\french\audio/french_671.wav,"[[  0.         -43.02390558]
 [  0.1         13.89093856]
 [  0.2          3.48608914]
 [  0.25666667 -98.36263583]]","[[0.         0.93196934]
 [0.1        1.15314194]
 [0.2        0.54353121]
 [0.25666667 1.08598707]]",1,0.415
3,m,24,french,3,5,french,2024-02-09 11:37:30.674810,False,2,379,sounds\french\audio/french_923.wav,"[[  0.         -57.84523262]
 [  0.1        -15.65652506]
 [  0.2         37.84243464]
 [  0.25666667  15.41728704]]","[[0.         1.35677253]
 [0.1        1.1280373 ]
 [0.2        1.38752537]
 [0.25666667 1.42596606]]",0,0.216
3,m,24,french,3,5,french,2024-02-09 11:37:30.674810,False,2,380,sounds\french\audio/french_221.wav,"[[  0.         -51.4093514 ]
 [  0.1        -69.26159538]
 [  0.2        -72.79183118]
 [  0.25666667  34.31828887]]","[[0.         1.39236456]
 [0.1        1.1318895 ]
 [0.2        0.94601275]
 [0.25666667 1.80964418]]",0,0.171
3,m,24,french,3,5,french,2024-02-09 11:37:30.674810,False,2,381,sounds\french\audio/french_215.wav,"[[  0.         -76.5324967 ]
 [  0.1        -12.7876278 ]
 [  0.2        -43.60684601]
 [  0.25666667   3.65547736]]","[[0.         0.00928887]
 [0.1        1.85204819]
 [0.2        1.20297214]
 [0.25666667 1.48182424]]",1,0.865
3,m,24,french,3,5,french,2024-02-09 11:37:30.674810,False,2,382,sounds\french\audio/french_342.wav,"[[  0.         -84.22246184]
 [  0.1        -88.55202377]
 [  0.2         12.74462997]
 [  0.25666667 -73.67155113]]","[[0.         0.80111929]
 [0.1        0.92289162]
 [0.2        0.96187701]
 [0.25666667 0.57764427]]",0,0.391
3,m,24,french,3,5,french,2024-02-09 11:37:30.674810,False,2,383,sounds\french\audio/french_464.wav,"[[  0.         -77.91073693]
 [  0.1         -4.27403448]
 [  0.2         93.79465132]
 [  0.25666667  49.64849416]]","[[0.         1.45882001]
 [0.1        1.08668269]
 [0.2        1.80605145]
 [0.25666667 1.6602635 ]]",0,0.225
3,m,24,french,3,5,french,2024-02-09 11:37:30.674810,False,2,384,sounds\french\audio/french_324.wav,"[[  0.          19.03085887]
 [  0.1         67.89064078]
 [  0.2        -77.83323733]
 [  0.25666667 -13.49414868]]","[[0.         0.73874118]
 [0.1        0.03678538]
 [0.2        0.54818629]
 [0.25666667 1.04853797]]",0,0.307
3,m,24,french,3,5,french,2024-02-09 11:37:30.674810,False,2,385,sounds\french\audio/french_348.wav,"[[  0.          68.47734878]
 [  0.1         54.05190865]
 [  0.2          0.19125453]
 [  0.25666667 -34.65909089]]","[[0.         1.61227716]
 [0.1        0.93770463]
 [0.2        1.53689085]
 [0.25666667 1.17337711]]",0,0.257
3,m,24,french,3,5,french,2024-02-09 11:37:30.674810,False,2,386,sounds\french\audio/french_407.wav,"[[  0.         -57.6292462 ]
 [  0.1        -25.10683904]
 [  0.2         13.09742102]
 [  0.25666667  -8.98604593]]","[[0.         1.8651924 ]
 [0.1        1.55880725]
 [0.2        1.30220718]
 [0.25666667 1.55663467]]",0,0.163
3,m,24,french,3,5,french,2024-02-09 11:37:30.674810,False,2,387,sounds\french\audio/french_263.wav,"[[  0.          25.02930943]
 [  0.1         77.59070044]
 [  0.2         61.13366196]
 [  0.25666667 -46.58539851]]","[[0.         0.29249845]
 [0.1        1.82268286]
 [0.2        0.69638669]
 [0.25666667 0.57279137]]",1,0.353
3,m,24,french,3,5,french,2024-02-09 11:37:30.674810,False,2,388,sounds\french\audio/french_826.wav,"[[  0.         -33.86739367]
 [  0.1        -31.27966971]
 [  0.2         51.84533444]
 [  0.25666667 -81.13386792]]","[[0.         0.07066528]
 [0.1        0.90490109]
 [0.2        0.66906535]
 [0.25666667 0.4882988 ]]",1,0.334
3,m,24,french,3,5,french,2024-02-09 11:37:30.674810,False,2,389,sounds\french\audio/french_66.wav,"[[ 0.          3.84925572]
 [ 0.1        75.48045935]
 [ 0.2        22.76512124]
 [ 0.25666667 45.08821781]]","[[0.         1.88939432]
 [0.1        0.3012797 ]
 [0.2        0.5045755 ]
 [0.25666667 1.63034278]]",0,0.271
3,m,24,french,3,5,french,2024-02-09 11:37:30.674810,False,2,390,sounds\french\audio/french_831.wav,"[[ 0.         63.54740934]
 [ 0.1        37.72830153]
 [ 0.2        -3.45882983]
 [ 0.25666667 83.86154552]]","[[0.         1.51153345]
 [0.1        0.09945987]
 [0.2        0.22010167]
 [0.25666667 0.71497999]]",0,0.545
3,m,24,french,3,5,french,2024-02-09 11:37:30.674810,False,2,391,sounds\french\audio/french_79.wav,"[[  0.         -17.81057473]
 [  0.1        -79.49788956]
 [  0.2         21.64031361]
 [  0.25666667   9.8962074 ]]","[[0.         1.07647634]
 [0.1        0.19758175]
 [0.2        1.4893643 ]
 [0.25666667 1.60982877]]",0,0.272
3,m,24,french,3,5,french,2024-02-09 11:37:30.674810,False,2,392,sounds\french\audio/french_787.wav,"[[  0.         -96.56930436]
 [  0.1        -14.18878177]
 [  0.2        -34.79884993]
 [  0.25666667 -70.75211023]]","[[0.         0.95025141]
 [0.1        1.10577547]
 [0.2        0.4132657 ]
 [0.25666667 0.64958401]]",1,1.041
3,m,24,french,3,5,french,2024-02-09 11:37:30.674810,False,2,393,sounds\french\audio/french_691.wav,"[[  0.          89.02514599]
 [  0.1         84.72414094]
 [  0.2         -3.6265137 ]
 [  0.25666667 -99.35319265]]","[[0.         1.04651451]
 [0.1        1.61938954]
 [0.2        1.34588415]
 [0.25666667 1.50620009]]",0,0.208
3,m,24,french,3,5,french,2024-02-09 11:37:30.674810,False,2,394,sounds\french\audio/french_668.wav,"[[  0.          44.4696917 ]
 [  0.1         63.48880943]
 [  0.2         96.50351719]
 [  0.25666667 -38.26923088]]","[[0.         0.61167569]
 [0.1        0.96933631]
 [0.2        1.39779359]
 [0.25666667 1.779663  ]]",1,0.406
3,m,24,french,3,5,french,2024-02-09 11:37:30.674810,False,2,395,sounds\french\audio/french_657.wav,"[[  0.          99.76716584]
 [  0.1         11.51898435]
 [  0.2        -43.45408234]
 [  0.25666667  22.46427071]]","[[0.         0.85695778]
 [0.1        1.00645436]
 [0.2        0.73989588]
 [0.25666667 1.57217431]]",0,0.131
3,m,24,french,3,5,french,2024-02-09 11:37:30.674810,False,2,396,sounds\french\audio/french_312.wav,"[[  0.         -19.98952993]
 [  0.1         50.70617954]
 [  0.2         80.27383631]
 [  0.25666667  31.55502425]]","[[0.         1.92157149]
 [0.1        0.53263035]
 [0.2        1.8452111 ]
 [0.25666667 1.73122835]]",0,0.331
3,m,24,french,3,5,french,2024-02-09 11:37:30.674810,False,2,397,sounds\french\audio/french_6.wav,"[[  0.          67.46153681]
 [  0.1        -88.84735091]
 [  0.2        -91.91919173]
 [  0.25666667  29.60258617]]","[[0.         1.53277947]
 [0.1        1.45938327]
 [0.2        0.73643418]
 [0.25666667 1.91810532]]",0,0.366
3,m,24,french,3,5,french,2024-02-09 11:37:30.674810,False,2,398,sounds\french\audio/french_665.wav,"[[  0.           1.77078633]
 [  0.1        -95.60257374]
 [  0.2        -26.21333041]
 [  0.25666667 -67.7705493 ]]","[[0.         0.29838278]
 [0.1        0.72198918]
 [0.2        0.91284695]
 [0.25666667 0.52625369]]",1,0.294
3,m,24,french,3,5,french,2024-02-09 11:37:30.674810,False,2,399,sounds\french\audio/french_30.wav,"[[ 0.         76.62673318]
 [ 0.1        68.4553342 ]
 [ 0.2        55.51592845]
 [ 0.25666667 80.18190702]]","[[0.         0.98317975]
 [0.1        1.99903841]
 [0.2        1.19167606]
 [0.25666667 0.01328513]]",0,0.184
3,m,24,french,3,5,french,2024-02-09 11:37:30.674810,False,2,400,sounds\french\audio/french_27.wav,"[[  0.         -24.90567196]
 [  0.1        -76.22865867]
 [  0.2        -70.77946922]
 [  0.25666667 -40.13018173]]","[[0.         0.77746957]
 [0.1        0.36572894]
 [0.2        1.07248112]
 [0.25666667 1.35477464]]",1,1.032
3,m,24,french,3,5,french,2024-02-09 11:37:30.674810,False,2,401,sounds\french\audio/french_163.wav,"[[  0.          95.00435891]
 [  0.1         41.67922454]
 [  0.2        -79.43338234]
 [  0.25666667 -47.45672342]]","[[0.         1.26837246]
 [0.1        0.25754486]
 [0.2        1.96804031]
 [0.25666667 0.46721947]]",0,0.371
3,m,24,french,3,5,french,2024-02-09 11:37:30.674810,False,2,402,sounds\french\audio/french_659.wav,"[[ 0.         85.50464417]
 [ 0.1        65.46448613]
 [ 0.2        39.40171471]
 [ 0.25666667 -2.24011696]]","[[0.         1.33522586]
 [0.1        1.79413259]
 [0.2        1.57337642]
 [0.25666667 0.55895062]]",1,1.438
3,m,24,french,3,5,french,2024-02-09 11:37:30.674810,False,2,403,sounds\french\audio/french_973.wav,"[[  0.         -99.0384004 ]
 [  0.1         40.13117567]
 [  0.2         49.54188212]
 [  0.25666667  89.60941169]]","[[0.         1.64247416]
 [0.1        0.98090528]
 [0.2        1.75566355]
 [0.25666667 0.64442147]]",0,0.212
3,m,24,french,3,5,french,2024-02-09 11:37:30.674810,False,2,404,sounds\french\audio/french_83.wav,"[[ 0.         45.44740295]
 [ 0.1        42.82646372]
 [ 0.2        -9.21139132]
 [ 0.25666667 30.29486893]]","[[0.         0.80263788]
 [0.1        1.96742974]
 [0.2        0.40483772]
 [0.25666667 0.1024326 ]]",1,0.491
3,m,24,french,3,5,french,2024-02-09 11:37:30.674810,False,2,405,sounds\french\audio/french_115.wav,"[[  0.          79.30886426]
 [  0.1         38.64809671]
 [  0.2         24.58912206]
 [  0.25666667 -50.07125558]]","[[0.         0.55665137]
 [0.1        1.15526328]
 [0.2        1.92727625]
 [0.25666667 0.36414304]]",0,0.112
3,m,24,french,3,5,french,2024-02-09 11:37:30.674810,False,2,406,sounds\french\audio/french_926.wav,"[[  0.         -38.30420493]
 [  0.1        -97.26803886]
 [  0.2         55.3544282 ]
 [  0.25666667   8.78644418]]","[[0.         1.0266732 ]
 [0.1        0.03873156]
 [0.2        0.32593073]
 [0.25666667 0.80695306]]",0,0.856
3,m,24,french,3,5,french,2024-02-09 11:37:30.674810,False,2,407,sounds\french\audio/french_282.wav,"[[  0.         -97.43488085]
 [  0.1         96.20897113]
 [  0.2         27.16020646]
 [  0.25666667 -13.14092169]]","[[0.         0.55303377]
 [0.1        1.41145651]
 [0.2        1.83661618]
 [0.25666667 0.36912502]]",1,0.593
3,m,24,french,3,5,french,2024-02-09 11:37:30.674810,False,2,408,sounds\french\audio/french_582.wav,"[[  0.           1.47980053]
 [  0.1        -89.13888063]
 [  0.2          1.45566029]
 [  0.25666667 -76.25724372]]","[[0.         0.83350323]
 [0.1        1.99658076]
 [0.2        0.72464724]
 [0.25666667 1.09622387]]",0,0.189
3,m,24,french,3,5,french,2024-02-09 11:37:30.674810,False,2,409,sounds\french\audio/french_918.wav,"[[  0.          73.93932449]
 [  0.1        -96.38016005]
 [  0.2         52.71903464]
 [  0.25666667  71.89996729]]","[[0.         1.12285198]
 [0.1        0.52569443]
 [0.2        1.01384132]
 [0.25666667 0.74683012]]",1,0.895
3,m,24,french,3,5,french,2024-02-09 11:37:30.674810,False,2,410,sounds\french\audio/french_455.wav,"[[  0.         -38.32224649]
 [  0.1         16.6107471 ]
 [  0.2        -53.73538957]
 [  0.25666667 -39.28573671]]","[[0.         1.67202697]
 [0.1        0.91904085]
 [0.2        1.09329776]
 [0.25666667 1.37901108]]",0,0.229
3,m,24,french,3,5,french,2024-02-09 11:37:30.674810,False,2,411,sounds\french\audio/french_891.wav,"[[ 0.         36.15157251]
 [ 0.1         9.92087077]
 [ 0.2        64.79051962]
 [ 0.25666667 25.43576317]]","[[0.         0.11830574]
 [0.1        0.00778599]
 [0.2        0.40739404]
 [0.25666667 0.71071781]]",1,0.479
3,m,24,french,3,5,french,2024-02-09 11:37:30.674810,False,2,412,sounds\french\audio/french_58.wav,"[[  0.         -93.60375949]
 [  0.1        -58.1861341 ]
 [  0.2         21.81225572]
 [  0.25666667 -92.64730678]]","[[0.         1.5756198 ]
 [0.1        0.16904688]
 [0.2        0.76612631]
 [0.25666667 0.1809539 ]]",0,0.342
3,m,24,french,3,5,french,2024-02-09 11:37:30.674810,False,2,413,sounds\french\audio/french_833.wav,"[[  0.          -6.16556676]
 [  0.1        -32.48345992]
 [  0.2        -28.28033803]
 [  0.25666667  48.73445236]]","[[0.         1.54939137]
 [0.1        0.45028205]
 [0.2        0.55227402]
 [0.25666667 0.7790443 ]]",0,0.332
3,m,24,french,3,5,french,2024-02-09 11:37:30.674810,False,2,414,sounds\french\audio/french_382.wav,"[[  0.         -28.76508335]
 [  0.1         37.36249056]
 [  0.2         12.02014155]
 [  0.25666667 -78.65251684]]","[[0.         1.75225743]
 [0.1        1.09069334]
 [0.2        1.36067751]
 [0.25666667 0.9131152 ]]",0,0.456
3,m,24,french,3,5,french,2024-02-09 11:37:30.674810,False,2,415,sounds\french\audio/french_441.wav,"[[  0.         -52.65918707]
 [  0.1        -61.65013116]
 [  0.2         34.26317373]
 [  0.25666667  30.98760828]]","[[0.         0.98643262]
 [0.1        1.35237654]
 [0.2        1.5364694 ]
 [0.25666667 1.29655121]]",0,0.428
3,m,24,french,3,5,french,2024-02-09 11:37:30.674810,False,2,416,sounds\french\audio/french_286.wav,"[[  0.         -12.75776796]
 [  0.1         37.83162005]
 [  0.2        -73.99987606]
 [  0.25666667 -99.59641202]]","[[0.         0.7334837 ]
 [0.1        0.13945261]
 [0.2        0.89700821]
 [0.25666667 0.06192005]]",0,1.751
3,m,24,french,3,5,french,2024-02-09 11:37:30.674810,False,2,417,sounds\french\audio/french_414.wav,"[[  0.         -53.65137821]
 [  0.1         61.14227183]
 [  0.2        -13.28017505]
 [  0.25666667  99.20914295]]","[[0.         1.15122316]
 [0.1        1.54420741]
 [0.2        1.48861563]
 [0.25666667 0.34805763]]",0,0.571
3,m,24,french,3,5,french,2024-02-09 11:37:30.674810,False,2,418,sounds\french\audio/french_605.wav,"[[  0.         -36.16596328]
 [  0.1        -79.4068097 ]
 [  0.2        -61.39154049]
 [  0.25666667  44.72298118]]","[[0.         1.67360444]
 [0.1        0.60127341]
 [0.2        0.37070459]
 [0.25666667 1.73994467]]",0,0.478
3,m,24,french,3,5,french,2024-02-09 11:37:30.674810,False,2,419,sounds\french\audio/french_85.wav,"[[  0.           8.05629124]
 [  0.1        -30.28403137]
 [  0.2        -73.3047666 ]
 [  0.25666667  49.81841991]]","[[0.         0.15740805]
 [0.1        1.38994818]
 [0.2        0.58823714]
 [0.25666667 0.54603307]]",1,1.612
3,m,24,french,3,5,french,2024-02-09 11:37:30.674810,False,2,420,sounds\french\audio/french_868.wav,"[[  0.         -35.95288605]
 [  0.1        -17.44977395]
 [  0.2        -64.01864585]
 [  0.25666667  14.1526891 ]]","[[0.         1.76613711]
 [0.1        1.66440326]
 [0.2        0.72417379]
 [0.25666667 0.87347262]]",0,0.271
3,m,24,french,3,5,french,2024-02-09 11:37:30.674810,False,2,421,sounds\french\audio/french_946.wav,"[[  0.         -59.20376503]
 [  0.1         41.31347152]
 [  0.2        -58.18080138]
 [  0.25666667 -28.00273528]]","[[0.         1.07432488]
 [0.1        0.26624757]
 [0.2        0.53636085]
 [0.25666667 1.77786979]]",0,0.417
3,m,24,french,3,5,french,2024-02-09 11:37:30.674810,False,2,422,sounds\french\audio/french_924.wav,"[[  0.          19.51956159]
 [  0.1        -22.93629197]
 [  0.2         72.54596199]
 [  0.25666667  13.27885696]]","[[0.         0.29322561]
 [0.1        0.34885274]
 [0.2        0.3497483 ]
 [0.25666667 0.14375838]]",1,0.647
3,m,24,french,3,5,french,2024-02-09 11:37:30.674810,False,2,423,sounds\french\audio/french_845.wav,"[[  0.          -4.24220541]
 [  0.1        -33.05758094]
 [  0.2        -22.8575131 ]
 [  0.25666667 -28.52835037]]","[[0.         1.81527349]
 [0.1        0.43145559]
 [0.2        1.45726833]
 [0.25666667 1.38023089]]",0,0.418
3,m,24,french,3,5,french,2024-02-09 11:37:30.674810,False,2,424,sounds\french\audio/french_999.wav,"[[  0.          47.65145935]
 [  0.1         64.90222313]
 [  0.2         79.66636989]
 [  0.25666667 -10.95327426]]","[[0.         0.42993564]
 [0.1        1.41824969]
 [0.2        1.25132817]
 [0.25666667 1.10016678]]",1,0.74
3,m,24,french,3,5,french,2024-02-09 11:37:30.674810,False,2,425,sounds\french\audio/french_555.wav,"[[  0.         -94.33978787]
 [  0.1         93.76530939]
 [  0.2         60.24178239]
 [  0.25666667  52.06264798]]","[[0.         0.59318307]
 [0.1        0.913599  ]
 [0.2        1.32127388]
 [0.25666667 1.40091244]]",0,0.629
3,m,24,french,3,5,french,2024-02-09 11:37:30.674810,False,2,426,sounds\french\audio/french_775.wav,"[[  0.         -25.73289632]
 [  0.1         52.55800123]
 [  0.2        -82.88064372]
 [  0.25666667  71.02003497]]","[[0.         0.08278175]
 [0.1        0.7848412 ]
 [0.2        1.99473571]
 [0.25666667 0.87564379]]",1,0.925
3,m,24,french,3,5,french,2024-02-09 11:37:30.674810,False,2,427,sounds\french\audio/french_315.wav,"[[ 0.00000000e+00  8.45751695e+01]
 [ 1.00000000e-01 -5.49339599e+01]
 [ 2.00000000e-01 -2.04659381e+01]
 [ 2.56666667e-01  4.97627412e-02]]","[[0.         1.39276289]
 [0.1        0.42909402]
 [0.2        1.80166787]
 [0.25666667 1.01422067]]",0,0.282
3,m,24,french,3,5,french,2024-02-09 11:37:30.674810,False,2,428,sounds\french\audio/french_787.wav,"[[  0.         -96.56930436]
 [  0.1        -14.18878177]
 [  0.2        -34.79884993]
 [  0.25666667 -70.75211023]]","[[0.         0.95025141]
 [0.1        1.10577547]
 [0.2        0.4132657 ]
 [0.25666667 0.64958401]]",1,0.435
3,m,24,french,3,5,french,2024-02-09 11:37:30.674810,False,2,429,sounds\french\audio/french_240.wav,"[[  0.          77.68768834]
 [  0.1        -29.82643761]
 [  0.2         18.33689373]
 [  0.25666667  24.70133008]]","[[0.         0.69241663]
 [0.1        1.16068826]
 [0.2        0.98486954]
 [0.25666667 0.89191813]]",0,0.549
3,m,24,french,3,5,french,2024-02-09 11:37:30.674810,False,2,430,sounds\french\audio/french_101.wav,"[[  0.           2.45558497]
 [  0.1        -89.46857105]
 [  0.2         26.84471845]
 [  0.25666667 -40.2942876 ]]","[[0.         0.33272101]
 [0.1        1.30167387]
 [0.2        0.45771198]
 [0.25666667 1.30875705]]",1,0.476
3,m,24,french,3,5,french,2024-02-09 11:37:30.674810,False,2,431,sounds\french\audio/french_14.wav,"[[  0.          29.04259121]
 [  0.1        -13.93862831]
 [  0.2         -3.57455278]
 [  0.25666667  14.81088412]]","[[0.         1.27596418]
 [0.1        1.81664743]
 [0.2        1.61822265]
 [0.25666667 1.58848758]]",0,0.543
3,m,24,french,3,5,french,2024-02-09 11:37:30.674810,False,2,432,sounds\french\audio/french_710.wav,"[[  0.         -54.00258077]
 [  0.1         34.45486491]
 [  0.2         63.8215693 ]
 [  0.25666667  15.83931319]]","[[0.         0.87889336]
 [0.1        0.7692559 ]
 [0.2        0.4253567 ]
 [0.25666667 0.40649008]]",1,1.53
3,m,24,french,3,5,french,2024-02-09 11:37:30.674810,False,2,433,sounds\french\audio/french_430.wav,"[[  0.         -57.26862172]
 [  0.1         63.88036448]
 [  0.2        -87.83585054]
 [  0.25666667 -58.79211397]]","[[0.         0.12656802]
 [0.1        1.52184386]
 [0.2        1.10266765]
 [0.25666667 1.86011067]]",0,1.098
3,m,24,french,3,5,french,2024-02-09 11:37:30.674810,False,2,434,sounds\french\audio/french_584.wav,"[[  0.          69.79321503]
 [  0.1        -52.7276802 ]
 [  0.2        -55.3142281 ]
 [  0.25666667 -51.83811077]]","[[0.         1.17746001]
 [0.1        1.52318031]
 [0.2        1.91796719]
 [0.25666667 0.8668783 ]]",0,0.544
3,m,24,french,3,5,french,2024-02-09 11:37:30.674810,False,2,435,sounds\french\audio/french_273.wav,"[[  0.         -64.70279697]
 [  0.1         51.79292953]
 [  0.2        -96.4801009 ]
 [  0.25666667  93.42641001]]","[[0.         0.53531099]
 [0.1        0.11586536]
 [0.2        0.21168864]
 [0.25666667 1.2771199 ]]",1,0.362
3,m,24,french,3,5,french,2024-02-09 11:37:30.674810,False,2,436,sounds\french\audio/french_902.wav,"[[  0.          27.03523978]
 [  0.1        -67.54213764]
 [  0.2         21.7683879 ]
 [  0.25666667 -96.90742585]]","[[0.         0.1459181 ]
 [0.1        1.3453624 ]
 [0.2        1.83277685]
 [0.25666667 0.52631336]]",0,0.239
3,m,24,french,3,5,french,2024-02-09 11:37:30.674810,False,2,437,sounds\french\audio/french_260.wav,"[[  0.          -3.22947754]
 [  0.1        -16.22535722]
 [  0.2        -91.54207183]
 [  0.25666667 -55.70642268]]","[[0.         0.22766361]
 [0.1        1.16747398]
 [0.2        1.39667181]
 [0.25666667 1.03484551]]",0,0.56
3,m,24,french,3,5,french,2024-02-09 11:37:30.674810,False,2,438,sounds\french\audio/french_476.wav,"[[  0.         -83.79523633]
 [  0.1         62.15522278]
 [  0.2        -62.9629606 ]
 [  0.25666667  29.80880048]]","[[0.         0.72975737]
 [0.1        1.65535888]
 [0.2        1.94146275]
 [0.25666667 1.32492406]]",0,1.768
3,m,24,french,3,5,french,2024-02-09 11:37:30.674810,False,2,439,sounds\french\audio/french_388.wav,"[[  0.         -56.99851318]
 [  0.1        -28.42117093]
 [  0.2        -17.37440647]
 [  0.25666667  19.5608334 ]]","[[0.         0.76802497]
 [0.1        1.07190306]
 [0.2        0.91030877]
 [0.25666667 0.1576099 ]]",1,1.246
3,m,24,french,3,5,french,2024-02-09 11:37:30.674810,False,2,440,sounds\french\audio/french_446.wav,"[[  0.         -77.26428063]
 [  0.1        -65.30305353]
 [  0.2        -57.58787345]
 [  0.25666667  16.67337698]]","[[0.         0.33935674]
 [0.1        1.45146817]
 [0.2        0.82478891]
 [0.25666667 1.36014186]]",0,0.304
3,m,24,french,3,5,french,2024-02-09 11:37:30.674810,False,2,441,sounds\french\audio/french_133.wav,"[[  0.         -94.78194954]
 [  0.1          8.44061072]
 [  0.2         55.81768563]
 [  0.25666667  73.94294787]]","[[0.         1.29113753]
 [0.1        0.84384968]
 [0.2        1.85990436]
 [0.25666667 1.64621091]]",0,0.959
3,m,24,french,3,5,french,2024-02-09 11:37:30.674810,False,2,442,sounds\french\audio/french_156.wav,"[[  0.          31.92379501]
 [  0.1        -44.87917853]
 [  0.2        -30.25450012]
 [  0.25666667  -8.41227372]]","[[0.         1.0555525 ]
 [0.1        1.35077548]
 [0.2        0.66649605]
 [0.25666667 1.59075988]]",0,0.628
3,m,24,french,3,5,french,2024-02-09 11:37:30.674810,False,2,443,sounds\french\audio/french_204.wav,"[[  0.         -28.36319627]
 [  0.1        -92.66891013]
 [  0.2         96.29592204]
 [  0.25666667 -46.81515004]]","[[0.         0.07789368]
 [0.1        0.00203791]
 [0.2        1.92374636]
 [0.25666667 0.97947469]]",1,0.446
3,m,24,french,3,5,french,2024-02-09 11:37:30.674810,False,2,444,sounds\french\audio/french_620.wav,"[[  0.         -75.53708421]
 [  0.1          4.57362866]
 [  0.2        -79.19764782]
 [  0.25666667 -82.06470668]]","[[0.         1.75028991]
 [0.1        1.1712224 ]
 [0.2        1.92554269]
 [0.25666667 1.1477244 ]]",0,0.119
3,m,24,french,3,5,french,2024-02-09 11:37:30.674810,False,2,445,sounds\french\audio/french_414.wav,"[[  0.         -53.65137821]
 [  0.1         61.14227183]
 [  0.2        -13.28017505]
 [  0.25666667  99.20914295]]","[[0.         1.15122316]
 [0.1        1.54420741]
 [0.2        1.48861563]
 [0.25666667 0.34805763]]",0,0.379
3,m,24,french,3,5,french,2024-02-09 11:37:30.674810,False,2,446,sounds\french\audio/french_844.wav,"[[  0.          29.77319266]
 [  0.1         -6.65775534]
 [  0.2         88.70188171]
 [  0.25666667 -96.32304745]]","[[0.         0.89130203]
 [0.1        0.41170989]
 [0.2        0.96705276]
 [0.25666667 0.58258054]]",1,0.927
3,m,24,french,3,5,french,2024-02-09 11:37:30.674810,False,2,447,sounds\french\audio/french_815.wav,"[[  0.         -30.97778369]
 [  0.1        -10.3506413 ]
 [  0.2         61.86726268]
 [  0.25666667 -32.12586702]]","[[0.         1.45421986]
 [0.1        0.28044698]
 [0.2        1.88309962]
 [0.25666667 1.86356454]]",0,0.163
3,m,24,french,3,5,french,2024-02-09 11:37:30.674810,False,2,448,sounds\french\audio/french_310.wav,"[[  0.         -83.78338178]
 [  0.1        -13.73891655]
 [  0.2         58.07821313]
 [  0.25666667  26.26954934]]","[[0.         0.11877442]
 [0.1        1.32851017]
 [0.2        0.76082745]
 [0.25666667 1.37378881]]",0,0.638
3,m,24,french,3,5,french,2024-02-09 11:37:30.674810,False,2,449,sounds\french\audio/french_856.wav,"[[  0.         -64.45291012]
 [  0.1         51.16318907]
 [  0.2         51.97117103]
 [  0.25666667  78.82524423]]","[[0.         0.77997639]
 [0.1        0.05317495]
 [0.2        0.19638347]
 [0.25666667 1.64847488]]",1,0.406
3,m,24,french,3,5,french,2024-02-09 11:37:30.674810,False,2,450,sounds\french\audio/french_310.wav,"[[  0.         -83.78338178]
 [  0.1        -13.73891655]
 [  0.2         58.07821313]
 [  0.25666667  26.26954934]]","[[0.         0.11877442]
 [0.1        1.32851017]
 [0.2        0.76082745]
 [0.25666667 1.37378881]]",0,0.214
3,m,24,french,3,5,french,2024-02-09 11:37:30.674810,False,2,451,sounds\french\audio/french_679.wav,"[[  0.         -12.30272173]
 [  0.1        -25.8054218 ]
 [  0.2        -49.36641871]
 [  0.25666667   3.29240265]]","[[0.         0.22564891]
 [0.1        0.32954228]
 [0.2        0.69268874]
 [0.25666667 1.86334945]]",0,0.569
3,m,24,french,3,5,french,2024-02-09 11:37:30.674810,False,2,452,sounds\french\audio/french_904.wav,"[[  0.          -3.33486868]
 [  0.1        -72.00110742]
 [  0.2         32.54458222]
 [  0.25666667  13.13318907]]","[[0.         1.84649441]
 [0.1        1.91186975]
 [0.2        0.71589927]
 [0.25666667 0.21658524]]",0,0.349
3,m,24,french,3,5,french,2024-02-09 11:37:30.674810,False,2,453,sounds\french\audio/french_726.wav,"[[  0.          24.00791096]
 [  0.1        -92.28715444]
 [  0.2        -14.16316682]
 [  0.25666667  30.70182153]]","[[0.         1.57962765]
 [0.1        0.67026409]
 [0.2        0.1799528 ]
 [0.25666667 1.72405897]]",0,0.279
3,m,24,french,3,5,french,2024-02-09 11:37:30.674810,False,2,454,sounds\french\audio/french_243.wav,"[[  0.          94.15218044]
 [  0.1         77.54642038]
 [  0.2        -54.61145872]
 [  0.25666667 -22.57869657]]","[[0.         0.53955239]
 [0.1        1.33237065]
 [0.2        1.76705621]
 [0.25666667 1.15577178]]",0,0.183
3,m,24,french,3,5,french,2024-02-09 11:37:30.674810,False,2,455,sounds\french\audio/french_158.wav,"[[  0.          72.88318106]
 [  0.1         51.2800476 ]
 [  0.2        -29.39007937]
 [  0.25666667  87.52810159]]","[[0.         1.5476705 ]
 [0.1        1.92933226]
 [0.2        1.77733774]
 [0.25666667 1.82253327]]",1,0.288
3,m,24,french,3,5,french,2024-02-09 11:37:30.674810,False,2,456,sounds\french\audio/french_404.wav,"[[  0.         -69.94435752]
 [  0.1        -71.78209065]
 [  0.2          1.54660235]
 [  0.25666667 -64.99062427]]","[[0.         1.52233517]
 [0.1        0.64310095]
 [0.2        1.70982079]
 [0.25666667 0.43662649]]",1,0.773
3,m,24,french,3,5,french,2024-02-09 11:37:30.674810,False,2,457,sounds\french\audio/french_194.wav,"[[  0.          82.45325258]
 [  0.1         88.9094727 ]
 [  0.2        -44.07936747]
 [  0.25666667  97.80970813]]","[[0.         0.54112087]
 [0.1        0.47601939]
 [0.2        1.71905709]
 [0.25666667 1.16289195]]",0,0.187
3,m,24,french,3,5,french,2024-02-09 11:37:30.674810,False,2,458,sounds\french\audio/french_938.wav,"[[  0.         -81.44382825]
 [  0.1         70.63637201]
 [  0.2         29.19185054]
 [  0.25666667  62.72928817]]","[[0.         1.9747372 ]
 [0.1        1.46978645]
 [0.2        1.77157462]
 [0.25666667 1.30296517]]",0,0.14
3,m,24,french,3,5,french,2024-02-09 11:37:30.674810,False,2,459,sounds\french\audio/french_291.wav,"[[  0.         -84.80785011]
 [  0.1        -36.68987184]
 [  0.2        -96.57368066]
 [  0.25666667 -53.58057918]]","[[0.         0.63456403]
 [0.1        1.00353926]
 [0.2        1.89833315]
 [0.25666667 1.00269885]]",1,0.754
3,m,24,french,3,5,french,2024-02-09 11:37:30.674810,False,2,460,sounds\french\audio/french_170.wav,"[[  0.          33.63406691]
 [  0.1        -66.14633185]
 [  0.2        -74.26701986]
 [  0.25666667  32.33295865]]","[[0.         1.37140183]
 [0.1        0.98919038]
 [0.2        1.38629831]
 [0.25666667 0.43392523]]",0,0.325
3,m,24,french,3,5,french,2024-02-09 11:37:30.674810,False,2,461,sounds\french\audio/french_228.wav,"[[  0.         -13.78258648]
 [  0.1         27.88870681]
 [  0.2         -8.73674486]
 [  0.25666667 -13.88179653]]","[[0.         1.36655769]
 [0.1        1.56643938]
 [0.2        0.29403468]
 [0.25666667 0.32348249]]",0,0.286
3,m,24,french,3,5,french,2024-02-09 11:37:30.674810,False,2,462,sounds\french\audio/french_939.wav,"[[  0.          26.75853805]
 [  0.1          6.19803181]
 [  0.2        -16.72335747]
 [  0.25666667  96.23810145]]","[[0.         1.87296773]
 [0.1        1.06061528]
 [0.2        1.33482008]
 [0.25666667 0.73381464]]",0,0.212
3,m,24,french,3,5,french,2024-02-09 11:37:30.674810,False,2,463,sounds\french\audio/french_347.wav,"[[  0.         -50.57249908]
 [  0.1         -0.96259157]
 [  0.2         56.28626554]
 [  0.25666667  46.89576118]]","[[0.         1.7558536 ]
 [0.1        0.42717605]
 [0.2        1.32943016]
 [0.25666667 0.4771217 ]]",0,0.298
3,m,24,french,3,5,french,2024-02-09 11:37:30.674810,False,2,464,sounds\french\audio/french_657.wav,"[[  0.          99.76716584]
 [  0.1         11.51898435]
 [  0.2        -43.45408234]
 [  0.25666667  22.46427071]]","[[0.         0.85695778]
 [0.1        1.00645436]
 [0.2        0.73989588]
 [0.25666667 1.57217431]]",0,0.3
3,m,24,french,3,5,french,2024-02-09 11:37:30.674810,False,2,465,sounds\french\audio/french_897.wav,"[[  0.          -2.62488743]
 [  0.1        -35.09835725]
 [  0.2         -7.90226738]
 [  0.25666667  34.22753828]]","[[0.         0.95618392]
 [0.1        0.97615626]
 [0.2        0.33556547]
 [0.25666667 0.12618193]]",1,0.817
3,m,24,french,3,5,french,2024-02-09 11:37:30.674810,False,2,466,sounds\french\audio/french_530.wav,"[[  0.         -48.266975  ]
 [  0.1         10.53522492]
 [  0.2        -70.81391458]
 [  0.25666667 -13.69241617]]","[[0.         0.22885815]
 [0.1        0.99708564]
 [0.2        0.43471164]
 [0.25666667 0.61022423]]",1,0.585
3,m,24,french,3,5,french,2024-02-09 11:37:30.674810,False,2,467,sounds\french\audio/french_388.wav,"[[  0.         -56.99851318]
 [  0.1        -28.42117093]
 [  0.2        -17.37440647]
 [  0.25666667  19.5608334 ]]","[[0.         0.76802497]
 [0.1        1.07190306]
 [0.2        0.91030877]
 [0.25666667 0.1576099 ]]",0,0.212
3,m,24,french,3,5,french,2024-02-09 11:37:30.674810,False,2,468,sounds\french\audio/french_511.wav,"[[  0.         -19.9871771 ]
 [  0.1        -61.98813266]
 [  0.2        -51.99144191]
 [  0.25666667  26.5419494 ]]","[[0.         1.33271467]
 [0.1        1.54343533]
 [0.2        1.11888865]
 [0.25666667 1.56196296]]",0,0.183
3,m,24,french,3,5,french,2024-02-09 11:37:30.674810,False,2,469,sounds\french\audio/french_487.wav,"[[  0.          26.50580686]
 [  0.1        -34.14449754]
 [  0.2         66.18137857]
 [  0.25666667  -7.03677771]]","[[0.         1.63350644]
 [0.1        1.29368608]
 [0.2        0.20656395]
 [0.25666667 1.93991824]]",1,0.444
3,m,24,french,3,5,french,2024-02-09 11:37:30.674810,False,2,470,sounds\french\audio/french_301.wav,"[[ 0.         69.85248337]
 [ 0.1        -5.79297453]
 [ 0.2        45.5401504 ]
 [ 0.25666667 54.55962649]]","[[0.         0.52307933]
 [0.1        1.24080119]
 [0.2        0.43993349]
 [0.25666667 1.3035803 ]]",0,0.795
3,m,24,french,3,5,french,2024-02-09 11:37:30.674810,False,2,471,sounds\french\audio/french_731.wav,"[[  0.          52.82888701]
 [  0.1         44.66747194]
 [  0.2         83.54065351]
 [  0.25666667 -50.41579204]]","[[0.         1.42077684]
 [0.1        0.2996776 ]
 [0.2        1.21708869]
 [0.25666667 1.31490505]]",1,0.847
3,m,24,french,3,5,french,2024-02-09 11:37:30.674810,False,2,472,sounds\french\audio/french_787.wav,"[[  0.         -96.56930436]
 [  0.1        -14.18878177]
 [  0.2        -34.79884993]
 [  0.25666667 -70.75211023]]","[[0.         0.95025141]
 [0.1        1.10577547]
 [0.2        0.4132657 ]
 [0.25666667 0.64958401]]",0,0.273
3,m,24,french,3,5,french,2024-02-09 11:37:30.674810,False,2,473,sounds\french\audio/french_417.wav,"[[  0.         -52.68130191]
 [  0.1         73.91368418]
 [  0.2          7.73324389]
 [  0.25666667  92.88066518]]","[[0.         1.49469738]
 [0.1        1.06358835]
 [0.2        1.12421265]
 [0.25666667 0.65436219]]",0,0.237
3,m,24,french,3,5,french,2024-02-09 11:37:30.674810,False,2,474,sounds\french\audio/french_810.wav,"[[  0.          76.35600219]
 [  0.1         33.05643104]
 [  0.2         14.69103946]
 [  0.25666667 -16.26362119]]","[[0.         0.51042634]
 [0.1        0.40354819]
 [0.2        0.8135704 ]
 [0.25666667 0.38644961]]",1,0.481
3,m,24,french,3,5,french,2024-02-09 11:37:30.674810,False,2,475,sounds\french\audio/french_62.wav,"[[  0.         -14.31975686]
 [  0.1         44.56193131]
 [  0.2        -86.7672378 ]
 [  0.25666667  88.73328565]]","[[0.         0.1654928 ]
 [0.1        0.95189119]
 [0.2        0.13775192]
 [0.25666667 1.69441392]]",1,0.54
3,m,24,french,3,5,french,2024-02-09 11:37:30.674810,False,2,476,sounds\french\audio/french_41.wav,"[[  0.         -11.6612147 ]
 [  0.1         96.56624365]
 [  0.2         69.39294216]
 [  0.25666667 -30.30775932]]","[[0.         0.49328208]
 [0.1        1.84762861]
 [0.2        1.1434724 ]
 [0.25666667 1.13333186]]",0,0.217
3,m,24,french,3,5,french,2024-02-09 11:37:30.674810,False,2,477,sounds\french\audio/french_196.wav,"[[  0.         -51.30508497]
 [  0.1         89.17651026]
 [  0.2         77.92993737]
 [  0.25666667 -86.11962375]]","[[0.         1.16005851]
 [0.1        0.87725998]
 [0.2        1.23506332]
 [0.25666667 1.33141167]]",0,0.886
3,m,24,french,3,5,french,2024-02-09 11:37:30.674810,False,2,478,sounds\french\audio/french_740.wav,"[[  0.         -63.22643447]
 [  0.1        -76.79793208]
 [  0.2        -90.89358737]
 [  0.25666667 -87.57687491]]","[[0.         1.41698272]
 [0.1        1.15791198]
 [0.2        1.97460827]
 [0.25666667 0.61281255]]",0,0.382
3,m,24,french,3,5,french,2024-02-09 11:37:30.674810,False,2,479,sounds\french\audio/french_535.wav,"[[  0.         -81.47221285]
 [  0.1         42.68543716]
 [  0.2        -73.81682794]
 [  0.25666667 -85.27887702]]","[[0.         1.61446576]
 [0.1        1.13976105]
 [0.2        0.22032829]
 [0.25666667 0.61620659]]",0,0.364
3,m,24,french,3,5,french,2024-02-09 11:37:30.674810,False,2,480,sounds\french\audio/french_540.wav,"[[  0.          64.41538276]
 [  0.1         17.02048616]
 [  0.2        -33.22379056]
 [  0.25666667   6.66749413]]","[[0.         0.51709462]
 [0.1        1.30376576]
 [0.2        0.40148031]
 [0.25666667 1.14865781]]",1,0.531
3,m,24,french,3,5,french,2024-02-09 11:37:30.674810,False,2,481,sounds\french\audio/french_853.wav,"[[  0.         -51.03576257]
 [  0.1         41.51658453]
 [  0.2        -92.89610403]
 [  0.25666667 -36.6460181 ]]","[[0.         1.07641583]
 [0.1        0.77538457]
 [0.2        0.19170679]
 [0.25666667 1.18241166]]",0,0.196
3,m,24,french,3,5,french,2024-02-09 11:37:30.674810,False,2,482,sounds\french\audio/french_544.wav,"[[  0.         -53.15565046]
 [  0.1        -92.4791724 ]
 [  0.2         38.15839594]
 [  0.25666667  24.38113977]]","[[0.         1.35860228]
 [0.1        0.93453098]
 [0.2        0.5056151 ]
 [0.25666667 1.47508   ]]",0,0.098
3,m,24,french,3,5,french,2024-02-09 11:37:30.674810,False,2,483,sounds\french\audio/french_201.wav,"[[  0.           8.42387769]
 [  0.1          8.12168757]
 [  0.2        -23.47755607]
 [  0.25666667 -30.65193461]]","[[0.         1.26451206]
 [0.1        1.63493769]
 [0.2        1.48075017]
 [0.25666667 1.0984385 ]]",0,0.842
3,m,24,french,3,5,french,2024-02-09 11:37:30.674810,False,2,484,sounds\french\audio/french_928.wav,"[[  0.          23.35867854]
 [  0.1        -18.47737087]
 [  0.2         41.22883985]
 [  0.25666667  67.72155047]]","[[0.         0.39112769]
 [0.1        1.71601552]
 [0.2        0.4467351 ]
 [0.25666667 0.12145746]]",0,0.531
3,m,24,french,3,5,french,2024-02-09 11:37:30.674810,False,2,485,sounds\french\audio/french_946.wav,"[[  0.         -59.20376503]
 [  0.1         41.31347152]
 [  0.2        -58.18080138]
 [  0.25666667 -28.00273528]]","[[0.         1.07432488]
 [0.1        0.26624757]
 [0.2        0.53636085]
 [0.25666667 1.77786979]]",0,0.326
3,m,24,french,3,5,french,2024-02-09 11:37:30.674810,False,2,486,sounds\french\audio/french_537.wav,"[[ 0.         24.94182708]
 [ 0.1        44.89034985]
 [ 0.2        79.4977598 ]
 [ 0.25666667 43.46988515]]","[[0.         0.83905816]
 [0.1        0.4078644 ]
 [0.2        1.66123527]
 [0.25666667 0.90238518]]",0,0.216
3,m,24,french,3,5,french,2024-02-09 11:37:30.674810,False,2,487,sounds\french\audio/french_973.wav,"[[  0.         -99.0384004 ]
 [  0.1         40.13117567]
 [  0.2         49.54188212]
 [  0.25666667  89.60941169]]","[[0.         1.64247416]
 [0.1        0.98090528]
 [0.2        1.75566355]
 [0.25666667 0.64442147]]",1,0.482
3,m,24,french,3,5,french,2024-02-09 11:37:30.674810,False,2,488,sounds\french\audio/french_852.wav,"[[  0.         -21.25647341]
 [  0.1         44.09899268]
 [  0.2        -20.54343266]
 [  0.25666667 -73.6389021 ]]","[[0.         1.59129412]
 [0.1        0.90931534]
 [0.2        0.17046498]
 [0.25666667 0.95788578]]",0,0.237
3,m,24,french,3,5,french,2024-02-09 11:37:30.674810,False,2,489,sounds\french\audio/french_934.wav,"[[  0.          -9.72159443]
 [  0.1        -11.38125641]
 [  0.2        -15.93762726]
 [  0.25666667 -19.962769  ]]","[[0.         1.08583672]
 [0.1        0.99463139]
 [0.2        1.46206623]
 [0.25666667 1.59629023]]",1,0.448
3,m,24,french,3,5,french,2024-02-09 11:37:30.674810,False,2,490,sounds\french\audio/french_768.wav,"[[ 0.         43.80393873]
 [ 0.1        23.97019037]
 [ 0.2        96.73627246]
 [ 0.25666667 86.69297093]]","[[0.         0.16736189]
 [0.1        0.82539527]
 [0.2        1.26581733]
 [0.25666667 1.40091334]]",1,0.793
3,m,24,french,3,5,french,2024-02-09 11:37:30.674810,False,2,491,sounds\french\audio/french_796.wav,"[[  0.         -38.09805788]
 [  0.1        -51.81358868]
 [  0.2         88.47322764]
 [  0.25666667 -34.90405205]]","[[0.         1.93486201]
 [0.1        1.49994235]
 [0.2        1.42581223]
 [0.25666667 0.47367866]]",0,0.143
3,m,24,french,3,5,french,2024-02-09 11:37:30.674810,False,2,492,sounds\french\audio/french_129.wav,"[[  0.          13.25855459]
 [  0.1        -92.03942204]
 [  0.2         62.50888813]
 [  0.25666667  39.35321197]]","[[0.         0.8608045 ]
 [0.1        1.75332116]
 [0.2        0.44840231]
 [0.25666667 1.56291845]]",0,0.177
3,m,24,french,3,5,french,2024-02-09 11:37:30.674810,False,2,493,sounds\french\audio/french_996.wav,"[[  0.         -93.3315932 ]
 [  0.1        -68.78176083]
 [  0.2          3.00266898]
 [  0.25666667  26.12825604]]","[[0.         0.70155752]
 [0.1        0.82176857]
 [0.2        1.58504857]
 [0.25666667 1.65873812]]",0,0.211
3,m,24,french,3,5,french,2024-02-09 11:37:30.674810,False,2,494,sounds\french\audio/french_182.wav,"[[  0.          -1.23949724]
 [  0.1         97.8493481 ]
 [  0.2        -69.4259963 ]
 [  0.25666667  68.50854418]]","[[0.         0.32203143]
 [0.1        0.76081704]
 [0.2        1.30995173]
 [0.25666667 1.49369116]]",1,0.229
3,m,24,french,3,5,french,2024-02-09 11:37:30.674810,False,2,495,sounds\french\audio/french_198.wav,"[[  0.          72.51067349]
 [  0.1         26.15359829]
 [  0.2        -38.06500424]
 [  0.25666667 -63.59150526]]","[[0.         0.65547069]
 [0.1        0.30610144]
 [0.2        0.27462822]
 [0.25666667 1.37790723]]",0,0.513
3,m,24,french,3,5,french,2024-02-09 11:37:30.674810,False,2,496,sounds\french\audio/french_783.wav,"[[  0.          -1.39366148]
 [  0.1        -51.98505422]
 [  0.2        -59.48644931]
 [  0.25666667 -72.0894269 ]]","[[0.         1.02261841]
 [0.1        1.36670641]
 [0.2        1.36831513]
 [0.25666667 1.17814646]]",0,0.364
3,m,24,french,3,5,french,2024-02-09 11:37:30.674810,False,2,497,sounds\french\audio/french_414.wav,"[[  0.         -53.65137821]
 [  0.1         61.14227183]
 [  0.2        -13.28017505]
 [  0.25666667  99.20914295]]","[[0.         1.15122316]
 [0.1        1.54420741]
 [0.2        1.48861563]
 [0.25666667 0.34805763]]",0,0.362
3,m,24,french,3,5,french,2024-02-09 11:37:30.674810,False,2,498,sounds\french\audio/french_564.wav,"[[  0.         -42.85760261]
 [  0.1         78.12316343]
 [  0.2         32.53186734]
 [  0.25666667  60.20924512]]","[[0.         0.14777183]
 [0.1        1.08229262]
 [0.2        0.52251513]
 [0.25666667 1.40255579]]",1,0.362
3,m,24,french,3,5,french,2024-02-09 11:37:30.674810,False,2,499,sounds\french\audio/french_144.wav,"[[  0.          54.7439873 ]
 [  0.1        -90.40840953]
 [  0.2        -23.8496949 ]
 [  0.25666667   9.69074846]]","[[0.         1.65699933]
 [0.1        0.10946834]
 [0.2        0.63660565]
 [0.25666667 0.31092992]]",0,0.425
3,m,24,french,3,5,french,2024-02-09 11:37:30.674810,False,2,500,sounds\french\audio/french_315.wav,"[[ 0.00000000e+00  8.45751695e+01]
 [ 1.00000000e-01 -5.49339599e+01]
 [ 2.00000000e-01 -2.04659381e+01]
 [ 2.56666667e-01  4.97627412e-02]]","[[0.         1.39276289]
 [0.1        0.42909402]
 [0.2        1.80166787]
 [0.25666667 1.01422067]]",0,0.445
3,m,24,french,3,5,french,2024-02-09 11:37:30.674810,False,2,501,sounds\french\audio/french_305.wav,"[[  0.         -54.69953739]
 [  0.1        -55.57420142]
 [  0.2         69.52625069]
 [  0.25666667 -71.2713804 ]]","[[0.         0.89911595]
 [0.1        0.95414013]
 [0.2        1.47998422]
 [0.25666667 1.78847242]]",1,0.678
3,m,24,french,3,5,french,2024-02-09 11:37:30.674810,False,2,502,sounds\french\audio/french_731.wav,"[[  0.          52.82888701]
 [  0.1         44.66747194]
 [  0.2         83.54065351]
 [  0.25666667 -50.41579204]]","[[0.         1.42077684]
 [0.1        0.2996776 ]
 [0.2        1.21708869]
 [0.25666667 1.31490505]]",0,0.646
3,m,24,french,3,5,french,2024-02-09 11:37:30.674810,False,2,503,sounds\french\audio/french_19.wav,"[[  0.         -43.32613145]
 [  0.1        -51.04998213]
 [  0.2        -30.05832199]
 [  0.25666667 -62.89931607]]","[[0.         0.86768791]
 [0.1        0.12235363]
 [0.2        0.93205141]
 [0.25666667 0.68272422]]",1,0.648
3,m,24,french,3,5,french,2024-02-09 11:37:30.674810,False,2,504,sounds\french\audio/french_71.wav,"[[  0.         -97.29707499]
 [  0.1         41.74238765]
 [  0.2        -91.89336592]
 [  0.25666667  53.06515209]]","[[0.         0.6163898 ]
 [0.1        1.06775198]
 [0.2        1.31906527]
 [0.25666667 0.58556407]]",0,0.13
3,m,24,french,3,5,french,2024-02-09 11:37:30.674810,False,2,505,sounds\french\audio/french_418.wav,"[[  0.          69.65568707]
 [  0.1        -73.62960571]
 [  0.2        -12.19608601]
 [  0.25666667  31.099867  ]]","[[0.         1.45647369]
 [0.1        0.96644453]
 [0.2        0.59086709]
 [0.25666667 1.25987346]]",0,0.258
3,m,24,french,3,5,french,2024-02-09 11:37:30.674810,False,2,506,sounds\french\audio/french_772.wav,"[[  0.          13.96800705]
 [  0.1          5.87945336]
 [  0.2         15.35769187]
 [  0.25666667 -12.22278281]]","[[0.         0.2991113 ]
 [0.1        0.00189684]
 [0.2        0.99190584]
 [0.25666667 1.49955539]]",1,0.61
3,m,24,french,3,5,french,2024-02-09 11:37:30.674810,False,2,507,sounds\french\audio/french_415.wav,"[[  0.         -78.44301617]
 [  0.1         84.17180311]
 [  0.2         32.05176365]
 [  0.25666667   1.79049447]]","[[0.         1.61962555]
 [0.1        0.78674907]
 [0.2        0.83302444]
 [0.25666667 0.85177262]]",0,0.311
3,m,24,french,3,5,french,2024-02-09 11:37:30.674810,False,2,508,sounds\french\audio/french_295.wav,"[[ 0.         98.71232228]
 [ 0.1        19.8777742 ]
 [ 0.2         2.02188034]
 [ 0.25666667 -4.73018768]]","[[0.         1.58912918]
 [0.1        0.8460381 ]
 [0.2        1.72839065]
 [0.25666667 1.75057888]]",0,0.458
3,m,24,french,3,5,french,2024-02-09 11:37:30.674810,False,2,509,sounds\french\audio/french_87.wav,"[[  0.          57.46562038]
 [  0.1         64.37451918]
 [  0.2         34.82822911]
 [  0.25666667 -44.22171713]]","[[0.         1.84924107]
 [0.1        1.35752119]
 [0.2        1.55092153]
 [0.25666667 0.2478561 ]]",1,0.464
3,m,24,french,3,5,french,2024-02-09 11:37:30.674810,False,2,510,sounds\french\audio/french_57.wav,"[[  0.           5.04798132]
 [  0.1         34.86476391]
 [  0.2          8.76450083]
 [  0.25666667 -66.01533982]]","[[0.         0.30893924]
 [0.1        1.37192861]
 [0.2        1.2366194 ]
 [0.25666667 1.17459784]]",0,0.184
3,m,24,french,3,5,french,2024-02-09 11:37:30.674810,False,2,511,sounds\french\audio/french_468.wav,"[[  0.          62.98081683]
 [  0.1        -56.79667237]
 [  0.2         16.07172023]
 [  0.25666667  67.64788087]]","[[0.         0.39126421]
 [0.1        1.86845908]
 [0.2        0.61680923]
 [0.25666667 0.75086704]]",1,0.288
3,m,24,french,3,5,french,2024-02-09 11:37:30.674810,False,2,512,sounds\french\audio/french_154.wav,"[[  0.         -35.77368222]
 [  0.1          5.93918526]
 [  0.2         36.13172948]
 [  0.25666667 -52.77395679]]","[[0.         0.10248514]
 [0.1        0.42084566]
 [0.2        1.29147589]
 [0.25666667 0.60791213]]",0,0.368
3,m,24,french,3,5,french,2024-02-09 11:37:30.674810,False,2,513,sounds\french\audio/french_287.wav,"[[  0.          -6.24804435]
 [  0.1        -47.42967866]
 [  0.2        -83.16585562]
 [  0.25666667  77.49694817]]","[[0.         1.11596696]
 [0.1        0.08887129]
 [0.2        1.70974676]
 [0.25666667 0.42476907]]",0,0.3
3,m,24,french,3,5,french,2024-02-09 11:37:30.674810,False,2,514,sounds\french\audio/french_220.wav,"[[  0.          99.39862809]
 [  0.1        -16.44954754]
 [  0.2        -73.93109837]
 [  0.25666667 -37.75571533]]","[[0.         1.95391084]
 [0.1        1.60430152]
 [0.2        1.1953066 ]
 [0.25666667 0.34699919]]",0,1.293
3,m,24,french,3,5,french,2024-02-09 11:37:30.674810,False,2,515,sounds\french\audio/french_269.wav,"[[  0.          34.85044548]
 [  0.1         47.51511781]
 [  0.2         34.15302515]
 [  0.25666667 -55.0259295 ]]","[[0.00000000e+00 6.17924031e-04]
 [1.00000000e-01 1.05540646e+00]
 [2.00000000e-01 9.84234213e-01]
 [2.56666667e-01 8.45106618e-01]]",1,2.084
3,m,24,french,3,5,french,2024-02-09 11:37:30.674810,False,2,516,sounds\french\audio/french_166.wav,"[[  0.         -13.71320418]
 [  0.1        -74.77814183]
 [  0.2         42.48534987]
 [  0.25666667 -48.97271451]]","[[0.         1.40282364]
 [0.1        0.51226478]
 [0.2        1.59981073]
 [0.25666667 1.00485648]]",0,0.2
3,m,24,french,3,5,french,2024-02-09 11:37:30.674810,False,2,517,sounds\french\audio/french_586.wav,"[[ 0.         86.96734506]
 [ 0.1        -8.603444  ]
 [ 0.2        11.78169212]
 [ 0.25666667 14.18547806]]","[[0.         0.62271677]
 [0.1        1.69916535]
 [0.2        1.65961944]
 [0.25666667 1.90120182]]",0,0.164
3,m,24,french,3,5,french,2024-02-09 11:37:30.674810,False,2,518,sounds\french\audio/french_13.wav,"[[  0.         -32.13252367]
 [  0.1         70.64746455]
 [  0.2        -67.50971173]
 [  0.25666667  94.74832862]]","[[0.         0.96861247]
 [0.1        0.7552715 ]
 [0.2        1.7097775 ]
 [0.25666667 1.62121013]]",0,2.564
3,m,24,french,3,5,french,2024-02-09 11:37:30.674810,False,2,519,sounds\french\audio/french_107.wav,"[[  0.          67.03881883]
 [  0.1         45.78296109]
 [  0.2        -43.22729876]
 [  0.25666667 -74.69599774]]","[[0.         1.87266913]
 [0.1        0.27229476]
 [0.2        1.08803063]
 [0.25666667 1.63601275]]",0,0.399
3,m,24,french,3,5,french,2024-02-09 11:37:30.674810,False,2,520,sounds\french\audio/french_881.wav,"[[  0.         -25.82648211]
 [  0.1         13.08751975]
 [  0.2        -84.06590477]
 [  0.25666667 -28.7935441 ]]","[[0.         0.15296837]
 [0.1        1.42149925]
 [0.2        1.29281362]
 [0.25666667 1.41538706]]",1,0.409
3,m,24,french,3,5,french,2024-02-09 11:37:30.674810,False,2,521,sounds\french\audio/french_716.wav,"[[  0.          84.94340614]
 [  0.1        -26.42004262]
 [  0.2         43.13419589]
 [  0.25666667  70.01736472]]","[[0.         0.02480266]
 [0.1        1.84645248]
 [0.2        1.11902957]
 [0.25666667 1.71178302]]",1,0.747
3,m,24,french,3,5,french,2024-02-09 11:37:30.674810,False,2,522,sounds\french\audio/french_15.wav,"[[  0.          75.10258226]
 [  0.1         91.64852869]
 [  0.2        -54.2483896 ]
 [  0.25666667 -67.82917504]]","[[0.         1.00702741]
 [0.1        0.72289983]
 [0.2        1.50363401]
 [0.25666667 0.97553874]]",0,0.152
3,m,24,french,3,5,french,2024-02-09 11:37:30.674810,False,2,523,sounds\french\audio/french_334.wav,"[[  0.          40.44836216]
 [  0.1        -67.56280837]
 [  0.2        -28.73514643]
 [  0.25666667 -49.63309354]]","[[0.         0.13212964]
 [0.1        0.74019732]
 [0.2        0.72240648]
 [0.25666667 0.47162208]]",1,0.459
3,m,24,french,3,5,french,2024-02-09 11:37:30.674810,False,2,524,sounds\french\audio/french_89.wav,"[[  0.         -79.59355323]
 [  0.1        -86.9945706 ]
 [  0.2         81.38410409]
 [  0.25666667 -11.31628481]]","[[0.         1.69180454]
 [0.1        1.08047967]
 [0.2        1.92177075]
 [0.25666667 1.93759104]]",0,0.261
3,m,24,french,3,5,french,2024-02-09 11:37:30.674810,False,2,525,sounds\french\audio/french_507.wav,"[[  0.         -39.00130205]
 [  0.1          8.15448279]
 [  0.2        -39.88004764]
 [  0.25666667  66.54300966]]","[[0.         0.88980729]
 [0.1        1.12034654]
 [0.2        1.15006522]
 [0.25666667 1.10945683]]",0,0.633
3,m,24,french,3,5,french,2024-02-09 11:37:30.674810,False,2,526,sounds\french\audio/french_388.wav,"[[  0.         -56.99851318]
 [  0.1        -28.42117093]
 [  0.2        -17.37440647]
 [  0.25666667  19.5608334 ]]","[[0.         0.76802497]
 [0.1        1.07190306]
 [0.2        0.91030877]
 [0.25666667 0.1576099 ]]",1,0.424
3,m,24,french,3,5,french,2024-02-09 11:37:30.674810,False,2,527,sounds\french\audio/french_679.wav,"[[  0.         -12.30272173]
 [  0.1        -25.8054218 ]
 [  0.2        -49.36641871]
 [  0.25666667   3.29240265]]","[[0.         0.22564891]
 [0.1        0.32954228]
 [0.2        0.69268874]
 [0.25666667 1.86334945]]",0,0.204
3,m,24,french,3,5,french,2024-02-09 11:37:30.674810,False,2,528,sounds\french\audio/french_626.wav,"[[  0.         -93.35692854]
 [  0.1         98.43225428]
 [  0.2        -65.0946996 ]
 [  0.25666667  62.51553639]]","[[0.         1.28523942]
 [0.1        0.26610399]
 [0.2        0.08304138]
 [0.25666667 1.47830697]]",0,0.717
3,m,24,french,3,5,french,2024-02-09 11:37:30.674810,False,2,529,sounds\french\audio/french_415.wav,"[[  0.         -78.44301617]
 [  0.1         84.17180311]
 [  0.2         32.05176365]
 [  0.25666667   1.79049447]]","[[0.         1.61962555]
 [0.1        0.78674907]
 [0.2        0.83302444]
 [0.25666667 0.85177262]]",0,0.399
3,m,24,french,3,5,french,2024-02-09 11:37:30.674810,False,2,530,sounds\french\audio/french_24.wav,"[[  0.         -90.56488298]
 [  0.1        -50.97686263]
 [  0.2         15.79918005]
 [  0.25666667   3.83977191]]","[[0.         1.23408284]
 [0.1        0.21485458]
 [0.2        0.7737077 ]
 [0.25666667 0.99994749]]",1,0.477
3,m,24,french,3,5,french,2024-02-09 11:37:30.674810,False,2,531,sounds\french\audio/french_772.wav,"[[  0.          13.96800705]
 [  0.1          5.87945336]
 [  0.2         15.35769187]
 [  0.25666667 -12.22278281]]","[[0.         0.2991113 ]
 [0.1        0.00189684]
 [0.2        0.99190584]
 [0.25666667 1.49955539]]",1,0.975
3,m,24,french,3,5,french,2024-02-09 11:37:30.674810,False,2,532,sounds\french\audio/french_598.wav,"[[  0.          21.68363658]
 [  0.1        -21.32750779]
 [  0.2          7.72514192]
 [  0.25666667 -29.17866519]]","[[0.         1.67467049]
 [0.1        0.64095668]
 [0.2        0.23575639]
 [0.25666667 0.51628457]]",0,0.213
3,m,24,french,3,5,french,2024-02-09 11:37:30.674810,False,2,533,sounds\french\audio/french_668.wav,"[[  0.          44.4696917 ]
 [  0.1         63.48880943]
 [  0.2         96.50351719]
 [  0.25666667 -38.26923088]]","[[0.         0.61167569]
 [0.1        0.96933631]
 [0.2        1.39779359]
 [0.25666667 1.779663  ]]",0,0.234
3,m,24,french,3,5,french,2024-02-09 11:37:30.674810,False,2,534,sounds\french\audio/french_821.wav,"[[  0.          70.15336782]
 [  0.1         -1.11865535]
 [  0.2        -91.54006312]
 [  0.25666667  24.13643902]]","[[0.         1.4099425 ]
 [0.1        1.36643738]
 [0.2        0.06599991]
 [0.25666667 1.20854405]]",0,0.447
3,m,24,french,3,5,french,2024-02-09 11:37:30.674810,False,2,535,sounds\french\audio/french_936.wav,"[[  0.         -20.69739044]
 [  0.1         11.25896305]
 [  0.2        -73.43688333]
 [  0.25666667  14.6038409 ]]","[[0.         1.81100612]
 [0.1        0.34150345]
 [0.2        0.78598688]
 [0.25666667 0.34536881]]",0,0.484
3,m,24,french,3,5,french,2024-02-09 11:37:30.674810,False,2,536,sounds\french\audio/french_466.wav,"[[  0.          73.58992944]
 [  0.1         63.97983353]
 [  0.2         36.10141743]
 [  0.25666667 -59.38235663]]","[[0.         1.41071494]
 [0.1        0.05598534]
 [0.2        1.99104708]
 [0.25666667 0.89990448]]",1,0.902
3,m,24,french,3,5,french,2024-02-09 11:37:30.674810,False,2,537,sounds\french\audio/french_838.wav,"[[  0.         -11.78713781]
 [  0.1         70.11555366]
 [  0.2         60.74924786]
 [  0.25666667  37.89669618]]","[[0.         0.60255839]
 [0.1        0.34480099]
 [0.2        1.0262929 ]
 [0.25666667 0.88829748]]",0,0.96
3,m,24,french,3,5,french,2024-02-09 11:37:30.674810,False,2,538,sounds\french\audio/french_749.wav,"[[  0.          -6.52512876]
 [  0.1         66.04972296]
 [  0.2        -72.89621134]
 [  0.25666667 -46.82302434]]","[[0.         1.71102694]
 [0.1        0.07130547]
 [0.2        1.03709586]
 [0.25666667 1.99027801]]",0,1.612
3,m,24,french,3,5,french,2024-02-09 11:37:30.674810,False,2,539,sounds\french\audio/french_540.wav,"[[  0.          64.41538276]
 [  0.1         17.02048616]
 [  0.2        -33.22379056]
 [  0.25666667   6.66749413]]","[[0.         0.51709462]
 [0.1        1.30376576]
 [0.2        0.40148031]
 [0.25666667 1.14865781]]",1,0.674
3,m,24,french,3,5,french,2024-02-09 11:37:30.674810,False,2,540,sounds\french\audio/french_423.wav,"[[  0.          80.03290271]
 [  0.1        -33.72349736]
 [  0.2        -38.14858153]
 [  0.25666667 -48.66398852]]","[[0.         0.31618382]
 [0.1        0.81153422]
 [0.2        0.21197718]
 [0.25666667 0.41633142]]",0,0.746
3,m,24,french,3,5,french,2024-02-09 11:37:30.674810,False,2,541,sounds\french\audio/french_823.wav,"[[  0.         -89.53533563]
 [  0.1         14.01752274]
 [  0.2         33.24657022]
 [  0.25666667 -78.84260648]]","[[0.         0.87621895]
 [0.1        0.92757563]
 [0.2        1.30685671]
 [0.25666667 1.33840969]]",0,0.359
3,m,24,french,3,5,french,2024-02-09 11:37:30.674810,False,2,542,sounds\french\audio/french_527.wav,"[[  0.          97.81644093]
 [  0.1         68.05004199]
 [  0.2        -44.05597581]
 [  0.25666667  40.91945638]]","[[0.         0.09503525]
 [0.1        0.33267387]
 [0.2        1.51053464]
 [0.25666667 1.37458991]]",1,0.85
3,m,24,french,3,5,french,2024-02-09 11:37:30.674810,False,2,543,sounds\french\audio/french_20.wav,"[[  0.         -78.24291845]
 [  0.1        -38.50442353]
 [  0.2          8.39731749]
 [  0.25666667 -43.87764948]]","[[0.         1.07200279]
 [0.1        1.52694999]
 [0.2        0.86133356]
 [0.25666667 0.74788424]]",0,0.185
3,m,24,french,3,5,french,2024-02-09 11:37:30.674810,False,2,544,sounds\french\audio/french_398.wav,"[[  0.           6.24181165]
 [  0.1        -92.25652661]
 [  0.2        -10.16879246]
 [  0.25666667  42.06293659]]","[[0.         1.03823517]
 [0.1        1.54229831]
 [0.2        1.61201148]
 [0.25666667 1.50798312]]",0,0.282
3,m,24,french,3,5,french,2024-02-09 11:37:30.674810,False,2,545,sounds\french\audio/french_220.wav,"[[  0.          99.39862809]
 [  0.1        -16.44954754]
 [  0.2        -73.93109837]
 [  0.25666667 -37.75571533]]","[[0.         1.95391084]
 [0.1        1.60430152]
 [0.2        1.1953066 ]
 [0.25666667 0.34699919]]",0,0.625
3,m,24,french,3,5,french,2024-02-09 11:37:30.674810,False,2,546,sounds\french\audio/french_453.wav,"[[  0.          17.16336321]
 [  0.1        -89.93005254]
 [  0.2         91.22824445]
 [  0.25666667 -84.37948707]]","[[0.         0.53243678]
 [0.1        1.83492113]
 [0.2        1.32944014]
 [0.25666667 0.35681228]]",1,0.386
3,m,24,french,3,5,french,2024-02-09 11:37:30.674810,False,2,547,sounds\french\audio/french_888.wav,"[[  0.          -7.09076065]
 [  0.1         62.1549683 ]
 [  0.2        -14.42714579]
 [  0.25666667 -85.6987995 ]]","[[0.         0.01679895]
 [0.1        1.75942782]
 [0.2        0.28698877]
 [0.25666667 1.72009857]]",1,0.996
3,m,24,french,3,5,french,2024-02-09 11:37:30.674810,False,2,548,sounds\french\audio/french_972.wav,"[[  0.          10.38102426]
 [  0.1        -66.54271468]
 [  0.2         -2.89265523]
 [  0.25666667 -87.42126356]]","[[0.         0.90840989]
 [0.1        1.6485676 ]
 [0.2        0.79956718]
 [0.25666667 1.28352811]]",0,0.198
3,m,24,french,3,5,french,2024-02-09 11:37:30.674810,False,2,549,sounds\french\audio/french_463.wav,"[[  0.         -19.30652055]
 [  0.1         40.7979064 ]
 [  0.2         73.8964325 ]
 [  0.25666667 -55.7146218 ]]","[[0.         0.66062429]
 [0.1        1.38698103]
 [0.2        0.77621561]
 [0.25666667 0.65457598]]",1,0.625
3,m,24,french,3,5,french,2024-02-09 11:37:30.674810,False,2,550,sounds\french\audio/french_355.wav,"[[  0.         -92.75119925]
 [  0.1         77.20775246]
 [  0.2        -51.05688592]
 [  0.25666667  27.03743598]]","[[0.         0.18544254]
 [0.1        0.07031399]
 [0.2        0.46666342]
 [0.25666667 1.78468618]]",1,0.884
3,m,24,french,3,5,french,2024-02-09 11:37:30.674810,False,2,551,sounds\french\audio/french_46.wav,"[[  0.         -59.72524318]
 [  0.1        -28.22082853]
 [  0.2          2.0739194 ]
 [  0.25666667 -12.25343829]]","[[0.         1.59606806]
 [0.1        1.01173367]
 [0.2        0.40164164]
 [0.25666667 1.6352238 ]]",0,0.117
3,m,24,french,3,5,french,2024-02-09 11:37:30.674810,False,2,552,sounds\french\audio/french_50.wav,"[[  0.         -85.65055263]
 [  0.1         -8.41774185]
 [  0.2         31.4658541 ]
 [  0.25666667  98.77299977]]","[[0.         1.56155391]
 [0.1        0.5849625 ]
 [0.2        1.04346227]
 [0.25666667 0.72937699]]",0,0.464
3,m,24,french,3,5,french,2024-02-09 11:37:30.674810,False,2,553,sounds\french\audio/french_267.wav,"[[  0.         -65.51042118]
 [  0.1         15.6710232 ]
 [  0.2        -16.59501764]
 [  0.25666667  49.75287867]]","[[0.         0.47900721]
 [0.1        1.08471332]
 [0.2        0.49268798]
 [0.25666667 1.54023863]]",1,0.295
3,m,24,french,3,5,french,2024-02-09 11:37:30.674810,False,2,554,sounds\french\audio/french_571.wav,"[[ 0.         31.56469904]
 [ 0.1        44.5277229 ]
 [ 0.2        41.67262287]
 [ 0.25666667  9.54247743]]","[[0.         0.97268691]
 [0.1        1.62706688]
 [0.2        1.42821868]
 [0.25666667 0.83693393]]",0,0.038
3,m,24,french,3,5,french,2024-02-09 11:37:30.674810,False,2,555,sounds\french\audio/french_874.wav,"[[  0.         -35.96007818]
 [  0.1         93.27546243]
 [  0.2        -82.54110259]
 [  0.25666667   1.86870901]]","[[0.         0.94126631]
 [0.1        1.47253108]
 [0.2        1.71868685]
 [0.25666667 0.93280664]]",0,0.287
3,m,24,french,3,5,french,2024-02-09 11:37:30.674810,False,2,556,sounds\french\audio/french_355.wav,"[[  0.         -92.75119925]
 [  0.1         77.20775246]
 [  0.2        -51.05688592]
 [  0.25666667  27.03743598]]","[[0.         0.18544254]
 [0.1        0.07031399]
 [0.2        0.46666342]
 [0.25666667 1.78468618]]",1,1.093
3,m,24,french,3,5,french,2024-02-09 11:37:30.674810,False,2,557,sounds\french\audio/french_949.wav,"[[  0.          29.18752906]
 [  0.1        -67.27756955]
 [  0.2         55.26419326]
 [  0.25666667  11.27327126]]","[[0.         0.08608659]
 [0.1        1.93613179]
 [0.2        0.81834021]
 [0.25666667 0.09029871]]",0,0.41
3,m,24,french,3,5,french,2024-02-09 11:37:30.674810,False,2,558,sounds\french\audio/french_114.wav,"[[ 0.         36.61172137]
 [ 0.1         1.16528437]
 [ 0.2        91.5106094 ]
 [ 0.25666667 23.38458366]]","[[0.         1.1665973 ]
 [0.1        0.29978092]
 [0.2        1.30847922]
 [0.25666667 1.1533172 ]]",1,0.817
3,m,24,french,3,5,french,2024-02-09 11:37:30.674810,False,2,559,sounds\french\audio/french_57.wav,"[[  0.           5.04798132]
 [  0.1         34.86476391]
 [  0.2          8.76450083]
 [  0.25666667 -66.01533982]]","[[0.         0.30893924]
 [0.1        1.37192861]
 [0.2        1.2366194 ]
 [0.25666667 1.17459784]]",0,0.236
3,m,24,french,3,5,french,2024-02-09 11:37:30.674810,False,2,560,sounds\french\audio/french_291.wav,"[[  0.         -84.80785011]
 [  0.1        -36.68987184]
 [  0.2        -96.57368066]
 [  0.25666667 -53.58057918]]","[[0.         0.63456403]
 [0.1        1.00353926]
 [0.2        1.89833315]
 [0.25666667 1.00269885]]",0,0.423
3,m,24,french,3,5,french,2024-02-09 11:37:30.674810,False,2,561,sounds\french\audio/french_293.wav,"[[  0.         -11.30043192]
 [  0.1        -69.36716709]
 [  0.2         65.20751159]
 [  0.25666667  27.71872742]]","[[0.         0.58860684]
 [0.1        0.23928943]
 [0.2        1.00971501]
 [0.25666667 0.31746318]]",1,0.645
3,m,24,french,3,5,french,2024-02-09 11:37:30.674810,False,2,562,sounds\french\audio/french_757.wav,"[[  0.          -5.26413125]
 [  0.1         38.836188  ]
 [  0.2        -78.24448509]
 [  0.25666667  87.29383111]]","[[0.         0.41150667]
 [0.1        1.11153135]
 [0.2        1.45974829]
 [0.25666667 0.22730951]]",0,0.099
3,m,24,french,3,5,french,2024-02-09 11:37:30.674810,False,2,563,sounds\french\audio/french_145.wav,"[[  0.          45.95226671]
 [  0.1        -66.66601381]
 [  0.2        -89.77596615]
 [  0.25666667   8.03115864]]","[[0.         0.38136586]
 [0.1        1.38589502]
 [0.2        0.43712509]
 [0.25666667 1.92826262]]",1,0.194
3,m,24,french,3,5,french,2024-02-09 11:37:30.674810,False,2,564,sounds\french\audio/french_75.wav,"[[  0.          -2.54190785]
 [  0.1        -18.79561653]
 [  0.2        -63.16754008]
 [  0.25666667 -38.64547488]]","[[0.         0.75594209]
 [0.1        0.77713134]
 [0.2        0.0667883 ]
 [0.25666667 0.54855801]]",0,0.39
3,m,24,french,3,5,french,2024-02-09 11:37:30.674810,False,2,565,sounds\french\audio/french_419.wav,"[[  0.         -42.00575778]
 [  0.1        -35.26826913]
 [  0.2        -18.10946272]
 [  0.25666667  -2.55322937]]","[[0.         0.81351681]
 [0.1        1.62056968]
 [0.2        1.68465097]
 [0.25666667 1.07803679]]",0,0.399
3,m,24,french,3,5,french,2024-02-09 11:37:30.674810,False,2,566,sounds\french\audio/french_202.wav,"[[  0.          13.54970771]
 [  0.1         96.46591802]
 [  0.2         96.13650215]
 [  0.25666667 -35.2772524 ]]","[[0.         0.17477243]
 [0.1        0.30528336]
 [0.2        0.41819952]
 [0.25666667 1.86493567]]",1,0.334
3,m,24,french,3,5,french,2024-02-09 11:37:30.674810,False,2,567,sounds\french\audio/french_7.wav,"[[  0.         -71.02833311]
 [  0.1        -12.38691322]
 [  0.2        -62.8930846 ]
 [  0.25666667  27.53159518]]","[[0.         1.79953402]
 [0.1        1.89065694]
 [0.2        0.59849277]
 [0.25666667 0.94237915]]",0,0.139
3,m,24,french,3,5,french,2024-02-09 11:37:30.674810,False,2,568,sounds\french\audio/french_170.wav,"[[  0.          33.63406691]
 [  0.1        -66.14633185]
 [  0.2        -74.26701986]
 [  0.25666667  32.33295865]]","[[0.         1.37140183]
 [0.1        0.98919038]
 [0.2        1.38629831]
 [0.25666667 0.43392523]]",0,0.326
3,m,24,french,3,5,french,2024-02-09 11:37:30.674810,False,2,569,sounds\french\audio/french_10.wav,"[[  0.          34.48773494]
 [  0.1         82.41652137]
 [  0.2        -51.47900312]
 [  0.25666667  70.4490668 ]]","[[0.         0.90390655]
 [0.1        1.13926368]
 [0.2        1.63497012]
 [0.25666667 0.74730693]]",0,0.146
3,m,24,french,3,5,french,2024-02-09 11:37:30.674810,False,2,570,sounds\french\audio/french_681.wav,"[[  0.         -28.020652  ]
 [  0.1         -7.04160788]
 [  0.2         53.5795515 ]
 [  0.25666667 -33.12503676]]","[[0.         0.15084138]
 [0.1        1.22079629]
 [0.2        1.97804896]
 [0.25666667 0.44897499]]",1,0.096
3,m,24,french,3,5,french,2024-02-09 11:37:30.674810,False,2,571,sounds\french\audio/french_669.wav,"[[0.00000000e+00 7.85638242e-02]
 [1.00000000e-01 6.42084207e+00]
 [2.00000000e-01 8.43922519e+01]
 [2.56666667e-01 1.87399725e+00]]","[[0.         1.32851713]
 [0.1        1.65603836]
 [0.2        1.32676382]
 [0.25666667 0.80161972]]",0,0.038
3,m,24,french,3,5,french,2024-02-09 11:37:30.674810,False,2,572,sounds\french\audio/french_155.wav,"[[  0.         -70.22582879]
 [  0.1         -4.40112263]
 [  0.2         31.24717972]
 [  0.25666667 -33.70292804]]","[[0.         1.51870869]
 [0.1        0.92589592]
 [0.2        1.81286995]
 [0.25666667 0.86118474]]",0,0.146
3,m,24,french,3,5,french,2024-02-09 11:37:30.674810,False,2,573,sounds\french\audio/french_714.wav,"[[  0.          77.35355583]
 [  0.1        -16.5812175 ]
 [  0.2        -79.42314022]
 [  0.25666667  64.71981705]]","[[0.         0.35690042]
 [0.1        0.7400083 ]
 [0.2        1.17849399]
 [0.25666667 1.38365213]]",1,0.277
3,m,24,french,3,5,french,2024-02-09 11:37:30.674810,False,2,574,sounds\french\audio/french_287.wav,"[[  0.          -6.24804435]
 [  0.1        -47.42967866]
 [  0.2        -83.16585562]
 [  0.25666667  77.49694817]]","[[0.         1.11596696]
 [0.1        0.08887129]
 [0.2        1.70974676]
 [0.25666667 0.42476907]]",0,0.329
3,m,24,french,3,5,french,2024-02-09 11:37:30.674810,False,2,575,sounds\french\audio/french_333.wav,"[[ 0.         10.14997655]
 [ 0.1        13.88697857]
 [ 0.2         3.86253466]
 [ 0.25666667 47.83568498]]","[[0.         0.96169616]
 [0.1        0.82290304]
 [0.2        0.18816998]
 [0.25666667 1.34102864]]",0,0.326
3,m,24,french,3,5,french,2024-02-09 11:37:30.674810,False,2,576,sounds\french\audio/french_821.wav,"[[  0.          70.15336782]
 [  0.1         -1.11865535]
 [  0.2        -91.54006312]
 [  0.25666667  24.13643902]]","[[0.         1.4099425 ]
 [0.1        1.36643738]
 [0.2        0.06599991]
 [0.25666667 1.20854405]]",0,0.169
3,m,24,french,3,5,french,2024-02-09 11:37:30.674810,False,2,577,sounds\french\audio/french_67.wav,"[[  0.         -85.58948589]
 [  0.1         13.09838054]
 [  0.2        -56.56906679]
 [  0.25666667  57.4599261 ]]","[[0.         0.63200809]
 [0.1        1.95867716]
 [0.2        0.48937635]
 [0.25666667 1.24156625]]",0,0.772
3,m,24,french,3,5,french,2024-02-09 11:37:30.674810,False,2,578,sounds\french\audio/french_32.wav,"[[  0.         -95.97477456]
 [  0.1        -25.31572866]
 [  0.2        -25.0492654 ]
 [  0.25666667 -74.56689772]]","[[0.         1.5242089 ]
 [0.1        0.2047991 ]
 [0.2        1.11388434]
 [0.25666667 1.18772321]]",0,0.137
3,m,24,french,3,5,french,2024-02-09 11:37:30.674810,False,2,579,sounds\french\audio/french_205.wav,"[[  0.          31.24463061]
 [  0.1        -22.87848896]
 [  0.2        -36.82881223]
 [  0.25666667 -47.84026219]]","[[0.         0.69283155]
 [0.1        1.55894518]
 [0.2        1.67941014]
 [0.25666667 0.92091984]]",0,0.324
3,m,24,french,3,5,french,2024-02-09 11:37:30.674810,False,2,580,sounds\french\audio/french_614.wav,"[[ 0.         13.55245103]
 [ 0.1        56.56377999]
 [ 0.2        18.28165036]
 [ 0.25666667 42.87971424]]","[[0.         0.76920018]
 [0.1        1.46632319]
 [0.2        0.77890927]
 [0.25666667 1.0073418 ]]",0,0.536
3,m,24,french,3,5,french,2024-02-09 11:37:30.674810,False,2,581,sounds\french\audio/french_20.wav,"[[  0.         -78.24291845]
 [  0.1        -38.50442353]
 [  0.2          8.39731749]
 [  0.25666667 -43.87764948]]","[[0.         1.07200279]
 [0.1        1.52694999]
 [0.2        0.86133356]
 [0.25666667 0.74788424]]",1,0.668
3,m,24,french,3,5,french,2024-02-09 11:37:30.674810,False,2,582,sounds\french\audio/french_938.wav,"[[  0.         -81.44382825]
 [  0.1         70.63637201]
 [  0.2         29.19185054]
 [  0.25666667  62.72928817]]","[[0.         1.9747372 ]
 [0.1        1.46978645]
 [0.2        1.77157462]
 [0.25666667 1.30296517]]",0,0.025
3,m,24,french,3,5,french,2024-02-09 11:37:30.674810,False,2,583,sounds\french\audio/french_393.wav,"[[  0.          -4.17853165]
 [  0.1        -52.7672758 ]
 [  0.2        -35.65632354]
 [  0.25666667 -38.23501308]]","[[0.         1.11841435]
 [0.1        1.14982518]
 [0.2        1.99911749]
 [0.25666667 0.07284053]]",0,0.293
3,m,24,french,3,5,french,2024-02-09 11:37:30.674810,False,2,584,sounds\french\audio/french_625.wav,"[[ 0.         79.19979266]
 [ 0.1        14.54258285]
 [ 0.2        86.07148008]
 [ 0.25666667 45.85831434]]","[[0.         0.47634137]
 [0.1        0.73497705]
 [0.2        0.05854955]
 [0.25666667 0.79046633]]",0,0.56
3,m,24,french,3,5,french,2024-02-09 11:37:30.674810,False,2,585,sounds\french\audio/french_508.wav,"[[  0.          40.98112686]
 [  0.1        -56.96831063]
 [  0.2        -35.39284842]
 [  0.25666667 -19.97238517]]","[[0.         1.35724839]
 [0.1        1.54051685]
 [0.2        1.20443674]
 [0.25666667 1.82942033]]",0,0.214
3,m,24,french,3,5,french,2024-02-09 11:37:30.674810,False,2,586,sounds\french\audio/french_338.wav,"[[  0.         -59.42111132]
 [  0.1        -69.70478814]
 [  0.2        -12.60920347]
 [  0.25666667 -82.44797384]]","[[0.         1.60060286]
 [0.1        0.22517269]
 [0.2        1.52190999]
 [0.25666667 0.82265445]]",0,2.131
3,m,24,french,3,5,french,2024-02-09 11:37:30.674810,False,2,587,sounds\french\audio/french_345.wav,"[[  0.         -15.34440167]
 [  0.1         10.78758757]
 [  0.2        -99.05600522]
 [  0.25666667  -6.99010662]]","[[0.         0.71900559]
 [0.1        1.22956467]
 [0.2        1.71608101]
 [0.25666667 1.92257683]]",0,1.568
3,m,24,french,3,5,french,2024-02-09 11:37:30.674810,False,2,588,sounds\french\audio/french_728.wav,"[[  0.         -93.70742078]
 [  0.1        -62.00989335]
 [  0.2         72.64416852]
 [  0.25666667   6.15605077]]","[[0.         1.13399743]
 [0.1        0.93012586]
 [0.2        0.78518922]
 [0.25666667 0.75575783]]",0,0.331
3,m,24,french,3,5,french,2024-02-09 11:37:30.674810,False,2,589,sounds\french\audio/french_488.wav,"[[  0.          83.09023231]
 [  0.1         31.08155804]
 [  0.2         23.00603586]
 [  0.25666667 -14.42068905]]","[[0.         0.61404301]
 [0.1        1.79467821]
 [0.2        0.24163263]
 [0.25666667 1.80620701]]",1,0.455
3,m,24,french,3,5,french,2024-02-09 11:37:30.674810,False,2,590,sounds\french\audio/french_216.wav,"[[  0.          94.47877999]
 [  0.1        -35.64680956]
 [  0.2         -6.49582042]
 [  0.25666667  88.58272088]]","[[0.         1.14166801]
 [0.1        0.96477388]
 [0.2        1.30348701]
 [0.25666667 1.4092971 ]]",0,0.217
3,m,24,french,3,5,french,2024-02-09 11:37:30.674810,False,2,591,sounds\french\audio/french_871.wav,"[[  0.          -4.85456223]
 [  0.1         78.38715758]
 [  0.2        -65.12117647]
 [  0.25666667  96.09900544]]","[[0.         1.97775754]
 [0.1        1.19373072]
 [0.2        1.5578529 ]
 [0.25666667 1.61262149]]",1,0.355
3,m,24,french,3,5,french,2024-02-09 11:37:30.674810,False,2,592,sounds\french\audio/french_155.wav,"[[  0.         -70.22582879]
 [  0.1         -4.40112263]
 [  0.2         31.24717972]
 [  0.25666667 -33.70292804]]","[[0.         1.51870869]
 [0.1        0.92589592]
 [0.2        1.81286995]
 [0.25666667 0.86118474]]",0,0.148
3,m,24,french,3,5,french,2024-02-09 11:37:30.674810,False,2,593,sounds\french\audio/french_811.wav,"[[  0.          35.12158591]
 [  0.1          4.09145181]
 [  0.2        -79.3353891 ]
 [  0.25666667 -59.5865152 ]]","[[0.         1.63803033]
 [0.1        0.91441893]
 [0.2        1.53056324]
 [0.25666667 1.20408751]]",0,0.233
3,m,24,french,3,5,french,2024-02-09 11:37:30.674810,False,2,594,sounds\french\audio/french_497.wav,"[[  0.         -34.77858655]
 [  0.1        -52.52188589]
 [  0.2         81.6415951 ]
 [  0.25666667  23.98828418]]","[[0.         0.98641894]
 [0.1        1.48106735]
 [0.2        1.37619597]
 [0.25666667 1.87248846]]",1,0.372
3,m,24,french,3,5,french,2024-02-09 11:37:30.674810,False,2,595,sounds\french\audio/french_123.wav,"[[ 0.         47.28842571]
 [ 0.1        40.8763752 ]
 [ 0.2        -0.29365354]
 [ 0.25666667 -9.49286286]]","[[0.         1.09614989]
 [0.1        1.93529177]
 [0.2        0.05812677]
 [0.25666667 0.68816992]]",0,0.232
3,m,24,french,3,5,french,2024-02-09 11:37:30.674810,False,2,596,sounds\french\audio/french_950.wav,"[[ 0.          6.46729125]
 [ 0.1        89.94723115]
 [ 0.2        33.92654299]
 [ 0.25666667  4.68690548]]","[[0.         1.1492664 ]
 [0.1        1.37343317]
 [0.2        1.07181876]
 [0.25666667 0.13073982]]",1,0.277
3,m,24,french,3,5,french,2024-02-09 11:37:30.674810,False,2,597,sounds\french\audio/french_482.wav,"[[  0.          30.59556471]
 [  0.1        -28.15674373]
 [  0.2        -30.08163346]
 [  0.25666667  89.23902938]]","[[0.         1.3609553 ]
 [0.1        1.03507415]
 [0.2        1.60461159]
 [0.25666667 0.68082645]]",0,0.132
3,m,24,french,3,5,french,2024-02-09 11:37:30.674810,False,2,598,sounds\french\audio/french_572.wav,"[[  0.          39.88309013]
 [  0.1        -96.79862589]
 [  0.2        -22.12237888]
 [  0.25666667 -29.01009828]]","[[0.         1.43577141]
 [0.1        0.70754044]
 [0.2        0.13254452]
 [0.25666667 0.2743676 ]]",0,0.897
3,m,24,french,3,5,french,2024-02-09 11:37:30.674810,False,2,599,sounds\french\audio/french_553.wav,"[[  0.          -1.38146628]
 [  0.1        -34.28745567]
 [  0.2          6.87532462]
 [  0.25666667  90.98690029]]","[[0.         0.44011383]
 [0.1        1.14829302]
 [0.2        1.07508961]
 [0.25666667 0.10252166]]",0,0.234
3,m,24,french,3,5,french,2024-02-09 11:37:30.674810,False,2,600,sounds\french\audio/french_63.wav,"[[  0.         -81.8544396 ]
 [  0.1         15.35577337]
 [  0.2        -93.67975396]
 [  0.25666667   6.98256112]]","[[0.         0.29798693]
 [0.1        0.29415435]
 [0.2        1.48728433]
 [0.25666667 1.07216934]]",1,0.381
3,m,24,french,3,5,french,2024-02-09 11:37:30.674810,False,2,601,sounds\french\audio/french_767.wav,"[[  0.          91.79298807]
 [  0.1        -10.9319541 ]
 [  0.2        -18.13246944]
 [  0.25666667  -6.11346908]]","[[0.         1.15796888]
 [0.1        0.37743288]
 [0.2        1.06132115]
 [0.25666667 0.41668969]]",0,0.164
3,m,24,french,3,5,french,2024-02-09 11:37:30.674810,False,2,602,sounds\french\audio/french_848.wav,"[[  0.         -60.99605007]
 [  0.1        -27.05939135]
 [  0.2        -10.58439289]
 [  0.25666667 -17.47548333]]","[[0.         1.01059702]
 [0.1        1.98581859]
 [0.2        0.30142011]
 [0.25666667 1.16939553]]",1,1.002
