subj,sex,age,language,english,french,native_lang,date,practice,block,trial,stim,pitch,stretch,response,rt
8817605319,m,22,french,4,5,french,2024-02-07 15:14:50.712299,False,2,303,sounds\french\audio/french_639.wav,"[[  0.          11.64385005]
 [  0.1        -83.53772589]
 [  0.2        -26.70113898]
 [  0.25666667 -28.21717215]]","[[0.         1.86180111]
 [0.1        1.31531339]
 [0.2        0.16484712]
 [0.25666667 0.08923993]]",0,2.015
8817605319,m,22,french,4,5,french,2024-02-07 15:14:50.712299,False,2,304,sounds\french\audio/french_56.wav,"[[  0.         -45.81384366]
 [  0.1        -31.22745768]
 [  0.2          7.07301694]
 [  0.25666667  85.51747291]]","[[0.         0.89556329]
 [0.1        1.16444889]
 [0.2        0.03247946]
 [0.25666667 0.10908846]]",0,0.425
8817605319,m,22,french,4,5,french,2024-02-07 15:14:50.712299,False,2,305,sounds\french\audio/french_189.wav,"[[ 0.         25.45363348]
 [ 0.1        10.19219643]
 [ 0.2        79.32306783]
 [ 0.25666667 77.27494318]]","[[0.         0.70243048]
 [0.1        0.78977161]
 [0.2        0.18017453]
 [0.25666667 0.76350619]]",0,1.489
8817605319,m,22,french,4,5,french,2024-02-07 15:14:50.712299,False,2,306,sounds\french\audio/french_410.wav,"[[  0.         -57.70995681]
 [  0.1         48.77026686]
 [  0.2        -48.38648813]
 [  0.25666667  53.40375253]]","[[0.         0.42078672]
 [0.1        1.91428116]
 [0.2        0.69257086]
 [0.25666667 1.23009328]]",0,0.739
8817605319,m,22,french,4,5,french,2024-02-07 15:14:50.712299,False,2,307,sounds\french\audio/french_302.wav,"[[  0.           8.4067376 ]
 [  0.1        -29.32780789]
 [  0.2        -43.35590711]
 [  0.25666667 -44.50549756]]","[[0.         0.06791418]
 [0.1        1.46578571]
 [0.2        1.81098556]
 [0.25666667 1.40235265]]",0,2.732
8817605319,m,22,french,4,5,french,2024-02-07 15:14:50.712299,False,2,308,sounds\french\audio/french_45.wav,"[[  0.           6.51510613]
 [  0.1        -86.25018513]
 [  0.2        -60.46903131]
 [  0.25666667 -48.31089161]]","[[0.         0.83763225]
 [0.1        1.19709151]
 [0.2        0.87484565]
 [0.25666667 0.45414185]]",0,4.416
8817605319,m,22,french,4,5,french,2024-02-07 15:14:50.712299,False,2,309,sounds\french\audio/french_686.wav,"[[ 0.         20.49516986]
 [ 0.1        27.4040505 ]
 [ 0.2        31.96095965]
 [ 0.25666667 61.08066052]]","[[0.         1.86861476]
 [0.1        1.87689714]
 [0.2        0.80940067]
 [0.25666667 0.04075967]]",0,1.544
8817605319,m,22,french,4,5,french,2024-02-07 15:14:50.712299,False,2,310,sounds\french\audio/french_185.wav,"[[  0.          61.04894301]
 [  0.1          4.55457692]
 [  0.2         51.77529612]
 [  0.25666667 -22.06501589]]","[[0.         1.56575395]
 [0.1        1.97883698]
 [0.2        1.92093932]
 [0.25666667 0.68389876]]",0,0.912
8817605319,m,22,french,4,5,french,2024-02-07 15:14:50.712299,False,2,311,sounds\french\audio/french_625.wav,"[[ 0.         79.19979266]
 [ 0.1        14.54258285]
 [ 0.2        86.07148008]
 [ 0.25666667 45.85831434]]","[[0.         0.47634137]
 [0.1        0.73497705]
 [0.2        0.05854955]
 [0.25666667 0.79046633]]",1,4.457
8817605319,m,22,french,4,5,french,2024-02-07 15:14:50.712299,False,2,312,sounds\french\audio/french_617.wav,"[[  0.         -34.18466024]
 [  0.1         35.41565559]
 [  0.2         59.04414741]
 [  0.25666667  80.0519445 ]]","[[0.         0.10021852]
 [0.1        0.72859392]
 [0.2        0.77782194]
 [0.25666667 1.13599019]]",1,0.68
8817605319,m,22,french,4,5,french,2024-02-07 15:14:50.712299,False,2,313,sounds\french\audio/french_519.wav,"[[  0.          86.76456043]
 [  0.1          8.46145491]
 [  0.2        -48.6822419 ]
 [  0.25666667 -44.03350662]]","[[0.         1.09635868]
 [0.1        1.19136691]
 [0.2        1.7889624 ]
 [0.25666667 1.1754675 ]]",0,1.077
8817605319,m,22,french,4,5,french,2024-02-07 15:14:50.712299,False,2,314,sounds\french\audio/french_766.wav,"[[ 0.         91.85829661]
 [ 0.1        29.32583948]
 [ 0.2        71.77245069]
 [ 0.25666667 28.53871253]]","[[0.         0.12079341]
 [0.1        0.61287095]
 [0.2        1.071897  ]
 [0.25666667 0.29005596]]",0,10.074
8817605319,m,22,french,4,5,french,2024-02-07 15:14:50.712299,False,2,315,sounds\french\audio/french_778.wav,"[[ 0.         -2.76577218]
 [ 0.1         4.49344871]
 [ 0.2        68.81762054]
 [ 0.25666667 89.13075651]]","[[0.         0.74255963]
 [0.1        1.48176587]
 [0.2        1.59399306]
 [0.25666667 1.18058537]]",0,1.15
8817605319,m,22,french,4,5,french,2024-02-07 15:14:50.712299,False,2,316,sounds\french\audio/french_767.wav,"[[  0.          91.79298807]
 [  0.1        -10.9319541 ]
 [  0.2        -18.13246944]
 [  0.25666667  -6.11346908]]","[[0.         1.15796888]
 [0.1        0.37743288]
 [0.2        1.06132115]
 [0.25666667 0.41668969]]",0,3.165
8817605319,m,22,french,4,5,french,2024-02-07 15:14:50.712299,False,2,317,sounds\french\audio/french_71.wav,"[[  0.         -97.29707499]
 [  0.1         41.74238765]
 [  0.2        -91.89336592]
 [  0.25666667  53.06515209]]","[[0.         0.6163898 ]
 [0.1        1.06775198]
 [0.2        1.31906527]
 [0.25666667 0.58556407]]",0,2.588
8817605319,m,22,french,4,5,french,2024-02-07 15:14:50.712299,False,2,318,sounds\french\audio/french_714.wav,"[[  0.          77.35355583]
 [  0.1        -16.5812175 ]
 [  0.2        -79.42314022]
 [  0.25666667  64.71981705]]","[[0.         0.35690042]
 [0.1        0.7400083 ]
 [0.2        1.17849399]
 [0.25666667 1.38365213]]",0,104.669
8817605319,m,22,french,4,5,french,2024-02-07 15:14:50.712299,False,2,319,sounds\french\audio/french_209.wav,"[[  0.          39.72931143]
 [  0.1        -11.10080972]
 [  0.2        -43.22344663]
 [  0.25666667  -3.52460634]]","[[0.         1.72926101]
 [0.1        1.89016293]
 [0.2        1.93253512]
 [0.25666667 0.82956566]]",0,0.802
8817605319,m,22,french,4,5,french,2024-02-07 15:14:50.712299,False,2,320,sounds\french\audio/french_824.wav,"[[  0.          95.58094713]
 [  0.1        -47.05258515]
 [  0.2         43.18521816]
 [  0.25666667  -5.69582576]]","[[0.         1.84230129]
 [0.1        1.74244762]
 [0.2        1.04703492]
 [0.25666667 0.75358401]]",0,2.63
8817605319,m,22,french,4,5,french,2024-02-07 15:14:50.712299,False,2,321,sounds\french\audio/french_255.wav,"[[  0.         -34.51424568]
 [  0.1         78.41526515]
 [  0.2        -68.08036781]
 [  0.25666667  24.01405499]]","[[0.         1.48061101]
 [0.1        1.11576013]
 [0.2        0.98465822]
 [0.25666667 1.10721404]]",0,1.789
8817605319,m,22,french,4,5,french,2024-02-07 15:14:50.712299,False,2,322,sounds\french\audio/french_198.wav,"[[  0.          72.51067349]
 [  0.1         26.15359829]
 [  0.2        -38.06500424]
 [  0.25666667 -63.59150526]]","[[0.         0.65547069]
 [0.1        0.30610144]
 [0.2        0.27462822]
 [0.25666667 1.37790723]]",1,3.904
8817605319,m,22,french,4,5,french,2024-02-07 15:14:50.712299,False,2,323,sounds\french\audio/french_475.wav,"[[  0.          42.4700979 ]
 [  0.1         19.82242754]
 [  0.2         35.42792781]
 [  0.25666667 -96.45453718]]","[[0.         1.46915347]
 [0.1        0.15565226]
 [0.2        0.40628011]
 [0.25666667 1.14503128]]",1,1.814
8817605319,m,22,french,4,5,french,2024-02-07 15:14:50.712299,False,2,324,sounds\french\audio/french_64.wav,"[[  0.          -2.85479512]
 [  0.1        -22.43053594]
 [  0.2         99.07991634]
 [  0.25666667  -6.95169827]]","[[0.         1.8205441 ]
 [0.1        0.65122302]
 [0.2        0.54405082]
 [0.25666667 0.02019369]]",0,1.047
8817605319,m,22,french,4,5,french,2024-02-07 15:14:50.712299,False,2,325,sounds\french\audio/french_498.wav,"[[  0.           4.68377609]
 [  0.1        -15.28708952]
 [  0.2         12.01036293]
 [  0.25666667   2.49690218]]","[[0.         1.22559932]
 [0.1        1.70630703]
 [0.2        0.54123502]
 [0.25666667 0.39602685]]",0,0.54
8817605319,m,22,french,4,5,french,2024-02-07 15:14:50.712299,False,2,326,sounds\french\audio/french_743.wav,"[[  0.         -33.29442342]
 [  0.1         66.78729562]
 [  0.2         -0.09457626]
 [  0.25666667  -6.43111547]]","[[0.         0.17876133]
 [0.1        1.55990879]
 [0.2        1.00824872]
 [0.25666667 1.50563658]]",0,0.805
8817605319,m,22,french,4,5,french,2024-02-07 15:14:50.712299,False,2,327,sounds\french\audio/french_792.wav,"[[  0.         -30.95032355]
 [  0.1         73.05460755]
 [  0.2         -0.6809714 ]
 [  0.25666667  25.15150688]]","[[0.         0.5884638 ]
 [0.1        1.61732216]
 [0.2        1.33614238]
 [0.25666667 0.65397567]]",0,0.919
8817605319,m,22,french,4,5,french,2024-02-07 15:14:50.712299,False,2,328,sounds\french\audio/french_168.wav,"[[  0.         -23.56976883]
 [  0.1         67.89102786]
 [  0.2         12.82073925]
 [  0.25666667 -47.11825728]]","[[0.         0.91307932]
 [0.1        0.95001528]
 [0.2        0.95057972]
 [0.25666667 1.60486422]]",0,1.396
8817605319,m,22,french,4,5,french,2024-02-07 15:14:50.712299,False,2,329,sounds\french\audio/french_890.wav,"[[  0.          17.48321345]
 [  0.1        -18.95749083]
 [  0.2          0.74707456]
 [  0.25666667  92.62024404]]","[[0.         1.85587598]
 [0.1        0.79262665]
 [0.2        0.19694232]
 [0.25666667 1.22282027]]",0,3.367
8817605319,m,22,french,4,5,french,2024-02-07 15:14:50.712299,False,2,330,sounds\french\audio/french_762.wav,"[[  0.         -45.61990315]
 [  0.1        -38.16727298]
 [  0.2        -15.44626984]
 [  0.25666667 -31.31206952]]","[[0.         0.95776955]
 [0.1        0.16992331]
 [0.2        1.21301125]
 [0.25666667 0.49399223]]",0,0.737
8817605319,m,22,french,4,5,french,2024-02-07 15:14:50.712299,False,2,331,sounds\french\audio/french_93.wav,"[[  0.          23.57211404]
 [  0.1        -16.15934767]
 [  0.2         25.54711871]
 [  0.25666667  65.09284613]]","[[0.         0.62732128]
 [0.1        0.10811818]
 [0.2        0.30787392]
 [0.25666667 1.57978374]]",0,7.054
8817605319,m,22,french,4,5,french,2024-02-07 15:14:50.712299,False,2,332,sounds\french\audio/french_163.wav,"[[  0.          95.00435891]
 [  0.1         41.67922454]
 [  0.2        -79.43338234]
 [  0.25666667 -47.45672342]]","[[0.         1.26837246]
 [0.1        0.25754486]
 [0.2        1.96804031]
 [0.25666667 0.46721947]]",0,2.358
8817605319,m,22,french,4,5,french,2024-02-07 15:14:50.712299,False,2,333,sounds\french\audio/french_335.wav,"[[  0.         -60.92786521]
 [  0.1         31.54292158]
 [  0.2         82.84770607]
 [  0.25666667  75.81016287]]","[[0.         0.89558721]
 [0.1        1.14451351]
 [0.2        0.29770625]
 [0.25666667 0.45932577]]",0,4.801
8817605319,m,22,french,4,5,french,2024-02-07 15:14:50.712299,False,2,334,sounds\french\audio/french_539.wav,"[[  0.         -25.67038427]
 [  0.1         48.64308398]
 [  0.2        -77.82337419]
 [  0.25666667 -42.20378119]]","[[0.         1.25415191]
 [0.1        1.80742897]
 [0.2        1.66801057]
 [0.25666667 0.618258  ]]",0,0.424
8817605319,m,22,french,4,5,french,2024-02-07 15:14:50.712299,False,2,335,sounds\french\audio/french_12.wav,"[[  0.         -57.76127346]
 [  0.1         13.80138245]
 [  0.2         70.02389064]
 [  0.25666667 -46.37027392]]","[[0.         1.31680682]
 [0.1        1.40135686]
 [0.2        0.63152994]
 [0.25666667 0.33836826]]",0,6.223
8817605319,m,22,french,4,5,french,2024-02-07 15:14:50.712299,False,2,336,sounds\french\audio/french_136.wav,"[[  0.         -19.24670356]
 [  0.1        -19.07264886]
 [  0.2        -15.66011034]
 [  0.25666667 -21.38655245]]","[[0.         0.58320819]
 [0.1        1.75711633]
 [0.2        0.20485265]
 [0.25666667 0.63500763]]",0,2.245
8817605319,m,22,french,4,5,french,2024-02-07 15:14:50.712299,False,2,337,sounds\french\audio/french_233.wav,"[[  0.         -74.05194232]
 [  0.1         45.77276391]
 [  0.2        -37.66213209]
 [  0.25666667 -32.85858595]]","[[0.         1.46941626]
 [0.1        0.63238632]
 [0.2        1.46686039]
 [0.25666667 1.82755258]]",0,2.014
8817605319,m,22,french,4,5,french,2024-02-07 15:14:50.712299,False,2,338,sounds\french\audio/french_908.wav,"[[  0.         -17.448813  ]
 [  0.1         35.46481843]
 [  0.2        -20.0899606 ]
 [  0.25666667 -29.56589343]]","[[0.         1.41004623]
 [0.1        0.76159164]
 [0.2        1.03892063]
 [0.25666667 1.03966959]]",0,1.079
8817605319,m,22,french,4,5,french,2024-02-07 15:14:50.712299,False,2,339,sounds\french\audio/french_359.wav,"[[  0.           4.86221528]
 [  0.1         41.19609007]
 [  0.2         55.98013436]
 [  0.25666667 -59.88256532]]","[[0.         1.66863127]
 [0.1        0.25992168]
 [0.2        1.95186144]
 [0.25666667 1.64110453]]",0,0.885
8817605319,m,22,french,4,5,french,2024-02-07 15:14:50.712299,False,2,340,sounds\french\audio/french_881.wav,"[[  0.         -25.82648211]
 [  0.1         13.08751975]
 [  0.2        -84.06590477]
 [  0.25666667 -28.7935441 ]]","[[0.         0.15296837]
 [0.1        1.42149925]
 [0.2        1.29281362]
 [0.25666667 1.41538706]]",0,1.514
8817605319,m,22,french,4,5,french,2024-02-07 15:14:50.712299,False,2,341,sounds\french\audio/french_357.wav,"[[  0.         -39.34197693]
 [  0.1         71.15894406]
 [  0.2        -59.30154436]
 [  0.25666667  60.48174113]]","[[0.         1.60610182]
 [0.1        0.3952593 ]
 [0.2        0.60654741]
 [0.25666667 0.43480054]]",0,6.275
8817605319,m,22,french,4,5,french,2024-02-07 15:14:50.712299,False,2,342,sounds\french\audio/french_556.wav,"[[  0.          57.69742807]
 [  0.1         74.69192241]
 [  0.2        -92.88512431]
 [  0.25666667  27.11476112]]","[[0.         1.23910924]
 [0.1        0.49477788]
 [0.2        1.56323012]
 [0.25666667 1.7455964 ]]",0,3.28
8817605319,m,22,french,4,5,french,2024-02-07 15:14:50.712299,False,2,343,sounds\french\audio/french_377.wav,"[[  0.          99.29202042]
 [  0.1         26.86177352]
 [  0.2        -57.22110681]
 [  0.25666667  67.5545455 ]]","[[0.         1.14982617]
 [0.1        1.68513437]
 [0.2        0.38363532]
 [0.25666667 0.68728301]]",0,4.017
8817605319,m,22,french,4,5,french,2024-02-07 15:14:50.712299,False,2,344,sounds\french\audio/french_927.wav,"[[  0.         -10.52890049]
 [  0.1        -14.60087289]
 [  0.2        -23.19620382]
 [  0.25666667  -4.91748489]]","[[0.         0.60201579]
 [0.1        1.35124195]
 [0.2        0.97713268]
 [0.25666667 0.83956459]]",0,0.638
8817605319,m,22,french,4,5,french,2024-02-07 15:14:50.712299,False,2,345,sounds\french\audio/french_930.wav,"[[  0.         -85.15004264]
 [  0.1        -51.05179236]
 [  0.2         60.60693854]
 [  0.25666667  60.89136328]]","[[0.         1.38463402]
 [0.1        1.37480081]
 [0.2        0.42262721]
 [0.25666667 1.58192794]]",0,3.482
8817605319,m,22,french,4,5,french,2024-02-07 15:14:50.712299,False,2,346,sounds\french\audio/french_970.wav,"[[  0.          45.66425393]
 [  0.1        -82.79761983]
 [  0.2         16.19264407]
 [  0.25666667  56.04070076]]","[[0.         0.15526341]
 [0.1        0.70533305]
 [0.2        1.08595816]
 [0.25666667 0.89955958]]",0,0.683
8817605319,m,22,french,4,5,french,2024-02-07 15:14:50.712299,False,2,347,sounds\french\audio/french_980.wav,"[[  0.         -38.7537279 ]
 [  0.1         12.31277697]
 [  0.2          6.50697833]
 [  0.25666667 -34.92912415]]","[[0.         0.7061587 ]
 [0.1        1.27161124]
 [0.2        0.8921187 ]
 [0.25666667 1.97802528]]",0,1.37
8817605319,m,22,french,4,5,french,2024-02-07 15:14:50.712299,False,2,348,sounds\french\audio/french_534.wav,"[[  0.          96.41776506]
 [  0.1        -53.52749338]
 [  0.2         51.10087415]
 [  0.25666667  27.39654188]]","[[0.         0.28463844]
 [0.1        1.69872517]
 [0.2        0.80798533]
 [0.25666667 1.79838566]]",0,0.675
8817605319,m,22,french,4,5,french,2024-02-07 15:14:50.712299,False,2,349,sounds\french\audio/french_411.wav,"[[  0.          65.70741219]
 [  0.1          9.47903784]
 [  0.2         88.46874173]
 [  0.25666667 -33.05830924]]","[[0.         1.12073031]
 [0.1        1.20345695]
 [0.2        1.7567893 ]
 [0.25666667 0.68949127]]",0,0.639
8817605319,m,22,french,4,5,french,2024-02-07 15:14:50.712299,False,2,350,sounds\french\audio/french_421.wav,"[[  0.          97.07315942]
 [  0.1        -83.39673754]
 [  0.2         82.21564407]
 [  0.25666667  -4.22049535]]","[[0.         0.55056447]
 [0.1        1.15764891]
 [0.2        0.98396665]
 [0.25666667 0.77781273]]",0,0.9
8817605319,m,22,french,4,5,french,2024-02-07 15:14:50.712299,False,2,351,sounds\french\audio/french_150.wav,"[[  0.           8.70975457]
 [  0.1        -27.10460474]
 [  0.2        -81.59186784]
 [  0.25666667 -72.54184128]]","[[0.         0.6151883 ]
 [0.1        1.35739255]
 [0.2        1.42530839]
 [0.25666667 0.64697028]]",0,0.893
8817605319,m,22,french,4,5,french,2024-02-07 15:14:50.712299,False,2,352,sounds\french\audio/french_32.wav,"[[  0.         -95.97477456]
 [  0.1        -25.31572866]
 [  0.2        -25.0492654 ]
 [  0.25666667 -74.56689772]]","[[0.         1.5242089 ]
 [0.1        0.2047991 ]
 [0.2        1.11388434]
 [0.25666667 1.18772321]]",0,2.136
8817605319,m,22,french,4,5,french,2024-02-07 15:14:50.712299,False,2,353,sounds\french\audio/french_787.wav,"[[  0.         -96.56930436]
 [  0.1        -14.18878177]
 [  0.2        -34.79884993]
 [  0.25666667 -70.75211023]]","[[0.         0.95025141]
 [0.1        1.10577547]
 [0.2        0.4132657 ]
 [0.25666667 0.64958401]]",0,0.609
8817605319,m,22,french,4,5,french,2024-02-07 15:14:50.712299,False,2,354,sounds\french\audio/french_949.wav,"[[  0.          29.18752906]
 [  0.1        -67.27756955]
 [  0.2         55.26419326]
 [  0.25666667  11.27327126]]","[[0.         0.08608659]
 [0.1        1.93613179]
 [0.2        0.81834021]
 [0.25666667 0.09029871]]",0,1.524
8817605319,m,22,french,4,5,french,2024-02-07 15:14:50.712299,False,2,355,sounds\french\audio/french_190.wav,"[[ 0.         69.06529403]
 [ 0.1        69.42395119]
 [ 0.2        67.79801708]
 [ 0.25666667 63.92857008]]","[[0.         1.3481685 ]
 [0.1        0.73404764]
 [0.2        1.27794388]
 [0.25666667 1.43465572]]",0,0.781
8817605319,m,22,french,4,5,french,2024-02-07 15:14:50.712299,False,2,356,sounds\french\audio/french_421.wav,"[[  0.          97.07315942]
 [  0.1        -83.39673754]
 [  0.2         82.21564407]
 [  0.25666667  -4.22049535]]","[[0.         0.55056447]
 [0.1        1.15764891]
 [0.2        0.98396665]
 [0.25666667 0.77781273]]",0,0.464
8817605319,m,22,french,4,5,french,2024-02-07 15:14:50.712299,False,2,357,sounds\french\audio/french_635.wav,"[[  0.          33.90344979]
 [  0.1        -75.47627702]
 [  0.2         49.7914685 ]
 [  0.25666667  43.41419086]]","[[0.         1.89496442]
 [0.1        0.79794333]
 [0.2        1.70645199]
 [0.25666667 1.41022612]]",0,0.644
8817605319,m,22,french,4,5,french,2024-02-07 15:14:50.712299,False,2,358,sounds\french\audio/french_769.wav,"[[  0.          78.39802529]
 [  0.1         98.35868913]
 [  0.2        -63.4251983 ]
 [  0.25666667 -17.35256236]]","[[0.         0.31346408]
 [0.1        0.8359084 ]
 [0.2        1.75433615]
 [0.25666667 0.30245362]]",0,0.503
8817605319,m,22,french,4,5,french,2024-02-07 15:14:50.712299,False,2,359,sounds\french\audio/french_145.wav,"[[  0.          45.95226671]
 [  0.1        -66.66601381]
 [  0.2        -89.77596615]
 [  0.25666667   8.03115864]]","[[0.         0.38136586]
 [0.1        1.38589502]
 [0.2        0.43712509]
 [0.25666667 1.92826262]]",0,1.779
8817605319,m,22,french,4,5,french,2024-02-07 15:14:50.712299,False,2,360,sounds\french\audio/french_792.wav,"[[  0.         -30.95032355]
 [  0.1         73.05460755]
 [  0.2         -0.6809714 ]
 [  0.25666667  25.15150688]]","[[0.         0.5884638 ]
 [0.1        1.61732216]
 [0.2        1.33614238]
 [0.25666667 0.65397567]]",0,1.396
8817605319,m,22,french,4,5,french,2024-02-07 15:14:50.712299,False,2,361,sounds\french\audio/french_807.wav,"[[  0.          41.22965042]
 [  0.1         55.45523643]
 [  0.2        -56.08981041]
 [  0.25666667  27.67304414]]","[[0.         0.26309645]
 [0.1        0.30227962]
 [0.2        0.58983644]
 [0.25666667 1.26996728]]",0,5.425
8817605319,m,22,french,4,5,french,2024-02-07 15:14:50.712299,False,2,362,sounds\french\audio/french_121.wav,"[[  0.          35.32035933]
 [  0.1        -67.07725169]
 [  0.2         83.36951387]
 [  0.25666667  37.65048559]]","[[0.         0.75756688]
 [0.1        1.37771724]
 [0.2        1.17860501]
 [0.25666667 1.25500134]]",0,0.555
8817605319,m,22,french,4,5,french,2024-02-07 15:14:50.712299,False,2,363,sounds\french\audio/french_806.wav,"[[  0.          97.26957313]
 [  0.1         79.44562669]
 [  0.2         79.77586719]
 [  0.25666667 -46.2684083 ]]","[[0.         1.48673004]
 [0.1        1.9967546 ]
 [0.2        0.9238106 ]
 [0.25666667 1.39755131]]",0,0.556
8817605319,m,22,french,4,5,french,2024-02-07 15:14:50.712299,False,2,364,sounds\french\audio/french_337.wav,"[[  0.         -97.64468947]
 [  0.1        -70.83087303]
 [  0.2        -48.67995381]
 [  0.25666667 -82.84031791]]","[[0.         0.15620351]
 [0.1        1.65716961]
 [0.2        0.82507575]
 [0.25666667 0.89595203]]",0,0.7
8817605319,m,22,french,4,5,french,2024-02-07 15:14:50.712299,False,2,365,sounds\french\audio/french_823.wav,"[[  0.         -89.53533563]
 [  0.1         14.01752274]
 [  0.2         33.24657022]
 [  0.25666667 -78.84260648]]","[[0.         0.87621895]
 [0.1        0.92757563]
 [0.2        1.30685671]
 [0.25666667 1.33840969]]",0,3.678
8817605319,m,22,french,4,5,french,2024-02-07 15:14:50.712299,False,2,366,sounds\french\audio/french_975.wav,"[[  0.         -26.92402708]
 [  0.1        -12.18779535]
 [  0.2        -49.74503626]
 [  0.25666667  48.08434321]]","[[0.         1.54282139]
 [0.1        0.57018571]
 [0.2        1.72772198]
 [0.25666667 1.83415107]]",0,0.55
8817605319,m,22,french,4,5,french,2024-02-07 15:14:50.712299,False,2,367,sounds\french\audio/french_833.wav,"[[  0.          -6.16556676]
 [  0.1        -32.48345992]
 [  0.2        -28.28033803]
 [  0.25666667  48.73445236]]","[[0.         1.54939137]
 [0.1        0.45028205]
 [0.2        0.55227402]
 [0.25666667 0.7790443 ]]",0,0.354
8817605319,m,22,french,4,5,french,2024-02-07 15:14:50.712299,False,2,368,sounds\french\audio/french_3.wav,"[[  0.         -14.61439924]
 [  0.1         31.18450832]
 [  0.2         25.79538703]
 [  0.25666667  -0.91933426]]","[[0.         1.57160784]
 [0.1        1.95729533]
 [0.2        1.5259075 ]
 [0.25666667 1.3870147 ]]",0,0.581
8817605319,m,22,french,4,5,french,2024-02-07 15:14:50.712299,False,2,369,sounds\french\audio/french_764.wav,"[[  0.          -8.95969579]
 [  0.1          5.11158076]
 [  0.2          3.7358826 ]
 [  0.25666667 -14.74224302]]","[[0.         0.46272501]
 [0.1        1.84250995]
 [0.2        0.71585727]
 [0.25666667 0.58101627]]",0,0.319
8817605319,m,22,french,4,5,french,2024-02-07 15:14:50.712299,False,2,370,sounds\french\audio/french_801.wav,"[[  0.          -2.50424847]
 [  0.1        -38.14130366]
 [  0.2         29.8899248 ]
 [  0.25666667   6.94729426]]","[[0.         1.53837519]
 [0.1        1.1394832 ]
 [0.2        1.04638934]
 [0.25666667 1.11851907]]",0,0.526
8817605319,m,22,french,4,5,french,2024-02-07 15:14:50.712299,False,2,371,sounds\french\audio/french_816.wav,"[[  0.         -39.39804621]
 [  0.1         14.23792488]
 [  0.2        -84.08825282]
 [  0.25666667 -46.46940665]]","[[0.         1.26291691]
 [0.1        1.60181117]
 [0.2        0.57012939]
 [0.25666667 1.06315664]]",0,0.533
8817605319,m,22,french,4,5,french,2024-02-07 15:14:50.712299,False,2,372,sounds\french\audio/french_293.wav,"[[  0.         -11.30043192]
 [  0.1        -69.36716709]
 [  0.2         65.20751159]
 [  0.25666667  27.71872742]]","[[0.         0.58860684]
 [0.1        0.23928943]
 [0.2        1.00971501]
 [0.25666667 0.31746318]]",0,1.551
8817605319,m,22,french,4,5,french,2024-02-07 15:14:50.712299,False,2,373,sounds\french\audio/french_417.wav,"[[  0.         -52.68130191]
 [  0.1         73.91368418]
 [  0.2          7.73324389]
 [  0.25666667  92.88066518]]","[[0.         1.49469738]
 [0.1        1.06358835]
 [0.2        1.12421265]
 [0.25666667 0.65436219]]",0,1.097
8817605319,m,22,french,4,5,french,2024-02-07 15:14:50.712299,False,2,374,sounds\french\audio/french_11.wav,"[[  0.         -27.01625533]
 [  0.1         30.5454192 ]
 [  0.2        -10.3355652 ]
 [  0.25666667  -1.40658107]]","[[0.         0.65463853]
 [0.1        0.82547758]
 [0.2        1.18020414]
 [0.25666667 0.75245655]]",0,1.321
8817605319,m,22,french,4,5,french,2024-02-07 15:14:50.712299,False,2,375,sounds\french\audio/french_56.wav,"[[  0.         -45.81384366]
 [  0.1        -31.22745768]
 [  0.2          7.07301694]
 [  0.25666667  85.51747291]]","[[0.         0.89556329]
 [0.1        1.16444889]
 [0.2        0.03247946]
 [0.25666667 0.10908846]]",0,0.839
8817605319,m,22,french,4,5,french,2024-02-07 15:14:50.712299,False,2,376,sounds\french\audio/french_270.wav,"[[  0.         -78.86827529]
 [  0.1        -82.37829284]
 [  0.2        -56.83639547]
 [  0.25666667  11.60888519]]","[[0.         1.67831185]
 [0.1        0.76287252]
 [0.2        1.7160191 ]
 [0.25666667 0.82403755]]",0,7.579
8817605319,m,22,french,4,5,french,2024-02-07 15:14:50.712299,False,2,377,sounds\french\audio/french_707.wav,"[[  0.          77.25708539]
 [  0.1        -54.8008957 ]
 [  0.2        -15.62691875]
 [  0.25666667   8.64437522]]","[[0.         0.72667473]
 [0.1        1.98017833]
 [0.2        0.70006776]
 [0.25666667 1.11828401]]",0,0.401
8817605319,m,22,french,4,5,french,2024-02-07 15:14:50.712299,False,2,378,sounds\french\audio/french_35.wav,"[[  0.         -91.9197252 ]
 [  0.1        -51.10479589]
 [  0.2        -15.74458639]
 [  0.25666667 -11.36352661]]","[[0.         1.92941129]
 [0.1        1.66263878]
 [0.2        0.60493147]
 [0.25666667 1.17557979]]",0,0.374
8817605319,m,22,french,4,5,french,2024-02-07 15:14:50.712299,False,2,379,sounds\french\audio/french_628.wav,"[[  0.          68.49177404]
 [  0.1        -37.23139728]
 [  0.2        -66.57894256]
 [  0.25666667  94.63403104]]","[[0.         1.08718887]
 [0.1        1.92014291]
 [0.2        1.74485312]
 [0.25666667 1.25946788]]",0,0.668
8817605319,m,22,french,4,5,french,2024-02-07 15:14:50.712299,False,2,380,sounds\french\audio/french_691.wav,"[[  0.          89.02514599]
 [  0.1         84.72414094]
 [  0.2         -3.6265137 ]
 [  0.25666667 -99.35319265]]","[[0.         1.04651451]
 [0.1        1.61938954]
 [0.2        1.34588415]
 [0.25666667 1.50620009]]",0,1.185
8817605319,m,22,french,4,5,french,2024-02-07 15:14:50.712299,False,2,381,sounds\french\audio/french_854.wav,"[[  0.          -7.31529778]
 [  0.1        -99.41756076]
 [  0.2          9.72781791]
 [  0.25666667  12.92966386]]","[[0.         1.19205775]
 [0.1        1.8519083 ]
 [0.2        0.75121465]
 [0.25666667 0.73809803]]",0,0.622
8817605319,m,22,french,4,5,french,2024-02-07 15:14:50.712299,False,2,382,sounds\french\audio/french_223.wav,"[[  0.           4.95143367]
 [  0.1         55.42619629]
 [  0.2         77.82995017]
 [  0.25666667 -85.84724551]]","[[0.         1.93703508]
 [0.1        0.30698411]
 [0.2        0.10644958]
 [0.25666667 0.25911965]]",0,1.071
8817605319,m,22,french,4,5,french,2024-02-07 15:14:50.712299,False,2,383,sounds\french\audio/french_179.wav,"[[  0.         -38.66887761]
 [  0.1        -45.74367449]
 [  0.2         41.91599006]
 [  0.25666667  36.18860402]]","[[0.         0.36967864]
 [0.1        1.41588785]
 [0.2        1.38004937]
 [0.25666667 1.10239155]]",0,1.195
8817605319,m,22,french,4,5,french,2024-02-07 15:14:50.712299,False,2,384,sounds\french\audio/french_663.wav,"[[  0.           9.26283991]
 [  0.1          8.63416543]
 [  0.2        -94.49816933]
 [  0.25666667 -21.43071833]]","[[0.         1.50228176]
 [0.1        0.75616041]
 [0.2        0.98085129]
 [0.25666667 1.35574544]]",0,0.773
8817605319,m,22,french,4,5,french,2024-02-07 15:14:50.712299,False,2,385,sounds\french\audio/french_709.wav,"[[  0.         -79.1228884 ]
 [  0.1        -27.45222572]
 [  0.2        -11.54770291]
 [  0.25666667 -99.06734201]]","[[0.         1.66046785]
 [0.1        0.50815509]
 [0.2        1.01994244]
 [0.25666667 1.8368488 ]]",0,0.652
8817605319,m,22,french,4,5,french,2024-02-07 15:14:50.712299,False,2,386,sounds\french\audio/french_89.wav,"[[  0.         -79.59355323]
 [  0.1        -86.9945706 ]
 [  0.2         81.38410409]
 [  0.25666667 -11.31628481]]","[[0.         1.69180454]
 [0.1        1.08047967]
 [0.2        1.92177075]
 [0.25666667 1.93759104]]",0,0.497
8817605319,m,22,french,4,5,french,2024-02-07 15:14:50.712299,False,2,387,sounds\french\audio/french_702.wav,"[[  0.         -53.8337347 ]
 [  0.1         13.17722269]
 [  0.2        -63.63948694]
 [  0.25666667  -7.77006894]]","[[0.         0.65995653]
 [0.1        1.48591365]
 [0.2        1.16262137]
 [0.25666667 1.49403865]]",0,0.521
8817605319,m,22,french,4,5,french,2024-02-07 15:14:50.712299,False,2,388,sounds\french\audio/french_451.wav,"[[  0.           4.63188994]
 [  0.1         28.08955108]
 [  0.2         71.15157801]
 [  0.25666667 -28.31676071]]","[[0.         1.82787098]
 [0.1        0.29502826]
 [0.2        0.14883578]
 [0.25666667 0.64245631]]",0,0.772
8817605319,m,22,french,4,5,french,2024-02-07 15:14:50.712299,False,2,389,sounds\french\audio/french_833.wav,"[[  0.          -6.16556676]
 [  0.1        -32.48345992]
 [  0.2        -28.28033803]
 [  0.25666667  48.73445236]]","[[0.         1.54939137]
 [0.1        0.45028205]
 [0.2        0.55227402]
 [0.25666667 0.7790443 ]]",0,0.475
8817605319,m,22,french,4,5,french,2024-02-07 15:14:50.712299,False,2,390,sounds\french\audio/french_238.wav,"[[ 0.         -7.77377299]
 [ 0.1        24.08862247]
 [ 0.2        87.10581208]
 [ 0.25666667 73.57906518]]","[[0.         1.79398275]
 [0.1        0.12404774]
 [0.2        0.76943839]
 [0.25666667 1.68164748]]",0,0.486
8817605319,m,22,french,4,5,french,2024-02-07 15:14:50.712299,False,2,391,sounds\french\audio/french_837.wav,"[[  0.          12.86528577]
 [  0.1         80.83337189]
 [  0.2        -88.94110826]
 [  0.25666667  32.10555955]]","[[0.         1.70928146]
 [0.1        0.14925978]
 [0.2        0.83215091]
 [0.25666667 1.23671449]]",0,3.316
8817605319,m,22,french,4,5,french,2024-02-07 15:14:50.712299,False,2,392,sounds\french\audio/french_166.wav,"[[  0.         -13.71320418]
 [  0.1        -74.77814183]
 [  0.2         42.48534987]
 [  0.25666667 -48.97271451]]","[[0.         1.40282364]
 [0.1        0.51226478]
 [0.2        1.59981073]
 [0.25666667 1.00485648]]",0,0.333
8817605319,m,22,french,4,5,french,2024-02-07 15:14:50.712299,False,2,393,sounds\french\audio/french_8.wav,"[[ 0.         75.36204911]
 [ 0.1        99.77980072]
 [ 0.2        31.87407215]
 [ 0.25666667 -3.14162979]]","[[0.         1.20802323]
 [0.1        1.04694521]
 [0.2        1.95307637]
 [0.25666667 0.34441347]]",0,0.567
8817605319,m,22,french,4,5,french,2024-02-07 15:14:50.712299,False,2,394,sounds\french\audio/french_318.wav,"[[  0.          51.46520294]
 [  0.1         86.78866558]
 [  0.2        -10.27725715]
 [  0.25666667   9.68065634]]","[[0.         0.36120202]
 [0.1        0.00996795]
 [0.2        1.05940341]
 [0.25666667 1.37923943]]",1,1.695
8817605319,m,22,french,4,5,french,2024-02-07 15:14:50.712299,False,2,395,sounds\french\audio/french_945.wav,"[[  0.         -68.75533602]
 [  0.1        -70.31736245]
 [  0.2         30.11750803]
 [  0.25666667 -35.89247017]]","[[0.         0.74886616]
 [0.1        1.09629777]
 [0.2        0.8052417 ]
 [0.25666667 0.22664311]]",0,0.51
8817605319,m,22,french,4,5,french,2024-02-07 15:14:50.712299,False,2,396,sounds\french\audio/french_12.wav,"[[  0.         -57.76127346]
 [  0.1         13.80138245]
 [  0.2         70.02389064]
 [  0.25666667 -46.37027392]]","[[0.         1.31680682]
 [0.1        1.40135686]
 [0.2        0.63152994]
 [0.25666667 0.33836826]]",0,0.437
8817605319,m,22,french,4,5,french,2024-02-07 15:14:50.712299,False,2,397,sounds\french\audio/french_11.wav,"[[  0.         -27.01625533]
 [  0.1         30.5454192 ]
 [  0.2        -10.3355652 ]
 [  0.25666667  -1.40658107]]","[[0.         0.65463853]
 [0.1        0.82547758]
 [0.2        1.18020414]
 [0.25666667 0.75245655]]",0,0.254
8817605319,m,22,french,4,5,french,2024-02-07 15:14:50.712299,False,2,398,sounds\french\audio/french_330.wav,"[[  0.         -46.98301203]
 [  0.1         55.18277966]
 [  0.2         68.01781419]
 [  0.25666667 -65.13341665]]","[[0.         1.92315583]
 [0.1        0.64158591]
 [0.2        0.71457858]
 [0.25666667 0.26661962]]",0,1.684
8817605319,m,22,french,4,5,french,2024-02-07 15:14:50.712299,False,2,399,sounds\french\audio/french_45.wav,"[[  0.           6.51510613]
 [  0.1        -86.25018513]
 [  0.2        -60.46903131]
 [  0.25666667 -48.31089161]]","[[0.         0.83763225]
 [0.1        1.19709151]
 [0.2        0.87484565]
 [0.25666667 0.45414185]]",0,0.717
8817605319,m,22,french,4,5,french,2024-02-07 15:14:50.712299,False,2,400,sounds\french\audio/french_391.wav,"[[  0.         -76.68975493]
 [  0.1        -61.92507962]
 [  0.2        -59.03609545]
 [  0.25666667  88.69049446]]","[[0.         1.01472424]
 [0.1        1.84772624]
 [0.2        1.36374408]
 [0.25666667 1.21538153]]",0,0.477
8817605319,m,22,french,4,5,french,2024-02-07 15:14:50.712299,False,2,401,sounds\french\audio/french_278.wav,"[[  0.           0.92058819]
 [  0.1        -11.12293645]
 [  0.2         51.74113392]
 [  0.25666667  59.96495371]]","[[0.         0.58166089]
 [0.1        0.6190237 ]
 [0.2        1.02661965]
 [0.25666667 0.89915078]]",0,0.403
8817605319,m,22,french,4,5,french,2024-02-07 15:14:50.712299,False,2,402,sounds\french\audio/french_256.wav,"[[ 0.         34.00641445]
 [ 0.1        78.12380502]
 [ 0.2        84.97245465]
 [ 0.25666667 29.4187394 ]]","[[0.         1.19838094]
 [0.1        0.9412232 ]
 [0.2        1.34630265]
 [0.25666667 1.86077871]]",0,0.454
8817605319,m,22,french,4,5,french,2024-02-07 15:14:50.712299,False,2,403,sounds\french\audio/french_829.wav,"[[  0.          46.725297  ]
 [  0.1        -84.28207626]
 [  0.2         93.60285392]
 [  0.25666667 -19.92335823]]","[[0.         0.52675555]
 [0.1        1.43556726]
 [0.2        0.6815656 ]
 [0.25666667 1.46711526]]",0,0.99
8817605319,m,22,french,4,5,french,2024-02-07 15:14:50.712299,False,2,404,sounds\french\audio/french_449.wav,"[[  0.          49.95404734]
 [  0.1        -42.73933853]
 [  0.2         16.44287486]
 [  0.25666667 -12.34539139]]","[[0.         0.88379096]
 [0.1        1.13878319]
 [0.2        0.43325684]
 [0.25666667 0.01727343]]",0,0.508
8817605319,m,22,french,4,5,french,2024-02-07 15:14:50.712299,False,2,405,sounds\french\audio/french_774.wav,"[[  0.         -35.29041546]
 [  0.1        -21.07774935]
 [  0.2        -42.95062976]
 [  0.25666667 -27.37747858]]","[[0.         0.24909556]
 [0.1        0.81236123]
 [0.2        0.84475887]
 [0.25666667 0.12641702]]",0,45.142
8817605319,m,22,french,4,5,french,2024-02-07 15:14:50.712299,False,2,406,sounds\french\audio/french_883.wav,"[[  0.          79.42425648]
 [  0.1        -55.57656198]
 [  0.2        -42.3009185 ]
 [  0.25666667   9.11567641]]","[[0.         0.82987007]
 [0.1        1.06788753]
 [0.2        1.49414105]
 [0.25666667 1.30049822]]",0,0.489
8817605319,m,22,french,4,5,french,2024-02-07 15:14:50.712299,False,2,407,sounds\french\audio/french_436.wav,"[[  0.          21.52139078]
 [  0.1         91.02122448]
 [  0.2         28.53627776]
 [  0.25666667 -78.88687792]]","[[0.         0.27861971]
 [0.1        0.31750307]
 [0.2        0.35857003]
 [0.25666667 1.70163595]]",0,0.932
8817605319,m,22,french,4,5,french,2024-02-07 15:14:50.712299,False,2,408,sounds\french\audio/french_356.wav,"[[  0.         -28.24477507]
 [  0.1        -36.63699676]
 [  0.2         67.9524461 ]
 [  0.25666667   8.53170414]]","[[0.         0.35227097]
 [0.1        1.16218152]
 [0.2        1.82395355]
 [0.25666667 1.63669257]]",0,1.867
8817605319,m,22,french,4,5,french,2024-02-07 15:14:50.712299,False,2,409,sounds\french\audio/french_267.wav,"[[  0.         -65.51042118]
 [  0.1         15.6710232 ]
 [  0.2        -16.59501764]
 [  0.25666667  49.75287867]]","[[0.         0.47900721]
 [0.1        1.08471332]
 [0.2        0.49268798]
 [0.25666667 1.54023863]]",0,0.904
8817605319,m,22,french,4,5,french,2024-02-07 15:14:50.712299,False,2,410,sounds\french\audio/french_823.wav,"[[  0.         -89.53533563]
 [  0.1         14.01752274]
 [  0.2         33.24657022]
 [  0.25666667 -78.84260648]]","[[0.         0.87621895]
 [0.1        0.92757563]
 [0.2        1.30685671]
 [0.25666667 1.33840969]]",0,1.161
8817605319,m,22,french,4,5,french,2024-02-07 15:14:50.712299,False,2,411,sounds\french\audio/french_336.wav,"[[  0.         -59.08437243]
 [  0.1        -11.33502928]
 [  0.2         -8.85944942]
 [  0.25666667  -2.33471857]]","[[0.         0.65572155]
 [0.1        1.68249373]
 [0.2        0.52457197]
 [0.25666667 1.1312199 ]]",0,0.491
8817605319,m,22,french,4,5,french,2024-02-07 15:14:50.712299,False,2,412,sounds\french\audio/french_216.wav,"[[  0.          94.47877999]
 [  0.1        -35.64680956]
 [  0.2         -6.49582042]
 [  0.25666667  88.58272088]]","[[0.         1.14166801]
 [0.1        0.96477388]
 [0.2        1.30348701]
 [0.25666667 1.4092971 ]]",0,0.393
8817605319,m,22,french,4,5,french,2024-02-07 15:14:50.712299,False,2,413,sounds\french\audio/french_669.wav,"[[0.00000000e+00 7.85638242e-02]
 [1.00000000e-01 6.42084207e+00]
 [2.00000000e-01 8.43922519e+01]
 [2.56666667e-01 1.87399725e+00]]","[[0.         1.32851713]
 [0.1        1.65603836]
 [0.2        1.32676382]
 [0.25666667 0.80161972]]",0,1.235
8817605319,m,22,french,4,5,french,2024-02-07 15:14:50.712299,False,2,414,sounds\french\audio/french_875.wav,"[[  0.         -21.85805239]
 [  0.1         89.69626046]
 [  0.2        -30.27044373]
 [  0.25666667  34.72149061]]","[[0.         1.53415162]
 [0.1        1.00812403]
 [0.2        0.85877698]
 [0.25666667 1.23447623]]",0,0.658
8817605319,m,22,french,4,5,french,2024-02-07 15:14:50.712299,False,2,415,sounds\french\audio/french_970.wav,"[[  0.          45.66425393]
 [  0.1        -82.79761983]
 [  0.2         16.19264407]
 [  0.25666667  56.04070076]]","[[0.         0.15526341]
 [0.1        0.70533305]
 [0.2        1.08595816]
 [0.25666667 0.89955958]]",0,0.753
8817605319,m,22,french,4,5,french,2024-02-07 15:14:50.712299,False,2,416,sounds\french\audio/french_715.wav,"[[  0.          89.89167485]
 [  0.1         47.15597215]
 [  0.2         44.59513653]
 [  0.25666667 -32.08567965]]","[[0.         1.90551341]
 [0.1        0.2376049 ]
 [0.2        0.03260857]
 [0.25666667 1.14470607]]",0,0.827
8817605319,m,22,french,4,5,french,2024-02-07 15:14:50.712299,False,2,417,sounds\french\audio/french_398.wav,"[[  0.           6.24181165]
 [  0.1        -92.25652661]
 [  0.2        -10.16879246]
 [  0.25666667  42.06293659]]","[[0.         1.03823517]
 [0.1        1.54229831]
 [0.2        1.61201148]
 [0.25666667 1.50798312]]",0,1.203
8817605319,m,22,french,4,5,french,2024-02-07 15:14:50.712299,False,2,418,sounds\french\audio/french_227.wav,"[[  0.           0.51486219]
 [  0.1         -7.58300973]
 [  0.2         -1.58102923]
 [  0.25666667 -53.33162074]]","[[0.         1.24333394]
 [0.1        1.87169026]
 [0.2        1.73620524]
 [0.25666667 0.85172824]]",0,1.028
8817605319,m,22,french,4,5,french,2024-02-07 15:14:50.712299,False,2,419,sounds\french\audio/french_259.wav,"[[  0.          34.42813613]
 [  0.1         10.6054277 ]
 [  0.2        -13.69189805]
 [  0.25666667 -89.62004192]]","[[0.         0.3045902 ]
 [0.1        0.51228763]
 [0.2        1.00650156]
 [0.25666667 1.73437165]]",0,0.576
8817605319,m,22,french,4,5,french,2024-02-07 15:14:50.712299,False,2,420,sounds\french\audio/french_117.wav,"[[ 0.          6.74214439]
 [ 0.1         3.15736066]
 [ 0.2        10.42128043]
 [ 0.25666667 89.20041031]]","[[0.         0.42718416]
 [0.1        1.82203077]
 [0.2        0.49696174]
 [0.25666667 0.34350523]]",0,2.686
8817605319,m,22,french,4,5,french,2024-02-07 15:14:50.712299,False,2,421,sounds\french\audio/french_194.wav,"[[  0.          82.45325258]
 [  0.1         88.9094727 ]
 [  0.2        -44.07936747]
 [  0.25666667  97.80970813]]","[[0.         0.54112087]
 [0.1        0.47601939]
 [0.2        1.71905709]
 [0.25666667 1.16289195]]",0,0.646
8817605319,m,22,french,4,5,french,2024-02-07 15:14:50.712299,False,2,422,sounds\french\audio/french_246.wav,"[[  0.         -61.30298939]
 [  0.1         15.83987086]
 [  0.2         80.17394669]
 [  0.25666667 -81.65507189]]","[[0.         1.31566238]
 [0.1        1.23869052]
 [0.2        1.57286335]
 [0.25666667 0.07583844]]",0,0.506
8817605319,m,22,french,4,5,french,2024-02-07 15:14:50.712299,False,2,423,sounds\french\audio/french_190.wav,"[[ 0.         69.06529403]
 [ 0.1        69.42395119]
 [ 0.2        67.79801708]
 [ 0.25666667 63.92857008]]","[[0.         1.3481685 ]
 [0.1        0.73404764]
 [0.2        1.27794388]
 [0.25666667 1.43465572]]",0,2.153
8817605319,m,22,french,4,5,french,2024-02-07 15:14:50.712299,False,2,424,sounds\french\audio/french_240.wav,"[[  0.          77.68768834]
 [  0.1        -29.82643761]
 [  0.2         18.33689373]
 [  0.25666667  24.70133008]]","[[0.         0.69241663]
 [0.1        1.16068826]
 [0.2        0.98486954]
 [0.25666667 0.89191813]]",0,1.694
8817605319,m,22,french,4,5,french,2024-02-07 15:14:50.712299,False,2,425,sounds\french\audio/french_374.wav,"[[  0.          23.12233407]
 [  0.1          4.88786521]
 [  0.2         75.40336837]
 [  0.25666667 -52.23092949]]","[[0.         0.63582229]
 [0.1        0.48218095]
 [0.2        0.81003499]
 [0.25666667 1.31471089]]",0,1.055
8817605319,m,22,french,4,5,french,2024-02-07 15:14:50.712299,False,2,426,sounds\french\audio/french_791.wav,"[[  0.         -81.64215326]
 [  0.1         84.74526907]
 [  0.2        -10.10354349]
 [  0.25666667 -10.14583619]]","[[0.         0.09493453]
 [0.1        0.0053506 ]
 [0.2        1.61132934]
 [0.25666667 1.39802197]]",0,3.217
8817605319,m,22,french,4,5,french,2024-02-07 15:14:50.712299,False,2,427,sounds\french\audio/french_205.wav,"[[  0.          31.24463061]
 [  0.1        -22.87848896]
 [  0.2        -36.82881223]
 [  0.25666667 -47.84026219]]","[[0.         0.69283155]
 [0.1        1.55894518]
 [0.2        1.67941014]
 [0.25666667 0.92091984]]",0,0.239
8817605319,m,22,french,4,5,french,2024-02-07 15:14:50.712299,False,2,428,sounds\french\audio/french_944.wav,"[[  0.          -8.30121602]
 [  0.1         15.19990023]
 [  0.2        -34.54061483]
 [  0.25666667 -24.04483863]]","[[0.         1.41077405]
 [0.1        0.52690475]
 [0.2        0.23733031]
 [0.25666667 1.49354387]]",0,0.603
8817605319,m,22,french,4,5,french,2024-02-07 15:14:50.712299,False,2,429,sounds\french\audio/french_142.wav,"[[  0.         -47.01050856]
 [  0.1         44.85636852]
 [  0.2         82.74517116]
 [  0.25666667 -74.59675421]]","[[0.         0.88751265]
 [0.1        1.13664387]
 [0.2        0.91175928]
 [0.25666667 0.66352734]]",0,0.457
8817605319,m,22,french,4,5,french,2024-02-07 15:14:50.712299,False,2,430,sounds\french\audio/french_144.wav,"[[  0.          54.7439873 ]
 [  0.1        -90.40840953]
 [  0.2        -23.8496949 ]
 [  0.25666667   9.69074846]]","[[0.         1.65699933]
 [0.1        0.10946834]
 [0.2        0.63660565]
 [0.25666667 0.31092992]]",0,0.428
8817605319,m,22,french,4,5,french,2024-02-07 15:14:50.712299,False,2,431,sounds\french\audio/french_242.wav,"[[ 0.00000000e+00  1.91317605e+01]
 [ 1.00000000e-01 -4.58995637e+01]
 [ 2.00000000e-01  1.60089686e-02]
 [ 2.56666667e-01  8.82940870e+01]]","[[0.         0.13091957]
 [0.1        1.80487076]
 [0.2        1.56599149]
 [0.25666667 1.35043951]]",0,0.457
8817605319,m,22,french,4,5,french,2024-02-07 15:14:50.712299,False,2,432,sounds\french\audio/french_612.wav,"[[  0.          43.10783066]
 [  0.1         -4.14995098]
 [  0.2         22.17563662]
 [  0.25666667 -48.75850842]]","[[0.         0.49686358]
 [0.1        1.10500502]
 [0.2        0.22222502]
 [0.25666667 1.14111641]]",0,2.254
8817605319,m,22,french,4,5,french,2024-02-07 15:14:50.712299,False,2,433,sounds\french\audio/french_173.wav,"[[  0.         -85.34625679]
 [  0.1         19.71799215]
 [  0.2        -84.96079432]
 [  0.25666667 -20.27996547]]","[[0.         1.0505287 ]
 [0.1        1.50206547]
 [0.2        1.53807785]
 [0.25666667 1.54027091]]",0,0.605
8817605319,m,22,french,4,5,french,2024-02-07 15:14:50.712299,False,2,434,sounds\french\audio/french_285.wav,"[[  0.         -14.06099989]
 [  0.1         -5.26283055]
 [  0.2         18.02137941]
 [  0.25666667  46.27962364]]","[[0.         0.21649577]
 [0.1        0.66520183]
 [0.2        0.4490454 ]
 [0.25666667 1.92778075]]",0,1.702
8817605319,m,22,french,4,5,french,2024-02-07 15:14:50.712299,False,2,435,sounds\french\audio/french_579.wav,"[[  0.          43.6749768 ]
 [  0.1         44.80331973]
 [  0.2         80.34685553]
 [  0.25666667 -77.70594339]]","[[0.         0.88309836]
 [0.1        0.15383342]
 [0.2        0.11279804]
 [0.25666667 1.88524282]]",0,0.556
8817605319,m,22,french,4,5,french,2024-02-07 15:14:50.712299,False,2,436,sounds\french\audio/french_20.wav,"[[  0.         -78.24291845]
 [  0.1        -38.50442353]
 [  0.2          8.39731749]
 [  0.25666667 -43.87764948]]","[[0.         1.07200279]
 [0.1        1.52694999]
 [0.2        0.86133356]
 [0.25666667 0.74788424]]",0,0.542
8817605319,m,22,french,4,5,french,2024-02-07 15:14:50.712299,False,2,437,sounds\french\audio/french_237.wav,"[[  0.          -1.09426196]
 [  0.1        -48.49856075]
 [  0.2         36.42993093]
 [  0.25666667 -47.65767162]]","[[0.         0.40664609]
 [0.1        0.23529618]
 [0.2        0.05363011]
 [0.25666667 1.34950367]]",0,1.616
8817605319,m,22,french,4,5,french,2024-02-07 15:14:50.712299,False,2,438,sounds\french\audio/french_433.wav,"[[  0.         -17.50255462]
 [  0.1         46.48307521]
 [  0.2         39.12417732]
 [  0.25666667 -52.98872919]]","[[0.         1.12652369]
 [0.1        1.78874207]
 [0.2        0.52833996]
 [0.25666667 0.52335447]]",0,0.409
8817605319,m,22,french,4,5,french,2024-02-07 15:14:50.712299,False,2,439,sounds\french\audio/french_657.wav,"[[  0.          99.76716584]
 [  0.1         11.51898435]
 [  0.2        -43.45408234]
 [  0.25666667  22.46427071]]","[[0.         0.85695778]
 [0.1        1.00645436]
 [0.2        0.73989588]
 [0.25666667 1.57217431]]",0,0.425
8817605319,m,22,french,4,5,french,2024-02-07 15:14:50.712299,False,2,440,sounds\french\audio/french_434.wav,"[[  0.           7.9294609 ]
 [  0.1         36.47837772]
 [  0.2         71.3301905 ]
 [  0.25666667 -21.81717993]]","[[0.         1.64452419]
 [0.1        0.73911435]
 [0.2        0.53221197]
 [0.25666667 1.83629349]]",0,0.315
8817605319,m,22,french,4,5,french,2024-02-07 15:14:50.712299,False,2,441,sounds\french\audio/french_488.wav,"[[  0.          83.09023231]
 [  0.1         31.08155804]
 [  0.2         23.00603586]
 [  0.25666667 -14.42068905]]","[[0.         0.61404301]
 [0.1        1.79467821]
 [0.2        0.24163263]
 [0.25666667 1.80620701]]",0,0.487
8817605319,m,22,french,4,5,french,2024-02-07 15:14:50.712299,False,2,442,sounds\french\audio/french_15.wav,"[[  0.          75.10258226]
 [  0.1         91.64852869]
 [  0.2        -54.2483896 ]
 [  0.25666667 -67.82917504]]","[[0.         1.00702741]
 [0.1        0.72289983]
 [0.2        1.50363401]
 [0.25666667 0.97553874]]",0,0.769
8817605319,m,22,french,4,5,french,2024-02-07 15:14:50.712299,False,2,443,sounds\french\audio/french_499.wav,"[[  0.          24.28229917]
 [  0.1        -90.85236303]
 [  0.2        -60.29957953]
 [  0.25666667  91.79807534]]","[[0.         0.76159538]
 [0.1        0.50536641]
 [0.2        0.99158085]
 [0.25666667 1.05465089]]",0,0.688
8817605319,m,22,french,4,5,french,2024-02-07 15:14:50.712299,False,2,444,sounds\french\audio/french_405.wav,"[[  0.          52.22885858]
 [  0.1         18.90294402]
 [  0.2        -84.01769715]
 [  0.25666667  95.02638452]]","[[0.         0.59532017]
 [0.1        0.31881138]
 [0.2        1.18035169]
 [0.25666667 0.2814716 ]]",0,1.693
8817605319,m,22,french,4,5,french,2024-02-07 15:14:50.712299,False,2,445,sounds\french\audio/french_266.wav,"[[  0.          58.27883453]
 [  0.1        -28.04411439]
 [  0.2        -38.46127027]
 [  0.25666667 -84.67234247]]","[[0.         0.79886668]
 [0.1        1.49488383]
 [0.2        0.15170522]
 [0.25666667 1.57053192]]",0,0.354
8817605319,m,22,french,4,5,french,2024-02-07 15:14:50.712299,False,2,446,sounds\french\audio/french_36.wav,"[[  0.          97.14143801]
 [  0.1         96.24936774]
 [  0.2         69.49703902]
 [  0.25666667 -77.37121036]]","[[0.         0.84704198]
 [0.1        1.47086473]
 [0.2        1.29858496]
 [0.25666667 1.24445776]]",0,1.443
8817605319,m,22,french,4,5,french,2024-02-07 15:14:50.712299,False,2,447,sounds\french\audio/french_720.wav,"[[  0.         -84.90658582]
 [  0.1         42.34331668]
 [  0.2        -51.84568825]
 [  0.25666667  70.93496883]]","[[0.         1.45299565]
 [0.1        1.58494494]
 [0.2        1.67187292]
 [0.25666667 0.90000718]]",0,0.526
8817605319,m,22,french,4,5,french,2024-02-07 15:14:50.712299,False,2,448,sounds\french\audio/french_682.wav,"[[  0.         -16.33102186]
 [  0.1        -49.72009429]
 [  0.2        -23.39596266]
 [  0.25666667 -34.72439006]]","[[0.         0.79850708]
 [0.1        1.31273679]
 [0.2        1.51298147]
 [0.25666667 0.92861139]]",0,0.713
8817605319,m,22,french,4,5,french,2024-02-07 15:14:50.712299,False,2,449,sounds\french\audio/french_875.wav,"[[  0.         -21.85805239]
 [  0.1         89.69626046]
 [  0.2        -30.27044373]
 [  0.25666667  34.72149061]]","[[0.         1.53415162]
 [0.1        1.00812403]
 [0.2        0.85877698]
 [0.25666667 1.23447623]]",0,0.976
8817605319,m,22,french,4,5,french,2024-02-07 15:14:50.712299,False,2,450,sounds\french\audio/french_104.wav,"[[  0.         -10.23090517]
 [  0.1         92.61712743]
 [  0.2          0.22426759]
 [  0.25666667  32.30673442]]","[[0.         1.0322013 ]
 [0.1        0.84344174]
 [0.2        1.03962656]
 [0.25666667 1.9472426 ]]",0,0.676
8817605319,m,22,french,4,5,french,2024-02-07 15:14:50.712299,False,2,451,sounds\french\audio/french_109.wav,"[[  0.         -57.66612313]
 [  0.1        -72.54090479]
 [  0.2         -5.66573875]
 [  0.25666667 -86.22212262]]","[[0.         0.91141338]
 [0.1        1.63809523]
 [0.2        1.08686957]
 [0.25666667 0.85420458]]",0,0.654
8817605319,m,22,french,4,5,french,2024-02-07 15:14:50.712299,False,2,452,sounds\french\audio/french_202.wav,"[[  0.          13.54970771]
 [  0.1         96.46591802]
 [  0.2         96.13650215]
 [  0.25666667 -35.2772524 ]]","[[0.         0.17477243]
 [0.1        0.30528336]
 [0.2        0.41819952]
 [0.25666667 1.86493567]]",0,0.665
8817605319,m,22,french,4,5,french,2024-02-07 15:14:50.712299,False,2,453,sounds\french\audio/french_409.wav,"[[  0.         -85.45925867]
 [  0.1        -75.83462931]
 [  0.2        -81.34632848]
 [  0.25666667  -4.23490283]]","[[0.         0.92391671]
 [0.1        0.55779761]
 [0.2        1.04156293]
 [0.25666667 0.8536223 ]]",0,1.027
8817605319,m,22,french,4,5,french,2024-02-07 15:14:50.712299,False,2,454,sounds\french\audio/french_380.wav,"[[  0.          24.49292531]
 [  0.1        -93.89933718]
 [  0.2        -85.93529796]
 [  0.25666667  58.85582409]]","[[0.         0.14533116]
 [0.1        1.07880785]
 [0.2        1.01737492]
 [0.25666667 1.87499145]]",0,0.901
8817605319,m,22,french,4,5,french,2024-02-07 15:14:50.712299,False,2,455,sounds\french\audio/french_982.wav,"[[  0.         -37.50079515]
 [  0.1        -23.37923681]
 [  0.2        -55.8234839 ]
 [  0.25666667 -58.92111767]]","[[0.         0.32253899]
 [0.1        1.88868261]
 [0.2        0.59835015]
 [0.25666667 1.21615752]]",0,0.768
8817605319,m,22,french,4,5,french,2024-02-07 15:14:50.712299,False,2,456,sounds\french\audio/french_370.wav,"[[  0.         -31.30279389]
 [  0.1         96.47349065]
 [  0.2         23.18843017]
 [  0.25666667  81.62933181]]","[[0.         1.88170435]
 [0.1        0.75067332]
 [0.2        1.06279648]
 [0.25666667 0.58974769]]",0,0.554
8817605319,m,22,french,4,5,french,2024-02-07 15:14:50.712299,False,2,457,sounds\french\audio/french_263.wav,"[[  0.          25.02930943]
 [  0.1         77.59070044]
 [  0.2         61.13366196]
 [  0.25666667 -46.58539851]]","[[0.         0.29249845]
 [0.1        1.82268286]
 [0.2        0.69638669]
 [0.25666667 0.57279137]]",0,0.872
8817605319,m,22,french,4,5,french,2024-02-07 15:14:50.712299,False,2,458,sounds\french\audio/french_633.wav,"[[ 0.         86.81441283]
 [ 0.1        -4.21988764]
 [ 0.2        27.13702415]
 [ 0.25666667 25.74151368]]","[[0.         1.16860967]
 [0.1        0.88033016]
 [0.2        0.79008737]
 [0.25666667 1.16621919]]",0,0.76
8817605319,m,22,french,4,5,french,2024-02-07 15:14:50.712299,False,2,459,sounds\french\audio/french_359.wav,"[[  0.           4.86221528]
 [  0.1         41.19609007]
 [  0.2         55.98013436]
 [  0.25666667 -59.88256532]]","[[0.         1.66863127]
 [0.1        0.25992168]
 [0.2        1.95186144]
 [0.25666667 1.64110453]]",0,1.146
8817605319,m,22,french,4,5,french,2024-02-07 15:14:50.712299,False,2,460,sounds\french\audio/french_775.wav,"[[  0.         -25.73289632]
 [  0.1         52.55800123]
 [  0.2        -82.88064372]
 [  0.25666667  71.02003497]]","[[0.         0.08278175]
 [0.1        0.7848412 ]
 [0.2        1.99473571]
 [0.25666667 0.87564379]]",1,3.908
8817605319,m,22,french,4,5,french,2024-02-07 15:14:50.712299,False,2,461,sounds\french\audio/french_609.wav,"[[  0.          11.6890167 ]
 [  0.1        -35.50971605]
 [  0.2        -98.47760025]
 [  0.25666667 -64.00925784]]","[[0.         1.75568789]
 [0.1        1.50542158]
 [0.2        0.96032408]
 [0.25666667 1.1186533 ]]",0,0.492
8817605319,m,22,french,4,5,french,2024-02-07 15:14:50.712299,False,2,462,sounds\french\audio/french_496.wav,"[[  0.          95.35910422]
 [  0.1         -6.65722592]
 [  0.2         -0.21871516]
 [  0.25666667 -55.34055424]]","[[0.         1.71732874]
 [0.1        0.79073406]
 [0.2        0.34583293]
 [0.25666667 0.39020762]]",0,0.634
8817605319,m,22,french,4,5,french,2024-02-07 15:14:50.712299,False,2,463,sounds\french\audio/french_609.wav,"[[  0.          11.6890167 ]
 [  0.1        -35.50971605]
 [  0.2        -98.47760025]
 [  0.25666667 -64.00925784]]","[[0.         1.75568789]
 [0.1        1.50542158]
 [0.2        0.96032408]
 [0.25666667 1.1186533 ]]",0,2.357
8817605319,m,22,french,4,5,french,2024-02-07 15:14:50.712299,False,2,464,sounds\french\audio/french_466.wav,"[[  0.          73.58992944]
 [  0.1         63.97983353]
 [  0.2         36.10141743]
 [  0.25666667 -59.38235663]]","[[0.         1.41071494]
 [0.1        0.05598534]
 [0.2        1.99104708]
 [0.25666667 0.89990448]]",0,0.924
8817605319,m,22,french,4,5,french,2024-02-07 15:14:50.712299,False,2,465,sounds\french\audio/french_520.wav,"[[  0.         -93.2931023 ]
 [  0.1         13.33088057]
 [  0.2        -27.94628904]
 [  0.25666667  -1.59677094]]","[[0.         0.41573501]
 [0.1        0.24185226]
 [0.2        0.74385359]
 [0.25666667 0.80521135]]",0,1.192
8817605319,m,22,french,4,5,french,2024-02-07 15:14:50.712299,False,2,466,sounds\french\audio/french_845.wav,"[[  0.          -4.24220541]
 [  0.1        -33.05758094]
 [  0.2        -22.8575131 ]
 [  0.25666667 -28.52835037]]","[[0.         1.81527349]
 [0.1        0.43145559]
 [0.2        1.45726833]
 [0.25666667 1.38023089]]",0,0.531
8817605319,m,22,french,4,5,french,2024-02-07 15:14:50.712299,False,2,467,sounds\french\audio/french_650.wav,"[[  0.         -98.04674504]
 [  0.1        -80.1546697 ]
 [  0.2        -60.9727692 ]
 [  0.25666667  39.39299736]]","[[0.         0.50091073]
 [0.1        0.94744897]
 [0.2        0.76656919]
 [0.25666667 1.29747512]]",0,0.9
8817605319,m,22,french,4,5,french,2024-02-07 15:14:50.712299,False,2,468,sounds\french\audio/french_897.wav,"[[  0.          -2.62488743]
 [  0.1        -35.09835725]
 [  0.2         -7.90226738]
 [  0.25666667  34.22753828]]","[[0.         0.95618392]
 [0.1        0.97615626]
 [0.2        0.33556547]
 [0.25666667 0.12618193]]",0,0.41
8817605319,m,22,french,4,5,french,2024-02-07 15:14:50.712299,False,2,469,sounds\french\audio/french_354.wav,"[[  0.         -52.94558073]
 [  0.1         92.39955521]
 [  0.2        -42.31606849]
 [  0.25666667  97.06976377]]","[[0.         1.79880208]
 [0.1        1.0939287 ]
 [0.2        0.57130202]
 [0.25666667 1.82278353]]",0,0.377
8817605319,m,22,french,4,5,french,2024-02-07 15:14:50.712299,False,2,470,sounds\french\audio/french_666.wav,"[[  0.          51.58977068]
 [  0.1         81.806625  ]
 [  0.2         10.32462757]
 [  0.25666667 -51.25764779]]","[[0.         0.51416215]
 [0.1        0.1213722 ]
 [0.2        1.14435945]
 [0.25666667 1.68381456]]",0,0.977
8817605319,m,22,french,4,5,french,2024-02-07 15:14:50.712299,False,2,471,sounds\french\audio/french_679.wav,"[[  0.         -12.30272173]
 [  0.1        -25.8054218 ]
 [  0.2        -49.36641871]
 [  0.25666667   3.29240265]]","[[0.         0.22564891]
 [0.1        0.32954228]
 [0.2        0.69268874]
 [0.25666667 1.86334945]]",0,1.177
8817605319,m,22,french,4,5,french,2024-02-07 15:14:50.712299,False,2,472,sounds\french\audio/french_338.wav,"[[  0.         -59.42111132]
 [  0.1        -69.70478814]
 [  0.2        -12.60920347]
 [  0.25666667 -82.44797384]]","[[0.         1.60060286]
 [0.1        0.22517269]
 [0.2        1.52190999]
 [0.25666667 0.82265445]]",0,1.408
8817605319,m,22,french,4,5,french,2024-02-07 15:14:50.712299,False,2,473,sounds\french\audio/french_216.wav,"[[  0.          94.47877999]
 [  0.1        -35.64680956]
 [  0.2         -6.49582042]
 [  0.25666667  88.58272088]]","[[0.         1.14166801]
 [0.1        0.96477388]
 [0.2        1.30348701]
 [0.25666667 1.4092971 ]]",0,0.575
8817605319,m,22,french,4,5,french,2024-02-07 15:14:50.712299,False,2,474,sounds\french\audio/french_522.wav,"[[  0.         -33.95775035]
 [  0.1         -8.89346692]
 [  0.2        -13.71087049]
 [  0.25666667  29.03245504]]","[[0.         0.92167055]
 [0.1        1.03421615]
 [0.2        0.39118917]
 [0.25666667 1.12010972]]",0,1.3
8817605319,m,22,french,4,5,french,2024-02-07 15:14:50.712299,False,2,475,sounds\french\audio/french_412.wav,"[[  0.         -59.33534007]
 [  0.1        -79.1774496 ]
 [  0.2        -38.59435565]
 [  0.25666667  65.74010912]]","[[0.         1.02487397]
 [0.1        0.54283138]
 [0.2        0.86213444]
 [0.25666667 0.54314794]]",0,0.852
8817605319,m,22,french,4,5,french,2024-02-07 15:14:50.712299,False,2,476,sounds\french\audio/french_202.wav,"[[  0.          13.54970771]
 [  0.1         96.46591802]
 [  0.2         96.13650215]
 [  0.25666667 -35.2772524 ]]","[[0.         0.17477243]
 [0.1        0.30528336]
 [0.2        0.41819952]
 [0.25666667 1.86493567]]",0,0.922
8817605319,m,22,french,4,5,french,2024-02-07 15:14:50.712299,False,2,477,sounds\french\audio/french_940.wav,"[[  0.          60.64207397]
 [  0.1        -16.07257124]
 [  0.2        -38.93693506]
 [  0.25666667 -22.19838027]]","[[0.         1.38818271]
 [0.1        1.64047706]
 [0.2        1.31963125]
 [0.25666667 1.73227719]]",0,1.251
8817605319,m,22,french,4,5,french,2024-02-07 15:14:50.712299,False,2,478,sounds\french\audio/french_584.wav,"[[  0.          69.79321503]
 [  0.1        -52.7276802 ]
 [  0.2        -55.3142281 ]
 [  0.25666667 -51.83811077]]","[[0.         1.17746001]
 [0.1        1.52318031]
 [0.2        1.91796719]
 [0.25666667 0.8668783 ]]",0,0.751
8817605319,m,22,french,4,5,french,2024-02-07 15:14:50.712299,False,2,479,sounds\french\audio/french_707.wav,"[[  0.          77.25708539]
 [  0.1        -54.8008957 ]
 [  0.2        -15.62691875]
 [  0.25666667   8.64437522]]","[[0.         0.72667473]
 [0.1        1.98017833]
 [0.2        0.70006776]
 [0.25666667 1.11828401]]",0,0.43
8817605319,m,22,french,4,5,french,2024-02-07 15:14:50.712299,False,2,480,sounds\french\audio/french_478.wav,"[[  0.          83.43470999]
 [  0.1         -2.90020724]
 [  0.2          3.04122674]
 [  0.25666667 -16.94968741]]","[[0.         1.59134243]
 [0.1        1.87737404]
 [0.2        1.09323353]
 [0.25666667 0.48225636]]",0,0.656
8817605319,m,22,french,4,5,french,2024-02-07 15:14:50.712299,False,2,481,sounds\french\audio/french_130.wav,"[[  0.         -60.11706856]
 [  0.1        -55.59065296]
 [  0.2         42.64329023]
 [  0.25666667 -50.60909081]]","[[0.         0.96947481]
 [0.1        0.3967065 ]
 [0.2        1.87184893]
 [0.25666667 1.6881176 ]]",0,0.487
8817605319,m,22,french,4,5,french,2024-02-07 15:14:50.712299,False,2,482,sounds\french\audio/french_762.wav,"[[  0.         -45.61990315]
 [  0.1        -38.16727298]
 [  0.2        -15.44626984]
 [  0.25666667 -31.31206952]]","[[0.         0.95776955]
 [0.1        0.16992331]
 [0.2        1.21301125]
 [0.25666667 0.49399223]]",0,0.387
8817605319,m,22,french,4,5,french,2024-02-07 15:14:50.712299,False,2,483,sounds\french\audio/french_636.wav,"[[ 0.         79.1724471 ]
 [ 0.1        25.25700376]
 [ 0.2        72.37529148]
 [ 0.25666667 12.21946345]]","[[0.         0.8082817 ]
 [0.1        1.50975093]
 [0.2        0.99206968]
 [0.25666667 0.17038819]]",0,0.758
8817605319,m,22,french,4,5,french,2024-02-07 15:14:50.712299,False,2,484,sounds\french\audio/french_906.wav,"[[  0.         -13.49448879]
 [  0.1         31.46373863]
 [  0.2        -49.02376816]
 [  0.25666667  26.58933429]]","[[0.         0.31236465]
 [0.1        1.12113229]
 [0.2        0.0749788 ]
 [0.25666667 0.8331551 ]]",0,0.847
8817605319,m,22,french,4,5,french,2024-02-07 15:14:50.712299,False,2,485,sounds\french\audio/french_298.wav,"[[  0.          77.93003267]
 [  0.1        -23.8442355 ]
 [  0.2        -77.62110697]
 [  0.25666667 -25.23897767]]","[[0.         0.74693873]
 [0.1        1.94963825]
 [0.2        1.02670819]
 [0.25666667 0.18670197]]",0,0.499
8817605319,m,22,french,4,5,french,2024-02-07 15:14:50.712299,False,2,486,sounds\french\audio/french_928.wav,"[[  0.          23.35867854]
 [  0.1        -18.47737087]
 [  0.2         41.22883985]
 [  0.25666667  67.72155047]]","[[0.         0.39112769]
 [0.1        1.71601552]
 [0.2        0.4467351 ]
 [0.25666667 0.12145746]]",0,0.627
8817605319,m,22,french,4,5,french,2024-02-07 15:14:50.712299,False,2,487,sounds\french\audio/french_566.wav,"[[ 0.         64.79843522]
 [ 0.1        34.55507538]
 [ 0.2        88.9191899 ]
 [ 0.25666667 20.7211509 ]]","[[0.         1.40647024]
 [0.1        1.25726542]
 [0.2        0.22445964]
 [0.25666667 0.73474601]]",0,0.373
8817605319,m,22,french,4,5,french,2024-02-07 15:14:50.712299,False,2,488,sounds\french\audio/french_94.wav,"[[  0.         -38.18468722]
 [  0.1         61.36042124]
 [  0.2        -21.02312881]
 [  0.25666667 -24.03892562]]","[[0.         1.72805858]
 [0.1        0.90054349]
 [0.2        0.35857958]
 [0.25666667 0.71397413]]",0,0.445
8817605319,m,22,french,4,5,french,2024-02-07 15:14:50.712299,False,2,489,sounds\french\audio/french_758.wav,"[[  0.          45.30317447]
 [  0.1         37.35504147]
 [  0.2         -7.74982346]
 [  0.25666667 -75.22654498]]","[[0.         1.53591398]
 [0.1        1.00413053]
 [0.2        1.59140772]
 [0.25666667 0.76456646]]",0,0.228
8817605319,m,22,french,4,5,french,2024-02-07 15:14:50.712299,False,2,490,sounds\french\audio/french_173.wav,"[[  0.         -85.34625679]
 [  0.1         19.71799215]
 [  0.2        -84.96079432]
 [  0.25666667 -20.27996547]]","[[0.         1.0505287 ]
 [0.1        1.50206547]
 [0.2        1.53807785]
 [0.25666667 1.54027091]]",0,0.509
8817605319,m,22,french,4,5,french,2024-02-07 15:14:50.712299,False,2,491,sounds\french\audio/french_826.wav,"[[  0.         -33.86739367]
 [  0.1        -31.27966971]
 [  0.2         51.84533444]
 [  0.25666667 -81.13386792]]","[[0.         0.07066528]
 [0.1        0.90490109]
 [0.2        0.66906535]
 [0.25666667 0.4882988 ]]",1,3.084
8817605319,m,22,french,4,5,french,2024-02-07 15:14:50.712299,False,2,492,sounds\french\audio/french_711.wav,"[[  0.          35.46622773]
 [  0.1         62.41897997]
 [  0.2        -12.16405894]
 [  0.25666667  23.8007589 ]]","[[0.         1.8142291 ]
 [0.1        1.39339975]
 [0.2        1.57822467]
 [0.25666667 1.63044315]]",0,0.478
8817605319,m,22,french,4,5,french,2024-02-07 15:14:50.712299,False,2,493,sounds\french\audio/french_80.wav,"[[  0.          -4.85614904]
 [  0.1        -36.95221558]
 [  0.2        -16.65007611]
 [  0.25666667  57.44018977]]","[[0.         0.67500586]
 [0.1        0.10692408]
 [0.2        1.27299782]
 [0.25666667 0.9780754 ]]",0,2.714
8817605319,m,22,french,4,5,french,2024-02-07 15:14:50.712299,False,2,494,sounds\french\audio/french_543.wav,"[[  0.          99.95964938]
 [  0.1         62.1224346 ]
 [  0.2        -10.06540024]
 [  0.25666667  -5.35888672]]","[[0.         0.10365101]
 [0.1        1.02026934]
 [0.2        0.56488883]
 [0.25666667 0.3884986 ]]",0,2.595
8817605319,m,22,french,4,5,french,2024-02-07 15:14:50.712299,False,2,495,sounds\french\audio/french_184.wav,"[[  0.          48.36861498]
 [  0.1         -2.94347193]
 [  0.2        -52.00472355]
 [  0.25666667 -36.80137507]]","[[0.         1.86119552]
 [0.1        0.96576449]
 [0.2        1.69315982]
 [0.25666667 0.52689434]]",0,0.293
8817605319,m,22,french,4,5,french,2024-02-07 15:14:50.712299,False,2,496,sounds\french\audio/french_714.wav,"[[  0.          77.35355583]
 [  0.1        -16.5812175 ]
 [  0.2        -79.42314022]
 [  0.25666667  64.71981705]]","[[0.         0.35690042]
 [0.1        0.7400083 ]
 [0.2        1.17849399]
 [0.25666667 1.38365213]]",0,0.53
8817605319,m,22,french,4,5,french,2024-02-07 15:14:50.712299,False,2,497,sounds\french\audio/french_873.wav,"[[  0.         -12.1574241 ]
 [  0.1        -18.24590524]
 [  0.2        -68.65561389]
 [  0.25666667 -45.4488766 ]]","[[0.         0.39218062]
 [0.1        1.88422008]
 [0.2        1.05802306]
 [0.25666667 0.58030918]]",0,0.482
8817605319,m,22,french,4,5,french,2024-02-07 15:14:50.712299,False,2,498,sounds\french\audio/french_247.wav,"[[  0.          31.18827639]
 [  0.1         28.69447174]
 [  0.2        -68.83088208]
 [  0.25666667  44.69710936]]","[[0.         0.50646138]
 [0.1        0.63180121]
 [0.2        1.73165753]
 [0.25666667 1.77415142]]",0,0.336
8817605319,m,22,french,4,5,french,2024-02-07 15:14:50.712299,False,2,499,sounds\french\audio/french_967.wav,"[[  0.          79.70451557]
 [  0.1        -96.60134716]
 [  0.2         12.1279289 ]
 [  0.25666667 -44.3997303 ]]","[[0.         1.26694721]
 [0.1        0.15349476]
 [0.2        0.99393875]
 [0.25666667 1.32782977]]",0,1.145
8817605319,m,22,french,4,5,french,2024-02-07 15:14:50.712299,False,2,500,sounds\french\audio/french_827.wav,"[[ 0.         52.76736232]
 [ 0.1        43.3684124 ]
 [ 0.2         5.13351566]
 [ 0.25666667 57.45570888]]","[[0.         0.65431252]
 [0.1        1.37281261]
 [0.2        0.35708699]
 [0.25666667 0.33493738]]",0,2.301
8817605319,m,22,french,4,5,french,2024-02-07 15:14:50.712299,False,2,501,sounds\french\audio/french_559.wav,"[[  0.          64.66028359]
 [  0.1        -43.2680873 ]
 [  0.2        -64.36892284]
 [  0.25666667  44.10109235]]","[[0.         0.94999591]
 [0.1        1.38482691]
 [0.2        1.27938883]
 [0.25666667 0.16591499]]",0,0.511
8817605319,m,22,french,4,5,french,2024-02-07 15:14:50.712299,False,2,502,sounds\french\audio/french_600.wav,"[[  0.          29.66563504]
 [  0.1         -8.64659381]
 [  0.2        -34.77347642]
 [  0.25666667 -62.75040759]]","[[0.         0.34173365]
 [0.1        0.28144694]
 [0.2        1.5541161 ]
 [0.25666667 1.60255421]]",0,0.693
8817605319,m,22,french,4,5,french,2024-02-07 15:14:50.712299,False,2,503,sounds\french\audio/french_911.wav,"[[  0.          11.85203828]
 [  0.1        -24.36206963]
 [  0.2        -79.91713821]
 [  0.25666667 -65.93332008]]","[[0.         0.91676267]
 [0.1        0.3897793 ]
 [0.2        0.96594055]
 [0.25666667 1.97851167]]",0,0.323
8817605319,m,22,french,4,5,french,2024-02-07 15:14:50.712299,False,2,504,sounds\french\audio/french_196.wav,"[[  0.         -51.30508497]
 [  0.1         89.17651026]
 [  0.2         77.92993737]
 [  0.25666667 -86.11962375]]","[[0.         1.16005851]
 [0.1        0.87725998]
 [0.2        1.23506332]
 [0.25666667 1.33141167]]",0,0.643
8817605319,m,22,french,4,5,french,2024-02-07 15:14:50.712299,False,2,505,sounds\french\audio/french_343.wav,"[[  0.         -21.71261116]
 [  0.1         63.21036052]
 [  0.2        -29.86802649]
 [  0.25666667  57.96835755]]","[[0.         1.74552957]
 [0.1        1.86769095]
 [0.2        0.55355845]
 [0.25666667 1.24725328]]",0,1.389
8817605319,m,22,french,4,5,french,2024-02-07 15:14:50.712299,False,2,506,sounds\french\audio/french_155.wav,"[[  0.         -70.22582879]
 [  0.1         -4.40112263]
 [  0.2         31.24717972]
 [  0.25666667 -33.70292804]]","[[0.         1.51870869]
 [0.1        0.92589592]
 [0.2        1.81286995]
 [0.25666667 0.86118474]]",0,0.359
8817605319,m,22,french,4,5,french,2024-02-07 15:14:50.712299,False,2,507,sounds\french\audio/french_500.wav,"[[  0.         -64.77507575]
 [  0.1         -6.64685947]
 [  0.2        -63.06704172]
 [  0.25666667  -2.53403127]]","[[0.         1.1238598 ]
 [0.1        1.28070421]
 [0.2        0.36817987]
 [0.25666667 0.89472864]]",0,0.401
8817605319,m,22,french,4,5,french,2024-02-07 15:14:50.712299,False,2,508,sounds\french\audio/french_188.wav,"[[  0.          49.6210254 ]
 [  0.1        -51.2490581 ]
 [  0.2         40.00177065]
 [  0.25666667  -3.28540475]]","[[0.         1.07409835]
 [0.1        0.05018037]
 [0.2        1.57813661]
 [0.25666667 0.4516863 ]]",0,2.281
8817605319,m,22,french,4,5,french,2024-02-07 15:14:50.712299,False,2,509,sounds\french\audio/french_489.wav,"[[  0.           0.49645075]
 [  0.1        -49.42249353]
 [  0.2          3.0196593 ]
 [  0.25666667  11.9492669 ]]","[[0.         0.76062229]
 [0.1        1.72041063]
 [0.2        0.72496435]
 [0.25666667 0.84736567]]",0,0.255
8817605319,m,22,french,4,5,french,2024-02-07 15:14:50.712299,False,2,510,sounds\french\audio/french_935.wav,"[[  0.         -44.99349069]
 [  0.1        -36.99771552]
 [  0.2         73.94933819]
 [  0.25666667  99.03349287]]","[[0.         1.17032266]
 [0.1        1.41237049]
 [0.2        0.72245199]
 [0.25666667 1.64210213]]",0,0.577
8817605319,m,22,french,4,5,french,2024-02-07 15:14:50.712299,False,2,511,sounds\french\audio/french_298.wav,"[[  0.          77.93003267]
 [  0.1        -23.8442355 ]
 [  0.2        -77.62110697]
 [  0.25666667 -25.23897767]]","[[0.         0.74693873]
 [0.1        1.94963825]
 [0.2        1.02670819]
 [0.25666667 0.18670197]]",0,0.595
8817605319,m,22,french,4,5,french,2024-02-07 15:14:50.712299,False,2,512,sounds\french\audio/french_873.wav,"[[  0.         -12.1574241 ]
 [  0.1        -18.24590524]
 [  0.2        -68.65561389]
 [  0.25666667 -45.4488766 ]]","[[0.         0.39218062]
 [0.1        1.88422008]
 [0.2        1.05802306]
 [0.25666667 0.58030918]]",0,0.244
8817605319,m,22,french,4,5,french,2024-02-07 15:14:50.712299,False,2,513,sounds\french\audio/french_137.wav,"[[  0.          20.21202866]
 [  0.1        -42.96009099]
 [  0.2         15.21981059]
 [  0.25666667 -16.40384708]]","[[0.         1.22191513]
 [0.1        0.44902196]
 [0.2        0.94630282]
 [0.25666667 1.1991754 ]]",0,0.52
8817605319,m,22,french,4,5,french,2024-02-07 15:14:50.712299,False,2,514,sounds\french\audio/french_897.wav,"[[  0.          -2.62488743]
 [  0.1        -35.09835725]
 [  0.2         -7.90226738]
 [  0.25666667  34.22753828]]","[[0.         0.95618392]
 [0.1        0.97615626]
 [0.2        0.33556547]
 [0.25666667 0.12618193]]",0,0.931
8817605319,m,22,french,4,5,french,2024-02-07 15:14:50.712299,False,2,515,sounds\french\audio/french_76.wav,"[[ 0.         34.97070553]
 [ 0.1        46.59279974]
 [ 0.2        69.89439798]
 [ 0.25666667  4.40224836]]","[[0.         0.55167233]
 [0.1        0.47394225]
 [0.2        0.76682402]
 [0.25666667 1.69716011]]",0,0.742
8817605319,m,22,french,4,5,french,2024-02-07 15:14:50.712299,False,2,516,sounds\french\audio/french_674.wav,"[[  0.          36.8658398 ]
 [  0.1        -70.55199619]
 [  0.2         -3.70121723]
 [  0.25666667  30.12615154]]","[[0.         0.63817569]
 [0.1        1.9135219 ]
 [0.2        1.96782527]
 [0.25666667 0.86862342]]",0,0.337
8817605319,m,22,french,4,5,french,2024-02-07 15:14:50.712299,False,2,517,sounds\french\audio/french_917.wav,"[[  0.          50.57286357]
 [  0.1        -63.34867724]
 [  0.2          6.48628749]
 [  0.25666667  42.71671415]]","[[0.         1.65201844]
 [0.1        1.47811083]
 [0.2        1.28993383]
 [0.25666667 0.78276191]]",0,0.383
8817605319,m,22,french,4,5,french,2024-02-07 15:14:50.712299,False,2,518,sounds\french\audio/french_527.wav,"[[  0.          97.81644093]
 [  0.1         68.05004199]
 [  0.2        -44.05597581]
 [  0.25666667  40.91945638]]","[[0.         0.09503525]
 [0.1        0.33267387]
 [0.2        1.51053464]
 [0.25666667 1.37458991]]",0,1.917
8817605319,m,22,french,4,5,french,2024-02-07 15:14:50.712299,False,2,519,sounds\french\audio/french_806.wav,"[[  0.          97.26957313]
 [  0.1         79.44562669]
 [  0.2         79.77586719]
 [  0.25666667 -46.2684083 ]]","[[0.         1.48673004]
 [0.1        1.9967546 ]
 [0.2        0.9238106 ]
 [0.25666667 1.39755131]]",0,0.2
8817605319,m,22,french,4,5,french,2024-02-07 15:14:50.712299,False,2,520,sounds\french\audio/french_67.wav,"[[  0.         -85.58948589]
 [  0.1         13.09838054]
 [  0.2        -56.56906679]
 [  0.25666667  57.4599261 ]]","[[0.         0.63200809]
 [0.1        1.95867716]
 [0.2        0.48937635]
 [0.25666667 1.24156625]]",0,0.591
8817605319,m,22,french,4,5,french,2024-02-07 15:14:50.712299,False,2,521,sounds\french\audio/french_639.wav,"[[  0.          11.64385005]
 [  0.1        -83.53772589]
 [  0.2        -26.70113898]
 [  0.25666667 -28.21717215]]","[[0.         1.86180111]
 [0.1        1.31531339]
 [0.2        0.16484712]
 [0.25666667 0.08923993]]",0,1.862
8817605319,m,22,french,4,5,french,2024-02-07 15:14:50.712299,False,2,522,sounds\french\audio/french_552.wav,"[[  0.         -52.32363839]
 [  0.1         23.44364533]
 [  0.2         72.20212972]
 [  0.25666667 -25.42911122]]","[[0.         0.44295398]
 [0.1        1.4520287 ]
 [0.2        0.63620541]
 [0.25666667 1.39952151]]",0,0.333
8817605319,m,22,french,4,5,french,2024-02-07 15:14:50.712299,False,2,523,sounds\french\audio/french_354.wav,"[[  0.         -52.94558073]
 [  0.1         92.39955521]
 [  0.2        -42.31606849]
 [  0.25666667  97.06976377]]","[[0.         1.79880208]
 [0.1        1.0939287 ]
 [0.2        0.57130202]
 [0.25666667 1.82278353]]",0,0.8
8817605319,m,22,french,4,5,french,2024-02-07 15:14:50.712299,False,2,524,sounds\french\audio/french_571.wav,"[[ 0.         31.56469904]
 [ 0.1        44.5277229 ]
 [ 0.2        41.67262287]
 [ 0.25666667  9.54247743]]","[[0.         0.97268691]
 [0.1        1.62706688]
 [0.2        1.42821868]
 [0.25666667 0.83693393]]",0,0.392
8817605319,m,22,french,4,5,french,2024-02-07 15:14:50.712299,False,2,525,sounds\french\audio/french_915.wav,"[[  0.         -64.10930236]
 [  0.1         -7.16601985]
 [  0.2        -76.9677693 ]
 [  0.25666667  64.27469246]]","[[0.         0.7615396 ]
 [0.1        1.77142655]
 [0.2        1.45350334]
 [0.25666667 1.62999495]]",0,1.355
8817605319,m,22,french,4,5,french,2024-02-07 15:14:50.712299,False,2,526,sounds\french\audio/french_278.wav,"[[  0.           0.92058819]
 [  0.1        -11.12293645]
 [  0.2         51.74113392]
 [  0.25666667  59.96495371]]","[[0.         0.58166089]
 [0.1        0.6190237 ]
 [0.2        1.02661965]
 [0.25666667 0.89915078]]",0,0.723
8817605319,m,22,french,4,5,french,2024-02-07 15:14:50.712299,False,2,527,sounds\french\audio/french_523.wav,"[[  0.         -20.54401218]
 [  0.1        -64.61887171]
 [  0.2        -56.67652055]
 [  0.25666667 -29.90055738]]","[[0.         1.01178449]
 [0.1        1.79283511]
 [0.2        0.92711934]
 [0.25666667 1.0186138 ]]",0,0.839
8817605319,m,22,french,4,5,french,2024-02-07 15:14:50.712299,False,2,528,sounds\french\audio/french_897.wav,"[[  0.          -2.62488743]
 [  0.1        -35.09835725]
 [  0.2         -7.90226738]
 [  0.25666667  34.22753828]]","[[0.         0.95618392]
 [0.1        0.97615626]
 [0.2        0.33556547]
 [0.25666667 0.12618193]]",0,1.808
8817605319,m,22,french,4,5,french,2024-02-07 15:14:50.712299,False,2,529,sounds\french\audio/french_105.wav,"[[  0.         -23.09315354]
 [  0.1        -46.9361669 ]
 [  0.2         -8.58781729]
 [  0.25666667  56.68271074]]","[[0.         0.81757602]
 [0.1        0.98193048]
 [0.2        1.53786831]
 [0.25666667 0.84600103]]",0,0.793
8817605319,m,22,french,4,5,french,2024-02-07 15:14:50.712299,False,2,530,sounds\french\audio/french_930.wav,"[[  0.         -85.15004264]
 [  0.1        -51.05179236]
 [  0.2         60.60693854]
 [  0.25666667  60.89136328]]","[[0.         1.38463402]
 [0.1        1.37480081]
 [0.2        0.42262721]
 [0.25666667 1.58192794]]",0,0.552
8817605319,m,22,french,4,5,french,2024-02-07 15:14:50.712299,False,2,531,sounds\french\audio/french_22.wav,"[[ 0.         71.14052921]
 [ 0.1        32.6622244 ]
 [ 0.2        96.1292121 ]
 [ 0.25666667 65.79523532]]","[[0.         0.14678418]
 [0.1        0.81024714]
 [0.2        1.14392668]
 [0.25666667 1.62437335]]",0,1.498
8817605319,m,22,french,4,5,french,2024-02-07 15:14:50.712299,False,2,532,sounds\french\audio/french_337.wav,"[[  0.         -97.64468947]
 [  0.1        -70.83087303]
 [  0.2        -48.67995381]
 [  0.25666667 -82.84031791]]","[[0.         0.15620351]
 [0.1        1.65716961]
 [0.2        0.82507575]
 [0.25666667 0.89595203]]",0,0.516
8817605319,m,22,french,4,5,french,2024-02-07 15:14:50.712299,False,2,533,sounds\french\audio/french_57.wav,"[[  0.           5.04798132]
 [  0.1         34.86476391]
 [  0.2          8.76450083]
 [  0.25666667 -66.01533982]]","[[0.         0.30893924]
 [0.1        1.37192861]
 [0.2        1.2366194 ]
 [0.25666667 1.17459784]]",0,0.43
8817605319,m,22,french,4,5,french,2024-02-07 15:14:50.712299,False,2,534,sounds\french\audio/french_445.wav,"[[  0.           8.73559539]
 [  0.1        -22.15313252]
 [  0.2         26.0955013 ]
 [  0.25666667  22.70157082]]","[[0.         0.8054478 ]
 [0.1        1.73211315]
 [0.2        0.21896619]
 [0.25666667 0.54256666]]",0,0.365
8817605319,m,22,french,4,5,french,2024-02-07 15:14:50.712299,False,2,535,sounds\french\audio/french_532.wav,"[[  0.          51.6664435 ]
 [  0.1         12.38327687]
 [  0.2        -89.35582175]
 [  0.25666667  25.37493155]]","[[0.         1.30171402]
 [0.1        0.03929558]
 [0.2        1.38931331]
 [0.25666667 0.74157834]]",0,0.416
8817605319,m,22,french,4,5,french,2024-02-07 15:14:50.712299,False,2,536,sounds\french\audio/french_936.wav,"[[  0.         -20.69739044]
 [  0.1         11.25896305]
 [  0.2        -73.43688333]
 [  0.25666667  14.6038409 ]]","[[0.         1.81100612]
 [0.1        0.34150345]
 [0.2        0.78598688]
 [0.25666667 0.34536881]]",0,0.546
8817605319,m,22,french,4,5,french,2024-02-07 15:14:50.712299,False,2,537,sounds\french\audio/french_329.wav,"[[  0.          14.6954169 ]
 [  0.1        -60.61079034]
 [  0.2        -27.52715396]
 [  0.25666667 -71.65343532]]","[[0.         0.80369944]
 [0.1        1.40829285]
 [0.2        0.22971006]
 [0.25666667 0.37653007]]",0,0.269
8817605319,m,22,french,4,5,french,2024-02-07 15:14:50.712299,False,2,538,sounds\french\audio/french_95.wav,"[[ 0.         35.71270194]
 [ 0.1        34.21637588]
 [ 0.2        69.23850983]
 [ 0.25666667 -5.02213551]]","[[0.         1.05464779]
 [0.1        0.916907  ]
 [0.2        0.63861668]
 [0.25666667 0.96363956]]",0,0.301
8817605319,m,22,french,4,5,french,2024-02-07 15:14:50.712299,False,2,539,sounds\french\audio/french_503.wav,"[[  0.         -70.57406247]
 [  0.1        -50.28029143]
 [  0.2         -1.92788211]
 [  0.25666667  82.92590596]]","[[0.         0.43346158]
 [0.1        1.6767429 ]
 [0.2        0.59100625]
 [0.25666667 1.4727109 ]]",0,0.503
8817605319,m,22,french,4,5,french,2024-02-07 15:14:50.712299,False,2,540,sounds\french\audio/french_34.wav,"[[  0.         -97.24360174]
 [  0.1         62.38297295]
 [  0.2        -49.09622703]
 [  0.25666667 -40.35720841]]","[[0.         1.95744133]
 [0.1        1.24423752]
 [0.2        1.91649641]
 [0.25666667 1.03651442]]",0,0.83
8817605319,m,22,french,4,5,french,2024-02-07 15:14:50.712299,False,2,541,sounds\french\audio/french_175.wav,"[[  0.         -66.64800697]
 [  0.1         55.8136762 ]
 [  0.2         13.86880033]
 [  0.25666667  79.77573594]]","[[0.         0.89831181]
 [0.1        1.16054297]
 [0.2        0.04267506]
 [0.25666667 1.48091244]]",0,0.378
8817605319,m,22,french,4,5,french,2024-02-07 15:14:50.712299,False,2,542,sounds\french\audio/french_163.wav,"[[  0.          95.00435891]
 [  0.1         41.67922454]
 [  0.2        -79.43338234]
 [  0.25666667 -47.45672342]]","[[0.         1.26837246]
 [0.1        0.25754486]
 [0.2        1.96804031]
 [0.25666667 0.46721947]]",0,0.384
8817605319,m,22,french,4,5,french,2024-02-07 15:14:50.712299,False,2,543,sounds\french\audio/french_981.wav,"[[  0.          -1.54223553]
 [  0.1        -78.86121057]
 [  0.2        -33.48141771]
 [  0.25666667 -47.78773965]]","[[0.         0.66538198]
 [0.1        1.42802268]
 [0.2        0.92303184]
 [0.25666667 0.82545089]]",0,0.361
8817605319,m,22,french,4,5,french,2024-02-07 15:14:50.712299,False,2,544,sounds\french\audio/french_394.wav,"[[  0.         -46.0867736 ]
 [  0.1        -42.56429646]
 [  0.2         31.61260766]
 [  0.25666667  -7.99475259]]","[[0.         1.77850735]
 [0.1        0.50210825]
 [0.2        1.1233825 ]
 [0.25666667 0.72186821]]",0,0.787
8817605319,m,22,french,4,5,french,2024-02-07 15:14:50.712299,False,2,545,sounds\french\audio/french_996.wav,"[[  0.         -93.3315932 ]
 [  0.1        -68.78176083]
 [  0.2          3.00266898]
 [  0.25666667  26.12825604]]","[[0.         0.70155752]
 [0.1        0.82176857]
 [0.2        1.58504857]
 [0.25666667 1.65873812]]",0,0.944
8817605319,m,22,french,4,5,french,2024-02-07 15:14:50.712299,False,2,546,sounds\french\audio/french_103.wav,"[[  0.         -37.64273041]
 [  0.1         41.40974178]
 [  0.2        -53.90098235]
 [  0.25666667 -57.22614073]]","[[0.         0.8608001 ]
 [0.1        0.05604445]
 [0.2        0.48473984]
 [0.25666667 0.01055005]]",0,0.532
8817605319,m,22,french,4,5,french,2024-02-07 15:14:50.712299,False,2,547,sounds\french\audio/french_725.wav,"[[  0.          61.28532458]
 [  0.1         25.43953492]
 [  0.2         31.92964858]
 [  0.25666667 -96.80759498]]","[[0.         0.86285292]
 [0.1        0.5175718 ]
 [0.2        1.72668514]
 [0.25666667 1.79225728]]",0,0.343
8817605319,m,22,french,4,5,french,2024-02-07 15:14:50.712299,False,2,548,sounds\french\audio/french_991.wav,"[[  0.         -95.18678644]
 [  0.1        -65.70936013]
 [  0.2         44.22545462]
 [  0.25666667  31.01090832]]","[[0.         1.24715664]
 [0.1        0.64410058]
 [0.2        0.83152977]
 [0.25666667 1.93309413]]",0,0.32
8817605319,m,22,french,4,5,french,2024-02-07 15:14:50.712299,False,2,549,sounds\french\audio/french_709.wav,"[[  0.         -79.1228884 ]
 [  0.1        -27.45222572]
 [  0.2        -11.54770291]
 [  0.25666667 -99.06734201]]","[[0.         1.66046785]
 [0.1        0.50815509]
 [0.2        1.01994244]
 [0.25666667 1.8368488 ]]",0,0.8
8817605319,m,22,french,4,5,french,2024-02-07 15:14:50.712299,False,2,550,sounds\french\audio/french_52.wav,"[[  0.          77.15950351]
 [  0.1         66.43146777]
 [  0.2         76.85444305]
 [  0.25666667 -69.48513432]]","[[0.         1.06345864]
 [0.1        1.73071791]
 [0.2        1.08790246]
 [0.25666667 0.32336701]]",0,0.301
8817605319,m,22,french,4,5,french,2024-02-07 15:14:50.712299,False,2,551,sounds\french\audio/french_627.wav,"[[  0.           2.1799823 ]
 [  0.1         30.63833179]
 [  0.2         99.93583097]
 [  0.25666667 -23.95585557]]","[[0.         1.97167661]
 [0.1        1.14790719]
 [0.2        1.70510721]
 [0.25666667 1.67415678]]",0,0.311
8817605319,m,22,french,4,5,french,2024-02-07 15:14:50.712299,False,2,552,sounds\french\audio/french_641.wav,"[[  0.         -92.89939655]
 [  0.1         80.14352585]
 [  0.2         74.03041043]
 [  0.25666667  18.97683281]]","[[0.         0.72916007]
 [0.1        1.01323436]
 [0.2        0.998205  ]
 [0.25666667 0.30086371]]",0,0.508
8817605319,m,22,french,4,5,french,2024-02-07 15:14:50.712299,False,2,553,sounds\french\audio/french_807.wav,"[[  0.          41.22965042]
 [  0.1         55.45523643]
 [  0.2        -56.08981041]
 [  0.25666667  27.67304414]]","[[0.         0.26309645]
 [0.1        0.30227962]
 [0.2        0.58983644]
 [0.25666667 1.26996728]]",0,0.378
8817605319,m,22,french,4,5,french,2024-02-07 15:14:50.712299,False,2,554,sounds\french\audio/french_660.wav,"[[  0.         -75.02051955]
 [  0.1        -36.41679043]
 [  0.2        -45.60366398]
 [  0.25666667  13.07838485]]","[[0.         0.75293762]
 [0.1        0.97452375]
 [0.2        1.88941483]
 [0.25666667 0.53297117]]",0,0.23
8817605319,m,22,french,4,5,french,2024-02-07 15:14:50.712299,False,2,555,sounds\french\audio/french_192.wav,"[[  0.          73.17690414]
 [  0.1         14.65884197]
 [  0.2         -6.29840632]
 [  0.25666667 -32.28340249]]","[[0.         1.47156363]
 [0.1        0.92412776]
 [0.2        0.27182316]
 [0.25666667 1.34820636]]",0,0.209
8817605319,m,22,french,4,5,french,2024-02-07 15:14:50.712299,False,2,556,sounds\french\audio/french_542.wav,"[[  0.          88.21755363]
 [  0.1         59.97016865]
 [  0.2        -54.94167031]
 [  0.25666667 -74.88408835]]","[[0.         1.84211071]
 [0.1        1.57396898]
 [0.2        1.14268549]
 [0.25666667 1.52682198]]",0,0.352
8817605319,m,22,french,4,5,french,2024-02-07 15:14:50.712299,False,2,557,sounds\french\audio/french_811.wav,"[[  0.          35.12158591]
 [  0.1          4.09145181]
 [  0.2        -79.3353891 ]
 [  0.25666667 -59.5865152 ]]","[[0.         1.63803033]
 [0.1        0.91441893]
 [0.2        1.53056324]
 [0.25666667 1.20408751]]",0,0.383
8817605319,m,22,french,4,5,french,2024-02-07 15:14:50.712299,False,2,558,sounds\french\audio/french_315.wav,"[[ 0.00000000e+00  8.45751695e+01]
 [ 1.00000000e-01 -5.49339599e+01]
 [ 2.00000000e-01 -2.04659381e+01]
 [ 2.56666667e-01  4.97627412e-02]]","[[0.         1.39276289]
 [0.1        0.42909402]
 [0.2        1.80166787]
 [0.25666667 1.01422067]]",0,1.3
8817605319,m,22,french,4,5,french,2024-02-07 15:14:50.712299,False,2,559,sounds\french\audio/french_776.wav,"[[  0.          -9.17095967]
 [  0.1        -70.57850226]
 [  0.2         63.21349252]
 [  0.25666667  59.47578694]]","[[0.         0.42962635]
 [0.1        1.70698124]
 [0.2        1.25010697]
 [0.25666667 1.52671833]]",0,0.361
8817605319,m,22,french,4,5,french,2024-02-07 15:14:50.712299,False,2,560,sounds\french\audio/french_457.wav,"[[ 0.         42.86960152]
 [ 0.1        79.85160671]
 [ 0.2        98.12255829]
 [ 0.25666667 78.01153847]]","[[0.         1.10156515]
 [0.1        0.90608198]
 [0.2        0.87189229]
 [0.25666667 1.12024719]]",0,0.231
8817605319,m,22,french,4,5,french,2024-02-07 15:14:50.712299,False,2,561,sounds\french\audio/french_192.wav,"[[  0.          73.17690414]
 [  0.1         14.65884197]
 [  0.2         -6.29840632]
 [  0.25666667 -32.28340249]]","[[0.         1.47156363]
 [0.1        0.92412776]
 [0.2        0.27182316]
 [0.25666667 1.34820636]]",0,0.39
8817605319,m,22,french,4,5,french,2024-02-07 15:14:50.712299,False,2,562,sounds\french\audio/french_926.wav,"[[  0.         -38.30420493]
 [  0.1        -97.26803886]
 [  0.2         55.3544282 ]
 [  0.25666667   8.78644418]]","[[0.         1.0266732 ]
 [0.1        0.03873156]
 [0.2        0.32593073]
 [0.25666667 0.80695306]]",0,0.984
8817605319,m,22,french,4,5,french,2024-02-07 15:14:50.712299,False,2,563,sounds\french\audio/french_944.wav,"[[  0.          -8.30121602]
 [  0.1         15.19990023]
 [  0.2        -34.54061483]
 [  0.25666667 -24.04483863]]","[[0.         1.41077405]
 [0.1        0.52690475]
 [0.2        0.23733031]
 [0.25666667 1.49354387]]",0,1.212
8817605319,m,22,french,4,5,french,2024-02-07 15:14:50.712299,False,2,564,sounds\french\audio/french_212.wav,"[[  0.         -65.85125812]
 [  0.1          4.72891676]
 [  0.2         52.80654505]
 [  0.25666667  75.91927134]]","[[0.         0.99084671]
 [0.1        1.71951251]
 [0.2        1.56745001]
 [0.25666667 1.70119676]]",0,0.398
8817605319,m,22,french,4,5,french,2024-02-07 15:14:50.712299,False,2,565,sounds\french\audio/french_293.wav,"[[  0.         -11.30043192]
 [  0.1        -69.36716709]
 [  0.2         65.20751159]
 [  0.25666667  27.71872742]]","[[0.         0.58860684]
 [0.1        0.23928943]
 [0.2        1.00971501]
 [0.25666667 0.31746318]]",0,0.981
8817605319,m,22,french,4,5,french,2024-02-07 15:14:50.712299,False,2,566,sounds\french\audio/french_882.wav,"[[  0.         -76.64131244]
 [  0.1        -39.91871486]
 [  0.2        -10.31613543]
 [  0.25666667  20.39966841]]","[[0.         0.67668261]
 [0.1        0.28498495]
 [0.2        0.59130788]
 [0.25666667 1.12904738]]",0,1.289
8817605319,m,22,french,4,5,french,2024-02-07 15:14:50.712299,False,2,567,sounds\french\audio/french_596.wav,"[[  0.         -19.67623174]
 [  0.1          5.02630097]
 [  0.2         17.71933024]
 [  0.25666667 -99.90911374]]","[[0.         1.19630482]
 [0.1        1.45796377]
 [0.2        1.33112957]
 [0.25666667 0.42422988]]",0,0.446
8817605319,m,22,french,4,5,french,2024-02-07 15:14:50.712299,False,2,568,sounds\french\audio/french_894.wav,"[[  0.          34.15690998]
 [  0.1         66.60232679]
 [  0.2         79.95982278]
 [  0.25666667 -20.39269858]]","[[0.         0.96571794]
 [0.1        0.73360337]
 [0.2        1.43440198]
 [0.25666667 0.64269279]]",0,1.032
8817605319,m,22,french,4,5,french,2024-02-07 15:14:50.712299,False,2,569,sounds\french\audio/french_17.wav,"[[ 0.         61.86852427]
 [ 0.1        14.81642836]
 [ 0.2        -8.48865215]
 [ 0.25666667 71.68336874]]","[[0.         1.05769551]
 [0.1        0.81667418]
 [0.2        0.51249479]
 [0.25666667 0.29939213]]",0,0.365
8817605319,m,22,french,4,5,french,2024-02-07 15:14:50.712299,False,2,570,sounds\french\audio/french_941.wav,"[[  0.         -66.32571195]
 [  0.1         85.09907795]
 [  0.2         87.37862016]
 [  0.25666667 -18.39108149]]","[[0.         0.9896497 ]
 [0.1        0.67654191]
 [0.2        1.4708398 ]
 [0.25666667 0.82969394]]",0,0.891
8817605319,m,22,french,4,5,french,2024-02-07 15:14:50.712299,False,2,571,sounds\french\audio/french_537.wav,"[[ 0.         24.94182708]
 [ 0.1        44.89034985]
 [ 0.2        79.4977598 ]
 [ 0.25666667 43.46988515]]","[[0.         0.83905816]
 [0.1        0.4078644 ]
 [0.2        1.66123527]
 [0.25666667 0.90238518]]",0,1.04
8817605319,m,22,french,4,5,french,2024-02-07 15:14:50.712299,False,2,572,sounds\french\audio/french_43.wav,"[[  0.          -6.86336629]
 [  0.1          1.3862511 ]
 [  0.2        -46.66652787]
 [  0.25666667  99.62545591]]","[[0.         1.4879687 ]
 [0.1        1.50259819]
 [0.2        1.37505073]
 [0.25666667 0.7561706 ]]",0,0.391
8817605319,m,22,french,4,5,french,2024-02-07 15:14:50.712299,False,2,573,sounds\french\audio/french_930.wav,"[[  0.         -85.15004264]
 [  0.1        -51.05179236]
 [  0.2         60.60693854]
 [  0.25666667  60.89136328]]","[[0.         1.38463402]
 [0.1        1.37480081]
 [0.2        0.42262721]
 [0.25666667 1.58192794]]",0,0.544
8817605319,m,22,french,4,5,french,2024-02-07 15:14:50.712299,False,2,574,sounds\french\audio/french_801.wav,"[[  0.          -2.50424847]
 [  0.1        -38.14130366]
 [  0.2         29.8899248 ]
 [  0.25666667   6.94729426]]","[[0.         1.53837519]
 [0.1        1.1394832 ]
 [0.2        1.04638934]
 [0.25666667 1.11851907]]",0,1.236
8817605319,m,22,french,4,5,french,2024-02-07 15:14:50.712299,False,2,575,sounds\french\audio/french_429.wav,"[[  0.         -86.61428582]
 [  0.1        -42.15720505]
 [  0.2         57.81850322]
 [  0.25666667  56.8864302 ]]","[[0.         0.48550144]
 [0.1        1.43221201]
 [0.2        1.77393014]
 [0.25666667 0.85506946]]",0,0.654
8817605319,m,22,french,4,5,french,2024-02-07 15:14:50.712299,False,2,576,sounds\french\audio/french_637.wav,"[[ 0.         35.81604326]
 [ 0.1        -3.18432816]
 [ 0.2        50.06715701]
 [ 0.25666667 13.82838787]]","[[0.         0.01301393]
 [0.1        0.82513299]
 [0.2        0.10233849]
 [0.25666667 0.87921638]]",0,1.967
8817605319,m,22,french,4,5,french,2024-02-07 15:14:50.712299,False,2,577,sounds\french\audio/french_468.wav,"[[  0.          62.98081683]
 [  0.1        -56.79667237]
 [  0.2         16.07172023]
 [  0.25666667  67.64788087]]","[[0.         0.39126421]
 [0.1        1.86845908]
 [0.2        0.61680923]
 [0.25666667 0.75086704]]",0,3.908
8817605319,m,22,french,4,5,french,2024-02-07 15:14:50.712299,False,2,578,sounds\french\audio/french_521.wav,"[[  0.          11.04386286]
 [  0.1        -55.65083084]
 [  0.2         98.93037095]
 [  0.25666667  14.06437892]]","[[0.         1.73052604]
 [0.1        0.96564678]
 [0.2        1.35299162]
 [0.25666667 1.41353716]]",0,0.336
8817605319,m,22,french,4,5,french,2024-02-07 15:14:50.712299,False,2,579,sounds\french\audio/french_126.wav,"[[  0.          92.90369484]
 [  0.1         25.09820179]
 [  0.2         92.10026461]
 [  0.25666667 -27.205087  ]]","[[0.         0.56379558]
 [0.1        1.73295328]
 [0.2        0.28067586]
 [0.25666667 0.82028398]]",0,0.446
8817605319,m,22,french,4,5,french,2024-02-07 15:14:50.712299,False,2,580,sounds\french\audio/french_36.wav,"[[  0.          97.14143801]
 [  0.1         96.24936774]
 [  0.2         69.49703902]
 [  0.25666667 -77.37121036]]","[[0.         0.84704198]
 [0.1        1.47086473]
 [0.2        1.29858496]
 [0.25666667 1.24445776]]",0,0.495
8817605319,m,22,french,4,5,french,2024-02-07 15:14:50.712299,False,2,581,sounds\french\audio/french_291.wav,"[[  0.         -84.80785011]
 [  0.1        -36.68987184]
 [  0.2        -96.57368066]
 [  0.25666667 -53.58057918]]","[[0.         0.63456403]
 [0.1        1.00353926]
 [0.2        1.89833315]
 [0.25666667 1.00269885]]",0,0.762
8817605319,m,22,french,4,5,french,2024-02-07 15:14:50.712299,False,2,582,sounds\french\audio/french_635.wav,"[[  0.          33.90344979]
 [  0.1        -75.47627702]
 [  0.2         49.7914685 ]
 [  0.25666667  43.41419086]]","[[0.         1.89496442]
 [0.1        0.79794333]
 [0.2        1.70645199]
 [0.25666667 1.41022612]]",0,0.599
8817605319,m,22,french,4,5,french,2024-02-07 15:14:50.712299,False,2,583,sounds\french\audio/french_157.wav,"[[  0.          -6.6246598 ]
 [  0.1         49.95824353]
 [  0.2         50.90371108]
 [  0.25666667 -96.22740321]]","[[0.         1.79360699]
 [0.1        1.27582672]
 [0.2        1.55422844]
 [0.25666667 0.51380788]]",0,0.623
8817605319,m,22,french,4,5,french,2024-02-07 15:14:50.712299,False,2,584,sounds\french\audio/french_694.wav,"[[  0.          17.77218449]
 [  0.1         99.46599521]
 [  0.2        -15.42512366]
 [  0.25666667 -86.21441247]]","[[0.         1.83585748]
 [0.1        0.80026037]
 [0.2        1.77531791]
 [0.25666667 1.07868716]]",0,0.73
8817605319,m,22,french,4,5,french,2024-02-07 15:14:50.712299,False,2,585,sounds\french\audio/french_339.wav,"[[  0.          54.2761061 ]
 [  0.1         63.28603184]
 [  0.2        -39.09064926]
 [  0.25666667 -65.51257867]]","[[0.         1.89825103]
 [0.1        0.66946091]
 [0.2        1.06421907]
 [0.25666667 1.4091401 ]]",0,0.566
8817605319,m,22,french,4,5,french,2024-02-07 15:14:50.712299,False,2,586,sounds\french\audio/french_475.wav,"[[  0.          42.4700979 ]
 [  0.1         19.82242754]
 [  0.2         35.42792781]
 [  0.25666667 -96.45453718]]","[[0.         1.46915347]
 [0.1        0.15565226]
 [0.2        0.40628011]
 [0.25666667 1.14503128]]",0,0.564
8817605319,m,22,french,4,5,french,2024-02-07 15:14:50.712299,False,2,587,sounds\french\audio/french_834.wav,"[[  0.         -86.08965853]
 [  0.1         69.78931281]
 [  0.2        -42.1324214 ]
 [  0.25666667 -13.11810425]]","[[0.         1.35817583]
 [0.1        0.2902945 ]
 [0.2        0.84488429]
 [0.25666667 0.59655356]]",0,0.585
8817605319,m,22,french,4,5,french,2024-02-07 15:14:50.712299,False,2,588,sounds\french\audio/french_657.wav,"[[  0.          99.76716584]
 [  0.1         11.51898435]
 [  0.2        -43.45408234]
 [  0.25666667  22.46427071]]","[[0.         0.85695778]
 [0.1        1.00645436]
 [0.2        0.73989588]
 [0.25666667 1.57217431]]",0,0.492
8817605319,m,22,french,4,5,french,2024-02-07 15:14:50.712299,False,2,589,sounds\french\audio/french_713.wav,"[[  0.          93.33204992]
 [  0.1        -15.69856834]
 [  0.2         18.82527382]
 [  0.25666667 -49.17212055]]","[[0.         0.23689023]
 [0.1        0.32059987]
 [0.2        0.78497323]
 [0.25666667 0.28269646]]",0,5.535
8817605319,m,22,french,4,5,french,2024-02-07 15:14:50.712299,False,2,590,sounds\french\audio/french_285.wav,"[[  0.         -14.06099989]
 [  0.1         -5.26283055]
 [  0.2         18.02137941]
 [  0.25666667  46.27962364]]","[[0.         0.21649577]
 [0.1        0.66520183]
 [0.2        0.4490454 ]
 [0.25666667 1.92778075]]",0,1.127
8817605319,m,22,french,4,5,french,2024-02-07 15:14:50.712299,False,2,591,sounds\french\audio/french_96.wav,"[[  0.         -35.67204937]
 [  0.1        -14.5967046 ]
 [  0.2         23.77171322]
 [  0.25666667 -43.45086892]]","[[0.         1.29614461]
 [0.1        0.74963508]
 [0.2        0.96397917]
 [0.25666667 0.69619931]]",0,0.695
8817605319,m,22,french,4,5,french,2024-02-07 15:14:50.712299,False,2,592,sounds\french\audio/french_988.wav,"[[  0.          -4.11470775]
 [  0.1        -66.00013865]
 [  0.2         59.59027652]
 [  0.25666667   0.47429662]]","[[0.         0.28957615]
 [0.1        0.7977557 ]
 [0.2        1.24206297]
 [0.25666667 1.11640868]]",0,0.467
8817605319,m,22,french,4,5,french,2024-02-07 15:14:50.712299,False,2,593,sounds\french\audio/french_270.wav,"[[  0.         -78.86827529]
 [  0.1        -82.37829284]
 [  0.2        -56.83639547]
 [  0.25666667  11.60888519]]","[[0.         1.67831185]
 [0.1        0.76287252]
 [0.2        1.7160191 ]
 [0.25666667 0.82403755]]",0,0.803
8817605319,m,22,french,4,5,french,2024-02-07 15:14:50.712299,False,2,594,sounds\french\audio/french_763.wav,"[[  0.         -96.72958763]
 [  0.1         95.66434095]
 [  0.2        -84.28875962]
 [  0.25666667 -41.37848175]]","[[0.         0.69845728]
 [0.1        1.4089076 ]
 [0.2        1.74428554]
 [0.25666667 0.12054272]]",0,0.413
8817605319,m,22,french,4,5,french,2024-02-07 15:14:50.712299,False,2,595,sounds\french\audio/french_619.wav,"[[  0.         -58.15289928]
 [  0.1         30.86987971]
 [  0.2         96.84221096]
 [  0.25666667  69.41225319]]","[[0.         0.63115023]
 [0.1        0.12868397]
 [0.2        0.73139592]
 [0.25666667 1.17738103]]",0,0.884
8817605319,m,22,french,4,5,french,2024-02-07 15:14:50.712299,False,2,596,sounds\french\audio/french_985.wav,"[[  0.          29.21663761]
 [  0.1        -71.61154632]
 [  0.2         41.30472765]
 [  0.25666667 -19.1628823 ]]","[[0.         0.89782151]
 [0.1        0.27969284]
 [0.2        1.11185271]
 [0.25666667 1.39441914]]",0,0.485
8817605319,m,22,french,4,5,french,2024-02-07 15:14:50.712299,False,2,597,sounds\french\audio/french_700.wav,"[[  0.          27.78595998]
 [  0.1        -29.96160528]
 [  0.2         60.6733782 ]
 [  0.25666667  39.12324738]]","[[0.         1.84943535]
 [0.1        0.52483958]
 [0.2        0.55672926]
 [0.25666667 0.96842636]]",0,0.433
8817605319,m,22,french,4,5,french,2024-02-07 15:14:50.712299,False,2,598,sounds\french\audio/french_921.wav,"[[  0.          24.11125356]
 [  0.1         37.62729467]
 [  0.2        -94.55025244]
 [  0.25666667  10.27679313]]","[[0.         1.60122976]
 [0.1        0.45720022]
 [0.2        1.67775241]
 [0.25666667 0.96598245]]",0,0.477
