subj,sex,age,language,english,french,native_lang,date,practice,block,trial,stim,pitch,stretch,response,rt
8729829169,f,18,french,3,5,french,2024-01-25 10:34:02.479147,True,0,0,sounds\french\audio/french_35.wav,"[[  0.         -91.9197252 ]
 [  0.1        -51.10479589]
 [  0.2        -15.74458639]
 [  0.25666667 -11.36352661]]","[[0.         1.92941129]
 [0.1        1.66263878]
 [0.2        0.60493147]
 [0.25666667 1.17557979]]",1,18.756
8729829169,f,18,french,3,5,french,2024-01-25 10:34:02.479147,True,0,1,sounds\french\audio/french_710.wav,"[[  0.         -54.00258077]
 [  0.1         34.45486491]
 [  0.2         63.8215693 ]
 [  0.25666667  15.83931319]]","[[0.         0.87889336]
 [0.1        0.7692559 ]
 [0.2        0.4253567 ]
 [0.25666667 0.40649008]]",0,2.901
8729829169,f,18,french,3,5,french,2024-01-25 10:34:02.479147,True,0,2,sounds\french\audio/french_673.wav,"[[ 0.         97.1433432 ]
 [ 0.1         1.59516127]
 [ 0.2        27.02161491]
 [ 0.25666667 62.92522021]]","[[0.         1.2603    ]
 [0.1        0.42137615]
 [0.2        0.87652171]
 [0.25666667 1.1230089 ]]",1,3.554
8729829169,f,18,french,3,5,french,2024-01-25 10:34:02.479147,False,1,3,sounds\french\audio/french_538.wav,"[[  0.         -62.11881418]
 [  0.1        -49.1326041 ]
 [  0.2         11.48721962]
 [  0.25666667 -26.18142206]]","[[0.         0.72316351]
 [0.1        0.52652182]
 [0.2        0.30218135]
 [0.25666667 1.69243497]]",1,3.575
8729829169,f,18,french,3,5,french,2024-01-25 10:34:02.479147,False,1,4,sounds\french\audio/french_975.wav,"[[  0.         -26.92402708]
 [  0.1        -12.18779535]
 [  0.2        -49.74503626]
 [  0.25666667  48.08434321]]","[[0.         1.54282139]
 [0.1        0.57018571]
 [0.2        1.72772198]
 [0.25666667 1.83415107]]",1,2.475
8729829169,f,18,french,3,5,french,2024-01-25 10:34:02.479147,False,1,5,sounds\french\audio/french_373.wav,"[[  0.          27.88559689]
 [  0.1         61.41244142]
 [  0.2         37.97273047]
 [  0.25666667 -82.72738113]]","[[0.         1.35161412]
 [0.1        1.00997609]
 [0.2        1.87297461]
 [0.25666667 0.97441242]]",1,3.713
8729829169,f,18,french,3,5,french,2024-01-25 10:34:02.479147,False,1,6,sounds\french\audio/french_447.wav,"[[  0.         -15.50115845]
 [  0.1         -4.86998407]
 [  0.2        -86.84595189]
 [  0.25666667 -28.81346371]]","[[0.         0.77909013]
 [0.1        1.31519509]
 [0.2        1.40793423]
 [0.25666667 0.16835643]]",1,2.134
8729829169,f,18,french,3,5,french,2024-01-25 10:34:02.479147,False,1,7,sounds\french\audio/french_515.wav,"[[  0.          90.1787868 ]
 [  0.1         95.19464712]
 [  0.2        -71.09612906]
 [  0.25666667  86.48037909]]","[[0.         1.05169603]
 [0.1        0.16234368]
 [0.2        1.85560054]
 [0.25666667 0.23492468]]",0,1.367
8729829169,f,18,french,3,5,french,2024-01-25 10:34:02.479147,False,1,8,sounds\french\audio/french_595.wav,"[[  0.         -73.15061419]
 [  0.1         67.23643261]
 [  0.2         29.33444659]
 [  0.25666667 -65.67909684]]","[[0.         1.40746522]
 [0.1        0.48150889]
 [0.2        0.65461581]
 [0.25666667 0.62395538]]",1,4.437
8729829169,f,18,french,3,5,french,2024-01-25 10:34:02.479147,False,1,9,sounds\french\audio/french_208.wav,"[[  0.           8.68990421]
 [  0.1        -43.18378372]
 [  0.2         71.27860087]
 [  0.25666667 -15.56799856]]","[[0.         0.76850137]
 [0.1        1.33781212]
 [0.2        0.39946576]
 [0.25666667 0.17788265]]",1,2.299
8729829169,f,18,french,3,5,french,2024-01-25 10:34:02.479147,False,1,10,sounds\french\audio/french_88.wav,"[[  0.          27.32194303]
 [  0.1        -96.72294389]
 [  0.2         60.26388925]
 [  0.25666667  24.13475024]]","[[0.         1.51306501]
 [0.1        1.24985366]
 [0.2        0.69332812]
 [0.25666667 1.39714954]]",1,2.898
8729829169,f,18,french,3,5,french,2024-01-25 10:34:02.479147,False,1,11,sounds\french\audio/french_393.wav,"[[  0.          -4.17853165]
 [  0.1        -52.7672758 ]
 [  0.2        -35.65632354]
 [  0.25666667 -38.23501308]]","[[0.         1.11841435]
 [0.1        1.14982518]
 [0.2        1.99911749]
 [0.25666667 0.07284053]]",0,2.576
8729829169,f,18,french,3,5,french,2024-01-25 10:34:02.479147,False,1,12,sounds\french\audio/french_775.wav,"[[  0.         -25.73289632]
 [  0.1         52.55800123]
 [  0.2        -82.88064372]
 [  0.25666667  71.02003497]]","[[0.         0.08278175]
 [0.1        0.7848412 ]
 [0.2        1.99473571]
 [0.25666667 0.87564379]]",0,1.565
8729829169,f,18,french,3,5,french,2024-01-25 10:34:02.479147,False,1,13,sounds\french\audio/french_682.wav,"[[  0.         -16.33102186]
 [  0.1        -49.72009429]
 [  0.2        -23.39596266]
 [  0.25666667 -34.72439006]]","[[0.         0.79850708]
 [0.1        1.31273679]
 [0.2        1.51298147]
 [0.25666667 0.92861139]]",1,3.767
8729829169,f,18,french,3,5,french,2024-01-25 10:34:02.479147,False,1,14,sounds\french\audio/french_598.wav,"[[  0.          21.68363658]
 [  0.1        -21.32750779]
 [  0.2          7.72514192]
 [  0.25666667 -29.17866519]]","[[0.         1.67467049]
 [0.1        0.64095668]
 [0.2        0.23575639]
 [0.25666667 0.51628457]]",0,5.422
8729829169,f,18,french,3,5,french,2024-01-25 10:34:02.479147,False,1,15,sounds\french\audio/french_126.wav,"[[  0.          92.90369484]
 [  0.1         25.09820179]
 [  0.2         92.10026461]
 [  0.25666667 -27.205087  ]]","[[0.         0.56379558]
 [0.1        1.73295328]
 [0.2        0.28067586]
 [0.25666667 0.82028398]]",1,3.567
8729829169,f,18,french,3,5,french,2024-01-25 10:34:02.479147,False,1,16,sounds\french\audio/french_618.wav,"[[  0.         -48.84080529]
 [  0.1         52.1949693 ]
 [  0.2          2.68255661]
 [  0.25666667 -32.43465806]]","[[0.         0.47316377]
 [0.1        0.45430598]
 [0.2        0.75800451]
 [0.25666667 0.99622678]]",0,1.613
8729829169,f,18,french,3,5,french,2024-01-25 10:34:02.479147,False,1,17,sounds\french\audio/french_380.wav,"[[  0.          24.49292531]
 [  0.1        -93.89933718]
 [  0.2        -85.93529796]
 [  0.25666667  58.85582409]]","[[0.         0.14533116]
 [0.1        1.07880785]
 [0.2        1.01737492]
 [0.25666667 1.87499145]]",1,2.451
8729829169,f,18,french,3,5,french,2024-01-25 10:34:02.479147,False,1,18,sounds\french\audio/french_391.wav,"[[  0.         -76.68975493]
 [  0.1        -61.92507962]
 [  0.2        -59.03609545]
 [  0.25666667  88.69049446]]","[[0.         1.01472424]
 [0.1        1.84772624]
 [0.2        1.36374408]
 [0.25666667 1.21538153]]",1,1.053
8729829169,f,18,french,3,5,french,2024-01-25 10:34:02.479147,False,1,19,sounds\french\audio/french_361.wav,"[[  0.         -18.04801315]
 [  0.1         93.73679052]
 [  0.2         42.88870655]
 [  0.25666667  45.1087167 ]]","[[0.         1.02641127]
 [0.1        0.21625505]
 [0.2        1.63254817]
 [0.25666667 0.1659632 ]]",0,1.031
8729829169,f,18,french,3,5,french,2024-01-25 10:34:02.479147,False,1,20,sounds\french\audio/french_236.wav,"[[ 0.         25.84118528]
 [ 0.1        -8.91572412]
 [ 0.2        11.24728016]
 [ 0.25666667 27.02911702]]","[[0.         0.50094641]
 [0.1        0.84977658]
 [0.2        1.88634356]
 [0.25666667 1.9832527 ]]",1,3.491
8729829169,f,18,french,3,5,french,2024-01-25 10:34:02.479147,False,1,21,sounds\french\audio/french_175.wav,"[[  0.         -66.64800697]
 [  0.1         55.8136762 ]
 [  0.2         13.86880033]
 [  0.25666667  79.77573594]]","[[0.         0.89831181]
 [0.1        1.16054297]
 [0.2        0.04267506]
 [0.25666667 1.48091244]]",0,0.956
8729829169,f,18,french,3,5,french,2024-01-25 10:34:02.479147,False,1,22,sounds\french\audio/french_509.wav,"[[  0.          98.86127545]
 [  0.1        -58.47415861]
 [  0.2         23.95425933]
 [  0.25666667  74.34097669]]","[[0.         0.38470371]
 [0.1        0.77077576]
 [0.2        1.30836253]
 [0.25666667 1.2187589 ]]",0,3.824
8729829169,f,18,french,3,5,french,2024-01-25 10:34:02.479147,False,1,23,sounds\french\audio/french_33.wav,"[[  0.          57.46883034]
 [  0.1        -37.75467747]
 [  0.2         37.26126111]
 [  0.25666667  30.73694303]]","[[0.         0.51774601]
 [0.1        0.34297047]
 [0.2        0.88429292]
 [0.25666667 0.45040489]]",0,1.599
8729829169,f,18,french,3,5,french,2024-01-25 10:34:02.479147,False,1,24,sounds\french\audio/french_592.wav,"[[  0.         -60.74271859]
 [  0.1         93.57737247]
 [  0.2        -53.75438764]
 [  0.25666667  -2.22241718]]","[[0.         0.07910076]
 [0.1        0.09988206]
 [0.2        0.64371435]
 [0.25666667 0.65219405]]",0,2.983
8729829169,f,18,french,3,5,french,2024-01-25 10:34:02.479147,False,1,25,sounds\french\audio/french_171.wav,"[[ 0.         13.3023016 ]
 [ 0.1        25.29505215]
 [ 0.2        -4.58061697]
 [ 0.25666667 34.76288366]]","[[0.         1.00497926]
 [0.1        0.58011724]
 [0.2        1.99843941]
 [0.25666667 1.29013512]]",0,1.47
8729829169,f,18,french,3,5,french,2024-01-25 10:34:02.479147,False,1,26,sounds\french\audio/french_618.wav,"[[  0.         -48.84080529]
 [  0.1         52.1949693 ]
 [  0.2          2.68255661]
 [  0.25666667 -32.43465806]]","[[0.         0.47316377]
 [0.1        0.45430598]
 [0.2        0.75800451]
 [0.25666667 0.99622678]]",0,0.973
8729829169,f,18,french,3,5,french,2024-01-25 10:34:02.479147,False,1,27,sounds\french\audio/french_196.wav,"[[  0.         -51.30508497]
 [  0.1         89.17651026]
 [  0.2         77.92993737]
 [  0.25666667 -86.11962375]]","[[0.         1.16005851]
 [0.1        0.87725998]
 [0.2        1.23506332]
 [0.25666667 1.33141167]]",0,1.992
8729829169,f,18,french,3,5,french,2024-01-25 10:34:02.479147,False,1,28,sounds\french\audio/french_689.wav,"[[  0.         -76.83712438]
 [  0.1         64.54047654]
 [  0.2         42.91011154]
 [  0.25666667 -94.73892594]]","[[0.         1.91162084]
 [0.1        0.68488006]
 [0.2        0.17067082]
 [0.25666667 1.05586556]]",0,2.571
8729829169,f,18,french,3,5,french,2024-01-25 10:34:02.479147,False,1,29,sounds\french\audio/french_415.wav,"[[  0.         -78.44301617]
 [  0.1         84.17180311]
 [  0.2         32.05176365]
 [  0.25666667   1.79049447]]","[[0.         1.61962555]
 [0.1        0.78674907]
 [0.2        0.83302444]
 [0.25666667 0.85177262]]",1,1.513
8729829169,f,18,french,3,5,french,2024-01-25 10:34:02.479147,False,1,30,sounds\french\audio/french_822.wav,"[[  0.          70.1141555 ]
 [  0.1        -32.80370271]
 [  0.2          9.36864383]
 [  0.25666667 -70.41865943]]","[[0.         0.03091404]
 [0.1        1.54599653]
 [0.2        0.45983016]
 [0.25666667 0.57036726]]",0,2.635
8729829169,f,18,french,3,5,french,2024-01-25 10:34:02.479147,False,1,31,sounds\french\audio/french_53.wav,"[[  0.          -2.35814843]
 [  0.1        -48.73544303]
 [  0.2         38.27016364]
 [  0.25666667 -31.96265424]]","[[0.         1.83928924]
 [0.1        0.78912936]
 [0.2        0.60668558]
 [0.25666667 0.83130548]]",1,2.304
8729829169,f,18,french,3,5,french,2024-01-25 10:34:02.479147,False,1,32,sounds\french\audio/french_725.wav,"[[  0.          61.28532458]
 [  0.1         25.43953492]
 [  0.2         31.92964858]
 [  0.25666667 -96.80759498]]","[[0.         0.86285292]
 [0.1        0.5175718 ]
 [0.2        1.72668514]
 [0.25666667 1.79225728]]",0,3.718
8729829169,f,18,french,3,5,french,2024-01-25 10:34:02.479147,False,1,33,sounds\french\audio/french_832.wav,"[[  0.          72.4957568 ]
 [  0.1        -42.52759542]
 [  0.2        -19.34515336]
 [  0.25666667  29.69631954]]","[[0.         1.55241154]
 [0.1        0.51342339]
 [0.2        1.23436829]
 [0.25666667 0.63501701]]",1,1.749
8729829169,f,18,french,3,5,french,2024-01-25 10:34:02.479147,False,1,34,sounds\french\audio/french_801.wav,"[[  0.          -2.50424847]
 [  0.1        -38.14130366]
 [  0.2         29.8899248 ]
 [  0.25666667   6.94729426]]","[[0.         1.53837519]
 [0.1        1.1394832 ]
 [0.2        1.04638934]
 [0.25666667 1.11851907]]",0,3.87
8729829169,f,18,french,3,5,french,2024-01-25 10:34:02.479147,False,1,35,sounds\french\audio/french_140.wav,"[[  0.          88.20971648]
 [  0.1        -47.21457526]
 [  0.2        -33.13299566]
 [  0.25666667   6.89149494]]","[[0.         1.40468934]
 [0.1        0.07517377]
 [0.2        0.96987146]
 [0.25666667 0.45515396]]",0,4.182
8729829169,f,18,french,3,5,french,2024-01-25 10:34:02.479147,False,1,36,sounds\french\audio/french_447.wav,"[[  0.         -15.50115845]
 [  0.1         -4.86998407]
 [  0.2        -86.84595189]
 [  0.25666667 -28.81346371]]","[[0.         0.77909013]
 [0.1        1.31519509]
 [0.2        1.40793423]
 [0.25666667 0.16835643]]",1,2.392
8729829169,f,18,french,3,5,french,2024-01-25 10:34:02.479147,False,1,37,sounds\french\audio/french_394.wav,"[[  0.         -46.0867736 ]
 [  0.1        -42.56429646]
 [  0.2         31.61260766]
 [  0.25666667  -7.99475259]]","[[0.         1.77850735]
 [0.1        0.50210825]
 [0.2        1.1233825 ]
 [0.25666667 0.72186821]]",0,3.318
8729829169,f,18,french,3,5,french,2024-01-25 10:34:02.479147,False,1,38,sounds\french\audio/french_340.wav,"[[  0.         -77.74428769]
 [  0.1        -23.36816436]
 [  0.2        -44.47255335]
 [  0.25666667 -51.35474548]]","[[0.         1.5012345 ]
 [0.1        1.72338521]
 [0.2        0.55046319]
 [0.25666667 0.98182936]]",1,0.859
8729829169,f,18,french,3,5,french,2024-01-25 10:34:02.479147,False,1,39,sounds\french\audio/french_959.wav,"[[  0.         -92.66274659]
 [  0.1         10.27191584]
 [  0.2        -51.62824615]
 [  0.25666667 -30.4370249 ]]","[[0.         1.46575448]
 [0.1        1.6425047 ]
 [0.2        0.28117244]
 [0.25666667 1.68634793]]",1,0.45
8729829169,f,18,french,3,5,french,2024-01-25 10:34:02.479147,False,1,40,sounds\french\audio/french_886.wav,"[[  0.         -29.93146366]
 [  0.1        -19.22170842]
 [  0.2        -71.55320982]
 [  0.25666667 -23.6698032 ]]","[[0.         0.4543131 ]
 [0.1        1.74784503]
 [0.2        1.04864587]
 [0.25666667 1.15835862]]",1,0.908
8729829169,f,18,french,3,5,french,2024-01-25 10:34:02.479147,False,1,41,sounds\french\audio/french_36.wav,"[[  0.          97.14143801]
 [  0.1         96.24936774]
 [  0.2         69.49703902]
 [  0.25666667 -77.37121036]]","[[0.         0.84704198]
 [0.1        1.47086473]
 [0.2        1.29858496]
 [0.25666667 1.24445776]]",1,1.723
8729829169,f,18,french,3,5,french,2024-01-25 10:34:02.479147,False,1,42,sounds\french\audio/french_49.wav,"[[  0.         -34.40531311]
 [  0.1        -47.89713654]
 [  0.2          1.74747298]
 [  0.25666667  24.1153847 ]]","[[0.         0.38592943]
 [0.1        0.82636765]
 [0.2        1.60738751]
 [0.25666667 0.61367061]]",1,3.455
8729829169,f,18,french,3,5,french,2024-01-25 10:34:02.479147,False,1,43,sounds\french\audio/french_599.wav,"[[  0.          67.35107794]
 [  0.1        -80.59112066]
 [  0.2          8.51369184]
 [  0.25666667  74.29539318]]","[[0.         1.27225877]
 [0.1        1.42607556]
 [0.2        0.27008032]
 [0.25666667 0.36016313]]",0,2.902
8729829169,f,18,french,3,5,french,2024-01-25 10:34:02.479147,False,1,44,sounds\french\audio/french_593.wav,"[[  0.          28.63563643]
 [  0.1        -92.54588956]
 [  0.2         54.29574758]
 [  0.25666667 -51.0775076 ]]","[[0.         0.95899308]
 [0.1        1.11632192]
 [0.2        0.28179711]
 [0.25666667 1.92785686]]",1,8.416
8729829169,f,18,french,3,5,french,2024-01-25 10:34:02.479147,False,1,45,sounds\french\audio/french_114.wav,"[[ 0.         36.61172137]
 [ 0.1         1.16528437]
 [ 0.2        91.5106094 ]
 [ 0.25666667 23.38458366]]","[[0.         1.1665973 ]
 [0.1        0.29978092]
 [0.2        1.30847922]
 [0.25666667 1.1533172 ]]",1,3.614
8729829169,f,18,french,3,5,french,2024-01-25 10:34:02.479147,False,1,46,sounds\french\audio/french_371.wav,"[[  0.          31.80119749]
 [  0.1        -38.52135119]
 [  0.2          9.85895876]
 [  0.25666667  79.11511398]]","[[0.         0.65227963]
 [0.1        1.80763105]
 [0.2        1.44692227]
 [0.25666667 1.12716888]]",1,0.885
8729829169,f,18,french,3,5,french,2024-01-25 10:34:02.479147,False,1,47,sounds\french\audio/french_502.wav,"[[  0.         -20.79410197]
 [  0.1        -29.31354171]
 [  0.2         66.76157716]
 [  0.25666667  63.6653431 ]]","[[0.         1.55473715]
 [0.1        0.75660833]
 [0.2        1.40053341]
 [0.25666667 1.0602207 ]]",1,1.624
8729829169,f,18,french,3,5,french,2024-01-25 10:34:02.479147,False,1,48,sounds\french\audio/french_525.wav,"[[  0.         -55.71805546]
 [  0.1         69.57832018]
 [  0.2        -61.51619627]
 [  0.25666667 -40.26288332]]","[[0.         1.48564319]
 [0.1        0.7646222 ]
 [0.2        1.98360061]
 [0.25666667 1.91122687]]",1,1.72
8729829169,f,18,french,3,5,french,2024-01-25 10:34:02.479147,False,1,49,sounds\french\audio/french_536.wav,"[[  0.          68.67423581]
 [  0.1        -41.0053329 ]
 [  0.2         83.63020031]
 [  0.25666667  91.23175369]]","[[0.         1.72386473]
 [0.1        0.5365144 ]
 [0.2        1.03248729]
 [0.25666667 0.91736707]]",0,1.651
8729829169,f,18,french,3,5,french,2024-01-25 10:34:02.479147,False,1,50,sounds\french\audio/french_902.wav,"[[  0.          27.03523978]
 [  0.1        -67.54213764]
 [  0.2         21.7683879 ]
 [  0.25666667 -96.90742585]]","[[0.         0.1459181 ]
 [0.1        1.3453624 ]
 [0.2        1.83277685]
 [0.25666667 0.52631336]]",1,0.738
8729829169,f,18,french,3,5,french,2024-01-25 10:34:02.479147,False,1,51,sounds\french\audio/french_918.wav,"[[  0.          73.93932449]
 [  0.1        -96.38016005]
 [  0.2         52.71903464]
 [  0.25666667  71.89996729]]","[[0.         1.12285198]
 [0.1        0.52569443]
 [0.2        1.01384132]
 [0.25666667 0.74683012]]",0,5.937
8729829169,f,18,french,3,5,french,2024-01-25 10:34:02.479147,False,1,52,sounds\french\audio/french_455.wav,"[[  0.         -38.32224649]
 [  0.1         16.6107471 ]
 [  0.2        -53.73538957]
 [  0.25666667 -39.28573671]]","[[0.         1.67202697]
 [0.1        0.91904085]
 [0.2        1.09329776]
 [0.25666667 1.37901108]]",0,2.956
8729829169,f,18,french,3,5,french,2024-01-25 10:34:02.479147,False,1,53,sounds\french\audio/french_383.wav,"[[  0.         -42.4544387 ]
 [  0.1        -90.68336638]
 [  0.2        -23.68224062]
 [  0.25666667 -19.21071009]]","[[0.         1.97405967]
 [0.1        0.7318817 ]
 [0.2        1.2439139 ]
 [0.25666667 0.24057374]]",1,2.15
8729829169,f,18,french,3,5,french,2024-01-25 10:34:02.479147,False,1,54,sounds\french\audio/french_875.wav,"[[  0.         -21.85805239]
 [  0.1         89.69626046]
 [  0.2        -30.27044373]
 [  0.25666667  34.72149061]]","[[0.         1.53415162]
 [0.1        1.00812403]
 [0.2        0.85877698]
 [0.25666667 1.23447623]]",1,2.005
8729829169,f,18,french,3,5,french,2024-01-25 10:34:02.479147,False,1,55,sounds\french\audio/french_78.wav,"[[  0.         -36.45256911]
 [  0.1         52.80709263]
 [  0.2        -45.25624127]
 [  0.25666667  18.96418323]]","[[0.         0.98498246]
 [0.1        1.84515784]
 [0.2        1.50799972]
 [0.25666667 1.61920031]]",1,1.614
8729829169,f,18,french,3,5,french,2024-01-25 10:34:02.479147,False,1,56,sounds\french\audio/french_517.wav,"[[  0.          10.61669355]
 [  0.1        -49.88851761]
 [  0.2         47.72087598]
 [  0.25666667 -22.50236439]]","[[0.         0.19899019]
 [0.1        1.4553669 ]
 [0.2        1.48195648]
 [0.25666667 0.87629427]]",1,1.944
8729829169,f,18,french,3,5,french,2024-01-25 10:34:02.479147,False,1,57,sounds\french\audio/french_9.wav,"[[ 0.         19.3207086 ]
 [ 0.1        55.1250277 ]
 [ 0.2        31.60633129]
 [ 0.25666667 31.4464946 ]]","[[0.         1.35934995]
 [0.1        1.31727385]
 [0.2        0.52824511]
 [0.25666667 1.75131645]]",1,2.83
8729829169,f,18,french,3,5,french,2024-01-25 10:34:02.479147,False,1,58,sounds\french\audio/french_328.wav,"[[  0.         -82.86069205]
 [  0.1        -76.70984367]
 [  0.2        -82.63579977]
 [  0.25666667 -88.21582145]]","[[0.         0.98291516]
 [0.1        1.53428028]
 [0.2        1.97086095]
 [0.25666667 0.71580661]]",1,0.839
8729829169,f,18,french,3,5,french,2024-01-25 10:34:02.479147,False,1,59,sounds\french\audio/french_553.wav,"[[  0.          -1.38146628]
 [  0.1        -34.28745567]
 [  0.2          6.87532462]
 [  0.25666667  90.98690029]]","[[0.         0.44011383]
 [0.1        1.14829302]
 [0.2        1.07508961]
 [0.25666667 0.10252166]]",0,1.373
8729829169,f,18,french,3,5,french,2024-01-25 10:34:02.479147,False,1,60,sounds\french\audio/french_128.wav,"[[ 0.         -0.75176629]
 [ 0.1        -3.23197706]
 [ 0.2        64.47029617]
 [ 0.25666667 94.12909321]]","[[0.         0.45078366]
 [0.1        0.83766587]
 [0.2        1.36622775]
 [0.25666667 1.47043343]]",0,3.357
8729829169,f,18,french,3,5,french,2024-01-25 10:34:02.479147,False,1,61,sounds\french\audio/french_887.wav,"[[  0.          68.65167503]
 [  0.1        -55.72044546]
 [  0.2        -97.59121662]
 [  0.25666667 -40.12897823]]","[[0.         1.16380924]
 [0.1        1.74073633]
 [0.2        1.00138394]
 [0.25666667 1.21780512]]",0,8.038
8729829169,f,18,french,3,5,french,2024-01-25 10:34:02.479147,False,1,62,sounds\french\audio/french_154.wav,"[[  0.         -35.77368222]
 [  0.1          5.93918526]
 [  0.2         36.13172948]
 [  0.25666667 -52.77395679]]","[[0.         0.10248514]
 [0.1        0.42084566]
 [0.2        1.29147589]
 [0.25666667 0.60791213]]",0,1.112
8729829169,f,18,french,3,5,french,2024-01-25 10:34:02.479147,False,1,63,sounds\french\audio/french_438.wav,"[[  0.          38.28600595]
 [  0.1         -2.73615403]
 [  0.2        -43.32822043]
 [  0.25666667 -21.43836029]]","[[0.         0.24947118]
 [0.1        0.88566368]
 [0.2        0.23078024]
 [0.25666667 1.64360752]]",0,0.952
8729829169,f,18,french,3,5,french,2024-01-25 10:34:02.479147,False,1,64,sounds\french\audio/french_246.wav,"[[  0.         -61.30298939]
 [  0.1         15.83987086]
 [  0.2         80.17394669]
 [  0.25666667 -81.65507189]]","[[0.         1.31566238]
 [0.1        1.23869052]
 [0.2        1.57286335]
 [0.25666667 0.07583844]]",1,2.091
8729829169,f,18,french,3,5,french,2024-01-25 10:34:02.479147,False,1,65,sounds\french\audio/french_134.wav,"[[  0.         -65.58132827]
 [  0.1        -89.82992505]
 [  0.2          9.99695038]
 [  0.25666667  24.50908123]]","[[0.         0.68669704]
 [0.1        1.50131287]
 [0.2        0.69598371]
 [0.25666667 1.57047358]]",1,2.097
8729829169,f,18,french,3,5,french,2024-01-25 10:34:02.479147,False,1,66,sounds\french\audio/french_80.wav,"[[  0.          -4.85614904]
 [  0.1        -36.95221558]
 [  0.2        -16.65007611]
 [  0.25666667  57.44018977]]","[[0.         0.67500586]
 [0.1        0.10692408]
 [0.2        1.27299782]
 [0.25666667 0.9780754 ]]",0,0.713
8729829169,f,18,french,3,5,french,2024-01-25 10:34:02.479147,False,1,67,sounds\french\audio/french_338.wav,"[[  0.         -59.42111132]
 [  0.1        -69.70478814]
 [  0.2        -12.60920347]
 [  0.25666667 -82.44797384]]","[[0.         1.60060286]
 [0.1        0.22517269]
 [0.2        1.52190999]
 [0.25666667 0.82265445]]",0,0.753
8729829169,f,18,french,3,5,french,2024-01-25 10:34:02.479147,False,1,68,sounds\french\audio/french_775.wav,"[[  0.         -25.73289632]
 [  0.1         52.55800123]
 [  0.2        -82.88064372]
 [  0.25666667  71.02003497]]","[[0.         0.08278175]
 [0.1        0.7848412 ]
 [0.2        1.99473571]
 [0.25666667 0.87564379]]",1,1.844
8729829169,f,18,french,3,5,french,2024-01-25 10:34:02.479147,False,1,69,sounds\french\audio/french_785.wav,"[[  0.         -85.51822201]
 [  0.1         -3.83792251]
 [  0.2         45.88945115]
 [  0.25666667  38.51931882]]","[[0.         1.39201941]
 [0.1        0.93814534]
 [0.2        0.59493864]
 [0.25666667 0.08649149]]",1,3.396
8729829169,f,18,french,3,5,french,2024-01-25 10:34:02.479147,False,1,70,sounds\french\audio/french_872.wav,"[[  0.          85.31192626]
 [  0.1        -62.96284321]
 [  0.2         93.26127986]
 [  0.25666667  48.13314647]]","[[0.         1.27180188]
 [0.1        0.82867252]
 [0.2        1.69740624]
 [0.25666667 0.31258738]]",1,4.384
8729829169,f,18,french,3,5,french,2024-01-25 10:34:02.479147,False,1,71,sounds\french\audio/french_185.wav,"[[  0.          61.04894301]
 [  0.1          4.55457692]
 [  0.2         51.77529612]
 [  0.25666667 -22.06501589]]","[[0.         1.56575395]
 [0.1        1.97883698]
 [0.2        1.92093932]
 [0.25666667 0.68389876]]",1,1.247
8729829169,f,18,french,3,5,french,2024-01-25 10:34:02.479147,False,1,72,sounds\french\audio/french_415.wav,"[[  0.         -78.44301617]
 [  0.1         84.17180311]
 [  0.2         32.05176365]
 [  0.25666667   1.79049447]]","[[0.         1.61962555]
 [0.1        0.78674907]
 [0.2        0.83302444]
 [0.25666667 0.85177262]]",0,0.907
8729829169,f,18,french,3,5,french,2024-01-25 10:34:02.479147,False,1,73,sounds\french\audio/french_825.wav,"[[ 0.         84.83698811]
 [ 0.1        58.10246948]
 [ 0.2        95.28795352]
 [ 0.25666667 40.96055212]]","[[0.         1.37161619]
 [0.1        1.88160769]
 [0.2        0.7228962 ]
 [0.25666667 1.18109596]]",1,1.454
8729829169,f,18,french,3,5,french,2024-01-25 10:34:02.479147,False,1,74,sounds\french\audio/french_439.wav,"[[  0.          66.25011988]
 [  0.1         46.32034445]
 [  0.2         38.26264731]
 [  0.25666667 -42.53278778]]","[[0.         1.00096297]
 [0.1        0.12322103]
 [0.2        1.5814324 ]
 [0.25666667 0.06125751]]",0,0.827
8729829169,f,18,french,3,5,french,2024-01-25 10:34:02.479147,False,1,75,sounds\french\audio/french_710.wav,"[[  0.         -54.00258077]
 [  0.1         34.45486491]
 [  0.2         63.8215693 ]
 [  0.25666667  15.83931319]]","[[0.         0.87889336]
 [0.1        0.7692559 ]
 [0.2        0.4253567 ]
 [0.25666667 0.40649008]]",0,4.146
8729829169,f,18,french,3,5,french,2024-01-25 10:34:02.479147,False,1,76,sounds\french\audio/french_525.wav,"[[  0.         -55.71805546]
 [  0.1         69.57832018]
 [  0.2        -61.51619627]
 [  0.25666667 -40.26288332]]","[[0.         1.48564319]
 [0.1        0.7646222 ]
 [0.2        1.98360061]
 [0.25666667 1.91122687]]",1,3.519
8729829169,f,18,french,3,5,french,2024-01-25 10:34:02.479147,False,1,77,sounds\french\audio/french_189.wav,"[[ 0.         25.45363348]
 [ 0.1        10.19219643]
 [ 0.2        79.32306783]
 [ 0.25666667 77.27494318]]","[[0.         0.70243048]
 [0.1        0.78977161]
 [0.2        0.18017453]
 [0.25666667 0.76350619]]",0,0.935
8729829169,f,18,french,3,5,french,2024-01-25 10:34:02.479147,False,1,78,sounds\french\audio/french_397.wav,"[[  0.         -13.81470081]
 [  0.1         50.38281738]
 [  0.2         50.22980228]
 [  0.25666667 -83.86271009]]","[[0.         1.26162917]
 [0.1        1.19612478]
 [0.2        1.02842354]
 [0.25666667 0.53389444]]",1,3.345
8729829169,f,18,french,3,5,french,2024-01-25 10:34:02.479147,False,1,79,sounds\french\audio/french_368.wav,"[[  0.         -50.29275674]
 [  0.1        -46.19812301]
 [  0.2         11.95097834]
 [  0.25666667  56.55273669]]","[[0.         1.3762211 ]
 [0.1        0.86881993]
 [0.2        1.63580042]
 [0.25666667 0.08134077]]",1,0.923
8729829169,f,18,french,3,5,french,2024-01-25 10:34:02.479147,False,1,80,sounds\french\audio/french_250.wav,"[[  0.          34.1596777 ]
 [  0.1        -44.36149414]
 [  0.2          5.0850049 ]
 [  0.25666667 -37.48818875]]","[[0.         0.91954119]
 [0.1        1.97424998]
 [0.2        0.32778381]
 [0.25666667 0.84724669]]",1,0.636
8729829169,f,18,french,3,5,french,2024-01-25 10:34:02.479147,False,1,81,sounds\french\audio/french_453.wav,"[[  0.          17.16336321]
 [  0.1        -89.93005254]
 [  0.2         91.22824445]
 [  0.25666667 -84.37948707]]","[[0.         0.53243678]
 [0.1        1.83492113]
 [0.2        1.32944014]
 [0.25666667 0.35681228]]",1,1.227
8729829169,f,18,french,3,5,french,2024-01-25 10:34:02.479147,False,1,82,sounds\french\audio/french_208.wav,"[[  0.           8.68990421]
 [  0.1        -43.18378372]
 [  0.2         71.27860087]
 [  0.25666667 -15.56799856]]","[[0.         0.76850137]
 [0.1        1.33781212]
 [0.2        0.39946576]
 [0.25666667 0.17788265]]",0,0.973
8729829169,f,18,french,3,5,french,2024-01-25 10:34:02.479147,False,1,83,sounds\french\audio/french_78.wav,"[[  0.         -36.45256911]
 [  0.1         52.80709263]
 [  0.2        -45.25624127]
 [  0.25666667  18.96418323]]","[[0.         0.98498246]
 [0.1        1.84515784]
 [0.2        1.50799972]
 [0.25666667 1.61920031]]",1,0.803
8729829169,f,18,french,3,5,french,2024-01-25 10:34:02.479147,False,1,84,sounds\french\audio/french_33.wav,"[[  0.          57.46883034]
 [  0.1        -37.75467747]
 [  0.2         37.26126111]
 [  0.25666667  30.73694303]]","[[0.         0.51774601]
 [0.1        0.34297047]
 [0.2        0.88429292]
 [0.25666667 0.45040489]]",1,4.061
8729829169,f,18,french,3,5,french,2024-01-25 10:34:02.479147,False,1,85,sounds\french\audio/french_415.wav,"[[  0.         -78.44301617]
 [  0.1         84.17180311]
 [  0.2         32.05176365]
 [  0.25666667   1.79049447]]","[[0.         1.61962555]
 [0.1        0.78674907]
 [0.2        0.83302444]
 [0.25666667 0.85177262]]",0,1.662
8729829169,f,18,french,3,5,french,2024-01-25 10:34:02.479147,False,1,86,sounds\french\audio/french_353.wav,"[[  0.         -27.01804801]
 [  0.1         16.22716876]
 [  0.2        -38.75476954]
 [  0.25666667  38.92446625]]","[[0.         0.51521002]
 [0.1        1.40915564]
 [0.2        1.13160084]
 [0.25666667 0.21009684]]",1,5.62
8729829169,f,18,french,3,5,french,2024-01-25 10:34:02.479147,False,1,87,sounds\french\audio/french_299.wav,"[[  0.          12.52470623]
 [  0.1        -97.26544336]
 [  0.2        -80.62903972]
 [  0.25666667  73.47257664]]","[[0.         1.64482663]
 [0.1        1.84069115]
 [0.2        0.25110426]
 [0.25666667 1.45765737]]",1,0.971
8729829169,f,18,french,3,5,french,2024-01-25 10:34:02.479147,False,1,88,sounds\french\audio/french_333.wav,"[[ 0.         10.14997655]
 [ 0.1        13.88697857]
 [ 0.2         3.86253466]
 [ 0.25666667 47.83568498]]","[[0.         0.96169616]
 [0.1        0.82290304]
 [0.2        0.18816998]
 [0.25666667 1.34102864]]",0,0.896
8729829169,f,18,french,3,5,french,2024-01-25 10:34:02.479147,False,1,89,sounds\french\audio/french_638.wav,"[[  0.         -18.90498038]
 [  0.1        -28.86355513]
 [  0.2        -97.62198235]
 [  0.25666667  26.30993693]]","[[0.         0.47409532]
 [0.1        1.76910273]
 [0.2        0.72222374]
 [0.25666667 0.09803926]]",1,1.688
8729829169,f,18,french,3,5,french,2024-01-25 10:34:02.479147,False,1,90,sounds\french\audio/french_778.wav,"[[ 0.         -2.76577218]
 [ 0.1         4.49344871]
 [ 0.2        68.81762054]
 [ 0.25666667 89.13075651]]","[[0.         0.74255963]
 [0.1        1.48176587]
 [0.2        1.59399306]
 [0.25666667 1.18058537]]",1,0.804
8729829169,f,18,french,3,5,french,2024-01-25 10:34:02.479147,False,1,91,sounds\french\audio/french_433.wav,"[[  0.         -17.50255462]
 [  0.1         46.48307521]
 [  0.2         39.12417732]
 [  0.25666667 -52.98872919]]","[[0.         1.12652369]
 [0.1        1.78874207]
 [0.2        0.52833996]
 [0.25666667 0.52335447]]",1,0.901
8729829169,f,18,french,3,5,french,2024-01-25 10:34:02.479147,False,1,92,sounds\french\audio/french_160.wav,"[[  0.          94.580754  ]
 [  0.1        -77.59057929]
 [  0.2         49.28871101]
 [  0.25666667  54.34008904]]","[[0.         1.48632924]
 [0.1        0.83284567]
 [0.2        1.32543638]
 [0.25666667 1.18016963]]",0,1.067
8729829169,f,18,french,3,5,french,2024-01-25 10:34:02.479147,False,1,93,sounds\french\audio/french_244.wav,"[[  0.          -1.19097064]
 [  0.1        -92.85229973]
 [  0.2        -96.93666457]
 [  0.25666667 -48.92774089]]","[[0.         0.99374935]
 [0.1        0.05831089]
 [0.2        1.01399938]
 [0.25666667 0.05507298]]",0,1.386
8729829169,f,18,french,3,5,french,2024-01-25 10:34:02.479147,False,1,94,sounds\french\audio/french_366.wav,"[[  0.         -11.67543603]
 [  0.1        -73.020852  ]
 [  0.2        -53.53259577]
 [  0.25666667  19.02620798]]","[[0.         0.93730839]
 [0.1        0.54674712]
 [0.2        0.98192793]
 [0.25666667 0.14835446]]",0,2.256
8729829169,f,18,french,3,5,french,2024-01-25 10:34:02.479147,False,1,95,sounds\french\audio/french_920.wav,"[[  0.          98.83591172]
 [  0.1        -64.95643085]
 [  0.2          1.57326281]
 [  0.25666667 -25.63648329]]","[[0.         0.7646584 ]
 [0.1        1.02879579]
 [0.2        1.0684491 ]
 [0.25666667 0.89198175]]",0,1.407
8729829169,f,18,french,3,5,french,2024-01-25 10:34:02.479147,False,1,96,sounds\french\audio/french_843.wav,"[[  0.          13.6803361 ]
 [  0.1         92.02668438]
 [  0.2        -93.52604538]
 [  0.25666667 -12.7136852 ]]","[[0.         0.65425976]
 [0.1        1.47814853]
 [0.2        0.78236369]
 [0.25666667 0.52413001]]",1,6.814
8729829169,f,18,french,3,5,french,2024-01-25 10:34:02.479147,False,1,97,sounds\french\audio/french_980.wav,"[[  0.         -38.7537279 ]
 [  0.1         12.31277697]
 [  0.2          6.50697833]
 [  0.25666667 -34.92912415]]","[[0.         0.7061587 ]
 [0.1        1.27161124]
 [0.2        0.8921187 ]
 [0.25666667 1.97802528]]",0,1.294
8729829169,f,18,french,3,5,french,2024-01-25 10:34:02.479147,False,1,98,sounds\french\audio/french_880.wav,"[[  0.          34.54343789]
 [  0.1         76.62551814]
 [  0.2         69.99614697]
 [  0.25666667 -97.30266151]]","[[0.         1.97652899]
 [0.1        0.35866047]
 [0.2        1.49815227]
 [0.25666667 1.92878763]]",0,4.798
8729829169,f,18,french,3,5,french,2024-01-25 10:34:02.479147,False,1,99,sounds\french\audio/french_24.wav,"[[  0.         -90.56488298]
 [  0.1        -50.97686263]
 [  0.2         15.79918005]
 [  0.25666667   3.83977191]]","[[0.         1.23408284]
 [0.1        0.21485458]
 [0.2        0.7737077 ]
 [0.25666667 0.99994749]]",1,2.727
8729829169,f,18,french,3,5,french,2024-01-25 10:34:02.479147,False,1,100,sounds\french\audio/french_133.wav,"[[  0.         -94.78194954]
 [  0.1          8.44061072]
 [  0.2         55.81768563]
 [  0.25666667  73.94294787]]","[[0.         1.29113753]
 [0.1        0.84384968]
 [0.2        1.85990436]
 [0.25666667 1.64621091]]",0,2.316
8729829169,f,18,french,3,5,french,2024-01-25 10:34:02.479147,False,1,101,sounds\french\audio/french_868.wav,"[[  0.         -35.95288605]
 [  0.1        -17.44977395]
 [  0.2        -64.01864585]
 [  0.25666667  14.1526891 ]]","[[0.         1.76613711]
 [0.1        1.66440326]
 [0.2        0.72417379]
 [0.25666667 0.87347262]]",0,1.877
8729829169,f,18,french,3,5,french,2024-01-25 10:34:02.479147,False,1,102,sounds\french\audio/french_71.wav,"[[  0.         -97.29707499]
 [  0.1         41.74238765]
 [  0.2        -91.89336592]
 [  0.25666667  53.06515209]]","[[0.         0.6163898 ]
 [0.1        1.06775198]
 [0.2        1.31906527]
 [0.25666667 0.58556407]]",0,1.474
8729829169,f,18,french,3,5,french,2024-01-25 10:34:02.479147,False,1,103,sounds\french\audio/french_849.wav,"[[  0.         -28.99181256]
 [  0.1        -23.83365043]
 [  0.2        -51.88410218]
 [  0.25666667 -29.11212869]]","[[0.         1.60316931]
 [0.1        0.33831848]
 [0.2        1.05589654]
 [0.25666667 1.53017224]]",0,1.622
8729829169,f,18,french,3,5,french,2024-01-25 10:34:02.479147,False,1,104,sounds\french\audio/french_282.wav,"[[  0.         -97.43488085]
 [  0.1         96.20897113]
 [  0.2         27.16020646]
 [  0.25666667 -13.14092169]]","[[0.         0.55303377]
 [0.1        1.41145651]
 [0.2        1.83661618]
 [0.25666667 0.36912502]]",0,1.108
8729829169,f,18,french,3,5,french,2024-01-25 10:34:02.479147,False,1,105,sounds\french\audio/french_663.wav,"[[  0.           9.26283991]
 [  0.1          8.63416543]
 [  0.2        -94.49816933]
 [  0.25666667 -21.43071833]]","[[0.         1.50228176]
 [0.1        0.75616041]
 [0.2        0.98085129]
 [0.25666667 1.35574544]]",0,0.927
8729829169,f,18,french,3,5,french,2024-01-25 10:34:02.479147,False,1,106,sounds\french\audio/french_299.wav,"[[  0.          12.52470623]
 [  0.1        -97.26544336]
 [  0.2        -80.62903972]
 [  0.25666667  73.47257664]]","[[0.         1.64482663]
 [0.1        1.84069115]
 [0.2        0.25110426]
 [0.25666667 1.45765737]]",1,0.67
8729829169,f,18,french,3,5,french,2024-01-25 10:34:02.479147,False,1,107,sounds\french\audio/french_114.wav,"[[ 0.         36.61172137]
 [ 0.1         1.16528437]
 [ 0.2        91.5106094 ]
 [ 0.25666667 23.38458366]]","[[0.         1.1665973 ]
 [0.1        0.29978092]
 [0.2        1.30847922]
 [0.25666667 1.1533172 ]]",0,1.354
8729829169,f,18,french,3,5,french,2024-01-25 10:34:02.479147,False,1,108,sounds\french\audio/french_19.wav,"[[  0.         -43.32613145]
 [  0.1        -51.04998213]
 [  0.2        -30.05832199]
 [  0.25666667 -62.89931607]]","[[0.         0.86768791]
 [0.1        0.12235363]
 [0.2        0.93205141]
 [0.25666667 0.68272422]]",1,2.19
8729829169,f,18,french,3,5,french,2024-01-25 10:34:02.479147,False,1,109,sounds\french\audio/french_424.wav,"[[ 0.         61.39777876]
 [ 0.1        -8.76552132]
 [ 0.2        33.4280736 ]
 [ 0.25666667  8.6823295 ]]","[[0.         0.24361375]
 [0.1        1.04711526]
 [0.2        1.33335174]
 [0.25666667 0.59077303]]",1,1.791
8729829169,f,18,french,3,5,french,2024-01-25 10:34:02.479147,False,1,110,sounds\french\audio/french_785.wav,"[[  0.         -85.51822201]
 [  0.1         -3.83792251]
 [  0.2         45.88945115]
 [  0.25666667  38.51931882]]","[[0.         1.39201941]
 [0.1        0.93814534]
 [0.2        0.59493864]
 [0.25666667 0.08649149]]",1,1.607
8729829169,f,18,french,3,5,french,2024-01-25 10:34:02.479147,False,1,111,sounds\french\audio/french_864.wav,"[[ 0.         27.21382842]
 [ 0.1        -8.96687562]
 [ 0.2        47.01768167]
 [ 0.25666667 98.93956807]]","[[0.         1.35032716]
 [0.1        1.41041806]
 [0.2        0.47669103]
 [0.25666667 1.26265942]]",0,1.248
8729829169,f,18,french,3,5,french,2024-01-25 10:34:02.479147,False,1,112,sounds\french\audio/french_146.wav,"[[  0.           2.88911392]
 [  0.1         20.34035446]
 [  0.2        -17.47138226]
 [  0.25666667 -15.1567399 ]]","[[0.         0.44051244]
 [0.1        0.76269488]
 [0.2        0.12643706]
 [0.25666667 0.55905625]]",0,0.965
8729829169,f,18,french,3,5,french,2024-01-25 10:34:02.479147,False,1,113,sounds\french\audio/french_531.wav,"[[  0.          76.38960861]
 [  0.1        -14.4624089 ]
 [  0.2         97.56303867]
 [  0.25666667  -4.62103118]]","[[0.         1.48422918]
 [0.1        0.31285067]
 [0.2        0.71358588]
 [0.25666667 0.65318394]]",0,2.04
8729829169,f,18,french,3,5,french,2024-01-25 10:34:02.479147,False,1,114,sounds\french\audio/french_182.wav,"[[  0.          -1.23949724]
 [  0.1         97.8493481 ]
 [  0.2        -69.4259963 ]
 [  0.25666667  68.50854418]]","[[0.         0.32203143]
 [0.1        0.76081704]
 [0.2        1.30995173]
 [0.25666667 1.49369116]]",0,1.528
8729829169,f,18,french,3,5,french,2024-01-25 10:34:02.479147,False,1,115,sounds\french\audio/french_411.wav,"[[  0.          65.70741219]
 [  0.1          9.47903784]
 [  0.2         88.46874173]
 [  0.25666667 -33.05830924]]","[[0.         1.12073031]
 [0.1        1.20345695]
 [0.2        1.7567893 ]
 [0.25666667 0.68949127]]",1,1.465
8729829169,f,18,french,3,5,french,2024-01-25 10:34:02.479147,False,1,116,sounds\french\audio/french_643.wav,"[[  0.          63.91458592]
 [  0.1        -87.79617997]
 [  0.2        -35.4412084 ]
 [  0.25666667  41.82610472]]","[[0.         0.06817761]
 [0.1        1.72915736]
 [0.2        1.06879305]
 [0.25666667 1.26220402]]",0,1.002
8729829169,f,18,french,3,5,french,2024-01-25 10:34:02.479147,False,1,117,sounds\french\audio/french_999.wav,"[[  0.          47.65145935]
 [  0.1         64.90222313]
 [  0.2         79.66636989]
 [  0.25666667 -10.95327426]]","[[0.         0.42993564]
 [0.1        1.41824969]
 [0.2        1.25132817]
 [0.25666667 1.10016678]]",1,1.59
8729829169,f,18,french,3,5,french,2024-01-25 10:34:02.479147,False,1,118,sounds\french\audio/french_421.wav,"[[  0.          97.07315942]
 [  0.1        -83.39673754]
 [  0.2         82.21564407]
 [  0.25666667  -4.22049535]]","[[0.         0.55056447]
 [0.1        1.15764891]
 [0.2        0.98396665]
 [0.25666667 0.77781273]]",1,2.301
8729829169,f,18,french,3,5,french,2024-01-25 10:34:02.479147,False,1,119,sounds\french\audio/french_877.wav,"[[  0.         -23.96574217]
 [  0.1         51.07186547]
 [  0.2         26.38223439]
 [  0.25666667  57.01482149]]","[[0.         0.96253444]
 [0.1        1.01009898]
 [0.2        1.26042149]
 [0.25666667 0.37917076]]",0,1.943
8729829169,f,18,french,3,5,french,2024-01-25 10:34:02.479147,False,1,120,sounds\french\audio/french_107.wav,"[[  0.          67.03881883]
 [  0.1         45.78296109]
 [  0.2        -43.22729876]
 [  0.25666667 -74.69599774]]","[[0.         1.87266913]
 [0.1        0.27229476]
 [0.2        1.08803063]
 [0.25666667 1.63601275]]",1,3.597
8729829169,f,18,french,3,5,french,2024-01-25 10:34:02.479147,False,1,121,sounds\french\audio/french_314.wav,"[[  0.         -41.28420355]
 [  0.1         38.91630458]
 [  0.2         24.93775916]
 [  0.25666667  33.33111791]]","[[0.         0.77087466]
 [0.1        0.23409115]
 [0.2        0.53304912]
 [0.25666667 0.84036245]]",0,3.85
8729829169,f,18,french,3,5,french,2024-01-25 10:34:02.479147,False,1,122,sounds\french\audio/french_623.wav,"[[  0.          39.03330695]
 [  0.1         53.03253456]
 [  0.2        -58.78521604]
 [  0.25666667  58.72042033]]","[[0.         1.53300878]
 [0.1        0.64917122]
 [0.2        0.12116027]
 [0.25666667 1.19887121]]",0,2.1
8729829169,f,18,french,3,5,french,2024-01-25 10:34:02.479147,False,1,123,sounds\french\audio/french_949.wav,"[[  0.          29.18752906]
 [  0.1        -67.27756955]
 [  0.2         55.26419326]
 [  0.25666667  11.27327126]]","[[0.         0.08608659]
 [0.1        1.93613179]
 [0.2        0.81834021]
 [0.25666667 0.09029871]]",0,1.67
8729829169,f,18,french,3,5,french,2024-01-25 10:34:02.479147,False,1,124,sounds\french\audio/french_257.wav,"[[  0.           1.27289853]
 [  0.1         62.04423448]
 [  0.2         19.88889926]
 [  0.25666667 -46.96649461]]","[[0.         1.18383926]
 [0.1        0.46495515]
 [0.2        0.91766752]
 [0.25666667 1.75135473]]",1,1.624
8729829169,f,18,french,3,5,french,2024-01-25 10:34:02.479147,False,1,125,sounds\french\audio/french_733.wav,"[[  0.          96.30835656]
 [  0.1        -16.80147809]
 [  0.2         34.50045069]
 [  0.25666667  -6.11336577]]","[[0.         1.00234216]
 [0.1        0.65355169]
 [0.2        1.63394937]
 [0.25666667 0.15404628]]",1,2.49
8729829169,f,18,french,3,5,french,2024-01-25 10:34:02.479147,False,1,126,sounds\french\audio/french_929.wav,"[[ 0.         -0.81023728]
 [ 0.1        49.23140571]
 [ 0.2        -9.18427249]
 [ 0.25666667  2.49300226]]","[[0.         1.80594317]
 [0.1        0.75886247]
 [0.2        0.13714517]
 [0.25666667 0.57622003]]",1,2.81
8729829169,f,18,french,3,5,french,2024-01-25 10:34:02.479147,False,1,127,sounds\french\audio/french_575.wav,"[[  0.          32.80241223]
 [  0.1         11.70984026]
 [  0.2        -24.23897751]
 [  0.25666667   5.92669397]]","[[0.         0.38229386]
 [0.1        0.34252019]
 [0.2        1.12781483]
 [0.25666667 1.51292739]]",0,2.497
8729829169,f,18,french,3,5,french,2024-01-25 10:34:02.479147,False,1,128,sounds\french\audio/french_118.wav,"[[  0.          26.93316006]
 [  0.1        -22.92967869]
 [  0.2        -61.93287208]
 [  0.25666667 -97.08418949]]","[[0.         1.47067426]
 [0.1        1.58231537]
 [0.2        1.01494319]
 [0.25666667 0.71977579]]",1,1.235
8729829169,f,18,french,3,5,french,2024-01-25 10:34:02.479147,False,1,129,sounds\french\audio/french_814.wav,"[[  0.          83.0056253 ]
 [  0.1        -71.4586846 ]
 [  0.2         12.63844789]
 [  0.25666667  12.39326704]]","[[0.         1.4499936 ]
 [0.1        0.77595229]
 [0.2        0.21302651]
 [0.25666667 0.16177964]]",1,1.895
8729829169,f,18,french,3,5,french,2024-01-25 10:34:02.479147,False,1,130,sounds\french\audio/french_447.wav,"[[  0.         -15.50115845]
 [  0.1         -4.86998407]
 [  0.2        -86.84595189]
 [  0.25666667 -28.81346371]]","[[0.         0.77909013]
 [0.1        1.31519509]
 [0.2        1.40793423]
 [0.25666667 0.16835643]]",0,2.256
8729829169,f,18,french,3,5,french,2024-01-25 10:34:02.479147,False,1,131,sounds\french\audio/french_381.wav,"[[  0.         -36.22739734]
 [  0.1         63.18659678]
 [  0.2        -88.25823098]
 [  0.25666667  39.00702017]]","[[0.         0.39069554]
 [0.1        0.02424263]
 [0.2        0.59540025]
 [0.25666667 0.84340327]]",0,0.687
8729829169,f,18,french,3,5,french,2024-01-25 10:34:02.479147,False,1,132,sounds\french\audio/french_425.wav,"[[  0.          36.0896382 ]
 [  0.1        -60.28824884]
 [  0.2        -83.12671609]
 [  0.25666667  32.66103116]]","[[0.         0.72680638]
 [0.1        0.01839492]
 [0.2        1.09901753]
 [0.25666667 1.13928828]]",0,1.463
8729829169,f,18,french,3,5,french,2024-01-25 10:34:02.479147,False,1,133,sounds\french\audio/french_511.wav,"[[  0.         -19.9871771 ]
 [  0.1        -61.98813266]
 [  0.2        -51.99144191]
 [  0.25666667  26.5419494 ]]","[[0.         1.33271467]
 [0.1        1.54343533]
 [0.2        1.11888865]
 [0.25666667 1.56196296]]",1,2.085
8729829169,f,18,french,3,5,french,2024-01-25 10:34:02.479147,False,1,134,sounds\french\audio/french_668.wav,"[[  0.          44.4696917 ]
 [  0.1         63.48880943]
 [  0.2         96.50351719]
 [  0.25666667 -38.26923088]]","[[0.         0.61167569]
 [0.1        0.96933631]
 [0.2        1.39779359]
 [0.25666667 1.779663  ]]",0,2.979
8729829169,f,18,french,3,5,french,2024-01-25 10:34:02.479147,False,1,135,sounds\french\audio/french_99.wav,"[[ 0.         82.47343156]
 [ 0.1        79.23143861]
 [ 0.2        34.81001375]
 [ 0.25666667 28.26612214]]","[[0.         0.8791919 ]
 [0.1        0.93561146]
 [0.2        1.15477002]
 [0.25666667 0.77336938]]",0,1.576
8729829169,f,18,french,3,5,french,2024-01-25 10:34:02.479147,False,1,136,sounds\french\audio/french_604.wav,"[[  0.         -11.11210875]
 [  0.1        -13.90326971]
 [  0.2        -78.59226075]
 [  0.25666667  87.42620436]]","[[0.         1.64316359]
 [0.1        0.56968283]
 [0.2        1.3955722 ]
 [0.25666667 0.51982143]]",1,2.947
8729829169,f,18,french,3,5,french,2024-01-25 10:34:02.479147,False,1,137,sounds\french\audio/french_340.wav,"[[  0.         -77.74428769]
 [  0.1        -23.36816436]
 [  0.2        -44.47255335]
 [  0.25666667 -51.35474548]]","[[0.         1.5012345 ]
 [0.1        1.72338521]
 [0.2        0.55046319]
 [0.25666667 0.98182936]]",1,0.795
8729829169,f,18,french,3,5,french,2024-01-25 10:34:02.479147,False,1,138,sounds\french\audio/french_110.wav,"[[  0.          14.8960744 ]
 [  0.1        -82.02762151]
 [  0.2         66.91383722]
 [  0.25666667 -78.07836064]]","[[0.         1.68730737]
 [0.1        1.03733778]
 [0.2        1.59061665]
 [0.25666667 0.49489255]]",1,0.554
8729829169,f,18,french,3,5,french,2024-01-25 10:34:02.479147,False,1,139,sounds\french\audio/french_458.wav,"[[  0.          13.7688173 ]
 [  0.1         19.53863665]
 [  0.2        -90.92797006]
 [  0.25666667  55.23452131]]","[[0.         1.1950835 ]
 [0.1        0.33129566]
 [0.2        0.65773392]
 [0.25666667 1.54778139]]",0,0.747
8729829169,f,18,french,3,5,french,2024-01-25 10:34:02.479147,False,1,140,sounds\french\audio/french_703.wav,"[[  0.          84.48201003]
 [  0.1        -13.2968245 ]
 [  0.2        -49.01598543]
 [  0.25666667 -63.56156529]]","[[0.         0.82331622]
 [0.1        1.50639414]
 [0.2        0.83966854]
 [0.25666667 1.27848793]]",1,0.642
8729829169,f,18,french,3,5,french,2024-01-25 10:34:02.479147,False,1,141,sounds\french\audio/french_25.wav,"[[  0.          46.82844357]
 [  0.1          5.52502331]
 [  0.2        -34.25373026]
 [  0.25666667 -52.44039001]]","[[0.         1.1493518 ]
 [0.1        1.41536953]
 [0.2        0.41949869]
 [0.25666667 0.5013656 ]]",1,0.563
8729829169,f,18,french,3,5,french,2024-01-25 10:34:02.479147,False,1,142,sounds\french\audio/french_377.wav,"[[  0.          99.29202042]
 [  0.1         26.86177352]
 [  0.2        -57.22110681]
 [  0.25666667  67.5545455 ]]","[[0.         1.14982617]
 [0.1        1.68513437]
 [0.2        0.38363532]
 [0.25666667 0.68728301]]",0,0.926
8729829169,f,18,french,3,5,french,2024-01-25 10:34:02.479147,False,1,143,sounds\french\audio/french_926.wav,"[[  0.         -38.30420493]
 [  0.1        -97.26803886]
 [  0.2         55.3544282 ]
 [  0.25666667   8.78644418]]","[[0.         1.0266732 ]
 [0.1        0.03873156]
 [0.2        0.32593073]
 [0.25666667 0.80695306]]",0,0.832
8729829169,f,18,french,3,5,french,2024-01-25 10:34:02.479147,False,1,144,sounds\french\audio/french_668.wav,"[[  0.          44.4696917 ]
 [  0.1         63.48880943]
 [  0.2         96.50351719]
 [  0.25666667 -38.26923088]]","[[0.         0.61167569]
 [0.1        0.96933631]
 [0.2        1.39779359]
 [0.25666667 1.779663  ]]",1,1.468
8729829169,f,18,french,3,5,french,2024-01-25 10:34:02.479147,False,1,145,sounds\french\audio/french_202.wav,"[[  0.          13.54970771]
 [  0.1         96.46591802]
 [  0.2         96.13650215]
 [  0.25666667 -35.2772524 ]]","[[0.         0.17477243]
 [0.1        0.30528336]
 [0.2        0.41819952]
 [0.25666667 1.86493567]]",0,0.902
8729829169,f,18,french,3,5,french,2024-01-25 10:34:02.479147,False,1,146,sounds\french\audio/french_364.wav,"[[  0.         -32.92421433]
 [  0.1        -56.96078069]
 [  0.2         44.72635853]
 [  0.25666667  23.55157996]]","[[0.         1.35253812]
 [0.1        1.83722727]
 [0.2        1.43933089]
 [0.25666667 1.1354083 ]]",0,2.853
8729829169,f,18,french,3,5,french,2024-01-25 10:34:02.479147,False,1,147,sounds\french\audio/french_816.wav,"[[  0.         -39.39804621]
 [  0.1         14.23792488]
 [  0.2        -84.08825282]
 [  0.25666667 -46.46940665]]","[[0.         1.26291691]
 [0.1        1.60181117]
 [0.2        0.57012939]
 [0.25666667 1.06315664]]",0,1.176
8729829169,f,18,french,3,5,french,2024-01-25 10:34:02.479147,False,1,148,sounds\french\audio/french_378.wav,"[[ 0.         74.25757507]
 [ 0.1        69.54270197]
 [ 0.2        91.83328043]
 [ 0.25666667 65.12199987]]","[[0.         1.44636003]
 [0.1        0.18429149]
 [0.2        0.75177649]
 [0.25666667 0.49263706]]",1,4.653
8729829169,f,18,french,3,5,french,2024-01-25 10:34:02.479147,False,1,149,sounds\french\audio/french_460.wav,"[[  0.         -46.82547924]
 [  0.1        -89.06595485]
 [  0.2        -15.88362663]
 [  0.25666667 -55.00298372]]","[[0.         0.18532774]
 [0.1        0.73005791]
 [0.2        0.27848928]
 [0.25666667 1.6971829 ]]",0,1.102
8729829169,f,18,french,3,5,french,2024-01-25 10:34:02.479147,False,1,150,sounds\french\audio/french_609.wav,"[[  0.          11.6890167 ]
 [  0.1        -35.50971605]
 [  0.2        -98.47760025]
 [  0.25666667 -64.00925784]]","[[0.         1.75568789]
 [0.1        1.50542158]
 [0.2        0.96032408]
 [0.25666667 1.1186533 ]]",0,1.277
8729829169,f,18,french,3,5,french,2024-01-25 10:34:02.479147,False,1,151,sounds\french\audio/french_754.wav,"[[ 0.         11.6644261 ]
 [ 0.1         5.00985124]
 [ 0.2        23.99974903]
 [ 0.25666667 23.77807811]]","[[0.         0.15061695]
 [0.1        0.57469516]
 [0.2        0.45412791]
 [0.25666667 0.27591884]]",0,0.807
8729829169,f,18,french,3,5,french,2024-01-25 10:34:02.479147,False,1,152,sounds\french\audio/french_621.wav,"[[  0.         -65.12133357]
 [  0.1        -34.98790471]
 [  0.2        -12.78608876]
 [  0.25666667  53.53170361]]","[[0.         1.7602607 ]
 [0.1        0.92649718]
 [0.2        1.46782633]
 [0.25666667 0.68266442]]",1,0.523
8729829169,f,18,french,3,5,french,2024-01-25 10:34:02.479147,False,1,153,sounds\french\audio/french_699.wav,"[[ 0.         38.02578945]
 [ 0.1        21.65060188]
 [ 0.2        73.60148166]
 [ 0.25666667 94.39755493]]","[[0.         0.2020154 ]
 [0.1        0.44231897]
 [0.2        1.2945402 ]
 [0.25666667 1.2548045 ]]",1,1.618
8729829169,f,18,french,3,5,french,2024-01-25 10:34:02.479147,False,1,154,sounds\french\audio/french_185.wav,"[[  0.          61.04894301]
 [  0.1          4.55457692]
 [  0.2         51.77529612]
 [  0.25666667 -22.06501589]]","[[0.         1.56575395]
 [0.1        1.97883698]
 [0.2        1.92093932]
 [0.25666667 0.68389876]]",0,0.748
8729829169,f,18,french,3,5,french,2024-01-25 10:34:02.479147,False,1,155,sounds\french\audio/french_805.wav,"[[  0.          21.15897581]
 [  0.1        -84.51795283]
 [  0.2         72.20878309]
 [  0.25666667 -28.14016055]]","[[0.         1.3244225 ]
 [0.1        0.68750265]
 [0.2        0.56084624]
 [0.25666667 0.45412894]]",0,0.796
8729829169,f,18,french,3,5,french,2024-01-25 10:34:02.479147,False,1,156,sounds\french\audio/french_172.wav,"[[ 0.         48.7065843 ]
 [ 0.1        36.17213003]
 [ 0.2        22.16215467]
 [ 0.25666667  3.80373218]]","[[0.         1.72774852]
 [0.1        0.94223675]
 [0.2        1.06724209]
 [0.25666667 1.19623342]]",0,1.53
8729829169,f,18,french,3,5,french,2024-01-25 10:34:02.479147,False,1,157,sounds\french\audio/french_700.wav,"[[  0.          27.78595998]
 [  0.1        -29.96160528]
 [  0.2         60.6733782 ]
 [  0.25666667  39.12324738]]","[[0.         1.84943535]
 [0.1        0.52483958]
 [0.2        0.55672926]
 [0.25666667 0.96842636]]",0,0.855
8729829169,f,18,french,3,5,french,2024-01-25 10:34:02.479147,False,1,158,sounds\french\audio/french_325.wav,"[[  0.          88.71142286]
 [  0.1        -56.3206586 ]
 [  0.2         41.53206129]
 [  0.25666667 -39.91784783]]","[[0.         0.52996958]
 [0.1        1.24996424]
 [0.2        1.51417943]
 [0.25666667 1.21569626]]",1,0.475
8729829169,f,18,french,3,5,french,2024-01-25 10:34:02.479147,False,1,159,sounds\french\audio/french_949.wav,"[[  0.          29.18752906]
 [  0.1        -67.27756955]
 [  0.2         55.26419326]
 [  0.25666667  11.27327126]]","[[0.         0.08608659]
 [0.1        1.93613179]
 [0.2        0.81834021]
 [0.25666667 0.09029871]]",0,0.74
8729829169,f,18,french,3,5,french,2024-01-25 10:34:02.479147,False,1,160,sounds\french\audio/french_696.wav,"[[  0.          39.34258856]
 [  0.1         16.85699936]
 [  0.2        -58.01570434]
 [  0.25666667 -91.70212518]]","[[0.         1.15492287]
 [0.1        0.81118798]
 [0.2        0.43841119]
 [0.25666667 1.32812972]]",1,1.155
8729829169,f,18,french,3,5,french,2024-01-25 10:34:02.479147,False,1,161,sounds\french\audio/french_381.wav,"[[  0.         -36.22739734]
 [  0.1         63.18659678]
 [  0.2        -88.25823098]
 [  0.25666667  39.00702017]]","[[0.         0.39069554]
 [0.1        0.02424263]
 [0.2        0.59540025]
 [0.25666667 0.84340327]]",1,1.21
8729829169,f,18,french,3,5,french,2024-01-25 10:34:02.479147,False,1,162,sounds\french\audio/french_934.wav,"[[  0.          -9.72159443]
 [  0.1        -11.38125641]
 [  0.2        -15.93762726]
 [  0.25666667 -19.962769  ]]","[[0.         1.08583672]
 [0.1        0.99463139]
 [0.2        1.46206623]
 [0.25666667 1.59629023]]",0,0.957
8729829169,f,18,french,3,5,french,2024-01-25 10:34:02.479147,False,1,163,sounds\french\audio/french_916.wav,"[[  0.         -87.80939928]
 [  0.1         68.91902004]
 [  0.2         20.82551071]
 [  0.25666667 -10.41164891]]","[[0.         0.07100827]
 [0.1        0.08308916]
 [0.2        0.48942561]
 [0.25666667 0.67278955]]",1,1.433
8729829169,f,18,french,3,5,french,2024-01-25 10:34:02.479147,False,1,164,sounds\french\audio/french_161.wav,"[[  0.          61.58397479]
 [  0.1         44.64347815]
 [  0.2        -11.65199572]
 [  0.25666667  76.59463145]]","[[0.         1.02686065]
 [0.1        1.42523068]
 [0.2        0.36377374]
 [0.25666667 0.41836879]]",1,1.268
8729829169,f,18,french,3,5,french,2024-01-25 10:34:02.479147,False,1,165,sounds\french\audio/french_194.wav,"[[  0.          82.45325258]
 [  0.1         88.9094727 ]
 [  0.2        -44.07936747]
 [  0.25666667  97.80970813]]","[[0.         0.54112087]
 [0.1        0.47601939]
 [0.2        1.71905709]
 [0.25666667 1.16289195]]",1,0.81
8729829169,f,18,french,3,5,french,2024-01-25 10:34:02.479147,False,1,166,sounds\french\audio/french_936.wav,"[[  0.         -20.69739044]
 [  0.1         11.25896305]
 [  0.2        -73.43688333]
 [  0.25666667  14.6038409 ]]","[[0.         1.81100612]
 [0.1        0.34150345]
 [0.2        0.78598688]
 [0.25666667 0.34536881]]",1,0.729
8729829169,f,18,french,3,5,french,2024-01-25 10:34:02.479147,False,1,167,sounds\french\audio/french_711.wav,"[[  0.          35.46622773]
 [  0.1         62.41897997]
 [  0.2        -12.16405894]
 [  0.25666667  23.8007589 ]]","[[0.         1.8142291 ]
 [0.1        1.39339975]
 [0.2        1.57822467]
 [0.25666667 1.63044315]]",0,1.27
8729829169,f,18,french,3,5,french,2024-01-25 10:34:02.479147,False,1,168,sounds\french\audio/french_491.wav,"[[ 0.00000000e+00  4.86868680e+01]
 [ 1.00000000e-01 -4.81683993e+01]
 [ 2.00000000e-01 -4.23609681e+01]
 [ 2.56666667e-01  2.49582160e-02]]","[[0.         0.42969684]
 [0.1        1.38937301]
 [0.2        1.25630672]
 [0.25666667 0.04562268]]",1,1.063
8729829169,f,18,french,3,5,french,2024-01-25 10:34:02.479147,False,1,169,sounds\french\audio/french_823.wav,"[[  0.         -89.53533563]
 [  0.1         14.01752274]
 [  0.2         33.24657022]
 [  0.25666667 -78.84260648]]","[[0.         0.87621895]
 [0.1        0.92757563]
 [0.2        1.30685671]
 [0.25666667 1.33840969]]",1,0.773
8729829169,f,18,french,3,5,french,2024-01-25 10:34:02.479147,False,1,170,sounds\french\audio/french_66.wav,"[[ 0.          3.84925572]
 [ 0.1        75.48045935]
 [ 0.2        22.76512124]
 [ 0.25666667 45.08821781]]","[[0.         1.88939432]
 [0.1        0.3012797 ]
 [0.2        0.5045755 ]
 [0.25666667 1.63034278]]",1,0.976
8729829169,f,18,french,3,5,french,2024-01-25 10:34:02.479147,False,1,171,sounds\french\audio/french_655.wav,"[[  0.           4.60078694]
 [  0.1         90.51966262]
 [  0.2        -72.80105835]
 [  0.25666667  32.46228297]]","[[0.         1.00375004]
 [0.1        1.23726083]
 [0.2        1.08672065]
 [0.25666667 0.32613357]]",1,1.262
8729829169,f,18,french,3,5,french,2024-01-25 10:34:02.479147,False,1,172,sounds\french\audio/french_909.wav,"[[  0.         -17.91805132]
 [  0.1        -79.7145309 ]
 [  0.2        -13.28374128]
 [  0.25666667  80.91359626]]","[[0.         1.11522258]
 [0.1        0.65372787]
 [0.2        0.18130759]
 [0.25666667 1.7666171 ]]",0,0.745
8729829169,f,18,french,3,5,french,2024-01-25 10:34:02.479147,False,1,173,sounds\french\audio/french_3.wav,"[[  0.         -14.61439924]
 [  0.1         31.18450832]
 [  0.2         25.79538703]
 [  0.25666667  -0.91933426]]","[[0.         1.57160784]
 [0.1        1.95729533]
 [0.2        1.5259075 ]
 [0.25666667 1.3870147 ]]",0,2.247
8729829169,f,18,french,3,5,french,2024-01-25 10:34:02.479147,False,1,174,sounds\french\audio/french_345.wav,"[[  0.         -15.34440167]
 [  0.1         10.78758757]
 [  0.2        -99.05600522]
 [  0.25666667  -6.99010662]]","[[0.         0.71900559]
 [0.1        1.22956467]
 [0.2        1.71608101]
 [0.25666667 1.92257683]]",0,0.67
8729829169,f,18,french,3,5,french,2024-01-25 10:34:02.479147,False,1,175,sounds\french\audio/french_475.wav,"[[  0.          42.4700979 ]
 [  0.1         19.82242754]
 [  0.2         35.42792781]
 [  0.25666667 -96.45453718]]","[[0.         1.46915347]
 [0.1        0.15565226]
 [0.2        0.40628011]
 [0.25666667 1.14503128]]",0,0.842
8729829169,f,18,french,3,5,french,2024-01-25 10:34:02.479147,False,1,176,sounds\french\audio/french_782.wav,"[[  0.         -22.12019493]
 [  0.1          4.49416446]
 [  0.2         95.81757258]
 [  0.25666667  37.17912971]]","[[0.         0.33541309]
 [0.1        0.60665876]
 [0.2        0.65040298]
 [0.25666667 0.93901734]]",0,2.132
8729829169,f,18,french,3,5,french,2024-01-25 10:34:02.479147,False,1,177,sounds\french\audio/french_869.wav,"[[  0.         -95.34423084]
 [  0.1         11.03315758]
 [  0.2          2.57990287]
 [  0.25666667  46.09103516]]","[[0.         1.39498671]
 [0.1        1.3153684 ]
 [0.2        1.42717997]
 [0.25666667 1.20642508]]",1,0.909
8729829169,f,18,french,3,5,french,2024-01-25 10:34:02.479147,False,1,178,sounds\french\audio/french_732.wav,"[[  0.         -82.9393053 ]
 [  0.1        -79.22735873]
 [  0.2        -67.09796721]
 [  0.25666667  35.15971491]]","[[0.         0.90840431]
 [0.1        0.47468339]
 [0.2        1.61768905]
 [0.25666667 1.44596926]]",1,2.211
8729829169,f,18,french,3,5,french,2024-01-25 10:34:02.479147,False,1,179,sounds\french\audio/french_2.wav,"[[  0.         -28.21412584]
 [  0.1         66.62162467]
 [  0.2         16.24659996]
 [  0.25666667 -46.42897327]]","[[0.         1.58504822]
 [0.1        1.83034999]
 [0.2        0.31217517]
 [0.25666667 1.81400659]]",0,1.442
8729829169,f,18,french,3,5,french,2024-01-25 10:34:02.479147,False,1,180,sounds\french\audio/french_312.wav,"[[  0.         -19.98952993]
 [  0.1         50.70617954]
 [  0.2         80.27383631]
 [  0.25666667  31.55502425]]","[[0.         1.92157149]
 [0.1        0.53263035]
 [0.2        1.8452111 ]
 [0.25666667 1.73122835]]",1,0.966
8729829169,f,18,french,3,5,french,2024-01-25 10:34:02.479147,False,1,181,sounds\french\audio/french_434.wav,"[[  0.           7.9294609 ]
 [  0.1         36.47837772]
 [  0.2         71.3301905 ]
 [  0.25666667 -21.81717993]]","[[0.         1.64452419]
 [0.1        0.73911435]
 [0.2        0.53221197]
 [0.25666667 1.83629349]]",0,0.849
8729829169,f,18,french,3,5,french,2024-01-25 10:34:02.479147,False,1,182,sounds\french\audio/french_61.wav,"[[  0.          65.32887924]
 [  0.1         45.09641809]
 [  0.2        -37.75339878]
 [  0.25666667  87.5089899 ]]","[[0.         1.15653785]
 [0.1        1.72373813]
 [0.2        1.38726196]
 [0.25666667 0.41594812]]",1,0.491
8729829169,f,18,french,3,5,french,2024-01-25 10:34:02.479147,False,1,183,sounds\french\audio/french_421.wav,"[[  0.          97.07315942]
 [  0.1        -83.39673754]
 [  0.2         82.21564407]
 [  0.25666667  -4.22049535]]","[[0.         0.55056447]
 [0.1        1.15764891]
 [0.2        0.98396665]
 [0.25666667 0.77781273]]",0,0.921
8729829169,f,18,french,3,5,french,2024-01-25 10:34:02.479147,False,1,184,sounds\french\audio/french_753.wav,"[[  0.         -59.12708259]
 [  0.1        -84.15149344]
 [  0.2        -30.31197396]
 [  0.25666667 -23.11550189]]","[[0.         1.15236918]
 [0.1        1.24278656]
 [0.2        0.56738218]
 [0.25666667 0.65045955]]",1,0.585
8729829169,f,18,french,3,5,french,2024-01-25 10:34:02.479147,False,1,185,sounds\french\audio/french_662.wav,"[[ 0.         69.59464859]
 [ 0.1        92.96629611]
 [ 0.2        83.22574806]
 [ 0.25666667 59.78978888]]","[[0.         0.59800434]
 [0.1        0.25880336]
 [0.2        0.52365302]
 [0.25666667 1.67953256]]",1,1.298
8729829169,f,18,french,3,5,french,2024-01-25 10:34:02.479147,False,1,186,sounds\french\audio/french_748.wav,"[[  0.          66.19282508]
 [  0.1        -81.39884416]
 [  0.2         72.72612179]
 [  0.25666667  76.03481505]]","[[0.         0.41357469]
 [0.1        1.04952   ]
 [0.2        1.37113635]
 [0.25666667 1.54211369]]",0,1.325
8729829169,f,18,french,3,5,french,2024-01-25 10:34:02.479147,False,1,187,sounds\french\audio/french_326.wav,"[[  0.         -63.35446608]
 [  0.1         12.54179258]
 [  0.2          2.59324468]
 [  0.25666667  34.92537359]]","[[0.         1.54071776]
 [0.1        0.67448432]
 [0.2        0.56210636]
 [0.25666667 1.5196438 ]]",1,0.784
8729829169,f,18,french,3,5,french,2024-01-25 10:34:02.479147,False,1,188,sounds\french\audio/french_846.wav,"[[  0.          70.67693031]
 [  0.1        -66.50397015]
 [  0.2         37.81388611]
 [  0.25666667 -25.90764661]]","[[0.         1.34255937]
 [0.1        0.4230684 ]
 [0.2        1.53749893]
 [0.25666667 0.57819313]]",1,0.925
8729829169,f,18,french,3,5,french,2024-01-25 10:34:02.479147,False,1,189,sounds\french\audio/french_885.wav,"[[  0.          33.82264354]
 [  0.1        -17.07734064]
 [  0.2        -15.93967404]
 [  0.25666667  58.67746901]]","[[0.         0.94046277]
 [0.1        0.79714646]
 [0.2        1.26873891]
 [0.25666667 1.69592015]]",1,1.1
8729829169,f,18,french,3,5,french,2024-01-25 10:34:02.479147,False,1,190,sounds\french\audio/french_215.wav,"[[  0.         -76.5324967 ]
 [  0.1        -12.7876278 ]
 [  0.2        -43.60684601]
 [  0.25666667   3.65547736]]","[[0.         0.00928887]
 [0.1        1.85204819]
 [0.2        1.20297214]
 [0.25666667 1.48182424]]",0,3.467
8729829169,f,18,french,3,5,french,2024-01-25 10:34:02.479147,False,1,191,sounds\french\audio/french_434.wav,"[[  0.           7.9294609 ]
 [  0.1         36.47837772]
 [  0.2         71.3301905 ]
 [  0.25666667 -21.81717993]]","[[0.         1.64452419]
 [0.1        0.73911435]
 [0.2        0.53221197]
 [0.25666667 1.83629349]]",0,1.017
8729829169,f,18,french,3,5,french,2024-01-25 10:34:02.479147,False,1,192,sounds\french\audio/french_535.wav,"[[  0.         -81.47221285]
 [  0.1         42.68543716]
 [  0.2        -73.81682794]
 [  0.25666667 -85.27887702]]","[[0.         1.61446576]
 [0.1        1.13976105]
 [0.2        0.22032829]
 [0.25666667 0.61620659]]",1,0.929
8729829169,f,18,french,3,5,french,2024-01-25 10:34:02.479147,False,1,193,sounds\french\audio/french_305.wav,"[[  0.         -54.69953739]
 [  0.1        -55.57420142]
 [  0.2         69.52625069]
 [  0.25666667 -71.2713804 ]]","[[0.         0.89911595]
 [0.1        0.95414013]
 [0.2        1.47998422]
 [0.25666667 1.78847242]]",1,0.452
8729829169,f,18,french,3,5,french,2024-01-25 10:34:02.479147,False,1,194,sounds\french\audio/french_527.wav,"[[  0.          97.81644093]
 [  0.1         68.05004199]
 [  0.2        -44.05597581]
 [  0.25666667  40.91945638]]","[[0.         0.09503525]
 [0.1        0.33267387]
 [0.2        1.51053464]
 [0.25666667 1.37458991]]",0,1.521
8729829169,f,18,french,3,5,french,2024-01-25 10:34:02.479147,False,1,195,sounds\french\audio/french_543.wav,"[[  0.          99.95964938]
 [  0.1         62.1224346 ]
 [  0.2        -10.06540024]
 [  0.25666667  -5.35888672]]","[[0.         0.10365101]
 [0.1        1.02026934]
 [0.2        0.56488883]
 [0.25666667 0.3884986 ]]",1,1.323
8729829169,f,18,french,3,5,french,2024-01-25 10:34:02.479147,False,1,196,sounds\french\audio/french_563.wav,"[[  0.           1.48089244]
 [  0.1         19.03426996]
 [  0.2        -28.07832236]
 [  0.25666667  33.25369521]]","[[0.         0.83142925]
 [0.1        1.65727988]
 [0.2        1.36487064]
 [0.25666667 0.18463038]]",1,0.44
8729829169,f,18,french,3,5,french,2024-01-25 10:34:02.479147,False,1,197,sounds\french\audio/french_45.wav,"[[  0.           6.51510613]
 [  0.1        -86.25018513]
 [  0.2        -60.46903131]
 [  0.25666667 -48.31089161]]","[[0.         0.83763225]
 [0.1        1.19709151]
 [0.2        0.87484565]
 [0.25666667 0.45414185]]",1,0.638
8729829169,f,18,french,3,5,french,2024-01-25 10:34:02.479147,False,1,198,sounds\french\audio/french_536.wav,"[[  0.          68.67423581]
 [  0.1        -41.0053329 ]
 [  0.2         83.63020031]
 [  0.25666667  91.23175369]]","[[0.         1.72386473]
 [0.1        0.5365144 ]
 [0.2        1.03248729]
 [0.25666667 0.91736707]]",1,0.48
8729829169,f,18,french,3,5,french,2024-01-25 10:34:02.479147,False,1,199,sounds\french\audio/french_448.wav,"[[  0.          31.66119151]
 [  0.1         20.17093967]
 [  0.2        -46.84568686]
 [  0.25666667  10.399138  ]]","[[0.         0.87276462]
 [0.1        1.08469616]
 [0.2        1.99629221]
 [0.25666667 0.44449425]]",1,0.554
8729829169,f,18,french,3,5,french,2024-01-25 10:34:02.479147,False,1,200,sounds\french\audio/french_833.wav,"[[  0.          -6.16556676]
 [  0.1        -32.48345992]
 [  0.2        -28.28033803]
 [  0.25666667  48.73445236]]","[[0.         1.54939137]
 [0.1        0.45028205]
 [0.2        0.55227402]
 [0.25666667 0.7790443 ]]",1,0.848
8729829169,f,18,french,3,5,french,2024-01-25 10:34:02.479147,False,1,201,sounds\french\audio/french_586.wav,"[[ 0.         86.96734506]
 [ 0.1        -8.603444  ]
 [ 0.2        11.78169212]
 [ 0.25666667 14.18547806]]","[[0.         0.62271677]
 [0.1        1.69916535]
 [0.2        1.65961944]
 [0.25666667 1.90120182]]",1,0.621
8729829169,f,18,french,3,5,french,2024-01-25 10:34:02.479147,False,1,202,sounds\french\audio/french_329.wav,"[[  0.          14.6954169 ]
 [  0.1        -60.61079034]
 [  0.2        -27.52715396]
 [  0.25666667 -71.65343532]]","[[0.         0.80369944]
 [0.1        1.40829285]
 [0.2        0.22971006]
 [0.25666667 0.37653007]]",0,0.836
8729829169,f,18,french,3,5,french,2024-01-25 10:34:02.479147,False,1,203,sounds\french\audio/french_852.wav,"[[  0.         -21.25647341]
 [  0.1         44.09899268]
 [  0.2        -20.54343266]
 [  0.25666667 -73.6389021 ]]","[[0.         1.59129412]
 [0.1        0.90931534]
 [0.2        0.17046498]
 [0.25666667 0.95788578]]",1,0.982
8729829169,f,18,french,3,5,french,2024-01-25 10:34:02.479147,False,1,204,sounds\french\audio/french_538.wav,"[[  0.         -62.11881418]
 [  0.1        -49.1326041 ]
 [  0.2         11.48721962]
 [  0.25666667 -26.18142206]]","[[0.         0.72316351]
 [0.1        0.52652182]
 [0.2        0.30218135]
 [0.25666667 1.69243497]]",0,0.6
8729829169,f,18,french,3,5,french,2024-01-25 10:34:02.479147,False,1,205,sounds\french\audio/french_957.wav,"[[  0.         -18.56504594]
 [  0.1         17.87447177]
 [  0.2         57.20134839]
 [  0.25666667  64.73544538]]","[[0.         1.70357669]
 [0.1        1.95920141]
 [0.2        1.7386973 ]
 [0.25666667 0.56015389]]",0,0.54
8729829169,f,18,french,3,5,french,2024-01-25 10:34:02.479147,False,1,206,sounds\french\audio/french_143.wav,"[[  0.         -46.09253598]
 [  0.1         41.21858491]
 [  0.2         10.38405582]
 [  0.25666667 -99.98168054]]","[[0.         1.27633083]
 [0.1        0.28919458]
 [0.2        0.61917155]
 [0.25666667 0.37925836]]",0,1.146
8729829169,f,18,french,3,5,french,2024-01-25 10:34:02.479147,False,1,207,sounds\french\audio/french_393.wav,"[[  0.          -4.17853165]
 [  0.1        -52.7672758 ]
 [  0.2        -35.65632354]
 [  0.25666667 -38.23501308]]","[[0.         1.11841435]
 [0.1        1.14982518]
 [0.2        1.99911749]
 [0.25666667 0.07284053]]",1,0.362
8729829169,f,18,french,3,5,french,2024-01-25 10:34:02.479147,False,1,208,sounds\french\audio/french_361.wav,"[[  0.         -18.04801315]
 [  0.1         93.73679052]
 [  0.2         42.88870655]
 [  0.25666667  45.1087167 ]]","[[0.         1.02641127]
 [0.1        0.21625505]
 [0.2        1.63254817]
 [0.25666667 0.1659632 ]]",1,0.827
8729829169,f,18,french,3,5,french,2024-01-25 10:34:02.479147,False,1,209,sounds\french\audio/french_50.wav,"[[  0.         -85.65055263]
 [  0.1         -8.41774185]
 [  0.2         31.4658541 ]
 [  0.25666667  98.77299977]]","[[0.         1.56155391]
 [0.1        0.5849625 ]
 [0.2        1.04346227]
 [0.25666667 0.72937699]]",0,0.805
8729829169,f,18,french,3,5,french,2024-01-25 10:34:02.479147,False,1,210,sounds\french\audio/french_866.wav,"[[  0.         -60.69074585]
 [  0.1        -41.67968152]
 [  0.2         -8.99838874]
 [  0.25666667  40.83736488]]","[[0.         1.64484001]
 [0.1        0.19415831]
 [0.2        1.20864699]
 [0.25666667 0.81730442]]",1,1.081
8729829169,f,18,french,3,5,french,2024-01-25 10:34:02.479147,False,1,211,sounds\french\audio/french_772.wav,"[[  0.          13.96800705]
 [  0.1          5.87945336]
 [  0.2         15.35769187]
 [  0.25666667 -12.22278281]]","[[0.         0.2991113 ]
 [0.1        0.00189684]
 [0.2        0.99190584]
 [0.25666667 1.49955539]]",0,0.623
8729829169,f,18,french,3,5,french,2024-01-25 10:34:02.479147,False,1,212,sounds\french\audio/french_42.wav,"[[  0.         -62.21237173]
 [  0.1        -98.4992591 ]
 [  0.2         97.73183718]
 [  0.25666667 -56.73891221]]","[[0.         0.70589884]
 [0.1        0.40467669]
 [0.2        0.72488221]
 [0.25666667 0.44273829]]",1,0.571
8729829169,f,18,french,3,5,french,2024-01-25 10:34:02.479147,False,1,213,sounds\french\audio/french_12.wav,"[[  0.         -57.76127346]
 [  0.1         13.80138245]
 [  0.2         70.02389064]
 [  0.25666667 -46.37027392]]","[[0.         1.31680682]
 [0.1        1.40135686]
 [0.2        0.63152994]
 [0.25666667 0.33836826]]",1,0.492
8729829169,f,18,french,3,5,french,2024-01-25 10:34:02.479147,False,1,214,sounds\french\audio/french_200.wav,"[[  0.         -10.65818699]
 [  0.1         -8.96413357]
 [  0.2        -78.89627616]
 [  0.25666667   8.01745362]]","[[0.         0.95052916]
 [0.1        0.11424824]
 [0.2        1.718039  ]
 [0.25666667 1.42690066]]",0,0.582
8729829169,f,18,french,3,5,french,2024-01-25 10:34:02.479147,False,1,215,sounds\french\audio/french_299.wav,"[[  0.          12.52470623]
 [  0.1        -97.26544336]
 [  0.2        -80.62903972]
 [  0.25666667  73.47257664]]","[[0.         1.64482663]
 [0.1        1.84069115]
 [0.2        0.25110426]
 [0.25666667 1.45765737]]",1,0.537
8729829169,f,18,french,3,5,french,2024-01-25 10:34:02.479147,False,1,216,sounds\french\audio/french_479.wav,"[[  0.         -77.56228832]
 [  0.1        -51.14246902]
 [  0.2         54.51803315]
 [  0.25666667  -8.31356421]]","[[0.         0.23971003]
 [0.1        1.41057828]
 [0.2        0.5803481 ]
 [0.25666667 0.39274068]]",1,0.389
8729829169,f,18,french,3,5,french,2024-01-25 10:34:02.479147,False,1,217,sounds\french\audio/french_172.wav,"[[ 0.         48.7065843 ]
 [ 0.1        36.17213003]
 [ 0.2        22.16215467]
 [ 0.25666667  3.80373218]]","[[0.         1.72774852]
 [0.1        0.94223675]
 [0.2        1.06724209]
 [0.25666667 1.19623342]]",1,0.335
8729829169,f,18,french,3,5,french,2024-01-25 10:34:02.479147,False,1,218,sounds\french\audio/french_64.wav,"[[  0.          -2.85479512]
 [  0.1        -22.43053594]
 [  0.2         99.07991634]
 [  0.25666667  -6.95169827]]","[[0.         1.8205441 ]
 [0.1        0.65122302]
 [0.2        0.54405082]
 [0.25666667 0.02019369]]",0,0.662
8729829169,f,18,french,3,5,french,2024-01-25 10:34:02.479147,False,1,219,sounds\french\audio/french_67.wav,"[[  0.         -85.58948589]
 [  0.1         13.09838054]
 [  0.2        -56.56906679]
 [  0.25666667  57.4599261 ]]","[[0.         0.63200809]
 [0.1        1.95867716]
 [0.2        0.48937635]
 [0.25666667 1.24156625]]",1,0.938
8729829169,f,18,french,3,5,french,2024-01-25 10:34:02.479147,False,1,220,sounds\french\audio/french_75.wav,"[[  0.          -2.54190785]
 [  0.1        -18.79561653]
 [  0.2        -63.16754008]
 [  0.25666667 -38.64547488]]","[[0.         0.75594209]
 [0.1        0.77713134]
 [0.2        0.0667883 ]
 [0.25666667 0.54855801]]",0,0.611
8729829169,f,18,french,3,5,french,2024-01-25 10:34:02.479147,False,1,221,sounds\french\audio/french_46.wav,"[[  0.         -59.72524318]
 [  0.1        -28.22082853]
 [  0.2          2.0739194 ]
 [  0.25666667 -12.25343829]]","[[0.         1.59606806]
 [0.1        1.01173367]
 [0.2        0.40164164]
 [0.25666667 1.6352238 ]]",0,0.599
8729829169,f,18,french,3,5,french,2024-01-25 10:34:02.479147,False,1,222,sounds\french\audio/french_923.wav,"[[  0.         -57.84523262]
 [  0.1        -15.65652506]
 [  0.2         37.84243464]
 [  0.25666667  15.41728704]]","[[0.         1.35677253]
 [0.1        1.1280373 ]
 [0.2        1.38752537]
 [0.25666667 1.42596606]]",0,0.51
8729829169,f,18,french,3,5,french,2024-01-25 10:34:02.479147,False,1,223,sounds\french\audio/french_178.wav,"[[ 0.         26.38045069]
 [ 0.1        54.67313893]
 [ 0.2        58.86585948]
 [ 0.25666667  8.14592544]]","[[0.         1.33493468]
 [0.1        1.2022917 ]
 [0.2        1.32810738]
 [0.25666667 0.94030025]]",0,0.839
8729829169,f,18,french,3,5,french,2024-01-25 10:34:02.479147,False,1,224,sounds\french\audio/french_873.wav,"[[  0.         -12.1574241 ]
 [  0.1        -18.24590524]
 [  0.2        -68.65561389]
 [  0.25666667 -45.4488766 ]]","[[0.         0.39218062]
 [0.1        1.88422008]
 [0.2        1.05802306]
 [0.25666667 0.58030918]]",1,0.629
8729829169,f,18,french,3,5,french,2024-01-25 10:34:02.479147,False,1,225,sounds\french\audio/french_598.wav,"[[  0.          21.68363658]
 [  0.1        -21.32750779]
 [  0.2          7.72514192]
 [  0.25666667 -29.17866519]]","[[0.         1.67467049]
 [0.1        0.64095668]
 [0.2        0.23575639]
 [0.25666667 0.51628457]]",0,0.442
8729829169,f,18,french,3,5,french,2024-01-25 10:34:02.479147,False,1,226,sounds\french\audio/french_447.wav,"[[  0.         -15.50115845]
 [  0.1         -4.86998407]
 [  0.2        -86.84595189]
 [  0.25666667 -28.81346371]]","[[0.         0.77909013]
 [0.1        1.31519509]
 [0.2        1.40793423]
 [0.25666667 0.16835643]]",0,0.765
8729829169,f,18,french,3,5,french,2024-01-25 10:34:02.479147,False,1,227,sounds\french\audio/french_703.wav,"[[  0.          84.48201003]
 [  0.1        -13.2968245 ]
 [  0.2        -49.01598543]
 [  0.25666667 -63.56156529]]","[[0.         0.82331622]
 [0.1        1.50639414]
 [0.2        0.83966854]
 [0.25666667 1.27848793]]",0,0.608
8729829169,f,18,french,3,5,french,2024-01-25 10:34:02.479147,False,1,228,sounds\french\audio/french_334.wav,"[[  0.          40.44836216]
 [  0.1        -67.56280837]
 [  0.2        -28.73514643]
 [  0.25666667 -49.63309354]]","[[0.         0.13212964]
 [0.1        0.74019732]
 [0.2        0.72240648]
 [0.25666667 0.47162208]]",1,0.439
8729829169,f,18,french,3,5,french,2024-01-25 10:34:02.479147,False,1,229,sounds\french\audio/french_474.wav,"[[  0.          94.09836303]
 [  0.1         43.08248712]
 [  0.2        -98.14389097]
 [  0.25666667 -80.28643924]]","[[0.         0.01406103]
 [0.1        1.41739343]
 [0.2        1.7994516 ]
 [0.25666667 0.15166218]]",0,0.927
8729829169,f,18,french,3,5,french,2024-01-25 10:34:02.479147,False,1,230,sounds\french\audio/french_106.wav,"[[  0.         -80.93311261]
 [  0.1          7.33604761]
 [  0.2         53.45287064]
 [  0.25666667 -26.77526802]]","[[0.         0.79978414]
 [0.1        0.87655026]
 [0.2        1.02362607]
 [0.25666667 1.25354946]]",1,0.467
8729829169,f,18,french,3,5,french,2024-01-25 10:34:02.479147,False,1,231,sounds\french\audio/french_386.wav,"[[  0.          50.68041389]
 [  0.1         19.37586599]
 [  0.2          0.19752764]
 [  0.25666667 -78.73875249]]","[[0.         0.75883449]
 [0.1        1.33167931]
 [0.2        0.89836148]
 [0.25666667 0.64515466]]",1,0.281
8729829169,f,18,french,3,5,french,2024-01-25 10:34:02.479147,False,1,232,sounds\french\audio/french_138.wav,"[[  0.          52.19266886]
 [  0.1        -20.87110469]
 [  0.2        -63.85285305]
 [  0.25666667  35.09837538]]","[[0.         1.6075583 ]
 [0.1        1.57175316]
 [0.2        0.73019834]
 [0.25666667 0.12473077]]",0,0.502
8729829169,f,18,french,3,5,french,2024-01-25 10:34:02.479147,False,1,233,sounds\french\audio/french_196.wav,"[[  0.         -51.30508497]
 [  0.1         89.17651026]
 [  0.2         77.92993737]
 [  0.25666667 -86.11962375]]","[[0.         1.16005851]
 [0.1        0.87725998]
 [0.2        1.23506332]
 [0.25666667 1.33141167]]",0,0.512
8729829169,f,18,french,3,5,french,2024-01-25 10:34:02.479147,False,1,234,sounds\french\audio/french_592.wav,"[[  0.         -60.74271859]
 [  0.1         93.57737247]
 [  0.2        -53.75438764]
 [  0.25666667  -2.22241718]]","[[0.         0.07910076]
 [0.1        0.09988206]
 [0.2        0.64371435]
 [0.25666667 0.65219405]]",0,4.643
8729829169,f,18,french,3,5,french,2024-01-25 10:34:02.479147,False,1,235,sounds\french\audio/french_104.wav,"[[  0.         -10.23090517]
 [  0.1         92.61712743]
 [  0.2          0.22426759]
 [  0.25666667  32.30673442]]","[[0.         1.0322013 ]
 [0.1        0.84344174]
 [0.2        1.03962656]
 [0.25666667 1.9472426 ]]",1,0.577
8729829169,f,18,french,3,5,french,2024-01-25 10:34:02.479147,False,1,236,sounds\french\audio/french_41.wav,"[[  0.         -11.6612147 ]
 [  0.1         96.56624365]
 [  0.2         69.39294216]
 [  0.25666667 -30.30775932]]","[[0.         0.49328208]
 [0.1        1.84762861]
 [0.2        1.1434724 ]
 [0.25666667 1.13333186]]",1,0.608
8729829169,f,18,french,3,5,french,2024-01-25 10:34:02.479147,False,1,237,sounds\french\audio/french_2.wav,"[[  0.         -28.21412584]
 [  0.1         66.62162467]
 [  0.2         16.24659996]
 [  0.25666667 -46.42897327]]","[[0.         1.58504822]
 [0.1        1.83034999]
 [0.2        0.31217517]
 [0.25666667 1.81400659]]",1,0.349
8729829169,f,18,french,3,5,french,2024-01-25 10:34:02.479147,False,1,238,sounds\french\audio/french_607.wav,"[[  0.          86.31857573]
 [  0.1        -46.02697415]
 [  0.2         45.41214831]
 [  0.25666667  58.05056059]]","[[0.         1.61060215]
 [0.1        1.76940735]
 [0.2        0.70600977]
 [0.25666667 0.79164166]]",1,0.389
8729829169,f,18,french,3,5,french,2024-01-25 10:34:02.479147,False,1,239,sounds\french\audio/french_601.wav,"[[  0.          57.33302671]
 [  0.1         78.53356314]
 [  0.2        -65.46800755]
 [  0.25666667  15.04245158]]","[[0.         0.25823262]
 [0.1        0.70648058]
 [0.2        1.49897987]
 [0.25666667 0.53904812]]",1,0.29
8729829169,f,18,french,3,5,french,2024-01-25 10:34:02.479147,False,1,240,sounds\french\audio/french_943.wav,"[[  0.          27.08075724]
 [  0.1         11.89706259]
 [  0.2        -68.36208072]
 [  0.25666667  93.65942771]]","[[0.         1.18472309]
 [0.1        0.18520331]
 [0.2        0.55970606]
 [0.25666667 0.63383354]]",1,0.425
8729829169,f,18,french,3,5,french,2024-01-25 10:34:02.479147,False,1,241,sounds\french\audio/french_21.wav,"[[  0.          54.83693262]
 [  0.1        -44.5884084 ]
 [  0.2        -75.20982548]
 [  0.25666667 -57.69855476]]","[[0.         0.05508037]
 [0.1        0.46211883]
 [0.2        1.96075125]
 [0.25666667 0.5365247 ]]",1,0.565
8729829169,f,18,french,3,5,french,2024-01-25 10:34:02.479147,False,1,242,sounds\french\audio/french_637.wav,"[[ 0.         35.81604326]
 [ 0.1        -3.18432816]
 [ 0.2        50.06715701]
 [ 0.25666667 13.82838787]]","[[0.         0.01301393]
 [0.1        0.82513299]
 [0.2        0.10233849]
 [0.25666667 0.87921638]]",1,1.263
8729829169,f,18,french,3,5,french,2024-01-25 10:34:02.479147,False,1,243,sounds\french\audio/french_354.wav,"[[  0.         -52.94558073]
 [  0.1         92.39955521]
 [  0.2        -42.31606849]
 [  0.25666667  97.06976377]]","[[0.         1.79880208]
 [0.1        1.0939287 ]
 [0.2        0.57130202]
 [0.25666667 1.82278353]]",1,0.54
8729829169,f,18,french,3,5,french,2024-01-25 10:34:02.479147,False,1,244,sounds\french\audio/french_133.wav,"[[  0.         -94.78194954]
 [  0.1          8.44061072]
 [  0.2         55.81768563]
 [  0.25666667  73.94294787]]","[[0.         1.29113753]
 [0.1        0.84384968]
 [0.2        1.85990436]
 [0.25666667 1.64621091]]",1,0.56
8729829169,f,18,french,3,5,french,2024-01-25 10:34:02.479147,False,1,245,sounds\french\audio/french_458.wav,"[[  0.          13.7688173 ]
 [  0.1         19.53863665]
 [  0.2        -90.92797006]
 [  0.25666667  55.23452131]]","[[0.         1.1950835 ]
 [0.1        0.33129566]
 [0.2        0.65773392]
 [0.25666667 1.54778139]]",1,0.439
8729829169,f,18,french,3,5,french,2024-01-25 10:34:02.479147,False,1,246,sounds\french\audio/french_331.wav,"[[  0.         -65.4197333 ]
 [  0.1        -42.63112693]
 [  0.2        -74.29271092]
 [  0.25666667 -22.37665177]]","[[0.         1.29365297]
 [0.1        1.19213918]
 [0.2        0.93002313]
 [0.25666667 1.59897964]]",1,0.313
8729829169,f,18,french,3,5,french,2024-01-25 10:34:02.479147,False,1,247,sounds\french\audio/french_650.wav,"[[  0.         -98.04674504]
 [  0.1        -80.1546697 ]
 [  0.2        -60.9727692 ]
 [  0.25666667  39.39299736]]","[[0.         0.50091073]
 [0.1        0.94744897]
 [0.2        0.76656919]
 [0.25666667 1.29747512]]",1,0.58
8729829169,f,18,french,3,5,french,2024-01-25 10:34:02.479147,False,1,248,sounds\french\audio/french_843.wav,"[[  0.          13.6803361 ]
 [  0.1         92.02668438]
 [  0.2        -93.52604538]
 [  0.25666667 -12.7136852 ]]","[[0.         0.65425976]
 [0.1        1.47814853]
 [0.2        0.78236369]
 [0.25666667 0.52413001]]",0,0.26
8729829169,f,18,french,3,5,french,2024-01-25 10:34:02.479147,False,1,249,sounds\french\audio/french_158.wav,"[[  0.          72.88318106]
 [  0.1         51.2800476 ]
 [  0.2        -29.39007937]
 [  0.25666667  87.52810159]]","[[0.         1.5476705 ]
 [0.1        1.92933226]
 [0.2        1.77733774]
 [0.25666667 1.82253327]]",1,0.298
8729829169,f,18,french,3,5,french,2024-01-25 10:34:02.479147,False,1,250,sounds\french\audio/french_694.wav,"[[  0.          17.77218449]
 [  0.1         99.46599521]
 [  0.2        -15.42512366]
 [  0.25666667 -86.21441247]]","[[0.         1.83585748]
 [0.1        0.80026037]
 [0.2        1.77531791]
 [0.25666667 1.07868716]]",1,0.219
8729829169,f,18,french,3,5,french,2024-01-25 10:34:02.479147,False,1,251,sounds\french\audio/french_603.wav,"[[ 0.         59.84554137]
 [ 0.1        16.50437024]
 [ 0.2        38.82252298]
 [ 0.25666667 25.72688984]]","[[0.         1.0661988 ]
 [0.1        1.9988244 ]
 [0.2        0.61428719]
 [0.25666667 0.58715273]]",1,0.313
8729829169,f,18,french,3,5,french,2024-01-25 10:34:02.479147,False,1,252,sounds\french\audio/french_938.wav,"[[  0.         -81.44382825]
 [  0.1         70.63637201]
 [  0.2         29.19185054]
 [  0.25666667  62.72928817]]","[[0.         1.9747372 ]
 [0.1        1.46978645]
 [0.2        1.77157462]
 [0.25666667 1.30296517]]",1,0.339
