subj,sex,age,language,english,french,native_lang,date,practice,block,trial,stim,pitch,stretch,response,rt
8749218289,f,19,french,4,5,french,2024-02-01 10:33:05.924446,False,2,253,sounds\french\audio/french_431.wav,"[[  0.         -54.98282588]
 [  0.1        -84.59035382]
 [  0.2        -24.91317649]
 [  0.25666667  11.58207854]]","[[0.         1.39465542]
 [0.1        1.77814632]
 [0.2        0.57412197]
 [0.25666667 1.85348509]]",1,3.607
8749218289,f,19,french,4,5,french,2024-02-01 10:33:05.924446,False,2,254,sounds\french\audio/french_100.wav,"[[  0.         -35.75508116]
 [  0.1         57.82815341]
 [  0.2         31.92112674]
 [  0.25666667  34.87308497]]","[[0.         1.72997046]
 [0.1        1.04300978]
 [0.2        1.01595182]
 [0.25666667 1.9286069 ]]",1,0.809
8749218289,f,19,french,4,5,french,2024-02-01 10:33:05.924446,False,2,255,sounds\french\audio/french_822.wav,"[[  0.          70.1141555 ]
 [  0.1        -32.80370271]
 [  0.2          9.36864383]
 [  0.25666667 -70.41865943]]","[[0.         0.03091404]
 [0.1        1.54599653]
 [0.2        0.45983016]
 [0.25666667 0.57036726]]",1,1.012
8749218289,f,19,french,4,5,french,2024-02-01 10:33:05.924446,False,2,256,sounds\french\audio/french_471.wav,"[[  0.          35.47460752]
 [  0.1        -49.00208302]
 [  0.2         47.17677121]
 [  0.25666667  64.34433074]]","[[0.         0.77553755]
 [0.1        1.38730058]
 [0.2        0.98156507]
 [0.25666667 0.66404961]]",0,1.066
8749218289,f,19,french,4,5,french,2024-02-01 10:33:05.924446,False,2,257,sounds\french\audio/french_995.wav,"[[  0.         -29.39777781]
 [  0.1         22.57403903]
 [  0.2        -65.41348422]
 [  0.25666667  24.23364448]]","[[0.         0.04069973]
 [0.1        0.75529124]
 [0.2        0.72194837]
 [0.25666667 0.85657711]]",1,0.583
8749218289,f,19,french,4,5,french,2024-02-01 10:33:05.924446,False,2,258,sounds\french\audio/french_824.wav,"[[  0.          95.58094713]
 [  0.1        -47.05258515]
 [  0.2         43.18521816]
 [  0.25666667  -5.69582576]]","[[0.         1.84230129]
 [0.1        1.74244762]
 [0.2        1.04703492]
 [0.25666667 0.75358401]]",0,0.409
8749218289,f,19,french,4,5,french,2024-02-01 10:33:05.924446,False,2,259,sounds\french\audio/french_540.wav,"[[  0.          64.41538276]
 [  0.1         17.02048616]
 [  0.2        -33.22379056]
 [  0.25666667   6.66749413]]","[[0.         0.51709462]
 [0.1        1.30376576]
 [0.2        0.40148031]
 [0.25666667 1.14865781]]",0,0.331
8749218289,f,19,french,4,5,french,2024-02-01 10:33:05.924446,False,2,260,sounds\french\audio/french_382.wav,"[[  0.         -28.76508335]
 [  0.1         37.36249056]
 [  0.2         12.02014155]
 [  0.25666667 -78.65251684]]","[[0.         1.75225743]
 [0.1        1.09069334]
 [0.2        1.36067751]
 [0.25666667 0.9131152 ]]",0,0.251
8749218289,f,19,french,4,5,french,2024-02-01 10:33:05.924446,False,2,261,sounds\french\audio/french_478.wav,"[[  0.          83.43470999]
 [  0.1         -2.90020724]
 [  0.2          3.04122674]
 [  0.25666667 -16.94968741]]","[[0.         1.59134243]
 [0.1        1.87737404]
 [0.2        1.09323353]
 [0.25666667 0.48225636]]",0,0.344
8749218289,f,19,french,4,5,french,2024-02-01 10:33:05.924446,False,2,262,sounds\french\audio/french_50.wav,"[[  0.         -85.65055263]
 [  0.1         -8.41774185]
 [  0.2         31.4658541 ]
 [  0.25666667  98.77299977]]","[[0.         1.56155391]
 [0.1        0.5849625 ]
 [0.2        1.04346227]
 [0.25666667 0.72937699]]",0,0.395
8749218289,f,19,french,4,5,french,2024-02-01 10:33:05.924446,False,2,263,sounds\french\audio/french_691.wav,"[[  0.          89.02514599]
 [  0.1         84.72414094]
 [  0.2         -3.6265137 ]
 [  0.25666667 -99.35319265]]","[[0.         1.04651451]
 [0.1        1.61938954]
 [0.2        1.34588415]
 [0.25666667 1.50620009]]",0,0.439
8749218289,f,19,french,4,5,french,2024-02-01 10:33:05.924446,False,2,264,sounds\french\audio/french_183.wav,"[[  0.         -70.39448934]
 [  0.1         53.65669982]
 [  0.2         -2.56135136]
 [  0.25666667  49.12124255]]","[[0.         1.64690622]
 [0.1        0.19500459]
 [0.2        1.70333754]
 [0.25666667 0.71175446]]",0,0.634
8749218289,f,19,french,4,5,french,2024-02-01 10:33:05.924446,False,2,265,sounds\french\audio/french_821.wav,"[[  0.          70.15336782]
 [  0.1         -1.11865535]
 [  0.2        -91.54006312]
 [  0.25666667  24.13643902]]","[[0.         1.4099425 ]
 [0.1        1.36643738]
 [0.2        0.06599991]
 [0.25666667 1.20854405]]",1,0.463
8749218289,f,19,french,4,5,french,2024-02-01 10:33:05.924446,False,2,266,sounds\french\audio/french_499.wav,"[[  0.          24.28229917]
 [  0.1        -90.85236303]
 [  0.2        -60.29957953]
 [  0.25666667  91.79807534]]","[[0.         0.76159538]
 [0.1        0.50536641]
 [0.2        0.99158085]
 [0.25666667 1.05465089]]",1,0.502
8749218289,f,19,french,4,5,french,2024-02-01 10:33:05.924446,False,2,267,sounds\french\audio/french_812.wav,"[[  0.          78.53201718]
 [  0.1         87.32508034]
 [  0.2         77.15455549]
 [  0.25666667 -51.33102937]]","[[0.         1.73310634]
 [0.1        1.73147281]
 [0.2        1.58178344]
 [0.25666667 0.27993183]]",1,0.646
8749218289,f,19,french,4,5,french,2024-02-01 10:33:05.924446,False,2,268,sounds\french\audio/french_204.wav,"[[  0.         -28.36319627]
 [  0.1        -92.66891013]
 [  0.2         96.29592204]
 [  0.25666667 -46.81515004]]","[[0.         0.07789368]
 [0.1        0.00203791]
 [0.2        1.92374636]
 [0.25666667 0.97947469]]",1,0.639
8749218289,f,19,french,4,5,french,2024-02-01 10:33:05.924446,False,2,269,sounds\french\audio/french_109.wav,"[[  0.         -57.66612313]
 [  0.1        -72.54090479]
 [  0.2         -5.66573875]
 [  0.25666667 -86.22212262]]","[[0.         0.91141338]
 [0.1        1.63809523]
 [0.2        1.08686957]
 [0.25666667 0.85420458]]",1,0.411
8749218289,f,19,french,4,5,french,2024-02-01 10:33:05.924446,False,2,270,sounds\french\audio/french_448.wav,"[[  0.          31.66119151]
 [  0.1         20.17093967]
 [  0.2        -46.84568686]
 [  0.25666667  10.399138  ]]","[[0.         0.87276462]
 [0.1        1.08469616]
 [0.2        1.99629221]
 [0.25666667 0.44449425]]",1,0.419
8749218289,f,19,french,4,5,french,2024-02-01 10:33:05.924446,False,2,271,sounds\french\audio/french_603.wav,"[[ 0.         59.84554137]
 [ 0.1        16.50437024]
 [ 0.2        38.82252298]
 [ 0.25666667 25.72688984]]","[[0.         1.0661988 ]
 [0.1        1.9988244 ]
 [0.2        0.61428719]
 [0.25666667 0.58715273]]",1,0.599
8749218289,f,19,french,4,5,french,2024-02-01 10:33:05.924446,False,2,272,sounds\french\audio/french_95.wav,"[[ 0.         35.71270194]
 [ 0.1        34.21637588]
 [ 0.2        69.23850983]
 [ 0.25666667 -5.02213551]]","[[0.         1.05464779]
 [0.1        0.916907  ]
 [0.2        0.63861668]
 [0.25666667 0.96363956]]",1,0.76
8749218289,f,19,french,4,5,french,2024-02-01 10:33:05.924446,False,2,273,sounds\french\audio/french_897.wav,"[[  0.          -2.62488743]
 [  0.1        -35.09835725]
 [  0.2         -7.90226738]
 [  0.25666667  34.22753828]]","[[0.         0.95618392]
 [0.1        0.97615626]
 [0.2        0.33556547]
 [0.25666667 0.12618193]]",1,0.513
8749218289,f,19,french,4,5,french,2024-02-01 10:33:05.924446,False,2,274,sounds\french\audio/french_10.wav,"[[  0.          34.48773494]
 [  0.1         82.41652137]
 [  0.2        -51.47900312]
 [  0.25666667  70.4490668 ]]","[[0.         0.90390655]
 [0.1        1.13926368]
 [0.2        1.63497012]
 [0.25666667 0.74730693]]",0,0.301
8749218289,f,19,french,4,5,french,2024-02-01 10:33:05.924446,False,2,275,sounds\french\audio/french_490.wav,"[[  0.         -77.54246231]
 [  0.1         -0.13066058]
 [  0.2        -90.37490593]
 [  0.25666667  62.21960288]]","[[0.         1.03559912]
 [0.1        0.94588293]
 [0.2        1.16449319]
 [0.25666667 1.46557017]]",0,0.302
8749218289,f,19,french,4,5,french,2024-02-01 10:33:05.924446,False,2,276,sounds\french\audio/french_987.wav,"[[ 0.         29.59235099]
 [ 0.1        34.94187385]
 [ 0.2        50.69614072]
 [ 0.25666667 30.08512425]]","[[0.         0.62183529]
 [0.1        0.21370909]
 [0.2        0.33639435]
 [0.25666667 1.23768731]]",0,0.302
8749218289,f,19,french,4,5,french,2024-02-01 10:33:05.924446,False,2,277,sounds\french\audio/french_936.wav,"[[  0.         -20.69739044]
 [  0.1         11.25896305]
 [  0.2        -73.43688333]
 [  0.25666667  14.6038409 ]]","[[0.         1.81100612]
 [0.1        0.34150345]
 [0.2        0.78598688]
 [0.25666667 0.34536881]]",1,0.391
8749218289,f,19,french,4,5,french,2024-02-01 10:33:05.924446,False,2,278,sounds\french\audio/french_117.wav,"[[ 0.          6.74214439]
 [ 0.1         3.15736066]
 [ 0.2        10.42128043]
 [ 0.25666667 89.20041031]]","[[0.         0.42718416]
 [0.1        1.82203077]
 [0.2        0.49696174]
 [0.25666667 0.34350523]]",1,0.623
8749218289,f,19,french,4,5,french,2024-02-01 10:33:05.924446,False,2,279,sounds\french\audio/french_348.wav,"[[  0.          68.47734878]
 [  0.1         54.05190865]
 [  0.2          0.19125453]
 [  0.25666667 -34.65909089]]","[[0.         1.61227716]
 [0.1        0.93770463]
 [0.2        1.53689085]
 [0.25666667 1.17337711]]",0,0.662
8749218289,f,19,french,4,5,french,2024-02-01 10:33:05.924446,False,2,280,sounds\french\audio/french_276.wav,"[[  0.         -30.59490391]
 [  0.1         35.14119383]
 [  0.2        -47.54137466]
 [  0.25666667 -36.46330553]]","[[0.         1.59191255]
 [0.1        1.08920427]
 [0.2        1.15204711]
 [0.25666667 0.56107217]]",0,0.34
8749218289,f,19,french,4,5,french,2024-02-01 10:33:05.924446,False,2,281,sounds\french\audio/french_293.wav,"[[  0.         -11.30043192]
 [  0.1        -69.36716709]
 [  0.2         65.20751159]
 [  0.25666667  27.71872742]]","[[0.         0.58860684]
 [0.1        0.23928943]
 [0.2        1.00971501]
 [0.25666667 0.31746318]]",1,1.134
8749218289,f,19,french,4,5,french,2024-02-01 10:33:05.924446,False,2,282,sounds\french\audio/french_711.wav,"[[  0.          35.46622773]
 [  0.1         62.41897997]
 [  0.2        -12.16405894]
 [  0.25666667  23.8007589 ]]","[[0.         1.8142291 ]
 [0.1        1.39339975]
 [0.2        1.57822467]
 [0.25666667 1.63044315]]",0,0.391
8749218289,f,19,french,4,5,french,2024-02-01 10:33:05.924446,False,2,283,sounds\french\audio/french_929.wav,"[[ 0.         -0.81023728]
 [ 0.1        49.23140571]
 [ 0.2        -9.18427249]
 [ 0.25666667  2.49300226]]","[[0.         1.80594317]
 [0.1        0.75886247]
 [0.2        0.13714517]
 [0.25666667 0.57622003]]",0,0.6
8749218289,f,19,french,4,5,french,2024-02-01 10:33:05.924446,False,2,284,sounds\french\audio/french_916.wav,"[[  0.         -87.80939928]
 [  0.1         68.91902004]
 [  0.2         20.82551071]
 [  0.25666667 -10.41164891]]","[[0.         0.07100827]
 [0.1        0.08308916]
 [0.2        0.48942561]
 [0.25666667 0.67278955]]",1,0.677
8749218289,f,19,french,4,5,french,2024-02-01 10:33:05.924446,False,2,285,sounds\french\audio/french_691.wav,"[[  0.          89.02514599]
 [  0.1         84.72414094]
 [  0.2         -3.6265137 ]
 [  0.25666667 -99.35319265]]","[[0.         1.04651451]
 [0.1        1.61938954]
 [0.2        1.34588415]
 [0.25666667 1.50620009]]",0,0.373
8749218289,f,19,french,4,5,french,2024-02-01 10:33:05.924446,False,2,286,sounds\french\audio/french_753.wav,"[[  0.         -59.12708259]
 [  0.1        -84.15149344]
 [  0.2        -30.31197396]
 [  0.25666667 -23.11550189]]","[[0.         1.15236918]
 [0.1        1.24278656]
 [0.2        0.56738218]
 [0.25666667 0.65045955]]",0,1.472
8749218289,f,19,french,4,5,french,2024-02-01 10:33:05.924446,False,2,287,sounds\french\audio/french_61.wav,"[[  0.          65.32887924]
 [  0.1         45.09641809]
 [  0.2        -37.75339878]
 [  0.25666667  87.5089899 ]]","[[0.         1.15653785]
 [0.1        1.72373813]
 [0.2        1.38726196]
 [0.25666667 0.41594812]]",1,1.279
8749218289,f,19,french,4,5,french,2024-02-01 10:33:05.924446,False,2,288,sounds\french\audio/french_845.wav,"[[  0.          -4.24220541]
 [  0.1        -33.05758094]
 [  0.2        -22.8575131 ]
 [  0.25666667 -28.52835037]]","[[0.         1.81527349]
 [0.1        0.43145559]
 [0.2        1.45726833]
 [0.25666667 1.38023089]]",0,0.587
8749218289,f,19,french,4,5,french,2024-02-01 10:33:05.924446,False,2,289,sounds\french\audio/french_363.wav,"[[  0.          53.04818478]
 [  0.1         68.67010762]
 [  0.2        -91.11205335]
 [  0.25666667 -38.9131055 ]]","[[0.         0.48026107]
 [0.1        1.94302888]
 [0.2        0.36511891]
 [0.25666667 1.6181542 ]]",0,0.794
8749218289,f,19,french,4,5,french,2024-02-01 10:33:05.924446,False,2,290,sounds\french\audio/french_118.wav,"[[  0.          26.93316006]
 [  0.1        -22.92967869]
 [  0.2        -61.93287208]
 [  0.25666667 -97.08418949]]","[[0.         1.47067426]
 [0.1        1.58231537]
 [0.2        1.01494319]
 [0.25666667 0.71977579]]",0,0.629
8749218289,f,19,french,4,5,french,2024-02-01 10:33:05.924446,False,2,291,sounds\french\audio/french_632.wav,"[[  0.         -75.14768165]
 [  0.1         -2.61560916]
 [  0.2        -59.30318173]
 [  0.25666667 -18.46762736]]","[[0.         1.61991752]
 [0.1        1.85762338]
 [0.2        1.4379908 ]
 [0.25666667 1.77571767]]",0,0.393
8749218289,f,19,french,4,5,french,2024-02-01 10:33:05.924446,False,2,292,sounds\french\audio/french_351.wav,"[[  0.         -22.87012194]
 [  0.1         10.68995272]
 [  0.2         60.8101445 ]
 [  0.25666667  32.12752515]]","[[0.         0.67033139]
 [0.1        0.80045466]
 [0.2        0.88778875]
 [0.25666667 0.26390259]]",0,0.622
8749218289,f,19,french,4,5,french,2024-02-01 10:33:05.924446,False,2,293,sounds\french\audio/french_358.wav,"[[  0.         -21.88755711]
 [  0.1         -5.628981  ]
 [  0.2        -60.01307733]
 [  0.25666667  65.58947466]]","[[0.         1.21014447]
 [0.1        1.2650669 ]
 [0.2        0.97277603]
 [0.25666667 0.28969343]]",1,0.433
8749218289,f,19,french,4,5,french,2024-02-01 10:33:05.924446,False,2,294,sounds\french\audio/french_587.wav,"[[  0.         -75.34784911]
 [  0.1         20.53880501]
 [  0.2        -66.82934855]
 [  0.25666667   0.42354047]]","[[0.         1.71069253]
 [0.1        1.37718063]
 [0.2        1.47865121]
 [0.25666667 1.29460257]]",0,0.322
8749218289,f,19,french,4,5,french,2024-02-01 10:33:05.924446,False,2,295,sounds\french\audio/french_891.wav,"[[ 0.         36.15157251]
 [ 0.1         9.92087077]
 [ 0.2        64.79051962]
 [ 0.25666667 25.43576317]]","[[0.         0.11830574]
 [0.1        0.00778599]
 [0.2        0.40739404]
 [0.25666667 0.71071781]]",1,0.569
8749218289,f,19,french,4,5,french,2024-02-01 10:33:05.924446,False,2,296,sounds\french\audio/french_138.wav,"[[  0.          52.19266886]
 [  0.1        -20.87110469]
 [  0.2        -63.85285305]
 [  0.25666667  35.09837538]]","[[0.         1.6075583 ]
 [0.1        1.57175316]
 [0.2        0.73019834]
 [0.25666667 0.12473077]]",1,0.534
8749218289,f,19,french,4,5,french,2024-02-01 10:33:05.924446,False,2,297,sounds\french\audio/french_168.wav,"[[  0.         -23.56976883]
 [  0.1         67.89102786]
 [  0.2         12.82073925]
 [  0.25666667 -47.11825728]]","[[0.         0.91307932]
 [0.1        0.95001528]
 [0.2        0.95057972]
 [0.25666667 1.60486422]]",0,0.458
8749218289,f,19,french,4,5,french,2024-02-01 10:33:05.924446,False,2,298,sounds\french\audio/french_468.wav,"[[  0.          62.98081683]
 [  0.1        -56.79667237]
 [  0.2         16.07172023]
 [  0.25666667  67.64788087]]","[[0.         0.39126421]
 [0.1        1.86845908]
 [0.2        0.61680923]
 [0.25666667 0.75086704]]",0,0.611
8749218289,f,19,french,4,5,french,2024-02-01 10:33:05.924446,False,2,299,sounds\french\audio/french_573.wav,"[[  0.         -82.60587544]
 [  0.1         24.10475325]
 [  0.2         12.83458345]
 [  0.25666667 -92.36985106]]","[[0.         1.7811252 ]
 [0.1        1.67511136]
 [0.2        1.07369657]
 [0.25666667 0.78659629]]",0,0.387
8749218289,f,19,french,4,5,french,2024-02-01 10:33:05.924446,False,2,300,sounds\french\audio/french_393.wav,"[[  0.          -4.17853165]
 [  0.1        -52.7672758 ]
 [  0.2        -35.65632354]
 [  0.25666667 -38.23501308]]","[[0.         1.11841435]
 [0.1        1.14982518]
 [0.2        1.99911749]
 [0.25666667 0.07284053]]",0,0.434
8749218289,f,19,french,4,5,french,2024-02-01 10:33:05.924446,False,2,301,sounds\french\audio/french_595.wav,"[[  0.         -73.15061419]
 [  0.1         67.23643261]
 [  0.2         29.33444659]
 [  0.25666667 -65.67909684]]","[[0.         1.40746522]
 [0.1        0.48150889]
 [0.2        0.65461581]
 [0.25666667 0.62395538]]",1,0.487
8749218289,f,19,french,4,5,french,2024-02-01 10:33:05.924446,False,2,302,sounds\french\audio/french_216.wav,"[[  0.          94.47877999]
 [  0.1        -35.64680956]
 [  0.2         -6.49582042]
 [  0.25666667  88.58272088]]","[[0.         1.14166801]
 [0.1        0.96477388]
 [0.2        1.30348701]
 [0.25666667 1.4092971 ]]",1,0.789
8749218289,f,19,french,4,5,french,2024-02-01 10:33:05.924446,False,2,303,sounds\french\audio/french_945.wav,"[[  0.         -68.75533602]
 [  0.1        -70.31736245]
 [  0.2         30.11750803]
 [  0.25666667 -35.89247017]]","[[0.         0.74886616]
 [0.1        1.09629777]
 [0.2        0.8052417 ]
 [0.25666667 0.22664311]]",1,0.942
8749218289,f,19,french,4,5,french,2024-02-01 10:33:05.924446,False,2,304,sounds\french\audio/french_235.wav,"[[  0.         -56.36701875]
 [  0.1        -33.99236587]
 [  0.2          5.32608114]
 [  0.25666667 -55.46298983]]","[[0.         1.31563667]
 [0.1        1.74570455]
 [0.2        1.41652928]
 [0.25666667 0.87975081]]",1,0.583
8749218289,f,19,french,4,5,french,2024-02-01 10:33:05.924446,False,2,305,sounds\french\audio/french_513.wav,"[[  0.          84.63539274]
 [  0.1         36.6114333 ]
 [  0.2         14.49628471]
 [  0.25666667 -17.17346171]]","[[0.         1.68726635]
 [0.1        0.88690679]
 [0.2        0.37350839]
 [0.25666667 1.74122924]]",0,0.574
8749218289,f,19,french,4,5,french,2024-02-01 10:33:05.924446,False,2,306,sounds\french\audio/french_840.wav,"[[  0.          13.6338747 ]
 [  0.1        -48.5646874 ]
 [  0.2        -42.92936875]
 [  0.25666667 -22.57825883]]","[[0.         1.10667495]
 [0.1        1.60365116]
 [0.2        0.82861267]
 [0.25666667 0.56371323]]",0,0.442
8749218289,f,19,french,4,5,french,2024-02-01 10:33:05.924446,False,2,307,sounds\french\audio/french_70.wav,"[[  0.          24.17054112]
 [  0.1        -33.49200779]
 [  0.2        -94.66214176]
 [  0.25666667  65.90688931]]","[[0.         1.64784081]
 [0.1        0.51465366]
 [0.2        1.24573935]
 [0.25666667 1.78963367]]",0,1.178
8749218289,f,19,french,4,5,french,2024-02-01 10:33:05.924446,False,2,308,sounds\french\audio/french_914.wav,"[[  0.         -34.97252921]
 [  0.1        -72.63984802]
 [  0.2        -17.99574982]
 [  0.25666667  97.045673  ]]","[[0.         0.97835832]
 [0.1        0.99245682]
 [0.2        1.64333977]
 [0.25666667 1.63101446]]",1,0.373
8749218289,f,19,french,4,5,french,2024-02-01 10:33:05.924446,False,2,309,sounds\french\audio/french_607.wav,"[[  0.          86.31857573]
 [  0.1        -46.02697415]
 [  0.2         45.41214831]
 [  0.25666667  58.05056059]]","[[0.         1.61060215]
 [0.1        1.76940735]
 [0.2        0.70600977]
 [0.25666667 0.79164166]]",0,0.384
8749218289,f,19,french,4,5,french,2024-02-01 10:33:05.924446,False,2,310,sounds\french\audio/french_704.wav,"[[  0.          47.78235411]
 [  0.1        -55.43932   ]
 [  0.2         -4.4200676 ]
 [  0.25666667  92.51428674]]","[[0.         1.53952375]
 [0.1        1.15285736]
 [0.2        1.9057017 ]
 [0.25666667 1.54517481]]",0,0.429
8749218289,f,19,french,4,5,french,2024-02-01 10:33:05.924446,False,2,311,sounds\french\audio/french_639.wav,"[[  0.          11.64385005]
 [  0.1        -83.53772589]
 [  0.2        -26.70113898]
 [  0.25666667 -28.21717215]]","[[0.         1.86180111]
 [0.1        1.31531339]
 [0.2        0.16484712]
 [0.25666667 0.08923993]]",0,0.606
8749218289,f,19,french,4,5,french,2024-02-01 10:33:05.924446,False,2,312,sounds\french\audio/french_748.wav,"[[  0.          66.19282508]
 [  0.1        -81.39884416]
 [  0.2         72.72612179]
 [  0.25666667  76.03481505]]","[[0.         0.41357469]
 [0.1        1.04952   ]
 [0.2        1.37113635]
 [0.25666667 1.54211369]]",0,0.835
8749218289,f,19,french,4,5,french,2024-02-01 10:33:05.924446,False,2,313,sounds\french\audio/french_745.wav,"[[  0.         -23.86566831]
 [  0.1        -33.24912316]
 [  0.2         45.69666298]
 [  0.25666667 -83.60192647]]","[[0.         1.27696082]
 [0.1        1.44075169]
 [0.2        0.50413087]
 [0.25666667 0.37289443]]",0,0.514
8749218289,f,19,french,4,5,french,2024-02-01 10:33:05.924446,False,2,314,sounds\french\audio/french_744.wav,"[[  0.          20.71284991]
 [  0.1         43.41893938]
 [  0.2         65.94530402]
 [  0.25666667 -59.234779  ]]","[[0.         1.22360564]
 [0.1        1.58460028]
 [0.2        0.38406236]
 [0.25666667 0.69273959]]",0,0.591
8749218289,f,19,french,4,5,french,2024-02-01 10:33:05.924446,False,2,315,sounds\french\audio/french_746.wav,"[[  0.         -21.92593336]
 [  0.1        -33.34916741]
 [  0.2         -5.0291103 ]
 [  0.25666667 -67.6368859 ]]","[[0.         0.5521476 ]
 [0.1        1.58954792]
 [0.2        0.89586439]
 [0.25666667 0.35939035]]",0,0.629
8749218289,f,19,french,4,5,french,2024-02-01 10:33:05.924446,False,2,316,sounds\french\audio/french_352.wav,"[[ 0.         74.68489003]
 [ 0.1        96.39949195]
 [ 0.2        90.64764472]
 [ 0.25666667 65.55341103]]","[[0.         0.29948735]
 [0.1        0.51724136]
 [0.2        1.48158799]
 [0.25666667 0.97952247]]",0,0.668
8749218289,f,19,french,4,5,french,2024-02-01 10:33:05.924446,False,2,317,sounds\french\audio/french_183.wav,"[[  0.         -70.39448934]
 [  0.1         53.65669982]
 [  0.2         -2.56135136]
 [  0.25666667  49.12124255]]","[[0.         1.64690622]
 [0.1        0.19500459]
 [0.2        1.70333754]
 [0.25666667 0.71175446]]",1,0.483
8749218289,f,19,french,4,5,french,2024-02-01 10:33:05.924446,False,2,318,sounds\french\audio/french_337.wav,"[[  0.         -97.64468947]
 [  0.1        -70.83087303]
 [  0.2        -48.67995381]
 [  0.25666667 -82.84031791]]","[[0.         0.15620351]
 [0.1        1.65716961]
 [0.2        0.82507575]
 [0.25666667 0.89595203]]",0,0.589
8749218289,f,19,french,4,5,french,2024-02-01 10:33:05.924446,False,2,319,sounds\french\audio/french_67.wav,"[[  0.         -85.58948589]
 [  0.1         13.09838054]
 [  0.2        -56.56906679]
 [  0.25666667  57.4599261 ]]","[[0.         0.63200809]
 [0.1        1.95867716]
 [0.2        0.48937635]
 [0.25666667 1.24156625]]",1,0.642
8749218289,f,19,french,4,5,french,2024-02-01 10:33:05.924446,False,2,320,sounds\french\audio/french_888.wav,"[[  0.          -7.09076065]
 [  0.1         62.1549683 ]
 [  0.2        -14.42714579]
 [  0.25666667 -85.6987995 ]]","[[0.         0.01679895]
 [0.1        1.75942782]
 [0.2        0.28698877]
 [0.25666667 1.72009857]]",1,0.75
8749218289,f,19,french,4,5,french,2024-02-01 10:33:05.924446,False,2,321,sounds\french\audio/french_30.wav,"[[ 0.         76.62673318]
 [ 0.1        68.4553342 ]
 [ 0.2        55.51592845]
 [ 0.25666667 80.18190702]]","[[0.         0.98317975]
 [0.1        1.99903841]
 [0.2        1.19167606]
 [0.25666667 0.01328513]]",1,0.396
8749218289,f,19,french,4,5,french,2024-02-01 10:33:05.924446,False,2,322,sounds\french\audio/french_834.wav,"[[  0.         -86.08965853]
 [  0.1         69.78931281]
 [  0.2        -42.1324214 ]
 [  0.25666667 -13.11810425]]","[[0.         1.35817583]
 [0.1        0.2902945 ]
 [0.2        0.84488429]
 [0.25666667 0.59655356]]",0,0.791
8749218289,f,19,french,4,5,french,2024-02-01 10:33:05.924446,False,2,323,sounds\french\audio/french_810.wav,"[[  0.          76.35600219]
 [  0.1         33.05643104]
 [  0.2         14.69103946]
 [  0.25666667 -16.26362119]]","[[0.         0.51042634]
 [0.1        0.40354819]
 [0.2        0.8135704 ]
 [0.25666667 0.38644961]]",0,0.303
8749218289,f,19,french,4,5,french,2024-02-01 10:33:05.924446,False,2,324,sounds\french\audio/french_262.wav,"[[  0.         -64.23156272]
 [  0.1        -18.68430003]
 [  0.2        -74.67542291]
 [  0.25666667  29.36963449]]","[[0.         0.64961321]
 [0.1        0.97192609]
 [0.2        0.40249154]
 [0.25666667 0.8696964 ]]",1,0.234
8749218289,f,19,french,4,5,french,2024-02-01 10:33:05.924446,False,2,325,sounds\french\audio/french_824.wav,"[[  0.          95.58094713]
 [  0.1        -47.05258515]
 [  0.2         43.18521816]
 [  0.25666667  -5.69582576]]","[[0.         1.84230129]
 [0.1        1.74244762]
 [0.2        1.04703492]
 [0.25666667 0.75358401]]",0,0.129
8749218289,f,19,french,4,5,french,2024-02-01 10:33:05.924446,False,2,326,sounds\french\audio/french_358.wav,"[[  0.         -21.88755711]
 [  0.1         -5.628981  ]
 [  0.2        -60.01307733]
 [  0.25666667  65.58947466]]","[[0.         1.21014447]
 [0.1        1.2650669 ]
 [0.2        0.97277603]
 [0.25666667 0.28969343]]",1,0.476
8749218289,f,19,french,4,5,french,2024-02-01 10:33:05.924446,False,2,327,sounds\french\audio/french_870.wav,"[[ 0.         93.84124937]
 [ 0.1        28.95893835]
 [ 0.2        47.67512023]
 [ 0.25666667 -4.48390189]]","[[0.         1.21813626]
 [0.1        0.388995  ]
 [0.2        1.25544279]
 [0.25666667 0.09184868]]",1,0.202
8749218289,f,19,french,4,5,french,2024-02-01 10:33:05.924446,False,2,328,sounds\french\audio/french_770.wav,"[[  0.          28.65055954]
 [  0.1        -72.95217839]
 [  0.2        -37.01197006]
 [  0.25666667  17.9887053 ]]","[[0.         1.27945621]
 [0.1        1.48453538]
 [0.2        1.47789059]
 [0.25666667 1.81501711]]",0,0.738
8749218289,f,19,french,4,5,french,2024-02-01 10:33:05.924446,False,2,329,sounds\french\audio/french_478.wav,"[[  0.          83.43470999]
 [  0.1         -2.90020724]
 [  0.2          3.04122674]
 [  0.25666667 -16.94968741]]","[[0.         1.59134243]
 [0.1        1.87737404]
 [0.2        1.09323353]
 [0.25666667 0.48225636]]",0,0.382
8749218289,f,19,french,4,5,french,2024-02-01 10:33:05.924446,False,2,330,sounds\french\audio/french_188.wav,"[[  0.          49.6210254 ]
 [  0.1        -51.2490581 ]
 [  0.2         40.00177065]
 [  0.25666667  -3.28540475]]","[[0.         1.07409835]
 [0.1        0.05018037]
 [0.2        1.57813661]
 [0.25666667 0.4516863 ]]",0,0.552
8749218289,f,19,french,4,5,french,2024-02-01 10:33:05.924446,False,2,331,sounds\french\audio/french_456.wav,"[[  0.         -27.91969988]
 [  0.1         -6.9905469 ]
 [  0.2          7.34213132]
 [  0.25666667 -16.30576404]]","[[0.         0.874098  ]
 [0.1        0.40632282]
 [0.2        0.88508218]
 [0.25666667 1.43350061]]",1,0.393
8749218289,f,19,french,4,5,french,2024-02-01 10:33:05.924446,False,2,332,sounds\french\audio/french_858.wav,"[[  0.         -70.8749608 ]
 [  0.1        -68.92821451]
 [  0.2         48.1063746 ]
 [  0.25666667   0.98463207]]","[[0.         0.88986318]
 [0.1        0.34092676]
 [0.2        0.38776381]
 [0.25666667 1.26771376]]",0,2.325
8749218289,f,19,french,4,5,french,2024-02-01 10:33:05.924446,False,2,333,sounds\french\audio/french_808.wav,"[[  0.         -62.09526538]
 [  0.1         21.23234707]
 [  0.2        -93.15759374]
 [  0.25666667 -35.4638748 ]]","[[0.         1.28254738]
 [0.1        0.50843795]
 [0.2        0.88416038]
 [0.25666667 1.60061847]]",1,0.95
8749218289,f,19,french,4,5,french,2024-02-01 10:33:05.924446,False,2,334,sounds\french\audio/french_409.wav,"[[  0.         -85.45925867]
 [  0.1        -75.83462931]
 [  0.2        -81.34632848]
 [  0.25666667  -4.23490283]]","[[0.         0.92391671]
 [0.1        0.55779761]
 [0.2        1.04156293]
 [0.25666667 0.8536223 ]]",0,0.419
8749218289,f,19,french,4,5,french,2024-02-01 10:33:05.924446,False,2,335,sounds\french\audio/french_244.wav,"[[  0.          -1.19097064]
 [  0.1        -92.85229973]
 [  0.2        -96.93666457]
 [  0.25666667 -48.92774089]]","[[0.         0.99374935]
 [0.1        0.05831089]
 [0.2        1.01399938]
 [0.25666667 0.05507298]]",1,0.46
8749218289,f,19,french,4,5,french,2024-02-01 10:33:05.924446,False,2,336,sounds\french\audio/french_350.wav,"[[  0.         -94.89147327]
 [  0.1        -69.96874844]
 [  0.2        -41.05008416]
 [  0.25666667  27.21030297]]","[[0.         1.34276454]
 [0.1        1.56346818]
 [0.2        0.76037532]
 [0.25666667 1.08356683]]",1,0.293
8749218289,f,19,french,4,5,french,2024-02-01 10:33:05.924446,False,2,337,sounds\french\audio/french_474.wav,"[[  0.          94.09836303]
 [  0.1         43.08248712]
 [  0.2        -98.14389097]
 [  0.25666667 -80.28643924]]","[[0.         0.01406103]
 [0.1        1.41739343]
 [0.2        1.7994516 ]
 [0.25666667 0.15166218]]",1,0.625
8749218289,f,19,french,4,5,french,2024-02-01 10:33:05.924446,False,2,338,sounds\french\audio/french_849.wav,"[[  0.         -28.99181256]
 [  0.1        -23.83365043]
 [  0.2        -51.88410218]
 [  0.25666667 -29.11212869]]","[[0.         1.60316931]
 [0.1        0.33831848]
 [0.2        1.05589654]
 [0.25666667 1.53017224]]",1,0.366
8749218289,f,19,french,4,5,french,2024-02-01 10:33:05.924446,False,2,339,sounds\french\audio/french_315.wav,"[[ 0.00000000e+00  8.45751695e+01]
 [ 1.00000000e-01 -5.49339599e+01]
 [ 2.00000000e-01 -2.04659381e+01]
 [ 2.56666667e-01  4.97627412e-02]]","[[0.         1.39276289]
 [0.1        0.42909402]
 [0.2        1.80166787]
 [0.25666667 1.01422067]]",0,0.156
8749218289,f,19,french,4,5,french,2024-02-01 10:33:05.924446,False,2,340,sounds\french\audio/french_661.wav,"[[  0.          34.1047988 ]
 [  0.1        -45.42737183]
 [  0.2        -32.96226792]
 [  0.25666667  51.87575508]]","[[0.         1.29957539]
 [0.1        0.81809843]
 [0.2        1.39938296]
 [0.25666667 1.33634107]]",0,0.218
8749218289,f,19,french,4,5,french,2024-02-01 10:33:05.924446,False,2,341,sounds\french\audio/french_759.wav,"[[  0.          43.66892012]
 [  0.1         28.75822808]
 [  0.2        -53.65094598]
 [  0.25666667 -79.66264825]]","[[0.         0.9017147 ]
 [0.1        1.01118462]
 [0.2        1.43326948]
 [0.25666667 0.32927354]]",0,0.339
8749218289,f,19,french,4,5,french,2024-02-01 10:33:05.924446,False,2,342,sounds\french\audio/french_756.wav,"[[  0.          35.62001521]
 [  0.1         29.8199127 ]
 [  0.2         -2.36977437]
 [  0.25666667 -73.14220453]]","[[0.         0.86430693]
 [0.1        1.17673467]
 [0.2        1.63370718]
 [0.25666667 1.98740672]]",0,0.564
8749218289,f,19,french,4,5,french,2024-02-01 10:33:05.924446,False,2,343,sounds\french\audio/french_698.wav,"[[  0.          77.87531809]
 [  0.1        -26.89699032]
 [  0.2        -54.93316964]
 [  0.25666667 -94.94644501]]","[[0.         1.86418809]
 [0.1        0.30357323]
 [0.2        1.97458381]
 [0.25666667 1.01877906]]",0,0.28
8749218289,f,19,french,4,5,french,2024-02-01 10:33:05.924446,False,2,344,sounds\french\audio/french_8.wav,"[[ 0.         75.36204911]
 [ 0.1        99.77980072]
 [ 0.2        31.87407215]
 [ 0.25666667 -3.14162979]]","[[0.         1.20802323]
 [0.1        1.04694521]
 [0.2        1.95307637]
 [0.25666667 0.34441347]]",0,0.208
8749218289,f,19,french,4,5,french,2024-02-01 10:33:05.924446,False,2,345,sounds\french\audio/french_496.wav,"[[  0.          95.35910422]
 [  0.1         -6.65722592]
 [  0.2         -0.21871516]
 [  0.25666667 -55.34055424]]","[[0.         1.71732874]
 [0.1        0.79073406]
 [0.2        0.34583293]
 [0.25666667 0.39020762]]",1,0.407
8749218289,f,19,french,4,5,french,2024-02-01 10:33:05.924446,False,2,346,sounds\french\audio/french_875.wav,"[[  0.         -21.85805239]
 [  0.1         89.69626046]
 [  0.2        -30.27044373]
 [  0.25666667  34.72149061]]","[[0.         1.53415162]
 [0.1        1.00812403]
 [0.2        0.85877698]
 [0.25666667 1.23447623]]",1,0.462
8749218289,f,19,french,4,5,french,2024-02-01 10:33:05.924446,False,2,347,sounds\french\audio/french_556.wav,"[[  0.          57.69742807]
 [  0.1         74.69192241]
 [  0.2        -92.88512431]
 [  0.25666667  27.11476112]]","[[0.         1.23910924]
 [0.1        0.49477788]
 [0.2        1.56323012]
 [0.25666667 1.7455964 ]]",0,0.266
8749218289,f,19,french,4,5,french,2024-02-01 10:33:05.924446,False,2,348,sounds\french\audio/french_53.wav,"[[  0.          -2.35814843]
 [  0.1        -48.73544303]
 [  0.2         38.27016364]
 [  0.25666667 -31.96265424]]","[[0.         1.83928924]
 [0.1        0.78912936]
 [0.2        0.60668558]
 [0.25666667 0.83130548]]",1,0.603
8749218289,f,19,french,4,5,french,2024-02-01 10:33:05.924446,False,2,349,sounds\french\audio/french_99.wav,"[[ 0.         82.47343156]
 [ 0.1        79.23143861]
 [ 0.2        34.81001375]
 [ 0.25666667 28.26612214]]","[[0.         0.8791919 ]
 [0.1        0.93561146]
 [0.2        1.15477002]
 [0.25666667 0.77336938]]",0,0.319
8749218289,f,19,french,4,5,french,2024-02-01 10:33:05.924446,False,2,350,sounds\french\audio/french_697.wav,"[[  0.         -19.8565912 ]
 [  0.1        -16.18456076]
 [  0.2        -70.77550193]
 [  0.25666667 -81.21106402]]","[[0.         1.89587242]
 [0.1        0.49072185]
 [0.2        1.8362568 ]
 [0.25666667 0.50078837]]",0,0.634
8749218289,f,19,french,4,5,french,2024-02-01 10:33:05.924446,False,2,351,sounds\french\audio/french_176.wav,"[[  0.           0.09776701]
 [  0.1         32.80523404]
 [  0.2         16.78979069]
 [  0.25666667 -52.73391922]]","[[0.         1.90735666]
 [0.1        1.52678684]
 [0.2        1.98703072]
 [0.25666667 1.7200077 ]]",0,0.307
8749218289,f,19,french,4,5,french,2024-02-01 10:33:05.924446,False,2,352,sounds\french\audio/french_58.wav,"[[  0.         -93.60375949]
 [  0.1        -58.1861341 ]
 [  0.2         21.81225572]
 [  0.25666667 -92.64730678]]","[[0.         1.5756198 ]
 [0.1        0.16904688]
 [0.2        0.76612631]
 [0.25666667 0.1809539 ]]",0,0.431
8749218289,f,19,french,4,5,french,2024-02-01 10:33:05.924446,False,2,353,sounds\french\audio/french_347.wav,"[[  0.         -50.57249908]
 [  0.1         -0.96259157]
 [  0.2         56.28626554]
 [  0.25666667  46.89576118]]","[[0.         1.7558536 ]
 [0.1        0.42717605]
 [0.2        1.32943016]
 [0.25666667 0.4771217 ]]",0,0.351
8749218289,f,19,french,4,5,french,2024-02-01 10:33:05.924446,False,2,354,sounds\french\audio/french_474.wav,"[[  0.          94.09836303]
 [  0.1         43.08248712]
 [  0.2        -98.14389097]
 [  0.25666667 -80.28643924]]","[[0.         0.01406103]
 [0.1        1.41739343]
 [0.2        1.7994516 ]
 [0.25666667 0.15166218]]",1,0.654
8749218289,f,19,french,4,5,french,2024-02-01 10:33:05.924446,False,2,355,sounds\french\audio/french_881.wav,"[[  0.         -25.82648211]
 [  0.1         13.08751975]
 [  0.2        -84.06590477]
 [  0.25666667 -28.7935441 ]]","[[0.         0.15296837]
 [0.1        1.42149925]
 [0.2        1.29281362]
 [0.25666667 1.41538706]]",0,0.766
8749218289,f,19,french,4,5,french,2024-02-01 10:33:05.924446,False,2,356,sounds\french\audio/french_498.wav,"[[  0.           4.68377609]
 [  0.1        -15.28708952]
 [  0.2         12.01036293]
 [  0.25666667   2.49690218]]","[[0.         1.22559932]
 [0.1        1.70630703]
 [0.2        0.54123502]
 [0.25666667 0.39602685]]",0,0.409
8749218289,f,19,french,4,5,french,2024-02-01 10:33:05.924446,False,2,357,sounds\french\audio/french_379.wav,"[[  0.          22.44752401]
 [  0.1         26.97339804]
 [  0.2         53.43729248]
 [  0.25666667 -63.2778902 ]]","[[0.         1.77059304]
 [0.1        0.69418911]
 [0.2        0.76703539]
 [0.25666667 0.57510346]]",0,0.366
8749218289,f,19,french,4,5,french,2024-02-01 10:33:05.924446,False,2,358,sounds\french\audio/french_170.wav,"[[  0.          33.63406691]
 [  0.1        -66.14633185]
 [  0.2        -74.26701986]
 [  0.25666667  32.33295865]]","[[0.         1.37140183]
 [0.1        0.98919038]
 [0.2        1.38629831]
 [0.25666667 0.43392523]]",0,0.407
8749218289,f,19,french,4,5,french,2024-02-01 10:33:05.924446,False,2,359,sounds\french\audio/french_712.wav,"[[  0.          -3.12485416]
 [  0.1        -57.65062989]
 [  0.2        -16.00980978]
 [  0.25666667  99.38372731]]","[[0.         1.03174297]
 [0.1        0.08357112]
 [0.2        0.04422576]
 [0.25666667 1.3735066 ]]",1,0.62
8749218289,f,19,french,4,5,french,2024-02-01 10:33:05.924446,False,2,360,sounds\french\audio/french_807.wav,"[[  0.          41.22965042]
 [  0.1         55.45523643]
 [  0.2        -56.08981041]
 [  0.25666667  27.67304414]]","[[0.         0.26309645]
 [0.1        0.30227962]
 [0.2        0.58983644]
 [0.25666667 1.26996728]]",1,0.461
8749218289,f,19,french,4,5,french,2024-02-01 10:33:05.924446,False,2,361,sounds\french\audio/french_115.wav,"[[  0.          79.30886426]
 [  0.1         38.64809671]
 [  0.2         24.58912206]
 [  0.25666667 -50.07125558]]","[[0.         0.55665137]
 [0.1        1.15526328]
 [0.2        1.92727625]
 [0.25666667 0.36414304]]",1,0.479
8749218289,f,19,french,4,5,french,2024-02-01 10:33:05.924446,False,2,362,sounds\french\audio/french_348.wav,"[[  0.          68.47734878]
 [  0.1         54.05190865]
 [  0.2          0.19125453]
 [  0.25666667 -34.65909089]]","[[0.         1.61227716]
 [0.1        0.93770463]
 [0.2        1.53689085]
 [0.25666667 1.17337711]]",1,0.373
8749218289,f,19,french,4,5,french,2024-02-01 10:33:05.924446,False,2,363,sounds\french\audio/french_555.wav,"[[  0.         -94.33978787]
 [  0.1         93.76530939]
 [  0.2         60.24178239]
 [  0.25666667  52.06264798]]","[[0.         0.59318307]
 [0.1        0.913599  ]
 [0.2        1.32127388]
 [0.25666667 1.40091244]]",1,0.378
8749218289,f,19,french,4,5,french,2024-02-01 10:33:05.924446,False,2,364,sounds\french\audio/french_882.wav,"[[  0.         -76.64131244]
 [  0.1        -39.91871486]
 [  0.2        -10.31613543]
 [  0.25666667  20.39966841]]","[[0.         0.67668261]
 [0.1        0.28498495]
 [0.2        0.59130788]
 [0.25666667 1.12904738]]",1,0.499
8749218289,f,19,french,4,5,french,2024-02-01 10:33:05.924446,False,2,365,sounds\french\audio/french_654.wav,"[[  0.           4.75004181]
 [  0.1        -26.31758413]
 [  0.2          5.97151275]
 [  0.25666667 -86.03507884]]","[[0.         0.71611878]
 [0.1        1.28432707]
 [0.2        0.58455266]
 [0.25666667 1.03676738]]",1,0.5
8749218289,f,19,french,4,5,french,2024-02-01 10:33:05.924446,False,2,366,sounds\french\audio/french_257.wav,"[[  0.           1.27289853]
 [  0.1         62.04423448]
 [  0.2         19.88889926]
 [  0.25666667 -46.96649461]]","[[0.         1.18383926]
 [0.1        0.46495515]
 [0.2        0.91766752]
 [0.25666667 1.75135473]]",0,0.392
8749218289,f,19,french,4,5,french,2024-02-01 10:33:05.924446,False,2,367,sounds\french\audio/french_931.wav,"[[  0.          64.75046939]
 [  0.1        -55.9473081 ]
 [  0.2         32.85596214]
 [  0.25666667 -89.33798771]]","[[0.         1.51932084]
 [0.1        1.08335674]
 [0.2        0.78781639]
 [0.25666667 0.66435238]]",0,0.389
8749218289,f,19,french,4,5,french,2024-02-01 10:33:05.924446,False,2,368,sounds\french\audio/french_150.wav,"[[  0.           8.70975457]
 [  0.1        -27.10460474]
 [  0.2        -81.59186784]
 [  0.25666667 -72.54184128]]","[[0.         0.6151883 ]
 [0.1        1.35739255]
 [0.2        1.42530839]
 [0.25666667 0.64697028]]",0,0.414
8749218289,f,19,french,4,5,french,2024-02-01 10:33:05.924446,False,2,369,sounds\french\audio/french_488.wav,"[[  0.          83.09023231]
 [  0.1         31.08155804]
 [  0.2         23.00603586]
 [  0.25666667 -14.42068905]]","[[0.         0.61404301]
 [0.1        1.79467821]
 [0.2        0.24163263]
 [0.25666667 1.80620701]]",0,0.486
8749218289,f,19,french,4,5,french,2024-02-01 10:33:05.924446,False,2,370,sounds\french\audio/french_397.wav,"[[  0.         -13.81470081]
 [  0.1         50.38281738]
 [  0.2         50.22980228]
 [  0.25666667 -83.86271009]]","[[0.         1.26162917]
 [0.1        1.19612478]
 [0.2        1.02842354]
 [0.25666667 0.53389444]]",0,0.51
8749218289,f,19,french,4,5,french,2024-02-01 10:33:05.924446,False,2,371,sounds\french\audio/french_125.wav,"[[  0.          -5.4163583 ]
 [  0.1        -78.82020266]
 [  0.2          7.21605105]
 [  0.25666667 -41.55982592]]","[[0.         1.55997732]
 [0.1        1.46538696]
 [0.2        1.19887704]
 [0.25666667 1.01520467]]",1,0.461
8749218289,f,19,french,4,5,french,2024-02-01 10:33:05.924446,False,2,372,sounds\french\audio/french_469.wav,"[[  0.          66.71351684]
 [  0.1        -62.03219977]
 [  0.2          3.50074433]
 [  0.25666667  58.03584826]]","[[0.         0.70736983]
 [0.1        0.37939516]
 [0.2        0.65236   ]
 [0.25666667 0.94960182]]",1,0.884
8749218289,f,19,french,4,5,french,2024-02-01 10:33:05.924446,False,2,373,sounds\french\audio/french_976.wav,"[[  0.         -70.02335232]
 [  0.1        -61.25816472]
 [  0.2         38.21349803]
 [  0.25666667  27.10323863]]","[[0.         0.30263581]
 [0.1        1.77513966]
 [0.2        0.48920434]
 [0.25666667 1.97348905]]",0,0.317
8749218289,f,19,french,4,5,french,2024-02-01 10:33:05.924446,False,2,374,sounds\french\audio/french_926.wav,"[[  0.         -38.30420493]
 [  0.1        -97.26803886]
 [  0.2         55.3544282 ]
 [  0.25666667   8.78644418]]","[[0.         1.0266732 ]
 [0.1        0.03873156]
 [0.2        0.32593073]
 [0.25666667 0.80695306]]",1,0.525
8749218289,f,19,french,4,5,french,2024-02-01 10:33:05.924446,False,2,375,sounds\french\audio/french_318.wav,"[[  0.          51.46520294]
 [  0.1         86.78866558]
 [  0.2        -10.27725715]
 [  0.25666667   9.68065634]]","[[0.         0.36120202]
 [0.1        0.00996795]
 [0.2        1.05940341]
 [0.25666667 1.37923943]]",1,0.449
8749218289,f,19,french,4,5,french,2024-02-01 10:33:05.924446,False,2,376,sounds\french\audio/french_842.wav,"[[  0.          74.80920959]
 [  0.1        -40.95587484]
 [  0.2         40.36105872]
 [  0.25666667 -80.22764814]]","[[0.         0.40194032]
 [0.1        0.66729024]
 [0.2        0.3355789 ]
 [0.25666667 0.97335266]]",1,0.373
8749218289,f,19,french,4,5,french,2024-02-01 10:33:05.924446,False,2,377,sounds\french\audio/french_744.wav,"[[  0.          20.71284991]
 [  0.1         43.41893938]
 [  0.2         65.94530402]
 [  0.25666667 -59.234779  ]]","[[0.         1.22360564]
 [0.1        1.58460028]
 [0.2        0.38406236]
 [0.25666667 0.69273959]]",0,0.291
8749218289,f,19,french,4,5,french,2024-02-01 10:33:05.924446,False,2,378,sounds\french\audio/french_308.wav,"[[  0.          10.28514005]
 [  0.1        -39.60290217]
 [  0.2         99.30719553]
 [  0.25666667  64.43745932]]","[[0.         0.92806529]
 [0.1        0.73191769]
 [0.2        0.07740888]
 [0.25666667 0.80481059]]",1,0.599
8749218289,f,19,french,4,5,french,2024-02-01 10:33:05.924446,False,2,379,sounds\french\audio/french_591.wav,"[[  0.           2.66615607]
 [  0.1        -24.26502045]
 [  0.2        -31.81388833]
 [  0.25666667  34.70768216]]","[[0.         1.05020949]
 [0.1        0.55521736]
 [0.2        0.20807215]
 [0.25666667 1.08119284]]",0,1.181
8749218289,f,19,french,4,5,french,2024-02-01 10:33:05.924446,False,2,380,sounds\french\audio/french_491.wav,"[[ 0.00000000e+00  4.86868680e+01]
 [ 1.00000000e-01 -4.81683993e+01]
 [ 2.00000000e-01 -4.23609681e+01]
 [ 2.56666667e-01  2.49582160e-02]]","[[0.         0.42969684]
 [0.1        1.38937301]
 [0.2        1.25630672]
 [0.25666667 0.04562268]]",0,0.567
8749218289,f,19,french,4,5,french,2024-02-01 10:33:05.924446,False,2,381,sounds\french\audio/french_241.wav,"[[ 0.         89.40240056]
 [ 0.1        40.19017079]
 [ 0.2         6.95264839]
 [ 0.25666667 60.0147698 ]]","[[0.         1.53101086]
 [0.1        0.22293869]
 [0.2        0.66477428]
 [0.25666667 1.1640228 ]]",1,0.34
8749218289,f,19,french,4,5,french,2024-02-01 10:33:05.924446,False,2,382,sounds\french\audio/french_368.wav,"[[  0.         -50.29275674]
 [  0.1        -46.19812301]
 [  0.2         11.95097834]
 [  0.25666667  56.55273669]]","[[0.         1.3762211 ]
 [0.1        0.86881993]
 [0.2        1.63580042]
 [0.25666667 0.08134077]]",0,1.037
8749218289,f,19,french,4,5,french,2024-02-01 10:33:05.924446,False,2,383,sounds\french\audio/french_620.wav,"[[  0.         -75.53708421]
 [  0.1          4.57362866]
 [  0.2        -79.19764782]
 [  0.25666667 -82.06470668]]","[[0.         1.75028991]
 [0.1        1.1712224 ]
 [0.2        1.92554269]
 [0.25666667 1.1477244 ]]",1,0.597
8749218289,f,19,french,4,5,french,2024-02-01 10:33:05.924446,False,2,384,sounds\french\audio/french_239.wav,"[[  0.          28.79978772]
 [  0.1        -73.21999651]
 [  0.2        -92.33353735]
 [  0.25666667 -92.59521946]]","[[0.         0.08316766]
 [0.1        0.38167469]
 [0.2        1.82525895]
 [0.25666667 1.04737586]]",0,0.417
8749218289,f,19,french,4,5,french,2024-02-01 10:33:05.924446,False,2,385,sounds\french\audio/french_621.wav,"[[  0.         -65.12133357]
 [  0.1        -34.98790471]
 [  0.2        -12.78608876]
 [  0.25666667  53.53170361]]","[[0.         1.7602607 ]
 [0.1        0.92649718]
 [0.2        1.46782633]
 [0.25666667 0.68266442]]",0,0.544
8749218289,f,19,french,4,5,french,2024-02-01 10:33:05.924446,False,2,386,sounds\french\audio/french_84.wav,"[[  0.         -54.85806939]
 [  0.1         52.61671493]
 [  0.2         -3.50081054]
 [  0.25666667 -40.76156086]]","[[0.         1.84853156]
 [0.1        1.627657  ]
 [0.2        1.36210905]
 [0.25666667 0.69575672]]",1,0.329
8749218289,f,19,french,4,5,french,2024-02-01 10:33:05.924446,False,2,387,sounds\french\audio/french_1000.wav,"[[  0.         -14.94486739]
 [  0.1         -3.70752284]
 [  0.2        -14.04083749]
 [  0.25666667 -29.27941665]]","[[0.         0.60674079]
 [0.1        0.18450848]
 [0.2        1.64475948]
 [0.25666667 0.26397745]]",1,0.809
8749218289,f,19,french,4,5,french,2024-02-01 10:33:05.924446,False,2,388,sounds\french\audio/french_986.wav,"[[  0.         -69.96795985]
 [  0.1        -65.30377544]
 [  0.2         27.38987225]
 [  0.25666667 -55.80740264]]","[[0.         1.93285955]
 [0.1        1.55838575]
 [0.2        0.12645153]
 [0.25666667 0.78072242]]",1,0.657
8749218289,f,19,french,4,5,french,2024-02-01 10:33:05.924446,False,2,389,sounds\french\audio/french_567.wav,"[[ 0.         27.43626477]
 [ 0.1        41.78362701]
 [ 0.2        54.76706712]
 [ 0.25666667 32.83264266]]","[[0.         1.24283832]
 [0.1        1.94246111]
 [0.2        1.04642714]
 [0.25666667 0.77358904]]",0,0.257
8749218289,f,19,french,4,5,french,2024-02-01 10:33:05.924446,False,2,390,sounds\french\audio/french_882.wav,"[[  0.         -76.64131244]
 [  0.1        -39.91871486]
 [  0.2        -10.31613543]
 [  0.25666667  20.39966841]]","[[0.         0.67668261]
 [0.1        0.28498495]
 [0.2        0.59130788]
 [0.25666667 1.12904738]]",0,0.346
8749218289,f,19,french,4,5,french,2024-02-01 10:33:05.924446,False,2,391,sounds\french\audio/french_737.wav,"[[  0.          13.02374388]
 [  0.1        -10.41694685]
 [  0.2        -16.29618142]
 [  0.25666667  15.62671798]]","[[0.         1.19502519]
 [0.1        0.96501463]
 [0.2        0.50712422]
 [0.25666667 0.54653665]]",0,0.522
8749218289,f,19,french,4,5,french,2024-02-01 10:33:05.924446,False,2,392,sounds\french\audio/french_959.wav,"[[  0.         -92.66274659]
 [  0.1         10.27191584]
 [  0.2        -51.62824615]
 [  0.25666667 -30.4370249 ]]","[[0.         1.46575448]
 [0.1        1.6425047 ]
 [0.2        0.28117244]
 [0.25666667 1.68634793]]",0,0.302
8749218289,f,19,french,4,5,french,2024-02-01 10:33:05.924446,False,2,393,sounds\french\audio/french_337.wav,"[[  0.         -97.64468947]
 [  0.1        -70.83087303]
 [  0.2        -48.67995381]
 [  0.25666667 -82.84031791]]","[[0.         0.15620351]
 [0.1        1.65716961]
 [0.2        0.82507575]
 [0.25666667 0.89595203]]",0,0.603
8749218289,f,19,french,4,5,french,2024-02-01 10:33:05.924446,False,2,394,sounds\french\audio/french_484.wav,"[[  0.          -9.6162674 ]
 [  0.1          9.27811619]
 [  0.2        -71.03065972]
 [  0.25666667 -29.12959292]]","[[0.         0.19772274]
 [0.1        0.11941549]
 [0.2        1.54802806]
 [0.25666667 1.03524562]]",1,0.569
8749218289,f,19,french,4,5,french,2024-02-01 10:33:05.924446,False,2,395,sounds\french\audio/french_292.wav,"[[  0.          -5.98307963]
 [  0.1        -89.4143915 ]
 [  0.2         50.82370108]
 [  0.25666667 -75.87081721]]","[[0.         1.30181039]
 [0.1        0.71580693]
 [0.2        0.58623796]
 [0.25666667 1.49080339]]",1,0.484
8749218289,f,19,french,4,5,french,2024-02-01 10:33:05.924446,False,2,396,sounds\french\audio/french_714.wav,"[[  0.          77.35355583]
 [  0.1        -16.5812175 ]
 [  0.2        -79.42314022]
 [  0.25666667  64.71981705]]","[[0.         0.35690042]
 [0.1        0.7400083 ]
 [0.2        1.17849399]
 [0.25666667 1.38365213]]",1,0.513
8749218289,f,19,french,4,5,french,2024-02-01 10:33:05.924446,False,2,397,sounds\french\audio/french_141.wav,"[[ 0.         88.60100695]
 [ 0.1        68.96819773]
 [ 0.2         1.7368606 ]
 [ 0.25666667 19.36556264]]","[[0.         0.97838459]
 [0.1        1.47503319]
 [0.2        1.40537453]
 [0.25666667 0.305772  ]]",1,0.449
8749218289,f,19,french,4,5,french,2024-02-01 10:33:05.924446,False,2,398,sounds\french\audio/french_436.wav,"[[  0.          21.52139078]
 [  0.1         91.02122448]
 [  0.2         28.53627776]
 [  0.25666667 -78.88687792]]","[[0.         0.27861971]
 [0.1        0.31750307]
 [0.2        0.35857003]
 [0.25666667 1.70163595]]",0,1.294
8749218289,f,19,french,4,5,french,2024-02-01 10:33:05.924446,False,2,399,sounds\french\audio/french_197.wav,"[[  0.          -6.69305154]
 [  0.1         23.33285596]
 [  0.2        -47.26714808]
 [  0.25666667 -64.80738279]]","[[0.         1.22063961]
 [0.1        0.20505699]
 [0.2        1.45150796]
 [0.25666667 0.00954455]]",1,0.358
8749218289,f,19,french,4,5,french,2024-02-01 10:33:05.924446,False,2,400,sounds\french\audio/french_811.wav,"[[  0.          35.12158591]
 [  0.1          4.09145181]
 [  0.2        -79.3353891 ]
 [  0.25666667 -59.5865152 ]]","[[0.         1.63803033]
 [0.1        0.91441893]
 [0.2        1.53056324]
 [0.25666667 1.20408751]]",0,0.535
8749218289,f,19,french,4,5,french,2024-02-01 10:33:05.924446,False,2,401,sounds\french\audio/french_309.wav,"[[  0.         -43.78964232]
 [  0.1         78.2069368 ]
 [  0.2        -31.15110399]
 [  0.25666667 -73.94684578]]","[[0.         0.29425556]
 [0.1        1.94220297]
 [0.2        1.27018493]
 [0.25666667 1.0788176 ]]",1,0.437
8749218289,f,19,french,4,5,french,2024-02-01 10:33:05.924446,False,2,402,sounds\french\audio/french_213.wav,"[[ 0.         18.19792563]
 [ 0.1        59.29536603]
 [ 0.2        83.4693574 ]
 [ 0.25666667 -3.87812814]]","[[0.         0.91602818]
 [0.1        0.93215034]
 [0.2        1.11468909]
 [0.25666667 1.61202928]]",1,0.732
8749218289,f,19,french,4,5,french,2024-02-01 10:33:05.924446,False,2,403,sounds\french\audio/french_726.wav,"[[  0.          24.00791096]
 [  0.1        -92.28715444]
 [  0.2        -14.16316682]
 [  0.25666667  30.70182153]]","[[0.         1.57962765]
 [0.1        0.67026409]
 [0.2        0.1799528 ]
 [0.25666667 1.72405897]]",0,0.372
8749218289,f,19,french,4,5,french,2024-02-01 10:33:05.924446,False,2,404,sounds\french\audio/french_554.wav,"[[  0.         -31.9650703 ]
 [  0.1         78.95364823]
 [  0.2         -0.5294376 ]
 [  0.25666667 -36.78296127]]","[[0.         1.45983082]
 [0.1        0.40013818]
 [0.2        0.96374115]
 [0.25666667 1.20732856]]",1,0.47
8749218289,f,19,french,4,5,french,2024-02-01 10:33:05.924446,False,2,405,sounds\french\audio/french_314.wav,"[[  0.         -41.28420355]
 [  0.1         38.91630458]
 [  0.2         24.93775916]
 [  0.25666667  33.33111791]]","[[0.         0.77087466]
 [0.1        0.23409115]
 [0.2        0.53304912]
 [0.25666667 0.84036245]]",0,0.64
8749218289,f,19,french,4,5,french,2024-02-01 10:33:05.924446,False,2,406,sounds\french\audio/french_108.wav,"[[  0.         -38.50953818]
 [  0.1         44.47590219]
 [  0.2         35.73303492]
 [  0.25666667 -90.35369633]]","[[0.         1.14488094]
 [0.1        1.3820118 ]
 [0.2        1.04224754]
 [0.25666667 1.51933791]]",0,0.593
8749218289,f,19,french,4,5,french,2024-02-01 10:33:05.924446,False,2,407,sounds\french\audio/french_908.wav,"[[  0.         -17.448813  ]
 [  0.1         35.46481843]
 [  0.2        -20.0899606 ]
 [  0.25666667 -29.56589343]]","[[0.         1.41004623]
 [0.1        0.76159164]
 [0.2        1.03892063]
 [0.25666667 1.03966959]]",0,0.648
8749218289,f,19,french,4,5,french,2024-02-01 10:33:05.924446,False,2,408,sounds\french\audio/french_360.wav,"[[ 0.00000000e+00 -2.35073025e-03]
 [ 1.00000000e-01  7.51310722e+01]
 [ 2.00000000e-01 -5.59073348e+01]
 [ 2.56666667e-01 -5.96885988e+01]]","[[0.         1.59141319]
 [0.1        0.32502124]
 [0.2        0.48861064]
 [0.25666667 0.13551716]]",1,0.506
8749218289,f,19,french,4,5,french,2024-02-01 10:33:05.924446,False,2,409,sounds\french\audio/french_172.wav,"[[ 0.         48.7065843 ]
 [ 0.1        36.17213003]
 [ 0.2        22.16215467]
 [ 0.25666667  3.80373218]]","[[0.         1.72774852]
 [0.1        0.94223675]
 [0.2        1.06724209]
 [0.25666667 1.19623342]]",1,0.407
8749218289,f,19,french,4,5,french,2024-02-01 10:33:05.924446,False,2,410,sounds\french\audio/french_821.wav,"[[  0.          70.15336782]
 [  0.1         -1.11865535]
 [  0.2        -91.54006312]
 [  0.25666667  24.13643902]]","[[0.         1.4099425 ]
 [0.1        1.36643738]
 [0.2        0.06599991]
 [0.25666667 1.20854405]]",1,0.384
8749218289,f,19,french,4,5,french,2024-02-01 10:33:05.924446,False,2,411,sounds\french\audio/french_900.wav,"[[  0.         -40.26137712]
 [  0.1        -58.52959628]
 [  0.2         -9.02711279]
 [  0.25666667 -16.09488558]]","[[0.         1.52095516]
 [0.1        0.45545329]
 [0.2        1.45244251]
 [0.25666667 1.49180456]]",1,0.582
8749218289,f,19,french,4,5,french,2024-02-01 10:33:05.924446,False,2,412,sounds\french\audio/french_703.wav,"[[  0.          84.48201003]
 [  0.1        -13.2968245 ]
 [  0.2        -49.01598543]
 [  0.25666667 -63.56156529]]","[[0.         0.82331622]
 [0.1        1.50639414]
 [0.2        0.83966854]
 [0.25666667 1.27848793]]",1,0.391
8749218289,f,19,french,4,5,french,2024-02-01 10:33:05.924446,False,2,413,sounds\french\audio/french_63.wav,"[[  0.         -81.8544396 ]
 [  0.1         15.35577337]
 [  0.2        -93.67975396]
 [  0.25666667   6.98256112]]","[[0.         0.29798693]
 [0.1        0.29415435]
 [0.2        1.48728433]
 [0.25666667 1.07216934]]",1,0.42
8749218289,f,19,french,4,5,french,2024-02-01 10:33:05.924446,False,2,414,sounds\french\audio/french_134.wav,"[[  0.         -65.58132827]
 [  0.1        -89.82992505]
 [  0.2          9.99695038]
 [  0.25666667  24.50908123]]","[[0.         0.68669704]
 [0.1        1.50131287]
 [0.2        0.69598371]
 [0.25666667 1.57047358]]",0,0.32
8749218289,f,19,french,4,5,french,2024-02-01 10:33:05.924446,False,2,415,sounds\french\audio/french_876.wav,"[[  0.         -63.60663495]
 [  0.1        -33.069551  ]
 [  0.2         44.38072254]
 [  0.25666667   3.25210733]]","[[0.         1.31328738]
 [0.1        1.53761103]
 [0.2        1.15738415]
 [0.25666667 1.33428182]]",0,0.18
8749218289,f,19,french,4,5,french,2024-02-01 10:33:05.924446,False,2,416,sounds\french\audio/french_386.wav,"[[  0.          50.68041389]
 [  0.1         19.37586599]
 [  0.2          0.19752764]
 [  0.25666667 -78.73875249]]","[[0.         0.75883449]
 [0.1        1.33167931]
 [0.2        0.89836148]
 [0.25666667 0.64515466]]",0,0.175
8749218289,f,19,french,4,5,french,2024-02-01 10:33:05.924446,False,2,417,sounds\french\audio/french_340.wav,"[[  0.         -77.74428769]
 [  0.1        -23.36816436]
 [  0.2        -44.47255335]
 [  0.25666667 -51.35474548]]","[[0.         1.5012345 ]
 [0.1        1.72338521]
 [0.2        0.55046319]
 [0.25666667 0.98182936]]",0,0.75
8749218289,f,19,french,4,5,french,2024-02-01 10:33:05.924446,False,2,418,sounds\french\audio/french_598.wav,"[[  0.          21.68363658]
 [  0.1        -21.32750779]
 [  0.2          7.72514192]
 [  0.25666667 -29.17866519]]","[[0.         1.67467049]
 [0.1        0.64095668]
 [0.2        0.23575639]
 [0.25666667 0.51628457]]",0,0.297
8749218289,f,19,french,4,5,french,2024-02-01 10:33:05.924446,False,2,419,sounds\french\audio/french_314.wav,"[[  0.         -41.28420355]
 [  0.1         38.91630458]
 [  0.2         24.93775916]
 [  0.25666667  33.33111791]]","[[0.         0.77087466]
 [0.1        0.23409115]
 [0.2        0.53304912]
 [0.25666667 0.84036245]]",0,0.367
8749218289,f,19,french,4,5,french,2024-02-01 10:33:05.924446,False,2,420,sounds\french\audio/french_943.wav,"[[  0.          27.08075724]
 [  0.1         11.89706259]
 [  0.2        -68.36208072]
 [  0.25666667  93.65942771]]","[[0.         1.18472309]
 [0.1        0.18520331]
 [0.2        0.55970606]
 [0.25666667 0.63383354]]",1,0.368
8749218289,f,19,french,4,5,french,2024-02-01 10:33:05.924446,False,2,421,sounds\french\audio/french_612.wav,"[[  0.          43.10783066]
 [  0.1         -4.14995098]
 [  0.2         22.17563662]
 [  0.25666667 -48.75850842]]","[[0.         0.49686358]
 [0.1        1.10500502]
 [0.2        0.22222502]
 [0.25666667 1.14111641]]",1,0.091
8749218289,f,19,french,4,5,french,2024-02-01 10:33:05.924446,False,2,422,sounds\french\audio/french_750.wav,"[[  0.          36.16157767]
 [  0.1        -94.09249833]
 [  0.2         97.07405484]
 [  0.25666667  -8.28043626]]","[[0.         1.69010054]
 [0.1        0.7877665 ]
 [0.2        0.99353813]
 [0.25666667 0.64245914]]",1,2.267
8749218289,f,19,french,4,5,french,2024-02-01 10:33:05.924446,False,2,423,sounds\french\audio/french_140.wav,"[[  0.          88.20971648]
 [  0.1        -47.21457526]
 [  0.2        -33.13299566]
 [  0.25666667   6.89149494]]","[[0.         1.40468934]
 [0.1        0.07517377]
 [0.2        0.96987146]
 [0.25666667 0.45515396]]",0,0.522
8749218289,f,19,french,4,5,french,2024-02-01 10:33:05.924446,False,2,424,sounds\french\audio/french_176.wav,"[[  0.           0.09776701]
 [  0.1         32.80523404]
 [  0.2         16.78979069]
 [  0.25666667 -52.73391922]]","[[0.         1.90735666]
 [0.1        1.52678684]
 [0.2        1.98703072]
 [0.25666667 1.7200077 ]]",0,0.198
8749218289,f,19,french,4,5,french,2024-02-01 10:33:05.924446,False,2,425,sounds\french\audio/french_656.wav,"[[  0.         -58.27241095]
 [  0.1          5.28471923]
 [  0.2         -0.12743408]
 [  0.25666667  84.54596147]]","[[0.         0.65184251]
 [0.1        0.59376501]
 [0.2        1.90668759]
 [0.25666667 1.25760212]]",1,0.1
8749218289,f,19,french,4,5,french,2024-02-01 10:33:05.924446,False,2,426,sounds\french\audio/french_388.wav,"[[  0.         -56.99851318]
 [  0.1        -28.42117093]
 [  0.2        -17.37440647]
 [  0.25666667  19.5608334 ]]","[[0.         0.76802497]
 [0.1        1.07190306]
 [0.2        0.91030877]
 [0.25666667 0.1576099 ]]",1,0.759
8749218289,f,19,french,4,5,french,2024-02-01 10:33:05.924446,False,2,427,sounds\french\audio/french_943.wav,"[[  0.          27.08075724]
 [  0.1         11.89706259]
 [  0.2        -68.36208072]
 [  0.25666667  93.65942771]]","[[0.         1.18472309]
 [0.1        0.18520331]
 [0.2        0.55970606]
 [0.25666667 0.63383354]]",1,0.216
8749218289,f,19,french,4,5,french,2024-02-01 10:33:05.924446,False,2,428,sounds\french\audio/french_340.wav,"[[  0.         -77.74428769]
 [  0.1        -23.36816436]
 [  0.2        -44.47255335]
 [  0.25666667 -51.35474548]]","[[0.         1.5012345 ]
 [0.1        1.72338521]
 [0.2        0.55046319]
 [0.25666667 0.98182936]]",0,0.251
8749218289,f,19,french,4,5,french,2024-02-01 10:33:05.924446,False,2,429,sounds\french\audio/french_493.wav,"[[  0.         -68.32294441]
 [  0.1        -10.78892258]
 [  0.2         91.72278204]
 [  0.25666667 -45.09260027]]","[[0.         0.52835731]
 [0.1        0.49612748]
 [0.2        1.46473376]
 [0.25666667 1.2872874 ]]",0,0.189
8749218289,f,19,french,4,5,french,2024-02-01 10:33:05.924446,False,2,430,sounds\french\audio/french_538.wav,"[[  0.         -62.11881418]
 [  0.1        -49.1326041 ]
 [  0.2         11.48721962]
 [  0.25666667 -26.18142206]]","[[0.         0.72316351]
 [0.1        0.52652182]
 [0.2        0.30218135]
 [0.25666667 1.69243497]]",0,0.143
8749218289,f,19,french,4,5,french,2024-02-01 10:33:05.924446,False,2,431,sounds\french\audio/french_989.wav,"[[  0.           9.12508282]
 [  0.1        -26.45358769]
 [  0.2        -51.08796106]
 [  0.25666667 -22.70445117]]","[[0.         1.4573698 ]
 [0.1        0.87656303]
 [0.2        0.58961018]
 [0.25666667 1.46090447]]",0,0.739
8749218289,f,19,french,4,5,french,2024-02-01 10:33:05.924446,False,2,432,sounds\french\audio/french_285.wav,"[[  0.         -14.06099989]
 [  0.1         -5.26283055]
 [  0.2         18.02137941]
 [  0.25666667  46.27962364]]","[[0.         0.21649577]
 [0.1        0.66520183]
 [0.2        0.4490454 ]
 [0.25666667 1.92778075]]",1,0.37
8749218289,f,19,french,4,5,french,2024-02-01 10:33:05.924446,False,2,433,sounds\french\audio/french_882.wav,"[[  0.         -76.64131244]
 [  0.1        -39.91871486]
 [  0.2        -10.31613543]
 [  0.25666667  20.39966841]]","[[0.         0.67668261]
 [0.1        0.28498495]
 [0.2        0.59130788]
 [0.25666667 1.12904738]]",0,0.385
8749218289,f,19,french,4,5,french,2024-02-01 10:33:05.924446,False,2,434,sounds\french\audio/french_425.wav,"[[  0.          36.0896382 ]
 [  0.1        -60.28824884]
 [  0.2        -83.12671609]
 [  0.25666667  32.66103116]]","[[0.         0.72680638]
 [0.1        0.01839492]
 [0.2        1.09901753]
 [0.25666667 1.13928828]]",1,0.611
8749218289,f,19,french,4,5,french,2024-02-01 10:33:05.924446,False,2,435,sounds\french\audio/french_689.wav,"[[  0.         -76.83712438]
 [  0.1         64.54047654]
 [  0.2         42.91011154]
 [  0.25666667 -94.73892594]]","[[0.         1.91162084]
 [0.1        0.68488006]
 [0.2        0.17067082]
 [0.25666667 1.05586556]]",1,0.444
8749218289,f,19,french,4,5,french,2024-02-01 10:33:05.924446,False,2,436,sounds\french\audio/french_108.wav,"[[  0.         -38.50953818]
 [  0.1         44.47590219]
 [  0.2         35.73303492]
 [  0.25666667 -90.35369633]]","[[0.         1.14488094]
 [0.1        1.3820118 ]
 [0.2        1.04224754]
 [0.25666667 1.51933791]]",0,0.786
8749218289,f,19,french,4,5,french,2024-02-01 10:33:05.924446,False,2,437,sounds\french\audio/french_314.wav,"[[  0.         -41.28420355]
 [  0.1         38.91630458]
 [  0.2         24.93775916]
 [  0.25666667  33.33111791]]","[[0.         0.77087466]
 [0.1        0.23409115]
 [0.2        0.53304912]
 [0.25666667 0.84036245]]",1,0.448
8749218289,f,19,french,4,5,french,2024-02-01 10:33:05.924446,False,2,438,sounds\french\audio/french_628.wav,"[[  0.          68.49177404]
 [  0.1        -37.23139728]
 [  0.2        -66.57894256]
 [  0.25666667  94.63403104]]","[[0.         1.08718887]
 [0.1        1.92014291]
 [0.2        1.74485312]
 [0.25666667 1.25946788]]",0,0.104
8749218289,f,19,french,4,5,french,2024-02-01 10:33:05.924446,False,2,439,sounds\french\audio/french_495.wav,"[[  0.          93.48002859]
 [  0.1         99.142871  ]
 [  0.2        -33.98102163]
 [  0.25666667  38.68354094]]","[[0.         1.03648483]
 [0.1        1.23043948]
 [0.2        1.1332488 ]
 [0.25666667 0.62015381]]",0,0.592
8749218289,f,19,french,4,5,french,2024-02-01 10:33:05.924446,False,2,440,sounds\french\audio/french_459.wav,"[[  0.           4.79398058]
 [  0.1         85.90612859]
 [  0.2        -69.41023595]
 [  0.25666667 -22.07588814]]","[[0.         1.10654006]
 [0.1        1.2996969 ]
 [0.2        0.20520219]
 [0.25666667 1.17361701]]",1,2.143
8749218289,f,19,french,4,5,french,2024-02-01 10:33:05.924446,False,2,441,sounds\french\audio/french_589.wav,"[[  0.         -25.33744833]
 [  0.1        -46.00092507]
 [  0.2        -35.85501424]
 [  0.25666667  61.35269907]]","[[0.         1.20649344]
 [0.1        0.60898863]
 [0.2        0.34188975]
 [0.25666667 1.06172305]]",1,0.476
8749218289,f,19,french,4,5,french,2024-02-01 10:33:05.924446,False,2,442,sounds\french\audio/french_146.wav,"[[  0.           2.88911392]
 [  0.1         20.34035446]
 [  0.2        -17.47138226]
 [  0.25666667 -15.1567399 ]]","[[0.         0.44051244]
 [0.1        0.76269488]
 [0.2        0.12643706]
 [0.25666667 0.55905625]]",1,0.95
8749218289,f,19,french,4,5,french,2024-02-01 10:33:05.924446,False,2,443,sounds\french\audio/french_185.wav,"[[  0.          61.04894301]
 [  0.1          4.55457692]
 [  0.2         51.77529612]
 [  0.25666667 -22.06501589]]","[[0.         1.56575395]
 [0.1        1.97883698]
 [0.2        1.92093932]
 [0.25666667 0.68389876]]",1,0.572
8749218289,f,19,french,4,5,french,2024-02-01 10:33:05.924446,False,2,444,sounds\french\audio/french_693.wav,"[[  0.         -47.08934597]
 [  0.1         72.6108529 ]
 [  0.2        -29.7137536 ]
 [  0.25666667  50.01737174]]","[[0.         0.01342517]
 [0.1        0.89682207]
 [0.2        1.48476447]
 [0.25666667 0.05087926]]",1,0.682
8749218289,f,19,french,4,5,french,2024-02-01 10:33:05.924446,False,2,445,sounds\french\audio/french_139.wav,"[[  0.          55.8945715 ]
 [  0.1        -37.58065727]
 [  0.2        -36.76334563]
 [  0.25666667   4.9296063 ]]","[[0.         0.94357116]
 [0.1        0.51247941]
 [0.2        1.17002066]
 [0.25666667 0.00285273]]",1,0.541
8749218289,f,19,french,4,5,french,2024-02-01 10:33:05.924446,False,2,446,sounds\french\audio/french_848.wav,"[[  0.         -60.99605007]
 [  0.1        -27.05939135]
 [  0.2        -10.58439289]
 [  0.25666667 -17.47548333]]","[[0.         1.01059702]
 [0.1        1.98581859]
 [0.2        0.30142011]
 [0.25666667 1.16939553]]",1,0.277
8749218289,f,19,french,4,5,french,2024-02-01 10:33:05.924446,False,2,447,sounds\french\audio/french_585.wav,"[[  0.          55.40756654]
 [  0.1        -99.68924549]
 [  0.2        -52.13930441]
 [  0.25666667 -49.42840454]]","[[0.         1.79357949]
 [0.1        1.94389706]
 [0.2        0.70685753]
 [0.25666667 0.08344351]]",0,1.339
8749218289,f,19,french,4,5,french,2024-02-01 10:33:05.924446,False,2,448,sounds\french\audio/french_980.wav,"[[  0.         -38.7537279 ]
 [  0.1         12.31277697]
 [  0.2          6.50697833]
 [  0.25666667 -34.92912415]]","[[0.         0.7061587 ]
 [0.1        1.27161124]
 [0.2        0.8921187 ]
 [0.25666667 1.97802528]]",0,0.545
8749218289,f,19,french,4,5,french,2024-02-01 10:33:05.924446,False,2,449,sounds\french\audio/french_428.wav,"[[  0.          32.54087273]
 [  0.1        -45.07567034]
 [  0.2         23.18683175]
 [  0.25666667 -58.08389968]]","[[0.         1.95600578]
 [0.1        1.3753822 ]
 [0.2        0.5862849 ]
 [0.25666667 0.11110367]]",1,0.468
8749218289,f,19,french,4,5,french,2024-02-01 10:33:05.924446,False,2,450,sounds\french\audio/french_406.wav,"[[  0.          58.13533855]
 [  0.1         16.77938971]
 [  0.2        -34.29610563]
 [  0.25666667   5.14727068]]","[[0.         1.29537269]
 [0.1        1.03128378]
 [0.2        1.90878176]
 [0.25666667 1.43946259]]",1,0.408
8749218289,f,19,french,4,5,french,2024-02-01 10:33:05.924446,False,2,451,sounds\french\audio/french_977.wav,"[[  0.         -23.34946859]
 [  0.1        -74.17160997]
 [  0.2         31.43852713]
 [  0.25666667 -10.29160018]]","[[0.         1.58788712]
 [0.1        0.25032328]
 [0.2        0.90752219]
 [0.25666667 1.52460946]]",0,0.418
8749218289,f,19,french,4,5,french,2024-02-01 10:33:05.924446,False,2,452,sounds\french\audio/french_56.wav,"[[  0.         -45.81384366]
 [  0.1        -31.22745768]
 [  0.2          7.07301694]
 [  0.25666667  85.51747291]]","[[0.         0.89556329]
 [0.1        1.16444889]
 [0.2        0.03247946]
 [0.25666667 0.10908846]]",0,0.507
8749218289,f,19,french,4,5,french,2024-02-01 10:33:05.924446,False,2,453,sounds\french\audio/french_647.wav,"[[  0.         -41.18361869]
 [  0.1         11.48241437]
 [  0.2         60.38354651]
 [  0.25666667  15.78737628]]","[[0.         1.9224231 ]
 [0.1        1.96851625]
 [0.2        1.74064919]
 [0.25666667 1.76296374]]",0,0.98
8749218289,f,19,french,4,5,french,2024-02-01 10:33:05.924446,False,2,454,sounds\french\audio/french_889.wav,"[[  0.         -11.44618348]
 [  0.1         14.52697714]
 [  0.2        -51.60315894]
 [  0.25666667  40.16126686]]","[[0.         1.60032155]
 [0.1        0.84860504]
 [0.2        1.67734449]
 [0.25666667 0.04411269]]",1,3.363
8749218289,f,19,french,4,5,french,2024-02-01 10:33:05.924446,False,2,455,sounds\french\audio/french_572.wav,"[[  0.          39.88309013]
 [  0.1        -96.79862589]
 [  0.2        -22.12237888]
 [  0.25666667 -29.01009828]]","[[0.         1.43577141]
 [0.1        0.70754044]
 [0.2        0.13254452]
 [0.25666667 0.2743676 ]]",1,0.352
8749218289,f,19,french,4,5,french,2024-02-01 10:33:05.924446,False,2,456,sounds\french\audio/french_740.wav,"[[  0.         -63.22643447]
 [  0.1        -76.79793208]
 [  0.2        -90.89358737]
 [  0.25666667 -87.57687491]]","[[0.         1.41698272]
 [0.1        1.15791198]
 [0.2        1.97460827]
 [0.25666667 0.61281255]]",1,0.663
8749218289,f,19,french,4,5,french,2024-02-01 10:33:05.924446,False,2,457,sounds\french\audio/french_875.wav,"[[  0.         -21.85805239]
 [  0.1         89.69626046]
 [  0.2        -30.27044373]
 [  0.25666667  34.72149061]]","[[0.         1.53415162]
 [0.1        1.00812403]
 [0.2        0.85877698]
 [0.25666667 1.23447623]]",0,0.074
8749218289,f,19,french,4,5,french,2024-02-01 10:33:05.924446,False,2,458,sounds\french\audio/french_562.wav,"[[  0.          12.26814589]
 [  0.1        -17.58329492]
 [  0.2        -20.00100575]
 [  0.25666667 -50.75971007]]","[[0.         1.17834032]
 [0.1        1.15702499]
 [0.2        1.2863232 ]
 [0.25666667 0.02470224]]",0,0.28
8749218289,f,19,french,4,5,french,2024-02-01 10:33:05.924446,False,2,459,sounds\french\audio/french_31.wav,"[[  0.         -16.52506352]
 [  0.1        -80.19736258]
 [  0.2        -47.04996605]
 [  0.25666667  35.27279848]]","[[0.         1.57904125]
 [0.1        0.88688051]
 [0.2        0.44579633]
 [0.25666667 1.71139476]]",0,0.555
8749218289,f,19,french,4,5,french,2024-02-01 10:33:05.924446,False,2,460,sounds\french\audio/french_864.wav,"[[ 0.         27.21382842]
 [ 0.1        -8.96687562]
 [ 0.2        47.01768167]
 [ 0.25666667 98.93956807]]","[[0.         1.35032716]
 [0.1        1.41041806]
 [0.2        0.47669103]
 [0.25666667 1.26265942]]",0,0.462
8749218289,f,19,french,4,5,french,2024-02-01 10:33:05.924446,False,2,461,sounds\french\audio/french_621.wav,"[[  0.         -65.12133357]
 [  0.1        -34.98790471]
 [  0.2        -12.78608876]
 [  0.25666667  53.53170361]]","[[0.         1.7602607 ]
 [0.1        0.92649718]
 [0.2        1.46782633]
 [0.25666667 0.68266442]]",0,0.397
8749218289,f,19,french,4,5,french,2024-02-01 10:33:05.924446,False,2,462,sounds\french\audio/french_495.wav,"[[  0.          93.48002859]
 [  0.1         99.142871  ]
 [  0.2        -33.98102163]
 [  0.25666667  38.68354094]]","[[0.         1.03648483]
 [0.1        1.23043948]
 [0.2        1.1332488 ]
 [0.25666667 0.62015381]]",0,0.241
8749218289,f,19,french,4,5,french,2024-02-01 10:33:05.924446,False,2,463,sounds\french\audio/french_390.wav,"[[  0.          13.63716389]
 [  0.1        -61.62928039]
 [  0.2         89.99724903]
 [  0.25666667 -99.60285567]]","[[0.         0.73987932]
 [0.1        1.19791102]
 [0.2        0.30500022]
 [0.25666667 1.08417724]]",0,0.94
8749218289,f,19,french,4,5,french,2024-02-01 10:33:05.924446,False,2,464,sounds\french\audio/french_794.wav,"[[  0.         -41.85324617]
 [  0.1          1.64774739]
 [  0.2        -16.9250465 ]
 [  0.25666667 -47.53807225]]","[[0.         0.4524196 ]
 [0.1        1.94571184]
 [0.2        1.39882797]
 [0.25666667 0.19962905]]",0,0.329
8749218289,f,19,french,4,5,french,2024-02-01 10:33:05.924446,False,2,465,sounds\french\audio/french_818.wav,"[[  0.         -26.74770248]
 [  0.1        -33.54864391]
 [  0.2        -23.72939517]
 [  0.25666667  53.93300908]]","[[0.         1.09674102]
 [0.1        0.98606035]
 [0.2        1.86933067]
 [0.25666667 0.6204836 ]]",0,0.178
8749218289,f,19,french,4,5,french,2024-02-01 10:33:05.924446,False,2,466,sounds\french\audio/french_226.wav,"[[  0.          85.32452385]
 [  0.1        -25.06918931]
 [  0.2        -17.89357971]
 [  0.25666667  45.31971501]]","[[0.         1.68909252]
 [0.1        0.17046025]
 [0.2        0.61029189]
 [0.25666667 0.53544367]]",0,0.182
8749218289,f,19,french,4,5,french,2024-02-01 10:33:05.924446,False,2,467,sounds\french\audio/french_419.wav,"[[  0.         -42.00575778]
 [  0.1        -35.26826913]
 [  0.2        -18.10946272]
 [  0.25666667  -2.55322937]]","[[0.         0.81351681]
 [0.1        1.62056968]
 [0.2        1.68465097]
 [0.25666667 1.07803679]]",1,0.586
8749218289,f,19,french,4,5,french,2024-02-01 10:33:05.924446,False,2,468,sounds\french\audio/french_670.wav,"[[  0.         -38.80852857]
 [  0.1         -8.64332938]
 [  0.2        -55.35683075]
 [  0.25666667  17.57735741]]","[[0.         0.18324618]
 [0.1        0.81857347]
 [0.2        1.27404838]
 [0.25666667 1.12537981]]",1,0.568
8749218289,f,19,french,4,5,french,2024-02-01 10:33:05.924446,False,2,469,sounds\french\audio/french_743.wav,"[[  0.         -33.29442342]
 [  0.1         66.78729562]
 [  0.2         -0.09457626]
 [  0.25666667  -6.43111547]]","[[0.         0.17876133]
 [0.1        1.55990879]
 [0.2        1.00824872]
 [0.25666667 1.50563658]]",1,0.345
8749218289,f,19,french,4,5,french,2024-02-01 10:33:05.924446,False,2,470,sounds\french\audio/french_595.wav,"[[  0.         -73.15061419]
 [  0.1         67.23643261]
 [  0.2         29.33444659]
 [  0.25666667 -65.67909684]]","[[0.         1.40746522]
 [0.1        0.48150889]
 [0.2        0.65461581]
 [0.25666667 0.62395538]]",1,0.407
8749218289,f,19,french,4,5,french,2024-02-01 10:33:05.924446,False,2,471,sounds\french\audio/french_563.wav,"[[  0.           1.48089244]
 [  0.1         19.03426996]
 [  0.2        -28.07832236]
 [  0.25666667  33.25369521]]","[[0.         0.83142925]
 [0.1        1.65727988]
 [0.2        1.36487064]
 [0.25666667 0.18463038]]",1,0.259
8749218289,f,19,french,4,5,french,2024-02-01 10:33:05.924446,False,2,472,sounds\french\audio/french_135.wav,"[[  0.         -14.44114523]
 [  0.1         22.88033262]
 [  0.2         45.87784319]
 [  0.25666667  14.60103067]]","[[0.         1.1198793 ]
 [0.1        0.12707755]
 [0.2        1.72429487]
 [0.25666667 0.79769027]]",0,0.412
8749218289,f,19,french,4,5,french,2024-02-01 10:33:05.924446,False,2,473,sounds\french\audio/french_70.wav,"[[  0.          24.17054112]
 [  0.1        -33.49200779]
 [  0.2        -94.66214176]
 [  0.25666667  65.90688931]]","[[0.         1.64784081]
 [0.1        0.51465366]
 [0.2        1.24573935]
 [0.25666667 1.78963367]]",1,0.538
8749218289,f,19,french,4,5,french,2024-02-01 10:33:05.924446,False,2,474,sounds\french\audio/french_11.wav,"[[  0.         -27.01625533]
 [  0.1         30.5454192 ]
 [  0.2        -10.3355652 ]
 [  0.25666667  -1.40658107]]","[[0.         0.65463853]
 [0.1        0.82547758]
 [0.2        1.18020414]
 [0.25666667 0.75245655]]",1,0.878
8749218289,f,19,french,4,5,french,2024-02-01 10:33:05.924446,False,2,475,sounds\french\audio/french_397.wav,"[[  0.         -13.81470081]
 [  0.1         50.38281738]
 [  0.2         50.22980228]
 [  0.25666667 -83.86271009]]","[[0.         1.26162917]
 [0.1        1.19612478]
 [0.2        1.02842354]
 [0.25666667 0.53389444]]",0,0.208
8749218289,f,19,french,4,5,french,2024-02-01 10:33:05.924446,False,2,476,sounds\french\audio/french_156.wav,"[[  0.          31.92379501]
 [  0.1        -44.87917853]
 [  0.2        -30.25450012]
 [  0.25666667  -8.41227372]]","[[0.         1.0555525 ]
 [0.1        1.35077548]
 [0.2        0.66649605]
 [0.25666667 1.59075988]]",1,0.41
8749218289,f,19,french,4,5,french,2024-02-01 10:33:05.924446,False,2,477,sounds\french\audio/french_57.wav,"[[  0.           5.04798132]
 [  0.1         34.86476391]
 [  0.2          8.76450083]
 [  0.25666667 -66.01533982]]","[[0.         0.30893924]
 [0.1        1.37192861]
 [0.2        1.2366194 ]
 [0.25666667 1.17459784]]",1,0.594
8749218289,f,19,french,4,5,french,2024-02-01 10:33:05.924446,False,2,478,sounds\french\audio/french_925.wav,"[[  0.         -30.51780923]
 [  0.1         35.11933452]
 [  0.2        -97.7648117 ]
 [  0.25666667 -62.39495561]]","[[0.         1.09841649]
 [0.1        0.05099013]
 [0.2        1.83429048]
 [0.25666667 1.66107303]]",1,0.268
8749218289,f,19,french,4,5,french,2024-02-01 10:33:05.924446,False,2,479,sounds\french\audio/french_93.wav,"[[  0.          23.57211404]
 [  0.1        -16.15934767]
 [  0.2         25.54711871]
 [  0.25666667  65.09284613]]","[[0.         0.62732128]
 [0.1        0.10811818]
 [0.2        0.30787392]
 [0.25666667 1.57978374]]",1,0.358
8749218289,f,19,french,4,5,french,2024-02-01 10:33:05.924446,False,2,480,sounds\french\audio/french_624.wav,"[[  0.         -86.93028371]
 [  0.1        -96.54996815]
 [  0.2         92.34248117]
 [  0.25666667 -12.30629338]]","[[0.         1.16085897]
 [0.1        0.25570688]
 [0.2        0.21766843]
 [0.25666667 1.93131174]]",1,0.275
8749218289,f,19,french,4,5,french,2024-02-01 10:33:05.924446,False,2,481,sounds\french\audio/french_224.wav,"[[  0.          29.30439333]
 [  0.1        -18.8355858 ]
 [  0.2         53.95388402]
 [  0.25666667 -99.38068318]]","[[0.         0.07263044]
 [0.1        0.50126241]
 [0.2        0.66381289]
 [0.25666667 0.98911363]]",1,0.332
8749218289,f,19,french,4,5,french,2024-02-01 10:33:05.924446,False,2,482,sounds\french\audio/french_448.wav,"[[  0.          31.66119151]
 [  0.1         20.17093967]
 [  0.2        -46.84568686]
 [  0.25666667  10.399138  ]]","[[0.         0.87276462]
 [0.1        1.08469616]
 [0.2        1.99629221]
 [0.25666667 0.44449425]]",0,0.549
8749218289,f,19,french,4,5,french,2024-02-01 10:33:05.924446,False,2,483,sounds\french\audio/french_778.wav,"[[ 0.         -2.76577218]
 [ 0.1         4.49344871]
 [ 0.2        68.81762054]
 [ 0.25666667 89.13075651]]","[[0.         0.74255963]
 [0.1        1.48176587]
 [0.2        1.59399306]
 [0.25666667 1.18058537]]",1,0.09
8749218289,f,19,french,4,5,french,2024-02-01 10:33:05.924446,False,2,484,sounds\french\audio/french_529.wav,"[[  0.          54.97727121]
 [  0.1        -15.05833494]
 [  0.2          4.35581279]
 [  0.25666667 -47.03433584]]","[[0.         0.19662293]
 [0.1        1.39103506]
 [0.2        0.62492467]
 [0.25666667 1.10830727]]",1,0.173
8749218289,f,19,french,4,5,french,2024-02-01 10:33:05.924446,False,2,485,sounds\french\audio/french_911.wav,"[[  0.          11.85203828]
 [  0.1        -24.36206963]
 [  0.2        -79.91713821]
 [  0.25666667 -65.93332008]]","[[0.         0.91676267]
 [0.1        0.3897793 ]
 [0.2        0.96594055]
 [0.25666667 1.97851167]]",1,0.54
8749218289,f,19,french,4,5,french,2024-02-01 10:33:05.924446,False,2,486,sounds\french\audio/french_250.wav,"[[  0.          34.1596777 ]
 [  0.1        -44.36149414]
 [  0.2          5.0850049 ]
 [  0.25666667 -37.48818875]]","[[0.         0.91954119]
 [0.1        1.97424998]
 [0.2        0.32778381]
 [0.25666667 0.84724669]]",1,0.266
8749218289,f,19,french,4,5,french,2024-02-01 10:33:05.924446,False,2,487,sounds\french\audio/french_749.wav,"[[  0.          -6.52512876]
 [  0.1         66.04972296]
 [  0.2        -72.89621134]
 [  0.25666667 -46.82302434]]","[[0.         1.71102694]
 [0.1        0.07130547]
 [0.2        1.03709586]
 [0.25666667 1.99027801]]",1,0.402
8749218289,f,19,french,4,5,french,2024-02-01 10:33:05.924446,False,2,488,sounds\french\audio/french_789.wav,"[[  0.          16.13130467]
 [  0.1        -53.51301261]
 [  0.2         91.10833978]
 [  0.25666667   9.61415248]]","[[0.         1.41580253]
 [0.1        1.63533644]
 [0.2        0.42839577]
 [0.25666667 0.64971622]]",1,0.419
8749218289,f,19,french,4,5,french,2024-02-01 10:33:05.924446,False,2,489,sounds\french\audio/french_117.wav,"[[ 0.          6.74214439]
 [ 0.1         3.15736066]
 [ 0.2        10.42128043]
 [ 0.25666667 89.20041031]]","[[0.         0.42718416]
 [0.1        1.82203077]
 [0.2        0.49696174]
 [0.25666667 0.34350523]]",1,0.993
8749218289,f,19,french,4,5,french,2024-02-01 10:33:05.924446,False,2,490,sounds\french\audio/french_93.wav,"[[  0.          23.57211404]
 [  0.1        -16.15934767]
 [  0.2         25.54711871]
 [  0.25666667  65.09284613]]","[[0.         0.62732128]
 [0.1        0.10811818]
 [0.2        0.30787392]
 [0.25666667 1.57978374]]",1,0.34
8749218289,f,19,french,4,5,french,2024-02-01 10:33:05.924446,False,2,491,sounds\french\audio/french_942.wav,"[[  0.         -53.20970077]
 [  0.1        -81.68739914]
 [  0.2         39.47129185]
 [  0.25666667 -77.13084916]]","[[0.         1.55725844]
 [0.1        1.2093944 ]
 [0.2        0.05517711]
 [0.25666667 1.56672295]]",1,0.031
8749218289,f,19,french,4,5,french,2024-02-01 10:33:05.924446,False,2,492,sounds\french\audio/french_225.wav,"[[  0.          29.07754255]
 [  0.1         99.63110947]
 [  0.2        -11.85966914]
 [  0.25666667 -24.94738594]]","[[0.         1.10473325]
 [0.1        0.86614983]
 [0.2        1.10071   ]
 [0.25666667 1.32437332]]",1,4.697
8749218289,f,19,french,4,5,french,2024-02-01 10:33:05.924446,False,2,493,sounds\french\audio/french_796.wav,"[[  0.         -38.09805788]
 [  0.1        -51.81358868]
 [  0.2         88.47322764]
 [  0.25666667 -34.90405205]]","[[0.         1.93486201]
 [0.1        1.49994235]
 [0.2        1.42581223]
 [0.25666667 0.47367866]]",1,0.971
8749218289,f,19,french,4,5,french,2024-02-01 10:33:05.924446,False,2,494,sounds\french\audio/french_250.wav,"[[  0.          34.1596777 ]
 [  0.1        -44.36149414]
 [  0.2          5.0850049 ]
 [  0.25666667 -37.48818875]]","[[0.         0.91954119]
 [0.1        1.97424998]
 [0.2        0.32778381]
 [0.25666667 0.84724669]]",1,0.372
8749218289,f,19,french,4,5,french,2024-02-01 10:33:05.924446,False,2,495,sounds\french\audio/french_79.wav,"[[  0.         -17.81057473]
 [  0.1        -79.49788956]
 [  0.2         21.64031361]
 [  0.25666667   9.8962074 ]]","[[0.         1.07647634]
 [0.1        0.19758175]
 [0.2        1.4893643 ]
 [0.25666667 1.60982877]]",1,0.202
8749218289,f,19,french,4,5,french,2024-02-01 10:33:05.924446,False,2,496,sounds\french\audio/french_71.wav,"[[  0.         -97.29707499]
 [  0.1         41.74238765]
 [  0.2        -91.89336592]
 [  0.25666667  53.06515209]]","[[0.         0.6163898 ]
 [0.1        1.06775198]
 [0.2        1.31906527]
 [0.25666667 0.58556407]]",1,1.576
8749218289,f,19,french,4,5,french,2024-02-01 10:33:05.924446,False,2,497,sounds\french\audio/french_781.wav,"[[  0.          33.25938538]
 [  0.1        -13.90292419]
 [  0.2        -71.59350782]
 [  0.25666667  57.07291034]]","[[0.         1.27105286]
 [0.1        0.93357863]
 [0.2        1.0124146 ]
 [0.25666667 0.68511696]]",0,0.272
8749218289,f,19,french,4,5,french,2024-02-01 10:33:05.924446,False,2,498,sounds\french\audio/french_440.wav,"[[  0.         -59.81098651]
 [  0.1         55.41661021]
 [  0.2         43.77043266]
 [  0.25666667  -5.41632891]]","[[0.         0.93400427]
 [0.1        0.25641934]
 [0.2        0.61594081]
 [0.25666667 1.32329824]]",0,0.407
8749218289,f,19,french,4,5,french,2024-02-01 10:33:05.924446,False,2,499,sounds\french\audio/french_460.wav,"[[  0.         -46.82547924]
 [  0.1        -89.06595485]
 [  0.2        -15.88362663]
 [  0.25666667 -55.00298372]]","[[0.         0.18532774]
 [0.1        0.73005791]
 [0.2        0.27848928]
 [0.25666667 1.6971829 ]]",1,0.453
8749218289,f,19,french,4,5,french,2024-02-01 10:33:05.924446,False,2,500,sounds\french\audio/french_554.wav,"[[  0.         -31.9650703 ]
 [  0.1         78.95364823]
 [  0.2         -0.5294376 ]
 [  0.25666667 -36.78296127]]","[[0.         1.45983082]
 [0.1        0.40013818]
 [0.2        0.96374115]
 [0.25666667 1.20732856]]",1,0.531
8749218289,f,19,french,4,5,french,2024-02-01 10:33:05.924446,False,2,501,sounds\french\audio/french_962.wav,"[[  0.         -23.88621243]
 [  0.1         -2.32674089]
 [  0.2         99.5739753 ]
 [  0.25666667 -60.89946795]]","[[0.         0.58686494]
 [0.1        1.96763724]
 [0.2        0.1339284 ]
 [0.25666667 0.14371278]]",1,0.22
8749218289,f,19,french,4,5,french,2024-02-01 10:33:05.924446,False,2,502,sounds\french\audio/french_680.wav,"[[  0.         -51.31535201]
 [  0.1        -31.64171723]
 [  0.2         81.67923452]
 [  0.25666667  54.52860803]]","[[0.         1.24719536]
 [0.1        1.74184859]
 [0.2        0.78878625]
 [0.25666667 1.82878415]]",1,0.458
