subj,trial,block,date,stim,stim_order,response,rt,age,english,language,sex,param_index,segment,pitch,stretch
AKY,0,0,2024-06-29T08:11:54.411Z,english_359.wav,0,0,11830,52,4,Japanese,f,0,0,16.62356483,0.11907426
AKY,0,0,2024-06-29T08:11:54.411Z,english_359.wav,0,0,11830,52,4,Japanese,f,1,0.1,-64.66657599,1.11022803
AKY,0,0,2024-06-29T08:11:54.411Z,english_359.wav,0,0,11830,52,4,Japanese,f,2,0.2,20.81574107,1.93552837
AKY,0,0,2024-06-29T08:11:54.411Z,english_359.wav,0,0,11830,52,4,Japanese,f,3,0.3,62.21324861,0.18628365
AKY,0,0,2024-06-29T08:11:54.411Z,english_359.wav,0,0,11830,52,4,Japanese,f,4,0.4,-96.92379856,1.68045213
AKY,0,0,2024-06-29T08:11:54.411Z,english_359.wav,0,0,11830,52,4,Japanese,f,5,0.5,-63.09314604,0.56124054
AKY,0,0,2024-06-29T08:11:54.411Z,english_359.wav,0,0,11830,52,4,Japanese,f,6,0.6,85.3804948,1.40840471
AKY,0,0,2024-06-29T08:11:54.411Z,english_359.wav,0,0,11830,52,4,Japanese,f,7,0.7,-5.84073458,0.76045624
AKY,0,0,2024-06-29T08:11:54.411Z,english_359.wav,0,0,11830,52,4,Japanese,f,8,0.8,1.07766227,0.79738911
AKY,0,0,2024-06-29T08:11:54.411Z,english_359.wav,0,0,11830,52,4,Japanese,f,9,0.9,-3.48391837,0.78873787
AKY,0,0,2024-06-29T08:11:54.411Z,english_359.wav,0,0,11830,52,4,Japanese,f,10,1,5.39755614,0.96854707
AKY,0,0,2024-06-29T08:11:54.411Z,english_359.wav,0,0,11830,52,4,Japanese,f,11,1.09391667,59.72301587,0.15927381
AKY,1,0,2024-06-29T08:11:54.411Z,english_766.wav,0,0,6109,52,4,Japanese,f,0,0,42.94713727,0.47626881
AKY,1,0,2024-06-29T08:11:54.411Z,english_766.wav,0,0,6109,52,4,Japanese,f,1,0.1,28.30886199,1.1713526
AKY,1,0,2024-06-29T08:11:54.411Z,english_766.wav,0,0,6109,52,4,Japanese,f,2,0.2,1.2264226,1.74074018
AKY,1,0,2024-06-29T08:11:54.411Z,english_766.wav,0,0,6109,52,4,Japanese,f,3,0.3,-18.98827785,1.46451689
AKY,1,0,2024-06-29T08:11:54.411Z,english_766.wav,0,0,6109,52,4,Japanese,f,4,0.4,56.2842172,1.82010581
AKY,1,0,2024-06-29T08:11:54.411Z,english_766.wav,0,0,6109,52,4,Japanese,f,5,0.5,-36.10050509,0.06402892
AKY,1,0,2024-06-29T08:11:54.411Z,english_766.wav,0,0,6109,52,4,Japanese,f,6,0.6,-35.32176748,1.19039401
AKY,1,0,2024-06-29T08:11:54.411Z,english_766.wav,0,0,6109,52,4,Japanese,f,7,0.7,-60.08162155,1.08978002
AKY,1,0,2024-06-29T08:11:54.411Z,english_766.wav,0,0,6109,52,4,Japanese,f,8,0.8,89.09432849,1.1905248
AKY,1,0,2024-06-29T08:11:54.411Z,english_766.wav,0,0,6109,52,4,Japanese,f,9,0.9,19.08224966,1.93919958
AKY,1,0,2024-06-29T08:11:54.411Z,english_766.wav,0,0,6109,52,4,Japanese,f,10,1,-35.22352631,1.038365
AKY,1,0,2024-06-29T08:11:54.411Z,english_766.wav,0,0,6109,52,4,Japanese,f,11,1.09391667,-47.26773358,0.66318898
AKY,2,0,2024-06-29T08:11:54.411Z,english_963.wav,0,1,4098,52,4,Japanese,f,0,0,12.85572416,1.75469767
AKY,2,0,2024-06-29T08:11:54.411Z,english_963.wav,0,1,4098,52,4,Japanese,f,1,0.1,-76.17617766,0.88786329
AKY,2,0,2024-06-29T08:11:54.411Z,english_963.wav,0,1,4098,52,4,Japanese,f,2,0.2,42.35975093,1.03977576
AKY,2,0,2024-06-29T08:11:54.411Z,english_963.wav,0,1,4098,52,4,Japanese,f,3,0.3,-29.56352697,0.40233076
AKY,2,0,2024-06-29T08:11:54.411Z,english_963.wav,0,1,4098,52,4,Japanese,f,4,0.4,1.9048802,1.77716713
AKY,2,0,2024-06-29T08:11:54.411Z,english_963.wav,0,1,4098,52,4,Japanese,f,5,0.5,-59.42176318,1.22252544
AKY,2,0,2024-06-29T08:11:54.411Z,english_963.wav,0,1,4098,52,4,Japanese,f,6,0.6,-90.23873789,1.36334994
AKY,2,0,2024-06-29T08:11:54.411Z,english_963.wav,0,1,4098,52,4,Japanese,f,7,0.7,96.0492683,0.19892648
AKY,2,0,2024-06-29T08:11:54.411Z,english_963.wav,0,1,4098,52,4,Japanese,f,8,0.8,-14.96705396,0.48578079
AKY,2,0,2024-06-29T08:11:54.411Z,english_963.wav,0,1,4098,52,4,Japanese,f,9,0.9,53.28049668,0.49525144
AKY,2,0,2024-06-29T08:11:54.411Z,english_963.wav,0,1,4098,52,4,Japanese,f,10,1,-50.64061571,1.97867338
AKY,2,0,2024-06-29T08:11:54.411Z,english_963.wav,0,1,4098,52,4,Japanese,f,11,1.09391667,33.50411271,0.71277393
AKY,3,0,2024-06-29T08:11:54.411Z,english_311.wav,0,1,4049,52,4,Japanese,f,0,0,64.66080996,0.82460416
AKY,3,0,2024-06-29T08:11:54.411Z,english_311.wav,0,1,4049,52,4,Japanese,f,1,0.1,-69.02575999,0.36483522
AKY,3,0,2024-06-29T08:11:54.411Z,english_311.wav,0,1,4049,52,4,Japanese,f,2,0.2,-67.68739859,0.7494254
AKY,3,0,2024-06-29T08:11:54.411Z,english_311.wav,0,1,4049,52,4,Japanese,f,3,0.3,44.13725608,0.5130867
AKY,3,0,2024-06-29T08:11:54.411Z,english_311.wav,0,1,4049,52,4,Japanese,f,4,0.4,93.17105676,0.37208425
AKY,3,0,2024-06-29T08:11:54.411Z,english_311.wav,0,1,4049,52,4,Japanese,f,5,0.5,84.82973528,1.19695655
AKY,3,0,2024-06-29T08:11:54.411Z,english_311.wav,0,1,4049,52,4,Japanese,f,6,0.6,-34.91706274,0.97358849
AKY,3,0,2024-06-29T08:11:54.411Z,english_311.wav,0,1,4049,52,4,Japanese,f,7,0.7,-93.26420788,1.42777336
AKY,3,0,2024-06-29T08:11:54.411Z,english_311.wav,0,1,4049,52,4,Japanese,f,8,0.8,78.86658017,1.14684196
AKY,3,0,2024-06-29T08:11:54.411Z,english_311.wav,0,1,4049,52,4,Japanese,f,9,0.9,-56.88823021,0.88829321
AKY,3,0,2024-06-29T08:11:54.411Z,english_311.wav,0,1,4049,52,4,Japanese,f,10,1,16.33779759,0.74783525
AKY,3,0,2024-06-29T08:11:54.411Z,english_311.wav,0,1,4049,52,4,Japanese,f,11,1.09391667,54.14062415,1.42501308
AKY,4,0,2024-06-29T08:11:54.411Z,english_436.wav,0,1,10028,52,4,Japanese,f,0,0,-5.79676766,0.51982844
AKY,4,0,2024-06-29T08:11:54.411Z,english_436.wav,0,1,10028,52,4,Japanese,f,1,0.1,-7.88979016,1.6050725
AKY,4,0,2024-06-29T08:11:54.411Z,english_436.wav,0,1,10028,52,4,Japanese,f,2,0.2,-30.02673636,1.59647027
AKY,4,0,2024-06-29T08:11:54.411Z,english_436.wav,0,1,10028,52,4,Japanese,f,3,0.3,10.91379363,1.97742112
AKY,4,0,2024-06-29T08:11:54.411Z,english_436.wav,0,1,10028,52,4,Japanese,f,4,0.4,1.79762369,1.85601804
AKY,4,0,2024-06-29T08:11:54.411Z,english_436.wav,0,1,10028,52,4,Japanese,f,5,0.5,73.94991314,1.38993988
AKY,4,0,2024-06-29T08:11:54.411Z,english_436.wav,0,1,10028,52,4,Japanese,f,6,0.6,77.03109361,1.43065154
AKY,4,0,2024-06-29T08:11:54.411Z,english_436.wav,0,1,10028,52,4,Japanese,f,7,0.7,-48.27841607,0.14937688
AKY,4,0,2024-06-29T08:11:54.411Z,english_436.wav,0,1,10028,52,4,Japanese,f,8,0.8,57.26579501,1.65528817
AKY,4,0,2024-06-29T08:11:54.411Z,english_436.wav,0,1,10028,52,4,Japanese,f,9,0.9,-80.56784579,1.0202375
AKY,4,0,2024-06-29T08:11:54.411Z,english_436.wav,0,1,10028,52,4,Japanese,f,10,1,64.74546515,1.82414723
AKY,4,0,2024-06-29T08:11:54.411Z,english_436.wav,0,1,10028,52,4,Japanese,f,11,1.09391667,5.24901362,1.00971458
AKY,5,0,2024-06-29T08:11:54.411Z,english_228.wav,0,0,7457,52,4,Japanese,f,0,0,-38.62058952,0.59116431
AKY,5,0,2024-06-29T08:11:54.411Z,english_228.wav,0,0,7457,52,4,Japanese,f,1,0.1,-18.01789453,0.00203405
AKY,5,0,2024-06-29T08:11:54.411Z,english_228.wav,0,0,7457,52,4,Japanese,f,2,0.2,-19.29810377,1.35615651
AKY,5,0,2024-06-29T08:11:54.411Z,english_228.wav,0,0,7457,52,4,Japanese,f,3,0.3,49.99042802,0.81421447
AKY,5,0,2024-06-29T08:11:54.411Z,english_228.wav,0,0,7457,52,4,Japanese,f,4,0.4,-38.68486719,0.65993526
AKY,5,0,2024-06-29T08:11:54.411Z,english_228.wav,0,0,7457,52,4,Japanese,f,5,0.5,47.61187018,1.77351482
AKY,5,0,2024-06-29T08:11:54.411Z,english_228.wav,0,0,7457,52,4,Japanese,f,6,0.6,-2.33725159,0.42798731
AKY,5,0,2024-06-29T08:11:54.411Z,english_228.wav,0,0,7457,52,4,Japanese,f,7,0.7,-44.85879225,1.42146574
AKY,5,0,2024-06-29T08:11:54.411Z,english_228.wav,0,0,7457,52,4,Japanese,f,8,0.8,-68.19671619,0.06445784
AKY,5,0,2024-06-29T08:11:54.411Z,english_228.wav,0,0,7457,52,4,Japanese,f,9,0.9,-17.76633123,0.43648336
AKY,5,0,2024-06-29T08:11:54.411Z,english_228.wav,0,0,7457,52,4,Japanese,f,10,1,14.76745117,0.26323344
AKY,5,0,2024-06-29T08:11:54.411Z,english_228.wav,0,0,7457,52,4,Japanese,f,11,1.09391667,22.84836671,0.30524069
AKY,6,0,2024-06-29T08:11:54.411Z,english_192.wav,0,0,3566,52,4,Japanese,f,0,0,-44.06496916,1.38059828
AKY,6,0,2024-06-29T08:11:54.411Z,english_192.wav,0,0,3566,52,4,Japanese,f,1,0.1,-1.73373059,0.79242211
AKY,6,0,2024-06-29T08:11:54.411Z,english_192.wav,0,0,3566,52,4,Japanese,f,2,0.2,-29.10510113,0.7213484
AKY,6,0,2024-06-29T08:11:54.411Z,english_192.wav,0,0,3566,52,4,Japanese,f,3,0.3,71.54582207,1.27323666
AKY,6,0,2024-06-29T08:11:54.411Z,english_192.wav,0,0,3566,52,4,Japanese,f,4,0.4,47.17920128,0.22557274
AKY,6,0,2024-06-29T08:11:54.411Z,english_192.wav,0,0,3566,52,4,Japanese,f,5,0.5,46.36925649,1.52280769
AKY,6,0,2024-06-29T08:11:54.411Z,english_192.wav,0,0,3566,52,4,Japanese,f,6,0.6,34.98575102,0.97358447
AKY,6,0,2024-06-29T08:11:54.411Z,english_192.wav,0,0,3566,52,4,Japanese,f,7,0.7,51.8668686,0.90127966
AKY,6,0,2024-06-29T08:11:54.411Z,english_192.wav,0,0,3566,52,4,Japanese,f,8,0.8,-35.42178409,0.86874685
AKY,6,0,2024-06-29T08:11:54.411Z,english_192.wav,0,0,3566,52,4,Japanese,f,9,0.9,-56.11776415,1.58446024
AKY,6,0,2024-06-29T08:11:54.411Z,english_192.wav,0,0,3566,52,4,Japanese,f,10,1,-44.79305263,1.51736237
AKY,6,0,2024-06-29T08:11:54.411Z,english_192.wav,0,0,3566,52,4,Japanese,f,11,1.09391667,37.72006641,0.71870831
AKY,7,0,2024-06-29T08:11:54.411Z,english_731.wav,0,0,2096,52,4,Japanese,f,0,0,-7.36185514,1.393769
AKY,7,0,2024-06-29T08:11:54.411Z,english_731.wav,0,0,2096,52,4,Japanese,f,1,0.1,90.53877185,0.98238467
AKY,7,0,2024-06-29T08:11:54.411Z,english_731.wav,0,0,2096,52,4,Japanese,f,2,0.2,-41.94407757,1.23695651
AKY,7,0,2024-06-29T08:11:54.411Z,english_731.wav,0,0,2096,52,4,Japanese,f,3,0.3,25.1521842,1.19631379
AKY,7,0,2024-06-29T08:11:54.411Z,english_731.wav,0,0,2096,52,4,Japanese,f,4,0.4,68.57946125,0.88911396
AKY,7,0,2024-06-29T08:11:54.411Z,english_731.wav,0,0,2096,52,4,Japanese,f,5,0.5,65.86891495,1.98349596
AKY,7,0,2024-06-29T08:11:54.411Z,english_731.wav,0,0,2096,52,4,Japanese,f,6,0.6,-52.28114947,0.8296111
AKY,7,0,2024-06-29T08:11:54.411Z,english_731.wav,0,0,2096,52,4,Japanese,f,7,0.7,15.16550818,0.44150217
AKY,7,0,2024-06-29T08:11:54.411Z,english_731.wav,0,0,2096,52,4,Japanese,f,8,0.8,25.27999627,1.48173114
AKY,7,0,2024-06-29T08:11:54.411Z,english_731.wav,0,0,2096,52,4,Japanese,f,9,0.9,11.70162838,1.09419359
AKY,7,0,2024-06-29T08:11:54.411Z,english_731.wav,0,0,2096,52,4,Japanese,f,10,1,-94.01759602,0.20829797
AKY,7,0,2024-06-29T08:11:54.411Z,english_731.wav,0,0,2096,52,4,Japanese,f,11,1.09391667,-3.24792735,1.32232845
AKY,8,0,2024-06-29T08:11:54.411Z,english_342.wav,0,0,3030,52,4,Japanese,f,0,0,41.55644967,0.78446862
AKY,8,0,2024-06-29T08:11:54.411Z,english_342.wav,0,0,3030,52,4,Japanese,f,1,0.1,67.8619368,0.85565407
AKY,8,0,2024-06-29T08:11:54.411Z,english_342.wav,0,0,3030,52,4,Japanese,f,2,0.2,-84.54944787,1.8318275
AKY,8,0,2024-06-29T08:11:54.411Z,english_342.wav,0,0,3030,52,4,Japanese,f,3,0.3,-13.40526133,1.61118522
AKY,8,0,2024-06-29T08:11:54.411Z,english_342.wav,0,0,3030,52,4,Japanese,f,4,0.4,84.55980061,0.75274568
AKY,8,0,2024-06-29T08:11:54.411Z,english_342.wav,0,0,3030,52,4,Japanese,f,5,0.5,-73.66695786,0.63423277
AKY,8,0,2024-06-29T08:11:54.411Z,english_342.wav,0,0,3030,52,4,Japanese,f,6,0.6,32.1068808,1.74871382
AKY,8,0,2024-06-29T08:11:54.411Z,english_342.wav,0,0,3030,52,4,Japanese,f,7,0.7,96.14629479,0.40859241
AKY,8,0,2024-06-29T08:11:54.411Z,english_342.wav,0,0,3030,52,4,Japanese,f,8,0.8,55.28291813,1.57798181
AKY,8,0,2024-06-29T08:11:54.411Z,english_342.wav,0,0,3030,52,4,Japanese,f,9,0.9,35.51210396,1.87430569
AKY,8,0,2024-06-29T08:11:54.411Z,english_342.wav,0,0,3030,52,4,Japanese,f,10,1,29.41468439,1.15438502
AKY,8,0,2024-06-29T08:11:54.411Z,english_342.wav,0,0,3030,52,4,Japanese,f,11,1.09391667,39.84982535,1.30694685
AKY,9,0,2024-06-29T08:11:54.411Z,english_616.wav,0,0,877,52,4,Japanese,f,0,0,-58.43899918,1.31887323
AKY,9,0,2024-06-29T08:11:54.411Z,english_616.wav,0,0,877,52,4,Japanese,f,1,0.1,91.54551443,1.19326366
AKY,9,0,2024-06-29T08:11:54.411Z,english_616.wav,0,0,877,52,4,Japanese,f,2,0.2,-72.76331238,1.15507306
AKY,9,0,2024-06-29T08:11:54.411Z,english_616.wav,0,0,877,52,4,Japanese,f,3,0.3,98.66983591,1.15408068
AKY,9,0,2024-06-29T08:11:54.411Z,english_616.wav,0,0,877,52,4,Japanese,f,4,0.4,30.89695447,1.80966351
AKY,9,0,2024-06-29T08:11:54.411Z,english_616.wav,0,0,877,52,4,Japanese,f,5,0.5,95.21036015,0.8568389
AKY,9,0,2024-06-29T08:11:54.411Z,english_616.wav,0,0,877,52,4,Japanese,f,6,0.6,38.34251154,0.52507159
AKY,9,0,2024-06-29T08:11:54.411Z,english_616.wav,0,0,877,52,4,Japanese,f,7,0.7,53.37022057,1.38987598
AKY,9,0,2024-06-29T08:11:54.411Z,english_616.wav,0,0,877,52,4,Japanese,f,8,0.8,64.27718414,1.91003383
AKY,9,0,2024-06-29T08:11:54.411Z,english_616.wav,0,0,877,52,4,Japanese,f,9,0.9,-47.15745764,1.62420327
AKY,9,0,2024-06-29T08:11:54.411Z,english_616.wav,0,0,877,52,4,Japanese,f,10,1,61.31789033,1.95831122
AKY,9,0,2024-06-29T08:11:54.411Z,english_616.wav,0,0,877,52,4,Japanese,f,11,1.09391667,-28.29544228,0.95794745
AKY,10,0,2024-06-29T08:11:54.411Z,english_816.wav,0,0,1158,52,4,Japanese,f,0,0,-17.35587933,1.80713615
AKY,10,0,2024-06-29T08:11:54.411Z,english_816.wav,0,0,1158,52,4,Japanese,f,1,0.1,0.95768859,0.65818518
AKY,10,0,2024-06-29T08:11:54.411Z,english_816.wav,0,0,1158,52,4,Japanese,f,2,0.2,47.37608494,0.13743933
AKY,10,0,2024-06-29T08:11:54.411Z,english_816.wav,0,0,1158,52,4,Japanese,f,3,0.3,-29.30928245,0.63156649
AKY,10,0,2024-06-29T08:11:54.411Z,english_816.wav,0,0,1158,52,4,Japanese,f,4,0.4,0.3886714,0.74841843
AKY,10,0,2024-06-29T08:11:54.411Z,english_816.wav,0,0,1158,52,4,Japanese,f,5,0.5,11.78751261,1.47868634
AKY,10,0,2024-06-29T08:11:54.411Z,english_816.wav,0,0,1158,52,4,Japanese,f,6,0.6,-3.17696206,1.19861887
AKY,10,0,2024-06-29T08:11:54.411Z,english_816.wav,0,0,1158,52,4,Japanese,f,7,0.7,-19.53944189,0.27488431
AKY,10,0,2024-06-29T08:11:54.411Z,english_816.wav,0,0,1158,52,4,Japanese,f,8,0.8,-7.70582249,0.84423799
AKY,10,0,2024-06-29T08:11:54.411Z,english_816.wav,0,0,1158,52,4,Japanese,f,9,0.9,-20.54964166,0.77450003
AKY,10,0,2024-06-29T08:11:54.411Z,english_816.wav,0,0,1158,52,4,Japanese,f,10,1,-60.75740285,1.95248665
AKY,10,0,2024-06-29T08:11:54.411Z,english_816.wav,0,0,1158,52,4,Japanese,f,11,1.09391667,-12.71558958,0.720403
AKY,11,0,2024-06-29T08:11:54.411Z,english_67.wav,0,0,3567,52,4,Japanese,f,0,0,-84.65948026,1.62658343
AKY,11,0,2024-06-29T08:11:54.411Z,english_67.wav,0,0,3567,52,4,Japanese,f,1,0.1,84.7606233,0.18718182
AKY,11,0,2024-06-29T08:11:54.411Z,english_67.wav,0,0,3567,52,4,Japanese,f,2,0.2,84.84791272,1.32224913
AKY,11,0,2024-06-29T08:11:54.411Z,english_67.wav,0,0,3567,52,4,Japanese,f,3,0.3,-54.63561635,1.26573793
AKY,11,0,2024-06-29T08:11:54.411Z,english_67.wav,0,0,3567,52,4,Japanese,f,4,0.4,-93.28689033,0.84125882
AKY,11,0,2024-06-29T08:11:54.411Z,english_67.wav,0,0,3567,52,4,Japanese,f,5,0.5,15.62357322,0.24401609
AKY,11,0,2024-06-29T08:11:54.411Z,english_67.wav,0,0,3567,52,4,Japanese,f,6,0.6,70.84522179,0.63082719
AKY,11,0,2024-06-29T08:11:54.411Z,english_67.wav,0,0,3567,52,4,Japanese,f,7,0.7,18.01432969,0.80351313
AKY,11,0,2024-06-29T08:11:54.411Z,english_67.wav,0,0,3567,52,4,Japanese,f,8,0.8,-96.46193504,0.91980261
AKY,11,0,2024-06-29T08:11:54.411Z,english_67.wav,0,0,3567,52,4,Japanese,f,9,0.9,-76.01913404,0.79845133
AKY,11,0,2024-06-29T08:11:54.411Z,english_67.wav,0,0,3567,52,4,Japanese,f,10,1,21.66220953,1.38280114
AKY,11,0,2024-06-29T08:11:54.411Z,english_67.wav,0,0,3567,52,4,Japanese,f,11,1.09391667,58.72019725,0.4179158
AKY,12,0,2024-06-29T08:11:54.411Z,english_299.wav,0,1,4288,52,4,Japanese,f,0,0,-74.4174694,1.88606728
AKY,12,0,2024-06-29T08:11:54.411Z,english_299.wav,0,1,4288,52,4,Japanese,f,1,0.1,67.95279973,1.33791825
AKY,12,0,2024-06-29T08:11:54.411Z,english_299.wav,0,1,4288,52,4,Japanese,f,2,0.2,-39.20846612,1.49728268
AKY,12,0,2024-06-29T08:11:54.411Z,english_299.wav,0,1,4288,52,4,Japanese,f,3,0.3,75.10442899,0.10286405
AKY,12,0,2024-06-29T08:11:54.411Z,english_299.wav,0,1,4288,52,4,Japanese,f,4,0.4,64.17156696,0.88852199
AKY,12,0,2024-06-29T08:11:54.411Z,english_299.wav,0,1,4288,52,4,Japanese,f,5,0.5,-42.38450544,0.77437708
AKY,12,0,2024-06-29T08:11:54.411Z,english_299.wav,0,1,4288,52,4,Japanese,f,6,0.6,-86.29317574,1.38211023
AKY,12,0,2024-06-29T08:11:54.411Z,english_299.wav,0,1,4288,52,4,Japanese,f,7,0.7,11.40905892,1.00427558
AKY,12,0,2024-06-29T08:11:54.411Z,english_299.wav,0,1,4288,52,4,Japanese,f,8,0.8,13.2984643,1.53256025
AKY,12,0,2024-06-29T08:11:54.411Z,english_299.wav,0,1,4288,52,4,Japanese,f,9,0.9,-36.56440039,1.00789046
AKY,12,0,2024-06-29T08:11:54.411Z,english_299.wav,0,1,4288,52,4,Japanese,f,10,1,-93.57212319,0.84413966
AKY,12,0,2024-06-29T08:11:54.411Z,english_299.wav,0,1,4288,52,4,Japanese,f,11,1.09391667,13.37429031,1.54480909
AKY,13,0,2024-06-29T08:11:54.411Z,english_463.wav,0,0,9870,52,4,Japanese,f,0,0,10.50801154,1.17811947
AKY,13,0,2024-06-29T08:11:54.411Z,english_463.wav,0,0,9870,52,4,Japanese,f,1,0.1,53.01075337,0.17767022
AKY,13,0,2024-06-29T08:11:54.411Z,english_463.wav,0,0,9870,52,4,Japanese,f,2,0.2,-45.92576003,0.48691175
AKY,13,0,2024-06-29T08:11:54.411Z,english_463.wav,0,0,9870,52,4,Japanese,f,3,0.3,19.52430908,0.61421231
AKY,13,0,2024-06-29T08:11:54.411Z,english_463.wav,0,0,9870,52,4,Japanese,f,4,0.4,-49.30728031,1.08242916
AKY,13,0,2024-06-29T08:11:54.411Z,english_463.wav,0,0,9870,52,4,Japanese,f,5,0.5,14.12996474,0.36464212
AKY,13,0,2024-06-29T08:11:54.411Z,english_463.wav,0,0,9870,52,4,Japanese,f,6,0.6,-38.56124135,1.11640778
AKY,13,0,2024-06-29T08:11:54.411Z,english_463.wav,0,0,9870,52,4,Japanese,f,7,0.7,60.51994471,0.46617429
AKY,13,0,2024-06-29T08:11:54.411Z,english_463.wav,0,0,9870,52,4,Japanese,f,8,0.8,-80.92150268,1.24207175
AKY,13,0,2024-06-29T08:11:54.411Z,english_463.wav,0,0,9870,52,4,Japanese,f,9,0.9,77.91302957,1.740718
AKY,13,0,2024-06-29T08:11:54.411Z,english_463.wav,0,0,9870,52,4,Japanese,f,10,1,-17.96219129,0.97634615
AKY,13,0,2024-06-29T08:11:54.411Z,english_463.wav,0,0,9870,52,4,Japanese,f,11,1.09391667,-4.0549477,0.84642764
AKY,14,0,2024-06-29T08:11:54.411Z,english_712.wav,0,1,6131,52,4,Japanese,f,0,0,-23.1463857,0.37379236
AKY,14,0,2024-06-29T08:11:54.411Z,english_712.wav,0,1,6131,52,4,Japanese,f,1,0.1,24.6800968,1.67699004
AKY,14,0,2024-06-29T08:11:54.411Z,english_712.wav,0,1,6131,52,4,Japanese,f,2,0.2,0.0161964332,1.79701075
AKY,14,0,2024-06-29T08:11:54.411Z,english_712.wav,0,1,6131,52,4,Japanese,f,3,0.3,-17.6606804,0.97598087
AKY,14,0,2024-06-29T08:11:54.411Z,english_712.wav,0,1,6131,52,4,Japanese,f,4,0.4,0.366433398,0.364202
AKY,14,0,2024-06-29T08:11:54.411Z,english_712.wav,0,1,6131,52,4,Japanese,f,5,0.5,92.1731967,1.74943947
AKY,14,0,2024-06-29T08:11:54.411Z,english_712.wav,0,1,6131,52,4,Japanese,f,6,0.6,37.7445609,0.51022449
AKY,14,0,2024-06-29T08:11:54.411Z,english_712.wav,0,1,6131,52,4,Japanese,f,7,0.7,36.1997785,1.89888437
AKY,14,0,2024-06-29T08:11:54.411Z,english_712.wav,0,1,6131,52,4,Japanese,f,8,0.8,68.1982864,1.17858578
AKY,14,0,2024-06-29T08:11:54.411Z,english_712.wav,0,1,6131,52,4,Japanese,f,9,0.9,89.0317309,0.87832213
AKY,14,0,2024-06-29T08:11:54.411Z,english_712.wav,0,1,6131,52,4,Japanese,f,10,1,-18.2298461,1.72214889
AKY,14,0,2024-06-29T08:11:54.411Z,english_712.wav,0,1,6131,52,4,Japanese,f,11,1.09391667,4.18738238,0.60066774
AKY,15,0,2024-06-29T08:11:54.411Z,english_736.wav,0,0,4424,52,4,Japanese,f,0,0,-40.28778627,1.23426282
AKY,15,0,2024-06-29T08:11:54.411Z,english_736.wav,0,0,4424,52,4,Japanese,f,1,0.1,-59.09726207,0.97807774
AKY,15,0,2024-06-29T08:11:54.411Z,english_736.wav,0,0,4424,52,4,Japanese,f,2,0.2,98.49969238,0.54049946
AKY,15,0,2024-06-29T08:11:54.411Z,english_736.wav,0,0,4424,52,4,Japanese,f,3,0.3,46.0778128,1.1691641
AKY,15,0,2024-06-29T08:11:54.411Z,english_736.wav,0,0,4424,52,4,Japanese,f,4,0.4,-55.04304699,1.22843398
AKY,15,0,2024-06-29T08:11:54.411Z,english_736.wav,0,0,4424,52,4,Japanese,f,5,0.5,34.12740936,0.9861662
AKY,15,0,2024-06-29T08:11:54.411Z,english_736.wav,0,0,4424,52,4,Japanese,f,6,0.6,54.26275803,0.17445904
AKY,15,0,2024-06-29T08:11:54.411Z,english_736.wav,0,0,4424,52,4,Japanese,f,7,0.7,-55.98308326,1.1578723
AKY,15,0,2024-06-29T08:11:54.411Z,english_736.wav,0,0,4424,52,4,Japanese,f,8,0.8,59.79863481,1.37075184
AKY,15,0,2024-06-29T08:11:54.411Z,english_736.wav,0,0,4424,52,4,Japanese,f,9,0.9,88.14503005,1.47849055
AKY,15,0,2024-06-29T08:11:54.411Z,english_736.wav,0,0,4424,52,4,Japanese,f,10,1,91.37007784,0.08571689
AKY,15,0,2024-06-29T08:11:54.411Z,english_736.wav,0,0,4424,52,4,Japanese,f,11,1.09391667,76.63160817,1.4768314
AKY,16,0,2024-06-29T08:11:54.411Z,english_503.wav,0,0,3714,52,4,Japanese,f,0,0,82.81450313,0.83149822
AKY,16,0,2024-06-29T08:11:54.411Z,english_503.wav,0,0,3714,52,4,Japanese,f,1,0.1,87.05662754,1.91463783
AKY,16,0,2024-06-29T08:11:54.411Z,english_503.wav,0,0,3714,52,4,Japanese,f,2,0.2,42.99051807,0.15190796
AKY,16,0,2024-06-29T08:11:54.411Z,english_503.wav,0,0,3714,52,4,Japanese,f,3,0.3,23.32883613,1.60754129
AKY,16,0,2024-06-29T08:11:54.411Z,english_503.wav,0,0,3714,52,4,Japanese,f,4,0.4,48.50951883,0.81229928
AKY,16,0,2024-06-29T08:11:54.411Z,english_503.wav,0,0,3714,52,4,Japanese,f,5,0.5,-47.47339199,1.3748652
AKY,16,0,2024-06-29T08:11:54.411Z,english_503.wav,0,0,3714,52,4,Japanese,f,6,0.6,-9.99119765,1.71927888
AKY,16,0,2024-06-29T08:11:54.411Z,english_503.wav,0,0,3714,52,4,Japanese,f,7,0.7,68.86997334,0.8455295
AKY,16,0,2024-06-29T08:11:54.411Z,english_503.wav,0,0,3714,52,4,Japanese,f,8,0.8,-44.22385081,0.49975448
AKY,16,0,2024-06-29T08:11:54.411Z,english_503.wav,0,0,3714,52,4,Japanese,f,9,0.9,14.75546466,0.2402037
AKY,16,0,2024-06-29T08:11:54.411Z,english_503.wav,0,0,3714,52,4,Japanese,f,10,1,-47.31135976,1.02101903
AKY,16,0,2024-06-29T08:11:54.411Z,english_503.wav,0,0,3714,52,4,Japanese,f,11,1.09391667,-18.86254353,1.59376689
AKY,17,0,2024-06-29T08:11:54.411Z,english_613.wav,0,1,2359,52,4,Japanese,f,0,0,56.02417359,1.45969094
AKY,17,0,2024-06-29T08:11:54.411Z,english_613.wav,0,1,2359,52,4,Japanese,f,1,0.1,-15.12096295,0.70307333
AKY,17,0,2024-06-29T08:11:54.411Z,english_613.wav,0,1,2359,52,4,Japanese,f,2,0.2,24.11599025,1.55595157
AKY,17,0,2024-06-29T08:11:54.411Z,english_613.wav,0,1,2359,52,4,Japanese,f,3,0.3,-98.52161237,0.89820675
AKY,17,0,2024-06-29T08:11:54.411Z,english_613.wav,0,1,2359,52,4,Japanese,f,4,0.4,-83.03822249,1.36107021
AKY,17,0,2024-06-29T08:11:54.411Z,english_613.wav,0,1,2359,52,4,Japanese,f,5,0.5,21.43017138,0.16432707
AKY,17,0,2024-06-29T08:11:54.411Z,english_613.wav,0,1,2359,52,4,Japanese,f,6,0.6,63.83169659,0.04833877
AKY,17,0,2024-06-29T08:11:54.411Z,english_613.wav,0,1,2359,52,4,Japanese,f,7,0.7,20.52778074,0.40598637
AKY,17,0,2024-06-29T08:11:54.411Z,english_613.wav,0,1,2359,52,4,Japanese,f,8,0.8,94.54806404,1.56556559
AKY,17,0,2024-06-29T08:11:54.411Z,english_613.wav,0,1,2359,52,4,Japanese,f,9,0.9,22.39216261,0.73835637
AKY,17,0,2024-06-29T08:11:54.411Z,english_613.wav,0,1,2359,52,4,Japanese,f,10,1,-21.9484098,1.13631796
AKY,17,0,2024-06-29T08:11:54.411Z,english_613.wav,0,1,2359,52,4,Japanese,f,11,1.09391667,-64.50590256,0.17382409
AKY,18,0,2024-06-29T08:11:54.411Z,english_236.wav,0,0,1290,52,4,Japanese,f,0,0,-58.47147348,1.25570844
AKY,18,0,2024-06-29T08:11:54.411Z,english_236.wav,0,0,1290,52,4,Japanese,f,1,0.1,25.25879028,1.3068123
AKY,18,0,2024-06-29T08:11:54.411Z,english_236.wav,0,0,1290,52,4,Japanese,f,2,0.2,-78.78616324,1.48831799
AKY,18,0,2024-06-29T08:11:54.411Z,english_236.wav,0,0,1290,52,4,Japanese,f,3,0.3,11.29938963,0.34919936
AKY,18,0,2024-06-29T08:11:54.411Z,english_236.wav,0,0,1290,52,4,Japanese,f,4,0.4,39.53352696,1.00725943
AKY,18,0,2024-06-29T08:11:54.411Z,english_236.wav,0,0,1290,52,4,Japanese,f,5,0.5,91.57483284,1.25472599
AKY,18,0,2024-06-29T08:11:54.411Z,english_236.wav,0,0,1290,52,4,Japanese,f,6,0.6,22.72019707,1.46652556
AKY,18,0,2024-06-29T08:11:54.411Z,english_236.wav,0,0,1290,52,4,Japanese,f,7,0.7,30.21012118,0.98566412
AKY,18,0,2024-06-29T08:11:54.411Z,english_236.wav,0,0,1290,52,4,Japanese,f,8,0.8,-41.20304871,1.93402839
AKY,18,0,2024-06-29T08:11:54.411Z,english_236.wav,0,0,1290,52,4,Japanese,f,9,0.9,28.6164571,1.61503367
AKY,18,0,2024-06-29T08:11:54.411Z,english_236.wav,0,0,1290,52,4,Japanese,f,10,1,36.23029146,0.92571768
AKY,18,0,2024-06-29T08:11:54.411Z,english_236.wav,0,0,1290,52,4,Japanese,f,11,1.09391667,-21.60177346,1.50534637
AKY,19,0,2024-06-29T08:11:54.411Z,english_765.wav,0,0,1522,52,4,Japanese,f,0,0,-46.53041628,0.24046298
AKY,19,0,2024-06-29T08:11:54.411Z,english_765.wav,0,0,1522,52,4,Japanese,f,1,0.1,-50.60278258,1.09360201
AKY,19,0,2024-06-29T08:11:54.411Z,english_765.wav,0,0,1522,52,4,Japanese,f,2,0.2,-7.48188076,0.57764993
AKY,19,0,2024-06-29T08:11:54.411Z,english_765.wav,0,0,1522,52,4,Japanese,f,3,0.3,-4.61052544,0.55520632
AKY,19,0,2024-06-29T08:11:54.411Z,english_765.wav,0,0,1522,52,4,Japanese,f,4,0.4,69.78049639,0.44903327
AKY,19,0,2024-06-29T08:11:54.411Z,english_765.wav,0,0,1522,52,4,Japanese,f,5,0.5,-53.58575129,0.63867698
AKY,19,0,2024-06-29T08:11:54.411Z,english_765.wav,0,0,1522,52,4,Japanese,f,6,0.6,-46.38219648,0.56842849
AKY,19,0,2024-06-29T08:11:54.411Z,english_765.wav,0,0,1522,52,4,Japanese,f,7,0.7,78.75215399,1.28188815
AKY,19,0,2024-06-29T08:11:54.411Z,english_765.wav,0,0,1522,52,4,Japanese,f,8,0.8,95.47520091,0.91009427
AKY,19,0,2024-06-29T08:11:54.411Z,english_765.wav,0,0,1522,52,4,Japanese,f,9,0.9,26.22396157,0.76285115
AKY,19,0,2024-06-29T08:11:54.411Z,english_765.wav,0,0,1522,52,4,Japanese,f,10,1,3.12654745,1.19675799
AKY,19,0,2024-06-29T08:11:54.411Z,english_765.wav,0,0,1522,52,4,Japanese,f,11,1.09391667,-11.81611391,0.81915378
AKY,20,0,2024-06-29T08:11:54.411Z,english_449.wav,0,0,178,52,4,Japanese,f,0,0,-44.55388373,1.29710548
AKY,20,0,2024-06-29T08:11:54.411Z,english_449.wav,0,0,178,52,4,Japanese,f,1,0.1,-6.72313799,1.06558485
AKY,20,0,2024-06-29T08:11:54.411Z,english_449.wav,0,0,178,52,4,Japanese,f,2,0.2,79.06263513,1.64594706
AKY,20,0,2024-06-29T08:11:54.411Z,english_449.wav,0,0,178,52,4,Japanese,f,3,0.3,-55.67409496,0.52101608
AKY,20,0,2024-06-29T08:11:54.411Z,english_449.wav,0,0,178,52,4,Japanese,f,4,0.4,-98.00845055,1.47445199
AKY,20,0,2024-06-29T08:11:54.411Z,english_449.wav,0,0,178,52,4,Japanese,f,5,0.5,11.95490186,0.94544277
AKY,20,0,2024-06-29T08:11:54.411Z,english_449.wav,0,0,178,52,4,Japanese,f,6,0.6,61.24554038,1.90306494
AKY,20,0,2024-06-29T08:11:54.411Z,english_449.wav,0,0,178,52,4,Japanese,f,7,0.7,22.84997393,1.15810732
AKY,20,0,2024-06-29T08:11:54.411Z,english_449.wav,0,0,178,52,4,Japanese,f,8,0.8,-43.41021729,0.26889852
AKY,20,0,2024-06-29T08:11:54.411Z,english_449.wav,0,0,178,52,4,Japanese,f,9,0.9,-0.66438627,1.02983536
AKY,20,0,2024-06-29T08:11:54.411Z,english_449.wav,0,0,178,52,4,Japanese,f,10,1,97.92538247,1.13790703
AKY,20,0,2024-06-29T08:11:54.411Z,english_449.wav,0,0,178,52,4,Japanese,f,11,1.09391667,-73.561514,0.97073961
AKY,21,0,2024-06-29T08:11:54.411Z,english_220.wav,0,1,3909,52,4,Japanese,f,0,0,-71.93993547,1.17959242
AKY,21,0,2024-06-29T08:11:54.411Z,english_220.wav,0,1,3909,52,4,Japanese,f,1,0.1,-1.62152464,1.60180584
AKY,21,0,2024-06-29T08:11:54.411Z,english_220.wav,0,1,3909,52,4,Japanese,f,2,0.2,50.61668834,0.65172432
AKY,21,0,2024-06-29T08:11:54.411Z,english_220.wav,0,1,3909,52,4,Japanese,f,3,0.3,-81.57207342,1.31776936
AKY,21,0,2024-06-29T08:11:54.411Z,english_220.wav,0,1,3909,52,4,Japanese,f,4,0.4,25.23040328,0.27212312
AKY,21,0,2024-06-29T08:11:54.411Z,english_220.wav,0,1,3909,52,4,Japanese,f,5,0.5,-31.83310786,0.63067237
AKY,21,0,2024-06-29T08:11:54.411Z,english_220.wav,0,1,3909,52,4,Japanese,f,6,0.6,-66.5422469,0.24736815
AKY,21,0,2024-06-29T08:11:54.411Z,english_220.wav,0,1,3909,52,4,Japanese,f,7,0.7,42.39816589,1.98971363
AKY,21,0,2024-06-29T08:11:54.411Z,english_220.wav,0,1,3909,52,4,Japanese,f,8,0.8,6.21411894,1.78438062
AKY,21,0,2024-06-29T08:11:54.411Z,english_220.wav,0,1,3909,52,4,Japanese,f,9,0.9,64.95547395,0.78537094
AKY,21,0,2024-06-29T08:11:54.411Z,english_220.wav,0,1,3909,52,4,Japanese,f,10,1,-81.60559831,1.30952979
AKY,21,0,2024-06-29T08:11:54.411Z,english_220.wav,0,1,3909,52,4,Japanese,f,11,1.09391667,-34.61937884,0.30452812
AKY,22,0,2024-06-29T08:11:54.411Z,english_547.wav,0,0,1406,52,4,Japanese,f,0,0,-84.56242422,0.88058973
AKY,22,0,2024-06-29T08:11:54.411Z,english_547.wav,0,0,1406,52,4,Japanese,f,1,0.1,99.9800097,1.57875619
AKY,22,0,2024-06-29T08:11:54.411Z,english_547.wav,0,0,1406,52,4,Japanese,f,2,0.2,-74.27935954,1.10539411
AKY,22,0,2024-06-29T08:11:54.411Z,english_547.wav,0,0,1406,52,4,Japanese,f,3,0.3,89.44673422,1.02984743
AKY,22,0,2024-06-29T08:11:54.411Z,english_547.wav,0,0,1406,52,4,Japanese,f,4,0.4,-91.74996992,1.38707534
AKY,22,0,2024-06-29T08:11:54.411Z,english_547.wav,0,0,1406,52,4,Japanese,f,5,0.5,-18.76785599,1.26965367
AKY,22,0,2024-06-29T08:11:54.411Z,english_547.wav,0,0,1406,52,4,Japanese,f,6,0.6,-51.12732076,1.25509145
AKY,22,0,2024-06-29T08:11:54.411Z,english_547.wav,0,0,1406,52,4,Japanese,f,7,0.7,14.86623417,1.52290103
AKY,22,0,2024-06-29T08:11:54.411Z,english_547.wav,0,0,1406,52,4,Japanese,f,8,0.8,92.41843581,1.30528153
AKY,22,0,2024-06-29T08:11:54.411Z,english_547.wav,0,0,1406,52,4,Japanese,f,9,0.9,81.77291175,0.94706354
AKY,22,0,2024-06-29T08:11:54.411Z,english_547.wav,0,0,1406,52,4,Japanese,f,10,1,63.1035346,1.72712252
AKY,22,0,2024-06-29T08:11:54.411Z,english_547.wav,0,0,1406,52,4,Japanese,f,11,1.09391667,48.67701743,1.8227726
AKY,23,0,2024-06-29T08:11:54.411Z,english_448.wav,0,0,4508,52,4,Japanese,f,0,0,-36.42010561,0.75921607
AKY,23,0,2024-06-29T08:11:54.411Z,english_448.wav,0,0,4508,52,4,Japanese,f,1,0.1,47.73001377,0.95293974
AKY,23,0,2024-06-29T08:11:54.411Z,english_448.wav,0,0,4508,52,4,Japanese,f,2,0.2,93.59806646,0.22586708
AKY,23,0,2024-06-29T08:11:54.411Z,english_448.wav,0,0,4508,52,4,Japanese,f,3,0.3,-71.28004739,1.48750577
AKY,23,0,2024-06-29T08:11:54.411Z,english_448.wav,0,0,4508,52,4,Japanese,f,4,0.4,-73.37708676,0.17134927
AKY,23,0,2024-06-29T08:11:54.411Z,english_448.wav,0,0,4508,52,4,Japanese,f,5,0.5,74.57279085,1.2791033
AKY,23,0,2024-06-29T08:11:54.411Z,english_448.wav,0,0,4508,52,4,Japanese,f,6,0.6,93.06132311,0.73590712
AKY,23,0,2024-06-29T08:11:54.411Z,english_448.wav,0,0,4508,52,4,Japanese,f,7,0.7,53.53303026,1.42606803
AKY,23,0,2024-06-29T08:11:54.411Z,english_448.wav,0,0,4508,52,4,Japanese,f,8,0.8,-57.75366267,1.73700286
AKY,23,0,2024-06-29T08:11:54.411Z,english_448.wav,0,0,4508,52,4,Japanese,f,9,0.9,-26.4449428,1.39235574
AKY,23,0,2024-06-29T08:11:54.411Z,english_448.wav,0,0,4508,52,4,Japanese,f,10,1,-31.70641096,0.50787566
AKY,23,0,2024-06-29T08:11:54.411Z,english_448.wav,0,0,4508,52,4,Japanese,f,11,1.09391667,-10.08807531,1.19414628
AKY,24,0,2024-06-29T08:11:54.411Z,english_280.wav,0,0,247,52,4,Japanese,f,0,0,88.39262763,0.21682945
AKY,24,0,2024-06-29T08:11:54.411Z,english_280.wav,0,0,247,52,4,Japanese,f,1,0.1,-30.0419816,1.88667459
AKY,24,0,2024-06-29T08:11:54.411Z,english_280.wav,0,0,247,52,4,Japanese,f,2,0.2,-70.85942958,0.16117743
AKY,24,0,2024-06-29T08:11:54.411Z,english_280.wav,0,0,247,52,4,Japanese,f,3,0.3,-46.07032191,0.35719266
AKY,24,0,2024-06-29T08:11:54.411Z,english_280.wav,0,0,247,52,4,Japanese,f,4,0.4,22.37889655,1.6700127
AKY,24,0,2024-06-29T08:11:54.411Z,english_280.wav,0,0,247,52,4,Japanese,f,5,0.5,47.83072725,1.73336776
AKY,24,0,2024-06-29T08:11:54.411Z,english_280.wav,0,0,247,52,4,Japanese,f,6,0.6,22.02613007,0.653825
AKY,24,0,2024-06-29T08:11:54.411Z,english_280.wav,0,0,247,52,4,Japanese,f,7,0.7,-10.57655449,1.99113264
AKY,24,0,2024-06-29T08:11:54.411Z,english_280.wav,0,0,247,52,4,Japanese,f,8,0.8,78.01759084,1.83439976
AKY,24,0,2024-06-29T08:11:54.411Z,english_280.wav,0,0,247,52,4,Japanese,f,9,0.9,38.41828257,1.29158868
AKY,24,0,2024-06-29T08:11:54.411Z,english_280.wav,0,0,247,52,4,Japanese,f,10,1,88.43566384,1.21494043
AKY,24,0,2024-06-29T08:11:54.411Z,english_280.wav,0,0,247,52,4,Japanese,f,11,1.09391667,-41.21843243,1.43203323
AKY,25,0,2024-06-29T08:11:54.411Z,english_594.wav,0,0,1460,52,4,Japanese,f,0,0,-6.10063938,0.03940385
AKY,25,0,2024-06-29T08:11:54.411Z,english_594.wav,0,0,1460,52,4,Japanese,f,1,0.1,-56.51028651,0.67979763
AKY,25,0,2024-06-29T08:11:54.411Z,english_594.wav,0,0,1460,52,4,Japanese,f,2,0.2,-40.09571675,0.90921071
AKY,25,0,2024-06-29T08:11:54.411Z,english_594.wav,0,0,1460,52,4,Japanese,f,3,0.3,61.97563687,0.53210088
AKY,25,0,2024-06-29T08:11:54.411Z,english_594.wav,0,0,1460,52,4,Japanese,f,4,0.4,-85.53288451,0.284195
AKY,25,0,2024-06-29T08:11:54.411Z,english_594.wav,0,0,1460,52,4,Japanese,f,5,0.5,6.67279942,0.75512393
AKY,25,0,2024-06-29T08:11:54.411Z,english_594.wav,0,0,1460,52,4,Japanese,f,6,0.6,48.92783255,0.67826493
AKY,25,0,2024-06-29T08:11:54.411Z,english_594.wav,0,0,1460,52,4,Japanese,f,7,0.7,-71.33031091,0.91947698
AKY,25,0,2024-06-29T08:11:54.411Z,english_594.wav,0,0,1460,52,4,Japanese,f,8,0.8,8.29148897,0.21678931
AKY,25,0,2024-06-29T08:11:54.411Z,english_594.wav,0,0,1460,52,4,Japanese,f,9,0.9,42.69425852,1.1378317
AKY,25,0,2024-06-29T08:11:54.411Z,english_594.wav,0,0,1460,52,4,Japanese,f,10,1,-32.82046223,1.58275183
AKY,25,0,2024-06-29T08:11:54.411Z,english_594.wav,0,0,1460,52,4,Japanese,f,11,1.09391667,-55.40353935,1.87399103
AKY,26,0,2024-06-29T08:11:54.411Z,english_110.wav,0,0,1118,52,4,Japanese,f,0,0,45.88171242,1.49952965
AKY,26,0,2024-06-29T08:11:54.411Z,english_110.wav,0,0,1118,52,4,Japanese,f,1,0.1,19.65275358,1.27857126
AKY,26,0,2024-06-29T08:11:54.411Z,english_110.wav,0,0,1118,52,4,Japanese,f,2,0.2,-52.5669285,1.16755208
AKY,26,0,2024-06-29T08:11:54.411Z,english_110.wav,0,0,1118,52,4,Japanese,f,3,0.3,50.69142125,1.53878992
AKY,26,0,2024-06-29T08:11:54.411Z,english_110.wav,0,0,1118,52,4,Japanese,f,4,0.4,62.87836258,1.32526566
AKY,26,0,2024-06-29T08:11:54.411Z,english_110.wav,0,0,1118,52,4,Japanese,f,5,0.5,39.63979386,1.5325195
AKY,26,0,2024-06-29T08:11:54.411Z,english_110.wav,0,0,1118,52,4,Japanese,f,6,0.6,-26.37670891,0.18426731
AKY,26,0,2024-06-29T08:11:54.411Z,english_110.wav,0,0,1118,52,4,Japanese,f,7,0.7,-93.2202358,1.63742876
AKY,26,0,2024-06-29T08:11:54.411Z,english_110.wav,0,0,1118,52,4,Japanese,f,8,0.8,-56.06410486,1.91360144
AKY,26,0,2024-06-29T08:11:54.411Z,english_110.wav,0,0,1118,52,4,Japanese,f,9,0.9,-55.01568925,1.5607569
AKY,26,0,2024-06-29T08:11:54.411Z,english_110.wav,0,0,1118,52,4,Japanese,f,10,1,78.10124913,0.22178097
AKY,26,0,2024-06-29T08:11:54.411Z,english_110.wav,0,0,1118,52,4,Japanese,f,11,1.09391667,16.50451183,0.02570083
AKY,27,0,2024-06-29T08:11:54.411Z,english_366.wav,0,0,2300,52,4,Japanese,f,0,0,-51.97670193,0.41387665
AKY,27,0,2024-06-29T08:11:54.411Z,english_366.wav,0,0,2300,52,4,Japanese,f,1,0.1,-66.3802986,1.82440093
AKY,27,0,2024-06-29T08:11:54.411Z,english_366.wav,0,0,2300,52,4,Japanese,f,2,0.2,-43.44577517,1.51666721
AKY,27,0,2024-06-29T08:11:54.411Z,english_366.wav,0,0,2300,52,4,Japanese,f,3,0.3,-27.66745881,0.79221573
AKY,27,0,2024-06-29T08:11:54.411Z,english_366.wav,0,0,2300,52,4,Japanese,f,4,0.4,-24.71146446,1.07358208
AKY,27,0,2024-06-29T08:11:54.411Z,english_366.wav,0,0,2300,52,4,Japanese,f,5,0.5,7.18823907,0.88629464
AKY,27,0,2024-06-29T08:11:54.411Z,english_366.wav,0,0,2300,52,4,Japanese,f,6,0.6,-1.04467208,1.421231
AKY,27,0,2024-06-29T08:11:54.411Z,english_366.wav,0,0,2300,52,4,Japanese,f,7,0.7,-90.31563808,0.93675223
AKY,27,0,2024-06-29T08:11:54.411Z,english_366.wav,0,0,2300,52,4,Japanese,f,8,0.8,-10.23526275,1.47759882
AKY,27,0,2024-06-29T08:11:54.411Z,english_366.wav,0,0,2300,52,4,Japanese,f,9,0.9,47.79218582,1.29623614
AKY,27,0,2024-06-29T08:11:54.411Z,english_366.wav,0,0,2300,52,4,Japanese,f,10,1,3.55736556,1.92903866
AKY,27,0,2024-06-29T08:11:54.411Z,english_366.wav,0,0,2300,52,4,Japanese,f,11,1.09391667,-83.88061388,1.30968338
AKY,28,0,2024-06-29T08:11:54.411Z,english_758.wav,0,0,3272,52,4,Japanese,f,0,0,44.67997232,1.19309781
AKY,28,0,2024-06-29T08:11:54.411Z,english_758.wav,0,0,3272,52,4,Japanese,f,1,0.1,27.10099403,0.27221696
AKY,28,0,2024-06-29T08:11:54.411Z,english_758.wav,0,0,3272,52,4,Japanese,f,2,0.2,-48.30493583,0.58591156
AKY,28,0,2024-06-29T08:11:54.411Z,english_758.wav,0,0,3272,52,4,Japanese,f,3,0.3,-73.5260898,1.06118241
AKY,28,0,2024-06-29T08:11:54.411Z,english_758.wav,0,0,3272,52,4,Japanese,f,4,0.4,19.32057449,1.53382291
AKY,28,0,2024-06-29T08:11:54.411Z,english_758.wav,0,0,3272,52,4,Japanese,f,5,0.5,-32.65273306,1.10934516
AKY,28,0,2024-06-29T08:11:54.411Z,english_758.wav,0,0,3272,52,4,Japanese,f,6,0.6,-67.58997162,1.53621874
AKY,28,0,2024-06-29T08:11:54.411Z,english_758.wav,0,0,3272,52,4,Japanese,f,7,0.7,-76.10184919,0.32907917
AKY,28,0,2024-06-29T08:11:54.411Z,english_758.wav,0,0,3272,52,4,Japanese,f,8,0.8,55.20632284,0.47500698
AKY,28,0,2024-06-29T08:11:54.411Z,english_758.wav,0,0,3272,52,4,Japanese,f,9,0.9,3.61347388,1.81944253
AKY,28,0,2024-06-29T08:11:54.411Z,english_758.wav,0,0,3272,52,4,Japanese,f,10,1,-39.33689268,1.02148435
AKY,28,0,2024-06-29T08:11:54.411Z,english_758.wav,0,0,3272,52,4,Japanese,f,11,1.09391667,44.43004874,0.12347796
AKY,29,0,2024-06-29T08:11:54.411Z,english_984.wav,0,0,500,52,4,Japanese,f,0,0,37.06586667,0.38877409
AKY,29,0,2024-06-29T08:11:54.411Z,english_984.wav,0,0,500,52,4,Japanese,f,1,0.1,50.7395804,1.41531624
AKY,29,0,2024-06-29T08:11:54.411Z,english_984.wav,0,0,500,52,4,Japanese,f,2,0.2,-33.05935168,1.73475513
AKY,29,0,2024-06-29T08:11:54.411Z,english_984.wav,0,0,500,52,4,Japanese,f,3,0.3,-68.36129611,0.46912413
AKY,29,0,2024-06-29T08:11:54.411Z,english_984.wav,0,0,500,52,4,Japanese,f,4,0.4,97.30192,0.39793421
AKY,29,0,2024-06-29T08:11:54.411Z,english_984.wav,0,0,500,52,4,Japanese,f,5,0.5,69.61380095,0.96500121
AKY,29,0,2024-06-29T08:11:54.411Z,english_984.wav,0,0,500,52,4,Japanese,f,6,0.6,69.64301942,1.49151778
AKY,29,0,2024-06-29T08:11:54.411Z,english_984.wav,0,0,500,52,4,Japanese,f,7,0.7,38.81811493,0.60244076
AKY,29,0,2024-06-29T08:11:54.411Z,english_984.wav,0,0,500,52,4,Japanese,f,8,0.8,9.12823389,0.32922577
AKY,29,0,2024-06-29T08:11:54.411Z,english_984.wav,0,0,500,52,4,Japanese,f,9,0.9,-90.77472933,0.54557953
AKY,29,0,2024-06-29T08:11:54.411Z,english_984.wav,0,0,500,52,4,Japanese,f,10,1,-60.21880391,0.88296579
AKY,29,0,2024-06-29T08:11:54.411Z,english_984.wav,0,0,500,52,4,Japanese,f,11,1.09391667,58.74577388,0.48906192
AKY,30,0,2024-06-29T08:11:54.411Z,english_837.wav,0,0,340,52,4,Japanese,f,0,0,-19.55907837,0.36214908
AKY,30,0,2024-06-29T08:11:54.411Z,english_837.wav,0,0,340,52,4,Japanese,f,1,0.1,81.5519268,1.07178346
AKY,30,0,2024-06-29T08:11:54.411Z,english_837.wav,0,0,340,52,4,Japanese,f,2,0.2,51.06726568,0.32034272
AKY,30,0,2024-06-29T08:11:54.411Z,english_837.wav,0,0,340,52,4,Japanese,f,3,0.3,11.56573734,0.28433719
AKY,30,0,2024-06-29T08:11:54.411Z,english_837.wav,0,0,340,52,4,Japanese,f,4,0.4,3.9548588,0.83672743
AKY,30,0,2024-06-29T08:11:54.411Z,english_837.wav,0,0,340,52,4,Japanese,f,5,0.5,-33.36822777,0.19314145
AKY,30,0,2024-06-29T08:11:54.411Z,english_837.wav,0,0,340,52,4,Japanese,f,6,0.6,36.7691739,0.96322299
AKY,30,0,2024-06-29T08:11:54.411Z,english_837.wav,0,0,340,52,4,Japanese,f,7,0.7,-18.61244812,1.32224338
AKY,30,0,2024-06-29T08:11:54.411Z,english_837.wav,0,0,340,52,4,Japanese,f,8,0.8,16.54769658,1.87041814
AKY,30,0,2024-06-29T08:11:54.411Z,english_837.wav,0,0,340,52,4,Japanese,f,9,0.9,-37.16394557,0.06067537
AKY,30,0,2024-06-29T08:11:54.411Z,english_837.wav,0,0,340,52,4,Japanese,f,10,1,10.95001842,0.49261583
AKY,30,0,2024-06-29T08:11:54.411Z,english_837.wav,0,0,340,52,4,Japanese,f,11,1.09391667,34.38345354,1.54886366
AKY,31,0,2024-06-29T08:11:54.411Z,english_988.wav,0,0,958,52,4,Japanese,f,0,0,41.01121176,1.79508408
AKY,31,0,2024-06-29T08:11:54.411Z,english_988.wav,0,0,958,52,4,Japanese,f,1,0.1,-57.00509923,0.91683768
AKY,31,0,2024-06-29T08:11:54.411Z,english_988.wav,0,0,958,52,4,Japanese,f,2,0.2,-47.7423933,0.75632301
AKY,31,0,2024-06-29T08:11:54.411Z,english_988.wav,0,0,958,52,4,Japanese,f,3,0.3,-45.09224268,0.50123111
AKY,31,0,2024-06-29T08:11:54.411Z,english_988.wav,0,0,958,52,4,Japanese,f,4,0.4,-86.23747248,1.43218642
AKY,31,0,2024-06-29T08:11:54.411Z,english_988.wav,0,0,958,52,4,Japanese,f,5,0.5,32.23270896,1.02417726
AKY,31,0,2024-06-29T08:11:54.411Z,english_988.wav,0,0,958,52,4,Japanese,f,6,0.6,83.03664367,0.26646991
AKY,31,0,2024-06-29T08:11:54.411Z,english_988.wav,0,0,958,52,4,Japanese,f,7,0.7,23.13228138,0.55372386
AKY,31,0,2024-06-29T08:11:54.411Z,english_988.wav,0,0,958,52,4,Japanese,f,8,0.8,-80.96876175,1.25427564
AKY,31,0,2024-06-29T08:11:54.411Z,english_988.wav,0,0,958,52,4,Japanese,f,9,0.9,85.87163391,1.46901823
AKY,31,0,2024-06-29T08:11:54.411Z,english_988.wav,0,0,958,52,4,Japanese,f,10,1,65.98257536,1.62105321
AKY,31,0,2024-06-29T08:11:54.411Z,english_988.wav,0,0,958,52,4,Japanese,f,11,1.09391667,8.92791605,1.15707193
AKY,32,0,2024-06-29T08:11:54.411Z,english_154.wav,0,0,610,52,4,Japanese,f,0,0,50.07590523,1.91490825
AKY,32,0,2024-06-29T08:11:54.411Z,english_154.wav,0,0,610,52,4,Japanese,f,1,0.1,54.36539589,1.49511577
AKY,32,0,2024-06-29T08:11:54.411Z,english_154.wav,0,0,610,52,4,Japanese,f,2,0.2,-33.00647988,0.88521845
AKY,32,0,2024-06-29T08:11:54.411Z,english_154.wav,0,0,610,52,4,Japanese,f,3,0.3,-21.71222975,1.92896632
AKY,32,0,2024-06-29T08:11:54.411Z,english_154.wav,0,0,610,52,4,Japanese,f,4,0.4,-59.72627018,1.65018162
AKY,32,0,2024-06-29T08:11:54.411Z,english_154.wav,0,0,610,52,4,Japanese,f,5,0.5,-65.27928089,0.16844772
AKY,32,0,2024-06-29T08:11:54.411Z,english_154.wav,0,0,610,52,4,Japanese,f,6,0.6,25.37742378,1.26574184
AKY,32,0,2024-06-29T08:11:54.411Z,english_154.wav,0,0,610,52,4,Japanese,f,7,0.7,7.20174616,1.59894503
AKY,32,0,2024-06-29T08:11:54.411Z,english_154.wav,0,0,610,52,4,Japanese,f,8,0.8,-20.24283456,1.83170987
AKY,32,0,2024-06-29T08:11:54.411Z,english_154.wav,0,0,610,52,4,Japanese,f,9,0.9,-23.90559996,1.31030459
AKY,32,0,2024-06-29T08:11:54.411Z,english_154.wav,0,0,610,52,4,Japanese,f,10,1,71.61106984,0.51427228
AKY,32,0,2024-06-29T08:11:54.411Z,english_154.wav,0,0,610,52,4,Japanese,f,11,1.09391667,25.6022542,1.19971073
AKY,33,0,2024-06-29T08:11:54.411Z,english_734.wav,0,0,4063,52,4,Japanese,f,0,0,37.80658654,0.89840931
AKY,33,0,2024-06-29T08:11:54.411Z,english_734.wav,0,0,4063,52,4,Japanese,f,1,0.1,90.1003789,1.2414915
AKY,33,0,2024-06-29T08:11:54.411Z,english_734.wav,0,0,4063,52,4,Japanese,f,2,0.2,-17.90602095,1.52855063
AKY,33,0,2024-06-29T08:11:54.411Z,english_734.wav,0,0,4063,52,4,Japanese,f,3,0.3,-31.44385996,0.60902156
AKY,33,0,2024-06-29T08:11:54.411Z,english_734.wav,0,0,4063,52,4,Japanese,f,4,0.4,44.9323419,1.0676513
AKY,33,0,2024-06-29T08:11:54.411Z,english_734.wav,0,0,4063,52,4,Japanese,f,5,0.5,-31.11774155,0.47732506
AKY,33,0,2024-06-29T08:11:54.411Z,english_734.wav,0,0,4063,52,4,Japanese,f,6,0.6,97.37077349,0.01117227
AKY,33,0,2024-06-29T08:11:54.411Z,english_734.wav,0,0,4063,52,4,Japanese,f,7,0.7,83.67731812,1.95948527
AKY,33,0,2024-06-29T08:11:54.411Z,english_734.wav,0,0,4063,52,4,Japanese,f,8,0.8,-92.96209535,1.72730216
AKY,33,0,2024-06-29T08:11:54.411Z,english_734.wav,0,0,4063,52,4,Japanese,f,9,0.9,-86.38679985,0.10005855
AKY,33,0,2024-06-29T08:11:54.411Z,english_734.wav,0,0,4063,52,4,Japanese,f,10,1,-15.69243899,1.31074677
AKY,33,0,2024-06-29T08:11:54.411Z,english_734.wav,0,0,4063,52,4,Japanese,f,11,1.09391667,-68.67808483,0.47077758
AKY,34,0,2024-06-29T08:11:54.411Z,english_182.wav,0,0,1287,52,4,Japanese,f,0,0,-33.72839549,0.64170462
AKY,34,0,2024-06-29T08:11:54.411Z,english_182.wav,0,0,1287,52,4,Japanese,f,1,0.1,71.95583488,0.46910546
AKY,34,0,2024-06-29T08:11:54.411Z,english_182.wav,0,0,1287,52,4,Japanese,f,2,0.2,93.77497833,1.36329359
AKY,34,0,2024-06-29T08:11:54.411Z,english_182.wav,0,0,1287,52,4,Japanese,f,3,0.3,-96.3431589,1.23106937
AKY,34,0,2024-06-29T08:11:54.411Z,english_182.wav,0,0,1287,52,4,Japanese,f,4,0.4,-58.26438495,1.40247691
AKY,34,0,2024-06-29T08:11:54.411Z,english_182.wav,0,0,1287,52,4,Japanese,f,5,0.5,40.50395066,0.60520266
AKY,34,0,2024-06-29T08:11:54.411Z,english_182.wav,0,0,1287,52,4,Japanese,f,6,0.6,-57.53982371,0.0944441
AKY,34,0,2024-06-29T08:11:54.411Z,english_182.wav,0,0,1287,52,4,Japanese,f,7,0.7,19.26336492,0.39825095
AKY,34,0,2024-06-29T08:11:54.411Z,english_182.wav,0,0,1287,52,4,Japanese,f,8,0.8,53.61678759,0.94728121
AKY,34,0,2024-06-29T08:11:54.411Z,english_182.wav,0,0,1287,52,4,Japanese,f,9,0.9,33.80250156,0.19803834
AKY,34,0,2024-06-29T08:11:54.411Z,english_182.wav,0,0,1287,52,4,Japanese,f,10,1,47.27321227,1.21672532
AKY,34,0,2024-06-29T08:11:54.411Z,english_182.wav,0,0,1287,52,4,Japanese,f,11,1.09391667,72.04949346,0.20681806
AKY,35,0,2024-06-29T08:11:54.411Z,english_578.wav,0,0,292,52,4,Japanese,f,0,0,-75.00897619,0.74810011
AKY,35,0,2024-06-29T08:11:54.411Z,english_578.wav,0,0,292,52,4,Japanese,f,1,0.1,-99.92599168,1.6653295
AKY,35,0,2024-06-29T08:11:54.411Z,english_578.wav,0,0,292,52,4,Japanese,f,2,0.2,-41.97852884,0.86958953
AKY,35,0,2024-06-29T08:11:54.411Z,english_578.wav,0,0,292,52,4,Japanese,f,3,0.3,-44.5286304,1.82114948
AKY,35,0,2024-06-29T08:11:54.411Z,english_578.wav,0,0,292,52,4,Japanese,f,4,0.4,33.7471246,1.20682151
AKY,35,0,2024-06-29T08:11:54.411Z,english_578.wav,0,0,292,52,4,Japanese,f,5,0.5,-20.55369632,0.95346463
AKY,35,0,2024-06-29T08:11:54.411Z,english_578.wav,0,0,292,52,4,Japanese,f,6,0.6,80.47589593,1.35013789
AKY,35,0,2024-06-29T08:11:54.411Z,english_578.wav,0,0,292,52,4,Japanese,f,7,0.7,-14.97727246,1.4182331
AKY,35,0,2024-06-29T08:11:54.411Z,english_578.wav,0,0,292,52,4,Japanese,f,8,0.8,-21.44814327,1.48872207
AKY,35,0,2024-06-29T08:11:54.411Z,english_578.wav,0,0,292,52,4,Japanese,f,9,0.9,-62.07774638,0.52217737
AKY,35,0,2024-06-29T08:11:54.411Z,english_578.wav,0,0,292,52,4,Japanese,f,10,1,-99.81693505,1.9830309
AKY,35,0,2024-06-29T08:11:54.411Z,english_578.wav,0,0,292,52,4,Japanese,f,11,1.09391667,-93.56727968,1.11565266
AKY,36,0,2024-06-29T08:11:54.411Z,english_230.wav,0,0,1196,52,4,Japanese,f,0,0,33.38389537,1.56748289
AKY,36,0,2024-06-29T08:11:54.411Z,english_230.wav,0,0,1196,52,4,Japanese,f,1,0.1,-34.15374901,0.35840318
AKY,36,0,2024-06-29T08:11:54.411Z,english_230.wav,0,0,1196,52,4,Japanese,f,2,0.2,-17.15972141,0.69573927
AKY,36,0,2024-06-29T08:11:54.411Z,english_230.wav,0,0,1196,52,4,Japanese,f,3,0.3,-8.06213265,1.48062695
AKY,36,0,2024-06-29T08:11:54.411Z,english_230.wav,0,0,1196,52,4,Japanese,f,4,0.4,10.20192226,1.80584749
AKY,36,0,2024-06-29T08:11:54.411Z,english_230.wav,0,0,1196,52,4,Japanese,f,5,0.5,-58.60843687,0.27713833
AKY,36,0,2024-06-29T08:11:54.411Z,english_230.wav,0,0,1196,52,4,Japanese,f,6,0.6,79.76687213,0.54911174
AKY,36,0,2024-06-29T08:11:54.411Z,english_230.wav,0,0,1196,52,4,Japanese,f,7,0.7,-68.85443864,0.47648858
AKY,36,0,2024-06-29T08:11:54.411Z,english_230.wav,0,0,1196,52,4,Japanese,f,8,0.8,-14.23970475,1.61704234
AKY,36,0,2024-06-29T08:11:54.411Z,english_230.wav,0,0,1196,52,4,Japanese,f,9,0.9,-88.80466565,1.41921333
AKY,36,0,2024-06-29T08:11:54.411Z,english_230.wav,0,0,1196,52,4,Japanese,f,10,1,-64.76676699,0.47778277
AKY,36,0,2024-06-29T08:11:54.411Z,english_230.wav,0,0,1196,52,4,Japanese,f,11,1.09391667,-85.72124736,0.86213517
AKY,37,0,2024-06-29T08:11:54.411Z,english_711.wav,0,0,390,52,4,Japanese,f,0,0,5.56697991,1.20296493
AKY,37,0,2024-06-29T08:11:54.411Z,english_711.wav,0,0,390,52,4,Japanese,f,1,0.1,-24.51973587,1.05892315
AKY,37,0,2024-06-29T08:11:54.411Z,english_711.wav,0,0,390,52,4,Japanese,f,2,0.2,14.74252879,0.52339911
AKY,37,0,2024-06-29T08:11:54.411Z,english_711.wav,0,0,390,52,4,Japanese,f,3,0.3,62.90835999,1.255633
AKY,37,0,2024-06-29T08:11:54.411Z,english_711.wav,0,0,390,52,4,Japanese,f,4,0.4,-30.148836,1.66876465
AKY,37,0,2024-06-29T08:11:54.411Z,english_711.wav,0,0,390,52,4,Japanese,f,5,0.5,-90.0367138,0.2337908
AKY,37,0,2024-06-29T08:11:54.411Z,english_711.wav,0,0,390,52,4,Japanese,f,6,0.6,23.29272454,0.4494252
AKY,37,0,2024-06-29T08:11:54.411Z,english_711.wav,0,0,390,52,4,Japanese,f,7,0.7,51.00007107,1.6594433
AKY,37,0,2024-06-29T08:11:54.411Z,english_711.wav,0,0,390,52,4,Japanese,f,8,0.8,-5.61877019,1.49925628
AKY,37,0,2024-06-29T08:11:54.411Z,english_711.wav,0,0,390,52,4,Japanese,f,9,0.9,4.00444287,1.73015634
AKY,37,0,2024-06-29T08:11:54.411Z,english_711.wav,0,0,390,52,4,Japanese,f,10,1,81.75034051,1.46308192
AKY,37,0,2024-06-29T08:11:54.411Z,english_711.wav,0,0,390,52,4,Japanese,f,11,1.09391667,-78.99678836,1.6603821
AKY,38,0,2024-06-29T08:11:54.411Z,english_997.wav,0,0,1012,52,4,Japanese,f,0,0,38.46441577,1.95638345
AKY,38,0,2024-06-29T08:11:54.411Z,english_997.wav,0,0,1012,52,4,Japanese,f,1,0.1,47.75423334,0.16897746
AKY,38,0,2024-06-29T08:11:54.411Z,english_997.wav,0,0,1012,52,4,Japanese,f,2,0.2,-46.19223392,1.34564415
AKY,38,0,2024-06-29T08:11:54.411Z,english_997.wav,0,0,1012,52,4,Japanese,f,3,0.3,-68.42543964,0.45551636
AKY,38,0,2024-06-29T08:11:54.411Z,english_997.wav,0,0,1012,52,4,Japanese,f,4,0.4,-27.52590553,1.56941674
AKY,38,0,2024-06-29T08:11:54.411Z,english_997.wav,0,0,1012,52,4,Japanese,f,5,0.5,-32.76649905,1.12500756
AKY,38,0,2024-06-29T08:11:54.411Z,english_997.wav,0,0,1012,52,4,Japanese,f,6,0.6,-20.83706487,0.26907816
AKY,38,0,2024-06-29T08:11:54.411Z,english_997.wav,0,0,1012,52,4,Japanese,f,7,0.7,-65.74236322,0.81160179
AKY,38,0,2024-06-29T08:11:54.411Z,english_997.wav,0,0,1012,52,4,Japanese,f,8,0.8,-64.07813761,1.2830087
AKY,38,0,2024-06-29T08:11:54.411Z,english_997.wav,0,0,1012,52,4,Japanese,f,9,0.9,35.09593454,0.14193499
AKY,38,0,2024-06-29T08:11:54.411Z,english_997.wav,0,0,1012,52,4,Japanese,f,10,1,-66.65072178,1.05446727
AKY,38,0,2024-06-29T08:11:54.411Z,english_997.wav,0,0,1012,52,4,Japanese,f,11,1.09391667,68.83445299,0.54560652
AKY,39,0,2024-06-29T08:11:54.411Z,english_425.wav,0,0,3313,52,4,Japanese,f,0,0,85.86099955,1.60253472
AKY,39,0,2024-06-29T08:11:54.411Z,english_425.wav,0,0,3313,52,4,Japanese,f,1,0.1,-74.24278906,1.17756514
AKY,39,0,2024-06-29T08:11:54.411Z,english_425.wav,0,0,3313,52,4,Japanese,f,2,0.2,66.63239561,1.35741875
AKY,39,0,2024-06-29T08:11:54.411Z,english_425.wav,0,0,3313,52,4,Japanese,f,3,0.3,48.1989772,1.41012003
AKY,39,0,2024-06-29T08:11:54.411Z,english_425.wav,0,0,3313,52,4,Japanese,f,4,0.4,-24.59174715,0.10488559
AKY,39,0,2024-06-29T08:11:54.411Z,english_425.wav,0,0,3313,52,4,Japanese,f,5,0.5,-13.08814226,1.84558303
AKY,39,0,2024-06-29T08:11:54.411Z,english_425.wav,0,0,3313,52,4,Japanese,f,6,0.6,3.3813436,1.65169658
AKY,39,0,2024-06-29T08:11:54.411Z,english_425.wav,0,0,3313,52,4,Japanese,f,7,0.7,-77.57885428,0.99070069
AKY,39,0,2024-06-29T08:11:54.411Z,english_425.wav,0,0,3313,52,4,Japanese,f,8,0.8,64.2992526,1.03905924
AKY,39,0,2024-06-29T08:11:54.411Z,english_425.wav,0,0,3313,52,4,Japanese,f,9,0.9,-69.82436983,1.4199326
AKY,39,0,2024-06-29T08:11:54.411Z,english_425.wav,0,0,3313,52,4,Japanese,f,10,1,-17.74567454,1.83949921
AKY,39,0,2024-06-29T08:11:54.411Z,english_425.wav,0,0,3313,52,4,Japanese,f,11,1.09391667,34.86644748,1.32096962
AKY,40,0,2024-06-29T08:11:54.411Z,english_96.wav,0,0,2038,52,4,Japanese,f,0,0,-65.02634732,0.97232816
AKY,40,0,2024-06-29T08:11:54.411Z,english_96.wav,0,0,2038,52,4,Japanese,f,1,0.1,26.89498136,0.38357595
AKY,40,0,2024-06-29T08:11:54.411Z,english_96.wav,0,0,2038,52,4,Japanese,f,2,0.2,43.91987782,1.32659615
AKY,40,0,2024-06-29T08:11:54.411Z,english_96.wav,0,0,2038,52,4,Japanese,f,3,0.3,-59.57375142,1.36640746
AKY,40,0,2024-06-29T08:11:54.411Z,english_96.wav,0,0,2038,52,4,Japanese,f,4,0.4,-60.38364834,1.49535362
AKY,40,0,2024-06-29T08:11:54.411Z,english_96.wav,0,0,2038,52,4,Japanese,f,5,0.5,44.26176545,0.82408653
AKY,40,0,2024-06-29T08:11:54.411Z,english_96.wav,0,0,2038,52,4,Japanese,f,6,0.6,-64.04538638,0.04141002
AKY,40,0,2024-06-29T08:11:54.411Z,english_96.wav,0,0,2038,52,4,Japanese,f,7,0.7,-45.23049702,0.9269043
AKY,40,0,2024-06-29T08:11:54.411Z,english_96.wav,0,0,2038,52,4,Japanese,f,8,0.8,-76.14418672,1.44350466
AKY,40,0,2024-06-29T08:11:54.411Z,english_96.wav,0,0,2038,52,4,Japanese,f,9,0.9,28.81354354,0.19413347
AKY,40,0,2024-06-29T08:11:54.411Z,english_96.wav,0,0,2038,52,4,Japanese,f,10,1,56.5836812,0.94594394
AKY,40,0,2024-06-29T08:11:54.411Z,english_96.wav,0,0,2038,52,4,Japanese,f,11,1.09391667,88.01492367,1.65487259
AKY,41,0,2024-06-29T08:11:54.411Z,english_146.wav,0,0,1447,52,4,Japanese,f,0,0,56.30698685,0.40218926
AKY,41,0,2024-06-29T08:11:54.411Z,english_146.wav,0,0,1447,52,4,Japanese,f,1,0.1,33.76808102,1.30498568
AKY,41,0,2024-06-29T08:11:54.411Z,english_146.wav,0,0,1447,52,4,Japanese,f,2,0.2,7.3416935,1.88518083
AKY,41,0,2024-06-29T08:11:54.411Z,english_146.wav,0,0,1447,52,4,Japanese,f,3,0.3,54.00115317,0.73939723
AKY,41,0,2024-06-29T08:11:54.411Z,english_146.wav,0,0,1447,52,4,Japanese,f,4,0.4,60.50079064,1.18416515
AKY,41,0,2024-06-29T08:11:54.411Z,english_146.wav,0,0,1447,52,4,Japanese,f,5,0.5,93.58064811,0.74397262
AKY,41,0,2024-06-29T08:11:54.411Z,english_146.wav,0,0,1447,52,4,Japanese,f,6,0.6,16.38414301,1.77833366
AKY,41,0,2024-06-29T08:11:54.411Z,english_146.wav,0,0,1447,52,4,Japanese,f,7,0.7,53.45076847,0.98273851
AKY,41,0,2024-06-29T08:11:54.411Z,english_146.wav,0,0,1447,52,4,Japanese,f,8,0.8,57.56482396,1.41119053
AKY,41,0,2024-06-29T08:11:54.411Z,english_146.wav,0,0,1447,52,4,Japanese,f,9,0.9,-28.26782972,0.90766435
AKY,41,0,2024-06-29T08:11:54.411Z,english_146.wav,0,0,1447,52,4,Japanese,f,10,1,79.66793606,0.33691203
AKY,41,0,2024-06-29T08:11:54.411Z,english_146.wav,0,0,1447,52,4,Japanese,f,11,1.09391667,23.81863578,1.86488134
AKY,42,0,2024-06-29T08:11:54.411Z,english_623.wav,0,0,586,52,4,Japanese,f,0,0,-95.51114939,1.63535186
AKY,42,0,2024-06-29T08:11:54.411Z,english_623.wav,0,0,586,52,4,Japanese,f,1,0.1,-44.73326339,1.6177623
AKY,42,0,2024-06-29T08:11:54.411Z,english_623.wav,0,0,586,52,4,Japanese,f,2,0.2,86.94238373,0.65497932
AKY,42,0,2024-06-29T08:11:54.411Z,english_623.wav,0,0,586,52,4,Japanese,f,3,0.3,62.89198917,1.58469953
AKY,42,0,2024-06-29T08:11:54.411Z,english_623.wav,0,0,586,52,4,Japanese,f,4,0.4,61.79447234,1.31412999
AKY,42,0,2024-06-29T08:11:54.411Z,english_623.wav,0,0,586,52,4,Japanese,f,5,0.5,-17.85583206,0.01127437
AKY,42,0,2024-06-29T08:11:54.411Z,english_623.wav,0,0,586,52,4,Japanese,f,6,0.6,46.68097598,1.28486064
AKY,42,0,2024-06-29T08:11:54.411Z,english_623.wav,0,0,586,52,4,Japanese,f,7,0.7,11.14385485,1.18855794
AKY,42,0,2024-06-29T08:11:54.411Z,english_623.wav,0,0,586,52,4,Japanese,f,8,0.8,14.54716464,1.11974397
AKY,42,0,2024-06-29T08:11:54.411Z,english_623.wav,0,0,586,52,4,Japanese,f,9,0.9,20.67291456,0.2762628
AKY,42,0,2024-06-29T08:11:54.411Z,english_623.wav,0,0,586,52,4,Japanese,f,10,1,-77.15406541,1.27890635
AKY,42,0,2024-06-29T08:11:54.411Z,english_623.wav,0,0,586,52,4,Japanese,f,11,1.09391667,25.21504883,0.35112304
AKY,43,0,2024-06-29T08:11:54.411Z,english_315.wav,0,0,486,52,4,Japanese,f,0,0,20.11963367,1.15782854
AKY,43,0,2024-06-29T08:11:54.411Z,english_315.wav,0,0,486,52,4,Japanese,f,1,0.1,-30.87144334,1.37599817
AKY,43,0,2024-06-29T08:11:54.411Z,english_315.wav,0,0,486,52,4,Japanese,f,2,0.2,39.10248869,1.4514196
AKY,43,0,2024-06-29T08:11:54.411Z,english_315.wav,0,0,486,52,4,Japanese,f,3,0.3,-19.08604714,1.32135016
AKY,43,0,2024-06-29T08:11:54.411Z,english_315.wav,0,0,486,52,4,Japanese,f,4,0.4,90.41461318,1.69132556
AKY,43,0,2024-06-29T08:11:54.411Z,english_315.wav,0,0,486,52,4,Japanese,f,5,0.5,-82.87118979,0.65296677
AKY,43,0,2024-06-29T08:11:54.411Z,english_315.wav,0,0,486,52,4,Japanese,f,6,0.6,-12.30252898,1.40058812
AKY,43,0,2024-06-29T08:11:54.411Z,english_315.wav,0,0,486,52,4,Japanese,f,7,0.7,9.37098005,0.87815256
AKY,43,0,2024-06-29T08:11:54.411Z,english_315.wav,0,0,486,52,4,Japanese,f,8,0.8,-86.3809894,0.15444706
AKY,43,0,2024-06-29T08:11:54.411Z,english_315.wav,0,0,486,52,4,Japanese,f,9,0.9,2.03064205,1.46097728
AKY,43,0,2024-06-29T08:11:54.411Z,english_315.wav,0,0,486,52,4,Japanese,f,10,1,99.30710259,0.37640447
AKY,43,0,2024-06-29T08:11:54.411Z,english_315.wav,0,0,486,52,4,Japanese,f,11,1.09391667,58.65294367,1.18518174
AKY,44,0,2024-06-29T08:11:54.411Z,english_169.wav,0,0,440,52,4,Japanese,f,0,0,-47.44631174,0.61482073
AKY,44,0,2024-06-29T08:11:54.411Z,english_169.wav,0,0,440,52,4,Japanese,f,1,0.1,48.43296153,0.65655052
AKY,44,0,2024-06-29T08:11:54.411Z,english_169.wav,0,0,440,52,4,Japanese,f,2,0.2,-16.2993289,1.98022162
AKY,44,0,2024-06-29T08:11:54.411Z,english_169.wav,0,0,440,52,4,Japanese,f,3,0.3,71.12275577,1.32201843
AKY,44,0,2024-06-29T08:11:54.411Z,english_169.wav,0,0,440,52,4,Japanese,f,4,0.4,27.92431259,0.62266418
AKY,44,0,2024-06-29T08:11:54.411Z,english_169.wav,0,0,440,52,4,Japanese,f,5,0.5,-51.53020823,0.36761683
AKY,44,0,2024-06-29T08:11:54.411Z,english_169.wav,0,0,440,52,4,Japanese,f,6,0.6,70.60667651,0.63917639
AKY,44,0,2024-06-29T08:11:54.411Z,english_169.wav,0,0,440,52,4,Japanese,f,7,0.7,19.72897422,0.86553093
AKY,44,0,2024-06-29T08:11:54.411Z,english_169.wav,0,0,440,52,4,Japanese,f,8,0.8,-28.1908113,1.52360694
AKY,44,0,2024-06-29T08:11:54.411Z,english_169.wav,0,0,440,52,4,Japanese,f,9,0.9,42.45712742,1.86801427
AKY,44,0,2024-06-29T08:11:54.411Z,english_169.wav,0,0,440,52,4,Japanese,f,10,1,90.49930188,1.6810017
AKY,44,0,2024-06-29T08:11:54.411Z,english_169.wav,0,0,440,52,4,Japanese,f,11,1.09391667,-24.56696621,0.16531637
AKY,45,0,2024-06-29T08:11:54.411Z,english_660.wav,0,0,462,52,4,Japanese,f,0,0,-6.98483794,0.74998418
AKY,45,0,2024-06-29T08:11:54.411Z,english_660.wav,0,0,462,52,4,Japanese,f,1,0.1,-19.91361353,1.44180771
AKY,45,0,2024-06-29T08:11:54.411Z,english_660.wav,0,0,462,52,4,Japanese,f,2,0.2,78.11411012,1.86148363
AKY,45,0,2024-06-29T08:11:54.411Z,english_660.wav,0,0,462,52,4,Japanese,f,3,0.3,31.9686312,0.29878934
AKY,45,0,2024-06-29T08:11:54.411Z,english_660.wav,0,0,462,52,4,Japanese,f,4,0.4,59.3000475,0.70934132
AKY,45,0,2024-06-29T08:11:54.411Z,english_660.wav,0,0,462,52,4,Japanese,f,5,0.5,-70.43888588,1.90119169
AKY,45,0,2024-06-29T08:11:54.411Z,english_660.wav,0,0,462,52,4,Japanese,f,6,0.6,-20.07366552,0.76680768
AKY,45,0,2024-06-29T08:11:54.411Z,english_660.wav,0,0,462,52,4,Japanese,f,7,0.7,-55.63699673,0.42211173
AKY,45,0,2024-06-29T08:11:54.411Z,english_660.wav,0,0,462,52,4,Japanese,f,8,0.8,-98.18697012,0.44483448
AKY,45,0,2024-06-29T08:11:54.411Z,english_660.wav,0,0,462,52,4,Japanese,f,9,0.9,13.89215317,1.66618929
AKY,45,0,2024-06-29T08:11:54.411Z,english_660.wav,0,0,462,52,4,Japanese,f,10,1,-7.40212614,0.443528
AKY,45,0,2024-06-29T08:11:54.411Z,english_660.wav,0,0,462,52,4,Japanese,f,11,1.09391667,28.56237553,1.27514236
AKY,46,0,2024-06-29T08:11:54.411Z,english_162.wav,0,0,620,52,4,Japanese,f,0,0,26.55716136,1.5554451
AKY,46,0,2024-06-29T08:11:54.411Z,english_162.wav,0,0,620,52,4,Japanese,f,1,0.1,11.82804586,0.73276272
AKY,46,0,2024-06-29T08:11:54.411Z,english_162.wav,0,0,620,52,4,Japanese,f,2,0.2,-23.9414726,1.80328422
AKY,46,0,2024-06-29T08:11:54.411Z,english_162.wav,0,0,620,52,4,Japanese,f,3,0.3,-1.71566049,0.92347316
AKY,46,0,2024-06-29T08:11:54.411Z,english_162.wav,0,0,620,52,4,Japanese,f,4,0.4,-19.44382046,0.80698984
AKY,46,0,2024-06-29T08:11:54.411Z,english_162.wav,0,0,620,52,4,Japanese,f,5,0.5,-4.89650776,1.82055232
AKY,46,0,2024-06-29T08:11:54.411Z,english_162.wav,0,0,620,52,4,Japanese,f,6,0.6,-86.90887997,1.9917578
AKY,46,0,2024-06-29T08:11:54.411Z,english_162.wav,0,0,620,52,4,Japanese,f,7,0.7,-2.56378327,0.80582965
AKY,46,0,2024-06-29T08:11:54.411Z,english_162.wav,0,0,620,52,4,Japanese,f,8,0.8,6.4232906,1.51404022
AKY,46,0,2024-06-29T08:11:54.411Z,english_162.wav,0,0,620,52,4,Japanese,f,9,0.9,85.15737342,0.66169756
AKY,46,0,2024-06-29T08:11:54.411Z,english_162.wav,0,0,620,52,4,Japanese,f,10,1,86.70536365,0.35533471
AKY,46,0,2024-06-29T08:11:54.411Z,english_162.wav,0,0,620,52,4,Japanese,f,11,1.09391667,85.58259912,1.22719758
AKY,47,0,2024-06-29T08:11:54.411Z,english_88.wav,0,0,6710,52,4,Japanese,f,0,0,-71.9844785,0.53660294
AKY,47,0,2024-06-29T08:11:54.411Z,english_88.wav,0,0,6710,52,4,Japanese,f,1,0.1,-49.01939905,1.47642874
AKY,47,0,2024-06-29T08:11:54.411Z,english_88.wav,0,0,6710,52,4,Japanese,f,2,0.2,50.12381506,0.52511459
AKY,47,0,2024-06-29T08:11:54.411Z,english_88.wav,0,0,6710,52,4,Japanese,f,3,0.3,-84.58055822,1.50109779
AKY,47,0,2024-06-29T08:11:54.411Z,english_88.wav,0,0,6710,52,4,Japanese,f,4,0.4,-75.77840035,0.97976024
AKY,47,0,2024-06-29T08:11:54.411Z,english_88.wav,0,0,6710,52,4,Japanese,f,5,0.5,-24.7911267,0.85239994
AKY,47,0,2024-06-29T08:11:54.411Z,english_88.wav,0,0,6710,52,4,Japanese,f,6,0.6,-23.67428976,1.05191942
AKY,47,0,2024-06-29T08:11:54.411Z,english_88.wav,0,0,6710,52,4,Japanese,f,7,0.7,-54.46174988,0.4066024
AKY,47,0,2024-06-29T08:11:54.411Z,english_88.wav,0,0,6710,52,4,Japanese,f,8,0.8,17.41292988,0.004424
AKY,47,0,2024-06-29T08:11:54.411Z,english_88.wav,0,0,6710,52,4,Japanese,f,9,0.9,-76.44908604,1.90836134
AKY,47,0,2024-06-29T08:11:54.411Z,english_88.wav,0,0,6710,52,4,Japanese,f,10,1,-2.36913576,1.74184755
AKY,47,0,2024-06-29T08:11:54.411Z,english_88.wav,0,0,6710,52,4,Japanese,f,11,1.09391667,-39.62259758,0.66301055
AKY,48,0,2024-06-29T08:11:54.411Z,english_377.wav,0,1,2300,52,4,Japanese,f,0,0,73.04653382,1.47836601
AKY,48,0,2024-06-29T08:11:54.411Z,english_377.wav,0,1,2300,52,4,Japanese,f,1,0.1,61.01214683,1.01623989
AKY,48,0,2024-06-29T08:11:54.411Z,english_377.wav,0,1,2300,52,4,Japanese,f,2,0.2,-82.4479578,1.48528015
AKY,48,0,2024-06-29T08:11:54.411Z,english_377.wav,0,1,2300,52,4,Japanese,f,3,0.3,-6.35059144,0.37422398
AKY,48,0,2024-06-29T08:11:54.411Z,english_377.wav,0,1,2300,52,4,Japanese,f,4,0.4,58.86113959,0.85864758
AKY,48,0,2024-06-29T08:11:54.411Z,english_377.wav,0,1,2300,52,4,Japanese,f,5,0.5,19.19354738,0.94448051
AKY,48,0,2024-06-29T08:11:54.411Z,english_377.wav,0,1,2300,52,4,Japanese,f,6,0.6,-31.09076765,1.48225941
AKY,48,0,2024-06-29T08:11:54.411Z,english_377.wav,0,1,2300,52,4,Japanese,f,7,0.7,-78.80759367,0.12460905
AKY,48,0,2024-06-29T08:11:54.411Z,english_377.wav,0,1,2300,52,4,Japanese,f,8,0.8,40.88540154,0.28155513
AKY,48,0,2024-06-29T08:11:54.411Z,english_377.wav,0,1,2300,52,4,Japanese,f,9,0.9,2.78755214,0.51707897
AKY,48,0,2024-06-29T08:11:54.411Z,english_377.wav,0,1,2300,52,4,Japanese,f,10,1,-65.38807899,0.25575056
AKY,48,0,2024-06-29T08:11:54.411Z,english_377.wav,0,1,2300,52,4,Japanese,f,11,1.09391667,58.80108337,0.70835394
AKY,49,0,2024-06-29T08:11:54.411Z,english_335.wav,0,1,1110,52,4,Japanese,f,0,0,41.80743468,1.01381682
AKY,49,0,2024-06-29T08:11:54.411Z,english_335.wav,0,1,1110,52,4,Japanese,f,1,0.1,-95.17376615,1.5620604
AKY,49,0,2024-06-29T08:11:54.411Z,english_335.wav,0,1,1110,52,4,Japanese,f,2,0.2,39.98208272,0.19265383
AKY,49,0,2024-06-29T08:11:54.411Z,english_335.wav,0,1,1110,52,4,Japanese,f,3,0.3,-46.35703256,1.42247653
AKY,49,0,2024-06-29T08:11:54.411Z,english_335.wav,0,1,1110,52,4,Japanese,f,4,0.4,24.82145544,0.70328136
AKY,49,0,2024-06-29T08:11:54.411Z,english_335.wav,0,1,1110,52,4,Japanese,f,5,0.5,-31.00133873,1.01966488
AKY,49,0,2024-06-29T08:11:54.411Z,english_335.wav,0,1,1110,52,4,Japanese,f,6,0.6,-26.38344945,1.23451824
AKY,49,0,2024-06-29T08:11:54.411Z,english_335.wav,0,1,1110,52,4,Japanese,f,7,0.7,86.60347,0.55082158
AKY,49,0,2024-06-29T08:11:54.411Z,english_335.wav,0,1,1110,52,4,Japanese,f,8,0.8,-70.37080157,0.451758
AKY,49,0,2024-06-29T08:11:54.411Z,english_335.wav,0,1,1110,52,4,Japanese,f,9,0.9,61.18063824,0.68398752
AKY,49,0,2024-06-29T08:11:54.411Z,english_335.wav,0,1,1110,52,4,Japanese,f,10,1,-30.21404124,0.79476381
AKY,49,0,2024-06-29T08:11:54.411Z,english_335.wav,0,1,1110,52,4,Japanese,f,11,1.09391667,-36.90555067,1.69556673
AKY,50,1,2024-06-29T08:18:09.892Z,english_672.wav,0,1,3960,52,4,Japanese,f,0,0,43.22685975,1.16062379
AKY,50,1,2024-06-29T08:18:09.892Z,english_672.wav,0,1,3960,52,4,Japanese,f,1,0.1,-54.22036803,1.05074454
AKY,50,1,2024-06-29T08:18:09.892Z,english_672.wav,0,1,3960,52,4,Japanese,f,2,0.2,47.19502214,0.58565022
AKY,50,1,2024-06-29T08:18:09.892Z,english_672.wav,0,1,3960,52,4,Japanese,f,3,0.3,29.48399108,0.69010583
AKY,50,1,2024-06-29T08:18:09.892Z,english_672.wav,0,1,3960,52,4,Japanese,f,4,0.4,-37.13401682,1.10560462
AKY,50,1,2024-06-29T08:18:09.892Z,english_672.wav,0,1,3960,52,4,Japanese,f,5,0.5,-82.77781933,0.90912981
AKY,50,1,2024-06-29T08:18:09.892Z,english_672.wav,0,1,3960,52,4,Japanese,f,6,0.6,26.5489707,1.72329615
AKY,50,1,2024-06-29T08:18:09.892Z,english_672.wav,0,1,3960,52,4,Japanese,f,7,0.7,-82.12818914,1.29141175
AKY,50,1,2024-06-29T08:18:09.892Z,english_672.wav,0,1,3960,52,4,Japanese,f,8,0.8,0.43149331,0.15835131
AKY,50,1,2024-06-29T08:18:09.892Z,english_672.wav,0,1,3960,52,4,Japanese,f,9,0.9,36.27396929,0.77804924
AKY,50,1,2024-06-29T08:18:09.892Z,english_672.wav,0,1,3960,52,4,Japanese,f,10,1,-33.62939759,0.05373679
AKY,50,1,2024-06-29T08:18:09.892Z,english_672.wav,0,1,3960,52,4,Japanese,f,11,1.09391667,-60.08189446,0.92241163
AKY,51,1,2024-06-29T08:18:09.892Z,english_944.wav,0,1,2464,52,4,Japanese,f,0,0,15.60693819,1.52023204
AKY,51,1,2024-06-29T08:18:09.892Z,english_944.wav,0,1,2464,52,4,Japanese,f,1,0.1,-30.17366225,1.91331724
AKY,51,1,2024-06-29T08:18:09.892Z,english_944.wav,0,1,2464,52,4,Japanese,f,2,0.2,-74.98996265,0.77968244
AKY,51,1,2024-06-29T08:18:09.892Z,english_944.wav,0,1,2464,52,4,Japanese,f,3,0.3,-21.71143967,0.16568234
AKY,51,1,2024-06-29T08:18:09.892Z,english_944.wav,0,1,2464,52,4,Japanese,f,4,0.4,-71.17152847,0.05371195
AKY,51,1,2024-06-29T08:18:09.892Z,english_944.wav,0,1,2464,52,4,Japanese,f,5,0.5,-79.08347918,0.45619097
AKY,51,1,2024-06-29T08:18:09.892Z,english_944.wav,0,1,2464,52,4,Japanese,f,6,0.6,30.00213426,0.51735739
AKY,51,1,2024-06-29T08:18:09.892Z,english_944.wav,0,1,2464,52,4,Japanese,f,7,0.7,-95.66333823,1.56234264
AKY,51,1,2024-06-29T08:18:09.892Z,english_944.wav,0,1,2464,52,4,Japanese,f,8,0.8,-86.13874985,1.61252587
AKY,51,1,2024-06-29T08:18:09.892Z,english_944.wav,0,1,2464,52,4,Japanese,f,9,0.9,-92.76645644,0.66568015
AKY,51,1,2024-06-29T08:18:09.892Z,english_944.wav,0,1,2464,52,4,Japanese,f,10,1,-60.06542453,1.71575711
AKY,51,1,2024-06-29T08:18:09.892Z,english_944.wav,0,1,2464,52,4,Japanese,f,11,1.09391667,-49.67322896,1.10728615
AKY,52,1,2024-06-29T08:18:09.892Z,english_579.wav,0,1,1011,52,4,Japanese,f,0,0,-6.35392527,1.17195822
AKY,52,1,2024-06-29T08:18:09.892Z,english_579.wav,0,1,1011,52,4,Japanese,f,1,0.1,5.78092652,1.67817047
AKY,52,1,2024-06-29T08:18:09.892Z,english_579.wav,0,1,1011,52,4,Japanese,f,2,0.2,55.74149698,0.96512057
AKY,52,1,2024-06-29T08:18:09.892Z,english_579.wav,0,1,1011,52,4,Japanese,f,3,0.3,64.66054606,0.73760998
AKY,52,1,2024-06-29T08:18:09.892Z,english_579.wav,0,1,1011,52,4,Japanese,f,4,0.4,-20.37343055,0.24043414
AKY,52,1,2024-06-29T08:18:09.892Z,english_579.wav,0,1,1011,52,4,Japanese,f,5,0.5,97.55604333,0.0297902
AKY,52,1,2024-06-29T08:18:09.892Z,english_579.wav,0,1,1011,52,4,Japanese,f,6,0.6,-7.40313463,0.83835869
AKY,52,1,2024-06-29T08:18:09.892Z,english_579.wav,0,1,1011,52,4,Japanese,f,7,0.7,-9.7199121,0.36547932
AKY,52,1,2024-06-29T08:18:09.892Z,english_579.wav,0,1,1011,52,4,Japanese,f,8,0.8,-43.88557754,1.0786992
AKY,52,1,2024-06-29T08:18:09.892Z,english_579.wav,0,1,1011,52,4,Japanese,f,9,0.9,89.28129007,1.76340712
AKY,52,1,2024-06-29T08:18:09.892Z,english_579.wav,0,1,1011,52,4,Japanese,f,10,1,21.49927336,0.94339598
AKY,52,1,2024-06-29T08:18:09.892Z,english_579.wav,0,1,1011,52,4,Japanese,f,11,1.09391667,85.53999973,1.1220246
AKY,53,1,2024-06-29T08:18:09.892Z,english_743.wav,0,1,293,52,4,Japanese,f,0,0,97.77122609,0.40936323
AKY,53,1,2024-06-29T08:18:09.892Z,english_743.wav,0,1,293,52,4,Japanese,f,1,0.1,75.39760322,0.83333714
AKY,53,1,2024-06-29T08:18:09.892Z,english_743.wav,0,1,293,52,4,Japanese,f,2,0.2,-92.56300928,1.9299588
AKY,53,1,2024-06-29T08:18:09.892Z,english_743.wav,0,1,293,52,4,Japanese,f,3,0.3,73.60734954,0.31044819
AKY,53,1,2024-06-29T08:18:09.892Z,english_743.wav,0,1,293,52,4,Japanese,f,4,0.4,84.82420222,1.11112706
AKY,53,1,2024-06-29T08:18:09.892Z,english_743.wav,0,1,293,52,4,Japanese,f,5,0.5,-57.35733587,0.30641345
AKY,53,1,2024-06-29T08:18:09.892Z,english_743.wav,0,1,293,52,4,Japanese,f,6,0.6,36.05799571,1.79191215
AKY,53,1,2024-06-29T08:18:09.892Z,english_743.wav,0,1,293,52,4,Japanese,f,7,0.7,-80.10781894,1.43353199
AKY,53,1,2024-06-29T08:18:09.892Z,english_743.wav,0,1,293,52,4,Japanese,f,8,0.8,79.81818761,0.61341243
AKY,53,1,2024-06-29T08:18:09.892Z,english_743.wav,0,1,293,52,4,Japanese,f,9,0.9,71.53815245,1.6920607
AKY,53,1,2024-06-29T08:18:09.892Z,english_743.wav,0,1,293,52,4,Japanese,f,10,1,39.3075371,0.85862509
AKY,53,1,2024-06-29T08:18:09.892Z,english_743.wav,0,1,293,52,4,Japanese,f,11,1.09391667,85.61049635,0.78833379
AKY,54,1,2024-06-29T08:18:09.892Z,english_564.wav,0,0,3081,52,4,Japanese,f,0,0,-34.60753541,1.00141785
AKY,54,1,2024-06-29T08:18:09.892Z,english_564.wav,0,0,3081,52,4,Japanese,f,1,0.1,34.71275865,0.68250136
AKY,54,1,2024-06-29T08:18:09.892Z,english_564.wav,0,0,3081,52,4,Japanese,f,2,0.2,-91.22234158,1.72992933
AKY,54,1,2024-06-29T08:18:09.892Z,english_564.wav,0,0,3081,52,4,Japanese,f,3,0.3,-30.94174796,1.35002318
AKY,54,1,2024-06-29T08:18:09.892Z,english_564.wav,0,0,3081,52,4,Japanese,f,4,0.4,19.1605329,0.6468883
AKY,54,1,2024-06-29T08:18:09.892Z,english_564.wav,0,0,3081,52,4,Japanese,f,5,0.5,25.6799548,0.91261052
AKY,54,1,2024-06-29T08:18:09.892Z,english_564.wav,0,0,3081,52,4,Japanese,f,6,0.6,47.93259791,0.25016516
AKY,54,1,2024-06-29T08:18:09.892Z,english_564.wav,0,0,3081,52,4,Japanese,f,7,0.7,-92.40390398,0.90996222
AKY,54,1,2024-06-29T08:18:09.892Z,english_564.wav,0,0,3081,52,4,Japanese,f,8,0.8,-11.90261917,0.18937367
AKY,54,1,2024-06-29T08:18:09.892Z,english_564.wav,0,0,3081,52,4,Japanese,f,9,0.9,-40.66911236,1.89272817
AKY,54,1,2024-06-29T08:18:09.892Z,english_564.wav,0,0,3081,52,4,Japanese,f,10,1,-26.45898955,0.47725067
AKY,54,1,2024-06-29T08:18:09.892Z,english_564.wav,0,0,3081,52,4,Japanese,f,11,1.09391667,-54.09791647,0.84194262
AKY,55,1,2024-06-29T08:18:09.892Z,english_404.wav,0,0,430,52,4,Japanese,f,0,0,51.0629149,0.92872816
AKY,55,1,2024-06-29T08:18:09.892Z,english_404.wav,0,0,430,52,4,Japanese,f,1,0.1,-20.11660717,1.09197178
AKY,55,1,2024-06-29T08:18:09.892Z,english_404.wav,0,0,430,52,4,Japanese,f,2,0.2,-24.08850376,1.28516423
AKY,55,1,2024-06-29T08:18:09.892Z,english_404.wav,0,0,430,52,4,Japanese,f,3,0.3,-31.42467522,0.67196706
AKY,55,1,2024-06-29T08:18:09.892Z,english_404.wav,0,0,430,52,4,Japanese,f,4,0.4,53.01415625,0.26298551
AKY,55,1,2024-06-29T08:18:09.892Z,english_404.wav,0,0,430,52,4,Japanese,f,5,0.5,-45.18749729,0.832552
AKY,55,1,2024-06-29T08:18:09.892Z,english_404.wav,0,0,430,52,4,Japanese,f,6,0.6,75.22262363,0.94238773
AKY,55,1,2024-06-29T08:18:09.892Z,english_404.wav,0,0,430,52,4,Japanese,f,7,0.7,53.71694776,0.97166455
AKY,55,1,2024-06-29T08:18:09.892Z,english_404.wav,0,0,430,52,4,Japanese,f,8,0.8,-31.94049291,0.24504
AKY,55,1,2024-06-29T08:18:09.892Z,english_404.wav,0,0,430,52,4,Japanese,f,9,0.9,64.49384663,1.54934709
AKY,55,1,2024-06-29T08:18:09.892Z,english_404.wav,0,0,430,52,4,Japanese,f,10,1,-87.57862232,0.71675997
AKY,55,1,2024-06-29T08:18:09.892Z,english_404.wav,0,0,430,52,4,Japanese,f,11,1.09391667,-93.26487386,1.21108184
AKY,56,1,2024-06-29T08:18:09.892Z,english_237.wav,0,1,1455,52,4,Japanese,f,0,0,-24.33351242,0.5798894
AKY,56,1,2024-06-29T08:18:09.892Z,english_237.wav,0,1,1455,52,4,Japanese,f,1,0.1,-30.25700372,1.5217244
AKY,56,1,2024-06-29T08:18:09.892Z,english_237.wav,0,1,1455,52,4,Japanese,f,2,0.2,-30.13382595,0.83018836
AKY,56,1,2024-06-29T08:18:09.892Z,english_237.wav,0,1,1455,52,4,Japanese,f,3,0.3,-9.60246818,0.61732459
AKY,56,1,2024-06-29T08:18:09.892Z,english_237.wav,0,1,1455,52,4,Japanese,f,4,0.4,-40.42162485,0.04187642
AKY,56,1,2024-06-29T08:18:09.892Z,english_237.wav,0,1,1455,52,4,Japanese,f,5,0.5,57.08355263,1.52741907
AKY,56,1,2024-06-29T08:18:09.892Z,english_237.wav,0,1,1455,52,4,Japanese,f,6,0.6,90.25216072,0.52793747
AKY,56,1,2024-06-29T08:18:09.892Z,english_237.wav,0,1,1455,52,4,Japanese,f,7,0.7,85.30493085,1.06419231
AKY,56,1,2024-06-29T08:18:09.892Z,english_237.wav,0,1,1455,52,4,Japanese,f,8,0.8,-32.5073614,0.3844952
AKY,56,1,2024-06-29T08:18:09.892Z,english_237.wav,0,1,1455,52,4,Japanese,f,9,0.9,26.39127281,0.20035849
AKY,56,1,2024-06-29T08:18:09.892Z,english_237.wav,0,1,1455,52,4,Japanese,f,10,1,9.20254691,0.39448392
AKY,56,1,2024-06-29T08:18:09.892Z,english_237.wav,0,1,1455,52,4,Japanese,f,11,1.09391667,-73.51581894,0.19327596
AKY,57,1,2024-06-29T08:18:09.892Z,english_689.wav,0,0,1370,52,4,Japanese,f,0,0,83.12133252,1.04214093
AKY,57,1,2024-06-29T08:18:09.892Z,english_689.wav,0,0,1370,52,4,Japanese,f,1,0.1,-80.97372196,0.40468985
AKY,57,1,2024-06-29T08:18:09.892Z,english_689.wav,0,0,1370,52,4,Japanese,f,2,0.2,-28.26528551,1.50877389
AKY,57,1,2024-06-29T08:18:09.892Z,english_689.wav,0,0,1370,52,4,Japanese,f,3,0.3,42.6688421,1.67206734
AKY,57,1,2024-06-29T08:18:09.892Z,english_689.wav,0,0,1370,52,4,Japanese,f,4,0.4,6.31951717,1.24892229
AKY,57,1,2024-06-29T08:18:09.892Z,english_689.wav,0,0,1370,52,4,Japanese,f,5,0.5,65.13167849,0.38767445
AKY,57,1,2024-06-29T08:18:09.892Z,english_689.wav,0,0,1370,52,4,Japanese,f,6,0.6,-21.58547915,1.45702475
AKY,57,1,2024-06-29T08:18:09.892Z,english_689.wav,0,0,1370,52,4,Japanese,f,7,0.7,-38.42350837,0.16690889
AKY,57,1,2024-06-29T08:18:09.892Z,english_689.wav,0,0,1370,52,4,Japanese,f,8,0.8,72.27336224,1.13554192
AKY,57,1,2024-06-29T08:18:09.892Z,english_689.wav,0,0,1370,52,4,Japanese,f,9,0.9,-22.08116071,0.21927817
AKY,57,1,2024-06-29T08:18:09.892Z,english_689.wav,0,0,1370,52,4,Japanese,f,10,1,-2.34337227,0.41094591
AKY,57,1,2024-06-29T08:18:09.892Z,english_689.wav,0,0,1370,52,4,Japanese,f,11,1.09391667,32.05995553,0.34398042
AKY,58,1,2024-06-29T08:18:09.892Z,english_562.wav,0,0,1680,52,4,Japanese,f,0,0,-66.46118552,0.76561111
AKY,58,1,2024-06-29T08:18:09.892Z,english_562.wav,0,0,1680,52,4,Japanese,f,1,0.1,50.11424094,1.84010469
AKY,58,1,2024-06-29T08:18:09.892Z,english_562.wav,0,0,1680,52,4,Japanese,f,2,0.2,38.4118161,1.52246451
AKY,58,1,2024-06-29T08:18:09.892Z,english_562.wav,0,0,1680,52,4,Japanese,f,3,0.3,55.44168462,0.37876531
AKY,58,1,2024-06-29T08:18:09.892Z,english_562.wav,0,0,1680,52,4,Japanese,f,4,0.4,19.14590229,1.46315217
AKY,58,1,2024-06-29T08:18:09.892Z,english_562.wav,0,0,1680,52,4,Japanese,f,5,0.5,-3.26381008,0.03585566
AKY,58,1,2024-06-29T08:18:09.892Z,english_562.wav,0,0,1680,52,4,Japanese,f,6,0.6,91.90960542,0.70876992
AKY,58,1,2024-06-29T08:18:09.892Z,english_562.wav,0,0,1680,52,4,Japanese,f,7,0.7,62.21453642,1.53596627
AKY,58,1,2024-06-29T08:18:09.892Z,english_562.wav,0,0,1680,52,4,Japanese,f,8,0.8,83.94650253,1.29387044
AKY,58,1,2024-06-29T08:18:09.892Z,english_562.wav,0,0,1680,52,4,Japanese,f,9,0.9,-69.18732996,0.65619247
AKY,58,1,2024-06-29T08:18:09.892Z,english_562.wav,0,0,1680,52,4,Japanese,f,10,1,-21.18203071,0.14449541
AKY,58,1,2024-06-29T08:18:09.892Z,english_562.wav,0,0,1680,52,4,Japanese,f,11,1.09391667,12.05175974,1.12518845
AKY,59,1,2024-06-29T08:18:09.892Z,english_227.wav,0,0,795,52,4,Japanese,f,0,0,87.02540196,1.45120071
AKY,59,1,2024-06-29T08:18:09.892Z,english_227.wav,0,0,795,52,4,Japanese,f,1,0.1,-87.16855408,1.99718195
AKY,59,1,2024-06-29T08:18:09.892Z,english_227.wav,0,0,795,52,4,Japanese,f,2,0.2,13.6128173,0.6126104
AKY,59,1,2024-06-29T08:18:09.892Z,english_227.wav,0,0,795,52,4,Japanese,f,3,0.3,25.59592298,0.97530447
AKY,59,1,2024-06-29T08:18:09.892Z,english_227.wav,0,0,795,52,4,Japanese,f,4,0.4,3.06661623,1.74861281
AKY,59,1,2024-06-29T08:18:09.892Z,english_227.wav,0,0,795,52,4,Japanese,f,5,0.5,-6.41872275,1.95931784
AKY,59,1,2024-06-29T08:18:09.892Z,english_227.wav,0,0,795,52,4,Japanese,f,6,0.6,-40.97922684,1.44262054
AKY,59,1,2024-06-29T08:18:09.892Z,english_227.wav,0,0,795,52,4,Japanese,f,7,0.7,-51.74632522,0.76385193
AKY,59,1,2024-06-29T08:18:09.892Z,english_227.wav,0,0,795,52,4,Japanese,f,8,0.8,-35.50720635,0.83123806
AKY,59,1,2024-06-29T08:18:09.892Z,english_227.wav,0,0,795,52,4,Japanese,f,9,0.9,-52.46041148,1.0121191
AKY,59,1,2024-06-29T08:18:09.892Z,english_227.wav,0,0,795,52,4,Japanese,f,10,1,-5.55255579,1.39124165
AKY,59,1,2024-06-29T08:18:09.892Z,english_227.wav,0,0,795,52,4,Japanese,f,11,1.09391667,92.65490635,1.37791309
AKY,60,1,2024-06-29T08:18:09.892Z,english_398.wav,0,0,673,52,4,Japanese,f,0,0,58.43536872,0.19891774
AKY,60,1,2024-06-29T08:18:09.892Z,english_398.wav,0,0,673,52,4,Japanese,f,1,0.1,-82.57908231,0.03529734
AKY,60,1,2024-06-29T08:18:09.892Z,english_398.wav,0,0,673,52,4,Japanese,f,2,0.2,-3.40439415,1.69592316
AKY,60,1,2024-06-29T08:18:09.892Z,english_398.wav,0,0,673,52,4,Japanese,f,3,0.3,-83.74176257,0.07086845
AKY,60,1,2024-06-29T08:18:09.892Z,english_398.wav,0,0,673,52,4,Japanese,f,4,0.4,38.89596711,0.77458748
AKY,60,1,2024-06-29T08:18:09.892Z,english_398.wav,0,0,673,52,4,Japanese,f,5,0.5,63.49142751,1.25980126
AKY,60,1,2024-06-29T08:18:09.892Z,english_398.wav,0,0,673,52,4,Japanese,f,6,0.6,64.24765223,1.54445807
AKY,60,1,2024-06-29T08:18:09.892Z,english_398.wav,0,0,673,52,4,Japanese,f,7,0.7,24.37031282,0.23015685
AKY,60,1,2024-06-29T08:18:09.892Z,english_398.wav,0,0,673,52,4,Japanese,f,8,0.8,18.2651004,0.80693823
AKY,60,1,2024-06-29T08:18:09.892Z,english_398.wav,0,0,673,52,4,Japanese,f,9,0.9,-3.768449,0.61010049
AKY,60,1,2024-06-29T08:18:09.892Z,english_398.wav,0,0,673,52,4,Japanese,f,10,1,55.48069175,0.09811637
AKY,60,1,2024-06-29T08:18:09.892Z,english_398.wav,0,0,673,52,4,Japanese,f,11,1.09391667,-2.34176887,1.22967895
AKY,61,1,2024-06-29T08:18:09.892Z,english_180.wav,0,0,118,52,4,Japanese,f,0,0,42.85478744,0.49645543
AKY,61,1,2024-06-29T08:18:09.892Z,english_180.wav,0,0,118,52,4,Japanese,f,1,0.1,11.60642133,1.40377655
AKY,61,1,2024-06-29T08:18:09.892Z,english_180.wav,0,0,118,52,4,Japanese,f,2,0.2,-27.38772625,0.70453688
AKY,61,1,2024-06-29T08:18:09.892Z,english_180.wav,0,0,118,52,4,Japanese,f,3,0.3,80.41560742,1.01697082
AKY,61,1,2024-06-29T08:18:09.892Z,english_180.wav,0,0,118,52,4,Japanese,f,4,0.4,-67.11843031,0.59692665
AKY,61,1,2024-06-29T08:18:09.892Z,english_180.wav,0,0,118,52,4,Japanese,f,5,0.5,25.47679572,0.43242047
AKY,61,1,2024-06-29T08:18:09.892Z,english_180.wav,0,0,118,52,4,Japanese,f,6,0.6,29.48556379,0.65503898
AKY,61,1,2024-06-29T08:18:09.892Z,english_180.wav,0,0,118,52,4,Japanese,f,7,0.7,-62.53851543,1.14916488
AKY,61,1,2024-06-29T08:18:09.892Z,english_180.wav,0,0,118,52,4,Japanese,f,8,0.8,-49.48041885,0.12826618
AKY,61,1,2024-06-29T08:18:09.892Z,english_180.wav,0,0,118,52,4,Japanese,f,9,0.9,29.80835172,1.82068044
AKY,61,1,2024-06-29T08:18:09.892Z,english_180.wav,0,0,118,52,4,Japanese,f,10,1,83.85336689,1.93281092
AKY,61,1,2024-06-29T08:18:09.892Z,english_180.wav,0,0,118,52,4,Japanese,f,11,1.09391667,-22.17498974,1.38105191
AKY,62,1,2024-06-29T08:18:09.892Z,english_264.wav,0,1,1704,52,4,Japanese,f,0,0,-7.97071304,0.52584892
AKY,62,1,2024-06-29T08:18:09.892Z,english_264.wav,0,1,1704,52,4,Japanese,f,1,0.1,5.26810794,0.35098417
AKY,62,1,2024-06-29T08:18:09.892Z,english_264.wav,0,1,1704,52,4,Japanese,f,2,0.2,42.90180093,0.87826506
AKY,62,1,2024-06-29T08:18:09.892Z,english_264.wav,0,1,1704,52,4,Japanese,f,3,0.3,32.54664666,0.85267403
AKY,62,1,2024-06-29T08:18:09.892Z,english_264.wav,0,1,1704,52,4,Japanese,f,4,0.4,-75.33920427,0.05665148
AKY,62,1,2024-06-29T08:18:09.892Z,english_264.wav,0,1,1704,52,4,Japanese,f,5,0.5,-92.87225366,0.902019
AKY,62,1,2024-06-29T08:18:09.892Z,english_264.wav,0,1,1704,52,4,Japanese,f,6,0.6,1.54584209,0.36999328
AKY,62,1,2024-06-29T08:18:09.892Z,english_264.wav,0,1,1704,52,4,Japanese,f,7,0.7,-61.85301996,1.87523396
AKY,62,1,2024-06-29T08:18:09.892Z,english_264.wav,0,1,1704,52,4,Japanese,f,8,0.8,-59.27209487,0.99775271
AKY,62,1,2024-06-29T08:18:09.892Z,english_264.wav,0,1,1704,52,4,Japanese,f,9,0.9,-3.4044868,0.18460265
AKY,62,1,2024-06-29T08:18:09.892Z,english_264.wav,0,1,1704,52,4,Japanese,f,10,1,20.29119999,0.05992377
AKY,62,1,2024-06-29T08:18:09.892Z,english_264.wav,0,1,1704,52,4,Japanese,f,11,1.09391667,76.66199878,1.79844018
AKY,63,1,2024-06-29T08:18:09.892Z,english_593.wav,0,0,575,52,4,Japanese,f,0,0,13.70313969,0.31776168
AKY,63,1,2024-06-29T08:18:09.892Z,english_593.wav,0,0,575,52,4,Japanese,f,1,0.1,-26.02533881,1.39381701
AKY,63,1,2024-06-29T08:18:09.892Z,english_593.wav,0,0,575,52,4,Japanese,f,2,0.2,50.8702686,0.5191281
AKY,63,1,2024-06-29T08:18:09.892Z,english_593.wav,0,0,575,52,4,Japanese,f,3,0.3,26.063803,0.69401342
AKY,63,1,2024-06-29T08:18:09.892Z,english_593.wav,0,0,575,52,4,Japanese,f,4,0.4,-79.95092445,0.71717885
AKY,63,1,2024-06-29T08:18:09.892Z,english_593.wav,0,0,575,52,4,Japanese,f,5,0.5,-94.01020979,0.74327862
AKY,63,1,2024-06-29T08:18:09.892Z,english_593.wav,0,0,575,52,4,Japanese,f,6,0.6,-33.71882566,1.75165486
AKY,63,1,2024-06-29T08:18:09.892Z,english_593.wav,0,0,575,52,4,Japanese,f,7,0.7,-16.71092424,0.78541269
AKY,63,1,2024-06-29T08:18:09.892Z,english_593.wav,0,0,575,52,4,Japanese,f,8,0.8,-31.84366891,0.5067154
AKY,63,1,2024-06-29T08:18:09.892Z,english_593.wav,0,0,575,52,4,Japanese,f,9,0.9,-64.24810633,1.19882101
AKY,63,1,2024-06-29T08:18:09.892Z,english_593.wav,0,0,575,52,4,Japanese,f,10,1,73.5130108,0.30708851
AKY,63,1,2024-06-29T08:18:09.892Z,english_593.wav,0,0,575,52,4,Japanese,f,11,1.09391667,1.16296444,1.70447125
AKY,64,1,2024-06-29T08:18:09.892Z,english_647.wav,0,0,346,52,4,Japanese,f,0,0,54.52725229,1.1883546
AKY,64,1,2024-06-29T08:18:09.892Z,english_647.wav,0,0,346,52,4,Japanese,f,1,0.1,-56.14693886,1.65081997
AKY,64,1,2024-06-29T08:18:09.892Z,english_647.wav,0,0,346,52,4,Japanese,f,2,0.2,71.63132719,1.02051213
AKY,64,1,2024-06-29T08:18:09.892Z,english_647.wav,0,0,346,52,4,Japanese,f,3,0.3,-23.02387172,1.7000584
AKY,64,1,2024-06-29T08:18:09.892Z,english_647.wav,0,0,346,52,4,Japanese,f,4,0.4,-60.51376999,0.62509688
AKY,64,1,2024-06-29T08:18:09.892Z,english_647.wav,0,0,346,52,4,Japanese,f,5,0.5,-64.57692494,1.60189297
AKY,64,1,2024-06-29T08:18:09.892Z,english_647.wav,0,0,346,52,4,Japanese,f,6,0.6,46.96365994,1.40209494
AKY,64,1,2024-06-29T08:18:09.892Z,english_647.wav,0,0,346,52,4,Japanese,f,7,0.7,2.340544,1.32470585
AKY,64,1,2024-06-29T08:18:09.892Z,english_647.wav,0,0,346,52,4,Japanese,f,8,0.8,-11.6475953,1.16038123
AKY,64,1,2024-06-29T08:18:09.892Z,english_647.wav,0,0,346,52,4,Japanese,f,9,0.9,62.71297866,0.96037121
AKY,64,1,2024-06-29T08:18:09.892Z,english_647.wav,0,0,346,52,4,Japanese,f,10,1,-48.91159538,0.45954714
AKY,64,1,2024-06-29T08:18:09.892Z,english_647.wav,0,0,346,52,4,Japanese,f,11,1.09391667,-39.00416387,1.53514393
AKY,65,1,2024-06-29T08:18:09.892Z,english_1.wav,0,0,75,52,4,Japanese,f,0,0,82.44203382,0.97617089
AKY,65,1,2024-06-29T08:18:09.892Z,english_1.wav,0,0,75,52,4,Japanese,f,1,0.1,-30.17618245,0.62833649
AKY,65,1,2024-06-29T08:18:09.892Z,english_1.wav,0,0,75,52,4,Japanese,f,2,0.2,29.86670871,1.71628267
AKY,65,1,2024-06-29T08:18:09.892Z,english_1.wav,0,0,75,52,4,Japanese,f,3,0.3,-30.59558791,1.57876253
AKY,65,1,2024-06-29T08:18:09.892Z,english_1.wav,0,0,75,52,4,Japanese,f,4,0.4,-47.57675763,0.47000387
AKY,65,1,2024-06-29T08:18:09.892Z,english_1.wav,0,0,75,52,4,Japanese,f,5,0.5,-17.44773817,0.87334438
AKY,65,1,2024-06-29T08:18:09.892Z,english_1.wav,0,0,75,52,4,Japanese,f,6,0.6,-73.86718122,0.40526307
AKY,65,1,2024-06-29T08:18:09.892Z,english_1.wav,0,0,75,52,4,Japanese,f,7,0.7,70.17077277,1.31867186
AKY,65,1,2024-06-29T08:18:09.892Z,english_1.wav,0,0,75,52,4,Japanese,f,8,0.8,-75.98538301,0.46239136
AKY,65,1,2024-06-29T08:18:09.892Z,english_1.wav,0,0,75,52,4,Japanese,f,9,0.9,-57.43154571,0.66642176
AKY,65,1,2024-06-29T08:18:09.892Z,english_1.wav,0,0,75,52,4,Japanese,f,10,1,93.54956166,0.4005644
AKY,65,1,2024-06-29T08:18:09.892Z,english_1.wav,0,0,75,52,4,Japanese,f,11,1.09391667,-19.42635274,0.62556241
AKY,66,1,2024-06-29T08:18:09.892Z,english_357.wav,0,0,4817,52,4,Japanese,f,0,0,-87.96365185,1.52852124
AKY,66,1,2024-06-29T08:18:09.892Z,english_357.wav,0,0,4817,52,4,Japanese,f,1,0.1,-8.5190019,1.93288072
AKY,66,1,2024-06-29T08:18:09.892Z,english_357.wav,0,0,4817,52,4,Japanese,f,2,0.2,34.94660595,1.80201728
AKY,66,1,2024-06-29T08:18:09.892Z,english_357.wav,0,0,4817,52,4,Japanese,f,3,0.3,74.01534503,0.94192251
AKY,66,1,2024-06-29T08:18:09.892Z,english_357.wav,0,0,4817,52,4,Japanese,f,4,0.4,13.59562063,1.02469598
AKY,66,1,2024-06-29T08:18:09.892Z,english_357.wav,0,0,4817,52,4,Japanese,f,5,0.5,-84.64423503,1.61646509
AKY,66,1,2024-06-29T08:18:09.892Z,english_357.wav,0,0,4817,52,4,Japanese,f,6,0.6,-29.1291793,0.27950667
AKY,66,1,2024-06-29T08:18:09.892Z,english_357.wav,0,0,4817,52,4,Japanese,f,7,0.7,-52.42503967,1.30320323
AKY,66,1,2024-06-29T08:18:09.892Z,english_357.wav,0,0,4817,52,4,Japanese,f,8,0.8,21.24796122,1.07824702
AKY,66,1,2024-06-29T08:18:09.892Z,english_357.wav,0,0,4817,52,4,Japanese,f,9,0.9,32.72205185,0.68433039
AKY,66,1,2024-06-29T08:18:09.892Z,english_357.wav,0,0,4817,52,4,Japanese,f,10,1,-96.5222269,1.27621022
AKY,66,1,2024-06-29T08:18:09.892Z,english_357.wav,0,0,4817,52,4,Japanese,f,11,1.09391667,30.40810686,1.23591368
AKY,67,1,2024-06-29T08:18:09.892Z,english_661.wav,0,0,405,52,4,Japanese,f,0,0,-96.27017097,0.06095717
AKY,67,1,2024-06-29T08:18:09.892Z,english_661.wav,0,0,405,52,4,Japanese,f,1,0.1,-8.23164951,1.37830678
AKY,67,1,2024-06-29T08:18:09.892Z,english_661.wav,0,0,405,52,4,Japanese,f,2,0.2,-17.16483844,0.60938429
AKY,67,1,2024-06-29T08:18:09.892Z,english_661.wav,0,0,405,52,4,Japanese,f,3,0.3,51.38438878,1.50755712
AKY,67,1,2024-06-29T08:18:09.892Z,english_661.wav,0,0,405,52,4,Japanese,f,4,0.4,-46.68819378,0.78233896
AKY,67,1,2024-06-29T08:18:09.892Z,english_661.wav,0,0,405,52,4,Japanese,f,5,0.5,-48.36150329,1.0485375
AKY,67,1,2024-06-29T08:18:09.892Z,english_661.wav,0,0,405,52,4,Japanese,f,6,0.6,39.11171658,1.09444979
AKY,67,1,2024-06-29T08:18:09.892Z,english_661.wav,0,0,405,52,4,Japanese,f,7,0.7,61.02242978,0.69142926
AKY,67,1,2024-06-29T08:18:09.892Z,english_661.wav,0,0,405,52,4,Japanese,f,8,0.8,-31.59479495,1.58337901
AKY,67,1,2024-06-29T08:18:09.892Z,english_661.wav,0,0,405,52,4,Japanese,f,9,0.9,29.78054616,1.62604078
AKY,67,1,2024-06-29T08:18:09.892Z,english_661.wav,0,0,405,52,4,Japanese,f,10,1,12.03263948,0.74172624
AKY,67,1,2024-06-29T08:18:09.892Z,english_661.wav,0,0,405,52,4,Japanese,f,11,1.09391667,45.41432931,1.92603435
AKY,68,1,2024-06-29T08:18:09.892Z,english_761.wav,0,0,537,52,4,Japanese,f,0,0,-80.97330145,0.75841869
AKY,68,1,2024-06-29T08:18:09.892Z,english_761.wav,0,0,537,52,4,Japanese,f,1,0.1,-87.8498671,0.93275546
AKY,68,1,2024-06-29T08:18:09.892Z,english_761.wav,0,0,537,52,4,Japanese,f,2,0.2,-46.50669934,1.71329225
AKY,68,1,2024-06-29T08:18:09.892Z,english_761.wav,0,0,537,52,4,Japanese,f,3,0.3,59.20965722,1.0347089
AKY,68,1,2024-06-29T08:18:09.892Z,english_761.wav,0,0,537,52,4,Japanese,f,4,0.4,-35.71104214,1.01687932
AKY,68,1,2024-06-29T08:18:09.892Z,english_761.wav,0,0,537,52,4,Japanese,f,5,0.5,-52.81542402,0.41101951
AKY,68,1,2024-06-29T08:18:09.892Z,english_761.wav,0,0,537,52,4,Japanese,f,6,0.6,31.64937697,0.68065775
AKY,68,1,2024-06-29T08:18:09.892Z,english_761.wav,0,0,537,52,4,Japanese,f,7,0.7,29.30310565,1.83101612
AKY,68,1,2024-06-29T08:18:09.892Z,english_761.wav,0,0,537,52,4,Japanese,f,8,0.8,-83.11546178,0.13402502
AKY,68,1,2024-06-29T08:18:09.892Z,english_761.wav,0,0,537,52,4,Japanese,f,9,0.9,4.4057425,1.22130523
AKY,68,1,2024-06-29T08:18:09.892Z,english_761.wav,0,0,537,52,4,Japanese,f,10,1,40.14606476,0.44607754
AKY,68,1,2024-06-29T08:18:09.892Z,english_761.wav,0,0,537,52,4,Japanese,f,11,1.09391667,-16.15452459,1.73687105
AKY,69,1,2024-06-29T08:18:09.892Z,english_251.wav,0,0,668,52,4,Japanese,f,0,0,-93.03805102,1.12342723
AKY,69,1,2024-06-29T08:18:09.892Z,english_251.wav,0,0,668,52,4,Japanese,f,1,0.1,51.2655571,1.9149468
AKY,69,1,2024-06-29T08:18:09.892Z,english_251.wav,0,0,668,52,4,Japanese,f,2,0.2,37.58283666,1.73876516
AKY,69,1,2024-06-29T08:18:09.892Z,english_251.wav,0,0,668,52,4,Japanese,f,3,0.3,-55.53133441,1.01047504
AKY,69,1,2024-06-29T08:18:09.892Z,english_251.wav,0,0,668,52,4,Japanese,f,4,0.4,98.21602679,0.87048418
AKY,69,1,2024-06-29T08:18:09.892Z,english_251.wav,0,0,668,52,4,Japanese,f,5,0.5,-85.24256095,1.77281536
AKY,69,1,2024-06-29T08:18:09.892Z,english_251.wav,0,0,668,52,4,Japanese,f,6,0.6,-76.0460332,1.29741372
AKY,69,1,2024-06-29T08:18:09.892Z,english_251.wav,0,0,668,52,4,Japanese,f,7,0.7,26.51950349,0.41684213
AKY,69,1,2024-06-29T08:18:09.892Z,english_251.wav,0,0,668,52,4,Japanese,f,8,0.8,-37.24987979,1.13690271
AKY,69,1,2024-06-29T08:18:09.892Z,english_251.wav,0,0,668,52,4,Japanese,f,9,0.9,-60.42287441,1.00770315
AKY,69,1,2024-06-29T08:18:09.892Z,english_251.wav,0,0,668,52,4,Japanese,f,10,1,31.01216571,0.51077747
AKY,69,1,2024-06-29T08:18:09.892Z,english_251.wav,0,0,668,52,4,Japanese,f,11,1.09391667,74.35472995,0.89311028
AKY,70,1,2024-06-29T08:18:09.892Z,english_787.wav,0,0,230,52,4,Japanese,f,0,0,75.50983857,0.8452738
AKY,70,1,2024-06-29T08:18:09.892Z,english_787.wav,0,0,230,52,4,Japanese,f,1,0.1,-1.58249906,0.76339694
AKY,70,1,2024-06-29T08:18:09.892Z,english_787.wav,0,0,230,52,4,Japanese,f,2,0.2,3.57353021,0.25803741
AKY,70,1,2024-06-29T08:18:09.892Z,english_787.wav,0,0,230,52,4,Japanese,f,3,0.3,-99.77057176,1.65296212
AKY,70,1,2024-06-29T08:18:09.892Z,english_787.wav,0,0,230,52,4,Japanese,f,4,0.4,-38.99568239,1.74214563
AKY,70,1,2024-06-29T08:18:09.892Z,english_787.wav,0,0,230,52,4,Japanese,f,5,0.5,15.30754913,0.91821048
AKY,70,1,2024-06-29T08:18:09.892Z,english_787.wav,0,0,230,52,4,Japanese,f,6,0.6,-97.41525775,1.20673022
AKY,70,1,2024-06-29T08:18:09.892Z,english_787.wav,0,0,230,52,4,Japanese,f,7,0.7,39.01293018,1.21324632
AKY,70,1,2024-06-29T08:18:09.892Z,english_787.wav,0,0,230,52,4,Japanese,f,8,0.8,42.79848726,1.47465653
AKY,70,1,2024-06-29T08:18:09.892Z,english_787.wav,0,0,230,52,4,Japanese,f,9,0.9,9.93276614,0.97625714
AKY,70,1,2024-06-29T08:18:09.892Z,english_787.wav,0,0,230,52,4,Japanese,f,10,1,-95.01180619,1.17241626
AKY,70,1,2024-06-29T08:18:09.892Z,english_787.wav,0,0,230,52,4,Japanese,f,11,1.09391667,-15.9004552,0.99284929
AKY,71,1,2024-06-29T08:18:09.892Z,english_211.wav,0,0,3781,52,4,Japanese,f,0,0,-80.71487731,0.76887991
AKY,71,1,2024-06-29T08:18:09.892Z,english_211.wav,0,0,3781,52,4,Japanese,f,1,0.1,-84.93103541,0.20306802
AKY,71,1,2024-06-29T08:18:09.892Z,english_211.wav,0,0,3781,52,4,Japanese,f,2,0.2,44.45354712,0.68006184
AKY,71,1,2024-06-29T08:18:09.892Z,english_211.wav,0,0,3781,52,4,Japanese,f,3,0.3,93.3584913,1.00051335
AKY,71,1,2024-06-29T08:18:09.892Z,english_211.wav,0,0,3781,52,4,Japanese,f,4,0.4,-88.5655354,1.99828121
AKY,71,1,2024-06-29T08:18:09.892Z,english_211.wav,0,0,3781,52,4,Japanese,f,5,0.5,58.50265478,0.71004269
AKY,71,1,2024-06-29T08:18:09.892Z,english_211.wav,0,0,3781,52,4,Japanese,f,6,0.6,42.72435837,1.91299509
AKY,71,1,2024-06-29T08:18:09.892Z,english_211.wav,0,0,3781,52,4,Japanese,f,7,0.7,15.71938112,1.01891246
AKY,71,1,2024-06-29T08:18:09.892Z,english_211.wav,0,0,3781,52,4,Japanese,f,8,0.8,7.70597987,1.53959141
AKY,71,1,2024-06-29T08:18:09.892Z,english_211.wav,0,0,3781,52,4,Japanese,f,9,0.9,-16.73581283,1.64058726
AKY,71,1,2024-06-29T08:18:09.892Z,english_211.wav,0,0,3781,52,4,Japanese,f,10,1,-59.877834,1.4823545
AKY,71,1,2024-06-29T08:18:09.892Z,english_211.wav,0,0,3781,52,4,Japanese,f,11,1.09391667,39.92997673,1.39164399
AKY,72,1,2024-06-29T08:18:09.892Z,english_287.wav,0,1,1185,52,4,Japanese,f,0,0,10.36471628,0.01185683
AKY,72,1,2024-06-29T08:18:09.892Z,english_287.wav,0,1,1185,52,4,Japanese,f,1,0.1,-58.57729137,1.45020857
AKY,72,1,2024-06-29T08:18:09.892Z,english_287.wav,0,1,1185,52,4,Japanese,f,2,0.2,-27.93575021,0.19382892
AKY,72,1,2024-06-29T08:18:09.892Z,english_287.wav,0,1,1185,52,4,Japanese,f,3,0.3,33.78979174,0.71448768
AKY,72,1,2024-06-29T08:18:09.892Z,english_287.wav,0,1,1185,52,4,Japanese,f,4,0.4,-33.15491758,0.01801383
AKY,72,1,2024-06-29T08:18:09.892Z,english_287.wav,0,1,1185,52,4,Japanese,f,5,0.5,-5.38281254,0.74544811
AKY,72,1,2024-06-29T08:18:09.892Z,english_287.wav,0,1,1185,52,4,Japanese,f,6,0.6,-58.09969762,0.45979971
AKY,72,1,2024-06-29T08:18:09.892Z,english_287.wav,0,1,1185,52,4,Japanese,f,7,0.7,93.46336641,0.55925931
AKY,72,1,2024-06-29T08:18:09.892Z,english_287.wav,0,1,1185,52,4,Japanese,f,8,0.8,27.63578773,1.84211482
AKY,72,1,2024-06-29T08:18:09.892Z,english_287.wav,0,1,1185,52,4,Japanese,f,9,0.9,44.41136417,0.07395401
AKY,72,1,2024-06-29T08:18:09.892Z,english_287.wav,0,1,1185,52,4,Japanese,f,10,1,-2.08272126,0.05656785
AKY,72,1,2024-06-29T08:18:09.892Z,english_287.wav,0,1,1185,52,4,Japanese,f,11,1.09391667,72.82755357,1.60760225
AKY,73,1,2024-06-29T08:18:09.892Z,english_544.wav,0,0,1548,52,4,Japanese,f,0,0,-12.83752334,0.26746705
AKY,73,1,2024-06-29T08:18:09.892Z,english_544.wav,0,0,1548,52,4,Japanese,f,1,0.1,18.81551767,0.28928579
AKY,73,1,2024-06-29T08:18:09.892Z,english_544.wav,0,0,1548,52,4,Japanese,f,2,0.2,-29.56712799,1.1529058
AKY,73,1,2024-06-29T08:18:09.892Z,english_544.wav,0,0,1548,52,4,Japanese,f,3,0.3,-88.71669508,0.71030524
AKY,73,1,2024-06-29T08:18:09.892Z,english_544.wav,0,0,1548,52,4,Japanese,f,4,0.4,60.52504719,1.2257672
AKY,73,1,2024-06-29T08:18:09.892Z,english_544.wav,0,0,1548,52,4,Japanese,f,5,0.5,-63.41119431,1.58517904
AKY,73,1,2024-06-29T08:18:09.892Z,english_544.wav,0,0,1548,52,4,Japanese,f,6,0.6,8.79618234,0.02752012
AKY,73,1,2024-06-29T08:18:09.892Z,english_544.wav,0,0,1548,52,4,Japanese,f,7,0.7,-45.10475513,0.40266107
AKY,73,1,2024-06-29T08:18:09.892Z,english_544.wav,0,0,1548,52,4,Japanese,f,8,0.8,-50.11360918,1.24234406
AKY,73,1,2024-06-29T08:18:09.892Z,english_544.wav,0,0,1548,52,4,Japanese,f,9,0.9,24.528145,0.82116457
AKY,73,1,2024-06-29T08:18:09.892Z,english_544.wav,0,0,1548,52,4,Japanese,f,10,1,39.08857689,0.0963448
AKY,73,1,2024-06-29T08:18:09.892Z,english_544.wav,0,0,1548,52,4,Japanese,f,11,1.09391667,16.62790968,0.38181462
AKY,74,1,2024-06-29T08:18:09.892Z,english_808.wav,0,0,1550,52,4,Japanese,f,0,0,-54.51930087,0.8777304
AKY,74,1,2024-06-29T08:18:09.892Z,english_808.wav,0,0,1550,52,4,Japanese,f,1,0.1,-81.0495762,1.15782472
AKY,74,1,2024-06-29T08:18:09.892Z,english_808.wav,0,0,1550,52,4,Japanese,f,2,0.2,4.70470679,1.67617188
AKY,74,1,2024-06-29T08:18:09.892Z,english_808.wav,0,0,1550,52,4,Japanese,f,3,0.3,56.77475896,0.46785173
AKY,74,1,2024-06-29T08:18:09.892Z,english_808.wav,0,0,1550,52,4,Japanese,f,4,0.4,-45.19313698,1.34598798
AKY,74,1,2024-06-29T08:18:09.892Z,english_808.wav,0,0,1550,52,4,Japanese,f,5,0.5,-12.85220206,1.21107636
AKY,74,1,2024-06-29T08:18:09.892Z,english_808.wav,0,0,1550,52,4,Japanese,f,6,0.6,-3.64494866,0.33957231
AKY,74,1,2024-06-29T08:18:09.892Z,english_808.wav,0,0,1550,52,4,Japanese,f,7,0.7,-54.59560116,1.78675234
AKY,74,1,2024-06-29T08:18:09.892Z,english_808.wav,0,0,1550,52,4,Japanese,f,8,0.8,62.80587621,0.41874976
AKY,74,1,2024-06-29T08:18:09.892Z,english_808.wav,0,0,1550,52,4,Japanese,f,9,0.9,41.76195467,0.58154764
AKY,74,1,2024-06-29T08:18:09.892Z,english_808.wav,0,0,1550,52,4,Japanese,f,10,1,59.57414533,1.87307122
AKY,74,1,2024-06-29T08:18:09.892Z,english_808.wav,0,0,1550,52,4,Japanese,f,11,1.09391667,-81.82049826,0.91565949
AKY,75,1,2024-06-29T08:18:09.892Z,english_22.wav,0,0,304,52,4,Japanese,f,0,0,70.18292814,0.28551441
AKY,75,1,2024-06-29T08:18:09.892Z,english_22.wav,0,0,304,52,4,Japanese,f,1,0.1,-80.96999494,0.4027703
AKY,75,1,2024-06-29T08:18:09.892Z,english_22.wav,0,0,304,52,4,Japanese,f,2,0.2,-35.97807487,0.92085021
AKY,75,1,2024-06-29T08:18:09.892Z,english_22.wav,0,0,304,52,4,Japanese,f,3,0.3,-50.77912628,0.28132548
AKY,75,1,2024-06-29T08:18:09.892Z,english_22.wav,0,0,304,52,4,Japanese,f,4,0.4,45.67027718,1.60569992
AKY,75,1,2024-06-29T08:18:09.892Z,english_22.wav,0,0,304,52,4,Japanese,f,5,0.5,93.75980346,1.16285663
AKY,75,1,2024-06-29T08:18:09.892Z,english_22.wav,0,0,304,52,4,Japanese,f,6,0.6,-60.5710335,1.00744398
AKY,75,1,2024-06-29T08:18:09.892Z,english_22.wav,0,0,304,52,4,Japanese,f,7,0.7,-35.42669747,0.58521518
AKY,75,1,2024-06-29T08:18:09.892Z,english_22.wav,0,0,304,52,4,Japanese,f,8,0.8,84.37918603,0.90086295
AKY,75,1,2024-06-29T08:18:09.892Z,english_22.wav,0,0,304,52,4,Japanese,f,9,0.9,-3.38291766,0.69217241
AKY,75,1,2024-06-29T08:18:09.892Z,english_22.wav,0,0,304,52,4,Japanese,f,10,1,-36.07509244,1.456266
AKY,75,1,2024-06-29T08:18:09.892Z,english_22.wav,0,0,304,52,4,Japanese,f,11,1.09391667,-43.05429972,0.26376925
AKY,76,1,2024-06-29T08:18:09.892Z,english_349.wav,0,0,3143,52,4,Japanese,f,0,0,78.21791369,0.37053366
AKY,76,1,2024-06-29T08:18:09.892Z,english_349.wav,0,0,3143,52,4,Japanese,f,1,0.1,9.4630269,0.06190409
AKY,76,1,2024-06-29T08:18:09.892Z,english_349.wav,0,0,3143,52,4,Japanese,f,2,0.2,-3.29994587,0.20284396
AKY,76,1,2024-06-29T08:18:09.892Z,english_349.wav,0,0,3143,52,4,Japanese,f,3,0.3,13.5324371,0.23510746
AKY,76,1,2024-06-29T08:18:09.892Z,english_349.wav,0,0,3143,52,4,Japanese,f,4,0.4,88.19527441,1.05287262
AKY,76,1,2024-06-29T08:18:09.892Z,english_349.wav,0,0,3143,52,4,Japanese,f,5,0.5,1.7504357,1.51424362
AKY,76,1,2024-06-29T08:18:09.892Z,english_349.wav,0,0,3143,52,4,Japanese,f,6,0.6,-42.50120826,0.74446718
AKY,76,1,2024-06-29T08:18:09.892Z,english_349.wav,0,0,3143,52,4,Japanese,f,7,0.7,-43.9320192,1.35303028
AKY,76,1,2024-06-29T08:18:09.892Z,english_349.wav,0,0,3143,52,4,Japanese,f,8,0.8,-72.26393539,1.8690989
AKY,76,1,2024-06-29T08:18:09.892Z,english_349.wav,0,0,3143,52,4,Japanese,f,9,0.9,-37.61612777,1.42604643
AKY,76,1,2024-06-29T08:18:09.892Z,english_349.wav,0,0,3143,52,4,Japanese,f,10,1,9.822435,1.6879771
AKY,76,1,2024-06-29T08:18:09.892Z,english_349.wav,0,0,3143,52,4,Japanese,f,11,1.09391667,-46.39218801,0.80624402
AKY,77,1,2024-06-29T08:18:09.892Z,english_421.wav,0,1,3144,52,4,Japanese,f,0,0,-77.37875109,0.40906671
AKY,77,1,2024-06-29T08:18:09.892Z,english_421.wav,0,1,3144,52,4,Japanese,f,1,0.1,21.68470971,0.10764534
AKY,77,1,2024-06-29T08:18:09.892Z,english_421.wav,0,1,3144,52,4,Japanese,f,2,0.2,25.95594031,0.09890733
AKY,77,1,2024-06-29T08:18:09.892Z,english_421.wav,0,1,3144,52,4,Japanese,f,3,0.3,-54.56850785,1.06704705
AKY,77,1,2024-06-29T08:18:09.892Z,english_421.wav,0,1,3144,52,4,Japanese,f,4,0.4,24.0018444,0.2085299
AKY,77,1,2024-06-29T08:18:09.892Z,english_421.wav,0,1,3144,52,4,Japanese,f,5,0.5,-47.82681182,0.29426066
AKY,77,1,2024-06-29T08:18:09.892Z,english_421.wav,0,1,3144,52,4,Japanese,f,6,0.6,-46.58707105,1.5200041
AKY,77,1,2024-06-29T08:18:09.892Z,english_421.wav,0,1,3144,52,4,Japanese,f,7,0.7,77.25272005,0.50765671
AKY,77,1,2024-06-29T08:18:09.892Z,english_421.wav,0,1,3144,52,4,Japanese,f,8,0.8,77.76425926,0.03381604
AKY,77,1,2024-06-29T08:18:09.892Z,english_421.wav,0,1,3144,52,4,Japanese,f,9,0.9,25.41801762,1.11402173
AKY,77,1,2024-06-29T08:18:09.892Z,english_421.wav,0,1,3144,52,4,Japanese,f,10,1,38.43952496,1.16253286
AKY,77,1,2024-06-29T08:18:09.892Z,english_421.wav,0,1,3144,52,4,Japanese,f,11,1.09391667,67.75811728,1.4554509
AKY,78,1,2024-06-29T08:18:09.892Z,english_746.wav,0,0,1080,52,4,Japanese,f,0,0,-17.85129661,0.72236584
AKY,78,1,2024-06-29T08:18:09.892Z,english_746.wav,0,0,1080,52,4,Japanese,f,1,0.1,44.49284576,1.69903141
AKY,78,1,2024-06-29T08:18:09.892Z,english_746.wav,0,0,1080,52,4,Japanese,f,2,0.2,-28.07602373,1.83658278
AKY,78,1,2024-06-29T08:18:09.892Z,english_746.wav,0,0,1080,52,4,Japanese,f,3,0.3,80.79649727,0.38437005
AKY,78,1,2024-06-29T08:18:09.892Z,english_746.wav,0,0,1080,52,4,Japanese,f,4,0.4,-35.87476706,0.19777168
AKY,78,1,2024-06-29T08:18:09.892Z,english_746.wav,0,0,1080,52,4,Japanese,f,5,0.5,-13.61927607,0.81094496
AKY,78,1,2024-06-29T08:18:09.892Z,english_746.wav,0,0,1080,52,4,Japanese,f,6,0.6,-13.45090469,0.04159101
AKY,78,1,2024-06-29T08:18:09.892Z,english_746.wav,0,0,1080,52,4,Japanese,f,7,0.7,74.7415388,0.34194607
AKY,78,1,2024-06-29T08:18:09.892Z,english_746.wav,0,0,1080,52,4,Japanese,f,8,0.8,-73.80839868,1.34456722
AKY,78,1,2024-06-29T08:18:09.892Z,english_746.wav,0,0,1080,52,4,Japanese,f,9,0.9,16.67710805,0.32922526
AKY,78,1,2024-06-29T08:18:09.892Z,english_746.wav,0,0,1080,52,4,Japanese,f,10,1,90.26780737,0.60956501
AKY,78,1,2024-06-29T08:18:09.892Z,english_746.wav,0,0,1080,52,4,Japanese,f,11,1.09391667,-18.98803571,1.98648295
AKY,79,1,2024-06-29T08:18:09.892Z,english_651.wav,0,0,810,52,4,Japanese,f,0,0,-91.34539462,1.93962683
AKY,79,1,2024-06-29T08:18:09.892Z,english_651.wav,0,0,810,52,4,Japanese,f,1,0.1,-1.38504973,0.25281252
AKY,79,1,2024-06-29T08:18:09.892Z,english_651.wav,0,0,810,52,4,Japanese,f,2,0.2,2.05125073,0.90917451
AKY,79,1,2024-06-29T08:18:09.892Z,english_651.wav,0,0,810,52,4,Japanese,f,3,0.3,-5.20837211,0.6157456
AKY,79,1,2024-06-29T08:18:09.892Z,english_651.wav,0,0,810,52,4,Japanese,f,4,0.4,30.89438942,0.48487698
AKY,79,1,2024-06-29T08:18:09.892Z,english_651.wav,0,0,810,52,4,Japanese,f,5,0.5,-28.36589971,1.14423933
AKY,79,1,2024-06-29T08:18:09.892Z,english_651.wav,0,0,810,52,4,Japanese,f,6,0.6,-42.97374851,0.91557091
AKY,79,1,2024-06-29T08:18:09.892Z,english_651.wav,0,0,810,52,4,Japanese,f,7,0.7,-56.55365324,1.50856564
AKY,79,1,2024-06-29T08:18:09.892Z,english_651.wav,0,0,810,52,4,Japanese,f,8,0.8,3.73861638,0.47177544
AKY,79,1,2024-06-29T08:18:09.892Z,english_651.wav,0,0,810,52,4,Japanese,f,9,0.9,-2.43332653,0.09479279
AKY,79,1,2024-06-29T08:18:09.892Z,english_651.wav,0,0,810,52,4,Japanese,f,10,1,-73.16332477,0.24018528
AKY,79,1,2024-06-29T08:18:09.892Z,english_651.wav,0,0,810,52,4,Japanese,f,11,1.09391667,61.30377091,0.24667973
