subj,trial,block,date,stim,stim_order,response,rt,age,english,language,sex,param_index,segment,pitch,stretch
AYT,0,0,2024-06-29T10:06:22.313Z,english_448.wav,0,peel,2100,19,5,Japanese,F,0,0.0,-36.42010561,0.75921607
AYT,0,0,2024-06-29T10:06:22.313Z,english_448.wav,0,peel,2100,19,5,Japanese,F,1,0.1,47.73001377,0.95293974
AYT,0,0,2024-06-29T10:06:22.313Z,english_448.wav,0,peel,2100,19,5,Japanese,F,2,0.2,93.59806646,0.22586708
AYT,0,0,2024-06-29T10:06:22.313Z,english_448.wav,0,peel,2100,19,5,Japanese,F,3,0.3,-71.28004739,1.48750577
AYT,0,0,2024-06-29T10:06:22.313Z,english_448.wav,0,peel,2100,19,5,Japanese,F,4,0.4,-73.37708676,0.17134927
AYT,0,0,2024-06-29T10:06:22.313Z,english_448.wav,0,peel,2100,19,5,Japanese,F,5,0.5,74.57279085,1.2791033
AYT,0,0,2024-06-29T10:06:22.313Z,english_448.wav,0,peel,2100,19,5,Japanese,F,6,0.6,93.06132311,0.73590712
AYT,0,0,2024-06-29T10:06:22.313Z,english_448.wav,0,peel,2100,19,5,Japanese,F,7,0.7,53.53303026,1.42606803
AYT,0,0,2024-06-29T10:06:22.313Z,english_448.wav,0,peel,2100,19,5,Japanese,F,8,0.8,-57.75366267,1.73700286
AYT,0,0,2024-06-29T10:06:22.313Z,english_448.wav,0,peel,2100,19,5,Japanese,F,9,0.9,-26.4449428,1.39235574
AYT,0,0,2024-06-29T10:06:22.313Z,english_448.wav,0,peel,2100,19,5,Japanese,F,10,1.0,-31.70641096,0.50787566
AYT,0,0,2024-06-29T10:06:22.313Z,english_448.wav,0,peel,2100,19,5,Japanese,F,11,1.09391667,-10.08807531,1.19414628
AYT,1,0,2024-06-29T10:06:22.313Z,english_950.wav,0,pill,811,19,5,Japanese,F,0,0.0,-86.87554151,0.57113527
AYT,1,0,2024-06-29T10:06:22.313Z,english_950.wav,0,pill,811,19,5,Japanese,F,1,0.1,-72.53946924,0.14563677
AYT,1,0,2024-06-29T10:06:22.313Z,english_950.wav,0,pill,811,19,5,Japanese,F,2,0.2,-93.26314945,1.26514388
AYT,1,0,2024-06-29T10:06:22.313Z,english_950.wav,0,pill,811,19,5,Japanese,F,3,0.3,-1.26261121,0.38436166
AYT,1,0,2024-06-29T10:06:22.313Z,english_950.wav,0,pill,811,19,5,Japanese,F,4,0.4,31.78397293,0.69830078
AYT,1,0,2024-06-29T10:06:22.313Z,english_950.wav,0,pill,811,19,5,Japanese,F,5,0.5,93.59900189,1.31794619
AYT,1,0,2024-06-29T10:06:22.313Z,english_950.wav,0,pill,811,19,5,Japanese,F,6,0.6,-32.85922571,0.31066599
AYT,1,0,2024-06-29T10:06:22.313Z,english_950.wav,0,pill,811,19,5,Japanese,F,7,0.7,18.10300476,1.23311227
AYT,1,0,2024-06-29T10:06:22.313Z,english_950.wav,0,pill,811,19,5,Japanese,F,8,0.8,52.92250064,0.77437242
AYT,1,0,2024-06-29T10:06:22.313Z,english_950.wav,0,pill,811,19,5,Japanese,F,9,0.9,-34.91247692,0.74996015
AYT,1,0,2024-06-29T10:06:22.313Z,english_950.wav,0,pill,811,19,5,Japanese,F,10,1.0,-31.45567731,0.3691409
AYT,1,0,2024-06-29T10:06:22.313Z,english_950.wav,0,pill,811,19,5,Japanese,F,11,1.09391667,88.77151431,1.91617341
AYT,2,0,2024-06-29T10:06:22.313Z,english_132.wav,0,peel,1349,19,5,Japanese,F,0,0.0,0.80878803,1.8484575
AYT,2,0,2024-06-29T10:06:22.313Z,english_132.wav,0,peel,1349,19,5,Japanese,F,1,0.1,-89.46369243,0.19659267
AYT,2,0,2024-06-29T10:06:22.313Z,english_132.wav,0,peel,1349,19,5,Japanese,F,2,0.2,-42.02740452,0.98704764
AYT,2,0,2024-06-29T10:06:22.313Z,english_132.wav,0,peel,1349,19,5,Japanese,F,3,0.3,-31.54071999,0.90975168
AYT,2,0,2024-06-29T10:06:22.313Z,english_132.wav,0,peel,1349,19,5,Japanese,F,4,0.4,0.25010778,1.48690857
AYT,2,0,2024-06-29T10:06:22.313Z,english_132.wav,0,peel,1349,19,5,Japanese,F,5,0.5,58.11815913,1.16973021
AYT,2,0,2024-06-29T10:06:22.313Z,english_132.wav,0,peel,1349,19,5,Japanese,F,6,0.6,81.96461668,0.00206468
AYT,2,0,2024-06-29T10:06:22.313Z,english_132.wav,0,peel,1349,19,5,Japanese,F,7,0.7,-44.50191201,0.61136538
AYT,2,0,2024-06-29T10:06:22.313Z,english_132.wav,0,peel,1349,19,5,Japanese,F,8,0.8,-95.34081409,0.53595083
AYT,2,0,2024-06-29T10:06:22.313Z,english_132.wav,0,peel,1349,19,5,Japanese,F,9,0.9,-97.06518429,0.1294964
AYT,2,0,2024-06-29T10:06:22.313Z,english_132.wav,0,peel,1349,19,5,Japanese,F,10,1.0,9.04827132,0.71465456
AYT,2,0,2024-06-29T10:06:22.313Z,english_132.wav,0,peel,1349,19,5,Japanese,F,11,1.09391667,76.3058936,0.51987053
AYT,3,0,2024-06-29T10:06:22.313Z,english_468.wav,0,peel,671,19,5,Japanese,F,0,0.0,19.31976264,0.66158439
AYT,3,0,2024-06-29T10:06:22.313Z,english_468.wav,0,peel,671,19,5,Japanese,F,1,0.1,-31.93707888,1.54343798
AYT,3,0,2024-06-29T10:06:22.313Z,english_468.wav,0,peel,671,19,5,Japanese,F,2,0.2,87.74953583,1.18268033
AYT,3,0,2024-06-29T10:06:22.313Z,english_468.wav,0,peel,671,19,5,Japanese,F,3,0.3,75.542399,0.92842135
AYT,3,0,2024-06-29T10:06:22.313Z,english_468.wav,0,peel,671,19,5,Japanese,F,4,0.4,-30.66435396,1.55978724
AYT,3,0,2024-06-29T10:06:22.313Z,english_468.wav,0,peel,671,19,5,Japanese,F,5,0.5,27.34391208,1.04364147
AYT,3,0,2024-06-29T10:06:22.313Z,english_468.wav,0,peel,671,19,5,Japanese,F,6,0.6,-88.33380447,1.4617077
AYT,3,0,2024-06-29T10:06:22.313Z,english_468.wav,0,peel,671,19,5,Japanese,F,7,0.7,22.89610212,1.75173298
AYT,3,0,2024-06-29T10:06:22.313Z,english_468.wav,0,peel,671,19,5,Japanese,F,8,0.8,-23.39935551,0.43321648
AYT,3,0,2024-06-29T10:06:22.313Z,english_468.wav,0,peel,671,19,5,Japanese,F,9,0.9,4.99226109,0.70184302
AYT,3,0,2024-06-29T10:06:22.313Z,english_468.wav,0,peel,671,19,5,Japanese,F,10,1.0,10.7480571,0.01962582
AYT,3,0,2024-06-29T10:06:22.313Z,english_468.wav,0,peel,671,19,5,Japanese,F,11,1.09391667,16.97403313,1.09642758
AYT,4,0,2024-06-29T10:06:22.313Z,english_153.wav,0,peel,827,19,5,Japanese,F,0,0.0,-22.0137653,0.27160884
AYT,4,0,2024-06-29T10:06:22.313Z,english_153.wav,0,peel,827,19,5,Japanese,F,1,0.1,21.87420495,0.44150389
AYT,4,0,2024-06-29T10:06:22.313Z,english_153.wav,0,peel,827,19,5,Japanese,F,2,0.2,78.88032694,1.08191418
AYT,4,0,2024-06-29T10:06:22.313Z,english_153.wav,0,peel,827,19,5,Japanese,F,3,0.3,68.02596654,0.18142841
AYT,4,0,2024-06-29T10:06:22.313Z,english_153.wav,0,peel,827,19,5,Japanese,F,4,0.4,52.06150723,0.17455202
AYT,4,0,2024-06-29T10:06:22.313Z,english_153.wav,0,peel,827,19,5,Japanese,F,5,0.5,-15.64198183,1.88425449
AYT,4,0,2024-06-29T10:06:22.313Z,english_153.wav,0,peel,827,19,5,Japanese,F,6,0.6,-55.92218577,1.64687285
AYT,4,0,2024-06-29T10:06:22.313Z,english_153.wav,0,peel,827,19,5,Japanese,F,7,0.7,45.74926524,1.52678411
AYT,4,0,2024-06-29T10:06:22.313Z,english_153.wav,0,peel,827,19,5,Japanese,F,8,0.8,13.43145428,1.81629534
AYT,4,0,2024-06-29T10:06:22.313Z,english_153.wav,0,peel,827,19,5,Japanese,F,9,0.9,-40.59369693,0.8186826
AYT,4,0,2024-06-29T10:06:22.313Z,english_153.wav,0,peel,827,19,5,Japanese,F,10,1.0,14.2660924,0.36511419
AYT,4,0,2024-06-29T10:06:22.313Z,english_153.wav,0,peel,827,19,5,Japanese,F,11,1.09391667,62.05558257,1.38161287
AYT,5,0,2024-06-29T10:06:22.313Z,english_754.wav,0,peel,912,19,5,Japanese,F,0,0.0,-64.18066608,1.31756219
AYT,5,0,2024-06-29T10:06:22.313Z,english_754.wav,0,peel,912,19,5,Japanese,F,1,0.1,-98.7453181,0.6775935
AYT,5,0,2024-06-29T10:06:22.313Z,english_754.wav,0,peel,912,19,5,Japanese,F,2,0.2,-52.29987626,0.44453287
AYT,5,0,2024-06-29T10:06:22.313Z,english_754.wav,0,peel,912,19,5,Japanese,F,3,0.3,-91.6870734,0.79930959
AYT,5,0,2024-06-29T10:06:22.313Z,english_754.wav,0,peel,912,19,5,Japanese,F,4,0.4,-99.93480519,0.36385227
AYT,5,0,2024-06-29T10:06:22.313Z,english_754.wav,0,peel,912,19,5,Japanese,F,5,0.5,-2.56117899,1.60724529
AYT,5,0,2024-06-29T10:06:22.313Z,english_754.wav,0,peel,912,19,5,Japanese,F,6,0.6,-58.25705586,1.54119087
AYT,5,0,2024-06-29T10:06:22.313Z,english_754.wav,0,peel,912,19,5,Japanese,F,7,0.7,-50.59283721,0.4128908
AYT,5,0,2024-06-29T10:06:22.313Z,english_754.wav,0,peel,912,19,5,Japanese,F,8,0.8,-3.4865488,0.89168042
AYT,5,0,2024-06-29T10:06:22.313Z,english_754.wav,0,peel,912,19,5,Japanese,F,9,0.9,11.81028617,0.16017021
AYT,5,0,2024-06-29T10:06:22.313Z,english_754.wav,0,peel,912,19,5,Japanese,F,10,1.0,27.46545009,1.03192762
AYT,5,0,2024-06-29T10:06:22.313Z,english_754.wav,0,peel,912,19,5,Japanese,F,11,1.09391667,8.3161915,0.24632806
AYT,6,0,2024-06-29T10:06:22.313Z,english_507.wav,0,pill,1175,19,5,Japanese,F,0,0.0,-12.02429693,0.63959218
AYT,6,0,2024-06-29T10:06:22.313Z,english_507.wav,0,pill,1175,19,5,Japanese,F,1,0.1,23.48023528,0.78683895
AYT,6,0,2024-06-29T10:06:22.313Z,english_507.wav,0,pill,1175,19,5,Japanese,F,2,0.2,75.86591316,1.2814873
AYT,6,0,2024-06-29T10:06:22.313Z,english_507.wav,0,pill,1175,19,5,Japanese,F,3,0.3,-83.47756384,0.67977555
AYT,6,0,2024-06-29T10:06:22.313Z,english_507.wav,0,pill,1175,19,5,Japanese,F,4,0.4,81.92852434,0.92992814
AYT,6,0,2024-06-29T10:06:22.313Z,english_507.wav,0,pill,1175,19,5,Japanese,F,5,0.5,87.67744716,1.13175549
AYT,6,0,2024-06-29T10:06:22.313Z,english_507.wav,0,pill,1175,19,5,Japanese,F,6,0.6,-16.33781488,0.10459473
AYT,6,0,2024-06-29T10:06:22.313Z,english_507.wav,0,pill,1175,19,5,Japanese,F,7,0.7,-17.50205237,1.89307031
AYT,6,0,2024-06-29T10:06:22.313Z,english_507.wav,0,pill,1175,19,5,Japanese,F,8,0.8,45.24056119,1.08894135
AYT,6,0,2024-06-29T10:06:22.313Z,english_507.wav,0,pill,1175,19,5,Japanese,F,9,0.9,-41.17324019,1.66565612
AYT,6,0,2024-06-29T10:06:22.313Z,english_507.wav,0,pill,1175,19,5,Japanese,F,10,1.0,-35.51150679,1.23960277
AYT,6,0,2024-06-29T10:06:22.313Z,english_507.wav,0,pill,1175,19,5,Japanese,F,11,1.09391667,-42.23976402,0.80282923
AYT,7,0,2024-06-29T10:06:22.313Z,english_225.wav,0,peel,117,19,5,Japanese,F,0,0.0,-44.18539546,0.94661558
AYT,7,0,2024-06-29T10:06:22.313Z,english_225.wav,0,peel,117,19,5,Japanese,F,1,0.1,98.45836914,0.50305164
AYT,7,0,2024-06-29T10:06:22.313Z,english_225.wav,0,peel,117,19,5,Japanese,F,2,0.2,-29.25134998,0.27788422
AYT,7,0,2024-06-29T10:06:22.313Z,english_225.wav,0,peel,117,19,5,Japanese,F,3,0.3,3.09020259,0.91972932
AYT,7,0,2024-06-29T10:06:22.313Z,english_225.wav,0,peel,117,19,5,Japanese,F,4,0.4,-47.25747067,1.19561164
AYT,7,0,2024-06-29T10:06:22.313Z,english_225.wav,0,peel,117,19,5,Japanese,F,5,0.5,-56.49635783,1.34544194
AYT,7,0,2024-06-29T10:06:22.313Z,english_225.wav,0,peel,117,19,5,Japanese,F,6,0.6,-4.90331194,0.16377231
AYT,7,0,2024-06-29T10:06:22.313Z,english_225.wav,0,peel,117,19,5,Japanese,F,7,0.7,46.68398305,1.35188114
AYT,7,0,2024-06-29T10:06:22.313Z,english_225.wav,0,peel,117,19,5,Japanese,F,8,0.8,6.9824473,1.88786979
AYT,7,0,2024-06-29T10:06:22.313Z,english_225.wav,0,peel,117,19,5,Japanese,F,9,0.9,66.07062576,1.27635088
AYT,7,0,2024-06-29T10:06:22.313Z,english_225.wav,0,peel,117,19,5,Japanese,F,10,1.0,-46.91429175,1.3192813
AYT,7,0,2024-06-29T10:06:22.313Z,english_225.wav,0,peel,117,19,5,Japanese,F,11,1.09391667,-70.62927251,0.77732241
AYT,8,0,2024-06-29T10:06:22.313Z,english_803.wav,0,peel,959,19,5,Japanese,F,0,0.0,-87.73830572,0.85344372
AYT,8,0,2024-06-29T10:06:22.313Z,english_803.wav,0,peel,959,19,5,Japanese,F,1,0.1,-15.08646711,1.55927117
AYT,8,0,2024-06-29T10:06:22.313Z,english_803.wav,0,peel,959,19,5,Japanese,F,2,0.2,-93.06982521,1.70131734
AYT,8,0,2024-06-29T10:06:22.313Z,english_803.wav,0,peel,959,19,5,Japanese,F,3,0.3,-69.48431994,0.94684337
AYT,8,0,2024-06-29T10:06:22.313Z,english_803.wav,0,peel,959,19,5,Japanese,F,4,0.4,66.11466902,1.98181189
AYT,8,0,2024-06-29T10:06:22.313Z,english_803.wav,0,peel,959,19,5,Japanese,F,5,0.5,9.32273235,0.71685289
AYT,8,0,2024-06-29T10:06:22.313Z,english_803.wav,0,peel,959,19,5,Japanese,F,6,0.6,66.48896901,0.68582038
AYT,8,0,2024-06-29T10:06:22.313Z,english_803.wav,0,peel,959,19,5,Japanese,F,7,0.7,-66.59180882,0.52787947
AYT,8,0,2024-06-29T10:06:22.313Z,english_803.wav,0,peel,959,19,5,Japanese,F,8,0.8,43.6326205,1.2789965
AYT,8,0,2024-06-29T10:06:22.313Z,english_803.wav,0,peel,959,19,5,Japanese,F,9,0.9,-52.46264607,1.18929342
AYT,8,0,2024-06-29T10:06:22.313Z,english_803.wav,0,peel,959,19,5,Japanese,F,10,1.0,47.80537721,1.0745206
AYT,8,0,2024-06-29T10:06:22.313Z,english_803.wav,0,peel,959,19,5,Japanese,F,11,1.09391667,7.91826016,1.28256899
AYT,9,0,2024-06-29T10:06:22.313Z,english_277.wav,0,pill,1082,19,5,Japanese,F,0,0.0,-44.33616139,0.73788807
AYT,9,0,2024-06-29T10:06:22.313Z,english_277.wav,0,pill,1082,19,5,Japanese,F,1,0.1,44.35260019,1.74394891
AYT,9,0,2024-06-29T10:06:22.313Z,english_277.wav,0,pill,1082,19,5,Japanese,F,2,0.2,-49.49233779,0.42488183
AYT,9,0,2024-06-29T10:06:22.313Z,english_277.wav,0,pill,1082,19,5,Japanese,F,3,0.3,-85.34810724,1.67106469
AYT,9,0,2024-06-29T10:06:22.313Z,english_277.wav,0,pill,1082,19,5,Japanese,F,4,0.4,28.63854814,1.81238123
AYT,9,0,2024-06-29T10:06:22.313Z,english_277.wav,0,pill,1082,19,5,Japanese,F,5,0.5,67.28491477,1.08162705
AYT,9,0,2024-06-29T10:06:22.313Z,english_277.wav,0,pill,1082,19,5,Japanese,F,6,0.6,56.85897208,1.34108587
AYT,9,0,2024-06-29T10:06:22.313Z,english_277.wav,0,pill,1082,19,5,Japanese,F,7,0.7,-23.80647194,0.83894526
AYT,9,0,2024-06-29T10:06:22.313Z,english_277.wav,0,pill,1082,19,5,Japanese,F,8,0.8,-34.73638316,0.08057135
AYT,9,0,2024-06-29T10:06:22.313Z,english_277.wav,0,pill,1082,19,5,Japanese,F,9,0.9,-44.12670418,0.78361609
AYT,9,0,2024-06-29T10:06:22.313Z,english_277.wav,0,pill,1082,19,5,Japanese,F,10,1.0,-49.9038669,1.89078492
AYT,9,0,2024-06-29T10:06:22.313Z,english_277.wav,0,pill,1082,19,5,Japanese,F,11,1.09391667,-45.21232541,1.1409546
AYT,10,0,2024-06-29T10:06:22.313Z,english_606.wav,0,peel,535,19,5,Japanese,F,0,0.0,72.77252021,1.14271188
AYT,10,0,2024-06-29T10:06:22.313Z,english_606.wav,0,peel,535,19,5,Japanese,F,1,0.1,22.60713343,1.41897374
AYT,10,0,2024-06-29T10:06:22.313Z,english_606.wav,0,peel,535,19,5,Japanese,F,2,0.2,30.91882808,1.73372854
AYT,10,0,2024-06-29T10:06:22.313Z,english_606.wav,0,peel,535,19,5,Japanese,F,3,0.3,-48.84223864,1.07065865
AYT,10,0,2024-06-29T10:06:22.313Z,english_606.wav,0,peel,535,19,5,Japanese,F,4,0.4,-29.82386042,0.5542197
AYT,10,0,2024-06-29T10:06:22.313Z,english_606.wav,0,peel,535,19,5,Japanese,F,5,0.5,82.48397831,0.65978179
AYT,10,0,2024-06-29T10:06:22.313Z,english_606.wav,0,peel,535,19,5,Japanese,F,6,0.6,-18.49396427,0.64487358
AYT,10,0,2024-06-29T10:06:22.313Z,english_606.wav,0,peel,535,19,5,Japanese,F,7,0.7,26.88567381,1.50533402
AYT,10,0,2024-06-29T10:06:22.313Z,english_606.wav,0,peel,535,19,5,Japanese,F,8,0.8,-18.34346668,1.51615031
AYT,10,0,2024-06-29T10:06:22.313Z,english_606.wav,0,peel,535,19,5,Japanese,F,9,0.9,10.06544583,0.11673085
AYT,10,0,2024-06-29T10:06:22.313Z,english_606.wav,0,peel,535,19,5,Japanese,F,10,1.0,-89.88083722,0.60775024
AYT,10,0,2024-06-29T10:06:22.313Z,english_606.wav,0,peel,535,19,5,Japanese,F,11,1.09391667,66.64968825,0.13627416
AYT,11,0,2024-06-29T10:06:22.313Z,english_781.wav,0,pill,1342,19,5,Japanese,F,0,0.0,13.49860993,0.0422445
AYT,11,0,2024-06-29T10:06:22.313Z,english_781.wav,0,pill,1342,19,5,Japanese,F,1,0.1,78.16193023,0.76912714
AYT,11,0,2024-06-29T10:06:22.313Z,english_781.wav,0,pill,1342,19,5,Japanese,F,2,0.2,43.40540276,1.16484067
AYT,11,0,2024-06-29T10:06:22.313Z,english_781.wav,0,pill,1342,19,5,Japanese,F,3,0.3,44.39381188,0.51341231
AYT,11,0,2024-06-29T10:06:22.313Z,english_781.wav,0,pill,1342,19,5,Japanese,F,4,0.4,1.19618008,0.61057315
AYT,11,0,2024-06-29T10:06:22.313Z,english_781.wav,0,pill,1342,19,5,Japanese,F,5,0.5,97.39796145,1.22595164
AYT,11,0,2024-06-29T10:06:22.313Z,english_781.wav,0,pill,1342,19,5,Japanese,F,6,0.6,-80.74515196,0.0959771
AYT,11,0,2024-06-29T10:06:22.313Z,english_781.wav,0,pill,1342,19,5,Japanese,F,7,0.7,24.03355654,0.86869214
AYT,11,0,2024-06-29T10:06:22.313Z,english_781.wav,0,pill,1342,19,5,Japanese,F,8,0.8,-69.35175607,1.17997392
AYT,11,0,2024-06-29T10:06:22.313Z,english_781.wav,0,pill,1342,19,5,Japanese,F,9,0.9,69.20236756,1.93834455
AYT,11,0,2024-06-29T10:06:22.313Z,english_781.wav,0,pill,1342,19,5,Japanese,F,10,1.0,35.51398516,0.60620459
AYT,11,0,2024-06-29T10:06:22.313Z,english_781.wav,0,pill,1342,19,5,Japanese,F,11,1.09391667,-53.23346631,1.46133915
AYT,12,0,2024-06-29T10:06:22.313Z,english_685.wav,0,peel,1632,19,5,Japanese,F,0,0.0,62.22235335,0.91642602
AYT,12,0,2024-06-29T10:06:22.313Z,english_685.wav,0,peel,1632,19,5,Japanese,F,1,0.1,-97.11025465,1.72329218
AYT,12,0,2024-06-29T10:06:22.313Z,english_685.wav,0,peel,1632,19,5,Japanese,F,2,0.2,72.03160739,1.99088782
AYT,12,0,2024-06-29T10:06:22.313Z,english_685.wav,0,peel,1632,19,5,Japanese,F,3,0.3,40.47895004,0.00501952
AYT,12,0,2024-06-29T10:06:22.313Z,english_685.wav,0,peel,1632,19,5,Japanese,F,4,0.4,-75.64985874,1.41330373
AYT,12,0,2024-06-29T10:06:22.313Z,english_685.wav,0,peel,1632,19,5,Japanese,F,5,0.5,-62.21115329,0.58310659
AYT,12,0,2024-06-29T10:06:22.313Z,english_685.wav,0,peel,1632,19,5,Japanese,F,6,0.6,34.38722215,1.5248844
AYT,12,0,2024-06-29T10:06:22.313Z,english_685.wav,0,peel,1632,19,5,Japanese,F,7,0.7,96.86141958,0.15841589
AYT,12,0,2024-06-29T10:06:22.313Z,english_685.wav,0,peel,1632,19,5,Japanese,F,8,0.8,52.32592552,1.39576372
AYT,12,0,2024-06-29T10:06:22.313Z,english_685.wav,0,peel,1632,19,5,Japanese,F,9,0.9,47.74773781,1.97205737
AYT,12,0,2024-06-29T10:06:22.313Z,english_685.wav,0,peel,1632,19,5,Japanese,F,10,1.0,37.75239805,1.24408728
AYT,12,0,2024-06-29T10:06:22.313Z,english_685.wav,0,peel,1632,19,5,Japanese,F,11,1.09391667,-10.16077912,1.54258522
AYT,13,0,2024-06-29T10:06:22.313Z,english_260.wav,0,peel,534,19,5,Japanese,F,0,0.0,15.97763116,1.94177241
AYT,13,0,2024-06-29T10:06:22.313Z,english_260.wav,0,peel,534,19,5,Japanese,F,1,0.1,-13.3847134,0.74015027
AYT,13,0,2024-06-29T10:06:22.313Z,english_260.wav,0,peel,534,19,5,Japanese,F,2,0.2,-29.63675022,0.26772348
AYT,13,0,2024-06-29T10:06:22.313Z,english_260.wav,0,peel,534,19,5,Japanese,F,3,0.3,-94.12252117,0.24482628
AYT,13,0,2024-06-29T10:06:22.313Z,english_260.wav,0,peel,534,19,5,Japanese,F,4,0.4,37.44404644,0.73676391
AYT,13,0,2024-06-29T10:06:22.313Z,english_260.wav,0,peel,534,19,5,Japanese,F,5,0.5,-13.47562993,0.3869803
AYT,13,0,2024-06-29T10:06:22.313Z,english_260.wav,0,peel,534,19,5,Japanese,F,6,0.6,28.72077468,0.62582606
AYT,13,0,2024-06-29T10:06:22.313Z,english_260.wav,0,peel,534,19,5,Japanese,F,7,0.7,-25.31213713,0.50244213
AYT,13,0,2024-06-29T10:06:22.313Z,english_260.wav,0,peel,534,19,5,Japanese,F,8,0.8,12.33791488,0.1260874
AYT,13,0,2024-06-29T10:06:22.313Z,english_260.wav,0,peel,534,19,5,Japanese,F,9,0.9,1.56732473,0.8031848
AYT,13,0,2024-06-29T10:06:22.313Z,english_260.wav,0,peel,534,19,5,Japanese,F,10,1.0,-29.87361041,1.5387452
AYT,13,0,2024-06-29T10:06:22.313Z,english_260.wav,0,peel,534,19,5,Japanese,F,11,1.09391667,9.56042619,0.69389389
AYT,14,0,2024-06-29T10:06:22.313Z,english_569.wav,0,pill,1094,19,5,Japanese,F,0,0.0,80.86242067,1.33421849
AYT,14,0,2024-06-29T10:06:22.313Z,english_569.wav,0,pill,1094,19,5,Japanese,F,1,0.1,-36.85440805,1.5057291
AYT,14,0,2024-06-29T10:06:22.313Z,english_569.wav,0,pill,1094,19,5,Japanese,F,2,0.2,55.48604093,1.7838276
AYT,14,0,2024-06-29T10:06:22.313Z,english_569.wav,0,pill,1094,19,5,Japanese,F,3,0.3,-32.48832212,0.34502948
AYT,14,0,2024-06-29T10:06:22.313Z,english_569.wav,0,pill,1094,19,5,Japanese,F,4,0.4,34.47022209,1.33242051
AYT,14,0,2024-06-29T10:06:22.313Z,english_569.wav,0,pill,1094,19,5,Japanese,F,5,0.5,23.79827115,0.68239412
AYT,14,0,2024-06-29T10:06:22.313Z,english_569.wav,0,pill,1094,19,5,Japanese,F,6,0.6,-29.60411728,1.41145095
AYT,14,0,2024-06-29T10:06:22.313Z,english_569.wav,0,pill,1094,19,5,Japanese,F,7,0.7,-3.34902879,0.70703372
AYT,14,0,2024-06-29T10:06:22.313Z,english_569.wav,0,pill,1094,19,5,Japanese,F,8,0.8,-24.14207397,0.57539158
AYT,14,0,2024-06-29T10:06:22.313Z,english_569.wav,0,pill,1094,19,5,Japanese,F,9,0.9,49.40170215,1.31553206
AYT,14,0,2024-06-29T10:06:22.313Z,english_569.wav,0,pill,1094,19,5,Japanese,F,10,1.0,34.30113072,0.57675215
AYT,14,0,2024-06-29T10:06:22.313Z,english_569.wav,0,pill,1094,19,5,Japanese,F,11,1.09391667,-89.06013863,1.91555697
AYT,15,0,2024-06-29T10:06:22.313Z,english_878.wav,0,peel,188,19,5,Japanese,F,0,0.0,-93.54916279,0.97267647
AYT,15,0,2024-06-29T10:06:22.313Z,english_878.wav,0,peel,188,19,5,Japanese,F,1,0.1,34.21390888,0.02715416
AYT,15,0,2024-06-29T10:06:22.313Z,english_878.wav,0,peel,188,19,5,Japanese,F,2,0.2,-58.82294687,0.28996928
AYT,15,0,2024-06-29T10:06:22.313Z,english_878.wav,0,peel,188,19,5,Japanese,F,3,0.3,10.18768241,1.11808931
AYT,15,0,2024-06-29T10:06:22.313Z,english_878.wav,0,peel,188,19,5,Japanese,F,4,0.4,-49.52140337,1.8324871
AYT,15,0,2024-06-29T10:06:22.313Z,english_878.wav,0,peel,188,19,5,Japanese,F,5,0.5,-71.54422434,1.79950878
AYT,15,0,2024-06-29T10:06:22.313Z,english_878.wav,0,peel,188,19,5,Japanese,F,6,0.6,58.16145178,1.12806689
AYT,15,0,2024-06-29T10:06:22.313Z,english_878.wav,0,peel,188,19,5,Japanese,F,7,0.7,-74.84169027,0.34574191
AYT,15,0,2024-06-29T10:06:22.313Z,english_878.wav,0,peel,188,19,5,Japanese,F,8,0.8,-47.28121675,1.0964165
AYT,15,0,2024-06-29T10:06:22.313Z,english_878.wav,0,peel,188,19,5,Japanese,F,9,0.9,17.04020125,0.06170949
AYT,15,0,2024-06-29T10:06:22.313Z,english_878.wav,0,peel,188,19,5,Japanese,F,10,1.0,-15.84668216,1.1582617
AYT,15,0,2024-06-29T10:06:22.313Z,english_878.wav,0,peel,188,19,5,Japanese,F,11,1.09391667,15.68838881,0.39253234
AYT,16,0,2024-06-29T10:06:22.313Z,english_50.wav,0,peel,681,19,5,Japanese,F,0,0.0,-32.36494138,1.37054129
AYT,16,0,2024-06-29T10:06:22.313Z,english_50.wav,0,peel,681,19,5,Japanese,F,1,0.1,76.6244439,1.57215181
AYT,16,0,2024-06-29T10:06:22.313Z,english_50.wav,0,peel,681,19,5,Japanese,F,2,0.2,-16.62217643,1.07317842
AYT,16,0,2024-06-29T10:06:22.313Z,english_50.wav,0,peel,681,19,5,Japanese,F,3,0.3,63.40850527,0.82623857
AYT,16,0,2024-06-29T10:06:22.313Z,english_50.wav,0,peel,681,19,5,Japanese,F,4,0.4,68.81783594,0.72038729
AYT,16,0,2024-06-29T10:06:22.313Z,english_50.wav,0,peel,681,19,5,Japanese,F,5,0.5,-35.17384088,1.90936147
AYT,16,0,2024-06-29T10:06:22.313Z,english_50.wav,0,peel,681,19,5,Japanese,F,6,0.6,42.93688325,0.3744962
AYT,16,0,2024-06-29T10:06:22.313Z,english_50.wav,0,peel,681,19,5,Japanese,F,7,0.7,-82.21044816,0.69245834
AYT,16,0,2024-06-29T10:06:22.313Z,english_50.wav,0,peel,681,19,5,Japanese,F,8,0.8,-42.73245843,0.60585647
AYT,16,0,2024-06-29T10:06:22.313Z,english_50.wav,0,peel,681,19,5,Japanese,F,9,0.9,-3.13393134,1.24840552
AYT,16,0,2024-06-29T10:06:22.313Z,english_50.wav,0,peel,681,19,5,Japanese,F,10,1.0,-86.41078269,0.02488175
AYT,16,0,2024-06-29T10:06:22.313Z,english_50.wav,0,peel,681,19,5,Japanese,F,11,1.09391667,14.80187439,1.59728167
AYT,17,0,2024-06-29T10:06:22.313Z,english_62.wav,0,peel,103,19,5,Japanese,F,0,0.0,-3.78920548,0.70082268
AYT,17,0,2024-06-29T10:06:22.313Z,english_62.wav,0,peel,103,19,5,Japanese,F,1,0.1,-37.0955142,1.73685238
AYT,17,0,2024-06-29T10:06:22.313Z,english_62.wav,0,peel,103,19,5,Japanese,F,2,0.2,9.5461355,1.84078554
AYT,17,0,2024-06-29T10:06:22.313Z,english_62.wav,0,peel,103,19,5,Japanese,F,3,0.3,-0.00485474303,1.14784738
AYT,17,0,2024-06-29T10:06:22.313Z,english_62.wav,0,peel,103,19,5,Japanese,F,4,0.4,-49.0745054,1.31722545
AYT,17,0,2024-06-29T10:06:22.313Z,english_62.wav,0,peel,103,19,5,Japanese,F,5,0.5,-72.3722832,1.67134304
AYT,17,0,2024-06-29T10:06:22.313Z,english_62.wav,0,peel,103,19,5,Japanese,F,6,0.6,5.00416948,1.47221808
AYT,17,0,2024-06-29T10:06:22.313Z,english_62.wav,0,peel,103,19,5,Japanese,F,7,0.7,-4.87629727,1.69888672
AYT,17,0,2024-06-29T10:06:22.313Z,english_62.wav,0,peel,103,19,5,Japanese,F,8,0.8,-34.3659295,1.41102286
AYT,17,0,2024-06-29T10:06:22.313Z,english_62.wav,0,peel,103,19,5,Japanese,F,9,0.9,-54.6881611,1.6080508
AYT,17,0,2024-06-29T10:06:22.313Z,english_62.wav,0,peel,103,19,5,Japanese,F,10,1.0,-89.9071473,1.84899912
AYT,17,0,2024-06-29T10:06:22.313Z,english_62.wav,0,peel,103,19,5,Japanese,F,11,1.09391667,-27.8378106,1.28379088
AYT,18,0,2024-06-29T10:06:22.313Z,english_683.wav,0,peel,379,19,5,Japanese,F,0,0.0,34.23496856,1.52890361
AYT,18,0,2024-06-29T10:06:22.313Z,english_683.wav,0,peel,379,19,5,Japanese,F,1,0.1,81.31064479,1.93705935
AYT,18,0,2024-06-29T10:06:22.313Z,english_683.wav,0,peel,379,19,5,Japanese,F,2,0.2,-60.40458615,0.69433094
AYT,18,0,2024-06-29T10:06:22.313Z,english_683.wav,0,peel,379,19,5,Japanese,F,3,0.3,-62.54980461,1.53772514
AYT,18,0,2024-06-29T10:06:22.313Z,english_683.wav,0,peel,379,19,5,Japanese,F,4,0.4,-12.36553538,1.78596087
AYT,18,0,2024-06-29T10:06:22.313Z,english_683.wav,0,peel,379,19,5,Japanese,F,5,0.5,-34.77582481,1.63079743
AYT,18,0,2024-06-29T10:06:22.313Z,english_683.wav,0,peel,379,19,5,Japanese,F,6,0.6,-96.13838061,0.34418859
AYT,18,0,2024-06-29T10:06:22.313Z,english_683.wav,0,peel,379,19,5,Japanese,F,7,0.7,-24.06724676,0.7060728
AYT,18,0,2024-06-29T10:06:22.313Z,english_683.wav,0,peel,379,19,5,Japanese,F,8,0.8,-21.80988158,1.36877557
AYT,18,0,2024-06-29T10:06:22.313Z,english_683.wav,0,peel,379,19,5,Japanese,F,9,0.9,25.64503309,0.99980175
AYT,18,0,2024-06-29T10:06:22.313Z,english_683.wav,0,peel,379,19,5,Japanese,F,10,1.0,-38.18547527,1.47729865
AYT,18,0,2024-06-29T10:06:22.313Z,english_683.wav,0,peel,379,19,5,Japanese,F,11,1.09391667,-68.93519132,0.6697003
AYT,19,0,2024-06-29T10:06:22.313Z,english_779.wav,0,peel,634,19,5,Japanese,F,0,0.0,2.5732513,1.647041
AYT,19,0,2024-06-29T10:06:22.313Z,english_779.wav,0,peel,634,19,5,Japanese,F,1,0.1,65.46905282,1.84593927
AYT,19,0,2024-06-29T10:06:22.313Z,english_779.wav,0,peel,634,19,5,Japanese,F,2,0.2,71.19594141,0.45510565
AYT,19,0,2024-06-29T10:06:22.313Z,english_779.wav,0,peel,634,19,5,Japanese,F,3,0.3,60.39832791,1.01795959
AYT,19,0,2024-06-29T10:06:22.313Z,english_779.wav,0,peel,634,19,5,Japanese,F,4,0.4,-88.69626856,0.08128748
AYT,19,0,2024-06-29T10:06:22.313Z,english_779.wav,0,peel,634,19,5,Japanese,F,5,0.5,88.13724484,1.92668947
AYT,19,0,2024-06-29T10:06:22.313Z,english_779.wav,0,peel,634,19,5,Japanese,F,6,0.6,-21.3716901,0.83024876
AYT,19,0,2024-06-29T10:06:22.313Z,english_779.wav,0,peel,634,19,5,Japanese,F,7,0.7,50.45377943,1.4170414
AYT,19,0,2024-06-29T10:06:22.313Z,english_779.wav,0,peel,634,19,5,Japanese,F,8,0.8,88.14580375,1.13372324
AYT,19,0,2024-06-29T10:06:22.313Z,english_779.wav,0,peel,634,19,5,Japanese,F,9,0.9,-75.16546804,0.91489346
AYT,19,0,2024-06-29T10:06:22.313Z,english_779.wav,0,peel,634,19,5,Japanese,F,10,1.0,-15.63730308,0.03287719
AYT,19,0,2024-06-29T10:06:22.313Z,english_779.wav,0,peel,634,19,5,Japanese,F,11,1.09391667,-11.80666885,1.28058258
AYT,20,0,2024-06-29T10:06:22.313Z,english_732.wav,0,pill,699,19,5,Japanese,F,0,0.0,-6.1655518,1.83743041
AYT,20,0,2024-06-29T10:06:22.313Z,english_732.wav,0,pill,699,19,5,Japanese,F,1,0.1,-21.68268247,0.45034165
AYT,20,0,2024-06-29T10:06:22.313Z,english_732.wav,0,pill,699,19,5,Japanese,F,2,0.2,-44.18505393,1.43977044
AYT,20,0,2024-06-29T10:06:22.313Z,english_732.wav,0,pill,699,19,5,Japanese,F,3,0.3,-99.08787178,1.63276402
AYT,20,0,2024-06-29T10:06:22.313Z,english_732.wav,0,pill,699,19,5,Japanese,F,4,0.4,52.69419041,1.14410498
AYT,20,0,2024-06-29T10:06:22.313Z,english_732.wav,0,pill,699,19,5,Japanese,F,5,0.5,-22.76801282,0.80499942
AYT,20,0,2024-06-29T10:06:22.313Z,english_732.wav,0,pill,699,19,5,Japanese,F,6,0.6,-68.37024344,0.00488355
AYT,20,0,2024-06-29T10:06:22.313Z,english_732.wav,0,pill,699,19,5,Japanese,F,7,0.7,99.79862575,1.08087267
AYT,20,0,2024-06-29T10:06:22.313Z,english_732.wav,0,pill,699,19,5,Japanese,F,8,0.8,-45.96985204,0.60546967
AYT,20,0,2024-06-29T10:06:22.313Z,english_732.wav,0,pill,699,19,5,Japanese,F,9,0.9,34.4904792,1.53964006
AYT,20,0,2024-06-29T10:06:22.313Z,english_732.wav,0,pill,699,19,5,Japanese,F,10,1.0,-81.20928849,0.59388625
AYT,20,0,2024-06-29T10:06:22.313Z,english_732.wav,0,pill,699,19,5,Japanese,F,11,1.09391667,-1.26617119,1.72169188
AYT,21,0,2024-06-29T10:06:22.313Z,english_478.wav,0,peel,855,19,5,Japanese,F,0,0.0,49.52865222,0.59081153
AYT,21,0,2024-06-29T10:06:22.313Z,english_478.wav,0,peel,855,19,5,Japanese,F,1,0.1,12.15356225,0.51284871
AYT,21,0,2024-06-29T10:06:22.313Z,english_478.wav,0,peel,855,19,5,Japanese,F,2,0.2,-37.73778512,1.1444407
AYT,21,0,2024-06-29T10:06:22.313Z,english_478.wav,0,peel,855,19,5,Japanese,F,3,0.3,-10.50364884,1.54775545
AYT,21,0,2024-06-29T10:06:22.313Z,english_478.wav,0,peel,855,19,5,Japanese,F,4,0.4,38.58870475,1.52435775
AYT,21,0,2024-06-29T10:06:22.313Z,english_478.wav,0,peel,855,19,5,Japanese,F,5,0.5,-22.27355878,1.20325801
AYT,21,0,2024-06-29T10:06:22.313Z,english_478.wav,0,peel,855,19,5,Japanese,F,6,0.6,-48.47445884,0.62139426
AYT,21,0,2024-06-29T10:06:22.313Z,english_478.wav,0,peel,855,19,5,Japanese,F,7,0.7,-51.27115533,0.67212897
AYT,21,0,2024-06-29T10:06:22.313Z,english_478.wav,0,peel,855,19,5,Japanese,F,8,0.8,73.13710457,1.21899898
AYT,21,0,2024-06-29T10:06:22.313Z,english_478.wav,0,peel,855,19,5,Japanese,F,9,0.9,5.78656281,0.57488153
AYT,21,0,2024-06-29T10:06:22.313Z,english_478.wav,0,peel,855,19,5,Japanese,F,10,1.0,-98.51331711,0.34521849
AYT,21,0,2024-06-29T10:06:22.313Z,english_478.wav,0,peel,855,19,5,Japanese,F,11,1.09391667,24.20472837,1.9492818
AYT,22,0,2024-06-29T10:06:22.313Z,english_886.wav,0,peel,894,19,5,Japanese,F,0,0.0,-16.36651411,1.8465656
AYT,22,0,2024-06-29T10:06:22.313Z,english_886.wav,0,peel,894,19,5,Japanese,F,1,0.1,94.81992149,0.03609627
AYT,22,0,2024-06-29T10:06:22.313Z,english_886.wav,0,peel,894,19,5,Japanese,F,2,0.2,-83.66014359,0.10032261
AYT,22,0,2024-06-29T10:06:22.313Z,english_886.wav,0,peel,894,19,5,Japanese,F,3,0.3,66.57072673,0.61597825
AYT,22,0,2024-06-29T10:06:22.313Z,english_886.wav,0,peel,894,19,5,Japanese,F,4,0.4,-30.10881228,1.8473118
AYT,22,0,2024-06-29T10:06:22.313Z,english_886.wav,0,peel,894,19,5,Japanese,F,5,0.5,29.87535156,0.22794276
AYT,22,0,2024-06-29T10:06:22.313Z,english_886.wav,0,peel,894,19,5,Japanese,F,6,0.6,-5.84374474,1.70663056
AYT,22,0,2024-06-29T10:06:22.313Z,english_886.wav,0,peel,894,19,5,Japanese,F,7,0.7,-37.08874517,1.00704844
AYT,22,0,2024-06-29T10:06:22.313Z,english_886.wav,0,peel,894,19,5,Japanese,F,8,0.8,-37.71419391,1.51514851
AYT,22,0,2024-06-29T10:06:22.313Z,english_886.wav,0,peel,894,19,5,Japanese,F,9,0.9,81.54676756,0.33267442
AYT,22,0,2024-06-29T10:06:22.313Z,english_886.wav,0,peel,894,19,5,Japanese,F,10,1.0,34.24528544,1.39448041
AYT,22,0,2024-06-29T10:06:22.313Z,english_886.wav,0,peel,894,19,5,Japanese,F,11,1.09391667,-36.87365079,0.32097187
AYT,23,0,2024-06-29T10:06:22.313Z,english_428.wav,0,pill,280,19,5,Japanese,F,0,0.0,81.83092524,1.65195738
AYT,23,0,2024-06-29T10:06:22.313Z,english_428.wav,0,pill,280,19,5,Japanese,F,1,0.1,-80.13069751,1.50342219
AYT,23,0,2024-06-29T10:06:22.313Z,english_428.wav,0,pill,280,19,5,Japanese,F,2,0.2,-11.65632902,1.06152039
AYT,23,0,2024-06-29T10:06:22.313Z,english_428.wav,0,pill,280,19,5,Japanese,F,3,0.3,-46.08084266,0.87273268
AYT,23,0,2024-06-29T10:06:22.313Z,english_428.wav,0,pill,280,19,5,Japanese,F,4,0.4,3.29741478,1.30041173
AYT,23,0,2024-06-29T10:06:22.313Z,english_428.wav,0,pill,280,19,5,Japanese,F,5,0.5,38.2144639,1.27181021
AYT,23,0,2024-06-29T10:06:22.313Z,english_428.wav,0,pill,280,19,5,Japanese,F,6,0.6,-36.34649143,1.2829939
AYT,23,0,2024-06-29T10:06:22.313Z,english_428.wav,0,pill,280,19,5,Japanese,F,7,0.7,-64.94911042,0.80379216
AYT,23,0,2024-06-29T10:06:22.313Z,english_428.wav,0,pill,280,19,5,Japanese,F,8,0.8,55.28808141,0.54976242
AYT,23,0,2024-06-29T10:06:22.313Z,english_428.wav,0,pill,280,19,5,Japanese,F,9,0.9,-85.65631623,1.4846347
AYT,23,0,2024-06-29T10:06:22.313Z,english_428.wav,0,pill,280,19,5,Japanese,F,10,1.0,45.03584187,0.86531381
AYT,23,0,2024-06-29T10:06:22.313Z,english_428.wav,0,pill,280,19,5,Japanese,F,11,1.09391667,-22.28745039,0.63375774
AYT,24,0,2024-06-29T10:06:22.313Z,english_151.wav,0,peel,823,19,5,Japanese,F,0,0.0,-96.58356516,1.19663116
AYT,24,0,2024-06-29T10:06:22.313Z,english_151.wav,0,peel,823,19,5,Japanese,F,1,0.1,53.33507439,0.02049529
AYT,24,0,2024-06-29T10:06:22.313Z,english_151.wav,0,peel,823,19,5,Japanese,F,2,0.2,23.26881474,0.86701839
AYT,24,0,2024-06-29T10:06:22.313Z,english_151.wav,0,peel,823,19,5,Japanese,F,3,0.3,89.03249778,0.68926078
AYT,24,0,2024-06-29T10:06:22.313Z,english_151.wav,0,peel,823,19,5,Japanese,F,4,0.4,-38.82793041,0.60287098
AYT,24,0,2024-06-29T10:06:22.313Z,english_151.wav,0,peel,823,19,5,Japanese,F,5,0.5,-36.66004779,1.21623164
AYT,24,0,2024-06-29T10:06:22.313Z,english_151.wav,0,peel,823,19,5,Japanese,F,6,0.6,67.28889671,0.80619928
AYT,24,0,2024-06-29T10:06:22.313Z,english_151.wav,0,peel,823,19,5,Japanese,F,7,0.7,-0.40239481,0.32656555
AYT,24,0,2024-06-29T10:06:22.313Z,english_151.wav,0,peel,823,19,5,Japanese,F,8,0.8,-91.46427785,1.24233336
AYT,24,0,2024-06-29T10:06:22.313Z,english_151.wav,0,peel,823,19,5,Japanese,F,9,0.9,42.06624713,0.88095947
AYT,24,0,2024-06-29T10:06:22.313Z,english_151.wav,0,peel,823,19,5,Japanese,F,10,1.0,-44.58654352,1.51580141
AYT,24,0,2024-06-29T10:06:22.313Z,english_151.wav,0,peel,823,19,5,Japanese,F,11,1.09391667,65.09222406,0.37134413
AYT,25,0,2024-06-29T10:06:22.313Z,english_773.wav,0,pill,252,19,5,Japanese,F,0,0.0,25.38598482,0.89232009
AYT,25,0,2024-06-29T10:06:22.313Z,english_773.wav,0,pill,252,19,5,Japanese,F,1,0.1,-75.4290336,1.89128597
AYT,25,0,2024-06-29T10:06:22.313Z,english_773.wav,0,pill,252,19,5,Japanese,F,2,0.2,-93.77214736,1.99899889
AYT,25,0,2024-06-29T10:06:22.313Z,english_773.wav,0,pill,252,19,5,Japanese,F,3,0.3,-11.93109416,0.2472244
AYT,25,0,2024-06-29T10:06:22.313Z,english_773.wav,0,pill,252,19,5,Japanese,F,4,0.4,-3.2584173,0.14273894
AYT,25,0,2024-06-29T10:06:22.313Z,english_773.wav,0,pill,252,19,5,Japanese,F,5,0.5,4.3608059,1.21438163
AYT,25,0,2024-06-29T10:06:22.313Z,english_773.wav,0,pill,252,19,5,Japanese,F,6,0.6,-67.37283883,0.96373014
AYT,25,0,2024-06-29T10:06:22.313Z,english_773.wav,0,pill,252,19,5,Japanese,F,7,0.7,-45.00567152,1.90932533
AYT,25,0,2024-06-29T10:06:22.313Z,english_773.wav,0,pill,252,19,5,Japanese,F,8,0.8,35.5097718,1.26347726
AYT,25,0,2024-06-29T10:06:22.313Z,english_773.wav,0,pill,252,19,5,Japanese,F,9,0.9,43.03996363,1.83989813
AYT,25,0,2024-06-29T10:06:22.313Z,english_773.wav,0,pill,252,19,5,Japanese,F,10,1.0,65.28264622,0.76004817
AYT,25,0,2024-06-29T10:06:22.313Z,english_773.wav,0,pill,252,19,5,Japanese,F,11,1.09391667,-37.07012433,0.66989713
AYT,26,0,2024-06-29T10:06:22.313Z,english_117.wav,0,pill,495,19,5,Japanese,F,0,0.0,-28.38275439,0.21519039
AYT,26,0,2024-06-29T10:06:22.313Z,english_117.wav,0,pill,495,19,5,Japanese,F,1,0.1,98.42008379,0.51040987
AYT,26,0,2024-06-29T10:06:22.313Z,english_117.wav,0,pill,495,19,5,Japanese,F,2,0.2,41.31206558,0.4102792
AYT,26,0,2024-06-29T10:06:22.313Z,english_117.wav,0,pill,495,19,5,Japanese,F,3,0.3,-83.83183678,1.46073806
AYT,26,0,2024-06-29T10:06:22.313Z,english_117.wav,0,pill,495,19,5,Japanese,F,4,0.4,98.21463791,0.64884847
AYT,26,0,2024-06-29T10:06:22.313Z,english_117.wav,0,pill,495,19,5,Japanese,F,5,0.5,-2.48578352,0.03709947
AYT,26,0,2024-06-29T10:06:22.313Z,english_117.wav,0,pill,495,19,5,Japanese,F,6,0.6,-4.17640124,1.54490713
AYT,26,0,2024-06-29T10:06:22.313Z,english_117.wav,0,pill,495,19,5,Japanese,F,7,0.7,96.23712421,1.91280324
AYT,26,0,2024-06-29T10:06:22.313Z,english_117.wav,0,pill,495,19,5,Japanese,F,8,0.8,58.96351824,1.06675457
AYT,26,0,2024-06-29T10:06:22.313Z,english_117.wav,0,pill,495,19,5,Japanese,F,9,0.9,45.91477825,1.30412923
AYT,26,0,2024-06-29T10:06:22.313Z,english_117.wav,0,pill,495,19,5,Japanese,F,10,1.0,-11.19499605,1.45368514
AYT,26,0,2024-06-29T10:06:22.313Z,english_117.wav,0,pill,495,19,5,Japanese,F,11,1.09391667,-21.37390064,0.12058037
AYT,27,0,2024-06-29T10:06:22.313Z,english_382.wav,0,peel,260,19,5,Japanese,F,0,0.0,51.10840748,1.50482446
AYT,27,0,2024-06-29T10:06:22.313Z,english_382.wav,0,peel,260,19,5,Japanese,F,1,0.1,-91.92289356,1.64118974
AYT,27,0,2024-06-29T10:06:22.313Z,english_382.wav,0,peel,260,19,5,Japanese,F,2,0.2,-79.84820622,1.27294553
AYT,27,0,2024-06-29T10:06:22.313Z,english_382.wav,0,peel,260,19,5,Japanese,F,3,0.3,77.1343998,1.68382972
AYT,27,0,2024-06-29T10:06:22.313Z,english_382.wav,0,peel,260,19,5,Japanese,F,4,0.4,-28.37542717,0.77725399
AYT,27,0,2024-06-29T10:06:22.313Z,english_382.wav,0,peel,260,19,5,Japanese,F,5,0.5,-45.23452982,0.19931522
AYT,27,0,2024-06-29T10:06:22.313Z,english_382.wav,0,peel,260,19,5,Japanese,F,6,0.6,-99.13090952,1.54066958
AYT,27,0,2024-06-29T10:06:22.313Z,english_382.wav,0,peel,260,19,5,Japanese,F,7,0.7,78.74968094,1.92796372
AYT,27,0,2024-06-29T10:06:22.313Z,english_382.wav,0,peel,260,19,5,Japanese,F,8,0.8,-29.18128543,1.53197117
AYT,27,0,2024-06-29T10:06:22.313Z,english_382.wav,0,peel,260,19,5,Japanese,F,9,0.9,2.6821327,0.33786537
AYT,27,0,2024-06-29T10:06:22.313Z,english_382.wav,0,peel,260,19,5,Japanese,F,10,1.0,72.60334223,0.41937099
AYT,27,0,2024-06-29T10:06:22.313Z,english_382.wav,0,peel,260,19,5,Japanese,F,11,1.09391667,-39.78930979,0.9246019
AYT,28,0,2024-06-29T10:06:22.313Z,english_609.wav,0,peel,299,19,5,Japanese,F,0,0.0,45.1693917,1.16218677
AYT,28,0,2024-06-29T10:06:22.313Z,english_609.wav,0,peel,299,19,5,Japanese,F,1,0.1,-72.3247495,1.56939275
AYT,28,0,2024-06-29T10:06:22.313Z,english_609.wav,0,peel,299,19,5,Japanese,F,2,0.2,18.68361548,1.47980491
AYT,28,0,2024-06-29T10:06:22.313Z,english_609.wav,0,peel,299,19,5,Japanese,F,3,0.3,-27.6682302,1.03639669
AYT,28,0,2024-06-29T10:06:22.313Z,english_609.wav,0,peel,299,19,5,Japanese,F,4,0.4,3.63671522,0.81396394
AYT,28,0,2024-06-29T10:06:22.313Z,english_609.wav,0,peel,299,19,5,Japanese,F,5,0.5,21.21340101,1.33770591
AYT,28,0,2024-06-29T10:06:22.313Z,english_609.wav,0,peel,299,19,5,Japanese,F,6,0.6,15.49381211,1.85408959
AYT,28,0,2024-06-29T10:06:22.313Z,english_609.wav,0,peel,299,19,5,Japanese,F,7,0.7,1.52669615,0.1270649
AYT,28,0,2024-06-29T10:06:22.313Z,english_609.wav,0,peel,299,19,5,Japanese,F,8,0.8,25.44993701,0.72088093
AYT,28,0,2024-06-29T10:06:22.313Z,english_609.wav,0,peel,299,19,5,Japanese,F,9,0.9,-58.9173922,1.10933741
AYT,28,0,2024-06-29T10:06:22.313Z,english_609.wav,0,peel,299,19,5,Japanese,F,10,1.0,4.8985277,0.9989657
AYT,28,0,2024-06-29T10:06:22.313Z,english_609.wav,0,peel,299,19,5,Japanese,F,11,1.09391667,-19.12587244,1.15972192
AYT,29,0,2024-06-29T10:06:22.313Z,english_869.wav,0,pill,1498,19,5,Japanese,F,0,0.0,-20.7946379,1.94834657
AYT,29,0,2024-06-29T10:06:22.313Z,english_869.wav,0,pill,1498,19,5,Japanese,F,1,0.1,-22.88594334,1.67021182
AYT,29,0,2024-06-29T10:06:22.313Z,english_869.wav,0,pill,1498,19,5,Japanese,F,2,0.2,-44.01188064,1.50520546
AYT,29,0,2024-06-29T10:06:22.313Z,english_869.wav,0,pill,1498,19,5,Japanese,F,3,0.3,58.96228493,0.98955103
AYT,29,0,2024-06-29T10:06:22.313Z,english_869.wav,0,pill,1498,19,5,Japanese,F,4,0.4,0.25554563,0.43254465
AYT,29,0,2024-06-29T10:06:22.313Z,english_869.wav,0,pill,1498,19,5,Japanese,F,5,0.5,-14.29276016,1.32326318
AYT,29,0,2024-06-29T10:06:22.313Z,english_869.wav,0,pill,1498,19,5,Japanese,F,6,0.6,40.28852475,0.34817039
AYT,29,0,2024-06-29T10:06:22.313Z,english_869.wav,0,pill,1498,19,5,Japanese,F,7,0.7,83.9110951,0.4259349
AYT,29,0,2024-06-29T10:06:22.313Z,english_869.wav,0,pill,1498,19,5,Japanese,F,8,0.8,-58.08971542,0.20780663
AYT,29,0,2024-06-29T10:06:22.313Z,english_869.wav,0,pill,1498,19,5,Japanese,F,9,0.9,-47.84735546,0.9384124
AYT,29,0,2024-06-29T10:06:22.313Z,english_869.wav,0,pill,1498,19,5,Japanese,F,10,1.0,18.70420486,1.5529846
AYT,29,0,2024-06-29T10:06:22.313Z,english_869.wav,0,pill,1498,19,5,Japanese,F,11,1.09391667,33.02688521,1.23929613
AYT,30,0,2024-06-29T10:06:22.313Z,english_111.wav,0,peel,237,19,5,Japanese,F,0,0.0,-7.89423459,1.73172447
AYT,30,0,2024-06-29T10:06:22.313Z,english_111.wav,0,peel,237,19,5,Japanese,F,1,0.1,-50.39853442,1.30536321
AYT,30,0,2024-06-29T10:06:22.313Z,english_111.wav,0,peel,237,19,5,Japanese,F,2,0.2,85.22773015,0.28962065
AYT,30,0,2024-06-29T10:06:22.313Z,english_111.wav,0,peel,237,19,5,Japanese,F,3,0.3,-7.88513069,1.6166787
AYT,30,0,2024-06-29T10:06:22.313Z,english_111.wav,0,peel,237,19,5,Japanese,F,4,0.4,-36.68324303,0.55677008
AYT,30,0,2024-06-29T10:06:22.313Z,english_111.wav,0,peel,237,19,5,Japanese,F,5,0.5,-4.8649615,1.31756148
AYT,30,0,2024-06-29T10:06:22.313Z,english_111.wav,0,peel,237,19,5,Japanese,F,6,0.6,-92.19494919,1.4789538
AYT,30,0,2024-06-29T10:06:22.313Z,english_111.wav,0,peel,237,19,5,Japanese,F,7,0.7,-6.11032283,0.53950686
AYT,30,0,2024-06-29T10:06:22.313Z,english_111.wav,0,peel,237,19,5,Japanese,F,8,0.8,41.34470973,0.89868821
AYT,30,0,2024-06-29T10:06:22.313Z,english_111.wav,0,peel,237,19,5,Japanese,F,9,0.9,-73.07088632,0.90401257
AYT,30,0,2024-06-29T10:06:22.313Z,english_111.wav,0,peel,237,19,5,Japanese,F,10,1.0,50.36502587,0.61580764
AYT,30,0,2024-06-29T10:06:22.313Z,english_111.wav,0,peel,237,19,5,Japanese,F,11,1.09391667,-49.90215361,1.87610476
AYT,31,0,2024-06-29T10:06:22.313Z,english_320.wav,0,pill,681,19,5,Japanese,F,0,0.0,44.47796626,1.16365892
AYT,31,0,2024-06-29T10:06:22.313Z,english_320.wav,0,pill,681,19,5,Japanese,F,1,0.1,72.35684443,1.32074679
AYT,31,0,2024-06-29T10:06:22.313Z,english_320.wav,0,pill,681,19,5,Japanese,F,2,0.2,-17.68947707,0.98723075
AYT,31,0,2024-06-29T10:06:22.313Z,english_320.wav,0,pill,681,19,5,Japanese,F,3,0.3,70.79565504,1.34736881
AYT,31,0,2024-06-29T10:06:22.313Z,english_320.wav,0,pill,681,19,5,Japanese,F,4,0.4,-42.99608759,1.9395238
AYT,31,0,2024-06-29T10:06:22.313Z,english_320.wav,0,pill,681,19,5,Japanese,F,5,0.5,31.43453027,1.00857384
AYT,31,0,2024-06-29T10:06:22.313Z,english_320.wav,0,pill,681,19,5,Japanese,F,6,0.6,-18.00256732,0.72649141
AYT,31,0,2024-06-29T10:06:22.313Z,english_320.wav,0,pill,681,19,5,Japanese,F,7,0.7,43.1706274,0.12011257
AYT,31,0,2024-06-29T10:06:22.313Z,english_320.wav,0,pill,681,19,5,Japanese,F,8,0.8,-37.59278076,0.44120338
AYT,31,0,2024-06-29T10:06:22.313Z,english_320.wav,0,pill,681,19,5,Japanese,F,9,0.9,7.82795904,0.10933434
AYT,31,0,2024-06-29T10:06:22.313Z,english_320.wav,0,pill,681,19,5,Japanese,F,10,1.0,39.02364152,0.34432793
AYT,31,0,2024-06-29T10:06:22.313Z,english_320.wav,0,pill,681,19,5,Japanese,F,11,1.09391667,-63.74950888,1.78306962
AYT,32,0,2024-06-29T10:06:22.313Z,english_188.wav,0,pill,936,19,5,Japanese,F,0,0.0,-44.78438497,0.94710117
AYT,32,0,2024-06-29T10:06:22.313Z,english_188.wav,0,pill,936,19,5,Japanese,F,1,0.1,-59.64362525,0.96413905
AYT,32,0,2024-06-29T10:06:22.313Z,english_188.wav,0,pill,936,19,5,Japanese,F,2,0.2,-64.08533898,0.84840618
AYT,32,0,2024-06-29T10:06:22.313Z,english_188.wav,0,pill,936,19,5,Japanese,F,3,0.3,-29.1378116,0.37627617
AYT,32,0,2024-06-29T10:06:22.313Z,english_188.wav,0,pill,936,19,5,Japanese,F,4,0.4,-4.14868477,1.62621942
AYT,32,0,2024-06-29T10:06:22.313Z,english_188.wav,0,pill,936,19,5,Japanese,F,5,0.5,-61.00737987,0.44747201
AYT,32,0,2024-06-29T10:06:22.313Z,english_188.wav,0,pill,936,19,5,Japanese,F,6,0.6,61.72468412,0.51555254
AYT,32,0,2024-06-29T10:06:22.313Z,english_188.wav,0,pill,936,19,5,Japanese,F,7,0.7,91.61563335,1.97040932
AYT,32,0,2024-06-29T10:06:22.313Z,english_188.wav,0,pill,936,19,5,Japanese,F,8,0.8,-69.21450223,0.35468899
AYT,32,0,2024-06-29T10:06:22.313Z,english_188.wav,0,pill,936,19,5,Japanese,F,9,0.9,55.80681999,1.42342949
AYT,32,0,2024-06-29T10:06:22.313Z,english_188.wav,0,pill,936,19,5,Japanese,F,10,1.0,-13.47812759,1.23724986
AYT,32,0,2024-06-29T10:06:22.313Z,english_188.wav,0,pill,936,19,5,Japanese,F,11,1.09391667,47.39616925,0.05613364
AYT,33,0,2024-06-29T10:06:22.313Z,english_561.wav,0,peel,946,19,5,Japanese,F,0,0.0,-40.74145274,1.68424793
AYT,33,0,2024-06-29T10:06:22.313Z,english_561.wav,0,peel,946,19,5,Japanese,F,1,0.1,73.1709151,1.15723577
AYT,33,0,2024-06-29T10:06:22.313Z,english_561.wav,0,peel,946,19,5,Japanese,F,2,0.2,-76.97322172,0.16061562
AYT,33,0,2024-06-29T10:06:22.313Z,english_561.wav,0,peel,946,19,5,Japanese,F,3,0.3,-33.73958817,0.71161921
AYT,33,0,2024-06-29T10:06:22.313Z,english_561.wav,0,peel,946,19,5,Japanese,F,4,0.4,-60.0926115,0.40520901
AYT,33,0,2024-06-29T10:06:22.313Z,english_561.wav,0,peel,946,19,5,Japanese,F,5,0.5,17.46588089,1.58164625
AYT,33,0,2024-06-29T10:06:22.313Z,english_561.wav,0,peel,946,19,5,Japanese,F,6,0.6,74.1182297,0.61549977
AYT,33,0,2024-06-29T10:06:22.313Z,english_561.wav,0,peel,946,19,5,Japanese,F,7,0.7,96.50181715,1.28562209
AYT,33,0,2024-06-29T10:06:22.313Z,english_561.wav,0,peel,946,19,5,Japanese,F,8,0.8,72.92112675,0.3725745
AYT,33,0,2024-06-29T10:06:22.313Z,english_561.wav,0,peel,946,19,5,Japanese,F,9,0.9,-4.13482892,0.83114042
AYT,33,0,2024-06-29T10:06:22.313Z,english_561.wav,0,peel,946,19,5,Japanese,F,10,1.0,68.85388576,1.94100595
AYT,33,0,2024-06-29T10:06:22.313Z,english_561.wav,0,peel,946,19,5,Japanese,F,11,1.09391667,-59.51051487,0.22020615
AYT,34,0,2024-06-29T10:06:22.313Z,english_39.wav,0,peel,609,19,5,Japanese,F,0,0.0,34.55093166,1.34796705
AYT,34,0,2024-06-29T10:06:22.313Z,english_39.wav,0,peel,609,19,5,Japanese,F,1,0.1,-1.41260387,0.08491471
AYT,34,0,2024-06-29T10:06:22.313Z,english_39.wav,0,peel,609,19,5,Japanese,F,2,0.2,91.9059208,1.67265438
AYT,34,0,2024-06-29T10:06:22.313Z,english_39.wav,0,peel,609,19,5,Japanese,F,3,0.3,67.91256725,0.89650698
AYT,34,0,2024-06-29T10:06:22.313Z,english_39.wav,0,peel,609,19,5,Japanese,F,4,0.4,-65.38565065,0.64014049
AYT,34,0,2024-06-29T10:06:22.313Z,english_39.wav,0,peel,609,19,5,Japanese,F,5,0.5,-78.2257863,1.50034896
AYT,34,0,2024-06-29T10:06:22.313Z,english_39.wav,0,peel,609,19,5,Japanese,F,6,0.6,-21.37966567,0.90896714
AYT,34,0,2024-06-29T10:06:22.313Z,english_39.wav,0,peel,609,19,5,Japanese,F,7,0.7,29.85741907,1.5349886
AYT,34,0,2024-06-29T10:06:22.313Z,english_39.wav,0,peel,609,19,5,Japanese,F,8,0.8,-64.93181205,0.91983464
AYT,34,0,2024-06-29T10:06:22.313Z,english_39.wav,0,peel,609,19,5,Japanese,F,9,0.9,27.95057541,1.17583732
AYT,34,0,2024-06-29T10:06:22.313Z,english_39.wav,0,peel,609,19,5,Japanese,F,10,1.0,5.43341778,1.89111311
AYT,34,0,2024-06-29T10:06:22.313Z,english_39.wav,0,peel,609,19,5,Japanese,F,11,1.09391667,-89.64672073,1.19651243
AYT,35,0,2024-06-29T10:06:22.313Z,english_536.wav,0,peel,1302,19,5,Japanese,F,0,0.0,12.53985852,0.4318111
AYT,35,0,2024-06-29T10:06:22.313Z,english_536.wav,0,peel,1302,19,5,Japanese,F,1,0.1,21.99103782,1.06422616
AYT,35,0,2024-06-29T10:06:22.313Z,english_536.wav,0,peel,1302,19,5,Japanese,F,2,0.2,62.33634556,1.97390757
AYT,35,0,2024-06-29T10:06:22.313Z,english_536.wav,0,peel,1302,19,5,Japanese,F,3,0.3,-74.90025976,0.26817195
AYT,35,0,2024-06-29T10:06:22.313Z,english_536.wav,0,peel,1302,19,5,Japanese,F,4,0.4,32.85398174,0.16804155
AYT,35,0,2024-06-29T10:06:22.313Z,english_536.wav,0,peel,1302,19,5,Japanese,F,5,0.5,-33.4537755,0.37593725
AYT,35,0,2024-06-29T10:06:22.313Z,english_536.wav,0,peel,1302,19,5,Japanese,F,6,0.6,-42.71623429,1.32070102
AYT,35,0,2024-06-29T10:06:22.313Z,english_536.wav,0,peel,1302,19,5,Japanese,F,7,0.7,-1.00699642,0.04715572
AYT,35,0,2024-06-29T10:06:22.313Z,english_536.wav,0,peel,1302,19,5,Japanese,F,8,0.8,-25.01596186,1.04948049
AYT,35,0,2024-06-29T10:06:22.313Z,english_536.wav,0,peel,1302,19,5,Japanese,F,9,0.9,-49.31989542,0.94782972
AYT,35,0,2024-06-29T10:06:22.313Z,english_536.wav,0,peel,1302,19,5,Japanese,F,10,1.0,38.02707377,1.69951962
AYT,35,0,2024-06-29T10:06:22.313Z,english_536.wav,0,peel,1302,19,5,Japanese,F,11,1.09391667,50.96675347,1.16734118
AYT,36,0,2024-06-29T10:06:22.313Z,english_86.wav,0,peel,611,19,5,Japanese,F,0,0.0,-3.72553925,0.66197281
AYT,36,0,2024-06-29T10:06:22.313Z,english_86.wav,0,peel,611,19,5,Japanese,F,1,0.1,-41.77635103,0.38892539
AYT,36,0,2024-06-29T10:06:22.313Z,english_86.wav,0,peel,611,19,5,Japanese,F,2,0.2,-64.64581593,1.26355648
AYT,36,0,2024-06-29T10:06:22.313Z,english_86.wav,0,peel,611,19,5,Japanese,F,3,0.3,-0.78514906,0.34485331
AYT,36,0,2024-06-29T10:06:22.313Z,english_86.wav,0,peel,611,19,5,Japanese,F,4,0.4,-70.50997039,0.98807129
AYT,36,0,2024-06-29T10:06:22.313Z,english_86.wav,0,peel,611,19,5,Japanese,F,5,0.5,-34.81986123,0.56904936
AYT,36,0,2024-06-29T10:06:22.313Z,english_86.wav,0,peel,611,19,5,Japanese,F,6,0.6,-59.46042522,0.23018048
AYT,36,0,2024-06-29T10:06:22.313Z,english_86.wav,0,peel,611,19,5,Japanese,F,7,0.7,29.81407596,1.60610688
AYT,36,0,2024-06-29T10:06:22.313Z,english_86.wav,0,peel,611,19,5,Japanese,F,8,0.8,-52.11647052,1.58476743
AYT,36,0,2024-06-29T10:06:22.313Z,english_86.wav,0,peel,611,19,5,Japanese,F,9,0.9,98.4622519,0.26441475
AYT,36,0,2024-06-29T10:06:22.313Z,english_86.wav,0,peel,611,19,5,Japanese,F,10,1.0,58.6455937,0.54392284
AYT,36,0,2024-06-29T10:06:22.313Z,english_86.wav,0,peel,611,19,5,Japanese,F,11,1.09391667,89.20517371,0.04911314
AYT,37,0,2024-06-29T10:06:22.313Z,english_100.wav,0,peel,536,19,5,Japanese,F,0,0.0,-24.42637315,0.62540921
AYT,37,0,2024-06-29T10:06:22.313Z,english_100.wav,0,peel,536,19,5,Japanese,F,1,0.1,47.77288594,1.22625666
AYT,37,0,2024-06-29T10:06:22.313Z,english_100.wav,0,peel,536,19,5,Japanese,F,2,0.2,-50.36782497,1.26348183
AYT,37,0,2024-06-29T10:06:22.313Z,english_100.wav,0,peel,536,19,5,Japanese,F,3,0.3,2.2842979,0.25528387
AYT,37,0,2024-06-29T10:06:22.313Z,english_100.wav,0,peel,536,19,5,Japanese,F,4,0.4,-15.6809061,0.91288523
AYT,37,0,2024-06-29T10:06:22.313Z,english_100.wav,0,peel,536,19,5,Japanese,F,5,0.5,12.92206519,1.75475855
AYT,37,0,2024-06-29T10:06:22.313Z,english_100.wav,0,peel,536,19,5,Japanese,F,6,0.6,58.2816769,1.62969237
AYT,37,0,2024-06-29T10:06:22.313Z,english_100.wav,0,peel,536,19,5,Japanese,F,7,0.7,48.23099815,0.00541247
AYT,37,0,2024-06-29T10:06:22.313Z,english_100.wav,0,peel,536,19,5,Japanese,F,8,0.8,-72.65138159,0.94746335
AYT,37,0,2024-06-29T10:06:22.313Z,english_100.wav,0,peel,536,19,5,Japanese,F,9,0.9,22.56578389,0.25544392
AYT,37,0,2024-06-29T10:06:22.313Z,english_100.wav,0,peel,536,19,5,Japanese,F,10,1.0,5.8175855,1.63729526
AYT,37,0,2024-06-29T10:06:22.313Z,english_100.wav,0,peel,536,19,5,Japanese,F,11,1.09391667,54.85953581,1.97415754
AYT,38,0,2024-06-29T10:06:22.313Z,english_875.wav,0,peel,81,19,5,Japanese,F,0,0.0,96.8338791,1.90969426
AYT,38,0,2024-06-29T10:06:22.313Z,english_875.wav,0,peel,81,19,5,Japanese,F,1,0.1,37.68794022,1.00034929
AYT,38,0,2024-06-29T10:06:22.313Z,english_875.wav,0,peel,81,19,5,Japanese,F,2,0.2,13.97824571,1.17763903
AYT,38,0,2024-06-29T10:06:22.313Z,english_875.wav,0,peel,81,19,5,Japanese,F,3,0.3,18.96990702,0.35889427
AYT,38,0,2024-06-29T10:06:22.313Z,english_875.wav,0,peel,81,19,5,Japanese,F,4,0.4,63.2084655,0.91300026
AYT,38,0,2024-06-29T10:06:22.313Z,english_875.wav,0,peel,81,19,5,Japanese,F,5,0.5,-98.93629382,1.19226844
AYT,38,0,2024-06-29T10:06:22.313Z,english_875.wav,0,peel,81,19,5,Japanese,F,6,0.6,81.29612198,1.44163348
AYT,38,0,2024-06-29T10:06:22.313Z,english_875.wav,0,peel,81,19,5,Japanese,F,7,0.7,50.14728488,1.08588615
AYT,38,0,2024-06-29T10:06:22.313Z,english_875.wav,0,peel,81,19,5,Japanese,F,8,0.8,13.48666865,1.80200416
AYT,38,0,2024-06-29T10:06:22.313Z,english_875.wav,0,peel,81,19,5,Japanese,F,9,0.9,9.04770509,0.81736325
AYT,38,0,2024-06-29T10:06:22.313Z,english_875.wav,0,peel,81,19,5,Japanese,F,10,1.0,37.35188663,1.15050925
AYT,38,0,2024-06-29T10:06:22.313Z,english_875.wav,0,peel,81,19,5,Japanese,F,11,1.09391667,68.7171347,1.96049823
AYT,39,0,2024-06-29T10:06:22.313Z,english_267.wav,0,peel,552,19,5,Japanese,F,0,0.0,-20.34373052,1.22339913
AYT,39,0,2024-06-29T10:06:22.313Z,english_267.wav,0,peel,552,19,5,Japanese,F,1,0.1,-8.01422086,0.37157124
AYT,39,0,2024-06-29T10:06:22.313Z,english_267.wav,0,peel,552,19,5,Japanese,F,2,0.2,93.04230665,0.88881734
AYT,39,0,2024-06-29T10:06:22.313Z,english_267.wav,0,peel,552,19,5,Japanese,F,3,0.3,41.74649662,0.98806935
AYT,39,0,2024-06-29T10:06:22.313Z,english_267.wav,0,peel,552,19,5,Japanese,F,4,0.4,-13.67169735,1.63374899
AYT,39,0,2024-06-29T10:06:22.313Z,english_267.wav,0,peel,552,19,5,Japanese,F,5,0.5,42.92753135,1.27803897
AYT,39,0,2024-06-29T10:06:22.313Z,english_267.wav,0,peel,552,19,5,Japanese,F,6,0.6,-31.66614436,0.65843477
AYT,39,0,2024-06-29T10:06:22.313Z,english_267.wav,0,peel,552,19,5,Japanese,F,7,0.7,-46.69110061,1.12503577
AYT,39,0,2024-06-29T10:06:22.313Z,english_267.wav,0,peel,552,19,5,Japanese,F,8,0.8,96.69640531,1.26069156
AYT,39,0,2024-06-29T10:06:22.313Z,english_267.wav,0,peel,552,19,5,Japanese,F,9,0.9,-51.1349073,0.35873403
AYT,39,0,2024-06-29T10:06:22.313Z,english_267.wav,0,peel,552,19,5,Japanese,F,10,1.0,-31.48458059,1.24202174
AYT,39,0,2024-06-29T10:06:22.313Z,english_267.wav,0,peel,552,19,5,Japanese,F,11,1.09391667,82.51520959,1.58881388
AYT,40,0,2024-06-29T10:06:22.313Z,english_854.wav,0,pill,1019,19,5,Japanese,F,0,0.0,41.65293518,0.10243767
AYT,40,0,2024-06-29T10:06:22.313Z,english_854.wav,0,pill,1019,19,5,Japanese,F,1,0.1,12.19905505,1.22737147
AYT,40,0,2024-06-29T10:06:22.313Z,english_854.wav,0,pill,1019,19,5,Japanese,F,2,0.2,-17.7367635,0.80405871
AYT,40,0,2024-06-29T10:06:22.313Z,english_854.wav,0,pill,1019,19,5,Japanese,F,3,0.3,82.5511566,1.55191633
AYT,40,0,2024-06-29T10:06:22.313Z,english_854.wav,0,pill,1019,19,5,Japanese,F,4,0.4,24.18828857,0.00681269
AYT,40,0,2024-06-29T10:06:22.313Z,english_854.wav,0,pill,1019,19,5,Japanese,F,5,0.5,-37.78588701,1.47971367
AYT,40,0,2024-06-29T10:06:22.313Z,english_854.wav,0,pill,1019,19,5,Japanese,F,6,0.6,12.42409681,0.34468947
AYT,40,0,2024-06-29T10:06:22.313Z,english_854.wav,0,pill,1019,19,5,Japanese,F,7,0.7,-1.0486121,0.87101018
AYT,40,0,2024-06-29T10:06:22.313Z,english_854.wav,0,pill,1019,19,5,Japanese,F,8,0.8,-50.74764629,1.12590191
AYT,40,0,2024-06-29T10:06:22.313Z,english_854.wav,0,pill,1019,19,5,Japanese,F,9,0.9,-93.36344031,1.039516
AYT,40,0,2024-06-29T10:06:22.313Z,english_854.wav,0,pill,1019,19,5,Japanese,F,10,1.0,39.91763763,1.26341771
AYT,40,0,2024-06-29T10:06:22.313Z,english_854.wav,0,pill,1019,19,5,Japanese,F,11,1.09391667,-16.62780594,1.79941384
AYT,41,0,2024-06-29T10:06:22.313Z,english_655.wav,0,pill,193,19,5,Japanese,F,0,0.0,-90.05217159,1.15438405
AYT,41,0,2024-06-29T10:06:22.313Z,english_655.wav,0,pill,193,19,5,Japanese,F,1,0.1,-51.53203878,1.12188764
AYT,41,0,2024-06-29T10:06:22.313Z,english_655.wav,0,pill,193,19,5,Japanese,F,2,0.2,-18.56413276,0.95676367
AYT,41,0,2024-06-29T10:06:22.313Z,english_655.wav,0,pill,193,19,5,Japanese,F,3,0.3,-32.31488117,0.61420414
AYT,41,0,2024-06-29T10:06:22.313Z,english_655.wav,0,pill,193,19,5,Japanese,F,4,0.4,49.43339315,0.76264188
AYT,41,0,2024-06-29T10:06:22.313Z,english_655.wav,0,pill,193,19,5,Japanese,F,5,0.5,-67.53322914,1.45400352
AYT,41,0,2024-06-29T10:06:22.313Z,english_655.wav,0,pill,193,19,5,Japanese,F,6,0.6,90.11454302,0.06830652
AYT,41,0,2024-06-29T10:06:22.313Z,english_655.wav,0,pill,193,19,5,Japanese,F,7,0.7,98.57977716,0.91955523
AYT,41,0,2024-06-29T10:06:22.313Z,english_655.wav,0,pill,193,19,5,Japanese,F,8,0.8,29.43352269,0.33519017
AYT,41,0,2024-06-29T10:06:22.313Z,english_655.wav,0,pill,193,19,5,Japanese,F,9,0.9,91.08820104,0.7797243
AYT,41,0,2024-06-29T10:06:22.313Z,english_655.wav,0,pill,193,19,5,Japanese,F,10,1.0,-3.70059628,1.01878467
AYT,41,0,2024-06-29T10:06:22.313Z,english_655.wav,0,pill,193,19,5,Japanese,F,11,1.09391667,30.30784512,1.55349389
AYT,42,0,2024-06-29T10:06:22.313Z,english_51.wav,0,peel,465,19,5,Japanese,F,0,0.0,4.82438937,1.72214018
AYT,42,0,2024-06-29T10:06:22.313Z,english_51.wav,0,peel,465,19,5,Japanese,F,1,0.1,-25.96164734,0.88661189
AYT,42,0,2024-06-29T10:06:22.313Z,english_51.wav,0,peel,465,19,5,Japanese,F,2,0.2,69.41579929,0.13058188
AYT,42,0,2024-06-29T10:06:22.313Z,english_51.wav,0,peel,465,19,5,Japanese,F,3,0.3,-53.59443599,0.95728679
AYT,42,0,2024-06-29T10:06:22.313Z,english_51.wav,0,peel,465,19,5,Japanese,F,4,0.4,-3.65182133,1.79715226
AYT,42,0,2024-06-29T10:06:22.313Z,english_51.wav,0,peel,465,19,5,Japanese,F,5,0.5,-31.28869864,0.9981941
AYT,42,0,2024-06-29T10:06:22.313Z,english_51.wav,0,peel,465,19,5,Japanese,F,6,0.6,61.83683128,0.02786947
AYT,42,0,2024-06-29T10:06:22.313Z,english_51.wav,0,peel,465,19,5,Japanese,F,7,0.7,21.64373061,0.63001571
AYT,42,0,2024-06-29T10:06:22.313Z,english_51.wav,0,peel,465,19,5,Japanese,F,8,0.8,63.25865389,1.19147023
AYT,42,0,2024-06-29T10:06:22.313Z,english_51.wav,0,peel,465,19,5,Japanese,F,9,0.9,-40.06070135,0.58040848
AYT,42,0,2024-06-29T10:06:22.313Z,english_51.wav,0,peel,465,19,5,Japanese,F,10,1.0,68.22105394,1.03101423
AYT,42,0,2024-06-29T10:06:22.313Z,english_51.wav,0,peel,465,19,5,Japanese,F,11,1.09391667,-1.01243895,0.89107538
AYT,43,0,2024-06-29T10:06:22.313Z,english_793.wav,0,peel,213,19,5,Japanese,F,0,0.0,-39.70617561,0.49970472
AYT,43,0,2024-06-29T10:06:22.313Z,english_793.wav,0,peel,213,19,5,Japanese,F,1,0.1,-29.28823244,0.64262829
AYT,43,0,2024-06-29T10:06:22.313Z,english_793.wav,0,peel,213,19,5,Japanese,F,2,0.2,-89.65836103,1.52317209
AYT,43,0,2024-06-29T10:06:22.313Z,english_793.wav,0,peel,213,19,5,Japanese,F,3,0.3,9.66432805,0.03732268
AYT,43,0,2024-06-29T10:06:22.313Z,english_793.wav,0,peel,213,19,5,Japanese,F,4,0.4,46.78400104,0.76197013
AYT,43,0,2024-06-29T10:06:22.313Z,english_793.wav,0,peel,213,19,5,Japanese,F,5,0.5,77.17847788,1.20681543
AYT,43,0,2024-06-29T10:06:22.313Z,english_793.wav,0,peel,213,19,5,Japanese,F,6,0.6,65.90216738,0.39643945
AYT,43,0,2024-06-29T10:06:22.313Z,english_793.wav,0,peel,213,19,5,Japanese,F,7,0.7,19.02180402,0.55038392
AYT,43,0,2024-06-29T10:06:22.313Z,english_793.wav,0,peel,213,19,5,Japanese,F,8,0.8,4.99424524,0.97724905
AYT,43,0,2024-06-29T10:06:22.313Z,english_793.wav,0,peel,213,19,5,Japanese,F,9,0.9,95.94113908,1.29198989
AYT,43,0,2024-06-29T10:06:22.313Z,english_793.wav,0,peel,213,19,5,Japanese,F,10,1.0,5.28849012,1.94187371
AYT,43,0,2024-06-29T10:06:22.313Z,english_793.wav,0,peel,213,19,5,Japanese,F,11,1.09391667,-28.1855206,0.04726533
AYT,44,0,2024-06-29T10:06:22.313Z,english_979.wav,0,peel,1326,19,5,Japanese,F,0,0.0,37.48457567,1.4207367
AYT,44,0,2024-06-29T10:06:22.313Z,english_979.wav,0,peel,1326,19,5,Japanese,F,1,0.1,-37.02244062,1.31079647
AYT,44,0,2024-06-29T10:06:22.313Z,english_979.wav,0,peel,1326,19,5,Japanese,F,2,0.2,-24.69283161,0.99381913
AYT,44,0,2024-06-29T10:06:22.313Z,english_979.wav,0,peel,1326,19,5,Japanese,F,3,0.3,-46.06023598,1.92885953
AYT,44,0,2024-06-29T10:06:22.313Z,english_979.wav,0,peel,1326,19,5,Japanese,F,4,0.4,-42.84074597,1.90853779
AYT,44,0,2024-06-29T10:06:22.313Z,english_979.wav,0,peel,1326,19,5,Japanese,F,5,0.5,74.27862476,0.2569717
AYT,44,0,2024-06-29T10:06:22.313Z,english_979.wav,0,peel,1326,19,5,Japanese,F,6,0.6,-8.30998961,0.19374483
AYT,44,0,2024-06-29T10:06:22.313Z,english_979.wav,0,peel,1326,19,5,Japanese,F,7,0.7,58.9564601,1.09057025
AYT,44,0,2024-06-29T10:06:22.313Z,english_979.wav,0,peel,1326,19,5,Japanese,F,8,0.8,-5.32034309,1.33389295
AYT,44,0,2024-06-29T10:06:22.313Z,english_979.wav,0,peel,1326,19,5,Japanese,F,9,0.9,26.74044499,0.56327367
AYT,44,0,2024-06-29T10:06:22.313Z,english_979.wav,0,peel,1326,19,5,Japanese,F,10,1.0,-18.64517926,0.75332902
AYT,44,0,2024-06-29T10:06:22.313Z,english_979.wav,0,peel,1326,19,5,Japanese,F,11,1.09391667,58.46936922,0.45071064
AYT,45,0,2024-06-29T10:06:22.313Z,english_825.wav,0,pill,1923,19,5,Japanese,F,0,0.0,64.76464638,1.23145085
AYT,45,0,2024-06-29T10:06:22.313Z,english_825.wav,0,pill,1923,19,5,Japanese,F,1,0.1,-51.3470416,0.79492421
AYT,45,0,2024-06-29T10:06:22.313Z,english_825.wav,0,pill,1923,19,5,Japanese,F,2,0.2,9.90918002,0.48314333
AYT,45,0,2024-06-29T10:06:22.313Z,english_825.wav,0,pill,1923,19,5,Japanese,F,3,0.3,63.24486906,0.28861919
AYT,45,0,2024-06-29T10:06:22.313Z,english_825.wav,0,pill,1923,19,5,Japanese,F,4,0.4,-95.411726,1.05525194
AYT,45,0,2024-06-29T10:06:22.313Z,english_825.wav,0,pill,1923,19,5,Japanese,F,5,0.5,17.77962704,1.51076591
AYT,45,0,2024-06-29T10:06:22.313Z,english_825.wav,0,pill,1923,19,5,Japanese,F,6,0.6,23.26529379,1.04212622
AYT,45,0,2024-06-29T10:06:22.313Z,english_825.wav,0,pill,1923,19,5,Japanese,F,7,0.7,37.62422032,0.64232838
AYT,45,0,2024-06-29T10:06:22.313Z,english_825.wav,0,pill,1923,19,5,Japanese,F,8,0.8,-26.41359823,1.11700907
AYT,45,0,2024-06-29T10:06:22.313Z,english_825.wav,0,pill,1923,19,5,Japanese,F,9,0.9,-38.32396509,1.02326758
AYT,45,0,2024-06-29T10:06:22.313Z,english_825.wav,0,pill,1923,19,5,Japanese,F,10,1.0,63.21192295,0.3631898
AYT,45,0,2024-06-29T10:06:22.313Z,english_825.wav,0,pill,1923,19,5,Japanese,F,11,1.09391667,-24.29267242,1.01931794
AYT,46,0,2024-06-29T10:06:22.313Z,english_403.wav,0,pill,314,19,5,Japanese,F,0,0.0,0.0155370236,1.50775741
AYT,46,0,2024-06-29T10:06:22.313Z,english_403.wav,0,pill,314,19,5,Japanese,F,1,0.1,-4.64270355,1.88632048
AYT,46,0,2024-06-29T10:06:22.313Z,english_403.wav,0,pill,314,19,5,Japanese,F,2,0.2,-86.7611077,1.79027228
AYT,46,0,2024-06-29T10:06:22.313Z,english_403.wav,0,pill,314,19,5,Japanese,F,3,0.3,-86.6854854,0.9708058
AYT,46,0,2024-06-29T10:06:22.313Z,english_403.wav,0,pill,314,19,5,Japanese,F,4,0.4,-74.3205589,1.26833926
AYT,46,0,2024-06-29T10:06:22.313Z,english_403.wav,0,pill,314,19,5,Japanese,F,5,0.5,56.1207621,0.98662828
AYT,46,0,2024-06-29T10:06:22.313Z,english_403.wav,0,pill,314,19,5,Japanese,F,6,0.6,15.0235235,1.65364002
AYT,46,0,2024-06-29T10:06:22.313Z,english_403.wav,0,pill,314,19,5,Japanese,F,7,0.7,25.8783198,1.52514764
AYT,46,0,2024-06-29T10:06:22.313Z,english_403.wav,0,pill,314,19,5,Japanese,F,8,0.8,21.3726461,1.10599603
AYT,46,0,2024-06-29T10:06:22.313Z,english_403.wav,0,pill,314,19,5,Japanese,F,9,0.9,86.9816794,1.01372586
AYT,46,0,2024-06-29T10:06:22.313Z,english_403.wav,0,pill,314,19,5,Japanese,F,10,1.0,-56.1900631,1.1928159
AYT,46,0,2024-06-29T10:06:22.313Z,english_403.wav,0,pill,314,19,5,Japanese,F,11,1.09391667,59.2986673,0.36234179
AYT,47,0,2024-06-29T10:06:22.313Z,english_67.wav,0,peel,694,19,5,Japanese,F,0,0.0,-84.65948026,1.62658343
AYT,47,0,2024-06-29T10:06:22.313Z,english_67.wav,0,peel,694,19,5,Japanese,F,1,0.1,84.7606233,0.18718182
AYT,47,0,2024-06-29T10:06:22.313Z,english_67.wav,0,peel,694,19,5,Japanese,F,2,0.2,84.84791272,1.32224913
AYT,47,0,2024-06-29T10:06:22.313Z,english_67.wav,0,peel,694,19,5,Japanese,F,3,0.3,-54.63561635,1.26573793
AYT,47,0,2024-06-29T10:06:22.313Z,english_67.wav,0,peel,694,19,5,Japanese,F,4,0.4,-93.28689033,0.84125882
AYT,47,0,2024-06-29T10:06:22.313Z,english_67.wav,0,peel,694,19,5,Japanese,F,5,0.5,15.62357322,0.24401609
AYT,47,0,2024-06-29T10:06:22.313Z,english_67.wav,0,peel,694,19,5,Japanese,F,6,0.6,70.84522179,0.63082719
AYT,47,0,2024-06-29T10:06:22.313Z,english_67.wav,0,peel,694,19,5,Japanese,F,7,0.7,18.01432969,0.80351313
AYT,47,0,2024-06-29T10:06:22.313Z,english_67.wav,0,peel,694,19,5,Japanese,F,8,0.8,-96.46193504,0.91980261
AYT,47,0,2024-06-29T10:06:22.313Z,english_67.wav,0,peel,694,19,5,Japanese,F,9,0.9,-76.01913404,0.79845133
AYT,47,0,2024-06-29T10:06:22.313Z,english_67.wav,0,peel,694,19,5,Japanese,F,10,1.0,21.66220953,1.38280114
AYT,47,0,2024-06-29T10:06:22.313Z,english_67.wav,0,peel,694,19,5,Japanese,F,11,1.09391667,58.72019725,0.4179158
AYT,48,0,2024-06-29T10:06:22.313Z,english_295.wav,0,pill,788,19,5,Japanese,F,0,0.0,-21.33588045,0.64007693
AYT,48,0,2024-06-29T10:06:22.313Z,english_295.wav,0,pill,788,19,5,Japanese,F,1,0.1,28.18111365,0.36210443
AYT,48,0,2024-06-29T10:06:22.313Z,english_295.wav,0,pill,788,19,5,Japanese,F,2,0.2,-11.21795953,0.97510536
AYT,48,0,2024-06-29T10:06:22.313Z,english_295.wav,0,pill,788,19,5,Japanese,F,3,0.3,-75.82203472,1.22570619
AYT,48,0,2024-06-29T10:06:22.313Z,english_295.wav,0,pill,788,19,5,Japanese,F,4,0.4,36.75980824,1.08813481
AYT,48,0,2024-06-29T10:06:22.313Z,english_295.wav,0,pill,788,19,5,Japanese,F,5,0.5,82.52508149,1.82668288
AYT,48,0,2024-06-29T10:06:22.313Z,english_295.wav,0,pill,788,19,5,Japanese,F,6,0.6,-2.95672331,0.03453598
AYT,48,0,2024-06-29T10:06:22.313Z,english_295.wav,0,pill,788,19,5,Japanese,F,7,0.7,78.98755658,1.07945409
AYT,48,0,2024-06-29T10:06:22.313Z,english_295.wav,0,pill,788,19,5,Japanese,F,8,0.8,34.02541903,0.06380248
AYT,48,0,2024-06-29T10:06:22.313Z,english_295.wav,0,pill,788,19,5,Japanese,F,9,0.9,40.25185798,0.46673817
AYT,48,0,2024-06-29T10:06:22.313Z,english_295.wav,0,pill,788,19,5,Japanese,F,10,1.0,-23.49198504,0.55804019
AYT,48,0,2024-06-29T10:06:22.313Z,english_295.wav,0,pill,788,19,5,Japanese,F,11,1.09391667,43.4619086,0.67911388
AYT,49,0,2024-06-29T10:06:22.313Z,english_498.wav,0,peel,486,19,5,Japanese,F,0,0.0,43.98055184,1.94722798
AYT,49,0,2024-06-29T10:06:22.313Z,english_498.wav,0,peel,486,19,5,Japanese,F,1,0.1,91.3545984,1.93048351
AYT,49,0,2024-06-29T10:06:22.313Z,english_498.wav,0,peel,486,19,5,Japanese,F,2,0.2,-25.91563113,0.27240706
AYT,49,0,2024-06-29T10:06:22.313Z,english_498.wav,0,peel,486,19,5,Japanese,F,3,0.3,-14.96140851,1.06623965
AYT,49,0,2024-06-29T10:06:22.313Z,english_498.wav,0,peel,486,19,5,Japanese,F,4,0.4,-8.05824247,1.41558656
AYT,49,0,2024-06-29T10:06:22.313Z,english_498.wav,0,peel,486,19,5,Japanese,F,5,0.5,-61.63888891,0.26700347
AYT,49,0,2024-06-29T10:06:22.313Z,english_498.wav,0,peel,486,19,5,Japanese,F,6,0.6,37.86658664,0.54434522
AYT,49,0,2024-06-29T10:06:22.313Z,english_498.wav,0,peel,486,19,5,Japanese,F,7,0.7,-97.52325855,0.79258737
AYT,49,0,2024-06-29T10:06:22.313Z,english_498.wav,0,peel,486,19,5,Japanese,F,8,0.8,-16.03910224,1.13417158
AYT,49,0,2024-06-29T10:06:22.313Z,english_498.wav,0,peel,486,19,5,Japanese,F,9,0.9,83.25609208,0.68565339
AYT,49,0,2024-06-29T10:06:22.313Z,english_498.wav,0,peel,486,19,5,Japanese,F,10,1.0,-65.28300381,0.73020294
AYT,49,0,2024-06-29T10:06:22.313Z,english_498.wav,0,peel,486,19,5,Japanese,F,11,1.09391667,38.04109912,1.48505369
AYT,50,1,2024-06-29T10:06:22.313Z,english_551.wav,0,peel,198,19,5,Japanese,F,0,0.0,-6.7580407,1.36908338
AYT,50,1,2024-06-29T10:06:22.313Z,english_551.wav,0,peel,198,19,5,Japanese,F,1,0.1,35.07051515,1.9104602
AYT,50,1,2024-06-29T10:06:22.313Z,english_551.wav,0,peel,198,19,5,Japanese,F,2,0.2,-13.38429881,0.46910503
AYT,50,1,2024-06-29T10:06:22.313Z,english_551.wav,0,peel,198,19,5,Japanese,F,3,0.3,37.09878084,1.97066888
AYT,50,1,2024-06-29T10:06:22.313Z,english_551.wav,0,peel,198,19,5,Japanese,F,4,0.4,-63.7004989,1.03915964
AYT,50,1,2024-06-29T10:06:22.313Z,english_551.wav,0,peel,198,19,5,Japanese,F,5,0.5,38.07544061,0.03518646
AYT,50,1,2024-06-29T10:06:22.313Z,english_551.wav,0,peel,198,19,5,Japanese,F,6,0.6,-3.84658335,0.35806175
AYT,50,1,2024-06-29T10:06:22.313Z,english_551.wav,0,peel,198,19,5,Japanese,F,7,0.7,-70.82168474,1.2923355
AYT,50,1,2024-06-29T10:06:22.313Z,english_551.wav,0,peel,198,19,5,Japanese,F,8,0.8,15.89042936,0.94769204
AYT,50,1,2024-06-29T10:06:22.313Z,english_551.wav,0,peel,198,19,5,Japanese,F,9,0.9,11.36542465,1.13768641
AYT,50,1,2024-06-29T10:06:22.313Z,english_551.wav,0,peel,198,19,5,Japanese,F,10,1.0,48.05239425,1.46377274
AYT,50,1,2024-06-29T10:06:22.313Z,english_551.wav,0,peel,198,19,5,Japanese,F,11,1.09391667,-25.45868434,1.28141809
AYT,51,1,2024-06-29T10:06:22.313Z,english_224.wav,0,peel,756,19,5,Japanese,F,0,0.0,-78.61506242,0.96291184
AYT,51,1,2024-06-29T10:06:22.313Z,english_224.wav,0,peel,756,19,5,Japanese,F,1,0.1,50.32903383,1.02849412
AYT,51,1,2024-06-29T10:06:22.313Z,english_224.wav,0,peel,756,19,5,Japanese,F,2,0.2,13.41609495,1.48046057
AYT,51,1,2024-06-29T10:06:22.313Z,english_224.wav,0,peel,756,19,5,Japanese,F,3,0.3,-65.62214638,0.95403391
AYT,51,1,2024-06-29T10:06:22.313Z,english_224.wav,0,peel,756,19,5,Japanese,F,4,0.4,-58.93648778,0.16536285
AYT,51,1,2024-06-29T10:06:22.313Z,english_224.wav,0,peel,756,19,5,Japanese,F,5,0.5,72.28111683,1.42811474
AYT,51,1,2024-06-29T10:06:22.313Z,english_224.wav,0,peel,756,19,5,Japanese,F,6,0.6,-46.77069374,0.74831178
AYT,51,1,2024-06-29T10:06:22.313Z,english_224.wav,0,peel,756,19,5,Japanese,F,7,0.7,-90.37193795,1.44512366
AYT,51,1,2024-06-29T10:06:22.313Z,english_224.wav,0,peel,756,19,5,Japanese,F,8,0.8,-0.43339445,1.0370843
AYT,51,1,2024-06-29T10:06:22.313Z,english_224.wav,0,peel,756,19,5,Japanese,F,9,0.9,-45.45823975,0.73747726
AYT,51,1,2024-06-29T10:06:22.313Z,english_224.wav,0,peel,756,19,5,Japanese,F,10,1.0,-68.1553756,0.53686902
AYT,51,1,2024-06-29T10:06:22.313Z,english_224.wav,0,peel,756,19,5,Japanese,F,11,1.09391667,-50.27313826,1.24590757
AYT,52,1,2024-06-29T10:06:22.313Z,english_135.wav,0,peel,444,19,5,Japanese,F,0,0.0,1.52771956,1.05574256
AYT,52,1,2024-06-29T10:06:22.313Z,english_135.wav,0,peel,444,19,5,Japanese,F,1,0.1,87.85930758,0.07400982
AYT,52,1,2024-06-29T10:06:22.313Z,english_135.wav,0,peel,444,19,5,Japanese,F,2,0.2,10.69232429,1.27555025
AYT,52,1,2024-06-29T10:06:22.313Z,english_135.wav,0,peel,444,19,5,Japanese,F,3,0.3,-30.56293348,1.65548466
AYT,52,1,2024-06-29T10:06:22.313Z,english_135.wav,0,peel,444,19,5,Japanese,F,4,0.4,18.68768105,0.65488565
AYT,52,1,2024-06-29T10:06:22.313Z,english_135.wav,0,peel,444,19,5,Japanese,F,5,0.5,83.74749446,1.6850938
AYT,52,1,2024-06-29T10:06:22.313Z,english_135.wav,0,peel,444,19,5,Japanese,F,6,0.6,2.30267465,0.17916719
AYT,52,1,2024-06-29T10:06:22.313Z,english_135.wav,0,peel,444,19,5,Japanese,F,7,0.7,10.55624665,0.7091252
AYT,52,1,2024-06-29T10:06:22.313Z,english_135.wav,0,peel,444,19,5,Japanese,F,8,0.8,-52.17497639,1.14424326
AYT,52,1,2024-06-29T10:06:22.313Z,english_135.wav,0,peel,444,19,5,Japanese,F,9,0.9,63.1552018,0.08021557
AYT,52,1,2024-06-29T10:06:22.313Z,english_135.wav,0,peel,444,19,5,Japanese,F,10,1.0,32.56027872,1.28558373
AYT,52,1,2024-06-29T10:06:22.313Z,english_135.wav,0,peel,444,19,5,Japanese,F,11,1.09391667,49.01841871,0.80254185
AYT,53,1,2024-06-29T10:06:22.313Z,english_28.wav,0,pill,610,19,5,Japanese,F,0,0.0,46.79443609,1.01055945
AYT,53,1,2024-06-29T10:06:22.313Z,english_28.wav,0,pill,610,19,5,Japanese,F,1,0.1,2.26441595,0.40890859
AYT,53,1,2024-06-29T10:06:22.313Z,english_28.wav,0,pill,610,19,5,Japanese,F,2,0.2,-92.86356779,1.10134245
AYT,53,1,2024-06-29T10:06:22.313Z,english_28.wav,0,pill,610,19,5,Japanese,F,3,0.3,70.49912331,0.66041546
AYT,53,1,2024-06-29T10:06:22.313Z,english_28.wav,0,pill,610,19,5,Japanese,F,4,0.4,-44.6918064,1.38812901
AYT,53,1,2024-06-29T10:06:22.313Z,english_28.wav,0,pill,610,19,5,Japanese,F,5,0.5,-40.18885973,1.34163595
AYT,53,1,2024-06-29T10:06:22.313Z,english_28.wav,0,pill,610,19,5,Japanese,F,6,0.6,22.89431524,1.22801128
AYT,53,1,2024-06-29T10:06:22.313Z,english_28.wav,0,pill,610,19,5,Japanese,F,7,0.7,-98.00041762,1.98732106
AYT,53,1,2024-06-29T10:06:22.313Z,english_28.wav,0,pill,610,19,5,Japanese,F,8,0.8,-45.25978985,1.24747992
AYT,53,1,2024-06-29T10:06:22.313Z,english_28.wav,0,pill,610,19,5,Japanese,F,9,0.9,-73.28359547,1.6043756
AYT,53,1,2024-06-29T10:06:22.313Z,english_28.wav,0,pill,610,19,5,Japanese,F,10,1.0,-75.042578,1.05397351
AYT,53,1,2024-06-29T10:06:22.313Z,english_28.wav,0,pill,610,19,5,Japanese,F,11,1.09391667,-54.18290404,0.28539485
AYT,54,1,2024-06-29T10:06:22.313Z,english_740.wav,0,peel,161,19,5,Japanese,F,0,0.0,44.23615519,0.18420553
AYT,54,1,2024-06-29T10:06:22.313Z,english_740.wav,0,peel,161,19,5,Japanese,F,1,0.1,98.76848798,0.33702749
AYT,54,1,2024-06-29T10:06:22.313Z,english_740.wav,0,peel,161,19,5,Japanese,F,2,0.2,-87.19170744,1.65487116
AYT,54,1,2024-06-29T10:06:22.313Z,english_740.wav,0,peel,161,19,5,Japanese,F,3,0.3,17.94684961,1.85046367
AYT,54,1,2024-06-29T10:06:22.313Z,english_740.wav,0,peel,161,19,5,Japanese,F,4,0.4,-12.45304931,1.41062797
AYT,54,1,2024-06-29T10:06:22.313Z,english_740.wav,0,peel,161,19,5,Japanese,F,5,0.5,-75.39454761,0.63278533
AYT,54,1,2024-06-29T10:06:22.313Z,english_740.wav,0,peel,161,19,5,Japanese,F,6,0.6,-53.40311478,0.41831459
AYT,54,1,2024-06-29T10:06:22.313Z,english_740.wav,0,peel,161,19,5,Japanese,F,7,0.7,-59.89405571,0.99199332
AYT,54,1,2024-06-29T10:06:22.313Z,english_740.wav,0,peel,161,19,5,Japanese,F,8,0.8,75.23070465,1.19341016
AYT,54,1,2024-06-29T10:06:22.313Z,english_740.wav,0,peel,161,19,5,Japanese,F,9,0.9,-2.56343276,1.12149102
AYT,54,1,2024-06-29T10:06:22.313Z,english_740.wav,0,peel,161,19,5,Japanese,F,10,1.0,-6.86096821,0.55698581
AYT,54,1,2024-06-29T10:06:22.313Z,english_740.wav,0,peel,161,19,5,Japanese,F,11,1.09391667,-15.16975803,1.3020905
AYT,55,1,2024-06-29T10:06:22.313Z,english_508.wav,0,peel,1386,19,5,Japanese,F,0,0.0,29.95487344,1.28947786
AYT,55,1,2024-06-29T10:06:22.313Z,english_508.wav,0,peel,1386,19,5,Japanese,F,1,0.1,-43.56994085,0.45872669
AYT,55,1,2024-06-29T10:06:22.313Z,english_508.wav,0,peel,1386,19,5,Japanese,F,2,0.2,95.99440846,1.02864136
AYT,55,1,2024-06-29T10:06:22.313Z,english_508.wav,0,peel,1386,19,5,Japanese,F,3,0.3,96.63128694,1.38697031
AYT,55,1,2024-06-29T10:06:22.313Z,english_508.wav,0,peel,1386,19,5,Japanese,F,4,0.4,81.88240965,0.48619633
AYT,55,1,2024-06-29T10:06:22.313Z,english_508.wav,0,peel,1386,19,5,Japanese,F,5,0.5,-30.32405698,1.35316712
AYT,55,1,2024-06-29T10:06:22.313Z,english_508.wav,0,peel,1386,19,5,Japanese,F,6,0.6,-70.6760635,0.61818132
AYT,55,1,2024-06-29T10:06:22.313Z,english_508.wav,0,peel,1386,19,5,Japanese,F,7,0.7,-36.19238407,0.31535759
AYT,55,1,2024-06-29T10:06:22.313Z,english_508.wav,0,peel,1386,19,5,Japanese,F,8,0.8,18.2315003,1.60240226
AYT,55,1,2024-06-29T10:06:22.313Z,english_508.wav,0,peel,1386,19,5,Japanese,F,9,0.9,-71.56865734,1.17638413
AYT,55,1,2024-06-29T10:06:22.313Z,english_508.wav,0,peel,1386,19,5,Japanese,F,10,1.0,-72.78274833,0.8457368
AYT,55,1,2024-06-29T10:06:22.313Z,english_508.wav,0,peel,1386,19,5,Japanese,F,11,1.09391667,51.72471755,0.31851434
AYT,56,1,2024-06-29T10:06:22.313Z,english_820.wav,0,peel,246,19,5,Japanese,F,0,0.0,-90.13612519,0.91151007
AYT,56,1,2024-06-29T10:06:22.313Z,english_820.wav,0,peel,246,19,5,Japanese,F,1,0.1,-50.72556256,1.30362027
AYT,56,1,2024-06-29T10:06:22.313Z,english_820.wav,0,peel,246,19,5,Japanese,F,2,0.2,-79.00829797,0.25855126
AYT,56,1,2024-06-29T10:06:22.313Z,english_820.wav,0,peel,246,19,5,Japanese,F,3,0.3,-14.44339945,1.8078566
AYT,56,1,2024-06-29T10:06:22.313Z,english_820.wav,0,peel,246,19,5,Japanese,F,4,0.4,25.9456349,1.15063196
AYT,56,1,2024-06-29T10:06:22.313Z,english_820.wav,0,peel,246,19,5,Japanese,F,5,0.5,-28.76259068,1.03640346
AYT,56,1,2024-06-29T10:06:22.313Z,english_820.wav,0,peel,246,19,5,Japanese,F,6,0.6,-20.65873648,1.10712464
AYT,56,1,2024-06-29T10:06:22.313Z,english_820.wav,0,peel,246,19,5,Japanese,F,7,0.7,19.30633091,1.58948272
AYT,56,1,2024-06-29T10:06:22.313Z,english_820.wav,0,peel,246,19,5,Japanese,F,8,0.8,6.01129625,1.36569453
AYT,56,1,2024-06-29T10:06:22.313Z,english_820.wav,0,peel,246,19,5,Japanese,F,9,0.9,-10.90113074,0.84663536
AYT,56,1,2024-06-29T10:06:22.313Z,english_820.wav,0,peel,246,19,5,Japanese,F,10,1.0,-2.19154449,1.67108309
AYT,56,1,2024-06-29T10:06:22.313Z,english_820.wav,0,peel,246,19,5,Japanese,F,11,1.09391667,-66.85311594,1.79051546
AYT,57,1,2024-06-29T10:06:22.313Z,english_354.wav,0,pill,622,19,5,Japanese,F,0,0.0,-28.87420486,0.20754018
AYT,57,1,2024-06-29T10:06:22.313Z,english_354.wav,0,pill,622,19,5,Japanese,F,1,0.1,-23.35112853,1.88177303
AYT,57,1,2024-06-29T10:06:22.313Z,english_354.wav,0,pill,622,19,5,Japanese,F,2,0.2,5.36311679,1.60863404
AYT,57,1,2024-06-29T10:06:22.313Z,english_354.wav,0,pill,622,19,5,Japanese,F,3,0.3,88.42745553,0.83478671
AYT,57,1,2024-06-29T10:06:22.313Z,english_354.wav,0,pill,622,19,5,Japanese,F,4,0.4,2.47520697,1.51310965
AYT,57,1,2024-06-29T10:06:22.313Z,english_354.wav,0,pill,622,19,5,Japanese,F,5,0.5,46.1200008,1.04317866
AYT,57,1,2024-06-29T10:06:22.313Z,english_354.wav,0,pill,622,19,5,Japanese,F,6,0.6,-18.78131858,0.09474749
AYT,57,1,2024-06-29T10:06:22.313Z,english_354.wav,0,pill,622,19,5,Japanese,F,7,0.7,-50.4047441,1.6889762
AYT,57,1,2024-06-29T10:06:22.313Z,english_354.wav,0,pill,622,19,5,Japanese,F,8,0.8,70.60844452,0.35231613
AYT,57,1,2024-06-29T10:06:22.313Z,english_354.wav,0,pill,622,19,5,Japanese,F,9,0.9,-79.1017332,0.20561504
AYT,57,1,2024-06-29T10:06:22.313Z,english_354.wav,0,pill,622,19,5,Japanese,F,10,1.0,-66.82350364,0.40462269
AYT,57,1,2024-06-29T10:06:22.313Z,english_354.wav,0,pill,622,19,5,Japanese,F,11,1.09391667,-48.20226443,0.51831425
AYT,58,1,2024-06-29T10:06:22.313Z,english_216.wav,0,peel,214,19,5,Japanese,F,0,0.0,-40.27379603,1.31885312
AYT,58,1,2024-06-29T10:06:22.313Z,english_216.wav,0,peel,214,19,5,Japanese,F,1,0.1,-9.47472605,1.52413536
AYT,58,1,2024-06-29T10:06:22.313Z,english_216.wav,0,peel,214,19,5,Japanese,F,2,0.2,10.83044308,0.3375517
AYT,58,1,2024-06-29T10:06:22.313Z,english_216.wav,0,peel,214,19,5,Japanese,F,3,0.3,-73.80571365,0.67857864
AYT,58,1,2024-06-29T10:06:22.313Z,english_216.wav,0,peel,214,19,5,Japanese,F,4,0.4,41.89217051,0.9344087
AYT,58,1,2024-06-29T10:06:22.313Z,english_216.wav,0,peel,214,19,5,Japanese,F,5,0.5,-33.36366466,0.89775046
AYT,58,1,2024-06-29T10:06:22.313Z,english_216.wav,0,peel,214,19,5,Japanese,F,6,0.6,-97.24072999,0.74652634
AYT,58,1,2024-06-29T10:06:22.313Z,english_216.wav,0,peel,214,19,5,Japanese,F,7,0.7,-3.36916359,0.00621512
AYT,58,1,2024-06-29T10:06:22.313Z,english_216.wav,0,peel,214,19,5,Japanese,F,8,0.8,-1.27566838,0.72729094
AYT,58,1,2024-06-29T10:06:22.313Z,english_216.wav,0,peel,214,19,5,Japanese,F,9,0.9,29.4346129,1.23180128
AYT,58,1,2024-06-29T10:06:22.313Z,english_216.wav,0,peel,214,19,5,Japanese,F,10,1.0,96.31719875,0.44193416
AYT,58,1,2024-06-29T10:06:22.313Z,english_216.wav,0,peel,214,19,5,Japanese,F,11,1.09391667,90.69441865,0.08230135
AYT,59,1,2024-06-29T10:06:22.313Z,english_147.wav,0,pill,515,19,5,Japanese,F,0,0.0,13.5835913,1.55424913
AYT,59,1,2024-06-29T10:06:22.313Z,english_147.wav,0,pill,515,19,5,Japanese,F,1,0.1,-12.78269311,1.36751472
AYT,59,1,2024-06-29T10:06:22.313Z,english_147.wav,0,pill,515,19,5,Japanese,F,2,0.2,-68.15160011,0.0989476
AYT,59,1,2024-06-29T10:06:22.313Z,english_147.wav,0,pill,515,19,5,Japanese,F,3,0.3,-22.06196162,1.09942606
AYT,59,1,2024-06-29T10:06:22.313Z,english_147.wav,0,pill,515,19,5,Japanese,F,4,0.4,-52.80599893,0.66767386
AYT,59,1,2024-06-29T10:06:22.313Z,english_147.wav,0,pill,515,19,5,Japanese,F,5,0.5,-19.06204323,1.22234283
AYT,59,1,2024-06-29T10:06:22.313Z,english_147.wav,0,pill,515,19,5,Japanese,F,6,0.6,99.53651939,1.18173491
AYT,59,1,2024-06-29T10:06:22.313Z,english_147.wav,0,pill,515,19,5,Japanese,F,7,0.7,-28.8369824,1.33756281
AYT,59,1,2024-06-29T10:06:22.313Z,english_147.wav,0,pill,515,19,5,Japanese,F,8,0.8,74.70483883,0.81214456
AYT,59,1,2024-06-29T10:06:22.313Z,english_147.wav,0,pill,515,19,5,Japanese,F,9,0.9,42.275031,0.37062199
AYT,59,1,2024-06-29T10:06:22.313Z,english_147.wav,0,pill,515,19,5,Japanese,F,10,1.0,-85.9360484,1.6700327
AYT,59,1,2024-06-29T10:06:22.313Z,english_147.wav,0,pill,515,19,5,Japanese,F,11,1.09391667,70.70596031,1.62026459
AYT,60,1,2024-06-29T10:06:22.313Z,english_214.wav,0,peel,688,19,5,Japanese,F,0,0.0,77.66249847,1.66443393
AYT,60,1,2024-06-29T10:06:22.313Z,english_214.wav,0,peel,688,19,5,Japanese,F,1,0.1,-66.26077856,1.37654428
AYT,60,1,2024-06-29T10:06:22.313Z,english_214.wav,0,peel,688,19,5,Japanese,F,2,0.2,-51.4922282,1.40712663
AYT,60,1,2024-06-29T10:06:22.313Z,english_214.wav,0,peel,688,19,5,Japanese,F,3,0.3,14.18659261,0.14412451
AYT,60,1,2024-06-29T10:06:22.313Z,english_214.wav,0,peel,688,19,5,Japanese,F,4,0.4,-48.84743407,0.91551293
AYT,60,1,2024-06-29T10:06:22.313Z,english_214.wav,0,peel,688,19,5,Japanese,F,5,0.5,19.47798934,0.32690142
AYT,60,1,2024-06-29T10:06:22.313Z,english_214.wav,0,peel,688,19,5,Japanese,F,6,0.6,30.92446632,1.55465622
AYT,60,1,2024-06-29T10:06:22.313Z,english_214.wav,0,peel,688,19,5,Japanese,F,7,0.7,-20.72955743,0.81533764
AYT,60,1,2024-06-29T10:06:22.313Z,english_214.wav,0,peel,688,19,5,Japanese,F,8,0.8,-84.03788896,1.36872512
AYT,60,1,2024-06-29T10:06:22.313Z,english_214.wav,0,peel,688,19,5,Japanese,F,9,0.9,1.19993411,0.61257248
AYT,60,1,2024-06-29T10:06:22.313Z,english_214.wav,0,peel,688,19,5,Japanese,F,10,1.0,-10.67189742,1.2492197
AYT,60,1,2024-06-29T10:06:22.313Z,english_214.wav,0,peel,688,19,5,Japanese,F,11,1.09391667,76.51495677,1.13872638
AYT,61,1,2024-06-29T10:06:22.313Z,english_638.wav,0,peel,954,19,5,Japanese,F,0,0.0,27.0849984,1.3280689
AYT,61,1,2024-06-29T10:06:22.313Z,english_638.wav,0,peel,954,19,5,Japanese,F,1,0.1,-76.77372335,0.56896387
AYT,61,1,2024-06-29T10:06:22.313Z,english_638.wav,0,peel,954,19,5,Japanese,F,2,0.2,-5.6974772,0.56746927
AYT,61,1,2024-06-29T10:06:22.313Z,english_638.wav,0,peel,954,19,5,Japanese,F,3,0.3,-27.04640621,0.40067671
AYT,61,1,2024-06-29T10:06:22.313Z,english_638.wav,0,peel,954,19,5,Japanese,F,4,0.4,10.67934685,1.88228275
AYT,61,1,2024-06-29T10:06:22.313Z,english_638.wav,0,peel,954,19,5,Japanese,F,5,0.5,-13.18628206,0.52168705
AYT,61,1,2024-06-29T10:06:22.313Z,english_638.wav,0,peel,954,19,5,Japanese,F,6,0.6,11.34372698,0.80905376
AYT,61,1,2024-06-29T10:06:22.313Z,english_638.wav,0,peel,954,19,5,Japanese,F,7,0.7,-64.2430687,1.41810717
AYT,61,1,2024-06-29T10:06:22.313Z,english_638.wav,0,peel,954,19,5,Japanese,F,8,0.8,46.35115049,1.8285697
AYT,61,1,2024-06-29T10:06:22.313Z,english_638.wav,0,peel,954,19,5,Japanese,F,9,0.9,44.69499683,0.3100636
AYT,61,1,2024-06-29T10:06:22.313Z,english_638.wav,0,peel,954,19,5,Japanese,F,10,1.0,-11.73136011,1.74790386
AYT,61,1,2024-06-29T10:06:22.313Z,english_638.wav,0,peel,954,19,5,Japanese,F,11,1.09391667,-77.04953993,1.8348397
AYT,62,1,2024-06-29T10:06:22.313Z,english_461.wav,0,pill,944,19,5,Japanese,F,0,0.0,20.40366348,0.56042838
AYT,62,1,2024-06-29T10:06:22.313Z,english_461.wav,0,pill,944,19,5,Japanese,F,1,0.1,-22.31307181,0.54946445
AYT,62,1,2024-06-29T10:06:22.313Z,english_461.wav,0,pill,944,19,5,Japanese,F,2,0.2,-89.37114144,1.64772646
AYT,62,1,2024-06-29T10:06:22.313Z,english_461.wav,0,pill,944,19,5,Japanese,F,3,0.3,-62.56780286,1.49638786
AYT,62,1,2024-06-29T10:06:22.313Z,english_461.wav,0,pill,944,19,5,Japanese,F,4,0.4,98.66430914,1.35717302
AYT,62,1,2024-06-29T10:06:22.313Z,english_461.wav,0,pill,944,19,5,Japanese,F,5,0.5,31.54001237,1.77354921
AYT,62,1,2024-06-29T10:06:22.313Z,english_461.wav,0,pill,944,19,5,Japanese,F,6,0.6,-32.39124998,0.30044417
AYT,62,1,2024-06-29T10:06:22.313Z,english_461.wav,0,pill,944,19,5,Japanese,F,7,0.7,-36.51161339,0.61964528
AYT,62,1,2024-06-29T10:06:22.313Z,english_461.wav,0,pill,944,19,5,Japanese,F,8,0.8,53.57144474,1.90165564
AYT,62,1,2024-06-29T10:06:22.313Z,english_461.wav,0,pill,944,19,5,Japanese,F,9,0.9,-58.15364794,1.196075
AYT,62,1,2024-06-29T10:06:22.313Z,english_461.wav,0,pill,944,19,5,Japanese,F,10,1.0,49.37662152,1.99169905
AYT,62,1,2024-06-29T10:06:22.313Z,english_461.wav,0,pill,944,19,5,Japanese,F,11,1.09391667,-58.25142674,0.63333461
AYT,63,1,2024-06-29T10:06:22.313Z,english_192.wav,0,pill,1624,19,5,Japanese,F,0,0.0,-44.06496916,1.38059828
AYT,63,1,2024-06-29T10:06:22.313Z,english_192.wav,0,pill,1624,19,5,Japanese,F,1,0.1,-1.73373059,0.79242211
AYT,63,1,2024-06-29T10:06:22.313Z,english_192.wav,0,pill,1624,19,5,Japanese,F,2,0.2,-29.10510113,0.7213484
AYT,63,1,2024-06-29T10:06:22.313Z,english_192.wav,0,pill,1624,19,5,Japanese,F,3,0.3,71.54582207,1.27323666
AYT,63,1,2024-06-29T10:06:22.313Z,english_192.wav,0,pill,1624,19,5,Japanese,F,4,0.4,47.17920128,0.22557274
AYT,63,1,2024-06-29T10:06:22.313Z,english_192.wav,0,pill,1624,19,5,Japanese,F,5,0.5,46.36925649,1.52280769
AYT,63,1,2024-06-29T10:06:22.313Z,english_192.wav,0,pill,1624,19,5,Japanese,F,6,0.6,34.98575102,0.97358447
AYT,63,1,2024-06-29T10:06:22.313Z,english_192.wav,0,pill,1624,19,5,Japanese,F,7,0.7,51.8668686,0.90127966
AYT,63,1,2024-06-29T10:06:22.313Z,english_192.wav,0,pill,1624,19,5,Japanese,F,8,0.8,-35.42178409,0.86874685
AYT,63,1,2024-06-29T10:06:22.313Z,english_192.wav,0,pill,1624,19,5,Japanese,F,9,0.9,-56.11776415,1.58446024
AYT,63,1,2024-06-29T10:06:22.313Z,english_192.wav,0,pill,1624,19,5,Japanese,F,10,1.0,-44.79305263,1.51736237
AYT,63,1,2024-06-29T10:06:22.313Z,english_192.wav,0,pill,1624,19,5,Japanese,F,11,1.09391667,37.72006641,0.71870831
AYT,64,1,2024-06-29T10:06:22.313Z,english_199.wav,0,peel,420,19,5,Japanese,F,0,0.0,11.88199512,1.7718025
AYT,64,1,2024-06-29T10:06:22.313Z,english_199.wav,0,peel,420,19,5,Japanese,F,1,0.1,-46.96504702,0.76735149
AYT,64,1,2024-06-29T10:06:22.313Z,english_199.wav,0,peel,420,19,5,Japanese,F,2,0.2,91.54002169,1.87614546
AYT,64,1,2024-06-29T10:06:22.313Z,english_199.wav,0,peel,420,19,5,Japanese,F,3,0.3,99.89394598,1.34343154
AYT,64,1,2024-06-29T10:06:22.313Z,english_199.wav,0,peel,420,19,5,Japanese,F,4,0.4,-50.70673656,1.06602126
AYT,64,1,2024-06-29T10:06:22.313Z,english_199.wav,0,peel,420,19,5,Japanese,F,5,0.5,3.76891672,0.62776747
AYT,64,1,2024-06-29T10:06:22.313Z,english_199.wav,0,peel,420,19,5,Japanese,F,6,0.6,96.91424304,1.16622983
AYT,64,1,2024-06-29T10:06:22.313Z,english_199.wav,0,peel,420,19,5,Japanese,F,7,0.7,-8.03082423,0.99062008
AYT,64,1,2024-06-29T10:06:22.313Z,english_199.wav,0,peel,420,19,5,Japanese,F,8,0.8,10.21194857,0.73939337
AYT,64,1,2024-06-29T10:06:22.313Z,english_199.wav,0,peel,420,19,5,Japanese,F,9,0.9,73.92851664,0.60539997
AYT,64,1,2024-06-29T10:06:22.313Z,english_199.wav,0,peel,420,19,5,Japanese,F,10,1.0,29.02383929,1.28070052
AYT,64,1,2024-06-29T10:06:22.313Z,english_199.wav,0,peel,420,19,5,Japanese,F,11,1.09391667,-91.13840346,0.2785568
AYT,65,1,2024-06-29T10:06:22.313Z,english_558.wav,0,pill,2022,19,5,Japanese,F,0,0.0,9.45595183,1.13403788
AYT,65,1,2024-06-29T10:06:22.313Z,english_558.wav,0,pill,2022,19,5,Japanese,F,1,0.1,-66.91447075,1.18278708
AYT,65,1,2024-06-29T10:06:22.313Z,english_558.wav,0,pill,2022,19,5,Japanese,F,2,0.2,5.01642616,1.11112331
AYT,65,1,2024-06-29T10:06:22.313Z,english_558.wav,0,pill,2022,19,5,Japanese,F,3,0.3,-82.30049302,0.91283519
AYT,65,1,2024-06-29T10:06:22.313Z,english_558.wav,0,pill,2022,19,5,Japanese,F,4,0.4,-10.29129966,0.71678122
AYT,65,1,2024-06-29T10:06:22.313Z,english_558.wav,0,pill,2022,19,5,Japanese,F,5,0.5,99.14240741,1.64554748
AYT,65,1,2024-06-29T10:06:22.313Z,english_558.wav,0,pill,2022,19,5,Japanese,F,6,0.6,34.85025227,0.99485251
AYT,65,1,2024-06-29T10:06:22.313Z,english_558.wav,0,pill,2022,19,5,Japanese,F,7,0.7,43.44441895,0.12536515
AYT,65,1,2024-06-29T10:06:22.313Z,english_558.wav,0,pill,2022,19,5,Japanese,F,8,0.8,-97.39694164,0.12044716
AYT,65,1,2024-06-29T10:06:22.313Z,english_558.wav,0,pill,2022,19,5,Japanese,F,9,0.9,-31.97632868,0.33780284
AYT,65,1,2024-06-29T10:06:22.313Z,english_558.wav,0,pill,2022,19,5,Japanese,F,10,1.0,-74.01115338,0.39284816
AYT,65,1,2024-06-29T10:06:22.313Z,english_558.wav,0,pill,2022,19,5,Japanese,F,11,1.09391667,43.18570617,1.38494175
AYT,66,1,2024-06-29T10:06:22.313Z,english_703.wav,0,peel,815,19,5,Japanese,F,0,0.0,78.46017663,1.67482732
AYT,66,1,2024-06-29T10:06:22.313Z,english_703.wav,0,peel,815,19,5,Japanese,F,1,0.1,78.89990628,0.94697422
AYT,66,1,2024-06-29T10:06:22.313Z,english_703.wav,0,peel,815,19,5,Japanese,F,2,0.2,1.22121352,1.07367108
AYT,66,1,2024-06-29T10:06:22.313Z,english_703.wav,0,peel,815,19,5,Japanese,F,3,0.3,-13.66512032,0.83871506
AYT,66,1,2024-06-29T10:06:22.313Z,english_703.wav,0,peel,815,19,5,Japanese,F,4,0.4,59.78772349,1.95413199
AYT,66,1,2024-06-29T10:06:22.313Z,english_703.wav,0,peel,815,19,5,Japanese,F,5,0.5,33.72988184,1.09413462
AYT,66,1,2024-06-29T10:06:22.313Z,english_703.wav,0,peel,815,19,5,Japanese,F,6,0.6,-23.35963014,0.42330202
AYT,66,1,2024-06-29T10:06:22.313Z,english_703.wav,0,peel,815,19,5,Japanese,F,7,0.7,8.84013909,1.69590524
AYT,66,1,2024-06-29T10:06:22.313Z,english_703.wav,0,peel,815,19,5,Japanese,F,8,0.8,-91.65457131,0.02701352
AYT,66,1,2024-06-29T10:06:22.313Z,english_703.wav,0,peel,815,19,5,Japanese,F,9,0.9,-19.77683044,1.37794046
AYT,66,1,2024-06-29T10:06:22.313Z,english_703.wav,0,peel,815,19,5,Japanese,F,10,1.0,93.0408658,1.99856472
AYT,66,1,2024-06-29T10:06:22.313Z,english_703.wav,0,peel,815,19,5,Japanese,F,11,1.09391667,-46.92339825,0.84923666
AYT,67,1,2024-06-29T10:06:22.313Z,english_155.wav,0,peel,499,19,5,Japanese,F,0,0.0,21.6550533,0.01570598
AYT,67,1,2024-06-29T10:06:22.313Z,english_155.wav,0,peel,499,19,5,Japanese,F,1,0.1,-0.0016794128,1.76749017
AYT,67,1,2024-06-29T10:06:22.313Z,english_155.wav,0,peel,499,19,5,Japanese,F,2,0.2,-77.5292073,1.37583653
AYT,67,1,2024-06-29T10:06:22.313Z,english_155.wav,0,peel,499,19,5,Japanese,F,3,0.3,-44.9313065,0.19365623
AYT,67,1,2024-06-29T10:06:22.313Z,english_155.wav,0,peel,499,19,5,Japanese,F,4,0.4,-33.7969309,1.34202306
AYT,67,1,2024-06-29T10:06:22.313Z,english_155.wav,0,peel,499,19,5,Japanese,F,5,0.5,46.2285188,1.87351349
AYT,67,1,2024-06-29T10:06:22.313Z,english_155.wav,0,peel,499,19,5,Japanese,F,6,0.6,93.0191022,1.89118344
AYT,67,1,2024-06-29T10:06:22.313Z,english_155.wav,0,peel,499,19,5,Japanese,F,7,0.7,80.6417886,1.25713993
AYT,67,1,2024-06-29T10:06:22.313Z,english_155.wav,0,peel,499,19,5,Japanese,F,8,0.8,-76.4782648,1.84259347
AYT,67,1,2024-06-29T10:06:22.313Z,english_155.wav,0,peel,499,19,5,Japanese,F,9,0.9,-35.964927,0.04007403
AYT,67,1,2024-06-29T10:06:22.313Z,english_155.wav,0,peel,499,19,5,Japanese,F,10,1.0,90.375739,1.64837519
AYT,67,1,2024-06-29T10:06:22.313Z,english_155.wav,0,peel,499,19,5,Japanese,F,11,1.09391667,66.476003,1.87071869
AYT,68,1,2024-06-29T10:06:22.313Z,english_402.wav,0,peel,901,19,5,Japanese,F,0,0.0,13.762471,1.51429567
AYT,68,1,2024-06-29T10:06:22.313Z,english_402.wav,0,peel,901,19,5,Japanese,F,1,0.1,56.960538,1.68766969
AYT,68,1,2024-06-29T10:06:22.313Z,english_402.wav,0,peel,901,19,5,Japanese,F,2,0.2,31.61900178,1.34501255
AYT,68,1,2024-06-29T10:06:22.313Z,english_402.wav,0,peel,901,19,5,Japanese,F,3,0.3,-58.12329087,0.78143448
AYT,68,1,2024-06-29T10:06:22.313Z,english_402.wav,0,peel,901,19,5,Japanese,F,4,0.4,-92.10904416,0.95522192
AYT,68,1,2024-06-29T10:06:22.313Z,english_402.wav,0,peel,901,19,5,Japanese,F,5,0.5,-26.99116943,1.16323619
AYT,68,1,2024-06-29T10:06:22.313Z,english_402.wav,0,peel,901,19,5,Japanese,F,6,0.6,2.85267641,0.43497741
AYT,68,1,2024-06-29T10:06:22.313Z,english_402.wav,0,peel,901,19,5,Japanese,F,7,0.7,-21.2400385,1.84271931
AYT,68,1,2024-06-29T10:06:22.313Z,english_402.wav,0,peel,901,19,5,Japanese,F,8,0.8,47.25195685,1.28114522
AYT,68,1,2024-06-29T10:06:22.313Z,english_402.wav,0,peel,901,19,5,Japanese,F,9,0.9,86.30516809,0.9091169
AYT,68,1,2024-06-29T10:06:22.313Z,english_402.wav,0,peel,901,19,5,Japanese,F,10,1.0,-9.29622935,1.84546322
AYT,68,1,2024-06-29T10:06:22.313Z,english_402.wav,0,peel,901,19,5,Japanese,F,11,1.09391667,3.14612385,0.72114292
AYT,69,1,2024-06-29T10:06:22.313Z,english_194.wav,0,peel,530,19,5,Japanese,F,0,0.0,56.78701541,1.42004802
AYT,69,1,2024-06-29T10:06:22.313Z,english_194.wav,0,peel,530,19,5,Japanese,F,1,0.1,-17.75053988,0.01035796
AYT,69,1,2024-06-29T10:06:22.313Z,english_194.wav,0,peel,530,19,5,Japanese,F,2,0.2,33.25886054,1.01435424
AYT,69,1,2024-06-29T10:06:22.313Z,english_194.wav,0,peel,530,19,5,Japanese,F,3,0.3,-36.30427417,0.10390295
AYT,69,1,2024-06-29T10:06:22.313Z,english_194.wav,0,peel,530,19,5,Japanese,F,4,0.4,87.2538064,0.79219746
AYT,69,1,2024-06-29T10:06:22.313Z,english_194.wav,0,peel,530,19,5,Japanese,F,5,0.5,-35.38798336,0.28919857
AYT,69,1,2024-06-29T10:06:22.313Z,english_194.wav,0,peel,530,19,5,Japanese,F,6,0.6,-16.86822867,1.14065301
AYT,69,1,2024-06-29T10:06:22.313Z,english_194.wav,0,peel,530,19,5,Japanese,F,7,0.7,3.74513195,1.55329947
AYT,69,1,2024-06-29T10:06:22.313Z,english_194.wav,0,peel,530,19,5,Japanese,F,8,0.8,-97.03953589,1.8735666
AYT,69,1,2024-06-29T10:06:22.313Z,english_194.wav,0,peel,530,19,5,Japanese,F,9,0.9,-34.95000954,1.68004219
AYT,69,1,2024-06-29T10:06:22.313Z,english_194.wav,0,peel,530,19,5,Japanese,F,10,1.0,41.79469937,0.7970796
AYT,69,1,2024-06-29T10:06:22.313Z,english_194.wav,0,peel,530,19,5,Japanese,F,11,1.09391667,-99.09961294,1.89727803
AYT,70,1,2024-06-29T10:06:22.313Z,english_796.wav,0,peel,387,19,5,Japanese,F,0,0.0,23.83274793,0.06036971
AYT,70,1,2024-06-29T10:06:22.313Z,english_796.wav,0,peel,387,19,5,Japanese,F,1,0.1,58.93639275,1.88058462
AYT,70,1,2024-06-29T10:06:22.313Z,english_796.wav,0,peel,387,19,5,Japanese,F,2,0.2,38.21414004,0.18227098
AYT,70,1,2024-06-29T10:06:22.313Z,english_796.wav,0,peel,387,19,5,Japanese,F,3,0.3,28.9924604,1.37773272
AYT,70,1,2024-06-29T10:06:22.313Z,english_796.wav,0,peel,387,19,5,Japanese,F,4,0.4,-7.06068982,1.64549947
AYT,70,1,2024-06-29T10:06:22.313Z,english_796.wav,0,peel,387,19,5,Japanese,F,5,0.5,-87.6291124,1.67194705
AYT,70,1,2024-06-29T10:06:22.313Z,english_796.wav,0,peel,387,19,5,Japanese,F,6,0.6,-19.55999428,0.64689213
AYT,70,1,2024-06-29T10:06:22.313Z,english_796.wav,0,peel,387,19,5,Japanese,F,7,0.7,12.86748648,1.59726084
AYT,70,1,2024-06-29T10:06:22.313Z,english_796.wav,0,peel,387,19,5,Japanese,F,8,0.8,60.66600698,0.96069219
AYT,70,1,2024-06-29T10:06:22.313Z,english_796.wav,0,peel,387,19,5,Japanese,F,9,0.9,63.14579763,1.00931817
AYT,70,1,2024-06-29T10:06:22.313Z,english_796.wav,0,peel,387,19,5,Japanese,F,10,1.0,38.43403738,1.05195825
AYT,70,1,2024-06-29T10:06:22.313Z,english_796.wav,0,peel,387,19,5,Japanese,F,11,1.09391667,-11.41285249,1.96327853
AYT,71,1,2024-06-29T10:06:22.313Z,english_185.wav,0,pill,1547,19,5,Japanese,F,0,0.0,-23.80747302,1.70362326
AYT,71,1,2024-06-29T10:06:22.313Z,english_185.wav,0,pill,1547,19,5,Japanese,F,1,0.1,-67.70846726,1.95632733
AYT,71,1,2024-06-29T10:06:22.313Z,english_185.wav,0,pill,1547,19,5,Japanese,F,2,0.2,27.78292916,1.63625516
AYT,71,1,2024-06-29T10:06:22.313Z,english_185.wav,0,pill,1547,19,5,Japanese,F,3,0.3,-22.37709268,0.69364986
AYT,71,1,2024-06-29T10:06:22.313Z,english_185.wav,0,pill,1547,19,5,Japanese,F,4,0.4,15.61755946,0.15498305
AYT,71,1,2024-06-29T10:06:22.313Z,english_185.wav,0,pill,1547,19,5,Japanese,F,5,0.5,-59.82139972,1.72553948
AYT,71,1,2024-06-29T10:06:22.313Z,english_185.wav,0,pill,1547,19,5,Japanese,F,6,0.6,-43.59424473,1.78198359
AYT,71,1,2024-06-29T10:06:22.313Z,english_185.wav,0,pill,1547,19,5,Japanese,F,7,0.7,74.12043651,1.30006103
AYT,71,1,2024-06-29T10:06:22.313Z,english_185.wav,0,pill,1547,19,5,Japanese,F,8,0.8,77.01624641,0.79426106
AYT,71,1,2024-06-29T10:06:22.313Z,english_185.wav,0,pill,1547,19,5,Japanese,F,9,0.9,-47.03527172,0.29849321
AYT,71,1,2024-06-29T10:06:22.313Z,english_185.wav,0,pill,1547,19,5,Japanese,F,10,1.0,2.38207477,1.71648204
AYT,71,1,2024-06-29T10:06:22.313Z,english_185.wav,0,pill,1547,19,5,Japanese,F,11,1.09391667,-48.42317698,0.84883975
AYT,72,1,2024-06-29T10:06:22.313Z,english_212.wav,0,peel,186,19,5,Japanese,F,0,0.0,7.28178662,1.69718484
AYT,72,1,2024-06-29T10:06:22.313Z,english_212.wav,0,peel,186,19,5,Japanese,F,1,0.1,53.30309055,0.86840916
AYT,72,1,2024-06-29T10:06:22.313Z,english_212.wav,0,peel,186,19,5,Japanese,F,2,0.2,9.81131056,0.62741544
AYT,72,1,2024-06-29T10:06:22.313Z,english_212.wav,0,peel,186,19,5,Japanese,F,3,0.3,-90.32961485,1.93796864
AYT,72,1,2024-06-29T10:06:22.313Z,english_212.wav,0,peel,186,19,5,Japanese,F,4,0.4,16.20847807,1.96151684
AYT,72,1,2024-06-29T10:06:22.313Z,english_212.wav,0,peel,186,19,5,Japanese,F,5,0.5,-12.76815096,0.98998478
AYT,72,1,2024-06-29T10:06:22.313Z,english_212.wav,0,peel,186,19,5,Japanese,F,6,0.6,93.86097069,1.74396039
AYT,72,1,2024-06-29T10:06:22.313Z,english_212.wav,0,peel,186,19,5,Japanese,F,7,0.7,39.57297318,1.59359998
AYT,72,1,2024-06-29T10:06:22.313Z,english_212.wav,0,peel,186,19,5,Japanese,F,8,0.8,-19.22688735,1.3284153
AYT,72,1,2024-06-29T10:06:22.313Z,english_212.wav,0,peel,186,19,5,Japanese,F,9,0.9,-71.99383643,1.90824048
AYT,72,1,2024-06-29T10:06:22.313Z,english_212.wav,0,peel,186,19,5,Japanese,F,10,1.0,5.42324024,1.38687745
AYT,72,1,2024-06-29T10:06:22.313Z,english_212.wav,0,peel,186,19,5,Japanese,F,11,1.09391667,-66.1565739,0.48487656
AYT,73,1,2024-06-29T10:06:22.313Z,english_923.wav,0,peel,281,19,5,Japanese,F,0,0.0,93.2289474,1.70020423
AYT,73,1,2024-06-29T10:06:22.313Z,english_923.wav,0,peel,281,19,5,Japanese,F,1,0.1,-90.20705496,1.01222006
AYT,73,1,2024-06-29T10:06:22.313Z,english_923.wav,0,peel,281,19,5,Japanese,F,2,0.2,-39.60180218,0.78975297
AYT,73,1,2024-06-29T10:06:22.313Z,english_923.wav,0,peel,281,19,5,Japanese,F,3,0.3,80.82184167,0.55346402
AYT,73,1,2024-06-29T10:06:22.313Z,english_923.wav,0,peel,281,19,5,Japanese,F,4,0.4,-9.151808,0.82944294
AYT,73,1,2024-06-29T10:06:22.313Z,english_923.wav,0,peel,281,19,5,Japanese,F,5,0.5,26.58775585,1.08031611
AYT,73,1,2024-06-29T10:06:22.313Z,english_923.wav,0,peel,281,19,5,Japanese,F,6,0.6,6.23734234,0.85830077
AYT,73,1,2024-06-29T10:06:22.313Z,english_923.wav,0,peel,281,19,5,Japanese,F,7,0.7,72.65407882,1.16981472
AYT,73,1,2024-06-29T10:06:22.313Z,english_923.wav,0,peel,281,19,5,Japanese,F,8,0.8,-19.39856568,1.72430236
AYT,73,1,2024-06-29T10:06:22.313Z,english_923.wav,0,peel,281,19,5,Japanese,F,9,0.9,-78.04150402,0.87754791
AYT,73,1,2024-06-29T10:06:22.313Z,english_923.wav,0,peel,281,19,5,Japanese,F,10,1.0,32.81309653,1.2494211
AYT,73,1,2024-06-29T10:06:22.313Z,english_923.wav,0,peel,281,19,5,Japanese,F,11,1.09391667,90.62685446,1.97603122
AYT,74,1,2024-06-29T10:06:22.313Z,english_596.wav,0,peel,532,19,5,Japanese,F,0,0.0,-42.68859768,1.28071693
AYT,74,1,2024-06-29T10:06:22.313Z,english_596.wav,0,peel,532,19,5,Japanese,F,1,0.1,67.29414518,0.77411838
AYT,74,1,2024-06-29T10:06:22.313Z,english_596.wav,0,peel,532,19,5,Japanese,F,2,0.2,-56.57562289,1.32627092
AYT,74,1,2024-06-29T10:06:22.313Z,english_596.wav,0,peel,532,19,5,Japanese,F,3,0.3,71.30769152,0.49089119
AYT,74,1,2024-06-29T10:06:22.313Z,english_596.wav,0,peel,532,19,5,Japanese,F,4,0.4,95.1886681,0.72473062
AYT,74,1,2024-06-29T10:06:22.313Z,english_596.wav,0,peel,532,19,5,Japanese,F,5,0.5,72.69751936,1.52798236
AYT,74,1,2024-06-29T10:06:22.313Z,english_596.wav,0,peel,532,19,5,Japanese,F,6,0.6,62.43561612,1.79088814
AYT,74,1,2024-06-29T10:06:22.313Z,english_596.wav,0,peel,532,19,5,Japanese,F,7,0.7,-87.58634469,1.96984618
AYT,74,1,2024-06-29T10:06:22.313Z,english_596.wav,0,peel,532,19,5,Japanese,F,8,0.8,-28.77393345,1.38508216
AYT,74,1,2024-06-29T10:06:22.313Z,english_596.wav,0,peel,532,19,5,Japanese,F,9,0.9,-89.27970112,1.05217053
AYT,74,1,2024-06-29T10:06:22.313Z,english_596.wav,0,peel,532,19,5,Japanese,F,10,1.0,-11.13754725,1.15113027
AYT,74,1,2024-06-29T10:06:22.313Z,english_596.wav,0,peel,532,19,5,Japanese,F,11,1.09391667,-71.54799937,0.49767302
AYT,75,1,2024-06-29T10:06:22.313Z,english_85.wav,0,peel,803,19,5,Japanese,F,0,0.0,-6.14964992,0.56025081
AYT,75,1,2024-06-29T10:06:22.313Z,english_85.wav,0,peel,803,19,5,Japanese,F,1,0.1,32.16339234,0.61514747
AYT,75,1,2024-06-29T10:06:22.313Z,english_85.wav,0,peel,803,19,5,Japanese,F,2,0.2,-24.97067864,1.35990705
AYT,75,1,2024-06-29T10:06:22.313Z,english_85.wav,0,peel,803,19,5,Japanese,F,3,0.3,89.32269375,1.86054319
AYT,75,1,2024-06-29T10:06:22.313Z,english_85.wav,0,peel,803,19,5,Japanese,F,4,0.4,50.53908361,0.59713816
AYT,75,1,2024-06-29T10:06:22.313Z,english_85.wav,0,peel,803,19,5,Japanese,F,5,0.5,40.43548113,0.3523201
AYT,75,1,2024-06-29T10:06:22.313Z,english_85.wav,0,peel,803,19,5,Japanese,F,6,0.6,-51.5766196,0.98047294
AYT,75,1,2024-06-29T10:06:22.313Z,english_85.wav,0,peel,803,19,5,Japanese,F,7,0.7,98.63406519,0.71363617
AYT,75,1,2024-06-29T10:06:22.313Z,english_85.wav,0,peel,803,19,5,Japanese,F,8,0.8,15.90562432,1.19020527
AYT,75,1,2024-06-29T10:06:22.313Z,english_85.wav,0,peel,803,19,5,Japanese,F,9,0.9,-42.65370164,0.91645954
AYT,75,1,2024-06-29T10:06:22.313Z,english_85.wav,0,peel,803,19,5,Japanese,F,10,1.0,89.3078196,1.15839844
AYT,75,1,2024-06-29T10:06:22.313Z,english_85.wav,0,peel,803,19,5,Japanese,F,11,1.09391667,-29.48451548,0.12488766
AYT,76,1,2024-06-29T10:06:22.313Z,english_8.wav,0,peel,1146,19,5,Japanese,F,0,0.0,-40.69746503,1.91325818
AYT,76,1,2024-06-29T10:06:22.313Z,english_8.wav,0,peel,1146,19,5,Japanese,F,1,0.1,-2.63283103,0.20995582
AYT,76,1,2024-06-29T10:06:22.313Z,english_8.wav,0,peel,1146,19,5,Japanese,F,2,0.2,5.50551206,1.37536133
AYT,76,1,2024-06-29T10:06:22.313Z,english_8.wav,0,peel,1146,19,5,Japanese,F,3,0.3,17.73685221,1.26994408
AYT,76,1,2024-06-29T10:06:22.313Z,english_8.wav,0,peel,1146,19,5,Japanese,F,4,0.4,-9.16902595,1.33651222
AYT,76,1,2024-06-29T10:06:22.313Z,english_8.wav,0,peel,1146,19,5,Japanese,F,5,0.5,-34.7445518,1.4592859
AYT,76,1,2024-06-29T10:06:22.313Z,english_8.wav,0,peel,1146,19,5,Japanese,F,6,0.6,-48.45099415,0.38968971
AYT,76,1,2024-06-29T10:06:22.313Z,english_8.wav,0,peel,1146,19,5,Japanese,F,7,0.7,77.2460415,0.19810868
AYT,76,1,2024-06-29T10:06:22.313Z,english_8.wav,0,peel,1146,19,5,Japanese,F,8,0.8,-58.60489112,0.97081537
AYT,76,1,2024-06-29T10:06:22.313Z,english_8.wav,0,peel,1146,19,5,Japanese,F,9,0.9,-48.13629471,0.35861069
AYT,76,1,2024-06-29T10:06:22.313Z,english_8.wav,0,peel,1146,19,5,Japanese,F,10,1.0,56.51883775,1.51205719
AYT,76,1,2024-06-29T10:06:22.313Z,english_8.wav,0,peel,1146,19,5,Japanese,F,11,1.09391667,-41.21742626,0.71101002
AYT,77,1,2024-06-29T10:06:22.313Z,english_81.wav,0,pill,799,19,5,Japanese,F,0,0.0,71.09666265,1.09569192
AYT,77,1,2024-06-29T10:06:22.313Z,english_81.wav,0,pill,799,19,5,Japanese,F,1,0.1,-38.93956525,1.65684188
AYT,77,1,2024-06-29T10:06:22.313Z,english_81.wav,0,pill,799,19,5,Japanese,F,2,0.2,-48.61950395,0.44216952
AYT,77,1,2024-06-29T10:06:22.313Z,english_81.wav,0,pill,799,19,5,Japanese,F,3,0.3,33.39514041,1.72758961
AYT,77,1,2024-06-29T10:06:22.313Z,english_81.wav,0,pill,799,19,5,Japanese,F,4,0.4,18.24180048,1.46257927
AYT,77,1,2024-06-29T10:06:22.313Z,english_81.wav,0,pill,799,19,5,Japanese,F,5,0.5,-45.85953695,1.53730542
AYT,77,1,2024-06-29T10:06:22.313Z,english_81.wav,0,pill,799,19,5,Japanese,F,6,0.6,-0.32699599,1.28818555
AYT,77,1,2024-06-29T10:06:22.313Z,english_81.wav,0,pill,799,19,5,Japanese,F,7,0.7,-32.78716597,1.19414744
AYT,77,1,2024-06-29T10:06:22.313Z,english_81.wav,0,pill,799,19,5,Japanese,F,8,0.8,-37.9267269,1.01923165
AYT,77,1,2024-06-29T10:06:22.313Z,english_81.wav,0,pill,799,19,5,Japanese,F,9,0.9,24.21331247,1.67441048
