subj,trial,block,date,stim,stim_order,response,rt,param_index,segment_time,pitch,stretch,age,english,language,sex
YAY,0,0,2024-06-22T16:12:10.035Z,english_624.wav,0,0,2010,0,0,34.76400378,1.78994994,,,,
YAY,0,0,2024-06-22T16:12:10.035Z,english_624.wav,0,0,2010,1,0.1,-36.42076645,1.4795907,,,,
YAY,0,0,2024-06-22T16:12:10.035Z,english_624.wav,0,0,2010,2,0.2,-52.38985079,1.80721514,,,,
YAY,0,0,2024-06-22T16:12:10.035Z,english_624.wav,0,0,2010,3,0.3,98.14853718,1.70059719,,,,
YAY,0,0,2024-06-22T16:12:10.035Z,english_624.wav,0,0,2010,4,0.4,97.5674754,0.69719837,,,,
YAY,0,0,2024-06-22T16:12:10.035Z,english_624.wav,0,0,2010,5,0.5,-80.04687885,1.37290399,,,,
YAY,0,0,2024-06-22T16:12:10.035Z,english_624.wav,0,0,2010,6,0.6,-8.81047571,1.53741575,,,,
YAY,0,0,2024-06-22T16:12:10.035Z,english_624.wav,0,0,2010,7,0.7,-78.45129318,1.54350611,,,,
YAY,0,0,2024-06-22T16:12:10.035Z,english_624.wav,0,0,2010,8,0.8,39.54454361,0.49170725,,,,
YAY,0,0,2024-06-22T16:12:10.035Z,english_624.wav,0,0,2010,9,0.9,32.62160332,1.04663897,,,,
YAY,0,0,2024-06-22T16:12:10.035Z,english_624.wav,0,0,2010,10,1,-98.98158135,0.63020253,,,,
YAY,0,0,2024-06-22T16:12:10.035Z,english_624.wav,0,0,2010,11,1.09391667,19.08613563,0.96318783,,,,
YAY,1,0,2024-06-22T16:12:10.035Z,english_903.wav,0,0,1051,0,0,74.40610552,1.10397813,,,,
YAY,1,0,2024-06-22T16:12:10.035Z,english_903.wav,0,0,1051,1,0.1,-14.0058198,0.67044391,,,,
YAY,1,0,2024-06-22T16:12:10.035Z,english_903.wav,0,0,1051,2,0.2,-43.18870249,1.06331023,,,,
YAY,1,0,2024-06-22T16:12:10.035Z,english_903.wav,0,0,1051,3,0.3,85.51038869,0.60586728,,,,
YAY,1,0,2024-06-22T16:12:10.035Z,english_903.wav,0,0,1051,4,0.4,8.36930428,0.11380816,,,,
YAY,1,0,2024-06-22T16:12:10.035Z,english_903.wav,0,0,1051,5,0.5,-11.10468326,1.21530961,,,,
YAY,1,0,2024-06-22T16:12:10.035Z,english_903.wav,0,0,1051,6,0.6,0.77760872,1.48658081,,,,
YAY,1,0,2024-06-22T16:12:10.035Z,english_903.wav,0,0,1051,7,0.7,61.82804998,1.41412243,,,,
YAY,1,0,2024-06-22T16:12:10.035Z,english_903.wav,0,0,1051,8,0.8,-21.718638,0.93606202,,,,
YAY,1,0,2024-06-22T16:12:10.035Z,english_903.wav,0,0,1051,9,0.9,-41.58529941,0.40038549,,,,
YAY,1,0,2024-06-22T16:12:10.035Z,english_903.wav,0,0,1051,10,1,22.99211782,0.6748387,,,,
YAY,1,0,2024-06-22T16:12:10.035Z,english_903.wav,0,0,1051,11,1.09391667,-96.82772328,0.72929926,,,,
YAY,2,0,2024-06-22T16:12:10.035Z,english_584.wav,0,1,1189,0,0,50.7358721,1.24615014,,,,
YAY,2,0,2024-06-22T16:12:10.035Z,english_584.wav,0,1,1189,1,0.1,-37.41238679,1.8454839,,,,
YAY,2,0,2024-06-22T16:12:10.035Z,english_584.wav,0,1,1189,2,0.2,-21.91541438,1.76277899,,,,
YAY,2,0,2024-06-22T16:12:10.035Z,english_584.wav,0,1,1189,3,0.3,67.49251718,0.88473448,,,,
YAY,2,0,2024-06-22T16:12:10.035Z,english_584.wav,0,1,1189,4,0.4,36.0609863,0.58271182,,,,
YAY,2,0,2024-06-22T16:12:10.035Z,english_584.wav,0,1,1189,5,0.5,29.68399092,1.46602634,,,,
YAY,2,0,2024-06-22T16:12:10.035Z,english_584.wav,0,1,1189,6,0.6,69.24169566,1.79468998,,,,
YAY,2,0,2024-06-22T16:12:10.035Z,english_584.wav,0,1,1189,7,0.7,2.10305954,1.56143928,,,,
YAY,2,0,2024-06-22T16:12:10.035Z,english_584.wav,0,1,1189,8,0.8,23.93501401,0.46568097,,,,
YAY,2,0,2024-06-22T16:12:10.035Z,english_584.wav,0,1,1189,9,0.9,-17.64282744,0.5808441,,,,
YAY,2,0,2024-06-22T16:12:10.035Z,english_584.wav,0,1,1189,10,1,80.89116082,1.80196263,,,,
YAY,2,0,2024-06-22T16:12:10.035Z,english_584.wav,0,1,1189,11,1.09391667,-10.99932322,1.58954467,,,,
YAY,3,0,2024-06-22T16:12:10.035Z,english_669.wav,0,1,201,0,0,63.63841723,1.21965741,,,,
YAY,3,0,2024-06-22T16:12:10.035Z,english_669.wav,0,1,201,1,0.1,-16.46655099,1.77063888,,,,
YAY,3,0,2024-06-22T16:12:10.035Z,english_669.wav,0,1,201,2,0.2,59.94652085,1.19972221,,,,
YAY,3,0,2024-06-22T16:12:10.035Z,english_669.wav,0,1,201,3,0.3,87.91202499,1.09192955,,,,
YAY,3,0,2024-06-22T16:12:10.035Z,english_669.wav,0,1,201,4,0.4,-9.72604882,0.69529064,,,,
YAY,3,0,2024-06-22T16:12:10.035Z,english_669.wav,0,1,201,5,0.5,72.16172308,1.09710692,,,,
YAY,3,0,2024-06-22T16:12:10.035Z,english_669.wav,0,1,201,6,0.6,-64.88013083,1.91297745,,,,
YAY,3,0,2024-06-22T16:12:10.035Z,english_669.wav,0,1,201,7,0.7,26.66035036,1.12487674,,,,
YAY,3,0,2024-06-22T16:12:10.035Z,english_669.wav,0,1,201,8,0.8,-43.66675722,0.95542007,,,,
YAY,3,0,2024-06-22T16:12:10.035Z,english_669.wav,0,1,201,9,0.9,4.29997564,1.3922733,,,,
YAY,3,0,2024-06-22T16:12:10.035Z,english_669.wav,0,1,201,10,1,-68.31489554,1.61053031,,,,
YAY,3,0,2024-06-22T16:12:10.035Z,english_669.wav,0,1,201,11,1.09391667,-65.69487781,0.28856802,,,,
YAY,4,0,2024-06-22T16:12:10.035Z,english_325.wav,0,1,397,0,0,-6.61362073,0.69132615,,,,
YAY,4,0,2024-06-22T16:12:10.035Z,english_325.wav,0,1,397,1,0.1,16.0389953,1.70453966,,,,
YAY,4,0,2024-06-22T16:12:10.035Z,english_325.wav,0,1,397,2,0.2,-15.26495654,1.15898488,,,,
YAY,4,0,2024-06-22T16:12:10.035Z,english_325.wav,0,1,397,3,0.3,-82.62165142,0.76725677,,,,
YAY,4,0,2024-06-22T16:12:10.035Z,english_325.wav,0,1,397,4,0.4,85.7387579,1.1728167,,,,
YAY,4,0,2024-06-22T16:12:10.035Z,english_325.wav,0,1,397,5,0.5,15.3822882,1.82028555,,,,
YAY,4,0,2024-06-22T16:12:10.035Z,english_325.wav,0,1,397,6,0.6,-26.54266781,1.83292981,,,,
YAY,4,0,2024-06-22T16:12:10.035Z,english_325.wav,0,1,397,7,0.7,-60.18579541,1.929681,,,,
YAY,4,0,2024-06-22T16:12:10.035Z,english_325.wav,0,1,397,8,0.8,-28.6472792,0.83713433,,,,
YAY,4,0,2024-06-22T16:12:10.035Z,english_325.wav,0,1,397,9,0.9,66.02417384,0.85579123,,,,
YAY,4,0,2024-06-22T16:12:10.035Z,english_325.wav,0,1,397,10,1,39.52898261,1.16758419,,,,
YAY,4,0,2024-06-22T16:12:10.035Z,english_325.wav,0,1,397,11,1.09391667,-19.70187517,1.84761063,,,,
YAY,5,0,2024-06-22T16:12:10.035Z,english_726.wav,0,0,391,0,0,23.35137092,0.15397845,,,,
YAY,5,0,2024-06-22T16:12:10.035Z,english_726.wav,0,0,391,1,0.1,76.34325819,1.80908671,,,,
YAY,5,0,2024-06-22T16:12:10.035Z,english_726.wav,0,0,391,2,0.2,77.87153215,0.91237222,,,,
YAY,5,0,2024-06-22T16:12:10.035Z,english_726.wav,0,0,391,3,0.3,45.89033074,0.3916486,,,,
YAY,5,0,2024-06-22T16:12:10.035Z,english_726.wav,0,0,391,4,0.4,-92.46008591,1.60354114,,,,
YAY,5,0,2024-06-22T16:12:10.035Z,english_726.wav,0,0,391,5,0.5,-89.27810563,0.90173572,,,,
YAY,5,0,2024-06-22T16:12:10.035Z,english_726.wav,0,0,391,6,0.6,61.30206765,1.86939155,,,,
YAY,5,0,2024-06-22T16:12:10.035Z,english_726.wav,0,0,391,7,0.7,68.07705407,0.57523975,,,,
YAY,5,0,2024-06-22T16:12:10.035Z,english_726.wav,0,0,391,8,0.8,47.81218941,0.88835081,,,,
YAY,5,0,2024-06-22T16:12:10.035Z,english_726.wav,0,0,391,9,0.9,85.67647673,0.33175344,,,,
YAY,5,0,2024-06-22T16:12:10.035Z,english_726.wav,0,0,391,10,1,69.08166842,0.8335266,,,,
YAY,5,0,2024-06-22T16:12:10.035Z,english_726.wav,0,0,391,11,1.09391667,71.61978118,0.36613886,,,,
YAY,6,0,2024-06-22T16:12:10.035Z,english_326.wav,0,0,159,0,0,-43.10917618,0.92818159,,,,
YAY,6,0,2024-06-22T16:12:10.035Z,english_326.wav,0,0,159,1,0.1,51.71010142,0.32622589,,,,
YAY,6,0,2024-06-22T16:12:10.035Z,english_326.wav,0,0,159,2,0.2,-51.98898793,0.25183357,,,,
YAY,6,0,2024-06-22T16:12:10.035Z,english_326.wav,0,0,159,3,0.3,-88.25420689,0.15547956,,,,
YAY,6,0,2024-06-22T16:12:10.035Z,english_326.wav,0,0,159,4,0.4,-29.81917635,0.54551317,,,,
YAY,6,0,2024-06-22T16:12:10.035Z,english_326.wav,0,0,159,5,0.5,-40.02564907,0.579881,,,,
YAY,6,0,2024-06-22T16:12:10.035Z,english_326.wav,0,0,159,6,0.6,-80.61031076,0.72251342,,,,
YAY,6,0,2024-06-22T16:12:10.035Z,english_326.wav,0,0,159,7,0.7,27.73097561,1.44758164,,,,
YAY,6,0,2024-06-22T16:12:10.035Z,english_326.wav,0,0,159,8,0.8,86.25406042,1.07961509,,,,
YAY,6,0,2024-06-22T16:12:10.035Z,english_326.wav,0,0,159,9,0.9,-98.97965016,1.11677138,,,,
YAY,6,0,2024-06-22T16:12:10.035Z,english_326.wav,0,0,159,10,1,-32.16564668,0.90130016,,,,
YAY,6,0,2024-06-22T16:12:10.035Z,english_326.wav,0,0,159,11,1.09391667,-99.19861207,0.29135461,,,,
YAY,7,0,2024-06-22T16:12:10.035Z,english_758.wav,0,1,366,0,0,44.67997232,1.19309781,,,,
YAY,7,0,2024-06-22T16:12:10.035Z,english_758.wav,0,1,366,1,0.1,27.10099403,0.27221696,,,,
YAY,7,0,2024-06-22T16:12:10.035Z,english_758.wav,0,1,366,2,0.2,-48.30493583,0.58591156,,,,
YAY,7,0,2024-06-22T16:12:10.035Z,english_758.wav,0,1,366,3,0.3,-73.5260898,1.06118241,,,,
YAY,7,0,2024-06-22T16:12:10.035Z,english_758.wav,0,1,366,4,0.4,19.32057449,1.53382291,,,,
YAY,7,0,2024-06-22T16:12:10.035Z,english_758.wav,0,1,366,5,0.5,-32.65273306,1.10934516,,,,
YAY,7,0,2024-06-22T16:12:10.035Z,english_758.wav,0,1,366,6,0.6,-67.58997162,1.53621874,,,,
YAY,7,0,2024-06-22T16:12:10.035Z,english_758.wav,0,1,366,7,0.7,-76.10184919,0.32907917,,,,
YAY,7,0,2024-06-22T16:12:10.035Z,english_758.wav,0,1,366,8,0.8,55.20632284,0.47500698,,,,
YAY,7,0,2024-06-22T16:12:10.035Z,english_758.wav,0,1,366,9,0.9,3.61347388,1.81944253,,,,
YAY,7,0,2024-06-22T16:12:10.035Z,english_758.wav,0,1,366,10,1,-39.33689268,1.02148435,,,,
YAY,7,0,2024-06-22T16:12:10.035Z,english_758.wav,0,1,366,11,1.09391667,44.43004874,0.12347796,,,,
YAY,8,0,2024-06-22T16:12:10.035Z,english_109.wav,0,0,710,0,0,-85.35755776,0.86429356,,,,
YAY,8,0,2024-06-22T16:12:10.035Z,english_109.wav,0,0,710,1,0.1,24.87794389,1.54320329,,,,
YAY,8,0,2024-06-22T16:12:10.035Z,english_109.wav,0,0,710,2,0.2,88.66282845,0.73186937,,,,
YAY,8,0,2024-06-22T16:12:10.035Z,english_109.wav,0,0,710,3,0.3,53.91159302,0.759779,,,,
YAY,8,0,2024-06-22T16:12:10.035Z,english_109.wav,0,0,710,4,0.4,-2.76092074,1.4946261,,,,
YAY,8,0,2024-06-22T16:12:10.035Z,english_109.wav,0,0,710,5,0.5,79.99538148,1.48350308,,,,
YAY,8,0,2024-06-22T16:12:10.035Z,english_109.wav,0,0,710,6,0.6,-42.31150981,1.90894472,,,,
YAY,8,0,2024-06-22T16:12:10.035Z,english_109.wav,0,0,710,7,0.7,-5.15781481,0.02998442,,,,
YAY,8,0,2024-06-22T16:12:10.035Z,english_109.wav,0,0,710,8,0.8,31.3978044,0.89047781,,,,
YAY,8,0,2024-06-22T16:12:10.035Z,english_109.wav,0,0,710,9,0.9,46.94636463,1.05504638,,,,
YAY,8,0,2024-06-22T16:12:10.035Z,english_109.wav,0,0,710,10,1,63.69340257,0.96709735,,,,
YAY,8,0,2024-06-22T16:12:10.035Z,english_109.wav,0,0,710,11,1.09391667,10.97812261,0.43676298,,,,
YAY,9,0,2024-06-22T16:12:10.035Z,english_98.wav,0,0,472,0,0,-38.17071081,1.32171021,,,,
YAY,9,0,2024-06-22T16:12:10.035Z,english_98.wav,0,0,472,1,0.1,3.99117813,0.45941391,,,,
YAY,9,0,2024-06-22T16:12:10.035Z,english_98.wav,0,0,472,2,0.2,76.94779223,1.60836627,,,,
YAY,9,0,2024-06-22T16:12:10.035Z,english_98.wav,0,0,472,3,0.3,-47.40720284,0.02861918,,,,
YAY,9,0,2024-06-22T16:12:10.035Z,english_98.wav,0,0,472,4,0.4,60.49673758,0.62913144,,,,
YAY,9,0,2024-06-22T16:12:10.035Z,english_98.wav,0,0,472,5,0.5,-72.0425771,0.32921161,,,,
YAY,9,0,2024-06-22T16:12:10.035Z,english_98.wav,0,0,472,6,0.6,75.35793907,0.47491973,,,,
YAY,9,0,2024-06-22T16:12:10.035Z,english_98.wav,0,0,472,7,0.7,-37.84878225,1.13024742,,,,
YAY,9,0,2024-06-22T16:12:10.035Z,english_98.wav,0,0,472,8,0.8,-2.2661701,1.3276578,,,,
YAY,9,0,2024-06-22T16:12:10.035Z,english_98.wav,0,0,472,9,0.9,-10.24921113,0.74289268,,,,
YAY,9,0,2024-06-22T16:12:10.035Z,english_98.wav,0,0,472,10,1,2.65052449,0.21343851,,,,
YAY,9,0,2024-06-22T16:12:10.035Z,english_98.wav,0,0,472,11,1.09391667,-59.74440562,0.54238322,,,,
YAY,10,0,2024-06-22T16:12:10.035Z,english_353.wav,0,1,310,0,0,-70.67724429,1.06843483,,,,
YAY,10,0,2024-06-22T16:12:10.035Z,english_353.wav,0,1,310,1,0.1,-71.688049,0.77169117,,,,
YAY,10,0,2024-06-22T16:12:10.035Z,english_353.wav,0,1,310,2,0.2,35.51924952,1.46248358,,,,
YAY,10,0,2024-06-22T16:12:10.035Z,english_353.wav,0,1,310,3,0.3,-2.11218413,1.49078151,,,,
YAY,10,0,2024-06-22T16:12:10.035Z,english_353.wav,0,1,310,4,0.4,-16.43862389,1.12150818,,,,
YAY,10,0,2024-06-22T16:12:10.035Z,english_353.wav,0,1,310,5,0.5,42.52341858,1.51009479,,,,
YAY,10,0,2024-06-22T16:12:10.035Z,english_353.wav,0,1,310,6,0.6,-45.01562353,1.56291015,,,,
YAY,10,0,2024-06-22T16:12:10.035Z,english_353.wav,0,1,310,7,0.7,41.4367476,1.91892948,,,,
YAY,10,0,2024-06-22T16:12:10.035Z,english_353.wav,0,1,310,8,0.8,-7.80846777,1.01197455,,,,
YAY,10,0,2024-06-22T16:12:10.035Z,english_353.wav,0,1,310,9,0.9,42.15448352,1.4134273,,,,
YAY,10,0,2024-06-22T16:12:10.035Z,english_353.wav,0,1,310,10,1,92.0591742,1.42236133,,,,
YAY,10,0,2024-06-22T16:12:10.035Z,english_353.wav,0,1,310,11,1.09391667,-12.12221809,0.78816947,,,,
YAY,11,0,2024-06-22T16:12:10.035Z,english_923.wav,0,1,284,0,0,93.2289474,1.70020423,,,,
YAY,11,0,2024-06-22T16:12:10.035Z,english_923.wav,0,1,284,1,0.1,-90.20705496,1.01222006,,,,
YAY,11,0,2024-06-22T16:12:10.035Z,english_923.wav,0,1,284,2,0.2,-39.60180218,0.78975297,,,,
YAY,11,0,2024-06-22T16:12:10.035Z,english_923.wav,0,1,284,3,0.3,80.82184167,0.55346402,,,,
YAY,11,0,2024-06-22T16:12:10.035Z,english_923.wav,0,1,284,4,0.4,-9.151808,0.82944294,,,,
YAY,11,0,2024-06-22T16:12:10.035Z,english_923.wav,0,1,284,5,0.5,26.58775585,1.08031611,,,,
YAY,11,0,2024-06-22T16:12:10.035Z,english_923.wav,0,1,284,6,0.6,6.23734234,0.85830077,,,,
YAY,11,0,2024-06-22T16:12:10.035Z,english_923.wav,0,1,284,7,0.7,72.65407882,1.16981472,,,,
YAY,11,0,2024-06-22T16:12:10.035Z,english_923.wav,0,1,284,8,0.8,-19.39856568,1.72430236,,,,
YAY,11,0,2024-06-22T16:12:10.035Z,english_923.wav,0,1,284,9,0.9,-78.04150402,0.87754791,,,,
YAY,11,0,2024-06-22T16:12:10.035Z,english_923.wav,0,1,284,10,1,32.81309653,1.2494211,,,,
YAY,11,0,2024-06-22T16:12:10.035Z,english_923.wav,0,1,284,11,1.09391667,90.62685446,1.97603122,,,,
YAY,12,0,2024-06-22T16:12:10.035Z,english_591.wav,0,0,670,0,0,-33.59942656,0.74847219,,,,
YAY,12,0,2024-06-22T16:12:10.035Z,english_591.wav,0,0,670,1,0.1,-41.84333916,1.40230026,,,,
YAY,12,0,2024-06-22T16:12:10.035Z,english_591.wav,0,0,670,2,0.2,-40.30789258,1.16814049,,,,
YAY,12,0,2024-06-22T16:12:10.035Z,english_591.wav,0,0,670,3,0.3,97.61230048,0.39427788,,,,
YAY,12,0,2024-06-22T16:12:10.035Z,english_591.wav,0,0,670,4,0.4,-42.50162748,0.29523071,,,,
YAY,12,0,2024-06-22T16:12:10.035Z,english_591.wav,0,0,670,5,0.5,-1.77866558,0.85786838,,,,
YAY,12,0,2024-06-22T16:12:10.035Z,english_591.wav,0,0,670,6,0.6,0.70986705,1.07664541,,,,
YAY,12,0,2024-06-22T16:12:10.035Z,english_591.wav,0,0,670,7,0.7,34.96717961,1.03582874,,,,
YAY,12,0,2024-06-22T16:12:10.035Z,english_591.wav,0,0,670,8,0.8,-92.90998765,1.47906255,,,,
YAY,12,0,2024-06-22T16:12:10.035Z,english_591.wav,0,0,670,9,0.9,-56.37241834,1.68040409,,,,
YAY,12,0,2024-06-22T16:12:10.035Z,english_591.wav,0,0,670,10,1,5.28111122,0.00212421,,,,
YAY,12,0,2024-06-22T16:12:10.035Z,english_591.wav,0,0,670,11,1.09391667,-12.0144277,0.47626778,,,,
YAY,13,0,2024-06-22T16:12:10.035Z,english_842.wav,0,1,1471,0,0,-81.72100022,1.05096469,,,,
YAY,13,0,2024-06-22T16:12:10.035Z,english_842.wav,0,1,1471,1,0.1,18.84637506,0.68369723,,,,
YAY,13,0,2024-06-22T16:12:10.035Z,english_842.wav,0,1,1471,2,0.2,-80.18621681,1.52749806,,,,
YAY,13,0,2024-06-22T16:12:10.035Z,english_842.wav,0,1,1471,3,0.3,38.99509662,0.81526033,,,,
YAY,13,0,2024-06-22T16:12:10.035Z,english_842.wav,0,1,1471,4,0.4,24.76840986,1.70702662,,,,
YAY,13,0,2024-06-22T16:12:10.035Z,english_842.wav,0,1,1471,5,0.5,-19.71585535,1.05576458,,,,
YAY,13,0,2024-06-22T16:12:10.035Z,english_842.wav,0,1,1471,6,0.6,69.03077802,0.15620837,,,,
YAY,13,0,2024-06-22T16:12:10.035Z,english_842.wav,0,1,1471,7,0.7,35.91349986,1.43624924,,,,
YAY,13,0,2024-06-22T16:12:10.035Z,english_842.wav,0,1,1471,8,0.8,-27.17447615,0.34293919,,,,
YAY,13,0,2024-06-22T16:12:10.035Z,english_842.wav,0,1,1471,9,0.9,-26.64790606,1.32305508,,,,
YAY,13,0,2024-06-22T16:12:10.035Z,english_842.wav,0,1,1471,10,1,27.41987323,1.04384127,,,,
YAY,13,0,2024-06-22T16:12:10.035Z,english_842.wav,0,1,1471,11,1.09391667,30.72990316,1.55933633,,,,
YAY,14,0,2024-06-22T16:12:10.035Z,english_779.wav,0,0,385,0,0,2.5732513,1.647041,,,,
YAY,14,0,2024-06-22T16:12:10.035Z,english_779.wav,0,0,385,1,0.1,65.46905282,1.84593927,,,,
YAY,14,0,2024-06-22T16:12:10.035Z,english_779.wav,0,0,385,2,0.2,71.19594141,0.45510565,,,,
YAY,14,0,2024-06-22T16:12:10.035Z,english_779.wav,0,0,385,3,0.3,60.39832791,1.01795959,,,,
YAY,14,0,2024-06-22T16:12:10.035Z,english_779.wav,0,0,385,4,0.4,-88.69626856,0.08128748,,,,
YAY,14,0,2024-06-22T16:12:10.035Z,english_779.wav,0,0,385,5,0.5,88.13724484,1.92668947,,,,
YAY,14,0,2024-06-22T16:12:10.035Z,english_779.wav,0,0,385,6,0.6,-21.3716901,0.83024876,,,,
YAY,14,0,2024-06-22T16:12:10.035Z,english_779.wav,0,0,385,7,0.7,50.45377943,1.4170414,,,,
YAY,14,0,2024-06-22T16:12:10.035Z,english_779.wav,0,0,385,8,0.8,88.14580375,1.13372324,,,,
YAY,14,0,2024-06-22T16:12:10.035Z,english_779.wav,0,0,385,9,0.9,-75.16546804,0.91489346,,,,
YAY,14,0,2024-06-22T16:12:10.035Z,english_779.wav,0,0,385,10,1,-15.63730308,0.03287719,,,,
YAY,14,0,2024-06-22T16:12:10.035Z,english_779.wav,0,0,385,11,1.09391667,-11.80666885,1.28058258,,,,
YAY,15,0,2024-06-22T16:12:10.035Z,english_31.wav,0,1,247,0,0,27.66535658,1.77982522,,,,
YAY,15,0,2024-06-22T16:12:10.035Z,english_31.wav,0,1,247,1,0.1,13.56694794,1.07162792,,,,
YAY,15,0,2024-06-22T16:12:10.035Z,english_31.wav,0,1,247,2,0.2,18.47033094,0.18234571,,,,
YAY,15,0,2024-06-22T16:12:10.035Z,english_31.wav,0,1,247,3,0.3,59.04276692,1.10955417,,,,
YAY,15,0,2024-06-22T16:12:10.035Z,english_31.wav,0,1,247,4,0.4,-91.09157625,1.72425302,,,,
YAY,15,0,2024-06-22T16:12:10.035Z,english_31.wav,0,1,247,5,0.5,-18.02658585,0.5579513,,,,
YAY,15,0,2024-06-22T16:12:10.035Z,english_31.wav,0,1,247,6,0.6,-35.60184109,1.93053319,,,,
YAY,15,0,2024-06-22T16:12:10.035Z,english_31.wav,0,1,247,7,0.7,54.26515106,1.77971636,,,,
YAY,15,0,2024-06-22T16:12:10.035Z,english_31.wav,0,1,247,8,0.8,-22.38727861,0.37301738,,,,
YAY,15,0,2024-06-22T16:12:10.035Z,english_31.wav,0,1,247,9,0.9,43.77933905,1.40160657,,,,
YAY,15,0,2024-06-22T16:12:10.035Z,english_31.wav,0,1,247,10,1,18.37090143,0.31959468,,,,
YAY,15,0,2024-06-22T16:12:10.035Z,english_31.wav,0,1,247,11,1.09391667,6.84824494,1.79655945,,,,
YAY,16,0,2024-06-22T16:12:10.035Z,english_788.wav,0,1,1603,0,0,17.89309058,1.04861509,,,,
YAY,16,0,2024-06-22T16:12:10.035Z,english_788.wav,0,1,1603,1,0.1,71.29743237,1.67595733,,,,
YAY,16,0,2024-06-22T16:12:10.035Z,english_788.wav,0,1,1603,2,0.2,-58.86773575,0.86315506,,,,
YAY,16,0,2024-06-22T16:12:10.035Z,english_788.wav,0,1,1603,3,0.3,-79.26718247,0.41984481,,,,
YAY,16,0,2024-06-22T16:12:10.035Z,english_788.wav,0,1,1603,4,0.4,35.72874859,0.95404094,,,,
YAY,16,0,2024-06-22T16:12:10.035Z,english_788.wav,0,1,1603,5,0.5,-14.77309026,0.45544588,,,,
YAY,16,0,2024-06-22T16:12:10.035Z,english_788.wav,0,1,1603,6,0.6,-78.45807111,0.07788433,,,,
YAY,16,0,2024-06-22T16:12:10.035Z,english_788.wav,0,1,1603,7,0.7,40.66379457,0.7267532,,,,
YAY,16,0,2024-06-22T16:12:10.035Z,english_788.wav,0,1,1603,8,0.8,51.99524397,1.61048189,,,,
YAY,16,0,2024-06-22T16:12:10.035Z,english_788.wav,0,1,1603,9,0.9,23.30304068,1.83471325,,,,
YAY,16,0,2024-06-22T16:12:10.035Z,english_788.wav,0,1,1603,10,1,87.05916465,1.60214946,,,,
YAY,16,0,2024-06-22T16:12:10.035Z,english_788.wav,0,1,1603,11,1.09391667,-42.18000877,1.51632908,,,,
YAY,17,0,2024-06-22T16:12:10.035Z,english_698.wav,0,0,88,0,0,-98.49976842,0.43179997,,,,
YAY,17,0,2024-06-22T16:12:10.035Z,english_698.wav,0,0,88,1,0.1,97.00885889,1.41337894,,,,
YAY,17,0,2024-06-22T16:12:10.035Z,english_698.wav,0,0,88,2,0.2,54.87082892,1.17184634,,,,
YAY,17,0,2024-06-22T16:12:10.035Z,english_698.wav,0,0,88,3,0.3,-24.25113459,0.60534302,,,,
YAY,17,0,2024-06-22T16:12:10.035Z,english_698.wav,0,0,88,4,0.4,-19.41361559,1.24831976,,,,
YAY,17,0,2024-06-22T16:12:10.035Z,english_698.wav,0,0,88,5,0.5,38.63477703,1.39113252,,,,
YAY,17,0,2024-06-22T16:12:10.035Z,english_698.wav,0,0,88,6,0.6,-31.74740997,1.28562889,,,,
YAY,17,0,2024-06-22T16:12:10.035Z,english_698.wav,0,0,88,7,0.7,75.16156156,1.10433052,,,,
YAY,17,0,2024-06-22T16:12:10.035Z,english_698.wav,0,0,88,8,0.8,41.06057046,1.08053659,,,,
YAY,17,0,2024-06-22T16:12:10.035Z,english_698.wav,0,0,88,9,0.9,-30.65402234,1.52582563,,,,
YAY,17,0,2024-06-22T16:12:10.035Z,english_698.wav,0,0,88,10,1,-13.5987644,0.95244876,,,,
YAY,17,0,2024-06-22T16:12:10.035Z,english_698.wav,0,0,88,11,1.09391667,-10.25655958,1.39681887,,,,
YAY,18,0,2024-06-22T16:12:10.035Z,english_985.wav,0,1,616,0,0,-83.24919271,0.45698213,,,,
YAY,18,0,2024-06-22T16:12:10.035Z,english_985.wav,0,1,616,1,0.1,-61.40218693,1.0383787,,,,
YAY,18,0,2024-06-22T16:12:10.035Z,english_985.wav,0,1,616,2,0.2,75.6831096,1.83439409,,,,
YAY,18,0,2024-06-22T16:12:10.035Z,english_985.wav,0,1,616,3,0.3,-83.55103169,1.46493433,,,,
YAY,18,0,2024-06-22T16:12:10.035Z,english_985.wav,0,1,616,4,0.4,-76.60569971,0.92668276,,,,
YAY,18,0,2024-06-22T16:12:10.035Z,english_985.wav,0,1,616,5,0.5,93.43834668,1.27852145,,,,
YAY,18,0,2024-06-22T16:12:10.035Z,english_985.wav,0,1,616,6,0.6,46.86841289,1.04356397,,,,
YAY,18,0,2024-06-22T16:12:10.035Z,english_985.wav,0,1,616,7,0.7,11.38653049,1.03370788,,,,
YAY,18,0,2024-06-22T16:12:10.035Z,english_985.wav,0,1,616,8,0.8,5.98716874,0.43255879,,,,
YAY,18,0,2024-06-22T16:12:10.035Z,english_985.wav,0,1,616,9,0.9,6.47503028,0.84647211,,,,
YAY,18,0,2024-06-22T16:12:10.035Z,english_985.wav,0,1,616,10,1,53.75316558,1.92237121,,,,
YAY,18,0,2024-06-22T16:12:10.035Z,english_985.wav,0,1,616,11,1.09391667,-17.57703362,0.19853323,,,,
YAY,19,0,2024-06-22T16:12:10.035Z,english_70.wav,0,1,1079,0,0,84.7445928,1.85159723,,,,
YAY,19,0,2024-06-22T16:12:10.035Z,english_70.wav,0,1,1079,1,0.1,-17.05936153,0.49913073,,,,
YAY,19,0,2024-06-22T16:12:10.035Z,english_70.wav,0,1,1079,2,0.2,48.77629579,1.2524697,,,,
YAY,19,0,2024-06-22T16:12:10.035Z,english_70.wav,0,1,1079,3,0.3,-37.18095977,1.90044367,,,,
YAY,19,0,2024-06-22T16:12:10.035Z,english_70.wav,0,1,1079,4,0.4,49.63064657,0.54300229,,,,
YAY,19,0,2024-06-22T16:12:10.035Z,english_70.wav,0,1,1079,5,0.5,-62.82111716,1.34279252,,,,
YAY,19,0,2024-06-22T16:12:10.035Z,english_70.wav,0,1,1079,6,0.6,35.10101602,1.14641918,,,,
YAY,19,0,2024-06-22T16:12:10.035Z,english_70.wav,0,1,1079,7,0.7,-40.08264695,0.66805918,,,,
YAY,19,0,2024-06-22T16:12:10.035Z,english_70.wav,0,1,1079,8,0.8,35.78231672,1.02673009,,,,
YAY,19,0,2024-06-22T16:12:10.035Z,english_70.wav,0,1,1079,9,0.9,-49.57858266,1.60161004,,,,
YAY,19,0,2024-06-22T16:12:10.035Z,english_70.wav,0,1,1079,10,1,-49.37995814,1.69848543,,,,
YAY,19,0,2024-06-22T16:12:10.035Z,english_70.wav,0,1,1079,11,1.09391667,20.96821744,0.40967928,,,,
YAY,20,0,2024-06-22T16:12:10.035Z,english_686.wav,0,0,685,0,0,-67.05425971,1.70124543,,,,
YAY,20,0,2024-06-22T16:12:10.035Z,english_686.wav,0,0,685,1,0.1,-39.97086024,0.46826984,,,,
YAY,20,0,2024-06-22T16:12:10.035Z,english_686.wav,0,0,685,2,0.2,-95.68334926,0.38007699,,,,
YAY,20,0,2024-06-22T16:12:10.035Z,english_686.wav,0,0,685,3,0.3,95.25173903,1.75748907,,,,
YAY,20,0,2024-06-22T16:12:10.035Z,english_686.wav,0,0,685,4,0.4,-32.8311948,0.73728226,,,,
YAY,20,0,2024-06-22T16:12:10.035Z,english_686.wav,0,0,685,5,0.5,-48.95766653,0.66391126,,,,
YAY,20,0,2024-06-22T16:12:10.035Z,english_686.wav,0,0,685,6,0.6,1.46673541,0.49234924,,,,
YAY,20,0,2024-06-22T16:12:10.035Z,english_686.wav,0,0,685,7,0.7,2.82521342,1.58569933,,,,
YAY,20,0,2024-06-22T16:12:10.035Z,english_686.wav,0,0,685,8,0.8,-50.40490355,0.73602174,,,,
YAY,20,0,2024-06-22T16:12:10.035Z,english_686.wav,0,0,685,9,0.9,-13.31081272,0.69160948,,,,
YAY,20,0,2024-06-22T16:12:10.035Z,english_686.wav,0,0,685,10,1,86.45331077,1.60918627,,,,
YAY,20,0,2024-06-22T16:12:10.035Z,english_686.wav,0,0,685,11,1.09391667,27.45785802,0.82158227,,,,
YAY,21,0,2024-06-22T16:12:10.035Z,english_811.wav,0,1,559,0,0,-74.87697924,0.45507787,,,,
YAY,21,0,2024-06-22T16:12:10.035Z,english_811.wav,0,1,559,1,0.1,96.86117413,1.76793824,,,,
YAY,21,0,2024-06-22T16:12:10.035Z,english_811.wav,0,1,559,2,0.2,10.72305858,0.84862028,,,,
YAY,21,0,2024-06-22T16:12:10.035Z,english_811.wav,0,1,559,3,0.3,48.56085209,0.62727309,,,,
YAY,21,0,2024-06-22T16:12:10.035Z,english_811.wav,0,1,559,4,0.4,-99.82729779,1.03490246,,,,
YAY,21,0,2024-06-22T16:12:10.035Z,english_811.wav,0,1,559,5,0.5,79.99074979,1.90507478,,,,
YAY,21,0,2024-06-22T16:12:10.035Z,english_811.wav,0,1,559,6,0.6,-9.67190631,0.06135305,,,,
YAY,21,0,2024-06-22T16:12:10.035Z,english_811.wav,0,1,559,7,0.7,-89.53034614,0.24955368,,,,
YAY,21,0,2024-06-22T16:12:10.035Z,english_811.wav,0,1,559,8,0.8,84.53947336,0.72917007,,,,
YAY,21,0,2024-06-22T16:12:10.035Z,english_811.wav,0,1,559,9,0.9,-76.82386536,1.5042388,,,,
YAY,21,0,2024-06-22T16:12:10.035Z,english_811.wav,0,1,559,10,1,-19.04963958,1.60193394,,,,
YAY,21,0,2024-06-22T16:12:10.035Z,english_811.wav,0,1,559,11,1.09391667,78.79317252,0.72084905,,,,
YAY,22,0,2024-06-22T16:12:10.035Z,english_429.wav,0,0,1642,0,0,35.99149225,1.15996834,,,,
YAY,22,0,2024-06-22T16:12:10.035Z,english_429.wav,0,0,1642,1,0.1,-74.15243919,1.78612781,,,,
YAY,22,0,2024-06-22T16:12:10.035Z,english_429.wav,0,0,1642,2,0.2,-66.98958389,1.07132938,,,,
YAY,22,0,2024-06-22T16:12:10.035Z,english_429.wav,0,0,1642,3,0.3,-17.85195751,0.01687876,,,,
YAY,22,0,2024-06-22T16:12:10.035Z,english_429.wav,0,0,1642,4,0.4,-73.89259621,0.18602523,,,,
YAY,22,0,2024-06-22T16:12:10.035Z,english_429.wav,0,0,1642,5,0.5,79.15421071,1.63202806,,,,
YAY,22,0,2024-06-22T16:12:10.035Z,english_429.wav,0,0,1642,6,0.6,-46.04257139,0.71186645,,,,
YAY,22,0,2024-06-22T16:12:10.035Z,english_429.wav,0,0,1642,7,0.7,-20.15951385,1.59705108,,,,
YAY,22,0,2024-06-22T16:12:10.035Z,english_429.wav,0,0,1642,8,0.8,-88.88014071,0.92556725,,,,
YAY,22,0,2024-06-22T16:12:10.035Z,english_429.wav,0,0,1642,9,0.9,85.9209564,1.19440403,,,,
YAY,22,0,2024-06-22T16:12:10.035Z,english_429.wav,0,0,1642,10,1,-45.56975308,1.44802402,,,,
YAY,22,0,2024-06-22T16:12:10.035Z,english_429.wav,0,0,1642,11,1.09391667,-32.13799224,1.37788661,,,,
YAY,23,0,2024-06-22T16:12:10.035Z,english_142.wav,0,0,427,0,0,31.11671536,1.24679721,,,,
YAY,23,0,2024-06-22T16:12:10.035Z,english_142.wav,0,0,427,1,0.1,14.00827892,0.65366655,,,,
YAY,23,0,2024-06-22T16:12:10.035Z,english_142.wav,0,0,427,2,0.2,90.23748413,1.20113331,,,,
YAY,23,0,2024-06-22T16:12:10.035Z,english_142.wav,0,0,427,3,0.3,82.30944071,1.60444487,,,,
YAY,23,0,2024-06-22T16:12:10.035Z,english_142.wav,0,0,427,4,0.4,-1.47145923,1.29279254,,,,
YAY,23,0,2024-06-22T16:12:10.035Z,english_142.wav,0,0,427,5,0.5,55.17460753,0.91831488,,,,
YAY,23,0,2024-06-22T16:12:10.035Z,english_142.wav,0,0,427,6,0.6,26.61999518,0.78219664,,,,
YAY,23,0,2024-06-22T16:12:10.035Z,english_142.wav,0,0,427,7,0.7,-9.70687044,0.08870339,,,,
YAY,23,0,2024-06-22T16:12:10.035Z,english_142.wav,0,0,427,8,0.8,45.29559585,1.29591766,,,,
YAY,23,0,2024-06-22T16:12:10.035Z,english_142.wav,0,0,427,9,0.9,-14.38709872,0.90292953,,,,
YAY,23,0,2024-06-22T16:12:10.035Z,english_142.wav,0,0,427,10,1,-22.51804374,0.84738987,,,,
YAY,23,0,2024-06-22T16:12:10.035Z,english_142.wav,0,0,427,11,1.09391667,56.35505814,0.22793797,,,,
YAY,24,0,2024-06-22T16:12:10.035Z,english_636.wav,0,0,668,0,0,67.71914356,0.71351394,,,,
YAY,24,0,2024-06-22T16:12:10.035Z,english_636.wav,0,0,668,1,0.1,73.23750135,0.58810626,,,,
YAY,24,0,2024-06-22T16:12:10.035Z,english_636.wav,0,0,668,2,0.2,-94.77637622,0.12310704,,,,
YAY,24,0,2024-06-22T16:12:10.035Z,english_636.wav,0,0,668,3,0.3,41.8095849,0.24518537,,,,
YAY,24,0,2024-06-22T16:12:10.035Z,english_636.wav,0,0,668,4,0.4,44.54848263,1.96939905,,,,
YAY,24,0,2024-06-22T16:12:10.035Z,english_636.wav,0,0,668,5,0.5,-87.10854597,1.82615159,,,,
YAY,24,0,2024-06-22T16:12:10.035Z,english_636.wav,0,0,668,6,0.6,12.76932042,0.20211228,,,,
YAY,24,0,2024-06-22T16:12:10.035Z,english_636.wav,0,0,668,7,0.7,-15.47844842,0.69598299,,,,
YAY,24,0,2024-06-22T16:12:10.035Z,english_636.wav,0,0,668,8,0.8,-27.08826091,0.43499073,,,,
YAY,24,0,2024-06-22T16:12:10.035Z,english_636.wav,0,0,668,9,0.9,-8.55837042,1.83264506,,,,
YAY,24,0,2024-06-22T16:12:10.035Z,english_636.wav,0,0,668,10,1,62.11399846,0.36387194,,,,
YAY,24,0,2024-06-22T16:12:10.035Z,english_636.wav,0,0,668,11,1.09391667,1.57014334,0.65195864,,,,
YAY,25,0,2024-06-22T16:12:10.035Z,english_9.wav,0,0,825,0,0,-96.61203468,1.48407489,,,,
YAY,25,0,2024-06-22T16:12:10.035Z,english_9.wav,0,0,825,1,0.1,27.77418146,0.71089129,,,,
YAY,25,0,2024-06-22T16:12:10.035Z,english_9.wav,0,0,825,2,0.2,-42.79973111,1.02276586,,,,
YAY,25,0,2024-06-22T16:12:10.035Z,english_9.wav,0,0,825,3,0.3,52.67007286,0.94605025,,,,
YAY,25,0,2024-06-22T16:12:10.035Z,english_9.wav,0,0,825,4,0.4,-77.37689486,1.64255066,,,,
YAY,25,0,2024-06-22T16:12:10.035Z,english_9.wav,0,0,825,5,0.5,22.33265825,1.1767353,,,,
YAY,25,0,2024-06-22T16:12:10.035Z,english_9.wav,0,0,825,6,0.6,-21.53246611,1.24238606,,,,
YAY,25,0,2024-06-22T16:12:10.035Z,english_9.wav,0,0,825,7,0.7,11.78226484,0.92864334,,,,
YAY,25,0,2024-06-22T16:12:10.035Z,english_9.wav,0,0,825,8,0.8,-45.34236124,1.13602565,,,,
YAY,25,0,2024-06-22T16:12:10.035Z,english_9.wav,0,0,825,9,0.9,55.83053399,1.46898539,,,,
YAY,25,0,2024-06-22T16:12:10.035Z,english_9.wav,0,0,825,10,1,-0.17077069,1.30855548,,,,
YAY,25,0,2024-06-22T16:12:10.035Z,english_9.wav,0,0,825,11,1.09391667,-99.58545301,1.24881599,,,,
YAY,26,0,2024-06-22T16:12:10.035Z,english_938.wav,0,0,816,0,0,-53.63878643,0.25625638,,,,
YAY,26,0,2024-06-22T16:12:10.035Z,english_938.wav,0,0,816,1,0.1,-38.8400944,1.23524187,,,,
YAY,26,0,2024-06-22T16:12:10.035Z,english_938.wav,0,0,816,2,0.2,-9.87265498,0.81990957,,,,
YAY,26,0,2024-06-22T16:12:10.035Z,english_938.wav,0,0,816,3,0.3,16.2059687,1.45712995,,,,
YAY,26,0,2024-06-22T16:12:10.035Z,english_938.wav,0,0,816,4,0.4,-90.53563301,0.4819737,,,,
YAY,26,0,2024-06-22T16:12:10.035Z,english_938.wav,0,0,816,5,0.5,64.72350929,0.32505179,,,,
YAY,26,0,2024-06-22T16:12:10.035Z,english_938.wav,0,0,816,6,0.6,-52.05654387,1.44150274,,,,
YAY,26,0,2024-06-22T16:12:10.035Z,english_938.wav,0,0,816,7,0.7,-42.35049902,1.58605202,,,,
YAY,26,0,2024-06-22T16:12:10.035Z,english_938.wav,0,0,816,8,0.8,32.88204039,0.48300943,,,,
YAY,26,0,2024-06-22T16:12:10.035Z,english_938.wav,0,0,816,9,0.9,-86.42075109,1.19049872,,,,
YAY,26,0,2024-06-22T16:12:10.035Z,english_938.wav,0,0,816,10,1,31.2389269,1.85243238,,,,
YAY,26,0,2024-06-22T16:12:10.035Z,english_938.wav,0,0,816,11,1.09391667,-10.13697021,0.92208217,,,,
YAY,27,0,2024-06-22T16:12:10.035Z,english_750.wav,0,0,893,0,0,-25.16303224,0.86862278,,,,
YAY,27,0,2024-06-22T16:12:10.035Z,english_750.wav,0,0,893,1,0.1,-14.02768866,0.53645709,,,,
YAY,27,0,2024-06-22T16:12:10.035Z,english_750.wav,0,0,893,2,0.2,69.31394604,1.09554837,,,,
YAY,27,0,2024-06-22T16:12:10.035Z,english_750.wav,0,0,893,3,0.3,90.85453111,0.97960852,,,,
YAY,27,0,2024-06-22T16:12:10.035Z,english_750.wav,0,0,893,4,0.4,-11.11189664,1.14883971,,,,
YAY,27,0,2024-06-22T16:12:10.035Z,english_750.wav,0,0,893,5,0.5,99.7192225,0.16341609,,,,
YAY,27,0,2024-06-22T16:12:10.035Z,english_750.wav,0,0,893,6,0.6,59.23899804,1.34227106,,,,
YAY,27,0,2024-06-22T16:12:10.035Z,english_750.wav,0,0,893,7,0.7,61.96409814,1.64659331,,,,
YAY,27,0,2024-06-22T16:12:10.035Z,english_750.wav,0,0,893,8,0.8,86.60257641,0.80940412,,,,
YAY,27,0,2024-06-22T16:12:10.035Z,english_750.wav,0,0,893,9,0.9,26.97835103,1.55602713,,,,
YAY,27,0,2024-06-22T16:12:10.035Z,english_750.wav,0,0,893,10,1,-29.13235822,0.0040181,,,,
YAY,27,0,2024-06-22T16:12:10.035Z,english_750.wav,0,0,893,11,1.09391667,-49.9357994,1.03656175,,,,
YAY,28,0,2024-06-22T16:12:10.035Z,english_237.wav,0,0,599,0,0,-24.33351242,0.5798894,,,,
YAY,28,0,2024-06-22T16:12:10.035Z,english_237.wav,0,0,599,1,0.1,-30.25700372,1.5217244,,,,
YAY,28,0,2024-06-22T16:12:10.035Z,english_237.wav,0,0,599,2,0.2,-30.13382595,0.83018836,,,,
YAY,28,0,2024-06-22T16:12:10.035Z,english_237.wav,0,0,599,3,0.3,-9.60246818,0.61732459,,,,
YAY,28,0,2024-06-22T16:12:10.035Z,english_237.wav,0,0,599,4,0.4,-40.42162485,0.04187642,,,,
YAY,28,0,2024-06-22T16:12:10.035Z,english_237.wav,0,0,599,5,0.5,57.08355263,1.52741907,,,,
YAY,28,0,2024-06-22T16:12:10.035Z,english_237.wav,0,0,599,6,0.6,90.25216072,0.52793747,,,,
YAY,28,0,2024-06-22T16:12:10.035Z,english_237.wav,0,0,599,7,0.7,85.30493085,1.06419231,,,,
YAY,28,0,2024-06-22T16:12:10.035Z,english_237.wav,0,0,599,8,0.8,-32.5073614,0.3844952,,,,
YAY,28,0,2024-06-22T16:12:10.035Z,english_237.wav,0,0,599,9,0.9,26.39127281,0.20035849,,,,
YAY,28,0,2024-06-22T16:12:10.035Z,english_237.wav,0,0,599,10,1,9.20254691,0.39448392,,,,
YAY,28,0,2024-06-22T16:12:10.035Z,english_237.wav,0,0,599,11,1.09391667,-73.51581894,0.19327596,,,,
YAY,29,0,2024-06-22T16:12:10.035Z,english_176.wav,0,0,590,0,0,-29.79812822,0.43469721,,,,
YAY,29,0,2024-06-22T16:12:10.035Z,english_176.wav,0,0,590,1,0.1,-16.19961317,0.8905279,,,,
YAY,29,0,2024-06-22T16:12:10.035Z,english_176.wav,0,0,590,2,0.2,13.51202418,1.36195462,,,,
YAY,29,0,2024-06-22T16:12:10.035Z,english_176.wav,0,0,590,3,0.3,10.74594974,0.86537329,,,,
YAY,29,0,2024-06-22T16:12:10.035Z,english_176.wav,0,0,590,4,0.4,-52.94473426,0.61396379,,,,
YAY,29,0,2024-06-22T16:12:10.035Z,english_176.wav,0,0,590,5,0.5,52.13031176,0.71790783,,,,
YAY,29,0,2024-06-22T16:12:10.035Z,english_176.wav,0,0,590,6,0.6,75.74839712,1.10097826,,,,
YAY,29,0,2024-06-22T16:12:10.035Z,english_176.wav,0,0,590,7,0.7,62.6882876,1.68067326,,,,
YAY,29,0,2024-06-22T16:12:10.035Z,english_176.wav,0,0,590,8,0.8,-12.46472889,1.35151853,,,,
YAY,29,0,2024-06-22T16:12:10.035Z,english_176.wav,0,0,590,9,0.9,74.66747541,0.28756574,,,,
YAY,29,0,2024-06-22T16:12:10.035Z,english_176.wav,0,0,590,10,1,-22.48226553,0.36668304,,,,
YAY,29,0,2024-06-22T16:12:10.035Z,english_176.wav,0,0,590,11,1.09391667,-36.55733652,1.35894928,,,,
YAY,30,0,2024-06-22T16:12:10.035Z,english_963.wav,0,0,31695,0,0,12.85572416,1.75469767,,,,
YAY,30,0,2024-06-22T16:12:10.035Z,english_963.wav,0,0,31695,1,0.1,-76.17617766,0.88786329,,,,
YAY,30,0,2024-06-22T16:12:10.035Z,english_963.wav,0,0,31695,2,0.2,42.35975093,1.03977576,,,,
YAY,30,0,2024-06-22T16:12:10.035Z,english_963.wav,0,0,31695,3,0.3,-29.56352697,0.40233076,,,,
YAY,30,0,2024-06-22T16:12:10.035Z,english_963.wav,0,0,31695,4,0.4,1.9048802,1.77716713,,,,
YAY,30,0,2024-06-22T16:12:10.035Z,english_963.wav,0,0,31695,5,0.5,-59.42176318,1.22252544,,,,
YAY,30,0,2024-06-22T16:12:10.035Z,english_963.wav,0,0,31695,6,0.6,-90.23873789,1.36334994,,,,
YAY,30,0,2024-06-22T16:12:10.035Z,english_963.wav,0,0,31695,7,0.7,96.0492683,0.19892648,,,,
YAY,30,0,2024-06-22T16:12:10.035Z,english_963.wav,0,0,31695,8,0.8,-14.96705396,0.48578079,,,,
YAY,30,0,2024-06-22T16:12:10.035Z,english_963.wav,0,0,31695,9,0.9,53.28049668,0.49525144,,,,
YAY,30,0,2024-06-22T16:12:10.035Z,english_963.wav,0,0,31695,10,1,-50.64061571,1.97867338,,,,
YAY,30,0,2024-06-22T16:12:10.035Z,english_963.wav,0,0,31695,11,1.09391667,33.50411271,0.71277393,,,,
YAY,31,0,2024-06-22T16:12:10.035Z,english_511.wav,0,0,2034,0,0,-85.91778387,1.81402398,,,,
YAY,31,0,2024-06-22T16:12:10.035Z,english_511.wav,0,0,2034,1,0.1,45.98194985,0.85637973,,,,
YAY,31,0,2024-06-22T16:12:10.035Z,english_511.wav,0,0,2034,2,0.2,-52.53895344,1.26858723,,,,
YAY,31,0,2024-06-22T16:12:10.035Z,english_511.wav,0,0,2034,3,0.3,98.13831198,1.07634076,,,,
YAY,31,0,2024-06-22T16:12:10.035Z,english_511.wav,0,0,2034,4,0.4,49.65682047,1.31800961,,,,
YAY,31,0,2024-06-22T16:12:10.035Z,english_511.wav,0,0,2034,5,0.5,-29.41075208,1.42436558,,,,
YAY,31,0,2024-06-22T16:12:10.035Z,english_511.wav,0,0,2034,6,0.6,-30.04012094,1.22174941,,,,
YAY,31,0,2024-06-22T16:12:10.035Z,english_511.wav,0,0,2034,7,0.7,37.41853206,1.40902868,,,,
YAY,31,0,2024-06-22T16:12:10.035Z,english_511.wav,0,0,2034,8,0.8,23.33118627,1.14954472,,,,
YAY,31,0,2024-06-22T16:12:10.035Z,english_511.wav,0,0,2034,9,0.9,-72.81592551,0.62932842,,,,
YAY,31,0,2024-06-22T16:12:10.035Z,english_511.wav,0,0,2034,10,1,22.84370031,1.0343403,,,,
YAY,31,0,2024-06-22T16:12:10.035Z,english_511.wav,0,0,2034,11,1.09391667,31.18033436,1.81184982,,,,
YAY,32,0,2024-06-22T16:12:10.035Z,english_757.wav,0,0,729,0,0,26.0154679,0.86626914,,,,
YAY,32,0,2024-06-22T16:12:10.035Z,english_757.wav,0,0,729,1,0.1,-81.78316815,1.8292062,,,,
YAY,32,0,2024-06-22T16:12:10.035Z,english_757.wav,0,0,729,2,0.2,24.8129191,0.11166618,,,,
YAY,32,0,2024-06-22T16:12:10.035Z,english_757.wav,0,0,729,3,0.3,-92.40862689,1.6321581,,,,
YAY,32,0,2024-06-22T16:12:10.035Z,english_757.wav,0,0,729,4,0.4,75.32531846,1.47340274,,,,
YAY,32,0,2024-06-22T16:12:10.035Z,english_757.wav,0,0,729,5,0.5,-66.35281637,0.8022413,,,,
YAY,32,0,2024-06-22T16:12:10.035Z,english_757.wav,0,0,729,6,0.6,-7.38230753,0.64841019,,,,
YAY,32,0,2024-06-22T16:12:10.035Z,english_757.wav,0,0,729,7,0.7,87.06226271,0.78666377,,,,
YAY,32,0,2024-06-22T16:12:10.035Z,english_757.wav,0,0,729,8,0.8,39.69275954,0.73828249,,,,
YAY,32,0,2024-06-22T16:12:10.035Z,english_757.wav,0,0,729,9,0.9,-78.28701329,1.08245488,,,,
YAY,32,0,2024-06-22T16:12:10.035Z,english_757.wav,0,0,729,10,1,-77.31255291,1.44296588,,,,
YAY,32,0,2024-06-22T16:12:10.035Z,english_757.wav,0,0,729,11,1.09391667,70.90825389,0.56236939,,,,
YAY,33,0,2024-06-22T16:12:10.035Z,english_463.wav,0,0,596,0,0,10.50801154,1.17811947,,,,
YAY,33,0,2024-06-22T16:12:10.035Z,english_463.wav,0,0,596,1,0.1,53.01075337,0.17767022,,,,
YAY,33,0,2024-06-22T16:12:10.035Z,english_463.wav,0,0,596,2,0.2,-45.92576003,0.48691175,,,,
YAY,33,0,2024-06-22T16:12:10.035Z,english_463.wav,0,0,596,3,0.3,19.52430908,0.61421231,,,,
YAY,33,0,2024-06-22T16:12:10.035Z,english_463.wav,0,0,596,4,0.4,-49.30728031,1.08242916,,,,
YAY,33,0,2024-06-22T16:12:10.035Z,english_463.wav,0,0,596,5,0.5,14.12996474,0.36464212,,,,
YAY,33,0,2024-06-22T16:12:10.035Z,english_463.wav,0,0,596,6,0.6,-38.56124135,1.11640778,,,,
YAY,33,0,2024-06-22T16:12:10.035Z,english_463.wav,0,0,596,7,0.7,60.51994471,0.46617429,,,,
YAY,33,0,2024-06-22T16:12:10.035Z,english_463.wav,0,0,596,8,0.8,-80.92150268,1.24207175,,,,
YAY,33,0,2024-06-22T16:12:10.035Z,english_463.wav,0,0,596,9,0.9,77.91302957,1.740718,,,,
YAY,33,0,2024-06-22T16:12:10.035Z,english_463.wav,0,0,596,10,1,-17.96219129,0.97634615,,,,
YAY,33,0,2024-06-22T16:12:10.035Z,english_463.wav,0,0,596,11,1.09391667,-4.0549477,0.84642764,,,,
YAY,34,0,2024-06-22T16:12:10.035Z,english_617.wav,0,0,439,0,0,10.93227953,0.72387338,,,,
YAY,34,0,2024-06-22T16:12:10.035Z,english_617.wav,0,0,439,1,0.1,-59.2478864,1.78831672,,,,
YAY,34,0,2024-06-22T16:12:10.035Z,english_617.wav,0,0,439,2,0.2,-60.98157443,0.6179467,,,,
YAY,34,0,2024-06-22T16:12:10.035Z,english_617.wav,0,0,439,3,0.3,-98.20098641,0.63320585,,,,
YAY,34,0,2024-06-22T16:12:10.035Z,english_617.wav,0,0,439,4,0.4,-27.56878422,0.42531965,,,,
YAY,34,0,2024-06-22T16:12:10.035Z,english_617.wav,0,0,439,5,0.5,-16.62879698,1.05036122,,,,
YAY,34,0,2024-06-22T16:12:10.035Z,english_617.wav,0,0,439,6,0.6,-85.18504197,1.22550457,,,,
YAY,34,0,2024-06-22T16:12:10.035Z,english_617.wav,0,0,439,7,0.7,65.935133,0.87185678,,,,
YAY,34,0,2024-06-22T16:12:10.035Z,english_617.wav,0,0,439,8,0.8,-49.35852621,1.19822477,,,,
YAY,34,0,2024-06-22T16:12:10.035Z,english_617.wav,0,0,439,9,0.9,-79.82823856,0.11933649,,,,
YAY,34,0,2024-06-22T16:12:10.035Z,english_617.wav,0,0,439,10,1,-43.72382152,1.37889257,,,,
YAY,34,0,2024-06-22T16:12:10.035Z,english_617.wav,0,0,439,11,1.09391667,-81.76136352,0.25359551,,,,
YAY,35,0,2024-06-22T16:12:10.035Z,english_645.wav,0,0,349,0,0,74.20759592,0.3722502,,,,
YAY,35,0,2024-06-22T16:12:10.035Z,english_645.wav,0,0,349,1,0.1,-91.348614,0.72135633,,,,
YAY,35,0,2024-06-22T16:12:10.035Z,english_645.wav,0,0,349,2,0.2,-47.07053841,1.09022513,,,,
YAY,35,0,2024-06-22T16:12:10.035Z,english_645.wav,0,0,349,3,0.3,14.8093439,0.23360297,,,,
YAY,35,0,2024-06-22T16:12:10.035Z,english_645.wav,0,0,349,4,0.4,46.9338314,1.81978529,,,,
YAY,35,0,2024-06-22T16:12:10.035Z,english_645.wav,0,0,349,5,0.5,39.7428535,0.50068107,,,,
YAY,35,0,2024-06-22T16:12:10.035Z,english_645.wav,0,0,349,6,0.6,-23.36569069,1.21791048,,,,
YAY,35,0,2024-06-22T16:12:10.035Z,english_645.wav,0,0,349,7,0.7,45.91971916,0.53153165,,,,
YAY,35,0,2024-06-22T16:12:10.035Z,english_645.wav,0,0,349,8,0.8,32.42791759,1.47100285,,,,
YAY,35,0,2024-06-22T16:12:10.035Z,english_645.wav,0,0,349,9,0.9,1.19876254,1.64053241,,,,
YAY,35,0,2024-06-22T16:12:10.035Z,english_645.wav,0,0,349,10,1,-40.71182661,1.74926312,,,,
YAY,35,0,2024-06-22T16:12:10.035Z,english_645.wav,0,0,349,11,1.09391667,-1.61863293,1.77861775,,,,
YAY,36,0,2024-06-22T16:12:10.035Z,english_652.wav,0,1,456,0,0,-6.47134423,1.78340321,,,,
YAY,36,0,2024-06-22T16:12:10.035Z,english_652.wav,0,1,456,1,0.1,15.08810971,1.37348527,,,,
YAY,36,0,2024-06-22T16:12:10.035Z,english_652.wav,0,1,456,2,0.2,98.29631383,0.90438715,,,,
YAY,36,0,2024-06-22T16:12:10.035Z,english_652.wav,0,1,456,3,0.3,30.58339985,0.90448146,,,,
YAY,36,0,2024-06-22T16:12:10.035Z,english_652.wav,0,1,456,4,0.4,-6.30529528,0.6194213,,,,
YAY,36,0,2024-06-22T16:12:10.035Z,english_652.wav,0,1,456,5,0.5,-44.5601624,1.03986034,,,,
YAY,36,0,2024-06-22T16:12:10.035Z,english_652.wav,0,1,456,6,0.6,4.47931007,0.52762796,,,,
YAY,36,0,2024-06-22T16:12:10.035Z,english_652.wav,0,1,456,7,0.7,-52.28319513,0.92865907,,,,
YAY,36,0,2024-06-22T16:12:10.035Z,english_652.wav,0,1,456,8,0.8,17.6405793,1.28477406,,,,
YAY,36,0,2024-06-22T16:12:10.035Z,english_652.wav,0,1,456,9,0.9,2.7192508,1.34724363,,,,
YAY,36,0,2024-06-22T16:12:10.035Z,english_652.wav,0,1,456,10,1,-8.76412426,1.76490877,,,,
YAY,36,0,2024-06-22T16:12:10.035Z,english_652.wav,0,1,456,11,1.09391667,53.37366327,1.20575877,,,,
YAY,37,0,2024-06-22T16:12:10.035Z,english_677.wav,0,0,696,0,0,35.18766114,1.46418541,,,,
YAY,37,0,2024-06-22T16:12:10.035Z,english_677.wav,0,0,696,1,0.1,3.82449325,0.62060775,,,,
YAY,37,0,2024-06-22T16:12:10.035Z,english_677.wav,0,0,696,2,0.2,-81.73229082,1.63148334,,,,
YAY,37,0,2024-06-22T16:12:10.035Z,english_677.wav,0,0,696,3,0.3,-1.54015563,0.52758496,,,,
YAY,37,0,2024-06-22T16:12:10.035Z,english_677.wav,0,0,696,4,0.4,-45.59201538,0.80943231,,,,
YAY,37,0,2024-06-22T16:12:10.035Z,english_677.wav,0,0,696,5,0.5,26.20010581,1.10411223,,,,
YAY,37,0,2024-06-22T16:12:10.035Z,english_677.wav,0,0,696,6,0.6,-19.9162202,0.62014779,,,,
YAY,37,0,2024-06-22T16:12:10.035Z,english_677.wav,0,0,696,7,0.7,41.69291663,0.65910672,,,,
YAY,37,0,2024-06-22T16:12:10.035Z,english_677.wav,0,0,696,8,0.8,-68.08590586,1.69273141,,,,
YAY,37,0,2024-06-22T16:12:10.035Z,english_677.wav,0,0,696,9,0.9,-52.35020304,1.22000106,,,,
YAY,37,0,2024-06-22T16:12:10.035Z,english_677.wav,0,0,696,10,1,55.76687311,0.67614262,,,,
YAY,37,0,2024-06-22T16:12:10.035Z,english_677.wav,0,0,696,11,1.09391667,26.15340501,1.44243981,,,,
YAY,38,0,2024-06-22T16:12:10.035Z,english_448.wav,0,1,160,0,0,-36.42010561,0.75921607,,,,
YAY,38,0,2024-06-22T16:12:10.035Z,english_448.wav,0,1,160,1,0.1,47.73001377,0.95293974,,,,
YAY,38,0,2024-06-22T16:12:10.035Z,english_448.wav,0,1,160,2,0.2,93.59806646,0.22586708,,,,
YAY,38,0,2024-06-22T16:12:10.035Z,english_448.wav,0,1,160,3,0.3,-71.28004739,1.48750577,,,,
YAY,38,0,2024-06-22T16:12:10.035Z,english_448.wav,0,1,160,4,0.4,-73.37708676,0.17134927,,,,
YAY,38,0,2024-06-22T16:12:10.035Z,english_448.wav,0,1,160,5,0.5,74.57279085,1.2791033,,,,
YAY,38,0,2024-06-22T16:12:10.035Z,english_448.wav,0,1,160,6,0.6,93.06132311,0.73590712,,,,
YAY,38,0,2024-06-22T16:12:10.035Z,english_448.wav,0,1,160,7,0.7,53.53303026,1.42606803,,,,
YAY,38,0,2024-06-22T16:12:10.035Z,english_448.wav,0,1,160,8,0.8,-57.75366267,1.73700286,,,,
YAY,38,0,2024-06-22T16:12:10.035Z,english_448.wav,0,1,160,9,0.9,-26.4449428,1.39235574,,,,
YAY,38,0,2024-06-22T16:12:10.035Z,english_448.wav,0,1,160,10,1,-31.70641096,0.50787566,,,,
YAY,38,0,2024-06-22T16:12:10.035Z,english_448.wav,0,1,160,11,1.09391667,-10.08807531,1.19414628,,,,
YAY,39,0,2024-06-22T16:12:10.035Z,english_921.wav,0,0,382,0,0,31.46476347,1.40929115,,,,
YAY,39,0,2024-06-22T16:12:10.035Z,english_921.wav,0,0,382,1,0.1,-97.58408055,0.95578469,,,,
YAY,39,0,2024-06-22T16:12:10.035Z,english_921.wav,0,0,382,2,0.2,54.67506657,1.08840418,,,,
YAY,39,0,2024-06-22T16:12:10.035Z,english_921.wav,0,0,382,3,0.3,22.21056557,0.27152021,,,,
YAY,39,0,2024-06-22T16:12:10.035Z,english_921.wav,0,0,382,4,0.4,0.8393727,1.01175766,,,,
YAY,39,0,2024-06-22T16:12:10.035Z,english_921.wav,0,0,382,5,0.5,-71.57742702,0.91544212,,,,
YAY,39,0,2024-06-22T16:12:10.035Z,english_921.wav,0,0,382,6,0.6,-21.98162251,1.03161778,,,,
YAY,39,0,2024-06-22T16:12:10.035Z,english_921.wav,0,0,382,7,0.7,-45.34354294,1.69417828,,,,
YAY,39,0,2024-06-22T16:12:10.035Z,english_921.wav,0,0,382,8,0.8,-54.46580015,1.14800845,,,,
YAY,39,0,2024-06-22T16:12:10.035Z,english_921.wav,0,0,382,9,0.9,-33.00243687,1.17008377,,,,
YAY,39,0,2024-06-22T16:12:10.035Z,english_921.wav,0,0,382,10,1,45.39245913,0.19449602,,,,
YAY,39,0,2024-06-22T16:12:10.035Z,english_921.wav,0,0,382,11,1.09391667,-24.69054897,1.58975603,,,,
YAY,40,0,2024-06-22T16:12:10.035Z,english_882.wav,0,0,611,0,0,-7.05979315,0.25493427,,,,
YAY,40,0,2024-06-22T16:12:10.035Z,english_882.wav,0,0,611,1,0.1,11.12287517,1.40090196,,,,
YAY,40,0,2024-06-22T16:12:10.035Z,english_882.wav,0,0,611,2,0.2,28.5672698,0.1131803,,,,
YAY,40,0,2024-06-22T16:12:10.035Z,english_882.wav,0,0,611,3,0.3,16.48717496,1.17672005,,,,
YAY,40,0,2024-06-22T16:12:10.035Z,english_882.wav,0,0,611,4,0.4,6.46389904,1.65791719,,,,
YAY,40,0,2024-06-22T16:12:10.035Z,english_882.wav,0,0,611,5,0.5,-33.62191601,1.48549593,,,,
YAY,40,0,2024-06-22T16:12:10.035Z,english_882.wav,0,0,611,6,0.6,24.95644847,0.02678123,,,,
YAY,40,0,2024-06-22T16:12:10.035Z,english_882.wav,0,0,611,7,0.7,-38.16076581,0.84885904,,,,
YAY,40,0,2024-06-22T16:12:10.035Z,english_882.wav,0,0,611,8,0.8,-79.20201093,0.30029844,,,,
YAY,40,0,2024-06-22T16:12:10.035Z,english_882.wav,0,0,611,9,0.9,-71.11539398,0.49544308,,,,
YAY,40,0,2024-06-22T16:12:10.035Z,english_882.wav,0,0,611,10,1,-86.32031944,0.41090122,,,,
YAY,40,0,2024-06-22T16:12:10.035Z,english_882.wav,0,0,611,11,1.09391667,-43.4557724,0.68463909,,,,
YAY,41,0,2024-06-22T16:12:10.035Z,english_302.wav,0,0,636,0,0,22.32512828,1.43751276,,,,
YAY,41,0,2024-06-22T16:12:10.035Z,english_302.wav,0,0,636,1,0.1,-34.68493306,1.04855025,,,,
YAY,41,0,2024-06-22T16:12:10.035Z,english_302.wav,0,0,636,2,0.2,-60.33048789,0.11748708,,,,
YAY,41,0,2024-06-22T16:12:10.035Z,english_302.wav,0,0,636,3,0.3,-66.33131812,1.014131,,,,
YAY,41,0,2024-06-22T16:12:10.035Z,english_302.wav,0,0,636,4,0.4,61.16500984,1.52698955,,,,
YAY,41,0,2024-06-22T16:12:10.035Z,english_302.wav,0,0,636,5,0.5,49.23692814,1.28665313,,,,
YAY,41,0,2024-06-22T16:12:10.035Z,english_302.wav,0,0,636,6,0.6,18.80850389,1.64816454,,,,
YAY,41,0,2024-06-22T16:12:10.035Z,english_302.wav,0,0,636,7,0.7,91.26807024,0.26189179,,,,
YAY,41,0,2024-06-22T16:12:10.035Z,english_302.wav,0,0,636,8,0.8,51.0661189,1.3962077,,,,
YAY,41,0,2024-06-22T16:12:10.035Z,english_302.wav,0,0,636,9,0.9,-89.83945555,0.53648677,,,,
YAY,41,0,2024-06-22T16:12:10.035Z,english_302.wav,0,0,636,10,1,-75.19546708,1.41713481,,,,
YAY,41,0,2024-06-22T16:12:10.035Z,english_302.wav,0,0,636,11,1.09391667,-66.5337051,0.68271313,,,,
YAY,42,0,2024-06-22T16:12:10.035Z,english_846.wav,0,1,268,0,0,47.64315726,0.95758586,,,,
YAY,42,0,2024-06-22T16:12:10.035Z,english_846.wav,0,1,268,1,0.1,43.78617601,0.16218947,,,,
YAY,42,0,2024-06-22T16:12:10.035Z,english_846.wav,0,1,268,2,0.2,-67.59598015,0.72860603,,,,
YAY,42,0,2024-06-22T16:12:10.035Z,english_846.wav,0,1,268,3,0.3,75.82681519,0.60627127,,,,
YAY,42,0,2024-06-22T16:12:10.035Z,english_846.wav,0,1,268,4,0.4,74.28596976,0.41876793,,,,
YAY,42,0,2024-06-22T16:12:10.035Z,english_846.wav,0,1,268,5,0.5,40.48744531,1.23414848,,,,
YAY,42,0,2024-06-22T16:12:10.035Z,english_846.wav,0,1,268,6,0.6,-65.90904049,1.54330327,,,,
YAY,42,0,2024-06-22T16:12:10.035Z,english_846.wav,0,1,268,7,0.7,90.52035497,1.06483437,,,,
YAY,42,0,2024-06-22T16:12:10.035Z,english_846.wav,0,1,268,8,0.8,-68.67205107,0.84380864,,,,
YAY,42,0,2024-06-22T16:12:10.035Z,english_846.wav,0,1,268,9,0.9,8.67982792,0.84626324,,,,
YAY,42,0,2024-06-22T16:12:10.035Z,english_846.wav,0,1,268,10,1,-64.09193989,1.29492524,,,,
YAY,42,0,2024-06-22T16:12:10.035Z,english_846.wav,0,1,268,11,1.09391667,11.5113113,0.37776928,,,,
YAY,43,0,2024-06-22T16:12:10.035Z,english_215.wav,0,0,336,0,0,-99.5332925,0.28465119,,,,
YAY,43,0,2024-06-22T16:12:10.035Z,english_215.wav,0,0,336,1,0.1,1.45242975,1.8088146,,,,
YAY,43,0,2024-06-22T16:12:10.035Z,english_215.wav,0,0,336,2,0.2,-64.33425221,1.50664885,,,,
YAY,43,0,2024-06-22T16:12:10.035Z,english_215.wav,0,0,336,3,0.3,94.32501829,1.24738647,,,,
YAY,43,0,2024-06-22T16:12:10.035Z,english_215.wav,0,0,336,4,0.4,-24.96285319,1.99674836,,,,
YAY,43,0,2024-06-22T16:12:10.035Z,english_215.wav,0,0,336,5,0.5,24.44115024,1.0963611,,,,
YAY,43,0,2024-06-22T16:12:10.035Z,english_215.wav,0,0,336,6,0.6,88.75353775,1.91027181,,,,
YAY,43,0,2024-06-22T16:12:10.035Z,english_215.wav,0,0,336,7,0.7,84.15272448,1.87676127,,,,
YAY,43,0,2024-06-22T16:12:10.035Z,english_215.wav,0,0,336,8,0.8,64.6545326,1.65561874,,,,
YAY,43,0,2024-06-22T16:12:10.035Z,english_215.wav,0,0,336,9,0.9,-74.06978327,1.63896442,,,,
YAY,43,0,2024-06-22T16:12:10.035Z,english_215.wav,0,0,336,10,1,-77.05086555,0.85126523,,,,
YAY,43,0,2024-06-22T16:12:10.035Z,english_215.wav,0,0,336,11,1.09391667,82.12012488,1.4630733,,,,
YAY,44,0,2024-06-22T16:12:10.035Z,english_807.wav,0,1,470,0,0,-34.7601745,1.20965337,,,,
YAY,44,0,2024-06-22T16:12:10.035Z,english_807.wav,0,1,470,1,0.1,33.36048689,1.65563234,,,,
YAY,44,0,2024-06-22T16:12:10.035Z,english_807.wav,0,1,470,2,0.2,-67.67370502,1.59964516,,,,
YAY,44,0,2024-06-22T16:12:10.035Z,english_807.wav,0,1,470,3,0.3,-75.303265,0.1616649,,,,
YAY,44,0,2024-06-22T16:12:10.035Z,english_807.wav,0,1,470,4,0.4,50.02795893,0.65690397,,,,
YAY,44,0,2024-06-22T16:12:10.035Z,english_807.wav,0,1,470,5,0.5,-86.15237501,1.06047173,,,,
YAY,44,0,2024-06-22T16:12:10.035Z,english_807.wav,0,1,470,6,0.6,75.95576156,1.33167503,,,,
YAY,44,0,2024-06-22T16:12:10.035Z,english_807.wav,0,1,470,7,0.7,90.49040763,0.49356808,,,,
YAY,44,0,2024-06-22T16:12:10.035Z,english_807.wav,0,1,470,8,0.8,-21.66303016,0.55567292,,,,
YAY,44,0,2024-06-22T16:12:10.035Z,english_807.wav,0,1,470,9,0.9,-29.03621191,1.52247069,,,,
YAY,44,0,2024-06-22T16:12:10.035Z,english_807.wav,0,1,470,10,1,-43.10401298,1.04125391,,,,
YAY,44,0,2024-06-22T16:12:10.035Z,english_807.wav,0,1,470,11,1.09391667,15.25709301,0.73437953,,,,
YAY,45,0,2024-06-22T16:12:10.035Z,english_848.wav,0,0,83,0,0,16.27018666,0.42429773,,,,
YAY,45,0,2024-06-22T16:12:10.035Z,english_848.wav,0,0,83,1,0.1,-74.75395213,0.55671169,,,,
YAY,45,0,2024-06-22T16:12:10.035Z,english_848.wav,0,0,83,2,0.2,55.44859949,0.96508228,,,,
YAY,45,0,2024-06-22T16:12:10.035Z,english_848.wav,0,0,83,3,0.3,-32.83945411,0.7665276,,,,
YAY,45,0,2024-06-22T16:12:10.035Z,english_848.wav,0,0,83,4,0.4,30.01434436,0.96341741,,,,
YAY,45,0,2024-06-22T16:12:10.035Z,english_848.wav,0,0,83,5,0.5,48.58281319,0.06275252,,,,
YAY,45,0,2024-06-22T16:12:10.035Z,english_848.wav,0,0,83,6,0.6,-85.68192699,0.89297301,,,,
YAY,45,0,2024-06-22T16:12:10.035Z,english_848.wav,0,0,83,7,0.7,27.03943406,0.16213779,,,,
YAY,45,0,2024-06-22T16:12:10.035Z,english_848.wav,0,0,83,8,0.8,14.64264022,1.88232235,,,,
YAY,45,0,2024-06-22T16:12:10.035Z,english_848.wav,0,0,83,9,0.9,-60.92798451,1.9298227,,,,
YAY,45,0,2024-06-22T16:12:10.035Z,english_848.wav,0,0,83,10,1,-13.82637474,0.08076178,,,,
YAY,45,0,2024-06-22T16:12:10.035Z,english_848.wav,0,0,83,11,1.09391667,-65.39894946,1.11155621,,,,
YAY,46,0,2024-06-22T16:12:10.035Z,english_386.wav,0,0,471,0,0,-19.52342601,1.87136497,,,,
YAY,46,0,2024-06-22T16:12:10.035Z,english_386.wav,0,0,471,1,0.1,12.51870084,1.2884713,,,,
YAY,46,0,2024-06-22T16:12:10.035Z,english_386.wav,0,0,471,2,0.2,39.37532447,0.99035372,,,,
YAY,46,0,2024-06-22T16:12:10.035Z,english_386.wav,0,0,471,3,0.3,-27.49424213,1.4593324,,,,
YAY,46,0,2024-06-22T16:12:10.035Z,english_386.wav,0,0,471,4,0.4,2.74242911,1.12443884,,,,
YAY,46,0,2024-06-22T16:12:10.035Z,english_386.wav,0,0,471,5,0.5,15.14964773,0.10576994,,,,
YAY,46,0,2024-06-22T16:12:10.035Z,english_386.wav,0,0,471,6,0.6,45.71194496,1.21238053,,,,
YAY,46,0,2024-06-22T16:12:10.035Z,english_386.wav,0,0,471,7,0.7,28.98960809,0.05301684,,,,
YAY,46,0,2024-06-22T16:12:10.035Z,english_386.wav,0,0,471,8,0.8,-39.83484556,0.73550617,,,,
YAY,46,0,2024-06-22T16:12:10.035Z,english_386.wav,0,0,471,9,0.9,33.1587893,1.02363056,,,,
YAY,46,0,2024-06-22T16:12:10.035Z,english_386.wav,0,0,471,10,1,24.37786674,0.31570088,,,,
YAY,46,0,2024-06-22T16:12:10.035Z,english_386.wav,0,0,471,11,1.09391667,-21.81878644,0.61715616,,,,
YAY,47,0,2024-06-22T16:12:10.035Z,english_224.wav,0,1,177,0,0,-78.61506242,0.96291184,,,,
YAY,47,0,2024-06-22T16:12:10.035Z,english_224.wav,0,1,177,1,0.1,50.32903383,1.02849412,,,,
YAY,47,0,2024-06-22T16:12:10.035Z,english_224.wav,0,1,177,2,0.2,13.41609495,1.48046057,,,,
YAY,47,0,2024-06-22T16:12:10.035Z,english_224.wav,0,1,177,3,0.3,-65.62214638,0.95403391,,,,
YAY,47,0,2024-06-22T16:12:10.035Z,english_224.wav,0,1,177,4,0.4,-58.93648778,0.16536285,,,,
YAY,47,0,2024-06-22T16:12:10.035Z,english_224.wav,0,1,177,5,0.5,72.28111683,1.42811474,,,,
YAY,47,0,2024-06-22T16:12:10.035Z,english_224.wav,0,1,177,6,0.6,-46.77069374,0.74831178,,,,
YAY,47,0,2024-06-22T16:12:10.035Z,english_224.wav,0,1,177,7,0.7,-90.37193795,1.44512366,,,,
YAY,47,0,2024-06-22T16:12:10.035Z,english_224.wav,0,1,177,8,0.8,-0.43339445,1.0370843,,,,
YAY,47,0,2024-06-22T16:12:10.035Z,english_224.wav,0,1,177,9,0.9,-45.45823975,0.73747726,,,,
YAY,47,0,2024-06-22T16:12:10.035Z,english_224.wav,0,1,177,10,1,-68.1553756,0.53686902,,,,
YAY,47,0,2024-06-22T16:12:10.035Z,english_224.wav,0,1,177,11,1.09391667,-50.27313826,1.24590757,,,,
YAY,48,0,2024-06-22T16:12:10.035Z,english_428.wav,0,0,1230,0,0,81.83092524,1.65195738,,,,
YAY,48,0,2024-06-22T16:12:10.035Z,english_428.wav,0,0,1230,1,0.1,-80.13069751,1.50342219,,,,
YAY,48,0,2024-06-22T16:12:10.035Z,english_428.wav,0,0,1230,2,0.2,-11.65632902,1.06152039,,,,
YAY,48,0,2024-06-22T16:12:10.035Z,english_428.wav,0,0,1230,3,0.3,-46.08084266,0.87273268,,,,
YAY,48,0,2024-06-22T16:12:10.035Z,english_428.wav,0,0,1230,4,0.4,3.29741478,1.30041173,,,,
YAY,48,0,2024-06-22T16:12:10.035Z,english_428.wav,0,0,1230,5,0.5,38.2144639,1.27181021,,,,
YAY,48,0,2024-06-22T16:12:10.035Z,english_428.wav,0,0,1230,6,0.6,-36.34649143,1.2829939,,,,
YAY,48,0,2024-06-22T16:12:10.035Z,english_428.wav,0,0,1230,7,0.7,-64.94911042,0.80379216,,,,
YAY,48,0,2024-06-22T16:12:10.035Z,english_428.wav,0,0,1230,8,0.8,55.28808141,0.54976242,,,,
YAY,48,0,2024-06-22T16:12:10.035Z,english_428.wav,0,0,1230,9,0.9,-85.65631623,1.4846347,,,,
YAY,48,0,2024-06-22T16:12:10.035Z,english_428.wav,0,0,1230,10,1,45.03584187,0.86531381,,,,
YAY,48,0,2024-06-22T16:12:10.035Z,english_428.wav,0,0,1230,11,1.09391667,-22.28745039,0.63375774,,,,
YAY,49,0,2024-06-22T16:12:10.035Z,english_169.wav,0,1,364,0,0,-47.44631174,0.61482073,,,,
YAY,49,0,2024-06-22T16:12:10.035Z,english_169.wav,0,1,364,1,0.1,48.43296153,0.65655052,,,,
YAY,49,0,2024-06-22T16:12:10.035Z,english_169.wav,0,1,364,2,0.2,-16.2993289,1.98022162,,,,
YAY,49,0,2024-06-22T16:12:10.035Z,english_169.wav,0,1,364,3,0.3,71.12275577,1.32201843,,,,
YAY,49,0,2024-06-22T16:12:10.035Z,english_169.wav,0,1,364,4,0.4,27.92431259,0.62266418,,,,
YAY,49,0,2024-06-22T16:12:10.035Z,english_169.wav,0,1,364,5,0.5,-51.53020823,0.36761683,,,,
YAY,49,0,2024-06-22T16:12:10.035Z,english_169.wav,0,1,364,6,0.6,70.60667651,0.63917639,,,,
YAY,49,0,2024-06-22T16:12:10.035Z,english_169.wav,0,1,364,7,0.7,19.72897422,0.86553093,,,,
YAY,49,0,2024-06-22T16:12:10.035Z,english_169.wav,0,1,364,8,0.8,-28.1908113,1.52360694,,,,
YAY,49,0,2024-06-22T16:12:10.035Z,english_169.wav,0,1,364,9,0.9,42.45712742,1.86801427,,,,
YAY,49,0,2024-06-22T16:12:10.035Z,english_169.wav,0,1,364,10,1,90.49930188,1.6810017,,,,
YAY,49,0,2024-06-22T16:12:10.035Z,english_169.wav,0,1,364,11,1.09391667,-24.56696621,0.16531637,,,,
YAY,50,1,2024-06-22T16:12:10.035Z,english_647.wav,0,0,538,0,0,54.52725229,1.1883546,,,,
YAY,50,1,2024-06-22T16:12:10.035Z,english_647.wav,0,0,538,1,0.1,-56.14693886,1.65081997,,,,
YAY,50,1,2024-06-22T16:12:10.035Z,english_647.wav,0,0,538,2,0.2,71.63132719,1.02051213,,,,
YAY,50,1,2024-06-22T16:12:10.035Z,english_647.wav,0,0,538,3,0.3,-23.02387172,1.7000584,,,,
YAY,50,1,2024-06-22T16:12:10.035Z,english_647.wav,0,0,538,4,0.4,-60.51376999,0.62509688,,,,
YAY,50,1,2024-06-22T16:12:10.035Z,english_647.wav,0,0,538,5,0.5,-64.57692494,1.60189297,,,,
YAY,50,1,2024-06-22T16:12:10.035Z,english_647.wav,0,0,538,6,0.6,46.96365994,1.40209494,,,,
YAY,50,1,2024-06-22T16:12:10.035Z,english_647.wav,0,0,538,7,0.7,2.340544,1.32470585,,,,
YAY,50,1,2024-06-22T16:12:10.035Z,english_647.wav,0,0,538,8,0.8,-11.6475953,1.16038123,,,,
YAY,50,1,2024-06-22T16:12:10.035Z,english_647.wav,0,0,538,9,0.9,62.71297866,0.96037121,,,,
YAY,50,1,2024-06-22T16:12:10.035Z,english_647.wav,0,0,538,10,1,-48.91159538,0.45954714,,,,
YAY,50,1,2024-06-22T16:12:10.035Z,english_647.wav,0,0,538,11,1.09391667,-39.00416387,1.53514393,,,,
YAY,51,1,2024-06-22T16:12:10.035Z,english_838.wav,0,1,637,0,0,66.81838689,0.11169914,,,,
YAY,51,1,2024-06-22T16:12:10.035Z,english_838.wav,0,1,637,1,0.1,94.65046979,0.93671825,,,,
YAY,51,1,2024-06-22T16:12:10.035Z,english_838.wav,0,1,637,2,0.2,91.71604822,0.60356353,,,,
YAY,51,1,2024-06-22T16:12:10.035Z,english_838.wav,0,1,637,3,0.3,78.43794704,1.60109406,,,,
YAY,51,1,2024-06-22T16:12:10.035Z,english_838.wav,0,1,637,4,0.4,-73.47833102,0.84291267,,,,
YAY,51,1,2024-06-22T16:12:10.035Z,english_838.wav,0,1,637,5,0.5,11.66623314,1.01630723,,,,
YAY,51,1,2024-06-22T16:12:10.035Z,english_838.wav,0,1,637,6,0.6,-66.11404528,1.23732351,,,,
YAY,51,1,2024-06-22T16:12:10.035Z,english_838.wav,0,1,637,7,0.7,28.35642813,1.37061964,,,,
YAY,51,1,2024-06-22T16:12:10.035Z,english_838.wav,0,1,637,8,0.8,73.65825503,1.54014816,,,,
YAY,51,1,2024-06-22T16:12:10.035Z,english_838.wav,0,1,637,9,0.9,-30.5228579,0.53177064,,,,
YAY,51,1,2024-06-22T16:12:10.035Z,english_838.wav,0,1,637,10,1,-38.8042384,1.47567338,,,,
YAY,51,1,2024-06-22T16:12:10.035Z,english_838.wav,0,1,637,11,1.09391667,90.67589939,0.7352694,,,,
YAY,52,1,2024-06-22T16:12:10.035Z,english_61.wav,0,0,571,0,0,-76.31366774,1.15675845,,,,
YAY,52,1,2024-06-22T16:12:10.035Z,english_61.wav,0,0,571,1,0.1,-70.32577527,0.79511083,,,,
YAY,52,1,2024-06-22T16:12:10.035Z,english_61.wav,0,0,571,2,0.2,5.13466316,0.40451227,,,,
YAY,52,1,2024-06-22T16:12:10.035Z,english_61.wav,0,0,571,3,0.3,37.00830294,0.79487484,,,,
YAY,52,1,2024-06-22T16:12:10.035Z,english_61.wav,0,0,571,4,0.4,-11.73068973,0.44483697,,,,
YAY,52,1,2024-06-22T16:12:10.035Z,english_61.wav,0,0,571,5,0.5,91.45109603,0.84603206,,,,
YAY,52,1,2024-06-22T16:12:10.035Z,english_61.wav,0,0,571,6,0.6,11.9601718,0.8090615,,,,
YAY,52,1,2024-06-22T16:12:10.035Z,english_61.wav,0,0,571,7,0.7,-66.7573243,1.09438885,,,,
YAY,52,1,2024-06-22T16:12:10.035Z,english_61.wav,0,0,571,8,0.8,78.73702917,1.14041124,,,,
YAY,52,1,2024-06-22T16:12:10.035Z,english_61.wav,0,0,571,9,0.9,61.80688515,0.39248564,,,,
YAY,52,1,2024-06-22T16:12:10.035Z,english_61.wav,0,0,571,10,1,-73.85845523,1.77720472,,,,
YAY,52,1,2024-06-22T16:12:10.035Z,english_61.wav,0,0,571,11,1.09391667,-24.76259921,1.29259789,,,,
YAY,53,1,2024-06-22T16:12:10.035Z,english_454.wav,0,0,565,0,0,-40.724684,1.6228839,,,,
YAY,53,1,2024-06-22T16:12:10.035Z,english_454.wav,0,0,565,1,0.1,68.37921334,0.13004392,,,,
YAY,53,1,2024-06-22T16:12:10.035Z,english_454.wav,0,0,565,2,0.2,-30.05855576,0.71367383,,,,
YAY,53,1,2024-06-22T16:12:10.035Z,english_454.wav,0,0,565,3,0.3,-38.49973025,0.85329946,,,,
YAY,53,1,2024-06-22T16:12:10.035Z,english_454.wav,0,0,565,4,0.4,20.79675368,1.21776669,,,,
YAY,53,1,2024-06-22T16:12:10.035Z,english_454.wav,0,0,565,5,0.5,97.95643376,0.59038082,,,,
YAY,53,1,2024-06-22T16:12:10.035Z,english_454.wav,0,0,565,6,0.6,60.86620442,0.28627533,,,,
YAY,53,1,2024-06-22T16:12:10.035Z,english_454.wav,0,0,565,7,0.7,79.81874649,1.2119593,,,,
YAY,53,1,2024-06-22T16:12:10.035Z,english_454.wav,0,0,565,8,0.8,3.83765836,0.67514721,,,,
YAY,53,1,2024-06-22T16:12:10.035Z,english_454.wav,0,0,565,9,0.9,67.59623448,0.51660642,,,,
YAY,53,1,2024-06-22T16:12:10.035Z,english_454.wav,0,0,565,10,1,-91.57077167,0.97010822,,,,
YAY,53,1,2024-06-22T16:12:10.035Z,english_454.wav,0,0,565,11,1.09391667,10.80867564,1.23476154,,,,
YAY,54,1,2024-06-22T16:12:10.035Z,english_984.wav,0,0,378,0,0,37.06586667,0.38877409,,,,
YAY,54,1,2024-06-22T16:12:10.035Z,english_984.wav,0,0,378,1,0.1,50.7395804,1.41531624,,,,
YAY,54,1,2024-06-22T16:12:10.035Z,english_984.wav,0,0,378,2,0.2,-33.05935168,1.73475513,,,,
YAY,54,1,2024-06-22T16:12:10.035Z,english_984.wav,0,0,378,3,0.3,-68.36129611,0.46912413,,,,
YAY,54,1,2024-06-22T16:12:10.035Z,english_984.wav,0,0,378,4,0.4,97.30192,0.39793421,,,,
YAY,54,1,2024-06-22T16:12:10.035Z,english_984.wav,0,0,378,5,0.5,69.61380095,0.96500121,,,,
YAY,54,1,2024-06-22T16:12:10.035Z,english_984.wav,0,0,378,6,0.6,69.64301942,1.49151778,,,,
YAY,54,1,2024-06-22T16:12:10.035Z,english_984.wav,0,0,378,7,0.7,38.81811493,0.60244076,,,,
YAY,54,1,2024-06-22T16:12:10.035Z,english_984.wav,0,0,378,8,0.8,9.12823389,0.32922577,,,,
YAY,54,1,2024-06-22T16:12:10.035Z,english_984.wav,0,0,378,9,0.9,-90.77472933,0.54557953,,,,
YAY,54,1,2024-06-22T16:12:10.035Z,english_984.wav,0,0,378,10,1,-60.21880391,0.88296579,,,,
YAY,54,1,2024-06-22T16:12:10.035Z,english_984.wav,0,0,378,11,1.09391667,58.74577388,0.48906192,,,,
YAY,55,1,2024-06-22T16:12:10.035Z,english_735.wav,0,0,697,0,0,45.17443614,1.05701846,,,,
YAY,55,1,2024-06-22T16:12:10.035Z,english_735.wav,0,0,697,1,0.1,47.16225486,0.44895522,,,,
YAY,55,1,2024-06-22T16:12:10.035Z,english_735.wav,0,0,697,2,0.2,15.3532987,0.19506386,,,,
YAY,55,1,2024-06-22T16:12:10.035Z,english_735.wav,0,0,697,3,0.3,-43.81061568,0.99480529,,,,
YAY,55,1,2024-06-22T16:12:10.035Z,english_735.wav,0,0,697,4,0.4,83.17284614,0.46252356,,,,
YAY,55,1,2024-06-22T16:12:10.035Z,english_735.wav,0,0,697,5,0.5,60.7769414,1.45908064,,,,
YAY,55,1,2024-06-22T16:12:10.035Z,english_735.wav,0,0,697,6,0.6,-66.30411683,0.86428301,,,,
YAY,55,1,2024-06-22T16:12:10.035Z,english_735.wav,0,0,697,7,0.7,76.89695455,1.14188193,,,,
YAY,55,1,2024-06-22T16:12:10.035Z,english_735.wav,0,0,697,8,0.8,67.53178197,1.15486393,,,,
YAY,55,1,2024-06-22T16:12:10.035Z,english_735.wav,0,0,697,9,0.9,52.8137554,1.55511006,,,,
YAY,55,1,2024-06-22T16:12:10.035Z,english_735.wav,0,0,697,10,1,-86.58423276,0.92101672,,,,
YAY,55,1,2024-06-22T16:12:10.035Z,english_735.wav,0,0,697,11,1.09391667,98.32439456,1.0777974,,,,
YAY,56,1,2024-06-22T16:12:10.035Z,english_123.wav,0,0,885,0,0,-32.38117679,1.9386571,,,,
YAY,56,1,2024-06-22T16:12:10.035Z,english_123.wav,0,0,885,1,0.1,-64.71485254,0.09408227,,,,
YAY,56,1,2024-06-22T16:12:10.035Z,english_123.wav,0,0,885,2,0.2,-18.01291226,0.88874753,,,,
YAY,56,1,2024-06-22T16:12:10.035Z,english_123.wav,0,0,885,3,0.3,-79.77518117,1.32217329,,,,
YAY,56,1,2024-06-22T16:12:10.035Z,english_123.wav,0,0,885,4,0.4,-61.15753939,0.99742331,,,,
YAY,56,1,2024-06-22T16:12:10.035Z,english_123.wav,0,0,885,5,0.5,5.43029515,0.11774982,,,,
YAY,56,1,2024-06-22T16:12:10.035Z,english_123.wav,0,0,885,6,0.6,-66.97873388,0.31317678,,,,
YAY,56,1,2024-06-22T16:12:10.035Z,english_123.wav,0,0,885,7,0.7,5.34490813,0.67167814,,,,
YAY,56,1,2024-06-22T16:12:10.035Z,english_123.wav,0,0,885,8,0.8,4.4190052,1.13014618,,,,
YAY,56,1,2024-06-22T16:12:10.035Z,english_123.wav,0,0,885,9,0.9,-81.7992949,1.16110431,,,,
YAY,56,1,2024-06-22T16:12:10.035Z,english_123.wav,0,0,885,10,1,16.85173502,1.02455086,,,,
YAY,56,1,2024-06-22T16:12:10.035Z,english_123.wav,0,0,885,11,1.09391667,68.10720927,1.2246775,,,,
YAY,57,1,2024-06-22T16:12:10.035Z,english_419.wav,0,0,535,0,0,-43.56677124,1.2135263,,,,
YAY,57,1,2024-06-22T16:12:10.035Z,english_419.wav,0,0,535,1,0.1,-83.21546868,0.41335372,,,,
YAY,57,1,2024-06-22T16:12:10.035Z,english_419.wav,0,0,535,2,0.2,-41.54064667,1.17083651,,,,
YAY,57,1,2024-06-22T16:12:10.035Z,english_419.wav,0,0,535,3,0.3,-35.81330599,0.87264028,,,,
YAY,57,1,2024-06-22T16:12:10.035Z,english_419.wav,0,0,535,4,0.4,-43.55129097,0.34128763,,,,
YAY,57,1,2024-06-22T16:12:10.035Z,english_419.wav,0,0,535,5,0.5,-33.79077662,1.24788402,,,,
YAY,57,1,2024-06-22T16:12:10.035Z,english_419.wav,0,0,535,6,0.6,70.44881048,0.43489623,,,,
YAY,57,1,2024-06-22T16:12:10.035Z,english_419.wav,0,0,535,7,0.7,3.24826562,0.29781148,,,,
YAY,57,1,2024-06-22T16:12:10.035Z,english_419.wav,0,0,535,8,0.8,34.80296655,1.73156921,,,,
YAY,57,1,2024-06-22T16:12:10.035Z,english_419.wav,0,0,535,9,0.9,-7.36062238,1.52997649,,,,
YAY,57,1,2024-06-22T16:12:10.035Z,english_419.wav,0,0,535,10,1,41.00092789,0.32887005,,,,
YAY,57,1,2024-06-22T16:12:10.035Z,english_419.wav,0,0,535,11,1.09391667,-17.62948534,0.83665111,,,,
YAY,58,1,2024-06-22T16:12:10.035Z,english_196.wav,0,1,574,0,0,2.02767746,0.52488194,,,,
YAY,58,1,2024-06-22T16:12:10.035Z,english_196.wav,0,1,574,1,0.1,-33.8864136,0.07938129,,,,
YAY,58,1,2024-06-22T16:12:10.035Z,english_196.wav,0,1,574,2,0.2,22.2108892,1.27880301,,,,
YAY,58,1,2024-06-22T16:12:10.035Z,english_196.wav,0,1,574,3,0.3,26.8443858,0.8345871,,,,
YAY,58,1,2024-06-22T16:12:10.035Z,english_196.wav,0,1,574,4,0.4,54.5751314,1.20448566,,,,
YAY,58,1,2024-06-22T16:12:10.035Z,english_196.wav,0,1,574,5,0.5,17.7209079,1.38294306,,,,
YAY,58,1,2024-06-22T16:12:10.035Z,english_196.wav,0,1,574,6,0.6,46.4311721,1.20996935,,,,
YAY,58,1,2024-06-22T16:12:10.035Z,english_196.wav,0,1,574,7,0.7,74.3025548,0.87104857,,,,
YAY,58,1,2024-06-22T16:12:10.035Z,english_196.wav,0,1,574,8,0.8,24.2178378,0.98676135,,,,
YAY,58,1,2024-06-22T16:12:10.035Z,english_196.wav,0,1,574,9,0.9,-0.0117232829,0.71720025,,,,
YAY,58,1,2024-06-22T16:12:10.035Z,english_196.wav,0,1,574,10,1,-55.3381983,1.3134078,,,,
YAY,58,1,2024-06-22T16:12:10.035Z,english_196.wav,0,1,574,11,1.09391667,-51.2005151,0.6531164,,,,
YAY,59,1,2024-06-22T16:12:10.035Z,english_356.wav,0,1,721,0,0,32.76906958,0.08562483,,,,
YAY,59,1,2024-06-22T16:12:10.035Z,english_356.wav,0,1,721,1,0.1,-4.50463472,0.71215991,,,,
YAY,59,1,2024-06-22T16:12:10.035Z,english_356.wav,0,1,721,2,0.2,-3.50879641,0.27192591,,,,
YAY,59,1,2024-06-22T16:12:10.035Z,english_356.wav,0,1,721,3,0.3,-66.50182595,1.84647675,,,,
YAY,59,1,2024-06-22T16:12:10.035Z,english_356.wav,0,1,721,4,0.4,-41.87578379,0.94018547,,,,
YAY,59,1,2024-06-22T16:12:10.035Z,english_356.wav,0,1,721,5,0.5,15.06829484,0.35538969,,,,
YAY,59,1,2024-06-22T16:12:10.035Z,english_356.wav,0,1,721,6,0.6,-0.09178899,0.67852857,,,,
YAY,59,1,2024-06-22T16:12:10.035Z,english_356.wav,0,1,721,7,0.7,-46.92797448,1.60890004,,,,
YAY,59,1,2024-06-22T16:12:10.035Z,english_356.wav,0,1,721,8,0.8,77.06532678,0.18175686,,,,
YAY,59,1,2024-06-22T16:12:10.035Z,english_356.wav,0,1,721,9,0.9,26.9349071,1.60704056,,,,
YAY,59,1,2024-06-22T16:12:10.035Z,english_356.wav,0,1,721,10,1,1.26347583,0.84129373,,,,
YAY,59,1,2024-06-22T16:12:10.035Z,english_356.wav,0,1,721,11,1.09391667,-52.5712343,0.27010089,,,,
YAY,60,1,2024-06-22T16:12:10.035Z,english_911.wav,0,1,93,0,0,97.74431138,1.45295226,,,,
YAY,60,1,2024-06-22T16:12:10.035Z,english_911.wav,0,1,93,1,0.1,63.25353714,0.52934156,,,,
YAY,60,1,2024-06-22T16:12:10.035Z,english_911.wav,0,1,93,2,0.2,31.76873058,1.12978313,,,,
YAY,60,1,2024-06-22T16:12:10.035Z,english_911.wav,0,1,93,3,0.3,-80.65515271,0.46492479,,,,
YAY,60,1,2024-06-22T16:12:10.035Z,english_911.wav,0,1,93,4,0.4,87.72308134,1.65576631,,,,
YAY,60,1,2024-06-22T16:12:10.035Z,english_911.wav,0,1,93,5,0.5,-43.90030619,0.95301179,,,,
YAY,60,1,2024-06-22T16:12:10.035Z,english_911.wav,0,1,93,6,0.6,-96.43392939,1.98033305,,,,
YAY,60,1,2024-06-22T16:12:10.035Z,english_911.wav,0,1,93,7,0.7,-95.09691132,0.56650122,,,,
YAY,60,1,2024-06-22T16:12:10.035Z,english_911.wav,0,1,93,8,0.8,7.77484736,1.59543029,,,,
YAY,60,1,2024-06-22T16:12:10.035Z,english_911.wav,0,1,93,9,0.9,12.16907111,1.97260423,,,,
YAY,60,1,2024-06-22T16:12:10.035Z,english_911.wav,0,1,93,10,1,33.87787458,1.68149339,,,,
YAY,60,1,2024-06-22T16:12:10.035Z,english_911.wav,0,1,93,11,1.09391667,10.13841493,1.03055348,,,,
YAY,61,1,2024-06-22T16:12:10.035Z,english_144.wav,0,0,337,0,0,31.57285019,1.02092862,,,,
YAY,61,1,2024-06-22T16:12:10.035Z,english_144.wav,0,0,337,1,0.1,-66.82367858,1.21687454,,,,
YAY,61,1,2024-06-22T16:12:10.035Z,english_144.wav,0,0,337,2,0.2,25.9026646,0.83451974,,,,
YAY,61,1,2024-06-22T16:12:10.035Z,english_144.wav,0,0,337,3,0.3,-73.3005143,1.57454957,,,,
YAY,61,1,2024-06-22T16:12:10.035Z,english_144.wav,0,0,337,4,0.4,44.123678,0.07717076,,,,
YAY,61,1,2024-06-22T16:12:10.035Z,english_144.wav,0,0,337,5,0.5,49.27770762,0.27181384,,,,
YAY,61,1,2024-06-22T16:12:10.035Z,english_144.wav,0,0,337,6,0.6,22.38256085,1.7133157,,,,
YAY,61,1,2024-06-22T16:12:10.035Z,english_144.wav,0,0,337,7,0.7,-9.16605426,1.06775729,,,,
YAY,61,1,2024-06-22T16:12:10.035Z,english_144.wav,0,0,337,8,0.8,-36.80428778,1.42091993,,,,
YAY,61,1,2024-06-22T16:12:10.035Z,english_144.wav,0,0,337,9,0.9,-3.57060361,0.01524657,,,,
YAY,61,1,2024-06-22T16:12:10.035Z,english_144.wav,0,0,337,10,1,-56.05458997,0.90246411,,,,
YAY,61,1,2024-06-22T16:12:10.035Z,english_144.wav,0,0,337,11,1.09391667,-88.6470882,1.74083532,,,,
YAY,62,1,2024-06-22T16:12:10.035Z,english_253.wav,0,0,801,0,0,-76.54232622,1.69452202,,,,
YAY,62,1,2024-06-22T16:12:10.035Z,english_253.wav,0,0,801,1,0.1,23.75797542,0.94155674,,,,
YAY,62,1,2024-06-22T16:12:10.035Z,english_253.wav,0,0,801,2,0.2,-82.53055468,0.70353207,,,,
YAY,62,1,2024-06-22T16:12:10.035Z,english_253.wav,0,0,801,3,0.3,19.65476927,1.42331271,,,,
YAY,62,1,2024-06-22T16:12:10.035Z,english_253.wav,0,0,801,4,0.4,-55.81107988,1.11334266,,,,
YAY,62,1,2024-06-22T16:12:10.035Z,english_253.wav,0,0,801,5,0.5,73.24574297,1.34927457,,,,
YAY,62,1,2024-06-22T16:12:10.035Z,english_253.wav,0,0,801,6,0.6,-22.29926161,0.26375751,,,,
YAY,62,1,2024-06-22T16:12:10.035Z,english_253.wav,0,0,801,7,0.7,-11.91242057,0.63100518,,,,
YAY,62,1,2024-06-22T16:12:10.035Z,english_253.wav,0,0,801,8,0.8,-33.99896833,0.22145521,,,,
YAY,62,1,2024-06-22T16:12:10.035Z,english_253.wav,0,0,801,9,0.9,32.30473406,0.69052847,,,,
YAY,62,1,2024-06-22T16:12:10.035Z,english_253.wav,0,0,801,10,1,68.10745133,1.32352728,,,,
YAY,62,1,2024-06-22T16:12:10.035Z,english_253.wav,0,0,801,11,1.09391667,-22.82824608,0.79605757,,,,
YAY,63,1,2024-06-22T16:12:10.035Z,english_910.wav,0,1,392,0,0,93.46024718,0.69074333,,,,
YAY,63,1,2024-06-22T16:12:10.035Z,english_910.wav,0,1,392,1,0.1,-38.0106705,0.32933862,,,,
YAY,63,1,2024-06-22T16:12:10.035Z,english_910.wav,0,1,392,2,0.2,-30.70791106,1.76708997,,,,
YAY,63,1,2024-06-22T16:12:10.035Z,english_910.wav,0,1,392,3,0.3,-49.1070975,0.49648564,,,,
YAY,63,1,2024-06-22T16:12:10.035Z,english_910.wav,0,1,392,4,0.4,91.46247689,1.45285745,,,,
YAY,63,1,2024-06-22T16:12:10.035Z,english_910.wav,0,1,392,5,0.5,78.82386136,1.00544929,,,,
YAY,63,1,2024-06-22T16:12:10.035Z,english_910.wav,0,1,392,6,0.6,-6.45155929,1.307348,,,,
YAY,63,1,2024-06-22T16:12:10.035Z,english_910.wav,0,1,392,7,0.7,-83.2103546,0.52979989,,,,
YAY,63,1,2024-06-22T16:12:10.035Z,english_910.wav,0,1,392,8,0.8,-83.88050829,1.11439341,,,,
YAY,63,1,2024-06-22T16:12:10.035Z,english_910.wav,0,1,392,9,0.9,-99.45548406,1.95169189,,,,
YAY,63,1,2024-06-22T16:12:10.035Z,english_910.wav,0,1,392,10,1,66.97768693,1.74620984,,,,
YAY,63,1,2024-06-22T16:12:10.035Z,english_910.wav,0,1,392,11,1.09391667,38.56846955,0.09671244,,,,
YAY,64,1,2024-06-22T16:12:10.035Z,english_159.wav,0,0,1470,0,0,-27.71132793,0.45552689,,,,
YAY,64,1,2024-06-22T16:12:10.035Z,english_159.wav,0,0,1470,1,0.1,5.67043956,1.85865221,,,,
YAY,64,1,2024-06-22T16:12:10.035Z,english_159.wav,0,0,1470,2,0.2,-56.04116861,1.36292014,,,,
YAY,64,1,2024-06-22T16:12:10.035Z,english_159.wav,0,0,1470,3,0.3,-60.647669,0.8196748,,,,
YAY,64,1,2024-06-22T16:12:10.035Z,english_159.wav,0,0,1470,4,0.4,-31.28235293,1.14454104,,,,
YAY,64,1,2024-06-22T16:12:10.035Z,english_159.wav,0,0,1470,5,0.5,-41.95968639,0.2708192,,,,
YAY,64,1,2024-06-22T16:12:10.035Z,english_159.wav,0,0,1470,6,0.6,-46.83352467,0.67466027,,,,
YAY,64,1,2024-06-22T16:12:10.035Z,english_159.wav,0,0,1470,7,0.7,-6.87168688,0.75914602,,,,
YAY,64,1,2024-06-22T16:12:10.035Z,english_159.wav,0,0,1470,8,0.8,-38.22542966,0.8772758,,,,
YAY,64,1,2024-06-22T16:12:10.035Z,english_159.wav,0,0,1470,9,0.9,29.71030145,1.24753926,,,,
YAY,64,1,2024-06-22T16:12:10.035Z,english_159.wav,0,0,1470,10,1,-44.77576274,1.52106538,,,,
YAY,64,1,2024-06-22T16:12:10.035Z,english_159.wav,0,0,1470,11,1.09391667,46.77490147,1.15996843,,,,
YAY,65,1,2024-06-22T16:12:10.035Z,english_28.wav,0,1,282,0,0,46.79443609,1.01055945,,,,
YAY,65,1,2024-06-22T16:12:10.035Z,english_28.wav,0,1,282,1,0.1,2.26441595,0.40890859,,,,
YAY,65,1,2024-06-22T16:12:10.035Z,english_28.wav,0,1,282,2,0.2,-92.86356779,1.10134245,,,,
YAY,65,1,2024-06-22T16:12:10.035Z,english_28.wav,0,1,282,3,0.3,70.49912331,0.66041546,,,,
YAY,65,1,2024-06-22T16:12:10.035Z,english_28.wav,0,1,282,4,0.4,-44.6918064,1.38812901,,,,
YAY,65,1,2024-06-22T16:12:10.035Z,english_28.wav,0,1,282,5,0.5,-40.18885973,1.34163595,,,,
YAY,65,1,2024-06-22T16:12:10.035Z,english_28.wav,0,1,282,6,0.6,22.89431524,1.22801128,,,,
YAY,65,1,2024-06-22T16:12:10.035Z,english_28.wav,0,1,282,7,0.7,-98.00041762,1.98732106,,,,
YAY,65,1,2024-06-22T16:12:10.035Z,english_28.wav,0,1,282,8,0.8,-45.25978985,1.24747992,,,,
YAY,65,1,2024-06-22T16:12:10.035Z,english_28.wav,0,1,282,9,0.9,-73.28359547,1.6043756,,,,
YAY,65,1,2024-06-22T16:12:10.035Z,english_28.wav,0,1,282,10,1,-75.042578,1.05397351,,,,
YAY,65,1,2024-06-22T16:12:10.035Z,english_28.wav,0,1,282,11,1.09391667,-54.18290404,0.28539485,,,,
YAY,66,1,2024-06-22T16:12:10.035Z,english_538.wav,0,0,960,0,0,10.61627961,1.15184391,,,,
YAY,66,1,2024-06-22T16:12:10.035Z,english_538.wav,0,0,960,1,0.1,-8.0929012,1.50748819,,,,
YAY,66,1,2024-06-22T16:12:10.035Z,english_538.wav,0,0,960,2,0.2,4.29598946,0.49576218,,,,
YAY,66,1,2024-06-22T16:12:10.035Z,english_538.wav,0,0,960,3,0.3,-22.12858968,1.003898,,,,
YAY,66,1,2024-06-22T16:12:10.035Z,english_538.wav,0,0,960,4,0.4,-56.21885188,1.76624867,,,,
YAY,66,1,2024-06-22T16:12:10.035Z,english_538.wav,0,0,960,5,0.5,21.93376584,1.27574792,,,,
YAY,66,1,2024-06-22T16:12:10.035Z,english_538.wav,0,0,960,6,0.6,-68.32489038,0.1993111,,,,
YAY,66,1,2024-06-22T16:12:10.035Z,english_538.wav,0,0,960,7,0.7,-66.29674784,0.49400206,,,,
YAY,66,1,2024-06-22T16:12:10.035Z,english_538.wav,0,0,960,8,0.8,-74.72581258,0.32135859,,,,
YAY,66,1,2024-06-22T16:12:10.035Z,english_538.wav,0,0,960,9,0.9,14.86779264,1.63136948,,,,
YAY,66,1,2024-06-22T16:12:10.035Z,english_538.wav,0,0,960,10,1,61.56126855,1.32900666,,,,
YAY,66,1,2024-06-22T16:12:10.035Z,english_538.wav,0,0,960,11,1.09391667,-58.45933513,1.2934419,,,,
YAY,67,1,2024-06-22T16:12:10.035Z,english_744.wav,0,1,134,0,0,68.01647572,0.92301697,,,,
YAY,67,1,2024-06-22T16:12:10.035Z,english_744.wav,0,1,134,1,0.1,-94.84396495,1.7240092,,,,
YAY,67,1,2024-06-22T16:12:10.035Z,english_744.wav,0,1,134,2,0.2,-7.3752647,0.78395161,,,,
YAY,67,1,2024-06-22T16:12:10.035Z,english_744.wav,0,1,134,3,0.3,-81.08479212,1.15168853,,,,
YAY,67,1,2024-06-22T16:12:10.035Z,english_744.wav,0,1,134,4,0.4,-44.66331389,0.98824464,,,,
YAY,67,1,2024-06-22T16:12:10.035Z,english_744.wav,0,1,134,5,0.5,-77.45989494,1.26560798,,,,
YAY,67,1,2024-06-22T16:12:10.035Z,english_744.wav,0,1,134,6,0.6,19.1026234,0.20042884,,,,
YAY,67,1,2024-06-22T16:12:10.035Z,english_744.wav,0,1,134,7,0.7,-0.63798112,1.76365186,,,,
YAY,67,1,2024-06-22T16:12:10.035Z,english_744.wav,0,1,134,8,0.8,74.86031238,1.68948901,,,,
YAY,67,1,2024-06-22T16:12:10.035Z,english_744.wav,0,1,134,9,0.9,-35.9107796,0.81659748,,,,
YAY,67,1,2024-06-22T16:12:10.035Z,english_744.wav,0,1,134,10,1,-6.98299608,1.14393897,,,,
YAY,67,1,2024-06-22T16:12:10.035Z,english_744.wav,0,1,134,11,1.09391667,-12.26999011,0.86480781,,,,
YAY,68,1,2024-06-22T16:12:10.035Z,english_562.wav,0,0,504,0,0,-66.46118552,0.76561111,,,,
YAY,68,1,2024-06-22T16:12:10.035Z,english_562.wav,0,0,504,1,0.1,50.11424094,1.84010469,,,,
YAY,68,1,2024-06-22T16:12:10.035Z,english_562.wav,0,0,504,2,0.2,38.4118161,1.52246451,,,,
YAY,68,1,2024-06-22T16:12:10.035Z,english_562.wav,0,0,504,3,0.3,55.44168462,0.37876531,,,,
YAY,68,1,2024-06-22T16:12:10.035Z,english_562.wav,0,0,504,4,0.4,19.14590229,1.46315217,,,,
YAY,68,1,2024-06-22T16:12:10.035Z,english_562.wav,0,0,504,5,0.5,-3.26381008,0.03585566,,,,
YAY,68,1,2024-06-22T16:12:10.035Z,english_562.wav,0,0,504,6,0.6,91.90960542,0.70876992,,,,
YAY,68,1,2024-06-22T16:12:10.035Z,english_562.wav,0,0,504,7,0.7,62.21453642,1.53596627,,,,
YAY,68,1,2024-06-22T16:12:10.035Z,english_562.wav,0,0,504,8,0.8,83.94650253,1.29387044,,,,
YAY,68,1,2024-06-22T16:12:10.035Z,english_562.wav,0,0,504,9,0.9,-69.18732996,0.65619247,,,,
YAY,68,1,2024-06-22T16:12:10.035Z,english_562.wav,0,0,504,10,1,-21.18203071,0.14449541,,,,
YAY,68,1,2024-06-22T16:12:10.035Z,english_562.wav,0,0,504,11,1.09391667,12.05175974,1.12518845,,,,
YAY,69,1,2024-06-22T16:12:10.035Z,english_789.wav,0,1,265,0,0,50.62849976,1.65376855,,,,
YAY,69,1,2024-06-22T16:12:10.035Z,english_789.wav,0,1,265,1,0.1,46.39641285,0.25516595,,,,
YAY,69,1,2024-06-22T16:12:10.035Z,english_789.wav,0,1,265,2,0.2,-17.70636983,1.77379995,,,,
YAY,69,1,2024-06-22T16:12:10.035Z,english_789.wav,0,1,265,3,0.3,-70.54012265,1.01588482,,,,
YAY,69,1,2024-06-22T16:12:10.035Z,english_789.wav,0,1,265,4,0.4,-41.61831808,0.40942594,,,,
YAY,69,1,2024-06-22T16:12:10.035Z,english_789.wav,0,1,265,5,0.5,6.76921547,0.77453827,,,,
YAY,69,1,2024-06-22T16:12:10.035Z,english_789.wav,0,1,265,6,0.6,-23.06076299,0.48985142,,,,
YAY,69,1,2024-06-22T16:12:10.035Z,english_789.wav,0,1,265,7,0.7,12.0616888,0.23736517,,,,
YAY,69,1,2024-06-22T16:12:10.035Z,english_789.wav,0,1,265,8,0.8,-0.46236059,1.96173919,,,,
YAY,69,1,2024-06-22T16:12:10.035Z,english_789.wav,0,1,265,9,0.9,1.32265195,1.17779465,,,,
YAY,69,1,2024-06-22T16:12:10.035Z,english_789.wav,0,1,265,10,1,-42.41851316,1.11577027,,,,
YAY,69,1,2024-06-22T16:12:10.035Z,english_789.wav,0,1,265,11,1.09391667,16.23009632,0.26104585,,,,
YAY,70,1,2024-06-22T16:12:10.035Z,english_282.wav,0,0,596,0,0,79.51809952,1.2792911,,,,
YAY,70,1,2024-06-22T16:12:10.035Z,english_282.wav,0,0,596,1,0.1,55.92109115,0.93344042,,,,
YAY,70,1,2024-06-22T16:12:10.035Z,english_282.wav,0,0,596,2,0.2,36.01060515,1.94968889,,,,
YAY,70,1,2024-06-22T16:12:10.035Z,english_282.wav,0,0,596,3,0.3,4.60281664,1.12428424,,,,
YAY,70,1,2024-06-22T16:12:10.035Z,english_282.wav,0,0,596,4,0.4,35.69966579,0.7610034,,,,
YAY,70,1,2024-06-22T16:12:10.035Z,english_282.wav,0,0,596,5,0.5,-79.87721836,0.66186596,,,,
YAY,70,1,2024-06-22T16:12:10.035Z,english_282.wav,0,0,596,6,0.6,-3.98252218,0.57211865,,,,
YAY,70,1,2024-06-22T16:12:10.035Z,english_282.wav,0,0,596,7,0.7,-78.10052274,0.40544896,,,,
YAY,70,1,2024-06-22T16:12:10.035Z,english_282.wav,0,0,596,8,0.8,69.1474283,0.68156422,,,,
YAY,70,1,2024-06-22T16:12:10.035Z,english_282.wav,0,0,596,9,0.9,58.09261901,0.87028019,,,,
YAY,70,1,2024-06-22T16:12:10.035Z,english_282.wav,0,0,596,10,1,94.50826365,1.91563213,,,,
YAY,70,1,2024-06-22T16:12:10.035Z,english_282.wav,0,0,596,11,1.09391667,71.90418642,1.01931827,,,,
YAY,71,1,2024-06-22T16:12:10.035Z,english_804.wav,0,0,768,0,0,12.60054447,1.79447267,,,,
YAY,71,1,2024-06-22T16:12:10.035Z,english_804.wav,0,0,768,1,0.1,-24.04730937,0.19342468,,,,
YAY,71,1,2024-06-22T16:12:10.035Z,english_804.wav,0,0,768,2,0.2,-96.55390316,1.90657737,,,,
YAY,71,1,2024-06-22T16:12:10.035Z,english_804.wav,0,0,768,3,0.3,-0.0991441,0.96962123,,,,
YAY,71,1,2024-06-22T16:12:10.035Z,english_804.wav,0,0,768,4,0.4,-4.22567636,1.3580225,,,,
YAY,71,1,2024-06-22T16:12:10.035Z,english_804.wav,0,0,768,5,0.5,70.60990728,1.75244202,,,,
YAY,71,1,2024-06-22T16:12:10.035Z,english_804.wav,0,0,768,6,0.6,-70.63369163,1.0415074,,,,
YAY,71,1,2024-06-22T16:12:10.035Z,english_804.wav,0,0,768,7,0.7,9.74055236,0.51929492,,,,
YAY,71,1,2024-06-22T16:12:10.035Z,english_804.wav,0,0,768,8,0.8,30.38077192,0.12110661,,,,
YAY,71,1,2024-06-22T16:12:10.035Z,english_804.wav,0,0,768,9,0.9,-59.11296325,0.62938559,,,,
YAY,71,1,2024-06-22T16:12:10.035Z,english_804.wav,0,0,768,10,1,43.99527933,1.09820629,,,,
YAY,71,1,2024-06-22T16:12:10.035Z,english_804.wav,0,0,768,11,1.09391667,50.55732952,0.96550638,,,,
YAY,72,1,2024-06-22T16:12:10.035Z,english_121.wav,0,1,185,0,0,-45.47404613,1.1666534,,,,
YAY,72,1,2024-06-22T16:12:10.035Z,english_121.wav,0,1,185,1,0.1,-36.49769978,1.03435239,,,,
YAY,72,1,2024-06-22T16:12:10.035Z,english_121.wav,0,1,185,2,0.2,-66.69646717,1.07224248,,,,
YAY,72,1,2024-06-22T16:12:10.035Z,english_121.wav,0,1,185,3,0.3,56.76733216,1.62337858,,,,
YAY,72,1,2024-06-22T16:12:10.035Z,english_121.wav,0,1,185,4,0.4,-69.2204817,1.13623118,,,,
YAY,72,1,2024-06-22T16:12:10.035Z,english_121.wav,0,1,185,5,0.5,67.71926704,0.1634934,,,,
YAY,72,1,2024-06-22T16:12:10.035Z,english_121.wav,0,1,185,6,0.6,-20.18031628,1.38272259,,,,
YAY,72,1,2024-06-22T16:12:10.035Z,english_121.wav,0,1,185,7,0.7,-46.80295657,1.3454344,,,,
YAY,72,1,2024-06-22T16:12:10.035Z,english_121.wav,0,1,185,8,0.8,-30.65691434,1.73628045,,,,
YAY,72,1,2024-06-22T16:12:10.035Z,english_121.wav,0,1,185,9,0.9,-30.96173959,0.71303122,,,,
YAY,72,1,2024-06-22T16:12:10.035Z,english_121.wav,0,1,185,10,1,69.71514833,1.56011323,,,,
YAY,72,1,2024-06-22T16:12:10.035Z,english_121.wav,0,1,185,11,1.09391667,14.56946925,0.62204911,,,,
YAY,73,1,2024-06-22T16:12:10.035Z,english_725.wav,0,0,438,0,0,-9.03644008,1.33439085,,,,
YAY,73,1,2024-06-22T16:12:10.035Z,english_725.wav,0,0,438,1,0.1,17.25768585,1.14250237,,,,
YAY,73,1,2024-06-22T16:12:10.035Z,english_725.wav,0,0,438,2,0.2,31.80596944,1.31071592,,,,
YAY,73,1,2024-06-22T16:12:10.035Z,english_725.wav,0,0,438,3,0.3,-37.53705258,0.64785465,,,,
YAY,73,1,2024-06-22T16:12:10.035Z,english_725.wav,0,0,438,4,0.4,-72.83315878,1.42686134,,,,
YAY,73,1,2024-06-22T16:12:10.035Z,english_725.wav,0,0,438,5,0.5,-86.89655244,1.9351134,,,,
YAY,73,1,2024-06-22T16:12:10.035Z,english_725.wav,0,0,438,6,0.6,-41.36643193,0.6329639,,,,
YAY,73,1,2024-06-22T16:12:10.035Z,english_725.wav,0,0,438,7,0.7,-24.29547068,1.12609379,,,,
YAY,73,1,2024-06-22T16:12:10.035Z,english_725.wav,0,0,438,8,0.8,-10.26201034,0.4317144,,,,
YAY,73,1,2024-06-22T16:12:10.035Z,english_725.wav,0,0,438,9,0.9,-84.73732243,0.11714111,,,,
YAY,73,1,2024-06-22T16:12:10.035Z,english_725.wav,0,0,438,10,1,29.57592595,1.51572797,,,,
YAY,73,1,2024-06-22T16:12:10.035Z,english_725.wav,0,0,438,11,1.09391667,-31.00210879,0.75437121,,,,
YAY,74,1,2024-06-22T16:12:10.035Z,english_660.wav,0,0,1061,0,0,-6.98483794,0.74998418,,,,
YAY,74,1,2024-06-22T16:12:10.035Z,english_660.wav,0,0,1061,1,0.1,-19.91361353,1.44180771,,,,
YAY,74,1,2024-06-22T16:12:10.035Z,english_660.wav,0,0,1061,2,0.2,78.11411012,1.86148363,,,,
YAY,74,1,2024-06-22T16:12:10.035Z,english_660.wav,0,0,1061,3,0.3,31.9686312,0.29878934,,,,
YAY,74,1,2024-06-22T16:12:10.035Z,english_660.wav,0,0,1061,4,0.4,59.3000475,0.70934132,,,,
YAY,74,1,2024-06-22T16:12:10.035Z,english_660.wav,0,0,1061,5,0.5,-70.43888588,1.90119169,,,,
YAY,74,1,2024-06-22T16:12:10.035Z,english_660.wav,0,0,1061,6,0.6,-20.07366552,0.76680768,,,,
YAY,74,1,2024-06-22T16:12:10.035Z,english_660.wav,0,0,1061,7,0.7,-55.63699673,0.42211173,,,,
YAY,74,1,2024-06-22T16:12:10.035Z,english_660.wav,0,0,1061,8,0.8,-98.18697012,0.44483448,,,,
YAY,74,1,2024-06-22T16:12:10.035Z,english_660.wav,0,0,1061,9,0.9,13.89215317,1.66618929,,,,
YAY,74,1,2024-06-22T16:12:10.035Z,english_660.wav,0,0,1061,10,1,-7.40212614,0.443528,,,,
YAY,74,1,2024-06-22T16:12:10.035Z,english_660.wav,0,0,1061,11,1.09391667,28.56237553,1.27514236,,,,
YAY,75,1,2024-06-22T16:12:10.035Z,english_566.wav,0,1,770,0,0,-62.56630806,1.86832625,,,,
YAY,75,1,2024-06-22T16:12:10.035Z,english_566.wav,0,1,770,1,0.1,-47.88948562,0.16089863,,,,
YAY,75,1,2024-06-22T16:12:10.035Z,english_566.wav,0,1,770,2,0.2,32.64151801,0.0444821,,,,
YAY,75,1,2024-06-22T16:12:10.035Z,english_566.wav,0,1,770,3,0.3,-32.06511913,1.57257602,,,,
YAY,75,1,2024-06-22T16:12:10.035Z,english_566.wav,0,1,770,4,0.4,93.60270043,1.42885531,,,,
YAY,75,1,2024-06-22T16:12:10.035Z,english_566.wav,0,1,770,5,0.5,26.08771786,1.38538324,,,,
YAY,75,1,2024-06-22T16:12:10.035Z,english_566.wav,0,1,770,6,0.6,-3.7007295,1.01058653,,,,
YAY,75,1,2024-06-22T16:12:10.035Z,english_566.wav,0,1,770,7,0.7,58.86956752,0.52217054,,,,
YAY,75,1,2024-06-22T16:12:10.035Z,english_566.wav,0,1,770,8,0.8,-75.73304048,1.32659726,,,,
YAY,75,1,2024-06-22T16:12:10.035Z,english_566.wav,0,1,770,9,0.9,-35.43253665,0.88864926,,,,
YAY,75,1,2024-06-22T16:12:10.035Z,english_566.wav,0,1,770,10,1,-21.03744822,1.19784945,,,,
YAY,75,1,2024-06-22T16:12:10.035Z,english_566.wav,0,1,770,11,1.09391667,-19.58423429,0.92748285,,,,
YAY,76,1,2024-06-22T16:12:10.035Z,english_468.wav,0,0,626,0,0,19.31976264,0.66158439,,,,
YAY,76,1,2024-06-22T16:12:10.035Z,english_468.wav,0,0,626,1,0.1,-31.93707888,1.54343798,,,,
YAY,76,1,2024-06-22T16:12:10.035Z,english_468.wav,0,0,626,2,0.2,87.74953583,1.18268033,,,,
YAY,76,1,2024-06-22T16:12:10.035Z,english_468.wav,0,0,626,3,0.3,75.542399,0.92842135,,,,
YAY,76,1,2024-06-22T16:12:10.035Z,english_468.wav,0,0,626,4,0.4,-30.66435396,1.55978724,,,,
YAY,76,1,2024-06-22T16:12:10.035Z,english_468.wav,0,0,626,5,0.5,27.34391208,1.04364147,,,,
YAY,76,1,2024-06-22T16:12:10.035Z,english_468.wav,0,0,626,6,0.6,-88.33380447,1.4617077,,,,
YAY,76,1,2024-06-22T16:12:10.035Z,english_468.wav,0,0,626,7,0.7,22.89610212,1.75173298,,,,
YAY,76,1,2024-06-22T16:12:10.035Z,english_468.wav,0,0,626,8,0.8,-23.39935551,0.43321648,,,,
YAY,76,1,2024-06-22T16:12:10.035Z,english_468.wav,0,0,626,9,0.9,4.99226109,0.70184302,,,,
YAY,76,1,2024-06-22T16:12:10.035Z,english_468.wav,0,0,626,10,1,10.7480571,0.01962582,,,,
YAY,76,1,2024-06-22T16:12:10.035Z,english_468.wav,0,0,626,11,1.09391667,16.97403313,1.09642758,,,,
YAY,77,1,2024-06-22T16:12:10.035Z,english_58.wav,0,1,585,0,0,-46.52390323,0.35126105,,,,
YAY,77,1,2024-06-22T16:12:10.035Z,english_58.wav,0,1,585,1,0.1,19.23789521,1.12280932,,,,
YAY,77,1,2024-06-22T16:12:10.035Z,english_58.wav,0,1,585,2,0.2,69.12106093,0.45102457,,,,
YAY,77,1,2024-06-22T16:12:10.035Z,english_58.wav,0,1,585,3,0.3,-43.53874687,1.46305127,,,,
YAY,77,1,2024-06-22T16:12:10.035Z,english_58.wav,0,1,585,4,0.4,-56.35842904,1.909583,,,,
YAY,77,1,2024-06-22T16:12:10.035Z,english_58.wav,0,1,585,5,0.5,7.35134255,1.54363939,,,,
YAY,77,1,2024-06-22T16:12:10.035Z,english_58.wav,0,1,585,6,0.6,-28.20207265,0.80451607,,,,
YAY,77,1,2024-06-22T16:12:10.035Z,english_58.wav,0,1,585,7,0.7,-78.68633359,1.94404618,,,,
YAY,77,1,2024-06-22T16:12:10.035Z,english_58.wav,0,1,585,8,0.8,27.00073493,0.82845057,,,,
YAY,77,1,2024-06-22T16:12:10.035Z,english_58.wav,0,1,585,9,0.9,-36.58564369,1.3978679,,,,
YAY,77,1,2024-06-22T16:12:10.035Z,english_58.wav,0,1,585,10,1,4.57816085,1.7044559,,,,
YAY,77,1,2024-06-22T16:12:10.035Z,english_58.wav,0,1,585,11,1.09391667,-5.20378192,0.16192575,,,,
YAY,78,1,2024-06-22T16:12:10.035Z,english_113.wav,0,1,284,0,0,15.28166422,0.55667307,,,,
YAY,78,1,2024-06-22T16:12:10.035Z,english_113.wav,0,1,284,1,0.1,47.09879561,0.58592964,,,,
YAY,78,1,2024-06-22T16:12:10.035Z,english_113.wav,0,1,284,2,0.2,30.55065419,1.23790542,,,,
YAY,78,1,2024-06-22T16:12:10.035Z,english_113.wav,0,1,284,3,0.3,60.74459651,0.97364291,,,,
YAY,78,1,2024-06-22T16:12:10.035Z,english_113.wav,0,1,284,4,0.4,-80.73338373,0.01252312,,,,
YAY,78,1,2024-06-22T16:12:10.035Z,english_113.wav,0,1,284,5,0.5,-58.25545597,0.68334247,,,,
YAY,78,1,2024-06-22T16:12:10.035Z,english_113.wav,0,1,284,6,0.6,82.81118061,0.36908508,,,,
YAY,78,1,2024-06-22T16:12:10.035Z,english_113.wav,0,1,284,7,0.7,-61.4933419,0.9756346,,,,
YAY,78,1,2024-06-22T16:12:10.035Z,english_113.wav,0,1,284,8,0.8,15.22379089,1.72445689,,,,
YAY,78,1,2024-06-22T16:12:10.035Z,english_113.wav,0,1,284,9,0.9,-30.23460484,0.62749292,,,,
YAY,78,1,2024-06-22T16:12:10.035Z,english_113.wav,0,1,284,10,1,29.92994598,0.55530103,,,,
YAY,78,1,2024-06-22T16:12:10.035Z,english_113.wav,0,1,284,11,1.09391667,22.43308389,0.65235156,,,,
YAY,79,1,2024-06-22T16:12:10.035Z,english_20.wav,0,1,606,0,0,63.0600358,0.86275217,,,,
YAY,79,1,2024-06-22T16:12:10.035Z,english_20.wav,0,1,606,1,0.1,-51.01536648,0.66446023,,,,
YAY,79,1,2024-06-22T16:12:10.035Z,english_20.wav,0,1,606,2,0.2,-79.38394235,0.76617276,,,,
YAY,79,1,2024-06-22T16:12:10.035Z,english_20.wav,0,1,606,3,0.3,18.37962799,1.08107646,,,,
YAY,79,1,2024-06-22T16:12:10.035Z,english_20.wav,0,1,606,4,0.4,-93.10550864,0.88129698,,,,
YAY,79,1,2024-06-22T16:12:10.035Z,english_20.wav,0,1,606,5,0.5,-34.41615075,1.16389527,,,,
YAY,79,1,2024-06-22T16:12:10.035Z,english_20.wav,0,1,606,6,0.6,-59.60856077,1.73817265,,,,
YAY,79,1,2024-06-22T16:12:10.035Z,english_20.wav,0,1,606,7,0.7,-5.91904512,1.94089825,,,,
YAY,79,1,2024-06-22T16:12:10.035Z,english_20.wav,0,1,606,8,0.8,-91.08119021,0.88467755,,,,
YAY,79,1,2024-06-22T16:12:10.035Z,english_20.wav,0,1,606,9,0.9,-45.35675883,1.32628719,,,,
YAY,79,1,2024-06-22T16:12:10.035Z,english_20.wav,0,1,606,10,1,-19.89168543,0.31006302,,,,
YAY,79,1,2024-06-22T16:12:10.035Z,english_20.wav,0,1,606,11,1.09391667,49.76773146,0.42478041,,,,
YAY,80,1,2024-06-22T16:12:10.035Z,english_470.wav,0,1,564,0,0,7.37990413,0.50795653,,,,
YAY,80,1,2024-06-22T16:12:10.035Z,english_470.wav,0,1,564,1,0.1,87.94942489,0.30691906,,,,
YAY,80,1,2024-06-22T16:12:10.035Z,english_470.wav,0,1,564,2,0.2,10.38249529,0.98636118,,,,
YAY,80,1,2024-06-22T16:12:10.035Z,english_470.wav,0,1,564,3,0.3,-58.07329771,1.21445168,,,,
YAY,80,1,2024-06-22T16:12:10.035Z,english_470.wav,0,1,564,4,0.4,23.85321855,1.48681533,,,,
YAY,80,1,2024-06-22T16:12:10.035Z,english_470.wav,0,1,564,5,0.5,6.8444155,0.97810489,,,,
YAY,80,1,2024-06-22T16:12:10.035Z,english_470.wav,0,1,564,6,0.6,-98.77408233,1.43803165,,,,
YAY,80,1,2024-06-22T16:12:10.035Z,english_470.wav,0,1,564,7,0.7,31.31374825,0.53571114,,,,
YAY,80,1,2024-06-22T16:12:10.035Z,english_470.wav,0,1,564,8,0.8,48.11301354,0.52187188,,,,
YAY,80,1,2024-06-22T16:12:10.035Z,english_470.wav,0,1,564,9,0.9,41.85545408,0.48211822,,,,
YAY,80,1,2024-06-22T16:12:10.035Z,english_470.wav,0,1,564,10,1,-24.66275902,1.48098769,,,,
YAY,80,1,2024-06-22T16:12:10.035Z,english_470.wav,0,1,564,11,1.09391667,-90.92929456,1.20326113,,,,
YAY,81,1,2024-06-22T16:12:10.035Z,english_931.wav,0,0,716,0,0,-48.18620988,1.69837389,,,,
YAY,81,1,2024-06-22T16:12:10.035Z,english_931.wav,0,0,716,1,0.1,93.34540741,1.28970497,,,,
YAY,81,1,2024-06-22T16:12:10.035Z,english_931.wav,0,0,716,2,0.2,-88.99120058,1.49371187,,,,
YAY,81,1,2024-06-22T16:12:10.035Z,english_931.wav,0,0,716,3,0.3,67.25284663,0.85799596,,,,
YAY,81,1,2024-06-22T16:12:10.035Z,english_931.wav,0,0,716,4,0.4,-10.35682297,1.16281473,,,,
YAY,81,1,2024-06-22T16:12:10.035Z,english_931.wav,0,0,716,5,0.5,-25.57246183,1.03469104,,,,
YAY,81,1,2024-06-22T16:12:10.035Z,english_931.wav,0,0,716,6,0.6,-89.21725543,1.18976364,,,,
YAY,81,1,2024-06-22T16:12:10.035Z,english_931.wav,0,0,716,7,0.7,48.14137998,0.15613957,,,,
YAY,81,1,2024-06-22T16:12:10.035Z,english_931.wav,0,0,716,8,0.8,15.08583038,0.89546931,,,,
YAY,81,1,2024-06-22T16:12:10.035Z,english_931.wav,0,0,716,9,0.9,-21.24642179,1.04801932,,,,
YAY,81,1,2024-06-22T16:12:10.035Z,english_931.wav,0,0,716,10,1,-61.3036155,0.54320379,,,,
YAY,81,1,2024-06-22T16:12:10.035Z,english_931.wav,0,0,716,11,1.09391667,-1.60302041,1.57083838,,,,
YAY,82,1,2024-06-22T16:12:10.035Z,english_334.wav,0,0,525,0,0,96.16486857,1.13651221,,,,
YAY,82,1,2024-06-22T16:12:10.035Z,english_334.wav,0,0,525,1,0.1,-86.51500024,1.49269335,,,,
YAY,82,1,2024-06-22T16:12:10.035Z,english_334.wav,0,0,525,2,0.2,-9.37257187,0.61460927,,,,
YAY,82,1,2024-06-22T16:12:10.035Z,english_334.wav,0,0,525,3,0.3,72.06266942,0.5407499,,,,
YAY,82,1,2024-06-22T16:12:10.035Z,english_334.wav,0,0,525,4,0.4,11.10798007,1.09788414,,,,
YAY,82,1,2024-06-22T16:12:10.035Z,english_334.wav,0,0,525,5,0.5,-81.04621106,1.18897069,,,,
YAY,82,1,2024-06-22T16:12:10.035Z,english_334.wav,0,0,525,6,0.6,-50.80034191,1.05502288,,,,
YAY,82,1,2024-06-22T16:12:10.035Z,english_334.wav,0,0,525,7,0.7,40.96771285,1.84226931,,,,
YAY,82,1,2024-06-22T16:12:10.035Z,english_334.wav,0,0,525,8,0.8,92.51105292,0.15122728,,,,
YAY,82,1,2024-06-22T16:12:10.035Z,english_334.wav,0,0,525,9,0.9,6.87694398,1.31717853,,,,
YAY,82,1,2024-06-22T16:12:10.035Z,english_334.wav,0,0,525,10,1,8.2337815,0.71137381,,,,
YAY,82,1,2024-06-22T16:12:10.035Z,english_334.wav,0,0,525,11,1.09391667,-26.51950547,0.47666491,,,,
YAY,83,1,2024-06-22T16:12:10.035Z,english_226.wav,0,0,584,0,0,98.43255035,0.1861089,,,,
YAY,83,1,2024-06-22T16:12:10.035Z,english_226.wav,0,0,584,1,0.1,23.16871923,1.79682409,,,,
YAY,83,1,2024-06-22T16:12:10.035Z,english_226.wav,0,0,584,2,0.2,-3.17590314,0.62264246,,,,
YAY,83,1,2024-06-22T16:12:10.035Z,english_226.wav,0,0,584,3,0.3,99.80077362,0.77697044,,,,
YAY,83,1,2024-06-22T16:12:10.035Z,english_226.wav,0,0,584,4,0.4,-24.84472991,0.40647993,,,,
YAY,83,1,2024-06-22T16:12:10.035Z,english_226.wav,0,0,584,5,0.5,-71.24957961,0.2976559,,,,
YAY,83,1,2024-06-22T16:12:10.035Z,english_226.wav,0,0,584,6,0.6,65.30269432,1.34176321,,,,
YAY,83,1,2024-06-22T16:12:10.035Z,english_226.wav,0,0,584,7,0.7,72.52720516,1.5087957,,,,
YAY,83,1,2024-06-22T16:12:10.035Z,english_226.wav,0,0,584,8,0.8,-90.19894531,1.69033096,,,,
YAY,83,1,2024-06-22T16:12:10.035Z,english_226.wav,0,0,584,9,0.9,11.74226894,0.35382167,,,,
YAY,83,1,2024-06-22T16:12:10.035Z,english_226.wav,0,0,584,10,1,-32.60755552,1.3177586,,,,
YAY,83,1,2024-06-22T16:12:10.035Z,english_226.wav,0,0,584,11,1.09391667,10.41380533,0.38575288,,,,
YAY,84,1,2024-06-22T16:12:10.035Z,english_103.wav,0,0,776,0,0,48.6835233,0.31659488,,,,
YAY,84,1,2024-06-22T16:12:10.035Z,english_103.wav,0,0,776,1,0.1,36.55238137,0.91966706,,,,
YAY,84,1,2024-06-22T16:12:10.035Z,english_103.wav,0,0,776,2,0.2,48.06121709,0.7088313,,,,
YAY,84,1,2024-06-22T16:12:10.035Z,english_103.wav,0,0,776,3,0.3,-53.21418968,0.61655079,,,,
YAY,84,1,2024-06-22T16:12:10.035Z,english_103.wav,0,0,776,4,0.4,-84.49986715,0.3504638,,,,
YAY,84,1,2024-06-22T16:12:10.035Z,english_103.wav,0,0,776,5,0.5,2.274647,0.15173733,,,,
YAY,84,1,2024-06-22T16:12:10.035Z,english_103.wav,0,0,776,6,0.6,65.76169241,0.65986716,,,,
YAY,84,1,2024-06-22T16:12:10.035Z,english_103.wav,0,0,776,7,0.7,-54.56461338,1.01542857,,,,
YAY,84,1,2024-06-22T16:12:10.035Z,english_103.wav,0,0,776,8,0.8,-9.60778265,0.43719066,,,,
YAY,84,1,2024-06-22T16:12:10.035Z,english_103.wav,0,0,776,9,0.9,20.85441667,1.38316606,,,,
YAY,84,1,2024-06-22T16:12:10.035Z,english_103.wav,0,0,776,10,1,-75.91935247,1.2339212,,,,
YAY,84,1,2024-06-22T16:12:10.035Z,english_103.wav,0,0,776,11,1.09391667,-89.16544197,1.84830476,,,,
YAY,85,1,2024-06-22T16:12:10.035Z,english_772.wav,0,0,934,0,0,-98.58408334,0.99511883,,,,
YAY,85,1,2024-06-22T16:12:10.035Z,english_772.wav,0,0,934,1,0.1,-61.87034705,1.73357078,,,,
YAY,85,1,2024-06-22T16:12:10.035Z,english_772.wav,0,0,934,2,0.2,-18.09819366,0.0586696,,,,
YAY,85,1,2024-06-22T16:12:10.035Z,english_772.wav,0,0,934,3,0.3,12.3782964,0.06385699,,,,
YAY,85,1,2024-06-22T16:12:10.035Z,english_772.wav,0,0,934,4,0.4,-22.02938965,1.69798328,,,,
YAY,85,1,2024-06-22T16:12:10.035Z,english_772.wav,0,0,934,5,0.5,59.95527001,1.42811841,,,,
YAY,85,1,2024-06-22T16:12:10.035Z,english_772.wav,0,0,934,6,0.6,-20.50157966,1.57518039,,,,
YAY,85,1,2024-06-22T16:12:10.035Z,english_772.wav,0,0,934,7,0.7,-21.89990222,1.02318801,,,,
YAY,85,1,2024-06-22T16:12:10.035Z,english_772.wav,0,0,934,8,0.8,25.10186839,0.72889481,,,,
YAY,85,1,2024-06-22T16:12:10.035Z,english_772.wav,0,0,934,9,0.9,-9.02191032,0.61952628,,,,
YAY,85,1,2024-06-22T16:12:10.035Z,english_772.wav,0,0,934,10,1,-16.49784397,1.31221342,,,,
YAY,85,1,2024-06-22T16:12:10.035Z,english_772.wav,0,0,934,11,1.09391667,-42.94184761,1.78690458,,,,
YAY,86,1,2024-06-22T16:12:10.035Z,english_251.wav,0,0,561,0,0,-93.03805102,1.12342723,,,,
YAY,86,1,2024-06-22T16:12:10.035Z,english_251.wav,0,0,561,1,0.1,51.2655571,1.9149468,,,,
YAY,86,1,2024-06-22T16:12:10.035Z,english_251.wav,0,0,561,2,0.2,37.58283666,1.73876516,,,,
YAY,86,1,2024-06-22T16:12:10.035Z,english_251.wav,0,0,561,3,0.3,-55.53133441,1.01047504,,,,
YAY,86,1,2024-06-22T16:12:10.035Z,english_251.wav,0,0,561,4,0.4,98.21602679,0.87048418,,,,
YAY,86,1,2024-06-22T16:12:10.035Z,english_251.wav,0,0,561,5,0.5,-85.24256095,1.77281536,,,,
YAY,86,1,2024-06-22T16:12:10.035Z,english_251.wav,0,0,561,6,0.6,-76.0460332,1.29741372,,,,
YAY,86,1,2024-06-22T16:12:10.035Z,english_251.wav,0,0,561,7,0.7,26.51950349,0.41684213,,,,
YAY,86,1,2024-06-22T16:12:10.035Z,english_251.wav,0,0,561,8,0.8,-37.24987979,1.13690271,,,,
YAY,86,1,2024-06-22T16:12:10.035Z,english_251.wav,0,0,561,9,0.9,-60.42287441,1.00770315,,,,
YAY,86,1,2024-06-22T16:12:10.035Z,english_251.wav,0,0,561,10,1,31.01216571,0.51077747,,,,
YAY,86,1,2024-06-22T16:12:10.035Z,english_251.wav,0,0,561,11,1.09391667,74.35472995,0.89311028,,,,
YAY,87,1,2024-06-22T16:12:10.035Z,english_213.wav,0,1,633,0,0,-32.76105426,1.09332496,,,,
YAY,87,1,2024-06-22T16:12:10.035Z,english_213.wav,0,1,633,1,0.1,20.82965334,1.62338997,,,,
YAY,87,1,2024-06-22T16:12:10.035Z,english_213.wav,0,1,633,2,0.2,92.37712608,0.62920964,,,,
YAY,87,1,2024-06-22T16:12:10.035Z,english_213.wav,0,1,633,3,0.3,62.5594058,1.24187197,,,,
YAY,87,1,2024-06-22T16:12:10.035Z,english_213.wav,0,1,633,4,0.4,6.21236176,0.66893682,,,,
YAY,87,1,2024-06-22T16:12:10.035Z,english_213.wav,0,1,633,5,0.5,4.78560907,0.46069242,,,,
YAY,87,1,2024-06-22T16:12:10.035Z,english_213.wav,0,1,633,6,0.6,-34.71949358,0.40626587,,,,
YAY,87,1,2024-06-22T16:12:10.035Z,english_213.wav,0,1,633,7,0.7,-10.08230205,1.52821633,,,,
YAY,87,1,2024-06-22T16:12:10.035Z,english_213.wav,0,1,633,8,0.8,33.82806657,1.03411812,,,,
YAY,87,1,2024-06-22T16:12:10.035Z,english_213.wav,0,1,633,9,0.9,-6.48550499,1.40320231,,,,
YAY,87,1,2024-06-22T16:12:10.035Z,english_213.wav,0,1,633,10,1,-24.14508238,0.99721534,,,,
YAY,87,1,2024-06-22T16:12:10.035Z,english_213.wav,0,1,633,11,1.09391667,87.95814846,0.20116539,,,,
YAY,88,1,2024-06-22T16:12:10.035Z,english_888.wav,0,0,1783,0,0,-39.7925546,0.13458958,,,,
YAY,88,1,2024-06-22T16:12:10.035Z,english_888.wav,0,0,1783,1,0.1,-49.30113257,1.48324952,,,,
YAY,88,1,2024-06-22T16:12:10.035Z,english_888.wav,0,0,1783,2,0.2,5.97243806,0.77423602,,,,
YAY,88,1,2024-06-22T16:12:10.035Z,english_888.wav,0,0,1783,3,0.3,16.41276851,0.11110742,,,,
YAY,88,1,2024-06-22T16:12:10.035Z,english_888.wav,0,0,1783,4,0.4,72.72751695,0.50050507,,,,
YAY,88,1,2024-06-22T16:12:10.035Z,english_888.wav,0,0,1783,5,0.5,30.43059144,1.62800327,,,,
YAY,88,1,2024-06-22T16:12:10.035Z,english_888.wav,0,0,1783,6,0.6,-50.61460993,0.52150538,,,,
YAY,88,1,2024-06-22T16:12:10.035Z,english_888.wav,0,0,1783,7,0.7,27.35581245,1.33185555,,,,
YAY,88,1,2024-06-22T16:12:10.035Z,english_888.wav,0,0,1783,8,0.8,-42.43293374,1.57744059,,,,
YAY,88,1,2024-06-22T16:12:10.035Z,english_888.wav,0,0,1783,9,0.9,65.78948432,0.93033448,,,,
YAY,88,1,2024-06-22T16:12:10.035Z,english_888.wav,0,0,1783,10,1,10.78660964,1.1520653,,,,
YAY,88,1,2024-06-22T16:12:10.035Z,english_888.wav,0,0,1783,11,1.09391667,-21.51817703,1.84815249,,,,
YAY,89,1,2024-06-22T16:12:10.035Z,english_883.wav,0,0,386,0,0,-84.46412598,0.36586486,,,,
YAY,89,1,2024-06-22T16:12:10.035Z,english_883.wav,0,0,386,1,0.1,-48.29800463,1.2838589,,,,
YAY,89,1,2024-06-22T16:12:10.035Z,english_883.wav,0,0,386,2,0.2,-81.14674871,0.35124497,,,,
YAY,89,1,2024-06-22T16:12:10.035Z,english_883.wav,0,0,386,3,0.3,-14.72052063,0.55313004,,,,
YAY,89,1,2024-06-22T16:12:10.035Z,english_883.wav,0,0,386,4,0.4,84.15645486,1.38696071,,,,
YAY,89,1,2024-06-22T16:12:10.035Z,english_883.wav,0,0,386,5,0.5,-46.7306994,0.05285084,,,,
YAY,89,1,2024-06-22T16:12:10.035Z,english_883.wav,0,0,386,6,0.6,-55.92753429,0.33437309,,,,
YAY,89,1,2024-06-22T16:12:10.035Z,english_883.wav,0,0,386,7,0.7,69.20414462,0.05014106,,,,
YAY,89,1,2024-06-22T16:12:10.035Z,english_883.wav,0,0,386,8,0.8,42.35113705,1.1093355,,,,
YAY,89,1,2024-06-22T16:12:10.035Z,english_883.wav,0,0,386,9,0.9,68.93741473,1.05755937,,,,
YAY,89,1,2024-06-22T16:12:10.035Z,english_883.wav,0,0,386,10,1,5.16727893,0.06749628,,,,
YAY,89,1,2024-06-22T16:12:10.035Z,english_883.wav,0,0,386,11,1.09391667,-87.05225408,1.22701865,,,,
YAY,90,1,2024-06-22T16:12:10.035Z,english_713.wav,0,1,510,0,0,-93.47933458,1.62613831,,,,
YAY,90,1,2024-06-22T16:12:10.035Z,english_713.wav,0,1,510,1,0.1,17.56811932,0.15624323,,,,
YAY,90,1,2024-06-22T16:12:10.035Z,english_713.wav,0,1,510,2,0.2,35.67998285,1.16642221,,,,
YAY,90,1,2024-06-22T16:12:10.035Z,english_713.wav,0,1,510,3,0.3,22.32245501,1.85687669,,,,
YAY,90,1,2024-06-22T16:12:10.035Z,english_713.wav,0,1,510,4,0.4,-55.00810372,0.77296433,,,,
YAY,90,1,2024-06-22T16:12:10.035Z,english_713.wav,0,1,510,5,0.5,-25.94753581,0.17905086,,,,
YAY,90,1,2024-06-22T16:12:10.035Z,english_713.wav,0,1,510,6,0.6,12.36521929,0.48201302,,,,
YAY,90,1,2024-06-22T16:12:10.035Z,english_713.wav,0,1,510,7,0.7,42.68303221,0.74996995,,,,
YAY,90,1,2024-06-22T16:12:10.035Z,english_713.wav,0,1,510,8,0.8,68.77442649,1.90885108,,,,
YAY,90,1,2024-06-22T16:12:10.035Z,english_713.wav,0,1,510,9,0.9,-39.13144034,0.17419233,,,,
YAY,90,1,2024-06-22T16:12:10.035Z,english_713.wav,0,1,510,10,1,48.51746803,1.84801942,,,,
