subj,trial,block,date,stim,stim_order,response,rt,param_index,segment,pitch,stretch
consent,0,0,2024-05-30T21:13:32.010Z,english_861.wav,0,pill,2085,0,0.0,25.4501387,1.11165111
consent,0,0,2024-05-30T21:13:32.010Z,english_861.wav,0,pill,2085,1,0.1,63.77188621,1.38930356
consent,0,0,2024-05-30T21:13:32.010Z,english_861.wav,0,pill,2085,2,0.2,8.16107914,0.85763188
consent,0,0,2024-05-30T21:13:32.010Z,english_861.wav,0,pill,2085,3,0.3,41.89997673,0.26479285
consent,0,0,2024-05-30T21:13:32.010Z,english_861.wav,0,pill,2085,4,0.4,-63.53893236,0.36121213
consent,0,0,2024-05-30T21:13:32.010Z,english_861.wav,0,pill,2085,5,0.5,57.74914229,1.75452306
consent,0,0,2024-05-30T21:13:32.010Z,english_861.wav,0,pill,2085,6,0.6,-60.14311181,1.62162149
consent,0,0,2024-05-30T21:13:32.010Z,english_861.wav,0,pill,2085,7,0.7,3.67795544,0.63165878
consent,0,0,2024-05-30T21:13:32.010Z,english_861.wav,0,pill,2085,8,0.8,-80.01439722,0.85751028
consent,0,0,2024-05-30T21:13:32.010Z,english_861.wav,0,pill,2085,9,0.9,-37.7550596,1.51613867
consent,0,0,2024-05-30T21:13:32.010Z,english_861.wav,0,pill,2085,10,1.0,-13.58281726,1.37338535
consent,0,0,2024-05-30T21:13:32.010Z,english_861.wav,0,pill,2085,11,1.09391667,59.5288882,0.25913333
consent,1,0,2024-05-30T21:13:32.010Z,english_901.wav,0,pill,96,0,0.0,-96.81604806,1.46324918
consent,1,0,2024-05-30T21:13:32.010Z,english_901.wav,0,pill,96,1,0.1,37.83480038,0.84459601
consent,1,0,2024-05-30T21:13:32.010Z,english_901.wav,0,pill,96,2,0.2,-8.61723514,0.1668762
consent,1,0,2024-05-30T21:13:32.010Z,english_901.wav,0,pill,96,3,0.3,-84.9926442,0.0760945
consent,1,0,2024-05-30T21:13:32.010Z,english_901.wav,0,pill,96,4,0.4,-0.16612884,0.24671579
consent,1,0,2024-05-30T21:13:32.010Z,english_901.wav,0,pill,96,5,0.5,15.9690541,1.57602984
consent,1,0,2024-05-30T21:13:32.010Z,english_901.wav,0,pill,96,6,0.6,46.64910026,1.29975865
consent,1,0,2024-05-30T21:13:32.010Z,english_901.wav,0,pill,96,7,0.7,-78.92875072,1.65637017
consent,1,0,2024-05-30T21:13:32.010Z,english_901.wav,0,pill,96,8,0.8,97.27833726,0.50357009
consent,1,0,2024-05-30T21:13:32.010Z,english_901.wav,0,pill,96,9,0.9,57.26507245,0.73013763
consent,1,0,2024-05-30T21:13:32.010Z,english_901.wav,0,pill,96,10,1.0,87.23640608,0.60658699
consent,1,0,2024-05-30T21:13:32.010Z,english_901.wav,0,pill,96,11,1.09391667,9.28772105,1.30909728
consent,2,0,2024-05-30T21:13:32.010Z,english_362.wav,0,pill,45,0,0.0,-2.50436392,0.54146841
consent,2,0,2024-05-30T21:13:32.010Z,english_362.wav,0,pill,45,1,0.1,0.0104378628,1.24688309
consent,2,0,2024-05-30T21:13:32.010Z,english_362.wav,0,pill,45,2,0.2,11.8772332,0.3557669
consent,2,0,2024-05-30T21:13:32.010Z,english_362.wav,0,pill,45,3,0.3,-6.76668863,0.8130148
consent,2,0,2024-05-30T21:13:32.010Z,english_362.wav,0,pill,45,4,0.4,48.0667468,0.53456903
consent,2,0,2024-05-30T21:13:32.010Z,english_362.wav,0,pill,45,5,0.5,47.82207,0.25808446
consent,2,0,2024-05-30T21:13:32.010Z,english_362.wav,0,pill,45,6,0.6,71.0515441,0.46779047
consent,2,0,2024-05-30T21:13:32.010Z,english_362.wav,0,pill,45,7,0.7,16.0380094,1.05295189
consent,2,0,2024-05-30T21:13:32.010Z,english_362.wav,0,pill,45,8,0.8,76.5389373,0.192545
consent,2,0,2024-05-30T21:13:32.010Z,english_362.wav,0,pill,45,9,0.9,33.7838449,0.76311718
consent,2,0,2024-05-30T21:13:32.010Z,english_362.wav,0,pill,45,10,1.0,-81.3464293,1.48955345
consent,2,0,2024-05-30T21:13:32.010Z,english_362.wav,0,pill,45,11,1.09391667,-3.89826037,1.4188577
consent,3,0,2024-05-30T21:13:32.010Z,english_563.wav,0,pill,436,0,0.0,97.71228094,1.26204961
consent,3,0,2024-05-30T21:13:32.010Z,english_563.wav,0,pill,436,1,0.1,-46.61979444,1.17265915
consent,3,0,2024-05-30T21:13:32.010Z,english_563.wav,0,pill,436,2,0.2,2.79591849,0.73553811
consent,3,0,2024-05-30T21:13:32.010Z,english_563.wav,0,pill,436,3,0.3,-24.69974698,1.75222103
consent,3,0,2024-05-30T21:13:32.010Z,english_563.wav,0,pill,436,4,0.4,-33.21670204,1.16360082
consent,3,0,2024-05-30T21:13:32.010Z,english_563.wav,0,pill,436,5,0.5,-22.29161776,0.78496451
consent,3,0,2024-05-30T21:13:32.010Z,english_563.wav,0,pill,436,6,0.6,-9.78409371,0.25812971
consent,3,0,2024-05-30T21:13:32.010Z,english_563.wav,0,pill,436,7,0.7,22.41186375,1.68001513
consent,3,0,2024-05-30T21:13:32.010Z,english_563.wav,0,pill,436,8,0.8,-16.19600926,1.88614824
consent,3,0,2024-05-30T21:13:32.010Z,english_563.wav,0,pill,436,9,0.9,96.89254029,0.22022692
consent,3,0,2024-05-30T21:13:32.010Z,english_563.wav,0,pill,436,10,1.0,-8.68448167,0.44747932
consent,3,0,2024-05-30T21:13:32.010Z,english_563.wav,0,pill,436,11,1.09391667,22.23097911,1.70220981
consent,4,0,2024-05-30T21:13:32.010Z,english_479.wav,0,pill,441,0,0.0,-34.7893931,1.93393565
consent,4,0,2024-05-30T21:13:32.010Z,english_479.wav,0,pill,441,1,0.1,-71.34069905,0.26573691
consent,4,0,2024-05-30T21:13:32.010Z,english_479.wav,0,pill,441,2,0.2,58.87573247,0.73981952
consent,4,0,2024-05-30T21:13:32.010Z,english_479.wav,0,pill,441,3,0.3,-54.09913821,1.46667746
consent,4,0,2024-05-30T21:13:32.010Z,english_479.wav,0,pill,441,4,0.4,43.12020224,0.55048015
consent,4,0,2024-05-30T21:13:32.010Z,english_479.wav,0,pill,441,5,0.5,-44.41654249,0.62176048
consent,4,0,2024-05-30T21:13:32.010Z,english_479.wav,0,pill,441,6,0.6,57.88290142,0.05220831
consent,4,0,2024-05-30T21:13:32.010Z,english_479.wav,0,pill,441,7,0.7,-1.44997962,0.21971087
consent,4,0,2024-05-30T21:13:32.010Z,english_479.wav,0,pill,441,8,0.8,89.72797502,0.30059048
consent,4,0,2024-05-30T21:13:32.010Z,english_479.wav,0,pill,441,9,0.9,97.22467665,0.39403565
consent,4,0,2024-05-30T21:13:32.010Z,english_479.wav,0,pill,441,10,1.0,52.11815336,1.20859565
consent,4,0,2024-05-30T21:13:32.010Z,english_479.wav,0,pill,441,11,1.09391667,71.23188895,0.36818185
consent,5,0,2024-05-30T21:13:32.010Z,english_844.wav,0,pill,180,0,0.0,11.393599,0.33558218
consent,5,0,2024-05-30T21:13:32.010Z,english_844.wav,0,pill,180,1,0.1,-25.92763325,1.47085946
consent,5,0,2024-05-30T21:13:32.010Z,english_844.wav,0,pill,180,2,0.2,93.09450751,0.42700658
consent,5,0,2024-05-30T21:13:32.010Z,english_844.wav,0,pill,180,3,0.3,17.50673978,1.63800854
consent,5,0,2024-05-30T21:13:32.010Z,english_844.wav,0,pill,180,4,0.4,-67.065208,1.67053022
consent,5,0,2024-05-30T21:13:32.010Z,english_844.wav,0,pill,180,5,0.5,0.14838244,0.8636525
consent,5,0,2024-05-30T21:13:32.010Z,english_844.wav,0,pill,180,6,0.6,-22.94606211,0.51731901
consent,5,0,2024-05-30T21:13:32.010Z,english_844.wav,0,pill,180,7,0.7,-18.25136922,0.97200789
consent,5,0,2024-05-30T21:13:32.010Z,english_844.wav,0,pill,180,8,0.8,-18.86724281,0.10665745
consent,5,0,2024-05-30T21:13:32.010Z,english_844.wav,0,pill,180,9,0.9,47.3067892,0.48829347
consent,5,0,2024-05-30T21:13:32.010Z,english_844.wav,0,pill,180,10,1.0,58.80279443,0.96735989
consent,5,0,2024-05-30T21:13:32.010Z,english_844.wav,0,pill,180,11,1.09391667,-1.7109362,0.80931934
consent,6,0,2024-05-30T21:13:32.010Z,english_965.wav,0,pill,146,0,0.0,71.26903742,0.78069471
consent,6,0,2024-05-30T21:13:32.010Z,english_965.wav,0,pill,146,1,0.1,-85.67215002,0.96385913
consent,6,0,2024-05-30T21:13:32.010Z,english_965.wav,0,pill,146,2,0.2,62.40796955,1.23622138
consent,6,0,2024-05-30T21:13:32.010Z,english_965.wav,0,pill,146,3,0.3,-42.43885851,0.08139119
consent,6,0,2024-05-30T21:13:32.010Z,english_965.wav,0,pill,146,4,0.4,-43.47145803,1.30827212
consent,6,0,2024-05-30T21:13:32.010Z,english_965.wav,0,pill,146,5,0.5,0.87364752,0.40087686
consent,6,0,2024-05-30T21:13:32.010Z,english_965.wav,0,pill,146,6,0.6,11.44276141,0.69003786
consent,6,0,2024-05-30T21:13:32.010Z,english_965.wav,0,pill,146,7,0.7,13.05816489,0.53329387
consent,6,0,2024-05-30T21:13:32.010Z,english_965.wav,0,pill,146,8,0.8,36.18570215,0.06218309
consent,6,0,2024-05-30T21:13:32.010Z,english_965.wav,0,pill,146,9,0.9,-15.51832256,1.41722428
consent,6,0,2024-05-30T21:13:32.010Z,english_965.wav,0,pill,146,10,1.0,-23.27462527,1.1054453
consent,6,0,2024-05-30T21:13:32.010Z,english_965.wav,0,pill,146,11,1.09391667,27.24750983,1.42098641
consent,7,0,2024-05-30T21:13:32.010Z,english_991.wav,0,pill,16,0,0.0,-1.1896089,1.11058757
consent,7,0,2024-05-30T21:13:32.010Z,english_991.wav,0,pill,16,1,0.1,-96.26402249,0.1672209
consent,7,0,2024-05-30T21:13:32.010Z,english_991.wav,0,pill,16,2,0.2,35.13230964,1.95155766
consent,7,0,2024-05-30T21:13:32.010Z,english_991.wav,0,pill,16,3,0.3,16.47291022,0.04651437
consent,7,0,2024-05-30T21:13:32.010Z,english_991.wav,0,pill,16,4,0.4,-88.97016612,1.74859016
consent,7,0,2024-05-30T21:13:32.010Z,english_991.wav,0,pill,16,5,0.5,-18.26917978,1.4122656
consent,7,0,2024-05-30T21:13:32.010Z,english_991.wav,0,pill,16,6,0.6,-86.44611587,0.52281086
consent,7,0,2024-05-30T21:13:32.010Z,english_991.wav,0,pill,16,7,0.7,-23.18394533,1.29572944
consent,7,0,2024-05-30T21:13:32.010Z,english_991.wav,0,pill,16,8,0.8,-34.88810698,1.11115335
consent,7,0,2024-05-30T21:13:32.010Z,english_991.wav,0,pill,16,9,0.9,58.2484142,1.29146841
consent,7,0,2024-05-30T21:13:32.010Z,english_991.wav,0,pill,16,10,1.0,13.64122516,1.37847477
consent,7,0,2024-05-30T21:13:32.010Z,english_991.wav,0,pill,16,11,1.09391667,-13.61979163,0.12249008
consent,8,0,2024-05-30T21:13:32.010Z,english_943.wav,0,pill,312,0,0.0,79.5890822,1.20824936
consent,8,0,2024-05-30T21:13:32.010Z,english_943.wav,0,pill,312,1,0.1,78.55264714,0.88116928
consent,8,0,2024-05-30T21:13:32.010Z,english_943.wav,0,pill,312,2,0.2,44.19658383,1.0423498
consent,8,0,2024-05-30T21:13:32.010Z,english_943.wav,0,pill,312,3,0.3,-16.14605168,1.30491636
consent,8,0,2024-05-30T21:13:32.010Z,english_943.wav,0,pill,312,4,0.4,46.84349784,1.23781924
consent,8,0,2024-05-30T21:13:32.010Z,english_943.wav,0,pill,312,5,0.5,67.29364224,1.19542323
consent,8,0,2024-05-30T21:13:32.010Z,english_943.wav,0,pill,312,6,0.6,62.75940247,1.00041218
consent,8,0,2024-05-30T21:13:32.010Z,english_943.wav,0,pill,312,7,0.7,-42.13911475,1.18889719
consent,8,0,2024-05-30T21:13:32.010Z,english_943.wav,0,pill,312,8,0.8,-19.02728939,0.17654831
consent,8,0,2024-05-30T21:13:32.010Z,english_943.wav,0,pill,312,9,0.9,-16.03900615,0.65298118
consent,8,0,2024-05-30T21:13:32.010Z,english_943.wav,0,pill,312,10,1.0,15.22888591,0.96725626
consent,8,0,2024-05-30T21:13:32.010Z,english_943.wav,0,pill,312,11,1.09391667,60.70409514,1.67455333
consent,9,0,2024-05-30T21:13:32.010Z,english_37.wav,0,pill,64,0,0.0,68.40782596,0.52957209
consent,9,0,2024-05-30T21:13:32.010Z,english_37.wav,0,pill,64,1,0.1,41.58379148,1.67320718
consent,9,0,2024-05-30T21:13:32.010Z,english_37.wav,0,pill,64,2,0.2,63.04378759,1.31144487
consent,9,0,2024-05-30T21:13:32.010Z,english_37.wav,0,pill,64,3,0.3,12.39470235,1.11254506
consent,9,0,2024-05-30T21:13:32.010Z,english_37.wav,0,pill,64,4,0.4,-38.69600303,0.57972705
consent,9,0,2024-05-30T21:13:32.010Z,english_37.wav,0,pill,64,5,0.5,-51.98957982,0.30651039
consent,9,0,2024-05-30T21:13:32.010Z,english_37.wav,0,pill,64,6,0.6,90.7945682,0.45858619
consent,9,0,2024-05-30T21:13:32.010Z,english_37.wav,0,pill,64,7,0.7,40.67115675,1.55641423
consent,9,0,2024-05-30T21:13:32.010Z,english_37.wav,0,pill,64,8,0.8,34.01498334,1.01642962
consent,9,0,2024-05-30T21:13:32.010Z,english_37.wav,0,pill,64,9,0.9,-88.26662934,0.95850402
consent,9,0,2024-05-30T21:13:32.010Z,english_37.wav,0,pill,64,10,1.0,-41.35685221,0.70833558
consent,9,0,2024-05-30T21:13:32.010Z,english_37.wav,0,pill,64,11,1.09391667,-27.43470179,0.55678167
consent,10,0,2024-05-30T21:13:32.010Z,english_921.wav,0,pill,186,0,0.0,31.46476347,1.40929115
consent,10,0,2024-05-30T21:13:32.010Z,english_921.wav,0,pill,186,1,0.1,-97.58408055,0.95578469
consent,10,0,2024-05-30T21:13:32.010Z,english_921.wav,0,pill,186,2,0.2,54.67506657,1.08840418
consent,10,0,2024-05-30T21:13:32.010Z,english_921.wav,0,pill,186,3,0.3,22.21056557,0.27152021
consent,10,0,2024-05-30T21:13:32.010Z,english_921.wav,0,pill,186,4,0.4,0.8393727,1.01175766
consent,10,0,2024-05-30T21:13:32.010Z,english_921.wav,0,pill,186,5,0.5,-71.57742702,0.91544212
consent,10,0,2024-05-30T21:13:32.010Z,english_921.wav,0,pill,186,6,0.6,-21.98162251,1.03161778
consent,10,0,2024-05-30T21:13:32.010Z,english_921.wav,0,pill,186,7,0.7,-45.34354294,1.69417828
consent,10,0,2024-05-30T21:13:32.010Z,english_921.wav,0,pill,186,8,0.8,-54.46580015,1.14800845
consent,10,0,2024-05-30T21:13:32.010Z,english_921.wav,0,pill,186,9,0.9,-33.00243687,1.17008377
consent,10,0,2024-05-30T21:13:32.010Z,english_921.wav,0,pill,186,10,1.0,45.39245913,0.19449602
consent,10,0,2024-05-30T21:13:32.010Z,english_921.wav,0,pill,186,11,1.09391667,-24.69054897,1.58975603
consent,11,0,2024-05-30T21:13:32.010Z,english_578.wav,0,pill,350,0,0.0,-75.00897619,0.74810011
consent,11,0,2024-05-30T21:13:32.010Z,english_578.wav,0,pill,350,1,0.1,-99.92599168,1.6653295
consent,11,0,2024-05-30T21:13:32.010Z,english_578.wav,0,pill,350,2,0.2,-41.97852884,0.86958953
consent,11,0,2024-05-30T21:13:32.010Z,english_578.wav,0,pill,350,3,0.3,-44.5286304,1.82114948
consent,11,0,2024-05-30T21:13:32.010Z,english_578.wav,0,pill,350,4,0.4,33.7471246,1.20682151
consent,11,0,2024-05-30T21:13:32.010Z,english_578.wav,0,pill,350,5,0.5,-20.55369632,0.95346463
consent,11,0,2024-05-30T21:13:32.010Z,english_578.wav,0,pill,350,6,0.6,80.47589593,1.35013789
consent,11,0,2024-05-30T21:13:32.010Z,english_578.wav,0,pill,350,7,0.7,-14.97727246,1.4182331
consent,11,0,2024-05-30T21:13:32.010Z,english_578.wav,0,pill,350,8,0.8,-21.44814327,1.48872207
consent,11,0,2024-05-30T21:13:32.010Z,english_578.wav,0,pill,350,9,0.9,-62.07774638,0.52217737
consent,11,0,2024-05-30T21:13:32.010Z,english_578.wav,0,pill,350,10,1.0,-99.81693505,1.9830309
consent,11,0,2024-05-30T21:13:32.010Z,english_578.wav,0,pill,350,11,1.09391667,-93.56727968,1.11565266
consent,12,0,2024-05-30T21:13:32.010Z,english_993.wav,0,pill,88,0,0.0,-8.65746923,1.97743958
consent,12,0,2024-05-30T21:13:32.010Z,english_993.wav,0,pill,88,1,0.1,-27.87522694,0.36006803
consent,12,0,2024-05-30T21:13:32.010Z,english_993.wav,0,pill,88,2,0.2,41.79329436,0.06856355
consent,12,0,2024-05-30T21:13:32.010Z,english_993.wav,0,pill,88,3,0.3,-23.16935708,0.38955927
consent,12,0,2024-05-30T21:13:32.010Z,english_993.wav,0,pill,88,4,0.4,18.8592239,1.25297016
consent,12,0,2024-05-30T21:13:32.010Z,english_993.wav,0,pill,88,5,0.5,40.29392848,0.33975417
consent,12,0,2024-05-30T21:13:32.010Z,english_993.wav,0,pill,88,6,0.6,77.6038757,1.12200744
consent,12,0,2024-05-30T21:13:32.010Z,english_993.wav,0,pill,88,7,0.7,33.5103026,1.75189261
consent,12,0,2024-05-30T21:13:32.010Z,english_993.wav,0,pill,88,8,0.8,71.9206852,0.43539509
consent,12,0,2024-05-30T21:13:32.010Z,english_993.wav,0,pill,88,9,0.9,-28.91081602,1.78200425
consent,12,0,2024-05-30T21:13:32.010Z,english_993.wav,0,pill,88,10,1.0,-66.92854856,0.58801976
consent,12,0,2024-05-30T21:13:32.010Z,english_993.wav,0,pill,88,11,1.09391667,-70.4693707,0.997712
consent,13,0,2024-05-30T21:13:32.010Z,english_562.wav,0,pill,9389,0,0.0,-66.46118552,0.76561111
consent,13,0,2024-05-30T21:13:32.010Z,english_562.wav,0,pill,9389,1,0.1,50.11424094,1.84010469
consent,13,0,2024-05-30T21:13:32.010Z,english_562.wav,0,pill,9389,2,0.2,38.4118161,1.52246451
consent,13,0,2024-05-30T21:13:32.010Z,english_562.wav,0,pill,9389,3,0.3,55.44168462,0.37876531
consent,13,0,2024-05-30T21:13:32.010Z,english_562.wav,0,pill,9389,4,0.4,19.14590229,1.46315217
consent,13,0,2024-05-30T21:13:32.010Z,english_562.wav,0,pill,9389,5,0.5,-3.26381008,0.03585566
consent,13,0,2024-05-30T21:13:32.010Z,english_562.wav,0,pill,9389,6,0.6,91.90960542,0.70876992
consent,13,0,2024-05-30T21:13:32.010Z,english_562.wav,0,pill,9389,7,0.7,62.21453642,1.53596627
consent,13,0,2024-05-30T21:13:32.010Z,english_562.wav,0,pill,9389,8,0.8,83.94650253,1.29387044
consent,13,0,2024-05-30T21:13:32.010Z,english_562.wav,0,pill,9389,9,0.9,-69.18732996,0.65619247
consent,13,0,2024-05-30T21:13:32.010Z,english_562.wav,0,pill,9389,10,1.0,-21.18203071,0.14449541
consent,13,0,2024-05-30T21:13:32.010Z,english_562.wav,0,pill,9389,11,1.09391667,12.05175974,1.12518845
consent,14,0,2024-05-30T21:13:32.010Z,english_385.wav,0,pill,394,0,0.0,0.33828369,0.38016584
consent,14,0,2024-05-30T21:13:32.010Z,english_385.wav,0,pill,394,1,0.1,2.41058867,1.8714009
consent,14,0,2024-05-30T21:13:32.010Z,english_385.wav,0,pill,394,2,0.2,-12.54892467,0.45382881
consent,14,0,2024-05-30T21:13:32.010Z,english_385.wav,0,pill,394,3,0.3,-41.7912056,1.31398474
consent,14,0,2024-05-30T21:13:32.010Z,english_385.wav,0,pill,394,4,0.4,-44.49264688,1.04402362
consent,14,0,2024-05-30T21:13:32.010Z,english_385.wav,0,pill,394,5,0.5,0.14407831,0.57870544
consent,14,0,2024-05-30T21:13:32.010Z,english_385.wav,0,pill,394,6,0.6,-25.57843431,1.74841786
consent,14,0,2024-05-30T21:13:32.010Z,english_385.wav,0,pill,394,7,0.7,-39.2816597,1.62984391
consent,14,0,2024-05-30T21:13:32.010Z,english_385.wav,0,pill,394,8,0.8,-88.59516391,0.16451748
consent,14,0,2024-05-30T21:13:32.010Z,english_385.wav,0,pill,394,9,0.9,-28.05531573,0.80459877
consent,14,0,2024-05-30T21:13:32.010Z,english_385.wav,0,pill,394,10,1.0,-37.07272381,0.03974207
consent,14,0,2024-05-30T21:13:32.010Z,english_385.wav,0,pill,394,11,1.09391667,-61.44238802,1.20121467
consent,15,0,2024-05-30T21:13:32.010Z,english_440.wav,0,pill,136,0,0.0,12.29982285,1.19760878
consent,15,0,2024-05-30T21:13:32.010Z,english_440.wav,0,pill,136,1,0.1,29.91017607,0.84661932
consent,15,0,2024-05-30T21:13:32.010Z,english_440.wav,0,pill,136,2,0.2,-33.88416802,0.98013694
consent,15,0,2024-05-30T21:13:32.010Z,english_440.wav,0,pill,136,3,0.3,9.59442927,1.13268467
consent,15,0,2024-05-30T21:13:32.010Z,english_440.wav,0,pill,136,4,0.4,67.78661643,0.35608992
consent,15,0,2024-05-30T21:13:32.010Z,english_440.wav,0,pill,136,5,0.5,-67.23660087,0.95578268
consent,15,0,2024-05-30T21:13:32.010Z,english_440.wav,0,pill,136,6,0.6,76.63778139,0.48847823
consent,15,0,2024-05-30T21:13:32.010Z,english_440.wav,0,pill,136,7,0.7,73.67785479,0.77954634
consent,15,0,2024-05-30T21:13:32.010Z,english_440.wav,0,pill,136,8,0.8,54.53431981,1.22473034
consent,15,0,2024-05-30T21:13:32.010Z,english_440.wav,0,pill,136,9,0.9,-39.644329,1.58063768
consent,15,0,2024-05-30T21:13:32.010Z,english_440.wav,0,pill,136,10,1.0,39.92173261,0.71218861
consent,15,0,2024-05-30T21:13:32.010Z,english_440.wav,0,pill,136,11,1.09391667,84.70283428,1.21525734
consent,16,0,2024-05-30T21:13:32.010Z,english_245.wav,0,pill,172,0,0.0,-3.94489453,1.87262136
consent,16,0,2024-05-30T21:13:32.010Z,english_245.wav,0,pill,172,1,0.1,93.78845114,1.5911659
consent,16,0,2024-05-30T21:13:32.010Z,english_245.wav,0,pill,172,2,0.2,-15.4175353,0.77224849
consent,16,0,2024-05-30T21:13:32.010Z,english_245.wav,0,pill,172,3,0.3,69.96206512,1.66276975
consent,16,0,2024-05-30T21:13:32.010Z,english_245.wav,0,pill,172,4,0.4,-2.81275051,0.59757366
consent,16,0,2024-05-30T21:13:32.010Z,english_245.wav,0,pill,172,5,0.5,-99.06344561,1.2271396
consent,16,0,2024-05-30T21:13:32.010Z,english_245.wav,0,pill,172,6,0.6,93.3644365,0.27105927
consent,16,0,2024-05-30T21:13:32.010Z,english_245.wav,0,pill,172,7,0.7,38.15823311,1.13207073
consent,16,0,2024-05-30T21:13:32.010Z,english_245.wav,0,pill,172,8,0.8,51.44383365,0.42497597
consent,16,0,2024-05-30T21:13:32.010Z,english_245.wav,0,pill,172,9,0.9,19.95795113,0.54403667
consent,16,0,2024-05-30T21:13:32.010Z,english_245.wav,0,pill,172,10,1.0,-68.88770698,0.3131135
consent,16,0,2024-05-30T21:13:32.010Z,english_245.wav,0,pill,172,11,1.09391667,99.45926262,1.0229568
consent,17,0,2024-05-30T21:13:32.010Z,english_193.wav,0,pill,131,0,0.0,-79.19298438,1.8278475
consent,17,0,2024-05-30T21:13:32.010Z,english_193.wav,0,pill,131,1,0.1,83.18398782,1.66141822
consent,17,0,2024-05-30T21:13:32.010Z,english_193.wav,0,pill,131,2,0.2,41.62817707,0.29384933
consent,17,0,2024-05-30T21:13:32.010Z,english_193.wav,0,pill,131,3,0.3,-63.57509965,0.14342966
consent,17,0,2024-05-30T21:13:32.010Z,english_193.wav,0,pill,131,4,0.4,84.76628996,1.0428664
consent,17,0,2024-05-30T21:13:32.010Z,english_193.wav,0,pill,131,5,0.5,10.12738943,1.69229155
consent,17,0,2024-05-30T21:13:32.010Z,english_193.wav,0,pill,131,6,0.6,-37.32432508,0.16574738
consent,17,0,2024-05-30T21:13:32.010Z,english_193.wav,0,pill,131,7,0.7,4.93485207,1.7490427
consent,17,0,2024-05-30T21:13:32.010Z,english_193.wav,0,pill,131,8,0.8,34.87911105,0.62073431
consent,17,0,2024-05-30T21:13:32.010Z,english_193.wav,0,pill,131,9,0.9,-39.85363935,0.72815791
consent,17,0,2024-05-30T21:13:32.010Z,english_193.wav,0,pill,131,10,1.0,34.81523129,1.27219327
consent,17,0,2024-05-30T21:13:32.010Z,english_193.wav,0,pill,131,11,1.09391667,72.77087749,1.22929628
consent,18,0,2024-05-30T21:13:32.010Z,english_587.wav,0,pill,59,0,0.0,-43.40275294,0.40076924
consent,18,0,2024-05-30T21:13:32.010Z,english_587.wav,0,pill,59,1,0.1,-37.77994111,1.21668484
consent,18,0,2024-05-30T21:13:32.010Z,english_587.wav,0,pill,59,2,0.2,83.99553821,1.2277233
consent,18,0,2024-05-30T21:13:32.010Z,english_587.wav,0,pill,59,3,0.3,-96.01654656,0.71292194
consent,18,0,2024-05-30T21:13:32.010Z,english_587.wav,0,pill,59,4,0.4,-9.71349701,0.26055353
consent,18,0,2024-05-30T21:13:32.010Z,english_587.wav,0,pill,59,5,0.5,-47.87514317,1.66513876
consent,18,0,2024-05-30T21:13:32.010Z,english_587.wav,0,pill,59,6,0.6,12.68053189,0.2591497
consent,18,0,2024-05-30T21:13:32.010Z,english_587.wav,0,pill,59,7,0.7,47.90702589,0.90449777
consent,18,0,2024-05-30T21:13:32.010Z,english_587.wav,0,pill,59,8,0.8,-78.79796743,0.87118045
consent,18,0,2024-05-30T21:13:32.010Z,english_587.wav,0,pill,59,9,0.9,-5.96294959,1.32264247
consent,18,0,2024-05-30T21:13:32.010Z,english_587.wav,0,pill,59,10,1.0,11.2587131,1.86277567
consent,18,0,2024-05-30T21:13:32.010Z,english_587.wav,0,pill,59,11,1.09391667,-13.10275262,0.24936359
consent,19,0,2024-05-30T21:13:32.010Z,english_81.wav,0,pill,204,0,0.0,71.09666265,1.09569192
consent,19,0,2024-05-30T21:13:32.010Z,english_81.wav,0,pill,204,1,0.1,-38.93956525,1.65684188
consent,19,0,2024-05-30T21:13:32.010Z,english_81.wav,0,pill,204,2,0.2,-48.61950395,0.44216952
consent,19,0,2024-05-30T21:13:32.010Z,english_81.wav,0,pill,204,3,0.3,33.39514041,1.72758961
consent,19,0,2024-05-30T21:13:32.010Z,english_81.wav,0,pill,204,4,0.4,18.24180048,1.46257927
consent,19,0,2024-05-30T21:13:32.010Z,english_81.wav,0,pill,204,5,0.5,-45.85953695,1.53730542
consent,19,0,2024-05-30T21:13:32.010Z,english_81.wav,0,pill,204,6,0.6,-0.32699599,1.28818555
consent,19,0,2024-05-30T21:13:32.010Z,english_81.wav,0,pill,204,7,0.7,-32.78716597,1.19414744
consent,19,0,2024-05-30T21:13:32.010Z,english_81.wav,0,pill,204,8,0.8,-37.9267269,1.01923165
consent,19,0,2024-05-30T21:13:32.010Z,english_81.wav,0,pill,204,9,0.9,24.21331247,1.67441048
consent,19,0,2024-05-30T21:13:32.010Z,english_81.wav,0,pill,204,10,1.0,-31.33871225,1.88948336
consent,19,0,2024-05-30T21:13:32.010Z,english_81.wav,0,pill,204,11,1.09391667,-77.74283174,1.81428343
consent,20,0,2024-05-30T21:13:32.010Z,english_132.wav,0,pill,102,0,0.0,0.80878803,1.8484575
consent,20,0,2024-05-30T21:13:32.010Z,english_132.wav,0,pill,102,1,0.1,-89.46369243,0.19659267
consent,20,0,2024-05-30T21:13:32.010Z,english_132.wav,0,pill,102,2,0.2,-42.02740452,0.98704764
consent,20,0,2024-05-30T21:13:32.010Z,english_132.wav,0,pill,102,3,0.3,-31.54071999,0.90975168
consent,20,0,2024-05-30T21:13:32.010Z,english_132.wav,0,pill,102,4,0.4,0.25010778,1.48690857
consent,20,0,2024-05-30T21:13:32.010Z,english_132.wav,0,pill,102,5,0.5,58.11815913,1.16973021
consent,20,0,2024-05-30T21:13:32.010Z,english_132.wav,0,pill,102,6,0.6,81.96461668,0.00206468
consent,20,0,2024-05-30T21:13:32.010Z,english_132.wav,0,pill,102,7,0.7,-44.50191201,0.61136538
consent,20,0,2024-05-30T21:13:32.010Z,english_132.wav,0,pill,102,8,0.8,-95.34081409,0.53595083
consent,20,0,2024-05-30T21:13:32.010Z,english_132.wav,0,pill,102,9,0.9,-97.06518429,0.1294964
consent,20,0,2024-05-30T21:13:32.010Z,english_132.wav,0,pill,102,10,1.0,9.04827132,0.71465456
consent,20,0,2024-05-30T21:13:32.010Z,english_132.wav,0,pill,102,11,1.09391667,76.3058936,0.51987053
consent,21,0,2024-05-30T21:13:32.010Z,english_827.wav,0,pill,401,0,0.0,68.00908508,0.75704727
consent,21,0,2024-05-30T21:13:32.010Z,english_827.wav,0,pill,401,1,0.1,62.86337393,1.26162294
consent,21,0,2024-05-30T21:13:32.010Z,english_827.wav,0,pill,401,2,0.2,-78.66229145,0.12232387
consent,21,0,2024-05-30T21:13:32.010Z,english_827.wav,0,pill,401,3,0.3,22.2543924,1.21737576
consent,21,0,2024-05-30T21:13:32.010Z,english_827.wav,0,pill,401,4,0.4,-38.38701394,0.91087215
consent,21,0,2024-05-30T21:13:32.010Z,english_827.wav,0,pill,401,5,0.5,42.22150711,0.43725261
consent,21,0,2024-05-30T21:13:32.010Z,english_827.wav,0,pill,401,6,0.6,-45.69118252,1.41339021
consent,21,0,2024-05-30T21:13:32.010Z,english_827.wav,0,pill,401,7,0.7,-2.62995829,0.84435274
consent,21,0,2024-05-30T21:13:32.010Z,english_827.wav,0,pill,401,8,0.8,-5.53100906,1.45939376
consent,21,0,2024-05-30T21:13:32.010Z,english_827.wav,0,pill,401,9,0.9,-28.52107901,0.25757528
consent,21,0,2024-05-30T21:13:32.010Z,english_827.wav,0,pill,401,10,1.0,49.22868474,0.16904312
consent,21,0,2024-05-30T21:13:32.010Z,english_827.wav,0,pill,401,11,1.09391667,-68.48939537,1.55565222
consent,22,0,2024-05-30T21:13:32.010Z,english_986.wav,0,pill,35,0,0.0,66.66952336,1.97934099
consent,22,0,2024-05-30T21:13:32.010Z,english_986.wav,0,pill,35,1,0.1,96.9530251,1.29460225
consent,22,0,2024-05-30T21:13:32.010Z,english_986.wav,0,pill,35,2,0.2,75.3477354,1.53421825
consent,22,0,2024-05-30T21:13:32.010Z,english_986.wav,0,pill,35,3,0.3,-56.79707668,1.45039514
consent,22,0,2024-05-30T21:13:32.010Z,english_986.wav,0,pill,35,4,0.4,68.50410973,0.98893675
consent,22,0,2024-05-30T21:13:32.010Z,english_986.wav,0,pill,35,5,0.5,5.80156778,1.73927101
consent,22,0,2024-05-30T21:13:32.010Z,english_986.wav,0,pill,35,6,0.6,-59.00857509,1.32684672
consent,22,0,2024-05-30T21:13:32.010Z,english_986.wav,0,pill,35,7,0.7,23.78788766,1.65077043
consent,22,0,2024-05-30T21:13:32.010Z,english_986.wav,0,pill,35,8,0.8,8.31255478,1.05904427
consent,22,0,2024-05-30T21:13:32.010Z,english_986.wav,0,pill,35,9,0.9,-23.40072537,0.79622744
consent,22,0,2024-05-30T21:13:32.010Z,english_986.wav,0,pill,35,10,1.0,36.6022418,1.94329627
consent,22,0,2024-05-30T21:13:32.010Z,english_986.wav,0,pill,35,11,1.09391667,-51.87443186,1.45912014
consent,23,0,2024-05-30T21:13:32.010Z,english_456.wav,0,pill,104,0,0.0,71.04099317,0.32232713
consent,23,0,2024-05-30T21:13:32.010Z,english_456.wav,0,pill,104,1,0.1,-42.03930608,1.90963826
consent,23,0,2024-05-30T21:13:32.010Z,english_456.wav,0,pill,104,2,0.2,46.93563502,0.28107249
consent,23,0,2024-05-30T21:13:32.010Z,english_456.wav,0,pill,104,3,0.3,-51.87328236,0.54097624
consent,23,0,2024-05-30T21:13:32.010Z,english_456.wav,0,pill,104,4,0.4,10.60142126,0.28507748
consent,23,0,2024-05-30T21:13:32.010Z,english_456.wav,0,pill,104,5,0.5,59.34112363,1.95449542
consent,23,0,2024-05-30T21:13:32.010Z,english_456.wav,0,pill,104,6,0.6,-57.32922539,0.17900475
consent,23,0,2024-05-30T21:13:32.010Z,english_456.wav,0,pill,104,7,0.7,63.74085998,0.64982675
consent,23,0,2024-05-30T21:13:32.010Z,english_456.wav,0,pill,104,8,0.8,80.12937217,1.14361022
consent,23,0,2024-05-30T21:13:32.010Z,english_456.wav,0,pill,104,9,0.9,-45.30017258,0.6672144
consent,23,0,2024-05-30T21:13:32.010Z,english_456.wav,0,pill,104,10,1.0,30.99436051,0.14207979
consent,23,0,2024-05-30T21:13:32.010Z,english_456.wav,0,pill,104,11,1.09391667,18.44545635,0.00415302
consent,24,0,2024-05-30T21:13:32.010Z,english_397.wav,0,pill,104,0,0.0,-93.66149261,1.64508674
consent,24,0,2024-05-30T21:13:32.010Z,english_397.wav,0,pill,104,1,0.1,10.02332444,1.71116478
consent,24,0,2024-05-30T21:13:32.010Z,english_397.wav,0,pill,104,2,0.2,11.25111848,0.61520949
consent,24,0,2024-05-30T21:13:32.010Z,english_397.wav,0,pill,104,3,0.3,-37.6827397,1.11182829
consent,24,0,2024-05-30T21:13:32.010Z,english_397.wav,0,pill,104,4,0.4,25.48122538,1.39361431
consent,24,0,2024-05-30T21:13:32.010Z,english_397.wav,0,pill,104,5,0.5,26.75513861,1.84991074
consent,24,0,2024-05-30T21:13:32.010Z,english_397.wav,0,pill,104,6,0.6,-43.88017582,0.85920693
consent,24,0,2024-05-30T21:13:32.010Z,english_397.wav,0,pill,104,7,0.7,-42.20538159,1.85774447
consent,24,0,2024-05-30T21:13:32.010Z,english_397.wav,0,pill,104,8,0.8,82.41630332,1.4570352
consent,24,0,2024-05-30T21:13:32.010Z,english_397.wav,0,pill,104,9,0.9,57.33831385,0.98799717
consent,24,0,2024-05-30T21:13:32.010Z,english_397.wav,0,pill,104,10,1.0,-42.56353988,0.5544136
consent,24,0,2024-05-30T21:13:32.010Z,english_397.wav,0,pill,104,11,1.09391667,68.91357319,0.776674
consent,25,0,2024-05-30T21:13:32.010Z,english_971.wav,0,pill,315,0,0.0,21.92702064,0.459047
consent,25,0,2024-05-30T21:13:32.010Z,english_971.wav,0,pill,315,1,0.1,-53.27203396,0.06454192
consent,25,0,2024-05-30T21:13:32.010Z,english_971.wav,0,pill,315,2,0.2,16.04080675,1.47088252
consent,25,0,2024-05-30T21:13:32.010Z,english_971.wav,0,pill,315,3,0.3,-93.72897718,0.63214126
consent,25,0,2024-05-30T21:13:32.010Z,english_971.wav,0,pill,315,4,0.4,76.75922717,0.53041825
consent,25,0,2024-05-30T21:13:32.010Z,english_971.wav,0,pill,315,5,0.5,2.23154985,0.36671068
consent,25,0,2024-05-30T21:13:32.010Z,english_971.wav,0,pill,315,6,0.6,57.16774736,0.84112941
consent,25,0,2024-05-30T21:13:32.010Z,english_971.wav,0,pill,315,7,0.7,-66.3096603,0.93270713
consent,25,0,2024-05-30T21:13:32.010Z,english_971.wav,0,pill,315,8,0.8,-54.36784686,0.0064824
consent,25,0,2024-05-30T21:13:32.010Z,english_971.wav,0,pill,315,9,0.9,31.74688825,0.04508119
consent,25,0,2024-05-30T21:13:32.010Z,english_971.wav,0,pill,315,10,1.0,-41.88838509,1.17781348
consent,25,0,2024-05-30T21:13:32.010Z,english_971.wav,0,pill,315,11,1.09391667,-46.11178706,0.19249934
consent,26,0,2024-05-30T21:13:32.010Z,english_123.wav,0,pill,310,0,0.0,-32.38117679,1.9386571
consent,26,0,2024-05-30T21:13:32.010Z,english_123.wav,0,pill,310,1,0.1,-64.71485254,0.09408227
consent,26,0,2024-05-30T21:13:32.010Z,english_123.wav,0,pill,310,2,0.2,-18.01291226,0.88874753
consent,26,0,2024-05-30T21:13:32.010Z,english_123.wav,0,pill,310,3,0.3,-79.77518117,1.32217329
consent,26,0,2024-05-30T21:13:32.010Z,english_123.wav,0,pill,310,4,0.4,-61.15753939,0.99742331
consent,26,0,2024-05-30T21:13:32.010Z,english_123.wav,0,pill,310,5,0.5,5.43029515,0.11774982
consent,26,0,2024-05-30T21:13:32.010Z,english_123.wav,0,pill,310,6,0.6,-66.97873388,0.31317678
consent,26,0,2024-05-30T21:13:32.010Z,english_123.wav,0,pill,310,7,0.7,5.34490813,0.67167814
consent,26,0,2024-05-30T21:13:32.010Z,english_123.wav,0,pill,310,8,0.8,4.4190052,1.13014618
consent,26,0,2024-05-30T21:13:32.010Z,english_123.wav,0,pill,310,9,0.9,-81.7992949,1.16110431
consent,26,0,2024-05-30T21:13:32.010Z,english_123.wav,0,pill,310,10,1.0,16.85173502,1.02455086
consent,26,0,2024-05-30T21:13:32.010Z,english_123.wav,0,pill,310,11,1.09391667,68.10720927,1.2246775
consent,27,0,2024-05-30T21:13:32.010Z,english_769.wav,0,pill,186,0,0.0,-5.59008464,1.9459955
consent,27,0,2024-05-30T21:13:32.010Z,english_769.wav,0,pill,186,1,0.1,23.87135474,1.03760396
consent,27,0,2024-05-30T21:13:32.010Z,english_769.wav,0,pill,186,2,0.2,-59.27059617,0.52841708
consent,27,0,2024-05-30T21:13:32.010Z,english_769.wav,0,pill,186,3,0.3,-3.79644123,1.18808585
consent,27,0,2024-05-30T21:13:32.010Z,english_769.wav,0,pill,186,4,0.4,-24.49258802,1.53084487
consent,27,0,2024-05-30T21:13:32.010Z,english_769.wav,0,pill,186,5,0.5,-9.70740252,1.19743676
consent,27,0,2024-05-30T21:13:32.010Z,english_769.wav,0,pill,186,6,0.6,93.2382904,1.07802649
consent,27,0,2024-05-30T21:13:32.010Z,english_769.wav,0,pill,186,7,0.7,-80.61523432,1.54041051
consent,27,0,2024-05-30T21:13:32.010Z,english_769.wav,0,pill,186,8,0.8,-68.01598802,0.02132601
consent,27,0,2024-05-30T21:13:32.010Z,english_769.wav,0,pill,186,9,0.9,62.98223399,1.71898352
consent,27,0,2024-05-30T21:13:32.010Z,english_769.wav,0,pill,186,10,1.0,-20.64225602,1.35496449
consent,27,0,2024-05-30T21:13:32.010Z,english_769.wav,0,pill,186,11,1.09391667,-61.6915353,1.18680032
consent,28,0,2024-05-30T21:13:32.010Z,english_719.wav,0,pill,17,0,0.0,-74.07322153,0.85431966
consent,28,0,2024-05-30T21:13:32.010Z,english_719.wav,0,pill,17,1,0.1,35.75598847,1.01181763
consent,28,0,2024-05-30T21:13:32.010Z,english_719.wav,0,pill,17,2,0.2,82.97271333,0.92312945
consent,28,0,2024-05-30T21:13:32.010Z,english_719.wav,0,pill,17,3,0.3,17.0497448,0.56497759
consent,28,0,2024-05-30T21:13:32.010Z,english_719.wav,0,pill,17,4,0.4,25.23097934,0.45096397
consent,28,0,2024-05-30T21:13:32.010Z,english_719.wav,0,pill,17,5,0.5,4.16668302,1.21193737
consent,28,0,2024-05-30T21:13:32.010Z,english_719.wav,0,pill,17,6,0.6,-83.53078486,0.96594203
consent,28,0,2024-05-30T21:13:32.010Z,english_719.wav,0,pill,17,7,0.7,-81.53905497,0.58708741
consent,28,0,2024-05-30T21:13:32.010Z,english_719.wav,0,pill,17,8,0.8,32.10709268,1.06053437
consent,28,0,2024-05-30T21:13:32.010Z,english_719.wav,0,pill,17,9,0.9,9.14404491,1.09641521
consent,28,0,2024-05-30T21:13:32.010Z,english_719.wav,0,pill,17,10,1.0,56.09727313,1.58822768
consent,28,0,2024-05-30T21:13:32.010Z,english_719.wav,0,pill,17,11,1.09391667,-90.02311852,0.88380828
consent,29,0,2024-05-30T21:13:32.010Z,english_748.wav,0,pill,25,0,0.0,-33.83596368,1.91287282
consent,29,0,2024-05-30T21:13:32.010Z,english_748.wav,0,pill,25,1,0.1,-59.15381013,1.28041444
consent,29,0,2024-05-30T21:13:32.010Z,english_748.wav,0,pill,25,2,0.2,-64.86299243,0.04095899
consent,29,0,2024-05-30T21:13:32.010Z,english_748.wav,0,pill,25,3,0.3,-73.6430977,0.41914446
consent,29,0,2024-05-30T21:13:32.010Z,english_748.wav,0,pill,25,4,0.4,-91.05214173,1.08223978
consent,29,0,2024-05-30T21:13:32.010Z,english_748.wav,0,pill,25,5,0.5,-45.40797518,0.2529754
consent,29,0,2024-05-30T21:13:32.010Z,english_748.wav,0,pill,25,6,0.6,13.66964743,1.11197698
consent,29,0,2024-05-30T21:13:32.010Z,english_748.wav,0,pill,25,7,0.7,95.37065991,0.98751557
consent,29,0,2024-05-30T21:13:32.010Z,english_748.wav,0,pill,25,8,0.8,26.41264332,0.20616642
consent,29,0,2024-05-30T21:13:32.010Z,english_748.wav,0,pill,25,9,0.9,48.24832417,0.07234113
consent,29,0,2024-05-30T21:13:32.010Z,english_748.wav,0,pill,25,10,1.0,52.4867675,0.75683712
consent,29,0,2024-05-30T21:13:32.010Z,english_748.wav,0,pill,25,11,1.09391667,-11.31996214,0.73246581
consent,30,0,2024-05-30T21:13:32.010Z,english_510.wav,0,pill,101,0,0.0,-64.82277941,1.74799884
consent,30,0,2024-05-30T21:13:32.010Z,english_510.wav,0,pill,101,1,0.1,67.50018906,1.7328265
consent,30,0,2024-05-30T21:13:32.010Z,english_510.wav,0,pill,101,2,0.2,83.11599323,1.53243167
consent,30,0,2024-05-30T21:13:32.010Z,english_510.wav,0,pill,101,3,0.3,-40.68058334,0.93226309
consent,30,0,2024-05-30T21:13:32.010Z,english_510.wav,0,pill,101,4,0.4,-20.66274727,0.97994595
consent,30,0,2024-05-30T21:13:32.010Z,english_510.wav,0,pill,101,5,0.5,57.39601347,1.11050562
consent,30,0,2024-05-30T21:13:32.010Z,english_510.wav,0,pill,101,6,0.6,26.65395964,0.07038292
consent,30,0,2024-05-30T21:13:32.010Z,english_510.wav,0,pill,101,7,0.7,-1.22309803,0.34804353
consent,30,0,2024-05-30T21:13:32.010Z,english_510.wav,0,pill,101,8,0.8,91.87113136,1.43252604
consent,30,0,2024-05-30T21:13:32.010Z,english_510.wav,0,pill,101,9,0.9,59.67411659,0.49156131
consent,30,0,2024-05-30T21:13:32.010Z,english_510.wav,0,pill,101,10,1.0,9.25675614,0.83882448
consent,30,0,2024-05-30T21:13:32.010Z,english_510.wav,0,pill,101,11,1.09391667,-85.2659012,1.33145629
consent,31,0,2024-05-30T21:13:32.010Z,english_848.wav,0,pill,161,0,0.0,16.27018666,0.42429773
consent,31,0,2024-05-30T21:13:32.010Z,english_848.wav,0,pill,161,1,0.1,-74.75395213,0.55671169
consent,31,0,2024-05-30T21:13:32.010Z,english_848.wav,0,pill,161,2,0.2,55.44859949,0.96508228
consent,31,0,2024-05-30T21:13:32.010Z,english_848.wav,0,pill,161,3,0.3,-32.83945411,0.7665276
consent,31,0,2024-05-30T21:13:32.010Z,english_848.wav,0,pill,161,4,0.4,30.01434436,0.96341741
consent,31,0,2024-05-30T21:13:32.010Z,english_848.wav,0,pill,161,5,0.5,48.58281319,0.06275252
consent,31,0,2024-05-30T21:13:32.010Z,english_848.wav,0,pill,161,6,0.6,-85.68192699,0.89297301
consent,31,0,2024-05-30T21:13:32.010Z,english_848.wav,0,pill,161,7,0.7,27.03943406,0.16213779
consent,31,0,2024-05-30T21:13:32.010Z,english_848.wav,0,pill,161,8,0.8,14.64264022,1.88232235
consent,31,0,2024-05-30T21:13:32.010Z,english_848.wav,0,pill,161,9,0.9,-60.92798451,1.9298227
consent,31,0,2024-05-30T21:13:32.010Z,english_848.wav,0,pill,161,10,1.0,-13.82637474,0.08076178
consent,31,0,2024-05-30T21:13:32.010Z,english_848.wav,0,pill,161,11,1.09391667,-65.39894946,1.11155621
consent,32,0,2024-05-30T21:13:32.010Z,english_834.wav,0,pill,416,0,0.0,-86.16375599,1.62153397
consent,32,0,2024-05-30T21:13:32.010Z,english_834.wav,0,pill,416,1,0.1,-22.09919923,1.42577166
consent,32,0,2024-05-30T21:13:32.010Z,english_834.wav,0,pill,416,2,0.2,63.82090938,1.22840095
consent,32,0,2024-05-30T21:13:32.010Z,english_834.wav,0,pill,416,3,0.3,38.26115817,1.977843
consent,32,0,2024-05-30T21:13:32.010Z,english_834.wav,0,pill,416,4,0.4,15.19654457,0.63466945
consent,32,0,2024-05-30T21:13:32.010Z,english_834.wav,0,pill,416,5,0.5,78.054871,1.94429469
consent,32,0,2024-05-30T21:13:32.010Z,english_834.wav,0,pill,416,6,0.6,63.1081572,0.531594
consent,32,0,2024-05-30T21:13:32.010Z,english_834.wav,0,pill,416,7,0.7,43.43236214,1.34157161
consent,32,0,2024-05-30T21:13:32.010Z,english_834.wav,0,pill,416,8,0.8,-74.3897683,1.32269287
consent,32,0,2024-05-30T21:13:32.010Z,english_834.wav,0,pill,416,9,0.9,40.24285486,1.75386624
consent,32,0,2024-05-30T21:13:32.010Z,english_834.wav,0,pill,416,10,1.0,-67.71571624,1.01238939
consent,32,0,2024-05-30T21:13:32.010Z,english_834.wav,0,pill,416,11,1.09391667,40.03958616,1.44306133
consent,33,0,2024-05-30T21:13:32.010Z,english_54.wav,0,pill,227,0,0.0,-21.96933263,0.48716735
consent,33,0,2024-05-30T21:13:32.010Z,english_54.wav,0,pill,227,1,0.1,21.34738665,1.05776716
consent,33,0,2024-05-30T21:13:32.010Z,english_54.wav,0,pill,227,2,0.2,31.11757961,1.06204204
consent,33,0,2024-05-30T21:13:32.010Z,english_54.wav,0,pill,227,3,0.3,-97.99268721,1.04698992
consent,33,0,2024-05-30T21:13:32.010Z,english_54.wav,0,pill,227,4,0.4,-9.10924424,1.4258698
consent,33,0,2024-05-30T21:13:32.010Z,english_54.wav,0,pill,227,5,0.5,6.54964279,0.044516
consent,33,0,2024-05-30T21:13:32.010Z,english_54.wav,0,pill,227,6,0.6,-88.03304288,1.54012871
consent,33,0,2024-05-30T21:13:32.010Z,english_54.wav,0,pill,227,7,0.7,-43.35008219,0.40475238
consent,33,0,2024-05-30T21:13:32.010Z,english_54.wav,0,pill,227,8,0.8,96.98577024,1.50449696
consent,33,0,2024-05-30T21:13:32.010Z,english_54.wav,0,pill,227,9,0.9,50.71384678,0.29484315
consent,33,0,2024-05-30T21:13:32.010Z,english_54.wav,0,pill,227,10,1.0,-60.40662606,1.60594219
consent,33,0,2024-05-30T21:13:32.010Z,english_54.wav,0,pill,227,11,1.09391667,58.67238149,0.44012247
consent,34,0,2024-05-30T21:13:32.010Z,english_309.wav,0,pill,434,0,0.0,-34.14852999,1.21753296
consent,34,0,2024-05-30T21:13:32.010Z,english_309.wav,0,pill,434,1,0.1,-60.02804827,1.49982591
consent,34,0,2024-05-30T21:13:32.010Z,english_309.wav,0,pill,434,2,0.2,6.0299745,1.91679373
consent,34,0,2024-05-30T21:13:32.010Z,english_309.wav,0,pill,434,3,0.3,65.21163803,0.32322976
consent,34,0,2024-05-30T21:13:32.010Z,english_309.wav,0,pill,434,4,0.4,70.66724966,1.88516358
consent,34,0,2024-05-30T21:13:32.010Z,english_309.wav,0,pill,434,5,0.5,45.99109365,1.4437576
consent,34,0,2024-05-30T21:13:32.010Z,english_309.wav,0,pill,434,6,0.6,-19.50247914,1.34394651
consent,34,0,2024-05-30T21:13:32.010Z,english_309.wav,0,pill,434,7,0.7,-1.40871488,0.70865896
consent,34,0,2024-05-30T21:13:32.010Z,english_309.wav,0,pill,434,8,0.8,76.93262372,0.16374417
consent,34,0,2024-05-30T21:13:32.010Z,english_309.wav,0,pill,434,9,0.9,-6.89150381,0.04755869
consent,34,0,2024-05-30T21:13:32.010Z,english_309.wav,0,pill,434,10,1.0,-55.94090841,0.82149119
consent,34,0,2024-05-30T21:13:32.010Z,english_309.wav,0,pill,434,11,1.09391667,80.41347419,0.6378001
consent,35,0,2024-05-30T21:13:32.010Z,english_78.wav,0,pill,232,0,0.0,42.39797886,1.50616235
consent,35,0,2024-05-30T21:13:32.010Z,english_78.wav,0,pill,232,1,0.1,-36.07857938,0.54303847
consent,35,0,2024-05-30T21:13:32.010Z,english_78.wav,0,pill,232,2,0.2,-66.49689514,0.95347503
consent,35,0,2024-05-30T21:13:32.010Z,english_78.wav,0,pill,232,3,0.3,52.41013344,1.62003629
consent,35,0,2024-05-30T21:13:32.010Z,english_78.wav,0,pill,232,4,0.4,60.05478812,1.61647939
consent,35,0,2024-05-30T21:13:32.010Z,english_78.wav,0,pill,232,5,0.5,-4.62250103,0.17410512
consent,35,0,2024-05-30T21:13:32.010Z,english_78.wav,0,pill,232,6,0.6,-80.28349147,0.43268803
consent,35,0,2024-05-30T21:13:32.010Z,english_78.wav,0,pill,232,7,0.7,83.57222547,0.08104601
consent,35,0,2024-05-30T21:13:32.010Z,english_78.wav,0,pill,232,8,0.8,7.4922518,1.61489209
consent,35,0,2024-05-30T21:13:32.010Z,english_78.wav,0,pill,232,9,0.9,-18.57317231,0.08012208
consent,35,0,2024-05-30T21:13:32.010Z,english_78.wav,0,pill,232,10,1.0,-60.66079691,0.76901301
consent,35,0,2024-05-30T21:13:32.010Z,english_78.wav,0,pill,232,11,1.09391667,37.22949989,1.86046092
consent,36,0,2024-05-30T21:13:32.010Z,english_931.wav,0,pill,59,0,0.0,-48.18620988,1.69837389
consent,36,0,2024-05-30T21:13:32.010Z,english_931.wav,0,pill,59,1,0.1,93.34540741,1.28970497
consent,36,0,2024-05-30T21:13:32.010Z,english_931.wav,0,pill,59,2,0.2,-88.99120058,1.49371187
consent,36,0,2024-05-30T21:13:32.010Z,english_931.wav,0,pill,59,3,0.3,67.25284663,0.85799596
consent,36,0,2024-05-30T21:13:32.010Z,english_931.wav,0,pill,59,4,0.4,-10.35682297,1.16281473
consent,36,0,2024-05-30T21:13:32.010Z,english_931.wav,0,pill,59,5,0.5,-25.57246183,1.03469104
consent,36,0,2024-05-30T21:13:32.010Z,english_931.wav,0,pill,59,6,0.6,-89.21725543,1.18976364
consent,36,0,2024-05-30T21:13:32.010Z,english_931.wav,0,pill,59,7,0.7,48.14137998,0.15613957
consent,36,0,2024-05-30T21:13:32.010Z,english_931.wav,0,pill,59,8,0.8,15.08583038,0.89546931
consent,36,0,2024-05-30T21:13:32.010Z,english_931.wav,0,pill,59,9,0.9,-21.24642179,1.04801932
consent,36,0,2024-05-30T21:13:32.010Z,english_931.wav,0,pill,59,10,1.0,-61.3036155,0.54320379
consent,36,0,2024-05-30T21:13:32.010Z,english_931.wav,0,pill,59,11,1.09391667,-1.60302041,1.57083838
consent,37,0,2024-05-30T21:13:32.010Z,english_403.wav,0,pill,100,0,0.0,0.0155370236,1.50775741
consent,37,0,2024-05-30T21:13:32.010Z,english_403.wav,0,pill,100,1,0.1,-4.64270355,1.88632048
consent,37,0,2024-05-30T21:13:32.010Z,english_403.wav,0,pill,100,2,0.2,-86.7611077,1.79027228
consent,37,0,2024-05-30T21:13:32.010Z,english_403.wav,0,pill,100,3,0.3,-86.6854854,0.9708058
consent,37,0,2024-05-30T21:13:32.010Z,english_403.wav,0,pill,100,4,0.4,-74.3205589,1.26833926
consent,37,0,2024-05-30T21:13:32.010Z,english_403.wav,0,pill,100,5,0.5,56.1207621,0.98662828
consent,37,0,2024-05-30T21:13:32.010Z,english_403.wav,0,pill,100,6,0.6,15.0235235,1.65364002
consent,37,0,2024-05-30T21:13:32.010Z,english_403.wav,0,pill,100,7,0.7,25.8783198,1.52514764
consent,37,0,2024-05-30T21:13:32.010Z,english_403.wav,0,pill,100,8,0.8,21.3726461,1.10599603
consent,37,0,2024-05-30T21:13:32.010Z,english_403.wav,0,pill,100,9,0.9,86.9816794,1.01372586
consent,37,0,2024-05-30T21:13:32.010Z,english_403.wav,0,pill,100,10,1.0,-56.1900631,1.1928159
consent,37,0,2024-05-30T21:13:32.010Z,english_403.wav,0,pill,100,11,1.09391667,59.2986673,0.36234179
consent,38,0,2024-05-30T21:13:32.010Z,english_745.wav,0,pill,202,0,0.0,-47.9537983,1.262874
consent,38,0,2024-05-30T21:13:32.010Z,english_745.wav,0,pill,202,1,0.1,10.59664377,0.45595153
consent,38,0,2024-05-30T21:13:32.010Z,english_745.wav,0,pill,202,2,0.2,3.22121318,1.90154411
consent,38,0,2024-05-30T21:13:32.010Z,english_745.wav,0,pill,202,3,0.3,66.38489409,1.18935698
consent,38,0,2024-05-30T21:13:32.010Z,english_745.wav,0,pill,202,4,0.4,-85.62638025,0.53454894
consent,38,0,2024-05-30T21:13:32.010Z,english_745.wav,0,pill,202,5,0.5,53.0870989,0.07115633
consent,38,0,2024-05-30T21:13:32.010Z,english_745.wav,0,pill,202,6,0.6,37.88737288,0.91558947
consent,38,0,2024-05-30T21:13:32.010Z,english_745.wav,0,pill,202,7,0.7,-50.87104403,0.71993263
consent,38,0,2024-05-30T21:13:32.010Z,english_745.wav,0,pill,202,8,0.8,-30.17524051,0.93591694
consent,38,0,2024-05-30T21:13:32.010Z,english_745.wav,0,pill,202,9,0.9,42.29036925,0.99723137
consent,38,0,2024-05-30T21:13:32.010Z,english_745.wav,0,pill,202,10,1.0,6.95263715,0.85978939
consent,38,0,2024-05-30T21:13:32.010Z,english_745.wav,0,pill,202,11,1.09391667,-3.81320325,0.69941736
consent,39,0,2024-05-30T21:13:32.010Z,english_728.wav,0,pill,81,0,0.0,86.97428458,1.28134459
consent,39,0,2024-05-30T21:13:32.010Z,english_728.wav,0,pill,81,1,0.1,68.85214371,0.92040862
consent,39,0,2024-05-30T21:13:32.010Z,english_728.wav,0,pill,81,2,0.2,-97.98565906,0.75536346
consent,39,0,2024-05-30T21:13:32.010Z,english_728.wav,0,pill,81,3,0.3,35.07930547,1.26670058
consent,39,0,2024-05-30T21:13:32.010Z,english_728.wav,0,pill,81,4,0.4,-30.18374109,0.22005976
consent,39,0,2024-05-30T21:13:32.010Z,english_728.wav,0,pill,81,5,0.5,-82.66469876,1.42168107
consent,39,0,2024-05-30T21:13:32.010Z,english_728.wav,0,pill,81,6,0.6,23.39578652,1.49957944
consent,39,0,2024-05-30T21:13:32.010Z,english_728.wav,0,pill,81,7,0.7,26.21600665,0.84685957
consent,39,0,2024-05-30T21:13:32.010Z,english_728.wav,0,pill,81,8,0.8,40.56146868,0.54890831
consent,39,0,2024-05-30T21:13:32.010Z,english_728.wav,0,pill,81,9,0.9,8.84190716,1.06754414
consent,39,0,2024-05-30T21:13:32.010Z,english_728.wav,0,pill,81,10,1.0,42.34962336,0.96376908
consent,39,0,2024-05-30T21:13:32.010Z,english_728.wav,0,pill,81,11,1.09391667,-32.07226286,0.10029528
consent,40,0,2024-05-30T21:13:32.010Z,english_410.wav,0,pill,266,0,0.0,-36.53142902,1.24674602
consent,40,0,2024-05-30T21:13:32.010Z,english_410.wav,0,pill,266,1,0.1,-73.10175545,0.8370169
consent,40,0,2024-05-30T21:13:32.010Z,english_410.wav,0,pill,266,2,0.2,-61.08145671,0.06968434
consent,40,0,2024-05-30T21:13:32.010Z,english_410.wav,0,pill,266,3,0.3,69.19027309,1.30165484
consent,40,0,2024-05-30T21:13:32.010Z,english_410.wav,0,pill,266,4,0.4,55.45278414,1.73532031
consent,40,0,2024-05-30T21:13:32.010Z,english_410.wav,0,pill,266,5,0.5,-36.69311621,0.17519488
consent,40,0,2024-05-30T21:13:32.010Z,english_410.wav,0,pill,266,6,0.6,-29.14988511,1.19817313
consent,40,0,2024-05-30T21:13:32.010Z,english_410.wav,0,pill,266,7,0.7,23.18680587,1.29181432
consent,40,0,2024-05-30T21:13:32.010Z,english_410.wav,0,pill,266,8,0.8,-48.34223372,0.80606891
consent,40,0,2024-05-30T21:13:32.010Z,english_410.wav,0,pill,266,9,0.9,-66.3324226,1.29130062
consent,40,0,2024-05-30T21:13:32.010Z,english_410.wav,0,pill,266,10,1.0,-63.55688976,1.82784749
consent,40,0,2024-05-30T21:13:32.010Z,english_410.wav,0,pill,266,11,1.09391667,20.87434717,1.37227316
consent,41,0,2024-05-30T21:13:32.010Z,english_911.wav,0,pill,150,0,0.0,97.74431138,1.45295226
consent,41,0,2024-05-30T21:13:32.010Z,english_911.wav,0,pill,150,1,0.1,63.25353714,0.52934156
consent,41,0,2024-05-30T21:13:32.010Z,english_911.wav,0,pill,150,2,0.2,31.76873058,1.12978313
consent,41,0,2024-05-30T21:13:32.010Z,english_911.wav,0,pill,150,3,0.3,-80.65515271,0.46492479
consent,41,0,2024-05-30T21:13:32.010Z,english_911.wav,0,pill,150,4,0.4,87.72308134,1.65576631
consent,41,0,2024-05-30T21:13:32.010Z,english_911.wav,0,pill,150,5,0.5,-43.90030619,0.95301179
consent,41,0,2024-05-30T21:13:32.010Z,english_911.wav,0,pill,150,6,0.6,-96.43392939,1.98033305
consent,41,0,2024-05-30T21:13:32.010Z,english_911.wav,0,pill,150,7,0.7,-95.09691132,0.56650122
consent,41,0,2024-05-30T21:13:32.010Z,english_911.wav,0,pill,150,8,0.8,7.77484736,1.59543029
consent,41,0,2024-05-30T21:13:32.010Z,english_911.wav,0,pill,150,9,0.9,12.16907111,1.97260423
consent,41,0,2024-05-30T21:13:32.010Z,english_911.wav,0,pill,150,10,1.0,33.87787458,1.68149339
consent,41,0,2024-05-30T21:13:32.010Z,english_911.wav,0,pill,150,11,1.09391667,10.13841493,1.03055348
consent,42,0,2024-05-30T21:13:32.010Z,english_751.wav,0,pill,4,0,0.0,-66.06272789,0.8938032
consent,42,0,2024-05-30T21:13:32.010Z,english_751.wav,0,pill,4,1,0.1,-35.39424596,0.85096145
consent,42,0,2024-05-30T21:13:32.010Z,english_751.wav,0,pill,4,2,0.2,-5.06217065,0.63682042
consent,42,0,2024-05-30T21:13:32.010Z,english_751.wav,0,pill,4,3,0.3,34.9656481,0.66546542
consent,42,0,2024-05-30T21:13:32.010Z,english_751.wav,0,pill,4,4,0.4,21.23436914,1.36528552
consent,42,0,2024-05-30T21:13:32.010Z,english_751.wav,0,pill,4,5,0.5,82.13600136,1.24494727
consent,42,0,2024-05-30T21:13:32.010Z,english_751.wav,0,pill,4,6,0.6,31.75524198,1.91319775
consent,42,0,2024-05-30T21:13:32.010Z,english_751.wav,0,pill,4,7,0.7,25.74157906,1.46839197
consent,42,0,2024-05-30T21:13:32.010Z,english_751.wav,0,pill,4,8,0.8,0.71739343,1.22847184
consent,42,0,2024-05-30T21:13:32.010Z,english_751.wav,0,pill,4,9,0.9,-48.73723386,1.68139256
consent,42,0,2024-05-30T21:13:32.010Z,english_751.wav,0,pill,4,10,1.0,-45.00388336,0.62568337
consent,42,0,2024-05-30T21:13:32.010Z,english_751.wav,0,pill,4,11,1.09391667,-22.7557427,0.09425642
consent,43,0,2024-05-30T21:13:32.010Z,english_171.wav,0,pill,336,0,0.0,57.16640714,0.48953769
consent,43,0,2024-05-30T21:13:32.010Z,english_171.wav,0,pill,336,1,0.1,74.54839728,1.15474794
consent,43,0,2024-05-30T21:13:32.010Z,english_171.wav,0,pill,336,2,0.2,95.75678202,1.06369724
consent,43,0,2024-05-30T21:13:32.010Z,english_171.wav,0,pill,336,3,0.3,39.99051632,0.94070076
consent,43,0,2024-05-30T21:13:32.010Z,english_171.wav,0,pill,336,4,0.4,-6.66803256,0.05995963
consent,43,0,2024-05-30T21:13:32.010Z,english_171.wav,0,pill,336,5,0.5,-11.42556478,0.94038212
consent,43,0,2024-05-30T21:13:32.010Z,english_171.wav,0,pill,336,6,0.6,-61.08204703,1.30766084
consent,43,0,2024-05-30T21:13:32.010Z,english_171.wav,0,pill,336,7,0.7,-47.00718825,1.96472455
consent,43,0,2024-05-30T21:13:32.010Z,english_171.wav,0,pill,336,8,0.8,-62.88052724,0.35350446
consent,43,0,2024-05-30T21:13:32.010Z,english_171.wav,0,pill,336,9,0.9,-55.43761186,0.65278216
consent,43,0,2024-05-30T21:13:32.010Z,english_171.wav,0,pill,336,10,1.0,-25.22707532,1.06452254
consent,43,0,2024-05-30T21:13:32.010Z,english_171.wav,0,pill,336,11,1.09391667,72.94956576,0.49293676
consent,44,0,2024-05-30T21:13:32.010Z,english_610.wav,0,pill,211,0,0.0,-92.84300711,0.87509592
consent,44,0,2024-05-30T21:13:32.010Z,english_610.wav,0,pill,211,1,0.1,84.93303095,1.15799642
consent,44,0,2024-05-30T21:13:32.010Z,english_610.wav,0,pill,211,2,0.2,80.17137486,0.35067597
consent,44,0,2024-05-30T21:13:32.010Z,english_610.wav,0,pill,211,3,0.3,-20.18134966,0.73569606
consent,44,0,2024-05-30T21:13:32.010Z,english_610.wav,0,pill,211,4,0.4,-20.20363531,1.23116766
consent,44,0,2024-05-30T21:13:32.010Z,english_610.wav,0,pill,211,5,0.5,-69.79247274,0.29684789
consent,44,0,2024-05-30T21:13:32.010Z,english_610.wav,0,pill,211,6,0.6,33.10957698,0.98948574
consent,44,0,2024-05-30T21:13:32.010Z,english_610.wav,0,pill,211,7,0.7,-20.50322303,0.76787478
consent,44,0,2024-05-30T21:13:32.010Z,english_610.wav,0,pill,211,8,0.8,-72.05825618,0.48117832
consent,44,0,2024-05-30T21:13:32.010Z,english_610.wav,0,pill,211,9,0.9,1.26743028,0.47321928
consent,44,0,2024-05-30T21:13:32.010Z,english_610.wav,0,pill,211,10,1.0,17.12915034,0.17126553
consent,44,0,2024-05-30T21:13:32.010Z,english_610.wav,0,pill,211,11,1.09391667,64.76618694,1.04318183
consent,45,0,2024-05-30T21:13:32.010Z,english_888.wav,0,pill,30,0,0.0,-39.7925546,0.13458958
consent,45,0,2024-05-30T21:13:32.010Z,english_888.wav,0,pill,30,1,0.1,-49.30113257,1.48324952
consent,45,0,2024-05-30T21:13:32.010Z,english_888.wav,0,pill,30,2,0.2,5.97243806,0.77423602
consent,45,0,2024-05-30T21:13:32.010Z,english_888.wav,0,pill,30,3,0.3,16.41276851,0.11110742
consent,45,0,2024-05-30T21:13:32.010Z,english_888.wav,0,pill,30,4,0.4,72.72751695,0.50050507
consent,45,0,2024-05-30T21:13:32.010Z,english_888.wav,0,pill,30,5,0.5,30.43059144,1.62800327
consent,45,0,2024-05-30T21:13:32.010Z,english_888.wav,0,pill,30,6,0.6,-50.61460993,0.52150538
consent,45,0,2024-05-30T21:13:32.010Z,english_888.wav,0,pill,30,7,0.7,27.35581245,1.33185555
consent,45,0,2024-05-30T21:13:32.010Z,english_888.wav,0,pill,30,8,0.8,-42.43293374,1.57744059
consent,45,0,2024-05-30T21:13:32.010Z,english_888.wav,0,pill,30,9,0.9,65.78948432,0.93033448
consent,45,0,2024-05-30T21:13:32.010Z,english_888.wav,0,pill,30,10,1.0,10.78660964,1.1520653
consent,45,0,2024-05-30T21:13:32.010Z,english_888.wav,0,pill,30,11,1.09391667,-21.51817703,1.84815249
consent,46,0,2024-05-30T21:13:32.010Z,english_38.wav,0,pill,838,0,0.0,84.84297862,0.12127835
consent,46,0,2024-05-30T21:13:32.010Z,english_38.wav,0,pill,838,1,0.1,-41.13766339,0.39553601
consent,46,0,2024-05-30T21:13:32.010Z,english_38.wav,0,pill,838,2,0.2,31.0243005,1.29400733
consent,46,0,2024-05-30T21:13:32.010Z,english_38.wav,0,pill,838,3,0.3,51.71643077,0.38578685
consent,46,0,2024-05-30T21:13:32.010Z,english_38.wav,0,pill,838,4,0.4,-15.52187673,0.67216324
consent,46,0,2024-05-30T21:13:32.010Z,english_38.wav,0,pill,838,5,0.5,37.47478577,0.61922356
consent,46,0,2024-05-30T21:13:32.010Z,english_38.wav,0,pill,838,6,0.6,27.01527087,0.0538602
consent,46,0,2024-05-30T21:13:32.010Z,english_38.wav,0,pill,838,7,0.7,44.60136097,0.56901487
consent,46,0,2024-05-30T21:13:32.010Z,english_38.wav,0,pill,838,8,0.8,-52.37417606,1.28646438
consent,46,0,2024-05-30T21:13:32.010Z,english_38.wav,0,pill,838,9,0.9,-48.58777174,0.80149466
consent,46,0,2024-05-30T21:13:32.010Z,english_38.wav,0,pill,838,10,1.0,7.20305444,1.28981754
consent,46,0,2024-05-30T21:13:32.010Z,english_38.wav,0,pill,838,11,1.09391667,-74.66052111,0.46742112
consent,47,0,2024-05-30T21:13:32.010Z,english_988.wav,0,pill,478,0,0.0,41.01121176,1.79508408
consent,47,0,2024-05-30T21:13:32.010Z,english_988.wav,0,pill,478,1,0.1,-57.00509923,0.91683768
consent,47,0,2024-05-30T21:13:32.010Z,english_988.wav,0,pill,478,2,0.2,-47.7423933,0.75632301
consent,47,0,2024-05-30T21:13:32.010Z,english_988.wav,0,pill,478,3,0.3,-45.09224268,0.50123111
consent,47,0,2024-05-30T21:13:32.010Z,english_988.wav,0,pill,478,4,0.4,-86.23747248,1.43218642
consent,47,0,2024-05-30T21:13:32.010Z,english_988.wav,0,pill,478,5,0.5,32.23270896,1.02417726
consent,47,0,2024-05-30T21:13:32.010Z,english_988.wav,0,pill,478,6,0.6,83.03664367,0.26646991
consent,47,0,2024-05-30T21:13:32.010Z,english_988.wav,0,pill,478,7,0.7,23.13228138,0.55372386
consent,47,0,2024-05-30T21:13:32.010Z,english_988.wav,0,pill,478,8,0.8,-80.96876175,1.25427564
consent,47,0,2024-05-30T21:13:32.010Z,english_988.wav,0,pill,478,9,0.9,85.87163391,1.46901823
consent,47,0,2024-05-30T21:13:32.010Z,english_988.wav,0,pill,478,10,1.0,65.98257536,1.62105321
consent,47,0,2024-05-30T21:13:32.010Z,english_988.wav,0,pill,478,11,1.09391667,8.92791605,1.15707193
consent,48,0,2024-05-30T21:13:32.010Z,english_595.wav,0,pill,440,0,0.0,22.66066479,1.33322286
consent,48,0,2024-05-30T21:13:32.010Z,english_595.wav,0,pill,440,1,0.1,84.39995443,0.79225642
consent,48,0,2024-05-30T21:13:32.010Z,english_595.wav,0,pill,440,2,0.2,19.72307996,0.78213906
consent,48,0,2024-05-30T21:13:32.010Z,english_595.wav,0,pill,440,3,0.3,-75.24605749,0.04755157
consent,48,0,2024-05-30T21:13:32.010Z,english_595.wav,0,pill,440,4,0.4,-67.45783177,1.8774159
consent,48,0,2024-05-30T21:13:32.010Z,english_595.wav,0,pill,440,5,0.5,-37.47794161,0.68932381
consent,48,0,2024-05-30T21:13:32.010Z,english_595.wav,0,pill,440,6,0.6,11.08818928,1.24235148
consent,48,0,2024-05-30T21:13:32.010Z,english_595.wav,0,pill,440,7,0.7,46.85817265,1.6524831
consent,48,0,2024-05-30T21:13:32.010Z,english_595.wav,0,pill,440,8,0.8,-2.92238114,0.95449466
consent,48,0,2024-05-30T21:13:32.010Z,english_595.wav,0,pill,440,9,0.9,58.48560552,1.23515898
consent,48,0,2024-05-30T21:13:32.010Z,english_595.wav,0,pill,440,10,1.0,-52.60786122,1.92684196
consent,48,0,2024-05-30T21:13:32.010Z,english_595.wav,0,pill,440,11,1.09391667,16.6492661,0.85611045
consent,49,0,2024-05-30T21:13:32.010Z,english_294.wav,0,pill,302,0,0.0,-35.26170476,0.76895084
consent,49,0,2024-05-30T21:13:32.010Z,english_294.wav,0,pill,302,1,0.1,-68.79847515,0.42345848
consent,49,0,2024-05-30T21:13:32.010Z,english_294.wav,0,pill,302,2,0.2,21.65443345,1.88759315
consent,49,0,2024-05-30T21:13:32.010Z,english_294.wav,0,pill,302,3,0.3,18.61336719,0.20743541
consent,49,0,2024-05-30T21:13:32.010Z,english_294.wav,0,pill,302,4,0.4,29.14118392,0.10193981
consent,49,0,2024-05-30T21:13:32.010Z,english_294.wav,0,pill,302,5,0.5,-0.79474297,0.31438326
consent,49,0,2024-05-30T21:13:32.010Z,english_294.wav,0,pill,302,6,0.6,-83.10715175,1.2995954
consent,49,0,2024-05-30T21:13:32.010Z,english_294.wav,0,pill,302,7,0.7,-22.63410673,1.94703728
consent,49,0,2024-05-30T21:13:32.010Z,english_294.wav,0,pill,302,8,0.8,-21.26415856,0.92366458
consent,49,0,2024-05-30T21:13:32.010Z,english_294.wav,0,pill,302,9,0.9,47.90727918,1.04223302
consent,49,0,2024-05-30T21:13:32.010Z,english_294.wav,0,pill,302,10,1.0,-39.88232682,1.01801331
consent,49,0,2024-05-30T21:13:32.010Z,english_294.wav,0,pill,302,11,1.09391667,-74.09279353,0.911147
consent,50,1,2024-05-30T21:13:32.010Z,english_34.wav,0,pill,147,0,0.0,9.71692873,1.51290073
consent,50,1,2024-05-30T21:13:32.010Z,english_34.wav,0,pill,147,1,0.1,-32.4765448,1.69209185
consent,50,1,2024-05-30T21:13:32.010Z,english_34.wav,0,pill,147,2,0.2,15.43761556,1.03006511
consent,50,1,2024-05-30T21:13:32.010Z,english_34.wav,0,pill,147,3,0.3,58.61018381,0.24425739
consent,50,1,2024-05-30T21:13:32.010Z,english_34.wav,0,pill,147,4,0.4,25.83507297,1.41814457
consent,50,1,2024-05-30T21:13:32.010Z,english_34.wav,0,pill,147,5,0.5,-56.32199776,1.04050252
consent,50,1,2024-05-30T21:13:32.010Z,english_34.wav,0,pill,147,6,0.6,-56.68859517,0.2977066
consent,50,1,2024-05-30T21:13:32.010Z,english_34.wav,0,pill,147,7,0.7,-35.23691581,0.84278016
consent,50,1,2024-05-30T21:13:32.010Z,english_34.wav,0,pill,147,8,0.8,-38.05292499,1.02765016
consent,50,1,2024-05-30T21:13:32.010Z,english_34.wav,0,pill,147,9,0.9,-19.80503333,1.82923519
consent,50,1,2024-05-30T21:13:32.010Z,english_34.wav,0,pill,147,10,1.0,18.63515133,1.36188649
consent,50,1,2024-05-30T21:13:32.010Z,english_34.wav,0,pill,147,11,1.09391667,20.3470687,1.04188566
consent,51,1,2024-05-30T21:13:32.010Z,english_974.wav,0,pill,124,0,0.0,-93.03864928,0.43845399
consent,51,1,2024-05-30T21:13:32.010Z,english_974.wav,0,pill,124,1,0.1,-77.75716604,1.6903579
consent,51,1,2024-05-30T21:13:32.010Z,english_974.wav,0,pill,124,2,0.2,0.69139929,1.16063432
consent,51,1,2024-05-30T21:13:32.010Z,english_974.wav,0,pill,124,3,0.3,26.0953238,1.86115796
consent,51,1,2024-05-30T21:13:32.010Z,english_974.wav,0,pill,124,4,0.4,98.53440651,1.84489406
consent,51,1,2024-05-30T21:13:32.010Z,english_974.wav,0,pill,124,5,0.5,92.94553081,1.48551441
consent,51,1,2024-05-30T21:13:32.010Z,english_974.wav,0,pill,124,6,0.6,-7.63804917,0.45444214
consent,51,1,2024-05-30T21:13:32.010Z,english_974.wav,0,pill,124,7,0.7,9.10874073,0.66005011
consent,51,1,2024-05-30T21:13:32.010Z,english_974.wav,0,pill,124,8,0.8,-89.79433239,1.73425962
consent,51,1,2024-05-30T21:13:32.010Z,english_974.wav,0,pill,124,9,0.9,-25.22506103,0.5346903
consent,51,1,2024-05-30T21:13:32.010Z,english_974.wav,0,pill,124,10,1.0,90.91634132,1.12098349
consent,51,1,2024-05-30T21:13:32.010Z,english_974.wav,0,pill,124,11,1.09391667,96.1258414,0.52486182
consent,52,1,2024-05-30T21:13:32.010Z,english_582.wav,0,pill,290,0,0.0,-92.78340469,1.00518837
consent,52,1,2024-05-30T21:13:32.010Z,english_582.wav,0,pill,290,1,0.1,42.51344298,1.30114299
consent,52,1,2024-05-30T21:13:32.010Z,english_582.wav,0,pill,290,2,0.2,-42.63495555,1.27031636
consent,52,1,2024-05-30T21:13:32.010Z,english_582.wav,0,pill,290,3,0.3,52.58085474,1.12025144
consent,52,1,2024-05-30T21:13:32.010Z,english_582.wav,0,pill,290,4,0.4,-78.11848263,0.79798268
consent,52,1,2024-05-30T21:13:32.010Z,english_582.wav,0,pill,290,5,0.5,-34.20952238,0.6293022
consent,52,1,2024-05-30T21:13:32.010Z,english_582.wav,0,pill,290,6,0.6,-86.64412457,1.95773952
consent,52,1,2024-05-30T21:13:32.010Z,english_582.wav,0,pill,290,7,0.7,26.30632387,0.97092523
consent,52,1,2024-05-30T21:13:32.010Z,english_582.wav,0,pill,290,8,0.8,-34.45754989,1.38286632
consent,52,1,2024-05-30T21:13:32.010Z,english_582.wav,0,pill,290,9,0.9,-45.78416277,1.31952832
consent,52,1,2024-05-30T21:13:32.010Z,english_582.wav,0,pill,290,10,1.0,-16.65162857,1.84309931
consent,52,1,2024-05-30T21:13:32.010Z,english_582.wav,0,pill,290,11,1.09391667,7.21919156,1.34013439
consent,53,1,2024-05-30T21:13:32.010Z,english_305.wav,0,pill,79,0,0.0,17.49267602,0.00977258
consent,53,1,2024-05-30T21:13:32.010Z,english_305.wav,0,pill,79,1,0.1,17.59035292,1.17585195
consent,53,1,2024-05-30T21:13:32.010Z,english_305.wav,0,pill,79,2,0.2,83.12376417,1.66932103
consent,53,1,2024-05-30T21:13:32.010Z,english_305.wav,0,pill,79,3,0.3,-81.59474703,0.83160233
consent,53,1,2024-05-30T21:13:32.010Z,english_305.wav,0,pill,79,4,0.4,-99.63264863,1.05024367
consent,53,1,2024-05-30T21:13:32.010Z,english_305.wav,0,pill,79,5,0.5,42.69289025,1.13369845
consent,53,1,2024-05-30T21:13:32.010Z,english_305.wav,0,pill,79,6,0.6,82.55548118,0.21867151
consent,53,1,2024-05-30T21:13:32.010Z,english_305.wav,0,pill,79,7,0.7,15.87479687,0.32447169
consent,53,1,2024-05-30T21:13:32.010Z,english_305.wav,0,pill,79,8,0.8,-15.6323718,1.86350195
consent,53,1,2024-05-30T21:13:32.010Z,english_305.wav,0,pill,79,9,0.9,98.18396958,0.82463705
consent,53,1,2024-05-30T21:13:32.010Z,english_305.wav,0,pill,79,10,1.0,52.83112054,0.94709308
consent,53,1,2024-05-30T21:13:32.010Z,english_305.wav,0,pill,79,11,1.09391667,33.63343534,0.36254065
consent,54,1,2024-05-30T21:13:32.010Z,english_152.wav,0,pill,69,0,0.0,-10.34550429,1.84986994
consent,54,1,2024-05-30T21:13:32.010Z,english_152.wav,0,pill,69,1,0.1,-43.66558153,0.90615496
consent,54,1,2024-05-30T21:13:32.010Z,english_152.wav,0,pill,69,2,0.2,56.2217474,0.59286193
consent,54,1,2024-05-30T21:13:32.010Z,english_152.wav,0,pill,69,3,0.3,-27.44048298,0.85505555
consent,54,1,2024-05-30T21:13:32.010Z,english_152.wav,0,pill,69,4,0.4,17.92439762,0.56649727
consent,54,1,2024-05-30T21:13:32.010Z,english_152.wav,0,pill,69,5,0.5,82.51468432,0.6043893
consent,54,1,2024-05-30T21:13:32.010Z,english_152.wav,0,pill,69,6,0.6,8.54715681,1.72413787
consent,54,1,2024-05-30T21:13:32.010Z,english_152.wav,0,pill,69,7,0.7,-94.9804546,0.10144569
consent,54,1,2024-05-30T21:13:32.010Z,english_152.wav,0,pill,69,8,0.8,43.42849193,1.50321153
consent,54,1,2024-05-30T21:13:32.010Z,english_152.wav,0,pill,69,9,0.9,1.5194414,0.78421076
consent,54,1,2024-05-30T21:13:32.010Z,english_152.wav,0,pill,69,10,1.0,20.77451489,1.65129885
consent,54,1,2024-05-30T21:13:32.010Z,english_152.wav,0,pill,69,11,1.09391667,95.7342738,1.8248214
consent,55,1,2024-05-30T21:13:32.010Z,english_222.wav,0,pill,198,0,0.0,96.40991371,0.9507269
consent,55,1,2024-05-30T21:13:32.010Z,english_222.wav,0,pill,198,1,0.1,44.65841575,1.79183575
consent,55,1,2024-05-30T21:13:32.010Z,english_222.wav,0,pill,198,2,0.2,-16.29621217,1.09244309
consent,55,1,2024-05-30T21:13:32.010Z,english_222.wav,0,pill,198,3,0.3,-48.55554978,1.6357802
consent,55,1,2024-05-30T21:13:32.010Z,english_222.wav,0,pill,198,4,0.4,26.12822135,0.19893477
consent,55,1,2024-05-30T21:13:32.010Z,english_222.wav,0,pill,198,5,0.5,56.43887594,0.38875901
consent,55,1,2024-05-30T21:13:32.010Z,english_222.wav,0,pill,198,6,0.6,-8.03605186,0.73216499
consent,55,1,2024-05-30T21:13:32.010Z,english_222.wav,0,pill,198,7,0.7,54.77211039,1.11169146
consent,55,1,2024-05-30T21:13:32.010Z,english_222.wav,0,pill,198,8,0.8,25.53059274,0.05558172
consent,55,1,2024-05-30T21:13:32.010Z,english_222.wav,0,pill,198,9,0.9,-58.35574141,0.18202708
consent,55,1,2024-05-30T21:13:32.010Z,english_222.wav,0,pill,198,10,1.0,-61.20346584,0.44521291
consent,55,1,2024-05-30T21:13:32.010Z,english_222.wav,0,pill,198,11,1.09391667,99.40713186,0.13186743
consent,56,1,2024-05-30T21:13:32.010Z,english_313.wav,0,peel,172,0,0.0,-22.0180916,0.52298953
consent,56,1,2024-05-30T21:13:32.010Z,english_313.wav,0,peel,172,1,0.1,96.16831441,0.58043298
consent,56,1,2024-05-30T21:13:32.010Z,english_313.wav,0,peel,172,2,0.2,-45.33444961,0.43861373
consent,56,1,2024-05-30T21:13:32.010Z,english_313.wav,0,peel,172,3,0.3,-30.76295123,0.29063093
consent,56,1,2024-05-30T21:13:32.010Z,english_313.wav,0,peel,172,4,0.4,27.42080434,1.23880448
consent,56,1,2024-05-30T21:13:32.010Z,english_313.wav,0,peel,172,5,0.5,96.50313713,0.08705859
consent,56,1,2024-05-30T21:13:32.010Z,english_313.wav,0,peel,172,6,0.6,-0.94763764,1.32086894
consent,56,1,2024-05-30T21:13:32.010Z,english_313.wav,0,peel,172,7,0.7,67.04457313,1.2914561
consent,56,1,2024-05-30T21:13:32.010Z,english_313.wav,0,peel,172,8,0.8,2.6862445,0.44865702
consent,56,1,2024-05-30T21:13:32.010Z,english_313.wav,0,peel,172,9,0.9,47.07555832,1.89388378
consent,56,1,2024-05-30T21:13:32.010Z,english_313.wav,0,peel,172,10,1.0,-32.41079138,1.69735018
consent,56,1,2024-05-30T21:13:32.010Z,english_313.wav,0,peel,172,11,1.09391667,11.15794631,1.75721469
consent,57,1,2024-05-30T21:13:32.010Z,english_386.wav,0,peel,214,0,0.0,-19.52342601,1.87136497
consent,57,1,2024-05-30T21:13:32.010Z,english_386.wav,0,peel,214,1,0.1,12.51870084,1.2884713
consent,57,1,2024-05-30T21:13:32.010Z,english_386.wav,0,peel,214,2,0.2,39.37532447,0.99035372
consent,57,1,2024-05-30T21:13:32.010Z,english_386.wav,0,peel,214,3,0.3,-27.49424213,1.4593324
consent,57,1,2024-05-30T21:13:32.010Z,english_386.wav,0,peel,214,4,0.4,2.74242911,1.12443884
consent,57,1,2024-05-30T21:13:32.010Z,english_386.wav,0,peel,214,5,0.5,15.14964773,0.10576994
consent,57,1,2024-05-30T21:13:32.010Z,english_386.wav,0,peel,214,6,0.6,45.71194496,1.21238053
consent,57,1,2024-05-30T21:13:32.010Z,english_386.wav,0,peel,214,7,0.7,28.98960809,0.05301684
consent,57,1,2024-05-30T21:13:32.010Z,english_386.wav,0,peel,214,8,0.8,-39.83484556,0.73550617
consent,57,1,2024-05-30T21:13:32.010Z,english_386.wav,0,peel,214,9,0.9,33.1587893,1.02363056
consent,57,1,2024-05-30T21:13:32.010Z,english_386.wav,0,peel,214,10,1.0,24.37786674,0.31570088
consent,57,1,2024-05-30T21:13:32.010Z,english_386.wav,0,peel,214,11,1.09391667,-21.81878644,0.61715616
consent,58,1,2024-05-30T21:13:32.010Z,english_264.wav,0,peel,170,0,0.0,-7.97071304,0.52584892
consent,58,1,2024-05-30T21:13:32.010Z,english_264.wav,0,peel,170,1,0.1,5.26810794,0.35098417
consent,58,1,2024-05-30T21:13:32.010Z,english_264.wav,0,peel,170,2,0.2,42.90180093,0.87826506
consent,58,1,2024-05-30T21:13:32.010Z,english_264.wav,0,peel,170,3,0.3,32.54664666,0.85267403
consent,58,1,2024-05-30T21:13:32.010Z,english_264.wav,0,peel,170,4,0.4,-75.33920427,0.05665148
consent,58,1,2024-05-30T21:13:32.010Z,english_264.wav,0,peel,170,5,0.5,-92.87225366,0.902019
consent,58,1,2024-05-30T21:13:32.010Z,english_264.wav,0,peel,170,6,0.6,1.54584209,0.36999328
consent,58,1,2024-05-30T21:13:32.010Z,english_264.wav,0,peel,170,7,0.7,-61.85301996,1.87523396
consent,58,1,2024-05-30T21:13:32.010Z,english_264.wav,0,peel,170,8,0.8,-59.27209487,0.99775271
consent,58,1,2024-05-30T21:13:32.010Z,english_264.wav,0,peel,170,9,0.9,-3.4044868,0.18460265
consent,58,1,2024-05-30T21:13:32.010Z,english_264.wav,0,peel,170,10,1.0,20.29119999,0.05992377
consent,58,1,2024-05-30T21:13:32.010Z,english_264.wav,0,peel,170,11,1.09391667,76.66199878,1.79844018
consent,59,1,2024-05-30T21:13:32.010Z,english_851.wav,0,peel,134,0,0.0,-45.21125718,1.95103615
consent,59,1,2024-05-30T21:13:32.010Z,english_851.wav,0,peel,134,1,0.1,-85.75475475,0.03053554
consent,59,1,2024-05-30T21:13:32.010Z,english_851.wav,0,peel,134,2,0.2,-73.09455341,0.63850244
consent,59,1,2024-05-30T21:13:32.010Z,english_851.wav,0,peel,134,3,0.3,1.17370607,0.96719068
consent,59,1,2024-05-30T21:13:32.010Z,english_851.wav,0,peel,134,4,0.4,-11.35992748,0.02484013
consent,59,1,2024-05-30T21:13:32.010Z,english_851.wav,0,peel,134,5,0.5,42.80073602,0.41750072
consent,59,1,2024-05-30T21:13:32.010Z,english_851.wav,0,peel,134,6,0.6,45.07360169,1.17324743
consent,59,1,2024-05-30T21:13:32.010Z,english_851.wav,0,peel,134,7,0.7,-42.16100478,0.99186788
consent,59,1,2024-05-30T21:13:32.010Z,english_851.wav,0,peel,134,8,0.8,-19.59764742,1.3258141
consent,59,1,2024-05-30T21:13:32.010Z,english_851.wav,0,peel,134,9,0.9,-56.7450747,1.2279363
consent,59,1,2024-05-30T21:13:32.010Z,english_851.wav,0,peel,134,10,1.0,78.71604463,1.72539035
consent,59,1,2024-05-30T21:13:32.010Z,english_851.wav,0,peel,134,11,1.09391667,96.78573361,1.236894
consent,60,1,2024-05-30T21:13:32.010Z,english_634.wav,0,peel,96,0,0.0,64.72558427,1.10878065
consent,60,1,2024-05-30T21:13:32.010Z,english_634.wav,0,peel,96,1,0.1,89.90901107,0.64399172
consent,60,1,2024-05-30T21:13:32.010Z,english_634.wav,0,peel,96,2,0.2,81.42978407,1.22080944
consent,60,1,2024-05-30T21:13:32.010Z,english_634.wav,0,peel,96,3,0.3,-10.43897534,0.11214204
consent,60,1,2024-05-30T21:13:32.010Z,english_634.wav,0,peel,96,4,0.4,43.00975077,0.83352272
consent,60,1,2024-05-30T21:13:32.010Z,english_634.wav,0,peel,96,5,0.5,-54.25678595,0.01534265
consent,60,1,2024-05-30T21:13:32.010Z,english_634.wav,0,peel,96,6,0.6,62.84702282,0.46262621
consent,60,1,2024-05-30T21:13:32.010Z,english_634.wav,0,peel,96,7,0.7,-6.57558609,1.34444527
consent,60,1,2024-05-30T21:13:32.010Z,english_634.wav,0,peel,96,8,0.8,14.82558761,1.35254429
consent,60,1,2024-05-30T21:13:32.010Z,english_634.wav,0,peel,96,9,0.9,-96.64026407,1.9141104
consent,60,1,2024-05-30T21:13:32.010Z,english_634.wav,0,peel,96,10,1.0,-32.22519468,1.83780596
consent,60,1,2024-05-30T21:13:32.010Z,english_634.wav,0,peel,96,11,1.09391667,15.06988784,1.20703097
consent,61,1,2024-05-30T21:13:32.010Z,english_322.wav,0,peel,201,0,0.0,76.12419843,0.67214084
consent,61,1,2024-05-30T21:13:32.010Z,english_322.wav,0,peel,201,1,0.1,11.00659204,0.20805548
consent,61,1,2024-05-30T21:13:32.010Z,english_322.wav,0,peel,201,2,0.2,-52.15522205,1.24717772
consent,61,1,2024-05-30T21:13:32.010Z,english_322.wav,0,peel,201,3,0.3,-51.3643268,1.85689227
consent,61,1,2024-05-30T21:13:32.010Z,english_322.wav,0,peel,201,4,0.4,24.49300534,0.2839927
consent,61,1,2024-05-30T21:13:32.010Z,english_322.wav,0,peel,201,5,0.5,-64.27724172,0.06592342
consent,61,1,2024-05-30T21:13:32.010Z,english_322.wav,0,peel,201,6,0.6,83.88593275,0.50660315
consent,61,1,2024-05-30T21:13:32.010Z,english_322.wav,0,peel,201,7,0.7,17.09124032,0.19977586
consent,61,1,2024-05-30T21:13:32.010Z,english_322.wav,0,peel,201,8,0.8,-4.85917502,0.57396738
consent,61,1,2024-05-30T21:13:32.010Z,english_322.wav,0,peel,201,9,0.9,26.21900036,1.25518721
consent,61,1,2024-05-30T21:13:32.010Z,english_322.wav,0,peel,201,10,1.0,17.81638138,1.74789318
consent,61,1,2024-05-30T21:13:32.010Z,english_322.wav,0,peel,201,11,1.09391667,-21.79933582,1.24760572
consent,62,1,2024-05-30T21:13:32.010Z,english_390.wav,0,peel,57,0,0.0,-44.27999606,0.47786392
consent,62,1,2024-05-30T21:13:32.010Z,english_390.wav,0,peel,57,1,0.1,87.16388753,0.26367192
consent,62,1,2024-05-30T21:13:32.010Z,english_390.wav,0,peel,57,2,0.2,51.76447156,0.808543
consent,62,1,2024-05-30T21:13:32.010Z,english_390.wav,0,peel,57,3,0.3,4.72890769,1.08355999
consent,62,1,2024-05-30T21:13:32.010Z,english_390.wav,0,peel,57,4,0.4,40.54029915,1.05186068
consent,62,1,2024-05-30T21:13:32.010Z,english_390.wav,0,peel,57,5,0.5,-2.52273407,0.0330936
consent,62,1,2024-05-30T21:13:32.010Z,english_390.wav,0,peel,57,6,0.6,-16.68397449,0.46793247
consent,62,1,2024-05-30T21:13:32.010Z,english_390.wav,0,peel,57,7,0.7,61.52515281,1.47386131
consent,62,1,2024-05-30T21:13:32.010Z,english_390.wav,0,peel,57,8,0.8,-9.09589247,0.59216285
consent,62,1,2024-05-30T21:13:32.010Z,english_390.wav,0,peel,57,9,0.9,-24.40260524,0.27707759
consent,62,1,2024-05-30T21:13:32.010Z,english_390.wav,0,peel,57,10,1.0,-74.87237933,1.34831193
consent,62,1,2024-05-30T21:13:32.010Z,english_390.wav,0,peel,57,11,1.09391667,-82.02950505,1.5447274
consent,63,1,2024-05-30T21:13:32.010Z,english_234.wav,0,peel,369,0,0.0,71.25344855,1.77024373
consent,63,1,2024-05-30T21:13:32.010Z,english_234.wav,0,peel,369,1,0.1,2.51724238,1.93450941
consent,63,1,2024-05-30T21:13:32.010Z,english_234.wav,0,peel,369,2,0.2,11.96692617,1.39397551
consent,63,1,2024-05-30T21:13:32.010Z,english_234.wav,0,peel,369,3,0.3,64.81737023,1.38496922
consent,63,1,2024-05-30T21:13:32.010Z,english_234.wav,0,peel,369,4,0.4,73.84050439,1.81820251
consent,63,1,2024-05-30T21:13:32.010Z,english_234.wav,0,peel,369,5,0.5,-23.01072055,1.61085564
consent,63,1,2024-05-30T21:13:32.010Z,english_234.wav,0,peel,369,6,0.6,-44.95387086,1.3729139
consent,63,1,2024-05-30T21:13:32.010Z,english_234.wav,0,peel,369,7,0.7,-11.63871465,1.59939785
consent,63,1,2024-05-30T21:13:32.010Z,english_234.wav,0,peel,369,8,0.8,88.55977512,0.08431317
consent,63,1,2024-05-30T21:13:32.010Z,english_234.wav,0,peel,369,9,0.9,51.63791617,1.41302364
consent,63,1,2024-05-30T21:13:32.010Z,english_234.wav,0,peel,369,10,1.0,-71.95139975,1.44509252
consent,63,1,2024-05-30T21:13:32.010Z,english_234.wav,0,peel,369,11,1.09391667,-75.67665254,0.88259776
consent,64,1,2024-05-30T21:13:32.010Z,english_6.wav,0,peel,107,0,0.0,44.864421,1.86077693
consent,64,1,2024-05-30T21:13:32.010Z,english_6.wav,0,peel,107,1,0.1,-39.26462371,1.12524403
consent,64,1,2024-05-30T21:13:32.010Z,english_6.wav,0,peel,107,2,0.2,28.2122741,1.12796265
consent,64,1,2024-05-30T21:13:32.010Z,english_6.wav,0,peel,107,3,0.3,-41.98853637,1.49970504
consent,64,1,2024-05-30T21:13:32.010Z,english_6.wav,0,peel,107,4,0.4,60.80708212,1.13312462
consent,64,1,2024-05-30T21:13:32.010Z,english_6.wav,0,peel,107,5,0.5,-87.67731195,1.89229122
consent,64,1,2024-05-30T21:13:32.010Z,english_6.wav,0,peel,107,6,0.6,16.44282049,1.4551088
consent,64,1,2024-05-30T21:13:32.010Z,english_6.wav,0,peel,107,7,0.7,-17.08970644,0.20295498
consent,64,1,2024-05-30T21:13:32.010Z,english_6.wav,0,peel,107,8,0.8,-27.18118405,0.3241588
consent,64,1,2024-05-30T21:13:32.010Z,english_6.wav,0,peel,107,9,0.9,-79.6171435,1.16747207
consent,64,1,2024-05-30T21:13:32.010Z,english_6.wav,0,peel,107,10,1.0,-16.26211535,1.56894598
consent,64,1,2024-05-30T21:13:32.010Z,english_6.wav,0,peel,107,11,1.09391667,89.36610691,0.99768517
consent,65,1,2024-05-30T21:13:32.010Z,english_711.wav,0,peel,134,0,0.0,5.56697991,1.20296493
consent,65,1,2024-05-30T21:13:32.010Z,english_711.wav,0,peel,134,1,0.1,-24.51973587,1.05892315
consent,65,1,2024-05-30T21:13:32.010Z,english_711.wav,0,peel,134,2,0.2,14.74252879,0.52339911
consent,65,1,2024-05-30T21:13:32.010Z,english_711.wav,0,peel,134,3,0.3,62.90835999,1.255633
consent,65,1,2024-05-30T21:13:32.010Z,english_711.wav,0,peel,134,4,0.4,-30.148836,1.66876465
consent,65,1,2024-05-30T21:13:32.010Z,english_711.wav,0,peel,134,5,0.5,-90.0367138,0.2337908
consent,65,1,2024-05-30T21:13:32.010Z,english_711.wav,0,peel,134,6,0.6,23.29272454,0.4494252
consent,65,1,2024-05-30T21:13:32.010Z,english_711.wav,0,peel,134,7,0.7,51.00007107,1.6594433
consent,65,1,2024-05-30T21:13:32.010Z,english_711.wav,0,peel,134,8,0.8,-5.61877019,1.49925628
consent,65,1,2024-05-30T21:13:32.010Z,english_711.wav,0,peel,134,9,0.9,4.00444287,1.73015634
consent,65,1,2024-05-30T21:13:32.010Z,english_711.wav,0,peel,134,10,1.0,81.75034051,1.46308192
consent,65,1,2024-05-30T21:13:32.010Z,english_711.wav,0,peel,134,11,1.09391667,-78.99678836,1.6603821
consent,66,1,2024-05-30T21:13:32.010Z,english_576.wav,0,peel,116,0,0.0,-58.66306645,1.71561025
consent,66,1,2024-05-30T21:13:32.010Z,english_576.wav,0,peel,116,1,0.1,-48.85456955,1.69080607
consent,66,1,2024-05-30T21:13:32.010Z,english_576.wav,0,peel,116,2,0.2,29.24978703,1.36521175
consent,66,1,2024-05-30T21:13:32.010Z,english_576.wav,0,peel,116,3,0.3,-4.57987844,0.87715483
consent,66,1,2024-05-30T21:13:32.010Z,english_576.wav,0,peel,116,4,0.4,17.09511918,0.38991217
consent,66,1,2024-05-30T21:13:32.010Z,english_576.wav,0,peel,116,5,0.5,-36.28101864,0.94074697
consent,66,1,2024-05-30T21:13:32.010Z,english_576.wav,0,peel,116,6,0.6,16.68992844,0.21735662
consent,66,1,2024-05-30T21:13:32.010Z,english_576.wav,0,peel,116,7,0.7,41.08024696,0.2928344
consent,66,1,2024-05-30T21:13:32.010Z,english_576.wav,0,peel,116,8,0.8,84.11774755,1.75349185
consent,66,1,2024-05-30T21:13:32.010Z,english_576.wav,0,peel,116,9,0.9,37.20407844,0.5790335
consent,66,1,2024-05-30T21:13:32.010Z,english_576.wav,0,peel,116,10,1.0,-6.74453613,0.77029309
consent,66,1,2024-05-30T21:13:32.010Z,english_576.wav,0,peel,116,11,1.09391667,8.90716527,0.55391499
consent,67,1,2024-05-30T21:13:32.010Z,english_968.wav,0,peel,145,0,0.0,-60.17022597,0.06507059
consent,67,1,2024-05-30T21:13:32.010Z,english_968.wav,0,peel,145,1,0.1,2.97803036,0.31588679
consent,67,1,2024-05-30T21:13:32.010Z,english_968.wav,0,peel,145,2,0.2,-20.37779246,1.0629249
consent,67,1,2024-05-30T21:13:32.010Z,english_968.wav,0,peel,145,3,0.3,82.14777176,1.23312584
consent,67,1,2024-05-30T21:13:32.010Z,english_968.wav,0,peel,145,4,0.4,-5.56087833,1.08782287
consent,67,1,2024-05-30T21:13:32.010Z,english_968.wav,0,peel,145,5,0.5,-35.42121974,1.76874616
consent,67,1,2024-05-30T21:13:32.010Z,english_968.wav,0,peel,145,6,0.6,6.34490383,1.63852156
consent,67,1,2024-05-30T21:13:32.010Z,english_968.wav,0,peel,145,7,0.7,37.90454217,0.46920885
consent,67,1,2024-05-30T21:13:32.010Z,english_968.wav,0,peel,145,8,0.8,-12.88660641,0.63401231
consent,67,1,2024-05-30T21:13:32.010Z,english_968.wav,0,peel,145,9,0.9,27.25418082,0.6661749
consent,67,1,2024-05-30T21:13:32.010Z,english_968.wav,0,peel,145,10,1.0,-65.60721299,0.97214272
consent,67,1,2024-05-30T21:13:32.010Z,english_968.wav,0,peel,145,11,1.09391667,-45.14164788,1.26320592
consent,68,1,2024-05-30T21:13:32.010Z,english_697.wav,0,peel,49,0,0.0,-28.25272972,0.74562658
consent,68,1,2024-05-30T21:13:32.010Z,english_697.wav,0,peel,49,1,0.1,9.35350144,1.65036421
consent,68,1,2024-05-30T21:13:32.010Z,english_697.wav,0,peel,49,2,0.2,-7.31902563,0.51352458
consent,68,1,2024-05-30T21:13:32.010Z,english_697.wav,0,peel,49,3,0.3,-28.05711443,1.22091514
consent,68,1,2024-05-30T21:13:32.010Z,english_697.wav,0,peel,49,4,0.4,-24.84079268,0.19652908
consent,68,1,2024-05-30T21:13:32.010Z,english_697.wav,0,peel,49,5,0.5,-11.64681016,1.30348786
consent,68,1,2024-05-30T21:13:32.010Z,english_697.wav,0,peel,49,6,0.6,-31.01161183,0.73369273
consent,68,1,2024-05-30T21:13:32.010Z,english_697.wav,0,peel,49,7,0.7,8.33198828,1.45670074
consent,68,1,2024-05-30T21:13:32.010Z,english_697.wav,0,peel,49,8,0.8,2.96881997,0.3217924
consent,68,1,2024-05-30T21:13:32.010Z,english_697.wav,0,peel,49,9,0.9,1.22757185,0.26155094
consent,68,1,2024-05-30T21:13:32.010Z,english_697.wav,0,peel,49,10,1.0,14.4901502,1.78541804
consent,68,1,2024-05-30T21:13:32.010Z,english_697.wav,0,peel,49,11,1.09391667,-93.23839425,0.76602212
consent,69,1,2024-05-30T21:13:32.010Z,english_830.wav,0,peel,735,0,0.0,-56.43859205,0.48566255
consent,69,1,2024-05-30T21:13:32.010Z,english_830.wav,0,peel,735,1,0.1,-40.42370878,1.80120887
consent,69,1,2024-05-30T21:13:32.010Z,english_830.wav,0,peel,735,2,0.2,57.12298771,0.23081218
consent,69,1,2024-05-30T21:13:32.010Z,english_830.wav,0,peel,735,3,0.3,-17.62232487,1.34466319
consent,69,1,2024-05-30T21:13:32.010Z,english_830.wav,0,peel,735,4,0.4,68.18956177,1.72981242
consent,69,1,2024-05-30T21:13:32.010Z,english_830.wav,0,peel,735,5,0.5,87.82671531,1.56597803
consent,69,1,2024-05-30T21:13:32.010Z,english_830.wav,0,peel,735,6,0.6,47.80958912,0.72011463
consent,69,1,2024-05-30T21:13:32.010Z,english_830.wav,0,peel,735,7,0.7,90.11134252,1.40332871
consent,69,1,2024-05-30T21:13:32.010Z,english_830.wav,0,peel,735,8,0.8,-73.11836968,0.88730082
consent,69,1,2024-05-30T21:13:32.010Z,english_830.wav,0,peel,735,9,0.9,76.91440669,1.45593299
consent,69,1,2024-05-30T21:13:32.010Z,english_830.wav,0,peel,735,10,1.0,0.84638196,1.11832638
consent,69,1,2024-05-30T21:13:32.010Z,english_830.wav,0,peel,735,11,1.09391667,40.94191156,1.24825364
consent,70,1,2024-05-30T21:13:32.010Z,english_536.wav,0,peel,1876,0,0.0,12.53985852,0.4318111
consent,70,1,2024-05-30T21:13:32.010Z,english_536.wav,0,peel,1876,1,0.1,21.99103782,1.06422616
consent,70,1,2024-05-30T21:13:32.010Z,english_536.wav,0,peel,1876,2,0.2,62.33634556,1.97390757
consent,70,1,2024-05-30T21:13:32.010Z,english_536.wav,0,peel,1876,3,0.3,-74.90025976,0.26817195
consent,70,1,2024-05-30T21:13:32.010Z,english_536.wav,0,peel,1876,4,0.4,32.85398174,0.16804155
consent,70,1,2024-05-30T21:13:32.010Z,english_536.wav,0,peel,1876,5,0.5,-33.4537755,0.37593725
consent,70,1,2024-05-30T21:13:32.010Z,english_536.wav,0,peel,1876,6,0.6,-42.71623429,1.32070102
consent,70,1,2024-05-30T21:13:32.010Z,english_536.wav,0,peel,1876,7,0.7,-1.00699642,0.04715572
consent,70,1,2024-05-30T21:13:32.010Z,english_536.wav,0,peel,1876,8,0.8,-25.01596186,1.04948049
consent,70,1,2024-05-30T21:13:32.010Z,english_536.wav,0,peel,1876,9,0.9,-49.31989542,0.94782972
consent,70,1,2024-05-30T21:13:32.010Z,english_536.wav,0,peel,1876,10,1.0,38.02707377,1.69951962
consent,70,1,2024-05-30T21:13:32.010Z,english_536.wav,0,peel,1876,11,1.09391667,50.96675347,1.16734118
consent,71,1,2024-05-30T21:13:32.010Z,english_10.wav,0,peel,1246,0,0.0,-15.04153425,1.52083452
consent,71,1,2024-05-30T21:13:32.010Z,english_10.wav,0,peel,1246,1,0.1,-57.22263716,1.29896522
consent,71,1,2024-05-30T21:13:32.010Z,english_10.wav,0,peel,1246,2,0.2,27.92618044,0.38561389
consent,71,1,2024-05-30T21:13:32.010Z,english_10.wav,0,peel,1246,3,0.3,25.5799778,0.99686674
consent,71,1,2024-05-30T21:13:32.010Z,english_10.wav,0,peel,1246,4,0.4,30.11064479,0.6118482
consent,71,1,2024-05-30T21:13:32.010Z,english_10.wav,0,peel,1246,5,0.5,-7.71764525,1.86037541
consent,71,1,2024-05-30T21:13:32.010Z,english_10.wav,0,peel,1246,6,0.6,27.65902171,0.71941397
consent,71,1,2024-05-30T21:13:32.010Z,english_10.wav,0,peel,1246,7,0.7,-47.57621095,1.21671158
consent,71,1,2024-05-30T21:13:32.010Z,english_10.wav,0,peel,1246,8,0.8,43.99977355,1.36149686
consent,71,1,2024-05-30T21:13:32.010Z,english_10.wav,0,peel,1246,9,0.9,-15.79441044,0.57839438
consent,71,1,2024-05-30T21:13:32.010Z,english_10.wav,0,peel,1246,10,1.0,-34.81966507,0.86495111
consent,71,1,2024-05-30T21:13:32.010Z,english_10.wav,0,peel,1246,11,1.09391667,60.77971601,0.19592518
consent,72,1,2024-05-30T21:13:32.010Z,english_596.wav,0,peel,191,0,0.0,-42.68859768,1.28071693
consent,72,1,2024-05-30T21:13:32.010Z,english_596.wav,0,peel,191,1,0.1,67.29414518,0.77411838
consent,72,1,2024-05-30T21:13:32.010Z,english_596.wav,0,peel,191,2,0.2,-56.57562289,1.32627092
consent,72,1,2024-05-30T21:13:32.010Z,english_596.wav,0,peel,191,3,0.3,71.30769152,0.49089119
consent,72,1,2024-05-30T21:13:32.010Z,english_596.wav,0,peel,191,4,0.4,95.1886681,0.72473062
consent,72,1,2024-05-30T21:13:32.010Z,english_596.wav,0,peel,191,5,0.5,72.69751936,1.52798236
consent,72,1,2024-05-30T21:13:32.010Z,english_596.wav,0,peel,191,6,0.6,62.43561612,1.79088814
consent,72,1,2024-05-30T21:13:32.010Z,english_596.wav,0,peel,191,7,0.7,-87.58634469,1.96984618
consent,72,1,2024-05-30T21:13:32.010Z,english_596.wav,0,peel,191,8,0.8,-28.77393345,1.38508216
consent,72,1,2024-05-30T21:13:32.010Z,english_596.wav,0,peel,191,9,0.9,-89.27970112,1.05217053
consent,72,1,2024-05-30T21:13:32.010Z,english_596.wav,0,peel,191,10,1.0,-11.13754725,1.15113027
consent,72,1,2024-05-30T21:13:32.010Z,english_596.wav,0,peel,191,11,1.09391667,-71.54799937,0.49767302
consent,73,1,2024-05-30T21:13:32.010Z,english_32.wav,0,peel,177,0,0.0,-30.37103026,1.56358407
consent,73,1,2024-05-30T21:13:32.010Z,english_32.wav,0,peel,177,1,0.1,48.19693032,0.66938937
consent,73,1,2024-05-30T21:13:32.010Z,english_32.wav,0,peel,177,2,0.2,60.21879648,0.62318935
consent,73,1,2024-05-30T21:13:32.010Z,english_32.wav,0,peel,177,3,0.3,-12.9108181,0.13798643
consent,73,1,2024-05-30T21:13:32.010Z,english_32.wav,0,peel,177,4,0.4,61.17128835,1.67432231
consent,73,1,2024-05-30T21:13:32.010Z,english_32.wav,0,peel,177,5,0.5,19.24517735,1.91695281
consent,73,1,2024-05-30T21:13:32.010Z,english_32.wav,0,peel,177,6,0.6,41.79476445,1.90714452
consent,73,1,2024-05-30T21:13:32.010Z,english_32.wav,0,peel,177,7,0.7,96.88218939,0.54460332
consent,73,1,2024-05-30T21:13:32.010Z,english_32.wav,0,peel,177,8,0.8,-23.72521723,0.86040489
consent,73,1,2024-05-30T21:13:32.010Z,english_32.wav,0,peel,177,9,0.9,33.3965621,1.76371179
consent,73,1,2024-05-30T21:13:32.010Z,english_32.wav,0,peel,177,10,1.0,9.85905215,1.54546749
consent,73,1,2024-05-30T21:13:32.010Z,english_32.wav,0,peel,177,11,1.09391667,-87.41832761,0.75722411
consent,74,1,2024-05-30T21:13:32.010Z,english_80.wav,0,pill,109,0,0.0,15.98753908,1.07609062
consent,74,1,2024-05-30T21:13:32.010Z,english_80.wav,0,pill,109,1,0.1,-56.19575542,0.12895948
consent,74,1,2024-05-30T21:13:32.010Z,english_80.wav,0,pill,109,2,0.2,-3.20238754,1.07538029
consent,74,1,2024-05-30T21:13:32.010Z,english_80.wav,0,pill,109,3,0.3,78.26727965,0.04332835
consent,74,1,2024-05-30T21:13:32.010Z,english_80.wav,0,pill,109,4,0.4,-34.16157501,1.09018765
consent,74,1,2024-05-30T21:13:32.010Z,english_80.wav,0,pill,109,5,0.5,-80.06220611,0.93581394
consent,74,1,2024-05-30T21:13:32.010Z,english_80.wav,0,pill,109,6,0.6,26.74823286,0.96811326
consent,74,1,2024-05-30T21:13:32.010Z,english_80.wav,0,pill,109,7,0.7,37.47089689,0.66776739
consent,74,1,2024-05-30T21:13:32.010Z,english_80.wav,0,pill,109,8,0.8,26.79850159,0.56521885
consent,74,1,2024-05-30T21:13:32.010Z,english_80.wav,0,pill,109,9,0.9,-24.50397544,1.65043275
consent,74,1,2024-05-30T21:13:32.010Z,english_80.wav,0,pill,109,10,1.0,43.76607114,1.48241079
consent,74,1,2024-05-30T21:13:32.010Z,english_80.wav,0,pill,109,11,1.09391667,10.09103426,1.57868315
consent,75,1,2024-05-30T21:13:32.010Z,english_207.wav,0,pill,94,0,0.0,-47.42878523,1.11335627
consent,75,1,2024-05-30T21:13:32.010Z,english_207.wav,0,pill,94,1,0.1,-30.16645038,1.13740889
consent,75,1,2024-05-30T21:13:32.010Z,english_207.wav,0,pill,94,2,0.2,-86.67371718,0.31622189
consent,75,1,2024-05-30T21:13:32.010Z,english_207.wav,0,pill,94,3,0.3,8.55547349,1.41776127
consent,75,1,2024-05-30T21:13:32.010Z,english_207.wav,0,pill,94,4,0.4,-15.66190927,0.46326981
consent,75,1,2024-05-30T21:13:32.010Z,english_207.wav,0,pill,94,5,0.5,-49.49878386,1.61561224
consent,75,1,2024-05-30T21:13:32.010Z,english_207.wav,0,pill,94,6,0.6,45.53550585,1.82492297
consent,75,1,2024-05-30T21:13:32.010Z,english_207.wav,0,pill,94,7,0.7,40.09709087,1.16604802
consent,75,1,2024-05-30T21:13:32.010Z,english_207.wav,0,pill,94,8,0.8,68.69768753,1.08414078
consent,75,1,2024-05-30T21:13:32.010Z,english_207.wav,0,pill,94,9,0.9,-80.58352636,0.66393703
consent,75,1,2024-05-30T21:13:32.010Z,english_207.wav,0,pill,94,10,1.0,11.66542456,0.81001911
consent,75,1,2024-05-30T21:13:32.010Z,english_207.wav,0,pill,94,11,1.09391667,21.41487197,1.28611979
consent,76,1,2024-05-30T21:13:32.010Z,english_265.wav,0,pill,452,0,0.0,37.99619851,0.51044294
consent,76,1,2024-05-30T21:13:32.010Z,english_265.wav,0,pill,452,1,0.1,92.08310578,1.10850201
consent,76,1,2024-05-30T21:13:32.010Z,english_265.wav,0,pill,452,2,0.2,-93.31608335,1.81697716
consent,76,1,2024-05-30T21:13:32.010Z,english_265.wav,0,pill,452,3,0.3,-28.1732534,0.4401458
consent,76,1,2024-05-30T21:13:32.010Z,english_265.wav,0,pill,452,4,0.4,91.25662543,1.00027347
consent,76,1,2024-05-30T21:13:32.010Z,english_265.wav,0,pill,452,5,0.5,-3.3980371,0.61680146
consent,76,1,2024-05-30T21:13:32.010Z,english_265.wav,0,pill,452,6,0.6,95.45543469,0.45035358
consent,76,1,2024-05-30T21:13:32.010Z,english_265.wav,0,pill,452,7,0.7,61.34311925,0.66686517
consent,76,1,2024-05-30T21:13:32.010Z,english_265.wav,0,pill,452,8,0.8,9.18146154,0.25031529
consent,76,1,2024-05-30T21:13:32.010Z,english_265.wav,0,pill,452,9,0.9,-39.71464373,1.2364051
consent,76,1,2024-05-30T21:13:32.010Z,english_265.wav,0,pill,452,10,1.0,67.37466109,0.23430361
consent,76,1,2024-05-30T21:13:32.010Z,english_265.wav,0,pill,452,11,1.09391667,-37.66383284,1.07797595
consent,77,1,2024-05-30T21:13:32.010Z,english_335.wav,0,pill,68,0,0.0,41.80743468,1.01381682
consent,77,1,2024-05-30T21:13:32.010Z,english_335.wav,0,pill,68,1,0.1,-95.17376615,1.5620604
consent,77,1,2024-05-30T21:13:32.010Z,english_335.wav,0,pill,68,2,0.2,39.98208272,0.19265383
consent,77,1,2024-05-30T21:13:32.010Z,english_335.wav,0,pill,68,3,0.3,-46.35703256,1.42247653
consent,77,1,2024-05-30T21:13:32.010Z,english_335.wav,0,pill,68,4,0.4,24.82145544,0.70328136
consent,77,1,2024-05-30T21:13:32.010Z,english_335.wav,0,pill,68,5,0.5,-31.00133873,1.01966488
consent,77,1,2024-05-30T21:13:32.010Z,english_335.wav,0,pill,68,6,0.6,-26.38344945,1.23451824
consent,77,1,2024-05-30T21:13:32.010Z,english_335.wav,0,pill,68,7,0.7,86.60347,0.55082158
consent,77,1,2024-05-30T21:13:32.010Z,english_335.wav,0,pill,68,8,0.8,-70.37080157,0.451758
consent,77,1,2024-05-30T21:13:32.010Z,english_335.wav,0,pill,68,9,0.9,61.18063824,0.68398752
consent,77,1,2024-05-30T21:13:32.010Z,english_335.wav,0,pill,68,10,1.0,-30.21404124,0.79476381
consent,77,1,2024-05-30T21:13:32.010Z,english_335.wav,0,pill,68,11,1.09391667,-36.90555067,1.69556673
consent,78,1,2024-05-30T21:13:32.010Z,english_266.wav,0,pill,105,0,0.0,85.08589672,0.35806768
consent,78,1,2024-05-30T21:13:32.010Z,english_266.wav,0,pill,105,1,0.1,-31.38715876,1.30312729
consent,78,1,2024-05-30T21:13:32.010Z,english_266.wav,0,pill,105,2,0.2,12.76761621,0.13135106
consent,78,1,2024-05-30T21:13:32.010Z,english_266.wav,0,pill,105,3,0.3,-84.09112809,1.10001243
consent,78,1,2024-05-30T21:13:32.010Z,english_266.wav,0,pill,105,4,0.4,-35.65738205,0.09400181
consent,78,1,2024-05-30T21:13:32.010Z,english_266.wav,0,pill,105,5,0.5,-1.3575127,1.62804367
consent,78,1,2024-05-30T21:13:32.010Z,english_266.wav,0,pill,105,6,0.6,28.50579554,0.86420495
consent,78,1,2024-05-30T21:13:32.010Z,english_266.wav,0,pill,105,7,0.7,-64.0196403,0.86051542
consent,78,1,2024-05-30T21:13:32.010Z,english_266.wav,0,pill,105,8,0.8,-12.66471897,1.59602975
consent,78,1,2024-05-30T21:13:32.010Z,english_266.wav,0,pill,105,9,0.9,33.09789324,1.84870637
consent,78,1,2024-05-30T21:13:32.010Z,english_266.wav,0,pill,105,10,1.0,96.55876506,1.74532524
consent,78,1,2024-05-30T21:13:32.010Z,english_266.wav,0,pill,105,11,1.09391667,86.66414538,1.19425471
consent,79,1,2024-05-30T21:13:32.010Z,english_341.wav,0,pill,42,0,0.0,84.90072142,0.12314254
consent,79,1,2024-05-30T21:13:32.010Z,english_341.wav,0,pill,42,1,0.1,-41.07989328,1.47173023
consent,79,1,2024-05-30T21:13:32.010Z,english_341.wav,0,pill,42,2,0.2,26.53456805,0.93931176
consent,79,1,2024-05-30T21:13:32.010Z,english_341.wav,0,pill,42,3,0.3,48.49138907,1.34001736
consent,79,1,2024-05-30T21:13:32.010Z,english_341.wav,0,pill,42,4,0.4,86.79887094,1.64463799
consent,79,1,2024-05-30T21:13:32.010Z,english_341.wav,0,pill,42,5,0.5,-87.48501221,0.04293941
consent,79,1,2024-05-30T21:13:32.010Z,english_341.wav,0,pill,42,6,0.6,83.61398115,1.19650865
consent,79,1,2024-05-30T21:13:32.010Z,english_341.wav,0,pill,42,7,0.7,-67.9208707,1.38443351
consent,79,1,2024-05-30T21:13:32.010Z,english_341.wav,0,pill,42,8,0.8,65.07099719,0.78972481
consent,79,1,2024-05-30T21:13:32.010Z,english_341.wav,0,pill,42,9,0.9,-55.2468851,0.37997082
consent,79,1,2024-05-30T21:13:32.010Z,english_341.wav,0,pill,42,10,1.0,49.35589772,1.80858647
consent,79,1,2024-05-30T21:13:32.010Z,english_341.wav,0,pill,42,11,1.09391667,-44.5684473,0.47955849
consent,80,1,2024-05-30T21:13:32.010Z,english_379.wav,0,pill,203,0,0.0,49.53215273,0.78528704
consent,80,1,2024-05-30T21:13:32.010Z,english_379.wav,0,pill,203,1,0.1,9.27522888,1.81748923
consent,80,1,2024-05-30T21:13:32.010Z,english_379.wav,0,pill,203,2,0.2,37.03122757,0.92030015
consent,80,1,2024-05-30T21:13:32.010Z,english_379.wav,0,pill,203,3,0.3,99.63155139,1.45290857
consent,80,1,2024-05-30T21:13:32.010Z,english_379.wav,0,pill,203,4,0.4,33.35011574,1.06621496
consent,80,1,2024-05-30T21:13:32.010Z,english_379.wav,0,pill,203,5,0.5,-7.70874078,1.14308429
consent,80,1,2024-05-30T21:13:32.010Z,english_379.wav,0,pill,203,6,0.6,46.33326353,0.43706451
consent,80,1,2024-05-30T21:13:32.010Z,english_379.wav,0,pill,203,7,0.7,41.12969148,0.56663738
consent,80,1,2024-05-30T21:13:32.010Z,english_379.wav,0,pill,203,8,0.8,-55.78540597,1.37256697
consent,80,1,2024-05-30T21:13:32.010Z,english_379.wav,0,pill,203,9,0.9,-84.4527127,0.4510475
consent,80,1,2024-05-30T21:13:32.010Z,english_379.wav,0,pill,203,10,1.0,13.84600332,1.31801048
consent,80,1,2024-05-30T21:13:32.010Z,english_379.wav,0,pill,203,11,1.09391667,82.55643163,0.64535043
consent,81,1,2024-05-30T21:13:32.010Z,english_926.wav,0,pill,176,0,0.0,53.49151787,0.226364497
consent,81,1,2024-05-30T21:13:32.010Z,english_926.wav,0,pill,176,1,0.1,10.58129761,0.000721176289
consent,81,1,2024-05-30T21:13:32.010Z,english_926.wav,0,pill,176,2,0.2,10.53773661,0.875811779
consent,81,1,2024-05-30T21:13:32.010Z,english_926.wav,0,pill,176,3,0.3,41.27195991,1.25055456
consent,81,1,2024-05-30T21:13:32.010Z,english_926.wav,0,pill,176,4,0.4,-17.37234578,0.546896354
consent,81,1,2024-05-30T21:13:32.010Z,english_926.wav,0,pill,176,5,0.5,66.8871695,1.08222942
consent,81,1,2024-05-30T21:13:32.010Z,english_926.wav,0,pill,176,6,0.6,69.01436048,0.838599058
consent,81,1,2024-05-30T21:13:32.010Z,english_926.wav,0,pill,176,7,0.7,89.40824761,0.626338416
consent,81,1,2024-05-30T21:13:32.010Z,english_926.wav,0,pill,176,8,0.8,-98.42632437,1.27601453
consent,81,1,2024-05-30T21:13:32.010Z,english_926.wav,0,pill,176,9,0.9,27.58055205,1.32538862
consent,81,1,2024-05-30T21:13:32.010Z,english_926.wav,0,pill,176,10,1.0,-11.99004947,1.73191108
consent,81,1,2024-05-30T21:13:32.010Z,english_926.wav,0,pill,176,11,1.09391667,15.35572308,0.629016927
consent,82,1,2024-05-30T21:13:32.010Z,english_725.wav,0,pill,269,0,0.0,-9.03644008,1.33439085
consent,82,1,2024-05-30T21:13:32.010Z,english_725.wav,0,pill,269,1,0.1,17.25768585,1.14250237
consent,82,1,2024-05-30T21:13:32.010Z,english_725.wav,0,pill,269,2,0.2,31.80596944,1.31071592
consent,82,1,2024-05-30T21:13:32.010Z,english_725.wav,0,pill,269,3,0.3,-37.53705258,0.64785465
consent,82,1,2024-05-30T21:13:32.010Z,english_725.wav,0,pill,269,4,0.4,-72.83315878,1.42686134
consent,82,1,2024-05-30T21:13:32.010Z,english_725.wav,0,pill,269,5,0.5,-86.89655244,1.9351134
consent,82,1,2024-05-30T21:13:32.010Z,english_725.wav,0,pill,269,6,0.6,-41.36643193,0.6329639
consent,82,1,2024-05-30T21:13:32.010Z,english_725.wav,0,pill,269,7,0.7,-24.29547068,1.12609379
consent,82,1,2024-05-30T21:13:32.010Z,english_725.wav,0,pill,269,8,0.8,-10.26201034,0.4317144
consent,82,1,2024-05-30T21:13:32.010Z,english_725.wav,0,pill,269,9,0.9,-84.73732243,0.11714111
consent,82,1,2024-05-30T21:13:32.010Z,english_725.wav,0,pill,269,10,1.0,29.57592595,1.51572797
consent,82,1,2024-05-30T21:13:32.010Z,english_725.wav,0,pill,269,11,1.09391667,-31.00210879,0.75437121
consent,83,1,2024-05-30T21:13:32.010Z,english_539.wav,0,pill,25,0,0.0,-94.17846062,0.79705309
consent,83,1,2024-05-30T21:13:32.010Z,english_539.wav,0,pill,25,1,0.1,-5.02019603,0.75034459
consent,83,1,2024-05-30T21:13:32.010Z,english_539.wav,0,pill,25,2,0.2,-69.32919076,1.92009714
consent,83,1,2024-05-30T21:13:32.010Z,english_539.wav,0,pill,25,3,0.3,80.71922828,1.69419261
consent,83,1,2024-05-30T21:13:32.010Z,english_539.wav,0,pill,25,4,0.4,-44.41930109,1.08134057
consent,83,1,2024-05-30T21:13:32.010Z,english_539.wav,0,pill,25,5,0.5,60.55312323,0.26247587
consent,83,1,2024-05-30T21:13:32.010Z,english_539.wav,0,pill,25,6,0.6,-22.38704472,1.40392738
consent,83,1,2024-05-30T21:13:32.010Z,english_539.wav,0,pill,25,7,0.7,42.18310052,0.38201887
consent,83,1,2024-05-30T21:13:32.010Z,english_539.wav,0,pill,25,8,0.8,-3.23406116,1.79513964
consent,83,1,2024-05-30T21:13:32.010Z,english_539.wav,0,pill,25,9,0.9,86.87834775,0.10058598
consent,83,1,2024-05-30T21:13:32.010Z,english_539.wav,0,pill,25,10,1.0,-2.56962664,1.19776684
consent,83,1,2024-05-30T21:13:32.010Z,english_539.wav,0,pill,25,11,1.09391667,13.84279534,1.72675702
consent,84,1,2024-05-30T21:13:32.010Z,english_137.wav,0,peel,169,0,0.0,-3.02796188,0.22157338
consent,84,1,2024-05-30T21:13:32.010Z,english_137.wav,0,peel,169,1,0.1,-18.39329507,1.5970131
consent,84,1,2024-05-30T21:13:32.010Z,english_137.wav,0,peel,169,2,0.2,27.99408469,0.93366249
consent,84,1,2024-05-30T21:13:32.010Z,english_137.wav,0,peel,169,3,0.3,61.38529345,1.16388988
consent,84,1,2024-05-30T21:13:32.010Z,english_137.wav,0,peel,169,4,0.4,72.06706498,1.82522819
consent,84,1,2024-05-30T21:13:32.010Z,english_137.wav,0,peel,169,5,0.5,-49.20369567,0.19075337
consent,84,1,2024-05-30T21:13:32.010Z,english_137.wav,0,peel,169,6,0.6,-60.60556526,1.29752633
consent,84,1,2024-05-30T21:13:32.010Z,english_137.wav,0,peel,169,7,0.7,4.80843339,0.8825569
consent,84,1,2024-05-30T21:13:32.010Z,english_137.wav,0,peel,169,8,0.8,-95.20794281,0.57273421
consent,84,1,2024-05-30T21:13:32.010Z,english_137.wav,0,peel,169,9,0.9,-29.95436641,1.14765765
consent,84,1,2024-05-30T21:13:32.010Z,english_137.wav,0,peel,169,10,1.0,-33.21264223,0.82478891
consent,84,1,2024-05-30T21:13:32.010Z,english_137.wav,0,peel,169,11,1.09391667,-31.67625375,1.98926818
consent,85,1,2024-05-30T21:13:32.010Z,english_398.wav,0,peel,5265,0,0.0,58.43536872,0.19891774
consent,85,1,2024-05-30T21:13:32.010Z,english_398.wav,0,peel,5265,1,0.1,-82.57908231,0.03529734
consent,85,1,2024-05-30T21:13:32.010Z,english_398.wav,0,peel,5265,2,0.2,-3.40439415,1.69592316
consent,85,1,2024-05-30T21:13:32.010Z,english_398.wav,0,peel,5265,3,0.3,-83.74176257,0.07086845
consent,85,1,2024-05-30T21:13:32.010Z,english_398.wav,0,peel,5265,4,0.4,38.89596711,0.77458748
consent,85,1,2024-05-30T21:13:32.010Z,english_398.wav,0,peel,5265,5,0.5,63.49142751,1.25980126
consent,85,1,2024-05-30T21:13:32.010Z,english_398.wav,0,peel,5265,6,0.6,64.24765223,1.54445807
consent,85,1,2024-05-30T21:13:32.010Z,english_398.wav,0,peel,5265,7,0.7,24.37031282,0.23015685
consent,85,1,2024-05-30T21:13:32.010Z,english_398.wav,0,peel,5265,8,0.8,18.2651004,0.80693823
consent,85,1,2024-05-30T21:13:32.010Z,english_398.wav,0,peel,5265,9,0.9,-3.768449,0.61010049
consent,85,1,2024-05-30T21:13:32.010Z,english_398.wav,0,peel,5265,10,1.0,55.48069175,0.09811637
consent,85,1,2024-05-30T21:13:32.010Z,english_398.wav,0,peel,5265,11,1.09391667,-2.34176887,1.22967895
consent,86,1,2024-05-30T21:13:32.010Z,english_195.wav,0,peel,9717,0,0.0,-84.31811629,1.00245815
consent,86,1,2024-05-30T21:13:32.010Z,english_195.wav,0,peel,9717,1,0.1,-40.4937686,0.37362225
consent,86,1,2024-05-30T21:13:32.010Z,english_195.wav,0,peel,9717,2,0.2,43.37920818,1.2771314
consent,86,1,2024-05-30T21:13:32.010Z,english_195.wav,0,peel,9717,3,0.3,89.86748729,0.32946516
consent,86,1,2024-05-30T21:13:32.010Z,english_195.wav,0,peel,9717,4,0.4,24.49320863,1.39441943
consent,86,1,2024-05-30T21:13:32.010Z,english_195.wav,0,peel,9717,5,0.5,-46.40835892,1.30540336
consent,86,1,2024-05-30T21:13:32.010Z,english_195.wav,0,peel,9717,6,0.6,35.9505397,0.00236394
consent,86,1,2024-05-30T21:13:32.010Z,english_195.wav,0,peel,9717,7,0.7,62.43082011,1.39191992
consent,86,1,2024-05-30T21:13:32.010Z,english_195.wav,0,peel,9717,8,0.8,85.56276985,0.22399256
consent,86,1,2024-05-30T21:13:32.010Z,english_195.wav,0,peel,9717,9,0.9,52.49119502,0.98445346
consent,86,1,2024-05-30T21:13:32.010Z,english_195.wav,0,peel,9717,10,1.0,-55.346187,1.43930771
consent,86,1,2024-05-30T21:13:32.010Z,english_195.wav,0,peel,9717,11,1.09391667,-71.70758722,1.96006647
consent,87,1,2024-05-30T21:13:32.010Z,english_147.wav,0,pill,88,0,0.0,13.5835913,1.55424913
consent,87,1,2024-05-30T21:13:32.010Z,english_147.wav,0,pill,88,1,0.1,-12.78269311,1.36751472
consent,87,1,2024-05-30T21:13:32.010Z,english_147.wav,0,pill,88,2,0.2,-68.15160011,0.0989476
consent,87,1,2024-05-30T21:13:32.010Z,english_147.wav,0,pill,88,3,0.3,-22.06196162,1.09942606
consent,87,1,2024-05-30T21:13:32.010Z,english_147.wav,0,pill,88,4,0.4,-52.80599893,0.66767386
consent,87,1,2024-05-30T21:13:32.010Z,english_147.wav,0,pill,88,5,0.5,-19.06204323,1.22234283
consent,87,1,2024-05-30T21:13:32.010Z,english_147.wav,0,pill,88,6,0.6,99.53651939,1.18173491
consent,87,1,2024-05-30T21:13:32.010Z,english_147.wav,0,pill,88,7,0.7,-28.8369824,1.33756281
consent,87,1,2024-05-30T21:13:32.010Z,english_147.wav,0,pill,88,8,0.8,74.70483883,0.81214456
consent,87,1,2024-05-30T21:13:32.010Z,english_147.wav,0,pill,88,9,0.9,42.275031,0.37062199
consent,87,1,2024-05-30T21:13:32.010Z,english_147.wav,0,pill,88,10,1.0,-85.9360484,1.6700327
consent,87,1,2024-05-30T21:13:32.010Z,english_147.wav,0,pill,88,11,1.09391667,70.70596031,1.62026459
consent,88,1,2024-05-30T21:13:32.010Z,english_350.wav,0,pill,55,0,0.0,-49.74850435,0.22554434
consent,88,1,2024-05-30T21:13:32.010Z,english_350.wav,0,pill,55,1,0.1,68.30317627,1.05889666
