subj,trial,block,date,stim,stim_order,response,rt,age,english,language,sex,param_index,segment,pitch,stretch
KES,0,0,2024-07-18T12:13:33.647Z,english_212.wav,0,pill,7623,19,2,Japanese,m,0,0.0,7.28178662,1.69718484
KES,0,0,2024-07-18T12:13:33.647Z,english_212.wav,0,pill,7623,19,2,Japanese,m,1,0.1,53.30309055,0.86840916
KES,0,0,2024-07-18T12:13:33.647Z,english_212.wav,0,pill,7623,19,2,Japanese,m,2,0.2,9.81131056,0.62741544
KES,0,0,2024-07-18T12:13:33.647Z,english_212.wav,0,pill,7623,19,2,Japanese,m,3,0.3,-90.32961485,1.93796864
KES,0,0,2024-07-18T12:13:33.647Z,english_212.wav,0,pill,7623,19,2,Japanese,m,4,0.4,16.20847807,1.96151684
KES,0,0,2024-07-18T12:13:33.647Z,english_212.wav,0,pill,7623,19,2,Japanese,m,5,0.5,-12.76815096,0.98998478
KES,0,0,2024-07-18T12:13:33.647Z,english_212.wav,0,pill,7623,19,2,Japanese,m,6,0.6,93.86097069,1.74396039
KES,0,0,2024-07-18T12:13:33.647Z,english_212.wav,0,pill,7623,19,2,Japanese,m,7,0.7,39.57297318,1.59359998
KES,0,0,2024-07-18T12:13:33.647Z,english_212.wav,0,pill,7623,19,2,Japanese,m,8,0.8,-19.22688735,1.3284153
KES,0,0,2024-07-18T12:13:33.647Z,english_212.wav,0,pill,7623,19,2,Japanese,m,9,0.9,-71.99383643,1.90824048
KES,0,0,2024-07-18T12:13:33.647Z,english_212.wav,0,pill,7623,19,2,Japanese,m,10,1.0,5.42324024,1.38687745
KES,0,0,2024-07-18T12:13:33.647Z,english_212.wav,0,pill,7623,19,2,Japanese,m,11,1.09391667,-66.1565739,0.48487656
KES,1,0,2024-07-18T12:13:33.647Z,english_653.wav,0,peel,7657,19,2,Japanese,m,0,0.0,41.8259341,0.17533452
KES,1,0,2024-07-18T12:13:33.647Z,english_653.wav,0,peel,7657,19,2,Japanese,m,1,0.1,17.38671322,1.08757539
KES,1,0,2024-07-18T12:13:33.647Z,english_653.wav,0,peel,7657,19,2,Japanese,m,2,0.2,86.12532741,1.96334993
KES,1,0,2024-07-18T12:13:33.647Z,english_653.wav,0,peel,7657,19,2,Japanese,m,3,0.3,-33.72650973,1.47062591
KES,1,0,2024-07-18T12:13:33.647Z,english_653.wav,0,peel,7657,19,2,Japanese,m,4,0.4,-40.64508362,1.06368379
KES,1,0,2024-07-18T12:13:33.647Z,english_653.wav,0,peel,7657,19,2,Japanese,m,5,0.5,29.34700904,1.07766545
KES,1,0,2024-07-18T12:13:33.647Z,english_653.wav,0,peel,7657,19,2,Japanese,m,6,0.6,-10.62645481,1.32143854
KES,1,0,2024-07-18T12:13:33.647Z,english_653.wav,0,peel,7657,19,2,Japanese,m,7,0.7,-39.23364733,0.74682372
KES,1,0,2024-07-18T12:13:33.647Z,english_653.wav,0,peel,7657,19,2,Japanese,m,8,0.8,1.23936202,0.56607345
KES,1,0,2024-07-18T12:13:33.647Z,english_653.wav,0,peel,7657,19,2,Japanese,m,9,0.9,54.61023708,0.97558446
KES,1,0,2024-07-18T12:13:33.647Z,english_653.wav,0,peel,7657,19,2,Japanese,m,10,1.0,68.93146106,0.53847025
KES,1,0,2024-07-18T12:13:33.647Z,english_653.wav,0,peel,7657,19,2,Japanese,m,11,1.09391667,98.0100566,0.14439152
KES,2,0,2024-07-18T12:13:33.647Z,english_694.wav,0,peel,2164,19,2,Japanese,m,0,0.0,28.89643962,0.23097519
KES,2,0,2024-07-18T12:13:33.647Z,english_694.wav,0,peel,2164,19,2,Japanese,m,1,0.1,-44.49941165,1.12594213
KES,2,0,2024-07-18T12:13:33.647Z,english_694.wav,0,peel,2164,19,2,Japanese,m,2,0.2,60.6754056,1.01502789
KES,2,0,2024-07-18T12:13:33.647Z,english_694.wav,0,peel,2164,19,2,Japanese,m,3,0.3,72.66869222,0.55545347
KES,2,0,2024-07-18T12:13:33.647Z,english_694.wav,0,peel,2164,19,2,Japanese,m,4,0.4,26.91102981,0.313515
KES,2,0,2024-07-18T12:13:33.647Z,english_694.wav,0,peel,2164,19,2,Japanese,m,5,0.5,-19.36398165,0.8133174
KES,2,0,2024-07-18T12:13:33.647Z,english_694.wav,0,peel,2164,19,2,Japanese,m,6,0.6,83.61982614,0.08479119
KES,2,0,2024-07-18T12:13:33.647Z,english_694.wav,0,peel,2164,19,2,Japanese,m,7,0.7,-93.83830037,1.36590055
KES,2,0,2024-07-18T12:13:33.647Z,english_694.wav,0,peel,2164,19,2,Japanese,m,8,0.8,-41.75440855,1.50882856
KES,2,0,2024-07-18T12:13:33.647Z,english_694.wav,0,peel,2164,19,2,Japanese,m,9,0.9,-17.17525064,1.54263899
KES,2,0,2024-07-18T12:13:33.647Z,english_694.wav,0,peel,2164,19,2,Japanese,m,10,1.0,5.88397372,1.28663395
KES,2,0,2024-07-18T12:13:33.647Z,english_694.wav,0,peel,2164,19,2,Japanese,m,11,1.09391667,84.29938157,0.05122723
KES,3,0,2024-07-18T12:13:33.647Z,english_15.wav,0,pill,4510,19,2,Japanese,m,0,0.0,62.7654015,0.64461989
KES,3,0,2024-07-18T12:13:33.647Z,english_15.wav,0,pill,4510,19,2,Japanese,m,1,0.1,72.90081021,0.87486851
KES,3,0,2024-07-18T12:13:33.647Z,english_15.wav,0,pill,4510,19,2,Japanese,m,2,0.2,-27.13813981,0.76068215
KES,3,0,2024-07-18T12:13:33.647Z,english_15.wav,0,pill,4510,19,2,Japanese,m,3,0.3,46.15025154,1.07697628
KES,3,0,2024-07-18T12:13:33.647Z,english_15.wav,0,pill,4510,19,2,Japanese,m,4,0.4,82.82691944,1.41242613
KES,3,0,2024-07-18T12:13:33.647Z,english_15.wav,0,pill,4510,19,2,Japanese,m,5,0.5,-11.77094526,0.34527471
KES,3,0,2024-07-18T12:13:33.647Z,english_15.wav,0,pill,4510,19,2,Japanese,m,6,0.6,7.10565833,1.49976623
KES,3,0,2024-07-18T12:13:33.647Z,english_15.wav,0,pill,4510,19,2,Japanese,m,7,0.7,95.94707331,0.60499577
KES,3,0,2024-07-18T12:13:33.647Z,english_15.wav,0,pill,4510,19,2,Japanese,m,8,0.8,45.63799677,1.54166411
KES,3,0,2024-07-18T12:13:33.647Z,english_15.wav,0,pill,4510,19,2,Japanese,m,9,0.9,-92.00814549,0.43181907
KES,3,0,2024-07-18T12:13:33.647Z,english_15.wav,0,pill,4510,19,2,Japanese,m,10,1.0,63.89035204,1.01946416
KES,3,0,2024-07-18T12:13:33.647Z,english_15.wav,0,pill,4510,19,2,Japanese,m,11,1.09391667,2.5390803,1.42183406
KES,4,0,2024-07-18T12:13:33.647Z,english_861.wav,0,peel,991,19,2,Japanese,m,0,0.0,25.4501387,1.11165111
KES,4,0,2024-07-18T12:13:33.647Z,english_861.wav,0,peel,991,19,2,Japanese,m,1,0.1,63.77188621,1.38930356
KES,4,0,2024-07-18T12:13:33.647Z,english_861.wav,0,peel,991,19,2,Japanese,m,2,0.2,8.16107914,0.85763188
KES,4,0,2024-07-18T12:13:33.647Z,english_861.wav,0,peel,991,19,2,Japanese,m,3,0.3,41.89997673,0.26479285
KES,4,0,2024-07-18T12:13:33.647Z,english_861.wav,0,peel,991,19,2,Japanese,m,4,0.4,-63.53893236,0.36121213
KES,4,0,2024-07-18T12:13:33.647Z,english_861.wav,0,peel,991,19,2,Japanese,m,5,0.5,57.74914229,1.75452306
KES,4,0,2024-07-18T12:13:33.647Z,english_861.wav,0,peel,991,19,2,Japanese,m,6,0.6,-60.14311181,1.62162149
KES,4,0,2024-07-18T12:13:33.647Z,english_861.wav,0,peel,991,19,2,Japanese,m,7,0.7,3.67795544,0.63165878
KES,4,0,2024-07-18T12:13:33.647Z,english_861.wav,0,peel,991,19,2,Japanese,m,8,0.8,-80.01439722,0.85751028
KES,4,0,2024-07-18T12:13:33.647Z,english_861.wav,0,peel,991,19,2,Japanese,m,9,0.9,-37.7550596,1.51613867
KES,4,0,2024-07-18T12:13:33.647Z,english_861.wav,0,peel,991,19,2,Japanese,m,10,1.0,-13.58281726,1.37338535
KES,4,0,2024-07-18T12:13:33.647Z,english_861.wav,0,peel,991,19,2,Japanese,m,11,1.09391667,59.5288882,0.25913333
KES,5,0,2024-07-18T12:13:33.647Z,english_158.wav,0,peel,1675,19,2,Japanese,m,0,0.0,41.17268037,0.12012262
KES,5,0,2024-07-18T12:13:33.647Z,english_158.wav,0,peel,1675,19,2,Japanese,m,1,0.1,39.43055099,1.02753784
KES,5,0,2024-07-18T12:13:33.647Z,english_158.wav,0,peel,1675,19,2,Japanese,m,2,0.2,18.17307199,1.36643436
KES,5,0,2024-07-18T12:13:33.647Z,english_158.wav,0,peel,1675,19,2,Japanese,m,3,0.3,2.1288608,1.78617089
KES,5,0,2024-07-18T12:13:33.647Z,english_158.wav,0,peel,1675,19,2,Japanese,m,4,0.4,14.16848378,0.39713516
KES,5,0,2024-07-18T12:13:33.647Z,english_158.wav,0,peel,1675,19,2,Japanese,m,5,0.5,-31.43837624,1.5313636
KES,5,0,2024-07-18T12:13:33.647Z,english_158.wav,0,peel,1675,19,2,Japanese,m,6,0.6,46.37345031,1.20655285
KES,5,0,2024-07-18T12:13:33.647Z,english_158.wav,0,peel,1675,19,2,Japanese,m,7,0.7,58.75582509,0.16880901
KES,5,0,2024-07-18T12:13:33.647Z,english_158.wav,0,peel,1675,19,2,Japanese,m,8,0.8,23.78862253,0.30409425
KES,5,0,2024-07-18T12:13:33.647Z,english_158.wav,0,peel,1675,19,2,Japanese,m,9,0.9,-4.2911947,1.28329421
KES,5,0,2024-07-18T12:13:33.647Z,english_158.wav,0,peel,1675,19,2,Japanese,m,10,1.0,-43.40891041,0.17704904
KES,5,0,2024-07-18T12:13:33.647Z,english_158.wav,0,peel,1675,19,2,Japanese,m,11,1.09391667,16.25522825,0.66899263
KES,6,0,2024-07-18T12:13:33.647Z,english_216.wav,0,peel,2257,19,2,Japanese,m,0,0.0,-40.27379603,1.31885312
KES,6,0,2024-07-18T12:13:33.647Z,english_216.wav,0,peel,2257,19,2,Japanese,m,1,0.1,-9.47472605,1.52413536
KES,6,0,2024-07-18T12:13:33.647Z,english_216.wav,0,peel,2257,19,2,Japanese,m,2,0.2,10.83044308,0.3375517
KES,6,0,2024-07-18T12:13:33.647Z,english_216.wav,0,peel,2257,19,2,Japanese,m,3,0.3,-73.80571365,0.67857864
KES,6,0,2024-07-18T12:13:33.647Z,english_216.wav,0,peel,2257,19,2,Japanese,m,4,0.4,41.89217051,0.9344087
KES,6,0,2024-07-18T12:13:33.647Z,english_216.wav,0,peel,2257,19,2,Japanese,m,5,0.5,-33.36366466,0.89775046
KES,6,0,2024-07-18T12:13:33.647Z,english_216.wav,0,peel,2257,19,2,Japanese,m,6,0.6,-97.24072999,0.74652634
KES,6,0,2024-07-18T12:13:33.647Z,english_216.wav,0,peel,2257,19,2,Japanese,m,7,0.7,-3.36916359,0.00621512
KES,6,0,2024-07-18T12:13:33.647Z,english_216.wav,0,peel,2257,19,2,Japanese,m,8,0.8,-1.27566838,0.72729094
KES,6,0,2024-07-18T12:13:33.647Z,english_216.wav,0,peel,2257,19,2,Japanese,m,9,0.9,29.4346129,1.23180128
KES,6,0,2024-07-18T12:13:33.647Z,english_216.wav,0,peel,2257,19,2,Japanese,m,10,1.0,96.31719875,0.44193416
KES,6,0,2024-07-18T12:13:33.647Z,english_216.wav,0,peel,2257,19,2,Japanese,m,11,1.09391667,90.69441865,0.08230135
KES,7,0,2024-07-18T12:13:33.647Z,english_635.wav,0,pill,1889,19,2,Japanese,m,0,0.0,-41.6388758,1.40170403
KES,7,0,2024-07-18T12:13:33.647Z,english_635.wav,0,pill,1889,19,2,Japanese,m,1,0.1,-11.25355895,0.13720713
KES,7,0,2024-07-18T12:13:33.647Z,english_635.wav,0,pill,1889,19,2,Japanese,m,2,0.2,29.06457521,0.8768091
KES,7,0,2024-07-18T12:13:33.647Z,english_635.wav,0,pill,1889,19,2,Japanese,m,3,0.3,33.43535693,0.4792802
KES,7,0,2024-07-18T12:13:33.647Z,english_635.wav,0,pill,1889,19,2,Japanese,m,4,0.4,-80.91767575,1.34026296
KES,7,0,2024-07-18T12:13:33.647Z,english_635.wav,0,pill,1889,19,2,Japanese,m,5,0.5,27.23293816,0.71042457
KES,7,0,2024-07-18T12:13:33.647Z,english_635.wav,0,pill,1889,19,2,Japanese,m,6,0.6,37.31603404,1.12917353
KES,7,0,2024-07-18T12:13:33.647Z,english_635.wav,0,pill,1889,19,2,Japanese,m,7,0.7,-20.25902841,1.54130177
KES,7,0,2024-07-18T12:13:33.647Z,english_635.wav,0,pill,1889,19,2,Japanese,m,8,0.8,91.76121844,1.57938519
KES,7,0,2024-07-18T12:13:33.647Z,english_635.wav,0,pill,1889,19,2,Japanese,m,9,0.9,18.10072646,1.51480287
KES,7,0,2024-07-18T12:13:33.647Z,english_635.wav,0,pill,1889,19,2,Japanese,m,10,1.0,-34.91216452,1.85110037
KES,7,0,2024-07-18T12:13:33.647Z,english_635.wav,0,pill,1889,19,2,Japanese,m,11,1.09391667,73.01340773,0.29889363
KES,8,0,2024-07-18T12:13:33.647Z,english_178.wav,0,peel,3891,19,2,Japanese,m,0,0.0,5.42478923,1.01011156
KES,8,0,2024-07-18T12:13:33.647Z,english_178.wav,0,peel,3891,19,2,Japanese,m,1,0.1,66.71711881,1.60637441
KES,8,0,2024-07-18T12:13:33.647Z,english_178.wav,0,peel,3891,19,2,Japanese,m,2,0.2,25.13944125,0.85795496
KES,8,0,2024-07-18T12:13:33.647Z,english_178.wav,0,peel,3891,19,2,Japanese,m,3,0.3,95.56005782,1.35214977
KES,8,0,2024-07-18T12:13:33.647Z,english_178.wav,0,peel,3891,19,2,Japanese,m,4,0.4,16.85207382,0.61247399
KES,8,0,2024-07-18T12:13:33.647Z,english_178.wav,0,peel,3891,19,2,Japanese,m,5,0.5,-27.28270002,1.45555962
KES,8,0,2024-07-18T12:13:33.647Z,english_178.wav,0,peel,3891,19,2,Japanese,m,6,0.6,86.24132907,0.34817024
KES,8,0,2024-07-18T12:13:33.647Z,english_178.wav,0,peel,3891,19,2,Japanese,m,7,0.7,-67.08119727,0.78995697
KES,8,0,2024-07-18T12:13:33.647Z,english_178.wav,0,peel,3891,19,2,Japanese,m,8,0.8,-0.81610081,1.09427424
KES,8,0,2024-07-18T12:13:33.647Z,english_178.wav,0,peel,3891,19,2,Japanese,m,9,0.9,-32.08256077,1.32224293
KES,8,0,2024-07-18T12:13:33.647Z,english_178.wav,0,peel,3891,19,2,Japanese,m,10,1.0,33.26765995,1.53013904
KES,8,0,2024-07-18T12:13:33.647Z,english_178.wav,0,peel,3891,19,2,Japanese,m,11,1.09391667,50.15163679,1.40313699
KES,9,0,2024-07-18T12:13:33.647Z,english_60.wav,0,peel,3316,19,2,Japanese,m,0,0.0,10.59186776,1.18276714
KES,9,0,2024-07-18T12:13:33.647Z,english_60.wav,0,peel,3316,19,2,Japanese,m,1,0.1,40.50364305,1.35618457
KES,9,0,2024-07-18T12:13:33.647Z,english_60.wav,0,peel,3316,19,2,Japanese,m,2,0.2,-14.0687602,0.82779989
KES,9,0,2024-07-18T12:13:33.647Z,english_60.wav,0,peel,3316,19,2,Japanese,m,3,0.3,-65.99656217,0.57077879
KES,9,0,2024-07-18T12:13:33.647Z,english_60.wav,0,peel,3316,19,2,Japanese,m,4,0.4,15.70320652,0.07108592
KES,9,0,2024-07-18T12:13:33.647Z,english_60.wav,0,peel,3316,19,2,Japanese,m,5,0.5,-30.42091681,0.69784791
KES,9,0,2024-07-18T12:13:33.647Z,english_60.wav,0,peel,3316,19,2,Japanese,m,6,0.6,-42.76109802,1.83211062
KES,9,0,2024-07-18T12:13:33.647Z,english_60.wav,0,peel,3316,19,2,Japanese,m,7,0.7,79.72211157,1.14011333
KES,9,0,2024-07-18T12:13:33.647Z,english_60.wav,0,peel,3316,19,2,Japanese,m,8,0.8,-76.06160398,1.5550445
KES,9,0,2024-07-18T12:13:33.647Z,english_60.wav,0,peel,3316,19,2,Japanese,m,9,0.9,-29.21518782,0.72383993
KES,9,0,2024-07-18T12:13:33.647Z,english_60.wav,0,peel,3316,19,2,Japanese,m,10,1.0,-57.95886313,1.31578319
KES,9,0,2024-07-18T12:13:33.647Z,english_60.wav,0,peel,3316,19,2,Japanese,m,11,1.09391667,-5.07129897,0.46327009
KES,10,0,2024-07-18T12:13:33.647Z,english_922.wav,0,peel,1265,19,2,Japanese,m,0,0.0,61.1700044,0.77397562
KES,10,0,2024-07-18T12:13:33.647Z,english_922.wav,0,peel,1265,19,2,Japanese,m,1,0.1,82.06984085,1.14937293
KES,10,0,2024-07-18T12:13:33.647Z,english_922.wav,0,peel,1265,19,2,Japanese,m,2,0.2,-92.27579322,1.03435185
KES,10,0,2024-07-18T12:13:33.647Z,english_922.wav,0,peel,1265,19,2,Japanese,m,3,0.3,89.90024406,0.69514863
KES,10,0,2024-07-18T12:13:33.647Z,english_922.wav,0,peel,1265,19,2,Japanese,m,4,0.4,36.91510644,0.29090795
KES,10,0,2024-07-18T12:13:33.647Z,english_922.wav,0,peel,1265,19,2,Japanese,m,5,0.5,-58.72846655,0.08046627
KES,10,0,2024-07-18T12:13:33.647Z,english_922.wav,0,peel,1265,19,2,Japanese,m,6,0.6,85.21548547,0.39343329
KES,10,0,2024-07-18T12:13:33.647Z,english_922.wav,0,peel,1265,19,2,Japanese,m,7,0.7,32.72450866,0.50557621
KES,10,0,2024-07-18T12:13:33.647Z,english_922.wav,0,peel,1265,19,2,Japanese,m,8,0.8,50.92998004,1.28859728
KES,10,0,2024-07-18T12:13:33.647Z,english_922.wav,0,peel,1265,19,2,Japanese,m,9,0.9,-26.56973856,0.44286158
KES,10,0,2024-07-18T12:13:33.647Z,english_922.wav,0,peel,1265,19,2,Japanese,m,10,1.0,-43.37360145,1.43016745
KES,10,0,2024-07-18T12:13:33.647Z,english_922.wav,0,peel,1265,19,2,Japanese,m,11,1.09391667,-17.2071356,1.42163313
KES,11,0,2024-07-18T12:13:33.647Z,english_147.wav,0,pill,1042,19,2,Japanese,m,0,0.0,13.5835913,1.55424913
KES,11,0,2024-07-18T12:13:33.647Z,english_147.wav,0,pill,1042,19,2,Japanese,m,1,0.1,-12.78269311,1.36751472
KES,11,0,2024-07-18T12:13:33.647Z,english_147.wav,0,pill,1042,19,2,Japanese,m,2,0.2,-68.15160011,0.0989476
KES,11,0,2024-07-18T12:13:33.647Z,english_147.wav,0,pill,1042,19,2,Japanese,m,3,0.3,-22.06196162,1.09942606
KES,11,0,2024-07-18T12:13:33.647Z,english_147.wav,0,pill,1042,19,2,Japanese,m,4,0.4,-52.80599893,0.66767386
KES,11,0,2024-07-18T12:13:33.647Z,english_147.wav,0,pill,1042,19,2,Japanese,m,5,0.5,-19.06204323,1.22234283
KES,11,0,2024-07-18T12:13:33.647Z,english_147.wav,0,pill,1042,19,2,Japanese,m,6,0.6,99.53651939,1.18173491
KES,11,0,2024-07-18T12:13:33.647Z,english_147.wav,0,pill,1042,19,2,Japanese,m,7,0.7,-28.8369824,1.33756281
KES,11,0,2024-07-18T12:13:33.647Z,english_147.wav,0,pill,1042,19,2,Japanese,m,8,0.8,74.70483883,0.81214456
KES,11,0,2024-07-18T12:13:33.647Z,english_147.wav,0,pill,1042,19,2,Japanese,m,9,0.9,42.275031,0.37062199
KES,11,0,2024-07-18T12:13:33.647Z,english_147.wav,0,pill,1042,19,2,Japanese,m,10,1.0,-85.9360484,1.6700327
KES,11,0,2024-07-18T12:13:33.647Z,english_147.wav,0,pill,1042,19,2,Japanese,m,11,1.09391667,70.70596031,1.62026459
KES,12,0,2024-07-18T12:13:33.647Z,english_752.wav,0,pill,2775,19,2,Japanese,m,0,0.0,52.61686216,1.6341758
KES,12,0,2024-07-18T12:13:33.647Z,english_752.wav,0,pill,2775,19,2,Japanese,m,1,0.1,-18.45204241,0.5397069
KES,12,0,2024-07-18T12:13:33.647Z,english_752.wav,0,pill,2775,19,2,Japanese,m,2,0.2,-6.44553856,1.4905668
KES,12,0,2024-07-18T12:13:33.647Z,english_752.wav,0,pill,2775,19,2,Japanese,m,3,0.3,54.48685686,0.49055919
KES,12,0,2024-07-18T12:13:33.647Z,english_752.wav,0,pill,2775,19,2,Japanese,m,4,0.4,-14.12902415,1.50348136
KES,12,0,2024-07-18T12:13:33.647Z,english_752.wav,0,pill,2775,19,2,Japanese,m,5,0.5,-68.0514313,0.53453917
KES,12,0,2024-07-18T12:13:33.647Z,english_752.wav,0,pill,2775,19,2,Japanese,m,6,0.6,-35.48747748,1.00064578
KES,12,0,2024-07-18T12:13:33.647Z,english_752.wav,0,pill,2775,19,2,Japanese,m,7,0.7,-40.39140323,0.9078798
KES,12,0,2024-07-18T12:13:33.647Z,english_752.wav,0,pill,2775,19,2,Japanese,m,8,0.8,-44.26325446,1.8374475
KES,12,0,2024-07-18T12:13:33.647Z,english_752.wav,0,pill,2775,19,2,Japanese,m,9,0.9,18.34874791,0.61675218
KES,12,0,2024-07-18T12:13:33.647Z,english_752.wav,0,pill,2775,19,2,Japanese,m,10,1.0,-42.03859304,0.24596276
KES,12,0,2024-07-18T12:13:33.647Z,english_752.wav,0,pill,2775,19,2,Japanese,m,11,1.09391667,68.7756392,0.85105991
KES,13,0,2024-07-18T12:13:33.647Z,english_500.wav,0,pill,2792,19,2,Japanese,m,0,0.0,66.22088329,0.53820699
KES,13,0,2024-07-18T12:13:33.647Z,english_500.wav,0,pill,2792,19,2,Japanese,m,1,0.1,-5.13412803,0.50417448
KES,13,0,2024-07-18T12:13:33.647Z,english_500.wav,0,pill,2792,19,2,Japanese,m,2,0.2,-6.11874153,1.24224985
KES,13,0,2024-07-18T12:13:33.647Z,english_500.wav,0,pill,2792,19,2,Japanese,m,3,0.3,-90.40360626,1.39300909
KES,13,0,2024-07-18T12:13:33.647Z,english_500.wav,0,pill,2792,19,2,Japanese,m,4,0.4,32.06545372,1.26037646
KES,13,0,2024-07-18T12:13:33.647Z,english_500.wav,0,pill,2792,19,2,Japanese,m,5,0.5,-65.0306572,1.07818355
KES,13,0,2024-07-18T12:13:33.647Z,english_500.wav,0,pill,2792,19,2,Japanese,m,6,0.6,-6.23225895,1.23543803
KES,13,0,2024-07-18T12:13:33.647Z,english_500.wav,0,pill,2792,19,2,Japanese,m,7,0.7,-23.5823243,1.80782898
KES,13,0,2024-07-18T12:13:33.647Z,english_500.wav,0,pill,2792,19,2,Japanese,m,8,0.8,77.81337781,0.94957733
KES,13,0,2024-07-18T12:13:33.647Z,english_500.wav,0,pill,2792,19,2,Japanese,m,9,0.9,-20.41987669,0.60641079
KES,13,0,2024-07-18T12:13:33.647Z,english_500.wav,0,pill,2792,19,2,Japanese,m,10,1.0,21.49612229,1.83181528
KES,13,0,2024-07-18T12:13:33.647Z,english_500.wav,0,pill,2792,19,2,Japanese,m,11,1.09391667,9.32174873,0.67500242
KES,14,0,2024-07-18T12:13:33.647Z,english_180.wav,0,peel,4093,19,2,Japanese,m,0,0.0,42.85478744,0.49645543
KES,14,0,2024-07-18T12:13:33.647Z,english_180.wav,0,peel,4093,19,2,Japanese,m,1,0.1,11.60642133,1.40377655
KES,14,0,2024-07-18T12:13:33.647Z,english_180.wav,0,peel,4093,19,2,Japanese,m,2,0.2,-27.38772625,0.70453688
KES,14,0,2024-07-18T12:13:33.647Z,english_180.wav,0,peel,4093,19,2,Japanese,m,3,0.3,80.41560742,1.01697082
KES,14,0,2024-07-18T12:13:33.647Z,english_180.wav,0,peel,4093,19,2,Japanese,m,4,0.4,-67.11843031,0.59692665
KES,14,0,2024-07-18T12:13:33.647Z,english_180.wav,0,peel,4093,19,2,Japanese,m,5,0.5,25.47679572,0.43242047
KES,14,0,2024-07-18T12:13:33.647Z,english_180.wav,0,peel,4093,19,2,Japanese,m,6,0.6,29.48556379,0.65503898
KES,14,0,2024-07-18T12:13:33.647Z,english_180.wav,0,peel,4093,19,2,Japanese,m,7,0.7,-62.53851543,1.14916488
KES,14,0,2024-07-18T12:13:33.647Z,english_180.wav,0,peel,4093,19,2,Japanese,m,8,0.8,-49.48041885,0.12826618
KES,14,0,2024-07-18T12:13:33.647Z,english_180.wav,0,peel,4093,19,2,Japanese,m,9,0.9,29.80835172,1.82068044
KES,14,0,2024-07-18T12:13:33.647Z,english_180.wav,0,peel,4093,19,2,Japanese,m,10,1.0,83.85336689,1.93281092
KES,14,0,2024-07-18T12:13:33.647Z,english_180.wav,0,peel,4093,19,2,Japanese,m,11,1.09391667,-22.17498974,1.38105191
KES,15,0,2024-07-18T12:13:33.647Z,english_218.wav,0,peel,1470,19,2,Japanese,m,0,0.0,-28.20463256,0.06975638
KES,15,0,2024-07-18T12:13:33.647Z,english_218.wav,0,peel,1470,19,2,Japanese,m,1,0.1,-75.86656262,1.24902799
KES,15,0,2024-07-18T12:13:33.647Z,english_218.wav,0,peel,1470,19,2,Japanese,m,2,0.2,78.51568347,0.38757705
KES,15,0,2024-07-18T12:13:33.647Z,english_218.wav,0,peel,1470,19,2,Japanese,m,3,0.3,-67.19866651,1.18680549
KES,15,0,2024-07-18T12:13:33.647Z,english_218.wav,0,peel,1470,19,2,Japanese,m,4,0.4,-11.47483433,1.20454768
KES,15,0,2024-07-18T12:13:33.647Z,english_218.wav,0,peel,1470,19,2,Japanese,m,5,0.5,-96.34493339,0.70131962
KES,15,0,2024-07-18T12:13:33.647Z,english_218.wav,0,peel,1470,19,2,Japanese,m,6,0.6,71.58709959,0.25791663
KES,15,0,2024-07-18T12:13:33.647Z,english_218.wav,0,peel,1470,19,2,Japanese,m,7,0.7,-9.8928997,0.10961417
KES,15,0,2024-07-18T12:13:33.647Z,english_218.wav,0,peel,1470,19,2,Japanese,m,8,0.8,-1.71040265,1.17923692
KES,15,0,2024-07-18T12:13:33.647Z,english_218.wav,0,peel,1470,19,2,Japanese,m,9,0.9,46.05003014,0.25195767
KES,15,0,2024-07-18T12:13:33.647Z,english_218.wav,0,peel,1470,19,2,Japanese,m,10,1.0,-54.51031069,1.75432787
KES,15,0,2024-07-18T12:13:33.647Z,english_218.wav,0,peel,1470,19,2,Japanese,m,11,1.09391667,-36.41626056,1.27588471
KES,16,0,2024-07-18T12:13:33.647Z,english_402.wav,0,pill,2216,19,2,Japanese,m,0,0.0,13.762471,1.51429567
KES,16,0,2024-07-18T12:13:33.647Z,english_402.wav,0,pill,2216,19,2,Japanese,m,1,0.1,56.960538,1.68766969
KES,16,0,2024-07-18T12:13:33.647Z,english_402.wav,0,pill,2216,19,2,Japanese,m,2,0.2,31.61900178,1.34501255
KES,16,0,2024-07-18T12:13:33.647Z,english_402.wav,0,pill,2216,19,2,Japanese,m,3,0.3,-58.12329087,0.78143448
KES,16,0,2024-07-18T12:13:33.647Z,english_402.wav,0,pill,2216,19,2,Japanese,m,4,0.4,-92.10904416,0.95522192
KES,16,0,2024-07-18T12:13:33.647Z,english_402.wav,0,pill,2216,19,2,Japanese,m,5,0.5,-26.99116943,1.16323619
KES,16,0,2024-07-18T12:13:33.647Z,english_402.wav,0,pill,2216,19,2,Japanese,m,6,0.6,2.85267641,0.43497741
KES,16,0,2024-07-18T12:13:33.647Z,english_402.wav,0,pill,2216,19,2,Japanese,m,7,0.7,-21.2400385,1.84271931
KES,16,0,2024-07-18T12:13:33.647Z,english_402.wav,0,pill,2216,19,2,Japanese,m,8,0.8,47.25195685,1.28114522
KES,16,0,2024-07-18T12:13:33.647Z,english_402.wav,0,pill,2216,19,2,Japanese,m,9,0.9,86.30516809,0.9091169
KES,16,0,2024-07-18T12:13:33.647Z,english_402.wav,0,pill,2216,19,2,Japanese,m,10,1.0,-9.29622935,1.84546322
KES,16,0,2024-07-18T12:13:33.647Z,english_402.wav,0,pill,2216,19,2,Japanese,m,11,1.09391667,3.14612385,0.72114292
KES,17,0,2024-07-18T12:13:33.647Z,english_722.wav,0,peel,852,19,2,Japanese,m,0,0.0,-57.56576196,0.04722973
KES,17,0,2024-07-18T12:13:33.647Z,english_722.wav,0,peel,852,19,2,Japanese,m,1,0.1,-19.70677764,1.09555253
KES,17,0,2024-07-18T12:13:33.647Z,english_722.wav,0,peel,852,19,2,Japanese,m,2,0.2,83.71549809,0.8122888
KES,17,0,2024-07-18T12:13:33.647Z,english_722.wav,0,peel,852,19,2,Japanese,m,3,0.3,0.72860566,0.82350502
KES,17,0,2024-07-18T12:13:33.647Z,english_722.wav,0,peel,852,19,2,Japanese,m,4,0.4,23.57010212,0.7141467
KES,17,0,2024-07-18T12:13:33.647Z,english_722.wav,0,peel,852,19,2,Japanese,m,5,0.5,-90.6432868,0.19918411
KES,17,0,2024-07-18T12:13:33.647Z,english_722.wav,0,peel,852,19,2,Japanese,m,6,0.6,3.97952781,0.04680372
KES,17,0,2024-07-18T12:13:33.647Z,english_722.wav,0,peel,852,19,2,Japanese,m,7,0.7,47.87385022,0.22857445
KES,17,0,2024-07-18T12:13:33.647Z,english_722.wav,0,peel,852,19,2,Japanese,m,8,0.8,-10.29099789,1.06043027
KES,17,0,2024-07-18T12:13:33.647Z,english_722.wav,0,peel,852,19,2,Japanese,m,9,0.9,-55.37554035,1.28411096
KES,17,0,2024-07-18T12:13:33.647Z,english_722.wav,0,peel,852,19,2,Japanese,m,10,1.0,-74.87108339,1.38807885
KES,17,0,2024-07-18T12:13:33.647Z,english_722.wav,0,peel,852,19,2,Japanese,m,11,1.09391667,32.13407254,0.54998416
KES,18,0,2024-07-18T12:13:33.647Z,english_100.wav,0,pill,2502,19,2,Japanese,m,0,0.0,-24.42637315,0.62540921
KES,18,0,2024-07-18T12:13:33.647Z,english_100.wav,0,pill,2502,19,2,Japanese,m,1,0.1,47.77288594,1.22625666
KES,18,0,2024-07-18T12:13:33.647Z,english_100.wav,0,pill,2502,19,2,Japanese,m,2,0.2,-50.36782497,1.26348183
KES,18,0,2024-07-18T12:13:33.647Z,english_100.wav,0,pill,2502,19,2,Japanese,m,3,0.3,2.2842979,0.25528387
KES,18,0,2024-07-18T12:13:33.647Z,english_100.wav,0,pill,2502,19,2,Japanese,m,4,0.4,-15.6809061,0.91288523
KES,18,0,2024-07-18T12:13:33.647Z,english_100.wav,0,pill,2502,19,2,Japanese,m,5,0.5,12.92206519,1.75475855
KES,18,0,2024-07-18T12:13:33.647Z,english_100.wav,0,pill,2502,19,2,Japanese,m,6,0.6,58.2816769,1.62969237
KES,18,0,2024-07-18T12:13:33.647Z,english_100.wav,0,pill,2502,19,2,Japanese,m,7,0.7,48.23099815,0.00541247
KES,18,0,2024-07-18T12:13:33.647Z,english_100.wav,0,pill,2502,19,2,Japanese,m,8,0.8,-72.65138159,0.94746335
KES,18,0,2024-07-18T12:13:33.647Z,english_100.wav,0,pill,2502,19,2,Japanese,m,9,0.9,22.56578389,0.25544392
KES,18,0,2024-07-18T12:13:33.647Z,english_100.wav,0,pill,2502,19,2,Japanese,m,10,1.0,5.8175855,1.63729526
KES,18,0,2024-07-18T12:13:33.647Z,english_100.wav,0,pill,2502,19,2,Japanese,m,11,1.09391667,54.85953581,1.97415754
KES,19,0,2024-07-18T12:13:33.647Z,english_529.wav,0,peel,6566,19,2,Japanese,m,0,0.0,-75.44052411,0.27425441
KES,19,0,2024-07-18T12:13:33.647Z,english_529.wav,0,peel,6566,19,2,Japanese,m,1,0.1,73.68823703,1.79894556
KES,19,0,2024-07-18T12:13:33.647Z,english_529.wav,0,peel,6566,19,2,Japanese,m,2,0.2,35.88983091,1.38498362
KES,19,0,2024-07-18T12:13:33.647Z,english_529.wav,0,peel,6566,19,2,Japanese,m,3,0.3,74.9860534,1.12136542
KES,19,0,2024-07-18T12:13:33.647Z,english_529.wav,0,peel,6566,19,2,Japanese,m,4,0.4,39.79761308,0.69021564
KES,19,0,2024-07-18T12:13:33.647Z,english_529.wav,0,peel,6566,19,2,Japanese,m,5,0.5,87.56894365,1.32432139
KES,19,0,2024-07-18T12:13:33.647Z,english_529.wav,0,peel,6566,19,2,Japanese,m,6,0.6,-70.18354505,0.62496123
KES,19,0,2024-07-18T12:13:33.647Z,english_529.wav,0,peel,6566,19,2,Japanese,m,7,0.7,30.14757838,0.16694554
KES,19,0,2024-07-18T12:13:33.647Z,english_529.wav,0,peel,6566,19,2,Japanese,m,8,0.8,-85.67720686,1.72485798
KES,19,0,2024-07-18T12:13:33.647Z,english_529.wav,0,peel,6566,19,2,Japanese,m,9,0.9,-5.22909547,0.11317639
KES,19,0,2024-07-18T12:13:33.647Z,english_529.wav,0,peel,6566,19,2,Japanese,m,10,1.0,-29.17041088,1.97903266
KES,19,0,2024-07-18T12:13:33.647Z,english_529.wav,0,peel,6566,19,2,Japanese,m,11,1.09391667,91.40497623,0.92289832
KES,20,0,2024-07-18T12:13:33.647Z,english_379.wav,0,pill,2721,19,2,Japanese,m,0,0.0,49.53215273,0.78528704
KES,20,0,2024-07-18T12:13:33.647Z,english_379.wav,0,pill,2721,19,2,Japanese,m,1,0.1,9.27522888,1.81748923
KES,20,0,2024-07-18T12:13:33.647Z,english_379.wav,0,pill,2721,19,2,Japanese,m,2,0.2,37.03122757,0.92030015
KES,20,0,2024-07-18T12:13:33.647Z,english_379.wav,0,pill,2721,19,2,Japanese,m,3,0.3,99.63155139,1.45290857
KES,20,0,2024-07-18T12:13:33.647Z,english_379.wav,0,pill,2721,19,2,Japanese,m,4,0.4,33.35011574,1.06621496
KES,20,0,2024-07-18T12:13:33.647Z,english_379.wav,0,pill,2721,19,2,Japanese,m,5,0.5,-7.70874078,1.14308429
KES,20,0,2024-07-18T12:13:33.647Z,english_379.wav,0,pill,2721,19,2,Japanese,m,6,0.6,46.33326353,0.43706451
KES,20,0,2024-07-18T12:13:33.647Z,english_379.wav,0,pill,2721,19,2,Japanese,m,7,0.7,41.12969148,0.56663738
KES,20,0,2024-07-18T12:13:33.647Z,english_379.wav,0,pill,2721,19,2,Japanese,m,8,0.8,-55.78540597,1.37256697
KES,20,0,2024-07-18T12:13:33.647Z,english_379.wav,0,pill,2721,19,2,Japanese,m,9,0.9,-84.4527127,0.4510475
KES,20,0,2024-07-18T12:13:33.647Z,english_379.wav,0,pill,2721,19,2,Japanese,m,10,1.0,13.84600332,1.31801048
KES,20,0,2024-07-18T12:13:33.647Z,english_379.wav,0,pill,2721,19,2,Japanese,m,11,1.09391667,82.55643163,0.64535043
KES,21,0,2024-07-18T12:13:33.647Z,english_964.wav,0,peel,6343,19,2,Japanese,m,0,0.0,53.46570898,1.49731262
KES,21,0,2024-07-18T12:13:33.647Z,english_964.wav,0,peel,6343,19,2,Japanese,m,1,0.1,-29.34116619,1.91326808
KES,21,0,2024-07-18T12:13:33.647Z,english_964.wav,0,peel,6343,19,2,Japanese,m,2,0.2,54.99768825,0.76008105
KES,21,0,2024-07-18T12:13:33.647Z,english_964.wav,0,peel,6343,19,2,Japanese,m,3,0.3,-81.76915679,1.84891579
KES,21,0,2024-07-18T12:13:33.647Z,english_964.wav,0,peel,6343,19,2,Japanese,m,4,0.4,-62.14603757,0.58371441
KES,21,0,2024-07-18T12:13:33.647Z,english_964.wav,0,peel,6343,19,2,Japanese,m,5,0.5,-51.83468115,0.22320605
KES,21,0,2024-07-18T12:13:33.647Z,english_964.wav,0,peel,6343,19,2,Japanese,m,6,0.6,22.82176289,0.86228006
KES,21,0,2024-07-18T12:13:33.647Z,english_964.wav,0,peel,6343,19,2,Japanese,m,7,0.7,43.03362668,1.2736027
KES,21,0,2024-07-18T12:13:33.647Z,english_964.wav,0,peel,6343,19,2,Japanese,m,8,0.8,-91.1613604,0.96508229
KES,21,0,2024-07-18T12:13:33.647Z,english_964.wav,0,peel,6343,19,2,Japanese,m,9,0.9,9.75788821,0.5978171
KES,21,0,2024-07-18T12:13:33.647Z,english_964.wav,0,peel,6343,19,2,Japanese,m,10,1.0,-2.87390503,0.802961
KES,21,0,2024-07-18T12:13:33.647Z,english_964.wav,0,peel,6343,19,2,Japanese,m,11,1.09391667,-53.09298444,0.69400331
KES,22,0,2024-07-18T12:13:33.647Z,english_528.wav,0,pill,1386,19,2,Japanese,m,0,0.0,89.92931817,1.55464654
KES,22,0,2024-07-18T12:13:33.647Z,english_528.wav,0,pill,1386,19,2,Japanese,m,1,0.1,69.43761356,1.5693867
KES,22,0,2024-07-18T12:13:33.647Z,english_528.wav,0,pill,1386,19,2,Japanese,m,2,0.2,-74.63581074,0.24579909
KES,22,0,2024-07-18T12:13:33.647Z,english_528.wav,0,pill,1386,19,2,Japanese,m,3,0.3,66.94799646,0.89003704
KES,22,0,2024-07-18T12:13:33.647Z,english_528.wav,0,pill,1386,19,2,Japanese,m,4,0.4,93.4667874,0.02709789
KES,22,0,2024-07-18T12:13:33.647Z,english_528.wav,0,pill,1386,19,2,Japanese,m,5,0.5,-73.58583841,1.93159194
KES,22,0,2024-07-18T12:13:33.647Z,english_528.wav,0,pill,1386,19,2,Japanese,m,6,0.6,60.58074805,1.21534299
KES,22,0,2024-07-18T12:13:33.647Z,english_528.wav,0,pill,1386,19,2,Japanese,m,7,0.7,-19.51561534,1.54968918
KES,22,0,2024-07-18T12:13:33.647Z,english_528.wav,0,pill,1386,19,2,Japanese,m,8,0.8,1.50674214,1.22283315
KES,22,0,2024-07-18T12:13:33.647Z,english_528.wav,0,pill,1386,19,2,Japanese,m,9,0.9,-4.69145727,0.16463995
KES,22,0,2024-07-18T12:13:33.647Z,english_528.wav,0,pill,1386,19,2,Japanese,m,10,1.0,-90.65001005,0.26004795
KES,22,0,2024-07-18T12:13:33.647Z,english_528.wav,0,pill,1386,19,2,Japanese,m,11,1.09391667,80.40130965,0.00778095
KES,23,0,2024-07-18T12:13:33.647Z,english_780.wav,0,peel,3479,19,2,Japanese,m,0,0.0,-87.5022813,1.98466869
KES,23,0,2024-07-18T12:13:33.647Z,english_780.wav,0,peel,3479,19,2,Japanese,m,1,0.1,48.02010378,1.54311759
KES,23,0,2024-07-18T12:13:33.647Z,english_780.wav,0,peel,3479,19,2,Japanese,m,2,0.2,83.84572734,0.61016867
KES,23,0,2024-07-18T12:13:33.647Z,english_780.wav,0,peel,3479,19,2,Japanese,m,3,0.3,9.25847543,1.29361746
KES,23,0,2024-07-18T12:13:33.647Z,english_780.wav,0,peel,3479,19,2,Japanese,m,4,0.4,49.97347861,0.77747475
KES,23,0,2024-07-18T12:13:33.647Z,english_780.wav,0,peel,3479,19,2,Japanese,m,5,0.5,-60.69242488,1.18422754
KES,23,0,2024-07-18T12:13:33.647Z,english_780.wav,0,peel,3479,19,2,Japanese,m,6,0.6,-21.82497806,0.82850866
KES,23,0,2024-07-18T12:13:33.647Z,english_780.wav,0,peel,3479,19,2,Japanese,m,7,0.7,13.87798501,0.60760734
KES,23,0,2024-07-18T12:13:33.647Z,english_780.wav,0,peel,3479,19,2,Japanese,m,8,0.8,32.41479889,0.87727466
KES,23,0,2024-07-18T12:13:33.647Z,english_780.wav,0,peel,3479,19,2,Japanese,m,9,0.9,54.1006632,1.39371886
KES,23,0,2024-07-18T12:13:33.647Z,english_780.wav,0,peel,3479,19,2,Japanese,m,10,1.0,-56.48325956,1.23252422
KES,23,0,2024-07-18T12:13:33.647Z,english_780.wav,0,peel,3479,19,2,Japanese,m,11,1.09391667,96.27244158,0.39725777
KES,24,0,2024-07-18T12:13:33.647Z,english_113.wav,0,pill,1915,19,2,Japanese,m,0,0.0,15.28166422,0.55667307
KES,24,0,2024-07-18T12:13:33.647Z,english_113.wav,0,pill,1915,19,2,Japanese,m,1,0.1,47.09879561,0.58592964
KES,24,0,2024-07-18T12:13:33.647Z,english_113.wav,0,pill,1915,19,2,Japanese,m,2,0.2,30.55065419,1.23790542
KES,24,0,2024-07-18T12:13:33.647Z,english_113.wav,0,pill,1915,19,2,Japanese,m,3,0.3,60.74459651,0.97364291
KES,24,0,2024-07-18T12:13:33.647Z,english_113.wav,0,pill,1915,19,2,Japanese,m,4,0.4,-80.73338373,0.01252312
KES,24,0,2024-07-18T12:13:33.647Z,english_113.wav,0,pill,1915,19,2,Japanese,m,5,0.5,-58.25545597,0.68334247
KES,24,0,2024-07-18T12:13:33.647Z,english_113.wav,0,pill,1915,19,2,Japanese,m,6,0.6,82.81118061,0.36908508
KES,24,0,2024-07-18T12:13:33.647Z,english_113.wav,0,pill,1915,19,2,Japanese,m,7,0.7,-61.4933419,0.9756346
KES,24,0,2024-07-18T12:13:33.647Z,english_113.wav,0,pill,1915,19,2,Japanese,m,8,0.8,15.22379089,1.72445689
KES,24,0,2024-07-18T12:13:33.647Z,english_113.wav,0,pill,1915,19,2,Japanese,m,9,0.9,-30.23460484,0.62749292
KES,24,0,2024-07-18T12:13:33.647Z,english_113.wav,0,pill,1915,19,2,Japanese,m,10,1.0,29.92994598,0.55530103
KES,24,0,2024-07-18T12:13:33.647Z,english_113.wav,0,pill,1915,19,2,Japanese,m,11,1.09391667,22.43308389,0.65235156
KES,25,0,2024-07-18T12:13:33.647Z,english_738.wav,0,peel,4371,19,2,Japanese,m,0,0.0,40.29848329,1.14824707
KES,25,0,2024-07-18T12:13:33.647Z,english_738.wav,0,peel,4371,19,2,Japanese,m,1,0.1,66.12105636,1.60387601
KES,25,0,2024-07-18T12:13:33.647Z,english_738.wav,0,peel,4371,19,2,Japanese,m,2,0.2,-12.57692477,1.084542
KES,25,0,2024-07-18T12:13:33.647Z,english_738.wav,0,peel,4371,19,2,Japanese,m,3,0.3,-81.4028628,1.81856642
KES,25,0,2024-07-18T12:13:33.647Z,english_738.wav,0,peel,4371,19,2,Japanese,m,4,0.4,83.16146046,1.62922567
KES,25,0,2024-07-18T12:13:33.647Z,english_738.wav,0,peel,4371,19,2,Japanese,m,5,0.5,59.80662428,0.86427283
KES,25,0,2024-07-18T12:13:33.647Z,english_738.wav,0,peel,4371,19,2,Japanese,m,6,0.6,40.28369402,0.1736944
KES,25,0,2024-07-18T12:13:33.647Z,english_738.wav,0,peel,4371,19,2,Japanese,m,7,0.7,70.16502192,0.66918612
KES,25,0,2024-07-18T12:13:33.647Z,english_738.wav,0,peel,4371,19,2,Japanese,m,8,0.8,33.24952129,1.29313609
KES,25,0,2024-07-18T12:13:33.647Z,english_738.wav,0,peel,4371,19,2,Japanese,m,9,0.9,-77.78198323,0.37962966
KES,25,0,2024-07-18T12:13:33.647Z,english_738.wav,0,peel,4371,19,2,Japanese,m,10,1.0,6.29614131,0.80178577
KES,25,0,2024-07-18T12:13:33.647Z,english_738.wav,0,peel,4371,19,2,Japanese,m,11,1.09391667,60.18727711,0.93492505
KES,26,0,2024-07-18T12:13:33.647Z,english_679.wav,0,pill,828,19,2,Japanese,m,0,0.0,76.35427363,0.61802324
KES,26,0,2024-07-18T12:13:33.647Z,english_679.wav,0,pill,828,19,2,Japanese,m,1,0.1,-50.0846889,0.37453971
KES,26,0,2024-07-18T12:13:33.647Z,english_679.wav,0,pill,828,19,2,Japanese,m,2,0.2,79.70250944,0.85876035
KES,26,0,2024-07-18T12:13:33.647Z,english_679.wav,0,pill,828,19,2,Japanese,m,3,0.3,81.01080403,1.8566793
KES,26,0,2024-07-18T12:13:33.647Z,english_679.wav,0,pill,828,19,2,Japanese,m,4,0.4,83.79560208,1.28706844
KES,26,0,2024-07-18T12:13:33.647Z,english_679.wav,0,pill,828,19,2,Japanese,m,5,0.5,50.36804925,1.04354471
KES,26,0,2024-07-18T12:13:33.647Z,english_679.wav,0,pill,828,19,2,Japanese,m,6,0.6,40.56025904,1.21986253
KES,26,0,2024-07-18T12:13:33.647Z,english_679.wav,0,pill,828,19,2,Japanese,m,7,0.7,61.04999163,0.6187735
KES,26,0,2024-07-18T12:13:33.647Z,english_679.wav,0,pill,828,19,2,Japanese,m,8,0.8,30.26013895,1.74062644
KES,26,0,2024-07-18T12:13:33.647Z,english_679.wav,0,pill,828,19,2,Japanese,m,9,0.9,-2.00132525,0.86694999
KES,26,0,2024-07-18T12:13:33.647Z,english_679.wav,0,pill,828,19,2,Japanese,m,10,1.0,61.28738914,1.26165824
KES,26,0,2024-07-18T12:13:33.647Z,english_679.wav,0,pill,828,19,2,Japanese,m,11,1.09391667,-32.08611222,0.66731925
KES,27,0,2024-07-18T12:13:33.647Z,english_715.wav,0,pill,1956,19,2,Japanese,m,0,0.0,78.22774345,0.75991229
KES,27,0,2024-07-18T12:13:33.647Z,english_715.wav,0,pill,1956,19,2,Japanese,m,1,0.1,-96.8523275,0.99773413
KES,27,0,2024-07-18T12:13:33.647Z,english_715.wav,0,pill,1956,19,2,Japanese,m,2,0.2,-34.50555451,0.56874377
KES,27,0,2024-07-18T12:13:33.647Z,english_715.wav,0,pill,1956,19,2,Japanese,m,3,0.3,-68.33010748,0.94740887
KES,27,0,2024-07-18T12:13:33.647Z,english_715.wav,0,pill,1956,19,2,Japanese,m,4,0.4,1.3176975,0.15689837
KES,27,0,2024-07-18T12:13:33.647Z,english_715.wav,0,pill,1956,19,2,Japanese,m,5,0.5,-22.85405384,0.63882757
KES,27,0,2024-07-18T12:13:33.647Z,english_715.wav,0,pill,1956,19,2,Japanese,m,6,0.6,31.97819163,1.98432361
KES,27,0,2024-07-18T12:13:33.647Z,english_715.wav,0,pill,1956,19,2,Japanese,m,7,0.7,-68.8879522,1.01055426
KES,27,0,2024-07-18T12:13:33.647Z,english_715.wav,0,pill,1956,19,2,Japanese,m,8,0.8,-81.63258435,1.54899678
KES,27,0,2024-07-18T12:13:33.647Z,english_715.wav,0,pill,1956,19,2,Japanese,m,9,0.9,27.36842189,1.56798589
KES,27,0,2024-07-18T12:13:33.647Z,english_715.wav,0,pill,1956,19,2,Japanese,m,10,1.0,-14.86787672,0.94191973
KES,27,0,2024-07-18T12:13:33.647Z,english_715.wav,0,pill,1956,19,2,Japanese,m,11,1.09391667,-20.30845266,1.60145533
KES,28,0,2024-07-18T12:13:33.647Z,english_846.wav,0,pill,2646,19,2,Japanese,m,0,0.0,47.64315726,0.95758586
KES,28,0,2024-07-18T12:13:33.647Z,english_846.wav,0,pill,2646,19,2,Japanese,m,1,0.1,43.78617601,0.16218947
KES,28,0,2024-07-18T12:13:33.647Z,english_846.wav,0,pill,2646,19,2,Japanese,m,2,0.2,-67.59598015,0.72860603
KES,28,0,2024-07-18T12:13:33.647Z,english_846.wav,0,pill,2646,19,2,Japanese,m,3,0.3,75.82681519,0.60627127
KES,28,0,2024-07-18T12:13:33.647Z,english_846.wav,0,pill,2646,19,2,Japanese,m,4,0.4,74.28596976,0.41876793
KES,28,0,2024-07-18T12:13:33.647Z,english_846.wav,0,pill,2646,19,2,Japanese,m,5,0.5,40.48744531,1.23414848
KES,28,0,2024-07-18T12:13:33.647Z,english_846.wav,0,pill,2646,19,2,Japanese,m,6,0.6,-65.90904049,1.54330327
KES,28,0,2024-07-18T12:13:33.647Z,english_846.wav,0,pill,2646,19,2,Japanese,m,7,0.7,90.52035497,1.06483437
KES,28,0,2024-07-18T12:13:33.647Z,english_846.wav,0,pill,2646,19,2,Japanese,m,8,0.8,-68.67205107,0.84380864
KES,28,0,2024-07-18T12:13:33.647Z,english_846.wav,0,pill,2646,19,2,Japanese,m,9,0.9,8.67982792,0.84626324
KES,28,0,2024-07-18T12:13:33.647Z,english_846.wav,0,pill,2646,19,2,Japanese,m,10,1.0,-64.09193989,1.29492524
KES,28,0,2024-07-18T12:13:33.647Z,english_846.wav,0,pill,2646,19,2,Japanese,m,11,1.09391667,11.5113113,0.37776928
KES,29,0,2024-07-18T12:13:33.647Z,english_777.wav,0,pill,2153,19,2,Japanese,m,0,0.0,77.7553974,0.31196703
KES,29,0,2024-07-18T12:13:33.647Z,english_777.wav,0,pill,2153,19,2,Japanese,m,1,0.1,88.6430253,0.69611643
KES,29,0,2024-07-18T12:13:33.647Z,english_777.wav,0,pill,2153,19,2,Japanese,m,2,0.2,5.54652951,0.87210572
KES,29,0,2024-07-18T12:13:33.647Z,english_777.wav,0,pill,2153,19,2,Japanese,m,3,0.3,11.99584501,1.73935874
KES,29,0,2024-07-18T12:13:33.647Z,english_777.wav,0,pill,2153,19,2,Japanese,m,4,0.4,-44.68936207,0.75260602
KES,29,0,2024-07-18T12:13:33.647Z,english_777.wav,0,pill,2153,19,2,Japanese,m,5,0.5,-18.49311275,0.63970678
KES,29,0,2024-07-18T12:13:33.647Z,english_777.wav,0,pill,2153,19,2,Japanese,m,6,0.6,-54.40171159,1.12530391
KES,29,0,2024-07-18T12:13:33.647Z,english_777.wav,0,pill,2153,19,2,Japanese,m,7,0.7,-57.33128005,1.17239371
KES,29,0,2024-07-18T12:13:33.647Z,english_777.wav,0,pill,2153,19,2,Japanese,m,8,0.8,14.03341313,0.53671495
KES,29,0,2024-07-18T12:13:33.647Z,english_777.wav,0,pill,2153,19,2,Japanese,m,9,0.9,18.82152763,1.4475438
KES,29,0,2024-07-18T12:13:33.647Z,english_777.wav,0,pill,2153,19,2,Japanese,m,10,1.0,22.39033388,1.78069419
KES,29,0,2024-07-18T12:13:33.647Z,english_777.wav,0,pill,2153,19,2,Japanese,m,11,1.09391667,52.67090174,0.83009886
KES,30,0,2024-07-18T12:13:33.647Z,english_142.wav,0,peel,1022,19,2,Japanese,m,0,0.0,31.11671536,1.24679721
KES,30,0,2024-07-18T12:13:33.647Z,english_142.wav,0,peel,1022,19,2,Japanese,m,1,0.1,14.00827892,0.65366655
KES,30,0,2024-07-18T12:13:33.647Z,english_142.wav,0,peel,1022,19,2,Japanese,m,2,0.2,90.23748413,1.20113331
KES,30,0,2024-07-18T12:13:33.647Z,english_142.wav,0,peel,1022,19,2,Japanese,m,3,0.3,82.30944071,1.60444487
KES,30,0,2024-07-18T12:13:33.647Z,english_142.wav,0,peel,1022,19,2,Japanese,m,4,0.4,-1.47145923,1.29279254
KES,30,0,2024-07-18T12:13:33.647Z,english_142.wav,0,peel,1022,19,2,Japanese,m,5,0.5,55.17460753,0.91831488
KES,30,0,2024-07-18T12:13:33.647Z,english_142.wav,0,peel,1022,19,2,Japanese,m,6,0.6,26.61999518,0.78219664
KES,30,0,2024-07-18T12:13:33.647Z,english_142.wav,0,peel,1022,19,2,Japanese,m,7,0.7,-9.70687044,0.08870339
KES,30,0,2024-07-18T12:13:33.647Z,english_142.wav,0,peel,1022,19,2,Japanese,m,8,0.8,45.29559585,1.29591766
KES,30,0,2024-07-18T12:13:33.647Z,english_142.wav,0,peel,1022,19,2,Japanese,m,9,0.9,-14.38709872,0.90292953
KES,30,0,2024-07-18T12:13:33.647Z,english_142.wav,0,peel,1022,19,2,Japanese,m,10,1.0,-22.51804374,0.84738987
KES,30,0,2024-07-18T12:13:33.647Z,english_142.wav,0,peel,1022,19,2,Japanese,m,11,1.09391667,56.35505814,0.22793797
KES,31,0,2024-07-18T12:13:33.647Z,english_823.wav,0,pill,2252,19,2,Japanese,m,0,0.0,-70.10603849,1.91255795
KES,31,0,2024-07-18T12:13:33.647Z,english_823.wav,0,pill,2252,19,2,Japanese,m,1,0.1,-45.04517839,0.74599838
KES,31,0,2024-07-18T12:13:33.647Z,english_823.wav,0,pill,2252,19,2,Japanese,m,2,0.2,-42.2492944,1.31380905
KES,31,0,2024-07-18T12:13:33.647Z,english_823.wav,0,pill,2252,19,2,Japanese,m,3,0.3,-45.84544369,1.72599054
KES,31,0,2024-07-18T12:13:33.647Z,english_823.wav,0,pill,2252,19,2,Japanese,m,4,0.4,-4.98008302,1.26451187
KES,31,0,2024-07-18T12:13:33.647Z,english_823.wav,0,pill,2252,19,2,Japanese,m,5,0.5,20.34475247,1.72804797
KES,31,0,2024-07-18T12:13:33.647Z,english_823.wav,0,pill,2252,19,2,Japanese,m,6,0.6,84.8573305,0.52348254
KES,31,0,2024-07-18T12:13:33.647Z,english_823.wav,0,pill,2252,19,2,Japanese,m,7,0.7,-53.89632844,1.631088
KES,31,0,2024-07-18T12:13:33.647Z,english_823.wav,0,pill,2252,19,2,Japanese,m,8,0.8,-37.28575357,0.82823054
KES,31,0,2024-07-18T12:13:33.647Z,english_823.wav,0,pill,2252,19,2,Japanese,m,9,0.9,13.94407457,0.05356388
KES,31,0,2024-07-18T12:13:33.647Z,english_823.wav,0,pill,2252,19,2,Japanese,m,10,1.0,24.32776485,1.39749703
KES,31,0,2024-07-18T12:13:33.647Z,english_823.wav,0,pill,2252,19,2,Japanese,m,11,1.09391667,93.11083292,0.95992964
KES,32,0,2024-07-18T12:13:33.647Z,english_77.wav,0,peel,745,19,2,Japanese,m,0,0.0,14.85901356,0.93801636
KES,32,0,2024-07-18T12:13:33.647Z,english_77.wav,0,peel,745,19,2,Japanese,m,1,0.1,-14.38598058,1.78480039
KES,32,0,2024-07-18T12:13:33.647Z,english_77.wav,0,peel,745,19,2,Japanese,m,2,0.2,-43.69728494,1.59819809
KES,32,0,2024-07-18T12:13:33.647Z,english_77.wav,0,peel,745,19,2,Japanese,m,3,0.3,-19.24854373,0.89560743
KES,32,0,2024-07-18T12:13:33.647Z,english_77.wav,0,peel,745,19,2,Japanese,m,4,0.4,4.73942442,0.68128783
KES,32,0,2024-07-18T12:13:33.647Z,english_77.wav,0,peel,745,19,2,Japanese,m,5,0.5,6.08734895,1.19225119
KES,32,0,2024-07-18T12:13:33.647Z,english_77.wav,0,peel,745,19,2,Japanese,m,6,0.6,2.07981921,1.49267812
KES,32,0,2024-07-18T12:13:33.647Z,english_77.wav,0,peel,745,19,2,Japanese,m,7,0.7,-3.22152689,1.83354621
KES,32,0,2024-07-18T12:13:33.647Z,english_77.wav,0,peel,745,19,2,Japanese,m,8,0.8,-81.97912938,0.65715704
KES,32,0,2024-07-18T12:13:33.647Z,english_77.wav,0,peel,745,19,2,Japanese,m,9,0.9,9.14807536,1.29592629
KES,32,0,2024-07-18T12:13:33.647Z,english_77.wav,0,peel,745,19,2,Japanese,m,10,1.0,-30.52937586,1.03409297
KES,32,0,2024-07-18T12:13:33.647Z,english_77.wav,0,peel,745,19,2,Japanese,m,11,1.09391667,17.14336326,1.45456337
KES,33,0,2024-07-18T12:13:33.647Z,english_111.wav,0,peel,1483,19,2,Japanese,m,0,0.0,-7.89423459,1.73172447
KES,33,0,2024-07-18T12:13:33.647Z,english_111.wav,0,peel,1483,19,2,Japanese,m,1,0.1,-50.39853442,1.30536321
KES,33,0,2024-07-18T12:13:33.647Z,english_111.wav,0,peel,1483,19,2,Japanese,m,2,0.2,85.22773015,0.28962065
KES,33,0,2024-07-18T12:13:33.647Z,english_111.wav,0,peel,1483,19,2,Japanese,m,3,0.3,-7.88513069,1.6166787
KES,33,0,2024-07-18T12:13:33.647Z,english_111.wav,0,peel,1483,19,2,Japanese,m,4,0.4,-36.68324303,0.55677008
KES,33,0,2024-07-18T12:13:33.647Z,english_111.wav,0,peel,1483,19,2,Japanese,m,5,0.5,-4.8649615,1.31756148
KES,33,0,2024-07-18T12:13:33.647Z,english_111.wav,0,peel,1483,19,2,Japanese,m,6,0.6,-92.19494919,1.4789538
KES,33,0,2024-07-18T12:13:33.647Z,english_111.wav,0,peel,1483,19,2,Japanese,m,7,0.7,-6.11032283,0.53950686
KES,33,0,2024-07-18T12:13:33.647Z,english_111.wav,0,peel,1483,19,2,Japanese,m,8,0.8,41.34470973,0.89868821
KES,33,0,2024-07-18T12:13:33.647Z,english_111.wav,0,peel,1483,19,2,Japanese,m,9,0.9,-73.07088632,0.90401257
KES,33,0,2024-07-18T12:13:33.647Z,english_111.wav,0,peel,1483,19,2,Japanese,m,10,1.0,50.36502587,0.61580764
KES,33,0,2024-07-18T12:13:33.647Z,english_111.wav,0,peel,1483,19,2,Japanese,m,11,1.09391667,-49.90215361,1.87610476
KES,34,0,2024-07-18T12:13:33.647Z,english_590.wav,0,pill,1226,19,2,Japanese,m,0,0.0,24.53986414,1.78897409
KES,34,0,2024-07-18T12:13:33.647Z,english_590.wav,0,pill,1226,19,2,Japanese,m,1,0.1,62.74729121,1.71743114
KES,34,0,2024-07-18T12:13:33.647Z,english_590.wav,0,pill,1226,19,2,Japanese,m,2,0.2,-6.99692864,1.45844579
KES,34,0,2024-07-18T12:13:33.647Z,english_590.wav,0,pill,1226,19,2,Japanese,m,3,0.3,32.91070415,0.05079794
KES,34,0,2024-07-18T12:13:33.647Z,english_590.wav,0,pill,1226,19,2,Japanese,m,4,0.4,54.80975448,1.44685897
KES,34,0,2024-07-18T12:13:33.647Z,english_590.wav,0,pill,1226,19,2,Japanese,m,5,0.5,24.32530029,0.6322235
KES,34,0,2024-07-18T12:13:33.647Z,english_590.wav,0,pill,1226,19,2,Japanese,m,6,0.6,16.29432048,1.01805408
KES,34,0,2024-07-18T12:13:33.647Z,english_590.wav,0,pill,1226,19,2,Japanese,m,7,0.7,-66.06817006,0.32502854
KES,34,0,2024-07-18T12:13:33.647Z,english_590.wav,0,pill,1226,19,2,Japanese,m,8,0.8,-90.96676801,1.20600442
KES,34,0,2024-07-18T12:13:33.647Z,english_590.wav,0,pill,1226,19,2,Japanese,m,9,0.9,-4.67977612,0.69143843
KES,34,0,2024-07-18T12:13:33.647Z,english_590.wav,0,pill,1226,19,2,Japanese,m,10,1.0,-25.79105575,0.12523546
KES,34,0,2024-07-18T12:13:33.647Z,english_590.wav,0,pill,1226,19,2,Japanese,m,11,1.09391667,-43.70584136,1.95537842
KES,35,0,2024-07-18T12:13:33.647Z,english_874.wav,0,peel,1894,19,2,Japanese,m,0,0.0,-71.39498579,1.26251394
KES,35,0,2024-07-18T12:13:33.647Z,english_874.wav,0,peel,1894,19,2,Japanese,m,1,0.1,62.98858744,1.60813214
KES,35,0,2024-07-18T12:13:33.647Z,english_874.wav,0,peel,1894,19,2,Japanese,m,2,0.2,41.27867713,0.77910004
KES,35,0,2024-07-18T12:13:33.647Z,english_874.wav,0,peel,1894,19,2,Japanese,m,3,0.3,-0.45014309,1.66768461
KES,35,0,2024-07-18T12:13:33.647Z,english_874.wav,0,peel,1894,19,2,Japanese,m,4,0.4,-62.23813069,1.66631965
KES,35,0,2024-07-18T12:13:33.647Z,english_874.wav,0,peel,1894,19,2,Japanese,m,5,0.5,81.69191529,0.96578831
KES,35,0,2024-07-18T12:13:33.647Z,english_874.wav,0,peel,1894,19,2,Japanese,m,6,0.6,-39.52630557,1.50022708
KES,35,0,2024-07-18T12:13:33.647Z,english_874.wav,0,peel,1894,19,2,Japanese,m,7,0.7,6.61232929,0.80807106
KES,35,0,2024-07-18T12:13:33.647Z,english_874.wav,0,peel,1894,19,2,Japanese,m,8,0.8,76.37120083,0.57035077
KES,35,0,2024-07-18T12:13:33.647Z,english_874.wav,0,peel,1894,19,2,Japanese,m,9,0.9,72.14080556,0.35036103
KES,35,0,2024-07-18T12:13:33.647Z,english_874.wav,0,peel,1894,19,2,Japanese,m,10,1.0,56.73337142,0.39594805
KES,35,0,2024-07-18T12:13:33.647Z,english_874.wav,0,peel,1894,19,2,Japanese,m,11,1.09391667,-44.63255829,1.14540291
KES,36,0,2024-07-18T12:13:33.647Z,english_254.wav,0,peel,1206,19,2,Japanese,m,0,0.0,-79.97486314,0.1587751
KES,36,0,2024-07-18T12:13:33.647Z,english_254.wav,0,peel,1206,19,2,Japanese,m,1,0.1,4.97939185,1.19895937
KES,36,0,2024-07-18T12:13:33.647Z,english_254.wav,0,peel,1206,19,2,Japanese,m,2,0.2,-28.78047168,0.42029652
KES,36,0,2024-07-18T12:13:33.647Z,english_254.wav,0,peel,1206,19,2,Japanese,m,3,0.3,54.84679162,0.35684023
KES,36,0,2024-07-18T12:13:33.647Z,english_254.wav,0,peel,1206,19,2,Japanese,m,4,0.4,-29.5092506,0.61489906
KES,36,0,2024-07-18T12:13:33.647Z,english_254.wav,0,peel,1206,19,2,Japanese,m,5,0.5,32.35526616,0.62359164
KES,36,0,2024-07-18T12:13:33.647Z,english_254.wav,0,peel,1206,19,2,Japanese,m,6,0.6,30.73043206,0.73353012
KES,36,0,2024-07-18T12:13:33.647Z,english_254.wav,0,peel,1206,19,2,Japanese,m,7,0.7,-63.39934618,1.26915249
KES,36,0,2024-07-18T12:13:33.647Z,english_254.wav,0,peel,1206,19,2,Japanese,m,8,0.8,41.52768957,1.27281169
KES,36,0,2024-07-18T12:13:33.647Z,english_254.wav,0,peel,1206,19,2,Japanese,m,9,0.9,-68.73480186,1.34629586
KES,36,0,2024-07-18T12:13:33.647Z,english_254.wav,0,peel,1206,19,2,Japanese,m,10,1.0,39.94615362,0.72701625
KES,36,0,2024-07-18T12:13:33.647Z,english_254.wav,0,peel,1206,19,2,Japanese,m,11,1.09391667,-8.67015509,0.66252937
KES,37,0,2024-07-18T12:13:33.647Z,english_827.wav,0,pill,3072,19,2,Japanese,m,0,0.0,68.00908508,0.75704727
KES,37,0,2024-07-18T12:13:33.647Z,english_827.wav,0,pill,3072,19,2,Japanese,m,1,0.1,62.86337393,1.26162294
KES,37,0,2024-07-18T12:13:33.647Z,english_827.wav,0,pill,3072,19,2,Japanese,m,2,0.2,-78.66229145,0.12232387
KES,37,0,2024-07-18T12:13:33.647Z,english_827.wav,0,pill,3072,19,2,Japanese,m,3,0.3,22.2543924,1.21737576
KES,37,0,2024-07-18T12:13:33.647Z,english_827.wav,0,pill,3072,19,2,Japanese,m,4,0.4,-38.38701394,0.91087215
KES,37,0,2024-07-18T12:13:33.647Z,english_827.wav,0,pill,3072,19,2,Japanese,m,5,0.5,42.22150711,0.43725261
KES,37,0,2024-07-18T12:13:33.647Z,english_827.wav,0,pill,3072,19,2,Japanese,m,6,0.6,-45.69118252,1.41339021
KES,37,0,2024-07-18T12:13:33.647Z,english_827.wav,0,pill,3072,19,2,Japanese,m,7,0.7,-2.62995829,0.84435274
KES,37,0,2024-07-18T12:13:33.647Z,english_827.wav,0,pill,3072,19,2,Japanese,m,8,0.8,-5.53100906,1.45939376
KES,37,0,2024-07-18T12:13:33.647Z,english_827.wav,0,pill,3072,19,2,Japanese,m,9,0.9,-28.52107901,0.25757528
KES,37,0,2024-07-18T12:13:33.647Z,english_827.wav,0,pill,3072,19,2,Japanese,m,10,1.0,49.22868474,0.16904312
KES,37,0,2024-07-18T12:13:33.647Z,english_827.wav,0,pill,3072,19,2,Japanese,m,11,1.09391667,-68.48939537,1.55565222
KES,38,0,2024-07-18T12:13:33.647Z,english_503.wav,0,pill,6720,19,2,Japanese,m,0,0.0,82.81450313,0.83149822
KES,38,0,2024-07-18T12:13:33.647Z,english_503.wav,0,pill,6720,19,2,Japanese,m,1,0.1,87.05662754,1.91463783
KES,38,0,2024-07-18T12:13:33.647Z,english_503.wav,0,pill,6720,19,2,Japanese,m,2,0.2,42.99051807,0.15190796
KES,38,0,2024-07-18T12:13:33.647Z,english_503.wav,0,pill,6720,19,2,Japanese,m,3,0.3,23.32883613,1.60754129
KES,38,0,2024-07-18T12:13:33.647Z,english_503.wav,0,pill,6720,19,2,Japanese,m,4,0.4,48.50951883,0.81229928
KES,38,0,2024-07-18T12:13:33.647Z,english_503.wav,0,pill,6720,19,2,Japanese,m,5,0.5,-47.47339199,1.3748652
KES,38,0,2024-07-18T12:13:33.647Z,english_503.wav,0,pill,6720,19,2,Japanese,m,6,0.6,-9.99119765,1.71927888
KES,38,0,2024-07-18T12:13:33.647Z,english_503.wav,0,pill,6720,19,2,Japanese,m,7,0.7,68.86997334,0.8455295
KES,38,0,2024-07-18T12:13:33.647Z,english_503.wav,0,pill,6720,19,2,Japanese,m,8,0.8,-44.22385081,0.49975448
KES,38,0,2024-07-18T12:13:33.647Z,english_503.wav,0,pill,6720,19,2,Japanese,m,9,0.9,14.75546466,0.2402037
KES,38,0,2024-07-18T12:13:33.647Z,english_503.wav,0,pill,6720,19,2,Japanese,m,10,1.0,-47.31135976,1.02101903
KES,38,0,2024-07-18T12:13:33.647Z,english_503.wav,0,pill,6720,19,2,Japanese,m,11,1.09391667,-18.86254353,1.59376689
KES,39,0,2024-07-18T12:13:33.647Z,english_907.wav,0,pill,1356,19,2,Japanese,m,0,0.0,-53.3100291,1.09242223
KES,39,0,2024-07-18T12:13:33.647Z,english_907.wav,0,pill,1356,19,2,Japanese,m,1,0.1,4.68553811,1.36905488
KES,39,0,2024-07-18T12:13:33.647Z,english_907.wav,0,pill,1356,19,2,Japanese,m,2,0.2,30.1589282,0.80069783
KES,39,0,2024-07-18T12:13:33.647Z,english_907.wav,0,pill,1356,19,2,Japanese,m,3,0.3,11.7494605,1.02399961
KES,39,0,2024-07-18T12:13:33.647Z,english_907.wav,0,pill,1356,19,2,Japanese,m,4,0.4,14.6843787,1.6109915
KES,39,0,2024-07-18T12:13:33.647Z,english_907.wav,0,pill,1356,19,2,Japanese,m,5,0.5,0.0551600348,0.4113542
KES,39,0,2024-07-18T12:13:33.647Z,english_907.wav,0,pill,1356,19,2,Japanese,m,6,0.6,21.8487989,1.88718243
KES,39,0,2024-07-18T12:13:33.647Z,english_907.wav,0,pill,1356,19,2,Japanese,m,7,0.7,0.876146135,1.82050398
KES,39,0,2024-07-18T12:13:33.647Z,english_907.wav,0,pill,1356,19,2,Japanese,m,8,0.8,57.0084802,0.47994227
KES,39,0,2024-07-18T12:13:33.647Z,english_907.wav,0,pill,1356,19,2,Japanese,m,9,0.9,5.30429591,1.40201797
KES,39,0,2024-07-18T12:13:33.647Z,english_907.wav,0,pill,1356,19,2,Japanese,m,10,1.0,17.8166491,1.67172578
KES,39,0,2024-07-18T12:13:33.647Z,english_907.wav,0,pill,1356,19,2,Japanese,m,11,1.09391667,-29.3939822,0.75533172
KES,40,0,2024-07-18T12:13:33.647Z,english_101.wav,0,pill,2847,19,2,Japanese,m,0,0.0,54.85574333,0.56749545
KES,40,0,2024-07-18T12:13:33.647Z,english_101.wav,0,pill,2847,19,2,Japanese,m,1,0.1,0.70808879,1.44378271
KES,40,0,2024-07-18T12:13:33.647Z,english_101.wav,0,pill,2847,19,2,Japanese,m,2,0.2,-80.1183649,0.79216525
KES,40,0,2024-07-18T12:13:33.647Z,english_101.wav,0,pill,2847,19,2,Japanese,m,3,0.3,41.22016504,0.86392682
KES,40,0,2024-07-18T12:13:33.647Z,english_101.wav,0,pill,2847,19,2,Japanese,m,4,0.4,-9.97599034,0.6963626
KES,40,0,2024-07-18T12:13:33.647Z,english_101.wav,0,pill,2847,19,2,Japanese,m,5,0.5,90.56668979,0.60530731
KES,40,0,2024-07-18T12:13:33.647Z,english_101.wav,0,pill,2847,19,2,Japanese,m,6,0.6,-60.35193263,1.66078928
KES,40,0,2024-07-18T12:13:33.647Z,english_101.wav,0,pill,2847,19,2,Japanese,m,7,0.7,61.72690789,1.6801741
KES,40,0,2024-07-18T12:13:33.647Z,english_101.wav,0,pill,2847,19,2,Japanese,m,8,0.8,88.15092983,1.39430446
KES,40,0,2024-07-18T12:13:33.647Z,english_101.wav,0,pill,2847,19,2,Japanese,m,9,0.9,40.7935106,0.81152744
KES,40,0,2024-07-18T12:13:33.647Z,english_101.wav,0,pill,2847,19,2,Japanese,m,10,1.0,84.72598744,0.36950081
KES,40,0,2024-07-18T12:13:33.647Z,english_101.wav,0,pill,2847,19,2,Japanese,m,11,1.09391667,-47.25265497,1.44384249
KES,41,0,2024-07-18T12:13:33.647Z,english_698.wav,0,peel,2102,19,2,Japanese,m,0,0.0,-98.49976842,0.43179997
KES,41,0,2024-07-18T12:13:33.647Z,english_698.wav,0,peel,2102,19,2,Japanese,m,1,0.1,97.00885889,1.41337894
KES,41,0,2024-07-18T12:13:33.647Z,english_698.wav,0,peel,2102,19,2,Japanese,m,2,0.2,54.87082892,1.17184634
KES,41,0,2024-07-18T12:13:33.647Z,english_698.wav,0,peel,2102,19,2,Japanese,m,3,0.3,-24.25113459,0.60534302
KES,41,0,2024-07-18T12:13:33.647Z,english_698.wav,0,peel,2102,19,2,Japanese,m,4,0.4,-19.41361559,1.24831976
KES,41,0,2024-07-18T12:13:33.647Z,english_698.wav,0,peel,2102,19,2,Japanese,m,5,0.5,38.63477703,1.39113252
KES,41,0,2024-07-18T12:13:33.647Z,english_698.wav,0,peel,2102,19,2,Japanese,m,6,0.6,-31.74740997,1.28562889
KES,41,0,2024-07-18T12:13:33.647Z,english_698.wav,0,peel,2102,19,2,Japanese,m,7,0.7,75.16156156,1.10433052
KES,41,0,2024-07-18T12:13:33.647Z,english_698.wav,0,peel,2102,19,2,Japanese,m,8,0.8,41.06057046,1.08053659
KES,41,0,2024-07-18T12:13:33.647Z,english_698.wav,0,peel,2102,19,2,Japanese,m,9,0.9,-30.65402234,1.52582563
KES,41,0,2024-07-18T12:13:33.647Z,english_698.wav,0,peel,2102,19,2,Japanese,m,10,1.0,-13.5987644,0.95244876
KES,41,0,2024-07-18T12:13:33.647Z,english_698.wav,0,peel,2102,19,2,Japanese,m,11,1.09391667,-10.25655958,1.39681887
KES,42,0,2024-07-18T12:13:33.647Z,english_953.wav,0,pill,1871,19,2,Japanese,m,0,0.0,66.99743889,1.15286604
KES,42,0,2024-07-18T12:13:33.647Z,english_953.wav,0,pill,1871,19,2,Japanese,m,1,0.1,-76.84252631,1.84100888
KES,42,0,2024-07-18T12:13:33.647Z,english_953.wav,0,pill,1871,19,2,Japanese,m,2,0.2,-45.49309493,0.29896559
KES,42,0,2024-07-18T12:13:33.647Z,english_953.wav,0,pill,1871,19,2,Japanese,m,3,0.3,55.46461894,0.47017465
KES,42,0,2024-07-18T12:13:33.647Z,english_953.wav,0,pill,1871,19,2,Japanese,m,4,0.4,81.99201124,0.15248902
KES,42,0,2024-07-18T12:13:33.647Z,english_953.wav,0,pill,1871,19,2,Japanese,m,5,0.5,1.34607331,1.13290225
KES,42,0,2024-07-18T12:13:33.647Z,english_953.wav,0,pill,1871,19,2,Japanese,m,6,0.6,50.45029952,0.34595451
KES,42,0,2024-07-18T12:13:33.647Z,english_953.wav,0,pill,1871,19,2,Japanese,m,7,0.7,74.64893983,0.44244875
KES,42,0,2024-07-18T12:13:33.647Z,english_953.wav,0,pill,1871,19,2,Japanese,m,8,0.8,26.00448077,0.8076701
KES,42,0,2024-07-18T12:13:33.647Z,english_953.wav,0,pill,1871,19,2,Japanese,m,9,0.9,-99.39894728,1.93347558
KES,42,0,2024-07-18T12:13:33.647Z,english_953.wav,0,pill,1871,19,2,Japanese,m,10,1.0,-16.71063882,1.69365872
KES,42,0,2024-07-18T12:13:33.647Z,english_953.wav,0,pill,1871,19,2,Japanese,m,11,1.09391667,53.60095231,1.16220812
KES,43,0,2024-07-18T12:13:33.647Z,english_617.wav,0,pill,3369,19,2,Japanese,m,0,0.0,10.93227953,0.72387338
KES,43,0,2024-07-18T12:13:33.647Z,english_617.wav,0,pill,3369,19,2,Japanese,m,1,0.1,-59.2478864,1.78831672
KES,43,0,2024-07-18T12:13:33.647Z,english_617.wav,0,pill,3369,19,2,Japanese,m,2,0.2,-60.98157443,0.6179467
KES,43,0,2024-07-18T12:13:33.647Z,english_617.wav,0,pill,3369,19,2,Japanese,m,3,0.3,-98.20098641,0.63320585
KES,43,0,2024-07-18T12:13:33.647Z,english_617.wav,0,pill,3369,19,2,Japanese,m,4,0.4,-27.56878422,0.42531965
KES,43,0,2024-07-18T12:13:33.647Z,english_617.wav,0,pill,3369,19,2,Japanese,m,5,0.5,-16.62879698,1.05036122
KES,43,0,2024-07-18T12:13:33.647Z,english_617.wav,0,pill,3369,19,2,Japanese,m,6,0.6,-85.18504197,1.22550457
KES,43,0,2024-07-18T12:13:33.647Z,english_617.wav,0,pill,3369,19,2,Japanese,m,7,0.7,65.935133,0.87185678
KES,43,0,2024-07-18T12:13:33.647Z,english_617.wav,0,pill,3369,19,2,Japanese,m,8,0.8,-49.35852621,1.19822477
KES,43,0,2024-07-18T12:13:33.647Z,english_617.wav,0,pill,3369,19,2,Japanese,m,9,0.9,-79.82823856,0.11933649
KES,43,0,2024-07-18T12:13:33.647Z,english_617.wav,0,pill,3369,19,2,Japanese,m,10,1.0,-43.72382152,1.37889257
KES,43,0,2024-07-18T12:13:33.647Z,english_617.wav,0,pill,3369,19,2,Japanese,m,11,1.09391667,-81.76136352,0.25359551
KES,44,0,2024-07-18T12:13:33.647Z,english_459.wav,0,pill,4414,19,2,Japanese,m,0,0.0,18.44381796,0.62620118
KES,44,0,2024-07-18T12:13:33.647Z,english_459.wav,0,pill,4414,19,2,Japanese,m,1,0.1,46.92875809,1.02677372
KES,44,0,2024-07-18T12:13:33.647Z,english_459.wav,0,pill,4414,19,2,Japanese,m,2,0.2,-3.83763253,0.887778
KES,44,0,2024-07-18T12:13:33.647Z,english_459.wav,0,pill,4414,19,2,Japanese,m,3,0.3,-48.73372346,0.9749461
KES,44,0,2024-07-18T12:13:33.647Z,english_459.wav,0,pill,4414,19,2,Japanese,m,4,0.4,-14.92000294,0.21389959
KES,44,0,2024-07-18T12:13:33.647Z,english_459.wav,0,pill,4414,19,2,Japanese,m,5,0.5,80.1348202,0.5331643
KES,44,0,2024-07-18T12:13:33.647Z,english_459.wav,0,pill,4414,19,2,Japanese,m,6,0.6,-86.26167397,0.89101651
KES,44,0,2024-07-18T12:13:33.647Z,english_459.wav,0,pill,4414,19,2,Japanese,m,7,0.7,-1.56579515,1.30262719
KES,44,0,2024-07-18T12:13:33.647Z,english_459.wav,0,pill,4414,19,2,Japanese,m,8,0.8,-19.43568929,1.62880583
KES,44,0,2024-07-18T12:13:33.647Z,english_459.wav,0,pill,4414,19,2,Japanese,m,9,0.9,7.94105636,1.73371658
KES,44,0,2024-07-18T12:13:33.647Z,english_459.wav,0,pill,4414,19,2,Japanese,m,10,1.0,85.15006258,0.16404372
KES,44,0,2024-07-18T12:13:33.647Z,english_459.wav,0,pill,4414,19,2,Japanese,m,11,1.09391667,-33.12026838,1.85143865
KES,45,0,2024-07-18T12:13:33.647Z,english_327.wav,0,pill,1334,19,2,Japanese,m,0,0.0,68.47046609,1.54763433
KES,45,0,2024-07-18T12:13:33.647Z,english_327.wav,0,pill,1334,19,2,Japanese,m,1,0.1,85.76832326,1.83635771
KES,45,0,2024-07-18T12:13:33.647Z,english_327.wav,0,pill,1334,19,2,Japanese,m,2,0.2,-75.98339762,0.3050113
KES,45,0,2024-07-18T12:13:33.647Z,english_327.wav,0,pill,1334,19,2,Japanese,m,3,0.3,74.12796235,0.70474203
KES,45,0,2024-07-18T12:13:33.647Z,english_327.wav,0,pill,1334,19,2,Japanese,m,4,0.4,11.46376172,0.8224078
KES,45,0,2024-07-18T12:13:33.647Z,english_327.wav,0,pill,1334,19,2,Japanese,m,5,0.5,-5.50560149,0.00526041
KES,45,0,2024-07-18T12:13:33.647Z,english_327.wav,0,pill,1334,19,2,Japanese,m,6,0.6,27.1504605,0.35213553
KES,45,0,2024-07-18T12:13:33.647Z,english_327.wav,0,pill,1334,19,2,Japanese,m,7,0.7,27.2911911,1.7713752
KES,45,0,2024-07-18T12:13:33.647Z,english_327.wav,0,pill,1334,19,2,Japanese,m,8,0.8,-20.36547399,1.08380037
KES,45,0,2024-07-18T12:13:33.647Z,english_327.wav,0,pill,1334,19,2,Japanese,m,9,0.9,-51.25849452,0.55113913
KES,45,0,2024-07-18T12:13:33.647Z,english_327.wav,0,pill,1334,19,2,Japanese,m,10,1.0,79.11844333,0.59854608
KES,45,0,2024-07-18T12:13:33.647Z,english_327.wav,0,pill,1334,19,2,Japanese,m,11,1.09391667,-53.98607147,1.65860026
KES,46,0,2024-07-18T12:13:33.647Z,english_109.wav,0,peel,2813,19,2,Japanese,m,0,0.0,-85.35755776,0.86429356
KES,46,0,2024-07-18T12:13:33.647Z,english_109.wav,0,peel,2813,19,2,Japanese,m,1,0.1,24.87794389,1.54320329
KES,46,0,2024-07-18T12:13:33.647Z,english_109.wav,0,peel,2813,19,2,Japanese,m,2,0.2,88.66282845,0.73186937
KES,46,0,2024-07-18T12:13:33.647Z,english_109.wav,0,peel,2813,19,2,Japanese,m,3,0.3,53.91159302,0.759779
KES,46,0,2024-07-18T12:13:33.647Z,english_109.wav,0,peel,2813,19,2,Japanese,m,4,0.4,-2.76092074,1.4946261
KES,46,0,2024-07-18T12:13:33.647Z,english_109.wav,0,peel,2813,19,2,Japanese,m,5,0.5,79.99538148,1.48350308
KES,46,0,2024-07-18T12:13:33.647Z,english_109.wav,0,peel,2813,19,2,Japanese,m,6,0.6,-42.31150981,1.90894472
KES,46,0,2024-07-18T12:13:33.647Z,english_109.wav,0,peel,2813,19,2,Japanese,m,7,0.7,-5.15781481,0.02998442
KES,46,0,2024-07-18T12:13:33.647Z,english_109.wav,0,peel,2813,19,2,Japanese,m,8,0.8,31.3978044,0.89047781
KES,46,0,2024-07-18T12:13:33.647Z,english_109.wav,0,peel,2813,19,2,Japanese,m,9,0.9,46.94636463,1.05504638
KES,46,0,2024-07-18T12:13:33.647Z,english_109.wav,0,peel,2813,19,2,Japanese,m,10,1.0,63.69340257,0.96709735
KES,46,0,2024-07-18T12:13:33.647Z,english_109.wav,0,peel,2813,19,2,Japanese,m,11,1.09391667,10.97812261,0.43676298
KES,47,0,2024-07-18T12:13:33.647Z,english_78.wav,0,pill,1639,19,2,Japanese,m,0,0.0,42.39797886,1.50616235
KES,47,0,2024-07-18T12:13:33.647Z,english_78.wav,0,pill,1639,19,2,Japanese,m,1,0.1,-36.07857938,0.54303847
KES,47,0,2024-07-18T12:13:33.647Z,english_78.wav,0,pill,1639,19,2,Japanese,m,2,0.2,-66.49689514,0.95347503
KES,47,0,2024-07-18T12:13:33.647Z,english_78.wav,0,pill,1639,19,2,Japanese,m,3,0.3,52.41013344,1.62003629
KES,47,0,2024-07-18T12:13:33.647Z,english_78.wav,0,pill,1639,19,2,Japanese,m,4,0.4,60.05478812,1.61647939
KES,47,0,2024-07-18T12:13:33.647Z,english_78.wav,0,pill,1639,19,2,Japanese,m,5,0.5,-4.62250103,0.17410512
KES,47,0,2024-07-18T12:13:33.647Z,english_78.wav,0,pill,1639,19,2,Japanese,m,6,0.6,-80.28349147,0.43268803
KES,47,0,2024-07-18T12:13:33.647Z,english_78.wav,0,pill,1639,19,2,Japanese,m,7,0.7,83.57222547,0.08104601
KES,47,0,2024-07-18T12:13:33.647Z,english_78.wav,0,pill,1639,19,2,Japanese,m,8,0.8,7.4922518,1.61489209
KES,47,0,2024-07-18T12:13:33.647Z,english_78.wav,0,pill,1639,19,2,Japanese,m,9,0.9,-18.57317231,0.08012208
KES,47,0,2024-07-18T12:13:33.647Z,english_78.wav,0,pill,1639,19,2,Japanese,m,10,1.0,-60.66079691,0.76901301
KES,47,0,2024-07-18T12:13:33.647Z,english_78.wav,0,pill,1639,19,2,Japanese,m,11,1.09391667,37.22949989,1.86046092
KES,48,0,2024-07-18T12:13:33.647Z,english_989.wav,0,peel,2121,19,2,Japanese,m,0,0.0,82.98869891,0.1174877
KES,48,0,2024-07-18T12:13:33.647Z,english_989.wav,0,peel,2121,19,2,Japanese,m,1,0.1,24.01311559,0.45178594
KES,48,0,2024-07-18T12:13:33.647Z,english_989.wav,0,peel,2121,19,2,Japanese,m,2,0.2,71.48528654,1.23946025
KES,48,0,2024-07-18T12:13:33.647Z,english_989.wav,0,peel,2121,19,2,Japanese,m,3,0.3,82.44483013,1.76656678
KES,48,0,2024-07-18T12:13:33.647Z,english_989.wav,0,peel,2121,19,2,Japanese,m,4,0.4,98.48869079,0.06101367
KES,48,0,2024-07-18T12:13:33.647Z,english_989.wav,0,peel,2121,19,2,Japanese,m,5,0.5,52.58496553,0.35631173
KES,48,0,2024-07-18T12:13:33.647Z,english_989.wav,0,peel,2121,19,2,Japanese,m,6,0.6,-12.54848129,0.41315994
KES,48,0,2024-07-18T12:13:33.647Z,english_989.wav,0,peel,2121,19,2,Japanese,m,7,0.7,-85.91000404,1.50303793
KES,48,0,2024-07-18T12:13:33.647Z,english_989.wav,0,peel,2121,19,2,Japanese,m,8,0.8,-71.42298859,0.56943281
KES,48,0,2024-07-18T12:13:33.647Z,english_989.wav,0,peel,2121,19,2,Japanese,m,9,0.9,25.94025435,1.73902477
KES,48,0,2024-07-18T12:13:33.647Z,english_989.wav,0,peel,2121,19,2,Japanese,m,10,1.0,87.85887099,1.10677421
KES,48,0,2024-07-18T12:13:33.647Z,english_989.wav,0,peel,2121,19,2,Japanese,m,11,1.09391667,-0.32541585,1.65366883
KES,49,0,2024-07-18T12:13:33.647Z,english_892.wav,0,peel,2814,19,2,Japanese,m,0,0.0,-38.86767844,1.06552273
KES,49,0,2024-07-18T12:13:33.647Z,english_892.wav,0,peel,2814,19,2,Japanese,m,1,0.1,29.31331075,1.21891825
KES,49,0,2024-07-18T12:13:33.647Z,english_892.wav,0,peel,2814,19,2,Japanese,m,2,0.2,37.64120423,0.29574975
KES,49,0,2024-07-18T12:13:33.647Z,english_892.wav,0,peel,2814,19,2,Japanese,m,3,0.3,25.96997634,0.59708479
KES,49,0,2024-07-18T12:13:33.647Z,english_892.wav,0,peel,2814,19,2,Japanese,m,4,0.4,25.06772021,1.90102073
KES,49,0,2024-07-18T12:13:33.647Z,english_892.wav,0,peel,2814,19,2,Japanese,m,5,0.5,19.15395825,0.08656429
KES,49,0,2024-07-18T12:13:33.647Z,english_892.wav,0,peel,2814,19,2,Japanese,m,6,0.6,96.7473058,1.91022134
KES,49,0,2024-07-18T12:13:33.647Z,english_892.wav,0,peel,2814,19,2,Japanese,m,7,0.7,-43.25342834,0.18523015
KES,49,0,2024-07-18T12:13:33.647Z,english_892.wav,0,peel,2814,19,2,Japanese,m,8,0.8,-30.92807771,0.17424813
KES,49,0,2024-07-18T12:13:33.647Z,english_892.wav,0,peel,2814,19,2,Japanese,m,9,0.9,-18.81814059,1.10584125
KES,49,0,2024-07-18T12:13:33.647Z,english_892.wav,0,peel,2814,19,2,Japanese,m,10,1.0,21.2135068,1.16786025
KES,49,0,2024-07-18T12:13:33.647Z,english_892.wav,0,peel,2814,19,2,Japanese,m,11,1.09391667,36.95597597,1.53062308
KES,50,1,2024-07-18T12:18:34.548Z,english_242.wav,0,pill,10117,19,2,Japanese,m,0,0.0,-30.80596233,1.80753385
KES,50,1,2024-07-18T12:18:34.548Z,english_242.wav,0,pill,10117,19,2,Japanese,m,1,0.1,81.43519329,0.97833747
KES,50,1,2024-07-18T12:18:34.548Z,english_242.wav,0,pill,10117,19,2,Japanese,m,2,0.2,0.15400576,1.3926845
KES,50,1,2024-07-18T12:18:34.548Z,english_242.wav,0,pill,10117,19,2,Japanese,m,3,0.3,-28.81783402,1.42545381
KES,50,1,2024-07-18T12:18:34.548Z,english_242.wav,0,pill,10117,19,2,Japanese,m,4,0.4,-61.37671682,0.1849233
KES,50,1,2024-07-18T12:18:34.548Z,english_242.wav,0,pill,10117,19,2,Japanese,m,5,0.5,91.85520167,1.35548931
KES,50,1,2024-07-18T12:18:34.548Z,english_242.wav,0,pill,10117,19,2,Japanese,m,6,0.6,-31.54320731,1.15661389
KES,50,1,2024-07-18T12:18:34.548Z,english_242.wav,0,pill,10117,19,2,Japanese,m,7,0.7,-13.97670537,1.66148537
KES,50,1,2024-07-18T12:18:34.548Z,english_242.wav,0,pill,10117,19,2,Japanese,m,8,0.8,70.42044267,1.4780344
KES,50,1,2024-07-18T12:18:34.548Z,english_242.wav,0,pill,10117,19,2,Japanese,m,9,0.9,-90.04203145,1.37692841
KES,50,1,2024-07-18T12:18:34.548Z,english_242.wav,0,pill,10117,19,2,Japanese,m,10,1.0,-39.83004077,0.38948234
KES,50,1,2024-07-18T12:18:34.548Z,english_242.wav,0,pill,10117,19,2,Japanese,m,11,1.09391667,-14.25442636,1.25473686
KES,51,1,2024-07-18T12:18:34.548Z,english_56.wav,0,pill,1157,19,2,Japanese,m,0,0.0,94.56130546,1.78248544
KES,51,1,2024-07-18T12:18:34.548Z,english_56.wav,0,pill,1157,19,2,Japanese,m,1,0.1,98.82920217,0.32774506
KES,51,1,2024-07-18T12:18:34.548Z,english_56.wav,0,pill,1157,19,2,Japanese,m,2,0.2,-30.68243792,0.4010142
KES,51,1,2024-07-18T12:18:34.548Z,english_56.wav,0,pill,1157,19,2,Japanese,m,3,0.3,-48.75978293,0.84475133
KES,51,1,2024-07-18T12:18:34.548Z,english_56.wav,0,pill,1157,19,2,Japanese,m,4,0.4,-79.08505246,1.07558594
KES,51,1,2024-07-18T12:18:34.548Z,english_56.wav,0,pill,1157,19,2,Japanese,m,5,0.5,18.07000914,1.2644329
KES,51,1,2024-07-18T12:18:34.548Z,english_56.wav,0,pill,1157,19,2,Japanese,m,6,0.6,57.19590548,1.63811398
KES,51,1,2024-07-18T12:18:34.548Z,english_56.wav,0,pill,1157,19,2,Japanese,m,7,0.7,6.7178476,1.3488209
KES,51,1,2024-07-18T12:18:34.548Z,english_56.wav,0,pill,1157,19,2,Japanese,m,8,0.8,-59.05070955,0.73862335
KES,51,1,2024-07-18T12:18:34.548Z,english_56.wav,0,pill,1157,19,2,Japanese,m,9,0.9,-76.10802368,0.85331353
KES,51,1,2024-07-18T12:18:34.548Z,english_56.wav,0,pill,1157,19,2,Japanese,m,10,1.0,-28.87948521,1.24951522
KES,51,1,2024-07-18T12:18:34.548Z,english_56.wav,0,pill,1157,19,2,Japanese,m,11,1.09391667,8.04938486,0.68295905
KES,52,1,2024-07-18T12:18:34.548Z,english_781.wav,0,pill,1185,19,2,Japanese,m,0,0.0,13.49860993,0.0422445
KES,52,1,2024-07-18T12:18:34.548Z,english_781.wav,0,pill,1185,19,2,Japanese,m,1,0.1,78.16193023,0.76912714
KES,52,1,2024-07-18T12:18:34.548Z,english_781.wav,0,pill,1185,19,2,Japanese,m,2,0.2,43.40540276,1.16484067
KES,52,1,2024-07-18T12:18:34.548Z,english_781.wav,0,pill,1185,19,2,Japanese,m,3,0.3,44.39381188,0.51341231
KES,52,1,2024-07-18T12:18:34.548Z,english_781.wav,0,pill,1185,19,2,Japanese,m,4,0.4,1.19618008,0.61057315
KES,52,1,2024-07-18T12:18:34.548Z,english_781.wav,0,pill,1185,19,2,Japanese,m,5,0.5,97.39796145,1.22595164
KES,52,1,2024-07-18T12:18:34.548Z,english_781.wav,0,pill,1185,19,2,Japanese,m,6,0.6,-80.74515196,0.0959771
KES,52,1,2024-07-18T12:18:34.548Z,english_781.wav,0,pill,1185,19,2,Japanese,m,7,0.7,24.03355654,0.86869214
KES,52,1,2024-07-18T12:18:34.548Z,english_781.wav,0,pill,1185,19,2,Japanese,m,8,0.8,-69.35175607,1.17997392
KES,52,1,2024-07-18T12:18:34.548Z,english_781.wav,0,pill,1185,19,2,Japanese,m,9,0.9,69.20236756,1.93834455
KES,52,1,2024-07-18T12:18:34.548Z,english_781.wav,0,pill,1185,19,2,Japanese,m,10,1.0,35.51398516,0.60620459
KES,52,1,2024-07-18T12:18:34.548Z,english_781.wav,0,pill,1185,19,2,Japanese,m,11,1.09391667,-53.23346631,1.46133915
KES,53,1,2024-07-18T12:18:34.548Z,english_423.wav,0,peel,1557,19,2,Japanese,m,0,0.0,14.97587968,1.13809389
KES,53,1,2024-07-18T12:18:34.548Z,english_423.wav,0,peel,1557,19,2,Japanese,m,1,0.1,-34.63148268,0.13664932
KES,53,1,2024-07-18T12:18:34.548Z,english_423.wav,0,peel,1557,19,2,Japanese,m,2,0.2,-90.26081714,1.51640257
KES,53,1,2024-07-18T12:18:34.548Z,english_423.wav,0,peel,1557,19,2,Japanese,m,3,0.3,-14.58803961,0.57152823
KES,53,1,2024-07-18T12:18:34.548Z,english_423.wav,0,peel,1557,19,2,Japanese,m,4,0.4,-7.22387104,1.59105038
KES,53,1,2024-07-18T12:18:34.548Z,english_423.wav,0,peel,1557,19,2,Japanese,m,5,0.5,35.53049233,1.75239153
KES,53,1,2024-07-18T12:18:34.548Z,english_423.wav,0,peel,1557,19,2,Japanese,m,6,0.6,25.60413331,0.92175269
KES,53,1,2024-07-18T12:18:34.548Z,english_423.wav,0,peel,1557,19,2,Japanese,m,7,0.7,-14.11667201,0.83955403
KES,53,1,2024-07-18T12:18:34.548Z,english_423.wav,0,peel,1557,19,2,Japanese,m,8,0.8,-92.20277353,1.39265863
KES,53,1,2024-07-18T12:18:34.548Z,english_423.wav,0,peel,1557,19,2,Japanese,m,9,0.9,-87.07796468,1.53990744
KES,53,1,2024-07-18T12:18:34.548Z,english_423.wav,0,peel,1557,19,2,Japanese,m,10,1.0,29.59041747,0.81858977
KES,53,1,2024-07-18T12:18:34.548Z,english_423.wav,0,peel,1557,19,2,Japanese,m,11,1.09391667,-44.50154925,1.48480195
KES,54,1,2024-07-18T12:18:34.548Z,english_149.wav,0,peel,4908,19,2,Japanese,m,0,0.0,-53.20573735,0.95670134
KES,54,1,2024-07-18T12:18:34.548Z,english_149.wav,0,peel,4908,19,2,Japanese,m,1,0.1,-90.4921868,0.5519459
KES,54,1,2024-07-18T12:18:34.548Z,english_149.wav,0,peel,4908,19,2,Japanese,m,2,0.2,-21.57127114,0.68228705
KES,54,1,2024-07-18T12:18:34.548Z,english_149.wav,0,peel,4908,19,2,Japanese,m,3,0.3,-29.49661343,0.40950451
KES,54,1,2024-07-18T12:18:34.548Z,english_149.wav,0,peel,4908,19,2,Japanese,m,4,0.4,-77.75712455,1.98655192
KES,54,1,2024-07-18T12:18:34.548Z,english_149.wav,0,peel,4908,19,2,Japanese,m,5,0.5,-23.65011592,0.22349442
KES,54,1,2024-07-18T12:18:34.548Z,english_149.wav,0,peel,4908,19,2,Japanese,m,6,0.6,-4.31853851,1.34559787
KES,54,1,2024-07-18T12:18:34.548Z,english_149.wav,0,peel,4908,19,2,Japanese,m,7,0.7,95.2447513,0.78513236
KES,54,1,2024-07-18T12:18:34.548Z,english_149.wav,0,peel,4908,19,2,Japanese,m,8,0.8,-64.13043019,1.81674813
KES,54,1,2024-07-18T12:18:34.548Z,english_149.wav,0,peel,4908,19,2,Japanese,m,9,0.9,20.09083708,1.85324621
KES,54,1,2024-07-18T12:18:34.548Z,english_149.wav,0,peel,4908,19,2,Japanese,m,10,1.0,47.07706549,1.9199937
KES,54,1,2024-07-18T12:18:34.548Z,english_149.wav,0,peel,4908,19,2,Japanese,m,11,1.09391667,-54.30871038,0.6097093
KES,55,1,2024-07-18T12:18:34.548Z,english_227.wav,0,pill,943,19,2,Japanese,m,0,0.0,87.02540196,1.45120071
KES,55,1,2024-07-18T12:18:34.548Z,english_227.wav,0,pill,943,19,2,Japanese,m,1,0.1,-87.16855408,1.99718195
KES,55,1,2024-07-18T12:18:34.548Z,english_227.wav,0,pill,943,19,2,Japanese,m,2,0.2,13.6128173,0.6126104
KES,55,1,2024-07-18T12:18:34.548Z,english_227.wav,0,pill,943,19,2,Japanese,m,3,0.3,25.59592298,0.97530447
KES,55,1,2024-07-18T12:18:34.548Z,english_227.wav,0,pill,943,19,2,Japanese,m,4,0.4,3.06661623,1.74861281
KES,55,1,2024-07-18T12:18:34.548Z,english_227.wav,0,pill,943,19,2,Japanese,m,5,0.5,-6.41872275,1.95931784
KES,55,1,2024-07-18T12:18:34.548Z,english_227.wav,0,pill,943,19,2,Japanese,m,6,0.6,-40.97922684,1.44262054
KES,55,1,2024-07-18T12:18:34.548Z,english_227.wav,0,pill,943,19,2,Japanese,m,7,0.7,-51.74632522,0.76385193
KES,55,1,2024-07-18T12:18:34.548Z,english_227.wav,0,pill,943,19,2,Japanese,m,8,0.8,-35.50720635,0.83123806
KES,55,1,2024-07-18T12:18:34.548Z,english_227.wav,0,pill,943,19,2,Japanese,m,9,0.9,-52.46041148,1.0121191
KES,55,1,2024-07-18T12:18:34.548Z,english_227.wav,0,pill,943,19,2,Japanese,m,10,1.0,-5.55255579,1.39124165
KES,55,1,2024-07-18T12:18:34.548Z,english_227.wav,0,pill,943,19,2,Japanese,m,11,1.09391667,92.65490635,1.37791309
KES,56,1,2024-07-18T12:18:34.548Z,english_155.wav,0,peel,4193,19,2,Japanese,m,0,0.0,21.6550533,0.01570598
KES,56,1,2024-07-18T12:18:34.548Z,english_155.wav,0,peel,4193,19,2,Japanese,m,1,0.1,-0.0016794128,1.76749017
KES,56,1,2024-07-18T12:18:34.548Z,english_155.wav,0,peel,4193,19,2,Japanese,m,2,0.2,-77.5292073,1.37583653
KES,56,1,2024-07-18T12:18:34.548Z,english_155.wav,0,peel,4193,19,2,Japanese,m,3,0.3,-44.9313065,0.19365623
KES,56,1,2024-07-18T12:18:34.548Z,english_155.wav,0,peel,4193,19,2,Japanese,m,4,0.4,-33.7969309,1.34202306
KES,56,1,2024-07-18T12:18:34.548Z,english_155.wav,0,peel,4193,19,2,Japanese,m,5,0.5,46.2285188,1.87351349
KES,56,1,2024-07-18T12:18:34.548Z,english_155.wav,0,peel,4193,19,2,Japanese,m,6,0.6,93.0191022,1.89118344
KES,56,1,2024-07-18T12:18:34.548Z,english_155.wav,0,peel,4193,19,2,Japanese,m,7,0.7,80.6417886,1.25713993
KES,56,1,2024-07-18T12:18:34.548Z,english_155.wav,0,peel,4193,19,2,Japanese,m,8,0.8,-76.4782648,1.84259347
KES,56,1,2024-07-18T12:18:34.548Z,english_155.wav,0,peel,4193,19,2,Japanese,m,9,0.9,-35.964927,0.04007403
KES,56,1,2024-07-18T12:18:34.548Z,english_155.wav,0,peel,4193,19,2,Japanese,m,10,1.0,90.375739,1.64837519
KES,56,1,2024-07-18T12:18:34.548Z,english_155.wav,0,peel,4193,19,2,Japanese,m,11,1.09391667,66.476003,1.87071869
KES,57,1,2024-07-18T12:18:34.548Z,english_376.wav,0,pill,3320,19,2,Japanese,m,0,0.0,-22.52600132,1.13600224
KES,57,1,2024-07-18T12:18:34.548Z,english_376.wav,0,pill,3320,19,2,Japanese,m,1,0.1,29.36992487,0.82385101
KES,57,1,2024-07-18T12:18:34.548Z,english_376.wav,0,pill,3320,19,2,Japanese,m,2,0.2,26.35975313,0.21812262
KES,57,1,2024-07-18T12:18:34.548Z,english_376.wav,0,pill,3320,19,2,Japanese,m,3,0.3,22.46882007,1.22545345
KES,57,1,2024-07-18T12:18:34.548Z,english_376.wav,0,pill,3320,19,2,Japanese,m,4,0.4,-26.33536786,0.68217052
KES,57,1,2024-07-18T12:18:34.548Z,english_376.wav,0,pill,3320,19,2,Japanese,m,5,0.5,-27.32741376,1.80813558
KES,57,1,2024-07-18T12:18:34.548Z,english_376.wav,0,pill,3320,19,2,Japanese,m,6,0.6,4.49813396,0.4048305
KES,57,1,2024-07-18T12:18:34.548Z,english_376.wav,0,pill,3320,19,2,Japanese,m,7,0.7,-47.02321994,1.72982043
KES,57,1,2024-07-18T12:18:34.548Z,english_376.wav,0,pill,3320,19,2,Japanese,m,8,0.8,-61.17584125,0.03977306
KES,57,1,2024-07-18T12:18:34.548Z,english_376.wav,0,pill,3320,19,2,Japanese,m,9,0.9,-52.37587082,0.16832119
KES,57,1,2024-07-18T12:18:34.548Z,english_376.wav,0,pill,3320,19,2,Japanese,m,10,1.0,53.16500273,1.81503166
KES,57,1,2024-07-18T12:18:34.548Z,english_376.wav,0,pill,3320,19,2,Japanese,m,11,1.09391667,31.59148057,0.61812074
KES,58,1,2024-07-18T12:18:34.548Z,english_885.wav,0,peel,1738,19,2,Japanese,m,0,0.0,54.55471531,1.33761042
KES,58,1,2024-07-18T12:18:34.548Z,english_885.wav,0,peel,1738,19,2,Japanese,m,1,0.1,-9.45538995,0.16839263
KES,58,1,2024-07-18T12:18:34.548Z,english_885.wav,0,peel,1738,19,2,Japanese,m,2,0.2,51.71669589,0.15282828
KES,58,1,2024-07-18T12:18:34.548Z,english_885.wav,0,peel,1738,19,2,Japanese,m,3,0.3,35.30778931,0.93528856
KES,58,1,2024-07-18T12:18:34.548Z,english_885.wav,0,peel,1738,19,2,Japanese,m,4,0.4,20.62870104,0.42450529
KES,58,1,2024-07-18T12:18:34.548Z,english_885.wav,0,peel,1738,19,2,Japanese,m,5,0.5,45.97492152,1.13086713
KES,58,1,2024-07-18T12:18:34.548Z,english_885.wav,0,peel,1738,19,2,Japanese,m,6,0.6,57.72908242,1.16302136
KES,58,1,2024-07-18T12:18:34.548Z,english_885.wav,0,peel,1738,19,2,Japanese,m,7,0.7,-7.90762664,1.12991064
KES,58,1,2024-07-18T12:18:34.548Z,english_885.wav,0,peel,1738,19,2,Japanese,m,8,0.8,-27.43803549,0.98725245
KES,58,1,2024-07-18T12:18:34.548Z,english_885.wav,0,peel,1738,19,2,Japanese,m,9,0.9,-45.75999486,0.61152154
KES,58,1,2024-07-18T12:18:34.548Z,english_885.wav,0,peel,1738,19,2,Japanese,m,10,1.0,65.06809526,0.86912983
KES,58,1,2024-07-18T12:18:34.548Z,english_885.wav,0,peel,1738,19,2,Japanese,m,11,1.09391667,85.31433116,0.92468658
KES,59,1,2024-07-18T12:18:34.548Z,english_487.wav,0,peel,1716,19,2,Japanese,m,0,0.0,83.9506825,1.20569128
KES,59,1,2024-07-18T12:18:34.548Z,english_487.wav,0,peel,1716,19,2,Japanese,m,1,0.1,-73.0195282,0.75422979
KES,59,1,2024-07-18T12:18:34.548Z,english_487.wav,0,peel,1716,19,2,Japanese,m,2,0.2,98.61971221,0.70340278
KES,59,1,2024-07-18T12:18:34.548Z,english_487.wav,0,peel,1716,19,2,Japanese,m,3,0.3,66.30731889,1.25861502
KES,59,1,2024-07-18T12:18:34.548Z,english_487.wav,0,peel,1716,19,2,Japanese,m,4,0.4,22.93795287,1.76994668
KES,59,1,2024-07-18T12:18:34.548Z,english_487.wav,0,peel,1716,19,2,Japanese,m,5,0.5,-81.70494499,1.09959608
KES,59,1,2024-07-18T12:18:34.548Z,english_487.wav,0,peel,1716,19,2,Japanese,m,6,0.6,-70.3149209,1.93360086
KES,59,1,2024-07-18T12:18:34.548Z,english_487.wav,0,peel,1716,19,2,Japanese,m,7,0.7,-54.70127166,0.32077076
KES,59,1,2024-07-18T12:18:34.548Z,english_487.wav,0,peel,1716,19,2,Japanese,m,8,0.8,-60.23299302,0.62494976
KES,59,1,2024-07-18T12:18:34.548Z,english_487.wav,0,peel,1716,19,2,Japanese,m,9,0.9,90.25511794,1.062642
KES,59,1,2024-07-18T12:18:34.548Z,english_487.wav,0,peel,1716,19,2,Japanese,m,10,1.0,63.36569824,1.45529395
KES,59,1,2024-07-18T12:18:34.548Z,english_487.wav,0,peel,1716,19,2,Japanese,m,11,1.09391667,47.37946456,1.97435305
KES,60,1,2024-07-18T12:18:34.548Z,english_256.wav,0,pill,2484,19,2,Japanese,m,0,0.0,19.13786367,0.71756401
KES,60,1,2024-07-18T12:18:34.548Z,english_256.wav,0,pill,2484,19,2,Japanese,m,1,0.1,78.7613355,1.21129656
KES,60,1,2024-07-18T12:18:34.548Z,english_256.wav,0,pill,2484,19,2,Japanese,m,2,0.2,-10.99930376,0.86820307
KES,60,1,2024-07-18T12:18:34.548Z,english_256.wav,0,pill,2484,19,2,Japanese,m,3,0.3,-4.24203719,0.23513199
KES,60,1,2024-07-18T12:18:34.548Z,english_256.wav,0,pill,2484,19,2,Japanese,m,4,0.4,-18.22969313,1.96127331
KES,60,1,2024-07-18T12:18:34.548Z,english_256.wav,0,pill,2484,19,2,Japanese,m,5,0.5,-1.97438764,1.02094295
KES,60,1,2024-07-18T12:18:34.548Z,english_256.wav,0,pill,2484,19,2,Japanese,m,6,0.6,58.65018523,0.44586948
KES,60,1,2024-07-18T12:18:34.548Z,english_256.wav,0,pill,2484,19,2,Japanese,m,7,0.7,-44.17944685,0.67070074
KES,60,1,2024-07-18T12:18:34.548Z,english_256.wav,0,pill,2484,19,2,Japanese,m,8,0.8,-19.76307931,0.92528927
KES,60,1,2024-07-18T12:18:34.548Z,english_256.wav,0,pill,2484,19,2,Japanese,m,9,0.9,51.42512852,0.89913532
KES,60,1,2024-07-18T12:18:34.548Z,english_256.wav,0,pill,2484,19,2,Japanese,m,10,1.0,29.86121545,1.8576014
KES,60,1,2024-07-18T12:18:34.548Z,english_256.wav,0,pill,2484,19,2,Japanese,m,11,1.09391667,94.6134288,1.03800996
KES,61,1,2024-07-18T12:18:34.548Z,english_999.wav,0,pill,5270,19,2,Japanese,m,0,0.0,-8.27619319,0.000148642599
KES,61,1,2024-07-18T12:18:34.548Z,english_999.wav,0,pill,5270,19,2,Japanese,m,1,0.1,-49.3883822,1.22232627
KES,61,1,2024-07-18T12:18:34.548Z,english_999.wav,0,pill,5270,19,2,Japanese,m,2,0.2,97.54217101,1.1174933
KES,61,1,2024-07-18T12:18:34.548Z,english_999.wav,0,pill,5270,19,2,Japanese,m,3,0.3,-49.81406735,1.80111229
KES,61,1,2024-07-18T12:18:34.548Z,english_999.wav,0,pill,5270,19,2,Japanese,m,4,0.4,46.43683506,0.552807392
KES,61,1,2024-07-18T12:18:34.548Z,english_999.wav,0,pill,5270,19,2,Japanese,m,5,0.5,89.32784762,1.53319988
KES,61,1,2024-07-18T12:18:34.548Z,english_999.wav,0,pill,5270,19,2,Japanese,m,6,0.6,-55.73277594,1.7616442
KES,61,1,2024-07-18T12:18:34.548Z,english_999.wav,0,pill,5270,19,2,Japanese,m,7,0.7,49.38462906,0.0772486607
KES,61,1,2024-07-18T12:18:34.548Z,english_999.wav,0,pill,5270,19,2,Japanese,m,8,0.8,85.41123264,1.0025863
KES,61,1,2024-07-18T12:18:34.548Z,english_999.wav,0,pill,5270,19,2,Japanese,m,9,0.9,-58.86557708,0.329932429
KES,61,1,2024-07-18T12:18:34.548Z,english_999.wav,0,pill,5270,19,2,Japanese,m,10,1.0,99.11766896,1.88826288
KES,61,1,2024-07-18T12:18:34.548Z,english_999.wav,0,pill,5270,19,2,Japanese,m,11,1.09391667,28.82385918,1.88223689
KES,62,1,2024-07-18T12:18:34.548Z,english_337.wav,0,pill,1484,19,2,Japanese,m,0,0.0,63.30955307,1.05146316
KES,62,1,2024-07-18T12:18:34.548Z,english_337.wav,0,pill,1484,19,2,Japanese,m,1,0.1,-16.2405627,1.82422784
KES,62,1,2024-07-18T12:18:34.548Z,english_337.wav,0,pill,1484,19,2,Japanese,m,2,0.2,-94.40154866,0.58494816
KES,62,1,2024-07-18T12:18:34.548Z,english_337.wav,0,pill,1484,19,2,Japanese,m,3,0.3,75.21778114,1.0983984
KES,62,1,2024-07-18T12:18:34.548Z,english_337.wav,0,pill,1484,19,2,Japanese,m,4,0.4,25.54945434,0.15013246
KES,62,1,2024-07-18T12:18:34.548Z,english_337.wav,0,pill,1484,19,2,Japanese,m,5,0.5,-24.8991059,0.80312612
KES,62,1,2024-07-18T12:18:34.548Z,english_337.wav,0,pill,1484,19,2,Japanese,m,6,0.6,41.94064473,0.26635056
KES,62,1,2024-07-18T12:18:34.548Z,english_337.wav,0,pill,1484,19,2,Japanese,m,7,0.7,-52.88941207,1.56094221
KES,62,1,2024-07-18T12:18:34.548Z,english_337.wav,0,pill,1484,19,2,Japanese,m,8,0.8,34.33759816,1.1585981
KES,62,1,2024-07-18T12:18:34.548Z,english_337.wav,0,pill,1484,19,2,Japanese,m,9,0.9,11.89714474,1.8876465
KES,62,1,2024-07-18T12:18:34.548Z,english_337.wav,0,pill,1484,19,2,Japanese,m,10,1.0,-68.13632942,1.89794163
KES,62,1,2024-07-18T12:18:34.548Z,english_337.wav,0,pill,1484,19,2,Japanese,m,11,1.09391667,47.32266625,0.59037239
KES,63,1,2024-07-18T12:18:34.548Z,english_253.wav,0,pill,1419,19,2,Japanese,m,0,0.0,-76.54232622,1.69452202
KES,63,1,2024-07-18T12:18:34.548Z,english_253.wav,0,pill,1419,19,2,Japanese,m,1,0.1,23.75797542,0.94155674
KES,63,1,2024-07-18T12:18:34.548Z,english_253.wav,0,pill,1419,19,2,Japanese,m,2,0.2,-82.53055468,0.70353207
KES,63,1,2024-07-18T12:18:34.548Z,english_253.wav,0,pill,1419,19,2,Japanese,m,3,0.3,19.65476927,1.42331271
KES,63,1,2024-07-18T12:18:34.548Z,english_253.wav,0,pill,1419,19,2,Japanese,m,4,0.4,-55.81107988,1.11334266
KES,63,1,2024-07-18T12:18:34.548Z,english_253.wav,0,pill,1419,19,2,Japanese,m,5,0.5,73.24574297,1.34927457
KES,63,1,2024-07-18T12:18:34.548Z,english_253.wav,0,pill,1419,19,2,Japanese,m,6,0.6,-22.29926161,0.26375751
KES,63,1,2024-07-18T12:18:34.548Z,english_253.wav,0,pill,1419,19,2,Japanese,m,7,0.7,-11.91242057,0.63100518
KES,63,1,2024-07-18T12:18:34.548Z,english_253.wav,0,pill,1419,19,2,Japanese,m,8,0.8,-33.99896833,0.22145521
KES,63,1,2024-07-18T12:18:34.548Z,english_253.wav,0,pill,1419,19,2,Japanese,m,9,0.9,32.30473406,0.69052847
KES,63,1,2024-07-18T12:18:34.548Z,english_253.wav,0,pill,1419,19,2,Japanese,m,10,1.0,68.10745133,1.32352728
KES,63,1,2024-07-18T12:18:34.548Z,english_253.wav,0,pill,1419,19,2,Japanese,m,11,1.09391667,-22.82824608,0.79605757
KES,64,1,2024-07-18T12:18:34.548Z,english_84.wav,0,pill,1606,19,2,Japanese,m,0,0.0,-30.2467566,1.10932486
KES,64,1,2024-07-18T12:18:34.548Z,english_84.wav,0,pill,1606,19,2,Japanese,m,1,0.1,-18.60045113,1.9206934
KES,64,1,2024-07-18T12:18:34.548Z,english_84.wav,0,pill,1606,19,2,Japanese,m,2,0.2,-90.34616495,1.24300923
KES,64,1,2024-07-18T12:18:34.548Z,english_84.wav,0,pill,1606,19,2,Japanese,m,3,0.3,65.05422695,0.26827652
KES,64,1,2024-07-18T12:18:34.548Z,english_84.wav,0,pill,1606,19,2,Japanese,m,4,0.4,-97.4748037,1.06073
KES,64,1,2024-07-18T12:18:34.548Z,english_84.wav,0,pill,1606,19,2,Japanese,m,5,0.5,81.08722465,0.77191048
KES,64,1,2024-07-18T12:18:34.548Z,english_84.wav,0,pill,1606,19,2,Japanese,m,6,0.6,-60.33963886,0.47362595
KES,64,1,2024-07-18T12:18:34.548Z,english_84.wav,0,pill,1606,19,2,Japanese,m,7,0.7,89.16319597,0.81063727
KES,64,1,2024-07-18T12:18:34.548Z,english_84.wav,0,pill,1606,19,2,Japanese,m,8,0.8,-62.96470457,0.77403196
KES,64,1,2024-07-18T12:18:34.548Z,english_84.wav,0,pill,1606,19,2,Japanese,m,9,0.9,-1.62845555,1.97344779
KES,64,1,2024-07-18T12:18:34.548Z,english_84.wav,0,pill,1606,19,2,Japanese,m,10,1.0,-78.52699488,1.64085803
KES,64,1,2024-07-18T12:18:34.548Z,english_84.wav,0,pill,1606,19,2,Japanese,m,11,1.09391667,30.74269215,1.83432164
KES,65,1,2024-07-18T12:18:34.548Z,english_200.wav,0,pill,2212,19,2,Japanese,m,0,0.0,-48.93101302,1.76712635
KES,65,1,2024-07-18T12:18:34.548Z,english_200.wav,0,pill,2212,19,2,Japanese,m,1,0.1,29.34121658,1.41196845
KES,65,1,2024-07-18T12:18:34.548Z,english_200.wav,0,pill,2212,19,2,Japanese,m,2,0.2,23.36197279,0.60842774
KES,65,1,2024-07-18T12:18:34.548Z,english_200.wav,0,pill,2212,19,2,Japanese,m,3,0.3,-1.20403398,1.94277316
KES,65,1,2024-07-18T12:18:34.548Z,english_200.wav,0,pill,2212,19,2,Japanese,m,4,0.4,-47.67478064,1.4476438
KES,65,1,2024-07-18T12:18:34.548Z,english_200.wav,0,pill,2212,19,2,Japanese,m,5,0.5,18.83507041,1.13791246
KES,65,1,2024-07-18T12:18:34.548Z,english_200.wav,0,pill,2212,19,2,Japanese,m,6,0.6,-17.22460439,1.88825133
KES,65,1,2024-07-18T12:18:34.548Z,english_200.wav,0,pill,2212,19,2,Japanese,m,7,0.7,95.20697574,1.08026942
KES,65,1,2024-07-18T12:18:34.548Z,english_200.wav,0,pill,2212,19,2,Japanese,m,8,0.8,-6.20708562,0.16695357
KES,65,1,2024-07-18T12:18:34.548Z,english_200.wav,0,pill,2212,19,2,Japanese,m,9,0.9,-37.25970541,0.7312143
KES,65,1,2024-07-18T12:18:34.548Z,english_200.wav,0,pill,2212,19,2,Japanese,m,10,1.0,4.5592837,0.56031965
KES,65,1,2024-07-18T12:18:34.548Z,english_200.wav,0,pill,2212,19,2,Japanese,m,11,1.09391667,86.68415923,0.70419729
KES,66,1,2024-07-18T12:18:34.548Z,english_306.wav,0,pill,3147,19,2,Japanese,m,0,0.0,-95.03086766,1.30837938
KES,66,1,2024-07-18T12:18:34.548Z,english_306.wav,0,pill,3147,19,2,Japanese,m,1,0.1,-3.19440238,0.41482999
KES,66,1,2024-07-18T12:18:34.548Z,english_306.wav,0,pill,3147,19,2,Japanese,m,2,0.2,-39.72459624,1.62954212
KES,66,1,2024-07-18T12:18:34.548Z,english_306.wav,0,pill,3147,19,2,Japanese,m,3,0.3,15.36352601,1.09402509
KES,66,1,2024-07-18T12:18:34.548Z,english_306.wav,0,pill,3147,19,2,Japanese,m,4,0.4,-38.40390677,0.25113187
KES,66,1,2024-07-18T12:18:34.548Z,english_306.wav,0,pill,3147,19,2,Japanese,m,5,0.5,-49.79740584,0.76399472
KES,66,1,2024-07-18T12:18:34.548Z,english_306.wav,0,pill,3147,19,2,Japanese,m,6,0.6,-48.37651938,1.73274833
KES,66,1,2024-07-18T12:18:34.548Z,english_306.wav,0,pill,3147,19,2,Japanese,m,7,0.7,-33.05516854,0.31535053
KES,66,1,2024-07-18T12:18:34.548Z,english_306.wav,0,pill,3147,19,2,Japanese,m,8,0.8,-95.3817315,0.01885302
KES,66,1,2024-07-18T12:18:34.548Z,english_306.wav,0,pill,3147,19,2,Japanese,m,9,0.9,-37.53428143,0.72130614
KES,66,1,2024-07-18T12:18:34.548Z,english_306.wav,0,pill,3147,19,2,Japanese,m,10,1.0,13.19585938,0.43232343
KES,66,1,2024-07-18T12:18:34.548Z,english_306.wav,0,pill,3147,19,2,Japanese,m,11,1.09391667,36.11780275,1.20783491
KES,67,1,2024-07-18T12:18:34.548Z,english_286.wav,0,peel,4573,19,2,Japanese,m,0,0.0,0.49465201,1.96185882
KES,67,1,2024-07-18T12:18:34.548Z,english_286.wav,0,peel,4573,19,2,Japanese,m,1,0.1,64.40982078,1.76039517
KES,67,1,2024-07-18T12:18:34.548Z,english_286.wav,0,peel,4573,19,2,Japanese,m,2,0.2,-93.96239431,1.34043253
KES,67,1,2024-07-18T12:18:34.548Z,english_286.wav,0,peel,4573,19,2,Japanese,m,3,0.3,54.29050788,0.77251354
KES,67,1,2024-07-18T12:18:34.548Z,english_286.wav,0,peel,4573,19,2,Japanese,m,4,0.4,-73.71749202,0.68573738
KES,67,1,2024-07-18T12:18:34.548Z,english_286.wav,0,peel,4573,19,2,Japanese,m,5,0.5,-94.88438502,1.47035372
KES,67,1,2024-07-18T12:18:34.548Z,english_286.wav,0,peel,4573,19,2,Japanese,m,6,0.6,49.75760882,1.55594088
KES,67,1,2024-07-18T12:18:34.548Z,english_286.wav,0,peel,4573,19,2,Japanese,m,7,0.7,-11.70467758,0.26425441
KES,67,1,2024-07-18T12:18:34.548Z,english_286.wav,0,peel,4573,19,2,Japanese,m,8,0.8,-44.05163422,0.00260426
KES,67,1,2024-07-18T12:18:34.548Z,english_286.wav,0,peel,4573,19,2,Japanese,m,9,0.9,34.33178767,0.41622396
KES,67,1,2024-07-18T12:18:34.548Z,english_286.wav,0,peel,4573,19,2,Japanese,m,10,1.0,-45.07278599,1.49433758
KES,67,1,2024-07-18T12:18:34.548Z,english_286.wav,0,peel,4573,19,2,Japanese,m,11,1.09391667,-7.38383513,1.90052724
KES,68,1,2024-07-18T12:18:34.548Z,english_95.wav,0,pill,1302,19,2,Japanese,m,0,0.0,82.38322646,1.52040058
KES,68,1,2024-07-18T12:18:34.548Z,english_95.wav,0,pill,1302,19,2,Japanese,m,1,0.1,32.52182657,0.22216464
KES,68,1,2024-07-18T12:18:34.548Z,english_95.wav,0,pill,1302,19,2,Japanese,m,2,0.2,30.87511863,0.78160064
KES,68,1,2024-07-18T12:18:34.548Z,english_95.wav,0,pill,1302,19,2,Japanese,m,3,0.3,67.9481844,0.58754621
KES,68,1,2024-07-18T12:18:34.548Z,english_95.wav,0,pill,1302,19,2,Japanese,m,4,0.4,-57.03879619,1.54090238
KES,68,1,2024-07-18T12:18:34.548Z,english_95.wav,0,pill,1302,19,2,Japanese,m,5,0.5,22.48665311,0.52042561
KES,68,1,2024-07-18T12:18:34.548Z,english_95.wav,0,pill,1302,19,2,Japanese,m,6,0.6,23.4373467,0.65328484
KES,68,1,2024-07-18T12:18:34.548Z,english_95.wav,0,pill,1302,19,2,Japanese,m,7,0.7,-61.78596911,0.2008644
KES,68,1,2024-07-18T12:18:34.548Z,english_95.wav,0,pill,1302,19,2,Japanese,m,8,0.8,75.30119174,1.88966983
KES,68,1,2024-07-18T12:18:34.548Z,english_95.wav,0,pill,1302,19,2,Japanese,m,9,0.9,6.10236792,1.34355427
KES,68,1,2024-07-18T12:18:34.548Z,english_95.wav,0,pill,1302,19,2,Japanese,m,10,1.0,23.20518155,0.09039365
KES,68,1,2024-07-18T12:18:34.548Z,english_95.wav,0,pill,1302,19,2,Japanese,m,11,1.09391667,-62.32548974,0.0245473
KES,69,1,2024-07-18T12:18:34.548Z,english_812.wav,0,pill,4313,19,2,Japanese,m,0,0.0,-74.39405292,0.33785156
KES,69,1,2024-07-18T12:18:34.548Z,english_812.wav,0,pill,4313,19,2,Japanese,m,1,0.1,48.51980233,1.22752684
KES,69,1,2024-07-18T12:18:34.548Z,english_812.wav,0,pill,4313,19,2,Japanese,m,2,0.2,30.32531814,1.43694832
KES,69,1,2024-07-18T12:18:34.548Z,english_812.wav,0,pill,4313,19,2,Japanese,m,3,0.3,85.76843882,1.56264474
KES,69,1,2024-07-18T12:18:34.548Z,english_812.wav,0,pill,4313,19,2,Japanese,m,4,0.4,0.84929795,0.39298857
KES,69,1,2024-07-18T12:18:34.548Z,english_812.wav,0,pill,4313,19,2,Japanese,m,5,0.5,-13.37525602,1.28085639
KES,69,1,2024-07-18T12:18:34.548Z,english_812.wav,0,pill,4313,19,2,Japanese,m,6,0.6,54.45247284,1.06153563
KES,69,1,2024-07-18T12:18:34.548Z,english_812.wav,0,pill,4313,19,2,Japanese,m,7,0.7,-16.62398762,1.70174888
KES,69,1,2024-07-18T12:18:34.548Z,english_812.wav,0,pill,4313,19,2,Japanese,m,8,0.8,13.79350344,1.57881104
KES,69,1,2024-07-18T12:18:34.548Z,english_812.wav,0,pill,4313,19,2,Japanese,m,9,0.9,-99.90183813,0.93688007
KES,69,1,2024-07-18T12:18:34.548Z,english_812.wav,0,pill,4313,19,2,Japanese,m,10,1.0,-21.07031743,0.34388752
KES,69,1,2024-07-18T12:18:34.548Z,english_812.wav,0,pill,4313,19,2,Japanese,m,11,1.09391667,-92.73500895,0.8834258
KES,70,1,2024-07-18T12:18:34.548Z,english_119.wav,0,peel,1900,19,2,Japanese,m,0,0.0,98.57605275,0.1031314
KES,70,1,2024-07-18T12:18:34.548Z,english_119.wav,0,peel,1900,19,2,Japanese,m,1,0.1,48.19569196,0.53372727
KES,70,1,2024-07-18T12:18:34.548Z,english_119.wav,0,peel,1900,19,2,Japanese,m,2,0.2,96.20670949,1.31286157
KES,70,1,2024-07-18T12:18:34.548Z,english_119.wav,0,peel,1900,19,2,Japanese,m,3,0.3,-19.19200662,0.99072858
KES,70,1,2024-07-18T12:18:34.548Z,english_119.wav,0,peel,1900,19,2,Japanese,m,4,0.4,52.83768905,0.59990508
KES,70,1,2024-07-18T12:18:34.548Z,english_119.wav,0,peel,1900,19,2,Japanese,m,5,0.5,1.85412636,1.80726182
KES,70,1,2024-07-18T12:18:34.548Z,english_119.wav,0,peel,1900,19,2,Japanese,m,6,0.6,37.01820811,1.09281433
KES,70,1,2024-07-18T12:18:34.548Z,english_119.wav,0,peel,1900,19,2,Japanese,m,7,0.7,29.79521621,0.09331625
KES,70,1,2024-07-18T12:18:34.548Z,english_119.wav,0,peel,1900,19,2,Japanese,m,8,0.8,-57.64713834,0.67056306
KES,70,1,2024-07-18T12:18:34.548Z,english_119.wav,0,peel,1900,19,2,Japanese,m,9,0.9,35.78201522,1.21362775
KES,70,1,2024-07-18T12:18:34.548Z,english_119.wav,0,peel,1900,19,2,Japanese,m,10,1.0,49.99655896,0.49048318
KES,70,1,2024-07-18T12:18:34.548Z,english_119.wav,0,peel,1900,19,2,Japanese,m,11,1.09391667,7.1972062,0.07431613
KES,71,1,2024-07-18T12:18:34.548Z,english_869.wav,0,pill,5423,19,2,Japanese,m,0,0.0,-20.7946379,1.94834657
KES,71,1,2024-07-18T12:18:34.548Z,english_869.wav,0,pill,5423,19,2,Japanese,m,1,0.1,-22.88594334,1.67021182
KES,71,1,2024-07-18T12:18:34.548Z,english_869.wav,0,pill,5423,19,2,Japanese,m,2,0.2,-44.01188064,1.50520546
KES,71,1,2024-07-18T12:18:34.548Z,english_869.wav,0,pill,5423,19,2,Japanese,m,3,0.3,58.96228493,0.98955103
KES,71,1,2024-07-18T12:18:34.548Z,english_869.wav,0,pill,5423,19,2,Japanese,m,4,0.4,0.25554563,0.43254465
KES,71,1,2024-07-18T12:18:34.548Z,english_869.wav,0,pill,5423,19,2,Japanese,m,5,0.5,-14.29276016,1.32326318
KES,71,1,2024-07-18T12:18:34.548Z,english_869.wav,0,pill,5423,19,2,Japanese,m,6,0.6,40.28852475,0.34817039
KES,71,1,2024-07-18T12:18:34.548Z,english_869.wav,0,pill,5423,19,2,Japanese,m,7,0.7,83.9110951,0.4259349
KES,71,1,2024-07-18T12:18:34.548Z,english_869.wav,0,pill,5423,19,2,Japanese,m,8,0.8,-58.08971542,0.20780663
KES,71,1,2024-07-18T12:18:34.548Z,english_869.wav,0,pill,5423,19,2,Japanese,m,9,0.9,-47.84735546,0.9384124
KES,71,1,2024-07-18T12:18:34.548Z,english_869.wav,0,pill,5423,19,2,Japanese,m,10,1.0,18.70420486,1.5529846
KES,71,1,2024-07-18T12:18:34.548Z,english_869.wav,0,pill,5423,19,2,Japanese,m,11,1.09391667,33.02688521,1.23929613
KES,72,1,2024-07-18T12:18:34.548Z,english_603.wav,0,peel,1238,19,2,Japanese,m,0,0.0,-92.82127988,0.46202599
KES,72,1,2024-07-18T12:18:34.548Z,english_603.wav,0,peel,1238,19,2,Japanese,m,1,0.1,-10.8879853,0.04069155
KES,72,1,2024-07-18T12:18:34.548Z,english_603.wav,0,peel,1238,19,2,Japanese,m,2,0.2,87.07339117,0.53206278
KES,72,1,2024-07-18T12:18:34.548Z,english_603.wav,0,peel,1238,19,2,Japanese,m,3,0.3,94.16233181,1.44505889
KES,72,1,2024-07-18T12:18:34.548Z,english_603.wav,0,peel,1238,19,2,Japanese,m,4,0.4,41.70993127,1.73804989
KES,72,1,2024-07-18T12:18:34.548Z,english_603.wav,0,peel,1238,19,2,Japanese,m,5,0.5,-9.49662532,0.79060569
KES,72,1,2024-07-18T12:18:34.548Z,english_603.wav,0,peel,1238,19,2,Japanese,m,6,0.6,0.93436069,1.79017292
KES,72,1,2024-07-18T12:18:34.548Z,english_603.wav,0,peel,1238,19,2,Japanese,m,7,0.7,-31.16965002,1.60375186
KES,72,1,2024-07-18T12:18:34.548Z,english_603.wav,0,peel,1238,19,2,Japanese,m,8,0.8,22.515306,1.61763715
KES,72,1,2024-07-18T12:18:34.548Z,english_603.wav,0,peel,1238,19,2,Japanese,m,9,0.9,39.07324,1.44528026
KES,72,1,2024-07-18T12:18:34.548Z,english_603.wav,0,peel,1238,19,2,Japanese,m,10,1.0,-34.19262646,0.82648617
KES,72,1,2024-07-18T12:18:34.548Z,english_603.wav,0,peel,1238,19,2,Japanese,m,11,1.09391667,7.30050377,1.94101738
KES,73,1,2024-07-18T12:18:34.548Z,english_930.wav,0,peel,2025,19,2,Japanese,m,0,0.0,19.45977217,0.84483281
KES,73,1,2024-07-18T12:18:34.548Z,english_930.wav,0,peel,2025,19,2,Japanese,m,1,0.1,-80.07863209,1.28415243
KES,73,1,2024-07-18T12:18:34.548Z,english_930.wav,0,peel,2025,19,2,Japanese,m,2,0.2,45.52554026,0.42013726
KES,73,1,2024-07-18T12:18:34.548Z,english_930.wav,0,peel,2025,19,2,Japanese,m,3,0.3,15.52716044,0.73216184
KES,73,1,2024-07-18T12:18:34.548Z,english_930.wav,0,peel,2025,19,2,Japanese,m,4,0.4,-83.05812581,0.68838287
KES,73,1,2024-07-18T12:18:34.548Z,english_930.wav,0,peel,2025,19,2,Japanese,m,5,0.5,-71.84540183,1.12855875
KES,73,1,2024-07-18T12:18:34.548Z,english_930.wav,0,peel,2025,19,2,Japanese,m,6,0.6,-43.21972941,1.19871165
KES,73,1,2024-07-18T12:18:34.548Z,english_930.wav,0,peel,2025,19,2,Japanese,m,7,0.7,24.79128716,1.34030412
KES,73,1,2024-07-18T12:18:34.548Z,english_930.wav,0,peel,2025,19,2,Japanese,m,8,0.8,-16.02759849,0.99943393
KES,73,1,2024-07-18T12:18:34.548Z,english_930.wav,0,peel,2025,19,2,Japanese,m,9,0.9,5.32070927,1.01667004
KES,73,1,2024-07-18T12:18:34.548Z,english_930.wav,0,peel,2025,19,2,Japanese,m,10,1.0,41.16408732,1.52152501
KES,73,1,2024-07-18T12:18:34.548Z,english_930.wav,0,peel,2025,19,2,Japanese,m,11,1.09391667,45.49028899,0.12802686
KES,74,1,2024-07-18T12:18:34.548Z,english_615.wav,0,pill,1189,19,2,Japanese,m,0,0.0,-59.46419525,1.45272118
KES,74,1,2024-07-18T12:18:34.548Z,english_615.wav,0,pill,1189,19,2,Japanese,m,1,0.1,57.8993682,1.05218588
KES,74,1,2024-07-18T12:18:34.548Z,english_615.wav,0,pill,1189,19,2,Japanese,m,2,0.2,96.50473449,0.16877242
KES,74,1,2024-07-18T12:18:34.548Z,english_615.wav,0,pill,1189,19,2,Japanese,m,3,0.3,70.35497861,0.80491698
KES,74,1,2024-07-18T12:18:34.548Z,english_615.wav,0,pill,1189,19,2,Japanese,m,4,0.4,41.87750843,0.90543026
KES,74,1,2024-07-18T12:18:34.548Z,english_615.wav,0,pill,1189,19,2,Japanese,m,5,0.5,-81.49095224,1.05177913
KES,74,1,2024-07-18T12:18:34.548Z,english_615.wav,0,pill,1189,19,2,Japanese,m,6,0.6,57.42750946,0.09637859
KES,74,1,2024-07-18T12:18:34.548Z,english_615.wav,0,pill,1189,19,2,Japanese,m,7,0.7,4.11503666,0.17788962
KES,74,1,2024-07-18T12:18:34.548Z,english_615.wav,0,pill,1189,19,2,Japanese,m,8,0.8,-69.97079252,0.7335246
KES,74,1,2024-07-18T12:18:34.548Z,english_615.wav,0,pill,1189,19,2,Japanese,m,9,0.9,35.15344639,1.1040214
KES,74,1,2024-07-18T12:18:34.548Z,english_615.wav,0,pill,1189,19,2,Japanese,m,10,1.0,-81.03238812,0.9742901
KES,74,1,2024-07-18T12:18:34.548Z,english_615.wav,0,pill,1189,19,2,Japanese,m,11,1.09391667,-73.59723868,0.84036339
KES,75,1,2024-07-18T12:18:34.548Z,english_627.wav,0,peel,1336,19,2,Japanese,m,0,0.0,61.61292799,1.38806705
KES,75,1,2024-07-18T12:18:34.548Z,english_627.wav,0,peel,1336,19,2,Japanese,m,1,0.1,56.33641902,0.72797241
KES,75,1,2024-07-18T12:18:34.548Z,english_627.wav,0,peel,1336,19,2,Japanese,m,2,0.2,-89.79026277,1.31326188
KES,75,1,2024-07-18T12:18:34.548Z,english_627.wav,0,peel,1336,19,2,Japanese,m,3,0.3,-79.74264658,1.97676424
KES,75,1,2024-07-18T12:18:34.548Z,english_627.wav,0,peel,1336,19,2,Japanese,m,4,0.4,23.07538857,1.13729178
KES,75,1,2024-07-18T12:18:34.548Z,english_627.wav,0,peel,1336,19,2,Japanese,m,5,0.5,-10.76343706,0.13245486
KES,75,1,2024-07-18T12:18:34.548Z,english_627.wav,0,peel,1336,19,2,Japanese,m,6,0.6,-5.69473489,0.69323738
KES,75,1,2024-07-18T12:18:34.548Z,english_627.wav,0,peel,1336,19,2,Japanese,m,7,0.7,-7.26950502,1.4848786
KES,75,1,2024-07-18T12:18:34.548Z,english_627.wav,0,peel,1336,19,2,Japanese,m,8,0.8,15.57475433,1.9356485
KES,75,1,2024-07-18T12:18:34.548Z,english_627.wav,0,peel,1336,19,2,Japanese,m,9,0.9,3.14852465,1.60625319
KES,75,1,2024-07-18T12:18:34.548Z,english_627.wav,0,peel,1336,19,2,Japanese,m,10,1.0,33.23262787,0.88492326
KES,75,1,2024-07-18T12:18:34.548Z,english_627.wav,0,peel,1336,19,2,Japanese,m,11,1.09391667,-88.39615435,1.31394344
KES,76,1,2024-07-18T12:18:34.548Z,english_663.wav,0,peel,3817,19,2,Japanese,m,0,0.0,25.59053478,1.78737857
KES,76,1,2024-07-18T12:18:34.548Z,english_663.wav,0,peel,3817,19,2,Japanese,m,1,0.1,-58.99857374,1.42240818
KES,76,1,2024-07-18T12:18:34.548Z,english_663.wav,0,peel,3817,19,2,Japanese,m,2,0.2,-5.24989333,1.3064588
KES,76,1,2024-07-18T12:18:34.548Z,english_663.wav,0,peel,3817,19,2,Japanese,m,3,0.3,-69.09303088,0.70237579
KES,76,1,2024-07-18T12:18:34.548Z,english_663.wav,0,peel,3817,19,2,Japanese,m,4,0.4,-45.4002244,1.46111329
KES,76,1,2024-07-18T12:18:34.548Z,english_663.wav,0,peel,3817,19,2,Japanese,m,5,0.5,-34.03427643,0.83880831
KES,76,1,2024-07-18T12:18:34.548Z,english_663.wav,0,peel,3817,19,2,Japanese,m,6,0.6,-19.18804463,1.08172691
KES,76,1,2024-07-18T12:18:34.548Z,english_663.wav,0,peel,3817,19,2,Japanese,m,7,0.7,-64.51254164,1.55901958
KES,76,1,2024-07-18T12:18:34.548Z,english_663.wav,0,peel,3817,19,2,Japanese,m,8,0.8,54.38008437,0.76271714
KES,76,1,2024-07-18T12:18:34.548Z,english_663.wav,0,peel,3817,19,2,Japanese,m,9,0.9,-75.85045717,1.07438518
KES,76,1,2024-07-18T12:18:34.548Z,english_663.wav,0,peel,3817,19,2,Japanese,m,10,1.0,38.1526186,1.50748802
KES,76,1,2024-07-18T12:18:34.548Z,english_663.wav,0,peel,3817,19,2,Japanese,m,11,1.09391667,60.1980267,1.3123631
KES,77,1,2024-07-18T12:18:34.548Z,english_4.wav,0,peel,2242,19,2,Japanese,m,0,0.0,-33.3305161,1.1805291
KES,77,1,2024-07-18T12:18:34.548Z,english_4.wav,0,peel,2242,19,2,Japanese,m,1,0.1,-23.37326796,0.77631495
KES,77,1,2024-07-18T12:18:34.548Z,english_4.wav,0,peel,2242,19,2,Japanese,m,2,0.2,-42.80660343,1.23796573
KES,77,1,2024-07-18T12:18:34.548Z,english_4.wav,0,peel,2242,19,2,Japanese,m,3,0.3,-85.97409915,0.59874379
