subj,trial,block,date,stim,stim_order,response,rt,param_index,segment,pitch,stretch
KUA,0,0,2024-06-30T18:47:49.786Z,english_160.wav,0,pill,2377,0,0.0,54.87282188,1.23358014
KUA,0,0,2024-06-30T18:47:49.786Z,english_160.wav,0,pill,2377,1,0.1,38.39559314,0.90117281
KUA,0,0,2024-06-30T18:47:49.786Z,english_160.wav,0,pill,2377,2,0.2,45.94024754,1.29672558
KUA,0,0,2024-06-30T18:47:49.786Z,english_160.wav,0,pill,2377,3,0.3,23.2538411,1.0625388
KUA,0,0,2024-06-30T18:47:49.786Z,english_160.wav,0,pill,2377,4,0.4,-76.36457338,1.82179424
KUA,0,0,2024-06-30T18:47:49.786Z,english_160.wav,0,pill,2377,5,0.5,-7.52503837,0.15771982
KUA,0,0,2024-06-30T18:47:49.786Z,english_160.wav,0,pill,2377,6,0.6,-67.2018033,1.20020733
KUA,0,0,2024-06-30T18:47:49.786Z,english_160.wav,0,pill,2377,7,0.7,40.79859053,1.72655744
KUA,0,0,2024-06-30T18:47:49.786Z,english_160.wav,0,pill,2377,8,0.8,-54.00476677,1.68926394
KUA,0,0,2024-06-30T18:47:49.786Z,english_160.wav,0,pill,2377,9,0.9,-39.47782367,0.81447331
KUA,0,0,2024-06-30T18:47:49.786Z,english_160.wav,0,pill,2377,10,1.0,13.27455738,0.52461363
KUA,0,0,2024-06-30T18:47:49.786Z,english_160.wav,0,pill,2377,11,1.09391667,82.72582228,1.24111221
KUA,1,0,2024-06-30T18:47:49.786Z,english_838.wav,0,peel,1124,0,0.0,66.81838689,0.11169914
KUA,1,0,2024-06-30T18:47:49.786Z,english_838.wav,0,peel,1124,1,0.1,94.65046979,0.93671825
KUA,1,0,2024-06-30T18:47:49.786Z,english_838.wav,0,peel,1124,2,0.2,91.71604822,0.60356353
KUA,1,0,2024-06-30T18:47:49.786Z,english_838.wav,0,peel,1124,3,0.3,78.43794704,1.60109406
KUA,1,0,2024-06-30T18:47:49.786Z,english_838.wav,0,peel,1124,4,0.4,-73.47833102,0.84291267
KUA,1,0,2024-06-30T18:47:49.786Z,english_838.wav,0,peel,1124,5,0.5,11.66623314,1.01630723
KUA,1,0,2024-06-30T18:47:49.786Z,english_838.wav,0,peel,1124,6,0.6,-66.11404528,1.23732351
KUA,1,0,2024-06-30T18:47:49.786Z,english_838.wav,0,peel,1124,7,0.7,28.35642813,1.37061964
KUA,1,0,2024-06-30T18:47:49.786Z,english_838.wav,0,peel,1124,8,0.8,73.65825503,1.54014816
KUA,1,0,2024-06-30T18:47:49.786Z,english_838.wav,0,peel,1124,9,0.9,-30.5228579,0.53177064
KUA,1,0,2024-06-30T18:47:49.786Z,english_838.wav,0,peel,1124,10,1.0,-38.8042384,1.47567338
KUA,1,0,2024-06-30T18:47:49.786Z,english_838.wav,0,peel,1124,11,1.09391667,90.67589939,0.7352694
KUA,2,0,2024-06-30T18:47:49.786Z,english_533.wav,0,pill,2174,0,0.0,82.3150146,1.74351328
KUA,2,0,2024-06-30T18:47:49.786Z,english_533.wav,0,pill,2174,1,0.1,-62.65263441,1.01143167
KUA,2,0,2024-06-30T18:47:49.786Z,english_533.wav,0,pill,2174,2,0.2,35.24658043,1.89837562
KUA,2,0,2024-06-30T18:47:49.786Z,english_533.wav,0,pill,2174,3,0.3,-92.25963636,0.63714559
KUA,2,0,2024-06-30T18:47:49.786Z,english_533.wav,0,pill,2174,4,0.4,55.18355153,1.6894321
KUA,2,0,2024-06-30T18:47:49.786Z,english_533.wav,0,pill,2174,5,0.5,42.19734794,0.54282928
KUA,2,0,2024-06-30T18:47:49.786Z,english_533.wav,0,pill,2174,6,0.6,26.84517853,1.89183876
KUA,2,0,2024-06-30T18:47:49.786Z,english_533.wav,0,pill,2174,7,0.7,-96.44791366,0.53977312
KUA,2,0,2024-06-30T18:47:49.786Z,english_533.wav,0,pill,2174,8,0.8,-32.52364266,1.51379003
KUA,2,0,2024-06-30T18:47:49.786Z,english_533.wav,0,pill,2174,9,0.9,72.77745032,1.26846018
KUA,2,0,2024-06-30T18:47:49.786Z,english_533.wav,0,pill,2174,10,1.0,-8.5096212,0.77810192
KUA,2,0,2024-06-30T18:47:49.786Z,english_533.wav,0,pill,2174,11,1.09391667,-5.91345178,1.56024291
KUA,3,0,2024-06-30T18:47:49.786Z,english_940.wav,0,pill,955,0,0.0,-74.78707904,1.32849745
KUA,3,0,2024-06-30T18:47:49.786Z,english_940.wav,0,pill,955,1,0.1,-17.41948052,0.12464251
KUA,3,0,2024-06-30T18:47:49.786Z,english_940.wav,0,pill,955,2,0.2,18.32757183,1.60919877
KUA,3,0,2024-06-30T18:47:49.786Z,english_940.wav,0,pill,955,3,0.3,49.59676146,1.26515186
KUA,3,0,2024-06-30T18:47:49.786Z,english_940.wav,0,pill,955,4,0.4,89.11302511,0.36425632
KUA,3,0,2024-06-30T18:47:49.786Z,english_940.wav,0,pill,955,5,0.5,-54.90271493,0.18773625
KUA,3,0,2024-06-30T18:47:49.786Z,english_940.wav,0,pill,955,6,0.6,5.52128104,1.95544511
KUA,3,0,2024-06-30T18:47:49.786Z,english_940.wav,0,pill,955,7,0.7,6.34300122,0.05018426
KUA,3,0,2024-06-30T18:47:49.786Z,english_940.wav,0,pill,955,8,0.8,-52.23900499,0.91238744
KUA,3,0,2024-06-30T18:47:49.786Z,english_940.wav,0,pill,955,9,0.9,-91.70083374,1.89571163
KUA,3,0,2024-06-30T18:47:49.786Z,english_940.wav,0,pill,955,10,1.0,-59.86037194,1.52579837
KUA,3,0,2024-06-30T18:47:49.786Z,english_940.wav,0,pill,955,11,1.09391667,44.21269836,0.42550386
KUA,4,0,2024-06-30T18:47:49.786Z,english_813.wav,0,pill,623,0,0.0,-21.47810291,0.42494113
KUA,4,0,2024-06-30T18:47:49.786Z,english_813.wav,0,pill,623,1,0.1,-84.13417806,0.85563352
KUA,4,0,2024-06-30T18:47:49.786Z,english_813.wav,0,pill,623,2,0.2,-18.57483833,1.62435889
KUA,4,0,2024-06-30T18:47:49.786Z,english_813.wav,0,pill,623,3,0.3,85.46223106,1.84520067
KUA,4,0,2024-06-30T18:47:49.786Z,english_813.wav,0,pill,623,4,0.4,-47.12255135,0.16630065
KUA,4,0,2024-06-30T18:47:49.786Z,english_813.wav,0,pill,623,5,0.5,55.13909294,1.66622477
KUA,4,0,2024-06-30T18:47:49.786Z,english_813.wav,0,pill,623,6,0.6,-92.27868598,1.29440347
KUA,4,0,2024-06-30T18:47:49.786Z,english_813.wav,0,pill,623,7,0.7,-98.65237277,1.30366
KUA,4,0,2024-06-30T18:47:49.786Z,english_813.wav,0,pill,623,8,0.8,-73.59665384,0.95942882
KUA,4,0,2024-06-30T18:47:49.786Z,english_813.wav,0,pill,623,9,0.9,99.75598896,0.41648042
KUA,4,0,2024-06-30T18:47:49.786Z,english_813.wav,0,pill,623,10,1.0,22.46235737,0.55260475
KUA,4,0,2024-06-30T18:47:49.786Z,english_813.wav,0,pill,623,11,1.09391667,-23.97281603,0.8655965
KUA,5,0,2024-06-30T18:47:49.786Z,english_202.wav,0,peel,1166,0,0.0,-55.5835629,1.42115323
KUA,5,0,2024-06-30T18:47:49.786Z,english_202.wav,0,peel,1166,1,0.1,-74.17222211,1.11230171
KUA,5,0,2024-06-30T18:47:49.786Z,english_202.wav,0,peel,1166,2,0.2,32.91988816,1.2604868
KUA,5,0,2024-06-30T18:47:49.786Z,english_202.wav,0,peel,1166,3,0.3,-61.08726633,1.38170621
KUA,5,0,2024-06-30T18:47:49.786Z,english_202.wav,0,peel,1166,4,0.4,74.28120307,1.19502306
KUA,5,0,2024-06-30T18:47:49.786Z,english_202.wav,0,peel,1166,5,0.5,27.15782783,1.3290301
KUA,5,0,2024-06-30T18:47:49.786Z,english_202.wav,0,peel,1166,6,0.6,-31.42828759,1.43273837
KUA,5,0,2024-06-30T18:47:49.786Z,english_202.wav,0,peel,1166,7,0.7,-85.57803202,0.23505516
KUA,5,0,2024-06-30T18:47:49.786Z,english_202.wav,0,peel,1166,8,0.8,-8.83313062,0.8306151
KUA,5,0,2024-06-30T18:47:49.786Z,english_202.wav,0,peel,1166,9,0.9,75.88912897,1.14421979
KUA,5,0,2024-06-30T18:47:49.786Z,english_202.wav,0,peel,1166,10,1.0,-46.89935533,1.72535261
KUA,5,0,2024-06-30T18:47:49.786Z,english_202.wav,0,peel,1166,11,1.09391667,1.73094833,1.37481935
KUA,6,0,2024-06-30T18:47:49.786Z,english_480.wav,0,peel,607,0,0.0,9.88794778,0.87231247
KUA,6,0,2024-06-30T18:47:49.786Z,english_480.wav,0,peel,607,1,0.1,-95.33959947,0.98456716
KUA,6,0,2024-06-30T18:47:49.786Z,english_480.wav,0,peel,607,2,0.2,-71.35423478,0.16901934
KUA,6,0,2024-06-30T18:47:49.786Z,english_480.wav,0,peel,607,3,0.3,-83.02465504,0.73359769
KUA,6,0,2024-06-30T18:47:49.786Z,english_480.wav,0,peel,607,4,0.4,44.94534434,1.77352581
KUA,6,0,2024-06-30T18:47:49.786Z,english_480.wav,0,peel,607,5,0.5,90.60802244,0.80191765
KUA,6,0,2024-06-30T18:47:49.786Z,english_480.wav,0,peel,607,6,0.6,-21.26982867,1.98344476
KUA,6,0,2024-06-30T18:47:49.786Z,english_480.wav,0,peel,607,7,0.7,9.71569321,1.54524915
KUA,6,0,2024-06-30T18:47:49.786Z,english_480.wav,0,peel,607,8,0.8,-55.27404123,1.67546329
KUA,6,0,2024-06-30T18:47:49.786Z,english_480.wav,0,peel,607,9,0.9,-2.41346819,1.13666865
KUA,6,0,2024-06-30T18:47:49.786Z,english_480.wav,0,peel,607,10,1.0,56.20871311,1.61861075
KUA,6,0,2024-06-30T18:47:49.786Z,english_480.wav,0,peel,607,11,1.09391667,-52.83193459,1.31490021
KUA,7,0,2024-06-30T18:47:49.786Z,english_14.wav,0,peel,982,0,0.0,-5.69961552,1.552338
KUA,7,0,2024-06-30T18:47:49.786Z,english_14.wav,0,peel,982,1,0.1,-17.69328861,0.71654176
KUA,7,0,2024-06-30T18:47:49.786Z,english_14.wav,0,peel,982,2,0.2,-45.6905252,1.07785173
KUA,7,0,2024-06-30T18:47:49.786Z,english_14.wav,0,peel,982,3,0.3,-40.89378138,1.31161341
KUA,7,0,2024-06-30T18:47:49.786Z,english_14.wav,0,peel,982,4,0.4,-36.19831956,0.28947894
KUA,7,0,2024-06-30T18:47:49.786Z,english_14.wav,0,peel,982,5,0.5,13.76556606,0.6738955
KUA,7,0,2024-06-30T18:47:49.786Z,english_14.wav,0,peel,982,6,0.6,51.91139139,1.18134596
KUA,7,0,2024-06-30T18:47:49.786Z,english_14.wav,0,peel,982,7,0.7,22.36023261,0.36193456
KUA,7,0,2024-06-30T18:47:49.786Z,english_14.wav,0,peel,982,8,0.8,-6.30606285,1.01055915
KUA,7,0,2024-06-30T18:47:49.786Z,english_14.wav,0,peel,982,9,0.9,44.07295662,1.51598154
KUA,7,0,2024-06-30T18:47:49.786Z,english_14.wav,0,peel,982,10,1.0,49.08865221,1.55420583
KUA,7,0,2024-06-30T18:47:49.786Z,english_14.wav,0,peel,982,11,1.09391667,-15.23758706,0.88497418
KUA,8,0,2024-06-30T18:47:49.786Z,english_937.wav,0,pill,850,0,0.0,48.31161741,0.20999663
KUA,8,0,2024-06-30T18:47:49.786Z,english_937.wav,0,pill,850,1,0.1,94.31178096,0.73195695
KUA,8,0,2024-06-30T18:47:49.786Z,english_937.wav,0,pill,850,2,0.2,43.82009927,0.70757327
KUA,8,0,2024-06-30T18:47:49.786Z,english_937.wav,0,pill,850,3,0.3,34.87322119,0.54050489
KUA,8,0,2024-06-30T18:47:49.786Z,english_937.wav,0,pill,850,4,0.4,62.02386853,0.53879588
KUA,8,0,2024-06-30T18:47:49.786Z,english_937.wav,0,pill,850,5,0.5,-76.91099942,0.40459306
KUA,8,0,2024-06-30T18:47:49.786Z,english_937.wav,0,pill,850,6,0.6,85.65284811,1.92541325
KUA,8,0,2024-06-30T18:47:49.786Z,english_937.wav,0,pill,850,7,0.7,16.74886634,1.53445282
KUA,8,0,2024-06-30T18:47:49.786Z,english_937.wav,0,pill,850,8,0.8,-83.35160832,0.38375611
KUA,8,0,2024-06-30T18:47:49.786Z,english_937.wav,0,pill,850,9,0.9,99.3500254,0.09137971
KUA,8,0,2024-06-30T18:47:49.786Z,english_937.wav,0,pill,850,10,1.0,-72.7605227,0.90026455
KUA,8,0,2024-06-30T18:47:49.786Z,english_937.wav,0,pill,850,11,1.09391667,-40.54115445,0.89252671
KUA,9,0,2024-06-30T18:47:49.786Z,english_34.wav,0,peel,607,0,0.0,9.71692873,1.51290073
KUA,9,0,2024-06-30T18:47:49.786Z,english_34.wav,0,peel,607,1,0.1,-32.4765448,1.69209185
KUA,9,0,2024-06-30T18:47:49.786Z,english_34.wav,0,peel,607,2,0.2,15.43761556,1.03006511
KUA,9,0,2024-06-30T18:47:49.786Z,english_34.wav,0,peel,607,3,0.3,58.61018381,0.24425739
KUA,9,0,2024-06-30T18:47:49.786Z,english_34.wav,0,peel,607,4,0.4,25.83507297,1.41814457
KUA,9,0,2024-06-30T18:47:49.786Z,english_34.wav,0,peel,607,5,0.5,-56.32199776,1.04050252
KUA,9,0,2024-06-30T18:47:49.786Z,english_34.wav,0,peel,607,6,0.6,-56.68859517,0.2977066
KUA,9,0,2024-06-30T18:47:49.786Z,english_34.wav,0,peel,607,7,0.7,-35.23691581,0.84278016
KUA,9,0,2024-06-30T18:47:49.786Z,english_34.wav,0,peel,607,8,0.8,-38.05292499,1.02765016
KUA,9,0,2024-06-30T18:47:49.786Z,english_34.wav,0,peel,607,9,0.9,-19.80503333,1.82923519
KUA,9,0,2024-06-30T18:47:49.786Z,english_34.wav,0,peel,607,10,1.0,18.63515133,1.36188649
KUA,9,0,2024-06-30T18:47:49.786Z,english_34.wav,0,peel,607,11,1.09391667,20.3470687,1.04188566
KUA,10,0,2024-06-30T18:47:49.786Z,english_301.wav,0,pill,933,0,0.0,20.00084454,0.51149801
KUA,10,0,2024-06-30T18:47:49.786Z,english_301.wav,0,pill,933,1,0.1,-52.8514029,1.39891418
KUA,10,0,2024-06-30T18:47:49.786Z,english_301.wav,0,pill,933,2,0.2,18.35573453,1.20064295
KUA,10,0,2024-06-30T18:47:49.786Z,english_301.wav,0,pill,933,3,0.3,20.24530443,1.16262284
KUA,10,0,2024-06-30T18:47:49.786Z,english_301.wav,0,pill,933,4,0.4,-31.13596974,0.89189618
KUA,10,0,2024-06-30T18:47:49.786Z,english_301.wav,0,pill,933,5,0.5,-57.63348461,0.05591257
KUA,10,0,2024-06-30T18:47:49.786Z,english_301.wav,0,pill,933,6,0.6,-75.64185581,1.65560528
KUA,10,0,2024-06-30T18:47:49.786Z,english_301.wav,0,pill,933,7,0.7,11.75816268,0.92096294
KUA,10,0,2024-06-30T18:47:49.786Z,english_301.wav,0,pill,933,8,0.8,94.20607314,0.41490279
KUA,10,0,2024-06-30T18:47:49.786Z,english_301.wav,0,pill,933,9,0.9,-85.03664705,1.73145538
KUA,10,0,2024-06-30T18:47:49.786Z,english_301.wav,0,pill,933,10,1.0,-35.05020918,1.60276464
KUA,10,0,2024-06-30T18:47:49.786Z,english_301.wav,0,pill,933,11,1.09391667,79.38839228,1.26188471
KUA,11,0,2024-06-30T18:47:49.786Z,english_303.wav,0,pill,406,0,0.0,0.14016308,1.85835187
KUA,11,0,2024-06-30T18:47:49.786Z,english_303.wav,0,pill,406,1,0.1,-44.5758284,0.39450132
KUA,11,0,2024-06-30T18:47:49.786Z,english_303.wav,0,pill,406,2,0.2,40.18240402,0.24238742
KUA,11,0,2024-06-30T18:47:49.786Z,english_303.wav,0,pill,406,3,0.3,-39.07989996,0.56764068
KUA,11,0,2024-06-30T18:47:49.786Z,english_303.wav,0,pill,406,4,0.4,67.80800806,1.20233096
KUA,11,0,2024-06-30T18:47:49.786Z,english_303.wav,0,pill,406,5,0.5,17.65490848,0.74682504
KUA,11,0,2024-06-30T18:47:49.786Z,english_303.wav,0,pill,406,6,0.6,58.57137806,1.26635068
KUA,11,0,2024-06-30T18:47:49.786Z,english_303.wav,0,pill,406,7,0.7,-9.36157139,0.78955625
KUA,11,0,2024-06-30T18:47:49.786Z,english_303.wav,0,pill,406,8,0.8,-59.59223338,0.64317534
KUA,11,0,2024-06-30T18:47:49.786Z,english_303.wav,0,pill,406,9,0.9,-85.34182112,0.64803316
KUA,11,0,2024-06-30T18:47:49.786Z,english_303.wav,0,pill,406,10,1.0,98.58496987,0.59787494
KUA,11,0,2024-06-30T18:47:49.786Z,english_303.wav,0,pill,406,11,1.09391667,0.30898467,1.47452335
KUA,12,0,2024-06-30T18:47:49.786Z,english_846.wav,0,peel,888,0,0.0,47.64315726,0.95758586
KUA,12,0,2024-06-30T18:47:49.786Z,english_846.wav,0,peel,888,1,0.1,43.78617601,0.16218947
KUA,12,0,2024-06-30T18:47:49.786Z,english_846.wav,0,peel,888,2,0.2,-67.59598015,0.72860603
KUA,12,0,2024-06-30T18:47:49.786Z,english_846.wav,0,peel,888,3,0.3,75.82681519,0.60627127
KUA,12,0,2024-06-30T18:47:49.786Z,english_846.wav,0,peel,888,4,0.4,74.28596976,0.41876793
KUA,12,0,2024-06-30T18:47:49.786Z,english_846.wav,0,peel,888,5,0.5,40.48744531,1.23414848
KUA,12,0,2024-06-30T18:47:49.786Z,english_846.wav,0,peel,888,6,0.6,-65.90904049,1.54330327
KUA,12,0,2024-06-30T18:47:49.786Z,english_846.wav,0,peel,888,7,0.7,90.52035497,1.06483437
KUA,12,0,2024-06-30T18:47:49.786Z,english_846.wav,0,peel,888,8,0.8,-68.67205107,0.84380864
KUA,12,0,2024-06-30T18:47:49.786Z,english_846.wav,0,peel,888,9,0.9,8.67982792,0.84626324
KUA,12,0,2024-06-30T18:47:49.786Z,english_846.wav,0,peel,888,10,1.0,-64.09193989,1.29492524
KUA,12,0,2024-06-30T18:47:49.786Z,english_846.wav,0,peel,888,11,1.09391667,11.5113113,0.37776928
KUA,13,0,2024-06-30T18:47:49.786Z,english_310.wav,0,peel,541,0,0.0,-73.0364012,1.20427188
KUA,13,0,2024-06-30T18:47:49.786Z,english_310.wav,0,peel,541,1,0.1,-22.1461231,0.93293509
KUA,13,0,2024-06-30T18:47:49.786Z,english_310.wav,0,peel,541,2,0.2,-68.7915777,0.44843766
KUA,13,0,2024-06-30T18:47:49.786Z,english_310.wav,0,peel,541,3,0.3,15.9567541,1.947333
KUA,13,0,2024-06-30T18:47:49.786Z,english_310.wav,0,peel,541,4,0.4,0.0690214219,0.80984127
KUA,13,0,2024-06-30T18:47:49.786Z,english_310.wav,0,peel,541,5,0.5,11.0751916,0.49483553
KUA,13,0,2024-06-30T18:47:49.786Z,english_310.wav,0,peel,541,6,0.6,-4.73549816,1.63471819
KUA,13,0,2024-06-30T18:47:49.786Z,english_310.wav,0,peel,541,7,0.7,89.4133264,0.6439244
KUA,13,0,2024-06-30T18:47:49.786Z,english_310.wav,0,peel,541,8,0.8,8.5991291,1.83711469
KUA,13,0,2024-06-30T18:47:49.786Z,english_310.wav,0,peel,541,9,0.9,-42.9855425,1.01800117
KUA,13,0,2024-06-30T18:47:49.786Z,english_310.wav,0,peel,541,10,1.0,21.7690352,0.59348897
KUA,13,0,2024-06-30T18:47:49.786Z,english_310.wav,0,peel,541,11,1.09391667,-68.5633248,1.68402605
KUA,14,0,2024-06-30T18:47:49.786Z,english_128.wav,0,peel,500,0,0.0,-22.61942611,1.66721471
KUA,14,0,2024-06-30T18:47:49.786Z,english_128.wav,0,peel,500,1,0.1,68.41227715,1.06525369
KUA,14,0,2024-06-30T18:47:49.786Z,english_128.wav,0,peel,500,2,0.2,-54.10958419,1.55278382
KUA,14,0,2024-06-30T18:47:49.786Z,english_128.wav,0,peel,500,3,0.3,-34.3976761,1.27447121
KUA,14,0,2024-06-30T18:47:49.786Z,english_128.wav,0,peel,500,4,0.4,-80.35189368,1.24533025
KUA,14,0,2024-06-30T18:47:49.786Z,english_128.wav,0,peel,500,5,0.5,-23.21922247,0.40128709
KUA,14,0,2024-06-30T18:47:49.786Z,english_128.wav,0,peel,500,6,0.6,75.93285278,1.08908342
KUA,14,0,2024-06-30T18:47:49.786Z,english_128.wav,0,peel,500,7,0.7,-25.01230628,1.52248699
KUA,14,0,2024-06-30T18:47:49.786Z,english_128.wav,0,peel,500,8,0.8,23.78207095,1.64911831
KUA,14,0,2024-06-30T18:47:49.786Z,english_128.wav,0,peel,500,9,0.9,-74.87827882,0.03473392
KUA,14,0,2024-06-30T18:47:49.786Z,english_128.wav,0,peel,500,10,1.0,74.39346852,1.99892406
KUA,14,0,2024-06-30T18:47:49.786Z,english_128.wav,0,peel,500,11,1.09391667,30.71976897,1.56565298
KUA,15,0,2024-06-30T18:47:49.786Z,english_658.wav,0,peel,613,0,0.0,28.12480694,0.12118838
KUA,15,0,2024-06-30T18:47:49.786Z,english_658.wav,0,peel,613,1,0.1,17.57040955,1.52191588
KUA,15,0,2024-06-30T18:47:49.786Z,english_658.wav,0,peel,613,2,0.2,57.56255577,1.14331833
KUA,15,0,2024-06-30T18:47:49.786Z,english_658.wav,0,peel,613,3,0.3,-3.0966162,0.60390633
KUA,15,0,2024-06-30T18:47:49.786Z,english_658.wav,0,peel,613,4,0.4,6.39522781,0.27160458
KUA,15,0,2024-06-30T18:47:49.786Z,english_658.wav,0,peel,613,5,0.5,16.02438064,0.17957329
KUA,15,0,2024-06-30T18:47:49.786Z,english_658.wav,0,peel,613,6,0.6,-1.20192687,0.27771517
KUA,15,0,2024-06-30T18:47:49.786Z,english_658.wav,0,peel,613,7,0.7,-8.08463242,0.60605354
KUA,15,0,2024-06-30T18:47:49.786Z,english_658.wav,0,peel,613,8,0.8,-12.30429445,1.71812783
KUA,15,0,2024-06-30T18:47:49.786Z,english_658.wav,0,peel,613,9,0.9,-0.5409395,0.55654772
KUA,15,0,2024-06-30T18:47:49.786Z,english_658.wav,0,peel,613,10,1.0,25.97570406,1.53064605
KUA,15,0,2024-06-30T18:47:49.786Z,english_658.wav,0,peel,613,11,1.09391667,75.76475536,1.32831885
KUA,16,0,2024-06-30T18:47:49.786Z,english_63.wav,0,pill,634,0,0.0,48.80645604,0.56207448
KUA,16,0,2024-06-30T18:47:49.786Z,english_63.wav,0,pill,634,1,0.1,3.74871088,0.93485315
KUA,16,0,2024-06-30T18:47:49.786Z,english_63.wav,0,pill,634,2,0.2,36.66338235,1.21075073
KUA,16,0,2024-06-30T18:47:49.786Z,english_63.wav,0,pill,634,3,0.3,0.45158548,1.91331277
KUA,16,0,2024-06-30T18:47:49.786Z,english_63.wav,0,pill,634,4,0.4,-34.50897998,0.52750999
KUA,16,0,2024-06-30T18:47:49.786Z,english_63.wav,0,pill,634,5,0.5,21.44979621,1.42707635
KUA,16,0,2024-06-30T18:47:49.786Z,english_63.wav,0,pill,634,6,0.6,-13.42489637,1.96742567
KUA,16,0,2024-06-30T18:47:49.786Z,english_63.wav,0,pill,634,7,0.7,3.18187359,1.57355325
KUA,16,0,2024-06-30T18:47:49.786Z,english_63.wav,0,pill,634,8,0.8,-14.80243304,0.94386171
KUA,16,0,2024-06-30T18:47:49.786Z,english_63.wav,0,pill,634,9,0.9,76.25105629,0.6095205
KUA,16,0,2024-06-30T18:47:49.786Z,english_63.wav,0,pill,634,10,1.0,-29.02472721,0.97846037
KUA,16,0,2024-06-30T18:47:49.786Z,english_63.wav,0,pill,634,11,1.09391667,-75.42163707,1.94412545
KUA,17,0,2024-06-30T18:47:49.786Z,english_42.wav,0,pill,900,0,0.0,-12.35235723,0.89110064
KUA,17,0,2024-06-30T18:47:49.786Z,english_42.wav,0,pill,900,1,0.1,-31.30593397,0.38934259
KUA,17,0,2024-06-30T18:47:49.786Z,english_42.wav,0,pill,900,2,0.2,93.22547931,1.45440232
KUA,17,0,2024-06-30T18:47:49.786Z,english_42.wav,0,pill,900,3,0.3,3.55661221,0.25584691
KUA,17,0,2024-06-30T18:47:49.786Z,english_42.wav,0,pill,900,4,0.4,-65.82574245,1.05295351
KUA,17,0,2024-06-30T18:47:49.786Z,english_42.wav,0,pill,900,5,0.5,29.87364381,0.59087155
KUA,17,0,2024-06-30T18:47:49.786Z,english_42.wav,0,pill,900,6,0.6,-76.70361056,0.12112438
KUA,17,0,2024-06-30T18:47:49.786Z,english_42.wav,0,pill,900,7,0.7,-29.10356368,0.72116868
KUA,17,0,2024-06-30T18:47:49.786Z,english_42.wav,0,pill,900,8,0.8,-52.57981462,0.07340316
KUA,17,0,2024-06-30T18:47:49.786Z,english_42.wav,0,pill,900,9,0.9,3.2621499,1.9617885
KUA,17,0,2024-06-30T18:47:49.786Z,english_42.wav,0,pill,900,10,1.0,-86.59512904,0.50342264
KUA,17,0,2024-06-30T18:47:49.786Z,english_42.wav,0,pill,900,11,1.09391667,39.23696044,1.24684981
KUA,18,0,2024-06-30T18:47:49.786Z,english_584.wav,0,pill,2358,0,0.0,50.7358721,1.24615014
KUA,18,0,2024-06-30T18:47:49.786Z,english_584.wav,0,pill,2358,1,0.1,-37.41238679,1.8454839
KUA,18,0,2024-06-30T18:47:49.786Z,english_584.wav,0,pill,2358,2,0.2,-21.91541438,1.76277899
KUA,18,0,2024-06-30T18:47:49.786Z,english_584.wav,0,pill,2358,3,0.3,67.49251718,0.88473448
KUA,18,0,2024-06-30T18:47:49.786Z,english_584.wav,0,pill,2358,4,0.4,36.0609863,0.58271182
KUA,18,0,2024-06-30T18:47:49.786Z,english_584.wav,0,pill,2358,5,0.5,29.68399092,1.46602634
KUA,18,0,2024-06-30T18:47:49.786Z,english_584.wav,0,pill,2358,6,0.6,69.24169566,1.79468998
KUA,18,0,2024-06-30T18:47:49.786Z,english_584.wav,0,pill,2358,7,0.7,2.10305954,1.56143928
KUA,18,0,2024-06-30T18:47:49.786Z,english_584.wav,0,pill,2358,8,0.8,23.93501401,0.46568097
KUA,18,0,2024-06-30T18:47:49.786Z,english_584.wav,0,pill,2358,9,0.9,-17.64282744,0.5808441
KUA,18,0,2024-06-30T18:47:49.786Z,english_584.wav,0,pill,2358,10,1.0,80.89116082,1.80196263
KUA,18,0,2024-06-30T18:47:49.786Z,english_584.wav,0,pill,2358,11,1.09391667,-10.99932322,1.58954467
KUA,19,0,2024-06-30T18:47:49.786Z,english_709.wav,0,peel,519,0,0.0,54.89445194,0.75029311
KUA,19,0,2024-06-30T18:47:49.786Z,english_709.wav,0,peel,519,1,0.1,-13.90675493,1.75887389
KUA,19,0,2024-06-30T18:47:49.786Z,english_709.wav,0,peel,519,2,0.2,17.54151592,1.84695168
KUA,19,0,2024-06-30T18:47:49.786Z,english_709.wav,0,peel,519,3,0.3,-21.79257769,0.96071145
KUA,19,0,2024-06-30T18:47:49.786Z,english_709.wav,0,peel,519,4,0.4,55.10787635,1.22566663
KUA,19,0,2024-06-30T18:47:49.786Z,english_709.wav,0,peel,519,5,0.5,-57.13962404,1.94059393
KUA,19,0,2024-06-30T18:47:49.786Z,english_709.wav,0,peel,519,6,0.6,-5.37289715,0.52219194
KUA,19,0,2024-06-30T18:47:49.786Z,english_709.wav,0,peel,519,7,0.7,27.40236622,0.9142424
KUA,19,0,2024-06-30T18:47:49.786Z,english_709.wav,0,peel,519,8,0.8,12.19670027,1.75067757
KUA,19,0,2024-06-30T18:47:49.786Z,english_709.wav,0,peel,519,9,0.9,91.20271112,0.7385059
KUA,19,0,2024-06-30T18:47:49.786Z,english_709.wav,0,peel,519,10,1.0,89.17036871,1.92412986
KUA,19,0,2024-06-30T18:47:49.786Z,english_709.wav,0,peel,519,11,1.09391667,50.36439179,0.79240238
KUA,20,0,2024-06-30T18:47:49.786Z,english_351.wav,0,pill,1140,0,0.0,-19.65986015,1.42460204
KUA,20,0,2024-06-30T18:47:49.786Z,english_351.wav,0,pill,1140,1,0.1,73.58710044,0.00643347
KUA,20,0,2024-06-30T18:47:49.786Z,english_351.wav,0,pill,1140,2,0.2,74.12275499,0.97495265
KUA,20,0,2024-06-30T18:47:49.786Z,english_351.wav,0,pill,1140,3,0.3,-24.45683786,0.52137616
KUA,20,0,2024-06-30T18:47:49.786Z,english_351.wav,0,pill,1140,4,0.4,21.01511918,1.11946487
KUA,20,0,2024-06-30T18:47:49.786Z,english_351.wav,0,pill,1140,5,0.5,55.7456538,0.33788576
KUA,20,0,2024-06-30T18:47:49.786Z,english_351.wav,0,pill,1140,6,0.6,54.50583955,1.25361851
KUA,20,0,2024-06-30T18:47:49.786Z,english_351.wav,0,pill,1140,7,0.7,74.68230433,1.43767459
KUA,20,0,2024-06-30T18:47:49.786Z,english_351.wav,0,pill,1140,8,0.8,-93.39577551,0.08040705
KUA,20,0,2024-06-30T18:47:49.786Z,english_351.wav,0,pill,1140,9,0.9,89.8823857,0.01025875
KUA,20,0,2024-06-30T18:47:49.786Z,english_351.wav,0,pill,1140,10,1.0,82.37960735,0.65117528
KUA,20,0,2024-06-30T18:47:49.786Z,english_351.wav,0,pill,1140,11,1.09391667,-9.15420485,0.78690639
KUA,21,0,2024-06-30T18:47:49.786Z,english_385.wav,0,pill,521,0,0.0,0.33828369,0.38016584
KUA,21,0,2024-06-30T18:47:49.786Z,english_385.wav,0,pill,521,1,0.1,2.41058867,1.8714009
KUA,21,0,2024-06-30T18:47:49.786Z,english_385.wav,0,pill,521,2,0.2,-12.54892467,0.45382881
KUA,21,0,2024-06-30T18:47:49.786Z,english_385.wav,0,pill,521,3,0.3,-41.7912056,1.31398474
KUA,21,0,2024-06-30T18:47:49.786Z,english_385.wav,0,pill,521,4,0.4,-44.49264688,1.04402362
KUA,21,0,2024-06-30T18:47:49.786Z,english_385.wav,0,pill,521,5,0.5,0.14407831,0.57870544
KUA,21,0,2024-06-30T18:47:49.786Z,english_385.wav,0,pill,521,6,0.6,-25.57843431,1.74841786
KUA,21,0,2024-06-30T18:47:49.786Z,english_385.wav,0,pill,521,7,0.7,-39.2816597,1.62984391
KUA,21,0,2024-06-30T18:47:49.786Z,english_385.wav,0,pill,521,8,0.8,-88.59516391,0.16451748
KUA,21,0,2024-06-30T18:47:49.786Z,english_385.wav,0,pill,521,9,0.9,-28.05531573,0.80459877
KUA,21,0,2024-06-30T18:47:49.786Z,english_385.wav,0,pill,521,10,1.0,-37.07272381,0.03974207
KUA,21,0,2024-06-30T18:47:49.786Z,english_385.wav,0,pill,521,11,1.09391667,-61.44238802,1.20121467
KUA,22,0,2024-06-30T18:47:49.786Z,english_166.wav,0,peel,484,0,0.0,-22.47224396,0.79935629
KUA,22,0,2024-06-30T18:47:49.786Z,english_166.wav,0,peel,484,1,0.1,8.34418228,1.08766258
KUA,22,0,2024-06-30T18:47:49.786Z,english_166.wav,0,peel,484,2,0.2,-26.80375044,0.88793969
KUA,22,0,2024-06-30T18:47:49.786Z,english_166.wav,0,peel,484,3,0.3,-25.22426401,1.85581966
KUA,22,0,2024-06-30T18:47:49.786Z,english_166.wav,0,peel,484,4,0.4,-44.17860095,1.74261815
KUA,22,0,2024-06-30T18:47:49.786Z,english_166.wav,0,peel,484,5,0.5,-7.8395137,0.67828824
KUA,22,0,2024-06-30T18:47:49.786Z,english_166.wav,0,peel,484,6,0.6,42.03338864,0.30993225
KUA,22,0,2024-06-30T18:47:49.786Z,english_166.wav,0,peel,484,7,0.7,50.48936268,1.83209491
KUA,22,0,2024-06-30T18:47:49.786Z,english_166.wav,0,peel,484,8,0.8,-79.33283531,1.96795539
KUA,22,0,2024-06-30T18:47:49.786Z,english_166.wav,0,peel,484,9,0.9,57.67304972,0.73278394
KUA,22,0,2024-06-30T18:47:49.786Z,english_166.wav,0,peel,484,10,1.0,75.92662412,1.69577801
KUA,22,0,2024-06-30T18:47:49.786Z,english_166.wav,0,peel,484,11,1.09391667,-5.06556073,0.31756742
KUA,23,0,2024-06-30T18:47:49.786Z,english_464.wav,0,peel,650,0,0.0,-23.34522256,1.83574023
KUA,23,0,2024-06-30T18:47:49.786Z,english_464.wav,0,peel,650,1,0.1,-19.55225305,1.45464116
KUA,23,0,2024-06-30T18:47:49.786Z,english_464.wav,0,peel,650,2,0.2,-17.46601835,0.96557802
KUA,23,0,2024-06-30T18:47:49.786Z,english_464.wav,0,peel,650,3,0.3,-18.06083259,0.862048
KUA,23,0,2024-06-30T18:47:49.786Z,english_464.wav,0,peel,650,4,0.4,39.93999663,1.49154181
KUA,23,0,2024-06-30T18:47:49.786Z,english_464.wav,0,peel,650,5,0.5,18.26379158,0.8466408
KUA,23,0,2024-06-30T18:47:49.786Z,english_464.wav,0,peel,650,6,0.6,29.05119834,1.01287791
KUA,23,0,2024-06-30T18:47:49.786Z,english_464.wav,0,peel,650,7,0.7,-59.7360239,0.24671588
KUA,23,0,2024-06-30T18:47:49.786Z,english_464.wav,0,peel,650,8,0.8,88.20887552,1.40889965
KUA,23,0,2024-06-30T18:47:49.786Z,english_464.wav,0,peel,650,9,0.9,-3.73411856,0.91232797
KUA,23,0,2024-06-30T18:47:49.786Z,english_464.wav,0,peel,650,10,1.0,-94.561572,0.94183149
KUA,23,0,2024-06-30T18:47:49.786Z,english_464.wav,0,peel,650,11,1.09391667,-28.03048225,1.23465261
KUA,24,0,2024-06-30T18:47:49.786Z,english_437.wav,0,pill,471,0,0.0,33.55993848,1.07053388
KUA,24,0,2024-06-30T18:47:49.786Z,english_437.wav,0,pill,471,1,0.1,99.2710896,1.13266277
KUA,24,0,2024-06-30T18:47:49.786Z,english_437.wav,0,pill,471,2,0.2,-32.57477065,1.9895336
KUA,24,0,2024-06-30T18:47:49.786Z,english_437.wav,0,pill,471,3,0.3,-17.79752124,1.49721118
KUA,24,0,2024-06-30T18:47:49.786Z,english_437.wav,0,pill,471,4,0.4,7.76381485,1.18690415
KUA,24,0,2024-06-30T18:47:49.786Z,english_437.wav,0,pill,471,5,0.5,-50.05370097,1.89119188
KUA,24,0,2024-06-30T18:47:49.786Z,english_437.wav,0,pill,471,6,0.6,5.06874502,0.49511118
KUA,24,0,2024-06-30T18:47:49.786Z,english_437.wav,0,pill,471,7,0.7,1.99558214,1.27007291
KUA,24,0,2024-06-30T18:47:49.786Z,english_437.wav,0,pill,471,8,0.8,43.8272749,1.66092274
KUA,24,0,2024-06-30T18:47:49.786Z,english_437.wav,0,pill,471,9,0.9,98.27063476,0.51492766
KUA,24,0,2024-06-30T18:47:49.786Z,english_437.wav,0,pill,471,10,1.0,18.74881687,0.04140418
KUA,24,0,2024-06-30T18:47:49.786Z,english_437.wav,0,pill,471,11,1.09391667,-57.70401561,0.6117047
KUA,25,0,2024-06-30T18:47:49.786Z,english_406.wav,0,peel,641,0,0.0,16.41054839,1.82011871
KUA,25,0,2024-06-30T18:47:49.786Z,english_406.wav,0,peel,641,1,0.1,-23.44264217,1.5788444
KUA,25,0,2024-06-30T18:47:49.786Z,english_406.wav,0,peel,641,2,0.2,67.00437835,0.98241909
KUA,25,0,2024-06-30T18:47:49.786Z,english_406.wav,0,peel,641,3,0.3,32.24147439,1.73565394
KUA,25,0,2024-06-30T18:47:49.786Z,english_406.wav,0,peel,641,4,0.4,-69.94095423,0.23880913
KUA,25,0,2024-06-30T18:47:49.786Z,english_406.wav,0,peel,641,5,0.5,-75.95608649,1.64825439
KUA,25,0,2024-06-30T18:47:49.786Z,english_406.wav,0,peel,641,6,0.6,26.64856795,1.51416343
KUA,25,0,2024-06-30T18:47:49.786Z,english_406.wav,0,peel,641,7,0.7,28.46707033,0.23765412
KUA,25,0,2024-06-30T18:47:49.786Z,english_406.wav,0,peel,641,8,0.8,8.57252797,0.78664096
KUA,25,0,2024-06-30T18:47:49.786Z,english_406.wav,0,peel,641,9,0.9,-43.42045484,1.03412093
KUA,25,0,2024-06-30T18:47:49.786Z,english_406.wav,0,peel,641,10,1.0,-38.23728815,1.06202892
KUA,25,0,2024-06-30T18:47:49.786Z,english_406.wav,0,peel,641,11,1.09391667,-48.66780803,0.40663901
KUA,26,0,2024-06-30T18:47:49.786Z,english_97.wav,0,pill,296,0,0.0,76.37857638,1.79294701
KUA,26,0,2024-06-30T18:47:49.786Z,english_97.wav,0,pill,296,1,0.1,-4.28991847,0.18306204
KUA,26,0,2024-06-30T18:47:49.786Z,english_97.wav,0,pill,296,2,0.2,47.01039737,1.8440549
KUA,26,0,2024-06-30T18:47:49.786Z,english_97.wav,0,pill,296,3,0.3,78.99599817,1.28830428
KUA,26,0,2024-06-30T18:47:49.786Z,english_97.wav,0,pill,296,4,0.4,-74.44800797,0.92549922
KUA,26,0,2024-06-30T18:47:49.786Z,english_97.wav,0,pill,296,5,0.5,-0.92525099,1.98803443
KUA,26,0,2024-06-30T18:47:49.786Z,english_97.wav,0,pill,296,6,0.6,49.24834696,1.73109288
KUA,26,0,2024-06-30T18:47:49.786Z,english_97.wav,0,pill,296,7,0.7,54.51821925,0.57923617
KUA,26,0,2024-06-30T18:47:49.786Z,english_97.wav,0,pill,296,8,0.8,21.55646095,1.43675725
KUA,26,0,2024-06-30T18:47:49.786Z,english_97.wav,0,pill,296,9,0.9,38.61141557,0.35677857
KUA,26,0,2024-06-30T18:47:49.786Z,english_97.wav,0,pill,296,10,1.0,-51.21992239,0.21609993
KUA,26,0,2024-06-30T18:47:49.786Z,english_97.wav,0,pill,296,11,1.09391667,-54.62741944,0.92594918
KUA,27,0,2024-06-30T18:47:49.786Z,english_991.wav,0,peel,573,0,0.0,-1.1896089,1.11058757
KUA,27,0,2024-06-30T18:47:49.786Z,english_991.wav,0,peel,573,1,0.1,-96.26402249,0.1672209
KUA,27,0,2024-06-30T18:47:49.786Z,english_991.wav,0,peel,573,2,0.2,35.13230964,1.95155766
KUA,27,0,2024-06-30T18:47:49.786Z,english_991.wav,0,peel,573,3,0.3,16.47291022,0.04651437
KUA,27,0,2024-06-30T18:47:49.786Z,english_991.wav,0,peel,573,4,0.4,-88.97016612,1.74859016
KUA,27,0,2024-06-30T18:47:49.786Z,english_991.wav,0,peel,573,5,0.5,-18.26917978,1.4122656
KUA,27,0,2024-06-30T18:47:49.786Z,english_991.wav,0,peel,573,6,0.6,-86.44611587,0.52281086
KUA,27,0,2024-06-30T18:47:49.786Z,english_991.wav,0,peel,573,7,0.7,-23.18394533,1.29572944
KUA,27,0,2024-06-30T18:47:49.786Z,english_991.wav,0,peel,573,8,0.8,-34.88810698,1.11115335
KUA,27,0,2024-06-30T18:47:49.786Z,english_991.wav,0,peel,573,9,0.9,58.2484142,1.29146841
KUA,27,0,2024-06-30T18:47:49.786Z,english_991.wav,0,peel,573,10,1.0,13.64122516,1.37847477
KUA,27,0,2024-06-30T18:47:49.786Z,english_991.wav,0,peel,573,11,1.09391667,-13.61979163,0.12249008
KUA,28,0,2024-06-30T18:47:49.786Z,english_210.wav,0,peel,1344,0,0.0,-22.3598959,0.75499894
KUA,28,0,2024-06-30T18:47:49.786Z,english_210.wav,0,peel,1344,1,0.1,82.81767229,1.61294131
KUA,28,0,2024-06-30T18:47:49.786Z,english_210.wav,0,peel,1344,2,0.2,64.75592146,0.96857287
KUA,28,0,2024-06-30T18:47:49.786Z,english_210.wav,0,peel,1344,3,0.3,38.64105246,1.31710082
KUA,28,0,2024-06-30T18:47:49.786Z,english_210.wav,0,peel,1344,4,0.4,-56.81269148,0.48607374
KUA,28,0,2024-06-30T18:47:49.786Z,english_210.wav,0,peel,1344,5,0.5,55.50536216,0.56849668
KUA,28,0,2024-06-30T18:47:49.786Z,english_210.wav,0,peel,1344,6,0.6,-90.16901587,0.68954785
KUA,28,0,2024-06-30T18:47:49.786Z,english_210.wav,0,peel,1344,7,0.7,-5.65019453,1.61518036
KUA,28,0,2024-06-30T18:47:49.786Z,english_210.wav,0,peel,1344,8,0.8,-52.20950635,0.58148747
KUA,28,0,2024-06-30T18:47:49.786Z,english_210.wav,0,peel,1344,9,0.9,2.11037441,1.45053329
KUA,28,0,2024-06-30T18:47:49.786Z,english_210.wav,0,peel,1344,10,1.0,-72.63173863,1.53157276
KUA,28,0,2024-06-30T18:47:49.786Z,english_210.wav,0,peel,1344,11,1.09391667,-28.48995406,1.31948045
KUA,29,0,2024-06-30T18:47:49.786Z,english_421.wav,0,pill,420,0,0.0,-77.37875109,0.40906671
KUA,29,0,2024-06-30T18:47:49.786Z,english_421.wav,0,pill,420,1,0.1,21.68470971,0.10764534
KUA,29,0,2024-06-30T18:47:49.786Z,english_421.wav,0,pill,420,2,0.2,25.95594031,0.09890733
KUA,29,0,2024-06-30T18:47:49.786Z,english_421.wav,0,pill,420,3,0.3,-54.56850785,1.06704705
KUA,29,0,2024-06-30T18:47:49.786Z,english_421.wav,0,pill,420,4,0.4,24.0018444,0.2085299
KUA,29,0,2024-06-30T18:47:49.786Z,english_421.wav,0,pill,420,5,0.5,-47.82681182,0.29426066
KUA,29,0,2024-06-30T18:47:49.786Z,english_421.wav,0,pill,420,6,0.6,-46.58707105,1.5200041
KUA,29,0,2024-06-30T18:47:49.786Z,english_421.wav,0,pill,420,7,0.7,77.25272005,0.50765671
KUA,29,0,2024-06-30T18:47:49.786Z,english_421.wav,0,pill,420,8,0.8,77.76425926,0.03381604
KUA,29,0,2024-06-30T18:47:49.786Z,english_421.wav,0,pill,420,9,0.9,25.41801762,1.11402173
KUA,29,0,2024-06-30T18:47:49.786Z,english_421.wav,0,pill,420,10,1.0,38.43952496,1.16253286
KUA,29,0,2024-06-30T18:47:49.786Z,english_421.wav,0,pill,420,11,1.09391667,67.75811728,1.4554509
KUA,30,0,2024-06-30T18:47:49.786Z,english_888.wav,0,pill,2744,0,0.0,-39.7925546,0.13458958
KUA,30,0,2024-06-30T18:47:49.786Z,english_888.wav,0,pill,2744,1,0.1,-49.30113257,1.48324952
KUA,30,0,2024-06-30T18:47:49.786Z,english_888.wav,0,pill,2744,2,0.2,5.97243806,0.77423602
KUA,30,0,2024-06-30T18:47:49.786Z,english_888.wav,0,pill,2744,3,0.3,16.41276851,0.11110742
KUA,30,0,2024-06-30T18:47:49.786Z,english_888.wav,0,pill,2744,4,0.4,72.72751695,0.50050507
KUA,30,0,2024-06-30T18:47:49.786Z,english_888.wav,0,pill,2744,5,0.5,30.43059144,1.62800327
KUA,30,0,2024-06-30T18:47:49.786Z,english_888.wav,0,pill,2744,6,0.6,-50.61460993,0.52150538
KUA,30,0,2024-06-30T18:47:49.786Z,english_888.wav,0,pill,2744,7,0.7,27.35581245,1.33185555
KUA,30,0,2024-06-30T18:47:49.786Z,english_888.wav,0,pill,2744,8,0.8,-42.43293374,1.57744059
KUA,30,0,2024-06-30T18:47:49.786Z,english_888.wav,0,pill,2744,9,0.9,65.78948432,0.93033448
KUA,30,0,2024-06-30T18:47:49.786Z,english_888.wav,0,pill,2744,10,1.0,10.78660964,1.1520653
KUA,30,0,2024-06-30T18:47:49.786Z,english_888.wav,0,pill,2744,11,1.09391667,-21.51817703,1.84815249
KUA,31,0,2024-06-30T18:47:49.786Z,english_201.wav,0,pill,1211,0,0.0,38.80737773,0.9006916
KUA,31,0,2024-06-30T18:47:49.786Z,english_201.wav,0,pill,1211,1,0.1,-19.59989916,0.40577957
KUA,31,0,2024-06-30T18:47:49.786Z,english_201.wav,0,pill,1211,2,0.2,66.60738163,0.32844259
KUA,31,0,2024-06-30T18:47:49.786Z,english_201.wav,0,pill,1211,3,0.3,-56.04483053,1.02628552
KUA,31,0,2024-06-30T18:47:49.786Z,english_201.wav,0,pill,1211,4,0.4,70.74519799,1.24548515
KUA,31,0,2024-06-30T18:47:49.786Z,english_201.wav,0,pill,1211,5,0.5,-47.08782515,0.07505998
KUA,31,0,2024-06-30T18:47:49.786Z,english_201.wav,0,pill,1211,6,0.6,-82.17312899,0.1226459
KUA,31,0,2024-06-30T18:47:49.786Z,english_201.wav,0,pill,1211,7,0.7,4.63557835,1.79532837
KUA,31,0,2024-06-30T18:47:49.786Z,english_201.wav,0,pill,1211,8,0.8,13.50311248,1.69109423
KUA,31,0,2024-06-30T18:47:49.786Z,english_201.wav,0,pill,1211,9,0.9,50.05274214,0.91883167
KUA,31,0,2024-06-30T18:47:49.786Z,english_201.wav,0,pill,1211,10,1.0,-76.13616328,0.81807561
KUA,31,0,2024-06-30T18:47:49.786Z,english_201.wav,0,pill,1211,11,1.09391667,8.54722281,1.88316121
KUA,32,0,2024-06-30T18:47:49.786Z,english_872.wav,0,peel,532,0,0.0,-4.42672904,1.38946162
KUA,32,0,2024-06-30T18:47:49.786Z,english_872.wav,0,peel,532,1,0.1,-45.54953548,1.85362479
KUA,32,0,2024-06-30T18:47:49.786Z,english_872.wav,0,peel,532,2,0.2,61.94236328,1.40120351
KUA,32,0,2024-06-30T18:47:49.786Z,english_872.wav,0,peel,532,3,0.3,-6.76881519,0.73681545
KUA,32,0,2024-06-30T18:47:49.786Z,english_872.wav,0,peel,532,4,0.4,70.60925321,1.34579028
KUA,32,0,2024-06-30T18:47:49.786Z,english_872.wav,0,peel,532,5,0.5,61.83462206,0.03433947
KUA,32,0,2024-06-30T18:47:49.786Z,english_872.wav,0,peel,532,6,0.6,80.97898291,0.00901878
KUA,32,0,2024-06-30T18:47:49.786Z,english_872.wav,0,peel,532,7,0.7,85.22540412,0.90232531
KUA,32,0,2024-06-30T18:47:49.786Z,english_872.wav,0,peel,532,8,0.8,0.99054443,1.1650967
KUA,32,0,2024-06-30T18:47:49.786Z,english_872.wav,0,peel,532,9,0.9,4.65362218,1.94757047
KUA,32,0,2024-06-30T18:47:49.786Z,english_872.wav,0,peel,532,10,1.0,-50.74375514,1.11012852
KUA,32,0,2024-06-30T18:47:49.786Z,english_872.wav,0,peel,532,11,1.09391667,-72.71002663,1.91238116
KUA,33,0,2024-06-30T18:47:49.786Z,english_936.wav,0,pill,751,0,0.0,36.31221715,1.2887877
KUA,33,0,2024-06-30T18:47:49.786Z,english_936.wav,0,pill,751,1,0.1,-44.47492587,1.4589685
KUA,33,0,2024-06-30T18:47:49.786Z,english_936.wav,0,pill,751,2,0.2,-4.14718789,0.18405876
KUA,33,0,2024-06-30T18:47:49.786Z,english_936.wav,0,pill,751,3,0.3,-65.70158372,0.27129686
KUA,33,0,2024-06-30T18:47:49.786Z,english_936.wav,0,pill,751,4,0.4,76.09968898,0.60039507
KUA,33,0,2024-06-30T18:47:49.786Z,english_936.wav,0,pill,751,5,0.5,52.5413509,0.83949142
KUA,33,0,2024-06-30T18:47:49.786Z,english_936.wav,0,pill,751,6,0.6,5.38506085,0.92420877
KUA,33,0,2024-06-30T18:47:49.786Z,english_936.wav,0,pill,751,7,0.7,-9.33856544,0.31849757
KUA,33,0,2024-06-30T18:47:49.786Z,english_936.wav,0,pill,751,8,0.8,-79.6079489,1.55991954
KUA,33,0,2024-06-30T18:47:49.786Z,english_936.wav,0,pill,751,9,0.9,-51.30915368,1.32485451
KUA,33,0,2024-06-30T18:47:49.786Z,english_936.wav,0,pill,751,10,1.0,-23.2662762,1.1603689
KUA,33,0,2024-06-30T18:47:49.786Z,english_936.wav,0,pill,751,11,1.09391667,10.041916,0.29288231
KUA,34,0,2024-06-30T18:47:49.786Z,english_509.wav,0,peel,600,0,0.0,-60.47633283,1.8433091
KUA,34,0,2024-06-30T18:47:49.786Z,english_509.wav,0,peel,600,1,0.1,62.43182062,0.67753575
KUA,34,0,2024-06-30T18:47:49.786Z,english_509.wav,0,peel,600,2,0.2,-89.10254598,0.6228286
KUA,34,0,2024-06-30T18:47:49.786Z,english_509.wav,0,peel,600,3,0.3,-56.00324349,1.20175852
KUA,34,0,2024-06-30T18:47:49.786Z,english_509.wav,0,peel,600,4,0.4,-22.97503075,0.68327781
KUA,34,0,2024-06-30T18:47:49.786Z,english_509.wav,0,peel,600,5,0.5,-10.58010289,1.6981399
KUA,34,0,2024-06-30T18:47:49.786Z,english_509.wav,0,peel,600,6,0.6,41.52809509,1.77808046
KUA,34,0,2024-06-30T18:47:49.786Z,english_509.wav,0,peel,600,7,0.7,11.42336317,0.9915964
KUA,34,0,2024-06-30T18:47:49.786Z,english_509.wav,0,peel,600,8,0.8,-33.49389875,1.58247003
KUA,34,0,2024-06-30T18:47:49.786Z,english_509.wav,0,peel,600,9,0.9,-76.54160855,0.51702523
KUA,34,0,2024-06-30T18:47:49.786Z,english_509.wav,0,peel,600,10,1.0,67.53120636,1.67242009
KUA,34,0,2024-06-30T18:47:49.786Z,english_509.wav,0,peel,600,11,1.09391667,52.42137891,0.41732509
KUA,35,0,2024-06-30T18:47:49.786Z,english_552.wav,0,peel,1105,0,0.0,24.23901763,1.612105
KUA,35,0,2024-06-30T18:47:49.786Z,english_552.wav,0,peel,1105,1,0.1,-68.29569332,0.23755281
KUA,35,0,2024-06-30T18:47:49.786Z,english_552.wav,0,peel,1105,2,0.2,-76.60440788,1.12644766
KUA,35,0,2024-06-30T18:47:49.786Z,english_552.wav,0,peel,1105,3,0.3,-14.28309722,1.6498911
KUA,35,0,2024-06-30T18:47:49.786Z,english_552.wav,0,peel,1105,4,0.4,7.45259631,1.62705162
KUA,35,0,2024-06-30T18:47:49.786Z,english_552.wav,0,peel,1105,5,0.5,-96.79412631,0.02108582
KUA,35,0,2024-06-30T18:47:49.786Z,english_552.wav,0,peel,1105,6,0.6,19.00121721,0.46250888
KUA,35,0,2024-06-30T18:47:49.786Z,english_552.wav,0,peel,1105,7,0.7,28.47093687,0.61388361
KUA,35,0,2024-06-30T18:47:49.786Z,english_552.wav,0,peel,1105,8,0.8,-28.36467118,1.42538322
KUA,35,0,2024-06-30T18:47:49.786Z,english_552.wav,0,peel,1105,9,0.9,27.37810517,1.50029895
KUA,35,0,2024-06-30T18:47:49.786Z,english_552.wav,0,peel,1105,10,1.0,-1.36668835,0.7956711
KUA,35,0,2024-06-30T18:47:49.786Z,english_552.wav,0,peel,1105,11,1.09391667,-10.50305513,0.62245048
KUA,36,0,2024-06-30T18:47:49.786Z,english_419.wav,0,pill,984,0,0.0,-43.56677124,1.2135263
KUA,36,0,2024-06-30T18:47:49.786Z,english_419.wav,0,pill,984,1,0.1,-83.21546868,0.41335372
KUA,36,0,2024-06-30T18:47:49.786Z,english_419.wav,0,pill,984,2,0.2,-41.54064667,1.17083651
KUA,36,0,2024-06-30T18:47:49.786Z,english_419.wav,0,pill,984,3,0.3,-35.81330599,0.87264028
KUA,36,0,2024-06-30T18:47:49.786Z,english_419.wav,0,pill,984,4,0.4,-43.55129097,0.34128763
KUA,36,0,2024-06-30T18:47:49.786Z,english_419.wav,0,pill,984,5,0.5,-33.79077662,1.24788402
KUA,36,0,2024-06-30T18:47:49.786Z,english_419.wav,0,pill,984,6,0.6,70.44881048,0.43489623
KUA,36,0,2024-06-30T18:47:49.786Z,english_419.wav,0,pill,984,7,0.7,3.24826562,0.29781148
KUA,36,0,2024-06-30T18:47:49.786Z,english_419.wav,0,pill,984,8,0.8,34.80296655,1.73156921
KUA,36,0,2024-06-30T18:47:49.786Z,english_419.wav,0,pill,984,9,0.9,-7.36062238,1.52997649
KUA,36,0,2024-06-30T18:47:49.786Z,english_419.wav,0,pill,984,10,1.0,41.00092789,0.32887005
KUA,36,0,2024-06-30T18:47:49.786Z,english_419.wav,0,pill,984,11,1.09391667,-17.62948534,0.83665111
KUA,37,0,2024-06-30T18:47:49.786Z,english_194.wav,0,peel,567,0,0.0,56.78701541,1.42004802
KUA,37,0,2024-06-30T18:47:49.786Z,english_194.wav,0,peel,567,1,0.1,-17.75053988,0.01035796
KUA,37,0,2024-06-30T18:47:49.786Z,english_194.wav,0,peel,567,2,0.2,33.25886054,1.01435424
KUA,37,0,2024-06-30T18:47:49.786Z,english_194.wav,0,peel,567,3,0.3,-36.30427417,0.10390295
KUA,37,0,2024-06-30T18:47:49.786Z,english_194.wav,0,peel,567,4,0.4,87.2538064,0.79219746
KUA,37,0,2024-06-30T18:47:49.786Z,english_194.wav,0,peel,567,5,0.5,-35.38798336,0.28919857
KUA,37,0,2024-06-30T18:47:49.786Z,english_194.wav,0,peel,567,6,0.6,-16.86822867,1.14065301
KUA,37,0,2024-06-30T18:47:49.786Z,english_194.wav,0,peel,567,7,0.7,3.74513195,1.55329947
KUA,37,0,2024-06-30T18:47:49.786Z,english_194.wav,0,peel,567,8,0.8,-97.03953589,1.8735666
KUA,37,0,2024-06-30T18:47:49.786Z,english_194.wav,0,peel,567,9,0.9,-34.95000954,1.68004219
KUA,37,0,2024-06-30T18:47:49.786Z,english_194.wav,0,peel,567,10,1.0,41.79469937,0.7970796
KUA,37,0,2024-06-30T18:47:49.786Z,english_194.wav,0,peel,567,11,1.09391667,-99.09961294,1.89727803
KUA,38,0,2024-06-30T18:47:49.786Z,english_96.wav,0,pill,276,0,0.0,-65.02634732,0.97232816
KUA,38,0,2024-06-30T18:47:49.786Z,english_96.wav,0,pill,276,1,0.1,26.89498136,0.38357595
KUA,38,0,2024-06-30T18:47:49.786Z,english_96.wav,0,pill,276,2,0.2,43.91987782,1.32659615
KUA,38,0,2024-06-30T18:47:49.786Z,english_96.wav,0,pill,276,3,0.3,-59.57375142,1.36640746
KUA,38,0,2024-06-30T18:47:49.786Z,english_96.wav,0,pill,276,4,0.4,-60.38364834,1.49535362
KUA,38,0,2024-06-30T18:47:49.786Z,english_96.wav,0,pill,276,5,0.5,44.26176545,0.82408653
KUA,38,0,2024-06-30T18:47:49.786Z,english_96.wav,0,pill,276,6,0.6,-64.04538638,0.04141002
KUA,38,0,2024-06-30T18:47:49.786Z,english_96.wav,0,pill,276,7,0.7,-45.23049702,0.9269043
KUA,38,0,2024-06-30T18:47:49.786Z,english_96.wav,0,pill,276,8,0.8,-76.14418672,1.44350466
KUA,38,0,2024-06-30T18:47:49.786Z,english_96.wav,0,pill,276,9,0.9,28.81354354,0.19413347
KUA,38,0,2024-06-30T18:47:49.786Z,english_96.wav,0,pill,276,10,1.0,56.5836812,0.94594394
KUA,38,0,2024-06-30T18:47:49.786Z,english_96.wav,0,pill,276,11,1.09391667,88.01492367,1.65487259
KUA,39,0,2024-06-30T18:47:49.786Z,english_461.wav,0,peel,455,0,0.0,20.40366348,0.56042838
KUA,39,0,2024-06-30T18:47:49.786Z,english_461.wav,0,peel,455,1,0.1,-22.31307181,0.54946445
KUA,39,0,2024-06-30T18:47:49.786Z,english_461.wav,0,peel,455,2,0.2,-89.37114144,1.64772646
KUA,39,0,2024-06-30T18:47:49.786Z,english_461.wav,0,peel,455,3,0.3,-62.56780286,1.49638786
KUA,39,0,2024-06-30T18:47:49.786Z,english_461.wav,0,peel,455,4,0.4,98.66430914,1.35717302
KUA,39,0,2024-06-30T18:47:49.786Z,english_461.wav,0,peel,455,5,0.5,31.54001237,1.77354921
KUA,39,0,2024-06-30T18:47:49.786Z,english_461.wav,0,peel,455,6,0.6,-32.39124998,0.30044417
KUA,39,0,2024-06-30T18:47:49.786Z,english_461.wav,0,peel,455,7,0.7,-36.51161339,0.61964528
KUA,39,0,2024-06-30T18:47:49.786Z,english_461.wav,0,peel,455,8,0.8,53.57144474,1.90165564
KUA,39,0,2024-06-30T18:47:49.786Z,english_461.wav,0,peel,455,9,0.9,-58.15364794,1.196075
KUA,39,0,2024-06-30T18:47:49.786Z,english_461.wav,0,peel,455,10,1.0,49.37662152,1.99169905
KUA,39,0,2024-06-30T18:47:49.786Z,english_461.wav,0,peel,455,11,1.09391667,-58.25142674,0.63333461
KUA,40,0,2024-06-30T18:47:49.786Z,english_576.wav,0,pill,335,0,0.0,-58.66306645,1.71561025
KUA,40,0,2024-06-30T18:47:49.786Z,english_576.wav,0,pill,335,1,0.1,-48.85456955,1.69080607
KUA,40,0,2024-06-30T18:47:49.786Z,english_576.wav,0,pill,335,2,0.2,29.24978703,1.36521175
KUA,40,0,2024-06-30T18:47:49.786Z,english_576.wav,0,pill,335,3,0.3,-4.57987844,0.87715483
KUA,40,0,2024-06-30T18:47:49.786Z,english_576.wav,0,pill,335,4,0.4,17.09511918,0.38991217
KUA,40,0,2024-06-30T18:47:49.786Z,english_576.wav,0,pill,335,5,0.5,-36.28101864,0.94074697
KUA,40,0,2024-06-30T18:47:49.786Z,english_576.wav,0,pill,335,6,0.6,16.68992844,0.21735662
KUA,40,0,2024-06-30T18:47:49.786Z,english_576.wav,0,pill,335,7,0.7,41.08024696,0.2928344
KUA,40,0,2024-06-30T18:47:49.786Z,english_576.wav,0,pill,335,8,0.8,84.11774755,1.75349185
KUA,40,0,2024-06-30T18:47:49.786Z,english_576.wav,0,pill,335,9,0.9,37.20407844,0.5790335
KUA,40,0,2024-06-30T18:47:49.786Z,english_576.wav,0,pill,335,10,1.0,-6.74453613,0.77029309
KUA,40,0,2024-06-30T18:47:49.786Z,english_576.wav,0,pill,335,11,1.09391667,8.90716527,0.55391499
KUA,41,0,2024-06-30T18:47:49.786Z,english_148.wav,0,peel,823,0,0.0,85.27624152,0.1092145
KUA,41,0,2024-06-30T18:47:49.786Z,english_148.wav,0,peel,823,1,0.1,58.23579672,0.64980633
KUA,41,0,2024-06-30T18:47:49.786Z,english_148.wav,0,peel,823,2,0.2,-91.05033604,1.83346208
KUA,41,0,2024-06-30T18:47:49.786Z,english_148.wav,0,peel,823,3,0.3,20.11396141,1.16314863
KUA,41,0,2024-06-30T18:47:49.786Z,english_148.wav,0,peel,823,4,0.4,75.44798514,0.3185648
KUA,41,0,2024-06-30T18:47:49.786Z,english_148.wav,0,peel,823,5,0.5,-38.94488744,0.6593156
KUA,41,0,2024-06-30T18:47:49.786Z,english_148.wav,0,peel,823,6,0.6,-29.81274231,1.16710518
KUA,41,0,2024-06-30T18:47:49.786Z,english_148.wav,0,peel,823,7,0.7,75.45743384,1.07936895
KUA,41,0,2024-06-30T18:47:49.786Z,english_148.wav,0,peel,823,8,0.8,-13.70216327,0.75554181
KUA,41,0,2024-06-30T18:47:49.786Z,english_148.wav,0,peel,823,9,0.9,-90.12623186,1.33604039
KUA,41,0,2024-06-30T18:47:49.786Z,english_148.wav,0,peel,823,10,1.0,-27.22744176,1.61217721
KUA,41,0,2024-06-30T18:47:49.786Z,english_148.wav,0,peel,823,11,1.09391667,7.28951287,1.20550087
KUA,42,0,2024-06-30T18:47:49.786Z,english_945.wav,0,pill,250,0,0.0,-8.90413291,0.85973831
KUA,42,0,2024-06-30T18:47:49.786Z,english_945.wav,0,pill,250,1,0.1,14.69079878,1.50793383
KUA,42,0,2024-06-30T18:47:49.786Z,english_945.wav,0,pill,250,2,0.2,16.86515392,1.6389584
KUA,42,0,2024-06-30T18:47:49.786Z,english_945.wav,0,pill,250,3,0.3,-0.90328453,1.35118399
KUA,42,0,2024-06-30T18:47:49.786Z,english_945.wav,0,pill,250,4,0.4,-81.95044393,0.67347382
KUA,42,0,2024-06-30T18:47:49.786Z,english_945.wav,0,pill,250,5,0.5,39.38574307,0.90170453
KUA,42,0,2024-06-30T18:47:49.786Z,english_945.wav,0,pill,250,6,0.6,48.97516123,1.48284903
KUA,42,0,2024-06-30T18:47:49.786Z,english_945.wav,0,pill,250,7,0.7,22.02745292,0.52532692
KUA,42,0,2024-06-30T18:47:49.786Z,english_945.wav,0,pill,250,8,0.8,-62.58672275,0.42512417
KUA,42,0,2024-06-30T18:47:49.786Z,english_945.wav,0,pill,250,9,0.9,40.96128128,0.61558677
KUA,42,0,2024-06-30T18:47:49.786Z,english_945.wav,0,pill,250,10,1.0,-87.24049134,1.20691188
KUA,42,0,2024-06-30T18:47:49.786Z,english_945.wav,0,pill,250,11,1.09391667,-36.18929768,1.76719884
KUA,43,0,2024-06-30T18:47:49.786Z,english_668.wav,0,peel,501,0,0.0,24.30500843,1.5693483
KUA,43,0,2024-06-30T18:47:49.786Z,english_668.wav,0,peel,501,1,0.1,57.57377678,1.68368473
KUA,43,0,2024-06-30T18:47:49.786Z,english_668.wav,0,peel,501,2,0.2,-95.42785245,0.73781789
KUA,43,0,2024-06-30T18:47:49.786Z,english_668.wav,0,peel,501,3,0.3,-42.97336145,0.35418693
KUA,43,0,2024-06-30T18:47:49.786Z,english_668.wav,0,peel,501,4,0.4,-27.66393175,0.0078487
KUA,43,0,2024-06-30T18:47:49.786Z,english_668.wav,0,peel,501,5,0.5,77.20765179,1.54548252
KUA,43,0,2024-06-30T18:47:49.786Z,english_668.wav,0,peel,501,6,0.6,83.13326456,1.19620748
KUA,43,0,2024-06-30T18:47:49.786Z,english_668.wav,0,peel,501,7,0.7,-32.13348901,1.89254879
KUA,43,0,2024-06-30T18:47:49.786Z,english_668.wav,0,peel,501,8,0.8,68.31202494,0.72669061
KUA,43,0,2024-06-30T18:47:49.786Z,english_668.wav,0,peel,501,9,0.9,19.90764766,1.22099256
KUA,43,0,2024-06-30T18:47:49.786Z,english_668.wav,0,peel,501,10,1.0,67.85742397,1.73789428
KUA,43,0,2024-06-30T18:47:49.786Z,english_668.wav,0,peel,501,11,1.09391667,89.08528759,1.66641406
KUA,44,0,2024-06-30T18:47:49.786Z,english_60.wav,0,pill,409,0,0.0,10.59186776,1.18276714
KUA,44,0,2024-06-30T18:47:49.786Z,english_60.wav,0,pill,409,1,0.1,40.50364305,1.35618457
KUA,44,0,2024-06-30T18:47:49.786Z,english_60.wav,0,pill,409,2,0.2,-14.0687602,0.82779989
KUA,44,0,2024-06-30T18:47:49.786Z,english_60.wav,0,pill,409,3,0.3,-65.99656217,0.57077879
KUA,44,0,2024-06-30T18:47:49.786Z,english_60.wav,0,pill,409,4,0.4,15.70320652,0.07108592
KUA,44,0,2024-06-30T18:47:49.786Z,english_60.wav,0,pill,409,5,0.5,-30.42091681,0.69784791
KUA,44,0,2024-06-30T18:47:49.786Z,english_60.wav,0,pill,409,6,0.6,-42.76109802,1.83211062
KUA,44,0,2024-06-30T18:47:49.786Z,english_60.wav,0,pill,409,7,0.7,79.72211157,1.14011333
KUA,44,0,2024-06-30T18:47:49.786Z,english_60.wav,0,pill,409,8,0.8,-76.06160398,1.5550445
KUA,44,0,2024-06-30T18:47:49.786Z,english_60.wav,0,pill,409,9,0.9,-29.21518782,0.72383993
KUA,44,0,2024-06-30T18:47:49.786Z,english_60.wav,0,pill,409,10,1.0,-57.95886313,1.31578319
KUA,44,0,2024-06-30T18:47:49.786Z,english_60.wav,0,pill,409,11,1.09391667,-5.07129897,0.46327009
KUA,45,0,2024-06-30T18:47:49.786Z,english_629.wav,0,pill,361,0,0.0,-98.30964243,0.81771725
KUA,45,0,2024-06-30T18:47:49.786Z,english_629.wav,0,pill,361,1,0.1,-5.62970232,0.80248144
KUA,45,0,2024-06-30T18:47:49.786Z,english_629.wav,0,pill,361,2,0.2,20.69990793,1.65272957
KUA,45,0,2024-06-30T18:47:49.786Z,english_629.wav,0,pill,361,3,0.3,-4.68954038,0.79587507
KUA,45,0,2024-06-30T18:47:49.786Z,english_629.wav,0,pill,361,4,0.4,-82.80499964,0.51843323
KUA,45,0,2024-06-30T18:47:49.786Z,english_629.wav,0,pill,361,5,0.5,68.80297029,1.06630495
KUA,45,0,2024-06-30T18:47:49.786Z,english_629.wav,0,pill,361,6,0.6,-24.62615081,0.85921764
KUA,45,0,2024-06-30T18:47:49.786Z,english_629.wav,0,pill,361,7,0.7,-86.27878454,1.30572182
KUA,45,0,2024-06-30T18:47:49.786Z,english_629.wav,0,pill,361,8,0.8,-88.66663155,0.67243508
KUA,45,0,2024-06-30T18:47:49.786Z,english_629.wav,0,pill,361,9,0.9,8.97030431,0.68958588
KUA,45,0,2024-06-30T18:47:49.786Z,english_629.wav,0,pill,361,10,1.0,-94.86018334,0.23451131
KUA,45,0,2024-06-30T18:47:49.786Z,english_629.wav,0,pill,361,11,1.09391667,10.00961885,1.91010728
KUA,46,0,2024-06-30T18:47:49.786Z,english_876.wav,0,pill,1074,0,0.0,-22.28605272,0.86114571
KUA,46,0,2024-06-30T18:47:49.786Z,english_876.wav,0,pill,1074,1,0.1,88.07210504,1.97575965
KUA,46,0,2024-06-30T18:47:49.786Z,english_876.wav,0,pill,1074,2,0.2,-49.70957844,0.63948783
KUA,46,0,2024-06-30T18:47:49.786Z,english_876.wav,0,pill,1074,3,0.3,-15.12998944,0.79524936
KUA,46,0,2024-06-30T18:47:49.786Z,english_876.wav,0,pill,1074,4,0.4,-15.93875253,1.19082012
KUA,46,0,2024-06-30T18:47:49.786Z,english_876.wav,0,pill,1074,5,0.5,-25.52637737,0.64746998
KUA,46,0,2024-06-30T18:47:49.786Z,english_876.wav,0,pill,1074,6,0.6,-20.7469083,0.40627419
KUA,46,0,2024-06-30T18:47:49.786Z,english_876.wav,0,pill,1074,7,0.7,38.24982305,0.95615642
KUA,46,0,2024-06-30T18:47:49.786Z,english_876.wav,0,pill,1074,8,0.8,85.21823118,1.23938009
KUA,46,0,2024-06-30T18:47:49.786Z,english_876.wav,0,pill,1074,9,0.9,2.48963564,0.97530307
KUA,46,0,2024-06-30T18:47:49.786Z,english_876.wav,0,pill,1074,10,1.0,33.93764026,0.65277391
KUA,46,0,2024-06-30T18:47:49.786Z,english_876.wav,0,pill,1074,11,1.09391667,1.12823357,0.77957787
KUA,47,0,2024-06-30T18:47:49.786Z,english_980.wav,0,pill,419,0,0.0,-89.21120638,0.86013949
KUA,47,0,2024-06-30T18:47:49.786Z,english_980.wav,0,pill,419,1,0.1,-61.94586113,1.20415769
KUA,47,0,2024-06-30T18:47:49.786Z,english_980.wav,0,pill,419,2,0.2,66.92224931,1.12519254
KUA,47,0,2024-06-30T18:47:49.786Z,english_980.wav,0,pill,419,3,0.3,-8.83169244,1.93563119
KUA,47,0,2024-06-30T18:47:49.786Z,english_980.wav,0,pill,419,4,0.4,-62.26224073,1.36290277
KUA,47,0,2024-06-30T18:47:49.786Z,english_980.wav,0,pill,419,5,0.5,-40.69471865,0.31823405
KUA,47,0,2024-06-30T18:47:49.786Z,english_980.wav,0,pill,419,6,0.6,-55.09323572,1.64522851
KUA,47,0,2024-06-30T18:47:49.786Z,english_980.wav,0,pill,419,7,0.7,-85.76938639,0.41705872
KUA,47,0,2024-06-30T18:47:49.786Z,english_980.wav,0,pill,419,8,0.8,-61.73931362,0.77550812
KUA,47,0,2024-06-30T18:47:49.786Z,english_980.wav,0,pill,419,9,0.9,29.10621895,0.71060598
KUA,47,0,2024-06-30T18:47:49.786Z,english_980.wav,0,pill,419,10,1.0,-54.92010394,0.25781542
KUA,47,0,2024-06-30T18:47:49.786Z,english_980.wav,0,pill,419,11,1.09391667,-99.59524777,0.26651543
KUA,48,0,2024-06-30T18:47:49.786Z,english_580.wav,0,peel,655,0,0.0,13.25816798,1.08575691
KUA,48,0,2024-06-30T18:47:49.786Z,english_580.wav,0,peel,655,1,0.1,5.77647533,0.54086757
KUA,48,0,2024-06-30T18:47:49.786Z,english_580.wav,0,peel,655,2,0.2,72.78999168,0.73021835
KUA,48,0,2024-06-30T18:47:49.786Z,english_580.wav,0,peel,655,3,0.3,-47.92422824,1.37147127
KUA,48,0,2024-06-30T18:47:49.786Z,english_580.wav,0,peel,655,4,0.4,-43.47633617,0.74349833
KUA,48,0,2024-06-30T18:47:49.786Z,english_580.wav,0,peel,655,5,0.5,77.25010358,1.2598917
KUA,48,0,2024-06-30T18:47:49.786Z,english_580.wav,0,peel,655,6,0.6,3.91161984,0.03492262
KUA,48,0,2024-06-30T18:47:49.786Z,english_580.wav,0,peel,655,7,0.7,81.00627676,1.8293003
KUA,48,0,2024-06-30T18:47:49.786Z,english_580.wav,0,peel,655,8,0.8,-33.28825485,0.6502698
KUA,48,0,2024-06-30T18:47:49.786Z,english_580.wav,0,peel,655,9,0.9,-0.84600443,1.16525453
KUA,48,0,2024-06-30T18:47:49.786Z,english_580.wav,0,peel,655,10,1.0,-76.41274274,1.3130508
KUA,48,0,2024-06-30T18:47:49.786Z,english_580.wav,0,peel,655,11,1.09391667,-41.12581414,1.44461782
KUA,49,0,2024-06-30T18:47:49.786Z,english_710.wav,0,pill,439,0,0.0,-39.30636168,1.80624949
KUA,49,0,2024-06-30T18:47:49.786Z,english_710.wav,0,pill,439,1,0.1,-97.6674904,0.47182227
KUA,49,0,2024-06-30T18:47:49.786Z,english_710.wav,0,pill,439,2,0.2,64.09122161,0.70971527
KUA,49,0,2024-06-30T18:47:49.786Z,english_710.wav,0,pill,439,3,0.3,75.88571101,0.05116828
KUA,49,0,2024-06-30T18:47:49.786Z,english_710.wav,0,pill,439,4,0.4,-88.52762731,1.76085876
KUA,49,0,2024-06-30T18:47:49.786Z,english_710.wav,0,pill,439,5,0.5,82.62720899,0.52858011
KUA,49,0,2024-06-30T18:47:49.786Z,english_710.wav,0,pill,439,6,0.6,-76.34366579,0.11108823
KUA,49,0,2024-06-30T18:47:49.786Z,english_710.wav,0,pill,439,7,0.7,-8.69440278,1.51710045
KUA,49,0,2024-06-30T18:47:49.786Z,english_710.wav,0,pill,439,8,0.8,-70.02409217,1.27546604
KUA,49,0,2024-06-30T18:47:49.786Z,english_710.wav,0,pill,439,9,0.9,57.25294742,0.25600017
KUA,49,0,2024-06-30T18:47:49.786Z,english_710.wav,0,pill,439,10,1.0,-12.57900879,0.70194387
KUA,49,0,2024-06-30T18:47:49.786Z,english_710.wav,0,pill,439,11,1.09391667,58.69693709,0.08256398
KUA,50,1,2024-06-30T18:47:49.786Z,english_1000.wav,0,pill,983,0,0.0,-1.5072561,0.91946401
KUA,50,1,2024-06-30T18:47:49.786Z,english_1000.wav,0,pill,983,1,0.1,39.79014661,1.39592101
KUA,50,1,2024-06-30T18:47:49.786Z,english_1000.wav,0,pill,983,2,0.2,58.76846959,0.5487596
KUA,50,1,2024-06-30T18:47:49.786Z,english_1000.wav,0,pill,983,3,0.3,28.54889901,1.20778852
KUA,50,1,2024-06-30T18:47:49.786Z,english_1000.wav,0,pill,983,4,0.4,-74.34288484,0.05870568
KUA,50,1,2024-06-30T18:47:49.786Z,english_1000.wav,0,pill,983,5,0.5,7.94862856,1.40576818
KUA,50,1,2024-06-30T18:47:49.786Z,english_1000.wav,0,pill,983,6,0.6,75.96899765,0.56511458
KUA,50,1,2024-06-30T18:47:49.786Z,english_1000.wav,0,pill,983,7,0.7,20.32286843,0.44257477
KUA,50,1,2024-06-30T18:47:49.786Z,english_1000.wav,0,pill,983,8,0.8,6.51139675,0.97037601
KUA,50,1,2024-06-30T18:47:49.786Z,english_1000.wav,0,pill,983,9,0.9,95.873103,1.4916368
KUA,50,1,2024-06-30T18:47:49.786Z,english_1000.wav,0,pill,983,10,1.0,76.48547212,1.12595485
KUA,50,1,2024-06-30T18:47:49.786Z,english_1000.wav,0,pill,983,11,1.09391667,42.88935731,1.31879984
KUA,51,1,2024-06-30T18:47:49.786Z,english_535.wav,0,pill,193,0,0.0,-4.00375318,0.74823916
KUA,51,1,2024-06-30T18:47:49.786Z,english_535.wav,0,pill,193,1,0.1,-37.57387138,0.9109632
KUA,51,1,2024-06-30T18:47:49.786Z,english_535.wav,0,pill,193,2,0.2,-31.12595353,0.84755902
KUA,51,1,2024-06-30T18:47:49.786Z,english_535.wav,0,pill,193,3,0.3,2.06341331,1.09662022
KUA,51,1,2024-06-30T18:47:49.786Z,english_535.wav,0,pill,193,4,0.4,56.11576492,0.26254995
KUA,51,1,2024-06-30T18:47:49.786Z,english_535.wav,0,pill,193,5,0.5,30.13214978,1.29967994
KUA,51,1,2024-06-30T18:47:49.786Z,english_535.wav,0,pill,193,6,0.6,14.78197265,1.50452532
KUA,51,1,2024-06-30T18:47:49.786Z,english_535.wav,0,pill,193,7,0.7,-18.38930177,1.51808924
KUA,51,1,2024-06-30T18:47:49.786Z,english_535.wav,0,pill,193,8,0.8,-10.54396075,0.34439234
KUA,51,1,2024-06-30T18:47:49.786Z,english_535.wav,0,pill,193,9,0.9,39.09773013,0.86790386
KUA,51,1,2024-06-30T18:47:49.786Z,english_535.wav,0,pill,193,10,1.0,46.13111143,0.86784134
KUA,51,1,2024-06-30T18:47:49.786Z,english_535.wav,0,pill,193,11,1.09391667,-64.44597459,0.57511998
KUA,52,1,2024-06-30T18:47:49.786Z,english_449.wav,0,peel,1490,0,0.0,-44.55388373,1.29710548
KUA,52,1,2024-06-30T18:47:49.786Z,english_449.wav,0,peel,1490,1,0.1,-6.72313799,1.06558485
KUA,52,1,2024-06-30T18:47:49.786Z,english_449.wav,0,peel,1490,2,0.2,79.06263513,1.64594706
KUA,52,1,2024-06-30T18:47:49.786Z,english_449.wav,0,peel,1490,3,0.3,-55.67409496,0.52101608
KUA,52,1,2024-06-30T18:47:49.786Z,english_449.wav,0,peel,1490,4,0.4,-98.00845055,1.47445199
KUA,52,1,2024-06-30T18:47:49.786Z,english_449.wav,0,peel,1490,5,0.5,11.95490186,0.94544277
KUA,52,1,2024-06-30T18:47:49.786Z,english_449.wav,0,peel,1490,6,0.6,61.24554038,1.90306494
KUA,52,1,2024-06-30T18:47:49.786Z,english_449.wav,0,peel,1490,7,0.7,22.84997393,1.15810732
KUA,52,1,2024-06-30T18:47:49.786Z,english_449.wav,0,peel,1490,8,0.8,-43.41021729,0.26889852
KUA,52,1,2024-06-30T18:47:49.786Z,english_449.wav,0,peel,1490,9,0.9,-0.66438627,1.02983536
KUA,52,1,2024-06-30T18:47:49.786Z,english_449.wav,0,peel,1490,10,1.0,97.92538247,1.13790703
KUA,52,1,2024-06-30T18:47:49.786Z,english_449.wav,0,peel,1490,11,1.09391667,-73.561514,0.97073961
KUA,53,1,2024-06-30T18:47:49.786Z,english_728.wav,0,peel,2017,0,0.0,86.97428458,1.28134459
KUA,53,1,2024-06-30T18:47:49.786Z,english_728.wav,0,peel,2017,1,0.1,68.85214371,0.92040862
KUA,53,1,2024-06-30T18:47:49.786Z,english_728.wav,0,peel,2017,2,0.2,-97.98565906,0.75536346
KUA,53,1,2024-06-30T18:47:49.786Z,english_728.wav,0,peel,2017,3,0.3,35.07930547,1.26670058
KUA,53,1,2024-06-30T18:47:49.786Z,english_728.wav,0,peel,2017,4,0.4,-30.18374109,0.22005976
KUA,53,1,2024-06-30T18:47:49.786Z,english_728.wav,0,peel,2017,5,0.5,-82.66469876,1.42168107
KUA,53,1,2024-06-30T18:47:49.786Z,english_728.wav,0,peel,2017,6,0.6,23.39578652,1.49957944
KUA,53,1,2024-06-30T18:47:49.786Z,english_728.wav,0,peel,2017,7,0.7,26.21600665,0.84685957
KUA,53,1,2024-06-30T18:47:49.786Z,english_728.wav,0,peel,2017,8,0.8,40.56146868,0.54890831
KUA,53,1,2024-06-30T18:47:49.786Z,english_728.wav,0,peel,2017,9,0.9,8.84190716,1.06754414
KUA,53,1,2024-06-30T18:47:49.786Z,english_728.wav,0,peel,2017,10,1.0,42.34962336,0.96376908
KUA,53,1,2024-06-30T18:47:49.786Z,english_728.wav,0,peel,2017,11,1.09391667,-32.07226286,0.10029528
KUA,54,1,2024-06-30T18:47:49.786Z,english_158.wav,0,pill,472,0,0.0,41.17268037,0.12012262
KUA,54,1,2024-06-30T18:47:49.786Z,english_158.wav,0,pill,472,1,0.1,39.43055099,1.02753784
KUA,54,1,2024-06-30T18:47:49.786Z,english_158.wav,0,pill,472,2,0.2,18.17307199,1.36643436
KUA,54,1,2024-06-30T18:47:49.786Z,english_158.wav,0,pill,472,3,0.3,2.1288608,1.78617089
KUA,54,1,2024-06-30T18:47:49.786Z,english_158.wav,0,pill,472,4,0.4,14.16848378,0.39713516
KUA,54,1,2024-06-30T18:47:49.786Z,english_158.wav,0,pill,472,5,0.5,-31.43837624,1.5313636
KUA,54,1,2024-06-30T18:47:49.786Z,english_158.wav,0,pill,472,6,0.6,46.37345031,1.20655285
KUA,54,1,2024-06-30T18:47:49.786Z,english_158.wav,0,pill,472,7,0.7,58.75582509,0.16880901
KUA,54,1,2024-06-30T18:47:49.786Z,english_158.wav,0,pill,472,8,0.8,23.78862253,0.30409425
KUA,54,1,2024-06-30T18:47:49.786Z,english_158.wav,0,pill,472,9,0.9,-4.2911947,1.28329421
KUA,54,1,2024-06-30T18:47:49.786Z,english_158.wav,0,pill,472,10,1.0,-43.40891041,0.17704904
KUA,54,1,2024-06-30T18:47:49.786Z,english_158.wav,0,pill,472,11,1.09391667,16.25522825,0.66899263
KUA,55,1,2024-06-30T18:47:49.786Z,english_647.wav,0,pill,299,0,0.0,54.52725229,1.1883546
KUA,55,1,2024-06-30T18:47:49.786Z,english_647.wav,0,pill,299,1,0.1,-56.14693886,1.65081997
KUA,55,1,2024-06-30T18:47:49.786Z,english_647.wav,0,pill,299,2,0.2,71.63132719,1.02051213
KUA,55,1,2024-06-30T18:47:49.786Z,english_647.wav,0,pill,299,3,0.3,-23.02387172,1.7000584
KUA,55,1,2024-06-30T18:47:49.786Z,english_647.wav,0,pill,299,4,0.4,-60.51376999,0.62509688
KUA,55,1,2024-06-30T18:47:49.786Z,english_647.wav,0,pill,299,5,0.5,-64.57692494,1.60189297
KUA,55,1,2024-06-30T18:47:49.786Z,english_647.wav,0,pill,299,6,0.6,46.96365994,1.40209494
KUA,55,1,2024-06-30T18:47:49.786Z,english_647.wav,0,pill,299,7,0.7,2.340544,1.32470585
KUA,55,1,2024-06-30T18:47:49.786Z,english_647.wav,0,pill,299,8,0.8,-11.6475953,1.16038123
KUA,55,1,2024-06-30T18:47:49.786Z,english_647.wav,0,pill,299,9,0.9,62.71297866,0.96037121
KUA,55,1,2024-06-30T18:47:49.786Z,english_647.wav,0,pill,299,10,1.0,-48.91159538,0.45954714
KUA,55,1,2024-06-30T18:47:49.786Z,english_647.wav,0,pill,299,11,1.09391667,-39.00416387,1.53514393
KUA,56,1,2024-06-30T18:47:49.786Z,english_739.wav,0,peel,540,0,0.0,1.66907671,0.87693375
KUA,56,1,2024-06-30T18:47:49.786Z,english_739.wav,0,peel,540,1,0.1,32.28194312,0.65337813
KUA,56,1,2024-06-30T18:47:49.786Z,english_739.wav,0,peel,540,2,0.2,88.89595153,0.64089741
KUA,56,1,2024-06-30T18:47:49.786Z,english_739.wav,0,peel,540,3,0.3,20.95779095,1.8100412
KUA,56,1,2024-06-30T18:47:49.786Z,english_739.wav,0,peel,540,4,0.4,75.26857339,1.25976755
KUA,56,1,2024-06-30T18:47:49.786Z,english_739.wav,0,peel,540,5,0.5,80.94392955,0.9768095
KUA,56,1,2024-06-30T18:47:49.786Z,english_739.wav,0,peel,540,6,0.6,17.54887525,1.56119235
KUA,56,1,2024-06-30T18:47:49.786Z,english_739.wav,0,peel,540,7,0.7,25.07377362,0.95993111
KUA,56,1,2024-06-30T18:47:49.786Z,english_739.wav,0,peel,540,8,0.8,92.52917298,0.31388654
KUA,56,1,2024-06-30T18:47:49.786Z,english_739.wav,0,peel,540,9,0.9,2.73629171,1.55063506
KUA,56,1,2024-06-30T18:47:49.786Z,english_739.wav,0,peel,540,10,1.0,-80.00700458,1.57282249
KUA,56,1,2024-06-30T18:47:49.786Z,english_739.wav,0,peel,540,11,1.09391667,-87.47656885,1.46307629
KUA,57,1,2024-06-30T18:47:49.786Z,english_583.wav,0,peel,447,0,0.0,-89.46926799,1.93205848
KUA,57,1,2024-06-30T18:47:49.786Z,english_583.wav,0,peel,447,1,0.1,-21.95760647,0.52539253
KUA,57,1,2024-06-30T18:47:49.786Z,english_583.wav,0,peel,447,2,0.2,51.54638902,0.25359823
KUA,57,1,2024-06-30T18:47:49.786Z,english_583.wav,0,peel,447,3,0.3,-19.59460838,0.46642282
KUA,57,1,2024-06-30T18:47:49.786Z,english_583.wav,0,peel,447,4,0.4,-80.65157181,0.25879931
KUA,57,1,2024-06-30T18:47:49.786Z,english_583.wav,0,peel,447,5,0.5,13.46564549,0.54774352
KUA,57,1,2024-06-30T18:47:49.786Z,english_583.wav,0,peel,447,6,0.6,-1.99224774,1.89783447
KUA,57,1,2024-06-30T18:47:49.786Z,english_583.wav,0,peel,447,7,0.7,96.26030273,0.46572744
KUA,57,1,2024-06-30T18:47:49.786Z,english_583.wav,0,peel,447,8,0.8,-75.70856073,0.69184565
KUA,57,1,2024-06-30T18:47:49.786Z,english_583.wav,0,peel,447,9,0.9,40.78035579,1.20488206
KUA,57,1,2024-06-30T18:47:49.786Z,english_583.wav,0,peel,447,10,1.0,3.65984432,1.22997803
KUA,57,1,2024-06-30T18:47:49.786Z,english_583.wav,0,peel,447,11,1.09391667,-26.98513255,1.99403249
KUA,58,1,2024-06-30T18:47:49.786Z,english_375.wav,0,pill,169,0,0.0,-66.54027977,1.30902013
KUA,58,1,2024-06-30T18:47:49.786Z,english_375.wav,0,pill,169,1,0.1,72.08787066,1.77420651
KUA,58,1,2024-06-30T18:47:49.786Z,english_375.wav,0,pill,169,2,0.2,-56.77584869,1.24550761
KUA,58,1,2024-06-30T18:47:49.786Z,english_375.wav,0,pill,169,3,0.3,-36.97947012,0.68148521
KUA,58,1,2024-06-30T18:47:49.786Z,english_375.wav,0,pill,169,4,0.4,43.73402827,1.5097978
KUA,58,1,2024-06-30T18:47:49.786Z,english_375.wav,0,pill,169,5,0.5,19.53034116,0.87895003
KUA,58,1,2024-06-30T18:47:49.786Z,english_375.wav,0,pill,169,6,0.6,-35.65016919,0.57287352
KUA,58,1,2024-06-30T18:47:49.786Z,english_375.wav,0,pill,169,7,0.7,12.37356045,0.19847139
KUA,58,1,2024-06-30T18:47:49.786Z,english_375.wav,0,pill,169,8,0.8,-24.97795402,1.57884859
KUA,58,1,2024-06-30T18:47:49.786Z,english_375.wav,0,pill,169,9,0.9,57.77915604,1.32641243
KUA,58,1,2024-06-30T18:47:49.786Z,english_375.wav,0,pill,169,10,1.0,-30.716589,0.36090675
KUA,58,1,2024-06-30T18:47:49.786Z,english_375.wav,0,pill,169,11,1.09391667,78.48935482,1.90030926
KUA,59,1,2024-06-30T18:47:49.786Z,english_149.wav,0,peel,282,0,0.0,-53.20573735,0.95670134
KUA,59,1,2024-06-30T18:47:49.786Z,english_149.wav,0,peel,282,1,0.1,-90.4921868,0.5519459
KUA,59,1,2024-06-30T18:47:49.786Z,english_149.wav,0,peel,282,2,0.2,-21.57127114,0.68228705
KUA,59,1,2024-06-30T18:47:49.786Z,english_149.wav,0,peel,282,3,0.3,-29.49661343,0.40950451
KUA,59,1,2024-06-30T18:47:49.786Z,english_149.wav,0,peel,282,4,0.4,-77.75712455,1.98655192
KUA,59,1,2024-06-30T18:47:49.786Z,english_149.wav,0,peel,282,5,0.5,-23.65011592,0.22349442
KUA,59,1,2024-06-30T18:47:49.786Z,english_149.wav,0,peel,282,6,0.6,-4.31853851,1.34559787
KUA,59,1,2024-06-30T18:47:49.786Z,english_149.wav,0,peel,282,7,0.7,95.2447513,0.78513236
KUA,59,1,2024-06-30T18:47:49.786Z,english_149.wav,0,peel,282,8,0.8,-64.13043019,1.81674813
KUA,59,1,2024-06-30T18:47:49.786Z,english_149.wav,0,peel,282,9,0.9,20.09083708,1.85324621
KUA,59,1,2024-06-30T18:47:49.786Z,english_149.wav,0,peel,282,10,1.0,47.07706549,1.9199937
KUA,59,1,2024-06-30T18:47:49.786Z,english_149.wav,0,peel,282,11,1.09391667,-54.30871038,0.6097093
KUA,60,1,2024-06-30T18:47:49.786Z,english_808.wav,0,pill,237,0,0.0,-54.51930087,0.8777304
KUA,60,1,2024-06-30T18:47:49.786Z,english_808.wav,0,pill,237,1,0.1,-81.0495762,1.15782472
KUA,60,1,2024-06-30T18:47:49.786Z,english_808.wav,0,pill,237,2,0.2,4.70470679,1.67617188
KUA,60,1,2024-06-30T18:47:49.786Z,english_808.wav,0,pill,237,3,0.3,56.77475896,0.46785173
KUA,60,1,2024-06-30T18:47:49.786Z,english_808.wav,0,pill,237,4,0.4,-45.19313698,1.34598798
KUA,60,1,2024-06-30T18:47:49.786Z,english_808.wav,0,pill,237,5,0.5,-12.85220206,1.21107636
KUA,60,1,2024-06-30T18:47:49.786Z,english_808.wav,0,pill,237,6,0.6,-3.64494866,0.33957231
KUA,60,1,2024-06-30T18:47:49.786Z,english_808.wav,0,pill,237,7,0.7,-54.59560116,1.78675234
KUA,60,1,2024-06-30T18:47:49.786Z,english_808.wav,0,pill,237,8,0.8,62.80587621,0.41874976
KUA,60,1,2024-06-30T18:47:49.786Z,english_808.wav,0,pill,237,9,0.9,41.76195467,0.58154764
KUA,60,1,2024-06-30T18:47:49.786Z,english_808.wav,0,pill,237,10,1.0,59.57414533,1.87307122
KUA,60,1,2024-06-30T18:47:49.786Z,english_808.wav,0,pill,237,11,1.09391667,-81.82049826,0.91565949
KUA,61,1,2024-06-30T18:47:49.786Z,english_578.wav,0,peel,334,0,0.0,-75.00897619,0.74810011
KUA,61,1,2024-06-30T18:47:49.786Z,english_578.wav,0,peel,334,1,0.1,-99.92599168,1.6653295
KUA,61,1,2024-06-30T18:47:49.786Z,english_578.wav,0,peel,334,2,0.2,-41.97852884,0.86958953
KUA,61,1,2024-06-30T18:47:49.786Z,english_578.wav,0,peel,334,3,0.3,-44.5286304,1.82114948
KUA,61,1,2024-06-30T18:47:49.786Z,english_578.wav,0,peel,334,4,0.4,33.7471246,1.20682151
KUA,61,1,2024-06-30T18:47:49.786Z,english_578.wav,0,peel,334,5,0.5,-20.55369632,0.95346463
KUA,61,1,2024-06-30T18:47:49.786Z,english_578.wav,0,peel,334,6,0.6,80.47589593,1.35013789
KUA,61,1,2024-06-30T18:47:49.786Z,english_578.wav,0,peel,334,7,0.7,-14.97727246,1.4182331
KUA,61,1,2024-06-30T18:47:49.786Z,english_578.wav,0,peel,334,8,0.8,-21.44814327,1.48872207
KUA,61,1,2024-06-30T18:47:49.786Z,english_578.wav,0,peel,334,9,0.9,-62.07774638,0.52217737
KUA,61,1,2024-06-30T18:47:49.786Z,english_578.wav,0,peel,334,10,1.0,-99.81693505,1.9830309
KUA,61,1,2024-06-30T18:47:49.786Z,english_578.wav,0,peel,334,11,1.09391667,-93.56727968,1.11565266
KUA,62,1,2024-06-30T18:47:49.786Z,english_350.wav,0,pill,393,0,0.0,-49.74850435,0.22554434
KUA,62,1,2024-06-30T18:47:49.786Z,english_350.wav,0,pill,393,1,0.1,68.30317627,1.05889666
KUA,62,1,2024-06-30T18:47:49.786Z,english_350.wav,0,pill,393,2,0.2,-65.19955472,1.66837242
KUA,62,1,2024-06-30T18:47:49.786Z,english_350.wav,0,pill,393,3,0.3,16.55905503,1.26247407
KUA,62,1,2024-06-30T18:47:49.786Z,english_350.wav,0,pill,393,4,0.4,-91.2937095,1.50505412
KUA,62,1,2024-06-30T18:47:49.786Z,english_350.wav,0,pill,393,5,0.5,15.43319067,1.94963106
KUA,62,1,2024-06-30T18:47:49.786Z,english_350.wav,0,pill,393,6,0.6,-45.85963286,1.1132199
KUA,62,1,2024-06-30T18:47:49.786Z,english_350.wav,0,pill,393,7,0.7,19.61186346,0.36047723
KUA,62,1,2024-06-30T18:47:49.786Z,english_350.wav,0,pill,393,8,0.8,-16.08875957,0.33369352
KUA,62,1,2024-06-30T18:47:49.786Z,english_350.wav,0,pill,393,9,0.9,46.96260951,0.35479608
KUA,62,1,2024-06-30T18:47:49.786Z,english_350.wav,0,pill,393,10,1.0,42.75278918,0.24605451
KUA,62,1,2024-06-30T18:47:49.786Z,english_350.wav,0,pill,393,11,1.09391667,-15.03240418,1.96587805
KUA,63,1,2024-06-30T18:47:49.786Z,english_268.wav,0,pill,170,0,0.0,-10.36348141,0.34238631
KUA,63,1,2024-06-30T18:47:49.786Z,english_268.wav,0,pill,170,1,0.1,83.25825445,0.93968033
KUA,63,1,2024-06-30T18:47:49.786Z,english_268.wav,0,pill,170,2,0.2,90.11608715,0.03117119
KUA,63,1,2024-06-30T18:47:49.786Z,english_268.wav,0,pill,170,3,0.3,32.1996215,0.99400779
KUA,63,1,2024-06-30T18:47:49.786Z,english_268.wav,0,pill,170,4,0.4,8.976783,0.56090086
KUA,63,1,2024-06-30T18:47:49.786Z,english_268.wav,0,pill,170,5,0.5,-6.95203106,0.18644764
KUA,63,1,2024-06-30T18:47:49.786Z,english_268.wav,0,pill,170,6,0.6,67.82169398,1.05098713
KUA,63,1,2024-06-30T18:47:49.786Z,english_268.wav,0,pill,170,7,0.7,50.85858074,0.33151379
KUA,63,1,2024-06-30T18:47:49.786Z,english_268.wav,0,pill,170,8,0.8,11.07143565,0.1498151
KUA,63,1,2024-06-30T18:47:49.786Z,english_268.wav,0,pill,170,9,0.9,40.44499652,0.7130759
KUA,63,1,2024-06-30T18:47:49.786Z,english_268.wav,0,pill,170,10,1.0,87.615801,0.85732073
KUA,63,1,2024-06-30T18:47:49.786Z,english_268.wav,0,pill,170,11,1.09391667,-54.91088926,1.8995277
KUA,64,1,2024-06-30T18:47:49.786Z,english_605.wav,0,peel,271,0,0.0,-8.49945262,0.18632105
KUA,64,1,2024-06-30T18:47:49.786Z,english_605.wav,0,peel,271,1,0.1,78.59318703,0.57386106
KUA,64,1,2024-06-30T18:47:49.786Z,english_605.wav,0,peel,271,2,0.2,5.51226276,1.08904108
KUA,64,1,2024-06-30T18:47:49.786Z,english_605.wav,0,peel,271,3,0.3,-57.71623977,1.06659478
KUA,64,1,2024-06-30T18:47:49.786Z,english_605.wav,0,peel,271,4,0.4,-16.40155513,1.07197466
KUA,64,1,2024-06-30T18:47:49.786Z,english_605.wav,0,peel,271,5,0.5,65.3464243,0.99856442
KUA,64,1,2024-06-30T18:47:49.786Z,english_605.wav,0,peel,271,6,0.6,75.43847502,1.20108487
KUA,64,1,2024-06-30T18:47:49.786Z,english_605.wav,0,peel,271,7,0.7,-23.5169708,0.82408686
KUA,64,1,2024-06-30T18:47:49.786Z,english_605.wav,0,peel,271,8,0.8,90.90480097,1.4403859
KUA,64,1,2024-06-30T18:47:49.786Z,english_605.wav,0,peel,271,9,0.9,2.3218264,1.38639998
KUA,64,1,2024-06-30T18:47:49.786Z,english_605.wav,0,peel,271,10,1.0,-54.16543883,0.92793051
KUA,64,1,2024-06-30T18:47:49.786Z,english_605.wav,0,peel,271,11,1.09391667,-30.94766284,1.95794577
KUA,65,1,2024-06-30T18:47:49.786Z,english_130.wav,0,peel,419,0,0.0,63.22786083,1.15410046
KUA,65,1,2024-06-30T18:47:49.786Z,english_130.wav,0,peel,419,1,0.1,87.85722404,0.37024368
KUA,65,1,2024-06-30T18:47:49.786Z,english_130.wav,0,peel,419,2,0.2,-11.67996756,1.81334
KUA,65,1,2024-06-30T18:47:49.786Z,english_130.wav,0,peel,419,3,0.3,-61.23287213,1.04249546
KUA,65,1,2024-06-30T18:47:49.786Z,english_130.wav,0,peel,419,4,0.4,31.74111168,0.8243923
KUA,65,1,2024-06-30T18:47:49.786Z,english_130.wav,0,peel,419,5,0.5,33.84141617,1.89113742
KUA,65,1,2024-06-30T18:47:49.786Z,english_130.wav,0,peel,419,6,0.6,19.96692936,0.69337223
KUA,65,1,2024-06-30T18:47:49.786Z,english_130.wav,0,peel,419,7,0.7,-37.06015238,1.01307283
KUA,65,1,2024-06-30T18:47:49.786Z,english_130.wav,0,peel,419,8,0.8,53.30817693,0.67908163
KUA,65,1,2024-06-30T18:47:49.786Z,english_130.wav,0,peel,419,9,0.9,56.319569,0.07541053
KUA,65,1,2024-06-30T18:47:49.786Z,english_130.wav,0,peel,419,10,1.0,38.79278484,1.95325555
KUA,65,1,2024-06-30T18:47:49.786Z,english_130.wav,0,peel,419,11,1.09391667,-4.91911249,0.98387982
KUA,66,1,2024-06-30T18:47:49.786Z,english_3.wav,0,peel,366,0,0.0,46.12890401,1.26973721
KUA,66,1,2024-06-30T18:47:49.786Z,english_3.wav,0,peel,366,1,0.1,-46.79234899,0.81563074
KUA,66,1,2024-06-30T18:47:49.786Z,english_3.wav,0,peel,366,2,0.2,43.27356125,1.94124466
KUA,66,1,2024-06-30T18:47:49.786Z,english_3.wav,0,peel,366,3,0.3,-72.16670898,0.70667384
KUA,66,1,2024-06-30T18:47:49.786Z,english_3.wav,0,peel,366,4,0.4,-20.43688573,1.08403016
KUA,66,1,2024-06-30T18:47:49.786Z,english_3.wav,0,peel,366,5,0.5,47.47685518,0.3642344
KUA,66,1,2024-06-30T18:47:49.786Z,english_3.wav,0,peel,366,6,0.6,-99.10404807,0.99174199
KUA,66,1,2024-06-30T18:47:49.786Z,english_3.wav,0,peel,366,7,0.7,26.000254,0.55041702
KUA,66,1,2024-06-30T18:47:49.786Z,english_3.wav,0,peel,366,8,0.8,-7.26217139,0.75824974
KUA,66,1,2024-06-30T18:47:49.786Z,english_3.wav,0,peel,366,9,0.9,-22.74562987,0.866985
KUA,66,1,2024-06-30T18:47:49.786Z,english_3.wav,0,peel,366,10,1.0,-68.2177704,1.56473108
KUA,66,1,2024-06-30T18:47:49.786Z,english_3.wav,0,peel,366,11,1.09391667,25.12417325,0.96011667
KUA,67,1,2024-06-30T18:47:49.786Z,english_162.wav,0,pill,270,0,0.0,26.55716136,1.5554451
KUA,67,1,2024-06-30T18:47:49.786Z,english_162.wav,0,pill,270,1,0.1,11.82804586,0.73276272
KUA,67,1,2024-06-30T18:47:49.786Z,english_162.wav,0,pill,270,2,0.2,-23.9414726,1.80328422
KUA,67,1,2024-06-30T18:47:49.786Z,english_162.wav,0,pill,270,3,0.3,-1.71566049,0.92347316
KUA,67,1,2024-06-30T18:47:49.786Z,english_162.wav,0,pill,270,4,0.4,-19.44382046,0.80698984
KUA,67,1,2024-06-30T18:47:49.786Z,english_162.wav,0,pill,270,5,0.5,-4.89650776,1.82055232
KUA,67,1,2024-06-30T18:47:49.786Z,english_162.wav,0,pill,270,6,0.6,-86.90887997,1.9917578
KUA,67,1,2024-06-30T18:47:49.786Z,english_162.wav,0,pill,270,7,0.7,-2.56378327,0.80582965
KUA,67,1,2024-06-30T18:47:49.786Z,english_162.wav,0,pill,270,8,0.8,6.4232906,1.51404022
KUA,67,1,2024-06-30T18:47:49.786Z,english_162.wav,0,pill,270,9,0.9,85.15737342,0.66169756
KUA,67,1,2024-06-30T18:47:49.786Z,english_162.wav,0,pill,270,10,1.0,86.70536365,0.35533471
KUA,67,1,2024-06-30T18:47:49.786Z,english_162.wav,0,pill,270,11,1.09391667,85.58259912,1.22719758
KUA,68,1,2024-06-30T18:47:49.786Z,english_498.wav,0,peel,833,0,0.0,43.98055184,1.94722798
KUA,68,1,2024-06-30T18:47:49.786Z,english_498.wav,0,peel,833,1,0.1,91.3545984,1.93048351
KUA,68,1,2024-06-30T18:47:49.786Z,english_498.wav,0,peel,833,2,0.2,-25.91563113,0.27240706
KUA,68,1,2024-06-30T18:47:49.786Z,english_498.wav,0,peel,833,3,0.3,-14.96140851,1.06623965
KUA,68,1,2024-06-30T18:47:49.786Z,english_498.wav,0,peel,833,4,0.4,-8.05824247,1.41558656
KUA,68,1,2024-06-30T18:47:49.786Z,english_498.wav,0,peel,833,5,0.5,-61.63888891,0.26700347
KUA,68,1,2024-06-30T18:47:49.786Z,english_498.wav,0,peel,833,6,0.6,37.86658664,0.54434522
KUA,68,1,2024-06-30T18:47:49.786Z,english_498.wav,0,peel,833,7,0.7,-97.52325855,0.79258737
KUA,68,1,2024-06-30T18:47:49.786Z,english_498.wav,0,peel,833,8,0.8,-16.03910224,1.13417158
KUA,68,1,2024-06-30T18:47:49.786Z,english_498.wav,0,peel,833,9,0.9,83.25609208,0.68565339
KUA,68,1,2024-06-30T18:47:49.786Z,english_498.wav,0,peel,833,10,1.0,-65.28300381,0.73020294
KUA,68,1,2024-06-30T18:47:49.786Z,english_498.wav,0,peel,833,11,1.09391667,38.04109912,1.48505369
KUA,69,1,2024-06-30T18:47:49.786Z,english_735.wav,0,peel,1707,0,0.0,45.17443614,1.05701846
KUA,69,1,2024-06-30T18:47:49.786Z,english_735.wav,0,peel,1707,1,0.1,47.16225486,0.44895522
KUA,69,1,2024-06-30T18:47:49.786Z,english_735.wav,0,peel,1707,2,0.2,15.3532987,0.19506386
KUA,69,1,2024-06-30T18:47:49.786Z,english_735.wav,0,peel,1707,3,0.3,-43.81061568,0.99480529
KUA,69,1,2024-06-30T18:47:49.786Z,english_735.wav,0,peel,1707,4,0.4,83.17284614,0.46252356
KUA,69,1,2024-06-30T18:47:49.786Z,english_735.wav,0,peel,1707,5,0.5,60.7769414,1.45908064
KUA,69,1,2024-06-30T18:47:49.786Z,english_735.wav,0,peel,1707,6,0.6,-66.30411683,0.86428301
KUA,69,1,2024-06-30T18:47:49.786Z,english_735.wav,0,peel,1707,7,0.7,76.89695455,1.14188193
KUA,69,1,2024-06-30T18:47:49.786Z,english_735.wav,0,peel,1707,8,0.8,67.53178197,1.15486393
KUA,69,1,2024-06-30T18:47:49.786Z,english_735.wav,0,peel,1707,9,0.9,52.8137554,1.55511006
KUA,69,1,2024-06-30T18:47:49.786Z,english_735.wav,0,peel,1707,10,1.0,-86.58423276,0.92101672
KUA,69,1,2024-06-30T18:47:49.786Z,english_735.wav,0,peel,1707,11,1.09391667,98.32439456,1.0777974
KUA,70,1,2024-06-30T18:47:49.786Z,english_596.wav,0,pill,1495,0,0.0,-42.68859768,1.28071693
KUA,70,1,2024-06-30T18:47:49.786Z,english_596.wav,0,pill,1495,1,0.1,67.29414518,0.77411838
KUA,70,1,2024-06-30T18:47:49.786Z,english_596.wav,0,pill,1495,2,0.2,-56.57562289,1.32627092
KUA,70,1,2024-06-30T18:47:49.786Z,english_596.wav,0,pill,1495,3,0.3,71.30769152,0.49089119
KUA,70,1,2024-06-30T18:47:49.786Z,english_596.wav,0,pill,1495,4,0.4,95.1886681,0.72473062
KUA,70,1,2024-06-30T18:47:49.786Z,english_596.wav,0,pill,1495,5,0.5,72.69751936,1.52798236
KUA,70,1,2024-06-30T18:47:49.786Z,english_596.wav,0,pill,1495,6,0.6,62.43561612,1.79088814
KUA,70,1,2024-06-30T18:47:49.786Z,english_596.wav,0,pill,1495,7,0.7,-87.58634469,1.96984618
KUA,70,1,2024-06-30T18:47:49.786Z,english_596.wav,0,pill,1495,8,0.8,-28.77393345,1.38508216
KUA,70,1,2024-06-30T18:47:49.786Z,english_596.wav,0,pill,1495,9,0.9,-89.27970112,1.05217053
KUA,70,1,2024-06-30T18:47:49.786Z,english_596.wav,0,pill,1495,10,1.0,-11.13754725,1.15113027
KUA,70,1,2024-06-30T18:47:49.786Z,english_596.wav,0,pill,1495,11,1.09391667,-71.54799937,0.49767302
KUA,71,1,2024-06-30T18:47:49.786Z,english_367.wav,0,peel,465,0,0.0,40.69288354,1.09000391
KUA,71,1,2024-06-30T18:47:49.786Z,english_367.wav,0,peel,465,1,0.1,-87.28554983,0.74880644
KUA,71,1,2024-06-30T18:47:49.786Z,english_367.wav,0,peel,465,2,0.2,-64.50130746,0.58255578
KUA,71,1,2024-06-30T18:47:49.786Z,english_367.wav,0,peel,465,3,0.3,65.0554957,0.66468618
KUA,71,1,2024-06-30T18:47:49.786Z,english_367.wav,0,peel,465,4,0.4,-34.90387066,1.54627645
KUA,71,1,2024-06-30T18:47:49.786Z,english_367.wav,0,peel,465,5,0.5,29.56597753,0.56660027
KUA,71,1,2024-06-30T18:47:49.786Z,english_367.wav,0,peel,465,6,0.6,36.50215848,0.69792946
KUA,71,1,2024-06-30T18:47:49.786Z,english_367.wav,0,peel,465,7,0.7,-55.69798386,1.00541299
KUA,71,1,2024-06-30T18:47:49.786Z,english_367.wav,0,peel,465,8,0.8,12.84757482,0.65534854
KUA,71,1,2024-06-30T18:47:49.786Z,english_367.wav,0,peel,465,9,0.9,-23.54866279,1.89531092
KUA,71,1,2024-06-30T18:47:49.786Z,english_367.wav,0,peel,465,10,1.0,-55.73647309,0.87598705
KUA,71,1,2024-06-30T18:47:49.786Z,english_367.wav,0,peel,465,11,1.09391667,79.84600893,1.75535151
KUA,72,1,2024-06-30T18:47:49.786Z,english_479.wav,0,pill,390,0,0.0,-34.7893931,1.93393565
KUA,72,1,2024-06-30T18:47:49.786Z,english_479.wav,0,pill,390,1,0.1,-71.34069905,0.26573691
KUA,72,1,2024-06-30T18:47:49.786Z,english_479.wav,0,pill,390,2,0.2,58.87573247,0.73981952
KUA,72,1,2024-06-30T18:47:49.786Z,english_479.wav,0,pill,390,3,0.3,-54.09913821,1.46667746
KUA,72,1,2024-06-30T18:47:49.786Z,english_479.wav,0,pill,390,4,0.4,43.12020224,0.55048015
KUA,72,1,2024-06-30T18:47:49.786Z,english_479.wav,0,pill,390,5,0.5,-44.41654249,0.62176048
KUA,72,1,2024-06-30T18:47:49.786Z,english_479.wav,0,pill,390,6,0.6,57.88290142,0.05220831
KUA,72,1,2024-06-30T18:47:49.786Z,english_479.wav,0,pill,390,7,0.7,-1.44997962,0.21971087
KUA,72,1,2024-06-30T18:47:49.786Z,english_479.wav,0,pill,390,8,0.8,89.72797502,0.30059048
KUA,72,1,2024-06-30T18:47:49.786Z,english_479.wav,0,pill,390,9,0.9,97.22467665,0.39403565
KUA,72,1,2024-06-30T18:47:49.786Z,english_479.wav,0,pill,390,10,1.0,52.11815336,1.20859565
KUA,72,1,2024-06-30T18:47:49.786Z,english_479.wav,0,pill,390,11,1.09391667,71.23188895,0.36818185
KUA,73,1,2024-06-30T18:47:49.786Z,english_87.wav,0,peel,729,0,0.0,-7.69614497,1.36395538
KUA,73,1,2024-06-30T18:47:49.786Z,english_87.wav,0,peel,729,1,0.1,-50.79583923,0.55370317
KUA,73,1,2024-06-30T18:47:49.786Z,english_87.wav,0,peel,729,2,0.2,-21.62085435,0.68433779
KUA,73,1,2024-06-30T18:47:49.786Z,english_87.wav,0,peel,729,3,0.3,23.33346841,1.42277988
KUA,73,1,2024-06-30T18:47:49.786Z,english_87.wav,0,peel,729,4,0.4,84.82731916,1.16991809
KUA,73,1,2024-06-30T18:47:49.786Z,english_87.wav,0,peel,729,5,0.5,74.54936251,0.13065421
KUA,73,1,2024-06-30T18:47:49.786Z,english_87.wav,0,peel,729,6,0.6,-86.24882643,1.74622352
KUA,73,1,2024-06-30T18:47:49.786Z,english_87.wav,0,peel,729,7,0.7,18.19590059,0.87122315
KUA,73,1,2024-06-30T18:47:49.786Z,english_87.wav,0,peel,729,8,0.8,86.70789686,1.52981879
KUA,73,1,2024-06-30T18:47:49.786Z,english_87.wav,0,peel,729,9,0.9,67.00424782,1.42292715
KUA,73,1,2024-06-30T18:47:49.786Z,english_87.wav,0,peel,729,10,1.0,91.10231962,0.07145037
KUA,73,1,2024-06-30T18:47:49.786Z,english_87.wav,0,peel,729,11,1.09391667,23.49318924,0.54757178
KUA,74,1,2024-06-30T18:47:49.786Z,english_712.wav,0,pill,1801,0,0.0,-23.1463857,0.37379236
KUA,74,1,2024-06-30T18:47:49.786Z,english_712.wav,0,pill,1801,1,0.1,24.6800968,1.67699004
KUA,74,1,2024-06-30T18:47:49.786Z,english_712.wav,0,pill,1801,2,0.2,0.0161964332,1.79701075
KUA,74,1,2024-06-30T18:47:49.786Z,english_712.wav,0,pill,1801,3,0.3,-17.6606804,0.97598087
KUA,74,1,2024-06-30T18:47:49.786Z,english_712.wav,0,pill,1801,4,0.4,0.366433398,0.364202
KUA,74,1,2024-06-30T18:47:49.786Z,english_712.wav,0,pill,1801,5,0.5,92.1731967,1.74943947
KUA,74,1,2024-06-30T18:47:49.786Z,english_712.wav,0,pill,1801,6,0.6,37.7445609,0.51022449
KUA,74,1,2024-06-30T18:47:49.786Z,english_712.wav,0,pill,1801,7,0.7,36.1997785,1.89888437
KUA,74,1,2024-06-30T18:47:49.786Z,english_712.wav,0,pill,1801,8,0.8,68.1982864,1.17858578
KUA,74,1,2024-06-30T18:47:49.786Z,english_712.wav,0,pill,1801,9,0.9,89.0317309,0.87832213
KUA,74,1,2024-06-30T18:47:49.786Z,english_712.wav,0,pill,1801,10,1.0,-18.2298461,1.72214889
KUA,74,1,2024-06-30T18:47:49.786Z,english_712.wav,0,pill,1801,11,1.09391667,4.18738238,0.60066774
KUA,75,1,2024-06-30T18:47:49.786Z,english_196.wav,0,peel,993,0,0.0,2.02767746,0.52488194
KUA,75,1,2024-06-30T18:47:49.786Z,english_196.wav,0,peel,993,1,0.1,-33.8864136,0.07938129
KUA,75,1,2024-06-30T18:47:49.786Z,english_196.wav,0,peel,993,2,0.2,22.2108892,1.27880301
KUA,75,1,2024-06-30T18:47:49.786Z,english_196.wav,0,peel,993,3,0.3,26.8443858,0.8345871
KUA,75,1,2024-06-30T18:47:49.786Z,english_196.wav,0,peel,993,4,0.4,54.5751314,1.20448566
KUA,75,1,2024-06-30T18:47:49.786Z,english_196.wav,0,peel,993,5,0.5,17.7209079,1.38294306
KUA,75,1,2024-06-30T18:47:49.786Z,english_196.wav,0,peel,993,6,0.6,46.4311721,1.20996935
KUA,75,1,2024-06-30T18:47:49.786Z,english_196.wav,0,peel,993,7,0.7,74.3025548,0.87104857
KUA,75,1,2024-06-30T18:47:49.786Z,english_196.wav,0,peel,993,8,0.8,24.2178378,0.98676135
KUA,75,1,2024-06-30T18:47:49.786Z,english_196.wav,0,peel,993,9,0.9,-0.0117232829,0.71720025
KUA,75,1,2024-06-30T18:47:49.786Z,english_196.wav,0,peel,993,10,1.0,-55.3381983,1.3134078
KUA,75,1,2024-06-30T18:47:49.786Z,english_196.wav,0,peel,993,11,1.09391667,-51.2005151,0.6531164
KUA,76,1,2024-06-30T18:47:49.786Z,english_192.wav,0,peel,463,0,0.0,-44.06496916,1.38059828
KUA,76,1,2024-06-30T18:47:49.786Z,english_192.wav,0,peel,463,1,0.1,-1.73373059,0.79242211
KUA,76,1,2024-06-30T18:47:49.786Z,english_192.wav,0,peel,463,2,0.2,-29.10510113,0.7213484
KUA,76,1,2024-06-30T18:47:49.786Z,english_192.wav,0,peel,463,3,0.3,71.54582207,1.27323666
KUA,76,1,2024-06-30T18:47:49.786Z,english_192.wav,0,peel,463,4,0.4,47.17920128,0.22557274
KUA,76,1,2024-06-30T18:47:49.786Z,english_192.wav,0,peel,463,5,0.5,46.36925649,1.52280769
KUA,76,1,2024-06-30T18:47:49.786Z,english_192.wav,0,peel,463,6,0.6,34.98575102,0.97358447
KUA,76,1,2024-06-30T18:47:49.786Z,english_192.wav,0,peel,463,7,0.7,51.8668686,0.90127966
KUA,76,1,2024-06-30T18:47:49.786Z,english_192.wav,0,peel,463,8,0.8,-35.42178409,0.86874685
KUA,76,1,2024-06-30T18:47:49.786Z,english_192.wav,0,peel,463,9,0.9,-56.11776415,1.58446024
KUA,76,1,2024-06-30T18:47:49.786Z,english_192.wav,0,peel,463,10,1.0,-44.79305263,1.51736237
KUA,76,1,2024-06-30T18:47:49.786Z,english_192.wav,0,peel,463,11,1.09391667,37.72006641,0.71870831
KUA,77,1,2024-06-30T18:47:49.786Z,english_436.wav,0,peel,303,0,0.0,-5.79676766,0.51982844
KUA,77,1,2024-06-30T18:47:49.786Z,english_436.wav,0,peel,303,1,0.1,-7.88979016,1.6050725
KUA,77,1,2024-06-30T18:47:49.786Z,english_436.wav,0,peel,303,2,0.2,-30.02673636,1.59647027
KUA,77,1,2024-06-30T18:47:49.786Z,english_436.wav,0,peel,303,3,0.3,10.91379363,1.97742112
KUA,77,1,2024-06-30T18:47:49.786Z,english_436.wav,0,peel,303,4,0.4,1.79762369,1.85601804
KUA,77,1,2024-06-30T18:47:49.786Z,english_436.wav,0,peel,303,5,0.5,73.94991314,1.38993988
KUA,77,1,2024-06-30T18:47:49.786Z,english_436.wav,0,peel,303,6,0.6,77.03109361,1.43065154
KUA,77,1,2024-06-30T18:47:49.786Z,english_436.wav,0,peel,303,7,0.7,-48.27841607,0.14937688
KUA,77,1,2024-06-30T18:47:49.786Z,english_436.wav,0,peel,303,8,0.8,57.26579501,1.65528817
KUA,77,1,2024-06-30T18:47:49.786Z,english_436.wav,0,peel,303,9,0.9,-80.56784579,1.0202375
KUA,77,1,2024-06-30T18:47:49.786Z,english_436.wav,0,peel,303,10,1.0,64.74546515,1.82414723
KUA,77,1,2024-06-30T18:47:49.786Z,english_436.wav,0,peel,303,11,1.09391667,5.24901362,1.00971458
KUA,78,1,2024-06-30T18:47:49.786Z,english_618.wav,0,peel,559,0,0.0,-79.9488622,1.91362605
KUA,78,1,2024-06-30T18:47:49.786Z,english_618.wav,0,peel,559,1,0.1,0.24132163,0.6330552
KUA,78,1,2024-06-30T18:47:49.786Z,english_618.wav,0,peel,559,2,0.2,-56.62295111,0.97728614
KUA,78,1,2024-06-30T18:47:49.786Z,english_618.wav,0,peel,559,3,0.3,-72.03937353,0.96298019
KUA,78,1,2024-06-30T18:47:49.786Z,english_618.wav,0,peel,559,4,0.4,-44.72303747,1.81673931
KUA,78,1,2024-06-30T18:47:49.786Z,english_618.wav,0,peel,559,5,0.5,-96.08672425,0.35989287
KUA,78,1,2024-06-30T18:47:49.786Z,english_618.wav,0,peel,559,6,0.6,63.06881346,1.43341205
KUA,78,1,2024-06-30T18:47:49.786Z,english_618.wav,0,peel,559,7,0.7,7.33604436,1.78848637
KUA,78,1,2024-06-30T18:47:49.786Z,english_618.wav,0,peel,559,8,0.8,76.47736911,1.05646412
KUA,78,1,2024-06-30T18:47:49.786Z,english_618.wav,0,peel,559,9,0.9,-52.54898443,0.998868
KUA,78,1,2024-06-30T18:47:49.786Z,english_618.wav,0,peel,559,10,1.0,33.73192618,1.38011588
KUA,78,1,2024-06-30T18:47:49.786Z,english_618.wav,0,peel,559,11,1.09391667,31.05572927,1.5899218
KUA,79,1,2024-06-30T18:47:49.786Z,english_470.wav,0,pill,234,0,0.0,7.37990413,0.50795653
KUA,79,1,2024-06-30T18:47:49.786Z,english_470.wav,0,pill,234,1,0.1,87.94942489,0.30691906
KUA,79,1,2024-06-30T18:47:49.786Z,english_470.wav,0,pill,234,2,0.2,10.38249529,0.98636118
KUA,79,1,2024-06-30T18:47:49.786Z,english_470.wav,0,pill,234,3,0.3,-58.07329771,1.21445168
KUA,79,1,2024-06-30T18:47:49.786Z,english_470.wav,0,pill,234,4,0.4,23.85321855,1.48681533
KUA,79,1,2024-06-30T18:47:49.786Z,english_470.wav,0,pill,234,5,0.5,6.8444155,0.97810489
KUA,79,1,2024-06-30T18:47:49.786Z,english_470.wav,0,pill,234,6,0.6,-98.77408233,1.43803165
KUA,79,1,2024-06-30T18:47:49.786Z,english_470.wav,0,pill,234,7,0.7,31.31374825,0.53571114
KUA,79,1,2024-06-30T18:47:49.786Z,english_470.wav,0,pill,234,8,0.8,48.11301354,0.52187188
KUA,79,1,2024-06-30T18:47:49.786Z,english_470.wav,0,pill,234,9,0.9,41.85545408,0.48211822
KUA,79,1,2024-06-30T18:47:49.786Z,english_470.wav,0,pill,234,10,1.0,-24.66275902,1.48098769
KUA,79,1,2024-06-30T18:47:49.786Z,english_470.wav,0,pill,234,11,1.09391667,-90.92929456,1.20326113
KUA,80,1,2024-06-30T18:47:49.786Z,english_867.wav,0,peel,243,0,0.0,-24.89816024,0.58295981
KUA,80,1,2024-06-30T18:47:49.786Z,english_867.wav,0,peel,243,1,0.1,-5.46882756,0.29098819
KUA,80,1,2024-06-30T18:47:49.786Z,english_867.wav,0,peel,243,2,0.2,20.19834057,1.14395964
KUA,80,1,2024-06-30T18:47:49.786Z,english_867.wav,0,peel,243,3,0.3,-93.32796435,1.65419487
KUA,80,1,2024-06-30T18:47:49.786Z,english_867.wav,0,peel,243,4,0.4,33.67014856,0.61503003
KUA,80,1,2024-06-30T18:47:49.786Z,english_867.wav,0,peel,243,5,0.5,-35.81311347,0.19208338
KUA,80,1,2024-06-30T18:47:49.786Z,english_867.wav,0,peel,243,6,0.6,3.8400964,1.34794824
KUA,80,1,2024-06-30T18:47:49.786Z,english_867.wav,0,peel,243,7,0.7,36.13382858,0.71921044
KUA,80,1,2024-06-30T18:47:49.786Z,english_867.wav,0,peel,243,8,0.8,70.00228028,1.86066536
KUA,80,1,2024-06-30T18:47:49.786Z,english_867.wav,0,peel,243,9,0.9,81.61272395,0.96263601
KUA,80,1,2024-06-30T18:47:49.786Z,english_867.wav,0,peel,243,10,1.0,-46.82426053,1.18263142
KUA,80,1,2024-06-30T18:47:49.786Z,english_867.wav,0,peel,243,11,1.09391667,21.97193379,1.25802514
KUA,81,1,2024-06-30T18:47:49.786Z,english_280.wav,0,pill,543,0,0.0,88.39262763,0.21682945
KUA,81,1,2024-06-30T18:47:49.786Z,english_280.wav,0,pill,543,1,0.1,-30.0419816,1.88667459
KUA,81,1,2024-06-30T18:47:49.786Z,english_280.wav,0,pill,543,2,0.2,-70.85942958,0.16117743
KUA,81,1,2024-06-30T18:47:49.786Z,english_280.wav,0,pill,543,3,0.3,-46.07032191,0.35719266
KUA,81,1,2024-06-30T18:47:49.786Z,english_280.wav,0,pill,543,4,0.4,22.37889655,1.6700127
KUA,81,1,2024-06-30T18:47:49.786Z,english_280.wav,0,pill,543,5,0.5,47.83072725,1.73336776
KUA,81,1,2024-06-30T18:47:49.786Z,english_280.wav,0,pill,543,6,0.6,22.02613007,0.653825
KUA,81,1,2024-06-30T18:47:49.786Z,english_280.wav,0,pill,543,7,0.7,-10.57655449,1.99113264
KUA,81,1,2024-06-30T18:47:49.786Z,english_280.wav,0,pill,543,8,0.8,78.01759084,1.83439976
KUA,81,1,2024-06-30T18:47:49.786Z,english_280.wav,0,pill,543,9,0.9,38.41828257,1.29158868
KUA,81,1,2024-06-30T18:47:49.786Z,english_280.wav,0,pill,543,10,1.0,88.43566384,1.21494043
KUA,81,1,2024-06-30T18:47:49.786Z,english_280.wav,0,pill,543,11,1.09391667,-41.21843243,1.43203323
KUA,82,1,2024-06-30T18:47:49.786Z,english_757.wav,0,pill,255,0,0.0,26.0154679,0.86626914
KUA,82,1,2024-06-30T18:47:49.786Z,english_757.wav,0,pill,255,1,0.1,-81.78316815,1.8292062
KUA,82,1,2024-06-30T18:47:49.786Z,english_757.wav,0,pill,255,2,0.2,24.8129191,0.11166618
KUA,82,1,2024-06-30T18:47:49.786Z,english_757.wav,0,pill,255,3,0.3,-92.40862689,1.6321581
KUA,82,1,2024-06-30T18:47:49.786Z,english_757.wav,0,pill,255,4,0.4,75.32531846,1.47340274
KUA,82,1,2024-06-30T18:47:49.786Z,english_757.wav,0,pill,255,5,0.5,-66.35281637,0.8022413
KUA,82,1,2024-06-30T18:47:49.786Z,english_757.wav,0,pill,255,6,0.6,-7.38230753,0.64841019
KUA,82,1,2024-06-30T18:47:49.786Z,english_757.wav,0,pill,255,7,0.7,87.06226271,0.78666377
KUA,82,1,2024-06-30T18:47:49.786Z,english_757.wav,0,pill,255,8,0.8,39.69275954,0.73828249
KUA,82,1,2024-06-30T18:47:49.786Z,english_757.wav,0,pill,255,9,0.9,-78.28701329,1.08245488
KUA,82,1,2024-06-30T18:47:49.786Z,english_757.wav,0,pill,255,10,1.0,-77.31255291,1.44296588
KUA,82,1,2024-06-30T18:47:49.786Z,english_757.wav,0,pill,255,11,1.09391667,70.90825389,0.56236939
KUA,83,1,2024-06-30T18:47:49.786Z,english_967.wav,0,pill,496,0,0.0,-95.01579597,1.84793029
KUA,83,1,2024-06-30T18:47:49.786Z,english_967.wav,0,pill,496,1,0.1,-83.85694312,0.58680999
KUA,83,1,2024-06-30T18:47:49.786Z,english_967.wav,0,pill,496,2,0.2,-85.29120752,1.7718572
KUA,83,1,2024-06-30T18:47:49.786Z,english_967.wav,0,pill,496,3,0.3,39.64714204,1.16952376
KUA,83,1,2024-06-30T18:47:49.786Z,english_967.wav,0,pill,496,4,0.4,57.5109199,0.26483397
KUA,83,1,2024-06-30T18:47:49.786Z,english_967.wav,0,pill,496,5,0.5,17.84726357,0.70174807
KUA,83,1,2024-06-30T18:47:49.786Z,english_967.wav,0,pill,496,6,0.6,72.49898727,1.00653378
KUA,83,1,2024-06-30T18:47:49.786Z,english_967.wav,0,pill,496,7,0.7,-49.28489837,0.37312662
KUA,83,1,2024-06-30T18:47:49.786Z,english_967.wav,0,pill,496,8,0.8,27.76319329,0.21661179
KUA,83,1,2024-06-30T18:47:49.786Z,english_967.wav,0,pill,496,9,0.9,40.88732144,1.37557681
KUA,83,1,2024-06-30T18:47:49.786Z,english_967.wav,0,pill,496,10,1.0,25.08094833,0.83851773
KUA,83,1,2024-06-30T18:47:49.786Z,english_967.wav,0,pill,496,11,1.09391667,-11.2848797,1.10196179
KUA,84,1,2024-06-30T18:47:49.786Z,english_139.wav,0,pill,636,0,0.0,81.69119698,1.27933894
KUA,84,1,2024-06-30T18:47:49.786Z,english_139.wav,0,pill,636,1,0.1,42.19378668,0.17402895
KUA,84,1,2024-06-30T18:47:49.786Z,english_139.wav,0,pill,636,2,0.2,-40.74285827,0.51201081
KUA,84,1,2024-06-30T18:47:49.786Z,english_139.wav,0,pill,636,3,0.3,49.20247594,0.94873681
KUA,84,1,2024-06-30T18:47:49.786Z,english_139.wav,0,pill,636,4,0.4,-31.78428617,1.19745534
KUA,84,1,2024-06-30T18:47:49.786Z,english_139.wav,0,pill,636,5,0.5,33.76293525,0.67270535
KUA,84,1,2024-06-30T18:47:49.786Z,english_139.wav,0,pill,636,6,0.6,7.11439176,1.44433094
KUA,84,1,2024-06-30T18:47:49.786Z,english_139.wav,0,pill,636,7,0.7,-18.31872173,0.44605891
KUA,84,1,2024-06-30T18:47:49.786Z,english_139.wav,0,pill,636,8,0.8,79.70412409,0.81778602
KUA,84,1,2024-06-30T18:47:49.786Z,english_139.wav,0,pill,636,9,0.9,-88.5628162,1.24773735
KUA,84,1,2024-06-30T18:47:49.786Z,english_139.wav,0,pill,636,10,1.0,-65.12448171,0.00984113
KUA,84,1,2024-06-30T18:47:49.786Z,english_139.wav,0,pill,636,11,1.09391667,11.63103966,1.43403062
KUA,85,1,2024-06-30T18:47:49.786Z,english_738.wav,0,pill,483,0,0.0,40.29848329,1.14824707
KUA,85,1,2024-06-30T18:47:49.786Z,english_738.wav,0,pill,483,1,0.1,66.12105636,1.60387601
KUA,85,1,2024-06-30T18:47:49.786Z,english_738.wav,0,pill,483,2,0.2,-12.57692477,1.084542
KUA,85,1,2024-06-30T18:47:49.786Z,english_738.wav,0,pill,483,3,0.3,-81.4028628,1.81856642
KUA,85,1,2024-06-30T18:47:49.786Z,english_738.wav,0,pill,483,4,0.4,83.16146046,1.62922567
KUA,85,1,2024-06-30T18:47:49.786Z,english_738.wav,0,pill,483,5,0.5,59.80662428,0.86427283
KUA,85,1,2024-06-30T18:47:49.786Z,english_738.wav,0,pill,483,6,0.6,40.28369402,0.1736944
KUA,85,1,2024-06-30T18:47:49.786Z,english_738.wav,0,pill,483,7,0.7,70.16502192,0.66918612
KUA,85,1,2024-06-30T18:47:49.786Z,english_738.wav,0,pill,483,8,0.8,33.24952129,1.29313609
KUA,85,1,2024-06-30T18:47:49.786Z,english_738.wav,0,pill,483,9,0.9,-77.78198323,0.37962966
KUA,85,1,2024-06-30T18:47:49.786Z,english_738.wav,0,pill,483,10,1.0,6.29614131,0.80178577
KUA,85,1,2024-06-30T18:47:49.786Z,english_738.wav,0,pill,483,11,1.09391667,60.18727711,0.93492505
KUA,86,1,2024-06-30T18:47:49.786Z,english_620.wav,0,peel,184,0,0.0,70.25249287,1.60927754
KUA,86,1,2024-06-30T18:47:49.786Z,english_620.wav,0,peel,184,1,0.1,-54.17403538,0.35556605
KUA,86,1,2024-06-30T18:47:49.786Z,english_620.wav,0,peel,184,2,0.2,-24.27909239,1.04145572
KUA,86,1,2024-06-30T18:47:49.786Z,english_620.wav,0,peel,184,3,0.3,-72.34505274,1.98653049
KUA,86,1,2024-06-30T18:47:49.786Z,english_620.wav,0,peel,184,4,0.4,-84.16228676,0.35027861
KUA,86,1,2024-06-30T18:47:49.786Z,english_620.wav,0,peel,184,5,0.5,-50.29822256,1.43135392
KUA,86,1,2024-06-30T18:47:49.786Z,english_620.wav,0,peel,184,6,0.6,87.34344189,1.2880573
KUA,86,1,2024-06-30T18:47:49.786Z,english_620.wav,0,peel,184,7,0.7,-51.38543443,1.68116405
KUA,86,1,2024-06-30T18:47:49.786Z,english_620.wav,0,peel,184,8,0.8,40.7028666,1.8236964
KUA,86,1,2024-06-30T18:47:49.786Z,english_620.wav,0,peel,184,9,0.9,-95.70979416,0.04712506
KUA,86,1,2024-06-30T18:47:49.786Z,english_620.wav,0,peel,184,10,1.0,95.25950338,1.86928379
KUA,86,1,2024-06-30T18:47:49.786Z,english_620.wav,0,peel,184,11,1.09391667,-68.50782959,0.75081121
KUA,87,1,2024-06-30T18:47:49.786Z,english_361.wav,0,peel,856,0,0.0,20.84328773,1.90680099
KUA,87,1,2024-06-30T18:47:49.786Z,english_361.wav,0,peel,856,1,0.1,31.97314279,0.60095823
KUA,87,1,2024-06-30T18:47:49.786Z,english_361.wav,0,peel,856,2,0.2,0.96518171,1.38207831
KUA,87,1,2024-06-30T18:47:49.786Z,english_361.wav,0,peel,856,3,0.3,76.6061975,1.17298151
KUA,87,1,2024-06-30T18:47:49.786Z,english_361.wav,0,peel,856,4,0.4,-77.10206306,1.57242958
KUA,87,1,2024-06-30T18:47:49.786Z,english_361.wav,0,peel,856,5,0.5,23.53898445,0.07487762
KUA,87,1,2024-06-30T18:47:49.786Z,english_361.wav,0,peel,856,6,0.6,-12.32061179,1.72866781
KUA,87,1,2024-06-30T18:47:49.786Z,english_361.wav,0,peel,856,7,0.7,28.9259581,0.62365339
KUA,87,1,2024-06-30T18:47:49.786Z,english_361.wav,0,peel,856,8,0.8,-94.91860317,0.31926535
KUA,87,1,2024-06-30T18:47:49.786Z,english_361.wav,0,peel,856,9,0.9,-45.1021446,1.82585567
KUA,87,1,2024-06-30T18:47:49.786Z,english_361.wav,0,peel,856,10,1.0,37.31543609,1.81117851
KUA,87,1,2024-06-30T18:47:49.786Z,english_361.wav,0,peel,856,11,1.09391667,-48.80421802,0.64368516
KUA,88,1,2024-06-30T18:47:49.786Z,english_795.wav,0,peel,1867,0,0.0,87.97989278,1.59591128
KUA,88,1,2024-06-30T18:47:49.786Z,english_795.wav,0,peel,1867,1,0.1,-23.39853739,1.94488646
KUA,88,1,2024-06-30T18:47:49.786Z,english_795.wav,0,peel,1867,2,0.2,85.15897758,0.62481037
KUA,88,1,2024-06-30T18:47:49.786Z,english_795.wav,0,peel,1867,3,0.3,30.45214085,0.56488466
KUA,88,1,2024-06-30T18:47:49.786Z,english_795.wav,0,peel,1867,4,0.4,25.21841082,0.81270144
KUA,88,1,2024-06-30T18:47:49.786Z,english_795.wav,0,peel,1867,5,0.5,36.10678603,1.54003491
KUA,88,1,2024-06-30T18:47:49.786Z,english_795.wav,0,peel,1867,6,0.6,61.48762219,1.21959161
KUA,88,1,2024-06-30T18:47:49.786Z,english_795.wav,0,peel,1867,7,0.7,14.5754085,0.84714061
KUA,88,1,2024-06-30T18:47:49.786Z,english_795.wav,0,peel,1867,8,0.8,-57.54329739,1.28928587
KUA,88,1,2024-06-30T18:47:49.786Z,english_795.wav,0,peel,1867,9,0.9,-73.09117399,1.61523869
KUA,88,1,2024-06-30T18:47:49.786Z,english_795.wav,0,peel,1867,10,1.0,77.49994784,1.68827262
KUA,88,1,2024-06-30T18:47:49.786Z,english_795.wav,0,peel,1867,11,1.09391667,89.63116882,1.85702814
KUA,89,1,2024-06-30T18:47:49.786Z,english_526.wav,0,pill,332,0,0.0,8.34861985,0.818467978
KUA,89,1,2024-06-30T18:47:49.786Z,english_526.wav,0,pill,332,1,0.1,4.68771873,1.47842566
KUA,89,1,2024-06-30T18:47:49.786Z,english_526.wav,0,pill,332,2,0.2,53.60731048,1.2919312
KUA,89,1,2024-06-30T18:47:49.786Z,english_526.wav,0,pill,332,3,0.3,59.31550311,3.6729241e-06
KUA,89,1,2024-06-30T18:47:49.786Z,english_526.wav,0,pill,332,4,0.4,72.50237706,1.30202935
KUA,89,1,2024-06-30T18:47:49.786Z,english_526.wav,0,pill,332,5,0.5,35.8849844,0.436504023
KUA,89,1,2024-06-30T18:47:49.786Z,english_526.wav,0,pill,332,6,0.6,74.11215821,1.72509944
KUA,89,1,2024-06-30T18:47:49.786Z,english_526.wav,0,pill,332,7,0.7,55.59683057,0.555064149
KUA,89,1,2024-06-30T18:47:49.786Z,english_526.wav,0,pill,332,8,0.8,-27.47924079,0.322124551
KUA,89,1,2024-06-30T18:47:49.786Z,english_526.wav,0,pill,332,9,0.9,6.32801867,0.203468589
KUA,89,1,2024-06-30T18:47:49.786Z,english_526.wav,0,pill,332,10,1.0,17.73622103,0.814562372
KUA,89,1,2024-06-30T18:47:49.786Z,english_526.wav,0,pill,332,11,1.09391667,57.44538819,1.24257204
KUA,90,1,2024-06-30T18:47:49.786Z,english_83.wav,0,peel,293,0,0.0,-13.2041621,1.43008508
KUA,90,1,2024-06-30T18:47:49.786Z,english_83.wav,0,peel,293,1,0.1,72.11694132,0.66721453
KUA,90,1,2024-06-30T18:47:49.786Z,english_83.wav,0,peel,293,2,0.2,72.29533823,0.92720226
KUA,90,1,2024-06-30T18:47:49.786Z,english_83.wav,0,peel,293,3,0.3,27.12463377,1.5008618
KUA,90,1,2024-06-30T18:47:49.786Z,english_83.wav,0,peel,293,4,0.4,-0.51668001,0.92612905
KUA,90,1,2024-06-30T18:47:49.786Z,english_83.wav,0,peel,293,5,0.5,95.33803701,1.15889455
KUA,90,1,2024-06-30T18:47:49.786Z,english_83.wav,0,peel,293,6,0.6,29.01440832,1.69874537
KUA,90,1,2024-06-30T18:47:49.786Z,english_83.wav,0,peel,293,7,0.7,95.49757562,1.82400366
KUA,90,1,2024-06-30T18:47:49.786Z,english_83.wav,0,peel,293,8,0.8,73.0572007,0.49276816
KUA,90,1,2024-06-30T18:47:49.786Z,english_83.wav,0,peel,293,9,0.9,-51.56555772,1.24642372
KUA,90,1,2024-06-30T18:47:49.786Z,english_83.wav,0,peel,293,10,1.0,75.9566984,1.81994123
KUA,90,1,2024-06-30T18:47:49.786Z,english_83.wav,0,peel,293,11,1.09391667,-25.09105013,1.274738
KUA,91,1,2024-06-30T18:47:49.786Z,english_723.wav,0,pill,763,0,0.0,41.38539941,1.7889603
KUA,91,1,2024-06-30T18:47:49.786Z,english_723.wav,0,pill,763,1,0.1,-10.01095303,0.1038592
KUA,91,1,2024-06-30T18:47:49.786Z,english_723.wav,0,pill,763,2,0.2,29.27272113,0.53110076
KUA,91,1,2024-06-30T18:47:49.786Z,english_723.wav,0,pill,763,3,0.3,-49.7176535,0.29760974
KUA,91,1,2024-06-30T18:47:49.786Z,english_723.wav,0,pill,763,4,0.4,-10.52042461,1.31106604
KUA,91,1,2024-06-30T18:47:49.786Z,english_723.wav,0,pill,763,5,0.5,-43.11656662,0.93542765
KUA,91,1,2024-06-30T18:47:49.786Z,english_723.wav,0,pill,763,6,0.6,-24.09481257,1.32967349
