subj,trial,block,date,stim,stim_order,response,rt,age,english,language,sex,param_index,segment,pitch,stretch
MAN,0,0,2024-06-19T03:25:58.028Z,english_438.wav,0,pill,1229,23,3,Japanese,m,0,0.0,91.86272704,0.9386026
MAN,0,0,2024-06-19T03:25:58.028Z,english_438.wav,0,pill,1229,23,3,Japanese,m,1,0.1,-44.43630423,0.33540843
MAN,0,0,2024-06-19T03:25:58.028Z,english_438.wav,0,pill,1229,23,3,Japanese,m,2,0.2,72.37874658,1.56241731
MAN,0,0,2024-06-19T03:25:58.028Z,english_438.wav,0,pill,1229,23,3,Japanese,m,3,0.3,-59.64407805,1.95211947
MAN,0,0,2024-06-19T03:25:58.028Z,english_438.wav,0,pill,1229,23,3,Japanese,m,4,0.4,3.98283537,1.78538666
MAN,0,0,2024-06-19T03:25:58.028Z,english_438.wav,0,pill,1229,23,3,Japanese,m,5,0.5,-96.02756859,1.14694298
MAN,0,0,2024-06-19T03:25:58.028Z,english_438.wav,0,pill,1229,23,3,Japanese,m,6,0.6,-93.99408703,0.91873994
MAN,0,0,2024-06-19T03:25:58.028Z,english_438.wav,0,pill,1229,23,3,Japanese,m,7,0.7,-23.90252883,0.98699904
MAN,0,0,2024-06-19T03:25:58.028Z,english_438.wav,0,pill,1229,23,3,Japanese,m,8,0.8,-21.6037345,0.66470347
MAN,0,0,2024-06-19T03:25:58.028Z,english_438.wav,0,pill,1229,23,3,Japanese,m,9,0.9,5.15930496,0.74579671
MAN,0,0,2024-06-19T03:25:58.028Z,english_438.wav,0,pill,1229,23,3,Japanese,m,10,1.0,-88.86892037,1.08133319
MAN,0,0,2024-06-19T03:25:58.028Z,english_438.wav,0,pill,1229,23,3,Japanese,m,11,1.09391667,6.8489947,0.0772073
MAN,1,0,2024-06-19T03:25:58.028Z,english_888.wav,0,peel,1513,23,3,Japanese,m,0,0.0,-39.7925546,0.13458958
MAN,1,0,2024-06-19T03:25:58.028Z,english_888.wav,0,peel,1513,23,3,Japanese,m,1,0.1,-49.30113257,1.48324952
MAN,1,0,2024-06-19T03:25:58.028Z,english_888.wav,0,peel,1513,23,3,Japanese,m,2,0.2,5.97243806,0.77423602
MAN,1,0,2024-06-19T03:25:58.028Z,english_888.wav,0,peel,1513,23,3,Japanese,m,3,0.3,16.41276851,0.11110742
MAN,1,0,2024-06-19T03:25:58.028Z,english_888.wav,0,peel,1513,23,3,Japanese,m,4,0.4,72.72751695,0.50050507
MAN,1,0,2024-06-19T03:25:58.028Z,english_888.wav,0,peel,1513,23,3,Japanese,m,5,0.5,30.43059144,1.62800327
MAN,1,0,2024-06-19T03:25:58.028Z,english_888.wav,0,peel,1513,23,3,Japanese,m,6,0.6,-50.61460993,0.52150538
MAN,1,0,2024-06-19T03:25:58.028Z,english_888.wav,0,peel,1513,23,3,Japanese,m,7,0.7,27.35581245,1.33185555
MAN,1,0,2024-06-19T03:25:58.028Z,english_888.wav,0,peel,1513,23,3,Japanese,m,8,0.8,-42.43293374,1.57744059
MAN,1,0,2024-06-19T03:25:58.028Z,english_888.wav,0,peel,1513,23,3,Japanese,m,9,0.9,65.78948432,0.93033448
MAN,1,0,2024-06-19T03:25:58.028Z,english_888.wav,0,peel,1513,23,3,Japanese,m,10,1.0,10.78660964,1.1520653
MAN,1,0,2024-06-19T03:25:58.028Z,english_888.wav,0,peel,1513,23,3,Japanese,m,11,1.09391667,-21.51817703,1.84815249
MAN,2,0,2024-06-19T03:25:58.028Z,english_474.wav,0,pill,1113,23,3,Japanese,m,0,0.0,90.33187361,1.64439586
MAN,2,0,2024-06-19T03:25:58.028Z,english_474.wav,0,pill,1113,23,3,Japanese,m,1,0.1,-6.84069755,1.97409516
MAN,2,0,2024-06-19T03:25:58.028Z,english_474.wav,0,pill,1113,23,3,Japanese,m,2,0.2,-57.72482016,1.83394357
MAN,2,0,2024-06-19T03:25:58.028Z,english_474.wav,0,pill,1113,23,3,Japanese,m,3,0.3,-31.39067157,1.91918891
MAN,2,0,2024-06-19T03:25:58.028Z,english_474.wav,0,pill,1113,23,3,Japanese,m,4,0.4,81.36101502,1.89552465
MAN,2,0,2024-06-19T03:25:58.028Z,english_474.wav,0,pill,1113,23,3,Japanese,m,5,0.5,86.28648359,1.60591709
MAN,2,0,2024-06-19T03:25:58.028Z,english_474.wav,0,pill,1113,23,3,Japanese,m,6,0.6,59.24078698,1.87570248
MAN,2,0,2024-06-19T03:25:58.028Z,english_474.wav,0,pill,1113,23,3,Japanese,m,7,0.7,83.65694144,0.05909507
MAN,2,0,2024-06-19T03:25:58.028Z,english_474.wav,0,pill,1113,23,3,Japanese,m,8,0.8,-5.88526163,0.13266254
MAN,2,0,2024-06-19T03:25:58.028Z,english_474.wav,0,pill,1113,23,3,Japanese,m,9,0.9,-0.83528638,1.2446593
MAN,2,0,2024-06-19T03:25:58.028Z,english_474.wav,0,pill,1113,23,3,Japanese,m,10,1.0,93.70431835,0.47044402
MAN,2,0,2024-06-19T03:25:58.028Z,english_474.wav,0,pill,1113,23,3,Japanese,m,11,1.09391667,-9.99550439,1.70719202
MAN,3,0,2024-06-19T03:25:58.028Z,english_129.wav,0,pill,3114,23,3,Japanese,m,0,0.0,-44.56015923,0.4294496
MAN,3,0,2024-06-19T03:25:58.028Z,english_129.wav,0,pill,3114,23,3,Japanese,m,1,0.1,-58.7339049,1.17691203
MAN,3,0,2024-06-19T03:25:58.028Z,english_129.wav,0,pill,3114,23,3,Japanese,m,2,0.2,4.64427176,0.00792795
MAN,3,0,2024-06-19T03:25:58.028Z,english_129.wav,0,pill,3114,23,3,Japanese,m,3,0.3,36.13533526,1.62066926
MAN,3,0,2024-06-19T03:25:58.028Z,english_129.wav,0,pill,3114,23,3,Japanese,m,4,0.4,49.60525777,0.46131477
MAN,3,0,2024-06-19T03:25:58.028Z,english_129.wav,0,pill,3114,23,3,Japanese,m,5,0.5,66.06381969,0.9562515
MAN,3,0,2024-06-19T03:25:58.028Z,english_129.wav,0,pill,3114,23,3,Japanese,m,6,0.6,-22.87129592,0.58790942
MAN,3,0,2024-06-19T03:25:58.028Z,english_129.wav,0,pill,3114,23,3,Japanese,m,7,0.7,88.56170171,0.99020247
MAN,3,0,2024-06-19T03:25:58.028Z,english_129.wav,0,pill,3114,23,3,Japanese,m,8,0.8,17.84118116,0.9945804
MAN,3,0,2024-06-19T03:25:58.028Z,english_129.wav,0,pill,3114,23,3,Japanese,m,9,0.9,-28.77319114,1.36695424
MAN,3,0,2024-06-19T03:25:58.028Z,english_129.wav,0,pill,3114,23,3,Japanese,m,10,1.0,86.03376827,0.72564016
MAN,3,0,2024-06-19T03:25:58.028Z,english_129.wav,0,pill,3114,23,3,Japanese,m,11,1.09391667,39.56098905,1.15202696
MAN,4,0,2024-06-19T03:25:58.028Z,english_221.wav,0,pill,2069,23,3,Japanese,m,0,0.0,51.59419639,1.60301685
MAN,4,0,2024-06-19T03:25:58.028Z,english_221.wav,0,pill,2069,23,3,Japanese,m,1,0.1,28.26132642,0.83573739
MAN,4,0,2024-06-19T03:25:58.028Z,english_221.wav,0,pill,2069,23,3,Japanese,m,2,0.2,-34.94147144,0.93704217
MAN,4,0,2024-06-19T03:25:58.028Z,english_221.wav,0,pill,2069,23,3,Japanese,m,3,0.3,-31.96211967,0.88555826
MAN,4,0,2024-06-19T03:25:58.028Z,english_221.wav,0,pill,2069,23,3,Japanese,m,4,0.4,27.55850985,0.5651105
MAN,4,0,2024-06-19T03:25:58.028Z,english_221.wav,0,pill,2069,23,3,Japanese,m,5,0.5,97.12748538,1.50042712
MAN,4,0,2024-06-19T03:25:58.028Z,english_221.wav,0,pill,2069,23,3,Japanese,m,6,0.6,-87.99836205,1.37940743
MAN,4,0,2024-06-19T03:25:58.028Z,english_221.wav,0,pill,2069,23,3,Japanese,m,7,0.7,-54.93495001,1.56054558
MAN,4,0,2024-06-19T03:25:58.028Z,english_221.wav,0,pill,2069,23,3,Japanese,m,8,0.8,-48.43567063,0.7980345
MAN,4,0,2024-06-19T03:25:58.028Z,english_221.wav,0,pill,2069,23,3,Japanese,m,9,0.9,-35.77267917,1.82401387
MAN,4,0,2024-06-19T03:25:58.028Z,english_221.wav,0,pill,2069,23,3,Japanese,m,10,1.0,16.39753123,0.17969474
MAN,4,0,2024-06-19T03:25:58.028Z,english_221.wav,0,pill,2069,23,3,Japanese,m,11,1.09391667,10.18788165,1.97856764
MAN,5,0,2024-06-19T03:25:58.028Z,english_240.wav,0,pill,2118,23,3,Japanese,m,0,0.0,94.92487397,1.16173124
MAN,5,0,2024-06-19T03:25:58.028Z,english_240.wav,0,pill,2118,23,3,Japanese,m,1,0.1,46.60086456,0.28146868
MAN,5,0,2024-06-19T03:25:58.028Z,english_240.wav,0,pill,2118,23,3,Japanese,m,2,0.2,-85.09682287,1.34805144
MAN,5,0,2024-06-19T03:25:58.028Z,english_240.wav,0,pill,2118,23,3,Japanese,m,3,0.3,61.23591388,0.20054267
MAN,5,0,2024-06-19T03:25:58.028Z,english_240.wav,0,pill,2118,23,3,Japanese,m,4,0.4,-87.76590316,1.28124808
MAN,5,0,2024-06-19T03:25:58.028Z,english_240.wav,0,pill,2118,23,3,Japanese,m,5,0.5,-26.78505593,0.75335144
MAN,5,0,2024-06-19T03:25:58.028Z,english_240.wav,0,pill,2118,23,3,Japanese,m,6,0.6,79.97771783,0.06187073
MAN,5,0,2024-06-19T03:25:58.028Z,english_240.wav,0,pill,2118,23,3,Japanese,m,7,0.7,-52.5823066,0.9449402
MAN,5,0,2024-06-19T03:25:58.028Z,english_240.wav,0,pill,2118,23,3,Japanese,m,8,0.8,-50.02012697,0.10878198
MAN,5,0,2024-06-19T03:25:58.028Z,english_240.wav,0,pill,2118,23,3,Japanese,m,9,0.9,92.54545653,1.66426768
MAN,5,0,2024-06-19T03:25:58.028Z,english_240.wav,0,pill,2118,23,3,Japanese,m,10,1.0,-31.99180963,1.44792205
MAN,5,0,2024-06-19T03:25:58.028Z,english_240.wav,0,pill,2118,23,3,Japanese,m,11,1.09391667,16.04001658,0.58420497
MAN,6,0,2024-06-19T03:25:58.028Z,english_656.wav,0,peel,799,23,3,Japanese,m,0,0.0,-81.79066312,1.40445152
MAN,6,0,2024-06-19T03:25:58.028Z,english_656.wav,0,peel,799,23,3,Japanese,m,1,0.1,82.04093637,1.3245448
MAN,6,0,2024-06-19T03:25:58.028Z,english_656.wav,0,peel,799,23,3,Japanese,m,2,0.2,-52.28001609,1.15771434
MAN,6,0,2024-06-19T03:25:58.028Z,english_656.wav,0,peel,799,23,3,Japanese,m,3,0.3,67.28232458,1.36671169
MAN,6,0,2024-06-19T03:25:58.028Z,english_656.wav,0,peel,799,23,3,Japanese,m,4,0.4,-93.82911819,1.65032622
MAN,6,0,2024-06-19T03:25:58.028Z,english_656.wav,0,peel,799,23,3,Japanese,m,5,0.5,-25.69923398,0.37873681
MAN,6,0,2024-06-19T03:25:58.028Z,english_656.wav,0,peel,799,23,3,Japanese,m,6,0.6,-22.63880376,0.51917639
MAN,6,0,2024-06-19T03:25:58.028Z,english_656.wav,0,peel,799,23,3,Japanese,m,7,0.7,28.9128231,1.1632187
MAN,6,0,2024-06-19T03:25:58.028Z,english_656.wav,0,peel,799,23,3,Japanese,m,8,0.8,-87.87621278,0.95022034
MAN,6,0,2024-06-19T03:25:58.028Z,english_656.wav,0,peel,799,23,3,Japanese,m,9,0.9,-32.99395829,1.57205129
MAN,6,0,2024-06-19T03:25:58.028Z,english_656.wav,0,peel,799,23,3,Japanese,m,10,1.0,67.88283241,0.61260001
MAN,6,0,2024-06-19T03:25:58.028Z,english_656.wav,0,peel,799,23,3,Japanese,m,11,1.09391667,-65.62849391,1.24421279
MAN,7,0,2024-06-19T03:25:58.028Z,english_131.wav,0,pill,402,23,3,Japanese,m,0,0.0,0.31363537,1.18724551
MAN,7,0,2024-06-19T03:25:58.028Z,english_131.wav,0,pill,402,23,3,Japanese,m,1,0.1,36.71486201,1.11707061
MAN,7,0,2024-06-19T03:25:58.028Z,english_131.wav,0,pill,402,23,3,Japanese,m,2,0.2,-43.77123754,0.00275246
MAN,7,0,2024-06-19T03:25:58.028Z,english_131.wav,0,pill,402,23,3,Japanese,m,3,0.3,-25.02514695,1.15512468
MAN,7,0,2024-06-19T03:25:58.028Z,english_131.wav,0,pill,402,23,3,Japanese,m,4,0.4,-57.33579205,1.12677457
MAN,7,0,2024-06-19T03:25:58.028Z,english_131.wav,0,pill,402,23,3,Japanese,m,5,0.5,-86.86546268,1.05779514
MAN,7,0,2024-06-19T03:25:58.028Z,english_131.wav,0,pill,402,23,3,Japanese,m,6,0.6,34.68309006,1.76361287
MAN,7,0,2024-06-19T03:25:58.028Z,english_131.wav,0,pill,402,23,3,Japanese,m,7,0.7,-54.571254,1.49422438
MAN,7,0,2024-06-19T03:25:58.028Z,english_131.wav,0,pill,402,23,3,Japanese,m,8,0.8,15.2602828,0.77084465
MAN,7,0,2024-06-19T03:25:58.028Z,english_131.wav,0,pill,402,23,3,Japanese,m,9,0.9,37.40968803,0.77617306
MAN,7,0,2024-06-19T03:25:58.028Z,english_131.wav,0,pill,402,23,3,Japanese,m,10,1.0,-75.44923375,0.87602882
MAN,7,0,2024-06-19T03:25:58.028Z,english_131.wav,0,pill,402,23,3,Japanese,m,11,1.09391667,22.36121129,1.56580011
MAN,8,0,2024-06-19T03:25:58.028Z,english_795.wav,0,pill,1993,23,3,Japanese,m,0,0.0,87.97989278,1.59591128
MAN,8,0,2024-06-19T03:25:58.028Z,english_795.wav,0,pill,1993,23,3,Japanese,m,1,0.1,-23.39853739,1.94488646
MAN,8,0,2024-06-19T03:25:58.028Z,english_795.wav,0,pill,1993,23,3,Japanese,m,2,0.2,85.15897758,0.62481037
MAN,8,0,2024-06-19T03:25:58.028Z,english_795.wav,0,pill,1993,23,3,Japanese,m,3,0.3,30.45214085,0.56488466
MAN,8,0,2024-06-19T03:25:58.028Z,english_795.wav,0,pill,1993,23,3,Japanese,m,4,0.4,25.21841082,0.81270144
MAN,8,0,2024-06-19T03:25:58.028Z,english_795.wav,0,pill,1993,23,3,Japanese,m,5,0.5,36.10678603,1.54003491
MAN,8,0,2024-06-19T03:25:58.028Z,english_795.wav,0,pill,1993,23,3,Japanese,m,6,0.6,61.48762219,1.21959161
MAN,8,0,2024-06-19T03:25:58.028Z,english_795.wav,0,pill,1993,23,3,Japanese,m,7,0.7,14.5754085,0.84714061
MAN,8,0,2024-06-19T03:25:58.028Z,english_795.wav,0,pill,1993,23,3,Japanese,m,8,0.8,-57.54329739,1.28928587
MAN,8,0,2024-06-19T03:25:58.028Z,english_795.wav,0,pill,1993,23,3,Japanese,m,9,0.9,-73.09117399,1.61523869
MAN,8,0,2024-06-19T03:25:58.028Z,english_795.wav,0,pill,1993,23,3,Japanese,m,10,1.0,77.49994784,1.68827262
MAN,8,0,2024-06-19T03:25:58.028Z,english_795.wav,0,pill,1993,23,3,Japanese,m,11,1.09391667,89.63116882,1.85702814
MAN,9,0,2024-06-19T03:25:58.028Z,english_998.wav,0,peel,4345,23,3,Japanese,m,0,0.0,-83.67346728,1.27391906
MAN,9,0,2024-06-19T03:25:58.028Z,english_998.wav,0,peel,4345,23,3,Japanese,m,1,0.1,-68.43297462,0.75913393
MAN,9,0,2024-06-19T03:25:58.028Z,english_998.wav,0,peel,4345,23,3,Japanese,m,2,0.2,47.84560439,1.02363825
MAN,9,0,2024-06-19T03:25:58.028Z,english_998.wav,0,peel,4345,23,3,Japanese,m,3,0.3,71.43971258,1.78775676
MAN,9,0,2024-06-19T03:25:58.028Z,english_998.wav,0,peel,4345,23,3,Japanese,m,4,0.4,-30.40941836,0.0961221
MAN,9,0,2024-06-19T03:25:58.028Z,english_998.wav,0,peel,4345,23,3,Japanese,m,5,0.5,69.31214212,1.18933693
MAN,9,0,2024-06-19T03:25:58.028Z,english_998.wav,0,peel,4345,23,3,Japanese,m,6,0.6,-95.04564508,1.9379163
MAN,9,0,2024-06-19T03:25:58.028Z,english_998.wav,0,peel,4345,23,3,Japanese,m,7,0.7,-61.88405175,1.91389769
MAN,9,0,2024-06-19T03:25:58.028Z,english_998.wav,0,peel,4345,23,3,Japanese,m,8,0.8,11.43915949,1.08895614
MAN,9,0,2024-06-19T03:25:58.028Z,english_998.wav,0,peel,4345,23,3,Japanese,m,9,0.9,79.6365109,1.52042952
MAN,9,0,2024-06-19T03:25:58.028Z,english_998.wav,0,peel,4345,23,3,Japanese,m,10,1.0,58.29305302,0.38016323
MAN,9,0,2024-06-19T03:25:58.028Z,english_998.wav,0,peel,4345,23,3,Japanese,m,11,1.09391667,44.0288717,1.77799574
MAN,10,0,2024-06-19T03:25:58.028Z,english_148.wav,0,pill,1082,23,3,Japanese,m,0,0.0,85.27624152,0.1092145
MAN,10,0,2024-06-19T03:25:58.028Z,english_148.wav,0,pill,1082,23,3,Japanese,m,1,0.1,58.23579672,0.64980633
MAN,10,0,2024-06-19T03:25:58.028Z,english_148.wav,0,pill,1082,23,3,Japanese,m,2,0.2,-91.05033604,1.83346208
MAN,10,0,2024-06-19T03:25:58.028Z,english_148.wav,0,pill,1082,23,3,Japanese,m,3,0.3,20.11396141,1.16314863
MAN,10,0,2024-06-19T03:25:58.028Z,english_148.wav,0,pill,1082,23,3,Japanese,m,4,0.4,75.44798514,0.3185648
MAN,10,0,2024-06-19T03:25:58.028Z,english_148.wav,0,pill,1082,23,3,Japanese,m,5,0.5,-38.94488744,0.6593156
MAN,10,0,2024-06-19T03:25:58.028Z,english_148.wav,0,pill,1082,23,3,Japanese,m,6,0.6,-29.81274231,1.16710518
MAN,10,0,2024-06-19T03:25:58.028Z,english_148.wav,0,pill,1082,23,3,Japanese,m,7,0.7,75.45743384,1.07936895
MAN,10,0,2024-06-19T03:25:58.028Z,english_148.wav,0,pill,1082,23,3,Japanese,m,8,0.8,-13.70216327,0.75554181
MAN,10,0,2024-06-19T03:25:58.028Z,english_148.wav,0,pill,1082,23,3,Japanese,m,9,0.9,-90.12623186,1.33604039
MAN,10,0,2024-06-19T03:25:58.028Z,english_148.wav,0,pill,1082,23,3,Japanese,m,10,1.0,-27.22744176,1.61217721
MAN,10,0,2024-06-19T03:25:58.028Z,english_148.wav,0,pill,1082,23,3,Japanese,m,11,1.09391667,7.28951287,1.20550087
MAN,11,0,2024-06-19T03:25:58.028Z,english_967.wav,0,pill,363,23,3,Japanese,m,0,0.0,-95.01579597,1.84793029
MAN,11,0,2024-06-19T03:25:58.028Z,english_967.wav,0,pill,363,23,3,Japanese,m,1,0.1,-83.85694312,0.58680999
MAN,11,0,2024-06-19T03:25:58.028Z,english_967.wav,0,pill,363,23,3,Japanese,m,2,0.2,-85.29120752,1.7718572
MAN,11,0,2024-06-19T03:25:58.028Z,english_967.wav,0,pill,363,23,3,Japanese,m,3,0.3,39.64714204,1.16952376
MAN,11,0,2024-06-19T03:25:58.028Z,english_967.wav,0,pill,363,23,3,Japanese,m,4,0.4,57.5109199,0.26483397
MAN,11,0,2024-06-19T03:25:58.028Z,english_967.wav,0,pill,363,23,3,Japanese,m,5,0.5,17.84726357,0.70174807
MAN,11,0,2024-06-19T03:25:58.028Z,english_967.wav,0,pill,363,23,3,Japanese,m,6,0.6,72.49898727,1.00653378
MAN,11,0,2024-06-19T03:25:58.028Z,english_967.wav,0,pill,363,23,3,Japanese,m,7,0.7,-49.28489837,0.37312662
MAN,11,0,2024-06-19T03:25:58.028Z,english_967.wav,0,pill,363,23,3,Japanese,m,8,0.8,27.76319329,0.21661179
MAN,11,0,2024-06-19T03:25:58.028Z,english_967.wav,0,pill,363,23,3,Japanese,m,9,0.9,40.88732144,1.37557681
MAN,11,0,2024-06-19T03:25:58.028Z,english_967.wav,0,pill,363,23,3,Japanese,m,10,1.0,25.08094833,0.83851773
MAN,11,0,2024-06-19T03:25:58.028Z,english_967.wav,0,pill,363,23,3,Japanese,m,11,1.09391667,-11.2848797,1.10196179
MAN,12,0,2024-06-19T03:25:58.028Z,english_168.wav,0,pill,460,23,3,Japanese,m,0,0.0,-2.82851798,0.84695831
MAN,12,0,2024-06-19T03:25:58.028Z,english_168.wav,0,pill,460,23,3,Japanese,m,1,0.1,47.00857465,0.31778045
MAN,12,0,2024-06-19T03:25:58.028Z,english_168.wav,0,pill,460,23,3,Japanese,m,2,0.2,-17.58347791,1.27812293
MAN,12,0,2024-06-19T03:25:58.028Z,english_168.wav,0,pill,460,23,3,Japanese,m,3,0.3,-13.31715429,0.74038461
MAN,12,0,2024-06-19T03:25:58.028Z,english_168.wav,0,pill,460,23,3,Japanese,m,4,0.4,32.59893477,0.53430653
MAN,12,0,2024-06-19T03:25:58.028Z,english_168.wav,0,pill,460,23,3,Japanese,m,5,0.5,97.16584938,0.39836338
MAN,12,0,2024-06-19T03:25:58.028Z,english_168.wav,0,pill,460,23,3,Japanese,m,6,0.6,-13.44636048,1.18595545
MAN,12,0,2024-06-19T03:25:58.028Z,english_168.wav,0,pill,460,23,3,Japanese,m,7,0.7,9.9504683,1.40244409
MAN,12,0,2024-06-19T03:25:58.028Z,english_168.wav,0,pill,460,23,3,Japanese,m,8,0.8,45.41604728,0.07499365
MAN,12,0,2024-06-19T03:25:58.028Z,english_168.wav,0,pill,460,23,3,Japanese,m,9,0.9,-79.49961867,0.73784136
MAN,12,0,2024-06-19T03:25:58.028Z,english_168.wav,0,pill,460,23,3,Japanese,m,10,1.0,35.96813383,1.37065847
MAN,12,0,2024-06-19T03:25:58.028Z,english_168.wav,0,pill,460,23,3,Japanese,m,11,1.09391667,-86.51274139,0.67911571
MAN,13,0,2024-06-19T03:25:58.028Z,english_548.wav,0,peel,366,23,3,Japanese,m,0,0.0,-24.88128465,1.63350405
MAN,13,0,2024-06-19T03:25:58.028Z,english_548.wav,0,peel,366,23,3,Japanese,m,1,0.1,1.54687273,0.1653087
MAN,13,0,2024-06-19T03:25:58.028Z,english_548.wav,0,peel,366,23,3,Japanese,m,2,0.2,58.02940435,0.01517729
MAN,13,0,2024-06-19T03:25:58.028Z,english_548.wav,0,peel,366,23,3,Japanese,m,3,0.3,-2.90148727,1.81666457
MAN,13,0,2024-06-19T03:25:58.028Z,english_548.wav,0,peel,366,23,3,Japanese,m,4,0.4,9.31686881,0.9208407
MAN,13,0,2024-06-19T03:25:58.028Z,english_548.wav,0,peel,366,23,3,Japanese,m,5,0.5,-62.70026351,1.35074745
MAN,13,0,2024-06-19T03:25:58.028Z,english_548.wav,0,peel,366,23,3,Japanese,m,6,0.6,-56.6580034,0.86467249
MAN,13,0,2024-06-19T03:25:58.028Z,english_548.wav,0,peel,366,23,3,Japanese,m,7,0.7,14.62965286,1.73416909
MAN,13,0,2024-06-19T03:25:58.028Z,english_548.wav,0,peel,366,23,3,Japanese,m,8,0.8,-14.87483285,1.42113571
MAN,13,0,2024-06-19T03:25:58.028Z,english_548.wav,0,peel,366,23,3,Japanese,m,9,0.9,69.23683794,0.95555023
MAN,13,0,2024-06-19T03:25:58.028Z,english_548.wav,0,peel,366,23,3,Japanese,m,10,1.0,-42.98683333,1.22888343
MAN,13,0,2024-06-19T03:25:58.028Z,english_548.wav,0,peel,366,23,3,Japanese,m,11,1.09391667,67.19958302,1.18114311
MAN,14,0,2024-06-19T03:25:58.028Z,english_60.wav,0,peel,379,23,3,Japanese,m,0,0.0,10.59186776,1.18276714
MAN,14,0,2024-06-19T03:25:58.028Z,english_60.wav,0,peel,379,23,3,Japanese,m,1,0.1,40.50364305,1.35618457
MAN,14,0,2024-06-19T03:25:58.028Z,english_60.wav,0,peel,379,23,3,Japanese,m,2,0.2,-14.0687602,0.82779989
MAN,14,0,2024-06-19T03:25:58.028Z,english_60.wav,0,peel,379,23,3,Japanese,m,3,0.3,-65.99656217,0.57077879
MAN,14,0,2024-06-19T03:25:58.028Z,english_60.wav,0,peel,379,23,3,Japanese,m,4,0.4,15.70320652,0.07108592
MAN,14,0,2024-06-19T03:25:58.028Z,english_60.wav,0,peel,379,23,3,Japanese,m,5,0.5,-30.42091681,0.69784791
MAN,14,0,2024-06-19T03:25:58.028Z,english_60.wav,0,peel,379,23,3,Japanese,m,6,0.6,-42.76109802,1.83211062
MAN,14,0,2024-06-19T03:25:58.028Z,english_60.wav,0,peel,379,23,3,Japanese,m,7,0.7,79.72211157,1.14011333
MAN,14,0,2024-06-19T03:25:58.028Z,english_60.wav,0,peel,379,23,3,Japanese,m,8,0.8,-76.06160398,1.5550445
MAN,14,0,2024-06-19T03:25:58.028Z,english_60.wav,0,peel,379,23,3,Japanese,m,9,0.9,-29.21518782,0.72383993
MAN,14,0,2024-06-19T03:25:58.028Z,english_60.wav,0,peel,379,23,3,Japanese,m,10,1.0,-57.95886313,1.31578319
MAN,14,0,2024-06-19T03:25:58.028Z,english_60.wav,0,peel,379,23,3,Japanese,m,11,1.09391667,-5.07129897,0.46327009
MAN,15,0,2024-06-19T03:25:58.028Z,english_708.wav,0,pill,330,23,3,Japanese,m,0,0.0,51.90512372,0.68267885
MAN,15,0,2024-06-19T03:25:58.028Z,english_708.wav,0,pill,330,23,3,Japanese,m,1,0.1,26.85875961,1.28009677
MAN,15,0,2024-06-19T03:25:58.028Z,english_708.wav,0,pill,330,23,3,Japanese,m,2,0.2,69.50769052,0.67214969
MAN,15,0,2024-06-19T03:25:58.028Z,english_708.wav,0,pill,330,23,3,Japanese,m,3,0.3,2.73798265,1.87173266
MAN,15,0,2024-06-19T03:25:58.028Z,english_708.wav,0,pill,330,23,3,Japanese,m,4,0.4,19.91752894,1.28139012
MAN,15,0,2024-06-19T03:25:58.028Z,english_708.wav,0,pill,330,23,3,Japanese,m,5,0.5,84.74462974,1.50975007
MAN,15,0,2024-06-19T03:25:58.028Z,english_708.wav,0,pill,330,23,3,Japanese,m,6,0.6,48.1433783,0.29459019
MAN,15,0,2024-06-19T03:25:58.028Z,english_708.wav,0,pill,330,23,3,Japanese,m,7,0.7,62.38973842,0.69646694
MAN,15,0,2024-06-19T03:25:58.028Z,english_708.wav,0,pill,330,23,3,Japanese,m,8,0.8,-28.25964696,0.8036912
MAN,15,0,2024-06-19T03:25:58.028Z,english_708.wav,0,pill,330,23,3,Japanese,m,9,0.9,1.39285788,0.28906304
MAN,15,0,2024-06-19T03:25:58.028Z,english_708.wav,0,pill,330,23,3,Japanese,m,10,1.0,-27.01293378,1.49505706
MAN,15,0,2024-06-19T03:25:58.028Z,english_708.wav,0,pill,330,23,3,Japanese,m,11,1.09391667,-26.97031791,1.88331259
MAN,16,0,2024-06-19T03:25:58.028Z,english_727.wav,0,peel,704,23,3,Japanese,m,0,0.0,-18.41371041,1.35764892
MAN,16,0,2024-06-19T03:25:58.028Z,english_727.wav,0,peel,704,23,3,Japanese,m,1,0.1,-63.10285802,1.30171306
MAN,16,0,2024-06-19T03:25:58.028Z,english_727.wav,0,peel,704,23,3,Japanese,m,2,0.2,-11.47868373,1.89832966
MAN,16,0,2024-06-19T03:25:58.028Z,english_727.wav,0,peel,704,23,3,Japanese,m,3,0.3,40.37675275,1.96157356
MAN,16,0,2024-06-19T03:25:58.028Z,english_727.wav,0,peel,704,23,3,Japanese,m,4,0.4,-77.12859483,0.9069281
MAN,16,0,2024-06-19T03:25:58.028Z,english_727.wav,0,peel,704,23,3,Japanese,m,5,0.5,92.73705719,1.12095366
MAN,16,0,2024-06-19T03:25:58.028Z,english_727.wav,0,peel,704,23,3,Japanese,m,6,0.6,-55.99534641,1.00983545
MAN,16,0,2024-06-19T03:25:58.028Z,english_727.wav,0,peel,704,23,3,Japanese,m,7,0.7,-55.52546335,0.3683737
MAN,16,0,2024-06-19T03:25:58.028Z,english_727.wav,0,peel,704,23,3,Japanese,m,8,0.8,6.97078157,1.10707799
MAN,16,0,2024-06-19T03:25:58.028Z,english_727.wav,0,peel,704,23,3,Japanese,m,9,0.9,-23.82740681,1.05563912
MAN,16,0,2024-06-19T03:25:58.028Z,english_727.wav,0,peel,704,23,3,Japanese,m,10,1.0,16.85010217,1.15538622
MAN,16,0,2024-06-19T03:25:58.028Z,english_727.wav,0,peel,704,23,3,Japanese,m,11,1.09391667,12.17774436,0.52815825
MAN,17,0,2024-06-19T03:25:58.028Z,english_364.wav,0,pill,1522,23,3,Japanese,m,0,0.0,83.865778,0.64688834
MAN,17,0,2024-06-19T03:25:58.028Z,english_364.wav,0,pill,1522,23,3,Japanese,m,1,0.1,63.76779424,1.36525912
MAN,17,0,2024-06-19T03:25:58.028Z,english_364.wav,0,pill,1522,23,3,Japanese,m,2,0.2,76.73494008,0.98445588
MAN,17,0,2024-06-19T03:25:58.028Z,english_364.wav,0,pill,1522,23,3,Japanese,m,3,0.3,63.04278033,1.58126378
MAN,17,0,2024-06-19T03:25:58.028Z,english_364.wav,0,pill,1522,23,3,Japanese,m,4,0.4,-55.03833232,1.2558055
MAN,17,0,2024-06-19T03:25:58.028Z,english_364.wav,0,pill,1522,23,3,Japanese,m,5,0.5,57.11242427,1.01407945
MAN,17,0,2024-06-19T03:25:58.028Z,english_364.wav,0,pill,1522,23,3,Japanese,m,6,0.6,15.41108418,1.72440997
MAN,17,0,2024-06-19T03:25:58.028Z,english_364.wav,0,pill,1522,23,3,Japanese,m,7,0.7,3.11298983,1.75247835
MAN,17,0,2024-06-19T03:25:58.028Z,english_364.wav,0,pill,1522,23,3,Japanese,m,8,0.8,15.49246741,0.306912
MAN,17,0,2024-06-19T03:25:58.028Z,english_364.wav,0,pill,1522,23,3,Japanese,m,9,0.9,-76.70109977,1.65351594
MAN,17,0,2024-06-19T03:25:58.028Z,english_364.wav,0,pill,1522,23,3,Japanese,m,10,1.0,21.21406375,0.67540521
MAN,17,0,2024-06-19T03:25:58.028Z,english_364.wav,0,pill,1522,23,3,Japanese,m,11,1.09391667,20.91306008,0.2382038
MAN,18,0,2024-06-19T03:25:58.028Z,english_730.wav,0,pill,387,23,3,Japanese,m,0,0.0,98.7829688,0.6873965
MAN,18,0,2024-06-19T03:25:58.028Z,english_730.wav,0,pill,387,23,3,Japanese,m,1,0.1,-67.9329994,0.65236597
MAN,18,0,2024-06-19T03:25:58.028Z,english_730.wav,0,pill,387,23,3,Japanese,m,2,0.2,-35.4157721,1.04626144
MAN,18,0,2024-06-19T03:25:58.028Z,english_730.wav,0,pill,387,23,3,Japanese,m,3,0.3,8.75583116,1.65669948
MAN,18,0,2024-06-19T03:25:58.028Z,english_730.wav,0,pill,387,23,3,Japanese,m,4,0.4,-60.72300086,1.8622585
MAN,18,0,2024-06-19T03:25:58.028Z,english_730.wav,0,pill,387,23,3,Japanese,m,5,0.5,-43.53238385,1.86205359
MAN,18,0,2024-06-19T03:25:58.028Z,english_730.wav,0,pill,387,23,3,Japanese,m,6,0.6,7.41942565,1.2731877
MAN,18,0,2024-06-19T03:25:58.028Z,english_730.wav,0,pill,387,23,3,Japanese,m,7,0.7,-30.23988593,0.2835626
MAN,18,0,2024-06-19T03:25:58.028Z,english_730.wav,0,pill,387,23,3,Japanese,m,8,0.8,98.85106115,0.42372638
MAN,18,0,2024-06-19T03:25:58.028Z,english_730.wav,0,pill,387,23,3,Japanese,m,9,0.9,11.8745124,1.35675351
MAN,18,0,2024-06-19T03:25:58.028Z,english_730.wav,0,pill,387,23,3,Japanese,m,10,1.0,-15.67114445,1.03423815
MAN,18,0,2024-06-19T03:25:58.028Z,english_730.wav,0,pill,387,23,3,Japanese,m,11,1.09391667,-67.06238252,0.63701046
MAN,19,0,2024-06-19T03:25:58.028Z,english_375.wav,0,peel,298,23,3,Japanese,m,0,0.0,-66.54027977,1.30902013
MAN,19,0,2024-06-19T03:25:58.028Z,english_375.wav,0,peel,298,23,3,Japanese,m,1,0.1,72.08787066,1.77420651
MAN,19,0,2024-06-19T03:25:58.028Z,english_375.wav,0,peel,298,23,3,Japanese,m,2,0.2,-56.77584869,1.24550761
MAN,19,0,2024-06-19T03:25:58.028Z,english_375.wav,0,peel,298,23,3,Japanese,m,3,0.3,-36.97947012,0.68148521
MAN,19,0,2024-06-19T03:25:58.028Z,english_375.wav,0,peel,298,23,3,Japanese,m,4,0.4,43.73402827,1.5097978
MAN,19,0,2024-06-19T03:25:58.028Z,english_375.wav,0,peel,298,23,3,Japanese,m,5,0.5,19.53034116,0.87895003
MAN,19,0,2024-06-19T03:25:58.028Z,english_375.wav,0,peel,298,23,3,Japanese,m,6,0.6,-35.65016919,0.57287352
MAN,19,0,2024-06-19T03:25:58.028Z,english_375.wav,0,peel,298,23,3,Japanese,m,7,0.7,12.37356045,0.19847139
MAN,19,0,2024-06-19T03:25:58.028Z,english_375.wav,0,peel,298,23,3,Japanese,m,8,0.8,-24.97795402,1.57884859
MAN,19,0,2024-06-19T03:25:58.028Z,english_375.wav,0,peel,298,23,3,Japanese,m,9,0.9,57.77915604,1.32641243
MAN,19,0,2024-06-19T03:25:58.028Z,english_375.wav,0,peel,298,23,3,Japanese,m,10,1.0,-30.716589,0.36090675
MAN,19,0,2024-06-19T03:25:58.028Z,english_375.wav,0,peel,298,23,3,Japanese,m,11,1.09391667,78.48935482,1.90030926
MAN,20,0,2024-06-19T03:25:58.028Z,english_978.wav,0,pill,359,23,3,Japanese,m,0,0.0,-56.85728998,1.17346596
MAN,20,0,2024-06-19T03:25:58.028Z,english_978.wav,0,pill,359,23,3,Japanese,m,1,0.1,16.43364259,0.59297783
MAN,20,0,2024-06-19T03:25:58.028Z,english_978.wav,0,pill,359,23,3,Japanese,m,2,0.2,47.77326739,0.67016687
MAN,20,0,2024-06-19T03:25:58.028Z,english_978.wav,0,pill,359,23,3,Japanese,m,3,0.3,94.05967356,1.98266891
MAN,20,0,2024-06-19T03:25:58.028Z,english_978.wav,0,pill,359,23,3,Japanese,m,4,0.4,-76.48908754,0.86932432
MAN,20,0,2024-06-19T03:25:58.028Z,english_978.wav,0,pill,359,23,3,Japanese,m,5,0.5,-47.71848611,0.89103479
MAN,20,0,2024-06-19T03:25:58.028Z,english_978.wav,0,pill,359,23,3,Japanese,m,6,0.6,-17.07884838,1.65910536
MAN,20,0,2024-06-19T03:25:58.028Z,english_978.wav,0,pill,359,23,3,Japanese,m,7,0.7,50.2599466,1.27682187
MAN,20,0,2024-06-19T03:25:58.028Z,english_978.wav,0,pill,359,23,3,Japanese,m,8,0.8,83.04934383,0.051565
MAN,20,0,2024-06-19T03:25:58.028Z,english_978.wav,0,pill,359,23,3,Japanese,m,9,0.9,-14.53932226,0.45965995
MAN,20,0,2024-06-19T03:25:58.028Z,english_978.wav,0,pill,359,23,3,Japanese,m,10,1.0,-40.28373024,1.12972823
MAN,20,0,2024-06-19T03:25:58.028Z,english_978.wav,0,pill,359,23,3,Japanese,m,11,1.09391667,82.58821892,1.51179451
MAN,21,0,2024-06-19T03:25:58.028Z,english_980.wav,0,pill,526,23,3,Japanese,m,0,0.0,-89.21120638,0.86013949
MAN,21,0,2024-06-19T03:25:58.028Z,english_980.wav,0,pill,526,23,3,Japanese,m,1,0.1,-61.94586113,1.20415769
MAN,21,0,2024-06-19T03:25:58.028Z,english_980.wav,0,pill,526,23,3,Japanese,m,2,0.2,66.92224931,1.12519254
MAN,21,0,2024-06-19T03:25:58.028Z,english_980.wav,0,pill,526,23,3,Japanese,m,3,0.3,-8.83169244,1.93563119
MAN,21,0,2024-06-19T03:25:58.028Z,english_980.wav,0,pill,526,23,3,Japanese,m,4,0.4,-62.26224073,1.36290277
MAN,21,0,2024-06-19T03:25:58.028Z,english_980.wav,0,pill,526,23,3,Japanese,m,5,0.5,-40.69471865,0.31823405
MAN,21,0,2024-06-19T03:25:58.028Z,english_980.wav,0,pill,526,23,3,Japanese,m,6,0.6,-55.09323572,1.64522851
MAN,21,0,2024-06-19T03:25:58.028Z,english_980.wav,0,pill,526,23,3,Japanese,m,7,0.7,-85.76938639,0.41705872
MAN,21,0,2024-06-19T03:25:58.028Z,english_980.wav,0,pill,526,23,3,Japanese,m,8,0.8,-61.73931362,0.77550812
MAN,21,0,2024-06-19T03:25:58.028Z,english_980.wav,0,pill,526,23,3,Japanese,m,9,0.9,29.10621895,0.71060598
MAN,21,0,2024-06-19T03:25:58.028Z,english_980.wav,0,pill,526,23,3,Japanese,m,10,1.0,-54.92010394,0.25781542
MAN,21,0,2024-06-19T03:25:58.028Z,english_980.wav,0,pill,526,23,3,Japanese,m,11,1.09391667,-99.59524777,0.26651543
MAN,22,0,2024-06-19T03:25:58.028Z,english_684.wav,0,pill,664,23,3,Japanese,m,0,0.0,44.6488214,0.31150518
MAN,22,0,2024-06-19T03:25:58.028Z,english_684.wav,0,pill,664,23,3,Japanese,m,1,0.1,9.68442182,0.4998365
MAN,22,0,2024-06-19T03:25:58.028Z,english_684.wav,0,pill,664,23,3,Japanese,m,2,0.2,-45.058789,0.24275602
MAN,22,0,2024-06-19T03:25:58.028Z,english_684.wav,0,pill,664,23,3,Japanese,m,3,0.3,9.29989294,1.63678411
MAN,22,0,2024-06-19T03:25:58.028Z,english_684.wav,0,pill,664,23,3,Japanese,m,4,0.4,-93.3818257,1.55347247
MAN,22,0,2024-06-19T03:25:58.028Z,english_684.wav,0,pill,664,23,3,Japanese,m,5,0.5,-18.6654658,0.93326504
MAN,22,0,2024-06-19T03:25:58.028Z,english_684.wav,0,pill,664,23,3,Japanese,m,6,0.6,-36.1937511,1.36007358
MAN,22,0,2024-06-19T03:25:58.028Z,english_684.wav,0,pill,664,23,3,Japanese,m,7,0.7,-0.0227796988,0.52423503
MAN,22,0,2024-06-19T03:25:58.028Z,english_684.wav,0,pill,664,23,3,Japanese,m,8,0.8,-81.9835579,1.47566928
MAN,22,0,2024-06-19T03:25:58.028Z,english_684.wav,0,pill,664,23,3,Japanese,m,9,0.9,66.7026535,1.32008624
MAN,22,0,2024-06-19T03:25:58.028Z,english_684.wav,0,pill,664,23,3,Japanese,m,10,1.0,-28.1669756,1.00236166
MAN,22,0,2024-06-19T03:25:58.028Z,english_684.wav,0,pill,664,23,3,Japanese,m,11,1.09391667,-31.1571246,1.13724252
MAN,23,0,2024-06-19T03:25:58.028Z,english_362.wav,0,pill,703,23,3,Japanese,m,0,0.0,-2.50436392,0.54146841
MAN,23,0,2024-06-19T03:25:58.028Z,english_362.wav,0,pill,703,23,3,Japanese,m,1,0.1,0.0104378628,1.24688309
MAN,23,0,2024-06-19T03:25:58.028Z,english_362.wav,0,pill,703,23,3,Japanese,m,2,0.2,11.8772332,0.3557669
MAN,23,0,2024-06-19T03:25:58.028Z,english_362.wav,0,pill,703,23,3,Japanese,m,3,0.3,-6.76668863,0.8130148
MAN,23,0,2024-06-19T03:25:58.028Z,english_362.wav,0,pill,703,23,3,Japanese,m,4,0.4,48.0667468,0.53456903
MAN,23,0,2024-06-19T03:25:58.028Z,english_362.wav,0,pill,703,23,3,Japanese,m,5,0.5,47.82207,0.25808446
MAN,23,0,2024-06-19T03:25:58.028Z,english_362.wav,0,pill,703,23,3,Japanese,m,6,0.6,71.0515441,0.46779047
MAN,23,0,2024-06-19T03:25:58.028Z,english_362.wav,0,pill,703,23,3,Japanese,m,7,0.7,16.0380094,1.05295189
MAN,23,0,2024-06-19T03:25:58.028Z,english_362.wav,0,pill,703,23,3,Japanese,m,8,0.8,76.5389373,0.192545
MAN,23,0,2024-06-19T03:25:58.028Z,english_362.wav,0,pill,703,23,3,Japanese,m,9,0.9,33.7838449,0.76311718
MAN,23,0,2024-06-19T03:25:58.028Z,english_362.wav,0,pill,703,23,3,Japanese,m,10,1.0,-81.3464293,1.48955345
MAN,23,0,2024-06-19T03:25:58.028Z,english_362.wav,0,pill,703,23,3,Japanese,m,11,1.09391667,-3.89826037,1.4188577
MAN,24,0,2024-06-19T03:25:58.028Z,english_231.wav,0,peel,508,23,3,Japanese,m,0,0.0,-62.2179541,1.81174186
MAN,24,0,2024-06-19T03:25:58.028Z,english_231.wav,0,peel,508,23,3,Japanese,m,1,0.1,-68.5873809,1.83025058
MAN,24,0,2024-06-19T03:25:58.028Z,english_231.wav,0,peel,508,23,3,Japanese,m,2,0.2,-23.63984274,0.80354138
MAN,24,0,2024-06-19T03:25:58.028Z,english_231.wav,0,peel,508,23,3,Japanese,m,3,0.3,-33.31819394,1.41218614
MAN,24,0,2024-06-19T03:25:58.028Z,english_231.wav,0,peel,508,23,3,Japanese,m,4,0.4,73.10663902,0.69584773
MAN,24,0,2024-06-19T03:25:58.028Z,english_231.wav,0,peel,508,23,3,Japanese,m,5,0.5,-43.5142123,0.95321477
MAN,24,0,2024-06-19T03:25:58.028Z,english_231.wav,0,peel,508,23,3,Japanese,m,6,0.6,31.90774571,1.60478776
MAN,24,0,2024-06-19T03:25:58.028Z,english_231.wav,0,peel,508,23,3,Japanese,m,7,0.7,86.22472646,0.79586742
MAN,24,0,2024-06-19T03:25:58.028Z,english_231.wav,0,peel,508,23,3,Japanese,m,8,0.8,-71.54568586,1.11798483
MAN,24,0,2024-06-19T03:25:58.028Z,english_231.wav,0,peel,508,23,3,Japanese,m,9,0.9,72.93187179,1.7522781
MAN,24,0,2024-06-19T03:25:58.028Z,english_231.wav,0,peel,508,23,3,Japanese,m,10,1.0,29.12885345,0.47731109
MAN,24,0,2024-06-19T03:25:58.028Z,english_231.wav,0,peel,508,23,3,Japanese,m,11,1.09391667,-28.38876841,0.90269173
MAN,25,0,2024-06-19T03:25:58.028Z,english_598.wav,0,pill,394,23,3,Japanese,m,0,0.0,66.59254232,1.11503085
MAN,25,0,2024-06-19T03:25:58.028Z,english_598.wav,0,pill,394,23,3,Japanese,m,1,0.1,-0.16294116,1.29891619
MAN,25,0,2024-06-19T03:25:58.028Z,english_598.wav,0,pill,394,23,3,Japanese,m,2,0.2,87.91623233,0.04302605
MAN,25,0,2024-06-19T03:25:58.028Z,english_598.wav,0,pill,394,23,3,Japanese,m,3,0.3,4.78179149,1.90355783
MAN,25,0,2024-06-19T03:25:58.028Z,english_598.wav,0,pill,394,23,3,Japanese,m,4,0.4,87.27330533,0.66957129
MAN,25,0,2024-06-19T03:25:58.028Z,english_598.wav,0,pill,394,23,3,Japanese,m,5,0.5,15.94205468,1.28062406
MAN,25,0,2024-06-19T03:25:58.028Z,english_598.wav,0,pill,394,23,3,Japanese,m,6,0.6,-57.72302194,0.15067731
MAN,25,0,2024-06-19T03:25:58.028Z,english_598.wav,0,pill,394,23,3,Japanese,m,7,0.7,-11.53545195,0.37044447
MAN,25,0,2024-06-19T03:25:58.028Z,english_598.wav,0,pill,394,23,3,Japanese,m,8,0.8,-97.23766847,0.00668091
MAN,25,0,2024-06-19T03:25:58.028Z,english_598.wav,0,pill,394,23,3,Japanese,m,9,0.9,-89.11050407,1.24076678
MAN,25,0,2024-06-19T03:25:58.028Z,english_598.wav,0,pill,394,23,3,Japanese,m,10,1.0,-7.65193873,0.4751477
MAN,25,0,2024-06-19T03:25:58.028Z,english_598.wav,0,pill,394,23,3,Japanese,m,11,1.09391667,-0.117565,1.3589293
MAN,26,0,2024-06-19T03:25:58.028Z,english_838.wav,0,pill,358,23,3,Japanese,m,0,0.0,66.81838689,0.11169914
MAN,26,0,2024-06-19T03:25:58.028Z,english_838.wav,0,pill,358,23,3,Japanese,m,1,0.1,94.65046979,0.93671825
MAN,26,0,2024-06-19T03:25:58.028Z,english_838.wav,0,pill,358,23,3,Japanese,m,2,0.2,91.71604822,0.60356353
MAN,26,0,2024-06-19T03:25:58.028Z,english_838.wav,0,pill,358,23,3,Japanese,m,3,0.3,78.43794704,1.60109406
MAN,26,0,2024-06-19T03:25:58.028Z,english_838.wav,0,pill,358,23,3,Japanese,m,4,0.4,-73.47833102,0.84291267
MAN,26,0,2024-06-19T03:25:58.028Z,english_838.wav,0,pill,358,23,3,Japanese,m,5,0.5,11.66623314,1.01630723
MAN,26,0,2024-06-19T03:25:58.028Z,english_838.wav,0,pill,358,23,3,Japanese,m,6,0.6,-66.11404528,1.23732351
MAN,26,0,2024-06-19T03:25:58.028Z,english_838.wav,0,pill,358,23,3,Japanese,m,7,0.7,28.35642813,1.37061964
MAN,26,0,2024-06-19T03:25:58.028Z,english_838.wav,0,pill,358,23,3,Japanese,m,8,0.8,73.65825503,1.54014816
MAN,26,0,2024-06-19T03:25:58.028Z,english_838.wav,0,pill,358,23,3,Japanese,m,9,0.9,-30.5228579,0.53177064
MAN,26,0,2024-06-19T03:25:58.028Z,english_838.wav,0,pill,358,23,3,Japanese,m,10,1.0,-38.8042384,1.47567338
MAN,26,0,2024-06-19T03:25:58.028Z,english_838.wav,0,pill,358,23,3,Japanese,m,11,1.09391667,90.67589939,0.7352694
MAN,27,0,2024-06-19T03:25:58.028Z,english_491.wav,0,pill,1782,23,3,Japanese,m,0,0.0,-86.04728356,0.47614904
MAN,27,0,2024-06-19T03:25:58.028Z,english_491.wav,0,pill,1782,23,3,Japanese,m,1,0.1,-65.88451303,0.55089812
MAN,27,0,2024-06-19T03:25:58.028Z,english_491.wav,0,pill,1782,23,3,Japanese,m,2,0.2,-80.48711576,1.1167033
MAN,27,0,2024-06-19T03:25:58.028Z,english_491.wav,0,pill,1782,23,3,Japanese,m,3,0.3,-14.20773903,1.47203435
MAN,27,0,2024-06-19T03:25:58.028Z,english_491.wav,0,pill,1782,23,3,Japanese,m,4,0.4,8.14780759,1.34464479
MAN,27,0,2024-06-19T03:25:58.028Z,english_491.wav,0,pill,1782,23,3,Japanese,m,5,0.5,-64.09571567,1.15432427
MAN,27,0,2024-06-19T03:25:58.028Z,english_491.wav,0,pill,1782,23,3,Japanese,m,6,0.6,54.51757577,1.10816548
MAN,27,0,2024-06-19T03:25:58.028Z,english_491.wav,0,pill,1782,23,3,Japanese,m,7,0.7,44.38602798,0.53599429
MAN,27,0,2024-06-19T03:25:58.028Z,english_491.wav,0,pill,1782,23,3,Japanese,m,8,0.8,-1.2376907,1.13980754
MAN,27,0,2024-06-19T03:25:58.028Z,english_491.wav,0,pill,1782,23,3,Japanese,m,9,0.9,77.13121924,0.89300384
MAN,27,0,2024-06-19T03:25:58.028Z,english_491.wav,0,pill,1782,23,3,Japanese,m,10,1.0,-14.590686,0.5502855
MAN,27,0,2024-06-19T03:25:58.028Z,english_491.wav,0,pill,1782,23,3,Japanese,m,11,1.09391667,68.41813951,1.59909439
MAN,28,0,2024-06-19T03:25:58.028Z,english_94.wav,0,pill,927,23,3,Japanese,m,0,0.0,-69.13613192,0.71683615
MAN,28,0,2024-06-19T03:25:58.028Z,english_94.wav,0,pill,927,23,3,Japanese,m,1,0.1,-53.91573564,1.64130178
MAN,28,0,2024-06-19T03:25:58.028Z,english_94.wav,0,pill,927,23,3,Japanese,m,2,0.2,88.54569891,1.41561382
MAN,28,0,2024-06-19T03:25:58.028Z,english_94.wav,0,pill,927,23,3,Japanese,m,3,0.3,47.91558238,0.72478091
MAN,28,0,2024-06-19T03:25:58.028Z,english_94.wav,0,pill,927,23,3,Japanese,m,4,0.4,46.13883045,1.21480875
MAN,28,0,2024-06-19T03:25:58.028Z,english_94.wav,0,pill,927,23,3,Japanese,m,5,0.5,0.71209955,0.13058063
MAN,28,0,2024-06-19T03:25:58.028Z,english_94.wav,0,pill,927,23,3,Japanese,m,6,0.6,53.89774049,1.07607775
MAN,28,0,2024-06-19T03:25:58.028Z,english_94.wav,0,pill,927,23,3,Japanese,m,7,0.7,37.22112319,0.10112022
MAN,28,0,2024-06-19T03:25:58.028Z,english_94.wav,0,pill,927,23,3,Japanese,m,8,0.8,8.13348347,0.91343474
MAN,28,0,2024-06-19T03:25:58.028Z,english_94.wav,0,pill,927,23,3,Japanese,m,9,0.9,-10.35793642,0.77751528
MAN,28,0,2024-06-19T03:25:58.028Z,english_94.wav,0,pill,927,23,3,Japanese,m,10,1.0,75.25647247,0.57088528
MAN,28,0,2024-06-19T03:25:58.028Z,english_94.wav,0,pill,927,23,3,Japanese,m,11,1.09391667,-70.34686187,0.98841109
MAN,29,0,2024-06-19T03:25:58.028Z,english_394.wav,0,pill,1802,23,3,Japanese,m,0,0.0,-15.73952497,0.37404547
MAN,29,0,2024-06-19T03:25:58.028Z,english_394.wav,0,pill,1802,23,3,Japanese,m,1,0.1,-72.53875874,0.74662783
MAN,29,0,2024-06-19T03:25:58.028Z,english_394.wav,0,pill,1802,23,3,Japanese,m,2,0.2,-2.77448658,0.09869687
MAN,29,0,2024-06-19T03:25:58.028Z,english_394.wav,0,pill,1802,23,3,Japanese,m,3,0.3,-34.13929652,0.4926167
MAN,29,0,2024-06-19T03:25:58.028Z,english_394.wav,0,pill,1802,23,3,Japanese,m,4,0.4,98.89455917,0.88094357
MAN,29,0,2024-06-19T03:25:58.028Z,english_394.wav,0,pill,1802,23,3,Japanese,m,5,0.5,92.17283268,1.74845503
MAN,29,0,2024-06-19T03:25:58.028Z,english_394.wav,0,pill,1802,23,3,Japanese,m,6,0.6,57.90330337,0.56104095
MAN,29,0,2024-06-19T03:25:58.028Z,english_394.wav,0,pill,1802,23,3,Japanese,m,7,0.7,42.86143517,1.17773509
MAN,29,0,2024-06-19T03:25:58.028Z,english_394.wav,0,pill,1802,23,3,Japanese,m,8,0.8,-24.72366611,1.30676371
MAN,29,0,2024-06-19T03:25:58.028Z,english_394.wav,0,pill,1802,23,3,Japanese,m,9,0.9,1.80991862,0.02013397
MAN,29,0,2024-06-19T03:25:58.028Z,english_394.wav,0,pill,1802,23,3,Japanese,m,10,1.0,-3.52242486,1.86341361
MAN,29,0,2024-06-19T03:25:58.028Z,english_394.wav,0,pill,1802,23,3,Japanese,m,11,1.09391667,-17.84344946,0.37928015
MAN,30,0,2024-06-19T03:25:58.028Z,english_376.wav,0,pill,964,23,3,Japanese,m,0,0.0,-22.52600132,1.13600224
MAN,30,0,2024-06-19T03:25:58.028Z,english_376.wav,0,pill,964,23,3,Japanese,m,1,0.1,29.36992487,0.82385101
MAN,30,0,2024-06-19T03:25:58.028Z,english_376.wav,0,pill,964,23,3,Japanese,m,2,0.2,26.35975313,0.21812262
MAN,30,0,2024-06-19T03:25:58.028Z,english_376.wav,0,pill,964,23,3,Japanese,m,3,0.3,22.46882007,1.22545345
MAN,30,0,2024-06-19T03:25:58.028Z,english_376.wav,0,pill,964,23,3,Japanese,m,4,0.4,-26.33536786,0.68217052
MAN,30,0,2024-06-19T03:25:58.028Z,english_376.wav,0,pill,964,23,3,Japanese,m,5,0.5,-27.32741376,1.80813558
MAN,30,0,2024-06-19T03:25:58.028Z,english_376.wav,0,pill,964,23,3,Japanese,m,6,0.6,4.49813396,0.4048305
MAN,30,0,2024-06-19T03:25:58.028Z,english_376.wav,0,pill,964,23,3,Japanese,m,7,0.7,-47.02321994,1.72982043
MAN,30,0,2024-06-19T03:25:58.028Z,english_376.wav,0,pill,964,23,3,Japanese,m,8,0.8,-61.17584125,0.03977306
MAN,30,0,2024-06-19T03:25:58.028Z,english_376.wav,0,pill,964,23,3,Japanese,m,9,0.9,-52.37587082,0.16832119
MAN,30,0,2024-06-19T03:25:58.028Z,english_376.wav,0,pill,964,23,3,Japanese,m,10,1.0,53.16500273,1.81503166
MAN,30,0,2024-06-19T03:25:58.028Z,english_376.wav,0,pill,964,23,3,Japanese,m,11,1.09391667,31.59148057,0.61812074
MAN,31,0,2024-06-19T03:25:58.028Z,english_389.wav,0,peel,822,23,3,Japanese,m,0,0.0,-27.92030451,1.81186154
MAN,31,0,2024-06-19T03:25:58.028Z,english_389.wav,0,peel,822,23,3,Japanese,m,1,0.1,-46.10796153,1.54804085
MAN,31,0,2024-06-19T03:25:58.028Z,english_389.wav,0,peel,822,23,3,Japanese,m,2,0.2,29.27243325,0.55488288
MAN,31,0,2024-06-19T03:25:58.028Z,english_389.wav,0,peel,822,23,3,Japanese,m,3,0.3,-81.13766006,1.00824624
MAN,31,0,2024-06-19T03:25:58.028Z,english_389.wav,0,peel,822,23,3,Japanese,m,4,0.4,-25.00115648,1.07224035
MAN,31,0,2024-06-19T03:25:58.028Z,english_389.wav,0,peel,822,23,3,Japanese,m,5,0.5,-17.10951233,0.42212287
MAN,31,0,2024-06-19T03:25:58.028Z,english_389.wav,0,peel,822,23,3,Japanese,m,6,0.6,15.83507298,1.0440142
MAN,31,0,2024-06-19T03:25:58.028Z,english_389.wav,0,peel,822,23,3,Japanese,m,7,0.7,79.29241289,1.00958508
MAN,31,0,2024-06-19T03:25:58.028Z,english_389.wav,0,peel,822,23,3,Japanese,m,8,0.8,27.96570621,0.92707182
MAN,31,0,2024-06-19T03:25:58.028Z,english_389.wav,0,peel,822,23,3,Japanese,m,9,0.9,-91.92786914,1.30621654
MAN,31,0,2024-06-19T03:25:58.028Z,english_389.wav,0,peel,822,23,3,Japanese,m,10,1.0,39.38033895,1.4968603
MAN,31,0,2024-06-19T03:25:58.028Z,english_389.wav,0,peel,822,23,3,Japanese,m,11,1.09391667,-32.92969944,0.53867672
MAN,32,0,2024-06-19T03:25:58.028Z,english_42.wav,0,pill,552,23,3,Japanese,m,0,0.0,-12.35235723,0.89110064
MAN,32,0,2024-06-19T03:25:58.028Z,english_42.wav,0,pill,552,23,3,Japanese,m,1,0.1,-31.30593397,0.38934259
MAN,32,0,2024-06-19T03:25:58.028Z,english_42.wav,0,pill,552,23,3,Japanese,m,2,0.2,93.22547931,1.45440232
MAN,32,0,2024-06-19T03:25:58.028Z,english_42.wav,0,pill,552,23,3,Japanese,m,3,0.3,3.55661221,0.25584691
MAN,32,0,2024-06-19T03:25:58.028Z,english_42.wav,0,pill,552,23,3,Japanese,m,4,0.4,-65.82574245,1.05295351
MAN,32,0,2024-06-19T03:25:58.028Z,english_42.wav,0,pill,552,23,3,Japanese,m,5,0.5,29.87364381,0.59087155
MAN,32,0,2024-06-19T03:25:58.028Z,english_42.wav,0,pill,552,23,3,Japanese,m,6,0.6,-76.70361056,0.12112438
MAN,32,0,2024-06-19T03:25:58.028Z,english_42.wav,0,pill,552,23,3,Japanese,m,7,0.7,-29.10356368,0.72116868
MAN,32,0,2024-06-19T03:25:58.028Z,english_42.wav,0,pill,552,23,3,Japanese,m,8,0.8,-52.57981462,0.07340316
MAN,32,0,2024-06-19T03:25:58.028Z,english_42.wav,0,pill,552,23,3,Japanese,m,9,0.9,3.2621499,1.9617885
MAN,32,0,2024-06-19T03:25:58.028Z,english_42.wav,0,pill,552,23,3,Japanese,m,10,1.0,-86.59512904,0.50342264
MAN,32,0,2024-06-19T03:25:58.028Z,english_42.wav,0,pill,552,23,3,Japanese,m,11,1.09391667,39.23696044,1.24684981
MAN,33,0,2024-06-19T03:25:58.028Z,english_187.wav,0,peel,2709,23,3,Japanese,m,0,0.0,55.99370729,1.82256068
MAN,33,0,2024-06-19T03:25:58.028Z,english_187.wav,0,peel,2709,23,3,Japanese,m,1,0.1,-13.74585555,1.69505517
MAN,33,0,2024-06-19T03:25:58.028Z,english_187.wav,0,peel,2709,23,3,Japanese,m,2,0.2,-0.42640895,1.33791079
MAN,33,0,2024-06-19T03:25:58.028Z,english_187.wav,0,peel,2709,23,3,Japanese,m,3,0.3,-47.34493384,0.12415078
MAN,33,0,2024-06-19T03:25:58.028Z,english_187.wav,0,peel,2709,23,3,Japanese,m,4,0.4,1.27244399,1.40350832
MAN,33,0,2024-06-19T03:25:58.028Z,english_187.wav,0,peel,2709,23,3,Japanese,m,5,0.5,-51.74565009,1.6134035
MAN,33,0,2024-06-19T03:25:58.028Z,english_187.wav,0,peel,2709,23,3,Japanese,m,6,0.6,-77.25155481,1.12966524
MAN,33,0,2024-06-19T03:25:58.028Z,english_187.wav,0,peel,2709,23,3,Japanese,m,7,0.7,69.19112944,0.02740784
MAN,33,0,2024-06-19T03:25:58.028Z,english_187.wav,0,peel,2709,23,3,Japanese,m,8,0.8,-97.84143732,1.26777643
MAN,33,0,2024-06-19T03:25:58.028Z,english_187.wav,0,peel,2709,23,3,Japanese,m,9,0.9,5.06490506,1.52431862
MAN,33,0,2024-06-19T03:25:58.028Z,english_187.wav,0,peel,2709,23,3,Japanese,m,10,1.0,67.30450542,1.3588447
MAN,33,0,2024-06-19T03:25:58.028Z,english_187.wav,0,peel,2709,23,3,Japanese,m,11,1.09391667,44.03847764,1.80453633
MAN,34,0,2024-06-19T03:25:58.028Z,english_201.wav,0,peel,632,23,3,Japanese,m,0,0.0,38.80737773,0.9006916
MAN,34,0,2024-06-19T03:25:58.028Z,english_201.wav,0,peel,632,23,3,Japanese,m,1,0.1,-19.59989916,0.40577957
MAN,34,0,2024-06-19T03:25:58.028Z,english_201.wav,0,peel,632,23,3,Japanese,m,2,0.2,66.60738163,0.32844259
MAN,34,0,2024-06-19T03:25:58.028Z,english_201.wav,0,peel,632,23,3,Japanese,m,3,0.3,-56.04483053,1.02628552
MAN,34,0,2024-06-19T03:25:58.028Z,english_201.wav,0,peel,632,23,3,Japanese,m,4,0.4,70.74519799,1.24548515
MAN,34,0,2024-06-19T03:25:58.028Z,english_201.wav,0,peel,632,23,3,Japanese,m,5,0.5,-47.08782515,0.07505998
MAN,34,0,2024-06-19T03:25:58.028Z,english_201.wav,0,peel,632,23,3,Japanese,m,6,0.6,-82.17312899,0.1226459
MAN,34,0,2024-06-19T03:25:58.028Z,english_201.wav,0,peel,632,23,3,Japanese,m,7,0.7,4.63557835,1.79532837
MAN,34,0,2024-06-19T03:25:58.028Z,english_201.wav,0,peel,632,23,3,Japanese,m,8,0.8,13.50311248,1.69109423
MAN,34,0,2024-06-19T03:25:58.028Z,english_201.wav,0,peel,632,23,3,Japanese,m,9,0.9,50.05274214,0.91883167
MAN,34,0,2024-06-19T03:25:58.028Z,english_201.wav,0,peel,632,23,3,Japanese,m,10,1.0,-76.13616328,0.81807561
MAN,34,0,2024-06-19T03:25:58.028Z,english_201.wav,0,peel,632,23,3,Japanese,m,11,1.09391667,8.54722281,1.88316121
MAN,35,0,2024-06-19T03:25:58.028Z,english_326.wav,0,peel,440,23,3,Japanese,m,0,0.0,-43.10917618,0.92818159
MAN,35,0,2024-06-19T03:25:58.028Z,english_326.wav,0,peel,440,23,3,Japanese,m,1,0.1,51.71010142,0.32622589
MAN,35,0,2024-06-19T03:25:58.028Z,english_326.wav,0,peel,440,23,3,Japanese,m,2,0.2,-51.98898793,0.25183357
MAN,35,0,2024-06-19T03:25:58.028Z,english_326.wav,0,peel,440,23,3,Japanese,m,3,0.3,-88.25420689,0.15547956
MAN,35,0,2024-06-19T03:25:58.028Z,english_326.wav,0,peel,440,23,3,Japanese,m,4,0.4,-29.81917635,0.54551317
MAN,35,0,2024-06-19T03:25:58.028Z,english_326.wav,0,peel,440,23,3,Japanese,m,5,0.5,-40.02564907,0.579881
MAN,35,0,2024-06-19T03:25:58.028Z,english_326.wav,0,peel,440,23,3,Japanese,m,6,0.6,-80.61031076,0.72251342
MAN,35,0,2024-06-19T03:25:58.028Z,english_326.wav,0,peel,440,23,3,Japanese,m,7,0.7,27.73097561,1.44758164
MAN,35,0,2024-06-19T03:25:58.028Z,english_326.wav,0,peel,440,23,3,Japanese,m,8,0.8,86.25406042,1.07961509
MAN,35,0,2024-06-19T03:25:58.028Z,english_326.wav,0,peel,440,23,3,Japanese,m,9,0.9,-98.97965016,1.11677138
MAN,35,0,2024-06-19T03:25:58.028Z,english_326.wav,0,peel,440,23,3,Japanese,m,10,1.0,-32.16564668,0.90130016
MAN,35,0,2024-06-19T03:25:58.028Z,english_326.wav,0,peel,440,23,3,Japanese,m,11,1.09391667,-99.19861207,0.29135461
MAN,36,0,2024-06-19T03:25:58.028Z,english_625.wav,0,peel,405,23,3,Japanese,m,0,0.0,75.82886559,1.22123306
MAN,36,0,2024-06-19T03:25:58.028Z,english_625.wav,0,peel,405,23,3,Japanese,m,1,0.1,-13.96041742,1.75348863
MAN,36,0,2024-06-19T03:25:58.028Z,english_625.wav,0,peel,405,23,3,Japanese,m,2,0.2,-35.92753512,0.4897572
MAN,36,0,2024-06-19T03:25:58.028Z,english_625.wav,0,peel,405,23,3,Japanese,m,3,0.3,40.25912686,1.96593999
MAN,36,0,2024-06-19T03:25:58.028Z,english_625.wav,0,peel,405,23,3,Japanese,m,4,0.4,50.45257654,1.18887939
MAN,36,0,2024-06-19T03:25:58.028Z,english_625.wav,0,peel,405,23,3,Japanese,m,5,0.5,85.69312188,0.25611648
MAN,36,0,2024-06-19T03:25:58.028Z,english_625.wav,0,peel,405,23,3,Japanese,m,6,0.6,13.47564488,0.63493032
MAN,36,0,2024-06-19T03:25:58.028Z,english_625.wav,0,peel,405,23,3,Japanese,m,7,0.7,-67.08587609,1.56113018
MAN,36,0,2024-06-19T03:25:58.028Z,english_625.wav,0,peel,405,23,3,Japanese,m,8,0.8,-13.59943795,0.9635469
MAN,36,0,2024-06-19T03:25:58.028Z,english_625.wav,0,peel,405,23,3,Japanese,m,9,0.9,48.64664173,1.37605444
MAN,36,0,2024-06-19T03:25:58.028Z,english_625.wav,0,peel,405,23,3,Japanese,m,10,1.0,12.19725268,1.05458302
MAN,36,0,2024-06-19T03:25:58.028Z,english_625.wav,0,peel,405,23,3,Japanese,m,11,1.09391667,29.4760152,1.34022417
MAN,37,0,2024-06-19T03:25:58.028Z,english_466.wav,0,pill,1667,23,3,Japanese,m,0,0.0,29.78122055,0.08614047
MAN,37,0,2024-06-19T03:25:58.028Z,english_466.wav,0,pill,1667,23,3,Japanese,m,1,0.1,1.00212309,0.60651355
MAN,37,0,2024-06-19T03:25:58.028Z,english_466.wav,0,pill,1667,23,3,Japanese,m,2,0.2,84.88341441,0.95660543
MAN,37,0,2024-06-19T03:25:58.028Z,english_466.wav,0,pill,1667,23,3,Japanese,m,3,0.3,18.0671926,0.08485907
MAN,37,0,2024-06-19T03:25:58.028Z,english_466.wav,0,pill,1667,23,3,Japanese,m,4,0.4,-63.20091068,0.78105645
MAN,37,0,2024-06-19T03:25:58.028Z,english_466.wav,0,pill,1667,23,3,Japanese,m,5,0.5,-1.15346207,0.10730209
MAN,37,0,2024-06-19T03:25:58.028Z,english_466.wav,0,pill,1667,23,3,Japanese,m,6,0.6,-1.70645236,1.7980607
MAN,37,0,2024-06-19T03:25:58.028Z,english_466.wav,0,pill,1667,23,3,Japanese,m,7,0.7,37.24590025,1.48241485
MAN,37,0,2024-06-19T03:25:58.028Z,english_466.wav,0,pill,1667,23,3,Japanese,m,8,0.8,-40.92862731,0.1626415
MAN,37,0,2024-06-19T03:25:58.028Z,english_466.wav,0,pill,1667,23,3,Japanese,m,9,0.9,-58.08317272,1.43527927
MAN,37,0,2024-06-19T03:25:58.028Z,english_466.wav,0,pill,1667,23,3,Japanese,m,10,1.0,-59.75718078,0.97707475
MAN,37,0,2024-06-19T03:25:58.028Z,english_466.wav,0,pill,1667,23,3,Japanese,m,11,1.09391667,13.82760032,1.6467926
MAN,38,0,2024-06-19T03:25:58.028Z,english_46.wav,0,pill,614,23,3,Japanese,m,0,0.0,-14.7704521,0.66460672
MAN,38,0,2024-06-19T03:25:58.028Z,english_46.wav,0,pill,614,23,3,Japanese,m,1,0.1,44.71982886,0.16115308
MAN,38,0,2024-06-19T03:25:58.028Z,english_46.wav,0,pill,614,23,3,Japanese,m,2,0.2,54.31186901,0.69883722
MAN,38,0,2024-06-19T03:25:58.028Z,english_46.wav,0,pill,614,23,3,Japanese,m,3,0.3,49.55617509,0.91276183
MAN,38,0,2024-06-19T03:25:58.028Z,english_46.wav,0,pill,614,23,3,Japanese,m,4,0.4,13.89468732,1.97897865
MAN,38,0,2024-06-19T03:25:58.028Z,english_46.wav,0,pill,614,23,3,Japanese,m,5,0.5,-5.62181735,1.5047395
MAN,38,0,2024-06-19T03:25:58.028Z,english_46.wav,0,pill,614,23,3,Japanese,m,6,0.6,46.1003591,1.97786281
MAN,38,0,2024-06-19T03:25:58.028Z,english_46.wav,0,pill,614,23,3,Japanese,m,7,0.7,44.70422333,1.91807099
MAN,38,0,2024-06-19T03:25:58.028Z,english_46.wav,0,pill,614,23,3,Japanese,m,8,0.8,-14.85596588,0.25212674
MAN,38,0,2024-06-19T03:25:58.028Z,english_46.wav,0,pill,614,23,3,Japanese,m,9,0.9,-30.71855866,1.85861414
MAN,38,0,2024-06-19T03:25:58.028Z,english_46.wav,0,pill,614,23,3,Japanese,m,10,1.0,-75.55345039,0.72903252
MAN,38,0,2024-06-19T03:25:58.028Z,english_46.wav,0,pill,614,23,3,Japanese,m,11,1.09391667,6.43312975,1.80431148
MAN,39,0,2024-06-19T03:25:58.028Z,english_867.wav,0,peel,454,23,3,Japanese,m,0,0.0,-24.89816024,0.58295981
MAN,39,0,2024-06-19T03:25:58.028Z,english_867.wav,0,peel,454,23,3,Japanese,m,1,0.1,-5.46882756,0.29098819
MAN,39,0,2024-06-19T03:25:58.028Z,english_867.wav,0,peel,454,23,3,Japanese,m,2,0.2,20.19834057,1.14395964
MAN,39,0,2024-06-19T03:25:58.028Z,english_867.wav,0,peel,454,23,3,Japanese,m,3,0.3,-93.32796435,1.65419487
MAN,39,0,2024-06-19T03:25:58.028Z,english_867.wav,0,peel,454,23,3,Japanese,m,4,0.4,33.67014856,0.61503003
MAN,39,0,2024-06-19T03:25:58.028Z,english_867.wav,0,peel,454,23,3,Japanese,m,5,0.5,-35.81311347,0.19208338
MAN,39,0,2024-06-19T03:25:58.028Z,english_867.wav,0,peel,454,23,3,Japanese,m,6,0.6,3.8400964,1.34794824
MAN,39,0,2024-06-19T03:25:58.028Z,english_867.wav,0,peel,454,23,3,Japanese,m,7,0.7,36.13382858,0.71921044
MAN,39,0,2024-06-19T03:25:58.028Z,english_867.wav,0,peel,454,23,3,Japanese,m,8,0.8,70.00228028,1.86066536
MAN,39,0,2024-06-19T03:25:58.028Z,english_867.wav,0,peel,454,23,3,Japanese,m,9,0.9,81.61272395,0.96263601
MAN,39,0,2024-06-19T03:25:58.028Z,english_867.wav,0,peel,454,23,3,Japanese,m,10,1.0,-46.82426053,1.18263142
MAN,39,0,2024-06-19T03:25:58.028Z,english_867.wav,0,peel,454,23,3,Japanese,m,11,1.09391667,21.97193379,1.25802514
MAN,40,0,2024-06-19T03:25:58.028Z,english_655.wav,0,pill,757,23,3,Japanese,m,0,0.0,-90.05217159,1.15438405
MAN,40,0,2024-06-19T03:25:58.028Z,english_655.wav,0,pill,757,23,3,Japanese,m,1,0.1,-51.53203878,1.12188764
MAN,40,0,2024-06-19T03:25:58.028Z,english_655.wav,0,pill,757,23,3,Japanese,m,2,0.2,-18.56413276,0.95676367
MAN,40,0,2024-06-19T03:25:58.028Z,english_655.wav,0,pill,757,23,3,Japanese,m,3,0.3,-32.31488117,0.61420414
MAN,40,0,2024-06-19T03:25:58.028Z,english_655.wav,0,pill,757,23,3,Japanese,m,4,0.4,49.43339315,0.76264188
MAN,40,0,2024-06-19T03:25:58.028Z,english_655.wav,0,pill,757,23,3,Japanese,m,5,0.5,-67.53322914,1.45400352
MAN,40,0,2024-06-19T03:25:58.028Z,english_655.wav,0,pill,757,23,3,Japanese,m,6,0.6,90.11454302,0.06830652
MAN,40,0,2024-06-19T03:25:58.028Z,english_655.wav,0,pill,757,23,3,Japanese,m,7,0.7,98.57977716,0.91955523
MAN,40,0,2024-06-19T03:25:58.028Z,english_655.wav,0,pill,757,23,3,Japanese,m,8,0.8,29.43352269,0.33519017
MAN,40,0,2024-06-19T03:25:58.028Z,english_655.wav,0,pill,757,23,3,Japanese,m,9,0.9,91.08820104,0.7797243
MAN,40,0,2024-06-19T03:25:58.028Z,english_655.wav,0,pill,757,23,3,Japanese,m,10,1.0,-3.70059628,1.01878467
MAN,40,0,2024-06-19T03:25:58.028Z,english_655.wav,0,pill,757,23,3,Japanese,m,11,1.09391667,30.30784512,1.55349389
MAN,41,0,2024-06-19T03:25:58.028Z,english_798.wav,0,pill,366,23,3,Japanese,m,0,0.0,-67.02841194,0.33593724
MAN,41,0,2024-06-19T03:25:58.028Z,english_798.wav,0,pill,366,23,3,Japanese,m,1,0.1,-61.53416047,1.45592665
MAN,41,0,2024-06-19T03:25:58.028Z,english_798.wav,0,pill,366,23,3,Japanese,m,2,0.2,58.59657868,0.89843982
MAN,41,0,2024-06-19T03:25:58.028Z,english_798.wav,0,pill,366,23,3,Japanese,m,3,0.3,29.19204806,0.82315135
MAN,41,0,2024-06-19T03:25:58.028Z,english_798.wav,0,pill,366,23,3,Japanese,m,4,0.4,23.45650743,1.88697526
MAN,41,0,2024-06-19T03:25:58.028Z,english_798.wav,0,pill,366,23,3,Japanese,m,5,0.5,68.99571545,0.96876146
MAN,41,0,2024-06-19T03:25:58.028Z,english_798.wav,0,pill,366,23,3,Japanese,m,6,0.6,-55.06633408,0.51998357
MAN,41,0,2024-06-19T03:25:58.028Z,english_798.wav,0,pill,366,23,3,Japanese,m,7,0.7,-84.88813755,0.83848957
MAN,41,0,2024-06-19T03:25:58.028Z,english_798.wav,0,pill,366,23,3,Japanese,m,8,0.8,-86.25019985,0.75519813
MAN,41,0,2024-06-19T03:25:58.028Z,english_798.wav,0,pill,366,23,3,Japanese,m,9,0.9,32.09324542,0.08799146
MAN,41,0,2024-06-19T03:25:58.028Z,english_798.wav,0,pill,366,23,3,Japanese,m,10,1.0,-18.86097807,1.1327065
MAN,41,0,2024-06-19T03:25:58.028Z,english_798.wav,0,pill,366,23,3,Japanese,m,11,1.09391667,-0.34975855,0.30601278
MAN,42,0,2024-06-19T03:25:58.028Z,english_619.wav,0,pill,428,23,3,Japanese,m,0,0.0,-41.0924044,1.71942116
MAN,42,0,2024-06-19T03:25:58.028Z,english_619.wav,0,pill,428,23,3,Japanese,m,1,0.1,-7.96280913,1.03534148
MAN,42,0,2024-06-19T03:25:58.028Z,english_619.wav,0,pill,428,23,3,Japanese,m,2,0.2,-87.23866402,1.90474628
MAN,42,0,2024-06-19T03:25:58.028Z,english_619.wav,0,pill,428,23,3,Japanese,m,3,0.3,-49.33627733,1.25465254
MAN,42,0,2024-06-19T03:25:58.028Z,english_619.wav,0,pill,428,23,3,Japanese,m,4,0.4,-9.049641,0.872658
MAN,42,0,2024-06-19T03:25:58.028Z,english_619.wav,0,pill,428,23,3,Japanese,m,5,0.5,-44.96771142,0.88442624
MAN,42,0,2024-06-19T03:25:58.028Z,english_619.wav,0,pill,428,23,3,Japanese,m,6,0.6,-40.79885207,0.90889779
MAN,42,0,2024-06-19T03:25:58.028Z,english_619.wav,0,pill,428,23,3,Japanese,m,7,0.7,40.82825876,0.65121567
MAN,42,0,2024-06-19T03:25:58.028Z,english_619.wav,0,pill,428,23,3,Japanese,m,8,0.8,-20.59710474,0.05436153
MAN,42,0,2024-06-19T03:25:58.028Z,english_619.wav,0,pill,428,23,3,Japanese,m,9,0.9,39.88878166,1.54961319
MAN,42,0,2024-06-19T03:25:58.028Z,english_619.wav,0,pill,428,23,3,Japanese,m,10,1.0,26.7856421,0.36194851
MAN,42,0,2024-06-19T03:25:58.028Z,english_619.wav,0,pill,428,23,3,Japanese,m,11,1.09391667,40.93095409,0.79464548
MAN,43,0,2024-06-19T03:25:58.028Z,english_869.wav,0,pill,446,23,3,Japanese,m,0,0.0,-20.7946379,1.94834657
MAN,43,0,2024-06-19T03:25:58.028Z,english_869.wav,0,pill,446,23,3,Japanese,m,1,0.1,-22.88594334,1.67021182
MAN,43,0,2024-06-19T03:25:58.028Z,english_869.wav,0,pill,446,23,3,Japanese,m,2,0.2,-44.01188064,1.50520546
MAN,43,0,2024-06-19T03:25:58.028Z,english_869.wav,0,pill,446,23,3,Japanese,m,3,0.3,58.96228493,0.98955103
MAN,43,0,2024-06-19T03:25:58.028Z,english_869.wav,0,pill,446,23,3,Japanese,m,4,0.4,0.25554563,0.43254465
MAN,43,0,2024-06-19T03:25:58.028Z,english_869.wav,0,pill,446,23,3,Japanese,m,5,0.5,-14.29276016,1.32326318
MAN,43,0,2024-06-19T03:25:58.028Z,english_869.wav,0,pill,446,23,3,Japanese,m,6,0.6,40.28852475,0.34817039
MAN,43,0,2024-06-19T03:25:58.028Z,english_869.wav,0,pill,446,23,3,Japanese,m,7,0.7,83.9110951,0.4259349
MAN,43,0,2024-06-19T03:25:58.028Z,english_869.wav,0,pill,446,23,3,Japanese,m,8,0.8,-58.08971542,0.20780663
MAN,43,0,2024-06-19T03:25:58.028Z,english_869.wav,0,pill,446,23,3,Japanese,m,9,0.9,-47.84735546,0.9384124
MAN,43,0,2024-06-19T03:25:58.028Z,english_869.wav,0,pill,446,23,3,Japanese,m,10,1.0,18.70420486,1.5529846
MAN,43,0,2024-06-19T03:25:58.028Z,english_869.wav,0,pill,446,23,3,Japanese,m,11,1.09391667,33.02688521,1.23929613
MAN,44,0,2024-06-19T03:25:58.028Z,english_995.wav,0,peel,350,23,3,Japanese,m,0,0.0,97.76656521,1.90640997
MAN,44,0,2024-06-19T03:25:58.028Z,english_995.wav,0,peel,350,23,3,Japanese,m,1,0.1,10.72921102,1.35752142
MAN,44,0,2024-06-19T03:25:58.028Z,english_995.wav,0,peel,350,23,3,Japanese,m,2,0.2,-74.90567645,0.0677959
MAN,44,0,2024-06-19T03:25:58.028Z,english_995.wav,0,peel,350,23,3,Japanese,m,3,0.3,77.17787297,0.2303181
MAN,44,0,2024-06-19T03:25:58.028Z,english_995.wav,0,peel,350,23,3,Japanese,m,4,0.4,-65.98328726,1.9496567
MAN,44,0,2024-06-19T03:25:58.028Z,english_995.wav,0,peel,350,23,3,Japanese,m,5,0.5,3.50056795,1.06158527
MAN,44,0,2024-06-19T03:25:58.028Z,english_995.wav,0,peel,350,23,3,Japanese,m,6,0.6,-48.42786785,0.86919942
MAN,44,0,2024-06-19T03:25:58.028Z,english_995.wav,0,peel,350,23,3,Japanese,m,7,0.7,47.72819133,1.60426058
MAN,44,0,2024-06-19T03:25:58.028Z,english_995.wav,0,peel,350,23,3,Japanese,m,8,0.8,14.30124411,1.52102104
MAN,44,0,2024-06-19T03:25:58.028Z,english_995.wav,0,peel,350,23,3,Japanese,m,9,0.9,-92.38663664,0.17733005
MAN,44,0,2024-06-19T03:25:58.028Z,english_995.wav,0,peel,350,23,3,Japanese,m,10,1.0,33.04960477,1.36413464
MAN,44,0,2024-06-19T03:25:58.028Z,english_995.wav,0,peel,350,23,3,Japanese,m,11,1.09391667,16.88553352,0.78541069
MAN,45,0,2024-06-19T03:25:58.028Z,english_793.wav,0,peel,352,23,3,Japanese,m,0,0.0,-39.70617561,0.49970472
MAN,45,0,2024-06-19T03:25:58.028Z,english_793.wav,0,peel,352,23,3,Japanese,m,1,0.1,-29.28823244,0.64262829
MAN,45,0,2024-06-19T03:25:58.028Z,english_793.wav,0,peel,352,23,3,Japanese,m,2,0.2,-89.65836103,1.52317209
MAN,45,0,2024-06-19T03:25:58.028Z,english_793.wav,0,peel,352,23,3,Japanese,m,3,0.3,9.66432805,0.03732268
MAN,45,0,2024-06-19T03:25:58.028Z,english_793.wav,0,peel,352,23,3,Japanese,m,4,0.4,46.78400104,0.76197013
MAN,45,0,2024-06-19T03:25:58.028Z,english_793.wav,0,peel,352,23,3,Japanese,m,5,0.5,77.17847788,1.20681543
MAN,45,0,2024-06-19T03:25:58.028Z,english_793.wav,0,peel,352,23,3,Japanese,m,6,0.6,65.90216738,0.39643945
MAN,45,0,2024-06-19T03:25:58.028Z,english_793.wav,0,peel,352,23,3,Japanese,m,7,0.7,19.02180402,0.55038392
MAN,45,0,2024-06-19T03:25:58.028Z,english_793.wav,0,peel,352,23,3,Japanese,m,8,0.8,4.99424524,0.97724905
MAN,45,0,2024-06-19T03:25:58.028Z,english_793.wav,0,peel,352,23,3,Japanese,m,9,0.9,95.94113908,1.29198989
MAN,45,0,2024-06-19T03:25:58.028Z,english_793.wav,0,peel,352,23,3,Japanese,m,10,1.0,5.28849012,1.94187371
MAN,45,0,2024-06-19T03:25:58.028Z,english_793.wav,0,peel,352,23,3,Japanese,m,11,1.09391667,-28.1855206,0.04726533
MAN,46,0,2024-06-19T03:25:58.028Z,english_657.wav,0,pill,520,23,3,Japanese,m,0,0.0,-63.69177318,1.72307232
MAN,46,0,2024-06-19T03:25:58.028Z,english_657.wav,0,pill,520,23,3,Japanese,m,1,0.1,54.73276248,1.66830023
MAN,46,0,2024-06-19T03:25:58.028Z,english_657.wav,0,pill,520,23,3,Japanese,m,2,0.2,-43.55623832,1.13616271
MAN,46,0,2024-06-19T03:25:58.028Z,english_657.wav,0,pill,520,23,3,Japanese,m,3,0.3,11.0238782,1.88829015
MAN,46,0,2024-06-19T03:25:58.028Z,english_657.wav,0,pill,520,23,3,Japanese,m,4,0.4,-59.68015802,1.12700282
MAN,46,0,2024-06-19T03:25:58.028Z,english_657.wav,0,pill,520,23,3,Japanese,m,5,0.5,27.65759043,0.7230722
MAN,46,0,2024-06-19T03:25:58.028Z,english_657.wav,0,pill,520,23,3,Japanese,m,6,0.6,-5.28412069,0.45968236
MAN,46,0,2024-06-19T03:25:58.028Z,english_657.wav,0,pill,520,23,3,Japanese,m,7,0.7,11.72971173,1.25039239
MAN,46,0,2024-06-19T03:25:58.028Z,english_657.wav,0,pill,520,23,3,Japanese,m,8,0.8,72.01905562,0.98563216
MAN,46,0,2024-06-19T03:25:58.028Z,english_657.wav,0,pill,520,23,3,Japanese,m,9,0.9,65.996528,0.19974442
MAN,46,0,2024-06-19T03:25:58.028Z,english_657.wav,0,pill,520,23,3,Japanese,m,10,1.0,-90.37548991,1.44886145
MAN,46,0,2024-06-19T03:25:58.028Z,english_657.wav,0,pill,520,23,3,Japanese,m,11,1.09391667,-82.6734304,0.27222986
MAN,47,0,2024-06-19T03:25:58.028Z,english_813.wav,0,pill,421,23,3,Japanese,m,0,0.0,-21.47810291,0.42494113
MAN,47,0,2024-06-19T03:25:58.028Z,english_813.wav,0,pill,421,23,3,Japanese,m,1,0.1,-84.13417806,0.85563352
MAN,47,0,2024-06-19T03:25:58.028Z,english_813.wav,0,pill,421,23,3,Japanese,m,2,0.2,-18.57483833,1.62435889
MAN,47,0,2024-06-19T03:25:58.028Z,english_813.wav,0,pill,421,23,3,Japanese,m,3,0.3,85.46223106,1.84520067
MAN,47,0,2024-06-19T03:25:58.028Z,english_813.wav,0,pill,421,23,3,Japanese,m,4,0.4,-47.12255135,0.16630065
MAN,47,0,2024-06-19T03:25:58.028Z,english_813.wav,0,pill,421,23,3,Japanese,m,5,0.5,55.13909294,1.66622477
MAN,47,0,2024-06-19T03:25:58.028Z,english_813.wav,0,pill,421,23,3,Japanese,m,6,0.6,-92.27868598,1.29440347
MAN,47,0,2024-06-19T03:25:58.028Z,english_813.wav,0,pill,421,23,3,Japanese,m,7,0.7,-98.65237277,1.30366
MAN,47,0,2024-06-19T03:25:58.028Z,english_813.wav,0,pill,421,23,3,Japanese,m,8,0.8,-73.59665384,0.95942882
MAN,47,0,2024-06-19T03:25:58.028Z,english_813.wav,0,pill,421,23,3,Japanese,m,9,0.9,99.75598896,0.41648042
MAN,47,0,2024-06-19T03:25:58.028Z,english_813.wav,0,pill,421,23,3,Japanese,m,10,1.0,22.46235737,0.55260475
MAN,47,0,2024-06-19T03:25:58.028Z,english_813.wav,0,pill,421,23,3,Japanese,m,11,1.09391667,-23.97281603,0.8655965
MAN,48,0,2024-06-19T03:25:58.028Z,english_957.wav,0,peel,361,23,3,Japanese,m,0,0.0,0.52999287,1.69063339
MAN,48,0,2024-06-19T03:25:58.028Z,english_957.wav,0,peel,361,23,3,Japanese,m,1,0.1,42.88408516,0.90191616
MAN,48,0,2024-06-19T03:25:58.028Z,english_957.wav,0,peel,361,23,3,Japanese,m,2,0.2,5.2606001,1.66392033
MAN,48,0,2024-06-19T03:25:58.028Z,english_957.wav,0,peel,361,23,3,Japanese,m,3,0.3,69.22866022,0.83925309
MAN,48,0,2024-06-19T03:25:58.028Z,english_957.wav,0,peel,361,23,3,Japanese,m,4,0.4,-59.59002501,0.68526896
MAN,48,0,2024-06-19T03:25:58.028Z,english_957.wav,0,peel,361,23,3,Japanese,m,5,0.5,52.62821971,1.27190364
MAN,48,0,2024-06-19T03:25:58.028Z,english_957.wav,0,peel,361,23,3,Japanese,m,6,0.6,14.01522052,0.49105021
MAN,48,0,2024-06-19T03:25:58.028Z,english_957.wav,0,peel,361,23,3,Japanese,m,7,0.7,90.51709562,1.03233072
MAN,48,0,2024-06-19T03:25:58.028Z,english_957.wav,0,peel,361,23,3,Japanese,m,8,0.8,-27.52109457,1.62340823
MAN,48,0,2024-06-19T03:25:58.028Z,english_957.wav,0,peel,361,23,3,Japanese,m,9,0.9,51.07495461,1.37639553
MAN,48,0,2024-06-19T03:25:58.028Z,english_957.wav,0,peel,361,23,3,Japanese,m,10,1.0,15.68851607,1.23872079
MAN,48,0,2024-06-19T03:25:58.028Z,english_957.wav,0,peel,361,23,3,Japanese,m,11,1.09391667,97.28292288,0.29572749
MAN,49,0,2024-06-19T03:25:58.028Z,english_596.wav,0,pill,1063,23,3,Japanese,m,0,0.0,-42.68859768,1.28071693
MAN,49,0,2024-06-19T03:25:58.028Z,english_596.wav,0,pill,1063,23,3,Japanese,m,1,0.1,67.29414518,0.77411838
MAN,49,0,2024-06-19T03:25:58.028Z,english_596.wav,0,pill,1063,23,3,Japanese,m,2,0.2,-56.57562289,1.32627092
MAN,49,0,2024-06-19T03:25:58.028Z,english_596.wav,0,pill,1063,23,3,Japanese,m,3,0.3,71.30769152,0.49089119
MAN,49,0,2024-06-19T03:25:58.028Z,english_596.wav,0,pill,1063,23,3,Japanese,m,4,0.4,95.1886681,0.72473062
MAN,49,0,2024-06-19T03:25:58.028Z,english_596.wav,0,pill,1063,23,3,Japanese,m,5,0.5,72.69751936,1.52798236
MAN,49,0,2024-06-19T03:25:58.028Z,english_596.wav,0,pill,1063,23,3,Japanese,m,6,0.6,62.43561612,1.79088814
MAN,49,0,2024-06-19T03:25:58.028Z,english_596.wav,0,pill,1063,23,3,Japanese,m,7,0.7,-87.58634469,1.96984618
MAN,49,0,2024-06-19T03:25:58.028Z,english_596.wav,0,pill,1063,23,3,Japanese,m,8,0.8,-28.77393345,1.38508216
MAN,49,0,2024-06-19T03:25:58.028Z,english_596.wav,0,pill,1063,23,3,Japanese,m,9,0.9,-89.27970112,1.05217053
MAN,49,0,2024-06-19T03:25:58.028Z,english_596.wav,0,pill,1063,23,3,Japanese,m,10,1.0,-11.13754725,1.15113027
MAN,49,0,2024-06-19T03:25:58.028Z,english_596.wav,0,pill,1063,23,3,Japanese,m,11,1.09391667,-71.54799937,0.49767302
MAN,50,1,2024-06-19T03:28:58.165Z,english_426.wav,0,peel,1185,23,3,Japanese,m,0,0.0,-67.17987083,1.61589393
MAN,50,1,2024-06-19T03:28:58.165Z,english_426.wav,0,peel,1185,23,3,Japanese,m,1,0.1,70.02176421,1.03467422
MAN,50,1,2024-06-19T03:28:58.165Z,english_426.wav,0,peel,1185,23,3,Japanese,m,2,0.2,82.2704811,1.69488483
MAN,50,1,2024-06-19T03:28:58.165Z,english_426.wav,0,peel,1185,23,3,Japanese,m,3,0.3,-4.42560713,0.26984678
MAN,50,1,2024-06-19T03:28:58.165Z,english_426.wav,0,peel,1185,23,3,Japanese,m,4,0.4,-22.03224373,1.53427209
MAN,50,1,2024-06-19T03:28:58.165Z,english_426.wav,0,peel,1185,23,3,Japanese,m,5,0.5,-71.21536039,1.44135847
MAN,50,1,2024-06-19T03:28:58.165Z,english_426.wav,0,peel,1185,23,3,Japanese,m,6,0.6,23.47193627,0.91698709
MAN,50,1,2024-06-19T03:28:58.165Z,english_426.wav,0,peel,1185,23,3,Japanese,m,7,0.7,-95.21485964,0.33548871
MAN,50,1,2024-06-19T03:28:58.165Z,english_426.wav,0,peel,1185,23,3,Japanese,m,8,0.8,76.54647,1.77334308
MAN,50,1,2024-06-19T03:28:58.165Z,english_426.wav,0,peel,1185,23,3,Japanese,m,9,0.9,67.43828429,1.62177199
MAN,50,1,2024-06-19T03:28:58.165Z,english_426.wav,0,peel,1185,23,3,Japanese,m,10,1.0,-41.3478141,0.29474728
MAN,50,1,2024-06-19T03:28:58.165Z,english_426.wav,0,peel,1185,23,3,Japanese,m,11,1.09391667,-8.81391429,0.79627592
MAN,51,1,2024-06-19T03:28:58.165Z,english_833.wav,0,peel,794,23,3,Japanese,m,0,0.0,-9.82911833,0.41898606
MAN,51,1,2024-06-19T03:28:58.165Z,english_833.wav,0,peel,794,23,3,Japanese,m,1,0.1,26.84576298,1.36279301
MAN,51,1,2024-06-19T03:28:58.165Z,english_833.wav,0,peel,794,23,3,Japanese,m,2,0.2,-28.2282446,1.58440298
MAN,51,1,2024-06-19T03:28:58.165Z,english_833.wav,0,peel,794,23,3,Japanese,m,3,0.3,66.90500865,0.74607222
MAN,51,1,2024-06-19T03:28:58.165Z,english_833.wav,0,peel,794,23,3,Japanese,m,4,0.4,-49.09073162,0.77124081
MAN,51,1,2024-06-19T03:28:58.165Z,english_833.wav,0,peel,794,23,3,Japanese,m,5,0.5,-87.4525088,1.83467454
MAN,51,1,2024-06-19T03:28:58.165Z,english_833.wav,0,peel,794,23,3,Japanese,m,6,0.6,32.13028208,0.88970779
MAN,51,1,2024-06-19T03:28:58.165Z,english_833.wav,0,peel,794,23,3,Japanese,m,7,0.7,-17.61981843,1.25647355
MAN,51,1,2024-06-19T03:28:58.165Z,english_833.wav,0,peel,794,23,3,Japanese,m,8,0.8,-38.32230825,1.59512471
MAN,51,1,2024-06-19T03:28:58.165Z,english_833.wav,0,peel,794,23,3,Japanese,m,9,0.9,65.65277193,0.88454985
MAN,51,1,2024-06-19T03:28:58.165Z,english_833.wav,0,peel,794,23,3,Japanese,m,10,1.0,-65.08326891,1.48034163
MAN,51,1,2024-06-19T03:28:58.165Z,english_833.wav,0,peel,794,23,3,Japanese,m,11,1.09391667,73.10934072,1.02393934
MAN,52,1,2024-06-19T03:28:58.165Z,english_902.wav,0,pill,768,23,3,Japanese,m,0,0.0,14.8305777,0.38500358
MAN,52,1,2024-06-19T03:28:58.165Z,english_902.wav,0,pill,768,23,3,Japanese,m,1,0.1,-47.11140389,1.2332903
MAN,52,1,2024-06-19T03:28:58.165Z,english_902.wav,0,pill,768,23,3,Japanese,m,2,0.2,-96.35329483,1.76615422
MAN,52,1,2024-06-19T03:28:58.165Z,english_902.wav,0,pill,768,23,3,Japanese,m,3,0.3,-31.00015801,0.59488462
MAN,52,1,2024-06-19T03:28:58.165Z,english_902.wav,0,pill,768,23,3,Japanese,m,4,0.4,46.42403561,0.56384869
MAN,52,1,2024-06-19T03:28:58.165Z,english_902.wav,0,pill,768,23,3,Japanese,m,5,0.5,-64.13766191,0.91132343
MAN,52,1,2024-06-19T03:28:58.165Z,english_902.wav,0,pill,768,23,3,Japanese,m,6,0.6,31.93254177,0.03211524
MAN,52,1,2024-06-19T03:28:58.165Z,english_902.wav,0,pill,768,23,3,Japanese,m,7,0.7,-48.59706945,0.95267988
MAN,52,1,2024-06-19T03:28:58.165Z,english_902.wav,0,pill,768,23,3,Japanese,m,8,0.8,22.33610028,1.25460011
MAN,52,1,2024-06-19T03:28:58.165Z,english_902.wav,0,pill,768,23,3,Japanese,m,9,0.9,-29.48809445,1.32807075
MAN,52,1,2024-06-19T03:28:58.165Z,english_902.wav,0,pill,768,23,3,Japanese,m,10,1.0,-64.83953347,0.21654555
MAN,52,1,2024-06-19T03:28:58.165Z,english_902.wav,0,pill,768,23,3,Japanese,m,11,1.09391667,88.52973545,1.72349975
MAN,53,1,2024-06-19T03:28:58.165Z,english_752.wav,0,pill,514,23,3,Japanese,m,0,0.0,52.61686216,1.6341758
MAN,53,1,2024-06-19T03:28:58.165Z,english_752.wav,0,pill,514,23,3,Japanese,m,1,0.1,-18.45204241,0.5397069
MAN,53,1,2024-06-19T03:28:58.165Z,english_752.wav,0,pill,514,23,3,Japanese,m,2,0.2,-6.44553856,1.4905668
MAN,53,1,2024-06-19T03:28:58.165Z,english_752.wav,0,pill,514,23,3,Japanese,m,3,0.3,54.48685686,0.49055919
MAN,53,1,2024-06-19T03:28:58.165Z,english_752.wav,0,pill,514,23,3,Japanese,m,4,0.4,-14.12902415,1.50348136
MAN,53,1,2024-06-19T03:28:58.165Z,english_752.wav,0,pill,514,23,3,Japanese,m,5,0.5,-68.0514313,0.53453917
MAN,53,1,2024-06-19T03:28:58.165Z,english_752.wav,0,pill,514,23,3,Japanese,m,6,0.6,-35.48747748,1.00064578
MAN,53,1,2024-06-19T03:28:58.165Z,english_752.wav,0,pill,514,23,3,Japanese,m,7,0.7,-40.39140323,0.9078798
MAN,53,1,2024-06-19T03:28:58.165Z,english_752.wav,0,pill,514,23,3,Japanese,m,8,0.8,-44.26325446,1.8374475
MAN,53,1,2024-06-19T03:28:58.165Z,english_752.wav,0,pill,514,23,3,Japanese,m,9,0.9,18.34874791,0.61675218
MAN,53,1,2024-06-19T03:28:58.165Z,english_752.wav,0,pill,514,23,3,Japanese,m,10,1.0,-42.03859304,0.24596276
MAN,53,1,2024-06-19T03:28:58.165Z,english_752.wav,0,pill,514,23,3,Japanese,m,11,1.09391667,68.7756392,0.85105991
MAN,54,1,2024-06-19T03:28:58.165Z,english_919.wav,0,pill,361,23,3,Japanese,m,0,0.0,-38.5670272,0.46903116
MAN,54,1,2024-06-19T03:28:58.165Z,english_919.wav,0,pill,361,23,3,Japanese,m,1,0.1,2.77922896,1.08350321
MAN,54,1,2024-06-19T03:28:58.165Z,english_919.wav,0,pill,361,23,3,Japanese,m,2,0.2,49.85197562,1.32793945
MAN,54,1,2024-06-19T03:28:58.165Z,english_919.wav,0,pill,361,23,3,Japanese,m,3,0.3,77.76044208,0.31154992
MAN,54,1,2024-06-19T03:28:58.165Z,english_919.wav,0,pill,361,23,3,Japanese,m,4,0.4,-29.8394914,0.67118234
MAN,54,1,2024-06-19T03:28:58.165Z,english_919.wav,0,pill,361,23,3,Japanese,m,5,0.5,-0.49098681,0.74590894
MAN,54,1,2024-06-19T03:28:58.165Z,english_919.wav,0,pill,361,23,3,Japanese,m,6,0.6,-75.25398624,1.99224787
MAN,54,1,2024-06-19T03:28:58.165Z,english_919.wav,0,pill,361,23,3,Japanese,m,7,0.7,-69.6637691,0.78909547
MAN,54,1,2024-06-19T03:28:58.165Z,english_919.wav,0,pill,361,23,3,Japanese,m,8,0.8,72.91981936,0.46679106
MAN,54,1,2024-06-19T03:28:58.165Z,english_919.wav,0,pill,361,23,3,Japanese,m,9,0.9,-53.88815215,0.60556238
MAN,54,1,2024-06-19T03:28:58.165Z,english_919.wav,0,pill,361,23,3,Japanese,m,10,1.0,0.89047902,0.47961855
MAN,54,1,2024-06-19T03:28:58.165Z,english_919.wav,0,pill,361,23,3,Japanese,m,11,1.09391667,-50.064946,1.09390391
MAN,55,1,2024-06-19T03:28:58.165Z,english_686.wav,0,pill,1028,23,3,Japanese,m,0,0.0,-67.05425971,1.70124543
MAN,55,1,2024-06-19T03:28:58.165Z,english_686.wav,0,pill,1028,23,3,Japanese,m,1,0.1,-39.97086024,0.46826984
MAN,55,1,2024-06-19T03:28:58.165Z,english_686.wav,0,pill,1028,23,3,Japanese,m,2,0.2,-95.68334926,0.38007699
MAN,55,1,2024-06-19T03:28:58.165Z,english_686.wav,0,pill,1028,23,3,Japanese,m,3,0.3,95.25173903,1.75748907
MAN,55,1,2024-06-19T03:28:58.165Z,english_686.wav,0,pill,1028,23,3,Japanese,m,4,0.4,-32.8311948,0.73728226
MAN,55,1,2024-06-19T03:28:58.165Z,english_686.wav,0,pill,1028,23,3,Japanese,m,5,0.5,-48.95766653,0.66391126
MAN,55,1,2024-06-19T03:28:58.165Z,english_686.wav,0,pill,1028,23,3,Japanese,m,6,0.6,1.46673541,0.49234924
MAN,55,1,2024-06-19T03:28:58.165Z,english_686.wav,0,pill,1028,23,3,Japanese,m,7,0.7,2.82521342,1.58569933
MAN,55,1,2024-06-19T03:28:58.165Z,english_686.wav,0,pill,1028,23,3,Japanese,m,8,0.8,-50.40490355,0.73602174
MAN,55,1,2024-06-19T03:28:58.165Z,english_686.wav,0,pill,1028,23,3,Japanese,m,9,0.9,-13.31081272,0.69160948
MAN,55,1,2024-06-19T03:28:58.165Z,english_686.wav,0,pill,1028,23,3,Japanese,m,10,1.0,86.45331077,1.60918627
MAN,55,1,2024-06-19T03:28:58.165Z,english_686.wav,0,pill,1028,23,3,Japanese,m,11,1.09391667,27.45785802,0.82158227
MAN,56,1,2024-06-19T03:28:58.165Z,english_282.wav,0,pill,1118,23,3,Japanese,m,0,0.0,79.51809952,1.2792911
MAN,56,1,2024-06-19T03:28:58.165Z,english_282.wav,0,pill,1118,23,3,Japanese,m,1,0.1,55.92109115,0.93344042
MAN,56,1,2024-06-19T03:28:58.165Z,english_282.wav,0,pill,1118,23,3,Japanese,m,2,0.2,36.01060515,1.94968889
MAN,56,1,2024-06-19T03:28:58.165Z,english_282.wav,0,pill,1118,23,3,Japanese,m,3,0.3,4.60281664,1.12428424
MAN,56,1,2024-06-19T03:28:58.165Z,english_282.wav,0,pill,1118,23,3,Japanese,m,4,0.4,35.69966579,0.7610034
MAN,56,1,2024-06-19T03:28:58.165Z,english_282.wav,0,pill,1118,23,3,Japanese,m,5,0.5,-79.87721836,0.66186596
MAN,56,1,2024-06-19T03:28:58.165Z,english_282.wav,0,pill,1118,23,3,Japanese,m,6,0.6,-3.98252218,0.57211865
MAN,56,1,2024-06-19T03:28:58.165Z,english_282.wav,0,pill,1118,23,3,Japanese,m,7,0.7,-78.10052274,0.40544896
MAN,56,1,2024-06-19T03:28:58.165Z,english_282.wav,0,pill,1118,23,3,Japanese,m,8,0.8,69.1474283,0.68156422
MAN,56,1,2024-06-19T03:28:58.165Z,english_282.wav,0,pill,1118,23,3,Japanese,m,9,0.9,58.09261901,0.87028019
MAN,56,1,2024-06-19T03:28:58.165Z,english_282.wav,0,pill,1118,23,3,Japanese,m,10,1.0,94.50826365,1.91563213
MAN,56,1,2024-06-19T03:28:58.165Z,english_282.wav,0,pill,1118,23,3,Japanese,m,11,1.09391667,71.90418642,1.01931827
MAN,57,1,2024-06-19T03:28:58.165Z,english_286.wav,0,pill,631,23,3,Japanese,m,0,0.0,0.49465201,1.96185882
MAN,57,1,2024-06-19T03:28:58.165Z,english_286.wav,0,pill,631,23,3,Japanese,m,1,0.1,64.40982078,1.76039517
MAN,57,1,2024-06-19T03:28:58.165Z,english_286.wav,0,pill,631,23,3,Japanese,m,2,0.2,-93.96239431,1.34043253
MAN,57,1,2024-06-19T03:28:58.165Z,english_286.wav,0,pill,631,23,3,Japanese,m,3,0.3,54.29050788,0.77251354
MAN,57,1,2024-06-19T03:28:58.165Z,english_286.wav,0,pill,631,23,3,Japanese,m,4,0.4,-73.71749202,0.68573738
MAN,57,1,2024-06-19T03:28:58.165Z,english_286.wav,0,pill,631,23,3,Japanese,m,5,0.5,-94.88438502,1.47035372
MAN,57,1,2024-06-19T03:28:58.165Z,english_286.wav,0,pill,631,23,3,Japanese,m,6,0.6,49.75760882,1.55594088
MAN,57,1,2024-06-19T03:28:58.165Z,english_286.wav,0,pill,631,23,3,Japanese,m,7,0.7,-11.70467758,0.26425441
MAN,57,1,2024-06-19T03:28:58.165Z,english_286.wav,0,pill,631,23,3,Japanese,m,8,0.8,-44.05163422,0.00260426
MAN,57,1,2024-06-19T03:28:58.165Z,english_286.wav,0,pill,631,23,3,Japanese,m,9,0.9,34.33178767,0.41622396
MAN,57,1,2024-06-19T03:28:58.165Z,english_286.wav,0,pill,631,23,3,Japanese,m,10,1.0,-45.07278599,1.49433758
MAN,57,1,2024-06-19T03:28:58.165Z,english_286.wav,0,pill,631,23,3,Japanese,m,11,1.09391667,-7.38383513,1.90052724
MAN,58,1,2024-06-19T03:28:58.165Z,english_21.wav,0,pill,1092,23,3,Japanese,m,0,0.0,-92.93238975,1.42780018
MAN,58,1,2024-06-19T03:28:58.165Z,english_21.wav,0,pill,1092,23,3,Japanese,m,1,0.1,28.88119071,1.12059603
MAN,58,1,2024-06-19T03:28:58.165Z,english_21.wav,0,pill,1092,23,3,Japanese,m,2,0.2,26.75659422,0.11228596
MAN,58,1,2024-06-19T03:28:58.165Z,english_21.wav,0,pill,1092,23,3,Japanese,m,3,0.3,84.25033289,1.44253616
MAN,58,1,2024-06-19T03:28:58.165Z,english_21.wav,0,pill,1092,23,3,Japanese,m,4,0.4,-63.52476529,0.8833185
MAN,58,1,2024-06-19T03:28:58.165Z,english_21.wav,0,pill,1092,23,3,Japanese,m,5,0.5,17.24927989,1.19555363
MAN,58,1,2024-06-19T03:28:58.165Z,english_21.wav,0,pill,1092,23,3,Japanese,m,6,0.6,51.24429763,1.82378504
MAN,58,1,2024-06-19T03:28:58.165Z,english_21.wav,0,pill,1092,23,3,Japanese,m,7,0.7,-49.66599845,0.34338191
MAN,58,1,2024-06-19T03:28:58.165Z,english_21.wav,0,pill,1092,23,3,Japanese,m,8,0.8,63.10207102,1.63020131
MAN,58,1,2024-06-19T03:28:58.165Z,english_21.wav,0,pill,1092,23,3,Japanese,m,9,0.9,10.69932434,0.5370763
MAN,58,1,2024-06-19T03:28:58.165Z,english_21.wav,0,pill,1092,23,3,Japanese,m,10,1.0,77.88197251,1.08980212
MAN,58,1,2024-06-19T03:28:58.165Z,english_21.wav,0,pill,1092,23,3,Japanese,m,11,1.09391667,-71.28425317,0.35221603
MAN,59,1,2024-06-19T03:28:58.165Z,english_769.wav,0,pill,598,23,3,Japanese,m,0,0.0,-5.59008464,1.9459955
MAN,59,1,2024-06-19T03:28:58.165Z,english_769.wav,0,pill,598,23,3,Japanese,m,1,0.1,23.87135474,1.03760396
MAN,59,1,2024-06-19T03:28:58.165Z,english_769.wav,0,pill,598,23,3,Japanese,m,2,0.2,-59.27059617,0.52841708
MAN,59,1,2024-06-19T03:28:58.165Z,english_769.wav,0,pill,598,23,3,Japanese,m,3,0.3,-3.79644123,1.18808585
MAN,59,1,2024-06-19T03:28:58.165Z,english_769.wav,0,pill,598,23,3,Japanese,m,4,0.4,-24.49258802,1.53084487
MAN,59,1,2024-06-19T03:28:58.165Z,english_769.wav,0,pill,598,23,3,Japanese,m,5,0.5,-9.70740252,1.19743676
MAN,59,1,2024-06-19T03:28:58.165Z,english_769.wav,0,pill,598,23,3,Japanese,m,6,0.6,93.2382904,1.07802649
MAN,59,1,2024-06-19T03:28:58.165Z,english_769.wav,0,pill,598,23,3,Japanese,m,7,0.7,-80.61523432,1.54041051
MAN,59,1,2024-06-19T03:28:58.165Z,english_769.wav,0,pill,598,23,3,Japanese,m,8,0.8,-68.01598802,0.02132601
MAN,59,1,2024-06-19T03:28:58.165Z,english_769.wav,0,pill,598,23,3,Japanese,m,9,0.9,62.98223399,1.71898352
MAN,59,1,2024-06-19T03:28:58.165Z,english_769.wav,0,pill,598,23,3,Japanese,m,10,1.0,-20.64225602,1.35496449
MAN,59,1,2024-06-19T03:28:58.165Z,english_769.wav,0,pill,598,23,3,Japanese,m,11,1.09391667,-61.6915353,1.18680032
MAN,60,1,2024-06-19T03:28:58.165Z,english_317.wav,0,pill,317,23,3,Japanese,m,0,0.0,35.80517537,1.51358533
MAN,60,1,2024-06-19T03:28:58.165Z,english_317.wav,0,pill,317,23,3,Japanese,m,1,0.1,-47.20528256,0.29972078
MAN,60,1,2024-06-19T03:28:58.165Z,english_317.wav,0,pill,317,23,3,Japanese,m,2,0.2,10.16864163,1.18281069
MAN,60,1,2024-06-19T03:28:58.165Z,english_317.wav,0,pill,317,23,3,Japanese,m,3,0.3,32.59206289,1.39231518
MAN,60,1,2024-06-19T03:28:58.165Z,english_317.wav,0,pill,317,23,3,Japanese,m,4,0.4,20.53754814,1.77974686
MAN,60,1,2024-06-19T03:28:58.165Z,english_317.wav,0,pill,317,23,3,Japanese,m,5,0.5,-78.8593211,1.1695001
MAN,60,1,2024-06-19T03:28:58.165Z,english_317.wav,0,pill,317,23,3,Japanese,m,6,0.6,-97.96541086,1.77666203
MAN,60,1,2024-06-19T03:28:58.165Z,english_317.wav,0,pill,317,23,3,Japanese,m,7,0.7,49.60543729,0.8164879
MAN,60,1,2024-06-19T03:28:58.165Z,english_317.wav,0,pill,317,23,3,Japanese,m,8,0.8,-69.92457952,0.08502592
MAN,60,1,2024-06-19T03:28:58.165Z,english_317.wav,0,pill,317,23,3,Japanese,m,9,0.9,-3.69767957,1.29069951
MAN,60,1,2024-06-19T03:28:58.165Z,english_317.wav,0,pill,317,23,3,Japanese,m,10,1.0,-3.35302539,0.64002495
MAN,60,1,2024-06-19T03:28:58.165Z,english_317.wav,0,pill,317,23,3,Japanese,m,11,1.09391667,29.32411719,1.74584587
MAN,61,1,2024-06-19T03:28:58.165Z,english_304.wav,0,pill,681,23,3,Japanese,m,0,0.0,96.43315713,1.4273089
MAN,61,1,2024-06-19T03:28:58.165Z,english_304.wav,0,pill,681,23,3,Japanese,m,1,0.1,95.93138412,1.40169358
MAN,61,1,2024-06-19T03:28:58.165Z,english_304.wav,0,pill,681,23,3,Japanese,m,2,0.2,65.83383482,1.37134036
MAN,61,1,2024-06-19T03:28:58.165Z,english_304.wav,0,pill,681,23,3,Japanese,m,3,0.3,84.09537744,0.09577365
MAN,61,1,2024-06-19T03:28:58.165Z,english_304.wav,0,pill,681,23,3,Japanese,m,4,0.4,-66.2474925,1.82897854
MAN,61,1,2024-06-19T03:28:58.165Z,english_304.wav,0,pill,681,23,3,Japanese,m,5,0.5,93.4095627,0.08231512
MAN,61,1,2024-06-19T03:28:58.165Z,english_304.wav,0,pill,681,23,3,Japanese,m,6,0.6,-1.11643,0.16260787
MAN,61,1,2024-06-19T03:28:58.165Z,english_304.wav,0,pill,681,23,3,Japanese,m,7,0.7,-9.86041812,1.3997004
MAN,61,1,2024-06-19T03:28:58.165Z,english_304.wav,0,pill,681,23,3,Japanese,m,8,0.8,-26.38054207,0.11489059
MAN,61,1,2024-06-19T03:28:58.165Z,english_304.wav,0,pill,681,23,3,Japanese,m,9,0.9,9.25483922,1.90722294
MAN,61,1,2024-06-19T03:28:58.165Z,english_304.wav,0,pill,681,23,3,Japanese,m,10,1.0,-76.37569973,1.30374267
MAN,61,1,2024-06-19T03:28:58.165Z,english_304.wav,0,pill,681,23,3,Japanese,m,11,1.09391667,-10.54226117,1.55839178
MAN,62,1,2024-06-19T03:28:58.165Z,english_940.wav,0,pill,514,23,3,Japanese,m,0,0.0,-74.78707904,1.32849745
MAN,62,1,2024-06-19T03:28:58.165Z,english_940.wav,0,pill,514,23,3,Japanese,m,1,0.1,-17.41948052,0.12464251
MAN,62,1,2024-06-19T03:28:58.165Z,english_940.wav,0,pill,514,23,3,Japanese,m,2,0.2,18.32757183,1.60919877
MAN,62,1,2024-06-19T03:28:58.165Z,english_940.wav,0,pill,514,23,3,Japanese,m,3,0.3,49.59676146,1.26515186
MAN,62,1,2024-06-19T03:28:58.165Z,english_940.wav,0,pill,514,23,3,Japanese,m,4,0.4,89.11302511,0.36425632
MAN,62,1,2024-06-19T03:28:58.165Z,english_940.wav,0,pill,514,23,3,Japanese,m,5,0.5,-54.90271493,0.18773625
MAN,62,1,2024-06-19T03:28:58.165Z,english_940.wav,0,pill,514,23,3,Japanese,m,6,0.6,5.52128104,1.95544511
MAN,62,1,2024-06-19T03:28:58.165Z,english_940.wav,0,pill,514,23,3,Japanese,m,7,0.7,6.34300122,0.05018426
MAN,62,1,2024-06-19T03:28:58.165Z,english_940.wav,0,pill,514,23,3,Japanese,m,8,0.8,-52.23900499,0.91238744
MAN,62,1,2024-06-19T03:28:58.165Z,english_940.wav,0,pill,514,23,3,Japanese,m,9,0.9,-91.70083374,1.89571163
MAN,62,1,2024-06-19T03:28:58.165Z,english_940.wav,0,pill,514,23,3,Japanese,m,10,1.0,-59.86037194,1.52579837
MAN,62,1,2024-06-19T03:28:58.165Z,english_940.wav,0,pill,514,23,3,Japanese,m,11,1.09391667,44.21269836,0.42550386
MAN,63,1,2024-06-19T03:28:58.165Z,english_608.wav,0,peel,225,23,3,Japanese,m,0,0.0,51.7664081,1.51537713
MAN,63,1,2024-06-19T03:28:58.165Z,english_608.wav,0,peel,225,23,3,Japanese,m,1,0.1,-80.54246428,0.15028224
MAN,63,1,2024-06-19T03:28:58.165Z,english_608.wav,0,peel,225,23,3,Japanese,m,2,0.2,-77.98130797,1.81254149
MAN,63,1,2024-06-19T03:28:58.165Z,english_608.wav,0,peel,225,23,3,Japanese,m,3,0.3,25.40612748,1.88904665
MAN,63,1,2024-06-19T03:28:58.165Z,english_608.wav,0,peel,225,23,3,Japanese,m,4,0.4,-25.13261416,0.02307613
MAN,63,1,2024-06-19T03:28:58.165Z,english_608.wav,0,peel,225,23,3,Japanese,m,5,0.5,-47.23330204,1.59293411
MAN,63,1,2024-06-19T03:28:58.165Z,english_608.wav,0,peel,225,23,3,Japanese,m,6,0.6,80.77508225,1.34709582
MAN,63,1,2024-06-19T03:28:58.165Z,english_608.wav,0,peel,225,23,3,Japanese,m,7,0.7,-91.19719701,0.43937258
MAN,63,1,2024-06-19T03:28:58.165Z,english_608.wav,0,peel,225,23,3,Japanese,m,8,0.8,-56.07696763,1.30698023
MAN,63,1,2024-06-19T03:28:58.165Z,english_608.wav,0,peel,225,23,3,Japanese,m,9,0.9,-57.98593589,1.72852212
MAN,63,1,2024-06-19T03:28:58.165Z,english_608.wav,0,peel,225,23,3,Japanese,m,10,1.0,87.03595353,1.13440146
MAN,63,1,2024-06-19T03:28:58.165Z,english_608.wav,0,peel,225,23,3,Japanese,m,11,1.09391667,-36.96026424,1.09789882
MAN,64,1,2024-06-19T03:28:58.165Z,english_676.wav,0,pill,1152,23,3,Japanese,m,0,0.0,77.23951032,1.33259474
MAN,64,1,2024-06-19T03:28:58.165Z,english_676.wav,0,pill,1152,23,3,Japanese,m,1,0.1,27.47427545,0.90028372
MAN,64,1,2024-06-19T03:28:58.165Z,english_676.wav,0,pill,1152,23,3,Japanese,m,2,0.2,92.07370265,1.66717955
MAN,64,1,2024-06-19T03:28:58.165Z,english_676.wav,0,pill,1152,23,3,Japanese,m,3,0.3,-39.62602007,0.42158585
MAN,64,1,2024-06-19T03:28:58.165Z,english_676.wav,0,pill,1152,23,3,Japanese,m,4,0.4,-81.22107243,1.7878255
MAN,64,1,2024-06-19T03:28:58.165Z,english_676.wav,0,pill,1152,23,3,Japanese,m,5,0.5,-99.04707649,1.33780608
MAN,64,1,2024-06-19T03:28:58.165Z,english_676.wav,0,pill,1152,23,3,Japanese,m,6,0.6,-64.5180536,0.94548991
MAN,64,1,2024-06-19T03:28:58.165Z,english_676.wav,0,pill,1152,23,3,Japanese,m,7,0.7,91.29392748,1.43207041
MAN,64,1,2024-06-19T03:28:58.165Z,english_676.wav,0,pill,1152,23,3,Japanese,m,8,0.8,97.8635705,1.03085722
MAN,64,1,2024-06-19T03:28:58.165Z,english_676.wav,0,pill,1152,23,3,Japanese,m,9,0.9,-84.2423741,0.34895699
MAN,64,1,2024-06-19T03:28:58.165Z,english_676.wav,0,pill,1152,23,3,Japanese,m,10,1.0,-76.68596269,0.83720355
MAN,64,1,2024-06-19T03:28:58.165Z,english_676.wav,0,pill,1152,23,3,Japanese,m,11,1.09391667,65.10857552,1.31764415
MAN,65,1,2024-06-19T03:28:58.165Z,english_517.wav,0,pill,607,23,3,Japanese,m,0,0.0,66.65099922,0.14059347
MAN,65,1,2024-06-19T03:28:58.165Z,english_517.wav,0,pill,607,23,3,Japanese,m,1,0.1,-25.70388075,0.04284068
MAN,65,1,2024-06-19T03:28:58.165Z,english_517.wav,0,pill,607,23,3,Japanese,m,2,0.2,-22.37896652,0.61477249
MAN,65,1,2024-06-19T03:28:58.165Z,english_517.wav,0,pill,607,23,3,Japanese,m,3,0.3,-6.57908025,0.586151
MAN,65,1,2024-06-19T03:28:58.165Z,english_517.wav,0,pill,607,23,3,Japanese,m,4,0.4,14.90197081,0.82467301
MAN,65,1,2024-06-19T03:28:58.165Z,english_517.wav,0,pill,607,23,3,Japanese,m,5,0.5,28.13310888,1.4846696
MAN,65,1,2024-06-19T03:28:58.165Z,english_517.wav,0,pill,607,23,3,Japanese,m,6,0.6,67.72161666,1.87560286
MAN,65,1,2024-06-19T03:28:58.165Z,english_517.wav,0,pill,607,23,3,Japanese,m,7,0.7,-79.77738636,0.86888635
MAN,65,1,2024-06-19T03:28:58.165Z,english_517.wav,0,pill,607,23,3,Japanese,m,8,0.8,-9.62789869,0.65753642
MAN,65,1,2024-06-19T03:28:58.165Z,english_517.wav,0,pill,607,23,3,Japanese,m,9,0.9,-43.36595112,1.72637139
MAN,65,1,2024-06-19T03:28:58.165Z,english_517.wav,0,pill,607,23,3,Japanese,m,10,1.0,-65.22090713,0.00479054
MAN,65,1,2024-06-19T03:28:58.165Z,english_517.wav,0,pill,607,23,3,Japanese,m,11,1.09391667,93.99451349,1.63350936
MAN,66,1,2024-06-19T03:28:58.165Z,english_551.wav,0,pill,637,23,3,Japanese,m,0,0.0,-6.7580407,1.36908338
MAN,66,1,2024-06-19T03:28:58.165Z,english_551.wav,0,pill,637,23,3,Japanese,m,1,0.1,35.07051515,1.9104602
MAN,66,1,2024-06-19T03:28:58.165Z,english_551.wav,0,pill,637,23,3,Japanese,m,2,0.2,-13.38429881,0.46910503
MAN,66,1,2024-06-19T03:28:58.165Z,english_551.wav,0,pill,637,23,3,Japanese,m,3,0.3,37.09878084,1.97066888
MAN,66,1,2024-06-19T03:28:58.165Z,english_551.wav,0,pill,637,23,3,Japanese,m,4,0.4,-63.7004989,1.03915964
MAN,66,1,2024-06-19T03:28:58.165Z,english_551.wav,0,pill,637,23,3,Japanese,m,5,0.5,38.07544061,0.03518646
MAN,66,1,2024-06-19T03:28:58.165Z,english_551.wav,0,pill,637,23,3,Japanese,m,6,0.6,-3.84658335,0.35806175
MAN,66,1,2024-06-19T03:28:58.165Z,english_551.wav,0,pill,637,23,3,Japanese,m,7,0.7,-70.82168474,1.2923355
MAN,66,1,2024-06-19T03:28:58.165Z,english_551.wav,0,pill,637,23,3,Japanese,m,8,0.8,15.89042936,0.94769204
MAN,66,1,2024-06-19T03:28:58.165Z,english_551.wav,0,pill,637,23,3,Japanese,m,9,0.9,11.36542465,1.13768641
MAN,66,1,2024-06-19T03:28:58.165Z,english_551.wav,0,pill,637,23,3,Japanese,m,10,1.0,48.05239425,1.46377274
MAN,66,1,2024-06-19T03:28:58.165Z,english_551.wav,0,pill,637,23,3,Japanese,m,11,1.09391667,-25.45868434,1.28141809
MAN,67,1,2024-06-19T03:28:58.165Z,english_794.wav,0,peel,2456,23,3,Japanese,m,0,0.0,-94.32956865,0.17232345
MAN,67,1,2024-06-19T03:28:58.165Z,english_794.wav,0,peel,2456,23,3,Japanese,m,1,0.1,-54.44529308,0.63768668
MAN,67,1,2024-06-19T03:28:58.165Z,english_794.wav,0,peel,2456,23,3,Japanese,m,2,0.2,41.27752313,0.54334699
MAN,67,1,2024-06-19T03:28:58.165Z,english_794.wav,0,peel,2456,23,3,Japanese,m,3,0.3,-24.41011935,0.41814183
MAN,67,1,2024-06-19T03:28:58.165Z,english_794.wav,0,peel,2456,23,3,Japanese,m,4,0.4,-17.86009113,0.83205575
MAN,67,1,2024-06-19T03:28:58.165Z,english_794.wav,0,peel,2456,23,3,Japanese,m,5,0.5,70.96620098,1.38587001
MAN,67,1,2024-06-19T03:28:58.165Z,english_794.wav,0,peel,2456,23,3,Japanese,m,6,0.6,-6.92588192,0.50257762
MAN,67,1,2024-06-19T03:28:58.165Z,english_794.wav,0,peel,2456,23,3,Japanese,m,7,0.7,1.86567935,1.6396819
MAN,67,1,2024-06-19T03:28:58.165Z,english_794.wav,0,peel,2456,23,3,Japanese,m,8,0.8,85.29780195,1.19491374
MAN,67,1,2024-06-19T03:28:58.165Z,english_794.wav,0,peel,2456,23,3,Japanese,m,9,0.9,66.99714839,0.22376499
MAN,67,1,2024-06-19T03:28:58.165Z,english_794.wav,0,peel,2456,23,3,Japanese,m,10,1.0,34.72052642,0.81945326
MAN,67,1,2024-06-19T03:28:58.165Z,english_794.wav,0,peel,2456,23,3,Japanese,m,11,1.09391667,18.1862992,1.51337696
MAN,68,1,2024-06-19T03:28:58.165Z,english_212.wav,0,peel,262,23,3,Japanese,m,0,0.0,7.28178662,1.69718484
MAN,68,1,2024-06-19T03:28:58.165Z,english_212.wav,0,peel,262,23,3,Japanese,m,1,0.1,53.30309055,0.86840916
MAN,68,1,2024-06-19T03:28:58.165Z,english_212.wav,0,peel,262,23,3,Japanese,m,2,0.2,9.81131056,0.62741544
MAN,68,1,2024-06-19T03:28:58.165Z,english_212.wav,0,peel,262,23,3,Japanese,m,3,0.3,-90.32961485,1.93796864
MAN,68,1,2024-06-19T03:28:58.165Z,english_212.wav,0,peel,262,23,3,Japanese,m,4,0.4,16.20847807,1.96151684
MAN,68,1,2024-06-19T03:28:58.165Z,english_212.wav,0,peel,262,23,3,Japanese,m,5,0.5,-12.76815096,0.98998478
MAN,68,1,2024-06-19T03:28:58.165Z,english_212.wav,0,peel,262,23,3,Japanese,m,6,0.6,93.86097069,1.74396039
MAN,68,1,2024-06-19T03:28:58.165Z,english_212.wav,0,peel,262,23,3,Japanese,m,7,0.7,39.57297318,1.59359998
MAN,68,1,2024-06-19T03:28:58.165Z,english_212.wav,0,peel,262,23,3,Japanese,m,8,0.8,-19.22688735,1.3284153
MAN,68,1,2024-06-19T03:28:58.165Z,english_212.wav,0,peel,262,23,3,Japanese,m,9,0.9,-71.99383643,1.90824048
MAN,68,1,2024-06-19T03:28:58.165Z,english_212.wav,0,peel,262,23,3,Japanese,m,10,1.0,5.42324024,1.38687745
MAN,68,1,2024-06-19T03:28:58.165Z,english_212.wav,0,peel,262,23,3,Japanese,m,11,1.09391667,-66.1565739,0.48487656
MAN,69,1,2024-06-19T03:28:58.165Z,english_24.wav,0,pill,531,23,3,Japanese,m,0,0.0,19.80934614,1.72303363
MAN,69,1,2024-06-19T03:28:58.165Z,english_24.wav,0,pill,531,23,3,Japanese,m,1,0.1,18.47296287,1.17223446
MAN,69,1,2024-06-19T03:28:58.165Z,english_24.wav,0,pill,531,23,3,Japanese,m,2,0.2,-87.44087303,0.32252022
MAN,69,1,2024-06-19T03:28:58.165Z,english_24.wav,0,pill,531,23,3,Japanese,m,3,0.3,-24.76838412,1.29113778
MAN,69,1,2024-06-19T03:28:58.165Z,english_24.wav,0,pill,531,23,3,Japanese,m,4,0.4,28.54854922,1.23026356
MAN,69,1,2024-06-19T03:28:58.165Z,english_24.wav,0,pill,531,23,3,Japanese,m,5,0.5,-93.00925389,1.272094
MAN,69,1,2024-06-19T03:28:58.165Z,english_24.wav,0,pill,531,23,3,Japanese,m,6,0.6,43.83851229,1.03857334
MAN,69,1,2024-06-19T03:28:58.165Z,english_24.wav,0,pill,531,23,3,Japanese,m,7,0.7,56.50445967,0.04355902
MAN,69,1,2024-06-19T03:28:58.165Z,english_24.wav,0,pill,531,23,3,Japanese,m,8,0.8,-34.51680679,1.12262583
MAN,69,1,2024-06-19T03:28:58.165Z,english_24.wav,0,pill,531,23,3,Japanese,m,9,0.9,77.91008798,0.83275479
MAN,69,1,2024-06-19T03:28:58.165Z,english_24.wav,0,pill,531,23,3,Japanese,m,10,1.0,22.21951013,0.49987962
MAN,69,1,2024-06-19T03:28:58.165Z,english_24.wav,0,pill,531,23,3,Japanese,m,11,1.09391667,44.21755505,0.6404637
MAN,70,1,2024-06-19T03:28:58.165Z,english_807.wav,0,pill,446,23,3,Japanese,m,0,0.0,-34.7601745,1.20965337
MAN,70,1,2024-06-19T03:28:58.165Z,english_807.wav,0,pill,446,23,3,Japanese,m,1,0.1,33.36048689,1.65563234
MAN,70,1,2024-06-19T03:28:58.165Z,english_807.wav,0,pill,446,23,3,Japanese,m,2,0.2,-67.67370502,1.59964516
MAN,70,1,2024-06-19T03:28:58.165Z,english_807.wav,0,pill,446,23,3,Japanese,m,3,0.3,-75.303265,0.1616649
MAN,70,1,2024-06-19T03:28:58.165Z,english_807.wav,0,pill,446,23,3,Japanese,m,4,0.4,50.02795893,0.65690397
MAN,70,1,2024-06-19T03:28:58.165Z,english_807.wav,0,pill,446,23,3,Japanese,m,5,0.5,-86.15237501,1.06047173
MAN,70,1,2024-06-19T03:28:58.165Z,english_807.wav,0,pill,446,23,3,Japanese,m,6,0.6,75.95576156,1.33167503
MAN,70,1,2024-06-19T03:28:58.165Z,english_807.wav,0,pill,446,23,3,Japanese,m,7,0.7,90.49040763,0.49356808
MAN,70,1,2024-06-19T03:28:58.165Z,english_807.wav,0,pill,446,23,3,Japanese,m,8,0.8,-21.66303016,0.55567292
MAN,70,1,2024-06-19T03:28:58.165Z,english_807.wav,0,pill,446,23,3,Japanese,m,9,0.9,-29.03621191,1.52247069
MAN,70,1,2024-06-19T03:28:58.165Z,english_807.wav,0,pill,446,23,3,Japanese,m,10,1.0,-43.10401298,1.04125391
MAN,70,1,2024-06-19T03:28:58.165Z,english_807.wav,0,pill,446,23,3,Japanese,m,11,1.09391667,15.25709301,0.73437953
MAN,71,1,2024-06-19T03:28:58.165Z,english_295.wav,0,pill,375,23,3,Japanese,m,0,0.0,-21.33588045,0.64007693
MAN,71,1,2024-06-19T03:28:58.165Z,english_295.wav,0,pill,375,23,3,Japanese,m,1,0.1,28.18111365,0.36210443
MAN,71,1,2024-06-19T03:28:58.165Z,english_295.wav,0,pill,375,23,3,Japanese,m,2,0.2,-11.21795953,0.97510536
MAN,71,1,2024-06-19T03:28:58.165Z,english_295.wav,0,pill,375,23,3,Japanese,m,3,0.3,-75.82203472,1.22570619
MAN,71,1,2024-06-19T03:28:58.165Z,english_295.wav,0,pill,375,23,3,Japanese,m,4,0.4,36.75980824,1.08813481
MAN,71,1,2024-06-19T03:28:58.165Z,english_295.wav,0,pill,375,23,3,Japanese,m,5,0.5,82.52508149,1.82668288
MAN,71,1,2024-06-19T03:28:58.165Z,english_295.wav,0,pill,375,23,3,Japanese,m,6,0.6,-2.95672331,0.03453598
MAN,71,1,2024-06-19T03:28:58.165Z,english_295.wav,0,pill,375,23,3,Japanese,m,7,0.7,78.98755658,1.07945409
MAN,71,1,2024-06-19T03:28:58.165Z,english_295.wav,0,pill,375,23,3,Japanese,m,8,0.8,34.02541903,0.06380248
MAN,71,1,2024-06-19T03:28:58.165Z,english_295.wav,0,pill,375,23,3,Japanese,m,9,0.9,40.25185798,0.46673817
MAN,71,1,2024-06-19T03:28:58.165Z,english_295.wav,0,pill,375,23,3,Japanese,m,10,1.0,-23.49198504,0.55804019
MAN,71,1,2024-06-19T03:28:58.165Z,english_295.wav,0,pill,375,23,3,Japanese,m,11,1.09391667,43.4619086,0.67911388
MAN,72,1,2024-06-19T03:28:58.165Z,english_698.wav,0,pill,8301,23,3,Japanese,m,0,0.0,-98.49976842,0.43179997
MAN,72,1,2024-06-19T03:28:58.165Z,english_698.wav,0,pill,8301,23,3,Japanese,m,1,0.1,97.00885889,1.41337894
MAN,72,1,2024-06-19T03:28:58.165Z,english_698.wav,0,pill,8301,23,3,Japanese,m,2,0.2,54.87082892,1.17184634
MAN,72,1,2024-06-19T03:28:58.165Z,english_698.wav,0,pill,8301,23,3,Japanese,m,3,0.3,-24.25113459,0.60534302
MAN,72,1,2024-06-19T03:28:58.165Z,english_698.wav,0,pill,8301,23,3,Japanese,m,4,0.4,-19.41361559,1.24831976
MAN,72,1,2024-06-19T03:28:58.165Z,english_698.wav,0,pill,8301,23,3,Japanese,m,5,0.5,38.63477703,1.39113252
MAN,72,1,2024-06-19T03:28:58.165Z,english_698.wav,0,pill,8301,23,3,Japanese,m,6,0.6,-31.74740997,1.28562889
MAN,72,1,2024-06-19T03:28:58.165Z,english_698.wav,0,pill,8301,23,3,Japanese,m,7,0.7,75.16156156,1.10433052
MAN,72,1,2024-06-19T03:28:58.165Z,english_698.wav,0,pill,8301,23,3,Japanese,m,8,0.8,41.06057046,1.08053659
MAN,72,1,2024-06-19T03:28:58.165Z,english_698.wav,0,pill,8301,23,3,Japanese,m,9,0.9,-30.65402234,1.52582563
MAN,72,1,2024-06-19T03:28:58.165Z,english_698.wav,0,pill,8301,23,3,Japanese,m,10,1.0,-13.5987644,0.95244876
MAN,72,1,2024-06-19T03:28:58.165Z,english_698.wav,0,pill,8301,23,3,Japanese,m,11,1.09391667,-10.25655958,1.39681887
MAN,73,1,2024-06-19T03:28:58.165Z,english_191.wav,0,pill,359,23,3,Japanese,m,0,0.0,-24.02277358,1.0914461
MAN,73,1,2024-06-19T03:28:58.165Z,english_191.wav,0,pill,359,23,3,Japanese,m,1,0.1,63.4439463,0.33098092
MAN,73,1,2024-06-19T03:28:58.165Z,english_191.wav,0,pill,359,23,3,Japanese,m,2,0.2,-22.47731103,1.86196051
MAN,73,1,2024-06-19T03:28:58.165Z,english_191.wav,0,pill,359,23,3,Japanese,m,3,0.3,-9.99025732,0.09450542
MAN,73,1,2024-06-19T03:28:58.165Z,english_191.wav,0,pill,359,23,3,Japanese,m,4,0.4,58.56180387,1.1158369
MAN,73,1,2024-06-19T03:28:58.165Z,english_191.wav,0,pill,359,23,3,Japanese,m,5,0.5,62.8001027,0.90347235
MAN,73,1,2024-06-19T03:28:58.165Z,english_191.wav,0,pill,359,23,3,Japanese,m,6,0.6,15.39253294,1.55895669
MAN,73,1,2024-06-19T03:28:58.165Z,english_191.wav,0,pill,359,23,3,Japanese,m,7,0.7,56.82172684,1.11486536
MAN,73,1,2024-06-19T03:28:58.165Z,english_191.wav,0,pill,359,23,3,Japanese,m,8,0.8,-77.92272587,0.70296155
MAN,73,1,2024-06-19T03:28:58.165Z,english_191.wav,0,pill,359,23,3,Japanese,m,9,0.9,-72.7474465,1.56868029
MAN,73,1,2024-06-19T03:28:58.165Z,english_191.wav,0,pill,359,23,3,Japanese,m,10,1.0,-73.86130367,1.33347033
MAN,73,1,2024-06-19T03:28:58.165Z,english_191.wav,0,pill,359,23,3,Japanese,m,11,1.09391667,-78.65780479,1.27370222
MAN,74,1,2024-06-19T03:28:58.165Z,english_841.wav,0,pill,1805,23,3,Japanese,m,0,0.0,13.47649633,0.2030304
MAN,74,1,2024-06-19T03:28:58.165Z,english_841.wav,0,pill,1805,23,3,Japanese,m,1,0.1,-4.31438018,1.4654032
MAN,74,1,2024-06-19T03:28:58.165Z,english_841.wav,0,pill,1805,23,3,Japanese,m,2,0.2,33.0563647,0.99950721
MAN,74,1,2024-06-19T03:28:58.165Z,english_841.wav,0,pill,1805,23,3,Japanese,m,3,0.3,86.84745786,0.04710196
MAN,74,1,2024-06-19T03:28:58.165Z,english_841.wav,0,pill,1805,23,3,Japanese,m,4,0.4,-66.40745707,1.47568135
MAN,74,1,2024-06-19T03:28:58.165Z,english_841.wav,0,pill,1805,23,3,Japanese,m,5,0.5,-45.55484269,1.38964748
MAN,74,1,2024-06-19T03:28:58.165Z,english_841.wav,0,pill,1805,23,3,Japanese,m,6,0.6,-86.08753099,1.63844318
MAN,74,1,2024-06-19T03:28:58.165Z,english_841.wav,0,pill,1805,23,3,Japanese,m,7,0.7,-95.45735959,1.01920512
MAN,74,1,2024-06-19T03:28:58.165Z,english_841.wav,0,pill,1805,23,3,Japanese,m,8,0.8,23.86654109,1.35517017
MAN,74,1,2024-06-19T03:28:58.165Z,english_841.wav,0,pill,1805,23,3,Japanese,m,9,0.9,-11.20743419,1.07128935
MAN,74,1,2024-06-19T03:28:58.165Z,english_841.wav,0,pill,1805,23,3,Japanese,m,10,1.0,-48.1272879,1.6005201
MAN,74,1,2024-06-19T03:28:58.165Z,english_841.wav,0,pill,1805,23,3,Japanese,m,11,1.09391667,65.71403117,1.58502918
MAN,75,1,2024-06-19T03:28:58.165Z,english_567.wav,0,peel,614,23,3,Japanese,m,0,0.0,-50.9933631,1.16123569
MAN,75,1,2024-06-19T03:28:58.165Z,english_567.wav,0,peel,614,23,3,Japanese,m,1,0.1,31.36220977,0.07564958
MAN,75,1,2024-06-19T03:28:58.165Z,english_567.wav,0,peel,614,23,3,Japanese,m,2,0.2,13.5680641,0.67264934
MAN,75,1,2024-06-19T03:28:58.165Z,english_567.wav,0,peel,614,23,3,Japanese,m,3,0.3,-18.75410864,0.76417436
MAN,75,1,2024-06-19T03:28:58.165Z,english_567.wav,0,peel,614,23,3,Japanese,m,4,0.4,-57.83772282,0.9716426
MAN,75,1,2024-06-19T03:28:58.165Z,english_567.wav,0,peel,614,23,3,Japanese,m,5,0.5,90.76203665,1.19685833
MAN,75,1,2024-06-19T03:28:58.165Z,english_567.wav,0,peel,614,23,3,Japanese,m,6,0.6,-98.97367079,0.6509574
MAN,75,1,2024-06-19T03:28:58.165Z,english_567.wav,0,peel,614,23,3,Japanese,m,7,0.7,53.61923561,1.78514313
MAN,75,1,2024-06-19T03:28:58.165Z,english_567.wav,0,peel,614,23,3,Japanese,m,8,0.8,-3.57099992,1.44408837
MAN,75,1,2024-06-19T03:28:58.165Z,english_567.wav,0,peel,614,23,3,Japanese,m,9,0.9,94.7090793,0.5179509
MAN,75,1,2024-06-19T03:28:58.165Z,english_567.wav,0,peel,614,23,3,Japanese,m,10,1.0,93.07088687,1.46519298
MAN,75,1,2024-06-19T03:28:58.165Z,english_567.wav,0,peel,614,23,3,Japanese,m,11,1.09391667,-71.18485827,0.55032839
MAN,76,1,2024-06-19T03:28:58.165Z,english_588.wav,0,pill,307,23,3,Japanese,m,0,0.0,29.91091742,1.28287681
MAN,76,1,2024-06-19T03:28:58.165Z,english_588.wav,0,pill,307,23,3,Japanese,m,1,0.1,29.9060619,1.09118729
MAN,76,1,2024-06-19T03:28:58.165Z,english_588.wav,0,pill,307,23,3,Japanese,m,2,0.2,-35.2299782,0.95294685
MAN,76,1,2024-06-19T03:28:58.165Z,english_588.wav,0,pill,307,23,3,Japanese,m,3,0.3,33.93454747,1.46022219
MAN,76,1,2024-06-19T03:28:58.165Z,english_588.wav,0,pill,307,23,3,Japanese,m,4,0.4,16.01664829,1.6252916
MAN,76,1,2024-06-19T03:28:58.165Z,english_588.wav,0,pill,307,23,3,Japanese,m,5,0.5,-18.70778189,1.19035327
MAN,76,1,2024-06-19T03:28:58.165Z,english_588.wav,0,pill,307,23,3,Japanese,m,6,0.6,-97.06291502,0.90275631
MAN,76,1,2024-06-19T03:28:58.165Z,english_588.wav,0,pill,307,23,3,Japanese,m,7,0.7,13.076942,0.534144
MAN,76,1,2024-06-19T03:28:58.165Z,english_588.wav,0,pill,307,23,3,Japanese,m,8,0.8,50.92498955,0.26255875
MAN,76,1,2024-06-19T03:28:58.165Z,english_588.wav,0,pill,307,23,3,Japanese,m,9,0.9,53.17318001,0.29008288
MAN,76,1,2024-06-19T03:28:58.165Z,english_588.wav,0,pill,307,23,3,Japanese,m,10,1.0,52.34619788,0.99016986
MAN,76,1,2024-06-19T03:28:58.165Z,english_588.wav,0,pill,307,23,3,Japanese,m,11,1.09391667,1.61294986,0.96989244
MAN,77,1,2024-06-19T03:28:58.165Z,english_115.wav,0,pill,417,23,3,Japanese,m,0,0.0,-26.06400201,1.03170605
MAN,77,1,2024-06-19T03:28:58.165Z,english_115.wav,0,pill,417,23,3,Japanese,m,1,0.1,28.0769801,0.8133226
MAN,77,1,2024-06-19T03:28:58.165Z,english_115.wav,0,pill,417,23,3,Japanese,m,2,0.2,0.22454624,0.23304389
MAN,77,1,2024-06-19T03:28:58.165Z,english_115.wav,0,pill,417,23,3,Japanese,m,3,0.3,56.47311496,0.50394373
MAN,77,1,2024-06-19T03:28:58.165Z,english_115.wav,0,pill,417,23,3,Japanese,m,4,0.4,-7.56064775,1.43876449
MAN,77,1,2024-06-19T03:28:58.165Z,english_115.wav,0,pill,417,23,3,Japanese,m,5,0.5,-63.44787447,0.35899171
MAN,77,1,2024-06-19T03:28:58.165Z,english_115.wav,0,pill,417,23,3,Japanese,m,6,0.6,-52.68338839,1.5505321
MAN,77,1,2024-06-19T03:28:58.165Z,english_115.wav,0,pill,417,23,3,Japanese,m,7,0.7,37.43443466,0.2049404
MAN,77,1,2024-06-19T03:28:58.165Z,english_115.wav,0,pill,417,23,3,Japanese,m,8,0.8,-32.93332061,0.392349
