subj,trial,block,date,stim,stim_order,response,rt,param_index,segment,pitch,stretch
MIK07221023,0,0,2024-07-22T01:47:21.843Z,english_488.wav,0,peel,9392,0,0.0,55.6354899,0.91537893
MIK07221023,0,0,2024-07-22T01:47:21.843Z,english_488.wav,0,peel,9392,1,0.1,-10.72836947,1.07736676
MIK07221023,0,0,2024-07-22T01:47:21.843Z,english_488.wav,0,peel,9392,2,0.2,-46.3197066,1.00419914
MIK07221023,0,0,2024-07-22T01:47:21.843Z,english_488.wav,0,peel,9392,3,0.3,14.14356253,1.03753512
MIK07221023,0,0,2024-07-22T01:47:21.843Z,english_488.wav,0,peel,9392,4,0.4,63.48594027,0.37720192
MIK07221023,0,0,2024-07-22T01:47:21.843Z,english_488.wav,0,peel,9392,5,0.5,-15.52389471,1.44514108
MIK07221023,0,0,2024-07-22T01:47:21.843Z,english_488.wav,0,peel,9392,6,0.6,1.31987166,1.5314543
MIK07221023,0,0,2024-07-22T01:47:21.843Z,english_488.wav,0,peel,9392,7,0.7,3.643619,1.0492436
MIK07221023,0,0,2024-07-22T01:47:21.843Z,english_488.wav,0,peel,9392,8,0.8,1.08608347,0.46166861
MIK07221023,0,0,2024-07-22T01:47:21.843Z,english_488.wav,0,peel,9392,9,0.9,18.4969296,1.40405736
MIK07221023,0,0,2024-07-22T01:47:21.843Z,english_488.wav,0,peel,9392,10,1.0,6.83798229,1.0046827
MIK07221023,0,0,2024-07-22T01:47:21.843Z,english_488.wav,0,peel,9392,11,1.09391667,65.10535749,0.03299625
MIK07221023,1,0,2024-07-22T01:47:21.843Z,english_245.wav,0,pill,629,0,0.0,-3.94489453,1.87262136
MIK07221023,1,0,2024-07-22T01:47:21.843Z,english_245.wav,0,pill,629,1,0.1,93.78845114,1.5911659
MIK07221023,1,0,2024-07-22T01:47:21.843Z,english_245.wav,0,pill,629,2,0.2,-15.4175353,0.77224849
MIK07221023,1,0,2024-07-22T01:47:21.843Z,english_245.wav,0,pill,629,3,0.3,69.96206512,1.66276975
MIK07221023,1,0,2024-07-22T01:47:21.843Z,english_245.wav,0,pill,629,4,0.4,-2.81275051,0.59757366
MIK07221023,1,0,2024-07-22T01:47:21.843Z,english_245.wav,0,pill,629,5,0.5,-99.06344561,1.2271396
MIK07221023,1,0,2024-07-22T01:47:21.843Z,english_245.wav,0,pill,629,6,0.6,93.3644365,0.27105927
MIK07221023,1,0,2024-07-22T01:47:21.843Z,english_245.wav,0,pill,629,7,0.7,38.15823311,1.13207073
MIK07221023,1,0,2024-07-22T01:47:21.843Z,english_245.wav,0,pill,629,8,0.8,51.44383365,0.42497597
MIK07221023,1,0,2024-07-22T01:47:21.843Z,english_245.wav,0,pill,629,9,0.9,19.95795113,0.54403667
MIK07221023,1,0,2024-07-22T01:47:21.843Z,english_245.wav,0,pill,629,10,1.0,-68.88770698,0.3131135
MIK07221023,1,0,2024-07-22T01:47:21.843Z,english_245.wav,0,pill,629,11,1.09391667,99.45926262,1.0229568
MIK07221023,2,0,2024-07-22T01:47:21.843Z,english_494.wav,0,pill,533,0,0.0,-0.71105911,1.19698802
MIK07221023,2,0,2024-07-22T01:47:21.843Z,english_494.wav,0,pill,533,1,0.1,-4.76372759,0.64302423
MIK07221023,2,0,2024-07-22T01:47:21.843Z,english_494.wav,0,pill,533,2,0.2,66.89870616,0.88986983
MIK07221023,2,0,2024-07-22T01:47:21.843Z,english_494.wav,0,pill,533,3,0.3,43.91062915,0.33391225
MIK07221023,2,0,2024-07-22T01:47:21.843Z,english_494.wav,0,pill,533,4,0.4,-57.8545691,0.78562285
MIK07221023,2,0,2024-07-22T01:47:21.843Z,english_494.wav,0,pill,533,5,0.5,-82.5179259,1.92178158
MIK07221023,2,0,2024-07-22T01:47:21.843Z,english_494.wav,0,pill,533,6,0.6,80.42837684,0.82903442
MIK07221023,2,0,2024-07-22T01:47:21.843Z,english_494.wav,0,pill,533,7,0.7,96.180933,0.59414127
MIK07221023,2,0,2024-07-22T01:47:21.843Z,english_494.wav,0,pill,533,8,0.8,17.6398549,1.2399684
MIK07221023,2,0,2024-07-22T01:47:21.843Z,english_494.wav,0,pill,533,9,0.9,-72.53927607,0.09321319
MIK07221023,2,0,2024-07-22T01:47:21.843Z,english_494.wav,0,pill,533,10,1.0,-51.27052229,0.68716523
MIK07221023,2,0,2024-07-22T01:47:21.843Z,english_494.wav,0,pill,533,11,1.09391667,16.38241645,1.81410855
MIK07221023,3,0,2024-07-22T01:47:21.843Z,english_353.wav,0,peel,673,0,0.0,-70.67724429,1.06843483
MIK07221023,3,0,2024-07-22T01:47:21.843Z,english_353.wav,0,peel,673,1,0.1,-71.688049,0.77169117
MIK07221023,3,0,2024-07-22T01:47:21.843Z,english_353.wav,0,peel,673,2,0.2,35.51924952,1.46248358
MIK07221023,3,0,2024-07-22T01:47:21.843Z,english_353.wav,0,peel,673,3,0.3,-2.11218413,1.49078151
MIK07221023,3,0,2024-07-22T01:47:21.843Z,english_353.wav,0,peel,673,4,0.4,-16.43862389,1.12150818
MIK07221023,3,0,2024-07-22T01:47:21.843Z,english_353.wav,0,peel,673,5,0.5,42.52341858,1.51009479
MIK07221023,3,0,2024-07-22T01:47:21.843Z,english_353.wav,0,peel,673,6,0.6,-45.01562353,1.56291015
MIK07221023,3,0,2024-07-22T01:47:21.843Z,english_353.wav,0,peel,673,7,0.7,41.4367476,1.91892948
MIK07221023,3,0,2024-07-22T01:47:21.843Z,english_353.wav,0,peel,673,8,0.8,-7.80846777,1.01197455
MIK07221023,3,0,2024-07-22T01:47:21.843Z,english_353.wav,0,peel,673,9,0.9,42.15448352,1.4134273
MIK07221023,3,0,2024-07-22T01:47:21.843Z,english_353.wav,0,peel,673,10,1.0,92.0591742,1.42236133
MIK07221023,3,0,2024-07-22T01:47:21.843Z,english_353.wav,0,peel,673,11,1.09391667,-12.12221809,0.78816947
MIK07221023,4,0,2024-07-22T01:47:21.843Z,english_915.wav,0,pill,1721,0,0.0,-21.98271396,1.11106838
MIK07221023,4,0,2024-07-22T01:47:21.843Z,english_915.wav,0,pill,1721,1,0.1,1.0207487,1.44455779
MIK07221023,4,0,2024-07-22T01:47:21.843Z,english_915.wav,0,pill,1721,2,0.2,23.02274493,1.42587556
MIK07221023,4,0,2024-07-22T01:47:21.843Z,english_915.wav,0,pill,1721,3,0.3,85.32608832,1.47521249
MIK07221023,4,0,2024-07-22T01:47:21.843Z,english_915.wav,0,pill,1721,4,0.4,-33.34189035,1.68905856
MIK07221023,4,0,2024-07-22T01:47:21.843Z,english_915.wav,0,pill,1721,5,0.5,29.21421043,1.40181913
MIK07221023,4,0,2024-07-22T01:47:21.843Z,english_915.wav,0,pill,1721,6,0.6,56.26543798,1.46869984
MIK07221023,4,0,2024-07-22T01:47:21.843Z,english_915.wav,0,pill,1721,7,0.7,7.71467122,0.70433786
MIK07221023,4,0,2024-07-22T01:47:21.843Z,english_915.wav,0,pill,1721,8,0.8,88.21567756,1.11015014
MIK07221023,4,0,2024-07-22T01:47:21.843Z,english_915.wav,0,pill,1721,9,0.9,-50.54904275,0.72100932
MIK07221023,4,0,2024-07-22T01:47:21.843Z,english_915.wav,0,pill,1721,10,1.0,-64.3056321,1.02681764
MIK07221023,4,0,2024-07-22T01:47:21.843Z,english_915.wav,0,pill,1721,11,1.09391667,-64.41259803,0.869897
MIK07221023,5,0,2024-07-22T01:47:21.843Z,english_125.wav,0,peel,2443,0,0.0,37.27554733,0.5612227
MIK07221023,5,0,2024-07-22T01:47:21.843Z,english_125.wav,0,peel,2443,1,0.1,24.29830201,1.75747345
MIK07221023,5,0,2024-07-22T01:47:21.843Z,english_125.wav,0,peel,2443,2,0.2,-43.3040728,1.33602667
MIK07221023,5,0,2024-07-22T01:47:21.843Z,english_125.wav,0,peel,2443,3,0.3,32.63559677,0.25379983
MIK07221023,5,0,2024-07-22T01:47:21.843Z,english_125.wav,0,peel,2443,4,0.4,65.75819377,0.46765889
MIK07221023,5,0,2024-07-22T01:47:21.843Z,english_125.wav,0,peel,2443,5,0.5,93.24268126,0.0945868
MIK07221023,5,0,2024-07-22T01:47:21.843Z,english_125.wav,0,peel,2443,6,0.6,-15.30697981,1.31767057
MIK07221023,5,0,2024-07-22T01:47:21.843Z,english_125.wav,0,peel,2443,7,0.7,92.42760244,0.46721292
MIK07221023,5,0,2024-07-22T01:47:21.843Z,english_125.wav,0,peel,2443,8,0.8,43.95412796,1.38944415
MIK07221023,5,0,2024-07-22T01:47:21.843Z,english_125.wav,0,peel,2443,9,0.9,15.32237433,1.70361777
MIK07221023,5,0,2024-07-22T01:47:21.843Z,english_125.wav,0,peel,2443,10,1.0,-94.44407427,0.93528665
MIK07221023,5,0,2024-07-22T01:47:21.843Z,english_125.wav,0,peel,2443,11,1.09391667,87.09346239,1.20335548
MIK07221023,6,0,2024-07-22T01:47:21.843Z,english_829.wav,0,pill,1204,0,0.0,-7.89955856,0.852516
MIK07221023,6,0,2024-07-22T01:47:21.843Z,english_829.wav,0,pill,1204,1,0.1,-18.01769042,0.97788956
MIK07221023,6,0,2024-07-22T01:47:21.843Z,english_829.wav,0,pill,1204,2,0.2,57.48418942,1.32810397
MIK07221023,6,0,2024-07-22T01:47:21.843Z,english_829.wav,0,pill,1204,3,0.3,41.9687918,0.18108064
MIK07221023,6,0,2024-07-22T01:47:21.843Z,english_829.wav,0,pill,1204,4,0.4,-61.64702177,0.15705118
MIK07221023,6,0,2024-07-22T01:47:21.843Z,english_829.wav,0,pill,1204,5,0.5,-20.29007911,0.66571436
MIK07221023,6,0,2024-07-22T01:47:21.843Z,english_829.wav,0,pill,1204,6,0.6,93.24496902,0.20869504
MIK07221023,6,0,2024-07-22T01:47:21.843Z,english_829.wav,0,pill,1204,7,0.7,-32.99482484,1.27621492
MIK07221023,6,0,2024-07-22T01:47:21.843Z,english_829.wav,0,pill,1204,8,0.8,6.59233546,1.10768251
MIK07221023,6,0,2024-07-22T01:47:21.843Z,english_829.wav,0,pill,1204,9,0.9,-90.87646181,1.10361444
MIK07221023,6,0,2024-07-22T01:47:21.843Z,english_829.wav,0,pill,1204,10,1.0,9.72736643,0.98320382
MIK07221023,6,0,2024-07-22T01:47:21.843Z,english_829.wav,0,pill,1204,11,1.09391667,-11.26207351,1.01672444
MIK07221023,7,0,2024-07-22T01:47:21.843Z,english_518.wav,0,pill,12245,0,0.0,22.01202895,1.18568215
MIK07221023,7,0,2024-07-22T01:47:21.843Z,english_518.wav,0,pill,12245,1,0.1,84.85911905,1.27730104
MIK07221023,7,0,2024-07-22T01:47:21.843Z,english_518.wav,0,pill,12245,2,0.2,6.76803646,1.88343212
MIK07221023,7,0,2024-07-22T01:47:21.843Z,english_518.wav,0,pill,12245,3,0.3,-12.31334731,1.70516568
MIK07221023,7,0,2024-07-22T01:47:21.843Z,english_518.wav,0,pill,12245,4,0.4,-5.3812793,1.21188584
MIK07221023,7,0,2024-07-22T01:47:21.843Z,english_518.wav,0,pill,12245,5,0.5,-39.12372131,1.55365309
MIK07221023,7,0,2024-07-22T01:47:21.843Z,english_518.wav,0,pill,12245,6,0.6,-19.59187687,1.67380265
MIK07221023,7,0,2024-07-22T01:47:21.843Z,english_518.wav,0,pill,12245,7,0.7,30.09174406,1.67954719
MIK07221023,7,0,2024-07-22T01:47:21.843Z,english_518.wav,0,pill,12245,8,0.8,12.21299005,1.45293932
MIK07221023,7,0,2024-07-22T01:47:21.843Z,english_518.wav,0,pill,12245,9,0.9,-30.98849923,1.42118442
MIK07221023,7,0,2024-07-22T01:47:21.843Z,english_518.wav,0,pill,12245,10,1.0,-66.88783357,1.84946345
MIK07221023,7,0,2024-07-22T01:47:21.843Z,english_518.wav,0,pill,12245,11,1.09391667,-47.66173225,1.44146986
MIK07221023,8,0,2024-07-22T01:47:21.843Z,english_745.wav,0,pill,3149,0,0.0,-47.9537983,1.262874
MIK07221023,8,0,2024-07-22T01:47:21.843Z,english_745.wav,0,pill,3149,1,0.1,10.59664377,0.45595153
MIK07221023,8,0,2024-07-22T01:47:21.843Z,english_745.wav,0,pill,3149,2,0.2,3.22121318,1.90154411
MIK07221023,8,0,2024-07-22T01:47:21.843Z,english_745.wav,0,pill,3149,3,0.3,66.38489409,1.18935698
MIK07221023,8,0,2024-07-22T01:47:21.843Z,english_745.wav,0,pill,3149,4,0.4,-85.62638025,0.53454894
MIK07221023,8,0,2024-07-22T01:47:21.843Z,english_745.wav,0,pill,3149,5,0.5,53.0870989,0.07115633
MIK07221023,8,0,2024-07-22T01:47:21.843Z,english_745.wav,0,pill,3149,6,0.6,37.88737288,0.91558947
MIK07221023,8,0,2024-07-22T01:47:21.843Z,english_745.wav,0,pill,3149,7,0.7,-50.87104403,0.71993263
MIK07221023,8,0,2024-07-22T01:47:21.843Z,english_745.wav,0,pill,3149,8,0.8,-30.17524051,0.93591694
MIK07221023,8,0,2024-07-22T01:47:21.843Z,english_745.wav,0,pill,3149,9,0.9,42.29036925,0.99723137
MIK07221023,8,0,2024-07-22T01:47:21.843Z,english_745.wav,0,pill,3149,10,1.0,6.95263715,0.85978939
MIK07221023,8,0,2024-07-22T01:47:21.843Z,english_745.wav,0,pill,3149,11,1.09391667,-3.81320325,0.69941736
MIK07221023,9,0,2024-07-22T01:47:21.843Z,english_873.wav,0,pill,2307,0,0.0,-5.34184308,0.18534223
MIK07221023,9,0,2024-07-22T01:47:21.843Z,english_873.wav,0,pill,2307,1,0.1,29.86705528,1.00948066
MIK07221023,9,0,2024-07-22T01:47:21.843Z,english_873.wav,0,pill,2307,2,0.2,-53.62087934,0.93104213
MIK07221023,9,0,2024-07-22T01:47:21.843Z,english_873.wav,0,pill,2307,3,0.3,-59.16709203,1.19025309
MIK07221023,9,0,2024-07-22T01:47:21.843Z,english_873.wav,0,pill,2307,4,0.4,69.60141357,1.48608178
MIK07221023,9,0,2024-07-22T01:47:21.843Z,english_873.wav,0,pill,2307,5,0.5,-44.07046907,0.89447273
MIK07221023,9,0,2024-07-22T01:47:21.843Z,english_873.wav,0,pill,2307,6,0.6,55.781826,0.18822797
MIK07221023,9,0,2024-07-22T01:47:21.843Z,english_873.wav,0,pill,2307,7,0.7,-40.21183655,0.79732375
MIK07221023,9,0,2024-07-22T01:47:21.843Z,english_873.wav,0,pill,2307,8,0.8,9.01550121,0.51650354
MIK07221023,9,0,2024-07-22T01:47:21.843Z,english_873.wav,0,pill,2307,9,0.9,-15.28098321,0.06272522
MIK07221023,9,0,2024-07-22T01:47:21.843Z,english_873.wav,0,pill,2307,10,1.0,-64.77079799,1.63736384
MIK07221023,9,0,2024-07-22T01:47:21.843Z,english_873.wav,0,pill,2307,11,1.09391667,80.68199225,1.95600343
MIK07221023,10,0,2024-07-22T01:47:21.843Z,english_450.wav,0,peel,3015,0,0.0,-40.47622517,1.62313454
MIK07221023,10,0,2024-07-22T01:47:21.843Z,english_450.wav,0,peel,3015,1,0.1,32.74162238,1.28157799
MIK07221023,10,0,2024-07-22T01:47:21.843Z,english_450.wav,0,peel,3015,2,0.2,-31.99785117,0.17374894
MIK07221023,10,0,2024-07-22T01:47:21.843Z,english_450.wav,0,peel,3015,3,0.3,26.01051774,1.33840529
MIK07221023,10,0,2024-07-22T01:47:21.843Z,english_450.wav,0,peel,3015,4,0.4,80.55211369,1.99443486
MIK07221023,10,0,2024-07-22T01:47:21.843Z,english_450.wav,0,peel,3015,5,0.5,18.01549087,1.3531925
MIK07221023,10,0,2024-07-22T01:47:21.843Z,english_450.wav,0,peel,3015,6,0.6,52.7809862,1.87514045
MIK07221023,10,0,2024-07-22T01:47:21.843Z,english_450.wav,0,peel,3015,7,0.7,49.03700675,0.88384361
MIK07221023,10,0,2024-07-22T01:47:21.843Z,english_450.wav,0,peel,3015,8,0.8,-27.91135425,1.18722403
MIK07221023,10,0,2024-07-22T01:47:21.843Z,english_450.wav,0,peel,3015,9,0.9,36.58986798,1.83701617
MIK07221023,10,0,2024-07-22T01:47:21.843Z,english_450.wav,0,peel,3015,10,1.0,-73.7373691,1.36559917
MIK07221023,10,0,2024-07-22T01:47:21.843Z,english_450.wav,0,peel,3015,11,1.09391667,98.91564747,0.09127158
MIK07221023,11,0,2024-07-22T01:47:21.843Z,english_360.wav,0,pill,2437,0,0.0,-18.06250331,0.74392756
MIK07221023,11,0,2024-07-22T01:47:21.843Z,english_360.wav,0,pill,2437,1,0.1,-60.78778271,0.33295665
MIK07221023,11,0,2024-07-22T01:47:21.843Z,english_360.wav,0,pill,2437,2,0.2,64.58604958,0.59589568
MIK07221023,11,0,2024-07-22T01:47:21.843Z,english_360.wav,0,pill,2437,3,0.3,15.14883939,1.76245157
MIK07221023,11,0,2024-07-22T01:47:21.843Z,english_360.wav,0,pill,2437,4,0.4,35.32268856,1.62745171
MIK07221023,11,0,2024-07-22T01:47:21.843Z,english_360.wav,0,pill,2437,5,0.5,85.60433583,0.48465
MIK07221023,11,0,2024-07-22T01:47:21.843Z,english_360.wav,0,pill,2437,6,0.6,-60.74616214,0.94927774
MIK07221023,11,0,2024-07-22T01:47:21.843Z,english_360.wav,0,pill,2437,7,0.7,93.69417602,1.65570249
MIK07221023,11,0,2024-07-22T01:47:21.843Z,english_360.wav,0,pill,2437,8,0.8,16.46151858,1.54593081
MIK07221023,11,0,2024-07-22T01:47:21.843Z,english_360.wav,0,pill,2437,9,0.9,58.0175924,0.34320104
MIK07221023,11,0,2024-07-22T01:47:21.843Z,english_360.wav,0,pill,2437,10,1.0,51.01229948,0.20094936
MIK07221023,11,0,2024-07-22T01:47:21.843Z,english_360.wav,0,pill,2437,11,1.09391667,19.14891505,0.69882977
MIK07221023,12,0,2024-07-22T01:47:21.843Z,english_637.wav,0,peel,4622,0,0.0,-89.57602713,1.01899078
MIK07221023,12,0,2024-07-22T01:47:21.843Z,english_637.wav,0,peel,4622,1,0.1,-12.21163012,0.44650383
MIK07221023,12,0,2024-07-22T01:47:21.843Z,english_637.wav,0,peel,4622,2,0.2,45.69375155,0.86051042
MIK07221023,12,0,2024-07-22T01:47:21.843Z,english_637.wav,0,peel,4622,3,0.3,47.44411802,0.62803932
MIK07221023,12,0,2024-07-22T01:47:21.843Z,english_637.wav,0,peel,4622,4,0.4,-64.39909361,0.05404575
MIK07221023,12,0,2024-07-22T01:47:21.843Z,english_637.wav,0,peel,4622,5,0.5,38.07531124,0.80477493
MIK07221023,12,0,2024-07-22T01:47:21.843Z,english_637.wav,0,peel,4622,6,0.6,-37.11559242,0.4743624
MIK07221023,12,0,2024-07-22T01:47:21.843Z,english_637.wav,0,peel,4622,7,0.7,61.76350432,1.24039456
MIK07221023,12,0,2024-07-22T01:47:21.843Z,english_637.wav,0,peel,4622,8,0.8,87.30183414,0.77622698
MIK07221023,12,0,2024-07-22T01:47:21.843Z,english_637.wav,0,peel,4622,9,0.9,42.92339498,1.15579273
MIK07221023,12,0,2024-07-22T01:47:21.843Z,english_637.wav,0,peel,4622,10,1.0,99.17764885,1.67569325
MIK07221023,12,0,2024-07-22T01:47:21.843Z,english_637.wav,0,peel,4622,11,1.09391667,27.2352495,0.37956578
MIK07221023,13,0,2024-07-22T01:47:21.843Z,english_627.wav,0,peel,2723,0,0.0,61.61292799,1.38806705
MIK07221023,13,0,2024-07-22T01:47:21.843Z,english_627.wav,0,peel,2723,1,0.1,56.33641902,0.72797241
MIK07221023,13,0,2024-07-22T01:47:21.843Z,english_627.wav,0,peel,2723,2,0.2,-89.79026277,1.31326188
MIK07221023,13,0,2024-07-22T01:47:21.843Z,english_627.wav,0,peel,2723,3,0.3,-79.74264658,1.97676424
MIK07221023,13,0,2024-07-22T01:47:21.843Z,english_627.wav,0,peel,2723,4,0.4,23.07538857,1.13729178
MIK07221023,13,0,2024-07-22T01:47:21.843Z,english_627.wav,0,peel,2723,5,0.5,-10.76343706,0.13245486
MIK07221023,13,0,2024-07-22T01:47:21.843Z,english_627.wav,0,peel,2723,6,0.6,-5.69473489,0.69323738
MIK07221023,13,0,2024-07-22T01:47:21.843Z,english_627.wav,0,peel,2723,7,0.7,-7.26950502,1.4848786
MIK07221023,13,0,2024-07-22T01:47:21.843Z,english_627.wav,0,peel,2723,8,0.8,15.57475433,1.9356485
MIK07221023,13,0,2024-07-22T01:47:21.843Z,english_627.wav,0,peel,2723,9,0.9,3.14852465,1.60625319
MIK07221023,13,0,2024-07-22T01:47:21.843Z,english_627.wav,0,peel,2723,10,1.0,33.23262787,0.88492326
MIK07221023,13,0,2024-07-22T01:47:21.843Z,english_627.wav,0,peel,2723,11,1.09391667,-88.39615435,1.31394344
MIK07221023,14,0,2024-07-22T01:47:21.843Z,english_708.wav,0,pill,4049,0,0.0,51.90512372,0.68267885
MIK07221023,14,0,2024-07-22T01:47:21.843Z,english_708.wav,0,pill,4049,1,0.1,26.85875961,1.28009677
MIK07221023,14,0,2024-07-22T01:47:21.843Z,english_708.wav,0,pill,4049,2,0.2,69.50769052,0.67214969
MIK07221023,14,0,2024-07-22T01:47:21.843Z,english_708.wav,0,pill,4049,3,0.3,2.73798265,1.87173266
MIK07221023,14,0,2024-07-22T01:47:21.843Z,english_708.wav,0,pill,4049,4,0.4,19.91752894,1.28139012
MIK07221023,14,0,2024-07-22T01:47:21.843Z,english_708.wav,0,pill,4049,5,0.5,84.74462974,1.50975007
MIK07221023,14,0,2024-07-22T01:47:21.843Z,english_708.wav,0,pill,4049,6,0.6,48.1433783,0.29459019
MIK07221023,14,0,2024-07-22T01:47:21.843Z,english_708.wav,0,pill,4049,7,0.7,62.38973842,0.69646694
MIK07221023,14,0,2024-07-22T01:47:21.843Z,english_708.wav,0,pill,4049,8,0.8,-28.25964696,0.8036912
MIK07221023,14,0,2024-07-22T01:47:21.843Z,english_708.wav,0,pill,4049,9,0.9,1.39285788,0.28906304
MIK07221023,14,0,2024-07-22T01:47:21.843Z,english_708.wav,0,pill,4049,10,1.0,-27.01293378,1.49505706
MIK07221023,14,0,2024-07-22T01:47:21.843Z,english_708.wav,0,pill,4049,11,1.09391667,-26.97031791,1.88331259
MIK07221023,15,0,2024-07-22T01:47:21.843Z,english_217.wav,0,pill,1317,0,0.0,49.03427647,0.32664973
MIK07221023,15,0,2024-07-22T01:47:21.843Z,english_217.wav,0,pill,1317,1,0.1,55.51339481,1.39032489
MIK07221023,15,0,2024-07-22T01:47:21.843Z,english_217.wav,0,pill,1317,2,0.2,8.85342812,0.17335256
MIK07221023,15,0,2024-07-22T01:47:21.843Z,english_217.wav,0,pill,1317,3,0.3,38.54994366,0.12434027
MIK07221023,15,0,2024-07-22T01:47:21.843Z,english_217.wav,0,pill,1317,4,0.4,-2.70833959,1.97912601
MIK07221023,15,0,2024-07-22T01:47:21.843Z,english_217.wav,0,pill,1317,5,0.5,70.3938548,0.49508024
MIK07221023,15,0,2024-07-22T01:47:21.843Z,english_217.wav,0,pill,1317,6,0.6,5.12480722,1.41080808
MIK07221023,15,0,2024-07-22T01:47:21.843Z,english_217.wav,0,pill,1317,7,0.7,-74.03796069,0.59237566
MIK07221023,15,0,2024-07-22T01:47:21.843Z,english_217.wav,0,pill,1317,8,0.8,-33.3486243,0.51007366
MIK07221023,15,0,2024-07-22T01:47:21.843Z,english_217.wav,0,pill,1317,9,0.9,-40.28599149,0.60232464
MIK07221023,15,0,2024-07-22T01:47:21.843Z,english_217.wav,0,pill,1317,10,1.0,19.2288181,0.62471618
MIK07221023,15,0,2024-07-22T01:47:21.843Z,english_217.wav,0,pill,1317,11,1.09391667,28.27107092,0.07651966
MIK07221023,16,0,2024-07-22T01:47:21.843Z,english_30.wav,0,peel,4625,0,0.0,7.20305011,0.62248381
MIK07221023,16,0,2024-07-22T01:47:21.843Z,english_30.wav,0,peel,4625,1,0.1,40.54252217,1.3534175
MIK07221023,16,0,2024-07-22T01:47:21.843Z,english_30.wav,0,peel,4625,2,0.2,-27.16756142,1.93672018
MIK07221023,16,0,2024-07-22T01:47:21.843Z,english_30.wav,0,peel,4625,3,0.3,-47.4542684,1.80613869
MIK07221023,16,0,2024-07-22T01:47:21.843Z,english_30.wav,0,peel,4625,4,0.4,16.89492576,1.17778721
MIK07221023,16,0,2024-07-22T01:47:21.843Z,english_30.wav,0,peel,4625,5,0.5,-3.45231142,1.26050698
MIK07221023,16,0,2024-07-22T01:47:21.843Z,english_30.wav,0,peel,4625,6,0.6,-55.37795964,0.40567716
MIK07221023,16,0,2024-07-22T01:47:21.843Z,english_30.wav,0,peel,4625,7,0.7,94.81526788,1.85712714
MIK07221023,16,0,2024-07-22T01:47:21.843Z,english_30.wav,0,peel,4625,8,0.8,4.42136383,0.11089582
MIK07221023,16,0,2024-07-22T01:47:21.843Z,english_30.wav,0,peel,4625,9,0.9,-28.73125868,1.52275562
MIK07221023,16,0,2024-07-22T01:47:21.843Z,english_30.wav,0,peel,4625,10,1.0,-43.27093622,0.4081166
MIK07221023,16,0,2024-07-22T01:47:21.843Z,english_30.wav,0,peel,4625,11,1.09391667,0.63608962,1.00698649
MIK07221023,17,0,2024-07-22T01:47:21.843Z,english_142.wav,0,peel,2505,0,0.0,31.11671536,1.24679721
MIK07221023,17,0,2024-07-22T01:47:21.843Z,english_142.wav,0,peel,2505,1,0.1,14.00827892,0.65366655
MIK07221023,17,0,2024-07-22T01:47:21.843Z,english_142.wav,0,peel,2505,2,0.2,90.23748413,1.20113331
MIK07221023,17,0,2024-07-22T01:47:21.843Z,english_142.wav,0,peel,2505,3,0.3,82.30944071,1.60444487
MIK07221023,17,0,2024-07-22T01:47:21.843Z,english_142.wav,0,peel,2505,4,0.4,-1.47145923,1.29279254
MIK07221023,17,0,2024-07-22T01:47:21.843Z,english_142.wav,0,peel,2505,5,0.5,55.17460753,0.91831488
MIK07221023,17,0,2024-07-22T01:47:21.843Z,english_142.wav,0,peel,2505,6,0.6,26.61999518,0.78219664
MIK07221023,17,0,2024-07-22T01:47:21.843Z,english_142.wav,0,peel,2505,7,0.7,-9.70687044,0.08870339
MIK07221023,17,0,2024-07-22T01:47:21.843Z,english_142.wav,0,peel,2505,8,0.8,45.29559585,1.29591766
MIK07221023,17,0,2024-07-22T01:47:21.843Z,english_142.wav,0,peel,2505,9,0.9,-14.38709872,0.90292953
MIK07221023,17,0,2024-07-22T01:47:21.843Z,english_142.wav,0,peel,2505,10,1.0,-22.51804374,0.84738987
MIK07221023,17,0,2024-07-22T01:47:21.843Z,english_142.wav,0,peel,2505,11,1.09391667,56.35505814,0.22793797
MIK07221023,18,0,2024-07-22T01:47:21.843Z,english_655.wav,0,pill,2994,0,0.0,-90.05217159,1.15438405
MIK07221023,18,0,2024-07-22T01:47:21.843Z,english_655.wav,0,pill,2994,1,0.1,-51.53203878,1.12188764
MIK07221023,18,0,2024-07-22T01:47:21.843Z,english_655.wav,0,pill,2994,2,0.2,-18.56413276,0.95676367
MIK07221023,18,0,2024-07-22T01:47:21.843Z,english_655.wav,0,pill,2994,3,0.3,-32.31488117,0.61420414
MIK07221023,18,0,2024-07-22T01:47:21.843Z,english_655.wav,0,pill,2994,4,0.4,49.43339315,0.76264188
MIK07221023,18,0,2024-07-22T01:47:21.843Z,english_655.wav,0,pill,2994,5,0.5,-67.53322914,1.45400352
MIK07221023,18,0,2024-07-22T01:47:21.843Z,english_655.wav,0,pill,2994,6,0.6,90.11454302,0.06830652
MIK07221023,18,0,2024-07-22T01:47:21.843Z,english_655.wav,0,pill,2994,7,0.7,98.57977716,0.91955523
MIK07221023,18,0,2024-07-22T01:47:21.843Z,english_655.wav,0,pill,2994,8,0.8,29.43352269,0.33519017
MIK07221023,18,0,2024-07-22T01:47:21.843Z,english_655.wav,0,pill,2994,9,0.9,91.08820104,0.7797243
MIK07221023,18,0,2024-07-22T01:47:21.843Z,english_655.wav,0,pill,2994,10,1.0,-3.70059628,1.01878467
MIK07221023,18,0,2024-07-22T01:47:21.843Z,english_655.wav,0,pill,2994,11,1.09391667,30.30784512,1.55349389
MIK07221023,19,0,2024-07-22T01:47:21.843Z,english_133.wav,0,pill,1338,0,0.0,10.63343709,0.76476464
MIK07221023,19,0,2024-07-22T01:47:21.843Z,english_133.wav,0,pill,1338,1,0.1,24.84890696,1.29515793
MIK07221023,19,0,2024-07-22T01:47:21.843Z,english_133.wav,0,pill,1338,2,0.2,-34.79554397,1.91673142
MIK07221023,19,0,2024-07-22T01:47:21.843Z,english_133.wav,0,pill,1338,3,0.3,-18.60172977,1.0879203
MIK07221023,19,0,2024-07-22T01:47:21.843Z,english_133.wav,0,pill,1338,4,0.4,-98.89022724,1.20589026
MIK07221023,19,0,2024-07-22T01:47:21.843Z,english_133.wav,0,pill,1338,5,0.5,23.30800479,1.56284498
MIK07221023,19,0,2024-07-22T01:47:21.843Z,english_133.wav,0,pill,1338,6,0.6,30.70048396,0.05267283
MIK07221023,19,0,2024-07-22T01:47:21.843Z,english_133.wav,0,pill,1338,7,0.7,-76.25426305,1.08371144
MIK07221023,19,0,2024-07-22T01:47:21.843Z,english_133.wav,0,pill,1338,8,0.8,14.35819181,0.48506717
MIK07221023,19,0,2024-07-22T01:47:21.843Z,english_133.wav,0,pill,1338,9,0.9,-62.19404817,1.72104901
MIK07221023,19,0,2024-07-22T01:47:21.843Z,english_133.wav,0,pill,1338,10,1.0,77.39529663,1.20839478
MIK07221023,19,0,2024-07-22T01:47:21.843Z,english_133.wav,0,pill,1338,11,1.09391667,16.52655074,0.51907939
MIK07221023,20,0,2024-07-22T01:47:21.843Z,english_988.wav,0,peel,1098,0,0.0,41.01121176,1.79508408
MIK07221023,20,0,2024-07-22T01:47:21.843Z,english_988.wav,0,peel,1098,1,0.1,-57.00509923,0.91683768
MIK07221023,20,0,2024-07-22T01:47:21.843Z,english_988.wav,0,peel,1098,2,0.2,-47.7423933,0.75632301
MIK07221023,20,0,2024-07-22T01:47:21.843Z,english_988.wav,0,peel,1098,3,0.3,-45.09224268,0.50123111
MIK07221023,20,0,2024-07-22T01:47:21.843Z,english_988.wav,0,peel,1098,4,0.4,-86.23747248,1.43218642
MIK07221023,20,0,2024-07-22T01:47:21.843Z,english_988.wav,0,peel,1098,5,0.5,32.23270896,1.02417726
MIK07221023,20,0,2024-07-22T01:47:21.843Z,english_988.wav,0,peel,1098,6,0.6,83.03664367,0.26646991
MIK07221023,20,0,2024-07-22T01:47:21.843Z,english_988.wav,0,peel,1098,7,0.7,23.13228138,0.55372386
MIK07221023,20,0,2024-07-22T01:47:21.843Z,english_988.wav,0,peel,1098,8,0.8,-80.96876175,1.25427564
MIK07221023,20,0,2024-07-22T01:47:21.843Z,english_988.wav,0,peel,1098,9,0.9,85.87163391,1.46901823
MIK07221023,20,0,2024-07-22T01:47:21.843Z,english_988.wav,0,peel,1098,10,1.0,65.98257536,1.62105321
MIK07221023,20,0,2024-07-22T01:47:21.843Z,english_988.wav,0,peel,1098,11,1.09391667,8.92791605,1.15707193
MIK07221023,21,0,2024-07-22T01:47:21.843Z,english_917.wav,0,pill,630,0,0.0,-35.3182661,1.27669121
MIK07221023,21,0,2024-07-22T01:47:21.843Z,english_917.wav,0,pill,630,1,0.1,-21.7738587,1.4602349
MIK07221023,21,0,2024-07-22T01:47:21.843Z,english_917.wav,0,pill,630,2,0.2,82.1428169,0.09750383
MIK07221023,21,0,2024-07-22T01:47:21.843Z,english_917.wav,0,pill,630,3,0.3,-12.2731677,0.51655458
MIK07221023,21,0,2024-07-22T01:47:21.843Z,english_917.wav,0,pill,630,4,0.4,4.83424811,1.15347497
MIK07221023,21,0,2024-07-22T01:47:21.843Z,english_917.wav,0,pill,630,5,0.5,-0.0854945092,1.01469442
MIK07221023,21,0,2024-07-22T01:47:21.843Z,english_917.wav,0,pill,630,6,0.6,-92.693816,0.31102011
MIK07221023,21,0,2024-07-22T01:47:21.843Z,english_917.wav,0,pill,630,7,0.7,-91.5131295,1.44230515
MIK07221023,21,0,2024-07-22T01:47:21.843Z,english_917.wav,0,pill,630,8,0.8,58.0373061,0.03377485
MIK07221023,21,0,2024-07-22T01:47:21.843Z,english_917.wav,0,pill,630,9,0.9,-28.6534312,0.48994194
MIK07221023,21,0,2024-07-22T01:47:21.843Z,english_917.wav,0,pill,630,10,1.0,45.4510696,0.17679016
MIK07221023,21,0,2024-07-22T01:47:21.843Z,english_917.wav,0,pill,630,11,1.09391667,48.3165221,0.94650881
MIK07221023,22,0,2024-07-22T01:47:21.843Z,english_782.wav,0,pill,810,0,0.0,-78.57843069,1.03549732
MIK07221023,22,0,2024-07-22T01:47:21.843Z,english_782.wav,0,pill,810,1,0.1,18.46693427,1.37171195
MIK07221023,22,0,2024-07-22T01:47:21.843Z,english_782.wav,0,pill,810,2,0.2,97.99884289,0.49308363
MIK07221023,22,0,2024-07-22T01:47:21.843Z,english_782.wav,0,pill,810,3,0.3,62.25752433,1.45239523
MIK07221023,22,0,2024-07-22T01:47:21.843Z,english_782.wav,0,pill,810,4,0.4,52.39970151,1.75992902
MIK07221023,22,0,2024-07-22T01:47:21.843Z,english_782.wav,0,pill,810,5,0.5,-14.50018957,1.61112401
MIK07221023,22,0,2024-07-22T01:47:21.843Z,english_782.wav,0,pill,810,6,0.6,-27.56562213,0.55174203
MIK07221023,22,0,2024-07-22T01:47:21.843Z,english_782.wav,0,pill,810,7,0.7,45.71631019,1.83852108
MIK07221023,22,0,2024-07-22T01:47:21.843Z,english_782.wav,0,pill,810,8,0.8,-34.89121843,1.53242335
MIK07221023,22,0,2024-07-22T01:47:21.843Z,english_782.wav,0,pill,810,9,0.9,23.54778787,0.19128353
MIK07221023,22,0,2024-07-22T01:47:21.843Z,english_782.wav,0,pill,810,10,1.0,-69.46242817,0.08422805
MIK07221023,22,0,2024-07-22T01:47:21.843Z,english_782.wav,0,pill,810,11,1.09391667,95.32757353,0.55022533
MIK07221023,23,0,2024-07-22T01:47:21.843Z,english_822.wav,0,peel,732,0,0.0,-57.24532264,1.07162112
MIK07221023,23,0,2024-07-22T01:47:21.843Z,english_822.wav,0,peel,732,1,0.1,-0.6561153,1.88043926
MIK07221023,23,0,2024-07-22T01:47:21.843Z,english_822.wav,0,peel,732,2,0.2,20.41316559,0.90199971
MIK07221023,23,0,2024-07-22T01:47:21.843Z,english_822.wav,0,peel,732,3,0.3,41.70802905,0.26893632
MIK07221023,23,0,2024-07-22T01:47:21.843Z,english_822.wav,0,peel,732,4,0.4,-77.9443686,1.26571685
MIK07221023,23,0,2024-07-22T01:47:21.843Z,english_822.wav,0,peel,732,5,0.5,63.06825284,1.37105199
MIK07221023,23,0,2024-07-22T01:47:21.843Z,english_822.wav,0,peel,732,6,0.6,-26.82945761,1.3296767
MIK07221023,23,0,2024-07-22T01:47:21.843Z,english_822.wav,0,peel,732,7,0.7,-92.61277401,1.89258001
MIK07221023,23,0,2024-07-22T01:47:21.843Z,english_822.wav,0,peel,732,8,0.8,-55.75237854,1.15705119
MIK07221023,23,0,2024-07-22T01:47:21.843Z,english_822.wav,0,peel,732,9,0.9,-53.36958595,0.11001008
MIK07221023,23,0,2024-07-22T01:47:21.843Z,english_822.wav,0,peel,732,10,1.0,65.67162204,0.72053282
MIK07221023,23,0,2024-07-22T01:47:21.843Z,english_822.wav,0,peel,732,11,1.09391667,97.68319671,1.63006682
MIK07221023,24,0,2024-07-22T01:47:21.843Z,english_349.wav,0,peel,683,0,0.0,78.21791369,0.37053366
MIK07221023,24,0,2024-07-22T01:47:21.843Z,english_349.wav,0,peel,683,1,0.1,9.4630269,0.06190409
MIK07221023,24,0,2024-07-22T01:47:21.843Z,english_349.wav,0,peel,683,2,0.2,-3.29994587,0.20284396
MIK07221023,24,0,2024-07-22T01:47:21.843Z,english_349.wav,0,peel,683,3,0.3,13.5324371,0.23510746
MIK07221023,24,0,2024-07-22T01:47:21.843Z,english_349.wav,0,peel,683,4,0.4,88.19527441,1.05287262
MIK07221023,24,0,2024-07-22T01:47:21.843Z,english_349.wav,0,peel,683,5,0.5,1.7504357,1.51424362
MIK07221023,24,0,2024-07-22T01:47:21.843Z,english_349.wav,0,peel,683,6,0.6,-42.50120826,0.74446718
MIK07221023,24,0,2024-07-22T01:47:21.843Z,english_349.wav,0,peel,683,7,0.7,-43.9320192,1.35303028
MIK07221023,24,0,2024-07-22T01:47:21.843Z,english_349.wav,0,peel,683,8,0.8,-72.26393539,1.8690989
MIK07221023,24,0,2024-07-22T01:47:21.843Z,english_349.wav,0,peel,683,9,0.9,-37.61612777,1.42604643
MIK07221023,24,0,2024-07-22T01:47:21.843Z,english_349.wav,0,peel,683,10,1.0,9.822435,1.6879771
MIK07221023,24,0,2024-07-22T01:47:21.843Z,english_349.wav,0,peel,683,11,1.09391667,-46.39218801,0.80624402
MIK07221023,25,0,2024-07-22T01:47:21.843Z,english_774.wav,0,peel,506,0,0.0,38.7876064,0.43642058
MIK07221023,25,0,2024-07-22T01:47:21.843Z,english_774.wav,0,peel,506,1,0.1,-21.79427352,1.59194207
MIK07221023,25,0,2024-07-22T01:47:21.843Z,english_774.wav,0,peel,506,2,0.2,-78.67296896,1.92489987
MIK07221023,25,0,2024-07-22T01:47:21.843Z,english_774.wav,0,peel,506,3,0.3,-75.97471041,1.73224365
MIK07221023,25,0,2024-07-22T01:47:21.843Z,english_774.wav,0,peel,506,4,0.4,-9.72862999,0.83130124
MIK07221023,25,0,2024-07-22T01:47:21.843Z,english_774.wav,0,peel,506,5,0.5,-62.72542351,0.05776376
MIK07221023,25,0,2024-07-22T01:47:21.843Z,english_774.wav,0,peel,506,6,0.6,-92.46329741,0.22257067
MIK07221023,25,0,2024-07-22T01:47:21.843Z,english_774.wav,0,peel,506,7,0.7,9.68208163,0.82578939
MIK07221023,25,0,2024-07-22T01:47:21.843Z,english_774.wav,0,peel,506,8,0.8,-31.34266524,1.91233014
MIK07221023,25,0,2024-07-22T01:47:21.843Z,english_774.wav,0,peel,506,9,0.9,-62.50555476,1.41810173
MIK07221023,25,0,2024-07-22T01:47:21.843Z,english_774.wav,0,peel,506,10,1.0,-53.48833614,1.61286395
MIK07221023,25,0,2024-07-22T01:47:21.843Z,english_774.wav,0,peel,506,11,1.09391667,21.65178302,1.48005452
MIK07221023,26,0,2024-07-22T01:47:21.843Z,english_855.wav,0,peel,416,0,0.0,-13.47347562,1.00059458
MIK07221023,26,0,2024-07-22T01:47:21.843Z,english_855.wav,0,peel,416,1,0.1,-80.05914573,0.50263337
MIK07221023,26,0,2024-07-22T01:47:21.843Z,english_855.wav,0,peel,416,2,0.2,-72.26699248,0.84336515
MIK07221023,26,0,2024-07-22T01:47:21.843Z,english_855.wav,0,peel,416,3,0.3,-58.92718016,1.88793301
MIK07221023,26,0,2024-07-22T01:47:21.843Z,english_855.wav,0,peel,416,4,0.4,-26.10050626,0.44425999
MIK07221023,26,0,2024-07-22T01:47:21.843Z,english_855.wav,0,peel,416,5,0.5,52.49716227,1.63024313
MIK07221023,26,0,2024-07-22T01:47:21.843Z,english_855.wav,0,peel,416,6,0.6,-60.2709564,0.11111393
MIK07221023,26,0,2024-07-22T01:47:21.843Z,english_855.wav,0,peel,416,7,0.7,99.6254906,1.35713378
MIK07221023,26,0,2024-07-22T01:47:21.843Z,english_855.wav,0,peel,416,8,0.8,96.73720775,0.79488914
MIK07221023,26,0,2024-07-22T01:47:21.843Z,english_855.wav,0,peel,416,9,0.9,38.62507801,1.22496373
MIK07221023,26,0,2024-07-22T01:47:21.843Z,english_855.wav,0,peel,416,10,1.0,-58.05029263,1.90547482
MIK07221023,26,0,2024-07-22T01:47:21.843Z,english_855.wav,0,peel,416,11,1.09391667,-97.63647514,0.01778788
MIK07221023,27,0,2024-07-22T01:47:21.843Z,english_158.wav,0,pill,495,0,0.0,41.17268037,0.12012262
MIK07221023,27,0,2024-07-22T01:47:21.843Z,english_158.wav,0,pill,495,1,0.1,39.43055099,1.02753784
MIK07221023,27,0,2024-07-22T01:47:21.843Z,english_158.wav,0,pill,495,2,0.2,18.17307199,1.36643436
MIK07221023,27,0,2024-07-22T01:47:21.843Z,english_158.wav,0,pill,495,3,0.3,2.1288608,1.78617089
MIK07221023,27,0,2024-07-22T01:47:21.843Z,english_158.wav,0,pill,495,4,0.4,14.16848378,0.39713516
MIK07221023,27,0,2024-07-22T01:47:21.843Z,english_158.wav,0,pill,495,5,0.5,-31.43837624,1.5313636
MIK07221023,27,0,2024-07-22T01:47:21.843Z,english_158.wav,0,pill,495,6,0.6,46.37345031,1.20655285
MIK07221023,27,0,2024-07-22T01:47:21.843Z,english_158.wav,0,pill,495,7,0.7,58.75582509,0.16880901
MIK07221023,27,0,2024-07-22T01:47:21.843Z,english_158.wav,0,pill,495,8,0.8,23.78862253,0.30409425
MIK07221023,27,0,2024-07-22T01:47:21.843Z,english_158.wav,0,pill,495,9,0.9,-4.2911947,1.28329421
MIK07221023,27,0,2024-07-22T01:47:21.843Z,english_158.wav,0,pill,495,10,1.0,-43.40891041,0.17704904
MIK07221023,27,0,2024-07-22T01:47:21.843Z,english_158.wav,0,pill,495,11,1.09391667,16.25522825,0.66899263
MIK07221023,28,0,2024-07-22T01:47:21.843Z,english_324.wav,0,peel,151,0,0.0,17.54140289,0.28643924
MIK07221023,28,0,2024-07-22T01:47:21.843Z,english_324.wav,0,peel,151,1,0.1,71.06846472,0.89310243
MIK07221023,28,0,2024-07-22T01:47:21.843Z,english_324.wav,0,peel,151,2,0.2,-58.0756972,0.19434283
MIK07221023,28,0,2024-07-22T01:47:21.843Z,english_324.wav,0,peel,151,3,0.3,21.96350357,1.40300385
MIK07221023,28,0,2024-07-22T01:47:21.843Z,english_324.wav,0,peel,151,4,0.4,8.51736718,0.22031138
MIK07221023,28,0,2024-07-22T01:47:21.843Z,english_324.wav,0,peel,151,5,0.5,54.10034556,1.10087032
MIK07221023,28,0,2024-07-22T01:47:21.843Z,english_324.wav,0,peel,151,6,0.6,-45.23490782,0.61239123
MIK07221023,28,0,2024-07-22T01:47:21.843Z,english_324.wav,0,peel,151,7,0.7,-47.50195247,0.50887139
MIK07221023,28,0,2024-07-22T01:47:21.843Z,english_324.wav,0,peel,151,8,0.8,90.23201078,1.93720132
MIK07221023,28,0,2024-07-22T01:47:21.843Z,english_324.wav,0,peel,151,9,0.9,-25.79699052,1.9219801
MIK07221023,28,0,2024-07-22T01:47:21.843Z,english_324.wav,0,peel,151,10,1.0,-46.49971987,0.58550327
MIK07221023,28,0,2024-07-22T01:47:21.843Z,english_324.wav,0,peel,151,11,1.09391667,53.98083149,0.44963146
MIK07221023,29,0,2024-07-22T01:47:21.843Z,english_319.wav,0,peel,321,0,0.0,77.16443591,0.7420308
MIK07221023,29,0,2024-07-22T01:47:21.843Z,english_319.wav,0,peel,321,1,0.1,-97.50447801,0.79369359
MIK07221023,29,0,2024-07-22T01:47:21.843Z,english_319.wav,0,peel,321,2,0.2,48.22320359,0.01474693
MIK07221023,29,0,2024-07-22T01:47:21.843Z,english_319.wav,0,peel,321,3,0.3,85.69365628,0.05089627
MIK07221023,29,0,2024-07-22T01:47:21.843Z,english_319.wav,0,peel,321,4,0.4,-99.19363603,1.27499461
MIK07221023,29,0,2024-07-22T01:47:21.843Z,english_319.wav,0,peel,321,5,0.5,-23.7721795,1.87204787
MIK07221023,29,0,2024-07-22T01:47:21.843Z,english_319.wav,0,peel,321,6,0.6,69.35156136,1.81900072
MIK07221023,29,0,2024-07-22T01:47:21.843Z,english_319.wav,0,peel,321,7,0.7,-45.28598517,1.18018
MIK07221023,29,0,2024-07-22T01:47:21.843Z,english_319.wav,0,peel,321,8,0.8,-63.05288391,1.07853439
MIK07221023,29,0,2024-07-22T01:47:21.843Z,english_319.wav,0,peel,321,9,0.9,-37.89893573,1.96522233
MIK07221023,29,0,2024-07-22T01:47:21.843Z,english_319.wav,0,peel,321,10,1.0,-33.85226459,1.95815374
MIK07221023,29,0,2024-07-22T01:47:21.843Z,english_319.wav,0,peel,321,11,1.09391667,-77.07753192,1.86512983
MIK07221023,30,0,2024-07-22T01:47:21.843Z,english_432.wav,0,peel,356,0,0.0,28.49955807,0.25208372
MIK07221023,30,0,2024-07-22T01:47:21.843Z,english_432.wav,0,peel,356,1,0.1,-31.8275444,0.73448825
MIK07221023,30,0,2024-07-22T01:47:21.843Z,english_432.wav,0,peel,356,2,0.2,24.24217544,0.75780001
MIK07221023,30,0,2024-07-22T01:47:21.843Z,english_432.wav,0,peel,356,3,0.3,-66.09269444,1.1180686
MIK07221023,30,0,2024-07-22T01:47:21.843Z,english_432.wav,0,peel,356,4,0.4,-62.15798019,1.06816696
MIK07221023,30,0,2024-07-22T01:47:21.843Z,english_432.wav,0,peel,356,5,0.5,-49.72154406,0.60613643
MIK07221023,30,0,2024-07-22T01:47:21.843Z,english_432.wav,0,peel,356,6,0.6,-47.69762913,0.58276722
MIK07221023,30,0,2024-07-22T01:47:21.843Z,english_432.wav,0,peel,356,7,0.7,77.36626765,1.4653334
MIK07221023,30,0,2024-07-22T01:47:21.843Z,english_432.wav,0,peel,356,8,0.8,5.83013874,1.3937813
MIK07221023,30,0,2024-07-22T01:47:21.843Z,english_432.wav,0,peel,356,9,0.9,28.26329168,1.50157436
MIK07221023,30,0,2024-07-22T01:47:21.843Z,english_432.wav,0,peel,356,10,1.0,-41.71680011,1.14185861
MIK07221023,30,0,2024-07-22T01:47:21.843Z,english_432.wav,0,peel,356,11,1.09391667,67.89473062,1.59474316
MIK07221023,31,0,2024-07-22T01:47:21.843Z,english_524.wav,0,pill,452,0,0.0,-30.25985822,0.34793973
MIK07221023,31,0,2024-07-22T01:47:21.843Z,english_524.wav,0,pill,452,1,0.1,-25.72639464,1.18810863
MIK07221023,31,0,2024-07-22T01:47:21.843Z,english_524.wav,0,pill,452,2,0.2,-19.31311579,0.08692409
MIK07221023,31,0,2024-07-22T01:47:21.843Z,english_524.wav,0,pill,452,3,0.3,75.52996736,0.42169144
MIK07221023,31,0,2024-07-22T01:47:21.843Z,english_524.wav,0,pill,452,4,0.4,95.21234869,0.91790301
MIK07221023,31,0,2024-07-22T01:47:21.843Z,english_524.wav,0,pill,452,5,0.5,-71.1057772,1.60079155
MIK07221023,31,0,2024-07-22T01:47:21.843Z,english_524.wav,0,pill,452,6,0.6,-19.64273872,0.41126457
MIK07221023,31,0,2024-07-22T01:47:21.843Z,english_524.wav,0,pill,452,7,0.7,-1.31214815,0.20209882
MIK07221023,31,0,2024-07-22T01:47:21.843Z,english_524.wav,0,pill,452,8,0.8,64.64076703,1.03575809
MIK07221023,31,0,2024-07-22T01:47:21.843Z,english_524.wav,0,pill,452,9,0.9,-18.69724377,0.43486471
MIK07221023,31,0,2024-07-22T01:47:21.843Z,english_524.wav,0,pill,452,10,1.0,-40.5043492,0.51132712
MIK07221023,31,0,2024-07-22T01:47:21.843Z,english_524.wav,0,pill,452,11,1.09391667,-72.71091187,0.92380924
MIK07221023,32,0,2024-07-22T01:47:21.843Z,english_911.wav,0,peel,69,0,0.0,97.74431138,1.45295226
MIK07221023,32,0,2024-07-22T01:47:21.843Z,english_911.wav,0,peel,69,1,0.1,63.25353714,0.52934156
MIK07221023,32,0,2024-07-22T01:47:21.843Z,english_911.wav,0,peel,69,2,0.2,31.76873058,1.12978313
MIK07221023,32,0,2024-07-22T01:47:21.843Z,english_911.wav,0,peel,69,3,0.3,-80.65515271,0.46492479
MIK07221023,32,0,2024-07-22T01:47:21.843Z,english_911.wav,0,peel,69,4,0.4,87.72308134,1.65576631
MIK07221023,32,0,2024-07-22T01:47:21.843Z,english_911.wav,0,peel,69,5,0.5,-43.90030619,0.95301179
MIK07221023,32,0,2024-07-22T01:47:21.843Z,english_911.wav,0,peel,69,6,0.6,-96.43392939,1.98033305
MIK07221023,32,0,2024-07-22T01:47:21.843Z,english_911.wav,0,peel,69,7,0.7,-95.09691132,0.56650122
MIK07221023,32,0,2024-07-22T01:47:21.843Z,english_911.wav,0,peel,69,8,0.8,7.77484736,1.59543029
MIK07221023,32,0,2024-07-22T01:47:21.843Z,english_911.wav,0,peel,69,9,0.9,12.16907111,1.97260423
MIK07221023,32,0,2024-07-22T01:47:21.843Z,english_911.wav,0,peel,69,10,1.0,33.87787458,1.68149339
MIK07221023,32,0,2024-07-22T01:47:21.843Z,english_911.wav,0,peel,69,11,1.09391667,10.13841493,1.03055348
MIK07221023,33,0,2024-07-22T01:47:21.843Z,english_286.wav,0,pill,2055,0,0.0,0.49465201,1.96185882
MIK07221023,33,0,2024-07-22T01:47:21.843Z,english_286.wav,0,pill,2055,1,0.1,64.40982078,1.76039517
MIK07221023,33,0,2024-07-22T01:47:21.843Z,english_286.wav,0,pill,2055,2,0.2,-93.96239431,1.34043253
MIK07221023,33,0,2024-07-22T01:47:21.843Z,english_286.wav,0,pill,2055,3,0.3,54.29050788,0.77251354
MIK07221023,33,0,2024-07-22T01:47:21.843Z,english_286.wav,0,pill,2055,4,0.4,-73.71749202,0.68573738
MIK07221023,33,0,2024-07-22T01:47:21.843Z,english_286.wav,0,pill,2055,5,0.5,-94.88438502,1.47035372
MIK07221023,33,0,2024-07-22T01:47:21.843Z,english_286.wav,0,pill,2055,6,0.6,49.75760882,1.55594088
MIK07221023,33,0,2024-07-22T01:47:21.843Z,english_286.wav,0,pill,2055,7,0.7,-11.70467758,0.26425441
MIK07221023,33,0,2024-07-22T01:47:21.843Z,english_286.wav,0,pill,2055,8,0.8,-44.05163422,0.00260426
MIK07221023,33,0,2024-07-22T01:47:21.843Z,english_286.wav,0,pill,2055,9,0.9,34.33178767,0.41622396
MIK07221023,33,0,2024-07-22T01:47:21.843Z,english_286.wav,0,pill,2055,10,1.0,-45.07278599,1.49433758
MIK07221023,33,0,2024-07-22T01:47:21.843Z,english_286.wav,0,pill,2055,11,1.09391667,-7.38383513,1.90052724
MIK07221023,34,0,2024-07-22T01:47:21.843Z,english_87.wav,0,pill,4965,0,0.0,-7.69614497,1.36395538
MIK07221023,34,0,2024-07-22T01:47:21.843Z,english_87.wav,0,pill,4965,1,0.1,-50.79583923,0.55370317
MIK07221023,34,0,2024-07-22T01:47:21.843Z,english_87.wav,0,pill,4965,2,0.2,-21.62085435,0.68433779
MIK07221023,34,0,2024-07-22T01:47:21.843Z,english_87.wav,0,pill,4965,3,0.3,23.33346841,1.42277988
MIK07221023,34,0,2024-07-22T01:47:21.843Z,english_87.wav,0,pill,4965,4,0.4,84.82731916,1.16991809
MIK07221023,34,0,2024-07-22T01:47:21.843Z,english_87.wav,0,pill,4965,5,0.5,74.54936251,0.13065421
MIK07221023,34,0,2024-07-22T01:47:21.843Z,english_87.wav,0,pill,4965,6,0.6,-86.24882643,1.74622352
MIK07221023,34,0,2024-07-22T01:47:21.843Z,english_87.wav,0,pill,4965,7,0.7,18.19590059,0.87122315
MIK07221023,34,0,2024-07-22T01:47:21.843Z,english_87.wav,0,pill,4965,8,0.8,86.70789686,1.52981879
MIK07221023,34,0,2024-07-22T01:47:21.843Z,english_87.wav,0,pill,4965,9,0.9,67.00424782,1.42292715
MIK07221023,34,0,2024-07-22T01:47:21.843Z,english_87.wav,0,pill,4965,10,1.0,91.10231962,0.07145037
MIK07221023,34,0,2024-07-22T01:47:21.843Z,english_87.wav,0,pill,4965,11,1.09391667,23.49318924,0.54757178
MIK07221023,35,0,2024-07-22T01:47:21.843Z,english_105.wav,0,peel,433,0,0.0,-2.78582129,1.58600254
MIK07221023,35,0,2024-07-22T01:47:21.843Z,english_105.wav,0,peel,433,1,0.1,-47.38376557,1.11025346
MIK07221023,35,0,2024-07-22T01:47:21.843Z,english_105.wav,0,peel,433,2,0.2,-34.39843647,0.10251387
MIK07221023,35,0,2024-07-22T01:47:21.843Z,english_105.wav,0,peel,433,3,0.3,46.98736853,1.2200198
MIK07221023,35,0,2024-07-22T01:47:21.843Z,english_105.wav,0,peel,433,4,0.4,-49.43003963,1.30093265
MIK07221023,35,0,2024-07-22T01:47:21.843Z,english_105.wav,0,peel,433,5,0.5,38.45298993,0.48849845
MIK07221023,35,0,2024-07-22T01:47:21.843Z,english_105.wav,0,peel,433,6,0.6,-40.48082685,0.43711301
MIK07221023,35,0,2024-07-22T01:47:21.843Z,english_105.wav,0,peel,433,7,0.7,-51.12213105,1.15590429
MIK07221023,35,0,2024-07-22T01:47:21.843Z,english_105.wav,0,peel,433,8,0.8,21.68306499,1.91934773
MIK07221023,35,0,2024-07-22T01:47:21.843Z,english_105.wav,0,peel,433,9,0.9,47.55235399,0.93806277
MIK07221023,35,0,2024-07-22T01:47:21.843Z,english_105.wav,0,peel,433,10,1.0,34.72628387,0.69549788
MIK07221023,35,0,2024-07-22T01:47:21.843Z,english_105.wav,0,peel,433,11,1.09391667,-48.05463592,1.35655827
MIK07221023,36,0,2024-07-22T01:47:21.843Z,english_977.wav,0,pill,1776,0,0.0,45.32437977,1.51258306
MIK07221023,36,0,2024-07-22T01:47:21.843Z,english_977.wav,0,pill,1776,1,0.1,31.46444726,1.62107879
MIK07221023,36,0,2024-07-22T01:47:21.843Z,english_977.wav,0,pill,1776,2,0.2,7.78815071,0.80620837
MIK07221023,36,0,2024-07-22T01:47:21.843Z,english_977.wav,0,pill,1776,3,0.3,-38.46709342,1.66578012
MIK07221023,36,0,2024-07-22T01:47:21.843Z,english_977.wav,0,pill,1776,4,0.4,-43.12628929,0.5028638
MIK07221023,36,0,2024-07-22T01:47:21.843Z,english_977.wav,0,pill,1776,5,0.5,-60.3999411,1.57064844
MIK07221023,36,0,2024-07-22T01:47:21.843Z,english_977.wav,0,pill,1776,6,0.6,38.30873417,1.43046029
MIK07221023,36,0,2024-07-22T01:47:21.843Z,english_977.wav,0,pill,1776,7,0.7,-32.30937365,0.97320454
MIK07221023,36,0,2024-07-22T01:47:21.843Z,english_977.wav,0,pill,1776,8,0.8,-13.91730907,0.87874216
MIK07221023,36,0,2024-07-22T01:47:21.843Z,english_977.wav,0,pill,1776,9,0.9,-81.54845422,1.41826341
MIK07221023,36,0,2024-07-22T01:47:21.843Z,english_977.wav,0,pill,1776,10,1.0,29.31026278,0.04715706
MIK07221023,36,0,2024-07-22T01:47:21.843Z,english_977.wav,0,pill,1776,11,1.09391667,34.6707146,1.45727151
MIK07221023,37,0,2024-07-22T01:47:21.843Z,english_533.wav,0,peel,450,0,0.0,82.3150146,1.74351328
MIK07221023,37,0,2024-07-22T01:47:21.843Z,english_533.wav,0,peel,450,1,0.1,-62.65263441,1.01143167
MIK07221023,37,0,2024-07-22T01:47:21.843Z,english_533.wav,0,peel,450,2,0.2,35.24658043,1.89837562
MIK07221023,37,0,2024-07-22T01:47:21.843Z,english_533.wav,0,peel,450,3,0.3,-92.25963636,0.63714559
MIK07221023,37,0,2024-07-22T01:47:21.843Z,english_533.wav,0,peel,450,4,0.4,55.18355153,1.6894321
MIK07221023,37,0,2024-07-22T01:47:21.843Z,english_533.wav,0,peel,450,5,0.5,42.19734794,0.54282928
MIK07221023,37,0,2024-07-22T01:47:21.843Z,english_533.wav,0,peel,450,6,0.6,26.84517853,1.89183876
MIK07221023,37,0,2024-07-22T01:47:21.843Z,english_533.wav,0,peel,450,7,0.7,-96.44791366,0.53977312
MIK07221023,37,0,2024-07-22T01:47:21.843Z,english_533.wav,0,peel,450,8,0.8,-32.52364266,1.51379003
MIK07221023,37,0,2024-07-22T01:47:21.843Z,english_533.wav,0,peel,450,9,0.9,72.77745032,1.26846018
MIK07221023,37,0,2024-07-22T01:47:21.843Z,english_533.wav,0,peel,450,10,1.0,-8.5096212,0.77810192
MIK07221023,37,0,2024-07-22T01:47:21.843Z,english_533.wav,0,peel,450,11,1.09391667,-5.91345178,1.56024291
MIK07221023,38,0,2024-07-22T01:47:21.843Z,english_543.wav,0,pill,605,0,0.0,-38.60842869,0.01455056
MIK07221023,38,0,2024-07-22T01:47:21.843Z,english_543.wav,0,pill,605,1,0.1,53.1018826,1.33130856
MIK07221023,38,0,2024-07-22T01:47:21.843Z,english_543.wav,0,pill,605,2,0.2,21.93281072,0.07852499
MIK07221023,38,0,2024-07-22T01:47:21.843Z,english_543.wav,0,pill,605,3,0.3,-40.4815272,1.77861337
MIK07221023,38,0,2024-07-22T01:47:21.843Z,english_543.wav,0,pill,605,4,0.4,2.89670018,1.72434721
MIK07221023,38,0,2024-07-22T01:47:21.843Z,english_543.wav,0,pill,605,5,0.5,31.11758458,1.53256383
MIK07221023,38,0,2024-07-22T01:47:21.843Z,english_543.wav,0,pill,605,6,0.6,1.30911675,1.33712035
MIK07221023,38,0,2024-07-22T01:47:21.843Z,english_543.wav,0,pill,605,7,0.7,46.76912586,0.29783205
MIK07221023,38,0,2024-07-22T01:47:21.843Z,english_543.wav,0,pill,605,8,0.8,-75.40535735,1.43997323
MIK07221023,38,0,2024-07-22T01:47:21.843Z,english_543.wav,0,pill,605,9,0.9,57.91130712,0.04561747
MIK07221023,38,0,2024-07-22T01:47:21.843Z,english_543.wav,0,pill,605,10,1.0,-90.16753315,1.78781135
MIK07221023,38,0,2024-07-22T01:47:21.843Z,english_543.wav,0,pill,605,11,1.09391667,-42.19615814,1.03895071
MIK07221023,39,0,2024-07-22T01:47:21.843Z,english_689.wav,0,pill,625,0,0.0,83.12133252,1.04214093
MIK07221023,39,0,2024-07-22T01:47:21.843Z,english_689.wav,0,pill,625,1,0.1,-80.97372196,0.40468985
MIK07221023,39,0,2024-07-22T01:47:21.843Z,english_689.wav,0,pill,625,2,0.2,-28.26528551,1.50877389
MIK07221023,39,0,2024-07-22T01:47:21.843Z,english_689.wav,0,pill,625,3,0.3,42.6688421,1.67206734
MIK07221023,39,0,2024-07-22T01:47:21.843Z,english_689.wav,0,pill,625,4,0.4,6.31951717,1.24892229
MIK07221023,39,0,2024-07-22T01:47:21.843Z,english_689.wav,0,pill,625,5,0.5,65.13167849,0.38767445
MIK07221023,39,0,2024-07-22T01:47:21.843Z,english_689.wav,0,pill,625,6,0.6,-21.58547915,1.45702475
MIK07221023,39,0,2024-07-22T01:47:21.843Z,english_689.wav,0,pill,625,7,0.7,-38.42350837,0.16690889
MIK07221023,39,0,2024-07-22T01:47:21.843Z,english_689.wav,0,pill,625,8,0.8,72.27336224,1.13554192
MIK07221023,39,0,2024-07-22T01:47:21.843Z,english_689.wav,0,pill,625,9,0.9,-22.08116071,0.21927817
MIK07221023,39,0,2024-07-22T01:47:21.843Z,english_689.wav,0,pill,625,10,1.0,-2.34337227,0.41094591
MIK07221023,39,0,2024-07-22T01:47:21.843Z,english_689.wav,0,pill,625,11,1.09391667,32.05995553,0.34398042
MIK07221023,40,0,2024-07-22T01:47:21.843Z,english_151.wav,0,peel,533,0,0.0,-96.58356516,1.19663116
MIK07221023,40,0,2024-07-22T01:47:21.843Z,english_151.wav,0,peel,533,1,0.1,53.33507439,0.02049529
MIK07221023,40,0,2024-07-22T01:47:21.843Z,english_151.wav,0,peel,533,2,0.2,23.26881474,0.86701839
MIK07221023,40,0,2024-07-22T01:47:21.843Z,english_151.wav,0,peel,533,3,0.3,89.03249778,0.68926078
MIK07221023,40,0,2024-07-22T01:47:21.843Z,english_151.wav,0,peel,533,4,0.4,-38.82793041,0.60287098
MIK07221023,40,0,2024-07-22T01:47:21.843Z,english_151.wav,0,peel,533,5,0.5,-36.66004779,1.21623164
MIK07221023,40,0,2024-07-22T01:47:21.843Z,english_151.wav,0,peel,533,6,0.6,67.28889671,0.80619928
MIK07221023,40,0,2024-07-22T01:47:21.843Z,english_151.wav,0,peel,533,7,0.7,-0.40239481,0.32656555
MIK07221023,40,0,2024-07-22T01:47:21.843Z,english_151.wav,0,peel,533,8,0.8,-91.46427785,1.24233336
MIK07221023,40,0,2024-07-22T01:47:21.843Z,english_151.wav,0,peel,533,9,0.9,42.06624713,0.88095947
MIK07221023,40,0,2024-07-22T01:47:21.843Z,english_151.wav,0,peel,533,10,1.0,-44.58654352,1.51580141
MIK07221023,40,0,2024-07-22T01:47:21.843Z,english_151.wav,0,peel,533,11,1.09391667,65.09222406,0.37134413
MIK07221023,41,0,2024-07-22T01:47:21.843Z,english_879.wav,0,pill,1328,0,0.0,-41.71376067,1.10654485
MIK07221023,41,0,2024-07-22T01:47:21.843Z,english_879.wav,0,pill,1328,1,0.1,5.81272632,1.32832236
MIK07221023,41,0,2024-07-22T01:47:21.843Z,english_879.wav,0,pill,1328,2,0.2,-22.32054487,1.5555922
MIK07221023,41,0,2024-07-22T01:47:21.843Z,english_879.wav,0,pill,1328,3,0.3,93.64091385,0.11041486
MIK07221023,41,0,2024-07-22T01:47:21.843Z,english_879.wav,0,pill,1328,4,0.4,-40.92402167,1.31993608
MIK07221023,41,0,2024-07-22T01:47:21.843Z,english_879.wav,0,pill,1328,5,0.5,13.45427288,1.7629303
MIK07221023,41,0,2024-07-22T01:47:21.843Z,english_879.wav,0,pill,1328,6,0.6,-86.15210755,1.83129602
MIK07221023,41,0,2024-07-22T01:47:21.843Z,english_879.wav,0,pill,1328,7,0.7,-20.9667874,1.42589619
MIK07221023,41,0,2024-07-22T01:47:21.843Z,english_879.wav,0,pill,1328,8,0.8,-18.58842444,0.74351112
MIK07221023,41,0,2024-07-22T01:47:21.843Z,english_879.wav,0,pill,1328,9,0.9,-72.1364449,0.32763887
MIK07221023,41,0,2024-07-22T01:47:21.843Z,english_879.wav,0,pill,1328,10,1.0,-83.06025628,1.7749803
MIK07221023,41,0,2024-07-22T01:47:21.843Z,english_879.wav,0,pill,1328,11,1.09391667,76.41221389,1.6164567
MIK07221023,42,0,2024-07-22T01:47:21.843Z,english_739.wav,0,peel,627,0,0.0,1.66907671,0.87693375
MIK07221023,42,0,2024-07-22T01:47:21.843Z,english_739.wav,0,peel,627,1,0.1,32.28194312,0.65337813
MIK07221023,42,0,2024-07-22T01:47:21.843Z,english_739.wav,0,peel,627,2,0.2,88.89595153,0.64089741
MIK07221023,42,0,2024-07-22T01:47:21.843Z,english_739.wav,0,peel,627,3,0.3,20.95779095,1.8100412
MIK07221023,42,0,2024-07-22T01:47:21.843Z,english_739.wav,0,peel,627,4,0.4,75.26857339,1.25976755
MIK07221023,42,0,2024-07-22T01:47:21.843Z,english_739.wav,0,peel,627,5,0.5,80.94392955,0.9768095
MIK07221023,42,0,2024-07-22T01:47:21.843Z,english_739.wav,0,peel,627,6,0.6,17.54887525,1.56119235
MIK07221023,42,0,2024-07-22T01:47:21.843Z,english_739.wav,0,peel,627,7,0.7,25.07377362,0.95993111
MIK07221023,42,0,2024-07-22T01:47:21.843Z,english_739.wav,0,peel,627,8,0.8,92.52917298,0.31388654
MIK07221023,42,0,2024-07-22T01:47:21.843Z,english_739.wav,0,peel,627,9,0.9,2.73629171,1.55063506
MIK07221023,42,0,2024-07-22T01:47:21.843Z,english_739.wav,0,peel,627,10,1.0,-80.00700458,1.57282249
MIK07221023,42,0,2024-07-22T01:47:21.843Z,english_739.wav,0,peel,627,11,1.09391667,-87.47656885,1.46307629
MIK07221023,43,0,2024-07-22T01:47:21.843Z,english_841.wav,0,peel,315,0,0.0,13.47649633,0.2030304
MIK07221023,43,0,2024-07-22T01:47:21.843Z,english_841.wav,0,peel,315,1,0.1,-4.31438018,1.4654032
MIK07221023,43,0,2024-07-22T01:47:21.843Z,english_841.wav,0,peel,315,2,0.2,33.0563647,0.99950721
MIK07221023,43,0,2024-07-22T01:47:21.843Z,english_841.wav,0,peel,315,3,0.3,86.84745786,0.04710196
MIK07221023,43,0,2024-07-22T01:47:21.843Z,english_841.wav,0,peel,315,4,0.4,-66.40745707,1.47568135
MIK07221023,43,0,2024-07-22T01:47:21.843Z,english_841.wav,0,peel,315,5,0.5,-45.55484269,1.38964748
MIK07221023,43,0,2024-07-22T01:47:21.843Z,english_841.wav,0,peel,315,6,0.6,-86.08753099,1.63844318
MIK07221023,43,0,2024-07-22T01:47:21.843Z,english_841.wav,0,peel,315,7,0.7,-95.45735959,1.01920512
MIK07221023,43,0,2024-07-22T01:47:21.843Z,english_841.wav,0,peel,315,8,0.8,23.86654109,1.35517017
MIK07221023,43,0,2024-07-22T01:47:21.843Z,english_841.wav,0,peel,315,9,0.9,-11.20743419,1.07128935
MIK07221023,43,0,2024-07-22T01:47:21.843Z,english_841.wav,0,peel,315,10,1.0,-48.1272879,1.6005201
MIK07221023,43,0,2024-07-22T01:47:21.843Z,english_841.wav,0,peel,315,11,1.09391667,65.71403117,1.58502918
MIK07221023,44,0,2024-07-22T01:47:21.843Z,english_34.wav,0,peel,301,0,0.0,9.71692873,1.51290073
MIK07221023,44,0,2024-07-22T01:47:21.843Z,english_34.wav,0,peel,301,1,0.1,-32.4765448,1.69209185
MIK07221023,44,0,2024-07-22T01:47:21.843Z,english_34.wav,0,peel,301,2,0.2,15.43761556,1.03006511
MIK07221023,44,0,2024-07-22T01:47:21.843Z,english_34.wav,0,peel,301,3,0.3,58.61018381,0.24425739
MIK07221023,44,0,2024-07-22T01:47:21.843Z,english_34.wav,0,peel,301,4,0.4,25.83507297,1.41814457
MIK07221023,44,0,2024-07-22T01:47:21.843Z,english_34.wav,0,peel,301,5,0.5,-56.32199776,1.04050252
MIK07221023,44,0,2024-07-22T01:47:21.843Z,english_34.wav,0,peel,301,6,0.6,-56.68859517,0.2977066
MIK07221023,44,0,2024-07-22T01:47:21.843Z,english_34.wav,0,peel,301,7,0.7,-35.23691581,0.84278016
MIK07221023,44,0,2024-07-22T01:47:21.843Z,english_34.wav,0,peel,301,8,0.8,-38.05292499,1.02765016
MIK07221023,44,0,2024-07-22T01:47:21.843Z,english_34.wav,0,peel,301,9,0.9,-19.80503333,1.82923519
MIK07221023,44,0,2024-07-22T01:47:21.843Z,english_34.wav,0,peel,301,10,1.0,18.63515133,1.36188649
MIK07221023,44,0,2024-07-22T01:47:21.843Z,english_34.wav,0,peel,301,11,1.09391667,20.3470687,1.04188566
MIK07221023,45,0,2024-07-22T01:47:21.843Z,english_262.wav,0,peel,243,0,0.0,40.3969452,0.57919627
MIK07221023,45,0,2024-07-22T01:47:21.843Z,english_262.wav,0,peel,243,1,0.1,24.92470984,1.22854993
MIK07221023,45,0,2024-07-22T01:47:21.843Z,english_262.wav,0,peel,243,2,0.2,-23.52143828,1.84489284
MIK07221023,45,0,2024-07-22T01:47:21.843Z,english_262.wav,0,peel,243,3,0.3,3.42411393,1.27929622
MIK07221023,45,0,2024-07-22T01:47:21.843Z,english_262.wav,0,peel,243,4,0.4,-47.82145477,1.21414946
MIK07221023,45,0,2024-07-22T01:47:21.843Z,english_262.wav,0,peel,243,5,0.5,70.56302105,1.94766948
MIK07221023,45,0,2024-07-22T01:47:21.843Z,english_262.wav,0,peel,243,6,0.6,-9.7222436,1.55288945
MIK07221023,45,0,2024-07-22T01:47:21.843Z,english_262.wav,0,peel,243,7,0.7,20.72301517,0.57688166
MIK07221023,45,0,2024-07-22T01:47:21.843Z,english_262.wav,0,peel,243,8,0.8,-49.74845029,1.86265407
MIK07221023,45,0,2024-07-22T01:47:21.843Z,english_262.wav,0,peel,243,9,0.9,21.4766741,1.3850481
MIK07221023,45,0,2024-07-22T01:47:21.843Z,english_262.wav,0,peel,243,10,1.0,-48.95430403,1.65814683
MIK07221023,45,0,2024-07-22T01:47:21.843Z,english_262.wav,0,peel,243,11,1.09391667,46.16285525,0.28622245
MIK07221023,46,0,2024-07-22T01:47:21.843Z,english_12.wav,0,peel,267,0,0.0,42.97445599,0.55669558
MIK07221023,46,0,2024-07-22T01:47:21.843Z,english_12.wav,0,peel,267,1,0.1,-13.36169143,0.58156084
MIK07221023,46,0,2024-07-22T01:47:21.843Z,english_12.wav,0,peel,267,2,0.2,95.55347712,1.49895361
MIK07221023,46,0,2024-07-22T01:47:21.843Z,english_12.wav,0,peel,267,3,0.3,25.38194066,1.21133401
MIK07221023,46,0,2024-07-22T01:47:21.843Z,english_12.wav,0,peel,267,4,0.4,7.99263567,1.29255802
MIK07221023,46,0,2024-07-22T01:47:21.843Z,english_12.wav,0,peel,267,5,0.5,-99.22256454,0.60717751
MIK07221023,46,0,2024-07-22T01:47:21.843Z,english_12.wav,0,peel,267,6,0.6,-40.78265899,1.53494704
MIK07221023,46,0,2024-07-22T01:47:21.843Z,english_12.wav,0,peel,267,7,0.7,6.53756305,0.96428077
MIK07221023,46,0,2024-07-22T01:47:21.843Z,english_12.wav,0,peel,267,8,0.8,-20.69460066,0.42904798
MIK07221023,46,0,2024-07-22T01:47:21.843Z,english_12.wav,0,peel,267,9,0.9,-61.55291704,1.90575432
MIK07221023,46,0,2024-07-22T01:47:21.843Z,english_12.wav,0,peel,267,10,1.0,-41.80363085,0.98826975
MIK07221023,46,0,2024-07-22T01:47:21.843Z,english_12.wav,0,peel,267,11,1.09391667,-15.66743162,0.15634055
MIK07221023,47,0,2024-07-22T01:47:21.843Z,english_479.wav,0,pill,645,0,0.0,-34.7893931,1.93393565
MIK07221023,47,0,2024-07-22T01:47:21.843Z,english_479.wav,0,pill,645,1,0.1,-71.34069905,0.26573691
MIK07221023,47,0,2024-07-22T01:47:21.843Z,english_479.wav,0,pill,645,2,0.2,58.87573247,0.73981952
MIK07221023,47,0,2024-07-22T01:47:21.843Z,english_479.wav,0,pill,645,3,0.3,-54.09913821,1.46667746
MIK07221023,47,0,2024-07-22T01:47:21.843Z,english_479.wav,0,pill,645,4,0.4,43.12020224,0.55048015
MIK07221023,47,0,2024-07-22T01:47:21.843Z,english_479.wav,0,pill,645,5,0.5,-44.41654249,0.62176048
MIK07221023,47,0,2024-07-22T01:47:21.843Z,english_479.wav,0,pill,645,6,0.6,57.88290142,0.05220831
MIK07221023,47,0,2024-07-22T01:47:21.843Z,english_479.wav,0,pill,645,7,0.7,-1.44997962,0.21971087
MIK07221023,47,0,2024-07-22T01:47:21.843Z,english_479.wav,0,pill,645,8,0.8,89.72797502,0.30059048
MIK07221023,47,0,2024-07-22T01:47:21.843Z,english_479.wav,0,pill,645,9,0.9,97.22467665,0.39403565
MIK07221023,47,0,2024-07-22T01:47:21.843Z,english_479.wav,0,pill,645,10,1.0,52.11815336,1.20859565
MIK07221023,47,0,2024-07-22T01:47:21.843Z,english_479.wav,0,pill,645,11,1.09391667,71.23188895,0.36818185
MIK07221023,48,0,2024-07-22T01:47:21.843Z,english_846.wav,0,peel,1934,0,0.0,47.64315726,0.95758586
MIK07221023,48,0,2024-07-22T01:47:21.843Z,english_846.wav,0,peel,1934,1,0.1,43.78617601,0.16218947
MIK07221023,48,0,2024-07-22T01:47:21.843Z,english_846.wav,0,peel,1934,2,0.2,-67.59598015,0.72860603
MIK07221023,48,0,2024-07-22T01:47:21.843Z,english_846.wav,0,peel,1934,3,0.3,75.82681519,0.60627127
MIK07221023,48,0,2024-07-22T01:47:21.843Z,english_846.wav,0,peel,1934,4,0.4,74.28596976,0.41876793
MIK07221023,48,0,2024-07-22T01:47:21.843Z,english_846.wav,0,peel,1934,5,0.5,40.48744531,1.23414848
MIK07221023,48,0,2024-07-22T01:47:21.843Z,english_846.wav,0,peel,1934,6,0.6,-65.90904049,1.54330327
MIK07221023,48,0,2024-07-22T01:47:21.843Z,english_846.wav,0,peel,1934,7,0.7,90.52035497,1.06483437
MIK07221023,48,0,2024-07-22T01:47:21.843Z,english_846.wav,0,peel,1934,8,0.8,-68.67205107,0.84380864
MIK07221023,48,0,2024-07-22T01:47:21.843Z,english_846.wav,0,peel,1934,9,0.9,8.67982792,0.84626324
MIK07221023,48,0,2024-07-22T01:47:21.843Z,english_846.wav,0,peel,1934,10,1.0,-64.09193989,1.29492524
MIK07221023,48,0,2024-07-22T01:47:21.843Z,english_846.wav,0,peel,1934,11,1.09391667,11.5113113,0.37776928
MIK07221023,49,0,2024-07-22T01:47:21.843Z,english_454.wav,0,pill,595,0,0.0,-40.724684,1.6228839
MIK07221023,49,0,2024-07-22T01:47:21.843Z,english_454.wav,0,pill,595,1,0.1,68.37921334,0.13004392
MIK07221023,49,0,2024-07-22T01:47:21.843Z,english_454.wav,0,pill,595,2,0.2,-30.05855576,0.71367383
MIK07221023,49,0,2024-07-22T01:47:21.843Z,english_454.wav,0,pill,595,3,0.3,-38.49973025,0.85329946
MIK07221023,49,0,2024-07-22T01:47:21.843Z,english_454.wav,0,pill,595,4,0.4,20.79675368,1.21776669
MIK07221023,49,0,2024-07-22T01:47:21.843Z,english_454.wav,0,pill,595,5,0.5,97.95643376,0.59038082
MIK07221023,49,0,2024-07-22T01:47:21.843Z,english_454.wav,0,pill,595,6,0.6,60.86620442,0.28627533
MIK07221023,49,0,2024-07-22T01:47:21.843Z,english_454.wav,0,pill,595,7,0.7,79.81874649,1.2119593
MIK07221023,49,0,2024-07-22T01:47:21.843Z,english_454.wav,0,pill,595,8,0.8,3.83765836,0.67514721
MIK07221023,49,0,2024-07-22T01:47:21.843Z,english_454.wav,0,pill,595,9,0.9,67.59623448,0.51660642
MIK07221023,49,0,2024-07-22T01:47:21.843Z,english_454.wav,0,pill,595,10,1.0,-91.57077167,0.97010822
MIK07221023,49,0,2024-07-22T01:47:21.843Z,english_454.wav,0,pill,595,11,1.09391667,10.80867564,1.23476154
MIK07221023,50,1,2024-07-22T02:10:05.054Z,english_706.wav,0,pill,866,0,0.0,-18.59828841,1.29674848
MIK07221023,50,1,2024-07-22T02:10:05.054Z,english_706.wav,0,pill,866,1,0.1,17.62467533,1.04037111
MIK07221023,50,1,2024-07-22T02:10:05.054Z,english_706.wav,0,pill,866,2,0.2,-32.04245358,0.06692701
MIK07221023,50,1,2024-07-22T02:10:05.054Z,english_706.wav,0,pill,866,3,0.3,-59.68997275,0.01228106
MIK07221023,50,1,2024-07-22T02:10:05.054Z,english_706.wav,0,pill,866,4,0.4,-88.86740026,1.17857321
MIK07221023,50,1,2024-07-22T02:10:05.054Z,english_706.wav,0,pill,866,5,0.5,20.33601639,0.64258097
MIK07221023,50,1,2024-07-22T02:10:05.054Z,english_706.wav,0,pill,866,6,0.6,88.8364898,0.45138919
MIK07221023,50,1,2024-07-22T02:10:05.054Z,english_706.wav,0,pill,866,7,0.7,-63.14338412,0.65752297
MIK07221023,50,1,2024-07-22T02:10:05.054Z,english_706.wav,0,pill,866,8,0.8,-30.16182588,0.08455698
MIK07221023,50,1,2024-07-22T02:10:05.054Z,english_706.wav,0,pill,866,9,0.9,58.36718538,1.13304912
MIK07221023,50,1,2024-07-22T02:10:05.054Z,english_706.wav,0,pill,866,10,1.0,-51.79248442,1.89686489
MIK07221023,50,1,2024-07-22T02:10:05.054Z,english_706.wav,0,pill,866,11,1.09391667,-57.45505408,1.14298605
MIK07221023,51,1,2024-07-22T02:10:05.054Z,english_40.wav,0,peel,5696,0,0.0,48.02478729,1.95808972
MIK07221023,51,1,2024-07-22T02:10:05.054Z,english_40.wav,0,peel,5696,1,0.1,-63.01746301,0.59596382
MIK07221023,51,1,2024-07-22T02:10:05.054Z,english_40.wav,0,peel,5696,2,0.2,99.88373943,1.52240022
MIK07221023,51,1,2024-07-22T02:10:05.054Z,english_40.wav,0,peel,5696,3,0.3,-35.62748252,1.96915834
MIK07221023,51,1,2024-07-22T02:10:05.054Z,english_40.wav,0,peel,5696,4,0.4,22.54548674,0.95314863
MIK07221023,51,1,2024-07-22T02:10:05.054Z,english_40.wav,0,peel,5696,5,0.5,64.17300345,0.51463989
MIK07221023,51,1,2024-07-22T02:10:05.054Z,english_40.wav,0,peel,5696,6,0.6,-98.43334374,0.71558666
MIK07221023,51,1,2024-07-22T02:10:05.054Z,english_40.wav,0,peel,5696,7,0.7,-29.30341943,1.3085379
MIK07221023,51,1,2024-07-22T02:10:05.054Z,english_40.wav,0,peel,5696,8,0.8,-86.78861614,0.72652205
MIK07221023,51,1,2024-07-22T02:10:05.054Z,english_40.wav,0,peel,5696,9,0.9,-30.45625268,0.70559874
MIK07221023,51,1,2024-07-22T02:10:05.054Z,english_40.wav,0,peel,5696,10,1.0,-71.34202466,1.16093561
MIK07221023,51,1,2024-07-22T02:10:05.054Z,english_40.wav,0,peel,5696,11,1.09391667,-99.87345526,1.23446985
MIK07221023,52,1,2024-07-22T02:10:05.054Z,english_483.wav,0,pill,495,0,0.0,81.48477159,0.74240463
MIK07221023,52,1,2024-07-22T02:10:05.054Z,english_483.wav,0,pill,495,1,0.1,-89.60480044,0.55858717
MIK07221023,52,1,2024-07-22T02:10:05.054Z,english_483.wav,0,pill,495,2,0.2,34.01203533,0.25858635
MIK07221023,52,1,2024-07-22T02:10:05.054Z,english_483.wav,0,pill,495,3,0.3,-53.73578063,0.09361457
MIK07221023,52,1,2024-07-22T02:10:05.054Z,english_483.wav,0,pill,495,4,0.4,84.54249603,1.33981299
MIK07221023,52,1,2024-07-22T02:10:05.054Z,english_483.wav,0,pill,495,5,0.5,-37.49389681,0.4736205
MIK07221023,52,1,2024-07-22T02:10:05.054Z,english_483.wav,0,pill,495,6,0.6,15.30386948,0.19064795
MIK07221023,52,1,2024-07-22T02:10:05.054Z,english_483.wav,0,pill,495,7,0.7,-61.92265371,0.85022642
MIK07221023,52,1,2024-07-22T02:10:05.054Z,english_483.wav,0,pill,495,8,0.8,-8.76713856,0.89668703
MIK07221023,52,1,2024-07-22T02:10:05.054Z,english_483.wav,0,pill,495,9,0.9,-10.35003035,0.92354333
MIK07221023,52,1,2024-07-22T02:10:05.054Z,english_483.wav,0,pill,495,10,1.0,30.44811047,0.32093747
MIK07221023,52,1,2024-07-22T02:10:05.054Z,english_483.wav,0,pill,495,11,1.09391667,58.404663,0.85640019
MIK07221023,53,1,2024-07-22T02:10:05.054Z,english_998.wav,0,peel,2926,0,0.0,-83.67346728,1.27391906
MIK07221023,53,1,2024-07-22T02:10:05.054Z,english_998.wav,0,peel,2926,1,0.1,-68.43297462,0.75913393
MIK07221023,53,1,2024-07-22T02:10:05.054Z,english_998.wav,0,peel,2926,2,0.2,47.84560439,1.02363825
MIK07221023,53,1,2024-07-22T02:10:05.054Z,english_998.wav,0,peel,2926,3,0.3,71.43971258,1.78775676
MIK07221023,53,1,2024-07-22T02:10:05.054Z,english_998.wav,0,peel,2926,4,0.4,-30.40941836,0.0961221
MIK07221023,53,1,2024-07-22T02:10:05.054Z,english_998.wav,0,peel,2926,5,0.5,69.31214212,1.18933693
MIK07221023,53,1,2024-07-22T02:10:05.054Z,english_998.wav,0,peel,2926,6,0.6,-95.04564508,1.9379163
MIK07221023,53,1,2024-07-22T02:10:05.054Z,english_998.wav,0,peel,2926,7,0.7,-61.88405175,1.91389769
MIK07221023,53,1,2024-07-22T02:10:05.054Z,english_998.wav,0,peel,2926,8,0.8,11.43915949,1.08895614
MIK07221023,53,1,2024-07-22T02:10:05.054Z,english_998.wav,0,peel,2926,9,0.9,79.6365109,1.52042952
MIK07221023,53,1,2024-07-22T02:10:05.054Z,english_998.wav,0,peel,2926,10,1.0,58.29305302,0.38016323
MIK07221023,53,1,2024-07-22T02:10:05.054Z,english_998.wav,0,peel,2926,11,1.09391667,44.0288717,1.77799574
MIK07221023,54,1,2024-07-22T02:10:05.054Z,english_986.wav,0,peel,466,0,0.0,66.66952336,1.97934099
MIK07221023,54,1,2024-07-22T02:10:05.054Z,english_986.wav,0,peel,466,1,0.1,96.9530251,1.29460225
MIK07221023,54,1,2024-07-22T02:10:05.054Z,english_986.wav,0,peel,466,2,0.2,75.3477354,1.53421825
MIK07221023,54,1,2024-07-22T02:10:05.054Z,english_986.wav,0,peel,466,3,0.3,-56.79707668,1.45039514
MIK07221023,54,1,2024-07-22T02:10:05.054Z,english_986.wav,0,peel,466,4,0.4,68.50410973,0.98893675
MIK07221023,54,1,2024-07-22T02:10:05.054Z,english_986.wav,0,peel,466,5,0.5,5.80156778,1.73927101
MIK07221023,54,1,2024-07-22T02:10:05.054Z,english_986.wav,0,peel,466,6,0.6,-59.00857509,1.32684672
MIK07221023,54,1,2024-07-22T02:10:05.054Z,english_986.wav,0,peel,466,7,0.7,23.78788766,1.65077043
MIK07221023,54,1,2024-07-22T02:10:05.054Z,english_986.wav,0,peel,466,8,0.8,8.31255478,1.05904427
MIK07221023,54,1,2024-07-22T02:10:05.054Z,english_986.wav,0,peel,466,9,0.9,-23.40072537,0.79622744
MIK07221023,54,1,2024-07-22T02:10:05.054Z,english_986.wav,0,peel,466,10,1.0,36.6022418,1.94329627
MIK07221023,54,1,2024-07-22T02:10:05.054Z,english_986.wav,0,peel,466,11,1.09391667,-51.87443186,1.45912014
MIK07221023,55,1,2024-07-22T02:10:05.054Z,english_735.wav,0,peel,701,0,0.0,45.17443614,1.05701846
MIK07221023,55,1,2024-07-22T02:10:05.054Z,english_735.wav,0,peel,701,1,0.1,47.16225486,0.44895522
MIK07221023,55,1,2024-07-22T02:10:05.054Z,english_735.wav,0,peel,701,2,0.2,15.3532987,0.19506386
MIK07221023,55,1,2024-07-22T02:10:05.054Z,english_735.wav,0,peel,701,3,0.3,-43.81061568,0.99480529
MIK07221023,55,1,2024-07-22T02:10:05.054Z,english_735.wav,0,peel,701,4,0.4,83.17284614,0.46252356
MIK07221023,55,1,2024-07-22T02:10:05.054Z,english_735.wav,0,peel,701,5,0.5,60.7769414,1.45908064
MIK07221023,55,1,2024-07-22T02:10:05.054Z,english_735.wav,0,peel,701,6,0.6,-66.30411683,0.86428301
MIK07221023,55,1,2024-07-22T02:10:05.054Z,english_735.wav,0,peel,701,7,0.7,76.89695455,1.14188193
MIK07221023,55,1,2024-07-22T02:10:05.054Z,english_735.wav,0,peel,701,8,0.8,67.53178197,1.15486393
MIK07221023,55,1,2024-07-22T02:10:05.054Z,english_735.wav,0,peel,701,9,0.9,52.8137554,1.55511006
MIK07221023,55,1,2024-07-22T02:10:05.054Z,english_735.wav,0,peel,701,10,1.0,-86.58423276,0.92101672
MIK07221023,55,1,2024-07-22T02:10:05.054Z,english_735.wav,0,peel,701,11,1.09391667,98.32439456,1.0777974
MIK07221023,56,1,2024-07-22T02:10:05.054Z,english_531.wav,0,pill,629,0,0.0,64.01741769,1.51547649
MIK07221023,56,1,2024-07-22T02:10:05.054Z,english_531.wav,0,pill,629,1,0.1,26.7868786,1.88187252
MIK07221023,56,1,2024-07-22T02:10:05.054Z,english_531.wav,0,pill,629,2,0.2,-11.61455466,1.96684575
MIK07221023,56,1,2024-07-22T02:10:05.054Z,english_531.wav,0,pill,629,3,0.3,5.98277112,0.79325927
MIK07221023,56,1,2024-07-22T02:10:05.054Z,english_531.wav,0,pill,629,4,0.4,-58.29733436,0.88962117
MIK07221023,56,1,2024-07-22T02:10:05.054Z,english_531.wav,0,pill,629,5,0.5,-28.52423669,0.54211356
MIK07221023,56,1,2024-07-22T02:10:05.054Z,english_531.wav,0,pill,629,6,0.6,-20.08515402,0.71772169
MIK07221023,56,1,2024-07-22T02:10:05.054Z,english_531.wav,0,pill,629,7,0.7,56.89013176,1.30220499
MIK07221023,56,1,2024-07-22T02:10:05.054Z,english_531.wav,0,pill,629,8,0.8,-1.76253667,0.81496958
MIK07221023,56,1,2024-07-22T02:10:05.054Z,english_531.wav,0,pill,629,9,0.9,17.11874088,0.64316233
MIK07221023,56,1,2024-07-22T02:10:05.054Z,english_531.wav,0,pill,629,10,1.0,-69.92464743,0.7734262
MIK07221023,56,1,2024-07-22T02:10:05.054Z,english_531.wav,0,pill,629,11,1.09391667,16.89803128,0.24670156
MIK07221023,57,1,2024-07-22T02:10:05.054Z,english_28.wav,0,peel,372,0,0.0,46.79443609,1.01055945
MIK07221023,57,1,2024-07-22T02:10:05.054Z,english_28.wav,0,peel,372,1,0.1,2.26441595,0.40890859
MIK07221023,57,1,2024-07-22T02:10:05.054Z,english_28.wav,0,peel,372,2,0.2,-92.86356779,1.10134245
MIK07221023,57,1,2024-07-22T02:10:05.054Z,english_28.wav,0,peel,372,3,0.3,70.49912331,0.66041546
MIK07221023,57,1,2024-07-22T02:10:05.054Z,english_28.wav,0,peel,372,4,0.4,-44.6918064,1.38812901
MIK07221023,57,1,2024-07-22T02:10:05.054Z,english_28.wav,0,peel,372,5,0.5,-40.18885973,1.34163595
MIK07221023,57,1,2024-07-22T02:10:05.054Z,english_28.wav,0,peel,372,6,0.6,22.89431524,1.22801128
MIK07221023,57,1,2024-07-22T02:10:05.054Z,english_28.wav,0,peel,372,7,0.7,-98.00041762,1.98732106
MIK07221023,57,1,2024-07-22T02:10:05.054Z,english_28.wav,0,peel,372,8,0.8,-45.25978985,1.24747992
MIK07221023,57,1,2024-07-22T02:10:05.054Z,english_28.wav,0,peel,372,9,0.9,-73.28359547,1.6043756
MIK07221023,57,1,2024-07-22T02:10:05.054Z,english_28.wav,0,peel,372,10,1.0,-75.042578,1.05397351
MIK07221023,57,1,2024-07-22T02:10:05.054Z,english_28.wav,0,peel,372,11,1.09391667,-54.18290404,0.28539485
MIK07221023,58,1,2024-07-22T02:10:05.054Z,english_744.wav,0,peel,3887,0,0.0,68.01647572,0.92301697
MIK07221023,58,1,2024-07-22T02:10:05.054Z,english_744.wav,0,peel,3887,1,0.1,-94.84396495,1.7240092
MIK07221023,58,1,2024-07-22T02:10:05.054Z,english_744.wav,0,peel,3887,2,0.2,-7.3752647,0.78395161
MIK07221023,58,1,2024-07-22T02:10:05.054Z,english_744.wav,0,peel,3887,3,0.3,-81.08479212,1.15168853
MIK07221023,58,1,2024-07-22T02:10:05.054Z,english_744.wav,0,peel,3887,4,0.4,-44.66331389,0.98824464
MIK07221023,58,1,2024-07-22T02:10:05.054Z,english_744.wav,0,peel,3887,5,0.5,-77.45989494,1.26560798
MIK07221023,58,1,2024-07-22T02:10:05.054Z,english_744.wav,0,peel,3887,6,0.6,19.1026234,0.20042884
MIK07221023,58,1,2024-07-22T02:10:05.054Z,english_744.wav,0,peel,3887,7,0.7,-0.63798112,1.76365186
MIK07221023,58,1,2024-07-22T02:10:05.054Z,english_744.wav,0,peel,3887,8,0.8,74.86031238,1.68948901
MIK07221023,58,1,2024-07-22T02:10:05.054Z,english_744.wav,0,peel,3887,9,0.9,-35.9107796,0.81659748
MIK07221023,58,1,2024-07-22T02:10:05.054Z,english_744.wav,0,peel,3887,10,1.0,-6.98299608,1.14393897
MIK07221023,58,1,2024-07-22T02:10:05.054Z,english_744.wav,0,peel,3887,11,1.09391667,-12.26999011,0.86480781
MIK07221023,59,1,2024-07-22T02:10:05.054Z,english_132.wav,0,pill,545,0,0.0,0.80878803,1.8484575
MIK07221023,59,1,2024-07-22T02:10:05.054Z,english_132.wav,0,pill,545,1,0.1,-89.46369243,0.19659267
MIK07221023,59,1,2024-07-22T02:10:05.054Z,english_132.wav,0,pill,545,2,0.2,-42.02740452,0.98704764
MIK07221023,59,1,2024-07-22T02:10:05.054Z,english_132.wav,0,pill,545,3,0.3,-31.54071999,0.90975168
MIK07221023,59,1,2024-07-22T02:10:05.054Z,english_132.wav,0,pill,545,4,0.4,0.25010778,1.48690857
MIK07221023,59,1,2024-07-22T02:10:05.054Z,english_132.wav,0,pill,545,5,0.5,58.11815913,1.16973021
MIK07221023,59,1,2024-07-22T02:10:05.054Z,english_132.wav,0,pill,545,6,0.6,81.96461668,0.00206468
MIK07221023,59,1,2024-07-22T02:10:05.054Z,english_132.wav,0,pill,545,7,0.7,-44.50191201,0.61136538
MIK07221023,59,1,2024-07-22T02:10:05.054Z,english_132.wav,0,pill,545,8,0.8,-95.34081409,0.53595083
MIK07221023,59,1,2024-07-22T02:10:05.054Z,english_132.wav,0,pill,545,9,0.9,-97.06518429,0.1294964
MIK07221023,59,1,2024-07-22T02:10:05.054Z,english_132.wav,0,pill,545,10,1.0,9.04827132,0.71465456
MIK07221023,59,1,2024-07-22T02:10:05.054Z,english_132.wav,0,pill,545,11,1.09391667,76.3058936,0.51987053
MIK07221023,60,1,2024-07-22T02:10:05.054Z,english_965.wav,0,peel,5213,0,0.0,71.26903742,0.78069471
MIK07221023,60,1,2024-07-22T02:10:05.054Z,english_965.wav,0,peel,5213,1,0.1,-85.67215002,0.96385913
MIK07221023,60,1,2024-07-22T02:10:05.054Z,english_965.wav,0,peel,5213,2,0.2,62.40796955,1.23622138
MIK07221023,60,1,2024-07-22T02:10:05.054Z,english_965.wav,0,peel,5213,3,0.3,-42.43885851,0.08139119
MIK07221023,60,1,2024-07-22T02:10:05.054Z,english_965.wav,0,peel,5213,4,0.4,-43.47145803,1.30827212
MIK07221023,60,1,2024-07-22T02:10:05.054Z,english_965.wav,0,peel,5213,5,0.5,0.87364752,0.40087686
MIK07221023,60,1,2024-07-22T02:10:05.054Z,english_965.wav,0,peel,5213,6,0.6,11.44276141,0.69003786
MIK07221023,60,1,2024-07-22T02:10:05.054Z,english_965.wav,0,peel,5213,7,0.7,13.05816489,0.53329387
MIK07221023,60,1,2024-07-22T02:10:05.054Z,english_965.wav,0,peel,5213,8,0.8,36.18570215,0.06218309
MIK07221023,60,1,2024-07-22T02:10:05.054Z,english_965.wav,0,peel,5213,9,0.9,-15.51832256,1.41722428
MIK07221023,60,1,2024-07-22T02:10:05.054Z,english_965.wav,0,peel,5213,10,1.0,-23.27462527,1.1054453
MIK07221023,60,1,2024-07-22T02:10:05.054Z,english_965.wav,0,peel,5213,11,1.09391667,27.24750983,1.42098641
MIK07221023,61,1,2024-07-22T02:10:05.054Z,english_80.wav,0,peel,4046,0,0.0,15.98753908,1.07609062
MIK07221023,61,1,2024-07-22T02:10:05.054Z,english_80.wav,0,peel,4046,1,0.1,-56.19575542,0.12895948
MIK07221023,61,1,2024-07-22T02:10:05.054Z,english_80.wav,0,peel,4046,2,0.2,-3.20238754,1.07538029
MIK07221023,61,1,2024-07-22T02:10:05.054Z,english_80.wav,0,peel,4046,3,0.3,78.26727965,0.04332835
MIK07221023,61,1,2024-07-22T02:10:05.054Z,english_80.wav,0,peel,4046,4,0.4,-34.16157501,1.09018765
MIK07221023,61,1,2024-07-22T02:10:05.054Z,english_80.wav,0,peel,4046,5,0.5,-80.06220611,0.93581394
MIK07221023,61,1,2024-07-22T02:10:05.054Z,english_80.wav,0,peel,4046,6,0.6,26.74823286,0.96811326
MIK07221023,61,1,2024-07-22T02:10:05.054Z,english_80.wav,0,peel,4046,7,0.7,37.47089689,0.66776739
MIK07221023,61,1,2024-07-22T02:10:05.054Z,english_80.wav,0,peel,4046,8,0.8,26.79850159,0.56521885
MIK07221023,61,1,2024-07-22T02:10:05.054Z,english_80.wav,0,peel,4046,9,0.9,-24.50397544,1.65043275
MIK07221023,61,1,2024-07-22T02:10:05.054Z,english_80.wav,0,peel,4046,10,1.0,43.76607114,1.48241079
MIK07221023,61,1,2024-07-22T02:10:05.054Z,english_80.wav,0,peel,4046,11,1.09391667,10.09103426,1.57868315
MIK07221023,62,1,2024-07-22T02:10:05.054Z,english_69.wav,0,pill,2375,0,0.0,-8.22406931,0.7296211
MIK07221023,62,1,2024-07-22T02:10:05.054Z,english_69.wav,0,pill,2375,1,0.1,-46.19784604,1.54205881
MIK07221023,62,1,2024-07-22T02:10:05.054Z,english_69.wav,0,pill,2375,2,0.2,-49.45533056,0.56573239
MIK07221023,62,1,2024-07-22T02:10:05.054Z,english_69.wav,0,pill,2375,3,0.3,69.56374807,1.53704253
MIK07221023,62,1,2024-07-22T02:10:05.054Z,english_69.wav,0,pill,2375,4,0.4,-92.74652317,0.47977854
MIK07221023,62,1,2024-07-22T02:10:05.054Z,english_69.wav,0,pill,2375,5,0.5,52.31402986,0.1278397
MIK07221023,62,1,2024-07-22T02:10:05.054Z,english_69.wav,0,pill,2375,6,0.6,35.98181846,1.442132
MIK07221023,62,1,2024-07-22T02:10:05.054Z,english_69.wav,0,pill,2375,7,0.7,29.79563749,0.12498308
MIK07221023,62,1,2024-07-22T02:10:05.054Z,english_69.wav,0,pill,2375,8,0.8,49.53175238,0.29427441
MIK07221023,62,1,2024-07-22T02:10:05.054Z,english_69.wav,0,pill,2375,9,0.9,-69.91203253,1.27290514
MIK07221023,62,1,2024-07-22T02:10:05.054Z,english_69.wav,0,pill,2375,10,1.0,-91.34062215,0.87034484
MIK07221023,62,1,2024-07-22T02:10:05.054Z,english_69.wav,0,pill,2375,11,1.09391667,39.19432379,1.40202541
MIK07221023,63,1,2024-07-22T02:10:05.054Z,english_605.wav,0,peel,856,0,0.0,-8.49945262,0.18632105
MIK07221023,63,1,2024-07-22T02:10:05.054Z,english_605.wav,0,peel,856,1,0.1,78.59318703,0.57386106
MIK07221023,63,1,2024-07-22T02:10:05.054Z,english_605.wav,0,peel,856,2,0.2,5.51226276,1.08904108
MIK07221023,63,1,2024-07-22T02:10:05.054Z,english_605.wav,0,peel,856,3,0.3,-57.71623977,1.06659478
MIK07221023,63,1,2024-07-22T02:10:05.054Z,english_605.wav,0,peel,856,4,0.4,-16.40155513,1.07197466
MIK07221023,63,1,2024-07-22T02:10:05.054Z,english_605.wav,0,peel,856,5,0.5,65.3464243,0.99856442
MIK07221023,63,1,2024-07-22T02:10:05.054Z,english_605.wav,0,peel,856,6,0.6,75.43847502,1.20108487
MIK07221023,63,1,2024-07-22T02:10:05.054Z,english_605.wav,0,peel,856,7,0.7,-23.5169708,0.82408686
MIK07221023,63,1,2024-07-22T02:10:05.054Z,english_605.wav,0,peel,856,8,0.8,90.90480097,1.4403859
MIK07221023,63,1,2024-07-22T02:10:05.054Z,english_605.wav,0,peel,856,9,0.9,2.3218264,1.38639998
MIK07221023,63,1,2024-07-22T02:10:05.054Z,english_605.wav,0,peel,856,10,1.0,-54.16543883,0.92793051
MIK07221023,63,1,2024-07-22T02:10:05.054Z,english_605.wav,0,peel,856,11,1.09391667,-30.94766284,1.95794577
MIK07221023,64,1,2024-07-22T02:10:05.054Z,english_358.wav,0,peel,870,0,0.0,92.28677649,0.81523353
MIK07221023,64,1,2024-07-22T02:10:05.054Z,english_358.wav,0,peel,870,1,0.1,-12.9582866,0.40862617
MIK07221023,64,1,2024-07-22T02:10:05.054Z,english_358.wav,0,peel,870,2,0.2,-98.82534689,0.64915378
MIK07221023,64,1,2024-07-22T02:10:05.054Z,english_358.wav,0,peel,870,3,0.3,-63.08847482,1.66113288
MIK07221023,64,1,2024-07-22T02:10:05.054Z,english_358.wav,0,peel,870,4,0.4,92.88960715,0.52783471
MIK07221023,64,1,2024-07-22T02:10:05.054Z,english_358.wav,0,peel,870,5,0.5,40.59705886,0.06151942
MIK07221023,64,1,2024-07-22T02:10:05.054Z,english_358.wav,0,peel,870,6,0.6,-76.45051274,0.90334042
MIK07221023,64,1,2024-07-22T02:10:05.054Z,english_358.wav,0,peel,870,7,0.7,-92.98382241,0.974558
MIK07221023,64,1,2024-07-22T02:10:05.054Z,english_358.wav,0,peel,870,8,0.8,-79.17872568,1.86712718
MIK07221023,64,1,2024-07-22T02:10:05.054Z,english_358.wav,0,peel,870,9,0.9,63.6003007,1.75794987
MIK07221023,64,1,2024-07-22T02:10:05.054Z,english_358.wav,0,peel,870,10,1.0,-21.46486279,1.76155667
MIK07221023,64,1,2024-07-22T02:10:05.054Z,english_358.wav,0,peel,870,11,1.09391667,94.02075741,1.61274026
MIK07221023,65,1,2024-07-22T02:10:05.054Z,english_839.wav,0,peel,684,0,0.0,25.22327534,0.79021115
MIK07221023,65,1,2024-07-22T02:10:05.054Z,english_839.wav,0,peel,684,1,0.1,65.97179868,1.36275453
MIK07221023,65,1,2024-07-22T02:10:05.054Z,english_839.wav,0,peel,684,2,0.2,36.46298268,0.56940252
MIK07221023,65,1,2024-07-22T02:10:05.054Z,english_839.wav,0,peel,684,3,0.3,0.36789595,1.38606336
MIK07221023,65,1,2024-07-22T02:10:05.054Z,english_839.wav,0,peel,684,4,0.4,37.25543056,1.49876521
MIK07221023,65,1,2024-07-22T02:10:05.054Z,english_839.wav,0,peel,684,5,0.5,13.61304399,1.33513266
MIK07221023,65,1,2024-07-22T02:10:05.054Z,english_839.wav,0,peel,684,6,0.6,40.85367399,0.34922841
MIK07221023,65,1,2024-07-22T02:10:05.054Z,english_839.wav,0,peel,684,7,0.7,92.87994107,1.58402098
MIK07221023,65,1,2024-07-22T02:10:05.054Z,english_839.wav,0,peel,684,8,0.8,40.19777361,0.73275133
MIK07221023,65,1,2024-07-22T02:10:05.054Z,english_839.wav,0,peel,684,9,0.9,-27.70209944,1.05467816
MIK07221023,65,1,2024-07-22T02:10:05.054Z,english_839.wav,0,peel,684,10,1.0,-75.44304357,1.81419779
MIK07221023,65,1,2024-07-22T02:10:05.054Z,english_839.wav,0,peel,684,11,1.09391667,15.82899147,1.89560881
MIK07221023,66,1,2024-07-22T02:10:05.054Z,english_19.wav,0,pill,635,0,0.0,34.83932387,0.39991481
MIK07221023,66,1,2024-07-22T02:10:05.054Z,english_19.wav,0,pill,635,1,0.1,-48.03564672,0.42708011
MIK07221023,66,1,2024-07-22T02:10:05.054Z,english_19.wav,0,pill,635,2,0.2,-39.79994301,1.66102439
MIK07221023,66,1,2024-07-22T02:10:05.054Z,english_19.wav,0,pill,635,3,0.3,55.51204031,0.51091135
MIK07221023,66,1,2024-07-22T02:10:05.054Z,english_19.wav,0,pill,635,4,0.4,-31.38608709,1.29385953
MIK07221023,66,1,2024-07-22T02:10:05.054Z,english_19.wav,0,pill,635,5,0.5,14.87165635,0.69347698
MIK07221023,66,1,2024-07-22T02:10:05.054Z,english_19.wav,0,pill,635,6,0.6,17.74253656,0.8818624
MIK07221023,66,1,2024-07-22T02:10:05.054Z,english_19.wav,0,pill,635,7,0.7,73.83891975,1.31039877
MIK07221023,66,1,2024-07-22T02:10:05.054Z,english_19.wav,0,pill,635,8,0.8,17.68085004,0.1856431
MIK07221023,66,1,2024-07-22T02:10:05.054Z,english_19.wav,0,pill,635,9,0.9,-24.1862435,0.16878638
MIK07221023,66,1,2024-07-22T02:10:05.054Z,english_19.wav,0,pill,635,10,1.0,-54.03404818,0.18582405
MIK07221023,66,1,2024-07-22T02:10:05.054Z,english_19.wav,0,pill,635,11,1.09391667,28.67386017,0.29170194
MIK07221023,67,1,2024-07-22T02:10:05.054Z,english_874.wav,0,pill,663,0,0.0,-71.39498579,1.26251394
MIK07221023,67,1,2024-07-22T02:10:05.054Z,english_874.wav,0,pill,663,1,0.1,62.98858744,1.60813214
MIK07221023,67,1,2024-07-22T02:10:05.054Z,english_874.wav,0,pill,663,2,0.2,41.27867713,0.77910004
MIK07221023,67,1,2024-07-22T02:10:05.054Z,english_874.wav,0,pill,663,3,0.3,-0.45014309,1.66768461
MIK07221023,67,1,2024-07-22T02:10:05.054Z,english_874.wav,0,pill,663,4,0.4,-62.23813069,1.66631965
MIK07221023,67,1,2024-07-22T02:10:05.054Z,english_874.wav,0,pill,663,5,0.5,81.69191529,0.96578831
MIK07221023,67,1,2024-07-22T02:10:05.054Z,english_874.wav,0,pill,663,6,0.6,-39.52630557,1.50022708
MIK07221023,67,1,2024-07-22T02:10:05.054Z,english_874.wav,0,pill,663,7,0.7,6.61232929,0.80807106
MIK07221023,67,1,2024-07-22T02:10:05.054Z,english_874.wav,0,pill,663,8,0.8,76.37120083,0.57035077
MIK07221023,67,1,2024-07-22T02:10:05.054Z,english_874.wav,0,pill,663,9,0.9,72.14080556,0.35036103
MIK07221023,67,1,2024-07-22T02:10:05.054Z,english_874.wav,0,pill,663,10,1.0,56.73337142,0.39594805
MIK07221023,67,1,2024-07-22T02:10:05.054Z,english_874.wav,0,pill,663,11,1.09391667,-44.63255829,1.14540291
MIK07221023,68,1,2024-07-22T02:10:05.054Z,english_187.wav,0,peel,260,0,0.0,55.99370729,1.82256068
MIK07221023,68,1,2024-07-22T02:10:05.054Z,english_187.wav,0,peel,260,1,0.1,-13.74585555,1.69505517
MIK07221023,68,1,2024-07-22T02:10:05.054Z,english_187.wav,0,peel,260,2,0.2,-0.42640895,1.33791079
MIK07221023,68,1,2024-07-22T02:10:05.054Z,english_187.wav,0,peel,260,3,0.3,-47.34493384,0.12415078
MIK07221023,68,1,2024-07-22T02:10:05.054Z,english_187.wav,0,peel,260,4,0.4,1.27244399,1.40350832
MIK07221023,68,1,2024-07-22T02:10:05.054Z,english_187.wav,0,peel,260,5,0.5,-51.74565009,1.6134035
MIK07221023,68,1,2024-07-22T02:10:05.054Z,english_187.wav,0,peel,260,6,0.6,-77.25155481,1.12966524
MIK07221023,68,1,2024-07-22T02:10:05.054Z,english_187.wav,0,peel,260,7,0.7,69.19112944,0.02740784
MIK07221023,68,1,2024-07-22T02:10:05.054Z,english_187.wav,0,peel,260,8,0.8,-97.84143732,1.26777643
MIK07221023,68,1,2024-07-22T02:10:05.054Z,english_187.wav,0,peel,260,9,0.9,5.06490506,1.52431862
MIK07221023,68,1,2024-07-22T02:10:05.054Z,english_187.wav,0,peel,260,10,1.0,67.30450542,1.3588447
MIK07221023,68,1,2024-07-22T02:10:05.054Z,english_187.wav,0,peel,260,11,1.09391667,44.03847764,1.80453633
MIK07221023,69,1,2024-07-22T02:10:05.054Z,english_830.wav,0,peel,2066,0,0.0,-56.43859205,0.48566255
MIK07221023,69,1,2024-07-22T02:10:05.054Z,english_830.wav,0,peel,2066,1,0.1,-40.42370878,1.80120887
MIK07221023,69,1,2024-07-22T02:10:05.054Z,english_830.wav,0,peel,2066,2,0.2,57.12298771,0.23081218
MIK07221023,69,1,2024-07-22T02:10:05.054Z,english_830.wav,0,peel,2066,3,0.3,-17.62232487,1.34466319
MIK07221023,69,1,2024-07-22T02:10:05.054Z,english_830.wav,0,peel,2066,4,0.4,68.18956177,1.72981242
MIK07221023,69,1,2024-07-22T02:10:05.054Z,english_830.wav,0,peel,2066,5,0.5,87.82671531,1.56597803
MIK07221023,69,1,2024-07-22T02:10:05.054Z,english_830.wav,0,peel,2066,6,0.6,47.80958912,0.72011463
MIK07221023,69,1,2024-07-22T02:10:05.054Z,english_830.wav,0,peel,2066,7,0.7,90.11134252,1.40332871
MIK07221023,69,1,2024-07-22T02:10:05.054Z,english_830.wav,0,peel,2066,8,0.8,-73.11836968,0.88730082
MIK07221023,69,1,2024-07-22T02:10:05.054Z,english_830.wav,0,peel,2066,9,0.9,76.91440669,1.45593299
MIK07221023,69,1,2024-07-22T02:10:05.054Z,english_830.wav,0,peel,2066,10,1.0,0.84638196,1.11832638
MIK07221023,69,1,2024-07-22T02:10:05.054Z,english_830.wav,0,peel,2066,11,1.09391667,40.94191156,1.24825364
MIK07221023,70,1,2024-07-22T02:10:05.054Z,english_767.wav,0,peel,627,0,0.0,-51.82889882,0.85849805
MIK07221023,70,1,2024-07-22T02:10:05.054Z,english_767.wav,0,peel,627,1,0.1,51.01701548,0.56470658
MIK07221023,70,1,2024-07-22T02:10:05.054Z,english_767.wav,0,peel,627,2,0.2,-33.49871036,1.12840655
MIK07221023,70,1,2024-07-22T02:10:05.054Z,english_767.wav,0,peel,627,3,0.3,35.0661797,0.30358847
MIK07221023,70,1,2024-07-22T02:10:05.054Z,english_767.wav,0,peel,627,4,0.4,-66.76498728,1.98047846
MIK07221023,70,1,2024-07-22T02:10:05.054Z,english_767.wav,0,peel,627,5,0.5,-60.63649878,1.15215796
MIK07221023,70,1,2024-07-22T02:10:05.054Z,english_767.wav,0,peel,627,6,0.6,-66.50688625,0.97775859
MIK07221023,70,1,2024-07-22T02:10:05.054Z,english_767.wav,0,peel,627,7,0.7,-70.17128926,0.81197732
MIK07221023,70,1,2024-07-22T02:10:05.054Z,english_767.wav,0,peel,627,8,0.8,32.8869854,1.74118297
MIK07221023,70,1,2024-07-22T02:10:05.054Z,english_767.wav,0,peel,627,9,0.9,21.57035996,1.09937379
MIK07221023,70,1,2024-07-22T02:10:05.054Z,english_767.wav,0,peel,627,10,1.0,-36.26911366,1.31196256
MIK07221023,70,1,2024-07-22T02:10:05.054Z,english_767.wav,0,peel,627,11,1.09391667,-1.05523753,0.54391414
MIK07221023,71,1,2024-07-22T02:10:05.054Z,english_836.wav,0,peel,565,0,0.0,-63.35061063,0.08705993
MIK07221023,71,1,2024-07-22T02:10:05.054Z,english_836.wav,0,peel,565,1,0.1,-12.99108937,1.16779184
MIK07221023,71,1,2024-07-22T02:10:05.054Z,english_836.wav,0,peel,565,2,0.2,82.76327371,1.21817992
MIK07221023,71,1,2024-07-22T02:10:05.054Z,english_836.wav,0,peel,565,3,0.3,-37.04296685,1.4013418
MIK07221023,71,1,2024-07-22T02:10:05.054Z,english_836.wav,0,peel,565,4,0.4,12.42823269,0.6973531
MIK07221023,71,1,2024-07-22T02:10:05.054Z,english_836.wav,0,peel,565,5,0.5,-3.53155132,1.80885829
MIK07221023,71,1,2024-07-22T02:10:05.054Z,english_836.wav,0,peel,565,6,0.6,-65.36206882,1.88816728
MIK07221023,71,1,2024-07-22T02:10:05.054Z,english_836.wav,0,peel,565,7,0.7,37.4940371,0.0831571
MIK07221023,71,1,2024-07-22T02:10:05.054Z,english_836.wav,0,peel,565,8,0.8,82.10669288,1.479167
MIK07221023,71,1,2024-07-22T02:10:05.054Z,english_836.wav,0,peel,565,9,0.9,44.64707994,1.19168264
MIK07221023,71,1,2024-07-22T02:10:05.054Z,english_836.wav,0,peel,565,10,1.0,19.81650131,1.28184293
MIK07221023,71,1,2024-07-22T02:10:05.054Z,english_836.wav,0,peel,565,11,1.09391667,-37.93998677,1.25532644
MIK07221023,72,1,2024-07-22T02:10:05.054Z,english_704.wav,0,pill,685,0,0.0,-66.86347245,1.10852805
MIK07221023,72,1,2024-07-22T02:10:05.054Z,english_704.wav,0,pill,685,1,0.1,-33.45070856,1.50534643
MIK07221023,72,1,2024-07-22T02:10:05.054Z,english_704.wav,0,pill,685,2,0.2,98.95748792,1.36402955
MIK07221023,72,1,2024-07-22T02:10:05.054Z,english_704.wav,0,pill,685,3,0.3,40.39124026,1.09402875
MIK07221023,72,1,2024-07-22T02:10:05.054Z,english_704.wav,0,pill,685,4,0.4,76.62361043,0.97410313
MIK07221023,72,1,2024-07-22T02:10:05.054Z,english_704.wav,0,pill,685,5,0.5,61.00109246,1.19276443
MIK07221023,72,1,2024-07-22T02:10:05.054Z,english_704.wav,0,pill,685,6,0.6,24.61875858,0.71178311
MIK07221023,72,1,2024-07-22T02:10:05.054Z,english_704.wav,0,pill,685,7,0.7,32.51289689,1.62027576
MIK07221023,72,1,2024-07-22T02:10:05.054Z,english_704.wav,0,pill,685,8,0.8,93.51972076,1.01576623
MIK07221023,72,1,2024-07-22T02:10:05.054Z,english_704.wav,0,pill,685,9,0.9,43.30633586,0.07371268
MIK07221023,72,1,2024-07-22T02:10:05.054Z,english_704.wav,0,pill,685,10,1.0,5.62352462,0.93560494
MIK07221023,72,1,2024-07-22T02:10:05.054Z,english_704.wav,0,pill,685,11,1.09391667,87.81172513,0.13780059
MIK07221023,73,1,2024-07-22T02:10:05.054Z,english_431.wav,0,peel,610,0,0.0,80.69254561,1.28844059
MIK07221023,73,1,2024-07-22T02:10:05.054Z,english_431.wav,0,peel,610,1,0.1,-59.39729579,0.02904499
MIK07221023,73,1,2024-07-22T02:10:05.054Z,english_431.wav,0,peel,610,2,0.2,32.8562558,0.95132877
MIK07221023,73,1,2024-07-22T02:10:05.054Z,english_431.wav,0,peel,610,3,0.3,-22.29744676,1.51616745
MIK07221023,73,1,2024-07-22T02:10:05.054Z,english_431.wav,0,peel,610,4,0.4,31.71546531,1.13295381
MIK07221023,73,1,2024-07-22T02:10:05.054Z,english_431.wav,0,peel,610,5,0.5,26.68689131,0.76516543
MIK07221023,73,1,2024-07-22T02:10:05.054Z,english_431.wav,0,peel,610,6,0.6,-67.6485219,0.83201004
MIK07221023,73,1,2024-07-22T02:10:05.054Z,english_431.wav,0,peel,610,7,0.7,27.20384073,0.376561
MIK07221023,73,1,2024-07-22T02:10:05.054Z,english_431.wav,0,peel,610,8,0.8,-89.82269949,1.59621374
MIK07221023,73,1,2024-07-22T02:10:05.054Z,english_431.wav,0,peel,610,9,0.9,-57.22282633,0.7949968
MIK07221023,73,1,2024-07-22T02:10:05.054Z,english_431.wav,0,peel,610,10,1.0,66.80474658,1.43069985
MIK07221023,73,1,2024-07-22T02:10:05.054Z,english_431.wav,0,peel,610,11,1.09391667,-8.50085654,0.47836789
MIK07221023,74,1,2024-07-22T02:10:05.054Z,english_493.wav,0,peel,771,0,0.0,-8.91567992,0.90906845
MIK07221023,74,1,2024-07-22T02:10:05.054Z,english_493.wav,0,peel,771,1,0.1,-2.81052192,1.82277729
MIK07221023,74,1,2024-07-22T02:10:05.054Z,english_493.wav,0,peel,771,2,0.2,0.93987988,1.85575617
MIK07221023,74,1,2024-07-22T02:10:05.054Z,english_493.wav,0,peel,771,3,0.3,-44.0664777,0.198144
MIK07221023,74,1,2024-07-22T02:10:05.054Z,english_493.wav,0,peel,771,4,0.4,12.64172921,0.31833397
MIK07221023,74,1,2024-07-22T02:10:05.054Z,english_493.wav,0,peel,771,5,0.5,38.10396852,0.16370317
MIK07221023,74,1,2024-07-22T02:10:05.054Z,english_493.wav,0,peel,771,6,0.6,51.1275002,0.48830507
MIK07221023,74,1,2024-07-22T02:10:05.054Z,english_493.wav,0,peel,771,7,0.7,-51.72089694,0.59724282
MIK07221023,74,1,2024-07-22T02:10:05.054Z,english_493.wav,0,peel,771,8,0.8,-22.89469136,0.45798431
MIK07221023,74,1,2024-07-22T02:10:05.054Z,english_493.wav,0,peel,771,9,0.9,55.14015253,1.24461858
MIK07221023,74,1,2024-07-22T02:10:05.054Z,english_493.wav,0,peel,771,10,1.0,69.89984763,1.33195334
MIK07221023,74,1,2024-07-22T02:10:05.054Z,english_493.wav,0,peel,771,11,1.09391667,7.83521283,1.92068406
MIK07221023,75,1,2024-07-22T02:10:05.054Z,english_310.wav,0,peel,318,0,0.0,-73.0364012,1.20427188
MIK07221023,75,1,2024-07-22T02:10:05.054Z,english_310.wav,0,peel,318,1,0.1,-22.1461231,0.93293509
MIK07221023,75,1,2024-07-22T02:10:05.054Z,english_310.wav,0,peel,318,2,0.2,-68.7915777,0.44843766
MIK07221023,75,1,2024-07-22T02:10:05.054Z,english_310.wav,0,peel,318,3,0.3,15.9567541,1.947333
MIK07221023,75,1,2024-07-22T02:10:05.054Z,english_310.wav,0,peel,318,4,0.4,0.0690214219,0.80984127
MIK07221023,75,1,2024-07-22T02:10:05.054Z,english_310.wav,0,peel,318,5,0.5,11.0751916,0.49483553
MIK07221023,75,1,2024-07-22T02:10:05.054Z,english_310.wav,0,peel,318,6,0.6,-4.73549816,1.63471819
MIK07221023,75,1,2024-07-22T02:10:05.054Z,english_310.wav,0,peel,318,7,0.7,89.4133264,0.6439244
MIK07221023,75,1,2024-07-22T02:10:05.054Z,english_310.wav,0,peel,318,8,0.8,8.5991291,1.83711469
MIK07221023,75,1,2024-07-22T02:10:05.054Z,english_310.wav,0,peel,318,9,0.9,-42.9855425,1.01800117
MIK07221023,75,1,2024-07-22T02:10:05.054Z,english_310.wav,0,peel,318,10,1.0,21.7690352,0.59348897
MIK07221023,75,1,2024-07-22T02:10:05.054Z,english_310.wav,0,peel,318,11,1.09391667,-68.5633248,1.68402605
MIK07221023,76,1,2024-07-22T02:10:05.054Z,english_447.wav,0,pill,813,0,0.0,-49.70124271,1.81391456
MIK07221023,76,1,2024-07-22T02:10:05.054Z,english_447.wav,0,pill,813,1,0.1,6.80747638,1.91818371
MIK07221023,76,1,2024-07-22T02:10:05.054Z,english_447.wav,0,pill,813,2,0.2,78.85711307,1.77045116
MIK07221023,76,1,2024-07-22T02:10:05.054Z,english_447.wav,0,pill,813,3,0.3,58.81086859,1.59965973
MIK07221023,76,1,2024-07-22T02:10:05.054Z,english_447.wav,0,pill,813,4,0.4,-4.36201374,1.21262432
MIK07221023,76,1,2024-07-22T02:10:05.054Z,english_447.wav,0,pill,813,5,0.5,-19.70745175,1.80283693
MIK07221023,76,1,2024-07-22T02:10:05.054Z,english_447.wav,0,pill,813,6,0.6,5.54500097,0.57888703
MIK07221023,76,1,2024-07-22T02:10:05.054Z,english_447.wav,0,pill,813,7,0.7,-73.03933833,0.47461482
MIK07221023,76,1,2024-07-22T02:10:05.054Z,english_447.wav,0,pill,813,8,0.8,-20.453142,0.56581151
MIK07221023,76,1,2024-07-22T02:10:05.054Z,english_447.wav,0,pill,813,9,0.9,9.14360097,0.85442376
MIK07221023,76,1,2024-07-22T02:10:05.054Z,english_447.wav,0,pill,813,10,1.0,-42.46591072,0.56057863
MIK07221023,76,1,2024-07-22T02:10:05.054Z,english_447.wav,0,pill,813,11,1.09391667,3.646082,1.46752368
MIK07221023,77,1,2024-07-22T02:10:05.054Z,english_267.wav,0,peel,397,0,0.0,-20.34373052,1.22339913
MIK07221023,77,1,2024-07-22T02:10:05.054Z,english_267.wav,0,peel,397,1,0.1,-8.01422086,0.37157124
MIK07221023,77,1,2024-07-22T02:10:05.054Z,english_267.wav,0,peel,397,2,0.2,93.04230665,0.88881734
MIK07221023,77,1,2024-07-22T02:10:05.054Z,english_267.wav,0,peel,397,3,0.3,41.74649662,0.98806935
MIK07221023,77,1,2024-07-22T02:10:05.054Z,english_267.wav,0,peel,397,4,0.4,-13.67169735,1.63374899
MIK07221023,77,1,2024-07-22T02:10:05.054Z,english_267.wav,0,peel,397,5,0.5,42.92753135,1.27803897
MIK07221023,77,1,2024-07-22T02:10:05.054Z,english_267.wav,0,peel,397,6,0.6,-31.66614436,0.65843477
MIK07221023,77,1,2024-07-22T02:10:05.054Z,english_267.wav,0,peel,397,7,0.7,-46.69110061,1.12503577
MIK07221023,77,1,2024-07-22T02:10:05.054Z,english_267.wav,0,peel,397,8,0.8,96.69640531,1.26069156
MIK07221023,77,1,2024-07-22T02:10:05.054Z,english_267.wav,0,peel,397,9,0.9,-51.1349073,0.35873403
MIK07221023,77,1,2024-07-22T02:10:05.054Z,english_267.wav,0,peel,397,10,1.0,-31.48458059,1.24202174
MIK07221023,77,1,2024-07-22T02:10:05.054Z,english_267.wav,0,peel,397,11,1.09391667,82.51520959,1.58881388
MIK07221023,78,1,2024-07-22T02:10:05.054Z,english_729.wav,0,peel,423,0,0.0,-26.87736921,0.37881467
MIK07221023,78,1,2024-07-22T02:10:05.054Z,english_729.wav,0,peel,423,1,0.1,-38.78454806,0.37257789
MIK07221023,78,1,2024-07-22T02:10:05.054Z,english_729.wav,0,peel,423,2,0.2,-69.72148419,1.48940085
MIK07221023,78,1,2024-07-22T02:10:05.054Z,english_729.wav,0,peel,423,3,0.3,56.72097213,1.14518806
MIK07221023,78,1,2024-07-22T02:10:05.054Z,english_729.wav,0,peel,423,4,0.4,-88.39667283,1.2314091
MIK07221023,78,1,2024-07-22T02:10:05.054Z,english_729.wav,0,peel,423,5,0.5,45.22282249,0.53736575
MIK07221023,78,1,2024-07-22T02:10:05.054Z,english_729.wav,0,peel,423,6,0.6,-11.07444694,1.57677514
MIK07221023,78,1,2024-07-22T02:10:05.054Z,english_729.wav,0,peel,423,7,0.7,-30.98601297,1.78543206
MIK07221023,78,1,2024-07-22T02:10:05.054Z,english_729.wav,0,peel,423,8,0.8,49.05819927,0.9243348
MIK07221023,78,1,2024-07-22T02:10:05.054Z,english_729.wav,0,peel,423,9,0.9,95.08611162,1.43220062
MIK07221023,78,1,2024-07-22T02:10:05.054Z,english_729.wav,0,peel,423,10,1.0,-80.37669622,1.4106878
MIK07221023,78,1,2024-07-22T02:10:05.054Z,english_729.wav,0,peel,423,11,1.09391667,-0.64736784,0.37073527
MIK07221023,79,1,2024-07-22T02:10:05.054Z,english_669.wav,0,peel,372,0,0.0,63.63841723,1.21965741
MIK07221023,79,1,2024-07-22T02:10:05.054Z,english_669.wav,0,peel,372,1,0.1,-16.46655099,1.77063888
MIK07221023,79,1,2024-07-22T02:10:05.054Z,english_669.wav,0,peel,372,2,0.2,59.94652085,1.19972221
MIK07221023,79,1,2024-07-22T02:10:05.054Z,english_669.wav,0,peel,372,3,0.3,87.91202499,1.09192955
MIK07221023,79,1,2024-07-22T02:10:05.054Z,english_669.wav,0,peel,372,4,0.4,-9.72604882,0.69529064
MIK07221023,79,1,2024-07-22T02:10:05.054Z,english_669.wav,0,peel,372,5,0.5,72.16172308,1.09710692
MIK07221023,79,1,2024-07-22T02:10:05.054Z,english_669.wav,0,peel,372,6,0.6,-64.88013083,1.91297745
MIK07221023,79,1,2024-07-22T02:10:05.054Z,english_669.wav,0,peel,372,7,0.7,26.66035036,1.12487674
MIK07221023,79,1,2024-07-22T02:10:05.054Z,english_669.wav,0,peel,372,8,0.8,-43.66675722,0.95542007
MIK07221023,79,1,2024-07-22T02:10:05.054Z,english_669.wav,0,peel,372,9,0.9,4.29997564,1.3922733
MIK07221023,79,1,2024-07-22T02:10:05.054Z,english_669.wav,0,peel,372,10,1.0,-68.31489554,1.61053031
MIK07221023,79,1,2024-07-22T02:10:05.054Z,english_669.wav,0,peel,372,11,1.09391667,-65.69487781,0.28856802
MIK07221023,80,1,2024-07-22T02:10:05.054Z,english_954.wav,0,pill,3408,0,0.0,-5.86860432,0.02682789
MIK07221023,80,1,2024-07-22T02:10:05.054Z,english_954.wav,0,pill,3408,1,0.1,38.42724969,1.50907573
MIK07221023,80,1,2024-07-22T02:10:05.054Z,english_954.wav,0,pill,3408,2,0.2,83.51680292,1.17187714
MIK07221023,80,1,2024-07-22T02:10:05.054Z,english_954.wav,0,pill,3408,3,0.3,-25.06032499,1.88473576
MIK07221023,80,1,2024-07-22T02:10:05.054Z,english_954.wav,0,pill,3408,4,0.4,-17.48975264,0.3035603
MIK07221023,80,1,2024-07-22T02:10:05.054Z,english_954.wav,0,pill,3408,5,0.5,95.06102198,1.35082964
MIK07221023,80,1,2024-07-22T02:10:05.054Z,english_954.wav,0,pill,3408,6,0.6,0.80140457,0.63281948
MIK07221023,80,1,2024-07-22T02:10:05.054Z,english_954.wav,0,pill,3408,7,0.7,-41.69263262,0.91375779
MIK07221023,80,1,2024-07-22T02:10:05.054Z,english_954.wav,0,pill,3408,8,0.8,18.46045351,0.80486046
MIK07221023,80,1,2024-07-22T02:10:05.054Z,english_954.wav,0,pill,3408,9,0.9,-7.88727361,0.18383046
MIK07221023,80,1,2024-07-22T02:10:05.054Z,english_954.wav,0,pill,3408,10,1.0,-34.36872213,1.25307449
MIK07221023,80,1,2024-07-22T02:10:05.054Z,english_954.wav,0,pill,3408,11,1.09391667,40.0906943,0.22905501
MIK07221023,81,1,2024-07-22T02:10:05.054Z,english_392.wav,0,peel,836,0,0.0,-70.59184809,1.01325522
MIK07221023,81,1,2024-07-22T02:10:05.054Z,english_392.wav,0,peel,836,1,0.1,20.01491038,0.99685804
MIK07221023,81,1,2024-07-22T02:10:05.054Z,english_392.wav,0,peel,836,2,0.2,95.98809517,1.2085184
MIK07221023,81,1,2024-07-22T02:10:05.054Z,english_392.wav,0,peel,836,3,0.3,21.94648666,0.87362666
MIK07221023,81,1,2024-07-22T02:10:05.054Z,english_392.wav,0,peel,836,4,0.4,71.03226698,0.83196355
MIK07221023,81,1,2024-07-22T02:10:05.054Z,english_392.wav,0,peel,836,5,0.5,-27.3636698,1.3261039
MIK07221023,81,1,2024-07-22T02:10:05.054Z,english_392.wav,0,peel,836,6,0.6,41.54107295,0.73205001
MIK07221023,81,1,2024-07-22T02:10:05.054Z,english_392.wav,0,peel,836,7,0.7,55.82041059,1.07805115
MIK07221023,81,1,2024-07-22T02:10:05.054Z,english_392.wav,0,peel,836,8,0.8,-12.2991889,0.81193203
MIK07221023,81,1,2024-07-22T02:10:05.054Z,english_392.wav,0,peel,836,9,0.9,-43.37866007,0.58657928
MIK07221023,81,1,2024-07-22T02:10:05.054Z,english_392.wav,0,peel,836,10,1.0,-72.71846832,1.75756764
MIK07221023,81,1,2024-07-22T02:10:05.054Z,english_392.wav,0,peel,836,11,1.09391667,17.46673253,0.10018242
MIK07221023,82,1,2024-07-22T02:10:05.054Z,english_304.wav,0,pill,1574,0,0.0,96.43315713,1.4273089
MIK07221023,82,1,2024-07-22T02:10:05.054Z,english_304.wav,0,pill,1574,1,0.1,95.93138412,1.40169358
MIK07221023,82,1,2024-07-22T02:10:05.054Z,english_304.wav,0,pill,1574,2,0.2,65.83383482,1.37134036
MIK07221023,82,1,2024-07-22T02:10:05.054Z,english_304.wav,0,pill,1574,3,0.3,84.09537744,0.09577365
MIK07221023,82,1,2024-07-22T02:10:05.054Z,english_304.wav,0,pill,1574,4,0.4,-66.2474925,1.82897854
MIK07221023,82,1,2024-07-22T02:10:05.054Z,english_304.wav,0,pill,1574,5,0.5,93.4095627,0.08231512
MIK07221023,82,1,2024-07-22T02:10:05.054Z,english_304.wav,0,pill,1574,6,0.6,-1.11643,0.16260787
MIK07221023,82,1,2024-07-22T02:10:05.054Z,english_304.wav,0,pill,1574,7,0.7,-9.86041812,1.3997004
MIK07221023,82,1,2024-07-22T02:10:05.054Z,english_304.wav,0,pill,1574,8,0.8,-26.38054207,0.11489059
MIK07221023,82,1,2024-07-22T02:10:05.054Z,english_304.wav,0,pill,1574,9,0.9,9.25483922,1.90722294
MIK07221023,82,1,2024-07-22T02:10:05.054Z,english_304.wav,0,pill,1574,10,1.0,-76.37569973,1.30374267
MIK07221023,82,1,2024-07-22T02:10:05.054Z,english_304.wav,0,pill,1574,11,1.09391667,-10.54226117,1.55839178
MIK07221023,83,1,2024-07-22T02:10:05.054Z,english_659.wav,0,peel,2150,0,0.0,-42.73609053,0.70277484
MIK07221023,83,1,2024-07-22T02:10:05.054Z,english_659.wav,0,peel,2150,1,0.1,-54.26462218,1.15657561
MIK07221023,83,1,2024-07-22T02:10:05.054Z,english_659.wav,0,peel,2150,2,0.2,4.14591437,0.91169634
MIK07221023,83,1,2024-07-22T02:10:05.054Z,english_659.wav,0,peel,2150,3,0.3,27.62308209,0.71232504
MIK07221023,83,1,2024-07-22T02:10:05.054Z,english_659.wav,0,peel,2150,4,0.4,38.57198708,1.23589102
MIK07221023,83,1,2024-07-22T02:10:05.054Z,english_659.wav,0,peel,2150,5,0.5,80.21422515,0.15679007
MIK07221023,83,1,2024-07-22T02:10:05.054Z,english_659.wav,0,peel,2150,6,0.6,73.99870372,0.18969614
MIK07221023,83,1,2024-07-22T02:10:05.054Z,english_659.wav,0,peel,2150,7,0.7,-75.83334389,0.50055959
MIK07221023,83,1,2024-07-22T02:10:05.054Z,english_659.wav,0,peel,2150,8,0.8,62.20160473,1.57461742
MIK07221023,83,1,2024-07-22T02:10:05.054Z,english_659.wav,0,peel,2150,9,0.9,4.13787027,1.20431491
MIK07221023,83,1,2024-07-22T02:10:05.054Z,english_659.wav,0,peel,2150,10,1.0,54.01825885,1.24355935
MIK07221023,83,1,2024-07-22T02:10:05.054Z,english_659.wav,0,peel,2150,11,1.09391667,93.31828501,1.36043281
MIK07221023,84,1,2024-07-22T02:10:05.054Z,english_22.wav,0,peel,817,0,0.0,70.18292814,0.28551441
