subj,trial,block,date,stim,stim_order,response,rt,param_index,segment,pitch,stretch
MIS,0,0,2024-06-16T04:10:47.718Z,english_867.wav,0,pill,9946,0,0.0,-24.89816024,0.58295981
MIS,0,0,2024-06-16T04:10:47.718Z,english_867.wav,0,pill,9946,1,0.1,-5.46882756,0.29098819
MIS,0,0,2024-06-16T04:10:47.718Z,english_867.wav,0,pill,9946,2,0.2,20.19834057,1.14395964
MIS,0,0,2024-06-16T04:10:47.718Z,english_867.wav,0,pill,9946,3,0.3,-93.32796435,1.65419487
MIS,0,0,2024-06-16T04:10:47.718Z,english_867.wav,0,pill,9946,4,0.4,33.67014856,0.61503003
MIS,0,0,2024-06-16T04:10:47.718Z,english_867.wav,0,pill,9946,5,0.5,-35.81311347,0.19208338
MIS,0,0,2024-06-16T04:10:47.718Z,english_867.wav,0,pill,9946,6,0.6,3.8400964,1.34794824
MIS,0,0,2024-06-16T04:10:47.718Z,english_867.wav,0,pill,9946,7,0.7,36.13382858,0.71921044
MIS,0,0,2024-06-16T04:10:47.718Z,english_867.wav,0,pill,9946,8,0.8,70.00228028,1.86066536
MIS,0,0,2024-06-16T04:10:47.718Z,english_867.wav,0,pill,9946,9,0.9,81.61272395,0.96263601
MIS,0,0,2024-06-16T04:10:47.718Z,english_867.wav,0,pill,9946,10,1.0,-46.82426053,1.18263142
MIS,0,0,2024-06-16T04:10:47.718Z,english_867.wav,0,pill,9946,11,1.09391667,21.97193379,1.25802514
MIS,1,0,2024-06-16T04:10:47.718Z,english_80.wav,0,peel,5714,0,0.0,15.98753908,1.07609062
MIS,1,0,2024-06-16T04:10:47.718Z,english_80.wav,0,peel,5714,1,0.1,-56.19575542,0.12895948
MIS,1,0,2024-06-16T04:10:47.718Z,english_80.wav,0,peel,5714,2,0.2,-3.20238754,1.07538029
MIS,1,0,2024-06-16T04:10:47.718Z,english_80.wav,0,peel,5714,3,0.3,78.26727965,0.04332835
MIS,1,0,2024-06-16T04:10:47.718Z,english_80.wav,0,peel,5714,4,0.4,-34.16157501,1.09018765
MIS,1,0,2024-06-16T04:10:47.718Z,english_80.wav,0,peel,5714,5,0.5,-80.06220611,0.93581394
MIS,1,0,2024-06-16T04:10:47.718Z,english_80.wav,0,peel,5714,6,0.6,26.74823286,0.96811326
MIS,1,0,2024-06-16T04:10:47.718Z,english_80.wav,0,peel,5714,7,0.7,37.47089689,0.66776739
MIS,1,0,2024-06-16T04:10:47.718Z,english_80.wav,0,peel,5714,8,0.8,26.79850159,0.56521885
MIS,1,0,2024-06-16T04:10:47.718Z,english_80.wav,0,peel,5714,9,0.9,-24.50397544,1.65043275
MIS,1,0,2024-06-16T04:10:47.718Z,english_80.wav,0,peel,5714,10,1.0,43.76607114,1.48241079
MIS,1,0,2024-06-16T04:10:47.718Z,english_80.wav,0,peel,5714,11,1.09391667,10.09103426,1.57868315
MIS,2,0,2024-06-16T04:10:47.718Z,english_364.wav,0,pill,3872,0,0.0,83.865778,0.64688834
MIS,2,0,2024-06-16T04:10:47.718Z,english_364.wav,0,pill,3872,1,0.1,63.76779424,1.36525912
MIS,2,0,2024-06-16T04:10:47.718Z,english_364.wav,0,pill,3872,2,0.2,76.73494008,0.98445588
MIS,2,0,2024-06-16T04:10:47.718Z,english_364.wav,0,pill,3872,3,0.3,63.04278033,1.58126378
MIS,2,0,2024-06-16T04:10:47.718Z,english_364.wav,0,pill,3872,4,0.4,-55.03833232,1.2558055
MIS,2,0,2024-06-16T04:10:47.718Z,english_364.wav,0,pill,3872,5,0.5,57.11242427,1.01407945
MIS,2,0,2024-06-16T04:10:47.718Z,english_364.wav,0,pill,3872,6,0.6,15.41108418,1.72440997
MIS,2,0,2024-06-16T04:10:47.718Z,english_364.wav,0,pill,3872,7,0.7,3.11298983,1.75247835
MIS,2,0,2024-06-16T04:10:47.718Z,english_364.wav,0,pill,3872,8,0.8,15.49246741,0.306912
MIS,2,0,2024-06-16T04:10:47.718Z,english_364.wav,0,pill,3872,9,0.9,-76.70109977,1.65351594
MIS,2,0,2024-06-16T04:10:47.718Z,english_364.wav,0,pill,3872,10,1.0,21.21406375,0.67540521
MIS,2,0,2024-06-16T04:10:47.718Z,english_364.wav,0,pill,3872,11,1.09391667,20.91306008,0.2382038
MIS,3,0,2024-06-16T04:10:47.718Z,english_860.wav,0,pill,2222,0,0.0,-75.11512177,0.5802678
MIS,3,0,2024-06-16T04:10:47.718Z,english_860.wav,0,pill,2222,1,0.1,-76.73255409,0.63510207
MIS,3,0,2024-06-16T04:10:47.718Z,english_860.wav,0,pill,2222,2,0.2,-22.8093588,1.68265606
MIS,3,0,2024-06-16T04:10:47.718Z,english_860.wav,0,pill,2222,3,0.3,52.97738113,1.3480606
MIS,3,0,2024-06-16T04:10:47.718Z,english_860.wav,0,pill,2222,4,0.4,-48.45234216,1.82238625
MIS,3,0,2024-06-16T04:10:47.718Z,english_860.wav,0,pill,2222,5,0.5,-73.13735188,1.51063726
MIS,3,0,2024-06-16T04:10:47.718Z,english_860.wav,0,pill,2222,6,0.6,-46.97684059,1.0243353
MIS,3,0,2024-06-16T04:10:47.718Z,english_860.wav,0,pill,2222,7,0.7,-71.08749695,1.81300466
MIS,3,0,2024-06-16T04:10:47.718Z,english_860.wav,0,pill,2222,8,0.8,63.11648415,1.10665048
MIS,3,0,2024-06-16T04:10:47.718Z,english_860.wav,0,pill,2222,9,0.9,33.70639775,0.26575263
MIS,3,0,2024-06-16T04:10:47.718Z,english_860.wav,0,pill,2222,10,1.0,39.70734852,1.65404894
MIS,3,0,2024-06-16T04:10:47.718Z,english_860.wav,0,pill,2222,11,1.09391667,-93.86026271,1.66618104
MIS,4,0,2024-06-16T04:10:47.718Z,english_621.wav,0,pill,5687,0,0.0,-74.24878318,0.93601321
MIS,4,0,2024-06-16T04:10:47.718Z,english_621.wav,0,pill,5687,1,0.1,-12.82719127,0.02173653
MIS,4,0,2024-06-16T04:10:47.718Z,english_621.wav,0,pill,5687,2,0.2,3.61853193,1.07860453
MIS,4,0,2024-06-16T04:10:47.718Z,english_621.wav,0,pill,5687,3,0.3,-16.39499855,0.96714094
MIS,4,0,2024-06-16T04:10:47.718Z,english_621.wav,0,pill,5687,4,0.4,-89.70056374,1.95658064
MIS,4,0,2024-06-16T04:10:47.718Z,english_621.wav,0,pill,5687,5,0.5,72.53085493,1.88201263
MIS,4,0,2024-06-16T04:10:47.718Z,english_621.wav,0,pill,5687,6,0.6,87.29143958,0.77277656
MIS,4,0,2024-06-16T04:10:47.718Z,english_621.wav,0,pill,5687,7,0.7,-71.1226898,1.76144164
MIS,4,0,2024-06-16T04:10:47.718Z,english_621.wav,0,pill,5687,8,0.8,-39.19004307,0.10690587
MIS,4,0,2024-06-16T04:10:47.718Z,english_621.wav,0,pill,5687,9,0.9,-51.74295002,0.22188414
MIS,4,0,2024-06-16T04:10:47.718Z,english_621.wav,0,pill,5687,10,1.0,-16.28254182,0.28939347
MIS,4,0,2024-06-16T04:10:47.718Z,english_621.wav,0,pill,5687,11,1.09391667,-19.75159105,1.03317567
MIS,5,0,2024-06-16T04:10:47.718Z,english_807.wav,0,pill,2028,0,0.0,-34.7601745,1.20965337
MIS,5,0,2024-06-16T04:10:47.718Z,english_807.wav,0,pill,2028,1,0.1,33.36048689,1.65563234
MIS,5,0,2024-06-16T04:10:47.718Z,english_807.wav,0,pill,2028,2,0.2,-67.67370502,1.59964516
MIS,5,0,2024-06-16T04:10:47.718Z,english_807.wav,0,pill,2028,3,0.3,-75.303265,0.1616649
MIS,5,0,2024-06-16T04:10:47.718Z,english_807.wav,0,pill,2028,4,0.4,50.02795893,0.65690397
MIS,5,0,2024-06-16T04:10:47.718Z,english_807.wav,0,pill,2028,5,0.5,-86.15237501,1.06047173
MIS,5,0,2024-06-16T04:10:47.718Z,english_807.wav,0,pill,2028,6,0.6,75.95576156,1.33167503
MIS,5,0,2024-06-16T04:10:47.718Z,english_807.wav,0,pill,2028,7,0.7,90.49040763,0.49356808
MIS,5,0,2024-06-16T04:10:47.718Z,english_807.wav,0,pill,2028,8,0.8,-21.66303016,0.55567292
MIS,5,0,2024-06-16T04:10:47.718Z,english_807.wav,0,pill,2028,9,0.9,-29.03621191,1.52247069
MIS,5,0,2024-06-16T04:10:47.718Z,english_807.wav,0,pill,2028,10,1.0,-43.10401298,1.04125391
MIS,5,0,2024-06-16T04:10:47.718Z,english_807.wav,0,pill,2028,11,1.09391667,15.25709301,0.73437953
MIS,6,0,2024-06-16T04:10:47.718Z,english_233.wav,0,peel,3471,0,0.0,-12.45233214,1.31283544
MIS,6,0,2024-06-16T04:10:47.718Z,english_233.wav,0,peel,3471,1,0.1,-33.20786902,0.09471032
MIS,6,0,2024-06-16T04:10:47.718Z,english_233.wav,0,peel,3471,2,0.2,-3.84628349,1.88233627
MIS,6,0,2024-06-16T04:10:47.718Z,english_233.wav,0,peel,3471,3,0.3,52.58812425,1.21028248
MIS,6,0,2024-06-16T04:10:47.718Z,english_233.wav,0,peel,3471,4,0.4,-82.78729146,0.9101705
MIS,6,0,2024-06-16T04:10:47.718Z,english_233.wav,0,peel,3471,5,0.5,-90.93928836,1.74264946
MIS,6,0,2024-06-16T04:10:47.718Z,english_233.wav,0,peel,3471,6,0.6,91.49342166,1.34024886
MIS,6,0,2024-06-16T04:10:47.718Z,english_233.wav,0,peel,3471,7,0.7,39.27925393,0.33883292
MIS,6,0,2024-06-16T04:10:47.718Z,english_233.wav,0,peel,3471,8,0.8,-0.66571259,1.35075989
MIS,6,0,2024-06-16T04:10:47.718Z,english_233.wav,0,peel,3471,9,0.9,50.1456693,1.4470152
MIS,6,0,2024-06-16T04:10:47.718Z,english_233.wav,0,peel,3471,10,1.0,-6.64277825,1.15231478
MIS,6,0,2024-06-16T04:10:47.718Z,english_233.wav,0,peel,3471,11,1.09391667,8.91074874,1.87164883
MIS,7,0,2024-06-16T04:10:47.718Z,english_556.wav,0,peel,2109,0,0.0,-68.09670747,1.3485974
MIS,7,0,2024-06-16T04:10:47.718Z,english_556.wav,0,peel,2109,1,0.1,8.96692918,0.84698507
MIS,7,0,2024-06-16T04:10:47.718Z,english_556.wav,0,peel,2109,2,0.2,-46.83531772,0.06218337
MIS,7,0,2024-06-16T04:10:47.718Z,english_556.wav,0,peel,2109,3,0.3,-87.32202155,0.66181265
MIS,7,0,2024-06-16T04:10:47.718Z,english_556.wav,0,peel,2109,4,0.4,49.65406328,1.9600464
MIS,7,0,2024-06-16T04:10:47.718Z,english_556.wav,0,peel,2109,5,0.5,92.65716025,0.67849191
MIS,7,0,2024-06-16T04:10:47.718Z,english_556.wav,0,peel,2109,6,0.6,-17.76161657,0.9118753
MIS,7,0,2024-06-16T04:10:47.718Z,english_556.wav,0,peel,2109,7,0.7,-85.77085821,0.73811047
MIS,7,0,2024-06-16T04:10:47.718Z,english_556.wav,0,peel,2109,8,0.8,-31.44799715,0.91861979
MIS,7,0,2024-06-16T04:10:47.718Z,english_556.wav,0,peel,2109,9,0.9,-32.59755967,1.18816365
MIS,7,0,2024-06-16T04:10:47.718Z,english_556.wav,0,peel,2109,10,1.0,-96.2091504,1.86623217
MIS,7,0,2024-06-16T04:10:47.718Z,english_556.wav,0,peel,2109,11,1.09391667,-0.57982779,0.61760757
MIS,8,0,2024-06-16T04:10:47.718Z,english_684.wav,0,pill,1344,0,0.0,44.6488214,0.31150518
MIS,8,0,2024-06-16T04:10:47.718Z,english_684.wav,0,pill,1344,1,0.1,9.68442182,0.4998365
MIS,8,0,2024-06-16T04:10:47.718Z,english_684.wav,0,pill,1344,2,0.2,-45.058789,0.24275602
MIS,8,0,2024-06-16T04:10:47.718Z,english_684.wav,0,pill,1344,3,0.3,9.29989294,1.63678411
MIS,8,0,2024-06-16T04:10:47.718Z,english_684.wav,0,pill,1344,4,0.4,-93.3818257,1.55347247
MIS,8,0,2024-06-16T04:10:47.718Z,english_684.wav,0,pill,1344,5,0.5,-18.6654658,0.93326504
MIS,8,0,2024-06-16T04:10:47.718Z,english_684.wav,0,pill,1344,6,0.6,-36.1937511,1.36007358
MIS,8,0,2024-06-16T04:10:47.718Z,english_684.wav,0,pill,1344,7,0.7,-0.0227796988,0.52423503
MIS,8,0,2024-06-16T04:10:47.718Z,english_684.wav,0,pill,1344,8,0.8,-81.9835579,1.47566928
MIS,8,0,2024-06-16T04:10:47.718Z,english_684.wav,0,pill,1344,9,0.9,66.7026535,1.32008624
MIS,8,0,2024-06-16T04:10:47.718Z,english_684.wav,0,pill,1344,10,1.0,-28.1669756,1.00236166
MIS,8,0,2024-06-16T04:10:47.718Z,english_684.wav,0,pill,1344,11,1.09391667,-31.1571246,1.13724252
MIS,9,0,2024-06-16T04:10:47.718Z,english_646.wav,0,peel,3375,0,0.0,-72.16367523,1.23252036
MIS,9,0,2024-06-16T04:10:47.718Z,english_646.wav,0,peel,3375,1,0.1,89.23048569,0.41153547
MIS,9,0,2024-06-16T04:10:47.718Z,english_646.wav,0,peel,3375,2,0.2,3.93643173,1.30500866
MIS,9,0,2024-06-16T04:10:47.718Z,english_646.wav,0,peel,3375,3,0.3,32.33211102,0.16779894
MIS,9,0,2024-06-16T04:10:47.718Z,english_646.wav,0,peel,3375,4,0.4,57.94131679,1.44956343
MIS,9,0,2024-06-16T04:10:47.718Z,english_646.wav,0,peel,3375,5,0.5,3.36702109,0.43462
MIS,9,0,2024-06-16T04:10:47.718Z,english_646.wav,0,peel,3375,6,0.6,61.97454592,1.17161273
MIS,9,0,2024-06-16T04:10:47.718Z,english_646.wav,0,peel,3375,7,0.7,-38.94515992,1.33009112
MIS,9,0,2024-06-16T04:10:47.718Z,english_646.wav,0,peel,3375,8,0.8,18.02819855,1.9601355
MIS,9,0,2024-06-16T04:10:47.718Z,english_646.wav,0,peel,3375,9,0.9,-7.01403953,1.16018484
MIS,9,0,2024-06-16T04:10:47.718Z,english_646.wav,0,peel,3375,10,1.0,22.99913436,0.4872476
MIS,9,0,2024-06-16T04:10:47.718Z,english_646.wav,0,peel,3375,11,1.09391667,-15.24744046,0.4931797
MIS,10,0,2024-06-16T04:10:47.718Z,english_372.wav,0,pill,1806,0,0.0,26.59916967,1.01937466
MIS,10,0,2024-06-16T04:10:47.718Z,english_372.wav,0,pill,1806,1,0.1,3.58814385,0.79696142
MIS,10,0,2024-06-16T04:10:47.718Z,english_372.wav,0,pill,1806,2,0.2,-60.14178388,0.00503004
MIS,10,0,2024-06-16T04:10:47.718Z,english_372.wav,0,pill,1806,3,0.3,-44.19894674,0.84575405
MIS,10,0,2024-06-16T04:10:47.718Z,english_372.wav,0,pill,1806,4,0.4,-38.03613901,0.48969314
MIS,10,0,2024-06-16T04:10:47.718Z,english_372.wav,0,pill,1806,5,0.5,46.39303355,1.79043023
MIS,10,0,2024-06-16T04:10:47.718Z,english_372.wav,0,pill,1806,6,0.6,-33.97181462,1.46860797
MIS,10,0,2024-06-16T04:10:47.718Z,english_372.wav,0,pill,1806,7,0.7,-27.46884733,0.04122284
MIS,10,0,2024-06-16T04:10:47.718Z,english_372.wav,0,pill,1806,8,0.8,-45.55461231,0.63203754
MIS,10,0,2024-06-16T04:10:47.718Z,english_372.wav,0,pill,1806,9,0.9,20.15963599,1.00944548
MIS,10,0,2024-06-16T04:10:47.718Z,english_372.wav,0,pill,1806,10,1.0,54.79355498,0.7711604
MIS,10,0,2024-06-16T04:10:47.718Z,english_372.wav,0,pill,1806,11,1.09391667,93.56246184,0.15048829
MIS,11,0,2024-06-16T04:10:47.718Z,english_183.wav,0,pill,1530,0,0.0,56.94082111,1.46471885
MIS,11,0,2024-06-16T04:10:47.718Z,english_183.wav,0,pill,1530,1,0.1,23.76823823,0.27157125
MIS,11,0,2024-06-16T04:10:47.718Z,english_183.wav,0,pill,1530,2,0.2,-72.77208824,0.89995591
MIS,11,0,2024-06-16T04:10:47.718Z,english_183.wav,0,pill,1530,3,0.3,-26.01651227,0.86595775
MIS,11,0,2024-06-16T04:10:47.718Z,english_183.wav,0,pill,1530,4,0.4,97.95217456,0.99665554
MIS,11,0,2024-06-16T04:10:47.718Z,english_183.wav,0,pill,1530,5,0.5,-88.35240054,1.5130978
MIS,11,0,2024-06-16T04:10:47.718Z,english_183.wav,0,pill,1530,6,0.6,8.20957713,0.89371921
MIS,11,0,2024-06-16T04:10:47.718Z,english_183.wav,0,pill,1530,7,0.7,-0.21457891,0.60499738
MIS,11,0,2024-06-16T04:10:47.718Z,english_183.wav,0,pill,1530,8,0.8,-22.50054627,0.6752389
MIS,11,0,2024-06-16T04:10:47.718Z,english_183.wav,0,pill,1530,9,0.9,-26.93782132,0.26345185
MIS,11,0,2024-06-16T04:10:47.718Z,english_183.wav,0,pill,1530,10,1.0,-9.93952746,0.41919446
MIS,11,0,2024-06-16T04:10:47.718Z,english_183.wav,0,pill,1530,11,1.09391667,16.7040789,0.61479122
MIS,12,0,2024-06-16T04:10:47.718Z,english_657.wav,0,pill,1727,0,0.0,-63.69177318,1.72307232
MIS,12,0,2024-06-16T04:10:47.718Z,english_657.wav,0,pill,1727,1,0.1,54.73276248,1.66830023
MIS,12,0,2024-06-16T04:10:47.718Z,english_657.wav,0,pill,1727,2,0.2,-43.55623832,1.13616271
MIS,12,0,2024-06-16T04:10:47.718Z,english_657.wav,0,pill,1727,3,0.3,11.0238782,1.88829015
MIS,12,0,2024-06-16T04:10:47.718Z,english_657.wav,0,pill,1727,4,0.4,-59.68015802,1.12700282
MIS,12,0,2024-06-16T04:10:47.718Z,english_657.wav,0,pill,1727,5,0.5,27.65759043,0.7230722
MIS,12,0,2024-06-16T04:10:47.718Z,english_657.wav,0,pill,1727,6,0.6,-5.28412069,0.45968236
MIS,12,0,2024-06-16T04:10:47.718Z,english_657.wav,0,pill,1727,7,0.7,11.72971173,1.25039239
MIS,12,0,2024-06-16T04:10:47.718Z,english_657.wav,0,pill,1727,8,0.8,72.01905562,0.98563216
MIS,12,0,2024-06-16T04:10:47.718Z,english_657.wav,0,pill,1727,9,0.9,65.996528,0.19974442
MIS,12,0,2024-06-16T04:10:47.718Z,english_657.wav,0,pill,1727,10,1.0,-90.37548991,1.44886145
MIS,12,0,2024-06-16T04:10:47.718Z,english_657.wav,0,pill,1727,11,1.09391667,-82.6734304,0.27222986
MIS,13,0,2024-06-16T04:10:47.718Z,english_958.wav,0,pill,2228,0,0.0,82.24324258,1.82058144
MIS,13,0,2024-06-16T04:10:47.718Z,english_958.wav,0,pill,2228,1,0.1,80.86962612,1.23603782
MIS,13,0,2024-06-16T04:10:47.718Z,english_958.wav,0,pill,2228,2,0.2,-72.80020936,0.454026
MIS,13,0,2024-06-16T04:10:47.718Z,english_958.wav,0,pill,2228,3,0.3,76.49424807,0.0052754
MIS,13,0,2024-06-16T04:10:47.718Z,english_958.wav,0,pill,2228,4,0.4,-64.96103848,1.08282214
MIS,13,0,2024-06-16T04:10:47.718Z,english_958.wav,0,pill,2228,5,0.5,-28.48200693,1.85144542
MIS,13,0,2024-06-16T04:10:47.718Z,english_958.wav,0,pill,2228,6,0.6,36.24392724,1.26196062
MIS,13,0,2024-06-16T04:10:47.718Z,english_958.wav,0,pill,2228,7,0.7,61.50604074,1.03215922
MIS,13,0,2024-06-16T04:10:47.718Z,english_958.wav,0,pill,2228,8,0.8,-15.49344292,0.62598284
MIS,13,0,2024-06-16T04:10:47.718Z,english_958.wav,0,pill,2228,9,0.9,94.8143858,0.44294081
MIS,13,0,2024-06-16T04:10:47.718Z,english_958.wav,0,pill,2228,10,1.0,-29.01167878,0.91164636
MIS,13,0,2024-06-16T04:10:47.718Z,english_958.wav,0,pill,2228,11,1.09391667,29.83149857,0.09783427
MIS,14,0,2024-06-16T04:10:47.718Z,english_360.wav,0,peel,3134,0,0.0,-18.06250331,0.74392756
MIS,14,0,2024-06-16T04:10:47.718Z,english_360.wav,0,peel,3134,1,0.1,-60.78778271,0.33295665
MIS,14,0,2024-06-16T04:10:47.718Z,english_360.wav,0,peel,3134,2,0.2,64.58604958,0.59589568
MIS,14,0,2024-06-16T04:10:47.718Z,english_360.wav,0,peel,3134,3,0.3,15.14883939,1.76245157
MIS,14,0,2024-06-16T04:10:47.718Z,english_360.wav,0,peel,3134,4,0.4,35.32268856,1.62745171
MIS,14,0,2024-06-16T04:10:47.718Z,english_360.wav,0,peel,3134,5,0.5,85.60433583,0.48465
MIS,14,0,2024-06-16T04:10:47.718Z,english_360.wav,0,peel,3134,6,0.6,-60.74616214,0.94927774
MIS,14,0,2024-06-16T04:10:47.718Z,english_360.wav,0,peel,3134,7,0.7,93.69417602,1.65570249
MIS,14,0,2024-06-16T04:10:47.718Z,english_360.wav,0,peel,3134,8,0.8,16.46151858,1.54593081
MIS,14,0,2024-06-16T04:10:47.718Z,english_360.wav,0,peel,3134,9,0.9,58.0175924,0.34320104
MIS,14,0,2024-06-16T04:10:47.718Z,english_360.wav,0,peel,3134,10,1.0,51.01229948,0.20094936
MIS,14,0,2024-06-16T04:10:47.718Z,english_360.wav,0,peel,3134,11,1.09391667,19.14891505,0.69882977
MIS,15,0,2024-06-16T04:10:47.718Z,english_334.wav,0,pill,1684,0,0.0,96.16486857,1.13651221
MIS,15,0,2024-06-16T04:10:47.718Z,english_334.wav,0,pill,1684,1,0.1,-86.51500024,1.49269335
MIS,15,0,2024-06-16T04:10:47.718Z,english_334.wav,0,pill,1684,2,0.2,-9.37257187,0.61460927
MIS,15,0,2024-06-16T04:10:47.718Z,english_334.wav,0,pill,1684,3,0.3,72.06266942,0.5407499
MIS,15,0,2024-06-16T04:10:47.718Z,english_334.wav,0,pill,1684,4,0.4,11.10798007,1.09788414
MIS,15,0,2024-06-16T04:10:47.718Z,english_334.wav,0,pill,1684,5,0.5,-81.04621106,1.18897069
MIS,15,0,2024-06-16T04:10:47.718Z,english_334.wav,0,pill,1684,6,0.6,-50.80034191,1.05502288
MIS,15,0,2024-06-16T04:10:47.718Z,english_334.wav,0,pill,1684,7,0.7,40.96771285,1.84226931
MIS,15,0,2024-06-16T04:10:47.718Z,english_334.wav,0,pill,1684,8,0.8,92.51105292,0.15122728
MIS,15,0,2024-06-16T04:10:47.718Z,english_334.wav,0,pill,1684,9,0.9,6.87694398,1.31717853
MIS,15,0,2024-06-16T04:10:47.718Z,english_334.wav,0,pill,1684,10,1.0,8.2337815,0.71137381
MIS,15,0,2024-06-16T04:10:47.718Z,english_334.wav,0,pill,1684,11,1.09391667,-26.51950547,0.47666491
MIS,16,0,2024-06-16T04:10:47.718Z,english_90.wav,0,peel,4402,0,0.0,63.54924995,1.34228215
MIS,16,0,2024-06-16T04:10:47.718Z,english_90.wav,0,peel,4402,1,0.1,-59.21327506,1.34732724
MIS,16,0,2024-06-16T04:10:47.718Z,english_90.wav,0,peel,4402,2,0.2,34.58495613,1.75147993
MIS,16,0,2024-06-16T04:10:47.718Z,english_90.wav,0,peel,4402,3,0.3,3.2427236,0.03089284
MIS,16,0,2024-06-16T04:10:47.718Z,english_90.wav,0,peel,4402,4,0.4,1.17936493,1.52341973
MIS,16,0,2024-06-16T04:10:47.718Z,english_90.wav,0,peel,4402,5,0.5,50.51297544,0.97925583
MIS,16,0,2024-06-16T04:10:47.718Z,english_90.wav,0,peel,4402,6,0.6,61.04656064,1.17642538
MIS,16,0,2024-06-16T04:10:47.718Z,english_90.wav,0,peel,4402,7,0.7,-96.36424089,1.13367306
MIS,16,0,2024-06-16T04:10:47.718Z,english_90.wav,0,peel,4402,8,0.8,9.94738881,1.45431282
MIS,16,0,2024-06-16T04:10:47.718Z,english_90.wav,0,peel,4402,9,0.9,-95.56108651,0.56738547
MIS,16,0,2024-06-16T04:10:47.718Z,english_90.wav,0,peel,4402,10,1.0,-78.91453265,1.10123663
MIS,16,0,2024-06-16T04:10:47.718Z,english_90.wav,0,peel,4402,11,1.09391667,57.06664979,0.76686745
MIS,17,0,2024-06-16T04:10:47.718Z,english_393.wav,0,pill,1717,0,0.0,-58.74313134,0.16237212
MIS,17,0,2024-06-16T04:10:47.718Z,english_393.wav,0,pill,1717,1,0.1,46.38152714,1.56085016
MIS,17,0,2024-06-16T04:10:47.718Z,english_393.wav,0,pill,1717,2,0.2,-5.44961594,0.52643067
MIS,17,0,2024-06-16T04:10:47.718Z,english_393.wav,0,pill,1717,3,0.3,51.05560406,0.88104135
MIS,17,0,2024-06-16T04:10:47.718Z,english_393.wav,0,pill,1717,4,0.4,48.86629046,0.28565075
MIS,17,0,2024-06-16T04:10:47.718Z,english_393.wav,0,pill,1717,5,0.5,-0.66798529,1.31813369
MIS,17,0,2024-06-16T04:10:47.718Z,english_393.wav,0,pill,1717,6,0.6,8.72000336,1.65879699
MIS,17,0,2024-06-16T04:10:47.718Z,english_393.wav,0,pill,1717,7,0.7,67.13946978,1.88209371
MIS,17,0,2024-06-16T04:10:47.718Z,english_393.wav,0,pill,1717,8,0.8,18.17496414,0.89524583
MIS,17,0,2024-06-16T04:10:47.718Z,english_393.wav,0,pill,1717,9,0.9,-78.16206847,0.64742398
MIS,17,0,2024-06-16T04:10:47.718Z,english_393.wav,0,pill,1717,10,1.0,26.35406132,0.57671432
MIS,17,0,2024-06-16T04:10:47.718Z,english_393.wav,0,pill,1717,11,1.09391667,94.49751902,1.24089852
MIS,18,0,2024-06-16T04:10:47.718Z,english_757.wav,0,pill,4127,0,0.0,26.0154679,0.86626914
MIS,18,0,2024-06-16T04:10:47.718Z,english_757.wav,0,pill,4127,1,0.1,-81.78316815,1.8292062
MIS,18,0,2024-06-16T04:10:47.718Z,english_757.wav,0,pill,4127,2,0.2,24.8129191,0.11166618
MIS,18,0,2024-06-16T04:10:47.718Z,english_757.wav,0,pill,4127,3,0.3,-92.40862689,1.6321581
MIS,18,0,2024-06-16T04:10:47.718Z,english_757.wav,0,pill,4127,4,0.4,75.32531846,1.47340274
MIS,18,0,2024-06-16T04:10:47.718Z,english_757.wav,0,pill,4127,5,0.5,-66.35281637,0.8022413
MIS,18,0,2024-06-16T04:10:47.718Z,english_757.wav,0,pill,4127,6,0.6,-7.38230753,0.64841019
MIS,18,0,2024-06-16T04:10:47.718Z,english_757.wav,0,pill,4127,7,0.7,87.06226271,0.78666377
MIS,18,0,2024-06-16T04:10:47.718Z,english_757.wav,0,pill,4127,8,0.8,39.69275954,0.73828249
MIS,18,0,2024-06-16T04:10:47.718Z,english_757.wav,0,pill,4127,9,0.9,-78.28701329,1.08245488
MIS,18,0,2024-06-16T04:10:47.718Z,english_757.wav,0,pill,4127,10,1.0,-77.31255291,1.44296588
MIS,18,0,2024-06-16T04:10:47.718Z,english_757.wav,0,pill,4127,11,1.09391667,70.90825389,0.56236939
MIS,19,0,2024-06-16T04:10:47.718Z,english_740.wav,0,pill,1356,0,0.0,44.23615519,0.18420553
MIS,19,0,2024-06-16T04:10:47.718Z,english_740.wav,0,pill,1356,1,0.1,98.76848798,0.33702749
MIS,19,0,2024-06-16T04:10:47.718Z,english_740.wav,0,pill,1356,2,0.2,-87.19170744,1.65487116
MIS,19,0,2024-06-16T04:10:47.718Z,english_740.wav,0,pill,1356,3,0.3,17.94684961,1.85046367
MIS,19,0,2024-06-16T04:10:47.718Z,english_740.wav,0,pill,1356,4,0.4,-12.45304931,1.41062797
MIS,19,0,2024-06-16T04:10:47.718Z,english_740.wav,0,pill,1356,5,0.5,-75.39454761,0.63278533
MIS,19,0,2024-06-16T04:10:47.718Z,english_740.wav,0,pill,1356,6,0.6,-53.40311478,0.41831459
MIS,19,0,2024-06-16T04:10:47.718Z,english_740.wav,0,pill,1356,7,0.7,-59.89405571,0.99199332
MIS,19,0,2024-06-16T04:10:47.718Z,english_740.wav,0,pill,1356,8,0.8,75.23070465,1.19341016
MIS,19,0,2024-06-16T04:10:47.718Z,english_740.wav,0,pill,1356,9,0.9,-2.56343276,1.12149102
MIS,19,0,2024-06-16T04:10:47.718Z,english_740.wav,0,pill,1356,10,1.0,-6.86096821,0.55698581
MIS,19,0,2024-06-16T04:10:47.718Z,english_740.wav,0,pill,1356,11,1.09391667,-15.16975803,1.3020905
MIS,20,0,2024-06-16T04:10:47.718Z,english_427.wav,0,pill,2880,0,0.0,-34.05157895,1.0004529
MIS,20,0,2024-06-16T04:10:47.718Z,english_427.wav,0,pill,2880,1,0.1,58.19153473,1.21096565
MIS,20,0,2024-06-16T04:10:47.718Z,english_427.wav,0,pill,2880,2,0.2,-48.12257975,0.11590133
MIS,20,0,2024-06-16T04:10:47.718Z,english_427.wav,0,pill,2880,3,0.3,49.89061623,1.91629618
MIS,20,0,2024-06-16T04:10:47.718Z,english_427.wav,0,pill,2880,4,0.4,34.36154687,1.2268838
MIS,20,0,2024-06-16T04:10:47.718Z,english_427.wav,0,pill,2880,5,0.5,-5.3172375,1.50953507
MIS,20,0,2024-06-16T04:10:47.718Z,english_427.wav,0,pill,2880,6,0.6,22.96924358,0.88661312
MIS,20,0,2024-06-16T04:10:47.718Z,english_427.wav,0,pill,2880,7,0.7,-97.31174849,0.11078335
MIS,20,0,2024-06-16T04:10:47.718Z,english_427.wav,0,pill,2880,8,0.8,-28.90224272,0.79636785
MIS,20,0,2024-06-16T04:10:47.718Z,english_427.wav,0,pill,2880,9,0.9,-26.24845885,0.27345116
MIS,20,0,2024-06-16T04:10:47.718Z,english_427.wav,0,pill,2880,10,1.0,92.28378811,0.14785478
MIS,20,0,2024-06-16T04:10:47.718Z,english_427.wav,0,pill,2880,11,1.09391667,-48.38945182,0.43629002
MIS,21,0,2024-06-16T04:10:47.718Z,english_75.wav,0,pill,4355,0,0.0,65.41838677,1.57781759
MIS,21,0,2024-06-16T04:10:47.718Z,english_75.wav,0,pill,4355,1,0.1,-26.14209168,0.77148349
MIS,21,0,2024-06-16T04:10:47.718Z,english_75.wav,0,pill,4355,2,0.2,-26.49286349,1.21755239
MIS,21,0,2024-06-16T04:10:47.718Z,english_75.wav,0,pill,4355,3,0.3,24.3393517,1.81969944
MIS,21,0,2024-06-16T04:10:47.718Z,english_75.wav,0,pill,4355,4,0.4,41.72589255,1.02092036
MIS,21,0,2024-06-16T04:10:47.718Z,english_75.wav,0,pill,4355,5,0.5,5.99778054,0.99503371
MIS,21,0,2024-06-16T04:10:47.718Z,english_75.wav,0,pill,4355,6,0.6,-80.58181045,0.23100369
MIS,21,0,2024-06-16T04:10:47.718Z,english_75.wav,0,pill,4355,7,0.7,-99.66211708,0.28893428
MIS,21,0,2024-06-16T04:10:47.718Z,english_75.wav,0,pill,4355,8,0.8,55.65408757,1.5775207
MIS,21,0,2024-06-16T04:10:47.718Z,english_75.wav,0,pill,4355,9,0.9,95.67727499,1.18557327
MIS,21,0,2024-06-16T04:10:47.718Z,english_75.wav,0,pill,4355,10,1.0,-83.58076108,0.49264005
MIS,21,0,2024-06-16T04:10:47.718Z,english_75.wav,0,pill,4355,11,1.09391667,-10.73672479,0.18205409
MIS,22,0,2024-06-16T04:10:47.718Z,english_553.wav,0,peel,1660,0,0.0,-24.88703549,1.59716139
MIS,22,0,2024-06-16T04:10:47.718Z,english_553.wav,0,peel,1660,1,0.1,-32.78735509,1.94339053
MIS,22,0,2024-06-16T04:10:47.718Z,english_553.wav,0,peel,1660,2,0.2,11.78475046,0.07176258
MIS,22,0,2024-06-16T04:10:47.718Z,english_553.wav,0,peel,1660,3,0.3,-49.38675094,1.26590086
MIS,22,0,2024-06-16T04:10:47.718Z,english_553.wav,0,peel,1660,4,0.4,87.03858762,0.74193634
MIS,22,0,2024-06-16T04:10:47.718Z,english_553.wav,0,peel,1660,5,0.5,60.30502824,1.61552542
MIS,22,0,2024-06-16T04:10:47.718Z,english_553.wav,0,peel,1660,6,0.6,10.13311967,0.16579471
MIS,22,0,2024-06-16T04:10:47.718Z,english_553.wav,0,peel,1660,7,0.7,67.86345644,1.42366471
MIS,22,0,2024-06-16T04:10:47.718Z,english_553.wav,0,peel,1660,8,0.8,-60.17677271,1.14167702
MIS,22,0,2024-06-16T04:10:47.718Z,english_553.wav,0,peel,1660,9,0.9,12.98417217,1.59651853
MIS,22,0,2024-06-16T04:10:47.718Z,english_553.wav,0,peel,1660,10,1.0,49.25042129,1.95090435
MIS,22,0,2024-06-16T04:10:47.718Z,english_553.wav,0,peel,1660,11,1.09391667,-82.97566862,0.60671916
MIS,23,0,2024-06-16T04:10:47.718Z,english_753.wav,0,peel,2030,0,0.0,-37.70671017,1.74884561
MIS,23,0,2024-06-16T04:10:47.718Z,english_753.wav,0,peel,2030,1,0.1,-51.92629572,0.91942072
MIS,23,0,2024-06-16T04:10:47.718Z,english_753.wav,0,peel,2030,2,0.2,93.98068105,1.59964549
MIS,23,0,2024-06-16T04:10:47.718Z,english_753.wav,0,peel,2030,3,0.3,-51.39932121,1.12825203
MIS,23,0,2024-06-16T04:10:47.718Z,english_753.wav,0,peel,2030,4,0.4,95.80116655,1.21219761
MIS,23,0,2024-06-16T04:10:47.718Z,english_753.wav,0,peel,2030,5,0.5,54.2507311,1.26026343
MIS,23,0,2024-06-16T04:10:47.718Z,english_753.wav,0,peel,2030,6,0.6,20.30160244,1.5757537
MIS,23,0,2024-06-16T04:10:47.718Z,english_753.wav,0,peel,2030,7,0.7,55.46646904,0.16664365
MIS,23,0,2024-06-16T04:10:47.718Z,english_753.wav,0,peel,2030,8,0.8,-44.46613041,1.11726469
MIS,23,0,2024-06-16T04:10:47.718Z,english_753.wav,0,peel,2030,9,0.9,32.26226525,1.53816652
MIS,23,0,2024-06-16T04:10:47.718Z,english_753.wav,0,peel,2030,10,1.0,94.05472838,0.62126972
MIS,23,0,2024-06-16T04:10:47.718Z,english_753.wav,0,peel,2030,11,1.09391667,42.98878145,0.46411799
MIS,24,0,2024-06-16T04:10:47.718Z,english_55.wav,0,peel,4351,0,0.0,55.67307479,0.52782995
MIS,24,0,2024-06-16T04:10:47.718Z,english_55.wav,0,peel,4351,1,0.1,-68.77763233,1.04888997
MIS,24,0,2024-06-16T04:10:47.718Z,english_55.wav,0,peel,4351,2,0.2,-65.56479824,1.48348863
MIS,24,0,2024-06-16T04:10:47.718Z,english_55.wav,0,peel,4351,3,0.3,-28.17507295,0.48831434
MIS,24,0,2024-06-16T04:10:47.718Z,english_55.wav,0,peel,4351,4,0.4,12.71546493,0.57381204
MIS,24,0,2024-06-16T04:10:47.718Z,english_55.wav,0,peel,4351,5,0.5,79.84163838,0.45321787
MIS,24,0,2024-06-16T04:10:47.718Z,english_55.wav,0,peel,4351,6,0.6,-44.12045936,1.63628375
MIS,24,0,2024-06-16T04:10:47.718Z,english_55.wav,0,peel,4351,7,0.7,-80.03895773,1.60012046
MIS,24,0,2024-06-16T04:10:47.718Z,english_55.wav,0,peel,4351,8,0.8,89.560279,1.77258714
MIS,24,0,2024-06-16T04:10:47.718Z,english_55.wav,0,peel,4351,9,0.9,-86.43761931,0.52302607
MIS,24,0,2024-06-16T04:10:47.718Z,english_55.wav,0,peel,4351,10,1.0,26.43928763,1.59376443
MIS,24,0,2024-06-16T04:10:47.718Z,english_55.wav,0,peel,4351,11,1.09391667,35.34186428,1.33420322
MIS,25,0,2024-06-16T04:10:47.718Z,english_656.wav,0,pill,1392,0,0.0,-81.79066312,1.40445152
MIS,25,0,2024-06-16T04:10:47.718Z,english_656.wav,0,pill,1392,1,0.1,82.04093637,1.3245448
MIS,25,0,2024-06-16T04:10:47.718Z,english_656.wav,0,pill,1392,2,0.2,-52.28001609,1.15771434
MIS,25,0,2024-06-16T04:10:47.718Z,english_656.wav,0,pill,1392,3,0.3,67.28232458,1.36671169
MIS,25,0,2024-06-16T04:10:47.718Z,english_656.wav,0,pill,1392,4,0.4,-93.82911819,1.65032622
MIS,25,0,2024-06-16T04:10:47.718Z,english_656.wav,0,pill,1392,5,0.5,-25.69923398,0.37873681
MIS,25,0,2024-06-16T04:10:47.718Z,english_656.wav,0,pill,1392,6,0.6,-22.63880376,0.51917639
MIS,25,0,2024-06-16T04:10:47.718Z,english_656.wav,0,pill,1392,7,0.7,28.9128231,1.1632187
MIS,25,0,2024-06-16T04:10:47.718Z,english_656.wav,0,pill,1392,8,0.8,-87.87621278,0.95022034
MIS,25,0,2024-06-16T04:10:47.718Z,english_656.wav,0,pill,1392,9,0.9,-32.99395829,1.57205129
MIS,25,0,2024-06-16T04:10:47.718Z,english_656.wav,0,pill,1392,10,1.0,67.88283241,0.61260001
MIS,25,0,2024-06-16T04:10:47.718Z,english_656.wav,0,pill,1392,11,1.09391667,-65.62849391,1.24421279
MIS,26,0,2024-06-16T04:10:47.718Z,english_420.wav,0,pill,2406,0,0.0,66.35781632,1.51060149
MIS,26,0,2024-06-16T04:10:47.718Z,english_420.wav,0,pill,2406,1,0.1,-12.06831675,0.86092396
MIS,26,0,2024-06-16T04:10:47.718Z,english_420.wav,0,pill,2406,2,0.2,71.12167329,1.98213421
MIS,26,0,2024-06-16T04:10:47.718Z,english_420.wav,0,pill,2406,3,0.3,-65.08320496,0.15165496
MIS,26,0,2024-06-16T04:10:47.718Z,english_420.wav,0,pill,2406,4,0.4,-82.82301749,1.26926091
MIS,26,0,2024-06-16T04:10:47.718Z,english_420.wav,0,pill,2406,5,0.5,32.31625944,1.00523376
MIS,26,0,2024-06-16T04:10:47.718Z,english_420.wav,0,pill,2406,6,0.6,68.14197427,1.33555594
MIS,26,0,2024-06-16T04:10:47.718Z,english_420.wav,0,pill,2406,7,0.7,69.60296215,1.16834727
MIS,26,0,2024-06-16T04:10:47.718Z,english_420.wav,0,pill,2406,8,0.8,38.87135773,0.07961385
MIS,26,0,2024-06-16T04:10:47.718Z,english_420.wav,0,pill,2406,9,0.9,55.81325805,0.13061417
MIS,26,0,2024-06-16T04:10:47.718Z,english_420.wav,0,pill,2406,10,1.0,91.56317805,1.16603809
MIS,26,0,2024-06-16T04:10:47.718Z,english_420.wav,0,pill,2406,11,1.09391667,58.32530745,1.93332186
MIS,27,0,2024-06-16T04:10:47.718Z,english_591.wav,0,pill,539,0,0.0,-33.59942656,0.74847219
MIS,27,0,2024-06-16T04:10:47.718Z,english_591.wav,0,pill,539,1,0.1,-41.84333916,1.40230026
MIS,27,0,2024-06-16T04:10:47.718Z,english_591.wav,0,pill,539,2,0.2,-40.30789258,1.16814049
MIS,27,0,2024-06-16T04:10:47.718Z,english_591.wav,0,pill,539,3,0.3,97.61230048,0.39427788
MIS,27,0,2024-06-16T04:10:47.718Z,english_591.wav,0,pill,539,4,0.4,-42.50162748,0.29523071
MIS,27,0,2024-06-16T04:10:47.718Z,english_591.wav,0,pill,539,5,0.5,-1.77866558,0.85786838
MIS,27,0,2024-06-16T04:10:47.718Z,english_591.wav,0,pill,539,6,0.6,0.70986705,1.07664541
MIS,27,0,2024-06-16T04:10:47.718Z,english_591.wav,0,pill,539,7,0.7,34.96717961,1.03582874
MIS,27,0,2024-06-16T04:10:47.718Z,english_591.wav,0,pill,539,8,0.8,-92.90998765,1.47906255
MIS,27,0,2024-06-16T04:10:47.718Z,english_591.wav,0,pill,539,9,0.9,-56.37241834,1.68040409
MIS,27,0,2024-06-16T04:10:47.718Z,english_591.wav,0,pill,539,10,1.0,5.28111122,0.00212421
MIS,27,0,2024-06-16T04:10:47.718Z,english_591.wav,0,pill,539,11,1.09391667,-12.0144277,0.47626778
MIS,28,0,2024-06-16T04:10:47.718Z,english_891.wav,0,peel,1411,0,0.0,-51.94899703,0.42846165
MIS,28,0,2024-06-16T04:10:47.718Z,english_891.wav,0,peel,1411,1,0.1,-40.85786471,0.93876637
MIS,28,0,2024-06-16T04:10:47.718Z,english_891.wav,0,peel,1411,2,0.2,-13.56091334,1.78643125
MIS,28,0,2024-06-16T04:10:47.718Z,english_891.wav,0,peel,1411,3,0.3,13.09065144,1.47761109
MIS,28,0,2024-06-16T04:10:47.718Z,english_891.wav,0,peel,1411,4,0.4,-0.86453478,1.66653353
MIS,28,0,2024-06-16T04:10:47.718Z,english_891.wav,0,peel,1411,5,0.5,31.90721085,1.63856449
MIS,28,0,2024-06-16T04:10:47.718Z,english_891.wav,0,peel,1411,6,0.6,-27.60460343,1.17540335
MIS,28,0,2024-06-16T04:10:47.718Z,english_891.wav,0,peel,1411,7,0.7,85.79516825,1.60236138
MIS,28,0,2024-06-16T04:10:47.718Z,english_891.wav,0,peel,1411,8,0.8,83.05957198,0.96737739
MIS,28,0,2024-06-16T04:10:47.718Z,english_891.wav,0,peel,1411,9,0.9,-61.83196055,1.42758327
MIS,28,0,2024-06-16T04:10:47.718Z,english_891.wav,0,peel,1411,10,1.0,-69.67221927,0.19704513
MIS,28,0,2024-06-16T04:10:47.718Z,english_891.wav,0,peel,1411,11,1.09391667,4.62166255,0.91556812
MIS,29,0,2024-06-16T04:10:47.718Z,english_760.wav,0,pill,1176,0,0.0,47.27372451,1.90030816
MIS,29,0,2024-06-16T04:10:47.718Z,english_760.wav,0,pill,1176,1,0.1,46.53530355,0.64747902
MIS,29,0,2024-06-16T04:10:47.718Z,english_760.wav,0,pill,1176,2,0.2,-24.42746322,1.68645788
MIS,29,0,2024-06-16T04:10:47.718Z,english_760.wav,0,pill,1176,3,0.3,-83.25481365,0.7717333
MIS,29,0,2024-06-16T04:10:47.718Z,english_760.wav,0,pill,1176,4,0.4,-76.36732845,0.72158444
MIS,29,0,2024-06-16T04:10:47.718Z,english_760.wav,0,pill,1176,5,0.5,49.65509994,1.63248564
MIS,29,0,2024-06-16T04:10:47.718Z,english_760.wav,0,pill,1176,6,0.6,-0.21531061,0.67358777
MIS,29,0,2024-06-16T04:10:47.718Z,english_760.wav,0,pill,1176,7,0.7,97.69744282,1.75458052
MIS,29,0,2024-06-16T04:10:47.718Z,english_760.wav,0,pill,1176,8,0.8,-79.50455281,0.7766848
MIS,29,0,2024-06-16T04:10:47.718Z,english_760.wav,0,pill,1176,9,0.9,-8.48709935,0.96559376
MIS,29,0,2024-06-16T04:10:47.718Z,english_760.wav,0,pill,1176,10,1.0,-57.2440405,1.44704785
MIS,29,0,2024-06-16T04:10:47.718Z,english_760.wav,0,pill,1176,11,1.09391667,-52.62348211,0.65092854
MIS,30,0,2024-06-16T04:10:47.718Z,english_91.wav,0,pill,1946,0,0.0,90.30305792,1.1938068
MIS,30,0,2024-06-16T04:10:47.718Z,english_91.wav,0,pill,1946,1,0.1,56.18894947,1.20808781
MIS,30,0,2024-06-16T04:10:47.718Z,english_91.wav,0,pill,1946,2,0.2,-58.19739478,0.13849828
MIS,30,0,2024-06-16T04:10:47.718Z,english_91.wav,0,pill,1946,3,0.3,79.028897,0.94138732
MIS,30,0,2024-06-16T04:10:47.718Z,english_91.wav,0,pill,1946,4,0.4,7.81343209,0.4665442
MIS,30,0,2024-06-16T04:10:47.718Z,english_91.wav,0,pill,1946,5,0.5,28.60271905,1.77893908
MIS,30,0,2024-06-16T04:10:47.718Z,english_91.wav,0,pill,1946,6,0.6,14.99037293,0.39545287
MIS,30,0,2024-06-16T04:10:47.718Z,english_91.wav,0,pill,1946,7,0.7,-0.25615484,1.77472074
MIS,30,0,2024-06-16T04:10:47.718Z,english_91.wav,0,pill,1946,8,0.8,86.53655438,1.9424725
MIS,30,0,2024-06-16T04:10:47.718Z,english_91.wav,0,pill,1946,9,0.9,-90.65230495,1.79603275
MIS,30,0,2024-06-16T04:10:47.718Z,english_91.wav,0,pill,1946,10,1.0,95.15657265,1.28685544
MIS,30,0,2024-06-16T04:10:47.718Z,english_91.wav,0,pill,1946,11,1.09391667,-56.87677847,0.36998726
MIS,31,0,2024-06-16T04:10:47.718Z,english_376.wav,0,pill,1863,0,0.0,-22.52600132,1.13600224
MIS,31,0,2024-06-16T04:10:47.718Z,english_376.wav,0,pill,1863,1,0.1,29.36992487,0.82385101
MIS,31,0,2024-06-16T04:10:47.718Z,english_376.wav,0,pill,1863,2,0.2,26.35975313,0.21812262
MIS,31,0,2024-06-16T04:10:47.718Z,english_376.wav,0,pill,1863,3,0.3,22.46882007,1.22545345
MIS,31,0,2024-06-16T04:10:47.718Z,english_376.wav,0,pill,1863,4,0.4,-26.33536786,0.68217052
MIS,31,0,2024-06-16T04:10:47.718Z,english_376.wav,0,pill,1863,5,0.5,-27.32741376,1.80813558
MIS,31,0,2024-06-16T04:10:47.718Z,english_376.wav,0,pill,1863,6,0.6,4.49813396,0.4048305
MIS,31,0,2024-06-16T04:10:47.718Z,english_376.wav,0,pill,1863,7,0.7,-47.02321994,1.72982043
MIS,31,0,2024-06-16T04:10:47.718Z,english_376.wav,0,pill,1863,8,0.8,-61.17584125,0.03977306
MIS,31,0,2024-06-16T04:10:47.718Z,english_376.wav,0,pill,1863,9,0.9,-52.37587082,0.16832119
MIS,31,0,2024-06-16T04:10:47.718Z,english_376.wav,0,pill,1863,10,1.0,53.16500273,1.81503166
MIS,31,0,2024-06-16T04:10:47.718Z,english_376.wav,0,pill,1863,11,1.09391667,31.59148057,0.61812074
MIS,32,0,2024-06-16T04:10:47.718Z,english_433.wav,0,pill,572,0,0.0,-74.5918135,1.01979496
MIS,32,0,2024-06-16T04:10:47.718Z,english_433.wav,0,pill,572,1,0.1,28.79821434,0.80806248
MIS,32,0,2024-06-16T04:10:47.718Z,english_433.wav,0,pill,572,2,0.2,97.27836698,0.68923441
MIS,32,0,2024-06-16T04:10:47.718Z,english_433.wav,0,pill,572,3,0.3,70.33680468,0.29842911
MIS,32,0,2024-06-16T04:10:47.718Z,english_433.wav,0,pill,572,4,0.4,14.06818155,1.28851822
MIS,32,0,2024-06-16T04:10:47.718Z,english_433.wav,0,pill,572,5,0.5,-16.97736982,0.93328677
MIS,32,0,2024-06-16T04:10:47.718Z,english_433.wav,0,pill,572,6,0.6,75.14922554,0.10219622
MIS,32,0,2024-06-16T04:10:47.718Z,english_433.wav,0,pill,572,7,0.7,23.29055894,1.41929067
MIS,32,0,2024-06-16T04:10:47.718Z,english_433.wav,0,pill,572,8,0.8,-26.03253211,0.8010075
MIS,32,0,2024-06-16T04:10:47.718Z,english_433.wav,0,pill,572,9,0.9,28.95520226,0.76563128
MIS,32,0,2024-06-16T04:10:47.718Z,english_433.wav,0,pill,572,10,1.0,-61.82682237,0.36703777
MIS,32,0,2024-06-16T04:10:47.718Z,english_433.wav,0,pill,572,11,1.09391667,47.27585079,0.80268974
MIS,33,0,2024-06-16T04:10:47.718Z,english_410.wav,0,peel,1182,0,0.0,-36.53142902,1.24674602
MIS,33,0,2024-06-16T04:10:47.718Z,english_410.wav,0,peel,1182,1,0.1,-73.10175545,0.8370169
MIS,33,0,2024-06-16T04:10:47.718Z,english_410.wav,0,peel,1182,2,0.2,-61.08145671,0.06968434
MIS,33,0,2024-06-16T04:10:47.718Z,english_410.wav,0,peel,1182,3,0.3,69.19027309,1.30165484
MIS,33,0,2024-06-16T04:10:47.718Z,english_410.wav,0,peel,1182,4,0.4,55.45278414,1.73532031
MIS,33,0,2024-06-16T04:10:47.718Z,english_410.wav,0,peel,1182,5,0.5,-36.69311621,0.17519488
MIS,33,0,2024-06-16T04:10:47.718Z,english_410.wav,0,peel,1182,6,0.6,-29.14988511,1.19817313
MIS,33,0,2024-06-16T04:10:47.718Z,english_410.wav,0,peel,1182,7,0.7,23.18680587,1.29181432
MIS,33,0,2024-06-16T04:10:47.718Z,english_410.wav,0,peel,1182,8,0.8,-48.34223372,0.80606891
MIS,33,0,2024-06-16T04:10:47.718Z,english_410.wav,0,peel,1182,9,0.9,-66.3324226,1.29130062
MIS,33,0,2024-06-16T04:10:47.718Z,english_410.wav,0,peel,1182,10,1.0,-63.55688976,1.82784749
MIS,33,0,2024-06-16T04:10:47.718Z,english_410.wav,0,peel,1182,11,1.09391667,20.87434717,1.37227316
MIS,34,0,2024-06-16T04:10:47.718Z,english_37.wav,0,pill,1951,0,0.0,68.40782596,0.52957209
MIS,34,0,2024-06-16T04:10:47.718Z,english_37.wav,0,pill,1951,1,0.1,41.58379148,1.67320718
MIS,34,0,2024-06-16T04:10:47.718Z,english_37.wav,0,pill,1951,2,0.2,63.04378759,1.31144487
MIS,34,0,2024-06-16T04:10:47.718Z,english_37.wav,0,pill,1951,3,0.3,12.39470235,1.11254506
MIS,34,0,2024-06-16T04:10:47.718Z,english_37.wav,0,pill,1951,4,0.4,-38.69600303,0.57972705
MIS,34,0,2024-06-16T04:10:47.718Z,english_37.wav,0,pill,1951,5,0.5,-51.98957982,0.30651039
MIS,34,0,2024-06-16T04:10:47.718Z,english_37.wav,0,pill,1951,6,0.6,90.7945682,0.45858619
MIS,34,0,2024-06-16T04:10:47.718Z,english_37.wav,0,pill,1951,7,0.7,40.67115675,1.55641423
MIS,34,0,2024-06-16T04:10:47.718Z,english_37.wav,0,pill,1951,8,0.8,34.01498334,1.01642962
MIS,34,0,2024-06-16T04:10:47.718Z,english_37.wav,0,pill,1951,9,0.9,-88.26662934,0.95850402
MIS,34,0,2024-06-16T04:10:47.718Z,english_37.wav,0,pill,1951,10,1.0,-41.35685221,0.70833558
MIS,34,0,2024-06-16T04:10:47.718Z,english_37.wav,0,pill,1951,11,1.09391667,-27.43470179,0.55678167
MIS,35,0,2024-06-16T04:10:47.718Z,english_619.wav,0,pill,3498,0,0.0,-41.0924044,1.71942116
MIS,35,0,2024-06-16T04:10:47.718Z,english_619.wav,0,pill,3498,1,0.1,-7.96280913,1.03534148
MIS,35,0,2024-06-16T04:10:47.718Z,english_619.wav,0,pill,3498,2,0.2,-87.23866402,1.90474628
MIS,35,0,2024-06-16T04:10:47.718Z,english_619.wav,0,pill,3498,3,0.3,-49.33627733,1.25465254
MIS,35,0,2024-06-16T04:10:47.718Z,english_619.wav,0,pill,3498,4,0.4,-9.049641,0.872658
MIS,35,0,2024-06-16T04:10:47.718Z,english_619.wav,0,pill,3498,5,0.5,-44.96771142,0.88442624
MIS,35,0,2024-06-16T04:10:47.718Z,english_619.wav,0,pill,3498,6,0.6,-40.79885207,0.90889779
MIS,35,0,2024-06-16T04:10:47.718Z,english_619.wav,0,pill,3498,7,0.7,40.82825876,0.65121567
MIS,35,0,2024-06-16T04:10:47.718Z,english_619.wav,0,pill,3498,8,0.8,-20.59710474,0.05436153
MIS,35,0,2024-06-16T04:10:47.718Z,english_619.wav,0,pill,3498,9,0.9,39.88878166,1.54961319
MIS,35,0,2024-06-16T04:10:47.718Z,english_619.wav,0,pill,3498,10,1.0,26.7856421,0.36194851
MIS,35,0,2024-06-16T04:10:47.718Z,english_619.wav,0,pill,3498,11,1.09391667,40.93095409,0.79464548
MIS,36,0,2024-06-16T04:10:47.718Z,english_943.wav,0,pill,893,0,0.0,79.5890822,1.20824936
MIS,36,0,2024-06-16T04:10:47.718Z,english_943.wav,0,pill,893,1,0.1,78.55264714,0.88116928
MIS,36,0,2024-06-16T04:10:47.718Z,english_943.wav,0,pill,893,2,0.2,44.19658383,1.0423498
MIS,36,0,2024-06-16T04:10:47.718Z,english_943.wav,0,pill,893,3,0.3,-16.14605168,1.30491636
MIS,36,0,2024-06-16T04:10:47.718Z,english_943.wav,0,pill,893,4,0.4,46.84349784,1.23781924
MIS,36,0,2024-06-16T04:10:47.718Z,english_943.wav,0,pill,893,5,0.5,67.29364224,1.19542323
MIS,36,0,2024-06-16T04:10:47.718Z,english_943.wav,0,pill,893,6,0.6,62.75940247,1.00041218
MIS,36,0,2024-06-16T04:10:47.718Z,english_943.wav,0,pill,893,7,0.7,-42.13911475,1.18889719
MIS,36,0,2024-06-16T04:10:47.718Z,english_943.wav,0,pill,893,8,0.8,-19.02728939,0.17654831
MIS,36,0,2024-06-16T04:10:47.718Z,english_943.wav,0,pill,893,9,0.9,-16.03900615,0.65298118
MIS,36,0,2024-06-16T04:10:47.718Z,english_943.wav,0,pill,893,10,1.0,15.22888591,0.96725626
MIS,36,0,2024-06-16T04:10:47.718Z,english_943.wav,0,pill,893,11,1.09391667,60.70409514,1.67455333
MIS,37,0,2024-06-16T04:10:47.718Z,english_732.wav,0,pill,1672,0,0.0,-6.1655518,1.83743041
MIS,37,0,2024-06-16T04:10:47.718Z,english_732.wav,0,pill,1672,1,0.1,-21.68268247,0.45034165
MIS,37,0,2024-06-16T04:10:47.718Z,english_732.wav,0,pill,1672,2,0.2,-44.18505393,1.43977044
MIS,37,0,2024-06-16T04:10:47.718Z,english_732.wav,0,pill,1672,3,0.3,-99.08787178,1.63276402
MIS,37,0,2024-06-16T04:10:47.718Z,english_732.wav,0,pill,1672,4,0.4,52.69419041,1.14410498
MIS,37,0,2024-06-16T04:10:47.718Z,english_732.wav,0,pill,1672,5,0.5,-22.76801282,0.80499942
MIS,37,0,2024-06-16T04:10:47.718Z,english_732.wav,0,pill,1672,6,0.6,-68.37024344,0.00488355
MIS,37,0,2024-06-16T04:10:47.718Z,english_732.wav,0,pill,1672,7,0.7,99.79862575,1.08087267
MIS,37,0,2024-06-16T04:10:47.718Z,english_732.wav,0,pill,1672,8,0.8,-45.96985204,0.60546967
MIS,37,0,2024-06-16T04:10:47.718Z,english_732.wav,0,pill,1672,9,0.9,34.4904792,1.53964006
MIS,37,0,2024-06-16T04:10:47.718Z,english_732.wav,0,pill,1672,10,1.0,-81.20928849,0.59388625
MIS,37,0,2024-06-16T04:10:47.718Z,english_732.wav,0,pill,1672,11,1.09391667,-1.26617119,1.72169188
MIS,38,0,2024-06-16T04:10:47.718Z,english_587.wav,0,peel,832,0,0.0,-43.40275294,0.40076924
MIS,38,0,2024-06-16T04:10:47.718Z,english_587.wav,0,peel,832,1,0.1,-37.77994111,1.21668484
MIS,38,0,2024-06-16T04:10:47.718Z,english_587.wav,0,peel,832,2,0.2,83.99553821,1.2277233
MIS,38,0,2024-06-16T04:10:47.718Z,english_587.wav,0,peel,832,3,0.3,-96.01654656,0.71292194
MIS,38,0,2024-06-16T04:10:47.718Z,english_587.wav,0,peel,832,4,0.4,-9.71349701,0.26055353
MIS,38,0,2024-06-16T04:10:47.718Z,english_587.wav,0,peel,832,5,0.5,-47.87514317,1.66513876
MIS,38,0,2024-06-16T04:10:47.718Z,english_587.wav,0,peel,832,6,0.6,12.68053189,0.2591497
MIS,38,0,2024-06-16T04:10:47.718Z,english_587.wav,0,peel,832,7,0.7,47.90702589,0.90449777
MIS,38,0,2024-06-16T04:10:47.718Z,english_587.wav,0,peel,832,8,0.8,-78.79796743,0.87118045
MIS,38,0,2024-06-16T04:10:47.718Z,english_587.wav,0,peel,832,9,0.9,-5.96294959,1.32264247
MIS,38,0,2024-06-16T04:10:47.718Z,english_587.wav,0,peel,832,10,1.0,11.2587131,1.86277567
MIS,38,0,2024-06-16T04:10:47.718Z,english_587.wav,0,peel,832,11,1.09391667,-13.10275262,0.24936359
MIS,39,0,2024-06-16T04:10:47.718Z,english_834.wav,0,peel,651,0,0.0,-86.16375599,1.62153397
MIS,39,0,2024-06-16T04:10:47.718Z,english_834.wav,0,peel,651,1,0.1,-22.09919923,1.42577166
MIS,39,0,2024-06-16T04:10:47.718Z,english_834.wav,0,peel,651,2,0.2,63.82090938,1.22840095
MIS,39,0,2024-06-16T04:10:47.718Z,english_834.wav,0,peel,651,3,0.3,38.26115817,1.977843
MIS,39,0,2024-06-16T04:10:47.718Z,english_834.wav,0,peel,651,4,0.4,15.19654457,0.63466945
MIS,39,0,2024-06-16T04:10:47.718Z,english_834.wav,0,peel,651,5,0.5,78.054871,1.94429469
MIS,39,0,2024-06-16T04:10:47.718Z,english_834.wav,0,peel,651,6,0.6,63.1081572,0.531594
MIS,39,0,2024-06-16T04:10:47.718Z,english_834.wav,0,peel,651,7,0.7,43.43236214,1.34157161
MIS,39,0,2024-06-16T04:10:47.718Z,english_834.wav,0,peel,651,8,0.8,-74.3897683,1.32269287
MIS,39,0,2024-06-16T04:10:47.718Z,english_834.wav,0,peel,651,9,0.9,40.24285486,1.75386624
MIS,39,0,2024-06-16T04:10:47.718Z,english_834.wav,0,peel,651,10,1.0,-67.71571624,1.01238939
MIS,39,0,2024-06-16T04:10:47.718Z,english_834.wav,0,peel,651,11,1.09391667,40.03958616,1.44306133
MIS,40,0,2024-06-16T04:10:47.718Z,english_78.wav,0,pill,1764,0,0.0,42.39797886,1.50616235
MIS,40,0,2024-06-16T04:10:47.718Z,english_78.wav,0,pill,1764,1,0.1,-36.07857938,0.54303847
MIS,40,0,2024-06-16T04:10:47.718Z,english_78.wav,0,pill,1764,2,0.2,-66.49689514,0.95347503
MIS,40,0,2024-06-16T04:10:47.718Z,english_78.wav,0,pill,1764,3,0.3,52.41013344,1.62003629
MIS,40,0,2024-06-16T04:10:47.718Z,english_78.wav,0,pill,1764,4,0.4,60.05478812,1.61647939
MIS,40,0,2024-06-16T04:10:47.718Z,english_78.wav,0,pill,1764,5,0.5,-4.62250103,0.17410512
MIS,40,0,2024-06-16T04:10:47.718Z,english_78.wav,0,pill,1764,6,0.6,-80.28349147,0.43268803
MIS,40,0,2024-06-16T04:10:47.718Z,english_78.wav,0,pill,1764,7,0.7,83.57222547,0.08104601
MIS,40,0,2024-06-16T04:10:47.718Z,english_78.wav,0,pill,1764,8,0.8,7.4922518,1.61489209
MIS,40,0,2024-06-16T04:10:47.718Z,english_78.wav,0,pill,1764,9,0.9,-18.57317231,0.08012208
MIS,40,0,2024-06-16T04:10:47.718Z,english_78.wav,0,pill,1764,10,1.0,-60.66079691,0.76901301
MIS,40,0,2024-06-16T04:10:47.718Z,english_78.wav,0,pill,1764,11,1.09391667,37.22949989,1.86046092
MIS,41,0,2024-06-16T04:10:47.718Z,english_205.wav,0,pill,3021,0,0.0,56.82976783,1.96536411
MIS,41,0,2024-06-16T04:10:47.718Z,english_205.wav,0,pill,3021,1,0.1,-4.18818005,1.65463192
MIS,41,0,2024-06-16T04:10:47.718Z,english_205.wav,0,pill,3021,2,0.2,38.88249383,1.20705079
MIS,41,0,2024-06-16T04:10:47.718Z,english_205.wav,0,pill,3021,3,0.3,-62.55482064,1.01845998
MIS,41,0,2024-06-16T04:10:47.718Z,english_205.wav,0,pill,3021,4,0.4,-71.1999088,1.21355865
MIS,41,0,2024-06-16T04:10:47.718Z,english_205.wav,0,pill,3021,5,0.5,76.75946394,1.24989356
MIS,41,0,2024-06-16T04:10:47.718Z,english_205.wav,0,pill,3021,6,0.6,-88.17613487,0.92766979
MIS,41,0,2024-06-16T04:10:47.718Z,english_205.wav,0,pill,3021,7,0.7,-47.95022574,0.92420432
MIS,41,0,2024-06-16T04:10:47.718Z,english_205.wav,0,pill,3021,8,0.8,36.49012842,0.521979
MIS,41,0,2024-06-16T04:10:47.718Z,english_205.wav,0,pill,3021,9,0.9,58.14148902,1.99842272
MIS,41,0,2024-06-16T04:10:47.718Z,english_205.wav,0,pill,3021,10,1.0,-54.42029586,0.40180649
MIS,41,0,2024-06-16T04:10:47.718Z,english_205.wav,0,pill,3021,11,1.09391667,23.46713727,0.98322277
MIS,42,0,2024-06-16T04:10:47.718Z,english_571.wav,0,peel,1314,0,0.0,66.27002453,0.70496708
MIS,42,0,2024-06-16T04:10:47.718Z,english_571.wav,0,peel,1314,1,0.1,72.56873765,1.41341806
MIS,42,0,2024-06-16T04:10:47.718Z,english_571.wav,0,peel,1314,2,0.2,-47.18075811,1.56676293
MIS,42,0,2024-06-16T04:10:47.718Z,english_571.wav,0,peel,1314,3,0.3,-50.2773596,1.96972076
MIS,42,0,2024-06-16T04:10:47.718Z,english_571.wav,0,peel,1314,4,0.4,-37.39995802,1.04150982
MIS,42,0,2024-06-16T04:10:47.718Z,english_571.wav,0,peel,1314,5,0.5,44.57144772,0.64987665
MIS,42,0,2024-06-16T04:10:47.718Z,english_571.wav,0,peel,1314,6,0.6,-77.42232626,0.50073604
MIS,42,0,2024-06-16T04:10:47.718Z,english_571.wav,0,peel,1314,7,0.7,-61.53894289,1.36720733
MIS,42,0,2024-06-16T04:10:47.718Z,english_571.wav,0,peel,1314,8,0.8,57.25780133,0.69150917
MIS,42,0,2024-06-16T04:10:47.718Z,english_571.wav,0,peel,1314,9,0.9,-53.9092717,0.1917381
MIS,42,0,2024-06-16T04:10:47.718Z,english_571.wav,0,peel,1314,10,1.0,79.641801,1.04532949
MIS,42,0,2024-06-16T04:10:47.718Z,english_571.wav,0,peel,1314,11,1.09391667,81.23373834,0.53527151
MIS,43,0,2024-06-16T04:10:47.718Z,english_987.wav,0,pill,841,0,0.0,22.80679167,0.70061045
MIS,43,0,2024-06-16T04:10:47.718Z,english_987.wav,0,pill,841,1,0.1,17.54007411,1.60053813
MIS,43,0,2024-06-16T04:10:47.718Z,english_987.wav,0,pill,841,2,0.2,-52.11811518,0.58462844
MIS,43,0,2024-06-16T04:10:47.718Z,english_987.wav,0,pill,841,3,0.3,-23.82315646,0.24368019
MIS,43,0,2024-06-16T04:10:47.718Z,english_987.wav,0,pill,841,4,0.4,44.18787645,0.52233595
MIS,43,0,2024-06-16T04:10:47.718Z,english_987.wav,0,pill,841,5,0.5,-72.90084178,0.85287542
MIS,43,0,2024-06-16T04:10:47.718Z,english_987.wav,0,pill,841,6,0.6,-17.62123308,1.54280419
MIS,43,0,2024-06-16T04:10:47.718Z,english_987.wav,0,pill,841,7,0.7,95.73852472,0.69341266
MIS,43,0,2024-06-16T04:10:47.718Z,english_987.wav,0,pill,841,8,0.8,10.89860126,0.63948037
MIS,43,0,2024-06-16T04:10:47.718Z,english_987.wav,0,pill,841,9,0.9,-72.84217249,0.23195922
MIS,43,0,2024-06-16T04:10:47.718Z,english_987.wav,0,pill,841,10,1.0,-57.31215702,1.27646479
MIS,43,0,2024-06-16T04:10:47.718Z,english_987.wav,0,pill,841,11,1.09391667,-16.22203203,1.15579809
MIS,44,0,2024-06-16T04:10:47.718Z,english_108.wav,0,pill,1137,0,0.0,-72.12984017,0.26945128
MIS,44,0,2024-06-16T04:10:47.718Z,english_108.wav,0,pill,1137,1,0.1,8.19812644,1.01925784
MIS,44,0,2024-06-16T04:10:47.718Z,english_108.wav,0,pill,1137,2,0.2,78.6546888,1.32918217
MIS,44,0,2024-06-16T04:10:47.718Z,english_108.wav,0,pill,1137,3,0.3,-30.04278384,0.63536527
MIS,44,0,2024-06-16T04:10:47.718Z,english_108.wav,0,pill,1137,4,0.4,-12.36369755,1.19436668
MIS,44,0,2024-06-16T04:10:47.718Z,english_108.wav,0,pill,1137,5,0.5,70.67382026,0.3289366
MIS,44,0,2024-06-16T04:10:47.718Z,english_108.wav,0,pill,1137,6,0.6,-56.34929952,1.40732185
MIS,44,0,2024-06-16T04:10:47.718Z,english_108.wav,0,pill,1137,7,0.7,-58.84895788,0.91014899
MIS,44,0,2024-06-16T04:10:47.718Z,english_108.wav,0,pill,1137,8,0.8,-57.8473435,0.89824174
MIS,44,0,2024-06-16T04:10:47.718Z,english_108.wav,0,pill,1137,9,0.9,74.00200547,0.75928312
MIS,44,0,2024-06-16T04:10:47.718Z,english_108.wav,0,pill,1137,10,1.0,14.31080133,1.3591553
MIS,44,0,2024-06-16T04:10:47.718Z,english_108.wav,0,pill,1137,11,1.09391667,52.36561827,1.12113776
MIS,45,0,2024-06-16T04:10:47.718Z,english_685.wav,0,pill,1052,0,0.0,62.22235335,0.91642602
MIS,45,0,2024-06-16T04:10:47.718Z,english_685.wav,0,pill,1052,1,0.1,-97.11025465,1.72329218
MIS,45,0,2024-06-16T04:10:47.718Z,english_685.wav,0,pill,1052,2,0.2,72.03160739,1.99088782
MIS,45,0,2024-06-16T04:10:47.718Z,english_685.wav,0,pill,1052,3,0.3,40.47895004,0.00501952
MIS,45,0,2024-06-16T04:10:47.718Z,english_685.wav,0,pill,1052,4,0.4,-75.64985874,1.41330373
MIS,45,0,2024-06-16T04:10:47.718Z,english_685.wav,0,pill,1052,5,0.5,-62.21115329,0.58310659
MIS,45,0,2024-06-16T04:10:47.718Z,english_685.wav,0,pill,1052,6,0.6,34.38722215,1.5248844
MIS,45,0,2024-06-16T04:10:47.718Z,english_685.wav,0,pill,1052,7,0.7,96.86141958,0.15841589
MIS,45,0,2024-06-16T04:10:47.718Z,english_685.wav,0,pill,1052,8,0.8,52.32592552,1.39576372
MIS,45,0,2024-06-16T04:10:47.718Z,english_685.wav,0,pill,1052,9,0.9,47.74773781,1.97205737
MIS,45,0,2024-06-16T04:10:47.718Z,english_685.wav,0,pill,1052,10,1.0,37.75239805,1.24408728
MIS,45,0,2024-06-16T04:10:47.718Z,english_685.wav,0,pill,1052,11,1.09391667,-10.16077912,1.54258522
MIS,46,0,2024-06-16T04:10:47.718Z,english_174.wav,0,pill,330,0,0.0,-1.27352161,1.81219165
MIS,46,0,2024-06-16T04:10:47.718Z,english_174.wav,0,pill,330,1,0.1,-67.76486912,0.77028854
MIS,46,0,2024-06-16T04:10:47.718Z,english_174.wav,0,pill,330,2,0.2,38.59821356,0.44136445
MIS,46,0,2024-06-16T04:10:47.718Z,english_174.wav,0,pill,330,3,0.3,-68.30936474,1.01129338
MIS,46,0,2024-06-16T04:10:47.718Z,english_174.wav,0,pill,330,4,0.4,-90.24428589,0.76518489
MIS,46,0,2024-06-16T04:10:47.718Z,english_174.wav,0,pill,330,5,0.5,-78.84758788,1.51905633
MIS,46,0,2024-06-16T04:10:47.718Z,english_174.wav,0,pill,330,6,0.6,82.67516556,0.9260744
MIS,46,0,2024-06-16T04:10:47.718Z,english_174.wav,0,pill,330,7,0.7,27.65744762,1.48661059
MIS,46,0,2024-06-16T04:10:47.718Z,english_174.wav,0,pill,330,8,0.8,82.5621195,0.13101211
MIS,46,0,2024-06-16T04:10:47.718Z,english_174.wav,0,pill,330,9,0.9,22.03109017,0.66605082
MIS,46,0,2024-06-16T04:10:47.718Z,english_174.wav,0,pill,330,10,1.0,97.22651297,0.90549752
MIS,46,0,2024-06-16T04:10:47.718Z,english_174.wav,0,pill,330,11,1.09391667,6.30116613,1.52579229
MIS,47,0,2024-06-16T04:10:47.718Z,english_264.wav,0,pill,474,0,0.0,-7.97071304,0.52584892
MIS,47,0,2024-06-16T04:10:47.718Z,english_264.wav,0,pill,474,1,0.1,5.26810794,0.35098417
MIS,47,0,2024-06-16T04:10:47.718Z,english_264.wav,0,pill,474,2,0.2,42.90180093,0.87826506
MIS,47,0,2024-06-16T04:10:47.718Z,english_264.wav,0,pill,474,3,0.3,32.54664666,0.85267403
MIS,47,0,2024-06-16T04:10:47.718Z,english_264.wav,0,pill,474,4,0.4,-75.33920427,0.05665148
MIS,47,0,2024-06-16T04:10:47.718Z,english_264.wav,0,pill,474,5,0.5,-92.87225366,0.902019
MIS,47,0,2024-06-16T04:10:47.718Z,english_264.wav,0,pill,474,6,0.6,1.54584209,0.36999328
MIS,47,0,2024-06-16T04:10:47.718Z,english_264.wav,0,pill,474,7,0.7,-61.85301996,1.87523396
MIS,47,0,2024-06-16T04:10:47.718Z,english_264.wav,0,pill,474,8,0.8,-59.27209487,0.99775271
MIS,47,0,2024-06-16T04:10:47.718Z,english_264.wav,0,pill,474,9,0.9,-3.4044868,0.18460265
MIS,47,0,2024-06-16T04:10:47.718Z,english_264.wav,0,pill,474,10,1.0,20.29119999,0.05992377
MIS,47,0,2024-06-16T04:10:47.718Z,english_264.wav,0,pill,474,11,1.09391667,76.66199878,1.79844018
MIS,48,0,2024-06-16T04:10:47.718Z,english_521.wav,0,peel,892,0,0.0,5.37787975,1.11621025
MIS,48,0,2024-06-16T04:10:47.718Z,english_521.wav,0,peel,892,1,0.1,9.32249591,0.69917502
MIS,48,0,2024-06-16T04:10:47.718Z,english_521.wav,0,peel,892,2,0.2,4.19745407,0.1199413
MIS,48,0,2024-06-16T04:10:47.718Z,english_521.wav,0,peel,892,3,0.3,-75.18613478,1.762579
MIS,48,0,2024-06-16T04:10:47.718Z,english_521.wav,0,peel,892,4,0.4,87.02780947,1.43452798
MIS,48,0,2024-06-16T04:10:47.718Z,english_521.wav,0,peel,892,5,0.5,-73.26225675,0.23094002
MIS,48,0,2024-06-16T04:10:47.718Z,english_521.wav,0,peel,892,6,0.6,66.15406762,1.51181612
MIS,48,0,2024-06-16T04:10:47.718Z,english_521.wav,0,peel,892,7,0.7,-9.80579818,1.4155143
MIS,48,0,2024-06-16T04:10:47.718Z,english_521.wav,0,peel,892,8,0.8,17.20812603,1.82718341
MIS,48,0,2024-06-16T04:10:47.718Z,english_521.wav,0,peel,892,9,0.9,21.88979452,1.93759588
MIS,48,0,2024-06-16T04:10:47.718Z,english_521.wav,0,peel,892,10,1.0,-69.39969828,1.70606784
MIS,48,0,2024-06-16T04:10:47.718Z,english_521.wav,0,peel,892,11,1.09391667,-64.03153918,0.09885652
MIS,49,0,2024-06-16T04:10:47.718Z,english_534.wav,0,pill,436,0,0.0,-15.08523103,1.2576493
MIS,49,0,2024-06-16T04:10:47.718Z,english_534.wav,0,pill,436,1,0.1,93.48585898,1.2446308
MIS,49,0,2024-06-16T04:10:47.718Z,english_534.wav,0,pill,436,2,0.2,55.87888333,0.65171732
MIS,49,0,2024-06-16T04:10:47.718Z,english_534.wav,0,pill,436,3,0.3,-36.19470402,0.89712992
MIS,49,0,2024-06-16T04:10:47.718Z,english_534.wav,0,pill,436,4,0.4,-10.66505227,0.55440887
MIS,49,0,2024-06-16T04:10:47.718Z,english_534.wav,0,pill,436,5,0.5,-17.59721476,1.08297088
MIS,49,0,2024-06-16T04:10:47.718Z,english_534.wav,0,pill,436,6,0.6,0.24135603,0.95799779
MIS,49,0,2024-06-16T04:10:47.718Z,english_534.wav,0,pill,436,7,0.7,10.84337222,1.14434093
MIS,49,0,2024-06-16T04:10:47.718Z,english_534.wav,0,pill,436,8,0.8,-58.25689659,1.1844466
MIS,49,0,2024-06-16T04:10:47.718Z,english_534.wav,0,pill,436,9,0.9,99.17008703,1.42626651
MIS,49,0,2024-06-16T04:10:47.718Z,english_534.wav,0,pill,436,10,1.0,-1.84311714,0.25468926
MIS,49,0,2024-06-16T04:10:47.718Z,english_534.wav,0,pill,436,11,1.09391667,-27.99556667,1.75255348
MIS,50,1,2024-06-16T04:10:47.718Z,english_710.wav,0,pill,1012,0,0.0,-39.30636168,1.80624949
MIS,50,1,2024-06-16T04:10:47.718Z,english_710.wav,0,pill,1012,1,0.1,-97.6674904,0.47182227
MIS,50,1,2024-06-16T04:10:47.718Z,english_710.wav,0,pill,1012,2,0.2,64.09122161,0.70971527
MIS,50,1,2024-06-16T04:10:47.718Z,english_710.wav,0,pill,1012,3,0.3,75.88571101,0.05116828
MIS,50,1,2024-06-16T04:10:47.718Z,english_710.wav,0,pill,1012,4,0.4,-88.52762731,1.76085876
MIS,50,1,2024-06-16T04:10:47.718Z,english_710.wav,0,pill,1012,5,0.5,82.62720899,0.52858011
MIS,50,1,2024-06-16T04:10:47.718Z,english_710.wav,0,pill,1012,6,0.6,-76.34366579,0.11108823
MIS,50,1,2024-06-16T04:10:47.718Z,english_710.wav,0,pill,1012,7,0.7,-8.69440278,1.51710045
MIS,50,1,2024-06-16T04:10:47.718Z,english_710.wav,0,pill,1012,8,0.8,-70.02409217,1.27546604
MIS,50,1,2024-06-16T04:10:47.718Z,english_710.wav,0,pill,1012,9,0.9,57.25294742,0.25600017
MIS,50,1,2024-06-16T04:10:47.718Z,english_710.wav,0,pill,1012,10,1.0,-12.57900879,0.70194387
MIS,50,1,2024-06-16T04:10:47.718Z,english_710.wav,0,pill,1012,11,1.09391667,58.69693709,0.08256398
MIS,51,1,2024-06-16T04:10:47.718Z,english_407.wav,0,pill,799,0,0.0,-24.60693705,0.46722995
MIS,51,1,2024-06-16T04:10:47.718Z,english_407.wav,0,pill,799,1,0.1,-18.03262929,1.67527194
MIS,51,1,2024-06-16T04:10:47.718Z,english_407.wav,0,pill,799,2,0.2,78.43262301,0.46653722
MIS,51,1,2024-06-16T04:10:47.718Z,english_407.wav,0,pill,799,3,0.3,-68.3918043,0.93598541
MIS,51,1,2024-06-16T04:10:47.718Z,english_407.wav,0,pill,799,4,0.4,-80.30955939,1.16461279
MIS,51,1,2024-06-16T04:10:47.718Z,english_407.wav,0,pill,799,5,0.5,85.23652971,0.21312226
MIS,51,1,2024-06-16T04:10:47.718Z,english_407.wav,0,pill,799,6,0.6,-34.75897275,0.26523352
MIS,51,1,2024-06-16T04:10:47.718Z,english_407.wav,0,pill,799,7,0.7,-13.65493451,0.26712079
MIS,51,1,2024-06-16T04:10:47.718Z,english_407.wav,0,pill,799,8,0.8,18.27954458,0.66430326
MIS,51,1,2024-06-16T04:10:47.718Z,english_407.wav,0,pill,799,9,0.9,-61.83588329,0.96548424
MIS,51,1,2024-06-16T04:10:47.718Z,english_407.wav,0,pill,799,10,1.0,1.46934054,0.70653645
MIS,51,1,2024-06-16T04:10:47.718Z,english_407.wav,0,pill,799,11,1.09391667,21.65066183,1.4905418
MIS,52,1,2024-06-16T04:10:47.718Z,english_879.wav,0,pill,1405,0,0.0,-41.71376067,1.10654485
MIS,52,1,2024-06-16T04:10:47.718Z,english_879.wav,0,pill,1405,1,0.1,5.81272632,1.32832236
MIS,52,1,2024-06-16T04:10:47.718Z,english_879.wav,0,pill,1405,2,0.2,-22.32054487,1.5555922
MIS,52,1,2024-06-16T04:10:47.718Z,english_879.wav,0,pill,1405,3,0.3,93.64091385,0.11041486
MIS,52,1,2024-06-16T04:10:47.718Z,english_879.wav,0,pill,1405,4,0.4,-40.92402167,1.31993608
MIS,52,1,2024-06-16T04:10:47.718Z,english_879.wav,0,pill,1405,5,0.5,13.45427288,1.7629303
MIS,52,1,2024-06-16T04:10:47.718Z,english_879.wav,0,pill,1405,6,0.6,-86.15210755,1.83129602
MIS,52,1,2024-06-16T04:10:47.718Z,english_879.wav,0,pill,1405,7,0.7,-20.9667874,1.42589619
MIS,52,1,2024-06-16T04:10:47.718Z,english_879.wav,0,pill,1405,8,0.8,-18.58842444,0.74351112
MIS,52,1,2024-06-16T04:10:47.718Z,english_879.wav,0,pill,1405,9,0.9,-72.1364449,0.32763887
MIS,52,1,2024-06-16T04:10:47.718Z,english_879.wav,0,pill,1405,10,1.0,-83.06025628,1.7749803
MIS,52,1,2024-06-16T04:10:47.718Z,english_879.wav,0,pill,1405,11,1.09391667,76.41221389,1.6164567
MIS,53,1,2024-06-16T04:10:47.718Z,english_642.wav,0,peel,6351,0,0.0,91.32452464,1.47199137
MIS,53,1,2024-06-16T04:10:47.718Z,english_642.wav,0,peel,6351,1,0.1,25.50334758,0.86889355
MIS,53,1,2024-06-16T04:10:47.718Z,english_642.wav,0,peel,6351,2,0.2,16.65062249,0.12872518
MIS,53,1,2024-06-16T04:10:47.718Z,english_642.wav,0,peel,6351,3,0.3,59.49550973,0.72033949
MIS,53,1,2024-06-16T04:10:47.718Z,english_642.wav,0,peel,6351,4,0.4,71.09902,1.524748
MIS,53,1,2024-06-16T04:10:47.718Z,english_642.wav,0,peel,6351,5,0.5,32.48084173,1.90798091
MIS,53,1,2024-06-16T04:10:47.718Z,english_642.wav,0,peel,6351,6,0.6,-3.97213515,1.71709986
MIS,53,1,2024-06-16T04:10:47.718Z,english_642.wav,0,peel,6351,7,0.7,-1.84724139,1.47754373
MIS,53,1,2024-06-16T04:10:47.718Z,english_642.wav,0,peel,6351,8,0.8,94.84850521,1.43391033
MIS,53,1,2024-06-16T04:10:47.718Z,english_642.wav,0,peel,6351,9,0.9,-6.66803952,1.68537408
MIS,53,1,2024-06-16T04:10:47.718Z,english_642.wav,0,peel,6351,10,1.0,95.32562857,1.1201051
MIS,53,1,2024-06-16T04:10:47.718Z,english_642.wav,0,peel,6351,11,1.09391667,43.75707904,1.27926817
MIS,54,1,2024-06-16T04:10:47.718Z,english_894.wav,0,pill,716,0,0.0,-80.20723644,1.79346893
MIS,54,1,2024-06-16T04:10:47.718Z,english_894.wav,0,pill,716,1,0.1,70.63971402,0.36641107
MIS,54,1,2024-06-16T04:10:47.718Z,english_894.wav,0,pill,716,2,0.2,-37.49635732,1.22262179
MIS,54,1,2024-06-16T04:10:47.718Z,english_894.wav,0,pill,716,3,0.3,-83.65831032,1.81798895
MIS,54,1,2024-06-16T04:10:47.718Z,english_894.wav,0,pill,716,4,0.4,-33.74406965,0.98569015
MIS,54,1,2024-06-16T04:10:47.718Z,english_894.wav,0,pill,716,5,0.5,51.66171184,1.39342992
MIS,54,1,2024-06-16T04:10:47.718Z,english_894.wav,0,pill,716,6,0.6,19.47391611,1.02882877
MIS,54,1,2024-06-16T04:10:47.718Z,english_894.wav,0,pill,716,7,0.7,-13.53975377,0.49108551
MIS,54,1,2024-06-16T04:10:47.718Z,english_894.wav,0,pill,716,8,0.8,-20.28527638,0.73422482
MIS,54,1,2024-06-16T04:10:47.718Z,english_894.wav,0,pill,716,9,0.9,-1.05192851,1.80196554
MIS,54,1,2024-06-16T04:10:47.718Z,english_894.wav,0,pill,716,10,1.0,-21.57661458,0.14842719
MIS,54,1,2024-06-16T04:10:47.718Z,english_894.wav,0,pill,716,11,1.09391667,-6.12644826,0.9088618
MIS,55,1,2024-06-16T04:10:47.718Z,english_765.wav,0,pill,471,0,0.0,-46.53041628,0.24046298
MIS,55,1,2024-06-16T04:10:47.718Z,english_765.wav,0,pill,471,1,0.1,-50.60278258,1.09360201
MIS,55,1,2024-06-16T04:10:47.718Z,english_765.wav,0,pill,471,2,0.2,-7.48188076,0.57764993
MIS,55,1,2024-06-16T04:10:47.718Z,english_765.wav,0,pill,471,3,0.3,-4.61052544,0.55520632
MIS,55,1,2024-06-16T04:10:47.718Z,english_765.wav,0,pill,471,4,0.4,69.78049639,0.44903327
MIS,55,1,2024-06-16T04:10:47.718Z,english_765.wav,0,pill,471,5,0.5,-53.58575129,0.63867698
MIS,55,1,2024-06-16T04:10:47.718Z,english_765.wav,0,pill,471,6,0.6,-46.38219648,0.56842849
MIS,55,1,2024-06-16T04:10:47.718Z,english_765.wav,0,pill,471,7,0.7,78.75215399,1.28188815
MIS,55,1,2024-06-16T04:10:47.718Z,english_765.wav,0,pill,471,8,0.8,95.47520091,0.91009427
MIS,55,1,2024-06-16T04:10:47.718Z,english_765.wav,0,pill,471,9,0.9,26.22396157,0.76285115
MIS,55,1,2024-06-16T04:10:47.718Z,english_765.wav,0,pill,471,10,1.0,3.12654745,1.19675799
MIS,55,1,2024-06-16T04:10:47.718Z,english_765.wav,0,pill,471,11,1.09391667,-11.81611391,0.81915378
MIS,56,1,2024-06-16T04:10:47.718Z,english_971.wav,0,pill,2190,0,0.0,21.92702064,0.459047
MIS,56,1,2024-06-16T04:10:47.718Z,english_971.wav,0,pill,2190,1,0.1,-53.27203396,0.06454192
MIS,56,1,2024-06-16T04:10:47.718Z,english_971.wav,0,pill,2190,2,0.2,16.04080675,1.47088252
MIS,56,1,2024-06-16T04:10:47.718Z,english_971.wav,0,pill,2190,3,0.3,-93.72897718,0.63214126
MIS,56,1,2024-06-16T04:10:47.718Z,english_971.wav,0,pill,2190,4,0.4,76.75922717,0.53041825
MIS,56,1,2024-06-16T04:10:47.718Z,english_971.wav,0,pill,2190,5,0.5,2.23154985,0.36671068
MIS,56,1,2024-06-16T04:10:47.718Z,english_971.wav,0,pill,2190,6,0.6,57.16774736,0.84112941
MIS,56,1,2024-06-16T04:10:47.718Z,english_971.wav,0,pill,2190,7,0.7,-66.3096603,0.93270713
MIS,56,1,2024-06-16T04:10:47.718Z,english_971.wav,0,pill,2190,8,0.8,-54.36784686,0.0064824
MIS,56,1,2024-06-16T04:10:47.718Z,english_971.wav,0,pill,2190,9,0.9,31.74688825,0.04508119
MIS,56,1,2024-06-16T04:10:47.718Z,english_971.wav,0,pill,2190,10,1.0,-41.88838509,1.17781348
MIS,56,1,2024-06-16T04:10:47.718Z,english_971.wav,0,pill,2190,11,1.09391667,-46.11178706,0.19249934
MIS,57,1,2024-06-16T04:10:47.718Z,english_884.wav,0,pill,523,0,0.0,-26.7986483,0.93358525
MIS,57,1,2024-06-16T04:10:47.718Z,english_884.wav,0,pill,523,1,0.1,-20.57946037,0.61599081
MIS,57,1,2024-06-16T04:10:47.718Z,english_884.wav,0,pill,523,2,0.2,-14.61918651,1.88488325
MIS,57,1,2024-06-16T04:10:47.718Z,english_884.wav,0,pill,523,3,0.3,-54.80261731,0.21075836
MIS,57,1,2024-06-16T04:10:47.718Z,english_884.wav,0,pill,523,4,0.4,32.41231837,0.52073008
MIS,57,1,2024-06-16T04:10:47.718Z,english_884.wav,0,pill,523,5,0.5,22.58711785,1.07474078
MIS,57,1,2024-06-16T04:10:47.718Z,english_884.wav,0,pill,523,6,0.6,-23.74471885,1.54114542
MIS,57,1,2024-06-16T04:10:47.718Z,english_884.wav,0,pill,523,7,0.7,0.47861234,0.96193885
MIS,57,1,2024-06-16T04:10:47.718Z,english_884.wav,0,pill,523,8,0.8,-1.79385185,0.3951249
MIS,57,1,2024-06-16T04:10:47.718Z,english_884.wav,0,pill,523,9,0.9,-17.00071045,1.98003937
MIS,57,1,2024-06-16T04:10:47.718Z,english_884.wav,0,pill,523,10,1.0,12.5163052,0.39843766
MIS,57,1,2024-06-16T04:10:47.718Z,english_884.wav,0,pill,523,11,1.09391667,-96.33383281,1.06218732
MIS,58,1,2024-06-16T04:10:47.718Z,english_700.wav,0,peel,1332,0,0.0,68.07429642,0.65814928
MIS,58,1,2024-06-16T04:10:47.718Z,english_700.wav,0,peel,1332,1,0.1,-37.49377634,0.17735138
MIS,58,1,2024-06-16T04:10:47.718Z,english_700.wav,0,peel,1332,2,0.2,-23.04099004,0.86512997
MIS,58,1,2024-06-16T04:10:47.718Z,english_700.wav,0,peel,1332,3,0.3,29.04143541,1.58435568
MIS,58,1,2024-06-16T04:10:47.718Z,english_700.wav,0,peel,1332,4,0.4,20.45754453,1.51654074
MIS,58,1,2024-06-16T04:10:47.718Z,english_700.wav,0,peel,1332,5,0.5,37.24109952,1.28756254
MIS,58,1,2024-06-16T04:10:47.718Z,english_700.wav,0,peel,1332,6,0.6,39.64018777,0.60860264
MIS,58,1,2024-06-16T04:10:47.718Z,english_700.wav,0,peel,1332,7,0.7,51.86520487,1.44468929
MIS,58,1,2024-06-16T04:10:47.718Z,english_700.wav,0,peel,1332,8,0.8,48.29334393,1.11255223
MIS,58,1,2024-06-16T04:10:47.718Z,english_700.wav,0,peel,1332,9,0.9,69.44263224,0.2005319
MIS,58,1,2024-06-16T04:10:47.718Z,english_700.wav,0,peel,1332,10,1.0,-89.62778161,1.42301772
MIS,58,1,2024-06-16T04:10:47.718Z,english_700.wav,0,peel,1332,11,1.09391667,-27.88856176,1.42118254
MIS,59,1,2024-06-16T04:10:47.718Z,english_851.wav,0,pill,770,0,0.0,-45.21125718,1.95103615
MIS,59,1,2024-06-16T04:10:47.718Z,english_851.wav,0,pill,770,1,0.1,-85.75475475,0.03053554
MIS,59,1,2024-06-16T04:10:47.718Z,english_851.wav,0,pill,770,2,0.2,-73.09455341,0.63850244
MIS,59,1,2024-06-16T04:10:47.718Z,english_851.wav,0,pill,770,3,0.3,1.17370607,0.96719068
MIS,59,1,2024-06-16T04:10:47.718Z,english_851.wav,0,pill,770,4,0.4,-11.35992748,0.02484013
MIS,59,1,2024-06-16T04:10:47.718Z,english_851.wav,0,pill,770,5,0.5,42.80073602,0.41750072
MIS,59,1,2024-06-16T04:10:47.718Z,english_851.wav,0,pill,770,6,0.6,45.07360169,1.17324743
MIS,59,1,2024-06-16T04:10:47.718Z,english_851.wav,0,pill,770,7,0.7,-42.16100478,0.99186788
MIS,59,1,2024-06-16T04:10:47.718Z,english_851.wav,0,pill,770,8,0.8,-19.59764742,1.3258141
MIS,59,1,2024-06-16T04:10:47.718Z,english_851.wav,0,pill,770,9,0.9,-56.7450747,1.2279363
MIS,59,1,2024-06-16T04:10:47.718Z,english_851.wav,0,pill,770,10,1.0,78.71604463,1.72539035
MIS,59,1,2024-06-16T04:10:47.718Z,english_851.wav,0,pill,770,11,1.09391667,96.78573361,1.236894
MIS,60,1,2024-06-16T04:10:47.718Z,english_188.wav,0,pill,2714,0,0.0,-44.78438497,0.94710117
MIS,60,1,2024-06-16T04:10:47.718Z,english_188.wav,0,pill,2714,1,0.1,-59.64362525,0.96413905
MIS,60,1,2024-06-16T04:10:47.718Z,english_188.wav,0,pill,2714,2,0.2,-64.08533898,0.84840618
MIS,60,1,2024-06-16T04:10:47.718Z,english_188.wav,0,pill,2714,3,0.3,-29.1378116,0.37627617
MIS,60,1,2024-06-16T04:10:47.718Z,english_188.wav,0,pill,2714,4,0.4,-4.14868477,1.62621942
MIS,60,1,2024-06-16T04:10:47.718Z,english_188.wav,0,pill,2714,5,0.5,-61.00737987,0.44747201
MIS,60,1,2024-06-16T04:10:47.718Z,english_188.wav,0,pill,2714,6,0.6,61.72468412,0.51555254
MIS,60,1,2024-06-16T04:10:47.718Z,english_188.wav,0,pill,2714,7,0.7,91.61563335,1.97040932
MIS,60,1,2024-06-16T04:10:47.718Z,english_188.wav,0,pill,2714,8,0.8,-69.21450223,0.35468899
MIS,60,1,2024-06-16T04:10:47.718Z,english_188.wav,0,pill,2714,9,0.9,55.80681999,1.42342949
MIS,60,1,2024-06-16T04:10:47.718Z,english_188.wav,0,pill,2714,10,1.0,-13.47812759,1.23724986
MIS,60,1,2024-06-16T04:10:47.718Z,english_188.wav,0,pill,2714,11,1.09391667,47.39616925,0.05613364
MIS,61,1,2024-06-16T04:10:47.718Z,english_387.wav,0,pill,1953,0,0.0,67.80075556,0.00122772109
MIS,61,1,2024-06-16T04:10:47.718Z,english_387.wav,0,pill,1953,1,0.1,2.91528807,1.63436641
MIS,61,1,2024-06-16T04:10:47.718Z,english_387.wav,0,pill,1953,2,0.2,-96.71759945,0.942533102
MIS,61,1,2024-06-16T04:10:47.718Z,english_387.wav,0,pill,1953,3,0.3,0.93195301,0.658001898
MIS,61,1,2024-06-16T04:10:47.718Z,english_387.wav,0,pill,1953,4,0.4,64.10102677,1.5746929
MIS,61,1,2024-06-16T04:10:47.718Z,english_387.wav,0,pill,1953,5,0.5,50.38025389,0.711925794
MIS,61,1,2024-06-16T04:10:47.718Z,english_387.wav,0,pill,1953,6,0.6,73.00593199,1.61187408
MIS,61,1,2024-06-16T04:10:47.718Z,english_387.wav,0,pill,1953,7,0.7,18.93402178,1.34608703
MIS,61,1,2024-06-16T04:10:47.718Z,english_387.wav,0,pill,1953,8,0.8,35.76134207,1.4554979
MIS,61,1,2024-06-16T04:10:47.718Z,english_387.wav,0,pill,1953,9,0.9,32.66910334,0.118157589
MIS,61,1,2024-06-16T04:10:47.718Z,english_387.wav,0,pill,1953,10,1.0,89.60787906,0.929482496
MIS,61,1,2024-06-16T04:10:47.718Z,english_387.wav,0,pill,1953,11,1.09391667,4.26061553,1.40897442
MIS,62,1,2024-06-16T04:10:47.718Z,english_362.wav,0,pill,900,0,0.0,-2.50436392,0.54146841
MIS,62,1,2024-06-16T04:10:47.718Z,english_362.wav,0,pill,900,1,0.1,0.0104378628,1.24688309
MIS,62,1,2024-06-16T04:10:47.718Z,english_362.wav,0,pill,900,2,0.2,11.8772332,0.3557669
MIS,62,1,2024-06-16T04:10:47.718Z,english_362.wav,0,pill,900,3,0.3,-6.76668863,0.8130148
MIS,62,1,2024-06-16T04:10:47.718Z,english_362.wav,0,pill,900,4,0.4,48.0667468,0.53456903
MIS,62,1,2024-06-16T04:10:47.718Z,english_362.wav,0,pill,900,5,0.5,47.82207,0.25808446
MIS,62,1,2024-06-16T04:10:47.718Z,english_362.wav,0,pill,900,6,0.6,71.0515441,0.46779047
MIS,62,1,2024-06-16T04:10:47.718Z,english_362.wav,0,pill,900,7,0.7,16.0380094,1.05295189
MIS,62,1,2024-06-16T04:10:47.718Z,english_362.wav,0,pill,900,8,0.8,76.5389373,0.192545
MIS,62,1,2024-06-16T04:10:47.718Z,english_362.wav,0,pill,900,9,0.9,33.7838449,0.76311718
MIS,62,1,2024-06-16T04:10:47.718Z,english_362.wav,0,pill,900,10,1.0,-81.3464293,1.48955345
MIS,62,1,2024-06-16T04:10:47.718Z,english_362.wav,0,pill,900,11,1.09391667,-3.89826037,1.4188577
MIS,63,1,2024-06-16T04:10:47.718Z,english_545.wav,0,peel,807,0,0.0,-99.01008517,0.51580829
MIS,63,1,2024-06-16T04:10:47.718Z,english_545.wav,0,peel,807,1,0.1,65.47335851,0.53489733
MIS,63,1,2024-06-16T04:10:47.718Z,english_545.wav,0,peel,807,2,0.2,-84.28840174,1.28091178
MIS,63,1,2024-06-16T04:10:47.718Z,english_545.wav,0,peel,807,3,0.3,-53.2257253,1.83272888
MIS,63,1,2024-06-16T04:10:47.718Z,english_545.wav,0,peel,807,4,0.4,-67.85056043,0.88291171
MIS,63,1,2024-06-16T04:10:47.718Z,english_545.wav,0,peel,807,5,0.5,-22.57245088,0.35382027
MIS,63,1,2024-06-16T04:10:47.718Z,english_545.wav,0,peel,807,6,0.6,-0.78864791,1.57508052
MIS,63,1,2024-06-16T04:10:47.718Z,english_545.wav,0,peel,807,7,0.7,17.40611159,0.29019895
MIS,63,1,2024-06-16T04:10:47.718Z,english_545.wav,0,peel,807,8,0.8,62.9168566,1.37661243
MIS,63,1,2024-06-16T04:10:47.718Z,english_545.wav,0,peel,807,9,0.9,32.36790846,0.94083914
MIS,63,1,2024-06-16T04:10:47.718Z,english_545.wav,0,peel,807,10,1.0,-91.70599266,1.54827837
MIS,63,1,2024-06-16T04:10:47.718Z,english_545.wav,0,peel,807,11,1.09391667,50.31108328,0.28023548
MIS,64,1,2024-06-16T04:10:47.718Z,english_816.wav,0,pill,304,0,0.0,-17.35587933,1.80713615
MIS,64,1,2024-06-16T04:10:47.718Z,english_816.wav,0,pill,304,1,0.1,0.95768859,0.65818518
MIS,64,1,2024-06-16T04:10:47.718Z,english_816.wav,0,pill,304,2,0.2,47.37608494,0.13743933
MIS,64,1,2024-06-16T04:10:47.718Z,english_816.wav,0,pill,304,3,0.3,-29.30928245,0.63156649
MIS,64,1,2024-06-16T04:10:47.718Z,english_816.wav,0,pill,304,4,0.4,0.3886714,0.74841843
MIS,64,1,2024-06-16T04:10:47.718Z,english_816.wav,0,pill,304,5,0.5,11.78751261,1.47868634
MIS,64,1,2024-06-16T04:10:47.718Z,english_816.wav,0,pill,304,6,0.6,-3.17696206,1.19861887
MIS,64,1,2024-06-16T04:10:47.718Z,english_816.wav,0,pill,304,7,0.7,-19.53944189,0.27488431
MIS,64,1,2024-06-16T04:10:47.718Z,english_816.wav,0,pill,304,8,0.8,-7.70582249,0.84423799
MIS,64,1,2024-06-16T04:10:47.718Z,english_816.wav,0,pill,304,9,0.9,-20.54964166,0.77450003
MIS,64,1,2024-06-16T04:10:47.718Z,english_816.wav,0,pill,304,10,1.0,-60.75740285,1.95248665
MIS,64,1,2024-06-16T04:10:47.718Z,english_816.wav,0,pill,304,11,1.09391667,-12.71558958,0.720403
MIS,65,1,2024-06-16T04:10:47.718Z,english_52.wav,0,peel,1051,0,0.0,22.10137518,1.70966253
MIS,65,1,2024-06-16T04:10:47.718Z,english_52.wav,0,peel,1051,1,0.1,54.60808655,0.73212315
MIS,65,1,2024-06-16T04:10:47.718Z,english_52.wav,0,peel,1051,2,0.2,-19.2398092,0.80628637
MIS,65,1,2024-06-16T04:10:47.718Z,english_52.wav,0,peel,1051,3,0.3,51.72612617,0.90394386
MIS,65,1,2024-06-16T04:10:47.718Z,english_52.wav,0,peel,1051,4,0.4,48.42620238,0.20122149
MIS,65,1,2024-06-16T04:10:47.718Z,english_52.wav,0,peel,1051,5,0.5,-74.55875553,0.79458017
MIS,65,1,2024-06-16T04:10:47.718Z,english_52.wav,0,peel,1051,6,0.6,38.81047921,1.48954082
MIS,65,1,2024-06-16T04:10:47.718Z,english_52.wav,0,peel,1051,7,0.7,-10.61292931,0.49987231
MIS,65,1,2024-06-16T04:10:47.718Z,english_52.wav,0,peel,1051,8,0.8,57.32417171,1.72417372
MIS,65,1,2024-06-16T04:10:47.718Z,english_52.wav,0,peel,1051,9,0.9,1.80511965,1.29717669
MIS,65,1,2024-06-16T04:10:47.718Z,english_52.wav,0,peel,1051,10,1.0,21.58974988,1.53819456
MIS,65,1,2024-06-16T04:10:47.718Z,english_52.wav,0,peel,1051,11,1.09391667,-49.54213801,0.23189362
MIS,66,1,2024-06-16T04:10:47.718Z,english_856.wav,0,peel,765,0,0.0,-87.78087501,0.23355411
MIS,66,1,2024-06-16T04:10:47.718Z,english_856.wav,0,peel,765,1,0.1,-5.3712764,0.25625776
MIS,66,1,2024-06-16T04:10:47.718Z,english_856.wav,0,peel,765,2,0.2,-32.01336506,0.23781871
MIS,66,1,2024-06-16T04:10:47.718Z,english_856.wav,0,peel,765,3,0.3,-17.67932292,1.00270159
MIS,66,1,2024-06-16T04:10:47.718Z,english_856.wav,0,peel,765,4,0.4,-24.3028662,1.45467938
MIS,66,1,2024-06-16T04:10:47.718Z,english_856.wav,0,peel,765,5,0.5,-24.1832065,0.02272775
MIS,66,1,2024-06-16T04:10:47.718Z,english_856.wav,0,peel,765,6,0.6,72.09597394,1.47665781
MIS,66,1,2024-06-16T04:10:47.718Z,english_856.wav,0,peel,765,7,0.7,99.56545873,1.13119878
MIS,66,1,2024-06-16T04:10:47.718Z,english_856.wav,0,peel,765,8,0.8,-38.26985921,1.70416673
MIS,66,1,2024-06-16T04:10:47.718Z,english_856.wav,0,peel,765,9,0.9,46.8718891,1.96783156
MIS,66,1,2024-06-16T04:10:47.718Z,english_856.wav,0,peel,765,10,1.0,23.13402485,0.77103282
MIS,66,1,2024-06-16T04:10:47.718Z,english_856.wav,0,peel,765,11,1.09391667,-57.51825613,1.57872491
MIS,67,1,2024-06-16T04:10:47.718Z,english_994.wav,0,pill,1366,0,0.0,36.98660599,0.81226984
MIS,67,1,2024-06-16T04:10:47.718Z,english_994.wav,0,pill,1366,1,0.1,-60.95311815,1.65591745
MIS,67,1,2024-06-16T04:10:47.718Z,english_994.wav,0,pill,1366,2,0.2,71.26510733,0.7009818
MIS,67,1,2024-06-16T04:10:47.718Z,english_994.wav,0,pill,1366,3,0.3,11.062559,1.67859876
MIS,67,1,2024-06-16T04:10:47.718Z,english_994.wav,0,pill,1366,4,0.4,70.6179669,1.05248669
MIS,67,1,2024-06-16T04:10:47.718Z,english_994.wav,0,pill,1366,5,0.5,-52.90665563,0.39767772
MIS,67,1,2024-06-16T04:10:47.718Z,english_994.wav,0,pill,1366,6,0.6,78.12480734,1.01059837
MIS,67,1,2024-06-16T04:10:47.718Z,english_994.wav,0,pill,1366,7,0.7,46.03409877,0.20028443
MIS,67,1,2024-06-16T04:10:47.718Z,english_994.wav,0,pill,1366,8,0.8,-66.74754668,0.75506808
MIS,67,1,2024-06-16T04:10:47.718Z,english_994.wav,0,pill,1366,9,0.9,56.18548234,1.57615428
MIS,67,1,2024-06-16T04:10:47.718Z,english_994.wav,0,pill,1366,10,1.0,-83.86573512,0.51140578
MIS,67,1,2024-06-16T04:10:47.718Z,english_994.wav,0,pill,1366,11,1.09391667,32.71445858,1.06238543
MIS,68,1,2024-06-16T04:10:47.718Z,english_371.wav,0,peel,2066,0,0.0,99.9242386,0.39669775
MIS,68,1,2024-06-16T04:10:47.718Z,english_371.wav,0,peel,2066,1,0.1,22.83023049,0.78709847
MIS,68,1,2024-06-16T04:10:47.718Z,english_371.wav,0,peel,2066,2,0.2,91.55037371,1.18432294
MIS,68,1,2024-06-16T04:10:47.718Z,english_371.wav,0,peel,2066,3,0.3,5.76311401,0.89768316
MIS,68,1,2024-06-16T04:10:47.718Z,english_371.wav,0,peel,2066,4,0.4,4.70890445,0.28448655
MIS,68,1,2024-06-16T04:10:47.718Z,english_371.wav,0,peel,2066,5,0.5,-99.6762273,1.11635531
MIS,68,1,2024-06-16T04:10:47.718Z,english_371.wav,0,peel,2066,6,0.6,-44.58037386,0.70262912
MIS,68,1,2024-06-16T04:10:47.718Z,english_371.wav,0,peel,2066,7,0.7,-30.18832908,1.50477642
MIS,68,1,2024-06-16T04:10:47.718Z,english_371.wav,0,peel,2066,8,0.8,69.47065737,1.93681172
MIS,68,1,2024-06-16T04:10:47.718Z,english_371.wav,0,peel,2066,9,0.9,-91.54025657,1.02826785
MIS,68,1,2024-06-16T04:10:47.718Z,english_371.wav,0,peel,2066,10,1.0,20.04839549,1.64700674
MIS,68,1,2024-06-16T04:10:47.718Z,english_371.wav,0,peel,2066,11,1.09391667,43.26134408,0.44264614
MIS,69,1,2024-06-16T04:10:47.718Z,english_378.wav,0,peel,880,0,0.0,-6.75592408,1.57446733
MIS,69,1,2024-06-16T04:10:47.718Z,english_378.wav,0,peel,880,1,0.1,-33.28558439,0.29285803
MIS,69,1,2024-06-16T04:10:47.718Z,english_378.wav,0,peel,880,2,0.2,-96.71642688,0.09494473
MIS,69,1,2024-06-16T04:10:47.718Z,english_378.wav,0,peel,880,3,0.3,70.45646645,0.09114875
MIS,69,1,2024-06-16T04:10:47.718Z,english_378.wav,0,peel,880,4,0.4,20.01443052,0.12099564
MIS,69,1,2024-06-16T04:10:47.718Z,english_378.wav,0,peel,880,5,0.5,-69.62604827,0.06996617
MIS,69,1,2024-06-16T04:10:47.718Z,english_378.wav,0,peel,880,6,0.6,-82.6103386,0.89001983
MIS,69,1,2024-06-16T04:10:47.718Z,english_378.wav,0,peel,880,7,0.7,-53.90394432,1.80047075
MIS,69,1,2024-06-16T04:10:47.718Z,english_378.wav,0,peel,880,8,0.8,75.60526061,1.92282567
MIS,69,1,2024-06-16T04:10:47.718Z,english_378.wav,0,peel,880,9,0.9,-65.71007404,0.07000512
MIS,69,1,2024-06-16T04:10:47.718Z,english_378.wav,0,peel,880,10,1.0,-82.95728524,0.51793223
MIS,69,1,2024-06-16T04:10:47.718Z,english_378.wav,0,peel,880,11,1.09391667,40.19708488,1.33854892
MIS,70,1,2024-06-16T04:10:47.718Z,english_739.wav,0,pill,847,0,0.0,1.66907671,0.87693375
MIS,70,1,2024-06-16T04:10:47.718Z,english_739.wav,0,pill,847,1,0.1,32.28194312,0.65337813
MIS,70,1,2024-06-16T04:10:47.718Z,english_739.wav,0,pill,847,2,0.2,88.89595153,0.64089741
MIS,70,1,2024-06-16T04:10:47.718Z,english_739.wav,0,pill,847,3,0.3,20.95779095,1.8100412
MIS,70,1,2024-06-16T04:10:47.718Z,english_739.wav,0,pill,847,4,0.4,75.26857339,1.25976755
MIS,70,1,2024-06-16T04:10:47.718Z,english_739.wav,0,pill,847,5,0.5,80.94392955,0.9768095
MIS,70,1,2024-06-16T04:10:47.718Z,english_739.wav,0,pill,847,6,0.6,17.54887525,1.56119235
MIS,70,1,2024-06-16T04:10:47.718Z,english_739.wav,0,pill,847,7,0.7,25.07377362,0.95993111
MIS,70,1,2024-06-16T04:10:47.718Z,english_739.wav,0,pill,847,8,0.8,92.52917298,0.31388654
MIS,70,1,2024-06-16T04:10:47.718Z,english_739.wav,0,pill,847,9,0.9,2.73629171,1.55063506
MIS,70,1,2024-06-16T04:10:47.718Z,english_739.wav,0,pill,847,10,1.0,-80.00700458,1.57282249
MIS,70,1,2024-06-16T04:10:47.718Z,english_739.wav,0,pill,847,11,1.09391667,-87.47656885,1.46307629
MIS,71,1,2024-06-16T04:10:47.718Z,english_328.wav,0,peel,2673,0,0.0,-34.15226182,1.97940755
MIS,71,1,2024-06-16T04:10:47.718Z,english_328.wav,0,peel,2673,1,0.1,46.58879641,1.19087686
MIS,71,1,2024-06-16T04:10:47.718Z,english_328.wav,0,peel,2673,2,0.2,7.44753162,0.43566007
MIS,71,1,2024-06-16T04:10:47.718Z,english_328.wav,0,peel,2673,3,0.3,-92.44554452,0.76183496
MIS,71,1,2024-06-16T04:10:47.718Z,english_328.wav,0,peel,2673,4,0.4,3.63383719,0.8818405
MIS,71,1,2024-06-16T04:10:47.718Z,english_328.wav,0,peel,2673,5,0.5,-2.02722829,1.27876528
MIS,71,1,2024-06-16T04:10:47.718Z,english_328.wav,0,peel,2673,6,0.6,-82.23630384,1.49520956
MIS,71,1,2024-06-16T04:10:47.718Z,english_328.wav,0,peel,2673,7,0.7,-69.01372747,1.75978666
MIS,71,1,2024-06-16T04:10:47.718Z,english_328.wav,0,peel,2673,8,0.8,-25.63899755,1.56278657
MIS,71,1,2024-06-16T04:10:47.718Z,english_328.wav,0,peel,2673,9,0.9,-0.50353538,0.58848955
MIS,71,1,2024-06-16T04:10:47.718Z,english_328.wav,0,peel,2673,10,1.0,-86.64513647,1.05304823
MIS,71,1,2024-06-16T04:10:47.718Z,english_328.wav,0,peel,2673,11,1.09391667,-24.00524896,1.60265091
MIS,72,1,2024-06-16T04:10:47.718Z,english_458.wav,0,pill,847,0,0.0,-17.35193705,0.22923126
MIS,72,1,2024-06-16T04:10:47.718Z,english_458.wav,0,pill,847,1,0.1,76.25272333,1.42441377
MIS,72,1,2024-06-16T04:10:47.718Z,english_458.wav,0,pill,847,2,0.2,66.551046,0.60732538
MIS,72,1,2024-06-16T04:10:47.718Z,english_458.wav,0,pill,847,3,0.3,-95.41815816,0.4830802
MIS,72,1,2024-06-16T04:10:47.718Z,english_458.wav,0,pill,847,4,0.4,-5.20731416,0.7532548
MIS,72,1,2024-06-16T04:10:47.718Z,english_458.wav,0,pill,847,5,0.5,-15.31002561,1.81914976
MIS,72,1,2024-06-16T04:10:47.718Z,english_458.wav,0,pill,847,6,0.6,63.5103627,1.22838438
MIS,72,1,2024-06-16T04:10:47.718Z,english_458.wav,0,pill,847,7,0.7,-32.19044721,0.06067943
MIS,72,1,2024-06-16T04:10:47.718Z,english_458.wav,0,pill,847,8,0.8,9.85446701,0.231332
MIS,72,1,2024-06-16T04:10:47.718Z,english_458.wav,0,pill,847,9,0.9,-64.97569882,1.40147857
MIS,72,1,2024-06-16T04:10:47.718Z,english_458.wav,0,pill,847,10,1.0,59.10726436,0.29468522
MIS,72,1,2024-06-16T04:10:47.718Z,english_458.wav,0,pill,847,11,1.09391667,60.50538111,0.47293516
MIS,73,1,2024-06-16T04:10:47.718Z,english_743.wav,0,pill,1839,0,0.0,97.77122609,0.40936323
MIS,73,1,2024-06-16T04:10:47.718Z,english_743.wav,0,pill,1839,1,0.1,75.39760322,0.83333714
MIS,73,1,2024-06-16T04:10:47.718Z,english_743.wav,0,pill,1839,2,0.2,-92.56300928,1.9299588
MIS,73,1,2024-06-16T04:10:47.718Z,english_743.wav,0,pill,1839,3,0.3,73.60734954,0.31044819
MIS,73,1,2024-06-16T04:10:47.718Z,english_743.wav,0,pill,1839,4,0.4,84.82420222,1.11112706
MIS,73,1,2024-06-16T04:10:47.718Z,english_743.wav,0,pill,1839,5,0.5,-57.35733587,0.30641345
MIS,73,1,2024-06-16T04:10:47.718Z,english_743.wav,0,pill,1839,6,0.6,36.05799571,1.79191215
MIS,73,1,2024-06-16T04:10:47.718Z,english_743.wav,0,pill,1839,7,0.7,-80.10781894,1.43353199
MIS,73,1,2024-06-16T04:10:47.718Z,english_743.wav,0,pill,1839,8,0.8,79.81818761,0.61341243
MIS,73,1,2024-06-16T04:10:47.718Z,english_743.wav,0,pill,1839,9,0.9,71.53815245,1.6920607
MIS,73,1,2024-06-16T04:10:47.718Z,english_743.wav,0,pill,1839,10,1.0,39.3075371,0.85862509
MIS,73,1,2024-06-16T04:10:47.718Z,english_743.wav,0,pill,1839,11,1.09391667,85.61049635,0.78833379
MIS,74,1,2024-06-16T04:10:47.718Z,english_474.wav,0,pill,1497,0,0.0,90.33187361,1.64439586
MIS,74,1,2024-06-16T04:10:47.718Z,english_474.wav,0,pill,1497,1,0.1,-6.84069755,1.97409516
MIS,74,1,2024-06-16T04:10:47.718Z,english_474.wav,0,pill,1497,2,0.2,-57.72482016,1.83394357
MIS,74,1,2024-06-16T04:10:47.718Z,english_474.wav,0,pill,1497,3,0.3,-31.39067157,1.91918891
MIS,74,1,2024-06-16T04:10:47.718Z,english_474.wav,0,pill,1497,4,0.4,81.36101502,1.89552465
MIS,74,1,2024-06-16T04:10:47.718Z,english_474.wav,0,pill,1497,5,0.5,86.28648359,1.60591709
MIS,74,1,2024-06-16T04:10:47.718Z,english_474.wav,0,pill,1497,6,0.6,59.24078698,1.87570248
MIS,74,1,2024-06-16T04:10:47.718Z,english_474.wav,0,pill,1497,7,0.7,83.65694144,0.05909507
MIS,74,1,2024-06-16T04:10:47.718Z,english_474.wav,0,pill,1497,8,0.8,-5.88526163,0.13266254
MIS,74,1,2024-06-16T04:10:47.718Z,english_474.wav,0,pill,1497,9,0.9,-0.83528638,1.2446593
MIS,74,1,2024-06-16T04:10:47.718Z,english_474.wav,0,pill,1497,10,1.0,93.70431835,0.47044402
MIS,74,1,2024-06-16T04:10:47.718Z,english_474.wav,0,pill,1497,11,1.09391667,-9.99550439,1.70719202
MIS,75,1,2024-06-16T04:10:47.718Z,english_764.wav,0,pill,826,0,0.0,-83.00734362,1.43154352
MIS,75,1,2024-06-16T04:10:47.718Z,english_764.wav,0,pill,826,1,0.1,84.10171544,1.56325347
MIS,75,1,2024-06-16T04:10:47.718Z,english_764.wav,0,pill,826,2,0.2,49.2008901,1.26543708
MIS,75,1,2024-06-16T04:10:47.718Z,english_764.wav,0,pill,826,3,0.3,-10.6841825,0.423798415
MIS,75,1,2024-06-16T04:10:47.718Z,english_764.wav,0,pill,826,4,0.4,-4.51825693,1.27376863
MIS,75,1,2024-06-16T04:10:47.718Z,english_764.wav,0,pill,826,5,0.5,13.05855171,0.758380694
MIS,75,1,2024-06-16T04:10:47.718Z,english_764.wav,0,pill,826,6,0.6,-89.35484482,0.001003512
MIS,75,1,2024-06-16T04:10:47.718Z,english_764.wav,0,pill,826,7,0.7,31.98534685,0.899071383
MIS,75,1,2024-06-16T04:10:47.718Z,english_764.wav,0,pill,826,8,0.8,-75.69390241,1.10287579
MIS,75,1,2024-06-16T04:10:47.718Z,english_764.wav,0,pill,826,9,0.9,27.20832849,1.25133293
MIS,75,1,2024-06-16T04:10:47.718Z,english_764.wav,0,pill,826,10,1.0,56.31930051,1.83305733
MIS,75,1,2024-06-16T04:10:47.718Z,english_764.wav,0,pill,826,11,1.09391667,-35.91935055,1.51505239
MIS,76,1,2024-06-16T04:10:47.718Z,english_789.wav,0,pill,2249,0,0.0,50.62849976,1.65376855
MIS,76,1,2024-06-16T04:10:47.718Z,english_789.wav,0,pill,2249,1,0.1,46.39641285,0.25516595
MIS,76,1,2024-06-16T04:10:47.718Z,english_789.wav,0,pill,2249,2,0.2,-17.70636983,1.77379995
MIS,76,1,2024-06-16T04:10:47.718Z,english_789.wav,0,pill,2249,3,0.3,-70.54012265,1.01588482
MIS,76,1,2024-06-16T04:10:47.718Z,english_789.wav,0,pill,2249,4,0.4,-41.61831808,0.40942594
MIS,76,1,2024-06-16T04:10:47.718Z,english_789.wav,0,pill,2249,5,0.5,6.76921547,0.77453827
MIS,76,1,2024-06-16T04:10:47.718Z,english_789.wav,0,pill,2249,6,0.6,-23.06076299,0.48985142
MIS,76,1,2024-06-16T04:10:47.718Z,english_789.wav,0,pill,2249,7,0.7,12.0616888,0.23736517
MIS,76,1,2024-06-16T04:10:47.718Z,english_789.wav,0,pill,2249,8,0.8,-0.46236059,1.96173919
MIS,76,1,2024-06-16T04:10:47.718Z,english_789.wav,0,pill,2249,9,0.9,1.32265195,1.17779465
MIS,76,1,2024-06-16T04:10:47.718Z,english_789.wav,0,pill,2249,10,1.0,-42.41851316,1.11577027
MIS,76,1,2024-06-16T04:10:47.718Z,english_789.wav,0,pill,2249,11,1.09391667,16.23009632,0.26104585
MIS,77,1,2024-06-16T04:10:47.718Z,english_487.wav,0,pill,2905,0,0.0,83.9506825,1.20569128
MIS,77,1,2024-06-16T04:10:47.718Z,english_487.wav,0,pill,2905,1,0.1,-73.0195282,0.75422979
MIS,77,1,2024-06-16T04:10:47.718Z,english_487.wav,0,pill,2905,2,0.2,98.61971221,0.70340278
MIS,77,1,2024-06-16T04:10:47.718Z,english_487.wav,0,pill,2905,3,0.3,66.30731889,1.25861502
MIS,77,1,2024-06-16T04:10:47.718Z,english_487.wav,0,pill,2905,4,0.4,22.93795287,1.76994668
MIS,77,1,2024-06-16T04:10:47.718Z,english_487.wav,0,pill,2905,5,0.5,-81.70494499,1.09959608
MIS,77,1,2024-06-16T04:10:47.718Z,english_487.wav,0,pill,2905,6,0.6,-70.3149209,1.93360086
MIS,77,1,2024-06-16T04:10:47.718Z,english_487.wav,0,pill,2905,7,0.7,-54.70127166,0.32077076
MIS,77,1,2024-06-16T04:10:47.718Z,english_487.wav,0,pill,2905,8,0.8,-60.23299302,0.62494976
MIS,77,1,2024-06-16T04:10:47.718Z,english_487.wav,0,pill,2905,9,0.9,90.25511794,1.062642
MIS,77,1,2024-06-16T04:10:47.718Z,english_487.wav,0,pill,2905,10,1.0,63.36569824,1.45529395
MIS,77,1,2024-06-16T04:10:47.718Z,english_487.wav,0,pill,2905,11,1.09391667,47.37946456,1.97435305
MIS,78,1,2024-06-16T04:10:47.718Z,english_337.wav,0,peel,4806,0,0.0,63.30955307,1.05146316
MIS,78,1,2024-06-16T04:10:47.718Z,english_337.wav,0,peel,4806,1,0.1,-16.2405627,1.82422784
MIS,78,1,2024-06-16T04:10:47.718Z,english_337.wav,0,peel,4806,2,0.2,-94.40154866,0.58494816
MIS,78,1,2024-06-16T04:10:47.718Z,english_337.wav,0,peel,4806,3,0.3,75.21778114,1.0983984
MIS,78,1,2024-06-16T04:10:47.718Z,english_337.wav,0,peel,4806,4,0.4,25.54945434,0.15013246
MIS,78,1,2024-06-16T04:10:47.718Z,english_337.wav,0,peel,4806,5,0.5,-24.8991059,0.80312612
MIS,78,1,2024-06-16T04:10:47.718Z,english_337.wav,0,peel,4806,6,0.6,41.94064473,0.26635056
MIS,78,1,2024-06-16T04:10:47.718Z,english_337.wav,0,peel,4806,7,0.7,-52.88941207,1.56094221
MIS,78,1,2024-06-16T04:10:47.718Z,english_337.wav,0,peel,4806,8,0.8,34.33759816,1.1585981
MIS,78,1,2024-06-16T04:10:47.718Z,english_337.wav,0,peel,4806,9,0.9,11.89714474,1.8876465
MIS,78,1,2024-06-16T04:10:47.718Z,english_337.wav,0,peel,4806,10,1.0,-68.13632942,1.89794163
MIS,78,1,2024-06-16T04:10:47.718Z,english_337.wav,0,peel,4806,11,1.09391667,47.32266625,0.59037239
MIS,79,1,2024-06-16T04:10:47.718Z,english_357.wav,0,peel,1372,0,0.0,-87.96365185,1.52852124
MIS,79,1,2024-06-16T04:10:47.718Z,english_357.wav,0,peel,1372,1,0.1,-8.5190019,1.93288072
MIS,79,1,2024-06-16T04:10:47.718Z,english_357.wav,0,peel,1372,2,0.2,34.94660595,1.80201728
MIS,79,1,2024-06-16T04:10:47.718Z,english_357.wav,0,peel,1372,3,0.3,74.01534503,0.94192251
MIS,79,1,2024-06-16T04:10:47.718Z,english_357.wav,0,peel,1372,4,0.4,13.59562063,1.02469598
MIS,79,1,2024-06-16T04:10:47.718Z,english_357.wav,0,peel,1372,5,0.5,-84.64423503,1.61646509
MIS,79,1,2024-06-16T04:10:47.718Z,english_357.wav,0,peel,1372,6,0.6,-29.1291793,0.27950667
MIS,79,1,2024-06-16T04:10:47.718Z,english_357.wav,0,peel,1372,7,0.7,-52.42503967,1.30320323
MIS,79,1,2024-06-16T04:10:47.718Z,english_357.wav,0,peel,1372,8,0.8,21.24796122,1.07824702
MIS,79,1,2024-06-16T04:10:47.718Z,english_357.wav,0,peel,1372,9,0.9,32.72205185,0.68433039
MIS,79,1,2024-06-16T04:10:47.718Z,english_357.wav,0,peel,1372,10,1.0,-96.5222269,1.27621022
MIS,79,1,2024-06-16T04:10:47.718Z,english_357.wav,0,peel,1372,11,1.09391667,30.40810686,1.23591368
MIS,80,1,2024-06-16T04:10:47.718Z,english_819.wav,0,pill,972,0,0.0,6.72623194,0.10273963
MIS,80,1,2024-06-16T04:10:47.718Z,english_819.wav,0,pill,972,1,0.1,-24.07867569,0.80237212
MIS,80,1,2024-06-16T04:10:47.718Z,english_819.wav,0,pill,972,2,0.2,-75.26306383,1.8012582
MIS,80,1,2024-06-16T04:10:47.718Z,english_819.wav,0,pill,972,3,0.3,85.43148154,0.87923376
MIS,80,1,2024-06-16T04:10:47.718Z,english_819.wav,0,pill,972,4,0.4,-22.40483415,1.38500076
MIS,80,1,2024-06-16T04:10:47.718Z,english_819.wav,0,pill,972,5,0.5,1.97440144,1.100674
MIS,80,1,2024-06-16T04:10:47.718Z,english_819.wav,0,pill,972,6,0.6,75.70782388,0.97376952
MIS,80,1,2024-06-16T04:10:47.718Z,english_819.wav,0,pill,972,7,0.7,95.57794207,0.98089121
MIS,80,1,2024-06-16T04:10:47.718Z,english_819.wav,0,pill,972,8,0.8,65.41207774,0.54459863
MIS,80,1,2024-06-16T04:10:47.718Z,english_819.wav,0,pill,972,9,0.9,20.80814343,0.87801334
MIS,80,1,2024-06-16T04:10:47.718Z,english_819.wav,0,pill,972,10,1.0,82.13081789,1.51334628
MIS,80,1,2024-06-16T04:10:47.718Z,english_819.wav,0,pill,972,11,1.09391667,8.11322976,1.26475282
MIS,81,1,2024-06-16T04:10:47.718Z,english_274.wav,0,pill,1009,0,0.0,90.15852298,1.09879686
MIS,81,1,2024-06-16T04:10:47.718Z,english_274.wav,0,pill,1009,1,0.1,54.46178194,1.93033732
MIS,81,1,2024-06-16T04:10:47.718Z,english_274.wav,0,pill,1009,2,0.2,92.29787974,1.35119606
MIS,81,1,2024-06-16T04:10:47.718Z,english_274.wav,0,pill,1009,3,0.3,56.79856413,1.49147937
MIS,81,1,2024-06-16T04:10:47.718Z,english_274.wav,0,pill,1009,4,0.4,6.80655331,1.75081802
MIS,81,1,2024-06-16T04:10:47.718Z,english_274.wav,0,pill,1009,5,0.5,85.98039627,0.26277184
MIS,81,1,2024-06-16T04:10:47.718Z,english_274.wav,0,pill,1009,6,0.6,79.54748497,1.06227003
MIS,81,1,2024-06-16T04:10:47.718Z,english_274.wav,0,pill,1009,7,0.7,-50.26158779,0.06438964
MIS,81,1,2024-06-16T04:10:47.718Z,english_274.wav,0,pill,1009,8,0.8,46.33910856,0.88741243
MIS,81,1,2024-06-16T04:10:47.718Z,english_274.wav,0,pill,1009,9,0.9,-52.2237302,0.12141514
MIS,81,1,2024-06-16T04:10:47.718Z,english_274.wav,0,pill,1009,10,1.0,14.53688649,1.07853955
MIS,81,1,2024-06-16T04:10:47.718Z,english_274.wav,0,pill,1009,11,1.09391667,26.74527789,0.24561082
MIS,82,1,2024-06-16T04:10:47.718Z,english_206.wav,0,pill,1219,0,0.0,-99.12855739,1.20636597
MIS,82,1,2024-06-16T04:10:47.718Z,english_206.wav,0,pill,1219,1,0.1,-89.51576504,0.87803278
MIS,82,1,2024-06-16T04:10:47.718Z,english_206.wav,0,pill,1219,2,0.2,-90.40464902,1.07282405
MIS,82,1,2024-06-16T04:10:47.718Z,english_206.wav,0,pill,1219,3,0.3,-70.32755561,1.36131617
MIS,82,1,2024-06-16T04:10:47.718Z,english_206.wav,0,pill,1219,4,0.4,78.03699917,0.62923097
MIS,82,1,2024-06-16T04:10:47.718Z,english_206.wav,0,pill,1219,5,0.5,8.07565508,1.02359746
MIS,82,1,2024-06-16T04:10:47.718Z,english_206.wav,0,pill,1219,6,0.6,38.18456427,0.86752629
MIS,82,1,2024-06-16T04:10:47.718Z,english_206.wav,0,pill,1219,7,0.7,-75.53493724,1.35404338
MIS,82,1,2024-06-16T04:10:47.718Z,english_206.wav,0,pill,1219,8,0.8,54.10683872,1.4732865
MIS,82,1,2024-06-16T04:10:47.718Z,english_206.wav,0,pill,1219,9,0.9,-40.64897969,0.47250575
MIS,82,1,2024-06-16T04:10:47.718Z,english_206.wav,0,pill,1219,10,1.0,-1.29434589,1.31829488
MIS,82,1,2024-06-16T04:10:47.718Z,english_206.wav,0,pill,1219,11,1.09391667,55.83604692,0.97831941
MIS,83,1,2024-06-16T04:10:47.718Z,english_154.wav,0,peel,672,0,0.0,50.07590523,1.91490825
MIS,83,1,2024-06-16T04:10:47.718Z,english_154.wav,0,peel,672,1,0.1,54.36539589,1.49511577
MIS,83,1,2024-06-16T04:10:47.718Z,english_154.wav,0,peel,672,2,0.2,-33.00647988,0.88521845
MIS,83,1,2024-06-16T04:10:47.718Z,english_154.wav,0,peel,672,3,0.3,-21.71222975,1.92896632
MIS,83,1,2024-06-16T04:10:47.718Z,english_154.wav,0,peel,672,4,0.4,-59.72627018,1.65018162
MIS,83,1,2024-06-16T04:10:47.718Z,english_154.wav,0,peel,672,5,0.5,-65.27928089,0.16844772
MIS,83,1,2024-06-16T04:10:47.718Z,english_154.wav,0,peel,672,6,0.6,25.37742378,1.26574184
MIS,83,1,2024-06-16T04:10:47.718Z,english_154.wav,0,peel,672,7,0.7,7.20174616,1.59894503
MIS,83,1,2024-06-16T04:10:47.718Z,english_154.wav,0,peel,672,8,0.8,-20.24283456,1.83170987
MIS,83,1,2024-06-16T04:10:47.718Z,english_154.wav,0,peel,672,9,0.9,-23.90559996,1.31030459
MIS,83,1,2024-06-16T04:10:47.718Z,english_154.wav,0,peel,672,10,1.0,71.61106984,0.51427228
MIS,83,1,2024-06-16T04:10:47.718Z,english_154.wav,0,peel,672,11,1.09391667,25.6022542,1.19971073
MIS,84,1,2024-06-16T04:10:47.718Z,english_660.wav,0,pill,1394,0,0.0,-6.98483794,0.74998418
MIS,84,1,2024-06-16T04:10:47.718Z,english_660.wav,0,pill,1394,1,0.1,-19.91361353,1.44180771
MIS,84,1,2024-06-16T04:10:47.718Z,english_660.wav,0,pill,1394,2,0.2,78.11411012,1.86148363
MIS,84,1,2024-06-16T04:10:47.718Z,english_660.wav,0,pill,1394,3,0.3,31.9686312,0.29878934
MIS,84,1,2024-06-16T04:10:47.718Z,english_660.wav,0,pill,1394,4,0.4,59.3000475,0.70934132
MIS,84,1,2024-06-16T04:10:47.718Z,english_660.wav,0,pill,1394,5,0.5,-70.43888588,1.90119169
MIS,84,1,2024-06-16T04:10:47.718Z,english_660.wav,0,pill,1394,6,0.6,-20.07366552,0.76680768
MIS,84,1,2024-06-16T04:10:47.718Z,english_660.wav,0,pill,1394,7,0.7,-55.63699673,0.42211173
MIS,84,1,2024-06-16T04:10:47.718Z,english_660.wav,0,pill,1394,8,0.8,-98.18697012,0.44483448
MIS,84,1,2024-06-16T04:10:47.718Z,english_660.wav,0,pill,1394,9,0.9,13.89215317,1.66618929
MIS,84,1,2024-06-16T04:10:47.718Z,english_660.wav,0,pill,1394,10,1.0,-7.40212614,0.443528
MIS,84,1,2024-06-16T04:10:47.718Z,english_660.wav,0,pill,1394,11,1.09391667,28.56237553,1.27514236
MIS,85,1,2024-06-16T04:10:47.718Z,english_783.wav,0,pill,517,0,0.0,-86.56228458,1.19165513
MIS,85,1,2024-06-16T04:10:47.718Z,english_783.wav,0,pill,517,1,0.1,33.36869343,0.83777852
MIS,85,1,2024-06-16T04:10:47.718Z,english_783.wav,0,pill,517,2,0.2,9.6331017,0.11846308
MIS,85,1,2024-06-16T04:10:47.718Z,english_783.wav,0,pill,517,3,0.3,-0.10370099,1.66137382
MIS,85,1,2024-06-16T04:10:47.718Z,english_783.wav,0,pill,517,4,0.4,37.9043983,0.58882923
MIS,85,1,2024-06-16T04:10:47.718Z,english_783.wav,0,pill,517,5,0.5,3.6685029,0.46184707
MIS,85,1,2024-06-16T04:10:47.718Z,english_783.wav,0,pill,517,6,0.6,70.42333637,1.82009688
MIS,85,1,2024-06-16T04:10:47.718Z,english_783.wav,0,pill,517,7,0.7,-15.16907184,1.46902062
MIS,85,1,2024-06-16T04:10:47.718Z,english_783.wav,0,pill,517,8,0.8,55.24698517,1.68658026
MIS,85,1,2024-06-16T04:10:47.718Z,english_783.wav,0,pill,517,9,0.9,2.94553427,1.05395717
MIS,85,1,2024-06-16T04:10:47.718Z,english_783.wav,0,pill,517,10,1.0,-22.42195587,1.93905679
MIS,85,1,2024-06-16T04:10:47.718Z,english_783.wav,0,pill,517,11,1.09391667,45.66016172,0.09684568
MIS,86,1,2024-06-16T04:10:47.718Z,english_935.wav,0,pill,230,0,0.0,-66.017305,0.5568005
MIS,86,1,2024-06-16T04:10:47.718Z,english_935.wav,0,pill,230,1,0.1,-96.46975552,0.64067821
MIS,86,1,2024-06-16T04:10:47.718Z,english_935.wav,0,pill,230,2,0.2,41.01490818,1.2239279
MIS,86,1,2024-06-16T04:10:47.718Z,english_935.wav,0,pill,230,3,0.3,-8.07360152,1.1472743
MIS,86,1,2024-06-16T04:10:47.718Z,english_935.wav,0,pill,230,4,0.4,43.89693233,0.40023778
MIS,86,1,2024-06-16T04:10:47.718Z,english_935.wav,0,pill,230,5,0.5,-91.80623652,1.34831364
MIS,86,1,2024-06-16T04:10:47.718Z,english_935.wav,0,pill,230,6,0.6,20.19515947,1.39566251
MIS,86,1,2024-06-16T04:10:47.718Z,english_935.wav,0,pill,230,7,0.7,-99.45471076,0.66795844
MIS,86,1,2024-06-16T04:10:47.718Z,english_935.wav,0,pill,230,8,0.8,15.46433912,1.24993732
MIS,86,1,2024-06-16T04:10:47.718Z,english_935.wav,0,pill,230,9,0.9,29.18172842,0.82560858
MIS,86,1,2024-06-16T04:10:47.718Z,english_935.wav,0,pill,230,10,1.0,64.82314597,1.15031979
MIS,86,1,2024-06-16T04:10:47.718Z,english_935.wav,0,pill,230,11,1.09391667,43.21629408,1.54604581
MIS,87,1,2024-06-16T04:10:47.718Z,english_5.wav,0,pill,775,0,0.0,-71.05887053,0.69305634
MIS,87,1,2024-06-16T04:10:47.718Z,english_5.wav,0,pill,775,1,0.1,-36.04846502,1.95331705
MIS,87,1,2024-06-16T04:10:47.718Z,english_5.wav,0,pill,775,2,0.2,68.09307416,0.24939242
MIS,87,1,2024-06-16T04:10:47.718Z,english_5.wav,0,pill,775,3,0.3,-71.61609357,1.30786136
MIS,87,1,2024-06-16T04:10:47.718Z,english_5.wav,0,pill,775,4,0.4,-14.92970524,0.35721873
MIS,87,1,2024-06-16T04:10:47.718Z,english_5.wav,0,pill,775,5,0.5,36.04461977,1.66367269
MIS,87,1,2024-06-16T04:10:47.718Z,english_5.wav,0,pill,775,6,0.6,61.01603353,1.49043319
MIS,87,1,2024-06-16T04:10:47.718Z,english_5.wav,0,pill,775,7,0.7,22.04787058,1.08702194
MIS,87,1,2024-06-16T04:10:47.718Z,english_5.wav,0,pill,775,8,0.8,-76.70141108,0.32363826
MIS,87,1,2024-06-16T04:10:47.718Z,english_5.wav,0,pill,775,9,0.9,72.36411847,0.22271442
MIS,87,1,2024-06-16T04:10:47.718Z,english_5.wav,0,pill,775,10,1.0,-2.42248121,1.0907403
MIS,87,1,2024-06-16T04:10:47.718Z,english_5.wav,0,pill,775,11,1.09391667,-45.78406478,0.00462457
MIS,88,1,2024-06-16T04:10:47.718Z,english_153.wav,0,peel,1100,0,0.0,-22.0137653,0.27160884
MIS,88,1,2024-06-16T04:10:47.718Z,english_153.wav,0,peel,1100,1,0.1,21.87420495,0.44150389
MIS,88,1,2024-06-16T04:10:47.718Z,english_153.wav,0,peel,1100,2,0.2,78.88032694,1.08191418
MIS,88,1,2024-06-16T04:10:47.718Z,english_153.wav,0,peel,1100,3,0.3,68.02596654,0.18142841
MIS,88,1,2024-06-16T04:10:47.718Z,english_153.wav,0,peel,1100,4,0.4,52.06150723,0.17455202
MIS,88,1,2024-06-16T04:10:47.718Z,english_153.wav,0,peel,1100,5,0.5,-15.64198183,1.88425449
MIS,88,1,2024-06-16T04:10:47.718Z,english_153.wav,0,peel,1100,6,0.6,-55.92218577,1.64687285
MIS,88,1,2024-06-16T04:10:47.718Z,english_153.wav,0,peel,1100,7,0.7,45.74926524,1.52678411
MIS,88,1,2024-06-16T04:10:47.718Z,english_153.wav,0,peel,1100,8,0.8,13.43145428,1.81629534
MIS,88,1,2024-06-16T04:10:47.718Z,english_153.wav,0,peel,1100,9,0.9,-40.59369693,0.8186826
MIS,88,1,2024-06-16T04:10:47.718Z,english_153.wav,0,peel,1100,10,1.0,14.2660924,0.36511419
MIS,88,1,2024-06-16T04:10:47.718Z,english_153.wav,0,peel,1100,11,1.09391667,62.05558257,1.38161287
MIS,89,1,2024-06-16T04:10:47.718Z,english_898.wav,0,pill,531,0,0.0,-34.72631164,0.55709283
MIS,89,1,2024-06-16T04:10:47.718Z,english_898.wav,0,pill,531,1,0.1,67.7212699,1.5055727
MIS,89,1,2024-06-16T04:10:47.718Z,english_898.wav,0,pill,531,2,0.2,92.06316774,1.25694743
MIS,89,1,2024-06-16T04:10:47.718Z,english_898.wav,0,pill,531,3,0.3,-76.73151606,1.78673408
MIS,89,1,2024-06-16T04:10:47.718Z,english_898.wav,0,pill,531,4,0.4,97.93920214,0.88325681
MIS,89,1,2024-06-16T04:10:47.718Z,english_898.wav,0,pill,531,5,0.5,99.11447245,1.91785586
MIS,89,1,2024-06-16T04:10:47.718Z,english_898.wav,0,pill,531,6,0.6,83.05225532,1.93702091
MIS,89,1,2024-06-16T04:10:47.718Z,english_898.wav,0,pill,531,7,0.7,-27.3520563,1.06642546
MIS,89,1,2024-06-16T04:10:47.718Z,english_898.wav,0,pill,531,8,0.8,40.20374668,1.06201677
MIS,89,1,2024-06-16T04:10:47.718Z,english_898.wav,0,pill,531,9,0.9,-11.73877097,0.68712783
MIS,89,1,2024-06-16T04:10:47.718Z,english_898.wav,0,pill,531,10,1.0,-73.8798446,0.31583941
MIS,89,1,2024-06-16T04:10:47.718Z,english_898.wav,0,pill,531,11,1.09391667,81.33954877,1.03949418
MIS,90,1,2024-06-16T04:10:47.718Z,english_77.wav,0,pill,1310,0,0.0,14.85901356,0.93801636
MIS,90,1,2024-06-16T04:10:47.718Z,english_77.wav,0,pill,1310,1,0.1,-14.38598058,1.78480039
MIS,90,1,2024-06-16T04:10:47.718Z,english_77.wav,0,pill,1310,2,0.2,-43.69728494,1.59819809
MIS,90,1,2024-06-16T04:10:47.718Z,english_77.wav,0,pill,1310,3,0.3,-19.24854373,0.89560743
MIS,90,1,2024-06-16T04:10:47.718Z,english_77.wav,0,pill,1310,4,0.4,4.73942442,0.68128783
MIS,90,1,2024-06-16T04:10:47.718Z,english_77.wav,0,pill,1310,5,0.5,6.08734895,1.19225119
MIS,90,1,2024-06-16T04:10:47.718Z,english_77.wav,0,pill,1310,6,0.6,2.07981921,1.49267812
MIS,90,1,2024-06-16T04:10:47.718Z,english_77.wav,0,pill,1310,7,0.7,-3.22152689,1.83354621
MIS,90,1,2024-06-16T04:10:47.718Z,english_77.wav,0,pill,1310,8,0.8,-81.97912938,0.65715704
MIS,90,1,2024-06-16T04:10:47.718Z,english_77.wav,0,pill,1310,9,0.9,9.14807536,1.29592629
MIS,90,1,2024-06-16T04:10:47.718Z,english_77.wav,0,pill,1310,10,1.0,-30.52937586,1.03409297
MIS,90,1,2024-06-16T04:10:47.718Z,english_77.wav,0,pill,1310,11,1.09391667,17.14336326,1.45456337
MIS,91,1,2024-06-16T04:10:47.718Z,english_59.wav,0,pill,1273,0,0.0,13.6818357,1.39102809
