subj,trial,block,date,stim,stim_order,response,rt,age,english,language,sex,param_index,segment,pitch,stretch
MOT,0,0,2024-06-24T03:17:07.225Z,english_556.wav,0,peel,1174,25,4,Japanese,m,0,0.0,-68.09670747,1.3485974
MOT,0,0,2024-06-24T03:17:07.225Z,english_556.wav,0,peel,1174,25,4,Japanese,m,1,0.1,8.96692918,0.84698507
MOT,0,0,2024-06-24T03:17:07.225Z,english_556.wav,0,peel,1174,25,4,Japanese,m,2,0.2,-46.83531772,0.06218337
MOT,0,0,2024-06-24T03:17:07.225Z,english_556.wav,0,peel,1174,25,4,Japanese,m,3,0.3,-87.32202155,0.66181265
MOT,0,0,2024-06-24T03:17:07.225Z,english_556.wav,0,peel,1174,25,4,Japanese,m,4,0.4,49.65406328,1.9600464
MOT,0,0,2024-06-24T03:17:07.225Z,english_556.wav,0,peel,1174,25,4,Japanese,m,5,0.5,92.65716025,0.67849191
MOT,0,0,2024-06-24T03:17:07.225Z,english_556.wav,0,peel,1174,25,4,Japanese,m,6,0.6,-17.76161657,0.9118753
MOT,0,0,2024-06-24T03:17:07.225Z,english_556.wav,0,peel,1174,25,4,Japanese,m,7,0.7,-85.77085821,0.73811047
MOT,0,0,2024-06-24T03:17:07.225Z,english_556.wav,0,peel,1174,25,4,Japanese,m,8,0.8,-31.44799715,0.91861979
MOT,0,0,2024-06-24T03:17:07.225Z,english_556.wav,0,peel,1174,25,4,Japanese,m,9,0.9,-32.59755967,1.18816365
MOT,0,0,2024-06-24T03:17:07.225Z,english_556.wav,0,peel,1174,25,4,Japanese,m,10,1.0,-96.2091504,1.86623217
MOT,0,0,2024-06-24T03:17:07.225Z,english_556.wav,0,peel,1174,25,4,Japanese,m,11,1.09391667,-0.57982779,0.61760757
MOT,1,0,2024-06-24T03:17:07.225Z,english_514.wav,0,pill,2188,25,4,Japanese,m,0,0.0,-59.82766829,1.35471226
MOT,1,0,2024-06-24T03:17:07.225Z,english_514.wav,0,pill,2188,25,4,Japanese,m,1,0.1,-4.54284015,0.81191054
MOT,1,0,2024-06-24T03:17:07.225Z,english_514.wav,0,pill,2188,25,4,Japanese,m,2,0.2,75.12688257,1.30120799
MOT,1,0,2024-06-24T03:17:07.225Z,english_514.wav,0,pill,2188,25,4,Japanese,m,3,0.3,52.77263543,1.91982738
MOT,1,0,2024-06-24T03:17:07.225Z,english_514.wav,0,pill,2188,25,4,Japanese,m,4,0.4,-86.38859223,1.85775535
MOT,1,0,2024-06-24T03:17:07.225Z,english_514.wav,0,pill,2188,25,4,Japanese,m,5,0.5,22.0573972,0.92799532
MOT,1,0,2024-06-24T03:17:07.225Z,english_514.wav,0,pill,2188,25,4,Japanese,m,6,0.6,-81.94223644,0.39882237
MOT,1,0,2024-06-24T03:17:07.225Z,english_514.wav,0,pill,2188,25,4,Japanese,m,7,0.7,33.46090425,1.85696096
MOT,1,0,2024-06-24T03:17:07.225Z,english_514.wav,0,pill,2188,25,4,Japanese,m,8,0.8,10.59703074,0.26578536
MOT,1,0,2024-06-24T03:17:07.225Z,english_514.wav,0,pill,2188,25,4,Japanese,m,9,0.9,74.40481447,1.80594265
MOT,1,0,2024-06-24T03:17:07.225Z,english_514.wav,0,pill,2188,25,4,Japanese,m,10,1.0,35.18551728,0.66929464
MOT,1,0,2024-06-24T03:17:07.225Z,english_514.wav,0,pill,2188,25,4,Japanese,m,11,1.09391667,-52.88743611,1.62933111
MOT,2,0,2024-06-24T03:17:07.225Z,english_973.wav,0,pill,1993,25,4,Japanese,m,0,0.0,86.77777259,1.86280309
MOT,2,0,2024-06-24T03:17:07.225Z,english_973.wav,0,pill,1993,25,4,Japanese,m,1,0.1,88.68008012,0.36705596
MOT,2,0,2024-06-24T03:17:07.225Z,english_973.wav,0,pill,1993,25,4,Japanese,m,2,0.2,40.87598241,1.32338867
MOT,2,0,2024-06-24T03:17:07.225Z,english_973.wav,0,pill,1993,25,4,Japanese,m,3,0.3,-9.9272537,0.04586245
MOT,2,0,2024-06-24T03:17:07.225Z,english_973.wav,0,pill,1993,25,4,Japanese,m,4,0.4,-53.77098496,1.95113809
MOT,2,0,2024-06-24T03:17:07.225Z,english_973.wav,0,pill,1993,25,4,Japanese,m,5,0.5,-25.91846693,0.12780271
MOT,2,0,2024-06-24T03:17:07.225Z,english_973.wav,0,pill,1993,25,4,Japanese,m,6,0.6,53.05484082,1.4683855
MOT,2,0,2024-06-24T03:17:07.225Z,english_973.wav,0,pill,1993,25,4,Japanese,m,7,0.7,46.24971749,0.39810348
MOT,2,0,2024-06-24T03:17:07.225Z,english_973.wav,0,pill,1993,25,4,Japanese,m,8,0.8,50.02749475,0.0385797
MOT,2,0,2024-06-24T03:17:07.225Z,english_973.wav,0,pill,1993,25,4,Japanese,m,9,0.9,-19.53463888,0.83824927
MOT,2,0,2024-06-24T03:17:07.225Z,english_973.wav,0,pill,1993,25,4,Japanese,m,10,1.0,-43.93805989,1.6446619
MOT,2,0,2024-06-24T03:17:07.225Z,english_973.wav,0,pill,1993,25,4,Japanese,m,11,1.09391667,-81.85773857,0.66244145
MOT,3,0,2024-06-24T03:17:07.225Z,english_503.wav,0,pill,333,25,4,Japanese,m,0,0.0,82.81450313,0.83149822
MOT,3,0,2024-06-24T03:17:07.225Z,english_503.wav,0,pill,333,25,4,Japanese,m,1,0.1,87.05662754,1.91463783
MOT,3,0,2024-06-24T03:17:07.225Z,english_503.wav,0,pill,333,25,4,Japanese,m,2,0.2,42.99051807,0.15190796
MOT,3,0,2024-06-24T03:17:07.225Z,english_503.wav,0,pill,333,25,4,Japanese,m,3,0.3,23.32883613,1.60754129
MOT,3,0,2024-06-24T03:17:07.225Z,english_503.wav,0,pill,333,25,4,Japanese,m,4,0.4,48.50951883,0.81229928
MOT,3,0,2024-06-24T03:17:07.225Z,english_503.wav,0,pill,333,25,4,Japanese,m,5,0.5,-47.47339199,1.3748652
MOT,3,0,2024-06-24T03:17:07.225Z,english_503.wav,0,pill,333,25,4,Japanese,m,6,0.6,-9.99119765,1.71927888
MOT,3,0,2024-06-24T03:17:07.225Z,english_503.wav,0,pill,333,25,4,Japanese,m,7,0.7,68.86997334,0.8455295
MOT,3,0,2024-06-24T03:17:07.225Z,english_503.wav,0,pill,333,25,4,Japanese,m,8,0.8,-44.22385081,0.49975448
MOT,3,0,2024-06-24T03:17:07.225Z,english_503.wav,0,pill,333,25,4,Japanese,m,9,0.9,14.75546466,0.2402037
MOT,3,0,2024-06-24T03:17:07.225Z,english_503.wav,0,pill,333,25,4,Japanese,m,10,1.0,-47.31135976,1.02101903
MOT,3,0,2024-06-24T03:17:07.225Z,english_503.wav,0,pill,333,25,4,Japanese,m,11,1.09391667,-18.86254353,1.59376689
MOT,4,0,2024-06-24T03:17:07.225Z,english_305.wav,0,peel,1155,25,4,Japanese,m,0,0.0,17.49267602,0.00977258
MOT,4,0,2024-06-24T03:17:07.225Z,english_305.wav,0,peel,1155,25,4,Japanese,m,1,0.1,17.59035292,1.17585195
MOT,4,0,2024-06-24T03:17:07.225Z,english_305.wav,0,peel,1155,25,4,Japanese,m,2,0.2,83.12376417,1.66932103
MOT,4,0,2024-06-24T03:17:07.225Z,english_305.wav,0,peel,1155,25,4,Japanese,m,3,0.3,-81.59474703,0.83160233
MOT,4,0,2024-06-24T03:17:07.225Z,english_305.wav,0,peel,1155,25,4,Japanese,m,4,0.4,-99.63264863,1.05024367
MOT,4,0,2024-06-24T03:17:07.225Z,english_305.wav,0,peel,1155,25,4,Japanese,m,5,0.5,42.69289025,1.13369845
MOT,4,0,2024-06-24T03:17:07.225Z,english_305.wav,0,peel,1155,25,4,Japanese,m,6,0.6,82.55548118,0.21867151
MOT,4,0,2024-06-24T03:17:07.225Z,english_305.wav,0,peel,1155,25,4,Japanese,m,7,0.7,15.87479687,0.32447169
MOT,4,0,2024-06-24T03:17:07.225Z,english_305.wav,0,peel,1155,25,4,Japanese,m,8,0.8,-15.6323718,1.86350195
MOT,4,0,2024-06-24T03:17:07.225Z,english_305.wav,0,peel,1155,25,4,Japanese,m,9,0.9,98.18396958,0.82463705
MOT,4,0,2024-06-24T03:17:07.225Z,english_305.wav,0,peel,1155,25,4,Japanese,m,10,1.0,52.83112054,0.94709308
MOT,4,0,2024-06-24T03:17:07.225Z,english_305.wav,0,peel,1155,25,4,Japanese,m,11,1.09391667,33.63343534,0.36254065
MOT,5,0,2024-06-24T03:17:07.225Z,english_566.wav,0,peel,709,25,4,Japanese,m,0,0.0,-62.56630806,1.86832625
MOT,5,0,2024-06-24T03:17:07.225Z,english_566.wav,0,peel,709,25,4,Japanese,m,1,0.1,-47.88948562,0.16089863
MOT,5,0,2024-06-24T03:17:07.225Z,english_566.wav,0,peel,709,25,4,Japanese,m,2,0.2,32.64151801,0.0444821
MOT,5,0,2024-06-24T03:17:07.225Z,english_566.wav,0,peel,709,25,4,Japanese,m,3,0.3,-32.06511913,1.57257602
MOT,5,0,2024-06-24T03:17:07.225Z,english_566.wav,0,peel,709,25,4,Japanese,m,4,0.4,93.60270043,1.42885531
MOT,5,0,2024-06-24T03:17:07.225Z,english_566.wav,0,peel,709,25,4,Japanese,m,5,0.5,26.08771786,1.38538324
MOT,5,0,2024-06-24T03:17:07.225Z,english_566.wav,0,peel,709,25,4,Japanese,m,6,0.6,-3.7007295,1.01058653
MOT,5,0,2024-06-24T03:17:07.225Z,english_566.wav,0,peel,709,25,4,Japanese,m,7,0.7,58.86956752,0.52217054
MOT,5,0,2024-06-24T03:17:07.225Z,english_566.wav,0,peel,709,25,4,Japanese,m,8,0.8,-75.73304048,1.32659726
MOT,5,0,2024-06-24T03:17:07.225Z,english_566.wav,0,peel,709,25,4,Japanese,m,9,0.9,-35.43253665,0.88864926
MOT,5,0,2024-06-24T03:17:07.225Z,english_566.wav,0,peel,709,25,4,Japanese,m,10,1.0,-21.03744822,1.19784945
MOT,5,0,2024-06-24T03:17:07.225Z,english_566.wav,0,peel,709,25,4,Japanese,m,11,1.09391667,-19.58423429,0.92748285
MOT,6,0,2024-06-24T03:17:07.225Z,english_445.wav,0,pill,377,25,4,Japanese,m,0,0.0,76.42112213,1.57802926
MOT,6,0,2024-06-24T03:17:07.225Z,english_445.wav,0,pill,377,25,4,Japanese,m,1,0.1,-97.95203426,1.29835175
MOT,6,0,2024-06-24T03:17:07.225Z,english_445.wav,0,pill,377,25,4,Japanese,m,2,0.2,-59.82746333,0.53636504
MOT,6,0,2024-06-24T03:17:07.225Z,english_445.wav,0,pill,377,25,4,Japanese,m,3,0.3,-13.48573522,1.2021667
MOT,6,0,2024-06-24T03:17:07.225Z,english_445.wav,0,pill,377,25,4,Japanese,m,4,0.4,81.29973607,1.41426839
MOT,6,0,2024-06-24T03:17:07.225Z,english_445.wav,0,pill,377,25,4,Japanese,m,5,0.5,41.3671656,1.60295296
MOT,6,0,2024-06-24T03:17:07.225Z,english_445.wav,0,pill,377,25,4,Japanese,m,6,0.6,-85.98514438,0.58159358
MOT,6,0,2024-06-24T03:17:07.225Z,english_445.wav,0,pill,377,25,4,Japanese,m,7,0.7,57.90232239,0.76199649
MOT,6,0,2024-06-24T03:17:07.225Z,english_445.wav,0,pill,377,25,4,Japanese,m,8,0.8,-95.60547231,0.54097795
MOT,6,0,2024-06-24T03:17:07.225Z,english_445.wav,0,pill,377,25,4,Japanese,m,9,0.9,17.13362758,0.00538706
MOT,6,0,2024-06-24T03:17:07.225Z,english_445.wav,0,pill,377,25,4,Japanese,m,10,1.0,46.54539843,0.3060589
MOT,6,0,2024-06-24T03:17:07.225Z,english_445.wav,0,pill,377,25,4,Japanese,m,11,1.09391667,43.78720367,1.39576853
MOT,7,0,2024-06-24T03:17:07.225Z,english_491.wav,0,peel,341,25,4,Japanese,m,0,0.0,-86.04728356,0.47614904
MOT,7,0,2024-06-24T03:17:07.225Z,english_491.wav,0,peel,341,25,4,Japanese,m,1,0.1,-65.88451303,0.55089812
MOT,7,0,2024-06-24T03:17:07.225Z,english_491.wav,0,peel,341,25,4,Japanese,m,2,0.2,-80.48711576,1.1167033
MOT,7,0,2024-06-24T03:17:07.225Z,english_491.wav,0,peel,341,25,4,Japanese,m,3,0.3,-14.20773903,1.47203435
MOT,7,0,2024-06-24T03:17:07.225Z,english_491.wav,0,peel,341,25,4,Japanese,m,4,0.4,8.14780759,1.34464479
MOT,7,0,2024-06-24T03:17:07.225Z,english_491.wav,0,peel,341,25,4,Japanese,m,5,0.5,-64.09571567,1.15432427
MOT,7,0,2024-06-24T03:17:07.225Z,english_491.wav,0,peel,341,25,4,Japanese,m,6,0.6,54.51757577,1.10816548
MOT,7,0,2024-06-24T03:17:07.225Z,english_491.wav,0,peel,341,25,4,Japanese,m,7,0.7,44.38602798,0.53599429
MOT,7,0,2024-06-24T03:17:07.225Z,english_491.wav,0,peel,341,25,4,Japanese,m,8,0.8,-1.2376907,1.13980754
MOT,7,0,2024-06-24T03:17:07.225Z,english_491.wav,0,peel,341,25,4,Japanese,m,9,0.9,77.13121924,0.89300384
MOT,7,0,2024-06-24T03:17:07.225Z,english_491.wav,0,peel,341,25,4,Japanese,m,10,1.0,-14.590686,0.5502855
MOT,7,0,2024-06-24T03:17:07.225Z,english_491.wav,0,peel,341,25,4,Japanese,m,11,1.09391667,68.41813951,1.59909439
MOT,8,0,2024-06-24T03:17:07.225Z,english_661.wav,0,peel,444,25,4,Japanese,m,0,0.0,-96.27017097,0.06095717
MOT,8,0,2024-06-24T03:17:07.225Z,english_661.wav,0,peel,444,25,4,Japanese,m,1,0.1,-8.23164951,1.37830678
MOT,8,0,2024-06-24T03:17:07.225Z,english_661.wav,0,peel,444,25,4,Japanese,m,2,0.2,-17.16483844,0.60938429
MOT,8,0,2024-06-24T03:17:07.225Z,english_661.wav,0,peel,444,25,4,Japanese,m,3,0.3,51.38438878,1.50755712
MOT,8,0,2024-06-24T03:17:07.225Z,english_661.wav,0,peel,444,25,4,Japanese,m,4,0.4,-46.68819378,0.78233896
MOT,8,0,2024-06-24T03:17:07.225Z,english_661.wav,0,peel,444,25,4,Japanese,m,5,0.5,-48.36150329,1.0485375
MOT,8,0,2024-06-24T03:17:07.225Z,english_661.wav,0,peel,444,25,4,Japanese,m,6,0.6,39.11171658,1.09444979
MOT,8,0,2024-06-24T03:17:07.225Z,english_661.wav,0,peel,444,25,4,Japanese,m,7,0.7,61.02242978,0.69142926
MOT,8,0,2024-06-24T03:17:07.225Z,english_661.wav,0,peel,444,25,4,Japanese,m,8,0.8,-31.59479495,1.58337901
MOT,8,0,2024-06-24T03:17:07.225Z,english_661.wav,0,peel,444,25,4,Japanese,m,9,0.9,29.78054616,1.62604078
MOT,8,0,2024-06-24T03:17:07.225Z,english_661.wav,0,peel,444,25,4,Japanese,m,10,1.0,12.03263948,0.74172624
MOT,8,0,2024-06-24T03:17:07.225Z,english_661.wav,0,peel,444,25,4,Japanese,m,11,1.09391667,45.41432931,1.92603435
MOT,9,0,2024-06-24T03:17:07.225Z,english_308.wav,0,pill,316,25,4,Japanese,m,0,0.0,52.24903485,1.51474705
MOT,9,0,2024-06-24T03:17:07.225Z,english_308.wav,0,pill,316,25,4,Japanese,m,1,0.1,-23.64626196,0.52665811
MOT,9,0,2024-06-24T03:17:07.225Z,english_308.wav,0,pill,316,25,4,Japanese,m,2,0.2,-51.25656168,1.02671755
MOT,9,0,2024-06-24T03:17:07.225Z,english_308.wav,0,pill,316,25,4,Japanese,m,3,0.3,22.90973994,1.37852638
MOT,9,0,2024-06-24T03:17:07.225Z,english_308.wav,0,pill,316,25,4,Japanese,m,4,0.4,-77.18224056,1.59017097
MOT,9,0,2024-06-24T03:17:07.225Z,english_308.wav,0,pill,316,25,4,Japanese,m,5,0.5,-15.74058407,1.0350591
MOT,9,0,2024-06-24T03:17:07.225Z,english_308.wav,0,pill,316,25,4,Japanese,m,6,0.6,68.28336148,1.54938004
MOT,9,0,2024-06-24T03:17:07.225Z,english_308.wav,0,pill,316,25,4,Japanese,m,7,0.7,-68.00125418,1.20956018
MOT,9,0,2024-06-24T03:17:07.225Z,english_308.wav,0,pill,316,25,4,Japanese,m,8,0.8,-28.10684377,0.88397822
MOT,9,0,2024-06-24T03:17:07.225Z,english_308.wav,0,pill,316,25,4,Japanese,m,9,0.9,-21.57286012,0.33660763
MOT,9,0,2024-06-24T03:17:07.225Z,english_308.wav,0,pill,316,25,4,Japanese,m,10,1.0,-67.0126828,1.47798938
MOT,9,0,2024-06-24T03:17:07.225Z,english_308.wav,0,pill,316,25,4,Japanese,m,11,1.09391667,18.53594423,0.24191373
MOT,10,0,2024-06-24T03:17:07.225Z,english_316.wav,0,peel,766,25,4,Japanese,m,0,0.0,4.92084963,1.82046547
MOT,10,0,2024-06-24T03:17:07.225Z,english_316.wav,0,peel,766,25,4,Japanese,m,1,0.1,-92.73041115,1.60846764
MOT,10,0,2024-06-24T03:17:07.225Z,english_316.wav,0,peel,766,25,4,Japanese,m,2,0.2,-78.94275278,0.68214028
MOT,10,0,2024-06-24T03:17:07.225Z,english_316.wav,0,peel,766,25,4,Japanese,m,3,0.3,36.46358143,0.59431671
MOT,10,0,2024-06-24T03:17:07.225Z,english_316.wav,0,peel,766,25,4,Japanese,m,4,0.4,42.64715022,1.09166662
MOT,10,0,2024-06-24T03:17:07.225Z,english_316.wav,0,peel,766,25,4,Japanese,m,5,0.5,-54.71554497,0.66753255
MOT,10,0,2024-06-24T03:17:07.225Z,english_316.wav,0,peel,766,25,4,Japanese,m,6,0.6,24.90057363,1.53988743
MOT,10,0,2024-06-24T03:17:07.225Z,english_316.wav,0,peel,766,25,4,Japanese,m,7,0.7,42.42034457,1.41871396
MOT,10,0,2024-06-24T03:17:07.225Z,english_316.wav,0,peel,766,25,4,Japanese,m,8,0.8,-11.4569409,0.9466195
MOT,10,0,2024-06-24T03:17:07.225Z,english_316.wav,0,peel,766,25,4,Japanese,m,9,0.9,38.39502629,0.93569824
MOT,10,0,2024-06-24T03:17:07.225Z,english_316.wav,0,peel,766,25,4,Japanese,m,10,1.0,-82.69974188,0.72107622
MOT,10,0,2024-06-24T03:17:07.225Z,english_316.wav,0,peel,766,25,4,Japanese,m,11,1.09391667,-39.14916623,1.49118596
MOT,11,0,2024-06-24T03:17:07.225Z,english_318.wav,0,pill,438,25,4,Japanese,m,0,0.0,-78.94407008,1.36025181
MOT,11,0,2024-06-24T03:17:07.225Z,english_318.wav,0,pill,438,25,4,Japanese,m,1,0.1,-91.43281566,1.33485139
MOT,11,0,2024-06-24T03:17:07.225Z,english_318.wav,0,pill,438,25,4,Japanese,m,2,0.2,-62.24141646,0.43598096
MOT,11,0,2024-06-24T03:17:07.225Z,english_318.wav,0,pill,438,25,4,Japanese,m,3,0.3,40.78211046,0.74688302
MOT,11,0,2024-06-24T03:17:07.225Z,english_318.wav,0,pill,438,25,4,Japanese,m,4,0.4,7.98778967,1.69145296
MOT,11,0,2024-06-24T03:17:07.225Z,english_318.wav,0,pill,438,25,4,Japanese,m,5,0.5,-60.8723057,1.55878588
MOT,11,0,2024-06-24T03:17:07.225Z,english_318.wav,0,pill,438,25,4,Japanese,m,6,0.6,42.28033673,0.6574677
MOT,11,0,2024-06-24T03:17:07.225Z,english_318.wav,0,pill,438,25,4,Japanese,m,7,0.7,-90.16378742,1.94941989
MOT,11,0,2024-06-24T03:17:07.225Z,english_318.wav,0,pill,438,25,4,Japanese,m,8,0.8,-93.15678143,1.19046703
MOT,11,0,2024-06-24T03:17:07.225Z,english_318.wav,0,pill,438,25,4,Japanese,m,9,0.9,-38.27194231,0.26844165
MOT,11,0,2024-06-24T03:17:07.225Z,english_318.wav,0,pill,438,25,4,Japanese,m,10,1.0,2.04687585,1.06188423
MOT,11,0,2024-06-24T03:17:07.225Z,english_318.wav,0,pill,438,25,4,Japanese,m,11,1.09391667,-59.35018185,1.54423822
MOT,12,0,2024-06-24T03:17:07.225Z,english_447.wav,0,pill,1250,25,4,Japanese,m,0,0.0,-49.70124271,1.81391456
MOT,12,0,2024-06-24T03:17:07.225Z,english_447.wav,0,pill,1250,25,4,Japanese,m,1,0.1,6.80747638,1.91818371
MOT,12,0,2024-06-24T03:17:07.225Z,english_447.wav,0,pill,1250,25,4,Japanese,m,2,0.2,78.85711307,1.77045116
MOT,12,0,2024-06-24T03:17:07.225Z,english_447.wav,0,pill,1250,25,4,Japanese,m,3,0.3,58.81086859,1.59965973
MOT,12,0,2024-06-24T03:17:07.225Z,english_447.wav,0,pill,1250,25,4,Japanese,m,4,0.4,-4.36201374,1.21262432
MOT,12,0,2024-06-24T03:17:07.225Z,english_447.wav,0,pill,1250,25,4,Japanese,m,5,0.5,-19.70745175,1.80283693
MOT,12,0,2024-06-24T03:17:07.225Z,english_447.wav,0,pill,1250,25,4,Japanese,m,6,0.6,5.54500097,0.57888703
MOT,12,0,2024-06-24T03:17:07.225Z,english_447.wav,0,pill,1250,25,4,Japanese,m,7,0.7,-73.03933833,0.47461482
MOT,12,0,2024-06-24T03:17:07.225Z,english_447.wav,0,pill,1250,25,4,Japanese,m,8,0.8,-20.453142,0.56581151
MOT,12,0,2024-06-24T03:17:07.225Z,english_447.wav,0,pill,1250,25,4,Japanese,m,9,0.9,9.14360097,0.85442376
MOT,12,0,2024-06-24T03:17:07.225Z,english_447.wav,0,pill,1250,25,4,Japanese,m,10,1.0,-42.46591072,0.56057863
MOT,12,0,2024-06-24T03:17:07.225Z,english_447.wav,0,pill,1250,25,4,Japanese,m,11,1.09391667,3.646082,1.46752368
MOT,13,0,2024-06-24T03:17:07.225Z,english_790.wav,0,pill,392,25,4,Japanese,m,0,0.0,5.47810166,1.26408321
MOT,13,0,2024-06-24T03:17:07.225Z,english_790.wav,0,pill,392,25,4,Japanese,m,1,0.1,-9.2687044,0.26503637
MOT,13,0,2024-06-24T03:17:07.225Z,english_790.wav,0,pill,392,25,4,Japanese,m,2,0.2,71.91302434,0.46926152
MOT,13,0,2024-06-24T03:17:07.225Z,english_790.wav,0,pill,392,25,4,Japanese,m,3,0.3,-95.14086012,0.64840522
MOT,13,0,2024-06-24T03:17:07.225Z,english_790.wav,0,pill,392,25,4,Japanese,m,4,0.4,81.24819191,0.79568814
MOT,13,0,2024-06-24T03:17:07.225Z,english_790.wav,0,pill,392,25,4,Japanese,m,5,0.5,-43.38316414,0.82256958
MOT,13,0,2024-06-24T03:17:07.225Z,english_790.wav,0,pill,392,25,4,Japanese,m,6,0.6,81.5189634,1.36445651
MOT,13,0,2024-06-24T03:17:07.225Z,english_790.wav,0,pill,392,25,4,Japanese,m,7,0.7,36.28483158,0.42135765
MOT,13,0,2024-06-24T03:17:07.225Z,english_790.wav,0,pill,392,25,4,Japanese,m,8,0.8,68.43717388,0.07801016
MOT,13,0,2024-06-24T03:17:07.225Z,english_790.wav,0,pill,392,25,4,Japanese,m,9,0.9,10.19963637,0.70937824
MOT,13,0,2024-06-24T03:17:07.225Z,english_790.wav,0,pill,392,25,4,Japanese,m,10,1.0,-15.25841054,1.62056491
MOT,13,0,2024-06-24T03:17:07.225Z,english_790.wav,0,pill,392,25,4,Japanese,m,11,1.09391667,-62.44422803,1.67467407
MOT,14,0,2024-06-24T03:17:07.225Z,english_894.wav,0,peel,283,25,4,Japanese,m,0,0.0,-80.20723644,1.79346893
MOT,14,0,2024-06-24T03:17:07.225Z,english_894.wav,0,peel,283,25,4,Japanese,m,1,0.1,70.63971402,0.36641107
MOT,14,0,2024-06-24T03:17:07.225Z,english_894.wav,0,peel,283,25,4,Japanese,m,2,0.2,-37.49635732,1.22262179
MOT,14,0,2024-06-24T03:17:07.225Z,english_894.wav,0,peel,283,25,4,Japanese,m,3,0.3,-83.65831032,1.81798895
MOT,14,0,2024-06-24T03:17:07.225Z,english_894.wav,0,peel,283,25,4,Japanese,m,4,0.4,-33.74406965,0.98569015
MOT,14,0,2024-06-24T03:17:07.225Z,english_894.wav,0,peel,283,25,4,Japanese,m,5,0.5,51.66171184,1.39342992
MOT,14,0,2024-06-24T03:17:07.225Z,english_894.wav,0,peel,283,25,4,Japanese,m,6,0.6,19.47391611,1.02882877
MOT,14,0,2024-06-24T03:17:07.225Z,english_894.wav,0,peel,283,25,4,Japanese,m,7,0.7,-13.53975377,0.49108551
MOT,14,0,2024-06-24T03:17:07.225Z,english_894.wav,0,peel,283,25,4,Japanese,m,8,0.8,-20.28527638,0.73422482
MOT,14,0,2024-06-24T03:17:07.225Z,english_894.wav,0,peel,283,25,4,Japanese,m,9,0.9,-1.05192851,1.80196554
MOT,14,0,2024-06-24T03:17:07.225Z,english_894.wav,0,peel,283,25,4,Japanese,m,10,1.0,-21.57661458,0.14842719
MOT,14,0,2024-06-24T03:17:07.225Z,english_894.wav,0,peel,283,25,4,Japanese,m,11,1.09391667,-6.12644826,0.9088618
MOT,15,0,2024-06-24T03:17:07.225Z,english_60.wav,0,peel,243,25,4,Japanese,m,0,0.0,10.59186776,1.18276714
MOT,15,0,2024-06-24T03:17:07.225Z,english_60.wav,0,peel,243,25,4,Japanese,m,1,0.1,40.50364305,1.35618457
MOT,15,0,2024-06-24T03:17:07.225Z,english_60.wav,0,peel,243,25,4,Japanese,m,2,0.2,-14.0687602,0.82779989
MOT,15,0,2024-06-24T03:17:07.225Z,english_60.wav,0,peel,243,25,4,Japanese,m,3,0.3,-65.99656217,0.57077879
MOT,15,0,2024-06-24T03:17:07.225Z,english_60.wav,0,peel,243,25,4,Japanese,m,4,0.4,15.70320652,0.07108592
MOT,15,0,2024-06-24T03:17:07.225Z,english_60.wav,0,peel,243,25,4,Japanese,m,5,0.5,-30.42091681,0.69784791
MOT,15,0,2024-06-24T03:17:07.225Z,english_60.wav,0,peel,243,25,4,Japanese,m,6,0.6,-42.76109802,1.83211062
MOT,15,0,2024-06-24T03:17:07.225Z,english_60.wav,0,peel,243,25,4,Japanese,m,7,0.7,79.72211157,1.14011333
MOT,15,0,2024-06-24T03:17:07.225Z,english_60.wav,0,peel,243,25,4,Japanese,m,8,0.8,-76.06160398,1.5550445
MOT,15,0,2024-06-24T03:17:07.225Z,english_60.wav,0,peel,243,25,4,Japanese,m,9,0.9,-29.21518782,0.72383993
MOT,15,0,2024-06-24T03:17:07.225Z,english_60.wav,0,peel,243,25,4,Japanese,m,10,1.0,-57.95886313,1.31578319
MOT,15,0,2024-06-24T03:17:07.225Z,english_60.wav,0,peel,243,25,4,Japanese,m,11,1.09391667,-5.07129897,0.46327009
MOT,16,0,2024-06-24T03:17:07.225Z,english_710.wav,0,pill,311,25,4,Japanese,m,0,0.0,-39.30636168,1.80624949
MOT,16,0,2024-06-24T03:17:07.225Z,english_710.wav,0,pill,311,25,4,Japanese,m,1,0.1,-97.6674904,0.47182227
MOT,16,0,2024-06-24T03:17:07.225Z,english_710.wav,0,pill,311,25,4,Japanese,m,2,0.2,64.09122161,0.70971527
MOT,16,0,2024-06-24T03:17:07.225Z,english_710.wav,0,pill,311,25,4,Japanese,m,3,0.3,75.88571101,0.05116828
MOT,16,0,2024-06-24T03:17:07.225Z,english_710.wav,0,pill,311,25,4,Japanese,m,4,0.4,-88.52762731,1.76085876
MOT,16,0,2024-06-24T03:17:07.225Z,english_710.wav,0,pill,311,25,4,Japanese,m,5,0.5,82.62720899,0.52858011
MOT,16,0,2024-06-24T03:17:07.225Z,english_710.wav,0,pill,311,25,4,Japanese,m,6,0.6,-76.34366579,0.11108823
MOT,16,0,2024-06-24T03:17:07.225Z,english_710.wav,0,pill,311,25,4,Japanese,m,7,0.7,-8.69440278,1.51710045
MOT,16,0,2024-06-24T03:17:07.225Z,english_710.wav,0,pill,311,25,4,Japanese,m,8,0.8,-70.02409217,1.27546604
MOT,16,0,2024-06-24T03:17:07.225Z,english_710.wav,0,pill,311,25,4,Japanese,m,9,0.9,57.25294742,0.25600017
MOT,16,0,2024-06-24T03:17:07.225Z,english_710.wav,0,pill,311,25,4,Japanese,m,10,1.0,-12.57900879,0.70194387
MOT,16,0,2024-06-24T03:17:07.225Z,english_710.wav,0,pill,311,25,4,Japanese,m,11,1.09391667,58.69693709,0.08256398
MOT,17,0,2024-06-24T03:17:07.225Z,english_380.wav,0,pill,389,25,4,Japanese,m,0,0.0,-98.28114878,1.65071685
MOT,17,0,2024-06-24T03:17:07.225Z,english_380.wav,0,pill,389,25,4,Japanese,m,1,0.1,56.78361718,0.83910099
MOT,17,0,2024-06-24T03:17:07.225Z,english_380.wav,0,pill,389,25,4,Japanese,m,2,0.2,85.44160667,0.37505411
MOT,17,0,2024-06-24T03:17:07.225Z,english_380.wav,0,pill,389,25,4,Japanese,m,3,0.3,-84.55731912,1.88837589
MOT,17,0,2024-06-24T03:17:07.225Z,english_380.wav,0,pill,389,25,4,Japanese,m,4,0.4,49.20342555,1.08728138
MOT,17,0,2024-06-24T03:17:07.225Z,english_380.wav,0,pill,389,25,4,Japanese,m,5,0.5,-52.595959,1.97160724
MOT,17,0,2024-06-24T03:17:07.225Z,english_380.wav,0,pill,389,25,4,Japanese,m,6,0.6,98.42131641,1.47544821
MOT,17,0,2024-06-24T03:17:07.225Z,english_380.wav,0,pill,389,25,4,Japanese,m,7,0.7,9.72308327,1.24926611
MOT,17,0,2024-06-24T03:17:07.225Z,english_380.wav,0,pill,389,25,4,Japanese,m,8,0.8,12.04937736,0.22244064
MOT,17,0,2024-06-24T03:17:07.225Z,english_380.wav,0,pill,389,25,4,Japanese,m,9,0.9,-39.23819918,0.47451493
MOT,17,0,2024-06-24T03:17:07.225Z,english_380.wav,0,pill,389,25,4,Japanese,m,10,1.0,44.86165429,1.20182695
MOT,17,0,2024-06-24T03:17:07.225Z,english_380.wav,0,pill,389,25,4,Japanese,m,11,1.09391667,-9.34942597,1.47839352
MOT,18,0,2024-06-24T03:17:07.225Z,english_565.wav,0,pill,208,25,4,Japanese,m,0,0.0,90.76087004,0.64245812
MOT,18,0,2024-06-24T03:17:07.225Z,english_565.wav,0,pill,208,25,4,Japanese,m,1,0.1,90.93114699,0.32525734
MOT,18,0,2024-06-24T03:17:07.225Z,english_565.wav,0,pill,208,25,4,Japanese,m,2,0.2,-32.37019607,1.091812
MOT,18,0,2024-06-24T03:17:07.225Z,english_565.wav,0,pill,208,25,4,Japanese,m,3,0.3,77.30434891,0.92230791
MOT,18,0,2024-06-24T03:17:07.225Z,english_565.wav,0,pill,208,25,4,Japanese,m,4,0.4,-9.73234267,0.30031599
MOT,18,0,2024-06-24T03:17:07.225Z,english_565.wav,0,pill,208,25,4,Japanese,m,5,0.5,-83.24650182,0.39093775
MOT,18,0,2024-06-24T03:17:07.225Z,english_565.wav,0,pill,208,25,4,Japanese,m,6,0.6,21.51683352,0.75549465
MOT,18,0,2024-06-24T03:17:07.225Z,english_565.wav,0,pill,208,25,4,Japanese,m,7,0.7,88.66647516,1.68865449
MOT,18,0,2024-06-24T03:17:07.225Z,english_565.wav,0,pill,208,25,4,Japanese,m,8,0.8,21.52943084,0.98033477
MOT,18,0,2024-06-24T03:17:07.225Z,english_565.wav,0,pill,208,25,4,Japanese,m,9,0.9,0.60796245,1.75979764
MOT,18,0,2024-06-24T03:17:07.225Z,english_565.wav,0,pill,208,25,4,Japanese,m,10,1.0,9.87605239,1.41337712
MOT,18,0,2024-06-24T03:17:07.225Z,english_565.wav,0,pill,208,25,4,Japanese,m,11,1.09391667,92.11409348,0.97633592
MOT,19,0,2024-06-24T03:17:07.225Z,english_111.wav,0,pill,324,25,4,Japanese,m,0,0.0,-7.89423459,1.73172447
MOT,19,0,2024-06-24T03:17:07.225Z,english_111.wav,0,pill,324,25,4,Japanese,m,1,0.1,-50.39853442,1.30536321
MOT,19,0,2024-06-24T03:17:07.225Z,english_111.wav,0,pill,324,25,4,Japanese,m,2,0.2,85.22773015,0.28962065
MOT,19,0,2024-06-24T03:17:07.225Z,english_111.wav,0,pill,324,25,4,Japanese,m,3,0.3,-7.88513069,1.6166787
MOT,19,0,2024-06-24T03:17:07.225Z,english_111.wav,0,pill,324,25,4,Japanese,m,4,0.4,-36.68324303,0.55677008
MOT,19,0,2024-06-24T03:17:07.225Z,english_111.wav,0,pill,324,25,4,Japanese,m,5,0.5,-4.8649615,1.31756148
MOT,19,0,2024-06-24T03:17:07.225Z,english_111.wav,0,pill,324,25,4,Japanese,m,6,0.6,-92.19494919,1.4789538
MOT,19,0,2024-06-24T03:17:07.225Z,english_111.wav,0,pill,324,25,4,Japanese,m,7,0.7,-6.11032283,0.53950686
MOT,19,0,2024-06-24T03:17:07.225Z,english_111.wav,0,pill,324,25,4,Japanese,m,8,0.8,41.34470973,0.89868821
MOT,19,0,2024-06-24T03:17:07.225Z,english_111.wav,0,pill,324,25,4,Japanese,m,9,0.9,-73.07088632,0.90401257
MOT,19,0,2024-06-24T03:17:07.225Z,english_111.wav,0,pill,324,25,4,Japanese,m,10,1.0,50.36502587,0.61580764
MOT,19,0,2024-06-24T03:17:07.225Z,english_111.wav,0,pill,324,25,4,Japanese,m,11,1.09391667,-49.90215361,1.87610476
MOT,20,0,2024-06-24T03:17:07.225Z,english_732.wav,0,pill,507,25,4,Japanese,m,0,0.0,-6.1655518,1.83743041
MOT,20,0,2024-06-24T03:17:07.225Z,english_732.wav,0,pill,507,25,4,Japanese,m,1,0.1,-21.68268247,0.45034165
MOT,20,0,2024-06-24T03:17:07.225Z,english_732.wav,0,pill,507,25,4,Japanese,m,2,0.2,-44.18505393,1.43977044
MOT,20,0,2024-06-24T03:17:07.225Z,english_732.wav,0,pill,507,25,4,Japanese,m,3,0.3,-99.08787178,1.63276402
MOT,20,0,2024-06-24T03:17:07.225Z,english_732.wav,0,pill,507,25,4,Japanese,m,4,0.4,52.69419041,1.14410498
MOT,20,0,2024-06-24T03:17:07.225Z,english_732.wav,0,pill,507,25,4,Japanese,m,5,0.5,-22.76801282,0.80499942
MOT,20,0,2024-06-24T03:17:07.225Z,english_732.wav,0,pill,507,25,4,Japanese,m,6,0.6,-68.37024344,0.00488355
MOT,20,0,2024-06-24T03:17:07.225Z,english_732.wav,0,pill,507,25,4,Japanese,m,7,0.7,99.79862575,1.08087267
MOT,20,0,2024-06-24T03:17:07.225Z,english_732.wav,0,pill,507,25,4,Japanese,m,8,0.8,-45.96985204,0.60546967
MOT,20,0,2024-06-24T03:17:07.225Z,english_732.wav,0,pill,507,25,4,Japanese,m,9,0.9,34.4904792,1.53964006
MOT,20,0,2024-06-24T03:17:07.225Z,english_732.wav,0,pill,507,25,4,Japanese,m,10,1.0,-81.20928849,0.59388625
MOT,20,0,2024-06-24T03:17:07.225Z,english_732.wav,0,pill,507,25,4,Japanese,m,11,1.09391667,-1.26617119,1.72169188
MOT,21,0,2024-06-24T03:17:07.225Z,english_1.wav,0,pill,579,25,4,Japanese,m,0,0.0,82.44203382,0.97617089
MOT,21,0,2024-06-24T03:17:07.225Z,english_1.wav,0,pill,579,25,4,Japanese,m,1,0.1,-30.17618245,0.62833649
MOT,21,0,2024-06-24T03:17:07.225Z,english_1.wav,0,pill,579,25,4,Japanese,m,2,0.2,29.86670871,1.71628267
MOT,21,0,2024-06-24T03:17:07.225Z,english_1.wav,0,pill,579,25,4,Japanese,m,3,0.3,-30.59558791,1.57876253
MOT,21,0,2024-06-24T03:17:07.225Z,english_1.wav,0,pill,579,25,4,Japanese,m,4,0.4,-47.57675763,0.47000387
MOT,21,0,2024-06-24T03:17:07.225Z,english_1.wav,0,pill,579,25,4,Japanese,m,5,0.5,-17.44773817,0.87334438
MOT,21,0,2024-06-24T03:17:07.225Z,english_1.wav,0,pill,579,25,4,Japanese,m,6,0.6,-73.86718122,0.40526307
MOT,21,0,2024-06-24T03:17:07.225Z,english_1.wav,0,pill,579,25,4,Japanese,m,7,0.7,70.17077277,1.31867186
MOT,21,0,2024-06-24T03:17:07.225Z,english_1.wav,0,pill,579,25,4,Japanese,m,8,0.8,-75.98538301,0.46239136
MOT,21,0,2024-06-24T03:17:07.225Z,english_1.wav,0,pill,579,25,4,Japanese,m,9,0.9,-57.43154571,0.66642176
MOT,21,0,2024-06-24T03:17:07.225Z,english_1.wav,0,pill,579,25,4,Japanese,m,10,1.0,93.54956166,0.4005644
MOT,21,0,2024-06-24T03:17:07.225Z,english_1.wav,0,pill,579,25,4,Japanese,m,11,1.09391667,-19.42635274,0.62556241
MOT,22,0,2024-06-24T03:17:07.225Z,english_918.wav,0,pill,476,25,4,Japanese,m,0,0.0,7.81141633,1.24491342
MOT,22,0,2024-06-24T03:17:07.225Z,english_918.wav,0,pill,476,25,4,Japanese,m,1,0.1,82.72316881,0.03757961
MOT,22,0,2024-06-24T03:17:07.225Z,english_918.wav,0,pill,476,25,4,Japanese,m,2,0.2,30.05807571,1.14238595
MOT,22,0,2024-06-24T03:17:07.225Z,english_918.wav,0,pill,476,25,4,Japanese,m,3,0.3,-70.58941721,0.04886902
MOT,22,0,2024-06-24T03:17:07.225Z,english_918.wav,0,pill,476,25,4,Japanese,m,4,0.4,-65.52419577,0.89349405
MOT,22,0,2024-06-24T03:17:07.225Z,english_918.wav,0,pill,476,25,4,Japanese,m,5,0.5,-8.01629029,0.46427507
MOT,22,0,2024-06-24T03:17:07.225Z,english_918.wav,0,pill,476,25,4,Japanese,m,6,0.6,16.78163005,1.22953669
MOT,22,0,2024-06-24T03:17:07.225Z,english_918.wav,0,pill,476,25,4,Japanese,m,7,0.7,72.93916831,1.878364
MOT,22,0,2024-06-24T03:17:07.225Z,english_918.wav,0,pill,476,25,4,Japanese,m,8,0.8,-2.28760557,0.42759123
MOT,22,0,2024-06-24T03:17:07.225Z,english_918.wav,0,pill,476,25,4,Japanese,m,9,0.9,-18.70975913,0.20519841
MOT,22,0,2024-06-24T03:17:07.225Z,english_918.wav,0,pill,476,25,4,Japanese,m,10,1.0,1.09551631,1.09007735
MOT,22,0,2024-06-24T03:17:07.225Z,english_918.wav,0,pill,476,25,4,Japanese,m,11,1.09391667,-2.64797824,0.32770208
MOT,23,0,2024-06-24T03:17:07.225Z,english_783.wav,0,pill,303,25,4,Japanese,m,0,0.0,-86.56228458,1.19165513
MOT,23,0,2024-06-24T03:17:07.225Z,english_783.wav,0,pill,303,25,4,Japanese,m,1,0.1,33.36869343,0.83777852
MOT,23,0,2024-06-24T03:17:07.225Z,english_783.wav,0,pill,303,25,4,Japanese,m,2,0.2,9.6331017,0.11846308
MOT,23,0,2024-06-24T03:17:07.225Z,english_783.wav,0,pill,303,25,4,Japanese,m,3,0.3,-0.10370099,1.66137382
MOT,23,0,2024-06-24T03:17:07.225Z,english_783.wav,0,pill,303,25,4,Japanese,m,4,0.4,37.9043983,0.58882923
MOT,23,0,2024-06-24T03:17:07.225Z,english_783.wav,0,pill,303,25,4,Japanese,m,5,0.5,3.6685029,0.46184707
MOT,23,0,2024-06-24T03:17:07.225Z,english_783.wav,0,pill,303,25,4,Japanese,m,6,0.6,70.42333637,1.82009688
MOT,23,0,2024-06-24T03:17:07.225Z,english_783.wav,0,pill,303,25,4,Japanese,m,7,0.7,-15.16907184,1.46902062
MOT,23,0,2024-06-24T03:17:07.225Z,english_783.wav,0,pill,303,25,4,Japanese,m,8,0.8,55.24698517,1.68658026
MOT,23,0,2024-06-24T03:17:07.225Z,english_783.wav,0,pill,303,25,4,Japanese,m,9,0.9,2.94553427,1.05395717
MOT,23,0,2024-06-24T03:17:07.225Z,english_783.wav,0,pill,303,25,4,Japanese,m,10,1.0,-22.42195587,1.93905679
MOT,23,0,2024-06-24T03:17:07.225Z,english_783.wav,0,pill,303,25,4,Japanese,m,11,1.09391667,45.66016172,0.09684568
MOT,24,0,2024-06-24T03:17:07.225Z,english_617.wav,0,pill,391,25,4,Japanese,m,0,0.0,10.93227953,0.72387338
MOT,24,0,2024-06-24T03:17:07.225Z,english_617.wav,0,pill,391,25,4,Japanese,m,1,0.1,-59.2478864,1.78831672
MOT,24,0,2024-06-24T03:17:07.225Z,english_617.wav,0,pill,391,25,4,Japanese,m,2,0.2,-60.98157443,0.6179467
MOT,24,0,2024-06-24T03:17:07.225Z,english_617.wav,0,pill,391,25,4,Japanese,m,3,0.3,-98.20098641,0.63320585
MOT,24,0,2024-06-24T03:17:07.225Z,english_617.wav,0,pill,391,25,4,Japanese,m,4,0.4,-27.56878422,0.42531965
MOT,24,0,2024-06-24T03:17:07.225Z,english_617.wav,0,pill,391,25,4,Japanese,m,5,0.5,-16.62879698,1.05036122
MOT,24,0,2024-06-24T03:17:07.225Z,english_617.wav,0,pill,391,25,4,Japanese,m,6,0.6,-85.18504197,1.22550457
MOT,24,0,2024-06-24T03:17:07.225Z,english_617.wav,0,pill,391,25,4,Japanese,m,7,0.7,65.935133,0.87185678
MOT,24,0,2024-06-24T03:17:07.225Z,english_617.wav,0,pill,391,25,4,Japanese,m,8,0.8,-49.35852621,1.19822477
MOT,24,0,2024-06-24T03:17:07.225Z,english_617.wav,0,pill,391,25,4,Japanese,m,9,0.9,-79.82823856,0.11933649
MOT,24,0,2024-06-24T03:17:07.225Z,english_617.wav,0,pill,391,25,4,Japanese,m,10,1.0,-43.72382152,1.37889257
MOT,24,0,2024-06-24T03:17:07.225Z,english_617.wav,0,pill,391,25,4,Japanese,m,11,1.09391667,-81.76136352,0.25359551
MOT,25,0,2024-06-24T03:17:07.225Z,english_124.wav,0,pill,154,25,4,Japanese,m,0,0.0,5.35510852,0.99413203
MOT,25,0,2024-06-24T03:17:07.225Z,english_124.wav,0,pill,154,25,4,Japanese,m,1,0.1,82.22763866,0.35886786
MOT,25,0,2024-06-24T03:17:07.225Z,english_124.wav,0,pill,154,25,4,Japanese,m,2,0.2,78.44526729,0.68901736
MOT,25,0,2024-06-24T03:17:07.225Z,english_124.wav,0,pill,154,25,4,Japanese,m,3,0.3,-3.07690156,1.32582542
MOT,25,0,2024-06-24T03:17:07.225Z,english_124.wav,0,pill,154,25,4,Japanese,m,4,0.4,-26.87127611,1.93650033
MOT,25,0,2024-06-24T03:17:07.225Z,english_124.wav,0,pill,154,25,4,Japanese,m,5,0.5,-1.1256219,1.64621245
MOT,25,0,2024-06-24T03:17:07.225Z,english_124.wav,0,pill,154,25,4,Japanese,m,6,0.6,-86.86575837,1.68793936
MOT,25,0,2024-06-24T03:17:07.225Z,english_124.wav,0,pill,154,25,4,Japanese,m,7,0.7,73.06997556,1.14468764
MOT,25,0,2024-06-24T03:17:07.225Z,english_124.wav,0,pill,154,25,4,Japanese,m,8,0.8,48.90999268,1.13594555
MOT,25,0,2024-06-24T03:17:07.225Z,english_124.wav,0,pill,154,25,4,Japanese,m,9,0.9,52.65203742,0.473778
MOT,25,0,2024-06-24T03:17:07.225Z,english_124.wav,0,pill,154,25,4,Japanese,m,10,1.0,-49.74668146,1.84215607
MOT,25,0,2024-06-24T03:17:07.225Z,english_124.wav,0,pill,154,25,4,Japanese,m,11,1.09391667,-71.87075445,0.96391319
MOT,26,0,2024-06-24T03:17:07.225Z,english_915.wav,0,pill,403,25,4,Japanese,m,0,0.0,-21.98271396,1.11106838
MOT,26,0,2024-06-24T03:17:07.225Z,english_915.wav,0,pill,403,25,4,Japanese,m,1,0.1,1.0207487,1.44455779
MOT,26,0,2024-06-24T03:17:07.225Z,english_915.wav,0,pill,403,25,4,Japanese,m,2,0.2,23.02274493,1.42587556
MOT,26,0,2024-06-24T03:17:07.225Z,english_915.wav,0,pill,403,25,4,Japanese,m,3,0.3,85.32608832,1.47521249
MOT,26,0,2024-06-24T03:17:07.225Z,english_915.wav,0,pill,403,25,4,Japanese,m,4,0.4,-33.34189035,1.68905856
MOT,26,0,2024-06-24T03:17:07.225Z,english_915.wav,0,pill,403,25,4,Japanese,m,5,0.5,29.21421043,1.40181913
MOT,26,0,2024-06-24T03:17:07.225Z,english_915.wav,0,pill,403,25,4,Japanese,m,6,0.6,56.26543798,1.46869984
MOT,26,0,2024-06-24T03:17:07.225Z,english_915.wav,0,pill,403,25,4,Japanese,m,7,0.7,7.71467122,0.70433786
MOT,26,0,2024-06-24T03:17:07.225Z,english_915.wav,0,pill,403,25,4,Japanese,m,8,0.8,88.21567756,1.11015014
MOT,26,0,2024-06-24T03:17:07.225Z,english_915.wav,0,pill,403,25,4,Japanese,m,9,0.9,-50.54904275,0.72100932
MOT,26,0,2024-06-24T03:17:07.225Z,english_915.wav,0,pill,403,25,4,Japanese,m,10,1.0,-64.3056321,1.02681764
MOT,26,0,2024-06-24T03:17:07.225Z,english_915.wav,0,pill,403,25,4,Japanese,m,11,1.09391667,-64.41259803,0.869897
MOT,27,0,2024-06-24T03:17:07.225Z,english_726.wav,0,pill,526,25,4,Japanese,m,0,0.0,23.35137092,0.15397845
MOT,27,0,2024-06-24T03:17:07.225Z,english_726.wav,0,pill,526,25,4,Japanese,m,1,0.1,76.34325819,1.80908671
MOT,27,0,2024-06-24T03:17:07.225Z,english_726.wav,0,pill,526,25,4,Japanese,m,2,0.2,77.87153215,0.91237222
MOT,27,0,2024-06-24T03:17:07.225Z,english_726.wav,0,pill,526,25,4,Japanese,m,3,0.3,45.89033074,0.3916486
MOT,27,0,2024-06-24T03:17:07.225Z,english_726.wav,0,pill,526,25,4,Japanese,m,4,0.4,-92.46008591,1.60354114
MOT,27,0,2024-06-24T03:17:07.225Z,english_726.wav,0,pill,526,25,4,Japanese,m,5,0.5,-89.27810563,0.90173572
MOT,27,0,2024-06-24T03:17:07.225Z,english_726.wav,0,pill,526,25,4,Japanese,m,6,0.6,61.30206765,1.86939155
MOT,27,0,2024-06-24T03:17:07.225Z,english_726.wav,0,pill,526,25,4,Japanese,m,7,0.7,68.07705407,0.57523975
MOT,27,0,2024-06-24T03:17:07.225Z,english_726.wav,0,pill,526,25,4,Japanese,m,8,0.8,47.81218941,0.88835081
MOT,27,0,2024-06-24T03:17:07.225Z,english_726.wav,0,pill,526,25,4,Japanese,m,9,0.9,85.67647673,0.33175344
MOT,27,0,2024-06-24T03:17:07.225Z,english_726.wav,0,pill,526,25,4,Japanese,m,10,1.0,69.08166842,0.8335266
MOT,27,0,2024-06-24T03:17:07.225Z,english_726.wav,0,pill,526,25,4,Japanese,m,11,1.09391667,71.61978118,0.36613886
MOT,28,0,2024-06-24T03:17:07.225Z,english_660.wav,0,pill,899,25,4,Japanese,m,0,0.0,-6.98483794,0.74998418
MOT,28,0,2024-06-24T03:17:07.225Z,english_660.wav,0,pill,899,25,4,Japanese,m,1,0.1,-19.91361353,1.44180771
MOT,28,0,2024-06-24T03:17:07.225Z,english_660.wav,0,pill,899,25,4,Japanese,m,2,0.2,78.11411012,1.86148363
MOT,28,0,2024-06-24T03:17:07.225Z,english_660.wav,0,pill,899,25,4,Japanese,m,3,0.3,31.9686312,0.29878934
MOT,28,0,2024-06-24T03:17:07.225Z,english_660.wav,0,pill,899,25,4,Japanese,m,4,0.4,59.3000475,0.70934132
MOT,28,0,2024-06-24T03:17:07.225Z,english_660.wav,0,pill,899,25,4,Japanese,m,5,0.5,-70.43888588,1.90119169
MOT,28,0,2024-06-24T03:17:07.225Z,english_660.wav,0,pill,899,25,4,Japanese,m,6,0.6,-20.07366552,0.76680768
MOT,28,0,2024-06-24T03:17:07.225Z,english_660.wav,0,pill,899,25,4,Japanese,m,7,0.7,-55.63699673,0.42211173
MOT,28,0,2024-06-24T03:17:07.225Z,english_660.wav,0,pill,899,25,4,Japanese,m,8,0.8,-98.18697012,0.44483448
MOT,28,0,2024-06-24T03:17:07.225Z,english_660.wav,0,pill,899,25,4,Japanese,m,9,0.9,13.89215317,1.66618929
MOT,28,0,2024-06-24T03:17:07.225Z,english_660.wav,0,pill,899,25,4,Japanese,m,10,1.0,-7.40212614,0.443528
MOT,28,0,2024-06-24T03:17:07.225Z,english_660.wav,0,pill,899,25,4,Japanese,m,11,1.09391667,28.56237553,1.27514236
MOT,29,0,2024-06-24T03:17:07.225Z,english_427.wav,0,pill,474,25,4,Japanese,m,0,0.0,-34.05157895,1.0004529
MOT,29,0,2024-06-24T03:17:07.225Z,english_427.wav,0,pill,474,25,4,Japanese,m,1,0.1,58.19153473,1.21096565
MOT,29,0,2024-06-24T03:17:07.225Z,english_427.wav,0,pill,474,25,4,Japanese,m,2,0.2,-48.12257975,0.11590133
MOT,29,0,2024-06-24T03:17:07.225Z,english_427.wav,0,pill,474,25,4,Japanese,m,3,0.3,49.89061623,1.91629618
MOT,29,0,2024-06-24T03:17:07.225Z,english_427.wav,0,pill,474,25,4,Japanese,m,4,0.4,34.36154687,1.2268838
MOT,29,0,2024-06-24T03:17:07.225Z,english_427.wav,0,pill,474,25,4,Japanese,m,5,0.5,-5.3172375,1.50953507
MOT,29,0,2024-06-24T03:17:07.225Z,english_427.wav,0,pill,474,25,4,Japanese,m,6,0.6,22.96924358,0.88661312
MOT,29,0,2024-06-24T03:17:07.225Z,english_427.wav,0,pill,474,25,4,Japanese,m,7,0.7,-97.31174849,0.11078335
MOT,29,0,2024-06-24T03:17:07.225Z,english_427.wav,0,pill,474,25,4,Japanese,m,8,0.8,-28.90224272,0.79636785
MOT,29,0,2024-06-24T03:17:07.225Z,english_427.wav,0,pill,474,25,4,Japanese,m,9,0.9,-26.24845885,0.27345116
MOT,29,0,2024-06-24T03:17:07.225Z,english_427.wav,0,pill,474,25,4,Japanese,m,10,1.0,92.28378811,0.14785478
MOT,29,0,2024-06-24T03:17:07.225Z,english_427.wav,0,pill,474,25,4,Japanese,m,11,1.09391667,-48.38945182,0.43629002
MOT,30,0,2024-06-24T03:17:07.225Z,english_610.wav,0,pill,258,25,4,Japanese,m,0,0.0,-92.84300711,0.87509592
MOT,30,0,2024-06-24T03:17:07.225Z,english_610.wav,0,pill,258,25,4,Japanese,m,1,0.1,84.93303095,1.15799642
MOT,30,0,2024-06-24T03:17:07.225Z,english_610.wav,0,pill,258,25,4,Japanese,m,2,0.2,80.17137486,0.35067597
MOT,30,0,2024-06-24T03:17:07.225Z,english_610.wav,0,pill,258,25,4,Japanese,m,3,0.3,-20.18134966,0.73569606
MOT,30,0,2024-06-24T03:17:07.225Z,english_610.wav,0,pill,258,25,4,Japanese,m,4,0.4,-20.20363531,1.23116766
MOT,30,0,2024-06-24T03:17:07.225Z,english_610.wav,0,pill,258,25,4,Japanese,m,5,0.5,-69.79247274,0.29684789
MOT,30,0,2024-06-24T03:17:07.225Z,english_610.wav,0,pill,258,25,4,Japanese,m,6,0.6,33.10957698,0.98948574
MOT,30,0,2024-06-24T03:17:07.225Z,english_610.wav,0,pill,258,25,4,Japanese,m,7,0.7,-20.50322303,0.76787478
MOT,30,0,2024-06-24T03:17:07.225Z,english_610.wav,0,pill,258,25,4,Japanese,m,8,0.8,-72.05825618,0.48117832
MOT,30,0,2024-06-24T03:17:07.225Z,english_610.wav,0,pill,258,25,4,Japanese,m,9,0.9,1.26743028,0.47321928
MOT,30,0,2024-06-24T03:17:07.225Z,english_610.wav,0,pill,258,25,4,Japanese,m,10,1.0,17.12915034,0.17126553
MOT,30,0,2024-06-24T03:17:07.225Z,english_610.wav,0,pill,258,25,4,Japanese,m,11,1.09391667,64.76618694,1.04318183
MOT,31,0,2024-06-24T03:17:07.225Z,english_798.wav,0,pill,1781,25,4,Japanese,m,0,0.0,-67.02841194,0.33593724
MOT,31,0,2024-06-24T03:17:07.225Z,english_798.wav,0,pill,1781,25,4,Japanese,m,1,0.1,-61.53416047,1.45592665
MOT,31,0,2024-06-24T03:17:07.225Z,english_798.wav,0,pill,1781,25,4,Japanese,m,2,0.2,58.59657868,0.89843982
MOT,31,0,2024-06-24T03:17:07.225Z,english_798.wav,0,pill,1781,25,4,Japanese,m,3,0.3,29.19204806,0.82315135
MOT,31,0,2024-06-24T03:17:07.225Z,english_798.wav,0,pill,1781,25,4,Japanese,m,4,0.4,23.45650743,1.88697526
MOT,31,0,2024-06-24T03:17:07.225Z,english_798.wav,0,pill,1781,25,4,Japanese,m,5,0.5,68.99571545,0.96876146
MOT,31,0,2024-06-24T03:17:07.225Z,english_798.wav,0,pill,1781,25,4,Japanese,m,6,0.6,-55.06633408,0.51998357
MOT,31,0,2024-06-24T03:17:07.225Z,english_798.wav,0,pill,1781,25,4,Japanese,m,7,0.7,-84.88813755,0.83848957
MOT,31,0,2024-06-24T03:17:07.225Z,english_798.wav,0,pill,1781,25,4,Japanese,m,8,0.8,-86.25019985,0.75519813
MOT,31,0,2024-06-24T03:17:07.225Z,english_798.wav,0,pill,1781,25,4,Japanese,m,9,0.9,32.09324542,0.08799146
MOT,31,0,2024-06-24T03:17:07.225Z,english_798.wav,0,pill,1781,25,4,Japanese,m,10,1.0,-18.86097807,1.1327065
MOT,31,0,2024-06-24T03:17:07.225Z,english_798.wav,0,pill,1781,25,4,Japanese,m,11,1.09391667,-0.34975855,0.30601278
MOT,32,0,2024-06-24T03:17:07.225Z,english_523.wav,0,pill,1221,25,4,Japanese,m,0,0.0,-25.97539799,0.34449626
MOT,32,0,2024-06-24T03:17:07.225Z,english_523.wav,0,pill,1221,25,4,Japanese,m,1,0.1,-25.11108095,0.18549089
MOT,32,0,2024-06-24T03:17:07.225Z,english_523.wav,0,pill,1221,25,4,Japanese,m,2,0.2,-67.4070828,1.10257375
MOT,32,0,2024-06-24T03:17:07.225Z,english_523.wav,0,pill,1221,25,4,Japanese,m,3,0.3,14.34055957,0.39893493
MOT,32,0,2024-06-24T03:17:07.225Z,english_523.wav,0,pill,1221,25,4,Japanese,m,4,0.4,10.27536217,1.8821087
MOT,32,0,2024-06-24T03:17:07.225Z,english_523.wav,0,pill,1221,25,4,Japanese,m,5,0.5,2.68899624,1.33802983
MOT,32,0,2024-06-24T03:17:07.225Z,english_523.wav,0,pill,1221,25,4,Japanese,m,6,0.6,5.43637058,1.93381979
MOT,32,0,2024-06-24T03:17:07.225Z,english_523.wav,0,pill,1221,25,4,Japanese,m,7,0.7,84.96836729,1.3963609
MOT,32,0,2024-06-24T03:17:07.225Z,english_523.wav,0,pill,1221,25,4,Japanese,m,8,0.8,0.15377924,0.58447079
MOT,32,0,2024-06-24T03:17:07.225Z,english_523.wav,0,pill,1221,25,4,Japanese,m,9,0.9,-34.21093103,0.41716989
MOT,32,0,2024-06-24T03:17:07.225Z,english_523.wav,0,pill,1221,25,4,Japanese,m,10,1.0,-94.05275706,1.25827867
MOT,32,0,2024-06-24T03:17:07.225Z,english_523.wav,0,pill,1221,25,4,Japanese,m,11,1.09391667,-75.26058007,0.83944497
MOT,33,0,2024-06-24T03:17:07.225Z,english_50.wav,0,pill,1469,25,4,Japanese,m,0,0.0,-32.36494138,1.37054129
MOT,33,0,2024-06-24T03:17:07.225Z,english_50.wav,0,pill,1469,25,4,Japanese,m,1,0.1,76.6244439,1.57215181
MOT,33,0,2024-06-24T03:17:07.225Z,english_50.wav,0,pill,1469,25,4,Japanese,m,2,0.2,-16.62217643,1.07317842
MOT,33,0,2024-06-24T03:17:07.225Z,english_50.wav,0,pill,1469,25,4,Japanese,m,3,0.3,63.40850527,0.82623857
MOT,33,0,2024-06-24T03:17:07.225Z,english_50.wav,0,pill,1469,25,4,Japanese,m,4,0.4,68.81783594,0.72038729
MOT,33,0,2024-06-24T03:17:07.225Z,english_50.wav,0,pill,1469,25,4,Japanese,m,5,0.5,-35.17384088,1.90936147
MOT,33,0,2024-06-24T03:17:07.225Z,english_50.wav,0,pill,1469,25,4,Japanese,m,6,0.6,42.93688325,0.3744962
MOT,33,0,2024-06-24T03:17:07.225Z,english_50.wav,0,pill,1469,25,4,Japanese,m,7,0.7,-82.21044816,0.69245834
MOT,33,0,2024-06-24T03:17:07.225Z,english_50.wav,0,pill,1469,25,4,Japanese,m,8,0.8,-42.73245843,0.60585647
MOT,33,0,2024-06-24T03:17:07.225Z,english_50.wav,0,pill,1469,25,4,Japanese,m,9,0.9,-3.13393134,1.24840552
MOT,33,0,2024-06-24T03:17:07.225Z,english_50.wav,0,pill,1469,25,4,Japanese,m,10,1.0,-86.41078269,0.02488175
MOT,33,0,2024-06-24T03:17:07.225Z,english_50.wav,0,pill,1469,25,4,Japanese,m,11,1.09391667,14.80187439,1.59728167
MOT,34,0,2024-06-24T03:17:07.225Z,english_20.wav,0,peel,542,25,4,Japanese,m,0,0.0,63.0600358,0.86275217
MOT,34,0,2024-06-24T03:17:07.225Z,english_20.wav,0,peel,542,25,4,Japanese,m,1,0.1,-51.01536648,0.66446023
MOT,34,0,2024-06-24T03:17:07.225Z,english_20.wav,0,peel,542,25,4,Japanese,m,2,0.2,-79.38394235,0.76617276
MOT,34,0,2024-06-24T03:17:07.225Z,english_20.wav,0,peel,542,25,4,Japanese,m,3,0.3,18.37962799,1.08107646
MOT,34,0,2024-06-24T03:17:07.225Z,english_20.wav,0,peel,542,25,4,Japanese,m,4,0.4,-93.10550864,0.88129698
MOT,34,0,2024-06-24T03:17:07.225Z,english_20.wav,0,peel,542,25,4,Japanese,m,5,0.5,-34.41615075,1.16389527
MOT,34,0,2024-06-24T03:17:07.225Z,english_20.wav,0,peel,542,25,4,Japanese,m,6,0.6,-59.60856077,1.73817265
MOT,34,0,2024-06-24T03:17:07.225Z,english_20.wav,0,peel,542,25,4,Japanese,m,7,0.7,-5.91904512,1.94089825
MOT,34,0,2024-06-24T03:17:07.225Z,english_20.wav,0,peel,542,25,4,Japanese,m,8,0.8,-91.08119021,0.88467755
MOT,34,0,2024-06-24T03:17:07.225Z,english_20.wav,0,peel,542,25,4,Japanese,m,9,0.9,-45.35675883,1.32628719
MOT,34,0,2024-06-24T03:17:07.225Z,english_20.wav,0,peel,542,25,4,Japanese,m,10,1.0,-19.89168543,0.31006302
MOT,34,0,2024-06-24T03:17:07.225Z,english_20.wav,0,peel,542,25,4,Japanese,m,11,1.09391667,49.76773146,0.42478041
MOT,35,0,2024-06-24T03:17:07.225Z,english_730.wav,0,peel,781,25,4,Japanese,m,0,0.0,98.7829688,0.6873965
MOT,35,0,2024-06-24T03:17:07.225Z,english_730.wav,0,peel,781,25,4,Japanese,m,1,0.1,-67.9329994,0.65236597
MOT,35,0,2024-06-24T03:17:07.225Z,english_730.wav,0,peel,781,25,4,Japanese,m,2,0.2,-35.4157721,1.04626144
MOT,35,0,2024-06-24T03:17:07.225Z,english_730.wav,0,peel,781,25,4,Japanese,m,3,0.3,8.75583116,1.65669948
MOT,35,0,2024-06-24T03:17:07.225Z,english_730.wav,0,peel,781,25,4,Japanese,m,4,0.4,-60.72300086,1.8622585
MOT,35,0,2024-06-24T03:17:07.225Z,english_730.wav,0,peel,781,25,4,Japanese,m,5,0.5,-43.53238385,1.86205359
MOT,35,0,2024-06-24T03:17:07.225Z,english_730.wav,0,peel,781,25,4,Japanese,m,6,0.6,7.41942565,1.2731877
MOT,35,0,2024-06-24T03:17:07.225Z,english_730.wav,0,peel,781,25,4,Japanese,m,7,0.7,-30.23988593,0.2835626
MOT,35,0,2024-06-24T03:17:07.225Z,english_730.wav,0,peel,781,25,4,Japanese,m,8,0.8,98.85106115,0.42372638
MOT,35,0,2024-06-24T03:17:07.225Z,english_730.wav,0,peel,781,25,4,Japanese,m,9,0.9,11.8745124,1.35675351
MOT,35,0,2024-06-24T03:17:07.225Z,english_730.wav,0,peel,781,25,4,Japanese,m,10,1.0,-15.67114445,1.03423815
MOT,35,0,2024-06-24T03:17:07.225Z,english_730.wav,0,peel,781,25,4,Japanese,m,11,1.09391667,-67.06238252,0.63701046
MOT,36,0,2024-06-24T03:17:07.225Z,english_259.wav,0,pill,593,25,4,Japanese,m,0,0.0,-96.45723027,1.20447661
MOT,36,0,2024-06-24T03:17:07.225Z,english_259.wav,0,pill,593,25,4,Japanese,m,1,0.1,46.81898893,1.98089962
MOT,36,0,2024-06-24T03:17:07.225Z,english_259.wav,0,pill,593,25,4,Japanese,m,2,0.2,-52.24123134,0.13419359
MOT,36,0,2024-06-24T03:17:07.225Z,english_259.wav,0,pill,593,25,4,Japanese,m,3,0.3,-93.20482306,0.77341906
MOT,36,0,2024-06-24T03:17:07.225Z,english_259.wav,0,pill,593,25,4,Japanese,m,4,0.4,-73.17016095,0.41314705
MOT,36,0,2024-06-24T03:17:07.225Z,english_259.wav,0,pill,593,25,4,Japanese,m,5,0.5,65.38390332,1.70927399
MOT,36,0,2024-06-24T03:17:07.225Z,english_259.wav,0,pill,593,25,4,Japanese,m,6,0.6,-74.48910715,0.82975987
MOT,36,0,2024-06-24T03:17:07.225Z,english_259.wav,0,pill,593,25,4,Japanese,m,7,0.7,18.35767077,1.00284167
MOT,36,0,2024-06-24T03:17:07.225Z,english_259.wav,0,pill,593,25,4,Japanese,m,8,0.8,-83.13603565,0.65136174
MOT,36,0,2024-06-24T03:17:07.225Z,english_259.wav,0,pill,593,25,4,Japanese,m,9,0.9,-60.914408,1.08902536
MOT,36,0,2024-06-24T03:17:07.225Z,english_259.wav,0,pill,593,25,4,Japanese,m,10,1.0,13.76318207,0.29016251
MOT,36,0,2024-06-24T03:17:07.225Z,english_259.wav,0,pill,593,25,4,Japanese,m,11,1.09391667,-74.06068615,0.25284804
MOT,37,0,2024-06-24T03:17:07.225Z,english_834.wav,0,peel,256,25,4,Japanese,m,0,0.0,-86.16375599,1.62153397
MOT,37,0,2024-06-24T03:17:07.225Z,english_834.wav,0,peel,256,25,4,Japanese,m,1,0.1,-22.09919923,1.42577166
MOT,37,0,2024-06-24T03:17:07.225Z,english_834.wav,0,peel,256,25,4,Japanese,m,2,0.2,63.82090938,1.22840095
MOT,37,0,2024-06-24T03:17:07.225Z,english_834.wav,0,peel,256,25,4,Japanese,m,3,0.3,38.26115817,1.977843
MOT,37,0,2024-06-24T03:17:07.225Z,english_834.wav,0,peel,256,25,4,Japanese,m,4,0.4,15.19654457,0.63466945
MOT,37,0,2024-06-24T03:17:07.225Z,english_834.wav,0,peel,256,25,4,Japanese,m,5,0.5,78.054871,1.94429469
MOT,37,0,2024-06-24T03:17:07.225Z,english_834.wav,0,peel,256,25,4,Japanese,m,6,0.6,63.1081572,0.531594
MOT,37,0,2024-06-24T03:17:07.225Z,english_834.wav,0,peel,256,25,4,Japanese,m,7,0.7,43.43236214,1.34157161
MOT,37,0,2024-06-24T03:17:07.225Z,english_834.wav,0,peel,256,25,4,Japanese,m,8,0.8,-74.3897683,1.32269287
MOT,37,0,2024-06-24T03:17:07.225Z,english_834.wav,0,peel,256,25,4,Japanese,m,9,0.9,40.24285486,1.75386624
MOT,37,0,2024-06-24T03:17:07.225Z,english_834.wav,0,peel,256,25,4,Japanese,m,10,1.0,-67.71571624,1.01238939
MOT,37,0,2024-06-24T03:17:07.225Z,english_834.wav,0,peel,256,25,4,Japanese,m,11,1.09391667,40.03958616,1.44306133
MOT,38,0,2024-06-24T03:17:07.225Z,english_709.wav,0,peel,456,25,4,Japanese,m,0,0.0,54.89445194,0.75029311
MOT,38,0,2024-06-24T03:17:07.225Z,english_709.wav,0,peel,456,25,4,Japanese,m,1,0.1,-13.90675493,1.75887389
MOT,38,0,2024-06-24T03:17:07.225Z,english_709.wav,0,peel,456,25,4,Japanese,m,2,0.2,17.54151592,1.84695168
MOT,38,0,2024-06-24T03:17:07.225Z,english_709.wav,0,peel,456,25,4,Japanese,m,3,0.3,-21.79257769,0.96071145
MOT,38,0,2024-06-24T03:17:07.225Z,english_709.wav,0,peel,456,25,4,Japanese,m,4,0.4,55.10787635,1.22566663
MOT,38,0,2024-06-24T03:17:07.225Z,english_709.wav,0,peel,456,25,4,Japanese,m,5,0.5,-57.13962404,1.94059393
MOT,38,0,2024-06-24T03:17:07.225Z,english_709.wav,0,peel,456,25,4,Japanese,m,6,0.6,-5.37289715,0.52219194
MOT,38,0,2024-06-24T03:17:07.225Z,english_709.wav,0,peel,456,25,4,Japanese,m,7,0.7,27.40236622,0.9142424
MOT,38,0,2024-06-24T03:17:07.225Z,english_709.wav,0,peel,456,25,4,Japanese,m,8,0.8,12.19670027,1.75067757
MOT,38,0,2024-06-24T03:17:07.225Z,english_709.wav,0,peel,456,25,4,Japanese,m,9,0.9,91.20271112,0.7385059
MOT,38,0,2024-06-24T03:17:07.225Z,english_709.wav,0,peel,456,25,4,Japanese,m,10,1.0,89.17036871,1.92412986
MOT,38,0,2024-06-24T03:17:07.225Z,english_709.wav,0,peel,456,25,4,Japanese,m,11,1.09391667,50.36439179,0.79240238
MOT,39,0,2024-06-24T03:17:07.225Z,english_195.wav,0,pill,215,25,4,Japanese,m,0,0.0,-84.31811629,1.00245815
MOT,39,0,2024-06-24T03:17:07.225Z,english_195.wav,0,pill,215,25,4,Japanese,m,1,0.1,-40.4937686,0.37362225
MOT,39,0,2024-06-24T03:17:07.225Z,english_195.wav,0,pill,215,25,4,Japanese,m,2,0.2,43.37920818,1.2771314
MOT,39,0,2024-06-24T03:17:07.225Z,english_195.wav,0,pill,215,25,4,Japanese,m,3,0.3,89.86748729,0.32946516
MOT,39,0,2024-06-24T03:17:07.225Z,english_195.wav,0,pill,215,25,4,Japanese,m,4,0.4,24.49320863,1.39441943
MOT,39,0,2024-06-24T03:17:07.225Z,english_195.wav,0,pill,215,25,4,Japanese,m,5,0.5,-46.40835892,1.30540336
MOT,39,0,2024-06-24T03:17:07.225Z,english_195.wav,0,pill,215,25,4,Japanese,m,6,0.6,35.9505397,0.00236394
MOT,39,0,2024-06-24T03:17:07.225Z,english_195.wav,0,pill,215,25,4,Japanese,m,7,0.7,62.43082011,1.39191992
MOT,39,0,2024-06-24T03:17:07.225Z,english_195.wav,0,pill,215,25,4,Japanese,m,8,0.8,85.56276985,0.22399256
MOT,39,0,2024-06-24T03:17:07.225Z,english_195.wav,0,pill,215,25,4,Japanese,m,9,0.9,52.49119502,0.98445346
MOT,39,0,2024-06-24T03:17:07.225Z,english_195.wav,0,pill,215,25,4,Japanese,m,10,1.0,-55.346187,1.43930771
MOT,39,0,2024-06-24T03:17:07.225Z,english_195.wav,0,pill,215,25,4,Japanese,m,11,1.09391667,-71.70758722,1.96006647
MOT,40,0,2024-06-24T03:17:07.225Z,english_789.wav,0,peel,786,25,4,Japanese,m,0,0.0,50.62849976,1.65376855
MOT,40,0,2024-06-24T03:17:07.225Z,english_789.wav,0,peel,786,25,4,Japanese,m,1,0.1,46.39641285,0.25516595
MOT,40,0,2024-06-24T03:17:07.225Z,english_789.wav,0,peel,786,25,4,Japanese,m,2,0.2,-17.70636983,1.77379995
MOT,40,0,2024-06-24T03:17:07.225Z,english_789.wav,0,peel,786,25,4,Japanese,m,3,0.3,-70.54012265,1.01588482
MOT,40,0,2024-06-24T03:17:07.225Z,english_789.wav,0,peel,786,25,4,Japanese,m,4,0.4,-41.61831808,0.40942594
MOT,40,0,2024-06-24T03:17:07.225Z,english_789.wav,0,peel,786,25,4,Japanese,m,5,0.5,6.76921547,0.77453827
MOT,40,0,2024-06-24T03:17:07.225Z,english_789.wav,0,peel,786,25,4,Japanese,m,6,0.6,-23.06076299,0.48985142
MOT,40,0,2024-06-24T03:17:07.225Z,english_789.wav,0,peel,786,25,4,Japanese,m,7,0.7,12.0616888,0.23736517
MOT,40,0,2024-06-24T03:17:07.225Z,english_789.wav,0,peel,786,25,4,Japanese,m,8,0.8,-0.46236059,1.96173919
MOT,40,0,2024-06-24T03:17:07.225Z,english_789.wav,0,peel,786,25,4,Japanese,m,9,0.9,1.32265195,1.17779465
MOT,40,0,2024-06-24T03:17:07.225Z,english_789.wav,0,peel,786,25,4,Japanese,m,10,1.0,-42.41851316,1.11577027
MOT,40,0,2024-06-24T03:17:07.225Z,english_789.wav,0,peel,786,25,4,Japanese,m,11,1.09391667,16.23009632,0.26104585
MOT,41,0,2024-06-24T03:17:07.225Z,english_704.wav,0,pill,383,25,4,Japanese,m,0,0.0,-66.86347245,1.10852805
MOT,41,0,2024-06-24T03:17:07.225Z,english_704.wav,0,pill,383,25,4,Japanese,m,1,0.1,-33.45070856,1.50534643
MOT,41,0,2024-06-24T03:17:07.225Z,english_704.wav,0,pill,383,25,4,Japanese,m,2,0.2,98.95748792,1.36402955
MOT,41,0,2024-06-24T03:17:07.225Z,english_704.wav,0,pill,383,25,4,Japanese,m,3,0.3,40.39124026,1.09402875
MOT,41,0,2024-06-24T03:17:07.225Z,english_704.wav,0,pill,383,25,4,Japanese,m,4,0.4,76.62361043,0.97410313
MOT,41,0,2024-06-24T03:17:07.225Z,english_704.wav,0,pill,383,25,4,Japanese,m,5,0.5,61.00109246,1.19276443
MOT,41,0,2024-06-24T03:17:07.225Z,english_704.wav,0,pill,383,25,4,Japanese,m,6,0.6,24.61875858,0.71178311
MOT,41,0,2024-06-24T03:17:07.225Z,english_704.wav,0,pill,383,25,4,Japanese,m,7,0.7,32.51289689,1.62027576
MOT,41,0,2024-06-24T03:17:07.225Z,english_704.wav,0,pill,383,25,4,Japanese,m,8,0.8,93.51972076,1.01576623
MOT,41,0,2024-06-24T03:17:07.225Z,english_704.wav,0,pill,383,25,4,Japanese,m,9,0.9,43.30633586,0.07371268
MOT,41,0,2024-06-24T03:17:07.225Z,english_704.wav,0,pill,383,25,4,Japanese,m,10,1.0,5.62352462,0.93560494
MOT,41,0,2024-06-24T03:17:07.225Z,english_704.wav,0,pill,383,25,4,Japanese,m,11,1.09391667,87.81172513,0.13780059
MOT,42,0,2024-06-24T03:17:07.225Z,english_241.wav,0,pill,1530,25,4,Japanese,m,0,0.0,-97.22432216,1.35478851
MOT,42,0,2024-06-24T03:17:07.225Z,english_241.wav,0,pill,1530,25,4,Japanese,m,1,0.1,-28.14905208,0.42795765
MOT,42,0,2024-06-24T03:17:07.225Z,english_241.wav,0,pill,1530,25,4,Japanese,m,2,0.2,47.39910383,0.77593108
MOT,42,0,2024-06-24T03:17:07.225Z,english_241.wav,0,pill,1530,25,4,Japanese,m,3,0.3,62.74698337,1.52084491
MOT,42,0,2024-06-24T03:17:07.225Z,english_241.wav,0,pill,1530,25,4,Japanese,m,4,0.4,42.69629452,1.0423858
MOT,42,0,2024-06-24T03:17:07.225Z,english_241.wav,0,pill,1530,25,4,Japanese,m,5,0.5,-28.86057988,0.26192027
MOT,42,0,2024-06-24T03:17:07.225Z,english_241.wav,0,pill,1530,25,4,Japanese,m,6,0.6,47.37469517,1.65360196
MOT,42,0,2024-06-24T03:17:07.225Z,english_241.wav,0,pill,1530,25,4,Japanese,m,7,0.7,19.60148675,1.3989631
MOT,42,0,2024-06-24T03:17:07.225Z,english_241.wav,0,pill,1530,25,4,Japanese,m,8,0.8,25.28127543,0.94780347
MOT,42,0,2024-06-24T03:17:07.225Z,english_241.wav,0,pill,1530,25,4,Japanese,m,9,0.9,-90.65530928,1.1797356
MOT,42,0,2024-06-24T03:17:07.225Z,english_241.wav,0,pill,1530,25,4,Japanese,m,10,1.0,58.14244463,1.19530939
MOT,42,0,2024-06-24T03:17:07.225Z,english_241.wav,0,pill,1530,25,4,Japanese,m,11,1.09391667,33.70088271,0.5415955
MOT,43,0,2024-06-24T03:17:07.225Z,english_776.wav,0,pill,510,25,4,Japanese,m,0,0.0,87.36983695,0.99012423
MOT,43,0,2024-06-24T03:17:07.225Z,english_776.wav,0,pill,510,25,4,Japanese,m,1,0.1,-7.36044234,0.99897732
MOT,43,0,2024-06-24T03:17:07.225Z,english_776.wav,0,pill,510,25,4,Japanese,m,2,0.2,-78.22847681,1.18840119
MOT,43,0,2024-06-24T03:17:07.225Z,english_776.wav,0,pill,510,25,4,Japanese,m,3,0.3,-28.99379036,1.28345901
MOT,43,0,2024-06-24T03:17:07.225Z,english_776.wav,0,pill,510,25,4,Japanese,m,4,0.4,76.19445877,0.93018475
MOT,43,0,2024-06-24T03:17:07.225Z,english_776.wav,0,pill,510,25,4,Japanese,m,5,0.5,-43.33414,1.3758077
MOT,43,0,2024-06-24T03:17:07.225Z,english_776.wav,0,pill,510,25,4,Japanese,m,6,0.6,-77.80909366,0.61279661
MOT,43,0,2024-06-24T03:17:07.225Z,english_776.wav,0,pill,510,25,4,Japanese,m,7,0.7,-63.14510086,1.13295599
MOT,43,0,2024-06-24T03:17:07.225Z,english_776.wav,0,pill,510,25,4,Japanese,m,8,0.8,70.29145503,0.21705032
MOT,43,0,2024-06-24T03:17:07.225Z,english_776.wav,0,pill,510,25,4,Japanese,m,9,0.9,46.24407769,1.45577739
MOT,43,0,2024-06-24T03:17:07.225Z,english_776.wav,0,pill,510,25,4,Japanese,m,10,1.0,-23.45182889,1.82818043
MOT,43,0,2024-06-24T03:17:07.225Z,english_776.wav,0,pill,510,25,4,Japanese,m,11,1.09391667,72.2860477,0.32191232
MOT,44,0,2024-06-24T03:17:07.225Z,english_36.wav,0,pill,238,25,4,Japanese,m,0,0.0,-9.00477988,0.81327237
MOT,44,0,2024-06-24T03:17:07.225Z,english_36.wav,0,pill,238,25,4,Japanese,m,1,0.1,-13.45702302,0.45075004
MOT,44,0,2024-06-24T03:17:07.225Z,english_36.wav,0,pill,238,25,4,Japanese,m,2,0.2,-2.81727849,0.1663237
MOT,44,0,2024-06-24T03:17:07.225Z,english_36.wav,0,pill,238,25,4,Japanese,m,3,0.3,-29.71164893,1.57862109
MOT,44,0,2024-06-24T03:17:07.225Z,english_36.wav,0,pill,238,25,4,Japanese,m,4,0.4,95.72220786,1.7254824
MOT,44,0,2024-06-24T03:17:07.225Z,english_36.wav,0,pill,238,25,4,Japanese,m,5,0.5,-60.23405317,1.10066579
MOT,44,0,2024-06-24T03:17:07.225Z,english_36.wav,0,pill,238,25,4,Japanese,m,6,0.6,-99.2529621,0.59792659
MOT,44,0,2024-06-24T03:17:07.225Z,english_36.wav,0,pill,238,25,4,Japanese,m,7,0.7,-7.64791957,1.42084394
MOT,44,0,2024-06-24T03:17:07.225Z,english_36.wav,0,pill,238,25,4,Japanese,m,8,0.8,-68.45334788,0.87400001
MOT,44,0,2024-06-24T03:17:07.225Z,english_36.wav,0,pill,238,25,4,Japanese,m,9,0.9,91.90753039,1.522223
MOT,44,0,2024-06-24T03:17:07.225Z,english_36.wav,0,pill,238,25,4,Japanese,m,10,1.0,93.40110395,0.56951468
MOT,44,0,2024-06-24T03:17:07.225Z,english_36.wav,0,pill,238,25,4,Japanese,m,11,1.09391667,-27.95691035,1.01798822
MOT,45,0,2024-06-24T03:17:07.225Z,english_997.wav,0,pill,334,25,4,Japanese,m,0,0.0,38.46441577,1.95638345
MOT,45,0,2024-06-24T03:17:07.225Z,english_997.wav,0,pill,334,25,4,Japanese,m,1,0.1,47.75423334,0.16897746
MOT,45,0,2024-06-24T03:17:07.225Z,english_997.wav,0,pill,334,25,4,Japanese,m,2,0.2,-46.19223392,1.34564415
MOT,45,0,2024-06-24T03:17:07.225Z,english_997.wav,0,pill,334,25,4,Japanese,m,3,0.3,-68.42543964,0.45551636
MOT,45,0,2024-06-24T03:17:07.225Z,english_997.wav,0,pill,334,25,4,Japanese,m,4,0.4,-27.52590553,1.56941674
MOT,45,0,2024-06-24T03:17:07.225Z,english_997.wav,0,pill,334,25,4,Japanese,m,5,0.5,-32.76649905,1.12500756
MOT,45,0,2024-06-24T03:17:07.225Z,english_997.wav,0,pill,334,25,4,Japanese,m,6,0.6,-20.83706487,0.26907816
MOT,45,0,2024-06-24T03:17:07.225Z,english_997.wav,0,pill,334,25,4,Japanese,m,7,0.7,-65.74236322,0.81160179
MOT,45,0,2024-06-24T03:17:07.225Z,english_997.wav,0,pill,334,25,4,Japanese,m,8,0.8,-64.07813761,1.2830087
MOT,45,0,2024-06-24T03:17:07.225Z,english_997.wav,0,pill,334,25,4,Japanese,m,9,0.9,35.09593454,0.14193499
MOT,45,0,2024-06-24T03:17:07.225Z,english_997.wav,0,pill,334,25,4,Japanese,m,10,1.0,-66.65072178,1.05446727
MOT,45,0,2024-06-24T03:17:07.225Z,english_997.wav,0,pill,334,25,4,Japanese,m,11,1.09391667,68.83445299,0.54560652
MOT,46,0,2024-06-24T03:17:07.225Z,english_323.wav,0,pill,158,25,4,Japanese,m,0,0.0,40.39415448,1.89273291
MOT,46,0,2024-06-24T03:17:07.225Z,english_323.wav,0,pill,158,25,4,Japanese,m,1,0.1,-3.9805302,1.81857991
MOT,46,0,2024-06-24T03:17:07.225Z,english_323.wav,0,pill,158,25,4,Japanese,m,2,0.2,-8.81191145,0.58180431
MOT,46,0,2024-06-24T03:17:07.225Z,english_323.wav,0,pill,158,25,4,Japanese,m,3,0.3,-8.61923754,0.82209232
MOT,46,0,2024-06-24T03:17:07.225Z,english_323.wav,0,pill,158,25,4,Japanese,m,4,0.4,25.51817053,1.26116311
MOT,46,0,2024-06-24T03:17:07.225Z,english_323.wav,0,pill,158,25,4,Japanese,m,5,0.5,37.95982404,1.9312982
MOT,46,0,2024-06-24T03:17:07.225Z,english_323.wav,0,pill,158,25,4,Japanese,m,6,0.6,-53.30444221,0.90792138
MOT,46,0,2024-06-24T03:17:07.225Z,english_323.wav,0,pill,158,25,4,Japanese,m,7,0.7,54.85383866,0.90655742
MOT,46,0,2024-06-24T03:17:07.225Z,english_323.wav,0,pill,158,25,4,Japanese,m,8,0.8,-9.4086646,0.85964648
MOT,46,0,2024-06-24T03:17:07.225Z,english_323.wav,0,pill,158,25,4,Japanese,m,9,0.9,8.91034325,0.3422022
MOT,46,0,2024-06-24T03:17:07.225Z,english_323.wav,0,pill,158,25,4,Japanese,m,10,1.0,-45.44598831,1.16277549
MOT,46,0,2024-06-24T03:17:07.225Z,english_323.wav,0,pill,158,25,4,Japanese,m,11,1.09391667,-71.60554132,1.39313179
MOT,47,0,2024-06-24T03:17:07.225Z,english_649.wav,0,peel,340,25,4,Japanese,m,0,0.0,54.13337143,0.90685718
MOT,47,0,2024-06-24T03:17:07.225Z,english_649.wav,0,peel,340,25,4,Japanese,m,1,0.1,51.13672213,0.97028986
MOT,47,0,2024-06-24T03:17:07.225Z,english_649.wav,0,peel,340,25,4,Japanese,m,2,0.2,-46.53747516,0.5338014
MOT,47,0,2024-06-24T03:17:07.225Z,english_649.wav,0,peel,340,25,4,Japanese,m,3,0.3,-5.04561857,1.37151822
MOT,47,0,2024-06-24T03:17:07.225Z,english_649.wav,0,peel,340,25,4,Japanese,m,4,0.4,-96.10296837,1.19898074
MOT,47,0,2024-06-24T03:17:07.225Z,english_649.wav,0,peel,340,25,4,Japanese,m,5,0.5,91.1633791,0.83288569
MOT,47,0,2024-06-24T03:17:07.225Z,english_649.wav,0,peel,340,25,4,Japanese,m,6,0.6,40.43734858,1.46195871
MOT,47,0,2024-06-24T03:17:07.225Z,english_649.wav,0,peel,340,25,4,Japanese,m,7,0.7,-6.34456649,0.52535218
MOT,47,0,2024-06-24T03:17:07.225Z,english_649.wav,0,peel,340,25,4,Japanese,m,8,0.8,-47.75781838,0.56197414
MOT,47,0,2024-06-24T03:17:07.225Z,english_649.wav,0,peel,340,25,4,Japanese,m,9,0.9,-30.94847666,1.41697717
MOT,47,0,2024-06-24T03:17:07.225Z,english_649.wav,0,peel,340,25,4,Japanese,m,10,1.0,-10.84084503,1.24330897
MOT,47,0,2024-06-24T03:17:07.225Z,english_649.wav,0,peel,340,25,4,Japanese,m,11,1.09391667,16.60657514,0.55891177
MOT,48,0,2024-06-24T03:17:07.225Z,english_353.wav,0,peel,973,25,4,Japanese,m,0,0.0,-70.67724429,1.06843483
MOT,48,0,2024-06-24T03:17:07.225Z,english_353.wav,0,peel,973,25,4,Japanese,m,1,0.1,-71.688049,0.77169117
MOT,48,0,2024-06-24T03:17:07.225Z,english_353.wav,0,peel,973,25,4,Japanese,m,2,0.2,35.51924952,1.46248358
MOT,48,0,2024-06-24T03:17:07.225Z,english_353.wav,0,peel,973,25,4,Japanese,m,3,0.3,-2.11218413,1.49078151
MOT,48,0,2024-06-24T03:17:07.225Z,english_353.wav,0,peel,973,25,4,Japanese,m,4,0.4,-16.43862389,1.12150818
MOT,48,0,2024-06-24T03:17:07.225Z,english_353.wav,0,peel,973,25,4,Japanese,m,5,0.5,42.52341858,1.51009479
MOT,48,0,2024-06-24T03:17:07.225Z,english_353.wav,0,peel,973,25,4,Japanese,m,6,0.6,-45.01562353,1.56291015
MOT,48,0,2024-06-24T03:17:07.225Z,english_353.wav,0,peel,973,25,4,Japanese,m,7,0.7,41.4367476,1.91892948
MOT,48,0,2024-06-24T03:17:07.225Z,english_353.wav,0,peel,973,25,4,Japanese,m,8,0.8,-7.80846777,1.01197455
MOT,48,0,2024-06-24T03:17:07.225Z,english_353.wav,0,peel,973,25,4,Japanese,m,9,0.9,42.15448352,1.4134273
MOT,48,0,2024-06-24T03:17:07.225Z,english_353.wav,0,peel,973,25,4,Japanese,m,10,1.0,92.0591742,1.42236133
MOT,48,0,2024-06-24T03:17:07.225Z,english_353.wav,0,peel,973,25,4,Japanese,m,11,1.09391667,-12.12221809,0.78816947
MOT,49,0,2024-06-24T03:17:07.225Z,english_968.wav,0,pill,601,25,4,Japanese,m,0,0.0,-60.17022597,0.06507059
MOT,49,0,2024-06-24T03:17:07.225Z,english_968.wav,0,pill,601,25,4,Japanese,m,1,0.1,2.97803036,0.31588679
MOT,49,0,2024-06-24T03:17:07.225Z,english_968.wav,0,pill,601,25,4,Japanese,m,2,0.2,-20.37779246,1.0629249
MOT,49,0,2024-06-24T03:17:07.225Z,english_968.wav,0,pill,601,25,4,Japanese,m,3,0.3,82.14777176,1.23312584
MOT,49,0,2024-06-24T03:17:07.225Z,english_968.wav,0,pill,601,25,4,Japanese,m,4,0.4,-5.56087833,1.08782287
MOT,49,0,2024-06-24T03:17:07.225Z,english_968.wav,0,pill,601,25,4,Japanese,m,5,0.5,-35.42121974,1.76874616
MOT,49,0,2024-06-24T03:17:07.225Z,english_968.wav,0,pill,601,25,4,Japanese,m,6,0.6,6.34490383,1.63852156
MOT,49,0,2024-06-24T03:17:07.225Z,english_968.wav,0,pill,601,25,4,Japanese,m,7,0.7,37.90454217,0.46920885
MOT,49,0,2024-06-24T03:17:07.225Z,english_968.wav,0,pill,601,25,4,Japanese,m,8,0.8,-12.88660641,0.63401231
MOT,49,0,2024-06-24T03:17:07.225Z,english_968.wav,0,pill,601,25,4,Japanese,m,9,0.9,27.25418082,0.6661749
MOT,49,0,2024-06-24T03:17:07.225Z,english_968.wav,0,pill,601,25,4,Japanese,m,10,1.0,-65.60721299,0.97214272
MOT,49,0,2024-06-24T03:17:07.225Z,english_968.wav,0,pill,601,25,4,Japanese,m,11,1.09391667,-45.14164788,1.26320592
MOT,50,1,2024-06-24T03:17:07.225Z,english_713.wav,0,peel,340,25,4,Japanese,m,0,0.0,-93.47933458,1.62613831
MOT,50,1,2024-06-24T03:17:07.225Z,english_713.wav,0,peel,340,25,4,Japanese,m,1,0.1,17.56811932,0.15624323
MOT,50,1,2024-06-24T03:17:07.225Z,english_713.wav,0,peel,340,25,4,Japanese,m,2,0.2,35.67998285,1.16642221
MOT,50,1,2024-06-24T03:17:07.225Z,english_713.wav,0,peel,340,25,4,Japanese,m,3,0.3,22.32245501,1.85687669
MOT,50,1,2024-06-24T03:17:07.225Z,english_713.wav,0,peel,340,25,4,Japanese,m,4,0.4,-55.00810372,0.77296433
MOT,50,1,2024-06-24T03:17:07.225Z,english_713.wav,0,peel,340,25,4,Japanese,m,5,0.5,-25.94753581,0.17905086
MOT,50,1,2024-06-24T03:17:07.225Z,english_713.wav,0,peel,340,25,4,Japanese,m,6,0.6,12.36521929,0.48201302
MOT,50,1,2024-06-24T03:17:07.225Z,english_713.wav,0,peel,340,25,4,Japanese,m,7,0.7,42.68303221,0.74996995
MOT,50,1,2024-06-24T03:17:07.225Z,english_713.wav,0,peel,340,25,4,Japanese,m,8,0.8,68.77442649,1.90885108
MOT,50,1,2024-06-24T03:17:07.225Z,english_713.wav,0,peel,340,25,4,Japanese,m,9,0.9,-39.13144034,0.17419233
MOT,50,1,2024-06-24T03:17:07.225Z,english_713.wav,0,peel,340,25,4,Japanese,m,10,1.0,48.51746803,1.84801942
MOT,50,1,2024-06-24T03:17:07.225Z,english_713.wav,0,peel,340,25,4,Japanese,m,11,1.09391667,-19.71329918,0.87144157
MOT,51,1,2024-06-24T03:17:07.225Z,english_548.wav,0,pill,528,25,4,Japanese,m,0,0.0,-24.88128465,1.63350405
MOT,51,1,2024-06-24T03:17:07.225Z,english_548.wav,0,pill,528,25,4,Japanese,m,1,0.1,1.54687273,0.1653087
MOT,51,1,2024-06-24T03:17:07.225Z,english_548.wav,0,pill,528,25,4,Japanese,m,2,0.2,58.02940435,0.01517729
MOT,51,1,2024-06-24T03:17:07.225Z,english_548.wav,0,pill,528,25,4,Japanese,m,3,0.3,-2.90148727,1.81666457
MOT,51,1,2024-06-24T03:17:07.225Z,english_548.wav,0,pill,528,25,4,Japanese,m,4,0.4,9.31686881,0.9208407
MOT,51,1,2024-06-24T03:17:07.225Z,english_548.wav,0,pill,528,25,4,Japanese,m,5,0.5,-62.70026351,1.35074745
MOT,51,1,2024-06-24T03:17:07.225Z,english_548.wav,0,pill,528,25,4,Japanese,m,6,0.6,-56.6580034,0.86467249
MOT,51,1,2024-06-24T03:17:07.225Z,english_548.wav,0,pill,528,25,4,Japanese,m,7,0.7,14.62965286,1.73416909
MOT,51,1,2024-06-24T03:17:07.225Z,english_548.wav,0,pill,528,25,4,Japanese,m,8,0.8,-14.87483285,1.42113571
MOT,51,1,2024-06-24T03:17:07.225Z,english_548.wav,0,pill,528,25,4,Japanese,m,9,0.9,69.23683794,0.95555023
MOT,51,1,2024-06-24T03:17:07.225Z,english_548.wav,0,pill,528,25,4,Japanese,m,10,1.0,-42.98683333,1.22888343
MOT,51,1,2024-06-24T03:17:07.225Z,english_548.wav,0,pill,528,25,4,Japanese,m,11,1.09391667,67.19958302,1.18114311
MOT,52,1,2024-06-24T03:17:07.225Z,english_831.wav,0,pill,245,25,4,Japanese,m,0,0.0,-21.16656573,0.86887876
MOT,52,1,2024-06-24T03:17:07.225Z,english_831.wav,0,pill,245,25,4,Japanese,m,1,0.1,29.76214341,1.37629655
MOT,52,1,2024-06-24T03:17:07.225Z,english_831.wav,0,pill,245,25,4,Japanese,m,2,0.2,61.45359844,0.63499907
MOT,52,1,2024-06-24T03:17:07.225Z,english_831.wav,0,pill,245,25,4,Japanese,m,3,0.3,6.67004895,0.11279763
MOT,52,1,2024-06-24T03:17:07.225Z,english_831.wav,0,pill,245,25,4,Japanese,m,4,0.4,26.70370751,0.87092561
MOT,52,1,2024-06-24T03:17:07.225Z,english_831.wav,0,pill,245,25,4,Japanese,m,5,0.5,-40.62935301,1.90700704
MOT,52,1,2024-06-24T03:17:07.225Z,english_831.wav,0,pill,245,25,4,Japanese,m,6,0.6,99.09256776,0.52454597
MOT,52,1,2024-06-24T03:17:07.225Z,english_831.wav,0,pill,245,25,4,Japanese,m,7,0.7,79.82257267,0.72073711
MOT,52,1,2024-06-24T03:17:07.225Z,english_831.wav,0,pill,245,25,4,Japanese,m,8,0.8,42.46181289,0.80064374
MOT,52,1,2024-06-24T03:17:07.225Z,english_831.wav,0,pill,245,25,4,Japanese,m,9,0.9,2.20427108,1.04408214
MOT,52,1,2024-06-24T03:17:07.225Z,english_831.wav,0,pill,245,25,4,Japanese,m,10,1.0,64.59275416,0.45079877
MOT,52,1,2024-06-24T03:17:07.225Z,english_831.wav,0,pill,245,25,4,Japanese,m,11,1.09391667,-21.96543836,1.2652147
MOT,53,1,2024-06-24T03:17:07.225Z,english_856.wav,0,peel,526,25,4,Japanese,m,0,0.0,-87.78087501,0.23355411
MOT,53,1,2024-06-24T03:17:07.225Z,english_856.wav,0,peel,526,25,4,Japanese,m,1,0.1,-5.3712764,0.25625776
MOT,53,1,2024-06-24T03:17:07.225Z,english_856.wav,0,peel,526,25,4,Japanese,m,2,0.2,-32.01336506,0.23781871
MOT,53,1,2024-06-24T03:17:07.225Z,english_856.wav,0,peel,526,25,4,Japanese,m,3,0.3,-17.67932292,1.00270159
MOT,53,1,2024-06-24T03:17:07.225Z,english_856.wav,0,peel,526,25,4,Japanese,m,4,0.4,-24.3028662,1.45467938
MOT,53,1,2024-06-24T03:17:07.225Z,english_856.wav,0,peel,526,25,4,Japanese,m,5,0.5,-24.1832065,0.02272775
MOT,53,1,2024-06-24T03:17:07.225Z,english_856.wav,0,peel,526,25,4,Japanese,m,6,0.6,72.09597394,1.47665781
MOT,53,1,2024-06-24T03:17:07.225Z,english_856.wav,0,peel,526,25,4,Japanese,m,7,0.7,99.56545873,1.13119878
MOT,53,1,2024-06-24T03:17:07.225Z,english_856.wav,0,peel,526,25,4,Japanese,m,8,0.8,-38.26985921,1.70416673
MOT,53,1,2024-06-24T03:17:07.225Z,english_856.wav,0,peel,526,25,4,Japanese,m,9,0.9,46.8718891,1.96783156
MOT,53,1,2024-06-24T03:17:07.225Z,english_856.wav,0,peel,526,25,4,Japanese,m,10,1.0,23.13402485,0.77103282
MOT,53,1,2024-06-24T03:17:07.225Z,english_856.wav,0,peel,526,25,4,Japanese,m,11,1.09391667,-57.51825613,1.57872491
MOT,54,1,2024-06-24T03:17:07.225Z,english_398.wav,0,pill,446,25,4,Japanese,m,0,0.0,58.43536872,0.19891774
MOT,54,1,2024-06-24T03:17:07.225Z,english_398.wav,0,pill,446,25,4,Japanese,m,1,0.1,-82.57908231,0.03529734
MOT,54,1,2024-06-24T03:17:07.225Z,english_398.wav,0,pill,446,25,4,Japanese,m,2,0.2,-3.40439415,1.69592316
MOT,54,1,2024-06-24T03:17:07.225Z,english_398.wav,0,pill,446,25,4,Japanese,m,3,0.3,-83.74176257,0.07086845
MOT,54,1,2024-06-24T03:17:07.225Z,english_398.wav,0,pill,446,25,4,Japanese,m,4,0.4,38.89596711,0.77458748
MOT,54,1,2024-06-24T03:17:07.225Z,english_398.wav,0,pill,446,25,4,Japanese,m,5,0.5,63.49142751,1.25980126
MOT,54,1,2024-06-24T03:17:07.225Z,english_398.wav,0,pill,446,25,4,Japanese,m,6,0.6,64.24765223,1.54445807
MOT,54,1,2024-06-24T03:17:07.225Z,english_398.wav,0,pill,446,25,4,Japanese,m,7,0.7,24.37031282,0.23015685
MOT,54,1,2024-06-24T03:17:07.225Z,english_398.wav,0,pill,446,25,4,Japanese,m,8,0.8,18.2651004,0.80693823
MOT,54,1,2024-06-24T03:17:07.225Z,english_398.wav,0,pill,446,25,4,Japanese,m,9,0.9,-3.768449,0.61010049
MOT,54,1,2024-06-24T03:17:07.225Z,english_398.wav,0,pill,446,25,4,Japanese,m,10,1.0,55.48069175,0.09811637
MOT,54,1,2024-06-24T03:17:07.225Z,english_398.wav,0,pill,446,25,4,Japanese,m,11,1.09391667,-2.34176887,1.22967895
MOT,55,1,2024-06-24T03:17:07.225Z,english_922.wav,0,peel,436,25,4,Japanese,m,0,0.0,61.1700044,0.77397562
MOT,55,1,2024-06-24T03:17:07.225Z,english_922.wav,0,peel,436,25,4,Japanese,m,1,0.1,82.06984085,1.14937293
MOT,55,1,2024-06-24T03:17:07.225Z,english_922.wav,0,peel,436,25,4,Japanese,m,2,0.2,-92.27579322,1.03435185
MOT,55,1,2024-06-24T03:17:07.225Z,english_922.wav,0,peel,436,25,4,Japanese,m,3,0.3,89.90024406,0.69514863
MOT,55,1,2024-06-24T03:17:07.225Z,english_922.wav,0,peel,436,25,4,Japanese,m,4,0.4,36.91510644,0.29090795
MOT,55,1,2024-06-24T03:17:07.225Z,english_922.wav,0,peel,436,25,4,Japanese,m,5,0.5,-58.72846655,0.08046627
MOT,55,1,2024-06-24T03:17:07.225Z,english_922.wav,0,peel,436,25,4,Japanese,m,6,0.6,85.21548547,0.39343329
MOT,55,1,2024-06-24T03:17:07.225Z,english_922.wav,0,peel,436,25,4,Japanese,m,7,0.7,32.72450866,0.50557621
MOT,55,1,2024-06-24T03:17:07.225Z,english_922.wav,0,peel,436,25,4,Japanese,m,8,0.8,50.92998004,1.28859728
MOT,55,1,2024-06-24T03:17:07.225Z,english_922.wav,0,peel,436,25,4,Japanese,m,9,0.9,-26.56973856,0.44286158
MOT,55,1,2024-06-24T03:17:07.225Z,english_922.wav,0,peel,436,25,4,Japanese,m,10,1.0,-43.37360145,1.43016745
MOT,55,1,2024-06-24T03:17:07.225Z,english_922.wav,0,peel,436,25,4,Japanese,m,11,1.09391667,-17.2071356,1.42163313
MOT,56,1,2024-06-24T03:17:07.225Z,english_211.wav,0,peel,1422,25,4,Japanese,m,0,0.0,-80.71487731,0.76887991
MOT,56,1,2024-06-24T03:17:07.225Z,english_211.wav,0,peel,1422,25,4,Japanese,m,1,0.1,-84.93103541,0.20306802
MOT,56,1,2024-06-24T03:17:07.225Z,english_211.wav,0,peel,1422,25,4,Japanese,m,2,0.2,44.45354712,0.68006184
MOT,56,1,2024-06-24T03:17:07.225Z,english_211.wav,0,peel,1422,25,4,Japanese,m,3,0.3,93.3584913,1.00051335
MOT,56,1,2024-06-24T03:17:07.225Z,english_211.wav,0,peel,1422,25,4,Japanese,m,4,0.4,-88.5655354,1.99828121
MOT,56,1,2024-06-24T03:17:07.225Z,english_211.wav,0,peel,1422,25,4,Japanese,m,5,0.5,58.50265478,0.71004269
MOT,56,1,2024-06-24T03:17:07.225Z,english_211.wav,0,peel,1422,25,4,Japanese,m,6,0.6,42.72435837,1.91299509
MOT,56,1,2024-06-24T03:17:07.225Z,english_211.wav,0,peel,1422,25,4,Japanese,m,7,0.7,15.71938112,1.01891246
MOT,56,1,2024-06-24T03:17:07.225Z,english_211.wav,0,peel,1422,25,4,Japanese,m,8,0.8,7.70597987,1.53959141
MOT,56,1,2024-06-24T03:17:07.225Z,english_211.wav,0,peel,1422,25,4,Japanese,m,9,0.9,-16.73581283,1.64058726
MOT,56,1,2024-06-24T03:17:07.225Z,english_211.wav,0,peel,1422,25,4,Japanese,m,10,1.0,-59.877834,1.4823545
MOT,56,1,2024-06-24T03:17:07.225Z,english_211.wav,0,peel,1422,25,4,Japanese,m,11,1.09391667,39.92997673,1.39164399
MOT,57,1,2024-06-24T03:17:07.225Z,english_870.wav,0,peel,296,25,4,Japanese,m,0,0.0,-10.19485028,1.28314202
MOT,57,1,2024-06-24T03:17:07.225Z,english_870.wav,0,peel,296,25,4,Japanese,m,1,0.1,-62.4912138,1.44892478
MOT,57,1,2024-06-24T03:17:07.225Z,english_870.wav,0,peel,296,25,4,Japanese,m,2,0.2,56.79130636,0.62092799
MOT,57,1,2024-06-24T03:17:07.225Z,english_870.wav,0,peel,296,25,4,Japanese,m,3,0.3,3.41179192,1.28353317
MOT,57,1,2024-06-24T03:17:07.225Z,english_870.wav,0,peel,296,25,4,Japanese,m,4,0.4,-80.2215644,1.45288086
MOT,57,1,2024-06-24T03:17:07.225Z,english_870.wav,0,peel,296,25,4,Japanese,m,5,0.5,-90.45848629,1.10334306
MOT,57,1,2024-06-24T03:17:07.225Z,english_870.wav,0,peel,296,25,4,Japanese,m,6,0.6,6.2395523,0.6890166
MOT,57,1,2024-06-24T03:17:07.225Z,english_870.wav,0,peel,296,25,4,Japanese,m,7,0.7,44.03110365,0.08579582
MOT,57,1,2024-06-24T03:17:07.225Z,english_870.wav,0,peel,296,25,4,Japanese,m,8,0.8,32.75346015,1.94514676
MOT,57,1,2024-06-24T03:17:07.225Z,english_870.wav,0,peel,296,25,4,Japanese,m,9,0.9,-87.8039942,1.1771082
MOT,57,1,2024-06-24T03:17:07.225Z,english_870.wav,0,peel,296,25,4,Japanese,m,10,1.0,-97.59106416,1.63352455
MOT,57,1,2024-06-24T03:17:07.225Z,english_870.wav,0,peel,296,25,4,Japanese,m,11,1.09391667,-59.44446254,1.47532635
MOT,58,1,2024-06-24T03:17:07.225Z,english_424.wav,0,pill,401,25,4,Japanese,m,0,0.0,-17.35907603,1.03823748
MOT,58,1,2024-06-24T03:17:07.225Z,english_424.wav,0,pill,401,25,4,Japanese,m,1,0.1,18.81369918,0.96868976
MOT,58,1,2024-06-24T03:17:07.225Z,english_424.wav,0,pill,401,25,4,Japanese,m,2,0.2,55.92500366,1.67797376
MOT,58,1,2024-06-24T03:17:07.225Z,english_424.wav,0,pill,401,25,4,Japanese,m,3,0.3,45.08785435,1.44469234
MOT,58,1,2024-06-24T03:17:07.225Z,english_424.wav,0,pill,401,25,4,Japanese,m,4,0.4,3.17174712,0.62957499
MOT,58,1,2024-06-24T03:17:07.225Z,english_424.wav,0,pill,401,25,4,Japanese,m,5,0.5,-30.69278374,1.7765397
MOT,58,1,2024-06-24T03:17:07.225Z,english_424.wav,0,pill,401,25,4,Japanese,m,6,0.6,41.43178992,1.27231114
MOT,58,1,2024-06-24T03:17:07.225Z,english_424.wav,0,pill,401,25,4,Japanese,m,7,0.7,-46.28602692,0.02713593
MOT,58,1,2024-06-24T03:17:07.225Z,english_424.wav,0,pill,401,25,4,Japanese,m,8,0.8,-38.81280045,0.44344556
MOT,58,1,2024-06-24T03:17:07.225Z,english_424.wav,0,pill,401,25,4,Japanese,m,9,0.9,-42.19882472,0.86812909
MOT,58,1,2024-06-24T03:17:07.225Z,english_424.wav,0,pill,401,25,4,Japanese,m,10,1.0,-88.98684391,1.07480581
MOT,58,1,2024-06-24T03:17:07.225Z,english_424.wav,0,pill,401,25,4,Japanese,m,11,1.09391667,-92.81820885,0.17756303
MOT,59,1,2024-06-24T03:17:07.225Z,english_38.wav,0,peel,391,25,4,Japanese,m,0,0.0,84.84297862,0.12127835
MOT,59,1,2024-06-24T03:17:07.225Z,english_38.wav,0,peel,391,25,4,Japanese,m,1,0.1,-41.13766339,0.39553601
MOT,59,1,2024-06-24T03:17:07.225Z,english_38.wav,0,peel,391,25,4,Japanese,m,2,0.2,31.0243005,1.29400733
MOT,59,1,2024-06-24T03:17:07.225Z,english_38.wav,0,peel,391,25,4,Japanese,m,3,0.3,51.71643077,0.38578685
MOT,59,1,2024-06-24T03:17:07.225Z,english_38.wav,0,peel,391,25,4,Japanese,m,4,0.4,-15.52187673,0.67216324
MOT,59,1,2024-06-24T03:17:07.225Z,english_38.wav,0,peel,391,25,4,Japanese,m,5,0.5,37.47478577,0.61922356
MOT,59,1,2024-06-24T03:17:07.225Z,english_38.wav,0,peel,391,25,4,Japanese,m,6,0.6,27.01527087,0.0538602
MOT,59,1,2024-06-24T03:17:07.225Z,english_38.wav,0,peel,391,25,4,Japanese,m,7,0.7,44.60136097,0.56901487
MOT,59,1,2024-06-24T03:17:07.225Z,english_38.wav,0,peel,391,25,4,Japanese,m,8,0.8,-52.37417606,1.28646438
MOT,59,1,2024-06-24T03:17:07.225Z,english_38.wav,0,peel,391,25,4,Japanese,m,9,0.9,-48.58777174,0.80149466
MOT,59,1,2024-06-24T03:17:07.225Z,english_38.wav,0,peel,391,25,4,Japanese,m,10,1.0,7.20305444,1.28981754
MOT,59,1,2024-06-24T03:17:07.225Z,english_38.wav,0,peel,391,25,4,Japanese,m,11,1.09391667,-74.66052111,0.46742112
MOT,60,1,2024-06-24T03:17:07.225Z,english_796.wav,0,pill,762,25,4,Japanese,m,0,0.0,23.83274793,0.06036971
MOT,60,1,2024-06-24T03:17:07.225Z,english_796.wav,0,pill,762,25,4,Japanese,m,1,0.1,58.93639275,1.88058462
MOT,60,1,2024-06-24T03:17:07.225Z,english_796.wav,0,pill,762,25,4,Japanese,m,2,0.2,38.21414004,0.18227098
MOT,60,1,2024-06-24T03:17:07.225Z,english_796.wav,0,pill,762,25,4,Japanese,m,3,0.3,28.9924604,1.37773272
MOT,60,1,2024-06-24T03:17:07.225Z,english_796.wav,0,pill,762,25,4,Japanese,m,4,0.4,-7.06068982,1.64549947
MOT,60,1,2024-06-24T03:17:07.225Z,english_796.wav,0,pill,762,25,4,Japanese,m,5,0.5,-87.6291124,1.67194705
MOT,60,1,2024-06-24T03:17:07.225Z,english_796.wav,0,pill,762,25,4,Japanese,m,6,0.6,-19.55999428,0.64689213
MOT,60,1,2024-06-24T03:17:07.225Z,english_796.wav,0,pill,762,25,4,Japanese,m,7,0.7,12.86748648,1.59726084
MOT,60,1,2024-06-24T03:17:07.225Z,english_796.wav,0,pill,762,25,4,Japanese,m,8,0.8,60.66600698,0.96069219
MOT,60,1,2024-06-24T03:17:07.225Z,english_796.wav,0,pill,762,25,4,Japanese,m,9,0.9,63.14579763,1.00931817
MOT,60,1,2024-06-24T03:17:07.225Z,english_796.wav,0,pill,762,25,4,Japanese,m,10,1.0,38.43403738,1.05195825
MOT,60,1,2024-06-24T03:17:07.225Z,english_796.wav,0,pill,762,25,4,Japanese,m,11,1.09391667,-11.41285249,1.96327853
MOT,61,1,2024-06-24T03:17:07.225Z,english_135.wav,0,pill,558,25,4,Japanese,m,0,0.0,1.52771956,1.05574256
MOT,61,1,2024-06-24T03:17:07.225Z,english_135.wav,0,pill,558,25,4,Japanese,m,1,0.1,87.85930758,0.07400982
MOT,61,1,2024-06-24T03:17:07.225Z,english_135.wav,0,pill,558,25,4,Japanese,m,2,0.2,10.69232429,1.27555025
MOT,61,1,2024-06-24T03:17:07.225Z,english_135.wav,0,pill,558,25,4,Japanese,m,3,0.3,-30.56293348,1.65548466
MOT,61,1,2024-06-24T03:17:07.225Z,english_135.wav,0,pill,558,25,4,Japanese,m,4,0.4,18.68768105,0.65488565
MOT,61,1,2024-06-24T03:17:07.225Z,english_135.wav,0,pill,558,25,4,Japanese,m,5,0.5,83.74749446,1.6850938
MOT,61,1,2024-06-24T03:17:07.225Z,english_135.wav,0,pill,558,25,4,Japanese,m,6,0.6,2.30267465,0.17916719
MOT,61,1,2024-06-24T03:17:07.225Z,english_135.wav,0,pill,558,25,4,Japanese,m,7,0.7,10.55624665,0.7091252
MOT,61,1,2024-06-24T03:17:07.225Z,english_135.wav,0,pill,558,25,4,Japanese,m,8,0.8,-52.17497639,1.14424326
MOT,61,1,2024-06-24T03:17:07.225Z,english_135.wav,0,pill,558,25,4,Japanese,m,9,0.9,63.1552018,0.08021557
MOT,61,1,2024-06-24T03:17:07.225Z,english_135.wav,0,pill,558,25,4,Japanese,m,10,1.0,32.56027872,1.28558373
MOT,61,1,2024-06-24T03:17:07.225Z,english_135.wav,0,pill,558,25,4,Japanese,m,11,1.09391667,49.01841871,0.80254185
MOT,62,1,2024-06-24T03:17:07.225Z,english_294.wav,0,peel,873,25,4,Japanese,m,0,0.0,-35.26170476,0.76895084
MOT,62,1,2024-06-24T03:17:07.225Z,english_294.wav,0,peel,873,25,4,Japanese,m,1,0.1,-68.79847515,0.42345848
MOT,62,1,2024-06-24T03:17:07.225Z,english_294.wav,0,peel,873,25,4,Japanese,m,2,0.2,21.65443345,1.88759315
MOT,62,1,2024-06-24T03:17:07.225Z,english_294.wav,0,peel,873,25,4,Japanese,m,3,0.3,18.61336719,0.20743541
MOT,62,1,2024-06-24T03:17:07.225Z,english_294.wav,0,peel,873,25,4,Japanese,m,4,0.4,29.14118392,0.10193981
MOT,62,1,2024-06-24T03:17:07.225Z,english_294.wav,0,peel,873,25,4,Japanese,m,5,0.5,-0.79474297,0.31438326
MOT,62,1,2024-06-24T03:17:07.225Z,english_294.wav,0,peel,873,25,4,Japanese,m,6,0.6,-83.10715175,1.2995954
MOT,62,1,2024-06-24T03:17:07.225Z,english_294.wav,0,peel,873,25,4,Japanese,m,7,0.7,-22.63410673,1.94703728
MOT,62,1,2024-06-24T03:17:07.225Z,english_294.wav,0,peel,873,25,4,Japanese,m,8,0.8,-21.26415856,0.92366458
MOT,62,1,2024-06-24T03:17:07.225Z,english_294.wav,0,peel,873,25,4,Japanese,m,9,0.9,47.90727918,1.04223302
MOT,62,1,2024-06-24T03:17:07.225Z,english_294.wav,0,peel,873,25,4,Japanese,m,10,1.0,-39.88232682,1.01801331
MOT,62,1,2024-06-24T03:17:07.225Z,english_294.wav,0,peel,873,25,4,Japanese,m,11,1.09391667,-74.09279353,0.911147
MOT,63,1,2024-06-24T03:17:07.225Z,english_132.wav,0,pill,496,25,4,Japanese,m,0,0.0,0.80878803,1.8484575
MOT,63,1,2024-06-24T03:17:07.225Z,english_132.wav,0,pill,496,25,4,Japanese,m,1,0.1,-89.46369243,0.19659267
MOT,63,1,2024-06-24T03:17:07.225Z,english_132.wav,0,pill,496,25,4,Japanese,m,2,0.2,-42.02740452,0.98704764
MOT,63,1,2024-06-24T03:17:07.225Z,english_132.wav,0,pill,496,25,4,Japanese,m,3,0.3,-31.54071999,0.90975168
MOT,63,1,2024-06-24T03:17:07.225Z,english_132.wav,0,pill,496,25,4,Japanese,m,4,0.4,0.25010778,1.48690857
MOT,63,1,2024-06-24T03:17:07.225Z,english_132.wav,0,pill,496,25,4,Japanese,m,5,0.5,58.11815913,1.16973021
MOT,63,1,2024-06-24T03:17:07.225Z,english_132.wav,0,pill,496,25,4,Japanese,m,6,0.6,81.96461668,0.00206468
MOT,63,1,2024-06-24T03:17:07.225Z,english_132.wav,0,pill,496,25,4,Japanese,m,7,0.7,-44.50191201,0.61136538
MOT,63,1,2024-06-24T03:17:07.225Z,english_132.wav,0,pill,496,25,4,Japanese,m,8,0.8,-95.34081409,0.53595083
MOT,63,1,2024-06-24T03:17:07.225Z,english_132.wav,0,pill,496,25,4,Japanese,m,9,0.9,-97.06518429,0.1294964
MOT,63,1,2024-06-24T03:17:07.225Z,english_132.wav,0,pill,496,25,4,Japanese,m,10,1.0,9.04827132,0.71465456
MOT,63,1,2024-06-24T03:17:07.225Z,english_132.wav,0,pill,496,25,4,Japanese,m,11,1.09391667,76.3058936,0.51987053
MOT,64,1,2024-06-24T03:17:07.225Z,english_472.wav,0,pill,1147,25,4,Japanese,m,0,0.0,-23.72821767,0.96911452
MOT,64,1,2024-06-24T03:17:07.225Z,english_472.wav,0,pill,1147,25,4,Japanese,m,1,0.1,7.29471696,0.40121138
MOT,64,1,2024-06-24T03:17:07.225Z,english_472.wav,0,pill,1147,25,4,Japanese,m,2,0.2,-58.55005371,1.15410482
MOT,64,1,2024-06-24T03:17:07.225Z,english_472.wav,0,pill,1147,25,4,Japanese,m,3,0.3,77.0504256,1.91400861
MOT,64,1,2024-06-24T03:17:07.225Z,english_472.wav,0,pill,1147,25,4,Japanese,m,4,0.4,87.29275565,0.05830067
MOT,64,1,2024-06-24T03:17:07.225Z,english_472.wav,0,pill,1147,25,4,Japanese,m,5,0.5,-70.9646192,0.87176087
MOT,64,1,2024-06-24T03:17:07.225Z,english_472.wav,0,pill,1147,25,4,Japanese,m,6,0.6,72.82743185,0.23371631
MOT,64,1,2024-06-24T03:17:07.225Z,english_472.wav,0,pill,1147,25,4,Japanese,m,7,0.7,-40.27439915,1.66198616
MOT,64,1,2024-06-24T03:17:07.225Z,english_472.wav,0,pill,1147,25,4,Japanese,m,8,0.8,-15.91396931,0.22492459
MOT,64,1,2024-06-24T03:17:07.225Z,english_472.wav,0,pill,1147,25,4,Japanese,m,9,0.9,27.40014094,0.55757982
MOT,64,1,2024-06-24T03:17:07.225Z,english_472.wav,0,pill,1147,25,4,Japanese,m,10,1.0,-13.69917785,1.15387827
MOT,64,1,2024-06-24T03:17:07.225Z,english_472.wav,0,pill,1147,25,4,Japanese,m,11,1.09391667,26.78237701,1.85526867
MOT,65,1,2024-06-24T03:17:07.225Z,english_134.wav,0,pill,592,25,4,Japanese,m,0,0.0,-24.26834644,1.03045274
MOT,65,1,2024-06-24T03:17:07.225Z,english_134.wav,0,pill,592,25,4,Japanese,m,1,0.1,0.87898814,1.86888255
MOT,65,1,2024-06-24T03:17:07.225Z,english_134.wav,0,pill,592,25,4,Japanese,m,2,0.2,29.43994061,1.70405425
MOT,65,1,2024-06-24T03:17:07.225Z,english_134.wav,0,pill,592,25,4,Japanese,m,3,0.3,21.82945731,1.34767033
MOT,65,1,2024-06-24T03:17:07.225Z,english_134.wav,0,pill,592,25,4,Japanese,m,4,0.4,49.09743773,0.8443881
MOT,65,1,2024-06-24T03:17:07.225Z,english_134.wav,0,pill,592,25,4,Japanese,m,5,0.5,-15.97258886,1.38979788
MOT,65,1,2024-06-24T03:17:07.225Z,english_134.wav,0,pill,592,25,4,Japanese,m,6,0.6,13.73233931,1.1830035
MOT,65,1,2024-06-24T03:17:07.225Z,english_134.wav,0,pill,592,25,4,Japanese,m,7,0.7,-18.88709324,1.43950556
MOT,65,1,2024-06-24T03:17:07.225Z,english_134.wav,0,pill,592,25,4,Japanese,m,8,0.8,13.58093601,1.18211722
MOT,65,1,2024-06-24T03:17:07.225Z,english_134.wav,0,pill,592,25,4,Japanese,m,9,0.9,74.79947006,0.44903969
MOT,65,1,2024-06-24T03:17:07.225Z,english_134.wav,0,pill,592,25,4,Japanese,m,10,1.0,-49.15519577,0.93357228
MOT,65,1,2024-06-24T03:17:07.225Z,english_134.wav,0,pill,592,25,4,Japanese,m,11,1.09391667,18.17659257,1.8466086
MOT,66,1,2024-06-24T03:17:07.225Z,english_139.wav,0,pill,1471,25,4,Japanese,m,0,0.0,81.69119698,1.27933894
MOT,66,1,2024-06-24T03:17:07.225Z,english_139.wav,0,pill,1471,25,4,Japanese,m,1,0.1,42.19378668,0.17402895
MOT,66,1,2024-06-24T03:17:07.225Z,english_139.wav,0,pill,1471,25,4,Japanese,m,2,0.2,-40.74285827,0.51201081
MOT,66,1,2024-06-24T03:17:07.225Z,english_139.wav,0,pill,1471,25,4,Japanese,m,3,0.3,49.20247594,0.94873681
MOT,66,1,2024-06-24T03:17:07.225Z,english_139.wav,0,pill,1471,25,4,Japanese,m,4,0.4,-31.78428617,1.19745534
MOT,66,1,2024-06-24T03:17:07.225Z,english_139.wav,0,pill,1471,25,4,Japanese,m,5,0.5,33.76293525,0.67270535
MOT,66,1,2024-06-24T03:17:07.225Z,english_139.wav,0,pill,1471,25,4,Japanese,m,6,0.6,7.11439176,1.44433094
MOT,66,1,2024-06-24T03:17:07.225Z,english_139.wav,0,pill,1471,25,4,Japanese,m,7,0.7,-18.31872173,0.44605891
MOT,66,1,2024-06-24T03:17:07.225Z,english_139.wav,0,pill,1471,25,4,Japanese,m,8,0.8,79.70412409,0.81778602
MOT,66,1,2024-06-24T03:17:07.225Z,english_139.wav,0,pill,1471,25,4,Japanese,m,9,0.9,-88.5628162,1.24773735
MOT,66,1,2024-06-24T03:17:07.225Z,english_139.wav,0,pill,1471,25,4,Japanese,m,10,1.0,-65.12448171,0.00984113
MOT,66,1,2024-06-24T03:17:07.225Z,english_139.wav,0,pill,1471,25,4,Japanese,m,11,1.09391667,11.63103966,1.43403062
MOT,67,1,2024-06-24T03:17:07.225Z,english_246.wav,0,pill,319,25,4,Japanese,m,0,0.0,65.19555702,1.04626937
MOT,67,1,2024-06-24T03:17:07.225Z,english_246.wav,0,pill,319,25,4,Japanese,m,1,0.1,-88.31116696,1.63597079
MOT,67,1,2024-06-24T03:17:07.225Z,english_246.wav,0,pill,319,25,4,Japanese,m,2,0.2,-87.15645837,1.95419498
MOT,67,1,2024-06-24T03:17:07.225Z,english_246.wav,0,pill,319,25,4,Japanese,m,3,0.3,57.84934166,0.56872665
MOT,67,1,2024-06-24T03:17:07.225Z,english_246.wav,0,pill,319,25,4,Japanese,m,4,0.4,-76.45557784,0.40309221
MOT,67,1,2024-06-24T03:17:07.225Z,english_246.wav,0,pill,319,25,4,Japanese,m,5,0.5,66.32688278,1.93282921
MOT,67,1,2024-06-24T03:17:07.225Z,english_246.wav,0,pill,319,25,4,Japanese,m,6,0.6,93.44738027,1.28213971
MOT,67,1,2024-06-24T03:17:07.225Z,english_246.wav,0,pill,319,25,4,Japanese,m,7,0.7,54.7923908,1.70127241
MOT,67,1,2024-06-24T03:17:07.225Z,english_246.wav,0,pill,319,25,4,Japanese,m,8,0.8,-1.38437059,0.15014799
MOT,67,1,2024-06-24T03:17:07.225Z,english_246.wav,0,pill,319,25,4,Japanese,m,9,0.9,5.22264847,1.21649106
MOT,67,1,2024-06-24T03:17:07.225Z,english_246.wav,0,pill,319,25,4,Japanese,m,10,1.0,-11.85909484,1.48942771
MOT,67,1,2024-06-24T03:17:07.225Z,english_246.wav,0,pill,319,25,4,Japanese,m,11,1.09391667,65.00290812,0.35768018
MOT,68,1,2024-06-24T03:17:07.225Z,english_700.wav,0,pill,625,25,4,Japanese,m,0,0.0,68.07429642,0.65814928
MOT,68,1,2024-06-24T03:17:07.225Z,english_700.wav,0,pill,625,25,4,Japanese,m,1,0.1,-37.49377634,0.17735138
MOT,68,1,2024-06-24T03:17:07.225Z,english_700.wav,0,pill,625,25,4,Japanese,m,2,0.2,-23.04099004,0.86512997
MOT,68,1,2024-06-24T03:17:07.225Z,english_700.wav,0,pill,625,25,4,Japanese,m,3,0.3,29.04143541,1.58435568
MOT,68,1,2024-06-24T03:17:07.225Z,english_700.wav,0,pill,625,25,4,Japanese,m,4,0.4,20.45754453,1.51654074
MOT,68,1,2024-06-24T03:17:07.225Z,english_700.wav,0,pill,625,25,4,Japanese,m,5,0.5,37.24109952,1.28756254
MOT,68,1,2024-06-24T03:17:07.225Z,english_700.wav,0,pill,625,25,4,Japanese,m,6,0.6,39.64018777,0.60860264
MOT,68,1,2024-06-24T03:17:07.225Z,english_700.wav,0,pill,625,25,4,Japanese,m,7,0.7,51.86520487,1.44468929
MOT,68,1,2024-06-24T03:17:07.225Z,english_700.wav,0,pill,625,25,4,Japanese,m,8,0.8,48.29334393,1.11255223
MOT,68,1,2024-06-24T03:17:07.225Z,english_700.wav,0,pill,625,25,4,Japanese,m,9,0.9,69.44263224,0.2005319
MOT,68,1,2024-06-24T03:17:07.225Z,english_700.wav,0,pill,625,25,4,Japanese,m,10,1.0,-89.62778161,1.42301772
MOT,68,1,2024-06-24T03:17:07.225Z,english_700.wav,0,pill,625,25,4,Japanese,m,11,1.09391667,-27.88856176,1.42118254
MOT,69,1,2024-06-24T03:17:07.225Z,english_145.wav,0,pill,1046,25,4,Japanese,m,0,0.0,33.46233159,0.5633393
MOT,69,1,2024-06-24T03:17:07.225Z,english_145.wav,0,pill,1046,25,4,Japanese,m,1,0.1,-61.60936231,1.7411418
MOT,69,1,2024-06-24T03:17:07.225Z,english_145.wav,0,pill,1046,25,4,Japanese,m,2,0.2,77.17787096,1.3932683
MOT,69,1,2024-06-24T03:17:07.225Z,english_145.wav,0,pill,1046,25,4,Japanese,m,3,0.3,52.31633647,0.64008683
MOT,69,1,2024-06-24T03:17:07.225Z,english_145.wav,0,pill,1046,25,4,Japanese,m,4,0.4,50.97764834,0.69845382
MOT,69,1,2024-06-24T03:17:07.225Z,english_145.wav,0,pill,1046,25,4,Japanese,m,5,0.5,94.06594582,1.78155535
MOT,69,1,2024-06-24T03:17:07.225Z,english_145.wav,0,pill,1046,25,4,Japanese,m,6,0.6,-40.82786952,0.94197467
MOT,69,1,2024-06-24T03:17:07.225Z,english_145.wav,0,pill,1046,25,4,Japanese,m,7,0.7,-67.26734542,0.64900441
MOT,69,1,2024-06-24T03:17:07.225Z,english_145.wav,0,pill,1046,25,4,Japanese,m,8,0.8,59.11900107,1.89522637
MOT,69,1,2024-06-24T03:17:07.225Z,english_145.wav,0,pill,1046,25,4,Japanese,m,9,0.9,-56.17437001,0.96282543
MOT,69,1,2024-06-24T03:17:07.225Z,english_145.wav,0,pill,1046,25,4,Japanese,m,10,1.0,-15.19613378,0.73054996
MOT,69,1,2024-06-24T03:17:07.225Z,english_145.wav,0,pill,1046,25,4,Japanese,m,11,1.09391667,90.15311402,0.69896131
MOT,70,1,2024-06-24T03:17:07.225Z,english_515.wav,0,pill,753,25,4,Japanese,m,0,0.0,-58.23176372,1.22843541
MOT,70,1,2024-06-24T03:17:07.225Z,english_515.wav,0,pill,753,25,4,Japanese,m,1,0.1,-76.45173976,1.63015901
MOT,70,1,2024-06-24T03:17:07.225Z,english_515.wav,0,pill,753,25,4,Japanese,m,2,0.2,25.49902523,1.20813881
MOT,70,1,2024-06-24T03:17:07.225Z,english_515.wav,0,pill,753,25,4,Japanese,m,3,0.3,5.27103545,0.47612476
MOT,70,1,2024-06-24T03:17:07.225Z,english_515.wav,0,pill,753,25,4,Japanese,m,4,0.4,-41.64983344,0.26545174
MOT,70,1,2024-06-24T03:17:07.225Z,english_515.wav,0,pill,753,25,4,Japanese,m,5,0.5,-51.29888172,1.8557412
MOT,70,1,2024-06-24T03:17:07.225Z,english_515.wav,0,pill,753,25,4,Japanese,m,6,0.6,65.36966432,0.81547092
MOT,70,1,2024-06-24T03:17:07.225Z,english_515.wav,0,pill,753,25,4,Japanese,m,7,0.7,-56.17839976,1.63185656
MOT,70,1,2024-06-24T03:17:07.225Z,english_515.wav,0,pill,753,25,4,Japanese,m,8,0.8,-12.23547481,0.09263004
MOT,70,1,2024-06-24T03:17:07.225Z,english_515.wav,0,pill,753,25,4,Japanese,m,9,0.9,-89.1418522,1.76127396
MOT,70,1,2024-06-24T03:17:07.225Z,english_515.wav,0,pill,753,25,4,Japanese,m,10,1.0,8.96872742,0.57224671
MOT,70,1,2024-06-24T03:17:07.225Z,english_515.wav,0,pill,753,25,4,Japanese,m,11,1.09391667,-18.30503433,1.26155121
MOT,71,1,2024-06-24T03:17:07.225Z,english_691.wav,0,pill,925,25,4,Japanese,m,0,0.0,53.99142335,1.37901611
MOT,71,1,2024-06-24T03:17:07.225Z,english_691.wav,0,pill,925,25,4,Japanese,m,1,0.1,59.99308562,0.48516991
MOT,71,1,2024-06-24T03:17:07.225Z,english_691.wav,0,pill,925,25,4,Japanese,m,2,0.2,-83.77980644,1.93939228
MOT,71,1,2024-06-24T03:17:07.225Z,english_691.wav,0,pill,925,25,4,Japanese,m,3,0.3,5.55909075,1.80900702
MOT,71,1,2024-06-24T03:17:07.225Z,english_691.wav,0,pill,925,25,4,Japanese,m,4,0.4,23.79459539,0.81475575
MOT,71,1,2024-06-24T03:17:07.225Z,english_691.wav,0,pill,925,25,4,Japanese,m,5,0.5,-52.64546011,0.95195088
MOT,71,1,2024-06-24T03:17:07.225Z,english_691.wav,0,pill,925,25,4,Japanese,m,6,0.6,2.68270455,1.3919478
MOT,71,1,2024-06-24T03:17:07.225Z,english_691.wav,0,pill,925,25,4,Japanese,m,7,0.7,-52.61692888,0.70729183
MOT,71,1,2024-06-24T03:17:07.225Z,english_691.wav,0,pill,925,25,4,Japanese,m,8,0.8,-36.65533837,1.61794077
MOT,71,1,2024-06-24T03:17:07.225Z,english_691.wav,0,pill,925,25,4,Japanese,m,9,0.9,-75.69832194,0.1770134
MOT,71,1,2024-06-24T03:17:07.225Z,english_691.wav,0,pill,925,25,4,Japanese,m,10,1.0,1.92131533,0.51863844
MOT,71,1,2024-06-24T03:17:07.225Z,english_691.wav,0,pill,925,25,4,Japanese,m,11,1.09391667,-54.35087966,0.34478655
MOT,72,1,2024-06-24T03:17:07.225Z,english_639.wav,0,peel,302,25,4,Japanese,m,0,0.0,5.56347498,1.83509432
MOT,72,1,2024-06-24T03:17:07.225Z,english_639.wav,0,peel,302,25,4,Japanese,m,1,0.1,75.73661073,0.44211572
MOT,72,1,2024-06-24T03:17:07.225Z,english_639.wav,0,peel,302,25,4,Japanese,m,2,0.2,-90.85300276,1.03578017
MOT,72,1,2024-06-24T03:17:07.225Z,english_639.wav,0,peel,302,25,4,Japanese,m,3,0.3,-28.02471483,0.46973677
MOT,72,1,2024-06-24T03:17:07.225Z,english_639.wav,0,peel,302,25,4,Japanese,m,4,0.4,-62.26468724,0.54820752
MOT,72,1,2024-06-24T03:17:07.225Z,english_639.wav,0,peel,302,25,4,Japanese,m,5,0.5,17.80250947,0.51964922
MOT,72,1,2024-06-24T03:17:07.225Z,english_639.wav,0,peel,302,25,4,Japanese,m,6,0.6,29.29879682,0.06117772
MOT,72,1,2024-06-24T03:17:07.225Z,english_639.wav,0,peel,302,25,4,Japanese,m,7,0.7,-6.14897809,0.67480304
MOT,72,1,2024-06-24T03:17:07.225Z,english_639.wav,0,peel,302,25,4,Japanese,m,8,0.8,-11.9254819,0.85869346
MOT,72,1,2024-06-24T03:17:07.225Z,english_639.wav,0,peel,302,25,4,Japanese,m,9,0.9,6.20327944,1.90136883
MOT,72,1,2024-06-24T03:17:07.225Z,english_639.wav,0,peel,302,25,4,Japanese,m,10,1.0,-44.51875699,1.31276151
MOT,72,1,2024-06-24T03:17:07.225Z,english_639.wav,0,peel,302,25,4,Japanese,m,11,1.09391667,52.00361599,1.93524577
MOT,73,1,2024-06-24T03:17:07.225Z,english_182.wav,0,peel,522,25,4,Japanese,m,0,0.0,-33.72839549,0.64170462
MOT,73,1,2024-06-24T03:17:07.225Z,english_182.wav,0,peel,522,25,4,Japanese,m,1,0.1,71.95583488,0.46910546
MOT,73,1,2024-06-24T03:17:07.225Z,english_182.wav,0,peel,522,25,4,Japanese,m,2,0.2,93.77497833,1.36329359
MOT,73,1,2024-06-24T03:17:07.225Z,english_182.wav,0,peel,522,25,4,Japanese,m,3,0.3,-96.3431589,1.23106937
MOT,73,1,2024-06-24T03:17:07.225Z,english_182.wav,0,peel,522,25,4,Japanese,m,4,0.4,-58.26438495,1.40247691
MOT,73,1,2024-06-24T03:17:07.225Z,english_182.wav,0,peel,522,25,4,Japanese,m,5,0.5,40.50395066,0.60520266
MOT,73,1,2024-06-24T03:17:07.225Z,english_182.wav,0,peel,522,25,4,Japanese,m,6,0.6,-57.53982371,0.0944441
MOT,73,1,2024-06-24T03:17:07.225Z,english_182.wav,0,peel,522,25,4,Japanese,m,7,0.7,19.26336492,0.39825095
MOT,73,1,2024-06-24T03:17:07.225Z,english_182.wav,0,peel,522,25,4,Japanese,m,8,0.8,53.61678759,0.94728121
MOT,73,1,2024-06-24T03:17:07.225Z,english_182.wav,0,peel,522,25,4,Japanese,m,9,0.9,33.80250156,0.19803834
MOT,73,1,2024-06-24T03:17:07.225Z,english_182.wav,0,peel,522,25,4,Japanese,m,10,1.0,47.27321227,1.21672532
MOT,73,1,2024-06-24T03:17:07.225Z,english_182.wav,0,peel,522,25,4,Japanese,m,11,1.09391667,72.04949346,0.20681806
MOT,74,1,2024-06-24T03:17:07.225Z,english_413.wav,0,peel,201,25,4,Japanese,m,0,0.0,14.83112151,0.44215223
MOT,74,1,2024-06-24T03:17:07.225Z,english_413.wav,0,peel,201,25,4,Japanese,m,1,0.1,11.76914083,1.16902386
MOT,74,1,2024-06-24T03:17:07.225Z,english_413.wav,0,peel,201,25,4,Japanese,m,2,0.2,56.99835841,1.34778137
MOT,74,1,2024-06-24T03:17:07.225Z,english_413.wav,0,peel,201,25,4,Japanese,m,3,0.3,-91.21705368,1.75286116
MOT,74,1,2024-06-24T03:17:07.225Z,english_413.wav,0,peel,201,25,4,Japanese,m,4,0.4,45.54032704,0.59475232
MOT,74,1,2024-06-24T03:17:07.225Z,english_413.wav,0,peel,201,25,4,Japanese,m,5,0.5,27.79493499,1.56815753
MOT,74,1,2024-06-24T03:17:07.225Z,english_413.wav,0,peel,201,25,4,Japanese,m,6,0.6,-45.92047179,1.45096495
MOT,74,1,2024-06-24T03:17:07.225Z,english_413.wav,0,peel,201,25,4,Japanese,m,7,0.7,30.6901634,1.27145961
MOT,74,1,2024-06-24T03:17:07.225Z,english_413.wav,0,peel,201,25,4,Japanese,m,8,0.8,-6.79166087,1.53710405
MOT,74,1,2024-06-24T03:17:07.225Z,english_413.wav,0,peel,201,25,4,Japanese,m,9,0.9,-73.44231095,1.76487513
MOT,74,1,2024-06-24T03:17:07.225Z,english_413.wav,0,peel,201,25,4,Japanese,m,10,1.0,72.98773842,1.73986125
MOT,74,1,2024-06-24T03:17:07.225Z,english_413.wav,0,peel,201,25,4,Japanese,m,11,1.09391667,-6.1173613,0.92350985
MOT,75,1,2024-06-24T03:17:07.225Z,english_442.wav,0,pill,1005,25,4,Japanese,m,0,0.0,-82.79812385,1.11396114
MOT,75,1,2024-06-24T03:17:07.225Z,english_442.wav,0,pill,1005,25,4,Japanese,m,1,0.1,13.26533661,1.75736632
MOT,75,1,2024-06-24T03:17:07.225Z,english_442.wav,0,pill,1005,25,4,Japanese,m,2,0.2,-27.77858548,0.50029201
MOT,75,1,2024-06-24T03:17:07.225Z,english_442.wav,0,pill,1005,25,4,Japanese,m,3,0.3,-8.21179447,0.94281284
MOT,75,1,2024-06-24T03:17:07.225Z,english_442.wav,0,pill,1005,25,4,Japanese,m,4,0.4,42.22985327,0.51943545
MOT,75,1,2024-06-24T03:17:07.225Z,english_442.wav,0,pill,1005,25,4,Japanese,m,5,0.5,28.42887923,1.6869371
MOT,75,1,2024-06-24T03:17:07.225Z,english_442.wav,0,pill,1005,25,4,Japanese,m,6,0.6,80.44970592,0.17301415
MOT,75,1,2024-06-24T03:17:07.225Z,english_442.wav,0,pill,1005,25,4,Japanese,m,7,0.7,21.26225147,1.48852219
MOT,75,1,2024-06-24T03:17:07.225Z,english_442.wav,0,pill,1005,25,4,Japanese,m,8,0.8,-37.93625661,1.01404105
MOT,75,1,2024-06-24T03:17:07.225Z,english_442.wav,0,pill,1005,25,4,Japanese,m,9,0.9,-26.7095537,1.17770211
MOT,75,1,2024-06-24T03:17:07.225Z,english_442.wav,0,pill,1005,25,4,Japanese,m,10,1.0,-21.16506099,1.73105649
MOT,75,1,2024-06-24T03:17:07.225Z,english_442.wav,0,pill,1005,25,4,Japanese,m,11,1.09391667,7.34933703,1.8720967
MOT,76,1,2024-06-24T03:17:07.225Z,english_219.wav,0,pill,550,25,4,Japanese,m,0,0.0,-71.22269302,0.64229707
MOT,76,1,2024-06-24T03:17:07.225Z,english_219.wav,0,pill,550,25,4,Japanese,m,1,0.1,81.0106601,0.83761643
MOT,76,1,2024-06-24T03:17:07.225Z,english_219.wav,0,pill,550,25,4,Japanese,m,2,0.2,57.89841848,0.27469413
MOT,76,1,2024-06-24T03:17:07.225Z,english_219.wav,0,pill,550,25,4,Japanese,m,3,0.3,-20.90242642,1.66128254
MOT,76,1,2024-06-24T03:17:07.225Z,english_219.wav,0,pill,550,25,4,Japanese,m,4,0.4,-14.30711836,1.11706047
MOT,76,1,2024-06-24T03:17:07.225Z,english_219.wav,0,pill,550,25,4,Japanese,m,5,0.5,-91.16050531,0.71185951
MOT,76,1,2024-06-24T03:17:07.225Z,english_219.wav,0,pill,550,25,4,Japanese,m,6,0.6,-51.25509361,0.78321207
MOT,76,1,2024-06-24T03:17:07.225Z,english_219.wav,0,pill,550,25,4,Japanese,m,7,0.7,-32.58617714,1.3379864
MOT,76,1,2024-06-24T03:17:07.225Z,english_219.wav,0,pill,550,25,4,Japanese,m,8,0.8,-1.65304819,1.4411775
MOT,76,1,2024-06-24T03:17:07.225Z,english_219.wav,0,pill,550,25,4,Japanese,m,9,0.9,-46.25752807,1.25595477
MOT,76,1,2024-06-24T03:17:07.225Z,english_219.wav,0,pill,550,25,4,Japanese,m,10,1.0,-57.14980858,0.30425647
MOT,76,1,2024-06-24T03:17:07.225Z,english_219.wav,0,pill,550,25,4,Japanese,m,11,1.09391667,-0.56518547,1.82291256
MOT,77,1,2024-06-24T03:17:07.225Z,english_945.wav,0,pill,1345,25,4,Japanese,m,0,0.0,-8.90413291,0.85973831
MOT,77,1,2024-06-24T03:17:07.225Z,english_945.wav,0,pill,1345,25,4,Japanese,m,1,0.1,14.69079878,1.50793383
MOT,77,1,2024-06-24T03:17:07.225Z,english_945.wav,0,pill,1345,25,4,Japanese,m,2,0.2,16.86515392,1.6389584
MOT,77,1,2024-06-24T03:17:07.225Z,english_945.wav,0,pill,1345,25,4,Japanese,m,3,0.3,-0.90328453,1.35118399
MOT,77,1,2024-06-24T03:17:07.225Z,english_945.wav,0,pill,1345,25,4,Japanese,m,4,0.4,-81.95044393,0.67347382
MOT,77,1,2024-06-24T03:17:07.225Z,english_945.wav,0,pill,1345,25,4,Japanese,m,5,0.5,39.38574307,0.90170453
MOT,77,1,2024-06-24T03:17:07.225Z,english_945.wav,0,pill,1345,25,4,Japanese,m,6,0.6,48.97516123,1.48284903
MOT,77,1,2024-06-24T03:17:07.225Z,english_945.wav,0,pill,1345,25,4,Japanese,m,7,0.7,22.02745292,0.52532692
MOT,77,1,2024-06-24T03:17:07.225Z,english_945.wav,0,pill,1345,25,4,Japanese,m,8,0.8,-62.58672275,0.42512417
MOT,77,1,2024-06-24T03:17:07.225Z,english_945.wav,0,pill,1345,25,4,Japanese,m,9,0.9,40.96128128,0.61558677
