subj,trial,block,date,stim,stim_order,response,rt,age,english,language,sex,param_index,segment,pitch,stretch
NAY,0,0,2024-06-23T02:22:23.736Z,english_760.wav,0,pill,5304,19,3,Japanese,f,0,0.0,47.27372451,1.90030816
NAY,0,0,2024-06-23T02:22:23.736Z,english_760.wav,0,pill,5304,19,3,Japanese,f,1,0.1,46.53530355,0.64747902
NAY,0,0,2024-06-23T02:22:23.736Z,english_760.wav,0,pill,5304,19,3,Japanese,f,2,0.2,-24.42746322,1.68645788
NAY,0,0,2024-06-23T02:22:23.736Z,english_760.wav,0,pill,5304,19,3,Japanese,f,3,0.3,-83.25481365,0.7717333
NAY,0,0,2024-06-23T02:22:23.736Z,english_760.wav,0,pill,5304,19,3,Japanese,f,4,0.4,-76.36732845,0.72158444
NAY,0,0,2024-06-23T02:22:23.736Z,english_760.wav,0,pill,5304,19,3,Japanese,f,5,0.5,49.65509994,1.63248564
NAY,0,0,2024-06-23T02:22:23.736Z,english_760.wav,0,pill,5304,19,3,Japanese,f,6,0.6,-0.21531061,0.67358777
NAY,0,0,2024-06-23T02:22:23.736Z,english_760.wav,0,pill,5304,19,3,Japanese,f,7,0.7,97.69744282,1.75458052
NAY,0,0,2024-06-23T02:22:23.736Z,english_760.wav,0,pill,5304,19,3,Japanese,f,8,0.8,-79.50455281,0.7766848
NAY,0,0,2024-06-23T02:22:23.736Z,english_760.wav,0,pill,5304,19,3,Japanese,f,9,0.9,-8.48709935,0.96559376
NAY,0,0,2024-06-23T02:22:23.736Z,english_760.wav,0,pill,5304,19,3,Japanese,f,10,1.0,-57.2440405,1.44704785
NAY,0,0,2024-06-23T02:22:23.736Z,english_760.wav,0,pill,5304,19,3,Japanese,f,11,1.09391667,-52.62348211,0.65092854
NAY,1,0,2024-06-23T02:22:23.736Z,english_102.wav,0,pill,2389,19,3,Japanese,f,0,0.0,63.84613738,0.68072363
NAY,1,0,2024-06-23T02:22:23.736Z,english_102.wav,0,pill,2389,19,3,Japanese,f,1,0.1,-19.50774511,0.78322964
NAY,1,0,2024-06-23T02:22:23.736Z,english_102.wav,0,pill,2389,19,3,Japanese,f,2,0.2,8.66527759,1.38231374
NAY,1,0,2024-06-23T02:22:23.736Z,english_102.wav,0,pill,2389,19,3,Japanese,f,3,0.3,11.48698438,0.72244783
NAY,1,0,2024-06-23T02:22:23.736Z,english_102.wav,0,pill,2389,19,3,Japanese,f,4,0.4,31.94885704,0.35985071
NAY,1,0,2024-06-23T02:22:23.736Z,english_102.wav,0,pill,2389,19,3,Japanese,f,5,0.5,-38.92668569,0.73914497
NAY,1,0,2024-06-23T02:22:23.736Z,english_102.wav,0,pill,2389,19,3,Japanese,f,6,0.6,-49.51123853,1.62389413
NAY,1,0,2024-06-23T02:22:23.736Z,english_102.wav,0,pill,2389,19,3,Japanese,f,7,0.7,61.27640526,1.34969733
NAY,1,0,2024-06-23T02:22:23.736Z,english_102.wav,0,pill,2389,19,3,Japanese,f,8,0.8,-26.83244911,0.03321173
NAY,1,0,2024-06-23T02:22:23.736Z,english_102.wav,0,pill,2389,19,3,Japanese,f,9,0.9,49.29328507,0.74119752
NAY,1,0,2024-06-23T02:22:23.736Z,english_102.wav,0,pill,2389,19,3,Japanese,f,10,1.0,88.72427416,0.40516815
NAY,1,0,2024-06-23T02:22:23.736Z,english_102.wav,0,pill,2389,19,3,Japanese,f,11,1.09391667,44.23475018,1.39286308
NAY,2,0,2024-06-23T02:22:23.736Z,english_817.wav,0,pill,4207,19,3,Japanese,f,0,0.0,39.93653704,0.59804512
NAY,2,0,2024-06-23T02:22:23.736Z,english_817.wav,0,pill,4207,19,3,Japanese,f,1,0.1,-44.37889142,1.22051814
NAY,2,0,2024-06-23T02:22:23.736Z,english_817.wav,0,pill,4207,19,3,Japanese,f,2,0.2,-71.95009912,1.02272202
NAY,2,0,2024-06-23T02:22:23.736Z,english_817.wav,0,pill,4207,19,3,Japanese,f,3,0.3,0.10723305,0.82768739
NAY,2,0,2024-06-23T02:22:23.736Z,english_817.wav,0,pill,4207,19,3,Japanese,f,4,0.4,32.85070006,0.75023907
NAY,2,0,2024-06-23T02:22:23.736Z,english_817.wav,0,pill,4207,19,3,Japanese,f,5,0.5,84.39314217,1.45571946
NAY,2,0,2024-06-23T02:22:23.736Z,english_817.wav,0,pill,4207,19,3,Japanese,f,6,0.6,-27.64718927,1.19333558
NAY,2,0,2024-06-23T02:22:23.736Z,english_817.wav,0,pill,4207,19,3,Japanese,f,7,0.7,-96.89614882,0.88124366
NAY,2,0,2024-06-23T02:22:23.736Z,english_817.wav,0,pill,4207,19,3,Japanese,f,8,0.8,78.14592137,1.40555944
NAY,2,0,2024-06-23T02:22:23.736Z,english_817.wav,0,pill,4207,19,3,Japanese,f,9,0.9,-23.71803159,0.40947716
NAY,2,0,2024-06-23T02:22:23.736Z,english_817.wav,0,pill,4207,19,3,Japanese,f,10,1.0,-89.09326047,0.89036455
NAY,2,0,2024-06-23T02:22:23.736Z,english_817.wav,0,pill,4207,19,3,Japanese,f,11,1.09391667,-7.75099391,1.8115698
NAY,3,0,2024-06-23T02:22:23.736Z,english_60.wav,0,pill,1619,19,3,Japanese,f,0,0.0,10.59186776,1.18276714
NAY,3,0,2024-06-23T02:22:23.736Z,english_60.wav,0,pill,1619,19,3,Japanese,f,1,0.1,40.50364305,1.35618457
NAY,3,0,2024-06-23T02:22:23.736Z,english_60.wav,0,pill,1619,19,3,Japanese,f,2,0.2,-14.0687602,0.82779989
NAY,3,0,2024-06-23T02:22:23.736Z,english_60.wav,0,pill,1619,19,3,Japanese,f,3,0.3,-65.99656217,0.57077879
NAY,3,0,2024-06-23T02:22:23.736Z,english_60.wav,0,pill,1619,19,3,Japanese,f,4,0.4,15.70320652,0.07108592
NAY,3,0,2024-06-23T02:22:23.736Z,english_60.wav,0,pill,1619,19,3,Japanese,f,5,0.5,-30.42091681,0.69784791
NAY,3,0,2024-06-23T02:22:23.736Z,english_60.wav,0,pill,1619,19,3,Japanese,f,6,0.6,-42.76109802,1.83211062
NAY,3,0,2024-06-23T02:22:23.736Z,english_60.wav,0,pill,1619,19,3,Japanese,f,7,0.7,79.72211157,1.14011333
NAY,3,0,2024-06-23T02:22:23.736Z,english_60.wav,0,pill,1619,19,3,Japanese,f,8,0.8,-76.06160398,1.5550445
NAY,3,0,2024-06-23T02:22:23.736Z,english_60.wav,0,pill,1619,19,3,Japanese,f,9,0.9,-29.21518782,0.72383993
NAY,3,0,2024-06-23T02:22:23.736Z,english_60.wav,0,pill,1619,19,3,Japanese,f,10,1.0,-57.95886313,1.31578319
NAY,3,0,2024-06-23T02:22:23.736Z,english_60.wav,0,pill,1619,19,3,Japanese,f,11,1.09391667,-5.07129897,0.46327009
NAY,4,0,2024-06-23T02:22:23.736Z,english_791.wav,0,peel,709,19,3,Japanese,f,0,0.0,-46.06630558,1.16002163
NAY,4,0,2024-06-23T02:22:23.736Z,english_791.wav,0,peel,709,19,3,Japanese,f,1,0.1,-10.41029295,1.31545425
NAY,4,0,2024-06-23T02:22:23.736Z,english_791.wav,0,peel,709,19,3,Japanese,f,2,0.2,46.47346809,0.89173565
NAY,4,0,2024-06-23T02:22:23.736Z,english_791.wav,0,peel,709,19,3,Japanese,f,3,0.3,-10.43860287,0.05427007
NAY,4,0,2024-06-23T02:22:23.736Z,english_791.wav,0,peel,709,19,3,Japanese,f,4,0.4,-38.16717219,1.4017057
NAY,4,0,2024-06-23T02:22:23.736Z,english_791.wav,0,peel,709,19,3,Japanese,f,5,0.5,44.56559314,0.47849772
NAY,4,0,2024-06-23T02:22:23.736Z,english_791.wav,0,peel,709,19,3,Japanese,f,6,0.6,43.70696978,1.59729287
NAY,4,0,2024-06-23T02:22:23.736Z,english_791.wav,0,peel,709,19,3,Japanese,f,7,0.7,-5.54884815,1.50901191
NAY,4,0,2024-06-23T02:22:23.736Z,english_791.wav,0,peel,709,19,3,Japanese,f,8,0.8,89.91059564,0.68083576
NAY,4,0,2024-06-23T02:22:23.736Z,english_791.wav,0,peel,709,19,3,Japanese,f,9,0.9,90.72111025,1.62669182
NAY,4,0,2024-06-23T02:22:23.736Z,english_791.wav,0,peel,709,19,3,Japanese,f,10,1.0,4.8020349,1.81653342
NAY,4,0,2024-06-23T02:22:23.736Z,english_791.wav,0,peel,709,19,3,Japanese,f,11,1.09391667,7.87463746,1.33572141
NAY,5,0,2024-06-23T02:22:23.736Z,english_805.wav,0,pill,689,19,3,Japanese,f,0,0.0,19.24000096,0.52175854
NAY,5,0,2024-06-23T02:22:23.736Z,english_805.wav,0,pill,689,19,3,Japanese,f,1,0.1,-57.56428934,1.45107426
NAY,5,0,2024-06-23T02:22:23.736Z,english_805.wav,0,pill,689,19,3,Japanese,f,2,0.2,-17.74165003,1.66296684
NAY,5,0,2024-06-23T02:22:23.736Z,english_805.wav,0,pill,689,19,3,Japanese,f,3,0.3,94.45114709,1.339528
NAY,5,0,2024-06-23T02:22:23.736Z,english_805.wav,0,pill,689,19,3,Japanese,f,4,0.4,58.80414928,1.45905309
NAY,5,0,2024-06-23T02:22:23.736Z,english_805.wav,0,pill,689,19,3,Japanese,f,5,0.5,15.95265091,0.95701688
NAY,5,0,2024-06-23T02:22:23.736Z,english_805.wav,0,pill,689,19,3,Japanese,f,6,0.6,-64.01744173,0.10004415
NAY,5,0,2024-06-23T02:22:23.736Z,english_805.wav,0,pill,689,19,3,Japanese,f,7,0.7,-39.81720589,1.33408917
NAY,5,0,2024-06-23T02:22:23.736Z,english_805.wav,0,pill,689,19,3,Japanese,f,8,0.8,48.58222908,0.26158276
NAY,5,0,2024-06-23T02:22:23.736Z,english_805.wav,0,pill,689,19,3,Japanese,f,9,0.9,79.1348353,0.78316965
NAY,5,0,2024-06-23T02:22:23.736Z,english_805.wav,0,pill,689,19,3,Japanese,f,10,1.0,66.03274921,0.77046412
NAY,5,0,2024-06-23T02:22:23.736Z,english_805.wav,0,pill,689,19,3,Japanese,f,11,1.09391667,-37.34721406,0.38567889
NAY,6,0,2024-06-23T02:22:23.736Z,english_487.wav,0,peel,2679,19,3,Japanese,f,0,0.0,83.9506825,1.20569128
NAY,6,0,2024-06-23T02:22:23.736Z,english_487.wav,0,peel,2679,19,3,Japanese,f,1,0.1,-73.0195282,0.75422979
NAY,6,0,2024-06-23T02:22:23.736Z,english_487.wav,0,peel,2679,19,3,Japanese,f,2,0.2,98.61971221,0.70340278
NAY,6,0,2024-06-23T02:22:23.736Z,english_487.wav,0,peel,2679,19,3,Japanese,f,3,0.3,66.30731889,1.25861502
NAY,6,0,2024-06-23T02:22:23.736Z,english_487.wav,0,peel,2679,19,3,Japanese,f,4,0.4,22.93795287,1.76994668
NAY,6,0,2024-06-23T02:22:23.736Z,english_487.wav,0,peel,2679,19,3,Japanese,f,5,0.5,-81.70494499,1.09959608
NAY,6,0,2024-06-23T02:22:23.736Z,english_487.wav,0,peel,2679,19,3,Japanese,f,6,0.6,-70.3149209,1.93360086
NAY,6,0,2024-06-23T02:22:23.736Z,english_487.wav,0,peel,2679,19,3,Japanese,f,7,0.7,-54.70127166,0.32077076
NAY,6,0,2024-06-23T02:22:23.736Z,english_487.wav,0,peel,2679,19,3,Japanese,f,8,0.8,-60.23299302,0.62494976
NAY,6,0,2024-06-23T02:22:23.736Z,english_487.wav,0,peel,2679,19,3,Japanese,f,9,0.9,90.25511794,1.062642
NAY,6,0,2024-06-23T02:22:23.736Z,english_487.wav,0,peel,2679,19,3,Japanese,f,10,1.0,63.36569824,1.45529395
NAY,6,0,2024-06-23T02:22:23.736Z,english_487.wav,0,peel,2679,19,3,Japanese,f,11,1.09391667,47.37946456,1.97435305
NAY,7,0,2024-06-23T02:22:23.736Z,english_987.wav,0,pill,577,19,3,Japanese,f,0,0.0,22.80679167,0.70061045
NAY,7,0,2024-06-23T02:22:23.736Z,english_987.wav,0,pill,577,19,3,Japanese,f,1,0.1,17.54007411,1.60053813
NAY,7,0,2024-06-23T02:22:23.736Z,english_987.wav,0,pill,577,19,3,Japanese,f,2,0.2,-52.11811518,0.58462844
NAY,7,0,2024-06-23T02:22:23.736Z,english_987.wav,0,pill,577,19,3,Japanese,f,3,0.3,-23.82315646,0.24368019
NAY,7,0,2024-06-23T02:22:23.736Z,english_987.wav,0,pill,577,19,3,Japanese,f,4,0.4,44.18787645,0.52233595
NAY,7,0,2024-06-23T02:22:23.736Z,english_987.wav,0,pill,577,19,3,Japanese,f,5,0.5,-72.90084178,0.85287542
NAY,7,0,2024-06-23T02:22:23.736Z,english_987.wav,0,pill,577,19,3,Japanese,f,6,0.6,-17.62123308,1.54280419
NAY,7,0,2024-06-23T02:22:23.736Z,english_987.wav,0,pill,577,19,3,Japanese,f,7,0.7,95.73852472,0.69341266
NAY,7,0,2024-06-23T02:22:23.736Z,english_987.wav,0,pill,577,19,3,Japanese,f,8,0.8,10.89860126,0.63948037
NAY,7,0,2024-06-23T02:22:23.736Z,english_987.wav,0,pill,577,19,3,Japanese,f,9,0.9,-72.84217249,0.23195922
NAY,7,0,2024-06-23T02:22:23.736Z,english_987.wav,0,pill,577,19,3,Japanese,f,10,1.0,-57.31215702,1.27646479
NAY,7,0,2024-06-23T02:22:23.736Z,english_987.wav,0,pill,577,19,3,Japanese,f,11,1.09391667,-16.22203203,1.15579809
NAY,8,0,2024-06-23T02:22:23.736Z,english_33.wav,0,peel,542,19,3,Japanese,f,0,0.0,-39.58082457,0.53160826
NAY,8,0,2024-06-23T02:22:23.736Z,english_33.wav,0,peel,542,19,3,Japanese,f,1,0.1,30.52342894,0.02130102
NAY,8,0,2024-06-23T02:22:23.736Z,english_33.wav,0,peel,542,19,3,Japanese,f,2,0.2,23.47265499,1.79968549
NAY,8,0,2024-06-23T02:22:23.736Z,english_33.wav,0,peel,542,19,3,Japanese,f,3,0.3,35.06724548,1.77904441
NAY,8,0,2024-06-23T02:22:23.736Z,english_33.wav,0,peel,542,19,3,Japanese,f,4,0.4,68.41384456,0.50678762
NAY,8,0,2024-06-23T02:22:23.736Z,english_33.wav,0,peel,542,19,3,Japanese,f,5,0.5,91.35527089,1.72631603
NAY,8,0,2024-06-23T02:22:23.736Z,english_33.wav,0,peel,542,19,3,Japanese,f,6,0.6,45.24436298,0.90579128
NAY,8,0,2024-06-23T02:22:23.736Z,english_33.wav,0,peel,542,19,3,Japanese,f,7,0.7,-95.9941639,1.42335886
NAY,8,0,2024-06-23T02:22:23.736Z,english_33.wav,0,peel,542,19,3,Japanese,f,8,0.8,52.18884155,1.10708789
NAY,8,0,2024-06-23T02:22:23.736Z,english_33.wav,0,peel,542,19,3,Japanese,f,9,0.9,-59.5821221,1.04407415
NAY,8,0,2024-06-23T02:22:23.736Z,english_33.wav,0,peel,542,19,3,Japanese,f,10,1.0,-35.64274737,1.58844638
NAY,8,0,2024-06-23T02:22:23.736Z,english_33.wav,0,peel,542,19,3,Japanese,f,11,1.09391667,-73.32122587,0.94640907
NAY,9,0,2024-06-23T02:22:23.736Z,english_47.wav,0,pill,1549,19,3,Japanese,f,0,0.0,68.198191,0.3166901
NAY,9,0,2024-06-23T02:22:23.736Z,english_47.wav,0,pill,1549,19,3,Japanese,f,1,0.1,94.43921987,0.04644968
NAY,9,0,2024-06-23T02:22:23.736Z,english_47.wav,0,pill,1549,19,3,Japanese,f,2,0.2,71.99565581,0.20202276
NAY,9,0,2024-06-23T02:22:23.736Z,english_47.wav,0,pill,1549,19,3,Japanese,f,3,0.3,-2.50267609,0.13324084
NAY,9,0,2024-06-23T02:22:23.736Z,english_47.wav,0,pill,1549,19,3,Japanese,f,4,0.4,-27.23226475,1.85081006
NAY,9,0,2024-06-23T02:22:23.736Z,english_47.wav,0,pill,1549,19,3,Japanese,f,5,0.5,-34.1635894,1.50387921
NAY,9,0,2024-06-23T02:22:23.736Z,english_47.wav,0,pill,1549,19,3,Japanese,f,6,0.6,-43.16759163,1.62546743
NAY,9,0,2024-06-23T02:22:23.736Z,english_47.wav,0,pill,1549,19,3,Japanese,f,7,0.7,-66.57434159,1.04862791
NAY,9,0,2024-06-23T02:22:23.736Z,english_47.wav,0,pill,1549,19,3,Japanese,f,8,0.8,28.48495109,1.96555665
NAY,9,0,2024-06-23T02:22:23.736Z,english_47.wav,0,pill,1549,19,3,Japanese,f,9,0.9,-2.22339421,1.0927937
NAY,9,0,2024-06-23T02:22:23.736Z,english_47.wav,0,pill,1549,19,3,Japanese,f,10,1.0,-87.95517187,0.42699379
NAY,9,0,2024-06-23T02:22:23.736Z,english_47.wav,0,pill,1549,19,3,Japanese,f,11,1.09391667,64.08418893,1.59110451
NAY,10,0,2024-06-23T02:22:23.736Z,english_619.wav,0,peel,1051,19,3,Japanese,f,0,0.0,-41.0924044,1.71942116
NAY,10,0,2024-06-23T02:22:23.736Z,english_619.wav,0,peel,1051,19,3,Japanese,f,1,0.1,-7.96280913,1.03534148
NAY,10,0,2024-06-23T02:22:23.736Z,english_619.wav,0,peel,1051,19,3,Japanese,f,2,0.2,-87.23866402,1.90474628
NAY,10,0,2024-06-23T02:22:23.736Z,english_619.wav,0,peel,1051,19,3,Japanese,f,3,0.3,-49.33627733,1.25465254
NAY,10,0,2024-06-23T02:22:23.736Z,english_619.wav,0,peel,1051,19,3,Japanese,f,4,0.4,-9.049641,0.872658
NAY,10,0,2024-06-23T02:22:23.736Z,english_619.wav,0,peel,1051,19,3,Japanese,f,5,0.5,-44.96771142,0.88442624
NAY,10,0,2024-06-23T02:22:23.736Z,english_619.wav,0,peel,1051,19,3,Japanese,f,6,0.6,-40.79885207,0.90889779
NAY,10,0,2024-06-23T02:22:23.736Z,english_619.wav,0,peel,1051,19,3,Japanese,f,7,0.7,40.82825876,0.65121567
NAY,10,0,2024-06-23T02:22:23.736Z,english_619.wav,0,peel,1051,19,3,Japanese,f,8,0.8,-20.59710474,0.05436153
NAY,10,0,2024-06-23T02:22:23.736Z,english_619.wav,0,peel,1051,19,3,Japanese,f,9,0.9,39.88878166,1.54961319
NAY,10,0,2024-06-23T02:22:23.736Z,english_619.wav,0,peel,1051,19,3,Japanese,f,10,1.0,26.7856421,0.36194851
NAY,10,0,2024-06-23T02:22:23.736Z,english_619.wav,0,peel,1051,19,3,Japanese,f,11,1.09391667,40.93095409,0.79464548
NAY,11,0,2024-06-23T02:22:23.736Z,english_478.wav,0,peel,527,19,3,Japanese,f,0,0.0,49.52865222,0.59081153
NAY,11,0,2024-06-23T02:22:23.736Z,english_478.wav,0,peel,527,19,3,Japanese,f,1,0.1,12.15356225,0.51284871
NAY,11,0,2024-06-23T02:22:23.736Z,english_478.wav,0,peel,527,19,3,Japanese,f,2,0.2,-37.73778512,1.1444407
NAY,11,0,2024-06-23T02:22:23.736Z,english_478.wav,0,peel,527,19,3,Japanese,f,3,0.3,-10.50364884,1.54775545
NAY,11,0,2024-06-23T02:22:23.736Z,english_478.wav,0,peel,527,19,3,Japanese,f,4,0.4,38.58870475,1.52435775
NAY,11,0,2024-06-23T02:22:23.736Z,english_478.wav,0,peel,527,19,3,Japanese,f,5,0.5,-22.27355878,1.20325801
NAY,11,0,2024-06-23T02:22:23.736Z,english_478.wav,0,peel,527,19,3,Japanese,f,6,0.6,-48.47445884,0.62139426
NAY,11,0,2024-06-23T02:22:23.736Z,english_478.wav,0,peel,527,19,3,Japanese,f,7,0.7,-51.27115533,0.67212897
NAY,11,0,2024-06-23T02:22:23.736Z,english_478.wav,0,peel,527,19,3,Japanese,f,8,0.8,73.13710457,1.21899898
NAY,11,0,2024-06-23T02:22:23.736Z,english_478.wav,0,peel,527,19,3,Japanese,f,9,0.9,5.78656281,0.57488153
NAY,11,0,2024-06-23T02:22:23.736Z,english_478.wav,0,peel,527,19,3,Japanese,f,10,1.0,-98.51331711,0.34521849
NAY,11,0,2024-06-23T02:22:23.736Z,english_478.wav,0,peel,527,19,3,Japanese,f,11,1.09391667,24.20472837,1.9492818
NAY,12,0,2024-06-23T02:22:23.736Z,english_585.wav,0,peel,951,19,3,Japanese,f,0,0.0,-86.93944466,0.1588986
NAY,12,0,2024-06-23T02:22:23.736Z,english_585.wav,0,peel,951,19,3,Japanese,f,1,0.1,-97.95669785,0.38183266
NAY,12,0,2024-06-23T02:22:23.736Z,english_585.wav,0,peel,951,19,3,Japanese,f,2,0.2,35.19908461,0.20642212
NAY,12,0,2024-06-23T02:22:23.736Z,english_585.wav,0,peel,951,19,3,Japanese,f,3,0.3,66.00378301,1.21146119
NAY,12,0,2024-06-23T02:22:23.736Z,english_585.wav,0,peel,951,19,3,Japanese,f,4,0.4,10.9229126,0.35502735
NAY,12,0,2024-06-23T02:22:23.736Z,english_585.wav,0,peel,951,19,3,Japanese,f,5,0.5,72.37678619,1.56586524
NAY,12,0,2024-06-23T02:22:23.736Z,english_585.wav,0,peel,951,19,3,Japanese,f,6,0.6,-57.08192974,1.83214489
NAY,12,0,2024-06-23T02:22:23.736Z,english_585.wav,0,peel,951,19,3,Japanese,f,7,0.7,-77.39915084,0.43697271
NAY,12,0,2024-06-23T02:22:23.736Z,english_585.wav,0,peel,951,19,3,Japanese,f,8,0.8,38.55710496,0.35169773
NAY,12,0,2024-06-23T02:22:23.736Z,english_585.wav,0,peel,951,19,3,Japanese,f,9,0.9,-27.16276528,1.49983702
NAY,12,0,2024-06-23T02:22:23.736Z,english_585.wav,0,peel,951,19,3,Japanese,f,10,1.0,46.25769813,0.51254386
NAY,12,0,2024-06-23T02:22:23.736Z,english_585.wav,0,peel,951,19,3,Japanese,f,11,1.09391667,-14.18587881,0.12379544
NAY,13,0,2024-06-23T02:22:23.736Z,english_801.wav,0,pill,312,19,3,Japanese,f,0,0.0,-54.47653584,1.90910012
NAY,13,0,2024-06-23T02:22:23.736Z,english_801.wav,0,pill,312,19,3,Japanese,f,1,0.1,-41.28810238,0.95006917
NAY,13,0,2024-06-23T02:22:23.736Z,english_801.wav,0,pill,312,19,3,Japanese,f,2,0.2,91.65690287,0.84100017
NAY,13,0,2024-06-23T02:22:23.736Z,english_801.wav,0,pill,312,19,3,Japanese,f,3,0.3,-9.28605219,0.92695143
NAY,13,0,2024-06-23T02:22:23.736Z,english_801.wav,0,pill,312,19,3,Japanese,f,4,0.4,-68.3172527,0.80239333
NAY,13,0,2024-06-23T02:22:23.736Z,english_801.wav,0,pill,312,19,3,Japanese,f,5,0.5,-20.53863649,1.92743309
NAY,13,0,2024-06-23T02:22:23.736Z,english_801.wav,0,pill,312,19,3,Japanese,f,6,0.6,23.12715477,0.16796328
NAY,13,0,2024-06-23T02:22:23.736Z,english_801.wav,0,pill,312,19,3,Japanese,f,7,0.7,-28.99385244,0.5012895
NAY,13,0,2024-06-23T02:22:23.736Z,english_801.wav,0,pill,312,19,3,Japanese,f,8,0.8,-31.7840881,0.67203268
NAY,13,0,2024-06-23T02:22:23.736Z,english_801.wav,0,pill,312,19,3,Japanese,f,9,0.9,-50.00972714,0.25650815
NAY,13,0,2024-06-23T02:22:23.736Z,english_801.wav,0,pill,312,19,3,Japanese,f,10,1.0,-40.65380245,0.35020128
NAY,13,0,2024-06-23T02:22:23.736Z,english_801.wav,0,pill,312,19,3,Japanese,f,11,1.09391667,5.46992446,1.80995829
NAY,14,0,2024-06-23T02:22:23.736Z,english_32.wav,0,peel,842,19,3,Japanese,f,0,0.0,-30.37103026,1.56358407
NAY,14,0,2024-06-23T02:22:23.736Z,english_32.wav,0,peel,842,19,3,Japanese,f,1,0.1,48.19693032,0.66938937
NAY,14,0,2024-06-23T02:22:23.736Z,english_32.wav,0,peel,842,19,3,Japanese,f,2,0.2,60.21879648,0.62318935
NAY,14,0,2024-06-23T02:22:23.736Z,english_32.wav,0,peel,842,19,3,Japanese,f,3,0.3,-12.9108181,0.13798643
NAY,14,0,2024-06-23T02:22:23.736Z,english_32.wav,0,peel,842,19,3,Japanese,f,4,0.4,61.17128835,1.67432231
NAY,14,0,2024-06-23T02:22:23.736Z,english_32.wav,0,peel,842,19,3,Japanese,f,5,0.5,19.24517735,1.91695281
NAY,14,0,2024-06-23T02:22:23.736Z,english_32.wav,0,peel,842,19,3,Japanese,f,6,0.6,41.79476445,1.90714452
NAY,14,0,2024-06-23T02:22:23.736Z,english_32.wav,0,peel,842,19,3,Japanese,f,7,0.7,96.88218939,0.54460332
NAY,14,0,2024-06-23T02:22:23.736Z,english_32.wav,0,peel,842,19,3,Japanese,f,8,0.8,-23.72521723,0.86040489
NAY,14,0,2024-06-23T02:22:23.736Z,english_32.wav,0,peel,842,19,3,Japanese,f,9,0.9,33.3965621,1.76371179
NAY,14,0,2024-06-23T02:22:23.736Z,english_32.wav,0,peel,842,19,3,Japanese,f,10,1.0,9.85905215,1.54546749
NAY,14,0,2024-06-23T02:22:23.736Z,english_32.wav,0,peel,842,19,3,Japanese,f,11,1.09391667,-87.41832761,0.75722411
NAY,15,0,2024-06-23T02:22:23.736Z,english_378.wav,0,peel,1093,19,3,Japanese,f,0,0.0,-6.75592408,1.57446733
NAY,15,0,2024-06-23T02:22:23.736Z,english_378.wav,0,peel,1093,19,3,Japanese,f,1,0.1,-33.28558439,0.29285803
NAY,15,0,2024-06-23T02:22:23.736Z,english_378.wav,0,peel,1093,19,3,Japanese,f,2,0.2,-96.71642688,0.09494473
NAY,15,0,2024-06-23T02:22:23.736Z,english_378.wav,0,peel,1093,19,3,Japanese,f,3,0.3,70.45646645,0.09114875
NAY,15,0,2024-06-23T02:22:23.736Z,english_378.wav,0,peel,1093,19,3,Japanese,f,4,0.4,20.01443052,0.12099564
NAY,15,0,2024-06-23T02:22:23.736Z,english_378.wav,0,peel,1093,19,3,Japanese,f,5,0.5,-69.62604827,0.06996617
NAY,15,0,2024-06-23T02:22:23.736Z,english_378.wav,0,peel,1093,19,3,Japanese,f,6,0.6,-82.6103386,0.89001983
NAY,15,0,2024-06-23T02:22:23.736Z,english_378.wav,0,peel,1093,19,3,Japanese,f,7,0.7,-53.90394432,1.80047075
NAY,15,0,2024-06-23T02:22:23.736Z,english_378.wav,0,peel,1093,19,3,Japanese,f,8,0.8,75.60526061,1.92282567
NAY,15,0,2024-06-23T02:22:23.736Z,english_378.wav,0,peel,1093,19,3,Japanese,f,9,0.9,-65.71007404,0.07000512
NAY,15,0,2024-06-23T02:22:23.736Z,english_378.wav,0,peel,1093,19,3,Japanese,f,10,1.0,-82.95728524,0.51793223
NAY,15,0,2024-06-23T02:22:23.736Z,english_378.wav,0,peel,1093,19,3,Japanese,f,11,1.09391667,40.19708488,1.33854892
NAY,16,0,2024-06-23T02:22:23.736Z,english_354.wav,0,pill,739,19,3,Japanese,f,0,0.0,-28.87420486,0.20754018
NAY,16,0,2024-06-23T02:22:23.736Z,english_354.wav,0,pill,739,19,3,Japanese,f,1,0.1,-23.35112853,1.88177303
NAY,16,0,2024-06-23T02:22:23.736Z,english_354.wav,0,pill,739,19,3,Japanese,f,2,0.2,5.36311679,1.60863404
NAY,16,0,2024-06-23T02:22:23.736Z,english_354.wav,0,pill,739,19,3,Japanese,f,3,0.3,88.42745553,0.83478671
NAY,16,0,2024-06-23T02:22:23.736Z,english_354.wav,0,pill,739,19,3,Japanese,f,4,0.4,2.47520697,1.51310965
NAY,16,0,2024-06-23T02:22:23.736Z,english_354.wav,0,pill,739,19,3,Japanese,f,5,0.5,46.1200008,1.04317866
NAY,16,0,2024-06-23T02:22:23.736Z,english_354.wav,0,pill,739,19,3,Japanese,f,6,0.6,-18.78131858,0.09474749
NAY,16,0,2024-06-23T02:22:23.736Z,english_354.wav,0,pill,739,19,3,Japanese,f,7,0.7,-50.4047441,1.6889762
NAY,16,0,2024-06-23T02:22:23.736Z,english_354.wav,0,pill,739,19,3,Japanese,f,8,0.8,70.60844452,0.35231613
NAY,16,0,2024-06-23T02:22:23.736Z,english_354.wav,0,pill,739,19,3,Japanese,f,9,0.9,-79.1017332,0.20561504
NAY,16,0,2024-06-23T02:22:23.736Z,english_354.wav,0,pill,739,19,3,Japanese,f,10,1.0,-66.82350364,0.40462269
NAY,16,0,2024-06-23T02:22:23.736Z,english_354.wav,0,pill,739,19,3,Japanese,f,11,1.09391667,-48.20226443,0.51831425
NAY,17,0,2024-06-23T02:22:23.736Z,english_860.wav,0,pill,314,19,3,Japanese,f,0,0.0,-75.11512177,0.5802678
NAY,17,0,2024-06-23T02:22:23.736Z,english_860.wav,0,pill,314,19,3,Japanese,f,1,0.1,-76.73255409,0.63510207
NAY,17,0,2024-06-23T02:22:23.736Z,english_860.wav,0,pill,314,19,3,Japanese,f,2,0.2,-22.8093588,1.68265606
NAY,17,0,2024-06-23T02:22:23.736Z,english_860.wav,0,pill,314,19,3,Japanese,f,3,0.3,52.97738113,1.3480606
NAY,17,0,2024-06-23T02:22:23.736Z,english_860.wav,0,pill,314,19,3,Japanese,f,4,0.4,-48.45234216,1.82238625
NAY,17,0,2024-06-23T02:22:23.736Z,english_860.wav,0,pill,314,19,3,Japanese,f,5,0.5,-73.13735188,1.51063726
NAY,17,0,2024-06-23T02:22:23.736Z,english_860.wav,0,pill,314,19,3,Japanese,f,6,0.6,-46.97684059,1.0243353
NAY,17,0,2024-06-23T02:22:23.736Z,english_860.wav,0,pill,314,19,3,Japanese,f,7,0.7,-71.08749695,1.81300466
NAY,17,0,2024-06-23T02:22:23.736Z,english_860.wav,0,pill,314,19,3,Japanese,f,8,0.8,63.11648415,1.10665048
NAY,17,0,2024-06-23T02:22:23.736Z,english_860.wav,0,pill,314,19,3,Japanese,f,9,0.9,33.70639775,0.26575263
NAY,17,0,2024-06-23T02:22:23.736Z,english_860.wav,0,pill,314,19,3,Japanese,f,10,1.0,39.70734852,1.65404894
NAY,17,0,2024-06-23T02:22:23.736Z,english_860.wav,0,pill,314,19,3,Japanese,f,11,1.09391667,-93.86026271,1.66618104
NAY,18,0,2024-06-23T02:22:23.736Z,english_938.wav,0,pill,604,19,3,Japanese,f,0,0.0,-53.63878643,0.25625638
NAY,18,0,2024-06-23T02:22:23.736Z,english_938.wav,0,pill,604,19,3,Japanese,f,1,0.1,-38.8400944,1.23524187
NAY,18,0,2024-06-23T02:22:23.736Z,english_938.wav,0,pill,604,19,3,Japanese,f,2,0.2,-9.87265498,0.81990957
NAY,18,0,2024-06-23T02:22:23.736Z,english_938.wav,0,pill,604,19,3,Japanese,f,3,0.3,16.2059687,1.45712995
NAY,18,0,2024-06-23T02:22:23.736Z,english_938.wav,0,pill,604,19,3,Japanese,f,4,0.4,-90.53563301,0.4819737
NAY,18,0,2024-06-23T02:22:23.736Z,english_938.wav,0,pill,604,19,3,Japanese,f,5,0.5,64.72350929,0.32505179
NAY,18,0,2024-06-23T02:22:23.736Z,english_938.wav,0,pill,604,19,3,Japanese,f,6,0.6,-52.05654387,1.44150274
NAY,18,0,2024-06-23T02:22:23.736Z,english_938.wav,0,pill,604,19,3,Japanese,f,7,0.7,-42.35049902,1.58605202
NAY,18,0,2024-06-23T02:22:23.736Z,english_938.wav,0,pill,604,19,3,Japanese,f,8,0.8,32.88204039,0.48300943
NAY,18,0,2024-06-23T02:22:23.736Z,english_938.wav,0,pill,604,19,3,Japanese,f,9,0.9,-86.42075109,1.19049872
NAY,18,0,2024-06-23T02:22:23.736Z,english_938.wav,0,pill,604,19,3,Japanese,f,10,1.0,31.2389269,1.85243238
NAY,18,0,2024-06-23T02:22:23.736Z,english_938.wav,0,pill,604,19,3,Japanese,f,11,1.09391667,-10.13697021,0.92208217
NAY,19,0,2024-06-23T02:22:23.736Z,english_318.wav,0,pill,340,19,3,Japanese,f,0,0.0,-78.94407008,1.36025181
NAY,19,0,2024-06-23T02:22:23.736Z,english_318.wav,0,pill,340,19,3,Japanese,f,1,0.1,-91.43281566,1.33485139
NAY,19,0,2024-06-23T02:22:23.736Z,english_318.wav,0,pill,340,19,3,Japanese,f,2,0.2,-62.24141646,0.43598096
NAY,19,0,2024-06-23T02:22:23.736Z,english_318.wav,0,pill,340,19,3,Japanese,f,3,0.3,40.78211046,0.74688302
NAY,19,0,2024-06-23T02:22:23.736Z,english_318.wav,0,pill,340,19,3,Japanese,f,4,0.4,7.98778967,1.69145296
NAY,19,0,2024-06-23T02:22:23.736Z,english_318.wav,0,pill,340,19,3,Japanese,f,5,0.5,-60.8723057,1.55878588
NAY,19,0,2024-06-23T02:22:23.736Z,english_318.wav,0,pill,340,19,3,Japanese,f,6,0.6,42.28033673,0.6574677
NAY,19,0,2024-06-23T02:22:23.736Z,english_318.wav,0,pill,340,19,3,Japanese,f,7,0.7,-90.16378742,1.94941989
NAY,19,0,2024-06-23T02:22:23.736Z,english_318.wav,0,pill,340,19,3,Japanese,f,8,0.8,-93.15678143,1.19046703
NAY,19,0,2024-06-23T02:22:23.736Z,english_318.wav,0,pill,340,19,3,Japanese,f,9,0.9,-38.27194231,0.26844165
NAY,19,0,2024-06-23T02:22:23.736Z,english_318.wav,0,pill,340,19,3,Japanese,f,10,1.0,2.04687585,1.06188423
NAY,19,0,2024-06-23T02:22:23.736Z,english_318.wav,0,pill,340,19,3,Japanese,f,11,1.09391667,-59.35018185,1.54423822
NAY,20,0,2024-06-23T02:22:23.736Z,english_471.wav,0,peel,1157,19,3,Japanese,f,0,0.0,-44.33438949,1.24178701
NAY,20,0,2024-06-23T02:22:23.736Z,english_471.wav,0,peel,1157,19,3,Japanese,f,1,0.1,16.47774329,1.49559335
NAY,20,0,2024-06-23T02:22:23.736Z,english_471.wav,0,peel,1157,19,3,Japanese,f,2,0.2,-22.18014429,1.46207388
NAY,20,0,2024-06-23T02:22:23.736Z,english_471.wav,0,peel,1157,19,3,Japanese,f,3,0.3,96.62980594,0.79768684
NAY,20,0,2024-06-23T02:22:23.736Z,english_471.wav,0,peel,1157,19,3,Japanese,f,4,0.4,0.22905681,0.93952191
NAY,20,0,2024-06-23T02:22:23.736Z,english_471.wav,0,peel,1157,19,3,Japanese,f,5,0.5,25.29876176,1.31580264
NAY,20,0,2024-06-23T02:22:23.736Z,english_471.wav,0,peel,1157,19,3,Japanese,f,6,0.6,-1.90422532,0.66385174
NAY,20,0,2024-06-23T02:22:23.736Z,english_471.wav,0,peel,1157,19,3,Japanese,f,7,0.7,20.77355212,0.36428101
NAY,20,0,2024-06-23T02:22:23.736Z,english_471.wav,0,peel,1157,19,3,Japanese,f,8,0.8,26.61706742,1.49472861
NAY,20,0,2024-06-23T02:22:23.736Z,english_471.wav,0,peel,1157,19,3,Japanese,f,9,0.9,-76.46197336,1.78460372
NAY,20,0,2024-06-23T02:22:23.736Z,english_471.wav,0,peel,1157,19,3,Japanese,f,10,1.0,74.78681403,1.14119983
NAY,20,0,2024-06-23T02:22:23.736Z,english_471.wav,0,peel,1157,19,3,Japanese,f,11,1.09391667,70.35269737,0.45644683
NAY,21,0,2024-06-23T02:22:23.736Z,english_409.wav,0,peel,1298,19,3,Japanese,f,0,0.0,-79.1757247,0.87513374
NAY,21,0,2024-06-23T02:22:23.736Z,english_409.wav,0,peel,1298,19,3,Japanese,f,1,0.1,-82.91562438,0.12656435
NAY,21,0,2024-06-23T02:22:23.736Z,english_409.wav,0,peel,1298,19,3,Japanese,f,2,0.2,91.50346008,0.63589246
NAY,21,0,2024-06-23T02:22:23.736Z,english_409.wav,0,peel,1298,19,3,Japanese,f,3,0.3,-40.10375406,1.28419635
NAY,21,0,2024-06-23T02:22:23.736Z,english_409.wav,0,peel,1298,19,3,Japanese,f,4,0.4,90.70869954,0.88499041
NAY,21,0,2024-06-23T02:22:23.736Z,english_409.wav,0,peel,1298,19,3,Japanese,f,5,0.5,-20.97681685,1.10973129
NAY,21,0,2024-06-23T02:22:23.736Z,english_409.wav,0,peel,1298,19,3,Japanese,f,6,0.6,17.21215857,0.84354096
NAY,21,0,2024-06-23T02:22:23.736Z,english_409.wav,0,peel,1298,19,3,Japanese,f,7,0.7,-53.91144795,1.20925869
NAY,21,0,2024-06-23T02:22:23.736Z,english_409.wav,0,peel,1298,19,3,Japanese,f,8,0.8,37.0057153,0.06654022
NAY,21,0,2024-06-23T02:22:23.736Z,english_409.wav,0,peel,1298,19,3,Japanese,f,9,0.9,34.22730219,1.12491035
NAY,21,0,2024-06-23T02:22:23.736Z,english_409.wav,0,peel,1298,19,3,Japanese,f,10,1.0,10.55146488,1.41050889
NAY,21,0,2024-06-23T02:22:23.736Z,english_409.wav,0,peel,1298,19,3,Japanese,f,11,1.09391667,-24.71915283,1.38366211
NAY,22,0,2024-06-23T02:22:23.736Z,english_264.wav,0,pill,1370,19,3,Japanese,f,0,0.0,-7.97071304,0.52584892
NAY,22,0,2024-06-23T02:22:23.736Z,english_264.wav,0,pill,1370,19,3,Japanese,f,1,0.1,5.26810794,0.35098417
NAY,22,0,2024-06-23T02:22:23.736Z,english_264.wav,0,pill,1370,19,3,Japanese,f,2,0.2,42.90180093,0.87826506
NAY,22,0,2024-06-23T02:22:23.736Z,english_264.wav,0,pill,1370,19,3,Japanese,f,3,0.3,32.54664666,0.85267403
NAY,22,0,2024-06-23T02:22:23.736Z,english_264.wav,0,pill,1370,19,3,Japanese,f,4,0.4,-75.33920427,0.05665148
NAY,22,0,2024-06-23T02:22:23.736Z,english_264.wav,0,pill,1370,19,3,Japanese,f,5,0.5,-92.87225366,0.902019
NAY,22,0,2024-06-23T02:22:23.736Z,english_264.wav,0,pill,1370,19,3,Japanese,f,6,0.6,1.54584209,0.36999328
NAY,22,0,2024-06-23T02:22:23.736Z,english_264.wav,0,pill,1370,19,3,Japanese,f,7,0.7,-61.85301996,1.87523396
NAY,22,0,2024-06-23T02:22:23.736Z,english_264.wav,0,pill,1370,19,3,Japanese,f,8,0.8,-59.27209487,0.99775271
NAY,22,0,2024-06-23T02:22:23.736Z,english_264.wav,0,pill,1370,19,3,Japanese,f,9,0.9,-3.4044868,0.18460265
NAY,22,0,2024-06-23T02:22:23.736Z,english_264.wav,0,pill,1370,19,3,Japanese,f,10,1.0,20.29119999,0.05992377
NAY,22,0,2024-06-23T02:22:23.736Z,english_264.wav,0,pill,1370,19,3,Japanese,f,11,1.09391667,76.66199878,1.79844018
NAY,23,0,2024-06-23T02:22:23.736Z,english_790.wav,0,peel,1059,19,3,Japanese,f,0,0.0,5.47810166,1.26408321
NAY,23,0,2024-06-23T02:22:23.736Z,english_790.wav,0,peel,1059,19,3,Japanese,f,1,0.1,-9.2687044,0.26503637
NAY,23,0,2024-06-23T02:22:23.736Z,english_790.wav,0,peel,1059,19,3,Japanese,f,2,0.2,71.91302434,0.46926152
NAY,23,0,2024-06-23T02:22:23.736Z,english_790.wav,0,peel,1059,19,3,Japanese,f,3,0.3,-95.14086012,0.64840522
NAY,23,0,2024-06-23T02:22:23.736Z,english_790.wav,0,peel,1059,19,3,Japanese,f,4,0.4,81.24819191,0.79568814
NAY,23,0,2024-06-23T02:22:23.736Z,english_790.wav,0,peel,1059,19,3,Japanese,f,5,0.5,-43.38316414,0.82256958
NAY,23,0,2024-06-23T02:22:23.736Z,english_790.wav,0,peel,1059,19,3,Japanese,f,6,0.6,81.5189634,1.36445651
NAY,23,0,2024-06-23T02:22:23.736Z,english_790.wav,0,peel,1059,19,3,Japanese,f,7,0.7,36.28483158,0.42135765
NAY,23,0,2024-06-23T02:22:23.736Z,english_790.wav,0,peel,1059,19,3,Japanese,f,8,0.8,68.43717388,0.07801016
NAY,23,0,2024-06-23T02:22:23.736Z,english_790.wav,0,peel,1059,19,3,Japanese,f,9,0.9,10.19963637,0.70937824
NAY,23,0,2024-06-23T02:22:23.736Z,english_790.wav,0,peel,1059,19,3,Japanese,f,10,1.0,-15.25841054,1.62056491
NAY,23,0,2024-06-23T02:22:23.736Z,english_790.wav,0,peel,1059,19,3,Japanese,f,11,1.09391667,-62.44422803,1.67467407
NAY,24,0,2024-06-23T02:22:23.736Z,english_78.wav,0,pill,1278,19,3,Japanese,f,0,0.0,42.39797886,1.50616235
NAY,24,0,2024-06-23T02:22:23.736Z,english_78.wav,0,pill,1278,19,3,Japanese,f,1,0.1,-36.07857938,0.54303847
NAY,24,0,2024-06-23T02:22:23.736Z,english_78.wav,0,pill,1278,19,3,Japanese,f,2,0.2,-66.49689514,0.95347503
NAY,24,0,2024-06-23T02:22:23.736Z,english_78.wav,0,pill,1278,19,3,Japanese,f,3,0.3,52.41013344,1.62003629
NAY,24,0,2024-06-23T02:22:23.736Z,english_78.wav,0,pill,1278,19,3,Japanese,f,4,0.4,60.05478812,1.61647939
NAY,24,0,2024-06-23T02:22:23.736Z,english_78.wav,0,pill,1278,19,3,Japanese,f,5,0.5,-4.62250103,0.17410512
NAY,24,0,2024-06-23T02:22:23.736Z,english_78.wav,0,pill,1278,19,3,Japanese,f,6,0.6,-80.28349147,0.43268803
NAY,24,0,2024-06-23T02:22:23.736Z,english_78.wav,0,pill,1278,19,3,Japanese,f,7,0.7,83.57222547,0.08104601
NAY,24,0,2024-06-23T02:22:23.736Z,english_78.wav,0,pill,1278,19,3,Japanese,f,8,0.8,7.4922518,1.61489209
NAY,24,0,2024-06-23T02:22:23.736Z,english_78.wav,0,pill,1278,19,3,Japanese,f,9,0.9,-18.57317231,0.08012208
NAY,24,0,2024-06-23T02:22:23.736Z,english_78.wav,0,pill,1278,19,3,Japanese,f,10,1.0,-60.66079691,0.76901301
NAY,24,0,2024-06-23T02:22:23.736Z,english_78.wav,0,pill,1278,19,3,Japanese,f,11,1.09391667,37.22949989,1.86046092
NAY,25,0,2024-06-23T02:22:23.736Z,english_831.wav,0,peel,1115,19,3,Japanese,f,0,0.0,-21.16656573,0.86887876
NAY,25,0,2024-06-23T02:22:23.736Z,english_831.wav,0,peel,1115,19,3,Japanese,f,1,0.1,29.76214341,1.37629655
NAY,25,0,2024-06-23T02:22:23.736Z,english_831.wav,0,peel,1115,19,3,Japanese,f,2,0.2,61.45359844,0.63499907
NAY,25,0,2024-06-23T02:22:23.736Z,english_831.wav,0,peel,1115,19,3,Japanese,f,3,0.3,6.67004895,0.11279763
NAY,25,0,2024-06-23T02:22:23.736Z,english_831.wav,0,peel,1115,19,3,Japanese,f,4,0.4,26.70370751,0.87092561
NAY,25,0,2024-06-23T02:22:23.736Z,english_831.wav,0,peel,1115,19,3,Japanese,f,5,0.5,-40.62935301,1.90700704
NAY,25,0,2024-06-23T02:22:23.736Z,english_831.wav,0,peel,1115,19,3,Japanese,f,6,0.6,99.09256776,0.52454597
NAY,25,0,2024-06-23T02:22:23.736Z,english_831.wav,0,peel,1115,19,3,Japanese,f,7,0.7,79.82257267,0.72073711
NAY,25,0,2024-06-23T02:22:23.736Z,english_831.wav,0,peel,1115,19,3,Japanese,f,8,0.8,42.46181289,0.80064374
NAY,25,0,2024-06-23T02:22:23.736Z,english_831.wav,0,peel,1115,19,3,Japanese,f,9,0.9,2.20427108,1.04408214
NAY,25,0,2024-06-23T02:22:23.736Z,english_831.wav,0,peel,1115,19,3,Japanese,f,10,1.0,64.59275416,0.45079877
NAY,25,0,2024-06-23T02:22:23.736Z,english_831.wav,0,peel,1115,19,3,Japanese,f,11,1.09391667,-21.96543836,1.2652147
NAY,26,0,2024-06-23T02:22:23.736Z,english_495.wav,0,pill,2418,19,3,Japanese,f,0,0.0,94.59077128,0.77928027
NAY,26,0,2024-06-23T02:22:23.736Z,english_495.wav,0,pill,2418,19,3,Japanese,f,1,0.1,-55.76476968,0.9821174
NAY,26,0,2024-06-23T02:22:23.736Z,english_495.wav,0,pill,2418,19,3,Japanese,f,2,0.2,85.25239669,1.84587448
NAY,26,0,2024-06-23T02:22:23.736Z,english_495.wav,0,pill,2418,19,3,Japanese,f,3,0.3,70.1736543,0.98653196
NAY,26,0,2024-06-23T02:22:23.736Z,english_495.wav,0,pill,2418,19,3,Japanese,f,4,0.4,19.94350226,1.73373308
NAY,26,0,2024-06-23T02:22:23.736Z,english_495.wav,0,pill,2418,19,3,Japanese,f,5,0.5,54.47178353,1.46449203
NAY,26,0,2024-06-23T02:22:23.736Z,english_495.wav,0,pill,2418,19,3,Japanese,f,6,0.6,-87.09076246,0.51679657
NAY,26,0,2024-06-23T02:22:23.736Z,english_495.wav,0,pill,2418,19,3,Japanese,f,7,0.7,-72.04241592,0.83282116
NAY,26,0,2024-06-23T02:22:23.736Z,english_495.wav,0,pill,2418,19,3,Japanese,f,8,0.8,25.07065193,0.91008341
NAY,26,0,2024-06-23T02:22:23.736Z,english_495.wav,0,pill,2418,19,3,Japanese,f,9,0.9,90.72301547,1.90880083
NAY,26,0,2024-06-23T02:22:23.736Z,english_495.wav,0,pill,2418,19,3,Japanese,f,10,1.0,24.05757485,1.11137725
NAY,26,0,2024-06-23T02:22:23.736Z,english_495.wav,0,pill,2418,19,3,Japanese,f,11,1.09391667,-32.87582459,1.50541044
NAY,27,0,2024-06-23T02:22:23.736Z,english_708.wav,0,peel,481,19,3,Japanese,f,0,0.0,51.90512372,0.68267885
NAY,27,0,2024-06-23T02:22:23.736Z,english_708.wav,0,peel,481,19,3,Japanese,f,1,0.1,26.85875961,1.28009677
NAY,27,0,2024-06-23T02:22:23.736Z,english_708.wav,0,peel,481,19,3,Japanese,f,2,0.2,69.50769052,0.67214969
NAY,27,0,2024-06-23T02:22:23.736Z,english_708.wav,0,peel,481,19,3,Japanese,f,3,0.3,2.73798265,1.87173266
NAY,27,0,2024-06-23T02:22:23.736Z,english_708.wav,0,peel,481,19,3,Japanese,f,4,0.4,19.91752894,1.28139012
NAY,27,0,2024-06-23T02:22:23.736Z,english_708.wav,0,peel,481,19,3,Japanese,f,5,0.5,84.74462974,1.50975007
NAY,27,0,2024-06-23T02:22:23.736Z,english_708.wav,0,peel,481,19,3,Japanese,f,6,0.6,48.1433783,0.29459019
NAY,27,0,2024-06-23T02:22:23.736Z,english_708.wav,0,peel,481,19,3,Japanese,f,7,0.7,62.38973842,0.69646694
NAY,27,0,2024-06-23T02:22:23.736Z,english_708.wav,0,peel,481,19,3,Japanese,f,8,0.8,-28.25964696,0.8036912
NAY,27,0,2024-06-23T02:22:23.736Z,english_708.wav,0,peel,481,19,3,Japanese,f,9,0.9,1.39285788,0.28906304
NAY,27,0,2024-06-23T02:22:23.736Z,english_708.wav,0,peel,481,19,3,Japanese,f,10,1.0,-27.01293378,1.49505706
NAY,27,0,2024-06-23T02:22:23.736Z,english_708.wav,0,peel,481,19,3,Japanese,f,11,1.09391667,-26.97031791,1.88331259
NAY,28,0,2024-06-23T02:22:23.736Z,english_271.wav,0,peel,980,19,3,Japanese,f,0,0.0,83.54860051,1.23852779
NAY,28,0,2024-06-23T02:22:23.736Z,english_271.wav,0,peel,980,19,3,Japanese,f,1,0.1,-11.78692869,0.5617939
NAY,28,0,2024-06-23T02:22:23.736Z,english_271.wav,0,peel,980,19,3,Japanese,f,2,0.2,-93.59093408,1.03672554
NAY,28,0,2024-06-23T02:22:23.736Z,english_271.wav,0,peel,980,19,3,Japanese,f,3,0.3,53.60258666,1.7849895
NAY,28,0,2024-06-23T02:22:23.736Z,english_271.wav,0,peel,980,19,3,Japanese,f,4,0.4,-66.08364726,0.3533195
NAY,28,0,2024-06-23T02:22:23.736Z,english_271.wav,0,peel,980,19,3,Japanese,f,5,0.5,94.15354622,1.03785323
NAY,28,0,2024-06-23T02:22:23.736Z,english_271.wav,0,peel,980,19,3,Japanese,f,6,0.6,24.82086802,0.33969939
NAY,28,0,2024-06-23T02:22:23.736Z,english_271.wav,0,peel,980,19,3,Japanese,f,7,0.7,-91.87331613,1.93991394
NAY,28,0,2024-06-23T02:22:23.736Z,english_271.wav,0,peel,980,19,3,Japanese,f,8,0.8,94.31312055,1.07242572
NAY,28,0,2024-06-23T02:22:23.736Z,english_271.wav,0,peel,980,19,3,Japanese,f,9,0.9,-76.94840956,0.17124333
NAY,28,0,2024-06-23T02:22:23.736Z,english_271.wav,0,peel,980,19,3,Japanese,f,10,1.0,10.84106531,1.85218062
NAY,28,0,2024-06-23T02:22:23.736Z,english_271.wav,0,peel,980,19,3,Japanese,f,11,1.09391667,74.33271623,0.80828121
NAY,29,0,2024-06-23T02:22:23.736Z,english_129.wav,0,peel,1463,19,3,Japanese,f,0,0.0,-44.56015923,0.4294496
NAY,29,0,2024-06-23T02:22:23.736Z,english_129.wav,0,peel,1463,19,3,Japanese,f,1,0.1,-58.7339049,1.17691203
NAY,29,0,2024-06-23T02:22:23.736Z,english_129.wav,0,peel,1463,19,3,Japanese,f,2,0.2,4.64427176,0.00792795
NAY,29,0,2024-06-23T02:22:23.736Z,english_129.wav,0,peel,1463,19,3,Japanese,f,3,0.3,36.13533526,1.62066926
NAY,29,0,2024-06-23T02:22:23.736Z,english_129.wav,0,peel,1463,19,3,Japanese,f,4,0.4,49.60525777,0.46131477
NAY,29,0,2024-06-23T02:22:23.736Z,english_129.wav,0,peel,1463,19,3,Japanese,f,5,0.5,66.06381969,0.9562515
NAY,29,0,2024-06-23T02:22:23.736Z,english_129.wav,0,peel,1463,19,3,Japanese,f,6,0.6,-22.87129592,0.58790942
NAY,29,0,2024-06-23T02:22:23.736Z,english_129.wav,0,peel,1463,19,3,Japanese,f,7,0.7,88.56170171,0.99020247
NAY,29,0,2024-06-23T02:22:23.736Z,english_129.wav,0,peel,1463,19,3,Japanese,f,8,0.8,17.84118116,0.9945804
NAY,29,0,2024-06-23T02:22:23.736Z,english_129.wav,0,peel,1463,19,3,Japanese,f,9,0.9,-28.77319114,1.36695424
NAY,29,0,2024-06-23T02:22:23.736Z,english_129.wav,0,peel,1463,19,3,Japanese,f,10,1.0,86.03376827,0.72564016
NAY,29,0,2024-06-23T02:22:23.736Z,english_129.wav,0,peel,1463,19,3,Japanese,f,11,1.09391667,39.56098905,1.15202696
NAY,30,0,2024-06-23T02:22:23.736Z,english_381.wav,0,pill,356,19,3,Japanese,f,0,0.0,32.46103548,1.94101049
NAY,30,0,2024-06-23T02:22:23.736Z,english_381.wav,0,pill,356,19,3,Japanese,f,1,0.1,-84.4488561,1.51363242
NAY,30,0,2024-06-23T02:22:23.736Z,english_381.wav,0,pill,356,19,3,Japanese,f,2,0.2,-42.33494044,0.19481462
NAY,30,0,2024-06-23T02:22:23.736Z,english_381.wav,0,pill,356,19,3,Japanese,f,3,0.3,26.92548459,1.5781166
NAY,30,0,2024-06-23T02:22:23.736Z,english_381.wav,0,pill,356,19,3,Japanese,f,4,0.4,89.55231206,0.89814833
NAY,30,0,2024-06-23T02:22:23.736Z,english_381.wav,0,pill,356,19,3,Japanese,f,5,0.5,44.65598435,1.1373774
NAY,30,0,2024-06-23T02:22:23.736Z,english_381.wav,0,pill,356,19,3,Japanese,f,6,0.6,-71.41154839,0.86888784
NAY,30,0,2024-06-23T02:22:23.736Z,english_381.wav,0,pill,356,19,3,Japanese,f,7,0.7,-16.0355166,0.73017184
NAY,30,0,2024-06-23T02:22:23.736Z,english_381.wav,0,pill,356,19,3,Japanese,f,8,0.8,-87.56719183,1.43125884
NAY,30,0,2024-06-23T02:22:23.736Z,english_381.wav,0,pill,356,19,3,Japanese,f,9,0.9,-36.64318661,0.63988164
NAY,30,0,2024-06-23T02:22:23.736Z,english_381.wav,0,pill,356,19,3,Japanese,f,10,1.0,2.98595367,0.12358053
NAY,30,0,2024-06-23T02:22:23.736Z,english_381.wav,0,pill,356,19,3,Japanese,f,11,1.09391667,-73.96797181,1.01352385
NAY,31,0,2024-06-23T02:22:23.736Z,english_937.wav,0,peel,1002,19,3,Japanese,f,0,0.0,48.31161741,0.20999663
NAY,31,0,2024-06-23T02:22:23.736Z,english_937.wav,0,peel,1002,19,3,Japanese,f,1,0.1,94.31178096,0.73195695
NAY,31,0,2024-06-23T02:22:23.736Z,english_937.wav,0,peel,1002,19,3,Japanese,f,2,0.2,43.82009927,0.70757327
NAY,31,0,2024-06-23T02:22:23.736Z,english_937.wav,0,peel,1002,19,3,Japanese,f,3,0.3,34.87322119,0.54050489
NAY,31,0,2024-06-23T02:22:23.736Z,english_937.wav,0,peel,1002,19,3,Japanese,f,4,0.4,62.02386853,0.53879588
NAY,31,0,2024-06-23T02:22:23.736Z,english_937.wav,0,peel,1002,19,3,Japanese,f,5,0.5,-76.91099942,0.40459306
NAY,31,0,2024-06-23T02:22:23.736Z,english_937.wav,0,peel,1002,19,3,Japanese,f,6,0.6,85.65284811,1.92541325
NAY,31,0,2024-06-23T02:22:23.736Z,english_937.wav,0,peel,1002,19,3,Japanese,f,7,0.7,16.74886634,1.53445282
NAY,31,0,2024-06-23T02:22:23.736Z,english_937.wav,0,peel,1002,19,3,Japanese,f,8,0.8,-83.35160832,0.38375611
NAY,31,0,2024-06-23T02:22:23.736Z,english_937.wav,0,peel,1002,19,3,Japanese,f,9,0.9,99.3500254,0.09137971
NAY,31,0,2024-06-23T02:22:23.736Z,english_937.wav,0,peel,1002,19,3,Japanese,f,10,1.0,-72.7605227,0.90026455
NAY,31,0,2024-06-23T02:22:23.736Z,english_937.wav,0,peel,1002,19,3,Japanese,f,11,1.09391667,-40.54115445,0.89252671
NAY,32,0,2024-06-23T02:22:23.736Z,english_2.wav,0,pill,2370,19,3,Japanese,f,0,0.0,41.22215969,0.59226954
NAY,32,0,2024-06-23T02:22:23.736Z,english_2.wav,0,pill,2370,19,3,Japanese,f,1,0.1,63.4325041,1.70689004
NAY,32,0,2024-06-23T02:22:23.736Z,english_2.wav,0,pill,2370,19,3,Japanese,f,2,0.2,30.26698033,1.70278764
NAY,32,0,2024-06-23T02:22:23.736Z,english_2.wav,0,pill,2370,19,3,Japanese,f,3,0.3,-42.97414703,0.93211278
NAY,32,0,2024-06-23T02:22:23.736Z,english_2.wav,0,pill,2370,19,3,Japanese,f,4,0.4,78.73420301,0.75985414
NAY,32,0,2024-06-23T02:22:23.736Z,english_2.wav,0,pill,2370,19,3,Japanese,f,5,0.5,98.07294335,1.00279357
NAY,32,0,2024-06-23T02:22:23.736Z,english_2.wav,0,pill,2370,19,3,Japanese,f,6,0.6,-11.43066233,1.68044469
NAY,32,0,2024-06-23T02:22:23.736Z,english_2.wav,0,pill,2370,19,3,Japanese,f,7,0.7,98.59484661,1.4408376
NAY,32,0,2024-06-23T02:22:23.736Z,english_2.wav,0,pill,2370,19,3,Japanese,f,8,0.8,5.98934189,0.34467269
NAY,32,0,2024-06-23T02:22:23.736Z,english_2.wav,0,pill,2370,19,3,Japanese,f,9,0.9,12.71998757,0.3933307
NAY,32,0,2024-06-23T02:22:23.736Z,english_2.wav,0,pill,2370,19,3,Japanese,f,10,1.0,80.81444137,0.30092676
NAY,32,0,2024-06-23T02:22:23.736Z,english_2.wav,0,pill,2370,19,3,Japanese,f,11,1.09391667,-65.72418196,0.87599386
NAY,33,0,2024-06-23T02:22:23.736Z,english_55.wav,0,pill,1437,19,3,Japanese,f,0,0.0,55.67307479,0.52782995
NAY,33,0,2024-06-23T02:22:23.736Z,english_55.wav,0,pill,1437,19,3,Japanese,f,1,0.1,-68.77763233,1.04888997
NAY,33,0,2024-06-23T02:22:23.736Z,english_55.wav,0,pill,1437,19,3,Japanese,f,2,0.2,-65.56479824,1.48348863
NAY,33,0,2024-06-23T02:22:23.736Z,english_55.wav,0,pill,1437,19,3,Japanese,f,3,0.3,-28.17507295,0.48831434
NAY,33,0,2024-06-23T02:22:23.736Z,english_55.wav,0,pill,1437,19,3,Japanese,f,4,0.4,12.71546493,0.57381204
NAY,33,0,2024-06-23T02:22:23.736Z,english_55.wav,0,pill,1437,19,3,Japanese,f,5,0.5,79.84163838,0.45321787
NAY,33,0,2024-06-23T02:22:23.736Z,english_55.wav,0,pill,1437,19,3,Japanese,f,6,0.6,-44.12045936,1.63628375
NAY,33,0,2024-06-23T02:22:23.736Z,english_55.wav,0,pill,1437,19,3,Japanese,f,7,0.7,-80.03895773,1.60012046
NAY,33,0,2024-06-23T02:22:23.736Z,english_55.wav,0,pill,1437,19,3,Japanese,f,8,0.8,89.560279,1.77258714
NAY,33,0,2024-06-23T02:22:23.736Z,english_55.wav,0,pill,1437,19,3,Japanese,f,9,0.9,-86.43761931,0.52302607
NAY,33,0,2024-06-23T02:22:23.736Z,english_55.wav,0,pill,1437,19,3,Japanese,f,10,1.0,26.43928763,1.59376443
NAY,33,0,2024-06-23T02:22:23.736Z,english_55.wav,0,pill,1437,19,3,Japanese,f,11,1.09391667,35.34186428,1.33420322
NAY,34,0,2024-06-23T02:22:23.736Z,english_645.wav,0,pill,3249,19,3,Japanese,f,0,0.0,74.20759592,0.3722502
NAY,34,0,2024-06-23T02:22:23.736Z,english_645.wav,0,pill,3249,19,3,Japanese,f,1,0.1,-91.348614,0.72135633
NAY,34,0,2024-06-23T02:22:23.736Z,english_645.wav,0,pill,3249,19,3,Japanese,f,2,0.2,-47.07053841,1.09022513
NAY,34,0,2024-06-23T02:22:23.736Z,english_645.wav,0,pill,3249,19,3,Japanese,f,3,0.3,14.8093439,0.23360297
NAY,34,0,2024-06-23T02:22:23.736Z,english_645.wav,0,pill,3249,19,3,Japanese,f,4,0.4,46.9338314,1.81978529
NAY,34,0,2024-06-23T02:22:23.736Z,english_645.wav,0,pill,3249,19,3,Japanese,f,5,0.5,39.7428535,0.50068107
NAY,34,0,2024-06-23T02:22:23.736Z,english_645.wav,0,pill,3249,19,3,Japanese,f,6,0.6,-23.36569069,1.21791048
NAY,34,0,2024-06-23T02:22:23.736Z,english_645.wav,0,pill,3249,19,3,Japanese,f,7,0.7,45.91971916,0.53153165
NAY,34,0,2024-06-23T02:22:23.736Z,english_645.wav,0,pill,3249,19,3,Japanese,f,8,0.8,32.42791759,1.47100285
NAY,34,0,2024-06-23T02:22:23.736Z,english_645.wav,0,pill,3249,19,3,Japanese,f,9,0.9,1.19876254,1.64053241
NAY,34,0,2024-06-23T02:22:23.736Z,english_645.wav,0,pill,3249,19,3,Japanese,f,10,1.0,-40.71182661,1.74926312
NAY,34,0,2024-06-23T02:22:23.736Z,english_645.wav,0,pill,3249,19,3,Japanese,f,11,1.09391667,-1.61863293,1.77861775
NAY,35,0,2024-06-23T02:22:23.736Z,english_253.wav,0,pill,7099,19,3,Japanese,f,0,0.0,-76.54232622,1.69452202
NAY,35,0,2024-06-23T02:22:23.736Z,english_253.wav,0,pill,7099,19,3,Japanese,f,1,0.1,23.75797542,0.94155674
NAY,35,0,2024-06-23T02:22:23.736Z,english_253.wav,0,pill,7099,19,3,Japanese,f,2,0.2,-82.53055468,0.70353207
NAY,35,0,2024-06-23T02:22:23.736Z,english_253.wav,0,pill,7099,19,3,Japanese,f,3,0.3,19.65476927,1.42331271
NAY,35,0,2024-06-23T02:22:23.736Z,english_253.wav,0,pill,7099,19,3,Japanese,f,4,0.4,-55.81107988,1.11334266
NAY,35,0,2024-06-23T02:22:23.736Z,english_253.wav,0,pill,7099,19,3,Japanese,f,5,0.5,73.24574297,1.34927457
NAY,35,0,2024-06-23T02:22:23.736Z,english_253.wav,0,pill,7099,19,3,Japanese,f,6,0.6,-22.29926161,0.26375751
NAY,35,0,2024-06-23T02:22:23.736Z,english_253.wav,0,pill,7099,19,3,Japanese,f,7,0.7,-11.91242057,0.63100518
NAY,35,0,2024-06-23T02:22:23.736Z,english_253.wav,0,pill,7099,19,3,Japanese,f,8,0.8,-33.99896833,0.22145521
NAY,35,0,2024-06-23T02:22:23.736Z,english_253.wav,0,pill,7099,19,3,Japanese,f,9,0.9,32.30473406,0.69052847
NAY,35,0,2024-06-23T02:22:23.736Z,english_253.wav,0,pill,7099,19,3,Japanese,f,10,1.0,68.10745133,1.32352728
NAY,35,0,2024-06-23T02:22:23.736Z,english_253.wav,0,pill,7099,19,3,Japanese,f,11,1.09391667,-22.82824608,0.79605757
NAY,36,0,2024-06-23T02:22:23.736Z,english_954.wav,0,pill,951,19,3,Japanese,f,0,0.0,-5.86860432,0.02682789
NAY,36,0,2024-06-23T02:22:23.736Z,english_954.wav,0,pill,951,19,3,Japanese,f,1,0.1,38.42724969,1.50907573
NAY,36,0,2024-06-23T02:22:23.736Z,english_954.wav,0,pill,951,19,3,Japanese,f,2,0.2,83.51680292,1.17187714
NAY,36,0,2024-06-23T02:22:23.736Z,english_954.wav,0,pill,951,19,3,Japanese,f,3,0.3,-25.06032499,1.88473576
NAY,36,0,2024-06-23T02:22:23.736Z,english_954.wav,0,pill,951,19,3,Japanese,f,4,0.4,-17.48975264,0.3035603
NAY,36,0,2024-06-23T02:22:23.736Z,english_954.wav,0,pill,951,19,3,Japanese,f,5,0.5,95.06102198,1.35082964
NAY,36,0,2024-06-23T02:22:23.736Z,english_954.wav,0,pill,951,19,3,Japanese,f,6,0.6,0.80140457,0.63281948
NAY,36,0,2024-06-23T02:22:23.736Z,english_954.wav,0,pill,951,19,3,Japanese,f,7,0.7,-41.69263262,0.91375779
NAY,36,0,2024-06-23T02:22:23.736Z,english_954.wav,0,pill,951,19,3,Japanese,f,8,0.8,18.46045351,0.80486046
NAY,36,0,2024-06-23T02:22:23.736Z,english_954.wav,0,pill,951,19,3,Japanese,f,9,0.9,-7.88727361,0.18383046
NAY,36,0,2024-06-23T02:22:23.736Z,english_954.wav,0,pill,951,19,3,Japanese,f,10,1.0,-34.36872213,1.25307449
NAY,36,0,2024-06-23T02:22:23.736Z,english_954.wav,0,pill,951,19,3,Japanese,f,11,1.09391667,40.0906943,0.22905501
NAY,37,0,2024-06-23T02:22:23.736Z,english_741.wav,0,peel,471,19,3,Japanese,f,0,0.0,-52.58118809,0.04069066
NAY,37,0,2024-06-23T02:22:23.736Z,english_741.wav,0,peel,471,19,3,Japanese,f,1,0.1,12.25497131,1.79280913
NAY,37,0,2024-06-23T02:22:23.736Z,english_741.wav,0,peel,471,19,3,Japanese,f,2,0.2,-66.99465096,1.62861486
NAY,37,0,2024-06-23T02:22:23.736Z,english_741.wav,0,peel,471,19,3,Japanese,f,3,0.3,33.21075969,1.99142518
NAY,37,0,2024-06-23T02:22:23.736Z,english_741.wav,0,peel,471,19,3,Japanese,f,4,0.4,-80.7229313,0.68846699
NAY,37,0,2024-06-23T02:22:23.736Z,english_741.wav,0,peel,471,19,3,Japanese,f,5,0.5,33.52953563,0.95565852
NAY,37,0,2024-06-23T02:22:23.736Z,english_741.wav,0,peel,471,19,3,Japanese,f,6,0.6,-70.06014591,1.55389223
NAY,37,0,2024-06-23T02:22:23.736Z,english_741.wav,0,peel,471,19,3,Japanese,f,7,0.7,74.24671254,0.39415735
NAY,37,0,2024-06-23T02:22:23.736Z,english_741.wav,0,peel,471,19,3,Japanese,f,8,0.8,-72.74719072,1.19562483
NAY,37,0,2024-06-23T02:22:23.736Z,english_741.wav,0,peel,471,19,3,Japanese,f,9,0.9,-6.6044487,1.16664034
NAY,37,0,2024-06-23T02:22:23.736Z,english_741.wav,0,peel,471,19,3,Japanese,f,10,1.0,14.62137165,0.62122377
NAY,37,0,2024-06-23T02:22:23.736Z,english_741.wav,0,peel,471,19,3,Japanese,f,11,1.09391667,-3.50523329,0.83751938
NAY,38,0,2024-06-23T02:22:23.736Z,english_379.wav,0,peel,418,19,3,Japanese,f,0,0.0,49.53215273,0.78528704
NAY,38,0,2024-06-23T02:22:23.736Z,english_379.wav,0,peel,418,19,3,Japanese,f,1,0.1,9.27522888,1.81748923
NAY,38,0,2024-06-23T02:22:23.736Z,english_379.wav,0,peel,418,19,3,Japanese,f,2,0.2,37.03122757,0.92030015
NAY,38,0,2024-06-23T02:22:23.736Z,english_379.wav,0,peel,418,19,3,Japanese,f,3,0.3,99.63155139,1.45290857
NAY,38,0,2024-06-23T02:22:23.736Z,english_379.wav,0,peel,418,19,3,Japanese,f,4,0.4,33.35011574,1.06621496
NAY,38,0,2024-06-23T02:22:23.736Z,english_379.wav,0,peel,418,19,3,Japanese,f,5,0.5,-7.70874078,1.14308429
NAY,38,0,2024-06-23T02:22:23.736Z,english_379.wav,0,peel,418,19,3,Japanese,f,6,0.6,46.33326353,0.43706451
NAY,38,0,2024-06-23T02:22:23.736Z,english_379.wav,0,peel,418,19,3,Japanese,f,7,0.7,41.12969148,0.56663738
NAY,38,0,2024-06-23T02:22:23.736Z,english_379.wav,0,peel,418,19,3,Japanese,f,8,0.8,-55.78540597,1.37256697
NAY,38,0,2024-06-23T02:22:23.736Z,english_379.wav,0,peel,418,19,3,Japanese,f,9,0.9,-84.4527127,0.4510475
NAY,38,0,2024-06-23T02:22:23.736Z,english_379.wav,0,peel,418,19,3,Japanese,f,10,1.0,13.84600332,1.31801048
NAY,38,0,2024-06-23T02:22:23.736Z,english_379.wav,0,peel,418,19,3,Japanese,f,11,1.09391667,82.55643163,0.64535043
NAY,39,0,2024-06-23T02:22:23.736Z,english_720.wav,0,pill,460,19,3,Japanese,f,0,0.0,46.77057766,0.94113564
NAY,39,0,2024-06-23T02:22:23.736Z,english_720.wav,0,pill,460,19,3,Japanese,f,1,0.1,6.53423564,0.426958
NAY,39,0,2024-06-23T02:22:23.736Z,english_720.wav,0,pill,460,19,3,Japanese,f,2,0.2,87.60072251,0.98755995
NAY,39,0,2024-06-23T02:22:23.736Z,english_720.wav,0,pill,460,19,3,Japanese,f,3,0.3,96.80442869,1.5976329
NAY,39,0,2024-06-23T02:22:23.736Z,english_720.wav,0,pill,460,19,3,Japanese,f,4,0.4,-66.64150433,0.77306227
NAY,39,0,2024-06-23T02:22:23.736Z,english_720.wav,0,pill,460,19,3,Japanese,f,5,0.5,-65.5107245,0.84513323
NAY,39,0,2024-06-23T02:22:23.736Z,english_720.wav,0,pill,460,19,3,Japanese,f,6,0.6,-89.05316387,1.55668389
NAY,39,0,2024-06-23T02:22:23.736Z,english_720.wav,0,pill,460,19,3,Japanese,f,7,0.7,-94.07157603,0.13811629
NAY,39,0,2024-06-23T02:22:23.736Z,english_720.wav,0,pill,460,19,3,Japanese,f,8,0.8,-1.26954852,1.01089963
NAY,39,0,2024-06-23T02:22:23.736Z,english_720.wav,0,pill,460,19,3,Japanese,f,9,0.9,-25.92154029,1.10803593
NAY,39,0,2024-06-23T02:22:23.736Z,english_720.wav,0,pill,460,19,3,Japanese,f,10,1.0,24.94515678,1.26621877
NAY,39,0,2024-06-23T02:22:23.736Z,english_720.wav,0,pill,460,19,3,Japanese,f,11,1.09391667,-38.69158076,0.96623921
NAY,40,0,2024-06-23T02:22:23.736Z,english_107.wav,0,pill,189,19,3,Japanese,f,0,0.0,14.75106281,1.14538344
NAY,40,0,2024-06-23T02:22:23.736Z,english_107.wav,0,pill,189,19,3,Japanese,f,1,0.1,61.55616618,1.63691709
NAY,40,0,2024-06-23T02:22:23.736Z,english_107.wav,0,pill,189,19,3,Japanese,f,2,0.2,-53.67988365,1.34954163
NAY,40,0,2024-06-23T02:22:23.736Z,english_107.wav,0,pill,189,19,3,Japanese,f,3,0.3,-26.40552644,0.87865188
NAY,40,0,2024-06-23T02:22:23.736Z,english_107.wav,0,pill,189,19,3,Japanese,f,4,0.4,-39.74978172,0.87105183
NAY,40,0,2024-06-23T02:22:23.736Z,english_107.wav,0,pill,189,19,3,Japanese,f,5,0.5,59.30152115,0.97837698
NAY,40,0,2024-06-23T02:22:23.736Z,english_107.wav,0,pill,189,19,3,Japanese,f,6,0.6,47.78500901,0.24331513
NAY,40,0,2024-06-23T02:22:23.736Z,english_107.wav,0,pill,189,19,3,Japanese,f,7,0.7,-56.28829924,1.31332622
NAY,40,0,2024-06-23T02:22:23.736Z,english_107.wav,0,pill,189,19,3,Japanese,f,8,0.8,-27.92998764,1.65018095
NAY,40,0,2024-06-23T02:22:23.736Z,english_107.wav,0,pill,189,19,3,Japanese,f,9,0.9,-79.09348068,0.9374591
NAY,40,0,2024-06-23T02:22:23.736Z,english_107.wav,0,pill,189,19,3,Japanese,f,10,1.0,-12.41548757,1.20965119
NAY,40,0,2024-06-23T02:22:23.736Z,english_107.wav,0,pill,189,19,3,Japanese,f,11,1.09391667,52.16057728,1.85980397
NAY,41,0,2024-06-23T02:22:23.736Z,english_486.wav,0,pill,642,19,3,Japanese,f,0,0.0,14.09044268,1.6475495
NAY,41,0,2024-06-23T02:22:23.736Z,english_486.wav,0,pill,642,19,3,Japanese,f,1,0.1,28.13825665,1.6255176
NAY,41,0,2024-06-23T02:22:23.736Z,english_486.wav,0,pill,642,19,3,Japanese,f,2,0.2,-40.21559781,1.99682212
NAY,41,0,2024-06-23T02:22:23.736Z,english_486.wav,0,pill,642,19,3,Japanese,f,3,0.3,9.13288013,0.39670369
NAY,41,0,2024-06-23T02:22:23.736Z,english_486.wav,0,pill,642,19,3,Japanese,f,4,0.4,89.32859242,1.34395023
NAY,41,0,2024-06-23T02:22:23.736Z,english_486.wav,0,pill,642,19,3,Japanese,f,5,0.5,-17.87642912,0.55691658
NAY,41,0,2024-06-23T02:22:23.736Z,english_486.wav,0,pill,642,19,3,Japanese,f,6,0.6,80.16824269,1.45409657
NAY,41,0,2024-06-23T02:22:23.736Z,english_486.wav,0,pill,642,19,3,Japanese,f,7,0.7,40.51786148,1.8204099
NAY,41,0,2024-06-23T02:22:23.736Z,english_486.wav,0,pill,642,19,3,Japanese,f,8,0.8,-19.91774538,0.51861004
NAY,41,0,2024-06-23T02:22:23.736Z,english_486.wav,0,pill,642,19,3,Japanese,f,9,0.9,-8.63425979,0.91268117
NAY,41,0,2024-06-23T02:22:23.736Z,english_486.wav,0,pill,642,19,3,Japanese,f,10,1.0,-22.84814304,1.67784611
NAY,41,0,2024-06-23T02:22:23.736Z,english_486.wav,0,pill,642,19,3,Japanese,f,11,1.09391667,36.71518597,0.60064436
NAY,42,0,2024-06-23T02:22:23.736Z,english_440.wav,0,pill,444,19,3,Japanese,f,0,0.0,12.29982285,1.19760878
NAY,42,0,2024-06-23T02:22:23.736Z,english_440.wav,0,pill,444,19,3,Japanese,f,1,0.1,29.91017607,0.84661932
NAY,42,0,2024-06-23T02:22:23.736Z,english_440.wav,0,pill,444,19,3,Japanese,f,2,0.2,-33.88416802,0.98013694
NAY,42,0,2024-06-23T02:22:23.736Z,english_440.wav,0,pill,444,19,3,Japanese,f,3,0.3,9.59442927,1.13268467
NAY,42,0,2024-06-23T02:22:23.736Z,english_440.wav,0,pill,444,19,3,Japanese,f,4,0.4,67.78661643,0.35608992
NAY,42,0,2024-06-23T02:22:23.736Z,english_440.wav,0,pill,444,19,3,Japanese,f,5,0.5,-67.23660087,0.95578268
NAY,42,0,2024-06-23T02:22:23.736Z,english_440.wav,0,pill,444,19,3,Japanese,f,6,0.6,76.63778139,0.48847823
NAY,42,0,2024-06-23T02:22:23.736Z,english_440.wav,0,pill,444,19,3,Japanese,f,7,0.7,73.67785479,0.77954634
NAY,42,0,2024-06-23T02:22:23.736Z,english_440.wav,0,pill,444,19,3,Japanese,f,8,0.8,54.53431981,1.22473034
NAY,42,0,2024-06-23T02:22:23.736Z,english_440.wav,0,pill,444,19,3,Japanese,f,9,0.9,-39.644329,1.58063768
NAY,42,0,2024-06-23T02:22:23.736Z,english_440.wav,0,pill,444,19,3,Japanese,f,10,1.0,39.92173261,0.71218861
NAY,42,0,2024-06-23T02:22:23.736Z,english_440.wav,0,pill,444,19,3,Japanese,f,11,1.09391667,84.70283428,1.21525734
NAY,43,0,2024-06-23T02:22:23.736Z,english_91.wav,0,pill,656,19,3,Japanese,f,0,0.0,90.30305792,1.1938068
NAY,43,0,2024-06-23T02:22:23.736Z,english_91.wav,0,pill,656,19,3,Japanese,f,1,0.1,56.18894947,1.20808781
NAY,43,0,2024-06-23T02:22:23.736Z,english_91.wav,0,pill,656,19,3,Japanese,f,2,0.2,-58.19739478,0.13849828
NAY,43,0,2024-06-23T02:22:23.736Z,english_91.wav,0,pill,656,19,3,Japanese,f,3,0.3,79.028897,0.94138732
NAY,43,0,2024-06-23T02:22:23.736Z,english_91.wav,0,pill,656,19,3,Japanese,f,4,0.4,7.81343209,0.4665442
NAY,43,0,2024-06-23T02:22:23.736Z,english_91.wav,0,pill,656,19,3,Japanese,f,5,0.5,28.60271905,1.77893908
NAY,43,0,2024-06-23T02:22:23.736Z,english_91.wav,0,pill,656,19,3,Japanese,f,6,0.6,14.99037293,0.39545287
NAY,43,0,2024-06-23T02:22:23.736Z,english_91.wav,0,pill,656,19,3,Japanese,f,7,0.7,-0.25615484,1.77472074
NAY,43,0,2024-06-23T02:22:23.736Z,english_91.wav,0,pill,656,19,3,Japanese,f,8,0.8,86.53655438,1.9424725
NAY,43,0,2024-06-23T02:22:23.736Z,english_91.wav,0,pill,656,19,3,Japanese,f,9,0.9,-90.65230495,1.79603275
NAY,43,0,2024-06-23T02:22:23.736Z,english_91.wav,0,pill,656,19,3,Japanese,f,10,1.0,95.15657265,1.28685544
NAY,43,0,2024-06-23T02:22:23.736Z,english_91.wav,0,pill,656,19,3,Japanese,f,11,1.09391667,-56.87677847,0.36998726
NAY,44,0,2024-06-23T02:22:23.736Z,english_786.wav,0,peel,271,19,3,Japanese,f,0,0.0,52.51003342,0.51789452
NAY,44,0,2024-06-23T02:22:23.736Z,english_786.wav,0,peel,271,19,3,Japanese,f,1,0.1,-29.81330981,1.63069417
NAY,44,0,2024-06-23T02:22:23.736Z,english_786.wav,0,peel,271,19,3,Japanese,f,2,0.2,36.37880502,1.03017261
NAY,44,0,2024-06-23T02:22:23.736Z,english_786.wav,0,peel,271,19,3,Japanese,f,3,0.3,-16.44076744,1.50298323
NAY,44,0,2024-06-23T02:22:23.736Z,english_786.wav,0,peel,271,19,3,Japanese,f,4,0.4,88.68796251,1.46107862
NAY,44,0,2024-06-23T02:22:23.736Z,english_786.wav,0,peel,271,19,3,Japanese,f,5,0.5,-14.03385959,0.40535011
NAY,44,0,2024-06-23T02:22:23.736Z,english_786.wav,0,peel,271,19,3,Japanese,f,6,0.6,-91.10946789,0.38567086
NAY,44,0,2024-06-23T02:22:23.736Z,english_786.wav,0,peel,271,19,3,Japanese,f,7,0.7,41.17265494,1.29740328
NAY,44,0,2024-06-23T02:22:23.736Z,english_786.wav,0,peel,271,19,3,Japanese,f,8,0.8,52.01009792,1.80566199
NAY,44,0,2024-06-23T02:22:23.736Z,english_786.wav,0,peel,271,19,3,Japanese,f,9,0.9,51.89297689,0.75401712
NAY,44,0,2024-06-23T02:22:23.736Z,english_786.wav,0,peel,271,19,3,Japanese,f,10,1.0,66.02628762,0.59504851
NAY,44,0,2024-06-23T02:22:23.736Z,english_786.wav,0,peel,271,19,3,Japanese,f,11,1.09391667,-81.25732307,0.27926431
NAY,45,0,2024-06-23T02:22:23.736Z,english_227.wav,0,pill,521,19,3,Japanese,f,0,0.0,87.02540196,1.45120071
NAY,45,0,2024-06-23T02:22:23.736Z,english_227.wav,0,pill,521,19,3,Japanese,f,1,0.1,-87.16855408,1.99718195
NAY,45,0,2024-06-23T02:22:23.736Z,english_227.wav,0,pill,521,19,3,Japanese,f,2,0.2,13.6128173,0.6126104
NAY,45,0,2024-06-23T02:22:23.736Z,english_227.wav,0,pill,521,19,3,Japanese,f,3,0.3,25.59592298,0.97530447
NAY,45,0,2024-06-23T02:22:23.736Z,english_227.wav,0,pill,521,19,3,Japanese,f,4,0.4,3.06661623,1.74861281
NAY,45,0,2024-06-23T02:22:23.736Z,english_227.wav,0,pill,521,19,3,Japanese,f,5,0.5,-6.41872275,1.95931784
NAY,45,0,2024-06-23T02:22:23.736Z,english_227.wav,0,pill,521,19,3,Japanese,f,6,0.6,-40.97922684,1.44262054
NAY,45,0,2024-06-23T02:22:23.736Z,english_227.wav,0,pill,521,19,3,Japanese,f,7,0.7,-51.74632522,0.76385193
NAY,45,0,2024-06-23T02:22:23.736Z,english_227.wav,0,pill,521,19,3,Japanese,f,8,0.8,-35.50720635,0.83123806
NAY,45,0,2024-06-23T02:22:23.736Z,english_227.wav,0,pill,521,19,3,Japanese,f,9,0.9,-52.46041148,1.0121191
NAY,45,0,2024-06-23T02:22:23.736Z,english_227.wav,0,pill,521,19,3,Japanese,f,10,1.0,-5.55255579,1.39124165
NAY,45,0,2024-06-23T02:22:23.736Z,english_227.wav,0,pill,521,19,3,Japanese,f,11,1.09391667,92.65490635,1.37791309
NAY,46,0,2024-06-23T02:22:23.736Z,english_553.wav,0,pill,245,19,3,Japanese,f,0,0.0,-24.88703549,1.59716139
NAY,46,0,2024-06-23T02:22:23.736Z,english_553.wav,0,pill,245,19,3,Japanese,f,1,0.1,-32.78735509,1.94339053
NAY,46,0,2024-06-23T02:22:23.736Z,english_553.wav,0,pill,245,19,3,Japanese,f,2,0.2,11.78475046,0.07176258
NAY,46,0,2024-06-23T02:22:23.736Z,english_553.wav,0,pill,245,19,3,Japanese,f,3,0.3,-49.38675094,1.26590086
NAY,46,0,2024-06-23T02:22:23.736Z,english_553.wav,0,pill,245,19,3,Japanese,f,4,0.4,87.03858762,0.74193634
NAY,46,0,2024-06-23T02:22:23.736Z,english_553.wav,0,pill,245,19,3,Japanese,f,5,0.5,60.30502824,1.61552542
NAY,46,0,2024-06-23T02:22:23.736Z,english_553.wav,0,pill,245,19,3,Japanese,f,6,0.6,10.13311967,0.16579471
NAY,46,0,2024-06-23T02:22:23.736Z,english_553.wav,0,pill,245,19,3,Japanese,f,7,0.7,67.86345644,1.42366471
NAY,46,0,2024-06-23T02:22:23.736Z,english_553.wav,0,pill,245,19,3,Japanese,f,8,0.8,-60.17677271,1.14167702
NAY,46,0,2024-06-23T02:22:23.736Z,english_553.wav,0,pill,245,19,3,Japanese,f,9,0.9,12.98417217,1.59651853
NAY,46,0,2024-06-23T02:22:23.736Z,english_553.wav,0,pill,245,19,3,Japanese,f,10,1.0,49.25042129,1.95090435
NAY,46,0,2024-06-23T02:22:23.736Z,english_553.wav,0,pill,245,19,3,Japanese,f,11,1.09391667,-82.97566862,0.60671916
NAY,47,0,2024-06-23T02:22:23.736Z,english_912.wav,0,peel,1599,19,3,Japanese,f,0,0.0,83.45320293,1.30725461
NAY,47,0,2024-06-23T02:22:23.736Z,english_912.wav,0,peel,1599,19,3,Japanese,f,1,0.1,47.1123547,0.36515134
NAY,47,0,2024-06-23T02:22:23.736Z,english_912.wav,0,peel,1599,19,3,Japanese,f,2,0.2,-44.09395349,0.27834174
NAY,47,0,2024-06-23T02:22:23.736Z,english_912.wav,0,peel,1599,19,3,Japanese,f,3,0.3,80.4089211,1.38784543
NAY,47,0,2024-06-23T02:22:23.736Z,english_912.wav,0,peel,1599,19,3,Japanese,f,4,0.4,-65.95886508,0.18344109
NAY,47,0,2024-06-23T02:22:23.736Z,english_912.wav,0,peel,1599,19,3,Japanese,f,5,0.5,-25.59965852,0.42703515
NAY,47,0,2024-06-23T02:22:23.736Z,english_912.wav,0,peel,1599,19,3,Japanese,f,6,0.6,58.94865135,1.85819174
NAY,47,0,2024-06-23T02:22:23.736Z,english_912.wav,0,peel,1599,19,3,Japanese,f,7,0.7,-95.38965028,1.3517083
NAY,47,0,2024-06-23T02:22:23.736Z,english_912.wav,0,peel,1599,19,3,Japanese,f,8,0.8,10.68091992,1.52712698
NAY,47,0,2024-06-23T02:22:23.736Z,english_912.wav,0,peel,1599,19,3,Japanese,f,9,0.9,-57.68744928,1.44811226
NAY,47,0,2024-06-23T02:22:23.736Z,english_912.wav,0,peel,1599,19,3,Japanese,f,10,1.0,5.39108627,1.0038839
NAY,47,0,2024-06-23T02:22:23.736Z,english_912.wav,0,peel,1599,19,3,Japanese,f,11,1.09391667,37.38622487,0.79645394
NAY,48,0,2024-06-23T02:22:23.736Z,english_920.wav,0,peel,589,19,3,Japanese,f,0,0.0,65.81399413,0.41821629
NAY,48,0,2024-06-23T02:22:23.736Z,english_920.wav,0,peel,589,19,3,Japanese,f,1,0.1,-82.84324878,1.28225934
NAY,48,0,2024-06-23T02:22:23.736Z,english_920.wav,0,peel,589,19,3,Japanese,f,2,0.2,3.48400674,0.64893709
NAY,48,0,2024-06-23T02:22:23.736Z,english_920.wav,0,peel,589,19,3,Japanese,f,3,0.3,11.91787155,1.7150145
NAY,48,0,2024-06-23T02:22:23.736Z,english_920.wav,0,peel,589,19,3,Japanese,f,4,0.4,94.18344361,1.26439351
NAY,48,0,2024-06-23T02:22:23.736Z,english_920.wav,0,peel,589,19,3,Japanese,f,5,0.5,-3.20307964,0.72207135
NAY,48,0,2024-06-23T02:22:23.736Z,english_920.wav,0,peel,589,19,3,Japanese,f,6,0.6,-5.45427873,1.12610333
NAY,48,0,2024-06-23T02:22:23.736Z,english_920.wav,0,peel,589,19,3,Japanese,f,7,0.7,-91.33620727,1.28690966
NAY,48,0,2024-06-23T02:22:23.736Z,english_920.wav,0,peel,589,19,3,Japanese,f,8,0.8,-75.27995354,1.277223
NAY,48,0,2024-06-23T02:22:23.736Z,english_920.wav,0,peel,589,19,3,Japanese,f,9,0.9,80.14521989,0.31232678
NAY,48,0,2024-06-23T02:22:23.736Z,english_920.wav,0,peel,589,19,3,Japanese,f,10,1.0,-98.13362657,1.28835438
NAY,48,0,2024-06-23T02:22:23.736Z,english_920.wav,0,peel,589,19,3,Japanese,f,11,1.09391667,84.6327673,0.1215282
NAY,49,0,2024-06-23T02:22:23.736Z,english_513.wav,0,pill,815,19,3,Japanese,f,0,0.0,69.69423026,1.14751405
NAY,49,0,2024-06-23T02:22:23.736Z,english_513.wav,0,pill,815,19,3,Japanese,f,1,0.1,-61.65221054,0.70036193
NAY,49,0,2024-06-23T02:22:23.736Z,english_513.wav,0,pill,815,19,3,Japanese,f,2,0.2,12.06620713,1.7124885
NAY,49,0,2024-06-23T02:22:23.736Z,english_513.wav,0,pill,815,19,3,Japanese,f,3,0.3,68.31024972,0.98016869
NAY,49,0,2024-06-23T02:22:23.736Z,english_513.wav,0,pill,815,19,3,Japanese,f,4,0.4,74.12641094,0.11366006
NAY,49,0,2024-06-23T02:22:23.736Z,english_513.wav,0,pill,815,19,3,Japanese,f,5,0.5,6.77833978,0.43979592
NAY,49,0,2024-06-23T02:22:23.736Z,english_513.wav,0,pill,815,19,3,Japanese,f,6,0.6,-4.07072349,1.91776754
NAY,49,0,2024-06-23T02:22:23.736Z,english_513.wav,0,pill,815,19,3,Japanese,f,7,0.7,-75.18978196,0.49107068
NAY,49,0,2024-06-23T02:22:23.736Z,english_513.wav,0,pill,815,19,3,Japanese,f,8,0.8,-25.44315508,0.92055325
NAY,49,0,2024-06-23T02:22:23.736Z,english_513.wav,0,pill,815,19,3,Japanese,f,9,0.9,1.64473536,0.8410121
NAY,49,0,2024-06-23T02:22:23.736Z,english_513.wav,0,pill,815,19,3,Japanese,f,10,1.0,-82.34234751,0.34671239
NAY,49,0,2024-06-23T02:22:23.736Z,english_513.wav,0,pill,815,19,3,Japanese,f,11,1.09391667,-17.87879592,1.52659427
NAY,50,1,2024-06-23T02:26:59.921Z,english_963.wav,0,pill,1834,19,3,Japanese,f,0,0.0,12.85572416,1.75469767
NAY,50,1,2024-06-23T02:26:59.921Z,english_963.wav,0,pill,1834,19,3,Japanese,f,1,0.1,-76.17617766,0.88786329
NAY,50,1,2024-06-23T02:26:59.921Z,english_963.wav,0,pill,1834,19,3,Japanese,f,2,0.2,42.35975093,1.03977576
NAY,50,1,2024-06-23T02:26:59.921Z,english_963.wav,0,pill,1834,19,3,Japanese,f,3,0.3,-29.56352697,0.40233076
NAY,50,1,2024-06-23T02:26:59.921Z,english_963.wav,0,pill,1834,19,3,Japanese,f,4,0.4,1.9048802,1.77716713
NAY,50,1,2024-06-23T02:26:59.921Z,english_963.wav,0,pill,1834,19,3,Japanese,f,5,0.5,-59.42176318,1.22252544
NAY,50,1,2024-06-23T02:26:59.921Z,english_963.wav,0,pill,1834,19,3,Japanese,f,6,0.6,-90.23873789,1.36334994
NAY,50,1,2024-06-23T02:26:59.921Z,english_963.wav,0,pill,1834,19,3,Japanese,f,7,0.7,96.0492683,0.19892648
NAY,50,1,2024-06-23T02:26:59.921Z,english_963.wav,0,pill,1834,19,3,Japanese,f,8,0.8,-14.96705396,0.48578079
NAY,50,1,2024-06-23T02:26:59.921Z,english_963.wav,0,pill,1834,19,3,Japanese,f,9,0.9,53.28049668,0.49525144
NAY,50,1,2024-06-23T02:26:59.921Z,english_963.wav,0,pill,1834,19,3,Japanese,f,10,1.0,-50.64061571,1.97867338
NAY,50,1,2024-06-23T02:26:59.921Z,english_963.wav,0,pill,1834,19,3,Japanese,f,11,1.09391667,33.50411271,0.71277393
NAY,51,1,2024-06-23T02:26:59.921Z,english_566.wav,0,peel,424,19,3,Japanese,f,0,0.0,-62.56630806,1.86832625
NAY,51,1,2024-06-23T02:26:59.921Z,english_566.wav,0,peel,424,19,3,Japanese,f,1,0.1,-47.88948562,0.16089863
NAY,51,1,2024-06-23T02:26:59.921Z,english_566.wav,0,peel,424,19,3,Japanese,f,2,0.2,32.64151801,0.0444821
NAY,51,1,2024-06-23T02:26:59.921Z,english_566.wav,0,peel,424,19,3,Japanese,f,3,0.3,-32.06511913,1.57257602
NAY,51,1,2024-06-23T02:26:59.921Z,english_566.wav,0,peel,424,19,3,Japanese,f,4,0.4,93.60270043,1.42885531
NAY,51,1,2024-06-23T02:26:59.921Z,english_566.wav,0,peel,424,19,3,Japanese,f,5,0.5,26.08771786,1.38538324
NAY,51,1,2024-06-23T02:26:59.921Z,english_566.wav,0,peel,424,19,3,Japanese,f,6,0.6,-3.7007295,1.01058653
NAY,51,1,2024-06-23T02:26:59.921Z,english_566.wav,0,peel,424,19,3,Japanese,f,7,0.7,58.86956752,0.52217054
NAY,51,1,2024-06-23T02:26:59.921Z,english_566.wav,0,peel,424,19,3,Japanese,f,8,0.8,-75.73304048,1.32659726
NAY,51,1,2024-06-23T02:26:59.921Z,english_566.wav,0,peel,424,19,3,Japanese,f,9,0.9,-35.43253665,0.88864926
NAY,51,1,2024-06-23T02:26:59.921Z,english_566.wav,0,peel,424,19,3,Japanese,f,10,1.0,-21.03744822,1.19784945
NAY,51,1,2024-06-23T02:26:59.921Z,english_566.wav,0,peel,424,19,3,Japanese,f,11,1.09391667,-19.58423429,0.92748285
NAY,52,1,2024-06-23T02:26:59.921Z,english_428.wav,0,pill,2330,19,3,Japanese,f,0,0.0,81.83092524,1.65195738
NAY,52,1,2024-06-23T02:26:59.921Z,english_428.wav,0,pill,2330,19,3,Japanese,f,1,0.1,-80.13069751,1.50342219
NAY,52,1,2024-06-23T02:26:59.921Z,english_428.wav,0,pill,2330,19,3,Japanese,f,2,0.2,-11.65632902,1.06152039
NAY,52,1,2024-06-23T02:26:59.921Z,english_428.wav,0,pill,2330,19,3,Japanese,f,3,0.3,-46.08084266,0.87273268
NAY,52,1,2024-06-23T02:26:59.921Z,english_428.wav,0,pill,2330,19,3,Japanese,f,4,0.4,3.29741478,1.30041173
NAY,52,1,2024-06-23T02:26:59.921Z,english_428.wav,0,pill,2330,19,3,Japanese,f,5,0.5,38.2144639,1.27181021
NAY,52,1,2024-06-23T02:26:59.921Z,english_428.wav,0,pill,2330,19,3,Japanese,f,6,0.6,-36.34649143,1.2829939
NAY,52,1,2024-06-23T02:26:59.921Z,english_428.wav,0,pill,2330,19,3,Japanese,f,7,0.7,-64.94911042,0.80379216
NAY,52,1,2024-06-23T02:26:59.921Z,english_428.wav,0,pill,2330,19,3,Japanese,f,8,0.8,55.28808141,0.54976242
NAY,52,1,2024-06-23T02:26:59.921Z,english_428.wav,0,pill,2330,19,3,Japanese,f,9,0.9,-85.65631623,1.4846347
NAY,52,1,2024-06-23T02:26:59.921Z,english_428.wav,0,pill,2330,19,3,Japanese,f,10,1.0,45.03584187,0.86531381
NAY,52,1,2024-06-23T02:26:59.921Z,english_428.wav,0,pill,2330,19,3,Japanese,f,11,1.09391667,-22.28745039,0.63375774
NAY,53,1,2024-06-23T02:26:59.921Z,english_64.wav,0,pill,854,19,3,Japanese,f,0,0.0,35.19701481,0.1517014
NAY,53,1,2024-06-23T02:26:59.921Z,english_64.wav,0,pill,854,19,3,Japanese,f,1,0.1,75.83495736,1.3624391
NAY,53,1,2024-06-23T02:26:59.921Z,english_64.wav,0,pill,854,19,3,Japanese,f,2,0.2,-57.84604767,0.35043993
NAY,53,1,2024-06-23T02:26:59.921Z,english_64.wav,0,pill,854,19,3,Japanese,f,3,0.3,18.18328311,1.06032252
NAY,53,1,2024-06-23T02:26:59.921Z,english_64.wav,0,pill,854,19,3,Japanese,f,4,0.4,2.5532884,1.51833669
NAY,53,1,2024-06-23T02:26:59.921Z,english_64.wav,0,pill,854,19,3,Japanese,f,5,0.5,24.93011402,0.65789286
NAY,53,1,2024-06-23T02:26:59.921Z,english_64.wav,0,pill,854,19,3,Japanese,f,6,0.6,-51.99875854,1.38401799
NAY,53,1,2024-06-23T02:26:59.921Z,english_64.wav,0,pill,854,19,3,Japanese,f,7,0.7,52.45873465,1.62873445
NAY,53,1,2024-06-23T02:26:59.921Z,english_64.wav,0,pill,854,19,3,Japanese,f,8,0.8,42.38876358,0.48968984
NAY,53,1,2024-06-23T02:26:59.921Z,english_64.wav,0,pill,854,19,3,Japanese,f,9,0.9,54.33691238,0.64777192
NAY,53,1,2024-06-23T02:26:59.921Z,english_64.wav,0,pill,854,19,3,Japanese,f,10,1.0,27.02485659,0.8399807
NAY,53,1,2024-06-23T02:26:59.921Z,english_64.wav,0,pill,854,19,3,Japanese,f,11,1.09391667,58.99390703,0.25985176
NAY,54,1,2024-06-23T02:26:59.921Z,english_27.wav,0,pill,1325,19,3,Japanese,f,0,0.0,79.54091256,1.25862136
NAY,54,1,2024-06-23T02:26:59.921Z,english_27.wav,0,pill,1325,19,3,Japanese,f,1,0.1,8.12106861,0.9398724
NAY,54,1,2024-06-23T02:26:59.921Z,english_27.wav,0,pill,1325,19,3,Japanese,f,2,0.2,-86.96528304,1.23485766
NAY,54,1,2024-06-23T02:26:59.921Z,english_27.wav,0,pill,1325,19,3,Japanese,f,3,0.3,34.39896744,0.94041456
NAY,54,1,2024-06-23T02:26:59.921Z,english_27.wav,0,pill,1325,19,3,Japanese,f,4,0.4,73.46875222,1.68451502
NAY,54,1,2024-06-23T02:26:59.921Z,english_27.wav,0,pill,1325,19,3,Japanese,f,5,0.5,-83.8449803,0.54115759
NAY,54,1,2024-06-23T02:26:59.921Z,english_27.wav,0,pill,1325,19,3,Japanese,f,6,0.6,58.21808767,0.09765006
NAY,54,1,2024-06-23T02:26:59.921Z,english_27.wav,0,pill,1325,19,3,Japanese,f,7,0.7,-1.02085817,0.91208016
NAY,54,1,2024-06-23T02:26:59.921Z,english_27.wav,0,pill,1325,19,3,Japanese,f,8,0.8,-33.33574161,1.53320318
NAY,54,1,2024-06-23T02:26:59.921Z,english_27.wav,0,pill,1325,19,3,Japanese,f,9,0.9,24.41997053,1.39457069
NAY,54,1,2024-06-23T02:26:59.921Z,english_27.wav,0,pill,1325,19,3,Japanese,f,10,1.0,-54.97722052,0.85736332
NAY,54,1,2024-06-23T02:26:59.921Z,english_27.wav,0,pill,1325,19,3,Japanese,f,11,1.09391667,-40.91525951,0.73478674
NAY,55,1,2024-06-23T02:26:59.921Z,english_430.wav,0,pill,1441,19,3,Japanese,f,0,0.0,-88.95761908,1.0411215
NAY,55,1,2024-06-23T02:26:59.921Z,english_430.wav,0,pill,1441,19,3,Japanese,f,1,0.1,39.34804897,1.73577333
NAY,55,1,2024-06-23T02:26:59.921Z,english_430.wav,0,pill,1441,19,3,Japanese,f,2,0.2,-21.72599187,0.8754531
NAY,55,1,2024-06-23T02:26:59.921Z,english_430.wav,0,pill,1441,19,3,Japanese,f,3,0.3,-97.97733292,0.18874451
NAY,55,1,2024-06-23T02:26:59.921Z,english_430.wav,0,pill,1441,19,3,Japanese,f,4,0.4,98.23201219,1.1142071
NAY,55,1,2024-06-23T02:26:59.921Z,english_430.wav,0,pill,1441,19,3,Japanese,f,5,0.5,92.79611353,0.3830467
NAY,55,1,2024-06-23T02:26:59.921Z,english_430.wav,0,pill,1441,19,3,Japanese,f,6,0.6,44.81381594,0.5347185
NAY,55,1,2024-06-23T02:26:59.921Z,english_430.wav,0,pill,1441,19,3,Japanese,f,7,0.7,-96.67681225,0.4014233
NAY,55,1,2024-06-23T02:26:59.921Z,english_430.wav,0,pill,1441,19,3,Japanese,f,8,0.8,99.24041947,0.50454446
NAY,55,1,2024-06-23T02:26:59.921Z,english_430.wav,0,pill,1441,19,3,Japanese,f,9,0.9,33.24344921,0.88496249
NAY,55,1,2024-06-23T02:26:59.921Z,english_430.wav,0,pill,1441,19,3,Japanese,f,10,1.0,-26.01349309,1.71251412
NAY,55,1,2024-06-23T02:26:59.921Z,english_430.wav,0,pill,1441,19,3,Japanese,f,11,1.09391667,-84.24925862,1.92006939
NAY,56,1,2024-06-23T02:26:59.921Z,english_964.wav,0,peel,958,19,3,Japanese,f,0,0.0,53.46570898,1.49731262
NAY,56,1,2024-06-23T02:26:59.921Z,english_964.wav,0,peel,958,19,3,Japanese,f,1,0.1,-29.34116619,1.91326808
NAY,56,1,2024-06-23T02:26:59.921Z,english_964.wav,0,peel,958,19,3,Japanese,f,2,0.2,54.99768825,0.76008105
NAY,56,1,2024-06-23T02:26:59.921Z,english_964.wav,0,peel,958,19,3,Japanese,f,3,0.3,-81.76915679,1.84891579
NAY,56,1,2024-06-23T02:26:59.921Z,english_964.wav,0,peel,958,19,3,Japanese,f,4,0.4,-62.14603757,0.58371441
NAY,56,1,2024-06-23T02:26:59.921Z,english_964.wav,0,peel,958,19,3,Japanese,f,5,0.5,-51.83468115,0.22320605
NAY,56,1,2024-06-23T02:26:59.921Z,english_964.wav,0,peel,958,19,3,Japanese,f,6,0.6,22.82176289,0.86228006
NAY,56,1,2024-06-23T02:26:59.921Z,english_964.wav,0,peel,958,19,3,Japanese,f,7,0.7,43.03362668,1.2736027
NAY,56,1,2024-06-23T02:26:59.921Z,english_964.wav,0,peel,958,19,3,Japanese,f,8,0.8,-91.1613604,0.96508229
NAY,56,1,2024-06-23T02:26:59.921Z,english_964.wav,0,peel,958,19,3,Japanese,f,9,0.9,9.75788821,0.5978171
NAY,56,1,2024-06-23T02:26:59.921Z,english_964.wav,0,peel,958,19,3,Japanese,f,10,1.0,-2.87390503,0.802961
NAY,56,1,2024-06-23T02:26:59.921Z,english_964.wav,0,peel,958,19,3,Japanese,f,11,1.09391667,-53.09298444,0.69400331
NAY,57,1,2024-06-23T02:26:59.921Z,english_653.wav,0,pill,1517,19,3,Japanese,f,0,0.0,41.8259341,0.17533452
NAY,57,1,2024-06-23T02:26:59.921Z,english_653.wav,0,pill,1517,19,3,Japanese,f,1,0.1,17.38671322,1.08757539
NAY,57,1,2024-06-23T02:26:59.921Z,english_653.wav,0,pill,1517,19,3,Japanese,f,2,0.2,86.12532741,1.96334993
NAY,57,1,2024-06-23T02:26:59.921Z,english_653.wav,0,pill,1517,19,3,Japanese,f,3,0.3,-33.72650973,1.47062591
NAY,57,1,2024-06-23T02:26:59.921Z,english_653.wav,0,pill,1517,19,3,Japanese,f,4,0.4,-40.64508362,1.06368379
NAY,57,1,2024-06-23T02:26:59.921Z,english_653.wav,0,pill,1517,19,3,Japanese,f,5,0.5,29.34700904,1.07766545
NAY,57,1,2024-06-23T02:26:59.921Z,english_653.wav,0,pill,1517,19,3,Japanese,f,6,0.6,-10.62645481,1.32143854
NAY,57,1,2024-06-23T02:26:59.921Z,english_653.wav,0,pill,1517,19,3,Japanese,f,7,0.7,-39.23364733,0.74682372
NAY,57,1,2024-06-23T02:26:59.921Z,english_653.wav,0,pill,1517,19,3,Japanese,f,8,0.8,1.23936202,0.56607345
NAY,57,1,2024-06-23T02:26:59.921Z,english_653.wav,0,pill,1517,19,3,Japanese,f,9,0.9,54.61023708,0.97558446
NAY,57,1,2024-06-23T02:26:59.921Z,english_653.wav,0,pill,1517,19,3,Japanese,f,10,1.0,68.93146106,0.53847025
NAY,57,1,2024-06-23T02:26:59.921Z,english_653.wav,0,pill,1517,19,3,Japanese,f,11,1.09391667,98.0100566,0.14439152
NAY,58,1,2024-06-23T02:26:59.921Z,english_88.wav,0,peel,1784,19,3,Japanese,f,0,0.0,-71.9844785,0.53660294
NAY,58,1,2024-06-23T02:26:59.921Z,english_88.wav,0,peel,1784,19,3,Japanese,f,1,0.1,-49.01939905,1.47642874
NAY,58,1,2024-06-23T02:26:59.921Z,english_88.wav,0,peel,1784,19,3,Japanese,f,2,0.2,50.12381506,0.52511459
NAY,58,1,2024-06-23T02:26:59.921Z,english_88.wav,0,peel,1784,19,3,Japanese,f,3,0.3,-84.58055822,1.50109779
NAY,58,1,2024-06-23T02:26:59.921Z,english_88.wav,0,peel,1784,19,3,Japanese,f,4,0.4,-75.77840035,0.97976024
NAY,58,1,2024-06-23T02:26:59.921Z,english_88.wav,0,peel,1784,19,3,Japanese,f,5,0.5,-24.7911267,0.85239994
NAY,58,1,2024-06-23T02:26:59.921Z,english_88.wav,0,peel,1784,19,3,Japanese,f,6,0.6,-23.67428976,1.05191942
NAY,58,1,2024-06-23T02:26:59.921Z,english_88.wav,0,peel,1784,19,3,Japanese,f,7,0.7,-54.46174988,0.4066024
NAY,58,1,2024-06-23T02:26:59.921Z,english_88.wav,0,peel,1784,19,3,Japanese,f,8,0.8,17.41292988,0.004424
NAY,58,1,2024-06-23T02:26:59.921Z,english_88.wav,0,peel,1784,19,3,Japanese,f,9,0.9,-76.44908604,1.90836134
NAY,58,1,2024-06-23T02:26:59.921Z,english_88.wav,0,peel,1784,19,3,Japanese,f,10,1.0,-2.36913576,1.74184755
NAY,58,1,2024-06-23T02:26:59.921Z,english_88.wav,0,peel,1784,19,3,Japanese,f,11,1.09391667,-39.62259758,0.66301055
NAY,59,1,2024-06-23T02:26:59.921Z,english_263.wav,0,pill,622,19,3,Japanese,f,0,0.0,60.54836266,0.88286661
NAY,59,1,2024-06-23T02:26:59.921Z,english_263.wav,0,pill,622,19,3,Japanese,f,1,0.1,-7.25947701,0.15523443
NAY,59,1,2024-06-23T02:26:59.921Z,english_263.wav,0,pill,622,19,3,Japanese,f,2,0.2,57.3147166,0.89947763
NAY,59,1,2024-06-23T02:26:59.921Z,english_263.wav,0,pill,622,19,3,Japanese,f,3,0.3,-54.27216299,1.94594407
NAY,59,1,2024-06-23T02:26:59.921Z,english_263.wav,0,pill,622,19,3,Japanese,f,4,0.4,-55.29215067,0.36252841
NAY,59,1,2024-06-23T02:26:59.921Z,english_263.wav,0,pill,622,19,3,Japanese,f,5,0.5,-35.67260064,0.43064253
NAY,59,1,2024-06-23T02:26:59.921Z,english_263.wav,0,pill,622,19,3,Japanese,f,6,0.6,64.27930659,0.12649613
NAY,59,1,2024-06-23T02:26:59.921Z,english_263.wav,0,pill,622,19,3,Japanese,f,7,0.7,39.11312223,0.99935682
NAY,59,1,2024-06-23T02:26:59.921Z,english_263.wav,0,pill,622,19,3,Japanese,f,8,0.8,-36.26628423,0.98138808
NAY,59,1,2024-06-23T02:26:59.921Z,english_263.wav,0,pill,622,19,3,Japanese,f,9,0.9,24.26738527,1.68351405
NAY,59,1,2024-06-23T02:26:59.921Z,english_263.wav,0,pill,622,19,3,Japanese,f,10,1.0,43.73514677,0.97417267
NAY,59,1,2024-06-23T02:26:59.921Z,english_263.wav,0,pill,622,19,3,Japanese,f,11,1.09391667,-15.47335433,0.42659576
NAY,60,1,2024-06-23T02:26:59.921Z,english_777.wav,0,peel,89,19,3,Japanese,f,0,0.0,77.7553974,0.31196703
NAY,60,1,2024-06-23T02:26:59.921Z,english_777.wav,0,peel,89,19,3,Japanese,f,1,0.1,88.6430253,0.69611643
NAY,60,1,2024-06-23T02:26:59.921Z,english_777.wav,0,peel,89,19,3,Japanese,f,2,0.2,5.54652951,0.87210572
NAY,60,1,2024-06-23T02:26:59.921Z,english_777.wav,0,peel,89,19,3,Japanese,f,3,0.3,11.99584501,1.73935874
NAY,60,1,2024-06-23T02:26:59.921Z,english_777.wav,0,peel,89,19,3,Japanese,f,4,0.4,-44.68936207,0.75260602
NAY,60,1,2024-06-23T02:26:59.921Z,english_777.wav,0,peel,89,19,3,Japanese,f,5,0.5,-18.49311275,0.63970678
NAY,60,1,2024-06-23T02:26:59.921Z,english_777.wav,0,peel,89,19,3,Japanese,f,6,0.6,-54.40171159,1.12530391
NAY,60,1,2024-06-23T02:26:59.921Z,english_777.wav,0,peel,89,19,3,Japanese,f,7,0.7,-57.33128005,1.17239371
NAY,60,1,2024-06-23T02:26:59.921Z,english_777.wav,0,peel,89,19,3,Japanese,f,8,0.8,14.03341313,0.53671495
NAY,60,1,2024-06-23T02:26:59.921Z,english_777.wav,0,peel,89,19,3,Japanese,f,9,0.9,18.82152763,1.4475438
NAY,60,1,2024-06-23T02:26:59.921Z,english_777.wav,0,peel,89,19,3,Japanese,f,10,1.0,22.39033388,1.78069419
NAY,60,1,2024-06-23T02:26:59.921Z,english_777.wav,0,peel,89,19,3,Japanese,f,11,1.09391667,52.67090174,0.83009886
NAY,61,1,2024-06-23T02:26:59.921Z,english_181.wav,0,pill,391,19,3,Japanese,f,0,0.0,-0.97272984,0.61376697
NAY,61,1,2024-06-23T02:26:59.921Z,english_181.wav,0,pill,391,19,3,Japanese,f,1,0.1,-77.78814802,0.85355331
NAY,61,1,2024-06-23T02:26:59.921Z,english_181.wav,0,pill,391,19,3,Japanese,f,2,0.2,30.93073149,1.49426592
NAY,61,1,2024-06-23T02:26:59.921Z,english_181.wav,0,pill,391,19,3,Japanese,f,3,0.3,-15.42483918,1.18212422
NAY,61,1,2024-06-23T02:26:59.921Z,english_181.wav,0,pill,391,19,3,Japanese,f,4,0.4,25.76707037,1.41051316
NAY,61,1,2024-06-23T02:26:59.921Z,english_181.wav,0,pill,391,19,3,Japanese,f,5,0.5,-29.04038637,0.72870407
NAY,61,1,2024-06-23T02:26:59.921Z,english_181.wav,0,pill,391,19,3,Japanese,f,6,0.6,13.2566372,0.94615724
NAY,61,1,2024-06-23T02:26:59.921Z,english_181.wav,0,pill,391,19,3,Japanese,f,7,0.7,83.86524807,0.24258424
NAY,61,1,2024-06-23T02:26:59.921Z,english_181.wav,0,pill,391,19,3,Japanese,f,8,0.8,13.33685446,1.00008676
NAY,61,1,2024-06-23T02:26:59.921Z,english_181.wav,0,pill,391,19,3,Japanese,f,9,0.9,15.31267769,0.92341919
NAY,61,1,2024-06-23T02:26:59.921Z,english_181.wav,0,pill,391,19,3,Japanese,f,10,1.0,-61.51651878,0.15563028
NAY,61,1,2024-06-23T02:26:59.921Z,english_181.wav,0,pill,391,19,3,Japanese,f,11,1.09391667,11.45529288,0.83237058
NAY,62,1,2024-06-23T02:26:59.921Z,english_52.wav,0,pill,1950,19,3,Japanese,f,0,0.0,22.10137518,1.70966253
NAY,62,1,2024-06-23T02:26:59.921Z,english_52.wav,0,pill,1950,19,3,Japanese,f,1,0.1,54.60808655,0.73212315
NAY,62,1,2024-06-23T02:26:59.921Z,english_52.wav,0,pill,1950,19,3,Japanese,f,2,0.2,-19.2398092,0.80628637
NAY,62,1,2024-06-23T02:26:59.921Z,english_52.wav,0,pill,1950,19,3,Japanese,f,3,0.3,51.72612617,0.90394386
NAY,62,1,2024-06-23T02:26:59.921Z,english_52.wav,0,pill,1950,19,3,Japanese,f,4,0.4,48.42620238,0.20122149
NAY,62,1,2024-06-23T02:26:59.921Z,english_52.wav,0,pill,1950,19,3,Japanese,f,5,0.5,-74.55875553,0.79458017
NAY,62,1,2024-06-23T02:26:59.921Z,english_52.wav,0,pill,1950,19,3,Japanese,f,6,0.6,38.81047921,1.48954082
NAY,62,1,2024-06-23T02:26:59.921Z,english_52.wav,0,pill,1950,19,3,Japanese,f,7,0.7,-10.61292931,0.49987231
NAY,62,1,2024-06-23T02:26:59.921Z,english_52.wav,0,pill,1950,19,3,Japanese,f,8,0.8,57.32417171,1.72417372
NAY,62,1,2024-06-23T02:26:59.921Z,english_52.wav,0,pill,1950,19,3,Japanese,f,9,0.9,1.80511965,1.29717669
NAY,62,1,2024-06-23T02:26:59.921Z,english_52.wav,0,pill,1950,19,3,Japanese,f,10,1.0,21.58974988,1.53819456
NAY,62,1,2024-06-23T02:26:59.921Z,english_52.wav,0,pill,1950,19,3,Japanese,f,11,1.09391667,-49.54213801,0.23189362
NAY,63,1,2024-06-23T02:26:59.921Z,english_882.wav,0,pill,1694,19,3,Japanese,f,0,0.0,-7.05979315,0.25493427
NAY,63,1,2024-06-23T02:26:59.921Z,english_882.wav,0,pill,1694,19,3,Japanese,f,1,0.1,11.12287517,1.40090196
NAY,63,1,2024-06-23T02:26:59.921Z,english_882.wav,0,pill,1694,19,3,Japanese,f,2,0.2,28.5672698,0.1131803
NAY,63,1,2024-06-23T02:26:59.921Z,english_882.wav,0,pill,1694,19,3,Japanese,f,3,0.3,16.48717496,1.17672005
NAY,63,1,2024-06-23T02:26:59.921Z,english_882.wav,0,pill,1694,19,3,Japanese,f,4,0.4,6.46389904,1.65791719
NAY,63,1,2024-06-23T02:26:59.921Z,english_882.wav,0,pill,1694,19,3,Japanese,f,5,0.5,-33.62191601,1.48549593
NAY,63,1,2024-06-23T02:26:59.921Z,english_882.wav,0,pill,1694,19,3,Japanese,f,6,0.6,24.95644847,0.02678123
NAY,63,1,2024-06-23T02:26:59.921Z,english_882.wav,0,pill,1694,19,3,Japanese,f,7,0.7,-38.16076581,0.84885904
NAY,63,1,2024-06-23T02:26:59.921Z,english_882.wav,0,pill,1694,19,3,Japanese,f,8,0.8,-79.20201093,0.30029844
NAY,63,1,2024-06-23T02:26:59.921Z,english_882.wav,0,pill,1694,19,3,Japanese,f,9,0.9,-71.11539398,0.49544308
NAY,63,1,2024-06-23T02:26:59.921Z,english_882.wav,0,pill,1694,19,3,Japanese,f,10,1.0,-86.32031944,0.41090122
NAY,63,1,2024-06-23T02:26:59.921Z,english_882.wav,0,pill,1694,19,3,Japanese,f,11,1.09391667,-43.4557724,0.68463909
NAY,64,1,2024-06-23T02:26:59.921Z,english_463.wav,0,pill,613,19,3,Japanese,f,0,0.0,10.50801154,1.17811947
NAY,64,1,2024-06-23T02:26:59.921Z,english_463.wav,0,pill,613,19,3,Japanese,f,1,0.1,53.01075337,0.17767022
NAY,64,1,2024-06-23T02:26:59.921Z,english_463.wav,0,pill,613,19,3,Japanese,f,2,0.2,-45.92576003,0.48691175
NAY,64,1,2024-06-23T02:26:59.921Z,english_463.wav,0,pill,613,19,3,Japanese,f,3,0.3,19.52430908,0.61421231
NAY,64,1,2024-06-23T02:26:59.921Z,english_463.wav,0,pill,613,19,3,Japanese,f,4,0.4,-49.30728031,1.08242916
NAY,64,1,2024-06-23T02:26:59.921Z,english_463.wav,0,pill,613,19,3,Japanese,f,5,0.5,14.12996474,0.36464212
NAY,64,1,2024-06-23T02:26:59.921Z,english_463.wav,0,pill,613,19,3,Japanese,f,6,0.6,-38.56124135,1.11640778
NAY,64,1,2024-06-23T02:26:59.921Z,english_463.wav,0,pill,613,19,3,Japanese,f,7,0.7,60.51994471,0.46617429
NAY,64,1,2024-06-23T02:26:59.921Z,english_463.wav,0,pill,613,19,3,Japanese,f,8,0.8,-80.92150268,1.24207175
NAY,64,1,2024-06-23T02:26:59.921Z,english_463.wav,0,pill,613,19,3,Japanese,f,9,0.9,77.91302957,1.740718
NAY,64,1,2024-06-23T02:26:59.921Z,english_463.wav,0,pill,613,19,3,Japanese,f,10,1.0,-17.96219129,0.97634615
NAY,64,1,2024-06-23T02:26:59.921Z,english_463.wav,0,pill,613,19,3,Japanese,f,11,1.09391667,-4.0549477,0.84642764
NAY,65,1,2024-06-23T02:26:59.921Z,english_767.wav,0,pill,1244,19,3,Japanese,f,0,0.0,-51.82889882,0.85849805
NAY,65,1,2024-06-23T02:26:59.921Z,english_767.wav,0,pill,1244,19,3,Japanese,f,1,0.1,51.01701548,0.56470658
NAY,65,1,2024-06-23T02:26:59.921Z,english_767.wav,0,pill,1244,19,3,Japanese,f,2,0.2,-33.49871036,1.12840655
NAY,65,1,2024-06-23T02:26:59.921Z,english_767.wav,0,pill,1244,19,3,Japanese,f,3,0.3,35.0661797,0.30358847
NAY,65,1,2024-06-23T02:26:59.921Z,english_767.wav,0,pill,1244,19,3,Japanese,f,4,0.4,-66.76498728,1.98047846
NAY,65,1,2024-06-23T02:26:59.921Z,english_767.wav,0,pill,1244,19,3,Japanese,f,5,0.5,-60.63649878,1.15215796
NAY,65,1,2024-06-23T02:26:59.921Z,english_767.wav,0,pill,1244,19,3,Japanese,f,6,0.6,-66.50688625,0.97775859
NAY,65,1,2024-06-23T02:26:59.921Z,english_767.wav,0,pill,1244,19,3,Japanese,f,7,0.7,-70.17128926,0.81197732
NAY,65,1,2024-06-23T02:26:59.921Z,english_767.wav,0,pill,1244,19,3,Japanese,f,8,0.8,32.8869854,1.74118297
NAY,65,1,2024-06-23T02:26:59.921Z,english_767.wav,0,pill,1244,19,3,Japanese,f,9,0.9,21.57035996,1.09937379
NAY,65,1,2024-06-23T02:26:59.921Z,english_767.wav,0,pill,1244,19,3,Japanese,f,10,1.0,-36.26911366,1.31196256
NAY,65,1,2024-06-23T02:26:59.921Z,english_767.wav,0,pill,1244,19,3,Japanese,f,11,1.09391667,-1.05523753,0.54391414
NAY,66,1,2024-06-23T02:26:59.921Z,english_1000.wav,0,peel,1414,19,3,Japanese,f,0,0.0,-1.5072561,0.91946401
NAY,66,1,2024-06-23T02:26:59.921Z,english_1000.wav,0,peel,1414,19,3,Japanese,f,1,0.1,39.79014661,1.39592101
NAY,66,1,2024-06-23T02:26:59.921Z,english_1000.wav,0,peel,1414,19,3,Japanese,f,2,0.2,58.76846959,0.5487596
NAY,66,1,2024-06-23T02:26:59.921Z,english_1000.wav,0,peel,1414,19,3,Japanese,f,3,0.3,28.54889901,1.20778852
NAY,66,1,2024-06-23T02:26:59.921Z,english_1000.wav,0,peel,1414,19,3,Japanese,f,4,0.4,-74.34288484,0.05870568
NAY,66,1,2024-06-23T02:26:59.921Z,english_1000.wav,0,peel,1414,19,3,Japanese,f,5,0.5,7.94862856,1.40576818
NAY,66,1,2024-06-23T02:26:59.921Z,english_1000.wav,0,peel,1414,19,3,Japanese,f,6,0.6,75.96899765,0.56511458
NAY,66,1,2024-06-23T02:26:59.921Z,english_1000.wav,0,peel,1414,19,3,Japanese,f,7,0.7,20.32286843,0.44257477
NAY,66,1,2024-06-23T02:26:59.921Z,english_1000.wav,0,peel,1414,19,3,Japanese,f,8,0.8,6.51139675,0.97037601
NAY,66,1,2024-06-23T02:26:59.921Z,english_1000.wav,0,peel,1414,19,3,Japanese,f,9,0.9,95.873103,1.4916368
NAY,66,1,2024-06-23T02:26:59.921Z,english_1000.wav,0,peel,1414,19,3,Japanese,f,10,1.0,76.48547212,1.12595485
NAY,66,1,2024-06-23T02:26:59.921Z,english_1000.wav,0,peel,1414,19,3,Japanese,f,11,1.09391667,42.88935731,1.31879984
NAY,67,1,2024-06-23T02:26:59.921Z,english_578.wav,0,pill,303,19,3,Japanese,f,0,0.0,-75.00897619,0.74810011
NAY,67,1,2024-06-23T02:26:59.921Z,english_578.wav,0,pill,303,19,3,Japanese,f,1,0.1,-99.92599168,1.6653295
NAY,67,1,2024-06-23T02:26:59.921Z,english_578.wav,0,pill,303,19,3,Japanese,f,2,0.2,-41.97852884,0.86958953
NAY,67,1,2024-06-23T02:26:59.921Z,english_578.wav,0,pill,303,19,3,Japanese,f,3,0.3,-44.5286304,1.82114948
NAY,67,1,2024-06-23T02:26:59.921Z,english_578.wav,0,pill,303,19,3,Japanese,f,4,0.4,33.7471246,1.20682151
NAY,67,1,2024-06-23T02:26:59.921Z,english_578.wav,0,pill,303,19,3,Japanese,f,5,0.5,-20.55369632,0.95346463
NAY,67,1,2024-06-23T02:26:59.921Z,english_578.wav,0,pill,303,19,3,Japanese,f,6,0.6,80.47589593,1.35013789
NAY,67,1,2024-06-23T02:26:59.921Z,english_578.wav,0,pill,303,19,3,Japanese,f,7,0.7,-14.97727246,1.4182331
NAY,67,1,2024-06-23T02:26:59.921Z,english_578.wav,0,pill,303,19,3,Japanese,f,8,0.8,-21.44814327,1.48872207
NAY,67,1,2024-06-23T02:26:59.921Z,english_578.wav,0,pill,303,19,3,Japanese,f,9,0.9,-62.07774638,0.52217737
NAY,67,1,2024-06-23T02:26:59.921Z,english_578.wav,0,pill,303,19,3,Japanese,f,10,1.0,-99.81693505,1.9830309
NAY,67,1,2024-06-23T02:26:59.921Z,english_578.wav,0,pill,303,19,3,Japanese,f,11,1.09391667,-93.56727968,1.11565266
NAY,68,1,2024-06-23T02:26:59.921Z,english_899.wav,0,peel,390,19,3,Japanese,f,0,0.0,36.05043058,0.90588284
NAY,68,1,2024-06-23T02:26:59.921Z,english_899.wav,0,peel,390,19,3,Japanese,f,1,0.1,33.3197066,1.60760833
NAY,68,1,2024-06-23T02:26:59.921Z,english_899.wav,0,peel,390,19,3,Japanese,f,2,0.2,-89.01295916,1.45467369
NAY,68,1,2024-06-23T02:26:59.921Z,english_899.wav,0,peel,390,19,3,Japanese,f,3,0.3,98.52221139,0.4019209
NAY,68,1,2024-06-23T02:26:59.921Z,english_899.wav,0,peel,390,19,3,Japanese,f,4,0.4,-46.63657868,1.10920818
NAY,68,1,2024-06-23T02:26:59.921Z,english_899.wav,0,peel,390,19,3,Japanese,f,5,0.5,-65.65669191,1.04007942
NAY,68,1,2024-06-23T02:26:59.921Z,english_899.wav,0,peel,390,19,3,Japanese,f,6,0.6,76.90163594,0.20562094
NAY,68,1,2024-06-23T02:26:59.921Z,english_899.wav,0,peel,390,19,3,Japanese,f,7,0.7,36.98286823,0.26673383
NAY,68,1,2024-06-23T02:26:59.921Z,english_899.wav,0,peel,390,19,3,Japanese,f,8,0.8,58.54417199,0.17186704
NAY,68,1,2024-06-23T02:26:59.921Z,english_899.wav,0,peel,390,19,3,Japanese,f,9,0.9,37.91895182,1.28815156
NAY,68,1,2024-06-23T02:26:59.921Z,english_899.wav,0,peel,390,19,3,Japanese,f,10,1.0,-84.2401269,0.03412997
NAY,68,1,2024-06-23T02:26:59.921Z,english_899.wav,0,peel,390,19,3,Japanese,f,11,1.09391667,-3.10665722,1.51688145
NAY,69,1,2024-06-23T02:26:59.921Z,english_61.wav,0,pill,981,19,3,Japanese,f,0,0.0,-76.31366774,1.15675845
NAY,69,1,2024-06-23T02:26:59.921Z,english_61.wav,0,pill,981,19,3,Japanese,f,1,0.1,-70.32577527,0.79511083
NAY,69,1,2024-06-23T02:26:59.921Z,english_61.wav,0,pill,981,19,3,Japanese,f,2,0.2,5.13466316,0.40451227
NAY,69,1,2024-06-23T02:26:59.921Z,english_61.wav,0,pill,981,19,3,Japanese,f,3,0.3,37.00830294,0.79487484
NAY,69,1,2024-06-23T02:26:59.921Z,english_61.wav,0,pill,981,19,3,Japanese,f,4,0.4,-11.73068973,0.44483697
NAY,69,1,2024-06-23T02:26:59.921Z,english_61.wav,0,pill,981,19,3,Japanese,f,5,0.5,91.45109603,0.84603206
NAY,69,1,2024-06-23T02:26:59.921Z,english_61.wav,0,pill,981,19,3,Japanese,f,6,0.6,11.9601718,0.8090615
NAY,69,1,2024-06-23T02:26:59.921Z,english_61.wav,0,pill,981,19,3,Japanese,f,7,0.7,-66.7573243,1.09438885
NAY,69,1,2024-06-23T02:26:59.921Z,english_61.wav,0,pill,981,19,3,Japanese,f,8,0.8,78.73702917,1.14041124
NAY,69,1,2024-06-23T02:26:59.921Z,english_61.wav,0,pill,981,19,3,Japanese,f,9,0.9,61.80688515,0.39248564
NAY,69,1,2024-06-23T02:26:59.921Z,english_61.wav,0,pill,981,19,3,Japanese,f,10,1.0,-73.85845523,1.77720472
NAY,69,1,2024-06-23T02:26:59.921Z,english_61.wav,0,pill,981,19,3,Japanese,f,11,1.09391667,-24.76259921,1.29259789
NAY,70,1,2024-06-23T02:26:59.921Z,english_981.wav,0,pill,1610,19,3,Japanese,f,0,0.0,24.3055989,1.29303253
NAY,70,1,2024-06-23T02:26:59.921Z,english_981.wav,0,pill,1610,19,3,Japanese,f,1,0.1,28.97891723,1.06779992
NAY,70,1,2024-06-23T02:26:59.921Z,english_981.wav,0,pill,1610,19,3,Japanese,f,2,0.2,51.4418758,1.11588817
NAY,70,1,2024-06-23T02:26:59.921Z,english_981.wav,0,pill,1610,19,3,Japanese,f,3,0.3,-41.6425055,1.45059858
NAY,70,1,2024-06-23T02:26:59.921Z,english_981.wav,0,pill,1610,19,3,Japanese,f,4,0.4,-6.63622722,0.93926956
NAY,70,1,2024-06-23T02:26:59.921Z,english_981.wav,0,pill,1610,19,3,Japanese,f,5,0.5,90.98935315,0.09427917
NAY,70,1,2024-06-23T02:26:59.921Z,english_981.wav,0,pill,1610,19,3,Japanese,f,6,0.6,-91.30627378,0.99584654
NAY,70,1,2024-06-23T02:26:59.921Z,english_981.wav,0,pill,1610,19,3,Japanese,f,7,0.7,-70.54702949,1.20164622
NAY,70,1,2024-06-23T02:26:59.921Z,english_981.wav,0,pill,1610,19,3,Japanese,f,8,0.8,37.31249144,1.37323006
NAY,70,1,2024-06-23T02:26:59.921Z,english_981.wav,0,pill,1610,19,3,Japanese,f,9,0.9,44.20519134,0.98395355
NAY,70,1,2024-06-23T02:26:59.921Z,english_981.wav,0,pill,1610,19,3,Japanese,f,10,1.0,-85.22636705,0.17020531
NAY,70,1,2024-06-23T02:26:59.921Z,english_981.wav,0,pill,1610,19,3,Japanese,f,11,1.09391667,33.48956199,0.83321676
NAY,71,1,2024-06-23T02:26:59.921Z,english_209.wav,0,pill,4763,19,3,Japanese,f,0,0.0,-69.97643607,1.01752059
NAY,71,1,2024-06-23T02:26:59.921Z,english_209.wav,0,pill,4763,19,3,Japanese,f,1,0.1,-88.52393114,0.50741315
NAY,71,1,2024-06-23T02:26:59.921Z,english_209.wav,0,pill,4763,19,3,Japanese,f,2,0.2,-92.64381406,1.61277815
NAY,71,1,2024-06-23T02:26:59.921Z,english_209.wav,0,pill,4763,19,3,Japanese,f,3,0.3,-12.19607679,1.4872908
NAY,71,1,2024-06-23T02:26:59.921Z,english_209.wav,0,pill,4763,19,3,Japanese,f,4,0.4,51.51628924,0.5793757
NAY,71,1,2024-06-23T02:26:59.921Z,english_209.wav,0,pill,4763,19,3,Japanese,f,5,0.5,-0.64468501,0.52779709
NAY,71,1,2024-06-23T02:26:59.921Z,english_209.wav,0,pill,4763,19,3,Japanese,f,6,0.6,71.59302863,0.0231703
NAY,71,1,2024-06-23T02:26:59.921Z,english_209.wav,0,pill,4763,19,3,Japanese,f,7,0.7,-9.81029184,1.34840208
NAY,71,1,2024-06-23T02:26:59.921Z,english_209.wav,0,pill,4763,19,3,Japanese,f,8,0.8,-24.63818078,0.66467052
NAY,71,1,2024-06-23T02:26:59.921Z,english_209.wav,0,pill,4763,19,3,Japanese,f,9,0.9,-3.20105403,0.39411628
NAY,71,1,2024-06-23T02:26:59.921Z,english_209.wav,0,pill,4763,19,3,Japanese,f,10,1.0,34.64482647,0.07463584
NAY,71,1,2024-06-23T02:26:59.921Z,english_209.wav,0,pill,4763,19,3,Japanese,f,11,1.09391667,-96.73374827,1.52336413
NAY,72,1,2024-06-23T02:26:59.921Z,english_548.wav,0,peel,460,19,3,Japanese,f,0,0.0,-24.88128465,1.63350405
NAY,72,1,2024-06-23T02:26:59.921Z,english_548.wav,0,peel,460,19,3,Japanese,f,1,0.1,1.54687273,0.1653087
NAY,72,1,2024-06-23T02:26:59.921Z,english_548.wav,0,peel,460,19,3,Japanese,f,2,0.2,58.02940435,0.01517729
NAY,72,1,2024-06-23T02:26:59.921Z,english_548.wav,0,peel,460,19,3,Japanese,f,3,0.3,-2.90148727,1.81666457
NAY,72,1,2024-06-23T02:26:59.921Z,english_548.wav,0,peel,460,19,3,Japanese,f,4,0.4,9.31686881,0.9208407
NAY,72,1,2024-06-23T02:26:59.921Z,english_548.wav,0,peel,460,19,3,Japanese,f,5,0.5,-62.70026351,1.35074745
NAY,72,1,2024-06-23T02:26:59.921Z,english_548.wav,0,peel,460,19,3,Japanese,f,6,0.6,-56.6580034,0.86467249
NAY,72,1,2024-06-23T02:26:59.921Z,english_548.wav,0,peel,460,19,3,Japanese,f,7,0.7,14.62965286,1.73416909
NAY,72,1,2024-06-23T02:26:59.921Z,english_548.wav,0,peel,460,19,3,Japanese,f,8,0.8,-14.87483285,1.42113571
NAY,72,1,2024-06-23T02:26:59.921Z,english_548.wav,0,peel,460,19,3,Japanese,f,9,0.9,69.23683794,0.95555023
NAY,72,1,2024-06-23T02:26:59.921Z,english_548.wav,0,peel,460,19,3,Japanese,f,10,1.0,-42.98683333,1.22888343
NAY,72,1,2024-06-23T02:26:59.921Z,english_548.wav,0,peel,460,19,3,Japanese,f,11,1.09391667,67.19958302,1.18114311
NAY,73,1,2024-06-23T02:26:59.921Z,english_999.wav,0,pill,2554,19,3,Japanese,f,0,0.0,-8.27619319,0.000148642599
NAY,73,1,2024-06-23T02:26:59.921Z,english_999.wav,0,pill,2554,19,3,Japanese,f,1,0.1,-49.3883822,1.22232627
NAY,73,1,2024-06-23T02:26:59.921Z,english_999.wav,0,pill,2554,19,3,Japanese,f,2,0.2,97.54217101,1.1174933
NAY,73,1,2024-06-23T02:26:59.921Z,english_999.wav,0,pill,2554,19,3,Japanese,f,3,0.3,-49.81406735,1.80111229
NAY,73,1,2024-06-23T02:26:59.921Z,english_999.wav,0,pill,2554,19,3,Japanese,f,4,0.4,46.43683506,0.552807392
NAY,73,1,2024-06-23T02:26:59.921Z,english_999.wav,0,pill,2554,19,3,Japanese,f,5,0.5,89.32784762,1.53319988
NAY,73,1,2024-06-23T02:26:59.921Z,english_999.wav,0,pill,2554,19,3,Japanese,f,6,0.6,-55.73277594,1.7616442
NAY,73,1,2024-06-23T02:26:59.921Z,english_999.wav,0,pill,2554,19,3,Japanese,f,7,0.7,49.38462906,0.0772486607
NAY,73,1,2024-06-23T02:26:59.921Z,english_999.wav,0,pill,2554,19,3,Japanese,f,8,0.8,85.41123264,1.0025863
NAY,73,1,2024-06-23T02:26:59.921Z,english_999.wav,0,pill,2554,19,3,Japanese,f,9,0.9,-58.86557708,0.329932429
NAY,73,1,2024-06-23T02:26:59.921Z,english_999.wav,0,pill,2554,19,3,Japanese,f,10,1.0,99.11766896,1.88826288
NAY,73,1,2024-06-23T02:26:59.921Z,english_999.wav,0,pill,2554,19,3,Japanese,f,11,1.09391667,28.82385918,1.88223689
NAY,74,1,2024-06-23T02:26:59.921Z,english_738.wav,0,peel,1540,19,3,Japanese,f,0,0.0,40.29848329,1.14824707
NAY,74,1,2024-06-23T02:26:59.921Z,english_738.wav,0,peel,1540,19,3,Japanese,f,1,0.1,66.12105636,1.60387601
NAY,74,1,2024-06-23T02:26:59.921Z,english_738.wav,0,peel,1540,19,3,Japanese,f,2,0.2,-12.57692477,1.084542
NAY,74,1,2024-06-23T02:26:59.921Z,english_738.wav,0,peel,1540,19,3,Japanese,f,3,0.3,-81.4028628,1.81856642
NAY,74,1,2024-06-23T02:26:59.921Z,english_738.wav,0,peel,1540,19,3,Japanese,f,4,0.4,83.16146046,1.62922567
NAY,74,1,2024-06-23T02:26:59.921Z,english_738.wav,0,peel,1540,19,3,Japanese,f,5,0.5,59.80662428,0.86427283
NAY,74,1,2024-06-23T02:26:59.921Z,english_738.wav,0,peel,1540,19,3,Japanese,f,6,0.6,40.28369402,0.1736944
NAY,74,1,2024-06-23T02:26:59.921Z,english_738.wav,0,peel,1540,19,3,Japanese,f,7,0.7,70.16502192,0.66918612
NAY,74,1,2024-06-23T02:26:59.921Z,english_738.wav,0,peel,1540,19,3,Japanese,f,8,0.8,33.24952129,1.29313609
NAY,74,1,2024-06-23T02:26:59.921Z,english_738.wav,0,peel,1540,19,3,Japanese,f,9,0.9,-77.78198323,0.37962966
NAY,74,1,2024-06-23T02:26:59.921Z,english_738.wav,0,peel,1540,19,3,Japanese,f,10,1.0,6.29614131,0.80178577
NAY,74,1,2024-06-23T02:26:59.921Z,english_738.wav,0,peel,1540,19,3,Japanese,f,11,1.09391667,60.18727711,0.93492505
NAY,75,1,2024-06-23T02:26:59.921Z,english_929.wav,0,peel,799,19,3,Japanese,f,0,0.0,-18.74393268,1.03205893
NAY,75,1,2024-06-23T02:26:59.921Z,english_929.wav,0,peel,799,19,3,Japanese,f,1,0.1,33.5098218,1.56324899
NAY,75,1,2024-06-23T02:26:59.921Z,english_929.wav,0,peel,799,19,3,Japanese,f,2,0.2,-29.94782209,1.48903241
NAY,75,1,2024-06-23T02:26:59.921Z,english_929.wav,0,peel,799,19,3,Japanese,f,3,0.3,-33.25977884,0.12654912
NAY,75,1,2024-06-23T02:26:59.921Z,english_929.wav,0,peel,799,19,3,Japanese,f,4,0.4,-9.01985938,0.84484029
NAY,75,1,2024-06-23T02:26:59.921Z,english_929.wav,0,peel,799,19,3,Japanese,f,5,0.5,-82.73987875,0.94715121
NAY,75,1,2024-06-23T02:26:59.921Z,english_929.wav,0,peel,799,19,3,Japanese,f,6,0.6,48.07587241,1.69154368
NAY,75,1,2024-06-23T02:26:59.921Z,english_929.wav,0,peel,799,19,3,Japanese,f,7,0.7,-43.15088987,0.81126675
NAY,75,1,2024-06-23T02:26:59.921Z,english_929.wav,0,peel,799,19,3,Japanese,f,8,0.8,82.92488977,0.36905029
NAY,75,1,2024-06-23T02:26:59.921Z,english_929.wav,0,peel,799,19,3,Japanese,f,9,0.9,-60.38444868,0.50874334
NAY,75,1,2024-06-23T02:26:59.921Z,english_929.wav,0,peel,799,19,3,Japanese,f,10,1.0,27.71416794,0.95284967
NAY,75,1,2024-06-23T02:26:59.921Z,english_929.wav,0,peel,799,19,3,Japanese,f,11,1.09391667,21.92497573,0.65099343
NAY,76,1,2024-06-23T02:26:59.921Z,english_855.wav,0,peel,301,19,3,Japanese,f,0,0.0,-13.47347562,1.00059458
NAY,76,1,2024-06-23T02:26:59.921Z,english_855.wav,0,peel,301,19,3,Japanese,f,1,0.1,-80.05914573,0.50263337
NAY,76,1,2024-06-23T02:26:59.921Z,english_855.wav,0,peel,301,19,3,Japanese,f,2,0.2,-72.26699248,0.84336515
NAY,76,1,2024-06-23T02:26:59.921Z,english_855.wav,0,peel,301,19,3,Japanese,f,3,0.3,-58.92718016,1.88793301
NAY,76,1,2024-06-23T02:26:59.921Z,english_855.wav,0,peel,301,19,3,Japanese,f,4,0.4,-26.10050626,0.44425999
NAY,76,1,2024-06-23T02:26:59.921Z,english_855.wav,0,peel,301,19,3,Japanese,f,5,0.5,52.49716227,1.63024313
NAY,76,1,2024-06-23T02:26:59.921Z,english_855.wav,0,peel,301,19,3,Japanese,f,6,0.6,-60.2709564,0.11111393
NAY,76,1,2024-06-23T02:26:59.921Z,english_855.wav,0,peel,301,19,3,Japanese,f,7,0.7,99.6254906,1.35713378
NAY,76,1,2024-06-23T02:26:59.921Z,english_855.wav,0,peel,301,19,3,Japanese,f,8,0.8,96.73720775,0.79488914
NAY,76,1,2024-06-23T02:26:59.921Z,english_855.wav,0,peel,301,19,3,Japanese,f,9,0.9,38.62507801,1.22496373
NAY,76,1,2024-06-23T02:26:59.921Z,english_855.wav,0,peel,301,19,3,Japanese,f,10,1.0,-58.05029263,1.90547482
NAY,76,1,2024-06-23T02:26:59.921Z,english_855.wav,0,peel,301,19,3,Japanese,f,11,1.09391667,-97.63647514,0.01778788
NAY,77,1,2024-06-23T02:26:59.921Z,english_673.wav,0,pill,9085,19,3,Japanese,f,0,0.0,90.76839252,1.23453875
NAY,77,1,2024-06-23T02:26:59.921Z,english_673.wav,0,pill,9085,19,3,Japanese,f,1,0.1,6.046272,1.03311149
NAY,77,1,2024-06-23T02:26:59.921Z,english_673.wav,0,pill,9085,19,3,Japanese,f,2,0.2,-87.83071151,1.26397394
NAY,77,1,2024-06-23T02:26:59.921Z,english_673.wav,0,pill,9085,19,3,Japanese,f,3,0.3,36.6509823,1.9126635
NAY,77,1,2024-06-23T02:26:59.921Z,english_673.wav,0,pill,9085,19,3,Japanese,f,4,0.4,-32.18158433,1.72280276
NAY,77,1,2024-06-23T02:26:59.921Z,english_673.wav,0,pill,9085,19,3,Japanese,f,5,0.5,-19.24802142,0.25348074
NAY,77,1,2024-06-23T02:26:59.921Z,english_673.wav,0,pill,9085,19,3,Japanese,f,6,0.6,48.91730907,1.44743683
NAY,77,1,2024-06-23T02:26:59.921Z,english_673.wav,0,pill,9085,19,3,Japanese,f,7,0.7,69.64943754,1.155997
