subj,trial,block,date,stim,stim_order,response,rt,param_index,segment,pitch,stretch
RIT,0,0,2024-06-27T08:24:47.164Z,english_316.wav,0,pill,3515,0,0.0,4.92084963,1.82046547
RIT,0,0,2024-06-27T08:24:47.164Z,english_316.wav,0,pill,3515,1,0.1,-92.73041115,1.60846764
RIT,0,0,2024-06-27T08:24:47.164Z,english_316.wav,0,pill,3515,2,0.2,-78.94275278,0.68214028
RIT,0,0,2024-06-27T08:24:47.164Z,english_316.wav,0,pill,3515,3,0.3,36.46358143,0.59431671
RIT,0,0,2024-06-27T08:24:47.164Z,english_316.wav,0,pill,3515,4,0.4,42.64715022,1.09166662
RIT,0,0,2024-06-27T08:24:47.164Z,english_316.wav,0,pill,3515,5,0.5,-54.71554497,0.66753255
RIT,0,0,2024-06-27T08:24:47.164Z,english_316.wav,0,pill,3515,6,0.6,24.90057363,1.53988743
RIT,0,0,2024-06-27T08:24:47.164Z,english_316.wav,0,pill,3515,7,0.7,42.42034457,1.41871396
RIT,0,0,2024-06-27T08:24:47.164Z,english_316.wav,0,pill,3515,8,0.8,-11.4569409,0.9466195
RIT,0,0,2024-06-27T08:24:47.164Z,english_316.wav,0,pill,3515,9,0.9,38.39502629,0.93569824
RIT,0,0,2024-06-27T08:24:47.164Z,english_316.wav,0,pill,3515,10,1.0,-82.69974188,0.72107622
RIT,0,0,2024-06-27T08:24:47.164Z,english_316.wav,0,pill,3515,11,1.09391667,-39.14916623,1.49118596
RIT,1,0,2024-06-27T08:24:47.164Z,english_790.wav,0,pill,3661,0,0.0,5.47810166,1.26408321
RIT,1,0,2024-06-27T08:24:47.164Z,english_790.wav,0,pill,3661,1,0.1,-9.2687044,0.26503637
RIT,1,0,2024-06-27T08:24:47.164Z,english_790.wav,0,pill,3661,2,0.2,71.91302434,0.46926152
RIT,1,0,2024-06-27T08:24:47.164Z,english_790.wav,0,pill,3661,3,0.3,-95.14086012,0.64840522
RIT,1,0,2024-06-27T08:24:47.164Z,english_790.wav,0,pill,3661,4,0.4,81.24819191,0.79568814
RIT,1,0,2024-06-27T08:24:47.164Z,english_790.wav,0,pill,3661,5,0.5,-43.38316414,0.82256958
RIT,1,0,2024-06-27T08:24:47.164Z,english_790.wav,0,pill,3661,6,0.6,81.5189634,1.36445651
RIT,1,0,2024-06-27T08:24:47.164Z,english_790.wav,0,pill,3661,7,0.7,36.28483158,0.42135765
RIT,1,0,2024-06-27T08:24:47.164Z,english_790.wav,0,pill,3661,8,0.8,68.43717388,0.07801016
RIT,1,0,2024-06-27T08:24:47.164Z,english_790.wav,0,pill,3661,9,0.9,10.19963637,0.70937824
RIT,1,0,2024-06-27T08:24:47.164Z,english_790.wav,0,pill,3661,10,1.0,-15.25841054,1.62056491
RIT,1,0,2024-06-27T08:24:47.164Z,english_790.wav,0,pill,3661,11,1.09391667,-62.44422803,1.67467407
RIT,2,0,2024-06-27T08:24:47.164Z,english_70.wav,0,peel,1831,0,0.0,84.7445928,1.85159723
RIT,2,0,2024-06-27T08:24:47.164Z,english_70.wav,0,peel,1831,1,0.1,-17.05936153,0.49913073
RIT,2,0,2024-06-27T08:24:47.164Z,english_70.wav,0,peel,1831,2,0.2,48.77629579,1.2524697
RIT,2,0,2024-06-27T08:24:47.164Z,english_70.wav,0,peel,1831,3,0.3,-37.18095977,1.90044367
RIT,2,0,2024-06-27T08:24:47.164Z,english_70.wav,0,peel,1831,4,0.4,49.63064657,0.54300229
RIT,2,0,2024-06-27T08:24:47.164Z,english_70.wav,0,peel,1831,5,0.5,-62.82111716,1.34279252
RIT,2,0,2024-06-27T08:24:47.164Z,english_70.wav,0,peel,1831,6,0.6,35.10101602,1.14641918
RIT,2,0,2024-06-27T08:24:47.164Z,english_70.wav,0,peel,1831,7,0.7,-40.08264695,0.66805918
RIT,2,0,2024-06-27T08:24:47.164Z,english_70.wav,0,peel,1831,8,0.8,35.78231672,1.02673009
RIT,2,0,2024-06-27T08:24:47.164Z,english_70.wav,0,peel,1831,9,0.9,-49.57858266,1.60161004
RIT,2,0,2024-06-27T08:24:47.164Z,english_70.wav,0,peel,1831,10,1.0,-49.37995814,1.69848543
RIT,2,0,2024-06-27T08:24:47.164Z,english_70.wav,0,peel,1831,11,1.09391667,20.96821744,0.40967928
RIT,3,0,2024-06-27T08:24:47.164Z,english_686.wav,0,pill,1185,0,0.0,-67.05425971,1.70124543
RIT,3,0,2024-06-27T08:24:47.164Z,english_686.wav,0,pill,1185,1,0.1,-39.97086024,0.46826984
RIT,3,0,2024-06-27T08:24:47.164Z,english_686.wav,0,pill,1185,2,0.2,-95.68334926,0.38007699
RIT,3,0,2024-06-27T08:24:47.164Z,english_686.wav,0,pill,1185,3,0.3,95.25173903,1.75748907
RIT,3,0,2024-06-27T08:24:47.164Z,english_686.wav,0,pill,1185,4,0.4,-32.8311948,0.73728226
RIT,3,0,2024-06-27T08:24:47.164Z,english_686.wav,0,pill,1185,5,0.5,-48.95766653,0.66391126
RIT,3,0,2024-06-27T08:24:47.164Z,english_686.wav,0,pill,1185,6,0.6,1.46673541,0.49234924
RIT,3,0,2024-06-27T08:24:47.164Z,english_686.wav,0,pill,1185,7,0.7,2.82521342,1.58569933
RIT,3,0,2024-06-27T08:24:47.164Z,english_686.wav,0,pill,1185,8,0.8,-50.40490355,0.73602174
RIT,3,0,2024-06-27T08:24:47.164Z,english_686.wav,0,pill,1185,9,0.9,-13.31081272,0.69160948
RIT,3,0,2024-06-27T08:24:47.164Z,english_686.wav,0,pill,1185,10,1.0,86.45331077,1.60918627
RIT,3,0,2024-06-27T08:24:47.164Z,english_686.wav,0,pill,1185,11,1.09391667,27.45785802,0.82158227
RIT,4,0,2024-06-27T08:24:47.164Z,english_297.wav,0,pill,1107,0,0.0,11.20692079,0.86492625
RIT,4,0,2024-06-27T08:24:47.164Z,english_297.wav,0,pill,1107,1,0.1,55.75431015,0.88416452
RIT,4,0,2024-06-27T08:24:47.164Z,english_297.wav,0,pill,1107,2,0.2,-86.64282083,0.82005931
RIT,4,0,2024-06-27T08:24:47.164Z,english_297.wav,0,pill,1107,3,0.3,3.92544498,1.68274586
RIT,4,0,2024-06-27T08:24:47.164Z,english_297.wav,0,pill,1107,4,0.4,74.84193622,0.6310151
RIT,4,0,2024-06-27T08:24:47.164Z,english_297.wav,0,pill,1107,5,0.5,98.87033291,1.10285094
RIT,4,0,2024-06-27T08:24:47.164Z,english_297.wav,0,pill,1107,6,0.6,-27.05853929,1.62243403
RIT,4,0,2024-06-27T08:24:47.164Z,english_297.wav,0,pill,1107,7,0.7,28.57762927,0.88003843
RIT,4,0,2024-06-27T08:24:47.164Z,english_297.wav,0,pill,1107,8,0.8,43.21204816,0.80969405
RIT,4,0,2024-06-27T08:24:47.164Z,english_297.wav,0,pill,1107,9,0.9,-15.31404034,1.74854736
RIT,4,0,2024-06-27T08:24:47.164Z,english_297.wav,0,pill,1107,10,1.0,27.27632772,0.34135996
RIT,4,0,2024-06-27T08:24:47.164Z,english_297.wav,0,pill,1107,11,1.09391667,22.16706661,0.77981114
RIT,5,0,2024-06-27T08:24:47.164Z,english_981.wav,0,peel,1054,0,0.0,24.3055989,1.29303253
RIT,5,0,2024-06-27T08:24:47.164Z,english_981.wav,0,peel,1054,1,0.1,28.97891723,1.06779992
RIT,5,0,2024-06-27T08:24:47.164Z,english_981.wav,0,peel,1054,2,0.2,51.4418758,1.11588817
RIT,5,0,2024-06-27T08:24:47.164Z,english_981.wav,0,peel,1054,3,0.3,-41.6425055,1.45059858
RIT,5,0,2024-06-27T08:24:47.164Z,english_981.wav,0,peel,1054,4,0.4,-6.63622722,0.93926956
RIT,5,0,2024-06-27T08:24:47.164Z,english_981.wav,0,peel,1054,5,0.5,90.98935315,0.09427917
RIT,5,0,2024-06-27T08:24:47.164Z,english_981.wav,0,peel,1054,6,0.6,-91.30627378,0.99584654
RIT,5,0,2024-06-27T08:24:47.164Z,english_981.wav,0,peel,1054,7,0.7,-70.54702949,1.20164622
RIT,5,0,2024-06-27T08:24:47.164Z,english_981.wav,0,peel,1054,8,0.8,37.31249144,1.37323006
RIT,5,0,2024-06-27T08:24:47.164Z,english_981.wav,0,peel,1054,9,0.9,44.20519134,0.98395355
RIT,5,0,2024-06-27T08:24:47.164Z,english_981.wav,0,peel,1054,10,1.0,-85.22636705,0.17020531
RIT,5,0,2024-06-27T08:24:47.164Z,english_981.wav,0,peel,1054,11,1.09391667,33.48956199,0.83321676
RIT,6,0,2024-06-27T08:24:47.164Z,english_266.wav,0,pill,1574,0,0.0,85.08589672,0.35806768
RIT,6,0,2024-06-27T08:24:47.164Z,english_266.wav,0,pill,1574,1,0.1,-31.38715876,1.30312729
RIT,6,0,2024-06-27T08:24:47.164Z,english_266.wav,0,pill,1574,2,0.2,12.76761621,0.13135106
RIT,6,0,2024-06-27T08:24:47.164Z,english_266.wav,0,pill,1574,3,0.3,-84.09112809,1.10001243
RIT,6,0,2024-06-27T08:24:47.164Z,english_266.wav,0,pill,1574,4,0.4,-35.65738205,0.09400181
RIT,6,0,2024-06-27T08:24:47.164Z,english_266.wav,0,pill,1574,5,0.5,-1.3575127,1.62804367
RIT,6,0,2024-06-27T08:24:47.164Z,english_266.wav,0,pill,1574,6,0.6,28.50579554,0.86420495
RIT,6,0,2024-06-27T08:24:47.164Z,english_266.wav,0,pill,1574,7,0.7,-64.0196403,0.86051542
RIT,6,0,2024-06-27T08:24:47.164Z,english_266.wav,0,pill,1574,8,0.8,-12.66471897,1.59602975
RIT,6,0,2024-06-27T08:24:47.164Z,english_266.wav,0,pill,1574,9,0.9,33.09789324,1.84870637
RIT,6,0,2024-06-27T08:24:47.164Z,english_266.wav,0,pill,1574,10,1.0,96.55876506,1.74532524
RIT,6,0,2024-06-27T08:24:47.164Z,english_266.wav,0,pill,1574,11,1.09391667,86.66414538,1.19425471
RIT,7,0,2024-06-27T08:24:47.164Z,english_201.wav,0,pill,743,0,0.0,38.80737773,0.9006916
RIT,7,0,2024-06-27T08:24:47.164Z,english_201.wav,0,pill,743,1,0.1,-19.59989916,0.40577957
RIT,7,0,2024-06-27T08:24:47.164Z,english_201.wav,0,pill,743,2,0.2,66.60738163,0.32844259
RIT,7,0,2024-06-27T08:24:47.164Z,english_201.wav,0,pill,743,3,0.3,-56.04483053,1.02628552
RIT,7,0,2024-06-27T08:24:47.164Z,english_201.wav,0,pill,743,4,0.4,70.74519799,1.24548515
RIT,7,0,2024-06-27T08:24:47.164Z,english_201.wav,0,pill,743,5,0.5,-47.08782515,0.07505998
RIT,7,0,2024-06-27T08:24:47.164Z,english_201.wav,0,pill,743,6,0.6,-82.17312899,0.1226459
RIT,7,0,2024-06-27T08:24:47.164Z,english_201.wav,0,pill,743,7,0.7,4.63557835,1.79532837
RIT,7,0,2024-06-27T08:24:47.164Z,english_201.wav,0,pill,743,8,0.8,13.50311248,1.69109423
RIT,7,0,2024-06-27T08:24:47.164Z,english_201.wav,0,pill,743,9,0.9,50.05274214,0.91883167
RIT,7,0,2024-06-27T08:24:47.164Z,english_201.wav,0,pill,743,10,1.0,-76.13616328,0.81807561
RIT,7,0,2024-06-27T08:24:47.164Z,english_201.wav,0,pill,743,11,1.09391667,8.54722281,1.88316121
RIT,8,0,2024-06-27T08:24:47.164Z,english_953.wav,0,pill,2813,0,0.0,66.99743889,1.15286604
RIT,8,0,2024-06-27T08:24:47.164Z,english_953.wav,0,pill,2813,1,0.1,-76.84252631,1.84100888
RIT,8,0,2024-06-27T08:24:47.164Z,english_953.wav,0,pill,2813,2,0.2,-45.49309493,0.29896559
RIT,8,0,2024-06-27T08:24:47.164Z,english_953.wav,0,pill,2813,3,0.3,55.46461894,0.47017465
RIT,8,0,2024-06-27T08:24:47.164Z,english_953.wav,0,pill,2813,4,0.4,81.99201124,0.15248902
RIT,8,0,2024-06-27T08:24:47.164Z,english_953.wav,0,pill,2813,5,0.5,1.34607331,1.13290225
RIT,8,0,2024-06-27T08:24:47.164Z,english_953.wav,0,pill,2813,6,0.6,50.45029952,0.34595451
RIT,8,0,2024-06-27T08:24:47.164Z,english_953.wav,0,pill,2813,7,0.7,74.64893983,0.44244875
RIT,8,0,2024-06-27T08:24:47.164Z,english_953.wav,0,pill,2813,8,0.8,26.00448077,0.8076701
RIT,8,0,2024-06-27T08:24:47.164Z,english_953.wav,0,pill,2813,9,0.9,-99.39894728,1.93347558
RIT,8,0,2024-06-27T08:24:47.164Z,english_953.wav,0,pill,2813,10,1.0,-16.71063882,1.69365872
RIT,8,0,2024-06-27T08:24:47.164Z,english_953.wav,0,pill,2813,11,1.09391667,53.60095231,1.16220812
RIT,9,0,2024-06-27T08:24:47.164Z,english_346.wav,0,pill,940,0,0.0,24.07666509,0.66537663
RIT,9,0,2024-06-27T08:24:47.164Z,english_346.wav,0,pill,940,1,0.1,-87.64157913,1.54123619
RIT,9,0,2024-06-27T08:24:47.164Z,english_346.wav,0,pill,940,2,0.2,-51.3970499,0.92348631
RIT,9,0,2024-06-27T08:24:47.164Z,english_346.wav,0,pill,940,3,0.3,79.45874018,0.33920207
RIT,9,0,2024-06-27T08:24:47.164Z,english_346.wav,0,pill,940,4,0.4,-74.83031912,0.94433533
RIT,9,0,2024-06-27T08:24:47.164Z,english_346.wav,0,pill,940,5,0.5,-2.98294823,0.8352321
RIT,9,0,2024-06-27T08:24:47.164Z,english_346.wav,0,pill,940,6,0.6,-32.38946294,0.95810053
RIT,9,0,2024-06-27T08:24:47.164Z,english_346.wav,0,pill,940,7,0.7,-24.81590652,0.99822629
RIT,9,0,2024-06-27T08:24:47.164Z,english_346.wav,0,pill,940,8,0.8,-13.90891955,0.18782062
RIT,9,0,2024-06-27T08:24:47.164Z,english_346.wav,0,pill,940,9,0.9,-33.49626836,1.6271571
RIT,9,0,2024-06-27T08:24:47.164Z,english_346.wav,0,pill,940,10,1.0,-23.2144111,1.67158741
RIT,9,0,2024-06-27T08:24:47.164Z,english_346.wav,0,pill,940,11,1.09391667,-9.66358574,1.16169049
RIT,10,0,2024-06-27T08:24:47.164Z,english_112.wav,0,pill,1201,0,0.0,49.45259009,1.41914206
RIT,10,0,2024-06-27T08:24:47.164Z,english_112.wav,0,pill,1201,1,0.1,26.00670844,1.08420532
RIT,10,0,2024-06-27T08:24:47.164Z,english_112.wav,0,pill,1201,2,0.2,-62.78053013,1.90864959
RIT,10,0,2024-06-27T08:24:47.164Z,english_112.wav,0,pill,1201,3,0.3,13.64858628,0.00296714
RIT,10,0,2024-06-27T08:24:47.164Z,english_112.wav,0,pill,1201,4,0.4,-46.53502922,0.2257171
RIT,10,0,2024-06-27T08:24:47.164Z,english_112.wav,0,pill,1201,5,0.5,55.2952107,1.98382605
RIT,10,0,2024-06-27T08:24:47.164Z,english_112.wav,0,pill,1201,6,0.6,-37.49134954,0.39764394
RIT,10,0,2024-06-27T08:24:47.164Z,english_112.wav,0,pill,1201,7,0.7,9.25181319,1.10443659
RIT,10,0,2024-06-27T08:24:47.164Z,english_112.wav,0,pill,1201,8,0.8,52.76907871,0.52917173
RIT,10,0,2024-06-27T08:24:47.164Z,english_112.wav,0,pill,1201,9,0.9,40.19984459,0.39475588
RIT,10,0,2024-06-27T08:24:47.164Z,english_112.wav,0,pill,1201,10,1.0,72.4009261,0.72882938
RIT,10,0,2024-06-27T08:24:47.164Z,english_112.wav,0,pill,1201,11,1.09391667,-65.62688247,0.87807842
RIT,11,0,2024-06-27T08:24:47.164Z,english_287.wav,0,pill,1189,0,0.0,10.36471628,0.01185683
RIT,11,0,2024-06-27T08:24:47.164Z,english_287.wav,0,pill,1189,1,0.1,-58.57729137,1.45020857
RIT,11,0,2024-06-27T08:24:47.164Z,english_287.wav,0,pill,1189,2,0.2,-27.93575021,0.19382892
RIT,11,0,2024-06-27T08:24:47.164Z,english_287.wav,0,pill,1189,3,0.3,33.78979174,0.71448768
RIT,11,0,2024-06-27T08:24:47.164Z,english_287.wav,0,pill,1189,4,0.4,-33.15491758,0.01801383
RIT,11,0,2024-06-27T08:24:47.164Z,english_287.wav,0,pill,1189,5,0.5,-5.38281254,0.74544811
RIT,11,0,2024-06-27T08:24:47.164Z,english_287.wav,0,pill,1189,6,0.6,-58.09969762,0.45979971
RIT,11,0,2024-06-27T08:24:47.164Z,english_287.wav,0,pill,1189,7,0.7,93.46336641,0.55925931
RIT,11,0,2024-06-27T08:24:47.164Z,english_287.wav,0,pill,1189,8,0.8,27.63578773,1.84211482
RIT,11,0,2024-06-27T08:24:47.164Z,english_287.wav,0,pill,1189,9,0.9,44.41136417,0.07395401
RIT,11,0,2024-06-27T08:24:47.164Z,english_287.wav,0,pill,1189,10,1.0,-2.08272126,0.05656785
RIT,11,0,2024-06-27T08:24:47.164Z,english_287.wav,0,pill,1189,11,1.09391667,72.82755357,1.60760225
RIT,12,0,2024-06-27T08:24:47.164Z,english_651.wav,0,pill,1163,0,0.0,-91.34539462,1.93962683
RIT,12,0,2024-06-27T08:24:47.164Z,english_651.wav,0,pill,1163,1,0.1,-1.38504973,0.25281252
RIT,12,0,2024-06-27T08:24:47.164Z,english_651.wav,0,pill,1163,2,0.2,2.05125073,0.90917451
RIT,12,0,2024-06-27T08:24:47.164Z,english_651.wav,0,pill,1163,3,0.3,-5.20837211,0.6157456
RIT,12,0,2024-06-27T08:24:47.164Z,english_651.wav,0,pill,1163,4,0.4,30.89438942,0.48487698
RIT,12,0,2024-06-27T08:24:47.164Z,english_651.wav,0,pill,1163,5,0.5,-28.36589971,1.14423933
RIT,12,0,2024-06-27T08:24:47.164Z,english_651.wav,0,pill,1163,6,0.6,-42.97374851,0.91557091
RIT,12,0,2024-06-27T08:24:47.164Z,english_651.wav,0,pill,1163,7,0.7,-56.55365324,1.50856564
RIT,12,0,2024-06-27T08:24:47.164Z,english_651.wav,0,pill,1163,8,0.8,3.73861638,0.47177544
RIT,12,0,2024-06-27T08:24:47.164Z,english_651.wav,0,pill,1163,9,0.9,-2.43332653,0.09479279
RIT,12,0,2024-06-27T08:24:47.164Z,english_651.wav,0,pill,1163,10,1.0,-73.16332477,0.24018528
RIT,12,0,2024-06-27T08:24:47.164Z,english_651.wav,0,pill,1163,11,1.09391667,61.30377091,0.24667973
RIT,13,0,2024-06-27T08:24:47.164Z,english_521.wav,0,pill,930,0,0.0,5.37787975,1.11621025
RIT,13,0,2024-06-27T08:24:47.164Z,english_521.wav,0,pill,930,1,0.1,9.32249591,0.69917502
RIT,13,0,2024-06-27T08:24:47.164Z,english_521.wav,0,pill,930,2,0.2,4.19745407,0.1199413
RIT,13,0,2024-06-27T08:24:47.164Z,english_521.wav,0,pill,930,3,0.3,-75.18613478,1.762579
RIT,13,0,2024-06-27T08:24:47.164Z,english_521.wav,0,pill,930,4,0.4,87.02780947,1.43452798
RIT,13,0,2024-06-27T08:24:47.164Z,english_521.wav,0,pill,930,5,0.5,-73.26225675,0.23094002
RIT,13,0,2024-06-27T08:24:47.164Z,english_521.wav,0,pill,930,6,0.6,66.15406762,1.51181612
RIT,13,0,2024-06-27T08:24:47.164Z,english_521.wav,0,pill,930,7,0.7,-9.80579818,1.4155143
RIT,13,0,2024-06-27T08:24:47.164Z,english_521.wav,0,pill,930,8,0.8,17.20812603,1.82718341
RIT,13,0,2024-06-27T08:24:47.164Z,english_521.wav,0,pill,930,9,0.9,21.88979452,1.93759588
RIT,13,0,2024-06-27T08:24:47.164Z,english_521.wav,0,pill,930,10,1.0,-69.39969828,1.70606784
RIT,13,0,2024-06-27T08:24:47.164Z,english_521.wav,0,pill,930,11,1.09391667,-64.03153918,0.09885652
RIT,14,0,2024-06-27T08:24:47.164Z,english_837.wav,0,peel,1181,0,0.0,-19.55907837,0.36214908
RIT,14,0,2024-06-27T08:24:47.164Z,english_837.wav,0,peel,1181,1,0.1,81.5519268,1.07178346
RIT,14,0,2024-06-27T08:24:47.164Z,english_837.wav,0,peel,1181,2,0.2,51.06726568,0.32034272
RIT,14,0,2024-06-27T08:24:47.164Z,english_837.wav,0,peel,1181,3,0.3,11.56573734,0.28433719
RIT,14,0,2024-06-27T08:24:47.164Z,english_837.wav,0,peel,1181,4,0.4,3.9548588,0.83672743
RIT,14,0,2024-06-27T08:24:47.164Z,english_837.wav,0,peel,1181,5,0.5,-33.36822777,0.19314145
RIT,14,0,2024-06-27T08:24:47.164Z,english_837.wav,0,peel,1181,6,0.6,36.7691739,0.96322299
RIT,14,0,2024-06-27T08:24:47.164Z,english_837.wav,0,peel,1181,7,0.7,-18.61244812,1.32224338
RIT,14,0,2024-06-27T08:24:47.164Z,english_837.wav,0,peel,1181,8,0.8,16.54769658,1.87041814
RIT,14,0,2024-06-27T08:24:47.164Z,english_837.wav,0,peel,1181,9,0.9,-37.16394557,0.06067537
RIT,14,0,2024-06-27T08:24:47.164Z,english_837.wav,0,peel,1181,10,1.0,10.95001842,0.49261583
RIT,14,0,2024-06-27T08:24:47.164Z,english_837.wav,0,peel,1181,11,1.09391667,34.38345354,1.54886366
RIT,15,0,2024-06-27T08:24:47.164Z,english_126.wav,0,pill,1228,0,0.0,17.23277349,0.07681875
RIT,15,0,2024-06-27T08:24:47.164Z,english_126.wav,0,pill,1228,1,0.1,-82.02564831,1.15308157
RIT,15,0,2024-06-27T08:24:47.164Z,english_126.wav,0,pill,1228,2,0.2,-89.77449202,0.24325653
RIT,15,0,2024-06-27T08:24:47.164Z,english_126.wav,0,pill,1228,3,0.3,-51.19975639,0.26308615
RIT,15,0,2024-06-27T08:24:47.164Z,english_126.wav,0,pill,1228,4,0.4,-15.70542785,1.15666053
RIT,15,0,2024-06-27T08:24:47.164Z,english_126.wav,0,pill,1228,5,0.5,-86.49178279,0.93452427
RIT,15,0,2024-06-27T08:24:47.164Z,english_126.wav,0,pill,1228,6,0.6,-63.9993416,1.80863716
RIT,15,0,2024-06-27T08:24:47.164Z,english_126.wav,0,pill,1228,7,0.7,15.94919888,1.09862854
RIT,15,0,2024-06-27T08:24:47.164Z,english_126.wav,0,pill,1228,8,0.8,14.83212149,1.20748097
RIT,15,0,2024-06-27T08:24:47.164Z,english_126.wav,0,pill,1228,9,0.9,89.46410037,1.44558157
RIT,15,0,2024-06-27T08:24:47.164Z,english_126.wav,0,pill,1228,10,1.0,-9.32479478,0.49090758
RIT,15,0,2024-06-27T08:24:47.164Z,english_126.wav,0,pill,1228,11,1.09391667,36.75071045,0.88504815
RIT,16,0,2024-06-27T08:24:47.164Z,english_185.wav,0,pill,1803,0,0.0,-23.80747302,1.70362326
RIT,16,0,2024-06-27T08:24:47.164Z,english_185.wav,0,pill,1803,1,0.1,-67.70846726,1.95632733
RIT,16,0,2024-06-27T08:24:47.164Z,english_185.wav,0,pill,1803,2,0.2,27.78292916,1.63625516
RIT,16,0,2024-06-27T08:24:47.164Z,english_185.wav,0,pill,1803,3,0.3,-22.37709268,0.69364986
RIT,16,0,2024-06-27T08:24:47.164Z,english_185.wav,0,pill,1803,4,0.4,15.61755946,0.15498305
RIT,16,0,2024-06-27T08:24:47.164Z,english_185.wav,0,pill,1803,5,0.5,-59.82139972,1.72553948
RIT,16,0,2024-06-27T08:24:47.164Z,english_185.wav,0,pill,1803,6,0.6,-43.59424473,1.78198359
RIT,16,0,2024-06-27T08:24:47.164Z,english_185.wav,0,pill,1803,7,0.7,74.12043651,1.30006103
RIT,16,0,2024-06-27T08:24:47.164Z,english_185.wav,0,pill,1803,8,0.8,77.01624641,0.79426106
RIT,16,0,2024-06-27T08:24:47.164Z,english_185.wav,0,pill,1803,9,0.9,-47.03527172,0.29849321
RIT,16,0,2024-06-27T08:24:47.164Z,english_185.wav,0,pill,1803,10,1.0,2.38207477,1.71648204
RIT,16,0,2024-06-27T08:24:47.164Z,english_185.wav,0,pill,1803,11,1.09391667,-48.42317698,0.84883975
RIT,17,0,2024-06-27T08:24:47.164Z,english_998.wav,0,pill,1466,0,0.0,-83.67346728,1.27391906
RIT,17,0,2024-06-27T08:24:47.164Z,english_998.wav,0,pill,1466,1,0.1,-68.43297462,0.75913393
RIT,17,0,2024-06-27T08:24:47.164Z,english_998.wav,0,pill,1466,2,0.2,47.84560439,1.02363825
RIT,17,0,2024-06-27T08:24:47.164Z,english_998.wav,0,pill,1466,3,0.3,71.43971258,1.78775676
RIT,17,0,2024-06-27T08:24:47.164Z,english_998.wav,0,pill,1466,4,0.4,-30.40941836,0.0961221
RIT,17,0,2024-06-27T08:24:47.164Z,english_998.wav,0,pill,1466,5,0.5,69.31214212,1.18933693
RIT,17,0,2024-06-27T08:24:47.164Z,english_998.wav,0,pill,1466,6,0.6,-95.04564508,1.9379163
RIT,17,0,2024-06-27T08:24:47.164Z,english_998.wav,0,pill,1466,7,0.7,-61.88405175,1.91389769
RIT,17,0,2024-06-27T08:24:47.164Z,english_998.wav,0,pill,1466,8,0.8,11.43915949,1.08895614
RIT,17,0,2024-06-27T08:24:47.164Z,english_998.wav,0,pill,1466,9,0.9,79.6365109,1.52042952
RIT,17,0,2024-06-27T08:24:47.164Z,english_998.wav,0,pill,1466,10,1.0,58.29305302,0.38016323
RIT,17,0,2024-06-27T08:24:47.164Z,english_998.wav,0,pill,1466,11,1.09391667,44.0288717,1.77799574
RIT,18,0,2024-06-27T08:24:47.164Z,english_270.wav,0,pill,985,0,0.0,-55.81256687,1.62867923
RIT,18,0,2024-06-27T08:24:47.164Z,english_270.wav,0,pill,985,1,0.1,86.32458749,1.84562159
RIT,18,0,2024-06-27T08:24:47.164Z,english_270.wav,0,pill,985,2,0.2,13.49455739,0.93167879
RIT,18,0,2024-06-27T08:24:47.164Z,english_270.wav,0,pill,985,3,0.3,-68.69500359,1.73816361
RIT,18,0,2024-06-27T08:24:47.164Z,english_270.wav,0,pill,985,4,0.4,-97.00280027,0.08320837
RIT,18,0,2024-06-27T08:24:47.164Z,english_270.wav,0,pill,985,5,0.5,-69.821637,1.0435143
RIT,18,0,2024-06-27T08:24:47.164Z,english_270.wav,0,pill,985,6,0.6,1.11664619,1.6211018
RIT,18,0,2024-06-27T08:24:47.164Z,english_270.wav,0,pill,985,7,0.7,14.10763844,1.15083177
RIT,18,0,2024-06-27T08:24:47.164Z,english_270.wav,0,pill,985,8,0.8,-34.97611605,0.10335889
RIT,18,0,2024-06-27T08:24:47.164Z,english_270.wav,0,pill,985,9,0.9,64.83030817,1.46234983
RIT,18,0,2024-06-27T08:24:47.164Z,english_270.wav,0,pill,985,10,1.0,-92.12802344,1.54267918
RIT,18,0,2024-06-27T08:24:47.164Z,english_270.wav,0,pill,985,11,1.09391667,70.2696905,1.13836595
RIT,19,0,2024-06-27T08:24:47.164Z,english_508.wav,0,peel,844,0,0.0,29.95487344,1.28947786
RIT,19,0,2024-06-27T08:24:47.164Z,english_508.wav,0,peel,844,1,0.1,-43.56994085,0.45872669
RIT,19,0,2024-06-27T08:24:47.164Z,english_508.wav,0,peel,844,2,0.2,95.99440846,1.02864136
RIT,19,0,2024-06-27T08:24:47.164Z,english_508.wav,0,peel,844,3,0.3,96.63128694,1.38697031
RIT,19,0,2024-06-27T08:24:47.164Z,english_508.wav,0,peel,844,4,0.4,81.88240965,0.48619633
RIT,19,0,2024-06-27T08:24:47.164Z,english_508.wav,0,peel,844,5,0.5,-30.32405698,1.35316712
RIT,19,0,2024-06-27T08:24:47.164Z,english_508.wav,0,peel,844,6,0.6,-70.6760635,0.61818132
RIT,19,0,2024-06-27T08:24:47.164Z,english_508.wav,0,peel,844,7,0.7,-36.19238407,0.31535759
RIT,19,0,2024-06-27T08:24:47.164Z,english_508.wav,0,peel,844,8,0.8,18.2315003,1.60240226
RIT,19,0,2024-06-27T08:24:47.164Z,english_508.wav,0,peel,844,9,0.9,-71.56865734,1.17638413
RIT,19,0,2024-06-27T08:24:47.164Z,english_508.wav,0,peel,844,10,1.0,-72.78274833,0.8457368
RIT,19,0,2024-06-27T08:24:47.164Z,english_508.wav,0,peel,844,11,1.09391667,51.72471755,0.31851434
RIT,20,0,2024-06-27T08:24:47.164Z,english_467.wav,0,pill,679,0,0.0,84.73520447,0.80775308
RIT,20,0,2024-06-27T08:24:47.164Z,english_467.wav,0,pill,679,1,0.1,88.96200227,0.60891261
RIT,20,0,2024-06-27T08:24:47.164Z,english_467.wav,0,pill,679,2,0.2,72.63675829,1.71596765
RIT,20,0,2024-06-27T08:24:47.164Z,english_467.wav,0,pill,679,3,0.3,-11.47164633,0.15084523
RIT,20,0,2024-06-27T08:24:47.164Z,english_467.wav,0,pill,679,4,0.4,-15.99279105,1.25287304
RIT,20,0,2024-06-27T08:24:47.164Z,english_467.wav,0,pill,679,5,0.5,-43.82437563,1.40086837
RIT,20,0,2024-06-27T08:24:47.164Z,english_467.wav,0,pill,679,6,0.6,43.03099958,0.418933
RIT,20,0,2024-06-27T08:24:47.164Z,english_467.wav,0,pill,679,7,0.7,-45.22330674,1.80339492
RIT,20,0,2024-06-27T08:24:47.164Z,english_467.wav,0,pill,679,8,0.8,76.52363546,0.77008525
RIT,20,0,2024-06-27T08:24:47.164Z,english_467.wav,0,pill,679,9,0.9,-64.57143565,1.13088524
RIT,20,0,2024-06-27T08:24:47.164Z,english_467.wav,0,pill,679,10,1.0,-23.20829111,0.17124527
RIT,20,0,2024-06-27T08:24:47.164Z,english_467.wav,0,pill,679,11,1.09391667,90.56201043,1.41524886
RIT,21,0,2024-06-27T08:24:47.164Z,english_569.wav,0,pill,895,0,0.0,80.86242067,1.33421849
RIT,21,0,2024-06-27T08:24:47.164Z,english_569.wav,0,pill,895,1,0.1,-36.85440805,1.5057291
RIT,21,0,2024-06-27T08:24:47.164Z,english_569.wav,0,pill,895,2,0.2,55.48604093,1.7838276
RIT,21,0,2024-06-27T08:24:47.164Z,english_569.wav,0,pill,895,3,0.3,-32.48832212,0.34502948
RIT,21,0,2024-06-27T08:24:47.164Z,english_569.wav,0,pill,895,4,0.4,34.47022209,1.33242051
RIT,21,0,2024-06-27T08:24:47.164Z,english_569.wav,0,pill,895,5,0.5,23.79827115,0.68239412
RIT,21,0,2024-06-27T08:24:47.164Z,english_569.wav,0,pill,895,6,0.6,-29.60411728,1.41145095
RIT,21,0,2024-06-27T08:24:47.164Z,english_569.wav,0,pill,895,7,0.7,-3.34902879,0.70703372
RIT,21,0,2024-06-27T08:24:47.164Z,english_569.wav,0,pill,895,8,0.8,-24.14207397,0.57539158
RIT,21,0,2024-06-27T08:24:47.164Z,english_569.wav,0,pill,895,9,0.9,49.40170215,1.31553206
RIT,21,0,2024-06-27T08:24:47.164Z,english_569.wav,0,pill,895,10,1.0,34.30113072,0.57675215
RIT,21,0,2024-06-27T08:24:47.164Z,english_569.wav,0,pill,895,11,1.09391667,-89.06013863,1.91555697
RIT,22,0,2024-06-27T08:24:47.164Z,english_925.wav,0,peel,1439,0,0.0,-84.57233467,1.00848694
RIT,22,0,2024-06-27T08:24:47.164Z,english_925.wav,0,peel,1439,1,0.1,-44.7314948,0.79986677
RIT,22,0,2024-06-27T08:24:47.164Z,english_925.wav,0,peel,1439,2,0.2,-21.76001852,1.01395723
RIT,22,0,2024-06-27T08:24:47.164Z,english_925.wav,0,peel,1439,3,0.3,58.94026315,0.40578686
RIT,22,0,2024-06-27T08:24:47.164Z,english_925.wav,0,peel,1439,4,0.4,68.109547,1.18343794
RIT,22,0,2024-06-27T08:24:47.164Z,english_925.wav,0,peel,1439,5,0.5,49.84786379,0.73791716
RIT,22,0,2024-06-27T08:24:47.164Z,english_925.wav,0,peel,1439,6,0.6,60.87486089,0.58895249
RIT,22,0,2024-06-27T08:24:47.164Z,english_925.wav,0,peel,1439,7,0.7,50.05197286,0.92214068
RIT,22,0,2024-06-27T08:24:47.164Z,english_925.wav,0,peel,1439,8,0.8,83.62089831,1.8971644
RIT,22,0,2024-06-27T08:24:47.164Z,english_925.wav,0,peel,1439,9,0.9,-6.54901241,1.57717007
RIT,22,0,2024-06-27T08:24:47.164Z,english_925.wav,0,peel,1439,10,1.0,59.32339342,1.06930768
RIT,22,0,2024-06-27T08:24:47.164Z,english_925.wav,0,peel,1439,11,1.09391667,-66.08603468,1.74149988
RIT,23,0,2024-06-27T08:24:47.164Z,english_158.wav,0,pill,908,0,0.0,41.17268037,0.12012262
RIT,23,0,2024-06-27T08:24:47.164Z,english_158.wav,0,pill,908,1,0.1,39.43055099,1.02753784
RIT,23,0,2024-06-27T08:24:47.164Z,english_158.wav,0,pill,908,2,0.2,18.17307199,1.36643436
RIT,23,0,2024-06-27T08:24:47.164Z,english_158.wav,0,pill,908,3,0.3,2.1288608,1.78617089
RIT,23,0,2024-06-27T08:24:47.164Z,english_158.wav,0,pill,908,4,0.4,14.16848378,0.39713516
RIT,23,0,2024-06-27T08:24:47.164Z,english_158.wav,0,pill,908,5,0.5,-31.43837624,1.5313636
RIT,23,0,2024-06-27T08:24:47.164Z,english_158.wav,0,pill,908,6,0.6,46.37345031,1.20655285
RIT,23,0,2024-06-27T08:24:47.164Z,english_158.wav,0,pill,908,7,0.7,58.75582509,0.16880901
RIT,23,0,2024-06-27T08:24:47.164Z,english_158.wav,0,pill,908,8,0.8,23.78862253,0.30409425
RIT,23,0,2024-06-27T08:24:47.164Z,english_158.wav,0,pill,908,9,0.9,-4.2911947,1.28329421
RIT,23,0,2024-06-27T08:24:47.164Z,english_158.wav,0,pill,908,10,1.0,-43.40891041,0.17704904
RIT,23,0,2024-06-27T08:24:47.164Z,english_158.wav,0,pill,908,11,1.09391667,16.25522825,0.66899263
RIT,24,0,2024-06-27T08:24:47.164Z,english_94.wav,0,pill,2131,0,0.0,-69.13613192,0.71683615
RIT,24,0,2024-06-27T08:24:47.164Z,english_94.wav,0,pill,2131,1,0.1,-53.91573564,1.64130178
RIT,24,0,2024-06-27T08:24:47.164Z,english_94.wav,0,pill,2131,2,0.2,88.54569891,1.41561382
RIT,24,0,2024-06-27T08:24:47.164Z,english_94.wav,0,pill,2131,3,0.3,47.91558238,0.72478091
RIT,24,0,2024-06-27T08:24:47.164Z,english_94.wav,0,pill,2131,4,0.4,46.13883045,1.21480875
RIT,24,0,2024-06-27T08:24:47.164Z,english_94.wav,0,pill,2131,5,0.5,0.71209955,0.13058063
RIT,24,0,2024-06-27T08:24:47.164Z,english_94.wav,0,pill,2131,6,0.6,53.89774049,1.07607775
RIT,24,0,2024-06-27T08:24:47.164Z,english_94.wav,0,pill,2131,7,0.7,37.22112319,0.10112022
RIT,24,0,2024-06-27T08:24:47.164Z,english_94.wav,0,pill,2131,8,0.8,8.13348347,0.91343474
RIT,24,0,2024-06-27T08:24:47.164Z,english_94.wav,0,pill,2131,9,0.9,-10.35793642,0.77751528
RIT,24,0,2024-06-27T08:24:47.164Z,english_94.wav,0,pill,2131,10,1.0,75.25647247,0.57088528
RIT,24,0,2024-06-27T08:24:47.164Z,english_94.wav,0,pill,2131,11,1.09391667,-70.34686187,0.98841109
RIT,25,0,2024-06-27T08:24:47.164Z,english_709.wav,0,pill,1392,0,0.0,54.89445194,0.75029311
RIT,25,0,2024-06-27T08:24:47.164Z,english_709.wav,0,pill,1392,1,0.1,-13.90675493,1.75887389
RIT,25,0,2024-06-27T08:24:47.164Z,english_709.wav,0,pill,1392,2,0.2,17.54151592,1.84695168
RIT,25,0,2024-06-27T08:24:47.164Z,english_709.wav,0,pill,1392,3,0.3,-21.79257769,0.96071145
RIT,25,0,2024-06-27T08:24:47.164Z,english_709.wav,0,pill,1392,4,0.4,55.10787635,1.22566663
RIT,25,0,2024-06-27T08:24:47.164Z,english_709.wav,0,pill,1392,5,0.5,-57.13962404,1.94059393
RIT,25,0,2024-06-27T08:24:47.164Z,english_709.wav,0,pill,1392,6,0.6,-5.37289715,0.52219194
RIT,25,0,2024-06-27T08:24:47.164Z,english_709.wav,0,pill,1392,7,0.7,27.40236622,0.9142424
RIT,25,0,2024-06-27T08:24:47.164Z,english_709.wav,0,pill,1392,8,0.8,12.19670027,1.75067757
RIT,25,0,2024-06-27T08:24:47.164Z,english_709.wav,0,pill,1392,9,0.9,91.20271112,0.7385059
RIT,25,0,2024-06-27T08:24:47.164Z,english_709.wav,0,pill,1392,10,1.0,89.17036871,1.92412986
RIT,25,0,2024-06-27T08:24:47.164Z,english_709.wav,0,pill,1392,11,1.09391667,50.36439179,0.79240238
RIT,26,0,2024-06-27T08:24:47.164Z,english_144.wav,0,pill,948,0,0.0,31.57285019,1.02092862
RIT,26,0,2024-06-27T08:24:47.164Z,english_144.wav,0,pill,948,1,0.1,-66.82367858,1.21687454
RIT,26,0,2024-06-27T08:24:47.164Z,english_144.wav,0,pill,948,2,0.2,25.9026646,0.83451974
RIT,26,0,2024-06-27T08:24:47.164Z,english_144.wav,0,pill,948,3,0.3,-73.3005143,1.57454957
RIT,26,0,2024-06-27T08:24:47.164Z,english_144.wav,0,pill,948,4,0.4,44.123678,0.07717076
RIT,26,0,2024-06-27T08:24:47.164Z,english_144.wav,0,pill,948,5,0.5,49.27770762,0.27181384
RIT,26,0,2024-06-27T08:24:47.164Z,english_144.wav,0,pill,948,6,0.6,22.38256085,1.7133157
RIT,26,0,2024-06-27T08:24:47.164Z,english_144.wav,0,pill,948,7,0.7,-9.16605426,1.06775729
RIT,26,0,2024-06-27T08:24:47.164Z,english_144.wav,0,pill,948,8,0.8,-36.80428778,1.42091993
RIT,26,0,2024-06-27T08:24:47.164Z,english_144.wav,0,pill,948,9,0.9,-3.57060361,0.01524657
RIT,26,0,2024-06-27T08:24:47.164Z,english_144.wav,0,pill,948,10,1.0,-56.05458997,0.90246411
RIT,26,0,2024-06-27T08:24:47.164Z,english_144.wav,0,pill,948,11,1.09391667,-88.6470882,1.74083532
RIT,27,0,2024-06-27T08:24:47.164Z,english_60.wav,0,pill,2606,0,0.0,10.59186776,1.18276714
RIT,27,0,2024-06-27T08:24:47.164Z,english_60.wav,0,pill,2606,1,0.1,40.50364305,1.35618457
RIT,27,0,2024-06-27T08:24:47.164Z,english_60.wav,0,pill,2606,2,0.2,-14.0687602,0.82779989
RIT,27,0,2024-06-27T08:24:47.164Z,english_60.wav,0,pill,2606,3,0.3,-65.99656217,0.57077879
RIT,27,0,2024-06-27T08:24:47.164Z,english_60.wav,0,pill,2606,4,0.4,15.70320652,0.07108592
RIT,27,0,2024-06-27T08:24:47.164Z,english_60.wav,0,pill,2606,5,0.5,-30.42091681,0.69784791
RIT,27,0,2024-06-27T08:24:47.164Z,english_60.wav,0,pill,2606,6,0.6,-42.76109802,1.83211062
RIT,27,0,2024-06-27T08:24:47.164Z,english_60.wav,0,pill,2606,7,0.7,79.72211157,1.14011333
RIT,27,0,2024-06-27T08:24:47.164Z,english_60.wav,0,pill,2606,8,0.8,-76.06160398,1.5550445
RIT,27,0,2024-06-27T08:24:47.164Z,english_60.wav,0,pill,2606,9,0.9,-29.21518782,0.72383993
RIT,27,0,2024-06-27T08:24:47.164Z,english_60.wav,0,pill,2606,10,1.0,-57.95886313,1.31578319
RIT,27,0,2024-06-27T08:24:47.164Z,english_60.wav,0,pill,2606,11,1.09391667,-5.07129897,0.46327009
RIT,28,0,2024-06-27T08:24:47.164Z,english_125.wav,0,peel,2458,0,0.0,37.27554733,0.5612227
RIT,28,0,2024-06-27T08:24:47.164Z,english_125.wav,0,peel,2458,1,0.1,24.29830201,1.75747345
RIT,28,0,2024-06-27T08:24:47.164Z,english_125.wav,0,peel,2458,2,0.2,-43.3040728,1.33602667
RIT,28,0,2024-06-27T08:24:47.164Z,english_125.wav,0,peel,2458,3,0.3,32.63559677,0.25379983
RIT,28,0,2024-06-27T08:24:47.164Z,english_125.wav,0,peel,2458,4,0.4,65.75819377,0.46765889
RIT,28,0,2024-06-27T08:24:47.164Z,english_125.wav,0,peel,2458,5,0.5,93.24268126,0.0945868
RIT,28,0,2024-06-27T08:24:47.164Z,english_125.wav,0,peel,2458,6,0.6,-15.30697981,1.31767057
RIT,28,0,2024-06-27T08:24:47.164Z,english_125.wav,0,peel,2458,7,0.7,92.42760244,0.46721292
RIT,28,0,2024-06-27T08:24:47.164Z,english_125.wav,0,peel,2458,8,0.8,43.95412796,1.38944415
RIT,28,0,2024-06-27T08:24:47.164Z,english_125.wav,0,peel,2458,9,0.9,15.32237433,1.70361777
RIT,28,0,2024-06-27T08:24:47.164Z,english_125.wav,0,peel,2458,10,1.0,-94.44407427,0.93528665
RIT,28,0,2024-06-27T08:24:47.164Z,english_125.wav,0,peel,2458,11,1.09391667,87.09346239,1.20335548
RIT,29,0,2024-06-27T08:24:47.164Z,english_5.wav,0,pill,945,0,0.0,-71.05887053,0.69305634
RIT,29,0,2024-06-27T08:24:47.164Z,english_5.wav,0,pill,945,1,0.1,-36.04846502,1.95331705
RIT,29,0,2024-06-27T08:24:47.164Z,english_5.wav,0,pill,945,2,0.2,68.09307416,0.24939242
RIT,29,0,2024-06-27T08:24:47.164Z,english_5.wav,0,pill,945,3,0.3,-71.61609357,1.30786136
RIT,29,0,2024-06-27T08:24:47.164Z,english_5.wav,0,pill,945,4,0.4,-14.92970524,0.35721873
RIT,29,0,2024-06-27T08:24:47.164Z,english_5.wav,0,pill,945,5,0.5,36.04461977,1.66367269
RIT,29,0,2024-06-27T08:24:47.164Z,english_5.wav,0,pill,945,6,0.6,61.01603353,1.49043319
RIT,29,0,2024-06-27T08:24:47.164Z,english_5.wav,0,pill,945,7,0.7,22.04787058,1.08702194
RIT,29,0,2024-06-27T08:24:47.164Z,english_5.wav,0,pill,945,8,0.8,-76.70141108,0.32363826
RIT,29,0,2024-06-27T08:24:47.164Z,english_5.wav,0,pill,945,9,0.9,72.36411847,0.22271442
RIT,29,0,2024-06-27T08:24:47.164Z,english_5.wav,0,pill,945,10,1.0,-2.42248121,1.0907403
RIT,29,0,2024-06-27T08:24:47.164Z,english_5.wav,0,pill,945,11,1.09391667,-45.78406478,0.00462457
RIT,30,0,2024-06-27T08:24:47.164Z,english_873.wav,0,pill,1286,0,0.0,-5.34184308,0.18534223
RIT,30,0,2024-06-27T08:24:47.164Z,english_873.wav,0,pill,1286,1,0.1,29.86705528,1.00948066
RIT,30,0,2024-06-27T08:24:47.164Z,english_873.wav,0,pill,1286,2,0.2,-53.62087934,0.93104213
RIT,30,0,2024-06-27T08:24:47.164Z,english_873.wav,0,pill,1286,3,0.3,-59.16709203,1.19025309
RIT,30,0,2024-06-27T08:24:47.164Z,english_873.wav,0,pill,1286,4,0.4,69.60141357,1.48608178
RIT,30,0,2024-06-27T08:24:47.164Z,english_873.wav,0,pill,1286,5,0.5,-44.07046907,0.89447273
RIT,30,0,2024-06-27T08:24:47.164Z,english_873.wav,0,pill,1286,6,0.6,55.781826,0.18822797
RIT,30,0,2024-06-27T08:24:47.164Z,english_873.wav,0,pill,1286,7,0.7,-40.21183655,0.79732375
RIT,30,0,2024-06-27T08:24:47.164Z,english_873.wav,0,pill,1286,8,0.8,9.01550121,0.51650354
RIT,30,0,2024-06-27T08:24:47.164Z,english_873.wav,0,pill,1286,9,0.9,-15.28098321,0.06272522
RIT,30,0,2024-06-27T08:24:47.164Z,english_873.wav,0,pill,1286,10,1.0,-64.77079799,1.63736384
RIT,30,0,2024-06-27T08:24:47.164Z,english_873.wav,0,pill,1286,11,1.09391667,80.68199225,1.95600343
RIT,31,0,2024-06-27T08:24:47.164Z,english_821.wav,0,pill,1072,0,0.0,60.02897282,0.81118736
RIT,31,0,2024-06-27T08:24:47.164Z,english_821.wav,0,pill,1072,1,0.1,-31.71016541,1.4887669
RIT,31,0,2024-06-27T08:24:47.164Z,english_821.wav,0,pill,1072,2,0.2,65.3097336,0.65578563
RIT,31,0,2024-06-27T08:24:47.164Z,english_821.wav,0,pill,1072,3,0.3,39.90488009,0.99843063
RIT,31,0,2024-06-27T08:24:47.164Z,english_821.wav,0,pill,1072,4,0.4,65.66520818,0.54862628
RIT,31,0,2024-06-27T08:24:47.164Z,english_821.wav,0,pill,1072,5,0.5,-73.56912207,0.9620802
RIT,31,0,2024-06-27T08:24:47.164Z,english_821.wav,0,pill,1072,6,0.6,0.74999233,1.96570853
RIT,31,0,2024-06-27T08:24:47.164Z,english_821.wav,0,pill,1072,7,0.7,64.12769535,1.86660776
RIT,31,0,2024-06-27T08:24:47.164Z,english_821.wav,0,pill,1072,8,0.8,-79.18665898,0.48590566
RIT,31,0,2024-06-27T08:24:47.164Z,english_821.wav,0,pill,1072,9,0.9,-84.62050136,1.1315153
RIT,31,0,2024-06-27T08:24:47.164Z,english_821.wav,0,pill,1072,10,1.0,99.19624858,1.62744853
RIT,31,0,2024-06-27T08:24:47.164Z,english_821.wav,0,pill,1072,11,1.09391667,71.58670695,1.94836872
RIT,32,0,2024-06-27T08:24:47.164Z,english_619.wav,0,pill,1384,0,0.0,-41.0924044,1.71942116
RIT,32,0,2024-06-27T08:24:47.164Z,english_619.wav,0,pill,1384,1,0.1,-7.96280913,1.03534148
RIT,32,0,2024-06-27T08:24:47.164Z,english_619.wav,0,pill,1384,2,0.2,-87.23866402,1.90474628
RIT,32,0,2024-06-27T08:24:47.164Z,english_619.wav,0,pill,1384,3,0.3,-49.33627733,1.25465254
RIT,32,0,2024-06-27T08:24:47.164Z,english_619.wav,0,pill,1384,4,0.4,-9.049641,0.872658
RIT,32,0,2024-06-27T08:24:47.164Z,english_619.wav,0,pill,1384,5,0.5,-44.96771142,0.88442624
RIT,32,0,2024-06-27T08:24:47.164Z,english_619.wav,0,pill,1384,6,0.6,-40.79885207,0.90889779
RIT,32,0,2024-06-27T08:24:47.164Z,english_619.wav,0,pill,1384,7,0.7,40.82825876,0.65121567
RIT,32,0,2024-06-27T08:24:47.164Z,english_619.wav,0,pill,1384,8,0.8,-20.59710474,0.05436153
RIT,32,0,2024-06-27T08:24:47.164Z,english_619.wav,0,pill,1384,9,0.9,39.88878166,1.54961319
RIT,32,0,2024-06-27T08:24:47.164Z,english_619.wav,0,pill,1384,10,1.0,26.7856421,0.36194851
RIT,32,0,2024-06-27T08:24:47.164Z,english_619.wav,0,pill,1384,11,1.09391667,40.93095409,0.79464548
RIT,33,0,2024-06-27T08:24:47.164Z,english_977.wav,0,peel,1575,0,0.0,45.32437977,1.51258306
RIT,33,0,2024-06-27T08:24:47.164Z,english_977.wav,0,peel,1575,1,0.1,31.46444726,1.62107879
RIT,33,0,2024-06-27T08:24:47.164Z,english_977.wav,0,peel,1575,2,0.2,7.78815071,0.80620837
RIT,33,0,2024-06-27T08:24:47.164Z,english_977.wav,0,peel,1575,3,0.3,-38.46709342,1.66578012
RIT,33,0,2024-06-27T08:24:47.164Z,english_977.wav,0,peel,1575,4,0.4,-43.12628929,0.5028638
RIT,33,0,2024-06-27T08:24:47.164Z,english_977.wav,0,peel,1575,5,0.5,-60.3999411,1.57064844
RIT,33,0,2024-06-27T08:24:47.164Z,english_977.wav,0,peel,1575,6,0.6,38.30873417,1.43046029
RIT,33,0,2024-06-27T08:24:47.164Z,english_977.wav,0,peel,1575,7,0.7,-32.30937365,0.97320454
RIT,33,0,2024-06-27T08:24:47.164Z,english_977.wav,0,peel,1575,8,0.8,-13.91730907,0.87874216
RIT,33,0,2024-06-27T08:24:47.164Z,english_977.wav,0,peel,1575,9,0.9,-81.54845422,1.41826341
RIT,33,0,2024-06-27T08:24:47.164Z,english_977.wav,0,peel,1575,10,1.0,29.31026278,0.04715706
RIT,33,0,2024-06-27T08:24:47.164Z,english_977.wav,0,peel,1575,11,1.09391667,34.6707146,1.45727151
RIT,34,0,2024-06-27T08:24:47.164Z,english_373.wav,0,pill,761,0,0.0,-9.94709743,0.51311979
RIT,34,0,2024-06-27T08:24:47.164Z,english_373.wav,0,pill,761,1,0.1,-83.40421168,1.13344135
RIT,34,0,2024-06-27T08:24:47.164Z,english_373.wav,0,pill,761,2,0.2,-22.83191441,0.32488715
RIT,34,0,2024-06-27T08:24:47.164Z,english_373.wav,0,pill,761,3,0.3,-83.42374119,1.83619002
RIT,34,0,2024-06-27T08:24:47.164Z,english_373.wav,0,pill,761,4,0.4,-39.99792882,1.43136972
RIT,34,0,2024-06-27T08:24:47.164Z,english_373.wav,0,pill,761,5,0.5,86.85199712,0.69456756
RIT,34,0,2024-06-27T08:24:47.164Z,english_373.wav,0,pill,761,6,0.6,-4.78975396,1.06607271
RIT,34,0,2024-06-27T08:24:47.164Z,english_373.wav,0,pill,761,7,0.7,-15.74997845,1.30605627
RIT,34,0,2024-06-27T08:24:47.164Z,english_373.wav,0,pill,761,8,0.8,29.79511399,0.03221072
RIT,34,0,2024-06-27T08:24:47.164Z,english_373.wav,0,pill,761,9,0.9,-25.05254908,1.44985225
RIT,34,0,2024-06-27T08:24:47.164Z,english_373.wav,0,pill,761,10,1.0,-99.62886639,0.95503788
RIT,34,0,2024-06-27T08:24:47.164Z,english_373.wav,0,pill,761,11,1.09391667,18.73159207,0.95128528
RIT,35,0,2024-06-27T08:24:47.164Z,english_422.wav,0,pill,638,0,0.0,15.30476558,1.12660373
RIT,35,0,2024-06-27T08:24:47.164Z,english_422.wav,0,pill,638,1,0.1,46.85469973,1.77150152
RIT,35,0,2024-06-27T08:24:47.164Z,english_422.wav,0,pill,638,2,0.2,-55.01275076,0.07610986
RIT,35,0,2024-06-27T08:24:47.164Z,english_422.wav,0,pill,638,3,0.3,-88.68955981,1.87054914
RIT,35,0,2024-06-27T08:24:47.164Z,english_422.wav,0,pill,638,4,0.4,69.37127288,0.4194099
RIT,35,0,2024-06-27T08:24:47.164Z,english_422.wav,0,pill,638,5,0.5,19.59216644,1.01013961
RIT,35,0,2024-06-27T08:24:47.164Z,english_422.wav,0,pill,638,6,0.6,-6.38015959,1.42576712
RIT,35,0,2024-06-27T08:24:47.164Z,english_422.wav,0,pill,638,7,0.7,-75.18241686,0.77140618
RIT,35,0,2024-06-27T08:24:47.164Z,english_422.wav,0,pill,638,8,0.8,53.59227304,0.92977939
RIT,35,0,2024-06-27T08:24:47.164Z,english_422.wav,0,pill,638,9,0.9,-58.58137106,0.22126866
RIT,35,0,2024-06-27T08:24:47.164Z,english_422.wav,0,pill,638,10,1.0,-12.61550451,1.35947282
RIT,35,0,2024-06-27T08:24:47.164Z,english_422.wav,0,pill,638,11,1.09391667,-47.53760567,0.9860846
RIT,36,0,2024-06-27T08:24:47.164Z,english_839.wav,0,pill,624,0,0.0,25.22327534,0.79021115
RIT,36,0,2024-06-27T08:24:47.164Z,english_839.wav,0,pill,624,1,0.1,65.97179868,1.36275453
RIT,36,0,2024-06-27T08:24:47.164Z,english_839.wav,0,pill,624,2,0.2,36.46298268,0.56940252
RIT,36,0,2024-06-27T08:24:47.164Z,english_839.wav,0,pill,624,3,0.3,0.36789595,1.38606336
RIT,36,0,2024-06-27T08:24:47.164Z,english_839.wav,0,pill,624,4,0.4,37.25543056,1.49876521
RIT,36,0,2024-06-27T08:24:47.164Z,english_839.wav,0,pill,624,5,0.5,13.61304399,1.33513266
RIT,36,0,2024-06-27T08:24:47.164Z,english_839.wav,0,pill,624,6,0.6,40.85367399,0.34922841
RIT,36,0,2024-06-27T08:24:47.164Z,english_839.wav,0,pill,624,7,0.7,92.87994107,1.58402098
RIT,36,0,2024-06-27T08:24:47.164Z,english_839.wav,0,pill,624,8,0.8,40.19777361,0.73275133
RIT,36,0,2024-06-27T08:24:47.164Z,english_839.wav,0,pill,624,9,0.9,-27.70209944,1.05467816
RIT,36,0,2024-06-27T08:24:47.164Z,english_839.wav,0,pill,624,10,1.0,-75.44304357,1.81419779
RIT,36,0,2024-06-27T08:24:47.164Z,english_839.wav,0,pill,624,11,1.09391667,15.82899147,1.89560881
RIT,37,0,2024-06-27T08:24:47.164Z,english_522.wav,0,pill,857,0,0.0,-41.53907187,0.57004443
RIT,37,0,2024-06-27T08:24:47.164Z,english_522.wav,0,pill,857,1,0.1,-34.77242331,0.9419408
RIT,37,0,2024-06-27T08:24:47.164Z,english_522.wav,0,pill,857,2,0.2,44.84688975,1.66104168
RIT,37,0,2024-06-27T08:24:47.164Z,english_522.wav,0,pill,857,3,0.3,0.52781467,0.91446022
RIT,37,0,2024-06-27T08:24:47.164Z,english_522.wav,0,pill,857,4,0.4,-85.49095183,1.87910308
RIT,37,0,2024-06-27T08:24:47.164Z,english_522.wav,0,pill,857,5,0.5,49.75805681,1.6772423
RIT,37,0,2024-06-27T08:24:47.164Z,english_522.wav,0,pill,857,6,0.6,-34.01238983,1.00245935
RIT,37,0,2024-06-27T08:24:47.164Z,english_522.wav,0,pill,857,7,0.7,-76.80695945,1.44049733
RIT,37,0,2024-06-27T08:24:47.164Z,english_522.wav,0,pill,857,8,0.8,57.48181657,0.74965877
RIT,37,0,2024-06-27T08:24:47.164Z,english_522.wav,0,pill,857,9,0.9,-42.740182,1.30386633
RIT,37,0,2024-06-27T08:24:47.164Z,english_522.wav,0,pill,857,10,1.0,76.48970234,1.30270801
RIT,37,0,2024-06-27T08:24:47.164Z,english_522.wav,0,pill,857,11,1.09391667,-24.33451257,0.47933239
RIT,38,0,2024-06-27T08:24:47.164Z,english_360.wav,0,pill,1044,0,0.0,-18.06250331,0.74392756
RIT,38,0,2024-06-27T08:24:47.164Z,english_360.wav,0,pill,1044,1,0.1,-60.78778271,0.33295665
RIT,38,0,2024-06-27T08:24:47.164Z,english_360.wav,0,pill,1044,2,0.2,64.58604958,0.59589568
RIT,38,0,2024-06-27T08:24:47.164Z,english_360.wav,0,pill,1044,3,0.3,15.14883939,1.76245157
RIT,38,0,2024-06-27T08:24:47.164Z,english_360.wav,0,pill,1044,4,0.4,35.32268856,1.62745171
RIT,38,0,2024-06-27T08:24:47.164Z,english_360.wav,0,pill,1044,5,0.5,85.60433583,0.48465
RIT,38,0,2024-06-27T08:24:47.164Z,english_360.wav,0,pill,1044,6,0.6,-60.74616214,0.94927774
RIT,38,0,2024-06-27T08:24:47.164Z,english_360.wav,0,pill,1044,7,0.7,93.69417602,1.65570249
RIT,38,0,2024-06-27T08:24:47.164Z,english_360.wav,0,pill,1044,8,0.8,16.46151858,1.54593081
RIT,38,0,2024-06-27T08:24:47.164Z,english_360.wav,0,pill,1044,9,0.9,58.0175924,0.34320104
RIT,38,0,2024-06-27T08:24:47.164Z,english_360.wav,0,pill,1044,10,1.0,51.01229948,0.20094936
RIT,38,0,2024-06-27T08:24:47.164Z,english_360.wav,0,pill,1044,11,1.09391667,19.14891505,0.69882977
RIT,39,0,2024-06-27T08:24:47.164Z,english_515.wav,0,pill,865,0,0.0,-58.23176372,1.22843541
RIT,39,0,2024-06-27T08:24:47.164Z,english_515.wav,0,pill,865,1,0.1,-76.45173976,1.63015901
RIT,39,0,2024-06-27T08:24:47.164Z,english_515.wav,0,pill,865,2,0.2,25.49902523,1.20813881
RIT,39,0,2024-06-27T08:24:47.164Z,english_515.wav,0,pill,865,3,0.3,5.27103545,0.47612476
RIT,39,0,2024-06-27T08:24:47.164Z,english_515.wav,0,pill,865,4,0.4,-41.64983344,0.26545174
RIT,39,0,2024-06-27T08:24:47.164Z,english_515.wav,0,pill,865,5,0.5,-51.29888172,1.8557412
RIT,39,0,2024-06-27T08:24:47.164Z,english_515.wav,0,pill,865,6,0.6,65.36966432,0.81547092
RIT,39,0,2024-06-27T08:24:47.164Z,english_515.wav,0,pill,865,7,0.7,-56.17839976,1.63185656
RIT,39,0,2024-06-27T08:24:47.164Z,english_515.wav,0,pill,865,8,0.8,-12.23547481,0.09263004
RIT,39,0,2024-06-27T08:24:47.164Z,english_515.wav,0,pill,865,9,0.9,-89.1418522,1.76127396
RIT,39,0,2024-06-27T08:24:47.164Z,english_515.wav,0,pill,865,10,1.0,8.96872742,0.57224671
RIT,39,0,2024-06-27T08:24:47.164Z,english_515.wav,0,pill,865,11,1.09391667,-18.30503433,1.26155121
RIT,40,0,2024-06-27T08:24:47.164Z,english_472.wav,0,pill,746,0,0.0,-23.72821767,0.96911452
RIT,40,0,2024-06-27T08:24:47.164Z,english_472.wav,0,pill,746,1,0.1,7.29471696,0.40121138
RIT,40,0,2024-06-27T08:24:47.164Z,english_472.wav,0,pill,746,2,0.2,-58.55005371,1.15410482
RIT,40,0,2024-06-27T08:24:47.164Z,english_472.wav,0,pill,746,3,0.3,77.0504256,1.91400861
RIT,40,0,2024-06-27T08:24:47.164Z,english_472.wav,0,pill,746,4,0.4,87.29275565,0.05830067
RIT,40,0,2024-06-27T08:24:47.164Z,english_472.wav,0,pill,746,5,0.5,-70.9646192,0.87176087
RIT,40,0,2024-06-27T08:24:47.164Z,english_472.wav,0,pill,746,6,0.6,72.82743185,0.23371631
RIT,40,0,2024-06-27T08:24:47.164Z,english_472.wav,0,pill,746,7,0.7,-40.27439915,1.66198616
RIT,40,0,2024-06-27T08:24:47.164Z,english_472.wav,0,pill,746,8,0.8,-15.91396931,0.22492459
RIT,40,0,2024-06-27T08:24:47.164Z,english_472.wav,0,pill,746,9,0.9,27.40014094,0.55757982
RIT,40,0,2024-06-27T08:24:47.164Z,english_472.wav,0,pill,746,10,1.0,-13.69917785,1.15387827
RIT,40,0,2024-06-27T08:24:47.164Z,english_472.wav,0,pill,746,11,1.09391667,26.78237701,1.85526867
RIT,41,0,2024-06-27T08:24:47.164Z,english_2.wav,0,pill,782,0,0.0,41.22215969,0.59226954
RIT,41,0,2024-06-27T08:24:47.164Z,english_2.wav,0,pill,782,1,0.1,63.4325041,1.70689004
RIT,41,0,2024-06-27T08:24:47.164Z,english_2.wav,0,pill,782,2,0.2,30.26698033,1.70278764
RIT,41,0,2024-06-27T08:24:47.164Z,english_2.wav,0,pill,782,3,0.3,-42.97414703,0.93211278
RIT,41,0,2024-06-27T08:24:47.164Z,english_2.wav,0,pill,782,4,0.4,78.73420301,0.75985414
RIT,41,0,2024-06-27T08:24:47.164Z,english_2.wav,0,pill,782,5,0.5,98.07294335,1.00279357
RIT,41,0,2024-06-27T08:24:47.164Z,english_2.wav,0,pill,782,6,0.6,-11.43066233,1.68044469
RIT,41,0,2024-06-27T08:24:47.164Z,english_2.wav,0,pill,782,7,0.7,98.59484661,1.4408376
RIT,41,0,2024-06-27T08:24:47.164Z,english_2.wav,0,pill,782,8,0.8,5.98934189,0.34467269
RIT,41,0,2024-06-27T08:24:47.164Z,english_2.wav,0,pill,782,9,0.9,12.71998757,0.3933307
RIT,41,0,2024-06-27T08:24:47.164Z,english_2.wav,0,pill,782,10,1.0,80.81444137,0.30092676
RIT,41,0,2024-06-27T08:24:47.164Z,english_2.wav,0,pill,782,11,1.09391667,-65.72418196,0.87599386
RIT,42,0,2024-06-27T08:24:47.164Z,english_413.wav,0,peel,1765,0,0.0,14.83112151,0.44215223
RIT,42,0,2024-06-27T08:24:47.164Z,english_413.wav,0,peel,1765,1,0.1,11.76914083,1.16902386
RIT,42,0,2024-06-27T08:24:47.164Z,english_413.wav,0,peel,1765,2,0.2,56.99835841,1.34778137
RIT,42,0,2024-06-27T08:24:47.164Z,english_413.wav,0,peel,1765,3,0.3,-91.21705368,1.75286116
RIT,42,0,2024-06-27T08:24:47.164Z,english_413.wav,0,peel,1765,4,0.4,45.54032704,0.59475232
RIT,42,0,2024-06-27T08:24:47.164Z,english_413.wav,0,peel,1765,5,0.5,27.79493499,1.56815753
RIT,42,0,2024-06-27T08:24:47.164Z,english_413.wav,0,peel,1765,6,0.6,-45.92047179,1.45096495
RIT,42,0,2024-06-27T08:24:47.164Z,english_413.wav,0,peel,1765,7,0.7,30.6901634,1.27145961
RIT,42,0,2024-06-27T08:24:47.164Z,english_413.wav,0,peel,1765,8,0.8,-6.79166087,1.53710405
RIT,42,0,2024-06-27T08:24:47.164Z,english_413.wav,0,peel,1765,9,0.9,-73.44231095,1.76487513
RIT,42,0,2024-06-27T08:24:47.164Z,english_413.wav,0,peel,1765,10,1.0,72.98773842,1.73986125
RIT,42,0,2024-06-27T08:24:47.164Z,english_413.wav,0,peel,1765,11,1.09391667,-6.1173613,0.92350985
RIT,43,0,2024-06-27T08:24:47.164Z,english_891.wav,0,pill,755,0,0.0,-51.94899703,0.42846165
RIT,43,0,2024-06-27T08:24:47.164Z,english_891.wav,0,pill,755,1,0.1,-40.85786471,0.93876637
RIT,43,0,2024-06-27T08:24:47.164Z,english_891.wav,0,pill,755,2,0.2,-13.56091334,1.78643125
RIT,43,0,2024-06-27T08:24:47.164Z,english_891.wav,0,pill,755,3,0.3,13.09065144,1.47761109
RIT,43,0,2024-06-27T08:24:47.164Z,english_891.wav,0,pill,755,4,0.4,-0.86453478,1.66653353
RIT,43,0,2024-06-27T08:24:47.164Z,english_891.wav,0,pill,755,5,0.5,31.90721085,1.63856449
RIT,43,0,2024-06-27T08:24:47.164Z,english_891.wav,0,pill,755,6,0.6,-27.60460343,1.17540335
RIT,43,0,2024-06-27T08:24:47.164Z,english_891.wav,0,pill,755,7,0.7,85.79516825,1.60236138
RIT,43,0,2024-06-27T08:24:47.164Z,english_891.wav,0,pill,755,8,0.8,83.05957198,0.96737739
RIT,43,0,2024-06-27T08:24:47.164Z,english_891.wav,0,pill,755,9,0.9,-61.83196055,1.42758327
RIT,43,0,2024-06-27T08:24:47.164Z,english_891.wav,0,pill,755,10,1.0,-69.67221927,0.19704513
RIT,43,0,2024-06-27T08:24:47.164Z,english_891.wav,0,pill,755,11,1.09391667,4.62166255,0.91556812
RIT,44,0,2024-06-27T08:24:47.164Z,english_79.wav,0,pill,790,0,0.0,27.97817784,0.84571494
RIT,44,0,2024-06-27T08:24:47.164Z,english_79.wav,0,pill,790,1,0.1,71.46944993,1.27709221
RIT,44,0,2024-06-27T08:24:47.164Z,english_79.wav,0,pill,790,2,0.2,89.05489336,1.27075812
RIT,44,0,2024-06-27T08:24:47.164Z,english_79.wav,0,pill,790,3,0.3,-19.05433113,1.99746898
RIT,44,0,2024-06-27T08:24:47.164Z,english_79.wav,0,pill,790,4,0.4,-69.45960299,0.86632135
RIT,44,0,2024-06-27T08:24:47.164Z,english_79.wav,0,pill,790,5,0.5,73.78187689,1.18439274
RIT,44,0,2024-06-27T08:24:47.164Z,english_79.wav,0,pill,790,6,0.6,45.30424973,0.05743494
RIT,44,0,2024-06-27T08:24:47.164Z,english_79.wav,0,pill,790,7,0.7,-12.3964906,1.88609771
RIT,44,0,2024-06-27T08:24:47.164Z,english_79.wav,0,pill,790,8,0.8,-6.65615849,1.07546111
RIT,44,0,2024-06-27T08:24:47.164Z,english_79.wav,0,pill,790,9,0.9,20.78943027,0.97034818
RIT,44,0,2024-06-27T08:24:47.164Z,english_79.wav,0,pill,790,10,1.0,-67.05166292,0.94663039
RIT,44,0,2024-06-27T08:24:47.164Z,english_79.wav,0,pill,790,11,1.09391667,-53.62396235,0.1925317
RIT,45,0,2024-06-27T08:24:47.164Z,english_347.wav,0,pill,811,0,0.0,-77.92779138,1.02669822
RIT,45,0,2024-06-27T08:24:47.164Z,english_347.wav,0,pill,811,1,0.1,-64.69220677,0.41696548
RIT,45,0,2024-06-27T08:24:47.164Z,english_347.wav,0,pill,811,2,0.2,-52.71418659,1.03112891
RIT,45,0,2024-06-27T08:24:47.164Z,english_347.wav,0,pill,811,3,0.3,63.39772469,0.20004082
RIT,45,0,2024-06-27T08:24:47.164Z,english_347.wav,0,pill,811,4,0.4,28.65691045,0.24296187
RIT,45,0,2024-06-27T08:24:47.164Z,english_347.wav,0,pill,811,5,0.5,-54.91733511,0.01939813
RIT,45,0,2024-06-27T08:24:47.164Z,english_347.wav,0,pill,811,6,0.6,28.83719113,1.71588951
RIT,45,0,2024-06-27T08:24:47.164Z,english_347.wav,0,pill,811,7,0.7,71.325035,0.13307252
RIT,45,0,2024-06-27T08:24:47.164Z,english_347.wav,0,pill,811,8,0.8,64.29714523,0.90631223
RIT,45,0,2024-06-27T08:24:47.164Z,english_347.wav,0,pill,811,9,0.9,-52.51835147,1.74084271
RIT,45,0,2024-06-27T08:24:47.164Z,english_347.wav,0,pill,811,10,1.0,-41.65784487,0.63465457
RIT,45,0,2024-06-27T08:24:47.164Z,english_347.wav,0,pill,811,11,1.09391667,-56.27332848,1.27137416
RIT,46,0,2024-06-27T08:24:47.164Z,english_980.wav,0,pill,961,0,0.0,-89.21120638,0.86013949
RIT,46,0,2024-06-27T08:24:47.164Z,english_980.wav,0,pill,961,1,0.1,-61.94586113,1.20415769
RIT,46,0,2024-06-27T08:24:47.164Z,english_980.wav,0,pill,961,2,0.2,66.92224931,1.12519254
RIT,46,0,2024-06-27T08:24:47.164Z,english_980.wav,0,pill,961,3,0.3,-8.83169244,1.93563119
RIT,46,0,2024-06-27T08:24:47.164Z,english_980.wav,0,pill,961,4,0.4,-62.26224073,1.36290277
RIT,46,0,2024-06-27T08:24:47.164Z,english_980.wav,0,pill,961,5,0.5,-40.69471865,0.31823405
RIT,46,0,2024-06-27T08:24:47.164Z,english_980.wav,0,pill,961,6,0.6,-55.09323572,1.64522851
RIT,46,0,2024-06-27T08:24:47.164Z,english_980.wav,0,pill,961,7,0.7,-85.76938639,0.41705872
RIT,46,0,2024-06-27T08:24:47.164Z,english_980.wav,0,pill,961,8,0.8,-61.73931362,0.77550812
RIT,46,0,2024-06-27T08:24:47.164Z,english_980.wav,0,pill,961,9,0.9,29.10621895,0.71060598
RIT,46,0,2024-06-27T08:24:47.164Z,english_980.wav,0,pill,961,10,1.0,-54.92010394,0.25781542
RIT,46,0,2024-06-27T08:24:47.164Z,english_980.wav,0,pill,961,11,1.09391667,-99.59524777,0.26651543
RIT,47,0,2024-06-27T08:24:47.164Z,english_880.wav,0,pill,685,0,0.0,-41.47628357,0.55394603
RIT,47,0,2024-06-27T08:24:47.164Z,english_880.wav,0,pill,685,1,0.1,65.54296858,0.9616183
RIT,47,0,2024-06-27T08:24:47.164Z,english_880.wav,0,pill,685,2,0.2,-39.31347774,0.19888821
RIT,47,0,2024-06-27T08:24:47.164Z,english_880.wav,0,pill,685,3,0.3,61.98950127,0.57394663
RIT,47,0,2024-06-27T08:24:47.164Z,english_880.wav,0,pill,685,4,0.4,-3.60095554,0.13686424
RIT,47,0,2024-06-27T08:24:47.164Z,english_880.wav,0,pill,685,5,0.5,-14.51452604,1.28705149
RIT,47,0,2024-06-27T08:24:47.164Z,english_880.wav,0,pill,685,6,0.6,37.32728479,1.1695459
RIT,47,0,2024-06-27T08:24:47.164Z,english_880.wav,0,pill,685,7,0.7,-80.65072298,0.87953448
RIT,47,0,2024-06-27T08:24:47.164Z,english_880.wav,0,pill,685,8,0.8,-45.95652934,1.16448852
RIT,47,0,2024-06-27T08:24:47.164Z,english_880.wav,0,pill,685,9,0.9,58.7720162,1.15057409
RIT,47,0,2024-06-27T08:24:47.164Z,english_880.wav,0,pill,685,10,1.0,-45.80137343,0.15999969
RIT,47,0,2024-06-27T08:24:47.164Z,english_880.wav,0,pill,685,11,1.09391667,-30.61117418,1.26319269
RIT,48,0,2024-06-27T08:24:47.164Z,english_725.wav,0,pill,817,0,0.0,-9.03644008,1.33439085
RIT,48,0,2024-06-27T08:24:47.164Z,english_725.wav,0,pill,817,1,0.1,17.25768585,1.14250237
RIT,48,0,2024-06-27T08:24:47.164Z,english_725.wav,0,pill,817,2,0.2,31.80596944,1.31071592
RIT,48,0,2024-06-27T08:24:47.164Z,english_725.wav,0,pill,817,3,0.3,-37.53705258,0.64785465
RIT,48,0,2024-06-27T08:24:47.164Z,english_725.wav,0,pill,817,4,0.4,-72.83315878,1.42686134
RIT,48,0,2024-06-27T08:24:47.164Z,english_725.wav,0,pill,817,5,0.5,-86.89655244,1.9351134
RIT,48,0,2024-06-27T08:24:47.164Z,english_725.wav,0,pill,817,6,0.6,-41.36643193,0.6329639
RIT,48,0,2024-06-27T08:24:47.164Z,english_725.wav,0,pill,817,7,0.7,-24.29547068,1.12609379
RIT,48,0,2024-06-27T08:24:47.164Z,english_725.wav,0,pill,817,8,0.8,-10.26201034,0.4317144
RIT,48,0,2024-06-27T08:24:47.164Z,english_725.wav,0,pill,817,9,0.9,-84.73732243,0.11714111
RIT,48,0,2024-06-27T08:24:47.164Z,english_725.wav,0,pill,817,10,1.0,29.57592595,1.51572797
RIT,48,0,2024-06-27T08:24:47.164Z,english_725.wav,0,pill,817,11,1.09391667,-31.00210879,0.75437121
RIT,49,0,2024-06-27T08:24:47.164Z,english_280.wav,0,pill,3755,0,0.0,88.39262763,0.21682945
RIT,49,0,2024-06-27T08:24:47.164Z,english_280.wav,0,pill,3755,1,0.1,-30.0419816,1.88667459
RIT,49,0,2024-06-27T08:24:47.164Z,english_280.wav,0,pill,3755,2,0.2,-70.85942958,0.16117743
RIT,49,0,2024-06-27T08:24:47.164Z,english_280.wav,0,pill,3755,3,0.3,-46.07032191,0.35719266
RIT,49,0,2024-06-27T08:24:47.164Z,english_280.wav,0,pill,3755,4,0.4,22.37889655,1.6700127
RIT,49,0,2024-06-27T08:24:47.164Z,english_280.wav,0,pill,3755,5,0.5,47.83072725,1.73336776
RIT,49,0,2024-06-27T08:24:47.164Z,english_280.wav,0,pill,3755,6,0.6,22.02613007,0.653825
RIT,49,0,2024-06-27T08:24:47.164Z,english_280.wav,0,pill,3755,7,0.7,-10.57655449,1.99113264
RIT,49,0,2024-06-27T08:24:47.164Z,english_280.wav,0,pill,3755,8,0.8,78.01759084,1.83439976
RIT,49,0,2024-06-27T08:24:47.164Z,english_280.wav,0,pill,3755,9,0.9,38.41828257,1.29158868
RIT,49,0,2024-06-27T08:24:47.164Z,english_280.wav,0,pill,3755,10,1.0,88.43566384,1.21494043
RIT,49,0,2024-06-27T08:24:47.164Z,english_280.wav,0,pill,3755,11,1.09391667,-41.21843243,1.43203323
RIT,50,1,2024-06-27T08:24:47.164Z,english_706.wav,0,pill,651,0,0.0,-18.59828841,1.29674848
RIT,50,1,2024-06-27T08:24:47.164Z,english_706.wav,0,pill,651,1,0.1,17.62467533,1.04037111
RIT,50,1,2024-06-27T08:24:47.164Z,english_706.wav,0,pill,651,2,0.2,-32.04245358,0.06692701
RIT,50,1,2024-06-27T08:24:47.164Z,english_706.wav,0,pill,651,3,0.3,-59.68997275,0.01228106
RIT,50,1,2024-06-27T08:24:47.164Z,english_706.wav,0,pill,651,4,0.4,-88.86740026,1.17857321
RIT,50,1,2024-06-27T08:24:47.164Z,english_706.wav,0,pill,651,5,0.5,20.33601639,0.64258097
RIT,50,1,2024-06-27T08:24:47.164Z,english_706.wav,0,pill,651,6,0.6,88.8364898,0.45138919
RIT,50,1,2024-06-27T08:24:47.164Z,english_706.wav,0,pill,651,7,0.7,-63.14338412,0.65752297
RIT,50,1,2024-06-27T08:24:47.164Z,english_706.wav,0,pill,651,8,0.8,-30.16182588,0.08455698
RIT,50,1,2024-06-27T08:24:47.164Z,english_706.wav,0,pill,651,9,0.9,58.36718538,1.13304912
RIT,50,1,2024-06-27T08:24:47.164Z,english_706.wav,0,pill,651,10,1.0,-51.79248442,1.89686489
RIT,50,1,2024-06-27T08:24:47.164Z,english_706.wav,0,pill,651,11,1.09391667,-57.45505408,1.14298605
RIT,51,1,2024-06-27T08:24:47.164Z,english_386.wav,0,pill,834,0,0.0,-19.52342601,1.87136497
RIT,51,1,2024-06-27T08:24:47.164Z,english_386.wav,0,pill,834,1,0.1,12.51870084,1.2884713
RIT,51,1,2024-06-27T08:24:47.164Z,english_386.wav,0,pill,834,2,0.2,39.37532447,0.99035372
RIT,51,1,2024-06-27T08:24:47.164Z,english_386.wav,0,pill,834,3,0.3,-27.49424213,1.4593324
RIT,51,1,2024-06-27T08:24:47.164Z,english_386.wav,0,pill,834,4,0.4,2.74242911,1.12443884
RIT,51,1,2024-06-27T08:24:47.164Z,english_386.wav,0,pill,834,5,0.5,15.14964773,0.10576994
RIT,51,1,2024-06-27T08:24:47.164Z,english_386.wav,0,pill,834,6,0.6,45.71194496,1.21238053
RIT,51,1,2024-06-27T08:24:47.164Z,english_386.wav,0,pill,834,7,0.7,28.98960809,0.05301684
RIT,51,1,2024-06-27T08:24:47.164Z,english_386.wav,0,pill,834,8,0.8,-39.83484556,0.73550617
RIT,51,1,2024-06-27T08:24:47.164Z,english_386.wav,0,pill,834,9,0.9,33.1587893,1.02363056
RIT,51,1,2024-06-27T08:24:47.164Z,english_386.wav,0,pill,834,10,1.0,24.37786674,0.31570088
RIT,51,1,2024-06-27T08:24:47.164Z,english_386.wav,0,pill,834,11,1.09391667,-21.81878644,0.61715616
RIT,52,1,2024-06-27T08:24:47.164Z,english_449.wav,0,pill,938,0,0.0,-44.55388373,1.29710548
RIT,52,1,2024-06-27T08:24:47.164Z,english_449.wav,0,pill,938,1,0.1,-6.72313799,1.06558485
RIT,52,1,2024-06-27T08:24:47.164Z,english_449.wav,0,pill,938,2,0.2,79.06263513,1.64594706
RIT,52,1,2024-06-27T08:24:47.164Z,english_449.wav,0,pill,938,3,0.3,-55.67409496,0.52101608
RIT,52,1,2024-06-27T08:24:47.164Z,english_449.wav,0,pill,938,4,0.4,-98.00845055,1.47445199
RIT,52,1,2024-06-27T08:24:47.164Z,english_449.wav,0,pill,938,5,0.5,11.95490186,0.94544277
RIT,52,1,2024-06-27T08:24:47.164Z,english_449.wav,0,pill,938,6,0.6,61.24554038,1.90306494
RIT,52,1,2024-06-27T08:24:47.164Z,english_449.wav,0,pill,938,7,0.7,22.84997393,1.15810732
RIT,52,1,2024-06-27T08:24:47.164Z,english_449.wav,0,pill,938,8,0.8,-43.41021729,0.26889852
RIT,52,1,2024-06-27T08:24:47.164Z,english_449.wav,0,pill,938,9,0.9,-0.66438627,1.02983536
RIT,52,1,2024-06-27T08:24:47.164Z,english_449.wav,0,pill,938,10,1.0,97.92538247,1.13790703
RIT,52,1,2024-06-27T08:24:47.164Z,english_449.wav,0,pill,938,11,1.09391667,-73.561514,0.97073961
RIT,53,1,2024-06-27T08:24:47.164Z,english_537.wav,0,pill,638,0,0.0,25.88544012,0.61690243
RIT,53,1,2024-06-27T08:24:47.164Z,english_537.wav,0,pill,638,1,0.1,63.63390934,0.90177056
RIT,53,1,2024-06-27T08:24:47.164Z,english_537.wav,0,pill,638,2,0.2,-38.93036314,0.07664126
RIT,53,1,2024-06-27T08:24:47.164Z,english_537.wav,0,pill,638,3,0.3,-12.64573365,0.99300436
RIT,53,1,2024-06-27T08:24:47.164Z,english_537.wav,0,pill,638,4,0.4,52.79705028,1.13924036
RIT,53,1,2024-06-27T08:24:47.164Z,english_537.wav,0,pill,638,5,0.5,61.08523752,0.99509991
RIT,53,1,2024-06-27T08:24:47.164Z,english_537.wav,0,pill,638,6,0.6,-57.84944614,0.07377403
RIT,53,1,2024-06-27T08:24:47.164Z,english_537.wav,0,pill,638,7,0.7,-52.33335847,0.81215825
RIT,53,1,2024-06-27T08:24:47.164Z,english_537.wav,0,pill,638,8,0.8,-67.65126846,0.21197166
RIT,53,1,2024-06-27T08:24:47.164Z,english_537.wav,0,pill,638,9,0.9,-85.68414248,0.62739584
RIT,53,1,2024-06-27T08:24:47.164Z,english_537.wav,0,pill,638,10,1.0,-93.50354449,1.8723754
RIT,53,1,2024-06-27T08:24:47.164Z,english_537.wav,0,pill,638,11,1.09391667,82.40982397,0.03126294
RIT,54,1,2024-06-27T08:24:47.164Z,english_766.wav,0,peel,746,0,0.0,42.94713727,0.47626881
RIT,54,1,2024-06-27T08:24:47.164Z,english_766.wav,0,peel,746,1,0.1,28.30886199,1.1713526
RIT,54,1,2024-06-27T08:24:47.164Z,english_766.wav,0,peel,746,2,0.2,1.2264226,1.74074018
RIT,54,1,2024-06-27T08:24:47.164Z,english_766.wav,0,peel,746,3,0.3,-18.98827785,1.46451689
RIT,54,1,2024-06-27T08:24:47.164Z,english_766.wav,0,peel,746,4,0.4,56.2842172,1.82010581
RIT,54,1,2024-06-27T08:24:47.164Z,english_766.wav,0,peel,746,5,0.5,-36.10050509,0.06402892
RIT,54,1,2024-06-27T08:24:47.164Z,english_766.wav,0,peel,746,6,0.6,-35.32176748,1.19039401
RIT,54,1,2024-06-27T08:24:47.164Z,english_766.wav,0,peel,746,7,0.7,-60.08162155,1.08978002
RIT,54,1,2024-06-27T08:24:47.164Z,english_766.wav,0,peel,746,8,0.8,89.09432849,1.1905248
RIT,54,1,2024-06-27T08:24:47.164Z,english_766.wav,0,peel,746,9,0.9,19.08224966,1.93919958
RIT,54,1,2024-06-27T08:24:47.164Z,english_766.wav,0,peel,746,10,1.0,-35.22352631,1.038365
RIT,54,1,2024-06-27T08:24:47.164Z,english_766.wav,0,peel,746,11,1.09391667,-47.26773358,0.66318898
RIT,55,1,2024-06-27T08:24:47.164Z,english_250.wav,0,pill,702,0,0.0,-2.1507045,1.65815165
RIT,55,1,2024-06-27T08:24:47.164Z,english_250.wav,0,pill,702,1,0.1,-59.20535761,0.73684424
RIT,55,1,2024-06-27T08:24:47.164Z,english_250.wav,0,pill,702,2,0.2,33.81892305,0.78053485
RIT,55,1,2024-06-27T08:24:47.164Z,english_250.wav,0,pill,702,3,0.3,43.78107199,1.26996131
RIT,55,1,2024-06-27T08:24:47.164Z,english_250.wav,0,pill,702,4,0.4,-58.56253377,1.90489744
RIT,55,1,2024-06-27T08:24:47.164Z,english_250.wav,0,pill,702,5,0.5,-73.24110126,0.31125788
RIT,55,1,2024-06-27T08:24:47.164Z,english_250.wav,0,pill,702,6,0.6,77.97062328,0.73718841
RIT,55,1,2024-06-27T08:24:47.164Z,english_250.wav,0,pill,702,7,0.7,-37.56549364,0.04729413
RIT,55,1,2024-06-27T08:24:47.164Z,english_250.wav,0,pill,702,8,0.8,57.43189813,1.70152056
RIT,55,1,2024-06-27T08:24:47.164Z,english_250.wav,0,pill,702,9,0.9,46.17345888,0.07204925
RIT,55,1,2024-06-27T08:24:47.164Z,english_250.wav,0,pill,702,10,1.0,59.28871843,1.91615732
RIT,55,1,2024-06-27T08:24:47.164Z,english_250.wav,0,pill,702,11,1.09391667,54.90140723,1.08139277
RIT,56,1,2024-06-27T08:24:47.164Z,english_78.wav,0,pill,710,0,0.0,42.39797886,1.50616235
RIT,56,1,2024-06-27T08:24:47.164Z,english_78.wav,0,pill,710,1,0.1,-36.07857938,0.54303847
RIT,56,1,2024-06-27T08:24:47.164Z,english_78.wav,0,pill,710,2,0.2,-66.49689514,0.95347503
RIT,56,1,2024-06-27T08:24:47.164Z,english_78.wav,0,pill,710,3,0.3,52.41013344,1.62003629
RIT,56,1,2024-06-27T08:24:47.164Z,english_78.wav,0,pill,710,4,0.4,60.05478812,1.61647939
RIT,56,1,2024-06-27T08:24:47.164Z,english_78.wav,0,pill,710,5,0.5,-4.62250103,0.17410512
RIT,56,1,2024-06-27T08:24:47.164Z,english_78.wav,0,pill,710,6,0.6,-80.28349147,0.43268803
RIT,56,1,2024-06-27T08:24:47.164Z,english_78.wav,0,pill,710,7,0.7,83.57222547,0.08104601
RIT,56,1,2024-06-27T08:24:47.164Z,english_78.wav,0,pill,710,8,0.8,7.4922518,1.61489209
RIT,56,1,2024-06-27T08:24:47.164Z,english_78.wav,0,pill,710,9,0.9,-18.57317231,0.08012208
RIT,56,1,2024-06-27T08:24:47.164Z,english_78.wav,0,pill,710,10,1.0,-60.66079691,0.76901301
RIT,56,1,2024-06-27T08:24:47.164Z,english_78.wav,0,pill,710,11,1.09391667,37.22949989,1.86046092
RIT,57,1,2024-06-27T08:24:47.164Z,english_751.wav,0,peel,935,0,0.0,-66.06272789,0.8938032
RIT,57,1,2024-06-27T08:24:47.164Z,english_751.wav,0,peel,935,1,0.1,-35.39424596,0.85096145
RIT,57,1,2024-06-27T08:24:47.164Z,english_751.wav,0,peel,935,2,0.2,-5.06217065,0.63682042
RIT,57,1,2024-06-27T08:24:47.164Z,english_751.wav,0,peel,935,3,0.3,34.9656481,0.66546542
RIT,57,1,2024-06-27T08:24:47.164Z,english_751.wav,0,peel,935,4,0.4,21.23436914,1.36528552
RIT,57,1,2024-06-27T08:24:47.164Z,english_751.wav,0,peel,935,5,0.5,82.13600136,1.24494727
RIT,57,1,2024-06-27T08:24:47.164Z,english_751.wav,0,peel,935,6,0.6,31.75524198,1.91319775
RIT,57,1,2024-06-27T08:24:47.164Z,english_751.wav,0,peel,935,7,0.7,25.74157906,1.46839197
RIT,57,1,2024-06-27T08:24:47.164Z,english_751.wav,0,peel,935,8,0.8,0.71739343,1.22847184
RIT,57,1,2024-06-27T08:24:47.164Z,english_751.wav,0,peel,935,9,0.9,-48.73723386,1.68139256
RIT,57,1,2024-06-27T08:24:47.164Z,english_751.wav,0,peel,935,10,1.0,-45.00388336,0.62568337
RIT,57,1,2024-06-27T08:24:47.164Z,english_751.wav,0,peel,935,11,1.09391667,-22.7557427,0.09425642
RIT,58,1,2024-06-27T08:24:47.164Z,english_610.wav,0,pill,910,0,0.0,-92.84300711,0.87509592
RIT,58,1,2024-06-27T08:24:47.164Z,english_610.wav,0,pill,910,1,0.1,84.93303095,1.15799642
RIT,58,1,2024-06-27T08:24:47.164Z,english_610.wav,0,pill,910,2,0.2,80.17137486,0.35067597
RIT,58,1,2024-06-27T08:24:47.164Z,english_610.wav,0,pill,910,3,0.3,-20.18134966,0.73569606
RIT,58,1,2024-06-27T08:24:47.164Z,english_610.wav,0,pill,910,4,0.4,-20.20363531,1.23116766
RIT,58,1,2024-06-27T08:24:47.164Z,english_610.wav,0,pill,910,5,0.5,-69.79247274,0.29684789
RIT,58,1,2024-06-27T08:24:47.164Z,english_610.wav,0,pill,910,6,0.6,33.10957698,0.98948574
RIT,58,1,2024-06-27T08:24:47.164Z,english_610.wav,0,pill,910,7,0.7,-20.50322303,0.76787478
RIT,58,1,2024-06-27T08:24:47.164Z,english_610.wav,0,pill,910,8,0.8,-72.05825618,0.48117832
RIT,58,1,2024-06-27T08:24:47.164Z,english_610.wav,0,pill,910,9,0.9,1.26743028,0.47321928
RIT,58,1,2024-06-27T08:24:47.164Z,english_610.wav,0,pill,910,10,1.0,17.12915034,0.17126553
RIT,58,1,2024-06-27T08:24:47.164Z,english_610.wav,0,pill,910,11,1.09391667,64.76618694,1.04318183
RIT,59,1,2024-06-27T08:24:47.164Z,english_499.wav,0,pill,777,0,0.0,-7.75302897,0.29368166
RIT,59,1,2024-06-27T08:24:47.164Z,english_499.wav,0,pill,777,1,0.1,23.88086762,1.58141682
RIT,59,1,2024-06-27T08:24:47.164Z,english_499.wav,0,pill,777,2,0.2,-0.54854112,0.68322719
RIT,59,1,2024-06-27T08:24:47.164Z,english_499.wav,0,pill,777,3,0.3,11.38417001,1.0607803
RIT,59,1,2024-06-27T08:24:47.164Z,english_499.wav,0,pill,777,4,0.4,76.48373601,0.5459371
RIT,59,1,2024-06-27T08:24:47.164Z,english_499.wav,0,pill,777,5,0.5,34.68075028,1.82829661
RIT,59,1,2024-06-27T08:24:47.164Z,english_499.wav,0,pill,777,6,0.6,-14.34298834,1.23009433
RIT,59,1,2024-06-27T08:24:47.164Z,english_499.wav,0,pill,777,7,0.7,26.82043511,1.38131853
RIT,59,1,2024-06-27T08:24:47.164Z,english_499.wav,0,pill,777,8,0.8,60.32593039,0.45099226
RIT,59,1,2024-06-27T08:24:47.164Z,english_499.wav,0,pill,777,9,0.9,-38.40765739,1.79672484
RIT,59,1,2024-06-27T08:24:47.164Z,english_499.wav,0,pill,777,10,1.0,7.55243951,0.11050545
RIT,59,1,2024-06-27T08:24:47.164Z,english_499.wav,0,pill,777,11,1.09391667,-96.29085545,0.98124995
RIT,60,1,2024-06-27T08:24:47.164Z,english_558.wav,0,pill,1220,0,0.0,9.45595183,1.13403788
RIT,60,1,2024-06-27T08:24:47.164Z,english_558.wav,0,pill,1220,1,0.1,-66.91447075,1.18278708
RIT,60,1,2024-06-27T08:24:47.164Z,english_558.wav,0,pill,1220,2,0.2,5.01642616,1.11112331
RIT,60,1,2024-06-27T08:24:47.164Z,english_558.wav,0,pill,1220,3,0.3,-82.30049302,0.91283519
RIT,60,1,2024-06-27T08:24:47.164Z,english_558.wav,0,pill,1220,4,0.4,-10.29129966,0.71678122
RIT,60,1,2024-06-27T08:24:47.164Z,english_558.wav,0,pill,1220,5,0.5,99.14240741,1.64554748
RIT,60,1,2024-06-27T08:24:47.164Z,english_558.wav,0,pill,1220,6,0.6,34.85025227,0.99485251
RIT,60,1,2024-06-27T08:24:47.164Z,english_558.wav,0,pill,1220,7,0.7,43.44441895,0.12536515
RIT,60,1,2024-06-27T08:24:47.164Z,english_558.wav,0,pill,1220,8,0.8,-97.39694164,0.12044716
RIT,60,1,2024-06-27T08:24:47.164Z,english_558.wav,0,pill,1220,9,0.9,-31.97632868,0.33780284
RIT,60,1,2024-06-27T08:24:47.164Z,english_558.wav,0,pill,1220,10,1.0,-74.01115338,0.39284816
RIT,60,1,2024-06-27T08:24:47.164Z,english_558.wav,0,pill,1220,11,1.09391667,43.18570617,1.38494175
RIT,61,1,2024-06-27T08:24:47.164Z,english_658.wav,0,peel,696,0,0.0,28.12480694,0.12118838
RIT,61,1,2024-06-27T08:24:47.164Z,english_658.wav,0,peel,696,1,0.1,17.57040955,1.52191588
RIT,61,1,2024-06-27T08:24:47.164Z,english_658.wav,0,peel,696,2,0.2,57.56255577,1.14331833
RIT,61,1,2024-06-27T08:24:47.164Z,english_658.wav,0,peel,696,3,0.3,-3.0966162,0.60390633
RIT,61,1,2024-06-27T08:24:47.164Z,english_658.wav,0,peel,696,4,0.4,6.39522781,0.27160458
RIT,61,1,2024-06-27T08:24:47.164Z,english_658.wav,0,peel,696,5,0.5,16.02438064,0.17957329
RIT,61,1,2024-06-27T08:24:47.164Z,english_658.wav,0,peel,696,6,0.6,-1.20192687,0.27771517
RIT,61,1,2024-06-27T08:24:47.164Z,english_658.wav,0,peel,696,7,0.7,-8.08463242,0.60605354
RIT,61,1,2024-06-27T08:24:47.164Z,english_658.wav,0,peel,696,8,0.8,-12.30429445,1.71812783
RIT,61,1,2024-06-27T08:24:47.164Z,english_658.wav,0,peel,696,9,0.9,-0.5409395,0.55654772
RIT,61,1,2024-06-27T08:24:47.164Z,english_658.wav,0,peel,696,10,1.0,25.97570406,1.53064605
RIT,61,1,2024-06-27T08:24:47.164Z,english_658.wav,0,peel,696,11,1.09391667,75.76475536,1.32831885
RIT,62,1,2024-06-27T08:24:47.164Z,english_103.wav,0,pill,581,0,0.0,48.6835233,0.31659488
RIT,62,1,2024-06-27T08:24:47.164Z,english_103.wav,0,pill,581,1,0.1,36.55238137,0.91966706
RIT,62,1,2024-06-27T08:24:47.164Z,english_103.wav,0,pill,581,2,0.2,48.06121709,0.7088313
RIT,62,1,2024-06-27T08:24:47.164Z,english_103.wav,0,pill,581,3,0.3,-53.21418968,0.61655079
RIT,62,1,2024-06-27T08:24:47.164Z,english_103.wav,0,pill,581,4,0.4,-84.49986715,0.3504638
RIT,62,1,2024-06-27T08:24:47.164Z,english_103.wav,0,pill,581,5,0.5,2.274647,0.15173733
RIT,62,1,2024-06-27T08:24:47.164Z,english_103.wav,0,pill,581,6,0.6,65.76169241,0.65986716
RIT,62,1,2024-06-27T08:24:47.164Z,english_103.wav,0,pill,581,7,0.7,-54.56461338,1.01542857
RIT,62,1,2024-06-27T08:24:47.164Z,english_103.wav,0,pill,581,8,0.8,-9.60778265,0.43719066
RIT,62,1,2024-06-27T08:24:47.164Z,english_103.wav,0,pill,581,9,0.9,20.85441667,1.38316606
RIT,62,1,2024-06-27T08:24:47.164Z,english_103.wav,0,pill,581,10,1.0,-75.91935247,1.2339212
RIT,62,1,2024-06-27T08:24:47.164Z,english_103.wav,0,pill,581,11,1.09391667,-89.16544197,1.84830476
RIT,63,1,2024-06-27T08:24:47.164Z,english_647.wav,0,peel,757,0,0.0,54.52725229,1.1883546
RIT,63,1,2024-06-27T08:24:47.164Z,english_647.wav,0,peel,757,1,0.1,-56.14693886,1.65081997
RIT,63,1,2024-06-27T08:24:47.164Z,english_647.wav,0,peel,757,2,0.2,71.63132719,1.02051213
RIT,63,1,2024-06-27T08:24:47.164Z,english_647.wav,0,peel,757,3,0.3,-23.02387172,1.7000584
RIT,63,1,2024-06-27T08:24:47.164Z,english_647.wav,0,peel,757,4,0.4,-60.51376999,0.62509688
RIT,63,1,2024-06-27T08:24:47.164Z,english_647.wav,0,peel,757,5,0.5,-64.57692494,1.60189297
RIT,63,1,2024-06-27T08:24:47.164Z,english_647.wav,0,peel,757,6,0.6,46.96365994,1.40209494
RIT,63,1,2024-06-27T08:24:47.164Z,english_647.wav,0,peel,757,7,0.7,2.340544,1.32470585
RIT,63,1,2024-06-27T08:24:47.164Z,english_647.wav,0,peel,757,8,0.8,-11.6475953,1.16038123
RIT,63,1,2024-06-27T08:24:47.164Z,english_647.wav,0,peel,757,9,0.9,62.71297866,0.96037121
RIT,63,1,2024-06-27T08:24:47.164Z,english_647.wav,0,peel,757,10,1.0,-48.91159538,0.45954714
RIT,63,1,2024-06-27T08:24:47.164Z,english_647.wav,0,peel,757,11,1.09391667,-39.00416387,1.53514393
RIT,64,1,2024-06-27T08:24:47.164Z,english_538.wav,0,pill,1128,0,0.0,10.61627961,1.15184391
RIT,64,1,2024-06-27T08:24:47.164Z,english_538.wav,0,pill,1128,1,0.1,-8.0929012,1.50748819
RIT,64,1,2024-06-27T08:24:47.164Z,english_538.wav,0,pill,1128,2,0.2,4.29598946,0.49576218
RIT,64,1,2024-06-27T08:24:47.164Z,english_538.wav,0,pill,1128,3,0.3,-22.12858968,1.003898
RIT,64,1,2024-06-27T08:24:47.164Z,english_538.wav,0,pill,1128,4,0.4,-56.21885188,1.76624867
RIT,64,1,2024-06-27T08:24:47.164Z,english_538.wav,0,pill,1128,5,0.5,21.93376584,1.27574792
RIT,64,1,2024-06-27T08:24:47.164Z,english_538.wav,0,pill,1128,6,0.6,-68.32489038,0.1993111
RIT,64,1,2024-06-27T08:24:47.164Z,english_538.wav,0,pill,1128,7,0.7,-66.29674784,0.49400206
RIT,64,1,2024-06-27T08:24:47.164Z,english_538.wav,0,pill,1128,8,0.8,-74.72581258,0.32135859
RIT,64,1,2024-06-27T08:24:47.164Z,english_538.wav,0,pill,1128,9,0.9,14.86779264,1.63136948
RIT,64,1,2024-06-27T08:24:47.164Z,english_538.wav,0,pill,1128,10,1.0,61.56126855,1.32900666
RIT,64,1,2024-06-27T08:24:47.164Z,english_538.wav,0,pill,1128,11,1.09391667,-58.45933513,1.2934419
RIT,65,1,2024-06-27T08:24:47.164Z,english_129.wav,0,peel,784,0,0.0,-44.56015923,0.4294496
RIT,65,1,2024-06-27T08:24:47.164Z,english_129.wav,0,peel,784,1,0.1,-58.7339049,1.17691203
RIT,65,1,2024-06-27T08:24:47.164Z,english_129.wav,0,peel,784,2,0.2,4.64427176,0.00792795
RIT,65,1,2024-06-27T08:24:47.164Z,english_129.wav,0,peel,784,3,0.3,36.13533526,1.62066926
RIT,65,1,2024-06-27T08:24:47.164Z,english_129.wav,0,peel,784,4,0.4,49.60525777,0.46131477
RIT,65,1,2024-06-27T08:24:47.164Z,english_129.wav,0,peel,784,5,0.5,66.06381969,0.9562515
RIT,65,1,2024-06-27T08:24:47.164Z,english_129.wav,0,peel,784,6,0.6,-22.87129592,0.58790942
RIT,65,1,2024-06-27T08:24:47.164Z,english_129.wav,0,peel,784,7,0.7,88.56170171,0.99020247
RIT,65,1,2024-06-27T08:24:47.164Z,english_129.wav,0,peel,784,8,0.8,17.84118116,0.9945804
RIT,65,1,2024-06-27T08:24:47.164Z,english_129.wav,0,peel,784,9,0.9,-28.77319114,1.36695424
RIT,65,1,2024-06-27T08:24:47.164Z,english_129.wav,0,peel,784,10,1.0,86.03376827,0.72564016
RIT,65,1,2024-06-27T08:24:47.164Z,english_129.wav,0,peel,784,11,1.09391667,39.56098905,1.15202696
RIT,66,1,2024-06-27T08:24:47.164Z,english_309.wav,0,pill,1047,0,0.0,-34.14852999,1.21753296
RIT,66,1,2024-06-27T08:24:47.164Z,english_309.wav,0,pill,1047,1,0.1,-60.02804827,1.49982591
RIT,66,1,2024-06-27T08:24:47.164Z,english_309.wav,0,pill,1047,2,0.2,6.0299745,1.91679373
RIT,66,1,2024-06-27T08:24:47.164Z,english_309.wav,0,pill,1047,3,0.3,65.21163803,0.32322976
RIT,66,1,2024-06-27T08:24:47.164Z,english_309.wav,0,pill,1047,4,0.4,70.66724966,1.88516358
RIT,66,1,2024-06-27T08:24:47.164Z,english_309.wav,0,pill,1047,5,0.5,45.99109365,1.4437576
RIT,66,1,2024-06-27T08:24:47.164Z,english_309.wav,0,pill,1047,6,0.6,-19.50247914,1.34394651
RIT,66,1,2024-06-27T08:24:47.164Z,english_309.wav,0,pill,1047,7,0.7,-1.40871488,0.70865896
RIT,66,1,2024-06-27T08:24:47.164Z,english_309.wav,0,pill,1047,8,0.8,76.93262372,0.16374417
RIT,66,1,2024-06-27T08:24:47.164Z,english_309.wav,0,pill,1047,9,0.9,-6.89150381,0.04755869
RIT,66,1,2024-06-27T08:24:47.164Z,english_309.wav,0,pill,1047,10,1.0,-55.94090841,0.82149119
RIT,66,1,2024-06-27T08:24:47.164Z,english_309.wav,0,pill,1047,11,1.09391667,80.41347419,0.6378001
RIT,67,1,2024-06-27T08:24:47.164Z,english_409.wav,0,pill,895,0,0.0,-79.1757247,0.87513374
RIT,67,1,2024-06-27T08:24:47.164Z,english_409.wav,0,pill,895,1,0.1,-82.91562438,0.12656435
RIT,67,1,2024-06-27T08:24:47.164Z,english_409.wav,0,pill,895,2,0.2,91.50346008,0.63589246
RIT,67,1,2024-06-27T08:24:47.164Z,english_409.wav,0,pill,895,3,0.3,-40.10375406,1.28419635
RIT,67,1,2024-06-27T08:24:47.164Z,english_409.wav,0,pill,895,4,0.4,90.70869954,0.88499041
RIT,67,1,2024-06-27T08:24:47.164Z,english_409.wav,0,pill,895,5,0.5,-20.97681685,1.10973129
RIT,67,1,2024-06-27T08:24:47.164Z,english_409.wav,0,pill,895,6,0.6,17.21215857,0.84354096
RIT,67,1,2024-06-27T08:24:47.164Z,english_409.wav,0,pill,895,7,0.7,-53.91144795,1.20925869
RIT,67,1,2024-06-27T08:24:47.164Z,english_409.wav,0,pill,895,8,0.8,37.0057153,0.06654022
RIT,67,1,2024-06-27T08:24:47.164Z,english_409.wav,0,pill,895,9,0.9,34.22730219,1.12491035
RIT,67,1,2024-06-27T08:24:47.164Z,english_409.wav,0,pill,895,10,1.0,10.55146488,1.41050889
RIT,67,1,2024-06-27T08:24:47.164Z,english_409.wav,0,pill,895,11,1.09391667,-24.71915283,1.38366211
RIT,68,1,2024-06-27T08:24:47.164Z,english_577.wav,0,peel,1093,0,0.0,-76.85094523,0.20458554
RIT,68,1,2024-06-27T08:24:47.164Z,english_577.wav,0,peel,1093,1,0.1,94.91365435,0.06228827
RIT,68,1,2024-06-27T08:24:47.164Z,english_577.wav,0,peel,1093,2,0.2,32.9651173,1.08516977
RIT,68,1,2024-06-27T08:24:47.164Z,english_577.wav,0,peel,1093,3,0.3,97.44139815,1.03608724
RIT,68,1,2024-06-27T08:24:47.164Z,english_577.wav,0,peel,1093,4,0.4,-92.85161712,1.39749402
RIT,68,1,2024-06-27T08:24:47.164Z,english_577.wav,0,peel,1093,5,0.5,-28.41231643,0.64758682
RIT,68,1,2024-06-27T08:24:47.164Z,english_577.wav,0,peel,1093,6,0.6,19.38479245,0.95032341
RIT,68,1,2024-06-27T08:24:47.164Z,english_577.wav,0,peel,1093,7,0.7,49.58285772,1.2742538
RIT,68,1,2024-06-27T08:24:47.164Z,english_577.wav,0,peel,1093,8,0.8,92.79445105,1.48392176
RIT,68,1,2024-06-27T08:24:47.164Z,english_577.wav,0,peel,1093,9,0.9,-51.23747257,0.56445321
RIT,68,1,2024-06-27T08:24:47.164Z,english_577.wav,0,peel,1093,10,1.0,-16.84554087,1.53283339
RIT,68,1,2024-06-27T08:24:47.164Z,english_577.wav,0,peel,1093,11,1.09391667,-72.32540524,1.57768455
RIT,69,1,2024-06-27T08:24:47.164Z,english_329.wav,0,pill,941,0,0.0,-73.5267518,0.87153309
RIT,69,1,2024-06-27T08:24:47.164Z,english_329.wav,0,pill,941,1,0.1,26.40936661,1.24873758
RIT,69,1,2024-06-27T08:24:47.164Z,english_329.wav,0,pill,941,2,0.2,95.94954551,0.87594124
RIT,69,1,2024-06-27T08:24:47.164Z,english_329.wav,0,pill,941,3,0.3,-92.18268605,0.88012103
RIT,69,1,2024-06-27T08:24:47.164Z,english_329.wav,0,pill,941,4,0.4,-98.10910069,1.62824367
RIT,69,1,2024-06-27T08:24:47.164Z,english_329.wav,0,pill,941,5,0.5,-61.34103681,1.41725229
RIT,69,1,2024-06-27T08:24:47.164Z,english_329.wav,0,pill,941,6,0.6,34.88723994,1.27607992
RIT,69,1,2024-06-27T08:24:47.164Z,english_329.wav,0,pill,941,7,0.7,66.83835425,0.30685243
RIT,69,1,2024-06-27T08:24:47.164Z,english_329.wav,0,pill,941,8,0.8,-67.43059972,0.43279956
RIT,69,1,2024-06-27T08:24:47.164Z,english_329.wav,0,pill,941,9,0.9,51.12526405,0.74557381
RIT,69,1,2024-06-27T08:24:47.164Z,english_329.wav,0,pill,941,10,1.0,-25.5134348,0.84179224
RIT,69,1,2024-06-27T08:24:47.164Z,english_329.wav,0,pill,941,11,1.09391667,-82.24978729,0.84260005
RIT,70,1,2024-06-27T08:24:47.164Z,english_358.wav,0,pill,1597,0,0.0,92.28677649,0.81523353
RIT,70,1,2024-06-27T08:24:47.164Z,english_358.wav,0,pill,1597,1,0.1,-12.9582866,0.40862617
RIT,70,1,2024-06-27T08:24:47.164Z,english_358.wav,0,pill,1597,2,0.2,-98.82534689,0.64915378
RIT,70,1,2024-06-27T08:24:47.164Z,english_358.wav,0,pill,1597,3,0.3,-63.08847482,1.66113288
RIT,70,1,2024-06-27T08:24:47.164Z,english_358.wav,0,pill,1597,4,0.4,92.88960715,0.52783471
RIT,70,1,2024-06-27T08:24:47.164Z,english_358.wav,0,pill,1597,5,0.5,40.59705886,0.06151942
RIT,70,1,2024-06-27T08:24:47.164Z,english_358.wav,0,pill,1597,6,0.6,-76.45051274,0.90334042
RIT,70,1,2024-06-27T08:24:47.164Z,english_358.wav,0,pill,1597,7,0.7,-92.98382241,0.974558
RIT,70,1,2024-06-27T08:24:47.164Z,english_358.wav,0,pill,1597,8,0.8,-79.17872568,1.86712718
RIT,70,1,2024-06-27T08:24:47.164Z,english_358.wav,0,pill,1597,9,0.9,63.6003007,1.75794987
RIT,70,1,2024-06-27T08:24:47.164Z,english_358.wav,0,pill,1597,10,1.0,-21.46486279,1.76155667
RIT,70,1,2024-06-27T08:24:47.164Z,english_358.wav,0,pill,1597,11,1.09391667,94.02075741,1.61274026
RIT,71,1,2024-06-27T08:24:47.164Z,english_805.wav,0,pill,1037,0,0.0,19.24000096,0.52175854
RIT,71,1,2024-06-27T08:24:47.164Z,english_805.wav,0,pill,1037,1,0.1,-57.56428934,1.45107426
RIT,71,1,2024-06-27T08:24:47.164Z,english_805.wav,0,pill,1037,2,0.2,-17.74165003,1.66296684
RIT,71,1,2024-06-27T08:24:47.164Z,english_805.wav,0,pill,1037,3,0.3,94.45114709,1.339528
RIT,71,1,2024-06-27T08:24:47.164Z,english_805.wav,0,pill,1037,4,0.4,58.80414928,1.45905309
RIT,71,1,2024-06-27T08:24:47.164Z,english_805.wav,0,pill,1037,5,0.5,15.95265091,0.95701688
RIT,71,1,2024-06-27T08:24:47.164Z,english_805.wav,0,pill,1037,6,0.6,-64.01744173,0.10004415
RIT,71,1,2024-06-27T08:24:47.164Z,english_805.wav,0,pill,1037,7,0.7,-39.81720589,1.33408917
RIT,71,1,2024-06-27T08:24:47.164Z,english_805.wav,0,pill,1037,8,0.8,48.58222908,0.26158276
RIT,71,1,2024-06-27T08:24:47.164Z,english_805.wav,0,pill,1037,9,0.9,79.1348353,0.78316965
RIT,71,1,2024-06-27T08:24:47.164Z,english_805.wav,0,pill,1037,10,1.0,66.03274921,0.77046412
RIT,71,1,2024-06-27T08:24:47.164Z,english_805.wav,0,pill,1037,11,1.09391667,-37.34721406,0.38567889
RIT,72,1,2024-06-27T08:24:47.164Z,english_57.wav,0,pill,629,0,0.0,69.92924321,1.37399784
RIT,72,1,2024-06-27T08:24:47.164Z,english_57.wav,0,pill,629,1,0.1,50.83595835,1.30125162
RIT,72,1,2024-06-27T08:24:47.164Z,english_57.wav,0,pill,629,2,0.2,72.89041726,0.76532722
RIT,72,1,2024-06-27T08:24:47.164Z,english_57.wav,0,pill,629,3,0.3,-25.50577281,0.08256356
RIT,72,1,2024-06-27T08:24:47.164Z,english_57.wav,0,pill,629,4,0.4,-12.89341009,1.10396563
RIT,72,1,2024-06-27T08:24:47.164Z,english_57.wav,0,pill,629,5,0.5,-24.95937253,1.0000289
RIT,72,1,2024-06-27T08:24:47.164Z,english_57.wav,0,pill,629,6,0.6,64.68704807,0.6504756
RIT,72,1,2024-06-27T08:24:47.164Z,english_57.wav,0,pill,629,7,0.7,26.76917617,1.09615913
RIT,72,1,2024-06-27T08:24:47.164Z,english_57.wav,0,pill,629,8,0.8,-85.40894658,0.70411597
RIT,72,1,2024-06-27T08:24:47.164Z,english_57.wav,0,pill,629,9,0.9,-86.04927125,0.54802277
RIT,72,1,2024-06-27T08:24:47.164Z,english_57.wav,0,pill,629,10,1.0,86.88641586,1.43991022
RIT,72,1,2024-06-27T08:24:47.164Z,english_57.wav,0,pill,629,11,1.09391667,-99.07725694,1.41890007
RIT,73,1,2024-06-27T08:24:47.164Z,english_12.wav,0,pill,820,0,0.0,42.97445599,0.55669558
RIT,73,1,2024-06-27T08:24:47.164Z,english_12.wav,0,pill,820,1,0.1,-13.36169143,0.58156084
RIT,73,1,2024-06-27T08:24:47.164Z,english_12.wav,0,pill,820,2,0.2,95.55347712,1.49895361
RIT,73,1,2024-06-27T08:24:47.164Z,english_12.wav,0,pill,820,3,0.3,25.38194066,1.21133401
RIT,73,1,2024-06-27T08:24:47.164Z,english_12.wav,0,pill,820,4,0.4,7.99263567,1.29255802
RIT,73,1,2024-06-27T08:24:47.164Z,english_12.wav,0,pill,820,5,0.5,-99.22256454,0.60717751
RIT,73,1,2024-06-27T08:24:47.164Z,english_12.wav,0,pill,820,6,0.6,-40.78265899,1.53494704
RIT,73,1,2024-06-27T08:24:47.164Z,english_12.wav,0,pill,820,7,0.7,6.53756305,0.96428077
RIT,73,1,2024-06-27T08:24:47.164Z,english_12.wav,0,pill,820,8,0.8,-20.69460066,0.42904798
RIT,73,1,2024-06-27T08:24:47.164Z,english_12.wav,0,pill,820,9,0.9,-61.55291704,1.90575432
RIT,73,1,2024-06-27T08:24:47.164Z,english_12.wav,0,pill,820,10,1.0,-41.80363085,0.98826975
RIT,73,1,2024-06-27T08:24:47.164Z,english_12.wav,0,pill,820,11,1.09391667,-15.66743162,0.15634055
RIT,74,1,2024-06-27T08:24:47.164Z,english_209.wav,0,pill,838,0,0.0,-69.97643607,1.01752059
RIT,74,1,2024-06-27T08:24:47.164Z,english_209.wav,0,pill,838,1,0.1,-88.52393114,0.50741315
RIT,74,1,2024-06-27T08:24:47.164Z,english_209.wav,0,pill,838,2,0.2,-92.64381406,1.61277815
RIT,74,1,2024-06-27T08:24:47.164Z,english_209.wav,0,pill,838,3,0.3,-12.19607679,1.4872908
RIT,74,1,2024-06-27T08:24:47.164Z,english_209.wav,0,pill,838,4,0.4,51.51628924,0.5793757
RIT,74,1,2024-06-27T08:24:47.164Z,english_209.wav,0,pill,838,5,0.5,-0.64468501,0.52779709
RIT,74,1,2024-06-27T08:24:47.164Z,english_209.wav,0,pill,838,6,0.6,71.59302863,0.0231703
RIT,74,1,2024-06-27T08:24:47.164Z,english_209.wav,0,pill,838,7,0.7,-9.81029184,1.34840208
RIT,74,1,2024-06-27T08:24:47.164Z,english_209.wav,0,pill,838,8,0.8,-24.63818078,0.66467052
RIT,74,1,2024-06-27T08:24:47.164Z,english_209.wav,0,pill,838,9,0.9,-3.20105403,0.39411628
RIT,74,1,2024-06-27T08:24:47.164Z,english_209.wav,0,pill,838,10,1.0,34.64482647,0.07463584
RIT,74,1,2024-06-27T08:24:47.164Z,english_209.wav,0,pill,838,11,1.09391667,-96.73374827,1.52336413
RIT,75,1,2024-06-27T08:24:47.164Z,english_452.wav,0,peel,3064,0,0.0,-16.61864147,1.17401117
RIT,75,1,2024-06-27T08:24:47.164Z,english_452.wav,0,peel,3064,1,0.1,-22.13078498,0.56539659
RIT,75,1,2024-06-27T08:24:47.164Z,english_452.wav,0,peel,3064,2,0.2,-16.24569285,0.39679082
RIT,75,1,2024-06-27T08:24:47.164Z,english_452.wav,0,peel,3064,3,0.3,2.20276296,1.32249954
RIT,75,1,2024-06-27T08:24:47.164Z,english_452.wav,0,peel,3064,4,0.4,38.28427002,1.17645405
RIT,75,1,2024-06-27T08:24:47.164Z,english_452.wav,0,peel,3064,5,0.5,-18.79047659,1.63330715
RIT,75,1,2024-06-27T08:24:47.164Z,english_452.wav,0,peel,3064,6,0.6,78.89075327,1.91411401
RIT,75,1,2024-06-27T08:24:47.164Z,english_452.wav,0,peel,3064,7,0.7,92.92821396,1.71360753
RIT,75,1,2024-06-27T08:24:47.164Z,english_452.wav,0,peel,3064,8,0.8,97.94945302,1.56668356
RIT,75,1,2024-06-27T08:24:47.164Z,english_452.wav,0,peel,3064,9,0.9,87.69669084,1.33916848
RIT,75,1,2024-06-27T08:24:47.164Z,english_452.wav,0,peel,3064,10,1.0,59.46975303,0.94959461
RIT,75,1,2024-06-27T08:24:47.164Z,english_452.wav,0,peel,3064,11,1.09391667,33.32060313,0.70317006
RIT,76,1,2024-06-27T08:24:47.164Z,english_317.wav,0,pill,746,0,0.0,35.80517537,1.51358533
RIT,76,1,2024-06-27T08:24:47.164Z,english_317.wav,0,pill,746,1,0.1,-47.20528256,0.29972078
RIT,76,1,2024-06-27T08:24:47.164Z,english_317.wav,0,pill,746,2,0.2,10.16864163,1.18281069
RIT,76,1,2024-06-27T08:24:47.164Z,english_317.wav,0,pill,746,3,0.3,32.59206289,1.39231518
RIT,76,1,2024-06-27T08:24:47.164Z,english_317.wav,0,pill,746,4,0.4,20.53754814,1.77974686
RIT,76,1,2024-06-27T08:24:47.164Z,english_317.wav,0,pill,746,5,0.5,-78.8593211,1.1695001
RIT,76,1,2024-06-27T08:24:47.164Z,english_317.wav,0,pill,746,6,0.6,-97.96541086,1.77666203
RIT,76,1,2024-06-27T08:24:47.164Z,english_317.wav,0,pill,746,7,0.7,49.60543729,0.8164879
RIT,76,1,2024-06-27T08:24:47.164Z,english_317.wav,0,pill,746,8,0.8,-69.92457952,0.08502592
RIT,76,1,2024-06-27T08:24:47.164Z,english_317.wav,0,pill,746,9,0.9,-3.69767957,1.29069951
RIT,76,1,2024-06-27T08:24:47.164Z,english_317.wav,0,pill,746,10,1.0,-3.35302539,0.64002495
RIT,76,1,2024-06-27T08:24:47.164Z,english_317.wav,0,pill,746,11,1.09391667,29.32411719,1.74584587
RIT,77,1,2024-06-27T08:24:47.164Z,english_495.wav,0,pill,1282,0,0.0,94.59077128,0.77928027
RIT,77,1,2024-06-27T08:24:47.164Z,english_495.wav,0,pill,1282,1,0.1,-55.76476968,0.9821174
RIT,77,1,2024-06-27T08:24:47.164Z,english_495.wav,0,pill,1282,2,0.2,85.25239669,1.84587448
RIT,77,1,2024-06-27T08:24:47.164Z,english_495.wav,0,pill,1282,3,0.3,70.1736543,0.98653196
RIT,77,1,2024-06-27T08:24:47.164Z,english_495.wav,0,pill,1282,4,0.4,19.94350226,1.73373308
RIT,77,1,2024-06-27T08:24:47.164Z,english_495.wav,0,pill,1282,5,0.5,54.47178353,1.46449203
RIT,77,1,2024-06-27T08:24:47.164Z,english_495.wav,0,pill,1282,6,0.6,-87.09076246,0.51679657
RIT,77,1,2024-06-27T08:24:47.164Z,english_495.wav,0,pill,1282,7,0.7,-72.04241592,0.83282116
RIT,77,1,2024-06-27T08:24:47.164Z,english_495.wav,0,pill,1282,8,0.8,25.07065193,0.91008341
RIT,77,1,2024-06-27T08:24:47.164Z,english_495.wav,0,pill,1282,9,0.9,90.72301547,1.90880083
RIT,77,1,2024-06-27T08:24:47.164Z,english_495.wav,0,pill,1282,10,1.0,24.05757485,1.11137725
RIT,77,1,2024-06-27T08:24:47.164Z,english_495.wav,0,pill,1282,11,1.09391667,-32.87582459,1.50541044
RIT,78,1,2024-06-27T08:24:47.164Z,english_890.wav,0,pill,867,0,0.0,31.44625075,1.15032127
RIT,78,1,2024-06-27T08:24:47.164Z,english_890.wav,0,pill,867,1,0.1,-90.32825643,0.20043056
RIT,78,1,2024-06-27T08:24:47.164Z,english_890.wav,0,pill,867,2,0.2,-64.7017166,0.4631213
RIT,78,1,2024-06-27T08:24:47.164Z,english_890.wav,0,pill,867,3,0.3,15.62340259,1.29891642
RIT,78,1,2024-06-27T08:24:47.164Z,english_890.wav,0,pill,867,4,0.4,-79.4752192,0.6480645
RIT,78,1,2024-06-27T08:24:47.164Z,english_890.wav,0,pill,867,5,0.5,74.79009283,0.81505597
RIT,78,1,2024-06-27T08:24:47.164Z,english_890.wav,0,pill,867,6,0.6,-57.91380652,1.23579114
RIT,78,1,2024-06-27T08:24:47.164Z,english_890.wav,0,pill,867,7,0.7,92.43048613,0.16251602
RIT,78,1,2024-06-27T08:24:47.164Z,english_890.wav,0,pill,867,8,0.8,-1.35432996,0.74439657
RIT,78,1,2024-06-27T08:24:47.164Z,english_890.wav,0,pill,867,9,0.9,-1.4007117,1.69626999
RIT,78,1,2024-06-27T08:24:47.164Z,english_890.wav,0,pill,867,10,1.0,-22.8275935,0.07593713
RIT,78,1,2024-06-27T08:24:47.164Z,english_890.wav,0,pill,867,11,1.09391667,-34.82288483,0.22950927
RIT,79,1,2024-06-27T08:24:47.164Z,english_136.wav,0,pill,853,0,0.0,21.82146872,1.16475084
RIT,79,1,2024-06-27T08:24:47.164Z,english_136.wav,0,pill,853,1,0.1,-41.56573861,0.22540654
RIT,79,1,2024-06-27T08:24:47.164Z,english_136.wav,0,pill,853,2,0.2,56.74219222,0.7632378
RIT,79,1,2024-06-27T08:24:47.164Z,english_136.wav,0,pill,853,3,0.3,-17.69017715,1.18330594
RIT,79,1,2024-06-27T08:24:47.164Z,english_136.wav,0,pill,853,4,0.4,39.04068679,0.42274693
RIT,79,1,2024-06-27T08:24:47.164Z,english_136.wav,0,pill,853,5,0.5,-57.82412378,0.15408699
RIT,79,1,2024-06-27T08:24:47.164Z,english_136.wav,0,pill,853,6,0.6,-58.88173028,0.89761294
RIT,79,1,2024-06-27T08:24:47.164Z,english_136.wav,0,pill,853,7,0.7,-0.85323684,1.46626125
RIT,79,1,2024-06-27T08:24:47.164Z,english_136.wav,0,pill,853,8,0.8,88.76403384,1.51243191
RIT,79,1,2024-06-27T08:24:47.164Z,english_136.wav,0,pill,853,9,0.9,-53.53826962,0.60247353
RIT,79,1,2024-06-27T08:24:47.164Z,english_136.wav,0,pill,853,10,1.0,-6.60701791,1.96374571
RIT,79,1,2024-06-27T08:24:47.164Z,english_136.wav,0,pill,853,11,1.09391667,78.9552904,1.19972968
RIT,80,1,2024-06-27T08:24:47.164Z,english_23.wav,0,pill,1100,0,0.0,-81.37820874,0.766267
RIT,80,1,2024-06-27T08:24:47.164Z,english_23.wav,0,pill,1100,1,0.1,78.5335862,0.99963617
RIT,80,1,2024-06-27T08:24:47.164Z,english_23.wav,0,pill,1100,2,0.2,2.49490295,0.86356333
RIT,80,1,2024-06-27T08:24:47.164Z,english_23.wav,0,pill,1100,3,0.3,-86.79579175,1.2935249
RIT,80,1,2024-06-27T08:24:47.164Z,english_23.wav,0,pill,1100,4,0.4,67.70163639,1.06200742
RIT,80,1,2024-06-27T08:24:47.164Z,english_23.wav,0,pill,1100,5,0.5,15.95354821,0.35652914
RIT,80,1,2024-06-27T08:24:47.164Z,english_23.wav,0,pill,1100,6,0.6,39.96363373,0.94623028
RIT,80,1,2024-06-27T08:24:47.164Z,english_23.wav,0,pill,1100,7,0.7,26.12658962,1.75391992
RIT,80,1,2024-06-27T08:24:47.164Z,english_23.wav,0,pill,1100,8,0.8,-97.91039736,0.51382587
RIT,80,1,2024-06-27T08:24:47.164Z,english_23.wav,0,pill,1100,9,0.9,-31.02807756,0.42089134
RIT,80,1,2024-06-27T08:24:47.164Z,english_23.wav,0,pill,1100,10,1.0,-20.21947661,0.35251111
RIT,80,1,2024-06-27T08:24:47.164Z,english_23.wav,0,pill,1100,11,1.09391667,-62.16065677,0.28724109
RIT,81,1,2024-06-27T08:24:47.164Z,english_795.wav,0,pill,1107,0,0.0,87.97989278,1.59591128
RIT,81,1,2024-06-27T08:24:47.164Z,english_795.wav,0,pill,1107,1,0.1,-23.39853739,1.94488646
RIT,81,1,2024-06-27T08:24:47.164Z,english_795.wav,0,pill,1107,2,0.2,85.15897758,0.62481037
RIT,81,1,2024-06-27T08:24:47.164Z,english_795.wav,0,pill,1107,3,0.3,30.45214085,0.56488466
RIT,81,1,2024-06-27T08:24:47.164Z,english_795.wav,0,pill,1107,4,0.4,25.21841082,0.81270144
RIT,81,1,2024-06-27T08:24:47.164Z,english_795.wav,0,pill,1107,5,0.5,36.10678603,1.54003491
RIT,81,1,2024-06-27T08:24:47.164Z,english_795.wav,0,pill,1107,6,0.6,61.48762219,1.21959161
RIT,81,1,2024-06-27T08:24:47.164Z,english_795.wav,0,pill,1107,7,0.7,14.5754085,0.84714061
RIT,81,1,2024-06-27T08:24:47.164Z,english_795.wav,0,pill,1107,8,0.8,-57.54329739,1.28928587
RIT,81,1,2024-06-27T08:24:47.164Z,english_795.wav,0,pill,1107,9,0.9,-73.09117399,1.61523869
RIT,81,1,2024-06-27T08:24:47.164Z,english_795.wav,0,pill,1107,10,1.0,77.49994784,1.68827262
RIT,81,1,2024-06-27T08:24:47.164Z,english_795.wav,0,pill,1107,11,1.09391667,89.63116882,1.85702814
RIT,82,1,2024-06-27T08:24:47.164Z,english_965.wav,0,pill,1094,0,0.0,71.26903742,0.78069471
RIT,82,1,2024-06-27T08:24:47.164Z,english_965.wav,0,pill,1094,1,0.1,-85.67215002,0.96385913
RIT,82,1,2024-06-27T08:24:47.164Z,english_965.wav,0,pill,1094,2,0.2,62.40796955,1.23622138
RIT,82,1,2024-06-27T08:24:47.164Z,english_965.wav,0,pill,1094,3,0.3,-42.43885851,0.08139119
RIT,82,1,2024-06-27T08:24:47.164Z,english_965.wav,0,pill,1094,4,0.4,-43.47145803,1.30827212
RIT,82,1,2024-06-27T08:24:47.164Z,english_965.wav,0,pill,1094,5,0.5,0.87364752,0.40087686
RIT,82,1,2024-06-27T08:24:47.164Z,english_965.wav,0,pill,1094,6,0.6,11.44276141,0.69003786
RIT,82,1,2024-06-27T08:24:47.164Z,english_965.wav,0,pill,1094,7,0.7,13.05816489,0.53329387
RIT,82,1,2024-06-27T08:24:47.164Z,english_965.wav,0,pill,1094,8,0.8,36.18570215,0.06218309
RIT,82,1,2024-06-27T08:24:47.164Z,english_965.wav,0,pill,1094,9,0.9,-15.51832256,1.41722428
RIT,82,1,2024-06-27T08:24:47.164Z,english_965.wav,0,pill,1094,10,1.0,-23.27462527,1.1054453
RIT,82,1,2024-06-27T08:24:47.164Z,english_965.wav,0,pill,1094,11,1.09391667,27.24750983,1.42098641
RIT,83,1,2024-06-27T08:24:47.164Z,english_640.wav,0,peel,665,0,0.0,61.20375749,0.85142229
RIT,83,1,2024-06-27T08:24:47.164Z,english_640.wav,0,peel,665,1,0.1,-16.1857947,0.85767155
RIT,83,1,2024-06-27T08:24:47.164Z,english_640.wav,0,peel,665,2,0.2,6.11258798,0.88844778
RIT,83,1,2024-06-27T08:24:47.164Z,english_640.wav,0,peel,665,3,0.3,95.92721012,1.39275841
RIT,83,1,2024-06-27T08:24:47.164Z,english_640.wav,0,peel,665,4,0.4,93.14129024,1.52098415
RIT,83,1,2024-06-27T08:24:47.164Z,english_640.wav,0,peel,665,5,0.5,-89.55913941,1.55322116
RIT,83,1,2024-06-27T08:24:47.164Z,english_640.wav,0,peel,665,6,0.6,57.55264462,0.8538103
RIT,83,1,2024-06-27T08:24:47.164Z,english_640.wav,0,peel,665,7,0.7,31.50273718,0.01301989
RIT,83,1,2024-06-27T08:24:47.164Z,english_640.wav,0,peel,665,8,0.8,14.91560265,1.48414579
RIT,83,1,2024-06-27T08:24:47.164Z,english_640.wav,0,peel,665,9,0.9,73.92386032,0.86811695
RIT,83,1,2024-06-27T08:24:47.164Z,english_640.wav,0,peel,665,10,1.0,71.81694375,1.48550262
RIT,83,1,2024-06-27T08:24:47.164Z,english_640.wav,0,peel,665,11,1.09391667,86.11531977,1.24176268
RIT,84,1,2024-06-27T08:24:47.164Z,english_575.wav,0,pill,801,0,0.0,-28.55246959,0.34827421
RIT,84,1,2024-06-27T08:24:47.164Z,english_575.wav,0,pill,801,1,0.1,-59.77879939,1.97158185
RIT,84,1,2024-06-27T08:24:47.164Z,english_575.wav,0,pill,801,2,0.2,2.26003832,1.72673863
RIT,84,1,2024-06-27T08:24:47.164Z,english_575.wav,0,pill,801,3,0.3,-92.4918711,1.89863573
RIT,84,1,2024-06-27T08:24:47.164Z,english_575.wav,0,pill,801,4,0.4,9.61640334,0.88005593
RIT,84,1,2024-06-27T08:24:47.164Z,english_575.wav,0,pill,801,5,0.5,41.99109137,0.43110597
RIT,84,1,2024-06-27T08:24:47.164Z,english_575.wav,0,pill,801,6,0.6,-61.89931175,0.53238875
RIT,84,1,2024-06-27T08:24:47.164Z,english_575.wav,0,pill,801,7,0.7,-44.26761436,1.80705755
RIT,84,1,2024-06-27T08:24:47.164Z,english_575.wav,0,pill,801,8,0.8,64.04805114,0.17311477
RIT,84,1,2024-06-27T08:24:47.164Z,english_575.wav,0,pill,801,9,0.9,-1.378942,0.39040882
RIT,84,1,2024-06-27T08:24:47.164Z,english_575.wav,0,pill,801,10,1.0,15.99079472,1.45544499
RIT,84,1,2024-06-27T08:24:47.164Z,english_575.wav,0,pill,801,11,1.09391667,-36.72459502,0.54722728
RIT,85,1,2024-06-27T08:24:47.164Z,english_545.wav,0,pill,1195,0,0.0,-99.01008517,0.51580829
RIT,85,1,2024-06-27T08:24:47.164Z,english_545.wav,0,pill,1195,1,0.1,65.47335851,0.53489733
RIT,85,1,2024-06-27T08:24:47.164Z,english_545.wav,0,pill,1195,2,0.2,-84.28840174,1.28091178
RIT,85,1,2024-06-27T08:24:47.164Z,english_545.wav,0,pill,1195,3,0.3,-53.2257253,1.83272888
RIT,85,1,2024-06-27T08:24:47.164Z,english_545.wav,0,pill,1195,4,0.4,-67.85056043,0.88291171
RIT,85,1,2024-06-27T08:24:47.164Z,english_545.wav,0,pill,1195,5,0.5,-22.57245088,0.35382027
RIT,85,1,2024-06-27T08:24:47.164Z,english_545.wav,0,pill,1195,6,0.6,-0.78864791,1.57508052
RIT,85,1,2024-06-27T08:24:47.164Z,english_545.wav,0,pill,1195,7,0.7,17.40611159,0.29019895
RIT,85,1,2024-06-27T08:24:47.164Z,english_545.wav,0,pill,1195,8,0.8,62.9168566,1.37661243
RIT,85,1,2024-06-27T08:24:47.164Z,english_545.wav,0,pill,1195,9,0.9,32.36790846,0.94083914
RIT,85,1,2024-06-27T08:24:47.164Z,english_545.wav,0,pill,1195,10,1.0,-91.70599266,1.54827837
RIT,85,1,2024-06-27T08:24:47.164Z,english_545.wav,0,pill,1195,11,1.09391667,50.31108328,0.28023548
RIT,86,1,2024-06-27T08:24:47.164Z,english_296.wav,0,pill,5275,0,0.0,80.48782258,1.56514642
RIT,86,1,2024-06-27T08:24:47.164Z,english_296.wav,0,pill,5275,1,0.1,10.56122862,0.84129395
RIT,86,1,2024-06-27T08:24:47.164Z,english_296.wav,0,pill,5275,2,0.2,-8.93820662,0.06138073
RIT,86,1,2024-06-27T08:24:47.164Z,english_296.wav,0,pill,5275,3,0.3,-54.86681614,0.69727856
RIT,86,1,2024-06-27T08:24:47.164Z,english_296.wav,0,pill,5275,4,0.4,4.93462284,1.5884292
RIT,86,1,2024-06-27T08:24:47.164Z,english_296.wav,0,pill,5275,5,0.5,35.74757504,1.04892583
RIT,86,1,2024-06-27T08:24:47.164Z,english_296.wav,0,pill,5275,6,0.6,68.8469079,1.9689775
RIT,86,1,2024-06-27T08:24:47.164Z,english_296.wav,0,pill,5275,7,0.7,-14.27123589,0.88805601
RIT,86,1,2024-06-27T08:24:47.164Z,english_296.wav,0,pill,5275,8,0.8,-28.29587023,1.96809087
RIT,86,1,2024-06-27T08:24:47.164Z,english_296.wav,0,pill,5275,9,0.9,95.64907093,1.8332122
RIT,86,1,2024-06-27T08:24:47.164Z,english_296.wav,0,pill,5275,10,1.0,-72.41595419,0.12281215
RIT,86,1,2024-06-27T08:24:47.164Z,english_296.wav,0,pill,5275,11,1.09391667,67.53861485,0.22120187
RIT,87,1,2024-06-27T08:24:47.164Z,english_505.wav,0,pill,1213,0,0.0,91.23085556,0.82413934
RIT,87,1,2024-06-27T08:24:47.164Z,english_505.wav,0,pill,1213,1,0.1,-15.55826488,0.35004659
RIT,87,1,2024-06-27T08:24:47.164Z,english_505.wav,0,pill,1213,2,0.2,12.35940028,1.21560266
RIT,87,1,2024-06-27T08:24:47.164Z,english_505.wav,0,pill,1213,3,0.3,-0.93203898,1.75278196
RIT,87,1,2024-06-27T08:24:47.164Z,english_505.wav,0,pill,1213,4,0.4,98.55638555,1.03675584
RIT,87,1,2024-06-27T08:24:47.164Z,english_505.wav,0,pill,1213,5,0.5,89.84667018,1.84604412
RIT,87,1,2024-06-27T08:24:47.164Z,english_505.wav,0,pill,1213,6,0.6,61.88853531,0.6105869
RIT,87,1,2024-06-27T08:24:47.164Z,english_505.wav,0,pill,1213,7,0.7,19.66566337,1.77513514
RIT,87,1,2024-06-27T08:24:47.164Z,english_505.wav,0,pill,1213,8,0.8,-99.77897317,0.3232423
RIT,87,1,2024-06-27T08:24:47.164Z,english_505.wav,0,pill,1213,9,0.9,-24.29755532,0.91185212
RIT,87,1,2024-06-27T08:24:47.164Z,english_505.wav,0,pill,1213,10,1.0,67.47807651,1.75020631
RIT,87,1,2024-06-27T08:24:47.164Z,english_505.wav,0,pill,1213,11,1.09391667,13.49034132,1.09867425
RIT,88,1,2024-06-27T08:24:47.164Z,english_701.wav,0,pill,871,0,0.0,-93.84804117,0.47905205
RIT,88,1,2024-06-27T08:24:47.164Z,english_701.wav,0,pill,871,1,0.1,-77.23912918,0.43335114
RIT,88,1,2024-06-27T08:24:47.164Z,english_701.wav,0,pill,871,2,0.2,-45.57356693,0.98258142
RIT,88,1,2024-06-27T08:24:47.164Z,english_701.wav,0,pill,871,3,0.3,-80.33366172,1.56424934
RIT,88,1,2024-06-27T08:24:47.164Z,english_701.wav,0,pill,871,4,0.4,95.38038132,1.99053476
RIT,88,1,2024-06-27T08:24:47.164Z,english_701.wav,0,pill,871,5,0.5,43.37257018,1.06230172
RIT,88,1,2024-06-27T08:24:47.164Z,english_701.wav,0,pill,871,6,0.6,20.80863296,1.81617496
RIT,88,1,2024-06-27T08:24:47.164Z,english_701.wav,0,pill,871,7,0.7,-74.49587502,0.70378114
RIT,88,1,2024-06-27T08:24:47.164Z,english_701.wav,0,pill,871,8,0.8,53.82285156,1.40362465
RIT,88,1,2024-06-27T08:24:47.164Z,english_701.wav,0,pill,871,9,0.9,86.20229822,0.70617413
RIT,88,1,2024-06-27T08:24:47.164Z,english_701.wav,0,pill,871,10,1.0,-84.46214873,0.74798843
RIT,88,1,2024-06-27T08:24:47.164Z,english_701.wav,0,pill,871,11,1.09391667,1.75691035,0.6850293
RIT,89,1,2024-06-27T08:24:47.164Z,english_134.wav,0,pill,832,0,0.0,-24.26834644,1.03045274
RIT,89,1,2024-06-27T08:24:47.164Z,english_134.wav,0,pill,832,1,0.1,0.87898814,1.86888255
RIT,89,1,2024-06-27T08:24:47.164Z,english_134.wav,0,pill,832,2,0.2,29.43994061,1.70405425
RIT,89,1,2024-06-27T08:24:47.164Z,english_134.wav,0,pill,832,3,0.3,21.82945731,1.34767033
RIT,89,1,2024-06-27T08:24:47.164Z,english_134.wav,0,pill,832,4,0.4,49.09743773,0.8443881
RIT,89,1,2024-06-27T08:24:47.164Z,english_134.wav,0,pill,832,5,0.5,-15.97258886,1.38979788
RIT,89,1,2024-06-27T08:24:47.164Z,english_134.wav,0,pill,832,6,0.6,13.73233931,1.1830035
RIT,89,1,2024-06-27T08:24:47.164Z,english_134.wav,0,pill,832,7,0.7,-18.88709324,1.43950556
RIT,89,1,2024-06-27T08:24:47.164Z,english_134.wav,0,pill,832,8,0.8,13.58093601,1.18211722
RIT,89,1,2024-06-27T08:24:47.164Z,english_134.wav,0,pill,832,9,0.9,74.79947006,0.44903969
RIT,89,1,2024-06-27T08:24:47.164Z,english_134.wav,0,pill,832,10,1.0,-49.15519577,0.93357228
RIT,89,1,2024-06-27T08:24:47.164Z,english_134.wav,0,pill,832,11,1.09391667,18.17659257,1.8466086
RIT,90,1,2024-06-27T08:24:47.164Z,english_286.wav,0,pill,2126,0,0.0,0.49465201,1.96185882
RIT,90,1,2024-06-27T08:24:47.164Z,english_286.wav,0,pill,2126,1,0.1,64.40982078,1.76039517
RIT,90,1,2024-06-27T08:24:47.164Z,english_286.wav,0,pill,2126,2,0.2,-93.96239431,1.34043253
RIT,90,1,2024-06-27T08:24:47.164Z,english_286.wav,0,pill,2126,3,0.3,54.29050788,0.77251354
RIT,90,1,2024-06-27T08:24:47.164Z,english_286.wav,0,pill,2126,4,0.4,-73.71749202,0.68573738
RIT,90,1,2024-06-27T08:24:47.164Z,english_286.wav,0,pill,2126,5,0.5,-94.88438502,1.47035372
RIT,90,1,2024-06-27T08:24:47.164Z,english_286.wav,0,pill,2126,6,0.6,49.75760882,1.55594088
RIT,90,1,2024-06-27T08:24:47.164Z,english_286.wav,0,pill,2126,7,0.7,-11.70467758,0.26425441
RIT,90,1,2024-06-27T08:24:47.164Z,english_286.wav,0,pill,2126,8,0.8,-44.05163422,0.00260426
RIT,90,1,2024-06-27T08:24:47.164Z,english_286.wav,0,pill,2126,9,0.9,34.33178767,0.41622396
RIT,90,1,2024-06-27T08:24:47.164Z,english_286.wav,0,pill,2126,10,1.0,-45.07278599,1.49433758
RIT,90,1,2024-06-27T08:24:47.164Z,english_286.wav,0,pill,2126,11,1.09391667,-7.38383513,1.90052724
RIT,91,1,2024-06-27T08:24:47.164Z,english_771.wav,0,pill,1583,0,0.0,-36.50619676,0.84712365
RIT,91,1,2024-06-27T08:24:47.164Z,english_771.wav,0,pill,1583,1,0.1,14.7541205,1.2125626
RIT,91,1,2024-06-27T08:24:47.164Z,english_771.wav,0,pill,1583,2,0.2,-52.38540711,1.26925878
RIT,91,1,2024-06-27T08:24:47.164Z,english_771.wav,0,pill,1583,3,0.3,-44.85491202,0.42277432
