subj,trial,block,date,stim,stim_order,response,rt,age,english,language,sex,param_index,segment,pitch,stretch
RIY,0,0,2024-06-30T12:55:54.671Z,english_326.wav,0,pill,2990,36,4,Japanese,f,0,0.0,-43.10917618,0.92818159
RIY,0,0,2024-06-30T12:55:54.671Z,english_326.wav,0,pill,2990,36,4,Japanese,f,1,0.1,51.71010142,0.32622589
RIY,0,0,2024-06-30T12:55:54.671Z,english_326.wav,0,pill,2990,36,4,Japanese,f,2,0.2,-51.98898793,0.25183357
RIY,0,0,2024-06-30T12:55:54.671Z,english_326.wav,0,pill,2990,36,4,Japanese,f,3,0.3,-88.25420689,0.15547956
RIY,0,0,2024-06-30T12:55:54.671Z,english_326.wav,0,pill,2990,36,4,Japanese,f,4,0.4,-29.81917635,0.54551317
RIY,0,0,2024-06-30T12:55:54.671Z,english_326.wav,0,pill,2990,36,4,Japanese,f,5,0.5,-40.02564907,0.579881
RIY,0,0,2024-06-30T12:55:54.671Z,english_326.wav,0,pill,2990,36,4,Japanese,f,6,0.6,-80.61031076,0.72251342
RIY,0,0,2024-06-30T12:55:54.671Z,english_326.wav,0,pill,2990,36,4,Japanese,f,7,0.7,27.73097561,1.44758164
RIY,0,0,2024-06-30T12:55:54.671Z,english_326.wav,0,pill,2990,36,4,Japanese,f,8,0.8,86.25406042,1.07961509
RIY,0,0,2024-06-30T12:55:54.671Z,english_326.wav,0,pill,2990,36,4,Japanese,f,9,0.9,-98.97965016,1.11677138
RIY,0,0,2024-06-30T12:55:54.671Z,english_326.wav,0,pill,2990,36,4,Japanese,f,10,1.0,-32.16564668,0.90130016
RIY,0,0,2024-06-30T12:55:54.671Z,english_326.wav,0,pill,2990,36,4,Japanese,f,11,1.09391667,-99.19861207,0.29135461
RIY,1,0,2024-06-30T12:55:54.671Z,english_163.wav,0,peel,1777,36,4,Japanese,f,0,0.0,-75.52696483,0.21633828
RIY,1,0,2024-06-30T12:55:54.671Z,english_163.wav,0,peel,1777,36,4,Japanese,f,1,0.1,-50.94410786,0.31603177
RIY,1,0,2024-06-30T12:55:54.671Z,english_163.wav,0,peel,1777,36,4,Japanese,f,2,0.2,-38.29944429,1.04333718
RIY,1,0,2024-06-30T12:55:54.671Z,english_163.wav,0,peel,1777,36,4,Japanese,f,3,0.3,-32.57127411,1.57763682
RIY,1,0,2024-06-30T12:55:54.671Z,english_163.wav,0,peel,1777,36,4,Japanese,f,4,0.4,-30.55941116,0.14485533
RIY,1,0,2024-06-30T12:55:54.671Z,english_163.wav,0,peel,1777,36,4,Japanese,f,5,0.5,-14.52407307,1.53043555
RIY,1,0,2024-06-30T12:55:54.671Z,english_163.wav,0,peel,1777,36,4,Japanese,f,6,0.6,28.48601544,0.0734581
RIY,1,0,2024-06-30T12:55:54.671Z,english_163.wav,0,peel,1777,36,4,Japanese,f,7,0.7,-14.30599007,1.19104414
RIY,1,0,2024-06-30T12:55:54.671Z,english_163.wav,0,peel,1777,36,4,Japanese,f,8,0.8,38.98323909,0.4056819
RIY,1,0,2024-06-30T12:55:54.671Z,english_163.wav,0,peel,1777,36,4,Japanese,f,9,0.9,-70.97720427,1.30823112
RIY,1,0,2024-06-30T12:55:54.671Z,english_163.wav,0,peel,1777,36,4,Japanese,f,10,1.0,-31.77991107,1.63835528
RIY,1,0,2024-06-30T12:55:54.671Z,english_163.wav,0,peel,1777,36,4,Japanese,f,11,1.09391667,-57.22342155,1.03131117
RIY,2,0,2024-06-30T12:55:54.671Z,english_402.wav,0,peel,999,36,4,Japanese,f,0,0.0,13.762471,1.51429567
RIY,2,0,2024-06-30T12:55:54.671Z,english_402.wav,0,peel,999,36,4,Japanese,f,1,0.1,56.960538,1.68766969
RIY,2,0,2024-06-30T12:55:54.671Z,english_402.wav,0,peel,999,36,4,Japanese,f,2,0.2,31.61900178,1.34501255
RIY,2,0,2024-06-30T12:55:54.671Z,english_402.wav,0,peel,999,36,4,Japanese,f,3,0.3,-58.12329087,0.78143448
RIY,2,0,2024-06-30T12:55:54.671Z,english_402.wav,0,peel,999,36,4,Japanese,f,4,0.4,-92.10904416,0.95522192
RIY,2,0,2024-06-30T12:55:54.671Z,english_402.wav,0,peel,999,36,4,Japanese,f,5,0.5,-26.99116943,1.16323619
RIY,2,0,2024-06-30T12:55:54.671Z,english_402.wav,0,peel,999,36,4,Japanese,f,6,0.6,2.85267641,0.43497741
RIY,2,0,2024-06-30T12:55:54.671Z,english_402.wav,0,peel,999,36,4,Japanese,f,7,0.7,-21.2400385,1.84271931
RIY,2,0,2024-06-30T12:55:54.671Z,english_402.wav,0,peel,999,36,4,Japanese,f,8,0.8,47.25195685,1.28114522
RIY,2,0,2024-06-30T12:55:54.671Z,english_402.wav,0,peel,999,36,4,Japanese,f,9,0.9,86.30516809,0.9091169
RIY,2,0,2024-06-30T12:55:54.671Z,english_402.wav,0,peel,999,36,4,Japanese,f,10,1.0,-9.29622935,1.84546322
RIY,2,0,2024-06-30T12:55:54.671Z,english_402.wav,0,peel,999,36,4,Japanese,f,11,1.09391667,3.14612385,0.72114292
RIY,3,0,2024-06-30T12:55:54.671Z,english_986.wav,0,pill,328,36,4,Japanese,f,0,0.0,66.66952336,1.97934099
RIY,3,0,2024-06-30T12:55:54.671Z,english_986.wav,0,pill,328,36,4,Japanese,f,1,0.1,96.9530251,1.29460225
RIY,3,0,2024-06-30T12:55:54.671Z,english_986.wav,0,pill,328,36,4,Japanese,f,2,0.2,75.3477354,1.53421825
RIY,3,0,2024-06-30T12:55:54.671Z,english_986.wav,0,pill,328,36,4,Japanese,f,3,0.3,-56.79707668,1.45039514
RIY,3,0,2024-06-30T12:55:54.671Z,english_986.wav,0,pill,328,36,4,Japanese,f,4,0.4,68.50410973,0.98893675
RIY,3,0,2024-06-30T12:55:54.671Z,english_986.wav,0,pill,328,36,4,Japanese,f,5,0.5,5.80156778,1.73927101
RIY,3,0,2024-06-30T12:55:54.671Z,english_986.wav,0,pill,328,36,4,Japanese,f,6,0.6,-59.00857509,1.32684672
RIY,3,0,2024-06-30T12:55:54.671Z,english_986.wav,0,pill,328,36,4,Japanese,f,7,0.7,23.78788766,1.65077043
RIY,3,0,2024-06-30T12:55:54.671Z,english_986.wav,0,pill,328,36,4,Japanese,f,8,0.8,8.31255478,1.05904427
RIY,3,0,2024-06-30T12:55:54.671Z,english_986.wav,0,pill,328,36,4,Japanese,f,9,0.9,-23.40072537,0.79622744
RIY,3,0,2024-06-30T12:55:54.671Z,english_986.wav,0,pill,328,36,4,Japanese,f,10,1.0,36.6022418,1.94329627
RIY,3,0,2024-06-30T12:55:54.671Z,english_986.wav,0,pill,328,36,4,Japanese,f,11,1.09391667,-51.87443186,1.45912014
RIY,4,0,2024-06-30T12:55:54.671Z,english_810.wav,0,peel,244,36,4,Japanese,f,0,0.0,-83.9281143,1.69146892
RIY,4,0,2024-06-30T12:55:54.671Z,english_810.wav,0,peel,244,36,4,Japanese,f,1,0.1,27.49266296,0.58552036
RIY,4,0,2024-06-30T12:55:54.671Z,english_810.wav,0,peel,244,36,4,Japanese,f,2,0.2,-79.7114404,0.8081372
RIY,4,0,2024-06-30T12:55:54.671Z,english_810.wav,0,peel,244,36,4,Japanese,f,3,0.3,88.86514055,1.52853197
RIY,4,0,2024-06-30T12:55:54.671Z,english_810.wav,0,peel,244,36,4,Japanese,f,4,0.4,-83.57104811,1.32903065
RIY,4,0,2024-06-30T12:55:54.671Z,english_810.wav,0,peel,244,36,4,Japanese,f,5,0.5,64.75337821,0.44686923
RIY,4,0,2024-06-30T12:55:54.671Z,english_810.wav,0,peel,244,36,4,Japanese,f,6,0.6,-39.25229813,0.97314752
RIY,4,0,2024-06-30T12:55:54.671Z,english_810.wav,0,peel,244,36,4,Japanese,f,7,0.7,-20.80683656,1.28969147
RIY,4,0,2024-06-30T12:55:54.671Z,english_810.wav,0,peel,244,36,4,Japanese,f,8,0.8,-8.25263634,1.65843454
RIY,4,0,2024-06-30T12:55:54.671Z,english_810.wav,0,peel,244,36,4,Japanese,f,9,0.9,-69.80984132,1.6089276
RIY,4,0,2024-06-30T12:55:54.671Z,english_810.wav,0,peel,244,36,4,Japanese,f,10,1.0,12.24901577,1.8611166
RIY,4,0,2024-06-30T12:55:54.671Z,english_810.wav,0,peel,244,36,4,Japanese,f,11,1.09391667,84.4149929,1.61125361
RIY,5,0,2024-06-30T12:55:54.671Z,english_983.wav,0,pill,290,36,4,Japanese,f,0,0.0,-50.22823897,0.88633634
RIY,5,0,2024-06-30T12:55:54.671Z,english_983.wav,0,pill,290,36,4,Japanese,f,1,0.1,-4.67437073,1.28034271
RIY,5,0,2024-06-30T12:55:54.671Z,english_983.wav,0,pill,290,36,4,Japanese,f,2,0.2,-31.6094098,0.94172266
RIY,5,0,2024-06-30T12:55:54.671Z,english_983.wav,0,pill,290,36,4,Japanese,f,3,0.3,25.42275216,0.73344406
RIY,5,0,2024-06-30T12:55:54.671Z,english_983.wav,0,pill,290,36,4,Japanese,f,4,0.4,79.9624674,1.78223604
RIY,5,0,2024-06-30T12:55:54.671Z,english_983.wav,0,pill,290,36,4,Japanese,f,5,0.5,11.84827872,1.04715588
RIY,5,0,2024-06-30T12:55:54.671Z,english_983.wav,0,pill,290,36,4,Japanese,f,6,0.6,-53.41316004,1.93599287
RIY,5,0,2024-06-30T12:55:54.671Z,english_983.wav,0,pill,290,36,4,Japanese,f,7,0.7,-2.37481813,0.44413806
RIY,5,0,2024-06-30T12:55:54.671Z,english_983.wav,0,pill,290,36,4,Japanese,f,8,0.8,81.38125647,0.67013669
RIY,5,0,2024-06-30T12:55:54.671Z,english_983.wav,0,pill,290,36,4,Japanese,f,9,0.9,-62.03068284,1.03528206
RIY,5,0,2024-06-30T12:55:54.671Z,english_983.wav,0,pill,290,36,4,Japanese,f,10,1.0,-64.21224493,0.12422577
RIY,5,0,2024-06-30T12:55:54.671Z,english_983.wav,0,pill,290,36,4,Japanese,f,11,1.09391667,38.19793451,1.50859084
RIY,6,0,2024-06-30T12:55:54.671Z,english_506.wav,0,peel,564,36,4,Japanese,f,0,0.0,-13.3952031,0.85990944
RIY,6,0,2024-06-30T12:55:54.671Z,english_506.wav,0,peel,564,36,4,Japanese,f,1,0.1,8.8632007,0.40173642
RIY,6,0,2024-06-30T12:55:54.671Z,english_506.wav,0,peel,564,36,4,Japanese,f,2,0.2,-83.95985859,0.03154553
RIY,6,0,2024-06-30T12:55:54.671Z,english_506.wav,0,peel,564,36,4,Japanese,f,3,0.3,38.02193565,0.39528278
RIY,6,0,2024-06-30T12:55:54.671Z,english_506.wav,0,peel,564,36,4,Japanese,f,4,0.4,29.61638046,0.64999614
RIY,6,0,2024-06-30T12:55:54.671Z,english_506.wav,0,peel,564,36,4,Japanese,f,5,0.5,91.08087873,0.76132632
RIY,6,0,2024-06-30T12:55:54.671Z,english_506.wav,0,peel,564,36,4,Japanese,f,6,0.6,45.85080553,0.84020916
RIY,6,0,2024-06-30T12:55:54.671Z,english_506.wav,0,peel,564,36,4,Japanese,f,7,0.7,15.18618823,1.25961369
RIY,6,0,2024-06-30T12:55:54.671Z,english_506.wav,0,peel,564,36,4,Japanese,f,8,0.8,7.43914734,1.02786985
RIY,6,0,2024-06-30T12:55:54.671Z,english_506.wav,0,peel,564,36,4,Japanese,f,9,0.9,90.87583829,1.37241819
RIY,6,0,2024-06-30T12:55:54.671Z,english_506.wav,0,peel,564,36,4,Japanese,f,10,1.0,-85.58318538,0.76507647
RIY,6,0,2024-06-30T12:55:54.671Z,english_506.wav,0,peel,564,36,4,Japanese,f,11,1.09391667,-68.83720883,1.93766079
RIY,7,0,2024-06-30T12:55:54.671Z,english_767.wav,0,pill,182,36,4,Japanese,f,0,0.0,-51.82889882,0.85849805
RIY,7,0,2024-06-30T12:55:54.671Z,english_767.wav,0,pill,182,36,4,Japanese,f,1,0.1,51.01701548,0.56470658
RIY,7,0,2024-06-30T12:55:54.671Z,english_767.wav,0,pill,182,36,4,Japanese,f,2,0.2,-33.49871036,1.12840655
RIY,7,0,2024-06-30T12:55:54.671Z,english_767.wav,0,pill,182,36,4,Japanese,f,3,0.3,35.0661797,0.30358847
RIY,7,0,2024-06-30T12:55:54.671Z,english_767.wav,0,pill,182,36,4,Japanese,f,4,0.4,-66.76498728,1.98047846
RIY,7,0,2024-06-30T12:55:54.671Z,english_767.wav,0,pill,182,36,4,Japanese,f,5,0.5,-60.63649878,1.15215796
RIY,7,0,2024-06-30T12:55:54.671Z,english_767.wav,0,pill,182,36,4,Japanese,f,6,0.6,-66.50688625,0.97775859
RIY,7,0,2024-06-30T12:55:54.671Z,english_767.wav,0,pill,182,36,4,Japanese,f,7,0.7,-70.17128926,0.81197732
RIY,7,0,2024-06-30T12:55:54.671Z,english_767.wav,0,pill,182,36,4,Japanese,f,8,0.8,32.8869854,1.74118297
RIY,7,0,2024-06-30T12:55:54.671Z,english_767.wav,0,pill,182,36,4,Japanese,f,9,0.9,21.57035996,1.09937379
RIY,7,0,2024-06-30T12:55:54.671Z,english_767.wav,0,pill,182,36,4,Japanese,f,10,1.0,-36.26911366,1.31196256
RIY,7,0,2024-06-30T12:55:54.671Z,english_767.wav,0,pill,182,36,4,Japanese,f,11,1.09391667,-1.05523753,0.54391414
RIY,8,0,2024-06-30T12:55:54.671Z,english_311.wav,0,peel,332,36,4,Japanese,f,0,0.0,64.66080996,0.82460416
RIY,8,0,2024-06-30T12:55:54.671Z,english_311.wav,0,peel,332,36,4,Japanese,f,1,0.1,-69.02575999,0.36483522
RIY,8,0,2024-06-30T12:55:54.671Z,english_311.wav,0,peel,332,36,4,Japanese,f,2,0.2,-67.68739859,0.7494254
RIY,8,0,2024-06-30T12:55:54.671Z,english_311.wav,0,peel,332,36,4,Japanese,f,3,0.3,44.13725608,0.5130867
RIY,8,0,2024-06-30T12:55:54.671Z,english_311.wav,0,peel,332,36,4,Japanese,f,4,0.4,93.17105676,0.37208425
RIY,8,0,2024-06-30T12:55:54.671Z,english_311.wav,0,peel,332,36,4,Japanese,f,5,0.5,84.82973528,1.19695655
RIY,8,0,2024-06-30T12:55:54.671Z,english_311.wav,0,peel,332,36,4,Japanese,f,6,0.6,-34.91706274,0.97358849
RIY,8,0,2024-06-30T12:55:54.671Z,english_311.wav,0,peel,332,36,4,Japanese,f,7,0.7,-93.26420788,1.42777336
RIY,8,0,2024-06-30T12:55:54.671Z,english_311.wav,0,peel,332,36,4,Japanese,f,8,0.8,78.86658017,1.14684196
RIY,8,0,2024-06-30T12:55:54.671Z,english_311.wav,0,peel,332,36,4,Japanese,f,9,0.9,-56.88823021,0.88829321
RIY,8,0,2024-06-30T12:55:54.671Z,english_311.wav,0,peel,332,36,4,Japanese,f,10,1.0,16.33779759,0.74783525
RIY,8,0,2024-06-30T12:55:54.671Z,english_311.wav,0,peel,332,36,4,Japanese,f,11,1.09391667,54.14062415,1.42501308
RIY,9,0,2024-06-30T12:55:54.671Z,english_396.wav,0,pill,273,36,4,Japanese,f,0,0.0,84.93727222,0.86172546
RIY,9,0,2024-06-30T12:55:54.671Z,english_396.wav,0,pill,273,36,4,Japanese,f,1,0.1,-63.66791866,1.32010306
RIY,9,0,2024-06-30T12:55:54.671Z,english_396.wav,0,pill,273,36,4,Japanese,f,2,0.2,14.45946743,1.92977093
RIY,9,0,2024-06-30T12:55:54.671Z,english_396.wav,0,pill,273,36,4,Japanese,f,3,0.3,-3.11232885,1.56073736
RIY,9,0,2024-06-30T12:55:54.671Z,english_396.wav,0,pill,273,36,4,Japanese,f,4,0.4,-24.43595518,0.53468527
RIY,9,0,2024-06-30T12:55:54.671Z,english_396.wav,0,pill,273,36,4,Japanese,f,5,0.5,-51.99030464,1.39813115
RIY,9,0,2024-06-30T12:55:54.671Z,english_396.wav,0,pill,273,36,4,Japanese,f,6,0.6,79.76166554,0.18875949
RIY,9,0,2024-06-30T12:55:54.671Z,english_396.wav,0,pill,273,36,4,Japanese,f,7,0.7,57.3813763,0.18509546
RIY,9,0,2024-06-30T12:55:54.671Z,english_396.wav,0,pill,273,36,4,Japanese,f,8,0.8,31.81531803,0.3363238
RIY,9,0,2024-06-30T12:55:54.671Z,english_396.wav,0,pill,273,36,4,Japanese,f,9,0.9,63.48869565,0.50261655
RIY,9,0,2024-06-30T12:55:54.671Z,english_396.wav,0,pill,273,36,4,Japanese,f,10,1.0,71.83555581,1.79852856
RIY,9,0,2024-06-30T12:55:54.671Z,english_396.wav,0,pill,273,36,4,Japanese,f,11,1.09391667,-2.44249492,0.37213294
RIY,10,0,2024-06-30T12:55:54.671Z,english_418.wav,0,pill,827,36,4,Japanese,f,0,0.0,17.48179392,1.16767435
RIY,10,0,2024-06-30T12:55:54.671Z,english_418.wav,0,pill,827,36,4,Japanese,f,1,0.1,-20.93259057,1.12895723
RIY,10,0,2024-06-30T12:55:54.671Z,english_418.wav,0,pill,827,36,4,Japanese,f,2,0.2,38.48191575,0.3034601
RIY,10,0,2024-06-30T12:55:54.671Z,english_418.wav,0,pill,827,36,4,Japanese,f,3,0.3,-43.04758346,1.48058882
RIY,10,0,2024-06-30T12:55:54.671Z,english_418.wav,0,pill,827,36,4,Japanese,f,4,0.4,-27.49631219,0.85133692
RIY,10,0,2024-06-30T12:55:54.671Z,english_418.wav,0,pill,827,36,4,Japanese,f,5,0.5,-43.30662093,1.76317004
RIY,10,0,2024-06-30T12:55:54.671Z,english_418.wav,0,pill,827,36,4,Japanese,f,6,0.6,-11.80067145,0.40561242
RIY,10,0,2024-06-30T12:55:54.671Z,english_418.wav,0,pill,827,36,4,Japanese,f,7,0.7,-65.69750473,0.69119528
RIY,10,0,2024-06-30T12:55:54.671Z,english_418.wav,0,pill,827,36,4,Japanese,f,8,0.8,36.09713106,0.70403422
RIY,10,0,2024-06-30T12:55:54.671Z,english_418.wav,0,pill,827,36,4,Japanese,f,9,0.9,-89.16917769,0.50785509
RIY,10,0,2024-06-30T12:55:54.671Z,english_418.wav,0,pill,827,36,4,Japanese,f,10,1.0,-11.53730863,0.15277714
RIY,10,0,2024-06-30T12:55:54.671Z,english_418.wav,0,pill,827,36,4,Japanese,f,11,1.09391667,91.60971419,0.42464397
RIY,11,0,2024-06-30T12:55:54.671Z,english_388.wav,0,pill,369,36,4,Japanese,f,0,0.0,-41.72152619,1.04150919
RIY,11,0,2024-06-30T12:55:54.671Z,english_388.wav,0,pill,369,36,4,Japanese,f,1,0.1,16.10845718,1.44420011
RIY,11,0,2024-06-30T12:55:54.671Z,english_388.wav,0,pill,369,36,4,Japanese,f,2,0.2,56.96293644,1.65872581
RIY,11,0,2024-06-30T12:55:54.671Z,english_388.wav,0,pill,369,36,4,Japanese,f,3,0.3,-95.24889342,1.66380946
RIY,11,0,2024-06-30T12:55:54.671Z,english_388.wav,0,pill,369,36,4,Japanese,f,4,0.4,-92.06058204,1.25967223
RIY,11,0,2024-06-30T12:55:54.671Z,english_388.wav,0,pill,369,36,4,Japanese,f,5,0.5,-66.79451415,1.01005139
RIY,11,0,2024-06-30T12:55:54.671Z,english_388.wav,0,pill,369,36,4,Japanese,f,6,0.6,31.29945158,0.59386887
RIY,11,0,2024-06-30T12:55:54.671Z,english_388.wav,0,pill,369,36,4,Japanese,f,7,0.7,52.76870029,1.783647
RIY,11,0,2024-06-30T12:55:54.671Z,english_388.wav,0,pill,369,36,4,Japanese,f,8,0.8,-83.90415266,0.30560863
RIY,11,0,2024-06-30T12:55:54.671Z,english_388.wav,0,pill,369,36,4,Japanese,f,9,0.9,16.41554992,0.09885056
RIY,11,0,2024-06-30T12:55:54.671Z,english_388.wav,0,pill,369,36,4,Japanese,f,10,1.0,44.20651848,0.45485887
RIY,11,0,2024-06-30T12:55:54.671Z,english_388.wav,0,pill,369,36,4,Japanese,f,11,1.09391667,-53.31309565,1.06517725
RIY,12,0,2024-06-30T12:55:54.671Z,english_652.wav,0,peel,703,36,4,Japanese,f,0,0.0,-6.47134423,1.78340321
RIY,12,0,2024-06-30T12:55:54.671Z,english_652.wav,0,peel,703,36,4,Japanese,f,1,0.1,15.08810971,1.37348527
RIY,12,0,2024-06-30T12:55:54.671Z,english_652.wav,0,peel,703,36,4,Japanese,f,2,0.2,98.29631383,0.90438715
RIY,12,0,2024-06-30T12:55:54.671Z,english_652.wav,0,peel,703,36,4,Japanese,f,3,0.3,30.58339985,0.90448146
RIY,12,0,2024-06-30T12:55:54.671Z,english_652.wav,0,peel,703,36,4,Japanese,f,4,0.4,-6.30529528,0.6194213
RIY,12,0,2024-06-30T12:55:54.671Z,english_652.wav,0,peel,703,36,4,Japanese,f,5,0.5,-44.5601624,1.03986034
RIY,12,0,2024-06-30T12:55:54.671Z,english_652.wav,0,peel,703,36,4,Japanese,f,6,0.6,4.47931007,0.52762796
RIY,12,0,2024-06-30T12:55:54.671Z,english_652.wav,0,peel,703,36,4,Japanese,f,7,0.7,-52.28319513,0.92865907
RIY,12,0,2024-06-30T12:55:54.671Z,english_652.wav,0,peel,703,36,4,Japanese,f,8,0.8,17.6405793,1.28477406
RIY,12,0,2024-06-30T12:55:54.671Z,english_652.wav,0,peel,703,36,4,Japanese,f,9,0.9,2.7192508,1.34724363
RIY,12,0,2024-06-30T12:55:54.671Z,english_652.wav,0,peel,703,36,4,Japanese,f,10,1.0,-8.76412426,1.76490877
RIY,12,0,2024-06-30T12:55:54.671Z,english_652.wav,0,peel,703,36,4,Japanese,f,11,1.09391667,53.37366327,1.20575877
RIY,13,0,2024-06-30T12:55:54.671Z,english_375.wav,0,peel,434,36,4,Japanese,f,0,0.0,-66.54027977,1.30902013
RIY,13,0,2024-06-30T12:55:54.671Z,english_375.wav,0,peel,434,36,4,Japanese,f,1,0.1,72.08787066,1.77420651
RIY,13,0,2024-06-30T12:55:54.671Z,english_375.wav,0,peel,434,36,4,Japanese,f,2,0.2,-56.77584869,1.24550761
RIY,13,0,2024-06-30T12:55:54.671Z,english_375.wav,0,peel,434,36,4,Japanese,f,3,0.3,-36.97947012,0.68148521
RIY,13,0,2024-06-30T12:55:54.671Z,english_375.wav,0,peel,434,36,4,Japanese,f,4,0.4,43.73402827,1.5097978
RIY,13,0,2024-06-30T12:55:54.671Z,english_375.wav,0,peel,434,36,4,Japanese,f,5,0.5,19.53034116,0.87895003
RIY,13,0,2024-06-30T12:55:54.671Z,english_375.wav,0,peel,434,36,4,Japanese,f,6,0.6,-35.65016919,0.57287352
RIY,13,0,2024-06-30T12:55:54.671Z,english_375.wav,0,peel,434,36,4,Japanese,f,7,0.7,12.37356045,0.19847139
RIY,13,0,2024-06-30T12:55:54.671Z,english_375.wav,0,peel,434,36,4,Japanese,f,8,0.8,-24.97795402,1.57884859
RIY,13,0,2024-06-30T12:55:54.671Z,english_375.wav,0,peel,434,36,4,Japanese,f,9,0.9,57.77915604,1.32641243
RIY,13,0,2024-06-30T12:55:54.671Z,english_375.wav,0,peel,434,36,4,Japanese,f,10,1.0,-30.716589,0.36090675
RIY,13,0,2024-06-30T12:55:54.671Z,english_375.wav,0,peel,434,36,4,Japanese,f,11,1.09391667,78.48935482,1.90030926
RIY,14,0,2024-06-30T12:55:54.671Z,english_148.wav,0,pill,965,36,4,Japanese,f,0,0.0,85.27624152,0.1092145
RIY,14,0,2024-06-30T12:55:54.671Z,english_148.wav,0,pill,965,36,4,Japanese,f,1,0.1,58.23579672,0.64980633
RIY,14,0,2024-06-30T12:55:54.671Z,english_148.wav,0,pill,965,36,4,Japanese,f,2,0.2,-91.05033604,1.83346208
RIY,14,0,2024-06-30T12:55:54.671Z,english_148.wav,0,pill,965,36,4,Japanese,f,3,0.3,20.11396141,1.16314863
RIY,14,0,2024-06-30T12:55:54.671Z,english_148.wav,0,pill,965,36,4,Japanese,f,4,0.4,75.44798514,0.3185648
RIY,14,0,2024-06-30T12:55:54.671Z,english_148.wav,0,pill,965,36,4,Japanese,f,5,0.5,-38.94488744,0.6593156
RIY,14,0,2024-06-30T12:55:54.671Z,english_148.wav,0,pill,965,36,4,Japanese,f,6,0.6,-29.81274231,1.16710518
RIY,14,0,2024-06-30T12:55:54.671Z,english_148.wav,0,pill,965,36,4,Japanese,f,7,0.7,75.45743384,1.07936895
RIY,14,0,2024-06-30T12:55:54.671Z,english_148.wav,0,pill,965,36,4,Japanese,f,8,0.8,-13.70216327,0.75554181
RIY,14,0,2024-06-30T12:55:54.671Z,english_148.wav,0,pill,965,36,4,Japanese,f,9,0.9,-90.12623186,1.33604039
RIY,14,0,2024-06-30T12:55:54.671Z,english_148.wav,0,pill,965,36,4,Japanese,f,10,1.0,-27.22744176,1.61217721
RIY,14,0,2024-06-30T12:55:54.671Z,english_148.wav,0,pill,965,36,4,Japanese,f,11,1.09391667,7.28951287,1.20550087
RIY,15,0,2024-06-30T12:55:54.671Z,english_61.wav,0,pill,410,36,4,Japanese,f,0,0.0,-76.31366774,1.15675845
RIY,15,0,2024-06-30T12:55:54.671Z,english_61.wav,0,pill,410,36,4,Japanese,f,1,0.1,-70.32577527,0.79511083
RIY,15,0,2024-06-30T12:55:54.671Z,english_61.wav,0,pill,410,36,4,Japanese,f,2,0.2,5.13466316,0.40451227
RIY,15,0,2024-06-30T12:55:54.671Z,english_61.wav,0,pill,410,36,4,Japanese,f,3,0.3,37.00830294,0.79487484
RIY,15,0,2024-06-30T12:55:54.671Z,english_61.wav,0,pill,410,36,4,Japanese,f,4,0.4,-11.73068973,0.44483697
RIY,15,0,2024-06-30T12:55:54.671Z,english_61.wav,0,pill,410,36,4,Japanese,f,5,0.5,91.45109603,0.84603206
RIY,15,0,2024-06-30T12:55:54.671Z,english_61.wav,0,pill,410,36,4,Japanese,f,6,0.6,11.9601718,0.8090615
RIY,15,0,2024-06-30T12:55:54.671Z,english_61.wav,0,pill,410,36,4,Japanese,f,7,0.7,-66.7573243,1.09438885
RIY,15,0,2024-06-30T12:55:54.671Z,english_61.wav,0,pill,410,36,4,Japanese,f,8,0.8,78.73702917,1.14041124
RIY,15,0,2024-06-30T12:55:54.671Z,english_61.wav,0,pill,410,36,4,Japanese,f,9,0.9,61.80688515,0.39248564
RIY,15,0,2024-06-30T12:55:54.671Z,english_61.wav,0,pill,410,36,4,Japanese,f,10,1.0,-73.85845523,1.77720472
RIY,15,0,2024-06-30T12:55:54.671Z,english_61.wav,0,pill,410,36,4,Japanese,f,11,1.09391667,-24.76259921,1.29259789
RIY,16,0,2024-06-30T12:55:54.671Z,english_467.wav,0,pill,326,36,4,Japanese,f,0,0.0,84.73520447,0.80775308
RIY,16,0,2024-06-30T12:55:54.671Z,english_467.wav,0,pill,326,36,4,Japanese,f,1,0.1,88.96200227,0.60891261
RIY,16,0,2024-06-30T12:55:54.671Z,english_467.wav,0,pill,326,36,4,Japanese,f,2,0.2,72.63675829,1.71596765
RIY,16,0,2024-06-30T12:55:54.671Z,english_467.wav,0,pill,326,36,4,Japanese,f,3,0.3,-11.47164633,0.15084523
RIY,16,0,2024-06-30T12:55:54.671Z,english_467.wav,0,pill,326,36,4,Japanese,f,4,0.4,-15.99279105,1.25287304
RIY,16,0,2024-06-30T12:55:54.671Z,english_467.wav,0,pill,326,36,4,Japanese,f,5,0.5,-43.82437563,1.40086837
RIY,16,0,2024-06-30T12:55:54.671Z,english_467.wav,0,pill,326,36,4,Japanese,f,6,0.6,43.03099958,0.418933
RIY,16,0,2024-06-30T12:55:54.671Z,english_467.wav,0,pill,326,36,4,Japanese,f,7,0.7,-45.22330674,1.80339492
RIY,16,0,2024-06-30T12:55:54.671Z,english_467.wav,0,pill,326,36,4,Japanese,f,8,0.8,76.52363546,0.77008525
RIY,16,0,2024-06-30T12:55:54.671Z,english_467.wav,0,pill,326,36,4,Japanese,f,9,0.9,-64.57143565,1.13088524
RIY,16,0,2024-06-30T12:55:54.671Z,english_467.wav,0,pill,326,36,4,Japanese,f,10,1.0,-23.20829111,0.17124527
RIY,16,0,2024-06-30T12:55:54.671Z,english_467.wav,0,pill,326,36,4,Japanese,f,11,1.09391667,90.56201043,1.41524886
RIY,17,0,2024-06-30T12:55:54.671Z,english_199.wav,0,pill,919,36,4,Japanese,f,0,0.0,11.88199512,1.7718025
RIY,17,0,2024-06-30T12:55:54.671Z,english_199.wav,0,pill,919,36,4,Japanese,f,1,0.1,-46.96504702,0.76735149
RIY,17,0,2024-06-30T12:55:54.671Z,english_199.wav,0,pill,919,36,4,Japanese,f,2,0.2,91.54002169,1.87614546
RIY,17,0,2024-06-30T12:55:54.671Z,english_199.wav,0,pill,919,36,4,Japanese,f,3,0.3,99.89394598,1.34343154
RIY,17,0,2024-06-30T12:55:54.671Z,english_199.wav,0,pill,919,36,4,Japanese,f,4,0.4,-50.70673656,1.06602126
RIY,17,0,2024-06-30T12:55:54.671Z,english_199.wav,0,pill,919,36,4,Japanese,f,5,0.5,3.76891672,0.62776747
RIY,17,0,2024-06-30T12:55:54.671Z,english_199.wav,0,pill,919,36,4,Japanese,f,6,0.6,96.91424304,1.16622983
RIY,17,0,2024-06-30T12:55:54.671Z,english_199.wav,0,pill,919,36,4,Japanese,f,7,0.7,-8.03082423,0.99062008
RIY,17,0,2024-06-30T12:55:54.671Z,english_199.wav,0,pill,919,36,4,Japanese,f,8,0.8,10.21194857,0.73939337
RIY,17,0,2024-06-30T12:55:54.671Z,english_199.wav,0,pill,919,36,4,Japanese,f,9,0.9,73.92851664,0.60539997
RIY,17,0,2024-06-30T12:55:54.671Z,english_199.wav,0,pill,919,36,4,Japanese,f,10,1.0,29.02383929,1.28070052
RIY,17,0,2024-06-30T12:55:54.671Z,english_199.wav,0,pill,919,36,4,Japanese,f,11,1.09391667,-91.13840346,0.2785568
RIY,18,0,2024-06-30T12:55:54.671Z,english_417.wav,0,pill,438,36,4,Japanese,f,0,0.0,29.37383655,1.92425936
RIY,18,0,2024-06-30T12:55:54.671Z,english_417.wav,0,pill,438,36,4,Japanese,f,1,0.1,23.19156398,0.6229039
RIY,18,0,2024-06-30T12:55:54.671Z,english_417.wav,0,pill,438,36,4,Japanese,f,2,0.2,85.81337763,1.36154183
RIY,18,0,2024-06-30T12:55:54.671Z,english_417.wav,0,pill,438,36,4,Japanese,f,3,0.3,-29.64908449,0.09031289
RIY,18,0,2024-06-30T12:55:54.671Z,english_417.wav,0,pill,438,36,4,Japanese,f,4,0.4,8.97904128,0.90960709
RIY,18,0,2024-06-30T12:55:54.671Z,english_417.wav,0,pill,438,36,4,Japanese,f,5,0.5,39.22706603,1.25920128
RIY,18,0,2024-06-30T12:55:54.671Z,english_417.wav,0,pill,438,36,4,Japanese,f,6,0.6,61.83715867,1.48525242
RIY,18,0,2024-06-30T12:55:54.671Z,english_417.wav,0,pill,438,36,4,Japanese,f,7,0.7,-85.41027475,0.60232136
RIY,18,0,2024-06-30T12:55:54.671Z,english_417.wav,0,pill,438,36,4,Japanese,f,8,0.8,73.95238576,0.50952592
RIY,18,0,2024-06-30T12:55:54.671Z,english_417.wav,0,pill,438,36,4,Japanese,f,9,0.9,27.80762862,0.22145612
RIY,18,0,2024-06-30T12:55:54.671Z,english_417.wav,0,pill,438,36,4,Japanese,f,10,1.0,-27.42196196,0.91644458
RIY,18,0,2024-06-30T12:55:54.671Z,english_417.wav,0,pill,438,36,4,Japanese,f,11,1.09391667,-33.44848628,1.07641807
RIY,19,0,2024-06-30T12:55:54.671Z,english_493.wav,0,pill,859,36,4,Japanese,f,0,0.0,-8.91567992,0.90906845
RIY,19,0,2024-06-30T12:55:54.671Z,english_493.wav,0,pill,859,36,4,Japanese,f,1,0.1,-2.81052192,1.82277729
RIY,19,0,2024-06-30T12:55:54.671Z,english_493.wav,0,pill,859,36,4,Japanese,f,2,0.2,0.93987988,1.85575617
RIY,19,0,2024-06-30T12:55:54.671Z,english_493.wav,0,pill,859,36,4,Japanese,f,3,0.3,-44.0664777,0.198144
RIY,19,0,2024-06-30T12:55:54.671Z,english_493.wav,0,pill,859,36,4,Japanese,f,4,0.4,12.64172921,0.31833397
RIY,19,0,2024-06-30T12:55:54.671Z,english_493.wav,0,pill,859,36,4,Japanese,f,5,0.5,38.10396852,0.16370317
RIY,19,0,2024-06-30T12:55:54.671Z,english_493.wav,0,pill,859,36,4,Japanese,f,6,0.6,51.1275002,0.48830507
RIY,19,0,2024-06-30T12:55:54.671Z,english_493.wav,0,pill,859,36,4,Japanese,f,7,0.7,-51.72089694,0.59724282
RIY,19,0,2024-06-30T12:55:54.671Z,english_493.wav,0,pill,859,36,4,Japanese,f,8,0.8,-22.89469136,0.45798431
RIY,19,0,2024-06-30T12:55:54.671Z,english_493.wav,0,pill,859,36,4,Japanese,f,9,0.9,55.14015253,1.24461858
RIY,19,0,2024-06-30T12:55:54.671Z,english_493.wav,0,pill,859,36,4,Japanese,f,10,1.0,69.89984763,1.33195334
RIY,19,0,2024-06-30T12:55:54.671Z,english_493.wav,0,pill,859,36,4,Japanese,f,11,1.09391667,7.83521283,1.92068406
RIY,20,0,2024-06-30T12:55:54.671Z,english_371.wav,0,peel,375,36,4,Japanese,f,0,0.0,99.9242386,0.39669775
RIY,20,0,2024-06-30T12:55:54.671Z,english_371.wav,0,peel,375,36,4,Japanese,f,1,0.1,22.83023049,0.78709847
RIY,20,0,2024-06-30T12:55:54.671Z,english_371.wav,0,peel,375,36,4,Japanese,f,2,0.2,91.55037371,1.18432294
RIY,20,0,2024-06-30T12:55:54.671Z,english_371.wav,0,peel,375,36,4,Japanese,f,3,0.3,5.76311401,0.89768316
RIY,20,0,2024-06-30T12:55:54.671Z,english_371.wav,0,peel,375,36,4,Japanese,f,4,0.4,4.70890445,0.28448655
RIY,20,0,2024-06-30T12:55:54.671Z,english_371.wav,0,peel,375,36,4,Japanese,f,5,0.5,-99.6762273,1.11635531
RIY,20,0,2024-06-30T12:55:54.671Z,english_371.wav,0,peel,375,36,4,Japanese,f,6,0.6,-44.58037386,0.70262912
RIY,20,0,2024-06-30T12:55:54.671Z,english_371.wav,0,peel,375,36,4,Japanese,f,7,0.7,-30.18832908,1.50477642
RIY,20,0,2024-06-30T12:55:54.671Z,english_371.wav,0,peel,375,36,4,Japanese,f,8,0.8,69.47065737,1.93681172
RIY,20,0,2024-06-30T12:55:54.671Z,english_371.wav,0,peel,375,36,4,Japanese,f,9,0.9,-91.54025657,1.02826785
RIY,20,0,2024-06-30T12:55:54.671Z,english_371.wav,0,peel,375,36,4,Japanese,f,10,1.0,20.04839549,1.64700674
RIY,20,0,2024-06-30T12:55:54.671Z,english_371.wav,0,peel,375,36,4,Japanese,f,11,1.09391667,43.26134408,0.44264614
RIY,21,0,2024-06-30T12:55:54.671Z,english_843.wav,0,peel,1250,36,4,Japanese,f,0,0.0,13.87584617,1.27519345
RIY,21,0,2024-06-30T12:55:54.671Z,english_843.wav,0,peel,1250,36,4,Japanese,f,1,0.1,17.53714881,0.4999323
RIY,21,0,2024-06-30T12:55:54.671Z,english_843.wav,0,peel,1250,36,4,Japanese,f,2,0.2,70.72069662,1.20187255
RIY,21,0,2024-06-30T12:55:54.671Z,english_843.wav,0,peel,1250,36,4,Japanese,f,3,0.3,14.49652428,0.99598265
RIY,21,0,2024-06-30T12:55:54.671Z,english_843.wav,0,peel,1250,36,4,Japanese,f,4,0.4,-65.08259112,1.86186318
RIY,21,0,2024-06-30T12:55:54.671Z,english_843.wav,0,peel,1250,36,4,Japanese,f,5,0.5,26.6308795,0.44944471
RIY,21,0,2024-06-30T12:55:54.671Z,english_843.wav,0,peel,1250,36,4,Japanese,f,6,0.6,-80.57084842,0.60839379
RIY,21,0,2024-06-30T12:55:54.671Z,english_843.wav,0,peel,1250,36,4,Japanese,f,7,0.7,-48.22210442,1.68983896
RIY,21,0,2024-06-30T12:55:54.671Z,english_843.wav,0,peel,1250,36,4,Japanese,f,8,0.8,-90.5256354,1.90866012
RIY,21,0,2024-06-30T12:55:54.671Z,english_843.wav,0,peel,1250,36,4,Japanese,f,9,0.9,39.07951266,0.50710565
RIY,21,0,2024-06-30T12:55:54.671Z,english_843.wav,0,peel,1250,36,4,Japanese,f,10,1.0,-12.6282176,1.80732727
RIY,21,0,2024-06-30T12:55:54.671Z,english_843.wav,0,peel,1250,36,4,Japanese,f,11,1.09391667,-11.67818775,0.54311362
RIY,22,0,2024-06-30T12:55:54.671Z,english_653.wav,0,pill,345,36,4,Japanese,f,0,0.0,41.8259341,0.17533452
RIY,22,0,2024-06-30T12:55:54.671Z,english_653.wav,0,pill,345,36,4,Japanese,f,1,0.1,17.38671322,1.08757539
RIY,22,0,2024-06-30T12:55:54.671Z,english_653.wav,0,pill,345,36,4,Japanese,f,2,0.2,86.12532741,1.96334993
RIY,22,0,2024-06-30T12:55:54.671Z,english_653.wav,0,pill,345,36,4,Japanese,f,3,0.3,-33.72650973,1.47062591
RIY,22,0,2024-06-30T12:55:54.671Z,english_653.wav,0,pill,345,36,4,Japanese,f,4,0.4,-40.64508362,1.06368379
RIY,22,0,2024-06-30T12:55:54.671Z,english_653.wav,0,pill,345,36,4,Japanese,f,5,0.5,29.34700904,1.07766545
RIY,22,0,2024-06-30T12:55:54.671Z,english_653.wav,0,pill,345,36,4,Japanese,f,6,0.6,-10.62645481,1.32143854
RIY,22,0,2024-06-30T12:55:54.671Z,english_653.wav,0,pill,345,36,4,Japanese,f,7,0.7,-39.23364733,0.74682372
RIY,22,0,2024-06-30T12:55:54.671Z,english_653.wav,0,pill,345,36,4,Japanese,f,8,0.8,1.23936202,0.56607345
RIY,22,0,2024-06-30T12:55:54.671Z,english_653.wav,0,pill,345,36,4,Japanese,f,9,0.9,54.61023708,0.97558446
RIY,22,0,2024-06-30T12:55:54.671Z,english_653.wav,0,pill,345,36,4,Japanese,f,10,1.0,68.93146106,0.53847025
RIY,22,0,2024-06-30T12:55:54.671Z,english_653.wav,0,pill,345,36,4,Japanese,f,11,1.09391667,98.0100566,0.14439152
RIY,23,0,2024-06-30T12:55:54.671Z,english_985.wav,0,pill,1271,36,4,Japanese,f,0,0.0,-83.24919271,0.45698213
RIY,23,0,2024-06-30T12:55:54.671Z,english_985.wav,0,pill,1271,36,4,Japanese,f,1,0.1,-61.40218693,1.0383787
RIY,23,0,2024-06-30T12:55:54.671Z,english_985.wav,0,pill,1271,36,4,Japanese,f,2,0.2,75.6831096,1.83439409
RIY,23,0,2024-06-30T12:55:54.671Z,english_985.wav,0,pill,1271,36,4,Japanese,f,3,0.3,-83.55103169,1.46493433
RIY,23,0,2024-06-30T12:55:54.671Z,english_985.wav,0,pill,1271,36,4,Japanese,f,4,0.4,-76.60569971,0.92668276
RIY,23,0,2024-06-30T12:55:54.671Z,english_985.wav,0,pill,1271,36,4,Japanese,f,5,0.5,93.43834668,1.27852145
RIY,23,0,2024-06-30T12:55:54.671Z,english_985.wav,0,pill,1271,36,4,Japanese,f,6,0.6,46.86841289,1.04356397
RIY,23,0,2024-06-30T12:55:54.671Z,english_985.wav,0,pill,1271,36,4,Japanese,f,7,0.7,11.38653049,1.03370788
RIY,23,0,2024-06-30T12:55:54.671Z,english_985.wav,0,pill,1271,36,4,Japanese,f,8,0.8,5.98716874,0.43255879
RIY,23,0,2024-06-30T12:55:54.671Z,english_985.wav,0,pill,1271,36,4,Japanese,f,9,0.9,6.47503028,0.84647211
RIY,23,0,2024-06-30T12:55:54.671Z,english_985.wav,0,pill,1271,36,4,Japanese,f,10,1.0,53.75316558,1.92237121
RIY,23,0,2024-06-30T12:55:54.671Z,english_985.wav,0,pill,1271,36,4,Japanese,f,11,1.09391667,-17.57703362,0.19853323
RIY,24,0,2024-06-30T12:55:54.671Z,english_298.wav,0,peel,199,36,4,Japanese,f,0,0.0,-6.27155647,1.61849335
RIY,24,0,2024-06-30T12:55:54.671Z,english_298.wav,0,peel,199,36,4,Japanese,f,1,0.1,48.93550058,0.35596491
RIY,24,0,2024-06-30T12:55:54.671Z,english_298.wav,0,peel,199,36,4,Japanese,f,2,0.2,13.84285521,0.30396033
RIY,24,0,2024-06-30T12:55:54.671Z,english_298.wav,0,peel,199,36,4,Japanese,f,3,0.3,97.15977737,1.90931563
RIY,24,0,2024-06-30T12:55:54.671Z,english_298.wav,0,peel,199,36,4,Japanese,f,4,0.4,79.76715629,0.00976952
RIY,24,0,2024-06-30T12:55:54.671Z,english_298.wav,0,peel,199,36,4,Japanese,f,5,0.5,-41.84976134,1.7369795
RIY,24,0,2024-06-30T12:55:54.671Z,english_298.wav,0,peel,199,36,4,Japanese,f,6,0.6,11.37121721,1.54006257
RIY,24,0,2024-06-30T12:55:54.671Z,english_298.wav,0,peel,199,36,4,Japanese,f,7,0.7,1.57706146,0.39135251
RIY,24,0,2024-06-30T12:55:54.671Z,english_298.wav,0,peel,199,36,4,Japanese,f,8,0.8,14.4430887,1.45560385
RIY,24,0,2024-06-30T12:55:54.671Z,english_298.wav,0,peel,199,36,4,Japanese,f,9,0.9,22.32733409,1.43660254
RIY,24,0,2024-06-30T12:55:54.671Z,english_298.wav,0,peel,199,36,4,Japanese,f,10,1.0,4.8370979,1.96857338
RIY,24,0,2024-06-30T12:55:54.671Z,english_298.wav,0,peel,199,36,4,Japanese,f,11,1.09391667,33.89493251,1.91654431
RIY,25,0,2024-06-30T12:55:54.671Z,english_331.wav,0,pill,197,36,4,Japanese,f,0,0.0,-64.72276527,1.69014175
RIY,25,0,2024-06-30T12:55:54.671Z,english_331.wav,0,pill,197,36,4,Japanese,f,1,0.1,-64.60107944,0.93306192
RIY,25,0,2024-06-30T12:55:54.671Z,english_331.wav,0,pill,197,36,4,Japanese,f,2,0.2,43.10237597,1.51219836
RIY,25,0,2024-06-30T12:55:54.671Z,english_331.wav,0,pill,197,36,4,Japanese,f,3,0.3,3.97944271,1.83280239
RIY,25,0,2024-06-30T12:55:54.671Z,english_331.wav,0,pill,197,36,4,Japanese,f,4,0.4,53.93002911,0.32272679
RIY,25,0,2024-06-30T12:55:54.671Z,english_331.wav,0,pill,197,36,4,Japanese,f,5,0.5,-98.69413197,0.14451959
RIY,25,0,2024-06-30T12:55:54.671Z,english_331.wav,0,pill,197,36,4,Japanese,f,6,0.6,76.42202474,0.4727661
RIY,25,0,2024-06-30T12:55:54.671Z,english_331.wav,0,pill,197,36,4,Japanese,f,7,0.7,-50.14036669,0.90462805
RIY,25,0,2024-06-30T12:55:54.671Z,english_331.wav,0,pill,197,36,4,Japanese,f,8,0.8,61.5779926,1.98401372
RIY,25,0,2024-06-30T12:55:54.671Z,english_331.wav,0,pill,197,36,4,Japanese,f,9,0.9,-56.16895328,0.59081959
RIY,25,0,2024-06-30T12:55:54.671Z,english_331.wav,0,pill,197,36,4,Japanese,f,10,1.0,5.62439148,1.38184498
RIY,25,0,2024-06-30T12:55:54.671Z,english_331.wav,0,pill,197,36,4,Japanese,f,11,1.09391667,-39.06443994,0.44356806
RIY,26,0,2024-06-30T12:55:54.671Z,english_897.wav,0,pill,319,36,4,Japanese,f,0,0.0,91.54141142,0.1445201
RIY,26,0,2024-06-30T12:55:54.671Z,english_897.wav,0,pill,319,36,4,Japanese,f,1,0.1,20.06999674,1.86000345
RIY,26,0,2024-06-30T12:55:54.671Z,english_897.wav,0,pill,319,36,4,Japanese,f,2,0.2,-60.17862007,0.67850772
RIY,26,0,2024-06-30T12:55:54.671Z,english_897.wav,0,pill,319,36,4,Japanese,f,3,0.3,22.55775305,0.042785
RIY,26,0,2024-06-30T12:55:54.671Z,english_897.wav,0,pill,319,36,4,Japanese,f,4,0.4,-29.18349392,0.33792534
RIY,26,0,2024-06-30T12:55:54.671Z,english_897.wav,0,pill,319,36,4,Japanese,f,5,0.5,-4.34715828,1.54286554
RIY,26,0,2024-06-30T12:55:54.671Z,english_897.wav,0,pill,319,36,4,Japanese,f,6,0.6,3.54639982,1.41726271
RIY,26,0,2024-06-30T12:55:54.671Z,english_897.wav,0,pill,319,36,4,Japanese,f,7,0.7,14.95981451,0.22962892
RIY,26,0,2024-06-30T12:55:54.671Z,english_897.wav,0,pill,319,36,4,Japanese,f,8,0.8,79.03500803,0.98987379
RIY,26,0,2024-06-30T12:55:54.671Z,english_897.wav,0,pill,319,36,4,Japanese,f,9,0.9,89.82097388,0.31366212
RIY,26,0,2024-06-30T12:55:54.671Z,english_897.wav,0,pill,319,36,4,Japanese,f,10,1.0,-18.02507746,0.34929613
RIY,26,0,2024-06-30T12:55:54.671Z,english_897.wav,0,pill,319,36,4,Japanese,f,11,1.09391667,-21.60386418,1.95291291
RIY,27,0,2024-06-30T12:55:54.671Z,english_648.wav,0,pill,1216,36,4,Japanese,f,0,0.0,33.66524903,1.53800397
RIY,27,0,2024-06-30T12:55:54.671Z,english_648.wav,0,pill,1216,36,4,Japanese,f,1,0.1,97.98351088,1.15872761
RIY,27,0,2024-06-30T12:55:54.671Z,english_648.wav,0,pill,1216,36,4,Japanese,f,2,0.2,11.9794117,0.81425559
RIY,27,0,2024-06-30T12:55:54.671Z,english_648.wav,0,pill,1216,36,4,Japanese,f,3,0.3,29.55885348,0.88028101
RIY,27,0,2024-06-30T12:55:54.671Z,english_648.wav,0,pill,1216,36,4,Japanese,f,4,0.4,24.59728939,1.88326834
RIY,27,0,2024-06-30T12:55:54.671Z,english_648.wav,0,pill,1216,36,4,Japanese,f,5,0.5,59.2279724,1.09723956
RIY,27,0,2024-06-30T12:55:54.671Z,english_648.wav,0,pill,1216,36,4,Japanese,f,6,0.6,3.25949038,0.83602582
RIY,27,0,2024-06-30T12:55:54.671Z,english_648.wav,0,pill,1216,36,4,Japanese,f,7,0.7,-26.79620766,0.3704665
RIY,27,0,2024-06-30T12:55:54.671Z,english_648.wav,0,pill,1216,36,4,Japanese,f,8,0.8,98.3282455,0.87153578
RIY,27,0,2024-06-30T12:55:54.671Z,english_648.wav,0,pill,1216,36,4,Japanese,f,9,0.9,-78.7239126,1.50300547
RIY,27,0,2024-06-30T12:55:54.671Z,english_648.wav,0,pill,1216,36,4,Japanese,f,10,1.0,20.12137035,0.75356499
RIY,27,0,2024-06-30T12:55:54.671Z,english_648.wav,0,pill,1216,36,4,Japanese,f,11,1.09391667,-43.42156432,1.92538482
RIY,28,0,2024-06-30T12:55:54.671Z,english_854.wav,0,pill,927,36,4,Japanese,f,0,0.0,41.65293518,0.10243767
RIY,28,0,2024-06-30T12:55:54.671Z,english_854.wav,0,pill,927,36,4,Japanese,f,1,0.1,12.19905505,1.22737147
RIY,28,0,2024-06-30T12:55:54.671Z,english_854.wav,0,pill,927,36,4,Japanese,f,2,0.2,-17.7367635,0.80405871
RIY,28,0,2024-06-30T12:55:54.671Z,english_854.wav,0,pill,927,36,4,Japanese,f,3,0.3,82.5511566,1.55191633
RIY,28,0,2024-06-30T12:55:54.671Z,english_854.wav,0,pill,927,36,4,Japanese,f,4,0.4,24.18828857,0.00681269
RIY,28,0,2024-06-30T12:55:54.671Z,english_854.wav,0,pill,927,36,4,Japanese,f,5,0.5,-37.78588701,1.47971367
RIY,28,0,2024-06-30T12:55:54.671Z,english_854.wav,0,pill,927,36,4,Japanese,f,6,0.6,12.42409681,0.34468947
RIY,28,0,2024-06-30T12:55:54.671Z,english_854.wav,0,pill,927,36,4,Japanese,f,7,0.7,-1.0486121,0.87101018
RIY,28,0,2024-06-30T12:55:54.671Z,english_854.wav,0,pill,927,36,4,Japanese,f,8,0.8,-50.74764629,1.12590191
RIY,28,0,2024-06-30T12:55:54.671Z,english_854.wav,0,pill,927,36,4,Japanese,f,9,0.9,-93.36344031,1.039516
RIY,28,0,2024-06-30T12:55:54.671Z,english_854.wav,0,pill,927,36,4,Japanese,f,10,1.0,39.91763763,1.26341771
RIY,28,0,2024-06-30T12:55:54.671Z,english_854.wav,0,pill,927,36,4,Japanese,f,11,1.09391667,-16.62780594,1.79941384
RIY,29,0,2024-06-30T12:55:54.671Z,english_153.wav,0,pill,2767,36,4,Japanese,f,0,0.0,-22.0137653,0.27160884
RIY,29,0,2024-06-30T12:55:54.671Z,english_153.wav,0,pill,2767,36,4,Japanese,f,1,0.1,21.87420495,0.44150389
RIY,29,0,2024-06-30T12:55:54.671Z,english_153.wav,0,pill,2767,36,4,Japanese,f,2,0.2,78.88032694,1.08191418
RIY,29,0,2024-06-30T12:55:54.671Z,english_153.wav,0,pill,2767,36,4,Japanese,f,3,0.3,68.02596654,0.18142841
RIY,29,0,2024-06-30T12:55:54.671Z,english_153.wav,0,pill,2767,36,4,Japanese,f,4,0.4,52.06150723,0.17455202
RIY,29,0,2024-06-30T12:55:54.671Z,english_153.wav,0,pill,2767,36,4,Japanese,f,5,0.5,-15.64198183,1.88425449
RIY,29,0,2024-06-30T12:55:54.671Z,english_153.wav,0,pill,2767,36,4,Japanese,f,6,0.6,-55.92218577,1.64687285
RIY,29,0,2024-06-30T12:55:54.671Z,english_153.wav,0,pill,2767,36,4,Japanese,f,7,0.7,45.74926524,1.52678411
RIY,29,0,2024-06-30T12:55:54.671Z,english_153.wav,0,pill,2767,36,4,Japanese,f,8,0.8,13.43145428,1.81629534
RIY,29,0,2024-06-30T12:55:54.671Z,english_153.wav,0,pill,2767,36,4,Japanese,f,9,0.9,-40.59369693,0.8186826
RIY,29,0,2024-06-30T12:55:54.671Z,english_153.wav,0,pill,2767,36,4,Japanese,f,10,1.0,14.2660924,0.36511419
RIY,29,0,2024-06-30T12:55:54.671Z,english_153.wav,0,pill,2767,36,4,Japanese,f,11,1.09391667,62.05558257,1.38161287
RIY,30,0,2024-06-30T12:55:54.671Z,english_170.wav,0,pill,364,36,4,Japanese,f,0,0.0,-16.05998387,1.41692406
RIY,30,0,2024-06-30T12:55:54.671Z,english_170.wav,0,pill,364,36,4,Japanese,f,1,0.1,-6.21136003,0.91307354
RIY,30,0,2024-06-30T12:55:54.671Z,english_170.wav,0,pill,364,36,4,Japanese,f,2,0.2,15.42568052,0.23372117
RIY,30,0,2024-06-30T12:55:54.671Z,english_170.wav,0,pill,364,36,4,Japanese,f,3,0.3,-56.10367399,1.97756992
RIY,30,0,2024-06-30T12:55:54.671Z,english_170.wav,0,pill,364,36,4,Japanese,f,4,0.4,33.39228695,1.31491234
RIY,30,0,2024-06-30T12:55:54.671Z,english_170.wav,0,pill,364,36,4,Japanese,f,5,0.5,34.4075698,1.31849018
RIY,30,0,2024-06-30T12:55:54.671Z,english_170.wav,0,pill,364,36,4,Japanese,f,6,0.6,-77.75225733,0.47935442
RIY,30,0,2024-06-30T12:55:54.671Z,english_170.wav,0,pill,364,36,4,Japanese,f,7,0.7,-35.86968862,1.36758715
RIY,30,0,2024-06-30T12:55:54.671Z,english_170.wav,0,pill,364,36,4,Japanese,f,8,0.8,-61.24335468,0.01597757
RIY,30,0,2024-06-30T12:55:54.671Z,english_170.wav,0,pill,364,36,4,Japanese,f,9,0.9,-7.24177995,0.93040558
RIY,30,0,2024-06-30T12:55:54.671Z,english_170.wav,0,pill,364,36,4,Japanese,f,10,1.0,-1.64660066,1.42845797
RIY,30,0,2024-06-30T12:55:54.671Z,english_170.wav,0,pill,364,36,4,Japanese,f,11,1.09391667,30.95625256,0.18013663
RIY,31,0,2024-06-30T12:55:54.671Z,english_782.wav,0,peel,482,36,4,Japanese,f,0,0.0,-78.57843069,1.03549732
RIY,31,0,2024-06-30T12:55:54.671Z,english_782.wav,0,peel,482,36,4,Japanese,f,1,0.1,18.46693427,1.37171195
RIY,31,0,2024-06-30T12:55:54.671Z,english_782.wav,0,peel,482,36,4,Japanese,f,2,0.2,97.99884289,0.49308363
RIY,31,0,2024-06-30T12:55:54.671Z,english_782.wav,0,peel,482,36,4,Japanese,f,3,0.3,62.25752433,1.45239523
RIY,31,0,2024-06-30T12:55:54.671Z,english_782.wav,0,peel,482,36,4,Japanese,f,4,0.4,52.39970151,1.75992902
RIY,31,0,2024-06-30T12:55:54.671Z,english_782.wav,0,peel,482,36,4,Japanese,f,5,0.5,-14.50018957,1.61112401
RIY,31,0,2024-06-30T12:55:54.671Z,english_782.wav,0,peel,482,36,4,Japanese,f,6,0.6,-27.56562213,0.55174203
RIY,31,0,2024-06-30T12:55:54.671Z,english_782.wav,0,peel,482,36,4,Japanese,f,7,0.7,45.71631019,1.83852108
RIY,31,0,2024-06-30T12:55:54.671Z,english_782.wav,0,peel,482,36,4,Japanese,f,8,0.8,-34.89121843,1.53242335
RIY,31,0,2024-06-30T12:55:54.671Z,english_782.wav,0,peel,482,36,4,Japanese,f,9,0.9,23.54778787,0.19128353
RIY,31,0,2024-06-30T12:55:54.671Z,english_782.wav,0,peel,482,36,4,Japanese,f,10,1.0,-69.46242817,0.08422805
RIY,31,0,2024-06-30T12:55:54.671Z,english_782.wav,0,peel,482,36,4,Japanese,f,11,1.09391667,95.32757353,0.55022533
RIY,32,0,2024-06-30T12:55:54.671Z,english_972.wav,0,pill,179,36,4,Japanese,f,0,0.0,-23.39425143,1.25085973
RIY,32,0,2024-06-30T12:55:54.671Z,english_972.wav,0,pill,179,36,4,Japanese,f,1,0.1,35.85055319,1.0698884
RIY,32,0,2024-06-30T12:55:54.671Z,english_972.wav,0,pill,179,36,4,Japanese,f,2,0.2,67.19735569,1.90990051
RIY,32,0,2024-06-30T12:55:54.671Z,english_972.wav,0,pill,179,36,4,Japanese,f,3,0.3,-48.3142237,1.50553478
RIY,32,0,2024-06-30T12:55:54.671Z,english_972.wav,0,pill,179,36,4,Japanese,f,4,0.4,98.37530376,1.59397111
RIY,32,0,2024-06-30T12:55:54.671Z,english_972.wav,0,pill,179,36,4,Japanese,f,5,0.5,49.57162288,0.74863955
RIY,32,0,2024-06-30T12:55:54.671Z,english_972.wav,0,pill,179,36,4,Japanese,f,6,0.6,57.60699349,0.82823128
RIY,32,0,2024-06-30T12:55:54.671Z,english_972.wav,0,pill,179,36,4,Japanese,f,7,0.7,-63.06687642,0.17780137
RIY,32,0,2024-06-30T12:55:54.671Z,english_972.wav,0,pill,179,36,4,Japanese,f,8,0.8,66.62148397,0.09555814
RIY,32,0,2024-06-30T12:55:54.671Z,english_972.wav,0,pill,179,36,4,Japanese,f,9,0.9,25.13322135,1.59117444
RIY,32,0,2024-06-30T12:55:54.671Z,english_972.wav,0,pill,179,36,4,Japanese,f,10,1.0,-29.0922144,1.44799229
RIY,32,0,2024-06-30T12:55:54.671Z,english_972.wav,0,pill,179,36,4,Japanese,f,11,1.09391667,-22.18125143,1.21058423
RIY,33,0,2024-06-30T12:55:54.671Z,english_999.wav,0,pill,2046,36,4,Japanese,f,0,0.0,-8.27619319,0.000148642599
RIY,33,0,2024-06-30T12:55:54.671Z,english_999.wav,0,pill,2046,36,4,Japanese,f,1,0.1,-49.3883822,1.22232627
RIY,33,0,2024-06-30T12:55:54.671Z,english_999.wav,0,pill,2046,36,4,Japanese,f,2,0.2,97.54217101,1.1174933
RIY,33,0,2024-06-30T12:55:54.671Z,english_999.wav,0,pill,2046,36,4,Japanese,f,3,0.3,-49.81406735,1.80111229
RIY,33,0,2024-06-30T12:55:54.671Z,english_999.wav,0,pill,2046,36,4,Japanese,f,4,0.4,46.43683506,0.552807392
RIY,33,0,2024-06-30T12:55:54.671Z,english_999.wav,0,pill,2046,36,4,Japanese,f,5,0.5,89.32784762,1.53319988
RIY,33,0,2024-06-30T12:55:54.671Z,english_999.wav,0,pill,2046,36,4,Japanese,f,6,0.6,-55.73277594,1.7616442
RIY,33,0,2024-06-30T12:55:54.671Z,english_999.wav,0,pill,2046,36,4,Japanese,f,7,0.7,49.38462906,0.0772486607
RIY,33,0,2024-06-30T12:55:54.671Z,english_999.wav,0,pill,2046,36,4,Japanese,f,8,0.8,85.41123264,1.0025863
RIY,33,0,2024-06-30T12:55:54.671Z,english_999.wav,0,pill,2046,36,4,Japanese,f,9,0.9,-58.86557708,0.329932429
RIY,33,0,2024-06-30T12:55:54.671Z,english_999.wav,0,pill,2046,36,4,Japanese,f,10,1.0,99.11766896,1.88826288
RIY,33,0,2024-06-30T12:55:54.671Z,english_999.wav,0,pill,2046,36,4,Japanese,f,11,1.09391667,28.82385918,1.88223689
RIY,34,0,2024-06-30T12:55:54.671Z,english_183.wav,0,pill,498,36,4,Japanese,f,0,0.0,56.94082111,1.46471885
RIY,34,0,2024-06-30T12:55:54.671Z,english_183.wav,0,pill,498,36,4,Japanese,f,1,0.1,23.76823823,0.27157125
RIY,34,0,2024-06-30T12:55:54.671Z,english_183.wav,0,pill,498,36,4,Japanese,f,2,0.2,-72.77208824,0.89995591
RIY,34,0,2024-06-30T12:55:54.671Z,english_183.wav,0,pill,498,36,4,Japanese,f,3,0.3,-26.01651227,0.86595775
RIY,34,0,2024-06-30T12:55:54.671Z,english_183.wav,0,pill,498,36,4,Japanese,f,4,0.4,97.95217456,0.99665554
RIY,34,0,2024-06-30T12:55:54.671Z,english_183.wav,0,pill,498,36,4,Japanese,f,5,0.5,-88.35240054,1.5130978
RIY,34,0,2024-06-30T12:55:54.671Z,english_183.wav,0,pill,498,36,4,Japanese,f,6,0.6,8.20957713,0.89371921
RIY,34,0,2024-06-30T12:55:54.671Z,english_183.wav,0,pill,498,36,4,Japanese,f,7,0.7,-0.21457891,0.60499738
RIY,34,0,2024-06-30T12:55:54.671Z,english_183.wav,0,pill,498,36,4,Japanese,f,8,0.8,-22.50054627,0.6752389
RIY,34,0,2024-06-30T12:55:54.671Z,english_183.wav,0,pill,498,36,4,Japanese,f,9,0.9,-26.93782132,0.26345185
RIY,34,0,2024-06-30T12:55:54.671Z,english_183.wav,0,pill,498,36,4,Japanese,f,10,1.0,-9.93952746,0.41919446
RIY,34,0,2024-06-30T12:55:54.671Z,english_183.wav,0,pill,498,36,4,Japanese,f,11,1.09391667,16.7040789,0.61479122
RIY,35,0,2024-06-30T12:55:54.671Z,english_735.wav,0,peel,489,36,4,Japanese,f,0,0.0,45.17443614,1.05701846
RIY,35,0,2024-06-30T12:55:54.671Z,english_735.wav,0,peel,489,36,4,Japanese,f,1,0.1,47.16225486,0.44895522
RIY,35,0,2024-06-30T12:55:54.671Z,english_735.wav,0,peel,489,36,4,Japanese,f,2,0.2,15.3532987,0.19506386
RIY,35,0,2024-06-30T12:55:54.671Z,english_735.wav,0,peel,489,36,4,Japanese,f,3,0.3,-43.81061568,0.99480529
RIY,35,0,2024-06-30T12:55:54.671Z,english_735.wav,0,peel,489,36,4,Japanese,f,4,0.4,83.17284614,0.46252356
RIY,35,0,2024-06-30T12:55:54.671Z,english_735.wav,0,peel,489,36,4,Japanese,f,5,0.5,60.7769414,1.45908064
RIY,35,0,2024-06-30T12:55:54.671Z,english_735.wav,0,peel,489,36,4,Japanese,f,6,0.6,-66.30411683,0.86428301
RIY,35,0,2024-06-30T12:55:54.671Z,english_735.wav,0,peel,489,36,4,Japanese,f,7,0.7,76.89695455,1.14188193
RIY,35,0,2024-06-30T12:55:54.671Z,english_735.wav,0,peel,489,36,4,Japanese,f,8,0.8,67.53178197,1.15486393
RIY,35,0,2024-06-30T12:55:54.671Z,english_735.wav,0,peel,489,36,4,Japanese,f,9,0.9,52.8137554,1.55511006
RIY,35,0,2024-06-30T12:55:54.671Z,english_735.wav,0,peel,489,36,4,Japanese,f,10,1.0,-86.58423276,0.92101672
RIY,35,0,2024-06-30T12:55:54.671Z,english_735.wav,0,peel,489,36,4,Japanese,f,11,1.09391667,98.32439456,1.0777974
RIY,36,0,2024-06-30T12:55:54.671Z,english_555.wav,0,peel,2014,36,4,Japanese,f,0,0.0,-34.01174322,1.1718484
RIY,36,0,2024-06-30T12:55:54.671Z,english_555.wav,0,peel,2014,36,4,Japanese,f,1,0.1,-25.89446117,1.62544238
RIY,36,0,2024-06-30T12:55:54.671Z,english_555.wav,0,peel,2014,36,4,Japanese,f,2,0.2,75.37641555,1.85861965
RIY,36,0,2024-06-30T12:55:54.671Z,english_555.wav,0,peel,2014,36,4,Japanese,f,3,0.3,3.6750175,1.93143492
RIY,36,0,2024-06-30T12:55:54.671Z,english_555.wav,0,peel,2014,36,4,Japanese,f,4,0.4,-77.72739176,0.30173375
RIY,36,0,2024-06-30T12:55:54.671Z,english_555.wav,0,peel,2014,36,4,Japanese,f,5,0.5,-17.06538868,1.28363733
RIY,36,0,2024-06-30T12:55:54.671Z,english_555.wav,0,peel,2014,36,4,Japanese,f,6,0.6,-37.567139,0.51060309
RIY,36,0,2024-06-30T12:55:54.671Z,english_555.wav,0,peel,2014,36,4,Japanese,f,7,0.7,-79.94552452,0.80092252
RIY,36,0,2024-06-30T12:55:54.671Z,english_555.wav,0,peel,2014,36,4,Japanese,f,8,0.8,29.48505151,1.44732027
RIY,36,0,2024-06-30T12:55:54.671Z,english_555.wav,0,peel,2014,36,4,Japanese,f,9,0.9,-58.857953,0.65157835
RIY,36,0,2024-06-30T12:55:54.671Z,english_555.wav,0,peel,2014,36,4,Japanese,f,10,1.0,-46.0054019,1.65986599
RIY,36,0,2024-06-30T12:55:54.671Z,english_555.wav,0,peel,2014,36,4,Japanese,f,11,1.09391667,-89.97133458,1.34311871
RIY,37,0,2024-06-30T12:55:54.671Z,english_46.wav,0,peel,3268,36,4,Japanese,f,0,0.0,-14.7704521,0.66460672
RIY,37,0,2024-06-30T12:55:54.671Z,english_46.wav,0,peel,3268,36,4,Japanese,f,1,0.1,44.71982886,0.16115308
RIY,37,0,2024-06-30T12:55:54.671Z,english_46.wav,0,peel,3268,36,4,Japanese,f,2,0.2,54.31186901,0.69883722
RIY,37,0,2024-06-30T12:55:54.671Z,english_46.wav,0,peel,3268,36,4,Japanese,f,3,0.3,49.55617509,0.91276183
RIY,37,0,2024-06-30T12:55:54.671Z,english_46.wav,0,peel,3268,36,4,Japanese,f,4,0.4,13.89468732,1.97897865
RIY,37,0,2024-06-30T12:55:54.671Z,english_46.wav,0,peel,3268,36,4,Japanese,f,5,0.5,-5.62181735,1.5047395
RIY,37,0,2024-06-30T12:55:54.671Z,english_46.wav,0,peel,3268,36,4,Japanese,f,6,0.6,46.1003591,1.97786281
RIY,37,0,2024-06-30T12:55:54.671Z,english_46.wav,0,peel,3268,36,4,Japanese,f,7,0.7,44.70422333,1.91807099
RIY,37,0,2024-06-30T12:55:54.671Z,english_46.wav,0,peel,3268,36,4,Japanese,f,8,0.8,-14.85596588,0.25212674
RIY,37,0,2024-06-30T12:55:54.671Z,english_46.wav,0,peel,3268,36,4,Japanese,f,9,0.9,-30.71855866,1.85861414
RIY,37,0,2024-06-30T12:55:54.671Z,english_46.wav,0,peel,3268,36,4,Japanese,f,10,1.0,-75.55345039,0.72903252
RIY,37,0,2024-06-30T12:55:54.671Z,english_46.wav,0,peel,3268,36,4,Japanese,f,11,1.09391667,6.43312975,1.80431148
RIY,38,0,2024-06-30T12:55:54.671Z,english_69.wav,0,pill,359,36,4,Japanese,f,0,0.0,-8.22406931,0.7296211
RIY,38,0,2024-06-30T12:55:54.671Z,english_69.wav,0,pill,359,36,4,Japanese,f,1,0.1,-46.19784604,1.54205881
RIY,38,0,2024-06-30T12:55:54.671Z,english_69.wav,0,pill,359,36,4,Japanese,f,2,0.2,-49.45533056,0.56573239
RIY,38,0,2024-06-30T12:55:54.671Z,english_69.wav,0,pill,359,36,4,Japanese,f,3,0.3,69.56374807,1.53704253
RIY,38,0,2024-06-30T12:55:54.671Z,english_69.wav,0,pill,359,36,4,Japanese,f,4,0.4,-92.74652317,0.47977854
RIY,38,0,2024-06-30T12:55:54.671Z,english_69.wav,0,pill,359,36,4,Japanese,f,5,0.5,52.31402986,0.1278397
RIY,38,0,2024-06-30T12:55:54.671Z,english_69.wav,0,pill,359,36,4,Japanese,f,6,0.6,35.98181846,1.442132
RIY,38,0,2024-06-30T12:55:54.671Z,english_69.wav,0,pill,359,36,4,Japanese,f,7,0.7,29.79563749,0.12498308
RIY,38,0,2024-06-30T12:55:54.671Z,english_69.wav,0,pill,359,36,4,Japanese,f,8,0.8,49.53175238,0.29427441
RIY,38,0,2024-06-30T12:55:54.671Z,english_69.wav,0,pill,359,36,4,Japanese,f,9,0.9,-69.91203253,1.27290514
RIY,38,0,2024-06-30T12:55:54.671Z,english_69.wav,0,pill,359,36,4,Japanese,f,10,1.0,-91.34062215,0.87034484
RIY,38,0,2024-06-30T12:55:54.671Z,english_69.wav,0,pill,359,36,4,Japanese,f,11,1.09391667,39.19432379,1.40202541
RIY,39,0,2024-06-30T12:55:54.671Z,english_295.wav,0,pill,393,36,4,Japanese,f,0,0.0,-21.33588045,0.64007693
RIY,39,0,2024-06-30T12:55:54.671Z,english_295.wav,0,pill,393,36,4,Japanese,f,1,0.1,28.18111365,0.36210443
RIY,39,0,2024-06-30T12:55:54.671Z,english_295.wav,0,pill,393,36,4,Japanese,f,2,0.2,-11.21795953,0.97510536
RIY,39,0,2024-06-30T12:55:54.671Z,english_295.wav,0,pill,393,36,4,Japanese,f,3,0.3,-75.82203472,1.22570619
RIY,39,0,2024-06-30T12:55:54.671Z,english_295.wav,0,pill,393,36,4,Japanese,f,4,0.4,36.75980824,1.08813481
RIY,39,0,2024-06-30T12:55:54.671Z,english_295.wav,0,pill,393,36,4,Japanese,f,5,0.5,82.52508149,1.82668288
RIY,39,0,2024-06-30T12:55:54.671Z,english_295.wav,0,pill,393,36,4,Japanese,f,6,0.6,-2.95672331,0.03453598
RIY,39,0,2024-06-30T12:55:54.671Z,english_295.wav,0,pill,393,36,4,Japanese,f,7,0.7,78.98755658,1.07945409
RIY,39,0,2024-06-30T12:55:54.671Z,english_295.wav,0,pill,393,36,4,Japanese,f,8,0.8,34.02541903,0.06380248
RIY,39,0,2024-06-30T12:55:54.671Z,english_295.wav,0,pill,393,36,4,Japanese,f,9,0.9,40.25185798,0.46673817
RIY,39,0,2024-06-30T12:55:54.671Z,english_295.wav,0,pill,393,36,4,Japanese,f,10,1.0,-23.49198504,0.55804019
RIY,39,0,2024-06-30T12:55:54.671Z,english_295.wav,0,pill,393,36,4,Japanese,f,11,1.09391667,43.4619086,0.67911388
RIY,40,0,2024-06-30T12:55:54.671Z,english_357.wav,0,pill,657,36,4,Japanese,f,0,0.0,-87.96365185,1.52852124
RIY,40,0,2024-06-30T12:55:54.671Z,english_357.wav,0,pill,657,36,4,Japanese,f,1,0.1,-8.5190019,1.93288072
RIY,40,0,2024-06-30T12:55:54.671Z,english_357.wav,0,pill,657,36,4,Japanese,f,2,0.2,34.94660595,1.80201728
RIY,40,0,2024-06-30T12:55:54.671Z,english_357.wav,0,pill,657,36,4,Japanese,f,3,0.3,74.01534503,0.94192251
RIY,40,0,2024-06-30T12:55:54.671Z,english_357.wav,0,pill,657,36,4,Japanese,f,4,0.4,13.59562063,1.02469598
RIY,40,0,2024-06-30T12:55:54.671Z,english_357.wav,0,pill,657,36,4,Japanese,f,5,0.5,-84.64423503,1.61646509
RIY,40,0,2024-06-30T12:55:54.671Z,english_357.wav,0,pill,657,36,4,Japanese,f,6,0.6,-29.1291793,0.27950667
RIY,40,0,2024-06-30T12:55:54.671Z,english_357.wav,0,pill,657,36,4,Japanese,f,7,0.7,-52.42503967,1.30320323
RIY,40,0,2024-06-30T12:55:54.671Z,english_357.wav,0,pill,657,36,4,Japanese,f,8,0.8,21.24796122,1.07824702
RIY,40,0,2024-06-30T12:55:54.671Z,english_357.wav,0,pill,657,36,4,Japanese,f,9,0.9,32.72205185,0.68433039
RIY,40,0,2024-06-30T12:55:54.671Z,english_357.wav,0,pill,657,36,4,Japanese,f,10,1.0,-96.5222269,1.27621022
RIY,40,0,2024-06-30T12:55:54.671Z,english_357.wav,0,pill,657,36,4,Japanese,f,11,1.09391667,30.40810686,1.23591368
RIY,41,0,2024-06-30T12:55:54.671Z,english_33.wav,0,pill,886,36,4,Japanese,f,0,0.0,-39.58082457,0.53160826
RIY,41,0,2024-06-30T12:55:54.671Z,english_33.wav,0,pill,886,36,4,Japanese,f,1,0.1,30.52342894,0.02130102
RIY,41,0,2024-06-30T12:55:54.671Z,english_33.wav,0,pill,886,36,4,Japanese,f,2,0.2,23.47265499,1.79968549
RIY,41,0,2024-06-30T12:55:54.671Z,english_33.wav,0,pill,886,36,4,Japanese,f,3,0.3,35.06724548,1.77904441
RIY,41,0,2024-06-30T12:55:54.671Z,english_33.wav,0,pill,886,36,4,Japanese,f,4,0.4,68.41384456,0.50678762
RIY,41,0,2024-06-30T12:55:54.671Z,english_33.wav,0,pill,886,36,4,Japanese,f,5,0.5,91.35527089,1.72631603
RIY,41,0,2024-06-30T12:55:54.671Z,english_33.wav,0,pill,886,36,4,Japanese,f,6,0.6,45.24436298,0.90579128
RIY,41,0,2024-06-30T12:55:54.671Z,english_33.wav,0,pill,886,36,4,Japanese,f,7,0.7,-95.9941639,1.42335886
RIY,41,0,2024-06-30T12:55:54.671Z,english_33.wav,0,pill,886,36,4,Japanese,f,8,0.8,52.18884155,1.10708789
RIY,41,0,2024-06-30T12:55:54.671Z,english_33.wav,0,pill,886,36,4,Japanese,f,9,0.9,-59.5821221,1.04407415
RIY,41,0,2024-06-30T12:55:54.671Z,english_33.wav,0,pill,886,36,4,Japanese,f,10,1.0,-35.64274737,1.58844638
RIY,41,0,2024-06-30T12:55:54.671Z,english_33.wav,0,pill,886,36,4,Japanese,f,11,1.09391667,-73.32122587,0.94640907
RIY,42,0,2024-06-30T12:55:54.671Z,english_543.wav,0,pill,297,36,4,Japanese,f,0,0.0,-38.60842869,0.01455056
RIY,42,0,2024-06-30T12:55:54.671Z,english_543.wav,0,pill,297,36,4,Japanese,f,1,0.1,53.1018826,1.33130856
RIY,42,0,2024-06-30T12:55:54.671Z,english_543.wav,0,pill,297,36,4,Japanese,f,2,0.2,21.93281072,0.07852499
RIY,42,0,2024-06-30T12:55:54.671Z,english_543.wav,0,pill,297,36,4,Japanese,f,3,0.3,-40.4815272,1.77861337
RIY,42,0,2024-06-30T12:55:54.671Z,english_543.wav,0,pill,297,36,4,Japanese,f,4,0.4,2.89670018,1.72434721
RIY,42,0,2024-06-30T12:55:54.671Z,english_543.wav,0,pill,297,36,4,Japanese,f,5,0.5,31.11758458,1.53256383
RIY,42,0,2024-06-30T12:55:54.671Z,english_543.wav,0,pill,297,36,4,Japanese,f,6,0.6,1.30911675,1.33712035
RIY,42,0,2024-06-30T12:55:54.671Z,english_543.wav,0,pill,297,36,4,Japanese,f,7,0.7,46.76912586,0.29783205
RIY,42,0,2024-06-30T12:55:54.671Z,english_543.wav,0,pill,297,36,4,Japanese,f,8,0.8,-75.40535735,1.43997323
RIY,42,0,2024-06-30T12:55:54.671Z,english_543.wav,0,pill,297,36,4,Japanese,f,9,0.9,57.91130712,0.04561747
RIY,42,0,2024-06-30T12:55:54.671Z,english_543.wav,0,pill,297,36,4,Japanese,f,10,1.0,-90.16753315,1.78781135
RIY,42,0,2024-06-30T12:55:54.671Z,english_543.wav,0,pill,297,36,4,Japanese,f,11,1.09391667,-42.19615814,1.03895071
RIY,43,0,2024-06-30T12:55:54.671Z,english_428.wav,0,pill,538,36,4,Japanese,f,0,0.0,81.83092524,1.65195738
RIY,43,0,2024-06-30T12:55:54.671Z,english_428.wav,0,pill,538,36,4,Japanese,f,1,0.1,-80.13069751,1.50342219
RIY,43,0,2024-06-30T12:55:54.671Z,english_428.wav,0,pill,538,36,4,Japanese,f,2,0.2,-11.65632902,1.06152039
RIY,43,0,2024-06-30T12:55:54.671Z,english_428.wav,0,pill,538,36,4,Japanese,f,3,0.3,-46.08084266,0.87273268
RIY,43,0,2024-06-30T12:55:54.671Z,english_428.wav,0,pill,538,36,4,Japanese,f,4,0.4,3.29741478,1.30041173
RIY,43,0,2024-06-30T12:55:54.671Z,english_428.wav,0,pill,538,36,4,Japanese,f,5,0.5,38.2144639,1.27181021
RIY,43,0,2024-06-30T12:55:54.671Z,english_428.wav,0,pill,538,36,4,Japanese,f,6,0.6,-36.34649143,1.2829939
RIY,43,0,2024-06-30T12:55:54.671Z,english_428.wav,0,pill,538,36,4,Japanese,f,7,0.7,-64.94911042,0.80379216
RIY,43,0,2024-06-30T12:55:54.671Z,english_428.wav,0,pill,538,36,4,Japanese,f,8,0.8,55.28808141,0.54976242
RIY,43,0,2024-06-30T12:55:54.671Z,english_428.wav,0,pill,538,36,4,Japanese,f,9,0.9,-85.65631623,1.4846347
RIY,43,0,2024-06-30T12:55:54.671Z,english_428.wav,0,pill,538,36,4,Japanese,f,10,1.0,45.03584187,0.86531381
RIY,43,0,2024-06-30T12:55:54.671Z,english_428.wav,0,pill,538,36,4,Japanese,f,11,1.09391667,-22.28745039,0.63375774
RIY,44,0,2024-06-30T12:55:54.671Z,english_560.wav,0,pill,297,36,4,Japanese,f,0,0.0,-58.05020857,1.72720005
RIY,44,0,2024-06-30T12:55:54.671Z,english_560.wav,0,pill,297,36,4,Japanese,f,1,0.1,0.75359215,0.87170151
RIY,44,0,2024-06-30T12:55:54.671Z,english_560.wav,0,pill,297,36,4,Japanese,f,2,0.2,-63.0427696,1.11137899
RIY,44,0,2024-06-30T12:55:54.671Z,english_560.wav,0,pill,297,36,4,Japanese,f,3,0.3,-80.65695741,1.61210877
RIY,44,0,2024-06-30T12:55:54.671Z,english_560.wav,0,pill,297,36,4,Japanese,f,4,0.4,30.22073259,0.77402776
RIY,44,0,2024-06-30T12:55:54.671Z,english_560.wav,0,pill,297,36,4,Japanese,f,5,0.5,78.65082856,1.41240522
RIY,44,0,2024-06-30T12:55:54.671Z,english_560.wav,0,pill,297,36,4,Japanese,f,6,0.6,-21.87019315,1.5310865
RIY,44,0,2024-06-30T12:55:54.671Z,english_560.wav,0,pill,297,36,4,Japanese,f,7,0.7,-81.08775569,0.91259008
RIY,44,0,2024-06-30T12:55:54.671Z,english_560.wav,0,pill,297,36,4,Japanese,f,8,0.8,-85.95097006,0.61355253
RIY,44,0,2024-06-30T12:55:54.671Z,english_560.wav,0,pill,297,36,4,Japanese,f,9,0.9,55.61706947,0.53974683
RIY,44,0,2024-06-30T12:55:54.671Z,english_560.wav,0,pill,297,36,4,Japanese,f,10,1.0,78.8186599,1.30815579
RIY,44,0,2024-06-30T12:55:54.671Z,english_560.wav,0,pill,297,36,4,Japanese,f,11,1.09391667,-38.99290187,1.62027104
RIY,45,0,2024-06-30T12:55:54.671Z,english_698.wav,0,pill,1161,36,4,Japanese,f,0,0.0,-98.49976842,0.43179997
RIY,45,0,2024-06-30T12:55:54.671Z,english_698.wav,0,pill,1161,36,4,Japanese,f,1,0.1,97.00885889,1.41337894
RIY,45,0,2024-06-30T12:55:54.671Z,english_698.wav,0,pill,1161,36,4,Japanese,f,2,0.2,54.87082892,1.17184634
RIY,45,0,2024-06-30T12:55:54.671Z,english_698.wav,0,pill,1161,36,4,Japanese,f,3,0.3,-24.25113459,0.60534302
RIY,45,0,2024-06-30T12:55:54.671Z,english_698.wav,0,pill,1161,36,4,Japanese,f,4,0.4,-19.41361559,1.24831976
RIY,45,0,2024-06-30T12:55:54.671Z,english_698.wav,0,pill,1161,36,4,Japanese,f,5,0.5,38.63477703,1.39113252
RIY,45,0,2024-06-30T12:55:54.671Z,english_698.wav,0,pill,1161,36,4,Japanese,f,6,0.6,-31.74740997,1.28562889
RIY,45,0,2024-06-30T12:55:54.671Z,english_698.wav,0,pill,1161,36,4,Japanese,f,7,0.7,75.16156156,1.10433052
RIY,45,0,2024-06-30T12:55:54.671Z,english_698.wav,0,pill,1161,36,4,Japanese,f,8,0.8,41.06057046,1.08053659
RIY,45,0,2024-06-30T12:55:54.671Z,english_698.wav,0,pill,1161,36,4,Japanese,f,9,0.9,-30.65402234,1.52582563
RIY,45,0,2024-06-30T12:55:54.671Z,english_698.wav,0,pill,1161,36,4,Japanese,f,10,1.0,-13.5987644,0.95244876
RIY,45,0,2024-06-30T12:55:54.671Z,english_698.wav,0,pill,1161,36,4,Japanese,f,11,1.09391667,-10.25655958,1.39681887
RIY,46,0,2024-06-30T12:55:54.671Z,english_12.wav,0,peel,927,36,4,Japanese,f,0,0.0,42.97445599,0.55669558
RIY,46,0,2024-06-30T12:55:54.671Z,english_12.wav,0,peel,927,36,4,Japanese,f,1,0.1,-13.36169143,0.58156084
RIY,46,0,2024-06-30T12:55:54.671Z,english_12.wav,0,peel,927,36,4,Japanese,f,2,0.2,95.55347712,1.49895361
RIY,46,0,2024-06-30T12:55:54.671Z,english_12.wav,0,peel,927,36,4,Japanese,f,3,0.3,25.38194066,1.21133401
RIY,46,0,2024-06-30T12:55:54.671Z,english_12.wav,0,peel,927,36,4,Japanese,f,4,0.4,7.99263567,1.29255802
RIY,46,0,2024-06-30T12:55:54.671Z,english_12.wav,0,peel,927,36,4,Japanese,f,5,0.5,-99.22256454,0.60717751
RIY,46,0,2024-06-30T12:55:54.671Z,english_12.wav,0,peel,927,36,4,Japanese,f,6,0.6,-40.78265899,1.53494704
RIY,46,0,2024-06-30T12:55:54.671Z,english_12.wav,0,peel,927,36,4,Japanese,f,7,0.7,6.53756305,0.96428077
RIY,46,0,2024-06-30T12:55:54.671Z,english_12.wav,0,peel,927,36,4,Japanese,f,8,0.8,-20.69460066,0.42904798
RIY,46,0,2024-06-30T12:55:54.671Z,english_12.wav,0,peel,927,36,4,Japanese,f,9,0.9,-61.55291704,1.90575432
RIY,46,0,2024-06-30T12:55:54.671Z,english_12.wav,0,peel,927,36,4,Japanese,f,10,1.0,-41.80363085,0.98826975
RIY,46,0,2024-06-30T12:55:54.671Z,english_12.wav,0,peel,927,36,4,Japanese,f,11,1.09391667,-15.66743162,0.15634055
RIY,47,0,2024-06-30T12:55:54.671Z,english_988.wav,0,pill,1097,36,4,Japanese,f,0,0.0,41.01121176,1.79508408
RIY,47,0,2024-06-30T12:55:54.671Z,english_988.wav,0,pill,1097,36,4,Japanese,f,1,0.1,-57.00509923,0.91683768
RIY,47,0,2024-06-30T12:55:54.671Z,english_988.wav,0,pill,1097,36,4,Japanese,f,2,0.2,-47.7423933,0.75632301
RIY,47,0,2024-06-30T12:55:54.671Z,english_988.wav,0,pill,1097,36,4,Japanese,f,3,0.3,-45.09224268,0.50123111
RIY,47,0,2024-06-30T12:55:54.671Z,english_988.wav,0,pill,1097,36,4,Japanese,f,4,0.4,-86.23747248,1.43218642
RIY,47,0,2024-06-30T12:55:54.671Z,english_988.wav,0,pill,1097,36,4,Japanese,f,5,0.5,32.23270896,1.02417726
RIY,47,0,2024-06-30T12:55:54.671Z,english_988.wav,0,pill,1097,36,4,Japanese,f,6,0.6,83.03664367,0.26646991
RIY,47,0,2024-06-30T12:55:54.671Z,english_988.wav,0,pill,1097,36,4,Japanese,f,7,0.7,23.13228138,0.55372386
RIY,47,0,2024-06-30T12:55:54.671Z,english_988.wav,0,pill,1097,36,4,Japanese,f,8,0.8,-80.96876175,1.25427564
RIY,47,0,2024-06-30T12:55:54.671Z,english_988.wav,0,pill,1097,36,4,Japanese,f,9,0.9,85.87163391,1.46901823
RIY,47,0,2024-06-30T12:55:54.671Z,english_988.wav,0,pill,1097,36,4,Japanese,f,10,1.0,65.98257536,1.62105321
RIY,47,0,2024-06-30T12:55:54.671Z,english_988.wav,0,pill,1097,36,4,Japanese,f,11,1.09391667,8.92791605,1.15707193
RIY,48,0,2024-06-30T12:55:54.671Z,english_278.wav,0,pill,340,36,4,Japanese,f,0,0.0,-96.72610313,0.83439052
RIY,48,0,2024-06-30T12:55:54.671Z,english_278.wav,0,pill,340,36,4,Japanese,f,1,0.1,-36.86809982,1.21055498
RIY,48,0,2024-06-30T12:55:54.671Z,english_278.wav,0,pill,340,36,4,Japanese,f,2,0.2,-84.24626192,0.05488492
RIY,48,0,2024-06-30T12:55:54.671Z,english_278.wav,0,pill,340,36,4,Japanese,f,3,0.3,-29.99363641,1.47058347
RIY,48,0,2024-06-30T12:55:54.671Z,english_278.wav,0,pill,340,36,4,Japanese,f,4,0.4,21.41897552,0.68142996
RIY,48,0,2024-06-30T12:55:54.671Z,english_278.wav,0,pill,340,36,4,Japanese,f,5,0.5,-73.7985343,0.65955027
RIY,48,0,2024-06-30T12:55:54.671Z,english_278.wav,0,pill,340,36,4,Japanese,f,6,0.6,-83.05174317,1.54634177
RIY,48,0,2024-06-30T12:55:54.671Z,english_278.wav,0,pill,340,36,4,Japanese,f,7,0.7,-43.48487906,1.03072417
RIY,48,0,2024-06-30T12:55:54.671Z,english_278.wav,0,pill,340,36,4,Japanese,f,8,0.8,-48.22741203,0.15769377
RIY,48,0,2024-06-30T12:55:54.671Z,english_278.wav,0,pill,340,36,4,Japanese,f,9,0.9,-30.73203826,0.79374536
RIY,48,0,2024-06-30T12:55:54.671Z,english_278.wav,0,pill,340,36,4,Japanese,f,10,1.0,22.54361358,0.9877131
RIY,48,0,2024-06-30T12:55:54.671Z,english_278.wav,0,pill,340,36,4,Japanese,f,11,1.09391667,-65.2249662,1.82414956
RIY,49,0,2024-06-30T12:55:54.671Z,english_224.wav,0,pill,308,36,4,Japanese,f,0,0.0,-78.61506242,0.96291184
RIY,49,0,2024-06-30T12:55:54.671Z,english_224.wav,0,pill,308,36,4,Japanese,f,1,0.1,50.32903383,1.02849412
RIY,49,0,2024-06-30T12:55:54.671Z,english_224.wav,0,pill,308,36,4,Japanese,f,2,0.2,13.41609495,1.48046057
RIY,49,0,2024-06-30T12:55:54.671Z,english_224.wav,0,pill,308,36,4,Japanese,f,3,0.3,-65.62214638,0.95403391
RIY,49,0,2024-06-30T12:55:54.671Z,english_224.wav,0,pill,308,36,4,Japanese,f,4,0.4,-58.93648778,0.16536285
RIY,49,0,2024-06-30T12:55:54.671Z,english_224.wav,0,pill,308,36,4,Japanese,f,5,0.5,72.28111683,1.42811474
RIY,49,0,2024-06-30T12:55:54.671Z,english_224.wav,0,pill,308,36,4,Japanese,f,6,0.6,-46.77069374,0.74831178
RIY,49,0,2024-06-30T12:55:54.671Z,english_224.wav,0,pill,308,36,4,Japanese,f,7,0.7,-90.37193795,1.44512366
RIY,49,0,2024-06-30T12:55:54.671Z,english_224.wav,0,pill,308,36,4,Japanese,f,8,0.8,-0.43339445,1.0370843
RIY,49,0,2024-06-30T12:55:54.671Z,english_224.wav,0,pill,308,36,4,Japanese,f,9,0.9,-45.45823975,0.73747726
RIY,49,0,2024-06-30T12:55:54.671Z,english_224.wav,0,pill,308,36,4,Japanese,f,10,1.0,-68.1553756,0.53686902
RIY,49,0,2024-06-30T12:55:54.671Z,english_224.wav,0,pill,308,36,4,Japanese,f,11,1.09391667,-50.27313826,1.24590757
RIY,50,1,2024-06-30T12:55:54.671Z,english_64.wav,0,pill,587,36,4,Japanese,f,0,0.0,35.19701481,0.1517014
RIY,50,1,2024-06-30T12:55:54.671Z,english_64.wav,0,pill,587,36,4,Japanese,f,1,0.1,75.83495736,1.3624391
RIY,50,1,2024-06-30T12:55:54.671Z,english_64.wav,0,pill,587,36,4,Japanese,f,2,0.2,-57.84604767,0.35043993
RIY,50,1,2024-06-30T12:55:54.671Z,english_64.wav,0,pill,587,36,4,Japanese,f,3,0.3,18.18328311,1.06032252
RIY,50,1,2024-06-30T12:55:54.671Z,english_64.wav,0,pill,587,36,4,Japanese,f,4,0.4,2.5532884,1.51833669
RIY,50,1,2024-06-30T12:55:54.671Z,english_64.wav,0,pill,587,36,4,Japanese,f,5,0.5,24.93011402,0.65789286
RIY,50,1,2024-06-30T12:55:54.671Z,english_64.wav,0,pill,587,36,4,Japanese,f,6,0.6,-51.99875854,1.38401799
RIY,50,1,2024-06-30T12:55:54.671Z,english_64.wav,0,pill,587,36,4,Japanese,f,7,0.7,52.45873465,1.62873445
RIY,50,1,2024-06-30T12:55:54.671Z,english_64.wav,0,pill,587,36,4,Japanese,f,8,0.8,42.38876358,0.48968984
RIY,50,1,2024-06-30T12:55:54.671Z,english_64.wav,0,pill,587,36,4,Japanese,f,9,0.9,54.33691238,0.64777192
RIY,50,1,2024-06-30T12:55:54.671Z,english_64.wav,0,pill,587,36,4,Japanese,f,10,1.0,27.02485659,0.8399807
RIY,50,1,2024-06-30T12:55:54.671Z,english_64.wav,0,pill,587,36,4,Japanese,f,11,1.09391667,58.99390703,0.25985176
RIY,51,1,2024-06-30T12:55:54.671Z,english_963.wav,0,pill,2681,36,4,Japanese,f,0,0.0,12.85572416,1.75469767
RIY,51,1,2024-06-30T12:55:54.671Z,english_963.wav,0,pill,2681,36,4,Japanese,f,1,0.1,-76.17617766,0.88786329
RIY,51,1,2024-06-30T12:55:54.671Z,english_963.wav,0,pill,2681,36,4,Japanese,f,2,0.2,42.35975093,1.03977576
RIY,51,1,2024-06-30T12:55:54.671Z,english_963.wav,0,pill,2681,36,4,Japanese,f,3,0.3,-29.56352697,0.40233076
RIY,51,1,2024-06-30T12:55:54.671Z,english_963.wav,0,pill,2681,36,4,Japanese,f,4,0.4,1.9048802,1.77716713
RIY,51,1,2024-06-30T12:55:54.671Z,english_963.wav,0,pill,2681,36,4,Japanese,f,5,0.5,-59.42176318,1.22252544
RIY,51,1,2024-06-30T12:55:54.671Z,english_963.wav,0,pill,2681,36,4,Japanese,f,6,0.6,-90.23873789,1.36334994
RIY,51,1,2024-06-30T12:55:54.671Z,english_963.wav,0,pill,2681,36,4,Japanese,f,7,0.7,96.0492683,0.19892648
RIY,51,1,2024-06-30T12:55:54.671Z,english_963.wav,0,pill,2681,36,4,Japanese,f,8,0.8,-14.96705396,0.48578079
RIY,51,1,2024-06-30T12:55:54.671Z,english_963.wav,0,pill,2681,36,4,Japanese,f,9,0.9,53.28049668,0.49525144
RIY,51,1,2024-06-30T12:55:54.671Z,english_963.wav,0,pill,2681,36,4,Japanese,f,10,1.0,-50.64061571,1.97867338
RIY,51,1,2024-06-30T12:55:54.671Z,english_963.wav,0,pill,2681,36,4,Japanese,f,11,1.09391667,33.50411271,0.71277393
RIY,52,1,2024-06-30T12:55:54.671Z,english_664.wav,0,peel,153,36,4,Japanese,f,0,0.0,87.83799753,0.80622544
RIY,52,1,2024-06-30T12:55:54.671Z,english_664.wav,0,peel,153,36,4,Japanese,f,1,0.1,93.07880912,0.71131531
RIY,52,1,2024-06-30T12:55:54.671Z,english_664.wav,0,peel,153,36,4,Japanese,f,2,0.2,-21.43792859,0.52490717
RIY,52,1,2024-06-30T12:55:54.671Z,english_664.wav,0,peel,153,36,4,Japanese,f,3,0.3,54.61607152,0.79105774
RIY,52,1,2024-06-30T12:55:54.671Z,english_664.wav,0,peel,153,36,4,Japanese,f,4,0.4,63.53186125,0.74894626
RIY,52,1,2024-06-30T12:55:54.671Z,english_664.wav,0,peel,153,36,4,Japanese,f,5,0.5,69.57332079,0.96341942
RIY,52,1,2024-06-30T12:55:54.671Z,english_664.wav,0,peel,153,36,4,Japanese,f,6,0.6,-98.283012,0.12490453
RIY,52,1,2024-06-30T12:55:54.671Z,english_664.wav,0,peel,153,36,4,Japanese,f,7,0.7,3.96514961,1.772086
RIY,52,1,2024-06-30T12:55:54.671Z,english_664.wav,0,peel,153,36,4,Japanese,f,8,0.8,-68.49765079,1.2138043
RIY,52,1,2024-06-30T12:55:54.671Z,english_664.wav,0,peel,153,36,4,Japanese,f,9,0.9,22.71561052,1.03968333
RIY,52,1,2024-06-30T12:55:54.671Z,english_664.wav,0,peel,153,36,4,Japanese,f,10,1.0,62.92065682,1.01702127
RIY,52,1,2024-06-30T12:55:54.671Z,english_664.wav,0,peel,153,36,4,Japanese,f,11,1.09391667,7.64063367,1.88905221
RIY,53,1,2024-06-30T12:55:54.671Z,english_425.wav,0,peel,1756,36,4,Japanese,f,0,0.0,85.86099955,1.60253472
RIY,53,1,2024-06-30T12:55:54.671Z,english_425.wav,0,peel,1756,36,4,Japanese,f,1,0.1,-74.24278906,1.17756514
RIY,53,1,2024-06-30T12:55:54.671Z,english_425.wav,0,peel,1756,36,4,Japanese,f,2,0.2,66.63239561,1.35741875
RIY,53,1,2024-06-30T12:55:54.671Z,english_425.wav,0,peel,1756,36,4,Japanese,f,3,0.3,48.1989772,1.41012003
RIY,53,1,2024-06-30T12:55:54.671Z,english_425.wav,0,peel,1756,36,4,Japanese,f,4,0.4,-24.59174715,0.10488559
RIY,53,1,2024-06-30T12:55:54.671Z,english_425.wav,0,peel,1756,36,4,Japanese,f,5,0.5,-13.08814226,1.84558303
RIY,53,1,2024-06-30T12:55:54.671Z,english_425.wav,0,peel,1756,36,4,Japanese,f,6,0.6,3.3813436,1.65169658
RIY,53,1,2024-06-30T12:55:54.671Z,english_425.wav,0,peel,1756,36,4,Japanese,f,7,0.7,-77.57885428,0.99070069
RIY,53,1,2024-06-30T12:55:54.671Z,english_425.wav,0,peel,1756,36,4,Japanese,f,8,0.8,64.2992526,1.03905924
RIY,53,1,2024-06-30T12:55:54.671Z,english_425.wav,0,peel,1756,36,4,Japanese,f,9,0.9,-69.82436983,1.4199326
RIY,53,1,2024-06-30T12:55:54.671Z,english_425.wav,0,peel,1756,36,4,Japanese,f,10,1.0,-17.74567454,1.83949921
RIY,53,1,2024-06-30T12:55:54.671Z,english_425.wav,0,peel,1756,36,4,Japanese,f,11,1.09391667,34.86644748,1.32096962
RIY,54,1,2024-06-30T12:55:54.671Z,english_995.wav,0,pill,908,36,4,Japanese,f,0,0.0,97.76656521,1.90640997
RIY,54,1,2024-06-30T12:55:54.671Z,english_995.wav,0,pill,908,36,4,Japanese,f,1,0.1,10.72921102,1.35752142
RIY,54,1,2024-06-30T12:55:54.671Z,english_995.wav,0,pill,908,36,4,Japanese,f,2,0.2,-74.90567645,0.0677959
RIY,54,1,2024-06-30T12:55:54.671Z,english_995.wav,0,pill,908,36,4,Japanese,f,3,0.3,77.17787297,0.2303181
RIY,54,1,2024-06-30T12:55:54.671Z,english_995.wav,0,pill,908,36,4,Japanese,f,4,0.4,-65.98328726,1.9496567
RIY,54,1,2024-06-30T12:55:54.671Z,english_995.wav,0,pill,908,36,4,Japanese,f,5,0.5,3.50056795,1.06158527
RIY,54,1,2024-06-30T12:55:54.671Z,english_995.wav,0,pill,908,36,4,Japanese,f,6,0.6,-48.42786785,0.86919942
RIY,54,1,2024-06-30T12:55:54.671Z,english_995.wav,0,pill,908,36,4,Japanese,f,7,0.7,47.72819133,1.60426058
RIY,54,1,2024-06-30T12:55:54.671Z,english_995.wav,0,pill,908,36,4,Japanese,f,8,0.8,14.30124411,1.52102104
RIY,54,1,2024-06-30T12:55:54.671Z,english_995.wav,0,pill,908,36,4,Japanese,f,9,0.9,-92.38663664,0.17733005
RIY,54,1,2024-06-30T12:55:54.671Z,english_995.wav,0,pill,908,36,4,Japanese,f,10,1.0,33.04960477,1.36413464
RIY,54,1,2024-06-30T12:55:54.671Z,english_995.wav,0,pill,908,36,4,Japanese,f,11,1.09391667,16.88553352,0.78541069
RIY,55,1,2024-06-30T12:55:54.671Z,english_528.wav,0,pill,443,36,4,Japanese,f,0,0.0,89.92931817,1.55464654
RIY,55,1,2024-06-30T12:55:54.671Z,english_528.wav,0,pill,443,36,4,Japanese,f,1,0.1,69.43761356,1.5693867
RIY,55,1,2024-06-30T12:55:54.671Z,english_528.wav,0,pill,443,36,4,Japanese,f,2,0.2,-74.63581074,0.24579909
RIY,55,1,2024-06-30T12:55:54.671Z,english_528.wav,0,pill,443,36,4,Japanese,f,3,0.3,66.94799646,0.89003704
RIY,55,1,2024-06-30T12:55:54.671Z,english_528.wav,0,pill,443,36,4,Japanese,f,4,0.4,93.4667874,0.02709789
RIY,55,1,2024-06-30T12:55:54.671Z,english_528.wav,0,pill,443,36,4,Japanese,f,5,0.5,-73.58583841,1.93159194
RIY,55,1,2024-06-30T12:55:54.671Z,english_528.wav,0,pill,443,36,4,Japanese,f,6,0.6,60.58074805,1.21534299
RIY,55,1,2024-06-30T12:55:54.671Z,english_528.wav,0,pill,443,36,4,Japanese,f,7,0.7,-19.51561534,1.54968918
RIY,55,1,2024-06-30T12:55:54.671Z,english_528.wav,0,pill,443,36,4,Japanese,f,8,0.8,1.50674214,1.22283315
RIY,55,1,2024-06-30T12:55:54.671Z,english_528.wav,0,pill,443,36,4,Japanese,f,9,0.9,-4.69145727,0.16463995
RIY,55,1,2024-06-30T12:55:54.671Z,english_528.wav,0,pill,443,36,4,Japanese,f,10,1.0,-90.65001005,0.26004795
RIY,55,1,2024-06-30T12:55:54.671Z,english_528.wav,0,pill,443,36,4,Japanese,f,11,1.09391667,80.40130965,0.00778095
RIY,56,1,2024-06-30T12:55:54.671Z,english_677.wav,0,peel,324,36,4,Japanese,f,0,0.0,35.18766114,1.46418541
RIY,56,1,2024-06-30T12:55:54.671Z,english_677.wav,0,peel,324,36,4,Japanese,f,1,0.1,3.82449325,0.62060775
RIY,56,1,2024-06-30T12:55:54.671Z,english_677.wav,0,peel,324,36,4,Japanese,f,2,0.2,-81.73229082,1.63148334
RIY,56,1,2024-06-30T12:55:54.671Z,english_677.wav,0,peel,324,36,4,Japanese,f,3,0.3,-1.54015563,0.52758496
RIY,56,1,2024-06-30T12:55:54.671Z,english_677.wav,0,peel,324,36,4,Japanese,f,4,0.4,-45.59201538,0.80943231
RIY,56,1,2024-06-30T12:55:54.671Z,english_677.wav,0,peel,324,36,4,Japanese,f,5,0.5,26.20010581,1.10411223
RIY,56,1,2024-06-30T12:55:54.671Z,english_677.wav,0,peel,324,36,4,Japanese,f,6,0.6,-19.9162202,0.62014779
RIY,56,1,2024-06-30T12:55:54.671Z,english_677.wav,0,peel,324,36,4,Japanese,f,7,0.7,41.69291663,0.65910672
RIY,56,1,2024-06-30T12:55:54.671Z,english_677.wav,0,peel,324,36,4,Japanese,f,8,0.8,-68.08590586,1.69273141
RIY,56,1,2024-06-30T12:55:54.671Z,english_677.wav,0,peel,324,36,4,Japanese,f,9,0.9,-52.35020304,1.22000106
RIY,56,1,2024-06-30T12:55:54.671Z,english_677.wav,0,peel,324,36,4,Japanese,f,10,1.0,55.76687311,0.67614262
RIY,56,1,2024-06-30T12:55:54.671Z,english_677.wav,0,peel,324,36,4,Japanese,f,11,1.09391667,26.15340501,1.44243981
RIY,57,1,2024-06-30T12:55:54.671Z,english_383.wav,0,pill,756,36,4,Japanese,f,0,0.0,-63.19284146,0.88359619
RIY,57,1,2024-06-30T12:55:54.671Z,english_383.wav,0,pill,756,36,4,Japanese,f,1,0.1,-11.67623943,0.67885576
RIY,57,1,2024-06-30T12:55:54.671Z,english_383.wav,0,pill,756,36,4,Japanese,f,2,0.2,10.29419774,0.79033279
RIY,57,1,2024-06-30T12:55:54.671Z,english_383.wav,0,pill,756,36,4,Japanese,f,3,0.3,-5.52009964,1.96206588
RIY,57,1,2024-06-30T12:55:54.671Z,english_383.wav,0,pill,756,36,4,Japanese,f,4,0.4,51.48969715,1.53913599
RIY,57,1,2024-06-30T12:55:54.671Z,english_383.wav,0,pill,756,36,4,Japanese,f,5,0.5,36.94617894,0.70890723
RIY,57,1,2024-06-30T12:55:54.671Z,english_383.wav,0,pill,756,36,4,Japanese,f,6,0.6,-43.5176619,1.30448928
RIY,57,1,2024-06-30T12:55:54.671Z,english_383.wav,0,pill,756,36,4,Japanese,f,7,0.7,48.24470616,0.63214347
RIY,57,1,2024-06-30T12:55:54.671Z,english_383.wav,0,pill,756,36,4,Japanese,f,8,0.8,-27.34462671,1.26781992
RIY,57,1,2024-06-30T12:55:54.671Z,english_383.wav,0,pill,756,36,4,Japanese,f,9,0.9,77.23299658,0.08660782
RIY,57,1,2024-06-30T12:55:54.671Z,english_383.wav,0,pill,756,36,4,Japanese,f,10,1.0,-26.93588993,1.53722143
RIY,57,1,2024-06-30T12:55:54.671Z,english_383.wav,0,pill,756,36,4,Japanese,f,11,1.09391667,-78.64800704,1.42646009
RIY,58,1,2024-06-30T12:55:54.671Z,english_300.wav,0,pill,684,36,4,Japanese,f,0,0.0,2.79972232,1.53749115
RIY,58,1,2024-06-30T12:55:54.671Z,english_300.wav,0,pill,684,36,4,Japanese,f,1,0.1,-6.00092765,1.12105385
RIY,58,1,2024-06-30T12:55:54.671Z,english_300.wav,0,pill,684,36,4,Japanese,f,2,0.2,5.93513414,1.21050577
RIY,58,1,2024-06-30T12:55:54.671Z,english_300.wav,0,pill,684,36,4,Japanese,f,3,0.3,65.0106623,1.39038364
RIY,58,1,2024-06-30T12:55:54.671Z,english_300.wav,0,pill,684,36,4,Japanese,f,4,0.4,-35.27715369,0.59533856
RIY,58,1,2024-06-30T12:55:54.671Z,english_300.wav,0,pill,684,36,4,Japanese,f,5,0.5,-49.20910009,0.92189242
RIY,58,1,2024-06-30T12:55:54.671Z,english_300.wav,0,pill,684,36,4,Japanese,f,6,0.6,90.62348649,1.12293969
RIY,58,1,2024-06-30T12:55:54.671Z,english_300.wav,0,pill,684,36,4,Japanese,f,7,0.7,-62.79963136,0.08212217
RIY,58,1,2024-06-30T12:55:54.671Z,english_300.wav,0,pill,684,36,4,Japanese,f,8,0.8,41.66095929,0.24893909
RIY,58,1,2024-06-30T12:55:54.671Z,english_300.wav,0,pill,684,36,4,Japanese,f,9,0.9,-9.40303164,0.97640661
RIY,58,1,2024-06-30T12:55:54.671Z,english_300.wav,0,pill,684,36,4,Japanese,f,10,1.0,-11.98915311,1.76885677
RIY,58,1,2024-06-30T12:55:54.671Z,english_300.wav,0,pill,684,36,4,Japanese,f,11,1.09391667,86.33383712,1.97400425
RIY,59,1,2024-06-30T12:55:54.671Z,english_319.wav,0,peel,2711,36,4,Japanese,f,0,0.0,77.16443591,0.7420308
RIY,59,1,2024-06-30T12:55:54.671Z,english_319.wav,0,peel,2711,36,4,Japanese,f,1,0.1,-97.50447801,0.79369359
RIY,59,1,2024-06-30T12:55:54.671Z,english_319.wav,0,peel,2711,36,4,Japanese,f,2,0.2,48.22320359,0.01474693
RIY,59,1,2024-06-30T12:55:54.671Z,english_319.wav,0,peel,2711,36,4,Japanese,f,3,0.3,85.69365628,0.05089627
RIY,59,1,2024-06-30T12:55:54.671Z,english_319.wav,0,peel,2711,36,4,Japanese,f,4,0.4,-99.19363603,1.27499461
RIY,59,1,2024-06-30T12:55:54.671Z,english_319.wav,0,peel,2711,36,4,Japanese,f,5,0.5,-23.7721795,1.87204787
RIY,59,1,2024-06-30T12:55:54.671Z,english_319.wav,0,peel,2711,36,4,Japanese,f,6,0.6,69.35156136,1.81900072
RIY,59,1,2024-06-30T12:55:54.671Z,english_319.wav,0,peel,2711,36,4,Japanese,f,7,0.7,-45.28598517,1.18018
RIY,59,1,2024-06-30T12:55:54.671Z,english_319.wav,0,peel,2711,36,4,Japanese,f,8,0.8,-63.05288391,1.07853439
RIY,59,1,2024-06-30T12:55:54.671Z,english_319.wav,0,peel,2711,36,4,Japanese,f,9,0.9,-37.89893573,1.96522233
RIY,59,1,2024-06-30T12:55:54.671Z,english_319.wav,0,peel,2711,36,4,Japanese,f,10,1.0,-33.85226459,1.95815374
RIY,59,1,2024-06-30T12:55:54.671Z,english_319.wav,0,peel,2711,36,4,Japanese,f,11,1.09391667,-77.07753192,1.86512983
RIY,60,1,2024-06-30T12:55:54.671Z,english_448.wav,0,peel,349,36,4,Japanese,f,0,0.0,-36.42010561,0.75921607
RIY,60,1,2024-06-30T12:55:54.671Z,english_448.wav,0,peel,349,36,4,Japanese,f,1,0.1,47.73001377,0.95293974
RIY,60,1,2024-06-30T12:55:54.671Z,english_448.wav,0,peel,349,36,4,Japanese,f,2,0.2,93.59806646,0.22586708
RIY,60,1,2024-06-30T12:55:54.671Z,english_448.wav,0,peel,349,36,4,Japanese,f,3,0.3,-71.28004739,1.48750577
RIY,60,1,2024-06-30T12:55:54.671Z,english_448.wav,0,peel,349,36,4,Japanese,f,4,0.4,-73.37708676,0.17134927
RIY,60,1,2024-06-30T12:55:54.671Z,english_448.wav,0,peel,349,36,4,Japanese,f,5,0.5,74.57279085,1.2791033
RIY,60,1,2024-06-30T12:55:54.671Z,english_448.wav,0,peel,349,36,4,Japanese,f,6,0.6,93.06132311,0.73590712
RIY,60,1,2024-06-30T12:55:54.671Z,english_448.wav,0,peel,349,36,4,Japanese,f,7,0.7,53.53303026,1.42606803
RIY,60,1,2024-06-30T12:55:54.671Z,english_448.wav,0,peel,349,36,4,Japanese,f,8,0.8,-57.75366267,1.73700286
RIY,60,1,2024-06-30T12:55:54.671Z,english_448.wav,0,peel,349,36,4,Japanese,f,9,0.9,-26.4449428,1.39235574
RIY,60,1,2024-06-30T12:55:54.671Z,english_448.wav,0,peel,349,36,4,Japanese,f,10,1.0,-31.70641096,0.50787566
RIY,60,1,2024-06-30T12:55:54.671Z,english_448.wav,0,peel,349,36,4,Japanese,f,11,1.09391667,-10.08807531,1.19414628
RIY,61,1,2024-06-30T12:55:54.671Z,english_906.wav,0,pill,410,36,4,Japanese,f,0,0.0,64.42168111,1.18257449
RIY,61,1,2024-06-30T12:55:54.671Z,english_906.wav,0,pill,410,36,4,Japanese,f,1,0.1,-75.32695158,0.45696721
RIY,61,1,2024-06-30T12:55:54.671Z,english_906.wav,0,pill,410,36,4,Japanese,f,2,0.2,-55.78357421,1.62263234
RIY,61,1,2024-06-30T12:55:54.671Z,english_906.wav,0,pill,410,36,4,Japanese,f,3,0.3,26.12850677,0.83346952
RIY,61,1,2024-06-30T12:55:54.671Z,english_906.wav,0,pill,410,36,4,Japanese,f,4,0.4,29.10012221,0.76465534
RIY,61,1,2024-06-30T12:55:54.671Z,english_906.wav,0,pill,410,36,4,Japanese,f,5,0.5,7.95357938,1.66892635
RIY,61,1,2024-06-30T12:55:54.671Z,english_906.wav,0,pill,410,36,4,Japanese,f,6,0.6,-42.71112843,1.28815297
RIY,61,1,2024-06-30T12:55:54.671Z,english_906.wav,0,pill,410,36,4,Japanese,f,7,0.7,-60.64092572,1.91632775
RIY,61,1,2024-06-30T12:55:54.671Z,english_906.wav,0,pill,410,36,4,Japanese,f,8,0.8,-45.42100425,1.00822189
RIY,61,1,2024-06-30T12:55:54.671Z,english_906.wav,0,pill,410,36,4,Japanese,f,9,0.9,59.9641991,0.39736855
RIY,61,1,2024-06-30T12:55:54.671Z,english_906.wav,0,pill,410,36,4,Japanese,f,10,1.0,50.66532668,0.09371369
RIY,61,1,2024-06-30T12:55:54.671Z,english_906.wav,0,pill,410,36,4,Japanese,f,11,1.09391667,-51.29146387,1.05932382
RIY,62,1,2024-06-30T12:55:54.671Z,english_949.wav,0,peel,1935,36,4,Japanese,f,0,0.0,54.61462209,1.24439385
RIY,62,1,2024-06-30T12:55:54.671Z,english_949.wav,0,peel,1935,36,4,Japanese,f,1,0.1,-50.15567249,1.34534032
RIY,62,1,2024-06-30T12:55:54.671Z,english_949.wav,0,peel,1935,36,4,Japanese,f,2,0.2,-79.16450403,1.77870323
RIY,62,1,2024-06-30T12:55:54.671Z,english_949.wav,0,peel,1935,36,4,Japanese,f,3,0.3,-44.83948747,0.1999312
RIY,62,1,2024-06-30T12:55:54.671Z,english_949.wav,0,peel,1935,36,4,Japanese,f,4,0.4,-72.5668355,0.37427324
RIY,62,1,2024-06-30T12:55:54.671Z,english_949.wav,0,peel,1935,36,4,Japanese,f,5,0.5,23.11693261,0.13497677
RIY,62,1,2024-06-30T12:55:54.671Z,english_949.wav,0,peel,1935,36,4,Japanese,f,6,0.6,55.55317843,0.61790997
RIY,62,1,2024-06-30T12:55:54.671Z,english_949.wav,0,peel,1935,36,4,Japanese,f,7,0.7,59.5386341,0.95689705
RIY,62,1,2024-06-30T12:55:54.671Z,english_949.wav,0,peel,1935,36,4,Japanese,f,8,0.8,67.81612368,0.69621675
RIY,62,1,2024-06-30T12:55:54.671Z,english_949.wav,0,peel,1935,36,4,Japanese,f,9,0.9,-21.79138996,1.43619216
RIY,62,1,2024-06-30T12:55:54.671Z,english_949.wav,0,peel,1935,36,4,Japanese,f,10,1.0,-21.61100123,0.99379929
RIY,62,1,2024-06-30T12:55:54.671Z,english_949.wav,0,peel,1935,36,4,Japanese,f,11,1.09391667,60.1714172,0.04897066
RIY,63,1,2024-06-30T12:55:54.671Z,english_608.wav,0,peel,204,36,4,Japanese,f,0,0.0,51.7664081,1.51537713
RIY,63,1,2024-06-30T12:55:54.671Z,english_608.wav,0,peel,204,36,4,Japanese,f,1,0.1,-80.54246428,0.15028224
RIY,63,1,2024-06-30T12:55:54.671Z,english_608.wav,0,peel,204,36,4,Japanese,f,2,0.2,-77.98130797,1.81254149
RIY,63,1,2024-06-30T12:55:54.671Z,english_608.wav,0,peel,204,36,4,Japanese,f,3,0.3,25.40612748,1.88904665
RIY,63,1,2024-06-30T12:55:54.671Z,english_608.wav,0,peel,204,36,4,Japanese,f,4,0.4,-25.13261416,0.02307613
RIY,63,1,2024-06-30T12:55:54.671Z,english_608.wav,0,peel,204,36,4,Japanese,f,5,0.5,-47.23330204,1.59293411
RIY,63,1,2024-06-30T12:55:54.671Z,english_608.wav,0,peel,204,36,4,Japanese,f,6,0.6,80.77508225,1.34709582
RIY,63,1,2024-06-30T12:55:54.671Z,english_608.wav,0,peel,204,36,4,Japanese,f,7,0.7,-91.19719701,0.43937258
RIY,63,1,2024-06-30T12:55:54.671Z,english_608.wav,0,peel,204,36,4,Japanese,f,8,0.8,-56.07696763,1.30698023
RIY,63,1,2024-06-30T12:55:54.671Z,english_608.wav,0,peel,204,36,4,Japanese,f,9,0.9,-57.98593589,1.72852212
RIY,63,1,2024-06-30T12:55:54.671Z,english_608.wav,0,peel,204,36,4,Japanese,f,10,1.0,87.03595353,1.13440146
RIY,63,1,2024-06-30T12:55:54.671Z,english_608.wav,0,peel,204,36,4,Japanese,f,11,1.09391667,-36.96026424,1.09789882
RIY,64,1,2024-06-30T12:55:54.671Z,english_438.wav,0,pill,2430,36,4,Japanese,f,0,0.0,91.86272704,0.9386026
RIY,64,1,2024-06-30T12:55:54.671Z,english_438.wav,0,pill,2430,36,4,Japanese,f,1,0.1,-44.43630423,0.33540843
RIY,64,1,2024-06-30T12:55:54.671Z,english_438.wav,0,pill,2430,36,4,Japanese,f,2,0.2,72.37874658,1.56241731
RIY,64,1,2024-06-30T12:55:54.671Z,english_438.wav,0,pill,2430,36,4,Japanese,f,3,0.3,-59.64407805,1.95211947
RIY,64,1,2024-06-30T12:55:54.671Z,english_438.wav,0,pill,2430,36,4,Japanese,f,4,0.4,3.98283537,1.78538666
RIY,64,1,2024-06-30T12:55:54.671Z,english_438.wav,0,pill,2430,36,4,Japanese,f,5,0.5,-96.02756859,1.14694298
RIY,64,1,2024-06-30T12:55:54.671Z,english_438.wav,0,pill,2430,36,4,Japanese,f,6,0.6,-93.99408703,0.91873994
RIY,64,1,2024-06-30T12:55:54.671Z,english_438.wav,0,pill,2430,36,4,Japanese,f,7,0.7,-23.90252883,0.98699904
RIY,64,1,2024-06-30T12:55:54.671Z,english_438.wav,0,pill,2430,36,4,Japanese,f,8,0.8,-21.6037345,0.66470347
RIY,64,1,2024-06-30T12:55:54.671Z,english_438.wav,0,pill,2430,36,4,Japanese,f,9,0.9,5.15930496,0.74579671
RIY,64,1,2024-06-30T12:55:54.671Z,english_438.wav,0,pill,2430,36,4,Japanese,f,10,1.0,-88.86892037,1.08133319
RIY,64,1,2024-06-30T12:55:54.671Z,english_438.wav,0,pill,2430,36,4,Japanese,f,11,1.09391667,6.8489947,0.0772073
RIY,65,1,2024-06-30T12:55:54.671Z,english_363.wav,0,peel,101,36,4,Japanese,f,0,0.0,-5.66534259,1.60513634
RIY,65,1,2024-06-30T12:55:54.671Z,english_363.wav,0,peel,101,36,4,Japanese,f,1,0.1,96.57780227,0.93762693
RIY,65,1,2024-06-30T12:55:54.671Z,english_363.wav,0,peel,101,36,4,Japanese,f,2,0.2,8.75498082,1.53396088
RIY,65,1,2024-06-30T12:55:54.671Z,english_363.wav,0,peel,101,36,4,Japanese,f,3,0.3,-62.00877197,1.61687943
RIY,65,1,2024-06-30T12:55:54.671Z,english_363.wav,0,peel,101,36,4,Japanese,f,4,0.4,55.64754403,0.81027283
RIY,65,1,2024-06-30T12:55:54.671Z,english_363.wav,0,peel,101,36,4,Japanese,f,5,0.5,60.40753337,0.96421289
RIY,65,1,2024-06-30T12:55:54.671Z,english_363.wav,0,peel,101,36,4,Japanese,f,6,0.6,28.13214645,0.44675755
RIY,65,1,2024-06-30T12:55:54.671Z,english_363.wav,0,peel,101,36,4,Japanese,f,7,0.7,80.12225937,1.7907484
RIY,65,1,2024-06-30T12:55:54.671Z,english_363.wav,0,peel,101,36,4,Japanese,f,8,0.8,96.25782192,1.63025461
RIY,65,1,2024-06-30T12:55:54.671Z,english_363.wav,0,peel,101,36,4,Japanese,f,9,0.9,-69.76671387,1.21594348
RIY,65,1,2024-06-30T12:55:54.671Z,english_363.wav,0,peel,101,36,4,Japanese,f,10,1.0,60.27804949,1.84929312
RIY,65,1,2024-06-30T12:55:54.671Z,english_363.wav,0,peel,101,36,4,Japanese,f,11,1.09391667,31.6619376,0.74880834
RIY,66,1,2024-06-30T12:55:54.671Z,english_266.wav,0,peel,193,36,4,Japanese,f,0,0.0,85.08589672,0.35806768
RIY,66,1,2024-06-30T12:55:54.671Z,english_266.wav,0,peel,193,36,4,Japanese,f,1,0.1,-31.38715876,1.30312729
RIY,66,1,2024-06-30T12:55:54.671Z,english_266.wav,0,peel,193,36,4,Japanese,f,2,0.2,12.76761621,0.13135106
RIY,66,1,2024-06-30T12:55:54.671Z,english_266.wav,0,peel,193,36,4,Japanese,f,3,0.3,-84.09112809,1.10001243
RIY,66,1,2024-06-30T12:55:54.671Z,english_266.wav,0,peel,193,36,4,Japanese,f,4,0.4,-35.65738205,0.09400181
RIY,66,1,2024-06-30T12:55:54.671Z,english_266.wav,0,peel,193,36,4,Japanese,f,5,0.5,-1.3575127,1.62804367
RIY,66,1,2024-06-30T12:55:54.671Z,english_266.wav,0,peel,193,36,4,Japanese,f,6,0.6,28.50579554,0.86420495
RIY,66,1,2024-06-30T12:55:54.671Z,english_266.wav,0,peel,193,36,4,Japanese,f,7,0.7,-64.0196403,0.86051542
RIY,66,1,2024-06-30T12:55:54.671Z,english_266.wav,0,peel,193,36,4,Japanese,f,8,0.8,-12.66471897,1.59602975
RIY,66,1,2024-06-30T12:55:54.671Z,english_266.wav,0,peel,193,36,4,Japanese,f,9,0.9,33.09789324,1.84870637
RIY,66,1,2024-06-30T12:55:54.671Z,english_266.wav,0,peel,193,36,4,Japanese,f,10,1.0,96.55876506,1.74532524
RIY,66,1,2024-06-30T12:55:54.671Z,english_266.wav,0,peel,193,36,4,Japanese,f,11,1.09391667,86.66414538,1.19425471
RIY,67,1,2024-06-30T12:55:54.671Z,english_885.wav,0,pill,444,36,4,Japanese,f,0,0.0,54.55471531,1.33761042
RIY,67,1,2024-06-30T12:55:54.671Z,english_885.wav,0,pill,444,36,4,Japanese,f,1,0.1,-9.45538995,0.16839263
RIY,67,1,2024-06-30T12:55:54.671Z,english_885.wav,0,pill,444,36,4,Japanese,f,2,0.2,51.71669589,0.15282828
RIY,67,1,2024-06-30T12:55:54.671Z,english_885.wav,0,pill,444,36,4,Japanese,f,3,0.3,35.30778931,0.93528856
RIY,67,1,2024-06-30T12:55:54.671Z,english_885.wav,0,pill,444,36,4,Japanese,f,4,0.4,20.62870104,0.42450529
RIY,67,1,2024-06-30T12:55:54.671Z,english_885.wav,0,pill,444,36,4,Japanese,f,5,0.5,45.97492152,1.13086713
RIY,67,1,2024-06-30T12:55:54.671Z,english_885.wav,0,pill,444,36,4,Japanese,f,6,0.6,57.72908242,1.16302136
RIY,67,1,2024-06-30T12:55:54.671Z,english_885.wav,0,pill,444,36,4,Japanese,f,7,0.7,-7.90762664,1.12991064
RIY,67,1,2024-06-30T12:55:54.671Z,english_885.wav,0,pill,444,36,4,Japanese,f,8,0.8,-27.43803549,0.98725245
RIY,67,1,2024-06-30T12:55:54.671Z,english_885.wav,0,pill,444,36,4,Japanese,f,9,0.9,-45.75999486,0.61152154
RIY,67,1,2024-06-30T12:55:54.671Z,english_885.wav,0,pill,444,36,4,Japanese,f,10,1.0,65.06809526,0.86912983
RIY,67,1,2024-06-30T12:55:54.671Z,english_885.wav,0,pill,444,36,4,Japanese,f,11,1.09391667,85.31433116,0.92468658
RIY,68,1,2024-06-30T12:55:54.671Z,english_111.wav,0,pill,975,36,4,Japanese,f,0,0.0,-7.89423459,1.73172447
RIY,68,1,2024-06-30T12:55:54.671Z,english_111.wav,0,pill,975,36,4,Japanese,f,1,0.1,-50.39853442,1.30536321
RIY,68,1,2024-06-30T12:55:54.671Z,english_111.wav,0,pill,975,36,4,Japanese,f,2,0.2,85.22773015,0.28962065
RIY,68,1,2024-06-30T12:55:54.671Z,english_111.wav,0,pill,975,36,4,Japanese,f,3,0.3,-7.88513069,1.6166787
RIY,68,1,2024-06-30T12:55:54.671Z,english_111.wav,0,pill,975,36,4,Japanese,f,4,0.4,-36.68324303,0.55677008
RIY,68,1,2024-06-30T12:55:54.671Z,english_111.wav,0,pill,975,36,4,Japanese,f,5,0.5,-4.8649615,1.31756148
RIY,68,1,2024-06-30T12:55:54.671Z,english_111.wav,0,pill,975,36,4,Japanese,f,6,0.6,-92.19494919,1.4789538
RIY,68,1,2024-06-30T12:55:54.671Z,english_111.wav,0,pill,975,36,4,Japanese,f,7,0.7,-6.11032283,0.53950686
RIY,68,1,2024-06-30T12:55:54.671Z,english_111.wav,0,pill,975,36,4,Japanese,f,8,0.8,41.34470973,0.89868821
RIY,68,1,2024-06-30T12:55:54.671Z,english_111.wav,0,pill,975,36,4,Japanese,f,9,0.9,-73.07088632,0.90401257
RIY,68,1,2024-06-30T12:55:54.671Z,english_111.wav,0,pill,975,36,4,Japanese,f,10,1.0,50.36502587,0.61580764
RIY,68,1,2024-06-30T12:55:54.671Z,english_111.wav,0,pill,975,36,4,Japanese,f,11,1.09391667,-49.90215361,1.87610476
RIY,69,1,2024-06-30T12:55:54.671Z,english_998.wav,0,peel,288,36,4,Japanese,f,0,0.0,-83.67346728,1.27391906
RIY,69,1,2024-06-30T12:55:54.671Z,english_998.wav,0,peel,288,36,4,Japanese,f,1,0.1,-68.43297462,0.75913393
RIY,69,1,2024-06-30T12:55:54.671Z,english_998.wav,0,peel,288,36,4,Japanese,f,2,0.2,47.84560439,1.02363825
RIY,69,1,2024-06-30T12:55:54.671Z,english_998.wav,0,peel,288,36,4,Japanese,f,3,0.3,71.43971258,1.78775676
RIY,69,1,2024-06-30T12:55:54.671Z,english_998.wav,0,peel,288,36,4,Japanese,f,4,0.4,-30.40941836,0.0961221
RIY,69,1,2024-06-30T12:55:54.671Z,english_998.wav,0,peel,288,36,4,Japanese,f,5,0.5,69.31214212,1.18933693
RIY,69,1,2024-06-30T12:55:54.671Z,english_998.wav,0,peel,288,36,4,Japanese,f,6,0.6,-95.04564508,1.9379163
RIY,69,1,2024-06-30T12:55:54.671Z,english_998.wav,0,peel,288,36,4,Japanese,f,7,0.7,-61.88405175,1.91389769
RIY,69,1,2024-06-30T12:55:54.671Z,english_998.wav,0,peel,288,36,4,Japanese,f,8,0.8,11.43915949,1.08895614
RIY,69,1,2024-06-30T12:55:54.671Z,english_998.wav,0,peel,288,36,4,Japanese,f,9,0.9,79.6365109,1.52042952
RIY,69,1,2024-06-30T12:55:54.671Z,english_998.wav,0,peel,288,36,4,Japanese,f,10,1.0,58.29305302,0.38016323
RIY,69,1,2024-06-30T12:55:54.671Z,english_998.wav,0,peel,288,36,4,Japanese,f,11,1.09391667,44.0288717,1.77799574
RIY,70,1,2024-06-30T12:55:54.671Z,english_527.wav,0,peel,1638,36,4,Japanese,f,0,0.0,-1.3381573,0.84142087
RIY,70,1,2024-06-30T12:55:54.671Z,english_527.wav,0,peel,1638,36,4,Japanese,f,1,0.1,58.15701777,0.45178491
RIY,70,1,2024-06-30T12:55:54.671Z,english_527.wav,0,peel,1638,36,4,Japanese,f,2,0.2,8.11788849,1.20075359
RIY,70,1,2024-06-30T12:55:54.671Z,english_527.wav,0,peel,1638,36,4,Japanese,f,3,0.3,44.39731413,0.65328865
RIY,70,1,2024-06-30T12:55:54.671Z,english_527.wav,0,peel,1638,36,4,Japanese,f,4,0.4,-87.54788147,0.96835908
RIY,70,1,2024-06-30T12:55:54.671Z,english_527.wav,0,peel,1638,36,4,Japanese,f,5,0.5,-93.25195843,0.53512631
RIY,70,1,2024-06-30T12:55:54.671Z,english_527.wav,0,peel,1638,36,4,Japanese,f,6,0.6,93.45473079,1.66257619
RIY,70,1,2024-06-30T12:55:54.671Z,english_527.wav,0,peel,1638,36,4,Japanese,f,7,0.7,47.10175622,1.10602602
RIY,70,1,2024-06-30T12:55:54.671Z,english_527.wav,0,peel,1638,36,4,Japanese,f,8,0.8,40.24548325,0.88440787
RIY,70,1,2024-06-30T12:55:54.671Z,english_527.wav,0,peel,1638,36,4,Japanese,f,9,0.9,26.99431972,1.16792169
RIY,70,1,2024-06-30T12:55:54.671Z,english_527.wav,0,peel,1638,36,4,Japanese,f,10,1.0,23.18417948,1.44045273
RIY,70,1,2024-06-30T12:55:54.671Z,english_527.wav,0,peel,1638,36,4,Japanese,f,11,1.09391667,1.05655255,0.83626501
RIY,71,1,2024-06-30T12:55:54.671Z,english_445.wav,0,pill,394,36,4,Japanese,f,0,0.0,76.42112213,1.57802926
RIY,71,1,2024-06-30T12:55:54.671Z,english_445.wav,0,pill,394,36,4,Japanese,f,1,0.1,-97.95203426,1.29835175
RIY,71,1,2024-06-30T12:55:54.671Z,english_445.wav,0,pill,394,36,4,Japanese,f,2,0.2,-59.82746333,0.53636504
RIY,71,1,2024-06-30T12:55:54.671Z,english_445.wav,0,pill,394,36,4,Japanese,f,3,0.3,-13.48573522,1.2021667
RIY,71,1,2024-06-30T12:55:54.671Z,english_445.wav,0,pill,394,36,4,Japanese,f,4,0.4,81.29973607,1.41426839
RIY,71,1,2024-06-30T12:55:54.671Z,english_445.wav,0,pill,394,36,4,Japanese,f,5,0.5,41.3671656,1.60295296
RIY,71,1,2024-06-30T12:55:54.671Z,english_445.wav,0,pill,394,36,4,Japanese,f,6,0.6,-85.98514438,0.58159358
RIY,71,1,2024-06-30T12:55:54.671Z,english_445.wav,0,pill,394,36,4,Japanese,f,7,0.7,57.90232239,0.76199649
RIY,71,1,2024-06-30T12:55:54.671Z,english_445.wav,0,pill,394,36,4,Japanese,f,8,0.8,-95.60547231,0.54097795
RIY,71,1,2024-06-30T12:55:54.671Z,english_445.wav,0,pill,394,36,4,Japanese,f,9,0.9,17.13362758,0.00538706
RIY,71,1,2024-06-30T12:55:54.671Z,english_445.wav,0,pill,394,36,4,Japanese,f,10,1.0,46.54539843,0.3060589
RIY,71,1,2024-06-30T12:55:54.671Z,english_445.wav,0,pill,394,36,4,Japanese,f,11,1.09391667,43.78720367,1.39576853
RIY,72,1,2024-06-30T12:55:54.671Z,english_683.wav,0,peel,753,36,4,Japanese,f,0,0.0,34.23496856,1.52890361
RIY,72,1,2024-06-30T12:55:54.671Z,english_683.wav,0,peel,753,36,4,Japanese,f,1,0.1,81.31064479,1.93705935
RIY,72,1,2024-06-30T12:55:54.671Z,english_683.wav,0,peel,753,36,4,Japanese,f,2,0.2,-60.40458615,0.69433094
RIY,72,1,2024-06-30T12:55:54.671Z,english_683.wav,0,peel,753,36,4,Japanese,f,3,0.3,-62.54980461,1.53772514
RIY,72,1,2024-06-30T12:55:54.671Z,english_683.wav,0,peel,753,36,4,Japanese,f,4,0.4,-12.36553538,1.78596087
RIY,72,1,2024-06-30T12:55:54.671Z,english_683.wav,0,peel,753,36,4,Japanese,f,5,0.5,-34.77582481,1.63079743
RIY,72,1,2024-06-30T12:55:54.671Z,english_683.wav,0,peel,753,36,4,Japanese,f,6,0.6,-96.13838061,0.34418859
RIY,72,1,2024-06-30T12:55:54.671Z,english_683.wav,0,peel,753,36,4,Japanese,f,7,0.7,-24.06724676,0.7060728
RIY,72,1,2024-06-30T12:55:54.671Z,english_683.wav,0,peel,753,36,4,Japanese,f,8,0.8,-21.80988158,1.36877557
RIY,72,1,2024-06-30T12:55:54.671Z,english_683.wav,0,peel,753,36,4,Japanese,f,9,0.9,25.64503309,0.99980175
RIY,72,1,2024-06-30T12:55:54.671Z,english_683.wav,0,peel,753,36,4,Japanese,f,10,1.0,-38.18547527,1.47729865
RIY,72,1,2024-06-30T12:55:54.671Z,english_683.wav,0,peel,753,36,4,Japanese,f,11,1.09391667,-68.93519132,0.6697003
RIY,73,1,2024-06-30T12:55:54.671Z,english_229.wav,0,peel,1420,36,4,Japanese,f,0,0.0,-79.04304689,0.75524208
RIY,73,1,2024-06-30T12:55:54.671Z,english_229.wav,0,peel,1420,36,4,Japanese,f,1,0.1,-33.27907889,1.36191913
RIY,73,1,2024-06-30T12:55:54.671Z,english_229.wav,0,peel,1420,36,4,Japanese,f,2,0.2,-48.38559405,0.27826927
RIY,73,1,2024-06-30T12:55:54.671Z,english_229.wav,0,peel,1420,36,4,Japanese,f,3,0.3,-41.35801628,1.07720363
RIY,73,1,2024-06-30T12:55:54.671Z,english_229.wav,0,peel,1420,36,4,Japanese,f,4,0.4,-26.02502446,1.01002639
RIY,73,1,2024-06-30T12:55:54.671Z,english_229.wav,0,peel,1420,36,4,Japanese,f,5,0.5,13.55019155,0.44849721
RIY,73,1,2024-06-30T12:55:54.671Z,english_229.wav,0,peel,1420,36,4,Japanese,f,6,0.6,18.26415136,0.65469054
RIY,73,1,2024-06-30T12:55:54.671Z,english_229.wav,0,peel,1420,36,4,Japanese,f,7,0.7,-44.56995302,0.24060095
RIY,73,1,2024-06-30T12:55:54.671Z,english_229.wav,0,peel,1420,36,4,Japanese,f,8,0.8,9.70532855,1.46400581
RIY,73,1,2024-06-30T12:55:54.671Z,english_229.wav,0,peel,1420,36,4,Japanese,f,9,0.9,-87.31769778,0.19595273
RIY,73,1,2024-06-30T12:55:54.671Z,english_229.wav,0,peel,1420,36,4,Japanese,f,10,1.0,71.16611241,1.05591567
RIY,73,1,2024-06-30T12:55:54.671Z,english_229.wav,0,peel,1420,36,4,Japanese,f,11,1.09391667,-73.56487105,1.79159402
RIY,74,1,2024-06-30T12:55:54.671Z,english_497.wav,0,peel,2748,36,4,Japanese,f,0,0.0,80.19747469,0.03666691
RIY,74,1,2024-06-30T12:55:54.671Z,english_497.wav,0,peel,2748,36,4,Japanese,f,1,0.1,-96.43069026,0.31407974
RIY,74,1,2024-06-30T12:55:54.671Z,english_497.wav,0,peel,2748,36,4,Japanese,f,2,0.2,6.71798647,0.70160097
RIY,74,1,2024-06-30T12:55:54.671Z,english_497.wav,0,peel,2748,36,4,Japanese,f,3,0.3,19.69444111,1.30733275
RIY,74,1,2024-06-30T12:55:54.671Z,english_497.wav,0,peel,2748,36,4,Japanese,f,4,0.4,-18.5018769,1.0770642
RIY,74,1,2024-06-30T12:55:54.671Z,english_497.wav,0,peel,2748,36,4,Japanese,f,5,0.5,-89.69065854,1.1030143
RIY,74,1,2024-06-30T12:55:54.671Z,english_497.wav,0,peel,2748,36,4,Japanese,f,6,0.6,18.45091423,0.72184595
RIY,74,1,2024-06-30T12:55:54.671Z,english_497.wav,0,peel,2748,36,4,Japanese,f,7,0.7,58.14918595,0.59634745
RIY,74,1,2024-06-30T12:55:54.671Z,english_497.wav,0,peel,2748,36,4,Japanese,f,8,0.8,-12.73126571,0.95783225
RIY,74,1,2024-06-30T12:55:54.671Z,english_497.wav,0,peel,2748,36,4,Japanese,f,9,0.9,-37.82928272,0.84592096
RIY,74,1,2024-06-30T12:55:54.671Z,english_497.wav,0,peel,2748,36,4,Japanese,f,10,1.0,-47.82962272,1.86600497
RIY,74,1,2024-06-30T12:55:54.671Z,english_497.wav,0,peel,2748,36,4,Japanese,f,11,1.09391667,-71.69807159,0.50915901
RIY,75,1,2024-06-30T12:55:54.671Z,english_113.wav,0,pill,369,36,4,Japanese,f,0,0.0,15.28166422,0.55667307
RIY,75,1,2024-06-30T12:55:54.671Z,english_113.wav,0,pill,369,36,4,Japanese,f,1,0.1,47.09879561,0.58592964
RIY,75,1,2024-06-30T12:55:54.671Z,english_113.wav,0,pill,369,36,4,Japanese,f,2,0.2,30.55065419,1.23790542
RIY,75,1,2024-06-30T12:55:54.671Z,english_113.wav,0,pill,369,36,4,Japanese,f,3,0.3,60.74459651,0.97364291
RIY,75,1,2024-06-30T12:55:54.671Z,english_113.wav,0,pill,369,36,4,Japanese,f,4,0.4,-80.73338373,0.01252312
RIY,75,1,2024-06-30T12:55:54.671Z,english_113.wav,0,pill,369,36,4,Japanese,f,5,0.5,-58.25545597,0.68334247
RIY,75,1,2024-06-30T12:55:54.671Z,english_113.wav,0,pill,369,36,4,Japanese,f,6,0.6,82.81118061,0.36908508
RIY,75,1,2024-06-30T12:55:54.671Z,english_113.wav,0,pill,369,36,4,Japanese,f,7,0.7,-61.4933419,0.9756346
RIY,75,1,2024-06-30T12:55:54.671Z,english_113.wav,0,pill,369,36,4,Japanese,f,8,0.8,15.22379089,1.72445689
RIY,75,1,2024-06-30T12:55:54.671Z,english_113.wav,0,pill,369,36,4,Japanese,f,9,0.9,-30.23460484,0.62749292
RIY,75,1,2024-06-30T12:55:54.671Z,english_113.wav,0,pill,369,36,4,Japanese,f,10,1.0,29.92994598,0.55530103
RIY,75,1,2024-06-30T12:55:54.671Z,english_113.wav,0,pill,369,36,4,Japanese,f,11,1.09391667,22.43308389,0.65235156
RIY,76,1,2024-06-30T12:55:54.671Z,english_323.wav,0,pill,258,36,4,Japanese,f,0,0.0,40.39415448,1.89273291
RIY,76,1,2024-06-30T12:55:54.671Z,english_323.wav,0,pill,258,36,4,Japanese,f,1,0.1,-3.9805302,1.81857991
RIY,76,1,2024-06-30T12:55:54.671Z,english_323.wav,0,pill,258,36,4,Japanese,f,2,0.2,-8.81191145,0.58180431
RIY,76,1,2024-06-30T12:55:54.671Z,english_323.wav,0,pill,258,36,4,Japanese,f,3,0.3,-8.61923754,0.82209232
RIY,76,1,2024-06-30T12:55:54.671Z,english_323.wav,0,pill,258,36,4,Japanese,f,4,0.4,25.51817053,1.26116311
RIY,76,1,2024-06-30T12:55:54.671Z,english_323.wav,0,pill,258,36,4,Japanese,f,5,0.5,37.95982404,1.9312982
RIY,76,1,2024-06-30T12:55:54.671Z,english_323.wav,0,pill,258,36,4,Japanese,f,6,0.6,-53.30444221,0.90792138
RIY,76,1,2024-06-30T12:55:54.671Z,english_323.wav,0,pill,258,36,4,Japanese,f,7,0.7,54.85383866,0.90655742
RIY,76,1,2024-06-30T12:55:54.671Z,english_323.wav,0,pill,258,36,4,Japanese,f,8,0.8,-9.4086646,0.85964648
RIY,76,1,2024-06-30T12:55:54.671Z,english_323.wav,0,pill,258,36,4,Japanese,f,9,0.9,8.91034325,0.3422022
RIY,76,1,2024-06-30T12:55:54.671Z,english_323.wav,0,pill,258,36,4,Japanese,f,10,1.0,-45.44598831,1.16277549
RIY,76,1,2024-06-30T12:55:54.671Z,english_323.wav,0,pill,258,36,4,Japanese,f,11,1.09391667,-71.60554132,1.39313179
RIY,77,1,2024-06-30T12:55:54.671Z,english_774.wav,0,pill,1348,36,4,Japanese,f,0,0.0,38.7876064,0.43642058
RIY,77,1,2024-06-30T12:55:54.671Z,english_774.wav,0,pill,1348,36,4,Japanese,f,1,0.1,-21.79427352,1.59194207
RIY,77,1,2024-06-30T12:55:54.671Z,english_774.wav,0,pill,1348,36,4,Japanese,f,2,0.2,-78.67296896,1.92489987
RIY,77,1,2024-06-30T12:55:54.671Z,english_774.wav,0,pill,1348,36,4,Japanese,f,3,0.3,-75.97471041,1.73224365
RIY,77,1,2024-06-30T12:55:54.671Z,english_774.wav,0,pill,1348,36,4,Japanese,f,4,0.4,-9.72862999,0.83130124
RIY,77,1,2024-06-30T12:55:54.671Z,english_774.wav,0,pill,1348,36,4,Japanese,f,5,0.5,-62.72542351,0.05776376
RIY,77,1,2024-06-30T12:55:54.671Z,english_774.wav,0,pill,1348,36,4,Japanese,f,6,0.6,-92.46329741,0.22257067
RIY,77,1,2024-06-30T12:55:54.671Z,english_774.wav,0,pill,1348,36,4,Japanese,f,7,0.7,9.68208163,0.82578939
RIY,77,1,2024-06-30T12:55:54.671Z,english_774.wav,0,pill,1348,36,4,Japanese,f,8,0.8,-31.34266524,1.91233014
