subj,trial,block,date,stim,stim_order,response,rt,age,english,language,sex,param_index,segment,pitch,stretch
YUS,0,0,2024-06-24T06:52:29.917Z,english_183.wav,0,pill,4400,25,4,Japanese,f,0,0.0,56.94082111,1.46471885
YUS,0,0,2024-06-24T06:52:29.917Z,english_183.wav,0,pill,4400,25,4,Japanese,f,1,0.1,23.76823823,0.27157125
YUS,0,0,2024-06-24T06:52:29.917Z,english_183.wav,0,pill,4400,25,4,Japanese,f,2,0.2,-72.77208824,0.89995591
YUS,0,0,2024-06-24T06:52:29.917Z,english_183.wav,0,pill,4400,25,4,Japanese,f,3,0.3,-26.01651227,0.86595775
YUS,0,0,2024-06-24T06:52:29.917Z,english_183.wav,0,pill,4400,25,4,Japanese,f,4,0.4,97.95217456,0.99665554
YUS,0,0,2024-06-24T06:52:29.917Z,english_183.wav,0,pill,4400,25,4,Japanese,f,5,0.5,-88.35240054,1.5130978
YUS,0,0,2024-06-24T06:52:29.917Z,english_183.wav,0,pill,4400,25,4,Japanese,f,6,0.6,8.20957713,0.89371921
YUS,0,0,2024-06-24T06:52:29.917Z,english_183.wav,0,pill,4400,25,4,Japanese,f,7,0.7,-0.21457891,0.60499738
YUS,0,0,2024-06-24T06:52:29.917Z,english_183.wav,0,pill,4400,25,4,Japanese,f,8,0.8,-22.50054627,0.6752389
YUS,0,0,2024-06-24T06:52:29.917Z,english_183.wav,0,pill,4400,25,4,Japanese,f,9,0.9,-26.93782132,0.26345185
YUS,0,0,2024-06-24T06:52:29.917Z,english_183.wav,0,pill,4400,25,4,Japanese,f,10,1.0,-9.93952746,0.41919446
YUS,0,0,2024-06-24T06:52:29.917Z,english_183.wav,0,pill,4400,25,4,Japanese,f,11,1.09391667,16.7040789,0.61479122
YUS,1,0,2024-06-24T06:52:29.917Z,english_350.wav,0,pill,2935,25,4,Japanese,f,0,0.0,-49.74850435,0.22554434
YUS,1,0,2024-06-24T06:52:29.917Z,english_350.wav,0,pill,2935,25,4,Japanese,f,1,0.1,68.30317627,1.05889666
YUS,1,0,2024-06-24T06:52:29.917Z,english_350.wav,0,pill,2935,25,4,Japanese,f,2,0.2,-65.19955472,1.66837242
YUS,1,0,2024-06-24T06:52:29.917Z,english_350.wav,0,pill,2935,25,4,Japanese,f,3,0.3,16.55905503,1.26247407
YUS,1,0,2024-06-24T06:52:29.917Z,english_350.wav,0,pill,2935,25,4,Japanese,f,4,0.4,-91.2937095,1.50505412
YUS,1,0,2024-06-24T06:52:29.917Z,english_350.wav,0,pill,2935,25,4,Japanese,f,5,0.5,15.43319067,1.94963106
YUS,1,0,2024-06-24T06:52:29.917Z,english_350.wav,0,pill,2935,25,4,Japanese,f,6,0.6,-45.85963286,1.1132199
YUS,1,0,2024-06-24T06:52:29.917Z,english_350.wav,0,pill,2935,25,4,Japanese,f,7,0.7,19.61186346,0.36047723
YUS,1,0,2024-06-24T06:52:29.917Z,english_350.wav,0,pill,2935,25,4,Japanese,f,8,0.8,-16.08875957,0.33369352
YUS,1,0,2024-06-24T06:52:29.917Z,english_350.wav,0,pill,2935,25,4,Japanese,f,9,0.9,46.96260951,0.35479608
YUS,1,0,2024-06-24T06:52:29.917Z,english_350.wav,0,pill,2935,25,4,Japanese,f,10,1.0,42.75278918,0.24605451
YUS,1,0,2024-06-24T06:52:29.917Z,english_350.wav,0,pill,2935,25,4,Japanese,f,11,1.09391667,-15.03240418,1.96587805
YUS,2,0,2024-06-24T06:52:29.917Z,english_235.wav,0,peel,4794,25,4,Japanese,f,0,0.0,44.65499148,0.45157531
YUS,2,0,2024-06-24T06:52:29.917Z,english_235.wav,0,peel,4794,25,4,Japanese,f,1,0.1,77.52873905,0.81502167
YUS,2,0,2024-06-24T06:52:29.917Z,english_235.wav,0,peel,4794,25,4,Japanese,f,2,0.2,7.66193616,0.73184795
YUS,2,0,2024-06-24T06:52:29.917Z,english_235.wav,0,peel,4794,25,4,Japanese,f,3,0.3,-36.65234069,1.39041991
YUS,2,0,2024-06-24T06:52:29.917Z,english_235.wav,0,peel,4794,25,4,Japanese,f,4,0.4,-38.57977077,0.8131102
YUS,2,0,2024-06-24T06:52:29.917Z,english_235.wav,0,peel,4794,25,4,Japanese,f,5,0.5,-69.81992681,0.63770546
YUS,2,0,2024-06-24T06:52:29.917Z,english_235.wav,0,peel,4794,25,4,Japanese,f,6,0.6,-3.21185942,0.48204551
YUS,2,0,2024-06-24T06:52:29.917Z,english_235.wav,0,peel,4794,25,4,Japanese,f,7,0.7,-3.7989625,0.64449527
YUS,2,0,2024-06-24T06:52:29.917Z,english_235.wav,0,peel,4794,25,4,Japanese,f,8,0.8,-60.5356981,0.17411585
YUS,2,0,2024-06-24T06:52:29.917Z,english_235.wav,0,peel,4794,25,4,Japanese,f,9,0.9,10.60420307,1.43103789
YUS,2,0,2024-06-24T06:52:29.917Z,english_235.wav,0,peel,4794,25,4,Japanese,f,10,1.0,73.74029871,1.90034823
YUS,2,0,2024-06-24T06:52:29.917Z,english_235.wav,0,peel,4794,25,4,Japanese,f,11,1.09391667,-42.3978276,0.79167247
YUS,3,0,2024-06-24T06:52:29.917Z,english_913.wav,0,pill,2019,25,4,Japanese,f,0,0.0,-12.70990623,1.14486928
YUS,3,0,2024-06-24T06:52:29.917Z,english_913.wav,0,pill,2019,25,4,Japanese,f,1,0.1,-17.89686071,0.94187729
YUS,3,0,2024-06-24T06:52:29.917Z,english_913.wav,0,pill,2019,25,4,Japanese,f,2,0.2,58.24027697,0.43978781
YUS,3,0,2024-06-24T06:52:29.917Z,english_913.wav,0,pill,2019,25,4,Japanese,f,3,0.3,71.96751717,0.86816184
YUS,3,0,2024-06-24T06:52:29.917Z,english_913.wav,0,pill,2019,25,4,Japanese,f,4,0.4,22.83880081,0.47286583
YUS,3,0,2024-06-24T06:52:29.917Z,english_913.wav,0,pill,2019,25,4,Japanese,f,5,0.5,74.23310268,0.4719667
YUS,3,0,2024-06-24T06:52:29.917Z,english_913.wav,0,pill,2019,25,4,Japanese,f,6,0.6,23.98451607,1.54190919
YUS,3,0,2024-06-24T06:52:29.917Z,english_913.wav,0,pill,2019,25,4,Japanese,f,7,0.7,-29.568704,1.67539159
YUS,3,0,2024-06-24T06:52:29.917Z,english_913.wav,0,pill,2019,25,4,Japanese,f,8,0.8,19.11592867,1.16448364
YUS,3,0,2024-06-24T06:52:29.917Z,english_913.wav,0,pill,2019,25,4,Japanese,f,9,0.9,54.77477233,1.68418537
YUS,3,0,2024-06-24T06:52:29.917Z,english_913.wav,0,pill,2019,25,4,Japanese,f,10,1.0,9.76021826,1.91621277
YUS,3,0,2024-06-24T06:52:29.917Z,english_913.wav,0,pill,2019,25,4,Japanese,f,11,1.09391667,-30.35128441,1.40243908
YUS,4,0,2024-06-24T06:52:29.917Z,english_424.wav,0,pill,1595,25,4,Japanese,f,0,0.0,-17.35907603,1.03823748
YUS,4,0,2024-06-24T06:52:29.917Z,english_424.wav,0,pill,1595,25,4,Japanese,f,1,0.1,18.81369918,0.96868976
YUS,4,0,2024-06-24T06:52:29.917Z,english_424.wav,0,pill,1595,25,4,Japanese,f,2,0.2,55.92500366,1.67797376
YUS,4,0,2024-06-24T06:52:29.917Z,english_424.wav,0,pill,1595,25,4,Japanese,f,3,0.3,45.08785435,1.44469234
YUS,4,0,2024-06-24T06:52:29.917Z,english_424.wav,0,pill,1595,25,4,Japanese,f,4,0.4,3.17174712,0.62957499
YUS,4,0,2024-06-24T06:52:29.917Z,english_424.wav,0,pill,1595,25,4,Japanese,f,5,0.5,-30.69278374,1.7765397
YUS,4,0,2024-06-24T06:52:29.917Z,english_424.wav,0,pill,1595,25,4,Japanese,f,6,0.6,41.43178992,1.27231114
YUS,4,0,2024-06-24T06:52:29.917Z,english_424.wav,0,pill,1595,25,4,Japanese,f,7,0.7,-46.28602692,0.02713593
YUS,4,0,2024-06-24T06:52:29.917Z,english_424.wav,0,pill,1595,25,4,Japanese,f,8,0.8,-38.81280045,0.44344556
YUS,4,0,2024-06-24T06:52:29.917Z,english_424.wav,0,pill,1595,25,4,Japanese,f,9,0.9,-42.19882472,0.86812909
YUS,4,0,2024-06-24T06:52:29.917Z,english_424.wav,0,pill,1595,25,4,Japanese,f,10,1.0,-88.98684391,1.07480581
YUS,4,0,2024-06-24T06:52:29.917Z,english_424.wav,0,pill,1595,25,4,Japanese,f,11,1.09391667,-92.81820885,0.17756303
YUS,5,0,2024-06-24T06:52:29.917Z,english_979.wav,0,peel,4417,25,4,Japanese,f,0,0.0,37.48457567,1.4207367
YUS,5,0,2024-06-24T06:52:29.917Z,english_979.wav,0,peel,4417,25,4,Japanese,f,1,0.1,-37.02244062,1.31079647
YUS,5,0,2024-06-24T06:52:29.917Z,english_979.wav,0,peel,4417,25,4,Japanese,f,2,0.2,-24.69283161,0.99381913
YUS,5,0,2024-06-24T06:52:29.917Z,english_979.wav,0,peel,4417,25,4,Japanese,f,3,0.3,-46.06023598,1.92885953
YUS,5,0,2024-06-24T06:52:29.917Z,english_979.wav,0,peel,4417,25,4,Japanese,f,4,0.4,-42.84074597,1.90853779
YUS,5,0,2024-06-24T06:52:29.917Z,english_979.wav,0,peel,4417,25,4,Japanese,f,5,0.5,74.27862476,0.2569717
YUS,5,0,2024-06-24T06:52:29.917Z,english_979.wav,0,peel,4417,25,4,Japanese,f,6,0.6,-8.30998961,0.19374483
YUS,5,0,2024-06-24T06:52:29.917Z,english_979.wav,0,peel,4417,25,4,Japanese,f,7,0.7,58.9564601,1.09057025
YUS,5,0,2024-06-24T06:52:29.917Z,english_979.wav,0,peel,4417,25,4,Japanese,f,8,0.8,-5.32034309,1.33389295
YUS,5,0,2024-06-24T06:52:29.917Z,english_979.wav,0,peel,4417,25,4,Japanese,f,9,0.9,26.74044499,0.56327367
YUS,5,0,2024-06-24T06:52:29.917Z,english_979.wav,0,peel,4417,25,4,Japanese,f,10,1.0,-18.64517926,0.75332902
YUS,5,0,2024-06-24T06:52:29.917Z,english_979.wav,0,peel,4417,25,4,Japanese,f,11,1.09391667,58.46936922,0.45071064
YUS,6,0,2024-06-24T06:52:29.917Z,english_543.wav,0,pill,1155,25,4,Japanese,f,0,0.0,-38.60842869,0.01455056
YUS,6,0,2024-06-24T06:52:29.917Z,english_543.wav,0,pill,1155,25,4,Japanese,f,1,0.1,53.1018826,1.33130856
YUS,6,0,2024-06-24T06:52:29.917Z,english_543.wav,0,pill,1155,25,4,Japanese,f,2,0.2,21.93281072,0.07852499
YUS,6,0,2024-06-24T06:52:29.917Z,english_543.wav,0,pill,1155,25,4,Japanese,f,3,0.3,-40.4815272,1.77861337
YUS,6,0,2024-06-24T06:52:29.917Z,english_543.wav,0,pill,1155,25,4,Japanese,f,4,0.4,2.89670018,1.72434721
YUS,6,0,2024-06-24T06:52:29.917Z,english_543.wav,0,pill,1155,25,4,Japanese,f,5,0.5,31.11758458,1.53256383
YUS,6,0,2024-06-24T06:52:29.917Z,english_543.wav,0,pill,1155,25,4,Japanese,f,6,0.6,1.30911675,1.33712035
YUS,6,0,2024-06-24T06:52:29.917Z,english_543.wav,0,pill,1155,25,4,Japanese,f,7,0.7,46.76912586,0.29783205
YUS,6,0,2024-06-24T06:52:29.917Z,english_543.wav,0,pill,1155,25,4,Japanese,f,8,0.8,-75.40535735,1.43997323
YUS,6,0,2024-06-24T06:52:29.917Z,english_543.wav,0,pill,1155,25,4,Japanese,f,9,0.9,57.91130712,0.04561747
YUS,6,0,2024-06-24T06:52:29.917Z,english_543.wav,0,pill,1155,25,4,Japanese,f,10,1.0,-90.16753315,1.78781135
YUS,6,0,2024-06-24T06:52:29.917Z,english_543.wav,0,pill,1155,25,4,Japanese,f,11,1.09391667,-42.19615814,1.03895071
YUS,7,0,2024-06-24T06:52:29.917Z,english_140.wav,0,peel,2319,25,4,Japanese,f,0,0.0,3.17682923,0.87887046
YUS,7,0,2024-06-24T06:52:29.917Z,english_140.wav,0,peel,2319,25,4,Japanese,f,1,0.1,6.35877152,0.507187
YUS,7,0,2024-06-24T06:52:29.917Z,english_140.wav,0,peel,2319,25,4,Japanese,f,2,0.2,-9.02165969,0.30654511
YUS,7,0,2024-06-24T06:52:29.917Z,english_140.wav,0,peel,2319,25,4,Japanese,f,3,0.3,-36.47269085,0.61695793
YUS,7,0,2024-06-24T06:52:29.917Z,english_140.wav,0,peel,2319,25,4,Japanese,f,4,0.4,-72.32699921,1.67577575
YUS,7,0,2024-06-24T06:52:29.917Z,english_140.wav,0,peel,2319,25,4,Japanese,f,5,0.5,-28.69942826,0.30689604
YUS,7,0,2024-06-24T06:52:29.917Z,english_140.wav,0,peel,2319,25,4,Japanese,f,6,0.6,68.422362,1.73923813
YUS,7,0,2024-06-24T06:52:29.917Z,english_140.wav,0,peel,2319,25,4,Japanese,f,7,0.7,-32.97741766,1.33940979
YUS,7,0,2024-06-24T06:52:29.917Z,english_140.wav,0,peel,2319,25,4,Japanese,f,8,0.8,-98.50350873,1.86246524
YUS,7,0,2024-06-24T06:52:29.917Z,english_140.wav,0,peel,2319,25,4,Japanese,f,9,0.9,4.47546112,0.68629119
YUS,7,0,2024-06-24T06:52:29.917Z,english_140.wav,0,peel,2319,25,4,Japanese,f,10,1.0,-70.93750026,1.82050493
YUS,7,0,2024-06-24T06:52:29.917Z,english_140.wav,0,peel,2319,25,4,Japanese,f,11,1.09391667,36.42764636,1.04858085
YUS,8,0,2024-06-24T06:52:29.917Z,english_67.wav,0,pill,627,25,4,Japanese,f,0,0.0,-84.65948026,1.62658343
YUS,8,0,2024-06-24T06:52:29.917Z,english_67.wav,0,pill,627,25,4,Japanese,f,1,0.1,84.7606233,0.18718182
YUS,8,0,2024-06-24T06:52:29.917Z,english_67.wav,0,pill,627,25,4,Japanese,f,2,0.2,84.84791272,1.32224913
YUS,8,0,2024-06-24T06:52:29.917Z,english_67.wav,0,pill,627,25,4,Japanese,f,3,0.3,-54.63561635,1.26573793
YUS,8,0,2024-06-24T06:52:29.917Z,english_67.wav,0,pill,627,25,4,Japanese,f,4,0.4,-93.28689033,0.84125882
YUS,8,0,2024-06-24T06:52:29.917Z,english_67.wav,0,pill,627,25,4,Japanese,f,5,0.5,15.62357322,0.24401609
YUS,8,0,2024-06-24T06:52:29.917Z,english_67.wav,0,pill,627,25,4,Japanese,f,6,0.6,70.84522179,0.63082719
YUS,8,0,2024-06-24T06:52:29.917Z,english_67.wav,0,pill,627,25,4,Japanese,f,7,0.7,18.01432969,0.80351313
YUS,8,0,2024-06-24T06:52:29.917Z,english_67.wav,0,pill,627,25,4,Japanese,f,8,0.8,-96.46193504,0.91980261
YUS,8,0,2024-06-24T06:52:29.917Z,english_67.wav,0,pill,627,25,4,Japanese,f,9,0.9,-76.01913404,0.79845133
YUS,8,0,2024-06-24T06:52:29.917Z,english_67.wav,0,pill,627,25,4,Japanese,f,10,1.0,21.66220953,1.38280114
YUS,8,0,2024-06-24T06:52:29.917Z,english_67.wav,0,pill,627,25,4,Japanese,f,11,1.09391667,58.72019725,0.4179158
YUS,9,0,2024-06-24T06:52:29.917Z,english_298.wav,0,pill,1717,25,4,Japanese,f,0,0.0,-6.27155647,1.61849335
YUS,9,0,2024-06-24T06:52:29.917Z,english_298.wav,0,pill,1717,25,4,Japanese,f,1,0.1,48.93550058,0.35596491
YUS,9,0,2024-06-24T06:52:29.917Z,english_298.wav,0,pill,1717,25,4,Japanese,f,2,0.2,13.84285521,0.30396033
YUS,9,0,2024-06-24T06:52:29.917Z,english_298.wav,0,pill,1717,25,4,Japanese,f,3,0.3,97.15977737,1.90931563
YUS,9,0,2024-06-24T06:52:29.917Z,english_298.wav,0,pill,1717,25,4,Japanese,f,4,0.4,79.76715629,0.00976952
YUS,9,0,2024-06-24T06:52:29.917Z,english_298.wav,0,pill,1717,25,4,Japanese,f,5,0.5,-41.84976134,1.7369795
YUS,9,0,2024-06-24T06:52:29.917Z,english_298.wav,0,pill,1717,25,4,Japanese,f,6,0.6,11.37121721,1.54006257
YUS,9,0,2024-06-24T06:52:29.917Z,english_298.wav,0,pill,1717,25,4,Japanese,f,7,0.7,1.57706146,0.39135251
YUS,9,0,2024-06-24T06:52:29.917Z,english_298.wav,0,pill,1717,25,4,Japanese,f,8,0.8,14.4430887,1.45560385
YUS,9,0,2024-06-24T06:52:29.917Z,english_298.wav,0,pill,1717,25,4,Japanese,f,9,0.9,22.32733409,1.43660254
YUS,9,0,2024-06-24T06:52:29.917Z,english_298.wav,0,pill,1717,25,4,Japanese,f,10,1.0,4.8370979,1.96857338
YUS,9,0,2024-06-24T06:52:29.917Z,english_298.wav,0,pill,1717,25,4,Japanese,f,11,1.09391667,33.89493251,1.91654431
YUS,10,0,2024-06-24T06:52:29.917Z,english_800.wav,0,pill,2159,25,4,Japanese,f,0,0.0,35.31456444,1.69516606
YUS,10,0,2024-06-24T06:52:29.917Z,english_800.wav,0,pill,2159,25,4,Japanese,f,1,0.1,32.41521545,0.23308544
YUS,10,0,2024-06-24T06:52:29.917Z,english_800.wav,0,pill,2159,25,4,Japanese,f,2,0.2,-54.21409297,0.95659058
YUS,10,0,2024-06-24T06:52:29.917Z,english_800.wav,0,pill,2159,25,4,Japanese,f,3,0.3,-42.78782363,1.51885901
YUS,10,0,2024-06-24T06:52:29.917Z,english_800.wav,0,pill,2159,25,4,Japanese,f,4,0.4,54.56880631,1.37866605
YUS,10,0,2024-06-24T06:52:29.917Z,english_800.wav,0,pill,2159,25,4,Japanese,f,5,0.5,-47.76201321,0.13843314
YUS,10,0,2024-06-24T06:52:29.917Z,english_800.wav,0,pill,2159,25,4,Japanese,f,6,0.6,21.101395,0.69869138
YUS,10,0,2024-06-24T06:52:29.917Z,english_800.wav,0,pill,2159,25,4,Japanese,f,7,0.7,-85.00905452,1.55469424
YUS,10,0,2024-06-24T06:52:29.917Z,english_800.wav,0,pill,2159,25,4,Japanese,f,8,0.8,89.73188045,1.19022687
YUS,10,0,2024-06-24T06:52:29.917Z,english_800.wav,0,pill,2159,25,4,Japanese,f,9,0.9,58.36158131,1.40913395
YUS,10,0,2024-06-24T06:52:29.917Z,english_800.wav,0,pill,2159,25,4,Japanese,f,10,1.0,82.86297317,1.54823015
YUS,10,0,2024-06-24T06:52:29.917Z,english_800.wav,0,pill,2159,25,4,Japanese,f,11,1.09391667,50.19485525,1.45235784
YUS,11,0,2024-06-24T06:52:29.917Z,english_310.wav,0,pill,753,25,4,Japanese,f,0,0.0,-73.0364012,1.20427188
YUS,11,0,2024-06-24T06:52:29.917Z,english_310.wav,0,pill,753,25,4,Japanese,f,1,0.1,-22.1461231,0.93293509
YUS,11,0,2024-06-24T06:52:29.917Z,english_310.wav,0,pill,753,25,4,Japanese,f,2,0.2,-68.7915777,0.44843766
YUS,11,0,2024-06-24T06:52:29.917Z,english_310.wav,0,pill,753,25,4,Japanese,f,3,0.3,15.9567541,1.947333
YUS,11,0,2024-06-24T06:52:29.917Z,english_310.wav,0,pill,753,25,4,Japanese,f,4,0.4,0.0690214219,0.80984127
YUS,11,0,2024-06-24T06:52:29.917Z,english_310.wav,0,pill,753,25,4,Japanese,f,5,0.5,11.0751916,0.49483553
YUS,11,0,2024-06-24T06:52:29.917Z,english_310.wav,0,pill,753,25,4,Japanese,f,6,0.6,-4.73549816,1.63471819
YUS,11,0,2024-06-24T06:52:29.917Z,english_310.wav,0,pill,753,25,4,Japanese,f,7,0.7,89.4133264,0.6439244
YUS,11,0,2024-06-24T06:52:29.917Z,english_310.wav,0,pill,753,25,4,Japanese,f,8,0.8,8.5991291,1.83711469
YUS,11,0,2024-06-24T06:52:29.917Z,english_310.wav,0,pill,753,25,4,Japanese,f,9,0.9,-42.9855425,1.01800117
YUS,11,0,2024-06-24T06:52:29.917Z,english_310.wav,0,pill,753,25,4,Japanese,f,10,1.0,21.7690352,0.59348897
YUS,11,0,2024-06-24T06:52:29.917Z,english_310.wav,0,pill,753,25,4,Japanese,f,11,1.09391667,-68.5633248,1.68402605
YUS,12,0,2024-06-24T06:52:29.917Z,english_975.wav,0,pill,892,25,4,Japanese,f,0,0.0,-53.40155937,0.28931867
YUS,12,0,2024-06-24T06:52:29.917Z,english_975.wav,0,pill,892,25,4,Japanese,f,1,0.1,-46.7591449,0.26014098
YUS,12,0,2024-06-24T06:52:29.917Z,english_975.wav,0,pill,892,25,4,Japanese,f,2,0.2,-39.94858347,0.60863929
YUS,12,0,2024-06-24T06:52:29.917Z,english_975.wav,0,pill,892,25,4,Japanese,f,3,0.3,4.12816175,1.96061536
YUS,12,0,2024-06-24T06:52:29.917Z,english_975.wav,0,pill,892,25,4,Japanese,f,4,0.4,83.44282051,0.74428813
YUS,12,0,2024-06-24T06:52:29.917Z,english_975.wav,0,pill,892,25,4,Japanese,f,5,0.5,20.33193784,1.01644474
YUS,12,0,2024-06-24T06:52:29.917Z,english_975.wav,0,pill,892,25,4,Japanese,f,6,0.6,-92.84690604,0.21290726
YUS,12,0,2024-06-24T06:52:29.917Z,english_975.wav,0,pill,892,25,4,Japanese,f,7,0.7,69.62119896,0.78909982
YUS,12,0,2024-06-24T06:52:29.917Z,english_975.wav,0,pill,892,25,4,Japanese,f,8,0.8,-27.30637844,1.61436772
YUS,12,0,2024-06-24T06:52:29.917Z,english_975.wav,0,pill,892,25,4,Japanese,f,9,0.9,71.11664605,0.92754286
YUS,12,0,2024-06-24T06:52:29.917Z,english_975.wav,0,pill,892,25,4,Japanese,f,10,1.0,-25.28708081,1.92956557
YUS,12,0,2024-06-24T06:52:29.917Z,english_975.wav,0,pill,892,25,4,Japanese,f,11,1.09391667,-18.06651804,1.66494484
YUS,13,0,2024-06-24T06:52:29.917Z,english_659.wav,0,pill,1259,25,4,Japanese,f,0,0.0,-42.73609053,0.70277484
YUS,13,0,2024-06-24T06:52:29.917Z,english_659.wav,0,pill,1259,25,4,Japanese,f,1,0.1,-54.26462218,1.15657561
YUS,13,0,2024-06-24T06:52:29.917Z,english_659.wav,0,pill,1259,25,4,Japanese,f,2,0.2,4.14591437,0.91169634
YUS,13,0,2024-06-24T06:52:29.917Z,english_659.wav,0,pill,1259,25,4,Japanese,f,3,0.3,27.62308209,0.71232504
YUS,13,0,2024-06-24T06:52:29.917Z,english_659.wav,0,pill,1259,25,4,Japanese,f,4,0.4,38.57198708,1.23589102
YUS,13,0,2024-06-24T06:52:29.917Z,english_659.wav,0,pill,1259,25,4,Japanese,f,5,0.5,80.21422515,0.15679007
YUS,13,0,2024-06-24T06:52:29.917Z,english_659.wav,0,pill,1259,25,4,Japanese,f,6,0.6,73.99870372,0.18969614
YUS,13,0,2024-06-24T06:52:29.917Z,english_659.wav,0,pill,1259,25,4,Japanese,f,7,0.7,-75.83334389,0.50055959
YUS,13,0,2024-06-24T06:52:29.917Z,english_659.wav,0,pill,1259,25,4,Japanese,f,8,0.8,62.20160473,1.57461742
YUS,13,0,2024-06-24T06:52:29.917Z,english_659.wav,0,pill,1259,25,4,Japanese,f,9,0.9,4.13787027,1.20431491
YUS,13,0,2024-06-24T06:52:29.917Z,english_659.wav,0,pill,1259,25,4,Japanese,f,10,1.0,54.01825885,1.24355935
YUS,13,0,2024-06-24T06:52:29.917Z,english_659.wav,0,pill,1259,25,4,Japanese,f,11,1.09391667,93.31828501,1.36043281
YUS,14,0,2024-06-24T06:52:29.917Z,english_525.wav,0,pill,1171,25,4,Japanese,f,0,0.0,-85.30144906,1.21891661
YUS,14,0,2024-06-24T06:52:29.917Z,english_525.wav,0,pill,1171,25,4,Japanese,f,1,0.1,40.69478692,0.63566771
YUS,14,0,2024-06-24T06:52:29.917Z,english_525.wav,0,pill,1171,25,4,Japanese,f,2,0.2,27.58167259,1.09185932
YUS,14,0,2024-06-24T06:52:29.917Z,english_525.wav,0,pill,1171,25,4,Japanese,f,3,0.3,-9.65414258,1.3630453
YUS,14,0,2024-06-24T06:52:29.917Z,english_525.wav,0,pill,1171,25,4,Japanese,f,4,0.4,-92.26214691,0.47547332
YUS,14,0,2024-06-24T06:52:29.917Z,english_525.wav,0,pill,1171,25,4,Japanese,f,5,0.5,1.87368715,0.98334241
YUS,14,0,2024-06-24T06:52:29.917Z,english_525.wav,0,pill,1171,25,4,Japanese,f,6,0.6,84.67723439,1.24273573
YUS,14,0,2024-06-24T06:52:29.917Z,english_525.wav,0,pill,1171,25,4,Japanese,f,7,0.7,-37.99334031,1.29787156
YUS,14,0,2024-06-24T06:52:29.917Z,english_525.wav,0,pill,1171,25,4,Japanese,f,8,0.8,91.90351479,1.39013402
YUS,14,0,2024-06-24T06:52:29.917Z,english_525.wav,0,pill,1171,25,4,Japanese,f,9,0.9,51.5107545,0.19016555
YUS,14,0,2024-06-24T06:52:29.917Z,english_525.wav,0,pill,1171,25,4,Japanese,f,10,1.0,-23.16743883,0.57102757
YUS,14,0,2024-06-24T06:52:29.917Z,english_525.wav,0,pill,1171,25,4,Japanese,f,11,1.09391667,-40.96893152,0.41777753
YUS,15,0,2024-06-24T06:52:29.917Z,english_918.wav,0,pill,3062,25,4,Japanese,f,0,0.0,7.81141633,1.24491342
YUS,15,0,2024-06-24T06:52:29.917Z,english_918.wav,0,pill,3062,25,4,Japanese,f,1,0.1,82.72316881,0.03757961
YUS,15,0,2024-06-24T06:52:29.917Z,english_918.wav,0,pill,3062,25,4,Japanese,f,2,0.2,30.05807571,1.14238595
YUS,15,0,2024-06-24T06:52:29.917Z,english_918.wav,0,pill,3062,25,4,Japanese,f,3,0.3,-70.58941721,0.04886902
YUS,15,0,2024-06-24T06:52:29.917Z,english_918.wav,0,pill,3062,25,4,Japanese,f,4,0.4,-65.52419577,0.89349405
YUS,15,0,2024-06-24T06:52:29.917Z,english_918.wav,0,pill,3062,25,4,Japanese,f,5,0.5,-8.01629029,0.46427507
YUS,15,0,2024-06-24T06:52:29.917Z,english_918.wav,0,pill,3062,25,4,Japanese,f,6,0.6,16.78163005,1.22953669
YUS,15,0,2024-06-24T06:52:29.917Z,english_918.wav,0,pill,3062,25,4,Japanese,f,7,0.7,72.93916831,1.878364
YUS,15,0,2024-06-24T06:52:29.917Z,english_918.wav,0,pill,3062,25,4,Japanese,f,8,0.8,-2.28760557,0.42759123
YUS,15,0,2024-06-24T06:52:29.917Z,english_918.wav,0,pill,3062,25,4,Japanese,f,9,0.9,-18.70975913,0.20519841
YUS,15,0,2024-06-24T06:52:29.917Z,english_918.wav,0,pill,3062,25,4,Japanese,f,10,1.0,1.09551631,1.09007735
YUS,15,0,2024-06-24T06:52:29.917Z,english_918.wav,0,pill,3062,25,4,Japanese,f,11,1.09391667,-2.64797824,0.32770208
YUS,16,0,2024-06-24T06:52:29.917Z,english_563.wav,0,pill,1824,25,4,Japanese,f,0,0.0,97.71228094,1.26204961
YUS,16,0,2024-06-24T06:52:29.917Z,english_563.wav,0,pill,1824,25,4,Japanese,f,1,0.1,-46.61979444,1.17265915
YUS,16,0,2024-06-24T06:52:29.917Z,english_563.wav,0,pill,1824,25,4,Japanese,f,2,0.2,2.79591849,0.73553811
YUS,16,0,2024-06-24T06:52:29.917Z,english_563.wav,0,pill,1824,25,4,Japanese,f,3,0.3,-24.69974698,1.75222103
YUS,16,0,2024-06-24T06:52:29.917Z,english_563.wav,0,pill,1824,25,4,Japanese,f,4,0.4,-33.21670204,1.16360082
YUS,16,0,2024-06-24T06:52:29.917Z,english_563.wav,0,pill,1824,25,4,Japanese,f,5,0.5,-22.29161776,0.78496451
YUS,16,0,2024-06-24T06:52:29.917Z,english_563.wav,0,pill,1824,25,4,Japanese,f,6,0.6,-9.78409371,0.25812971
YUS,16,0,2024-06-24T06:52:29.917Z,english_563.wav,0,pill,1824,25,4,Japanese,f,7,0.7,22.41186375,1.68001513
YUS,16,0,2024-06-24T06:52:29.917Z,english_563.wav,0,pill,1824,25,4,Japanese,f,8,0.8,-16.19600926,1.88614824
YUS,16,0,2024-06-24T06:52:29.917Z,english_563.wav,0,pill,1824,25,4,Japanese,f,9,0.9,96.89254029,0.22022692
YUS,16,0,2024-06-24T06:52:29.917Z,english_563.wav,0,pill,1824,25,4,Japanese,f,10,1.0,-8.68448167,0.44747932
YUS,16,0,2024-06-24T06:52:29.917Z,english_563.wav,0,pill,1824,25,4,Japanese,f,11,1.09391667,22.23097911,1.70220981
YUS,17,0,2024-06-24T06:52:29.917Z,english_632.wav,0,pill,1515,25,4,Japanese,f,0,0.0,54.27416022,0.37224575
YUS,17,0,2024-06-24T06:52:29.917Z,english_632.wav,0,pill,1515,25,4,Japanese,f,1,0.1,37.10784124,1.19176423
YUS,17,0,2024-06-24T06:52:29.917Z,english_632.wav,0,pill,1515,25,4,Japanese,f,2,0.2,-11.42343802,1.11602641
YUS,17,0,2024-06-24T06:52:29.917Z,english_632.wav,0,pill,1515,25,4,Japanese,f,3,0.3,83.07683271,0.86319718
YUS,17,0,2024-06-24T06:52:29.917Z,english_632.wav,0,pill,1515,25,4,Japanese,f,4,0.4,-41.86230003,1.45181299
YUS,17,0,2024-06-24T06:52:29.917Z,english_632.wav,0,pill,1515,25,4,Japanese,f,5,0.5,-65.18909296,0.00810665
YUS,17,0,2024-06-24T06:52:29.917Z,english_632.wav,0,pill,1515,25,4,Japanese,f,6,0.6,73.88921211,1.82551729
YUS,17,0,2024-06-24T06:52:29.917Z,english_632.wav,0,pill,1515,25,4,Japanese,f,7,0.7,-78.27421644,0.97441054
YUS,17,0,2024-06-24T06:52:29.917Z,english_632.wav,0,pill,1515,25,4,Japanese,f,8,0.8,-55.91875918,1.38456518
YUS,17,0,2024-06-24T06:52:29.917Z,english_632.wav,0,pill,1515,25,4,Japanese,f,9,0.9,38.52779866,1.39025004
YUS,17,0,2024-06-24T06:52:29.917Z,english_632.wav,0,pill,1515,25,4,Japanese,f,10,1.0,-63.00995407,0.73323837
YUS,17,0,2024-06-24T06:52:29.917Z,english_632.wav,0,pill,1515,25,4,Japanese,f,11,1.09391667,-47.01105768,1.12337895
YUS,18,0,2024-06-24T06:52:29.917Z,english_357.wav,0,pill,1237,25,4,Japanese,f,0,0.0,-87.96365185,1.52852124
YUS,18,0,2024-06-24T06:52:29.917Z,english_357.wav,0,pill,1237,25,4,Japanese,f,1,0.1,-8.5190019,1.93288072
YUS,18,0,2024-06-24T06:52:29.917Z,english_357.wav,0,pill,1237,25,4,Japanese,f,2,0.2,34.94660595,1.80201728
YUS,18,0,2024-06-24T06:52:29.917Z,english_357.wav,0,pill,1237,25,4,Japanese,f,3,0.3,74.01534503,0.94192251
YUS,18,0,2024-06-24T06:52:29.917Z,english_357.wav,0,pill,1237,25,4,Japanese,f,4,0.4,13.59562063,1.02469598
YUS,18,0,2024-06-24T06:52:29.917Z,english_357.wav,0,pill,1237,25,4,Japanese,f,5,0.5,-84.64423503,1.61646509
YUS,18,0,2024-06-24T06:52:29.917Z,english_357.wav,0,pill,1237,25,4,Japanese,f,6,0.6,-29.1291793,0.27950667
YUS,18,0,2024-06-24T06:52:29.917Z,english_357.wav,0,pill,1237,25,4,Japanese,f,7,0.7,-52.42503967,1.30320323
YUS,18,0,2024-06-24T06:52:29.917Z,english_357.wav,0,pill,1237,25,4,Japanese,f,8,0.8,21.24796122,1.07824702
YUS,18,0,2024-06-24T06:52:29.917Z,english_357.wav,0,pill,1237,25,4,Japanese,f,9,0.9,32.72205185,0.68433039
YUS,18,0,2024-06-24T06:52:29.917Z,english_357.wav,0,pill,1237,25,4,Japanese,f,10,1.0,-96.5222269,1.27621022
YUS,18,0,2024-06-24T06:52:29.917Z,english_357.wav,0,pill,1237,25,4,Japanese,f,11,1.09391667,30.40810686,1.23591368
YUS,19,0,2024-06-24T06:52:29.917Z,english_130.wav,0,pill,1031,25,4,Japanese,f,0,0.0,63.22786083,1.15410046
YUS,19,0,2024-06-24T06:52:29.917Z,english_130.wav,0,pill,1031,25,4,Japanese,f,1,0.1,87.85722404,0.37024368
YUS,19,0,2024-06-24T06:52:29.917Z,english_130.wav,0,pill,1031,25,4,Japanese,f,2,0.2,-11.67996756,1.81334
YUS,19,0,2024-06-24T06:52:29.917Z,english_130.wav,0,pill,1031,25,4,Japanese,f,3,0.3,-61.23287213,1.04249546
YUS,19,0,2024-06-24T06:52:29.917Z,english_130.wav,0,pill,1031,25,4,Japanese,f,4,0.4,31.74111168,0.8243923
YUS,19,0,2024-06-24T06:52:29.917Z,english_130.wav,0,pill,1031,25,4,Japanese,f,5,0.5,33.84141617,1.89113742
YUS,19,0,2024-06-24T06:52:29.917Z,english_130.wav,0,pill,1031,25,4,Japanese,f,6,0.6,19.96692936,0.69337223
YUS,19,0,2024-06-24T06:52:29.917Z,english_130.wav,0,pill,1031,25,4,Japanese,f,7,0.7,-37.06015238,1.01307283
YUS,19,0,2024-06-24T06:52:29.917Z,english_130.wav,0,pill,1031,25,4,Japanese,f,8,0.8,53.30817693,0.67908163
YUS,19,0,2024-06-24T06:52:29.917Z,english_130.wav,0,pill,1031,25,4,Japanese,f,9,0.9,56.319569,0.07541053
YUS,19,0,2024-06-24T06:52:29.917Z,english_130.wav,0,pill,1031,25,4,Japanese,f,10,1.0,38.79278484,1.95325555
YUS,19,0,2024-06-24T06:52:29.917Z,english_130.wav,0,pill,1031,25,4,Japanese,f,11,1.09391667,-4.91911249,0.98387982
YUS,20,0,2024-06-24T06:52:29.917Z,english_295.wav,0,pill,1382,25,4,Japanese,f,0,0.0,-21.33588045,0.64007693
YUS,20,0,2024-06-24T06:52:29.917Z,english_295.wav,0,pill,1382,25,4,Japanese,f,1,0.1,28.18111365,0.36210443
YUS,20,0,2024-06-24T06:52:29.917Z,english_295.wav,0,pill,1382,25,4,Japanese,f,2,0.2,-11.21795953,0.97510536
YUS,20,0,2024-06-24T06:52:29.917Z,english_295.wav,0,pill,1382,25,4,Japanese,f,3,0.3,-75.82203472,1.22570619
YUS,20,0,2024-06-24T06:52:29.917Z,english_295.wav,0,pill,1382,25,4,Japanese,f,4,0.4,36.75980824,1.08813481
YUS,20,0,2024-06-24T06:52:29.917Z,english_295.wav,0,pill,1382,25,4,Japanese,f,5,0.5,82.52508149,1.82668288
YUS,20,0,2024-06-24T06:52:29.917Z,english_295.wav,0,pill,1382,25,4,Japanese,f,6,0.6,-2.95672331,0.03453598
YUS,20,0,2024-06-24T06:52:29.917Z,english_295.wav,0,pill,1382,25,4,Japanese,f,7,0.7,78.98755658,1.07945409
YUS,20,0,2024-06-24T06:52:29.917Z,english_295.wav,0,pill,1382,25,4,Japanese,f,8,0.8,34.02541903,0.06380248
YUS,20,0,2024-06-24T06:52:29.917Z,english_295.wav,0,pill,1382,25,4,Japanese,f,9,0.9,40.25185798,0.46673817
YUS,20,0,2024-06-24T06:52:29.917Z,english_295.wav,0,pill,1382,25,4,Japanese,f,10,1.0,-23.49198504,0.55804019
YUS,20,0,2024-06-24T06:52:29.917Z,english_295.wav,0,pill,1382,25,4,Japanese,f,11,1.09391667,43.4619086,0.67911388
YUS,21,0,2024-06-24T06:52:29.917Z,english_629.wav,0,pill,913,25,4,Japanese,f,0,0.0,-98.30964243,0.81771725
YUS,21,0,2024-06-24T06:52:29.917Z,english_629.wav,0,pill,913,25,4,Japanese,f,1,0.1,-5.62970232,0.80248144
YUS,21,0,2024-06-24T06:52:29.917Z,english_629.wav,0,pill,913,25,4,Japanese,f,2,0.2,20.69990793,1.65272957
YUS,21,0,2024-06-24T06:52:29.917Z,english_629.wav,0,pill,913,25,4,Japanese,f,3,0.3,-4.68954038,0.79587507
YUS,21,0,2024-06-24T06:52:29.917Z,english_629.wav,0,pill,913,25,4,Japanese,f,4,0.4,-82.80499964,0.51843323
YUS,21,0,2024-06-24T06:52:29.917Z,english_629.wav,0,pill,913,25,4,Japanese,f,5,0.5,68.80297029,1.06630495
YUS,21,0,2024-06-24T06:52:29.917Z,english_629.wav,0,pill,913,25,4,Japanese,f,6,0.6,-24.62615081,0.85921764
YUS,21,0,2024-06-24T06:52:29.917Z,english_629.wav,0,pill,913,25,4,Japanese,f,7,0.7,-86.27878454,1.30572182
YUS,21,0,2024-06-24T06:52:29.917Z,english_629.wav,0,pill,913,25,4,Japanese,f,8,0.8,-88.66663155,0.67243508
YUS,21,0,2024-06-24T06:52:29.917Z,english_629.wav,0,pill,913,25,4,Japanese,f,9,0.9,8.97030431,0.68958588
YUS,21,0,2024-06-24T06:52:29.917Z,english_629.wav,0,pill,913,25,4,Japanese,f,10,1.0,-94.86018334,0.23451131
YUS,21,0,2024-06-24T06:52:29.917Z,english_629.wav,0,pill,913,25,4,Japanese,f,11,1.09391667,10.00961885,1.91010728
YUS,22,0,2024-06-24T06:52:29.917Z,english_518.wav,0,pill,1180,25,4,Japanese,f,0,0.0,22.01202895,1.18568215
YUS,22,0,2024-06-24T06:52:29.917Z,english_518.wav,0,pill,1180,25,4,Japanese,f,1,0.1,84.85911905,1.27730104
YUS,22,0,2024-06-24T06:52:29.917Z,english_518.wav,0,pill,1180,25,4,Japanese,f,2,0.2,6.76803646,1.88343212
YUS,22,0,2024-06-24T06:52:29.917Z,english_518.wav,0,pill,1180,25,4,Japanese,f,3,0.3,-12.31334731,1.70516568
YUS,22,0,2024-06-24T06:52:29.917Z,english_518.wav,0,pill,1180,25,4,Japanese,f,4,0.4,-5.3812793,1.21188584
YUS,22,0,2024-06-24T06:52:29.917Z,english_518.wav,0,pill,1180,25,4,Japanese,f,5,0.5,-39.12372131,1.55365309
YUS,22,0,2024-06-24T06:52:29.917Z,english_518.wav,0,pill,1180,25,4,Japanese,f,6,0.6,-19.59187687,1.67380265
YUS,22,0,2024-06-24T06:52:29.917Z,english_518.wav,0,pill,1180,25,4,Japanese,f,7,0.7,30.09174406,1.67954719
YUS,22,0,2024-06-24T06:52:29.917Z,english_518.wav,0,pill,1180,25,4,Japanese,f,8,0.8,12.21299005,1.45293932
YUS,22,0,2024-06-24T06:52:29.917Z,english_518.wav,0,pill,1180,25,4,Japanese,f,9,0.9,-30.98849923,1.42118442
YUS,22,0,2024-06-24T06:52:29.917Z,english_518.wav,0,pill,1180,25,4,Japanese,f,10,1.0,-66.88783357,1.84946345
YUS,22,0,2024-06-24T06:52:29.917Z,english_518.wav,0,pill,1180,25,4,Japanese,f,11,1.09391667,-47.66173225,1.44146986
YUS,23,0,2024-06-24T06:52:29.917Z,english_367.wav,0,pill,671,25,4,Japanese,f,0,0.0,40.69288354,1.09000391
YUS,23,0,2024-06-24T06:52:29.917Z,english_367.wav,0,pill,671,25,4,Japanese,f,1,0.1,-87.28554983,0.74880644
YUS,23,0,2024-06-24T06:52:29.917Z,english_367.wav,0,pill,671,25,4,Japanese,f,2,0.2,-64.50130746,0.58255578
YUS,23,0,2024-06-24T06:52:29.917Z,english_367.wav,0,pill,671,25,4,Japanese,f,3,0.3,65.0554957,0.66468618
YUS,23,0,2024-06-24T06:52:29.917Z,english_367.wav,0,pill,671,25,4,Japanese,f,4,0.4,-34.90387066,1.54627645
YUS,23,0,2024-06-24T06:52:29.917Z,english_367.wav,0,pill,671,25,4,Japanese,f,5,0.5,29.56597753,0.56660027
YUS,23,0,2024-06-24T06:52:29.917Z,english_367.wav,0,pill,671,25,4,Japanese,f,6,0.6,36.50215848,0.69792946
YUS,23,0,2024-06-24T06:52:29.917Z,english_367.wav,0,pill,671,25,4,Japanese,f,7,0.7,-55.69798386,1.00541299
YUS,23,0,2024-06-24T06:52:29.917Z,english_367.wav,0,pill,671,25,4,Japanese,f,8,0.8,12.84757482,0.65534854
YUS,23,0,2024-06-24T06:52:29.917Z,english_367.wav,0,pill,671,25,4,Japanese,f,9,0.9,-23.54866279,1.89531092
YUS,23,0,2024-06-24T06:52:29.917Z,english_367.wav,0,pill,671,25,4,Japanese,f,10,1.0,-55.73647309,0.87598705
YUS,23,0,2024-06-24T06:52:29.917Z,english_367.wav,0,pill,671,25,4,Japanese,f,11,1.09391667,79.84600893,1.75535151
YUS,24,0,2024-06-24T06:52:29.917Z,english_607.wav,0,pill,4501,25,4,Japanese,f,0,0.0,0.27599318,1.85195662
YUS,24,0,2024-06-24T06:52:29.917Z,english_607.wav,0,pill,4501,25,4,Japanese,f,1,0.1,61.54655284,0.01211705
YUS,24,0,2024-06-24T06:52:29.917Z,english_607.wav,0,pill,4501,25,4,Japanese,f,2,0.2,-45.68438061,1.01527113
YUS,24,0,2024-06-24T06:52:29.917Z,english_607.wav,0,pill,4501,25,4,Japanese,f,3,0.3,-56.50831868,0.58104245
YUS,24,0,2024-06-24T06:52:29.917Z,english_607.wav,0,pill,4501,25,4,Japanese,f,4,0.4,15.2577286,0.36467608
YUS,24,0,2024-06-24T06:52:29.917Z,english_607.wav,0,pill,4501,25,4,Japanese,f,5,0.5,-52.12017374,0.76758339
YUS,24,0,2024-06-24T06:52:29.917Z,english_607.wav,0,pill,4501,25,4,Japanese,f,6,0.6,97.83272545,1.21313057
YUS,24,0,2024-06-24T06:52:29.917Z,english_607.wav,0,pill,4501,25,4,Japanese,f,7,0.7,7.21834566,1.69539972
YUS,24,0,2024-06-24T06:52:29.917Z,english_607.wav,0,pill,4501,25,4,Japanese,f,8,0.8,8.71902974,0.38171646
YUS,24,0,2024-06-24T06:52:29.917Z,english_607.wav,0,pill,4501,25,4,Japanese,f,9,0.9,84.51998902,1.4848349
YUS,24,0,2024-06-24T06:52:29.917Z,english_607.wav,0,pill,4501,25,4,Japanese,f,10,1.0,-21.50673836,0.84163241
YUS,24,0,2024-06-24T06:52:29.917Z,english_607.wav,0,pill,4501,25,4,Japanese,f,11,1.09391667,68.90809966,0.34247873
YUS,25,0,2024-06-24T06:52:29.917Z,english_942.wav,0,pill,1956,25,4,Japanese,f,0,0.0,45.49166442,1.20258851
YUS,25,0,2024-06-24T06:52:29.917Z,english_942.wav,0,pill,1956,25,4,Japanese,f,1,0.1,-2.30850056,0.03180812
YUS,25,0,2024-06-24T06:52:29.917Z,english_942.wav,0,pill,1956,25,4,Japanese,f,2,0.2,43.64947202,1.4076024
YUS,25,0,2024-06-24T06:52:29.917Z,english_942.wav,0,pill,1956,25,4,Japanese,f,3,0.3,-52.04143122,0.10204445
YUS,25,0,2024-06-24T06:52:29.917Z,english_942.wav,0,pill,1956,25,4,Japanese,f,4,0.4,-8.91644013,1.90553817
YUS,25,0,2024-06-24T06:52:29.917Z,english_942.wav,0,pill,1956,25,4,Japanese,f,5,0.5,-27.81632839,0.46641983
YUS,25,0,2024-06-24T06:52:29.917Z,english_942.wav,0,pill,1956,25,4,Japanese,f,6,0.6,-9.72818952,0.6494667
YUS,25,0,2024-06-24T06:52:29.917Z,english_942.wav,0,pill,1956,25,4,Japanese,f,7,0.7,95.1925327,0.71171086
YUS,25,0,2024-06-24T06:52:29.917Z,english_942.wav,0,pill,1956,25,4,Japanese,f,8,0.8,72.04388461,0.45732561
YUS,25,0,2024-06-24T06:52:29.917Z,english_942.wav,0,pill,1956,25,4,Japanese,f,9,0.9,23.33853222,1.18338442
YUS,25,0,2024-06-24T06:52:29.917Z,english_942.wav,0,pill,1956,25,4,Japanese,f,10,1.0,59.86308522,1.65940409
YUS,25,0,2024-06-24T06:52:29.917Z,english_942.wav,0,pill,1956,25,4,Japanese,f,11,1.09391667,13.07645506,1.80591064
YUS,26,0,2024-06-24T06:52:29.917Z,english_934.wav,0,pill,3022,25,4,Japanese,f,0,0.0,-11.34943225,0.24415631
YUS,26,0,2024-06-24T06:52:29.917Z,english_934.wav,0,pill,3022,25,4,Japanese,f,1,0.1,65.85322301,1.37961224
YUS,26,0,2024-06-24T06:52:29.917Z,english_934.wav,0,pill,3022,25,4,Japanese,f,2,0.2,-85.4605192,1.63298201
YUS,26,0,2024-06-24T06:52:29.917Z,english_934.wav,0,pill,3022,25,4,Japanese,f,3,0.3,13.55265206,0.01798396
YUS,26,0,2024-06-24T06:52:29.917Z,english_934.wav,0,pill,3022,25,4,Japanese,f,4,0.4,0.50969379,0.66397169
YUS,26,0,2024-06-24T06:52:29.917Z,english_934.wav,0,pill,3022,25,4,Japanese,f,5,0.5,69.19486286,0.2241268
YUS,26,0,2024-06-24T06:52:29.917Z,english_934.wav,0,pill,3022,25,4,Japanese,f,6,0.6,-98.42209139,1.8505399
YUS,26,0,2024-06-24T06:52:29.917Z,english_934.wav,0,pill,3022,25,4,Japanese,f,7,0.7,-96.61496438,1.29472214
YUS,26,0,2024-06-24T06:52:29.917Z,english_934.wav,0,pill,3022,25,4,Japanese,f,8,0.8,-65.00160108,0.83065813
YUS,26,0,2024-06-24T06:52:29.917Z,english_934.wav,0,pill,3022,25,4,Japanese,f,9,0.9,48.73056023,1.34944931
YUS,26,0,2024-06-24T06:52:29.917Z,english_934.wav,0,pill,3022,25,4,Japanese,f,10,1.0,10.84569579,1.40216081
YUS,26,0,2024-06-24T06:52:29.917Z,english_934.wav,0,pill,3022,25,4,Japanese,f,11,1.09391667,97.87119684,1.98377201
YUS,27,0,2024-06-24T06:52:29.917Z,english_962.wav,0,peel,4712,25,4,Japanese,f,0,0.0,-16.60048673,0.55938727
YUS,27,0,2024-06-24T06:52:29.917Z,english_962.wav,0,peel,4712,25,4,Japanese,f,1,0.1,86.97119881,1.40731286
YUS,27,0,2024-06-24T06:52:29.917Z,english_962.wav,0,peel,4712,25,4,Japanese,f,2,0.2,60.43507778,0.29415182
YUS,27,0,2024-06-24T06:52:29.917Z,english_962.wav,0,peel,4712,25,4,Japanese,f,3,0.3,34.28838618,0.53536257
YUS,27,0,2024-06-24T06:52:29.917Z,english_962.wav,0,peel,4712,25,4,Japanese,f,4,0.4,-3.8203387,0.38742579
YUS,27,0,2024-06-24T06:52:29.917Z,english_962.wav,0,peel,4712,25,4,Japanese,f,5,0.5,82.49891636,0.91323434
YUS,27,0,2024-06-24T06:52:29.917Z,english_962.wav,0,peel,4712,25,4,Japanese,f,6,0.6,22.18578672,0.69102333
YUS,27,0,2024-06-24T06:52:29.917Z,english_962.wav,0,peel,4712,25,4,Japanese,f,7,0.7,20.13766391,0.47321431
YUS,27,0,2024-06-24T06:52:29.917Z,english_962.wav,0,peel,4712,25,4,Japanese,f,8,0.8,74.50191695,1.91525386
YUS,27,0,2024-06-24T06:52:29.917Z,english_962.wav,0,peel,4712,25,4,Japanese,f,9,0.9,68.04596391,0.05569164
YUS,27,0,2024-06-24T06:52:29.917Z,english_962.wav,0,peel,4712,25,4,Japanese,f,10,1.0,-41.45827676,1.5038001
YUS,27,0,2024-06-24T06:52:29.917Z,english_962.wav,0,peel,4712,25,4,Japanese,f,11,1.09391667,-81.40338911,1.11433977
YUS,28,0,2024-06-24T06:52:29.917Z,english_797.wav,0,pill,4804,25,4,Japanese,f,0,0.0,-63.71190355,0.64786632
YUS,28,0,2024-06-24T06:52:29.917Z,english_797.wav,0,pill,4804,25,4,Japanese,f,1,0.1,-50.79402881,0.65066378
YUS,28,0,2024-06-24T06:52:29.917Z,english_797.wav,0,pill,4804,25,4,Japanese,f,2,0.2,32.30736556,0.25622374
YUS,28,0,2024-06-24T06:52:29.917Z,english_797.wav,0,pill,4804,25,4,Japanese,f,3,0.3,64.02493123,0.5898572
YUS,28,0,2024-06-24T06:52:29.917Z,english_797.wav,0,pill,4804,25,4,Japanese,f,4,0.4,33.19195817,0.35552041
YUS,28,0,2024-06-24T06:52:29.917Z,english_797.wav,0,pill,4804,25,4,Japanese,f,5,0.5,-86.78102625,0.44475986
YUS,28,0,2024-06-24T06:52:29.917Z,english_797.wav,0,pill,4804,25,4,Japanese,f,6,0.6,66.48077763,1.98126615
YUS,28,0,2024-06-24T06:52:29.917Z,english_797.wav,0,pill,4804,25,4,Japanese,f,7,0.7,77.3640722,1.0037779
YUS,28,0,2024-06-24T06:52:29.917Z,english_797.wav,0,pill,4804,25,4,Japanese,f,8,0.8,-43.13358698,1.93292513
YUS,28,0,2024-06-24T06:52:29.917Z,english_797.wav,0,pill,4804,25,4,Japanese,f,9,0.9,16.8031196,1.4698385
YUS,28,0,2024-06-24T06:52:29.917Z,english_797.wav,0,pill,4804,25,4,Japanese,f,10,1.0,-24.13411638,0.72715411
YUS,28,0,2024-06-24T06:52:29.917Z,english_797.wav,0,pill,4804,25,4,Japanese,f,11,1.09391667,-2.75355837,1.46134136
YUS,29,0,2024-06-24T06:52:29.917Z,english_471.wav,0,pill,1071,25,4,Japanese,f,0,0.0,-44.33438949,1.24178701
YUS,29,0,2024-06-24T06:52:29.917Z,english_471.wav,0,pill,1071,25,4,Japanese,f,1,0.1,16.47774329,1.49559335
YUS,29,0,2024-06-24T06:52:29.917Z,english_471.wav,0,pill,1071,25,4,Japanese,f,2,0.2,-22.18014429,1.46207388
YUS,29,0,2024-06-24T06:52:29.917Z,english_471.wav,0,pill,1071,25,4,Japanese,f,3,0.3,96.62980594,0.79768684
YUS,29,0,2024-06-24T06:52:29.917Z,english_471.wav,0,pill,1071,25,4,Japanese,f,4,0.4,0.22905681,0.93952191
YUS,29,0,2024-06-24T06:52:29.917Z,english_471.wav,0,pill,1071,25,4,Japanese,f,5,0.5,25.29876176,1.31580264
YUS,29,0,2024-06-24T06:52:29.917Z,english_471.wav,0,pill,1071,25,4,Japanese,f,6,0.6,-1.90422532,0.66385174
YUS,29,0,2024-06-24T06:52:29.917Z,english_471.wav,0,pill,1071,25,4,Japanese,f,7,0.7,20.77355212,0.36428101
YUS,29,0,2024-06-24T06:52:29.917Z,english_471.wav,0,pill,1071,25,4,Japanese,f,8,0.8,26.61706742,1.49472861
YUS,29,0,2024-06-24T06:52:29.917Z,english_471.wav,0,pill,1071,25,4,Japanese,f,9,0.9,-76.46197336,1.78460372
YUS,29,0,2024-06-24T06:52:29.917Z,english_471.wav,0,pill,1071,25,4,Japanese,f,10,1.0,74.78681403,1.14119983
YUS,29,0,2024-06-24T06:52:29.917Z,english_471.wav,0,pill,1071,25,4,Japanese,f,11,1.09391667,70.35269737,0.45644683
YUS,30,0,2024-06-24T06:52:29.917Z,english_873.wav,0,pill,755,25,4,Japanese,f,0,0.0,-5.34184308,0.18534223
YUS,30,0,2024-06-24T06:52:29.917Z,english_873.wav,0,pill,755,25,4,Japanese,f,1,0.1,29.86705528,1.00948066
YUS,30,0,2024-06-24T06:52:29.917Z,english_873.wav,0,pill,755,25,4,Japanese,f,2,0.2,-53.62087934,0.93104213
YUS,30,0,2024-06-24T06:52:29.917Z,english_873.wav,0,pill,755,25,4,Japanese,f,3,0.3,-59.16709203,1.19025309
YUS,30,0,2024-06-24T06:52:29.917Z,english_873.wav,0,pill,755,25,4,Japanese,f,4,0.4,69.60141357,1.48608178
YUS,30,0,2024-06-24T06:52:29.917Z,english_873.wav,0,pill,755,25,4,Japanese,f,5,0.5,-44.07046907,0.89447273
YUS,30,0,2024-06-24T06:52:29.917Z,english_873.wav,0,pill,755,25,4,Japanese,f,6,0.6,55.781826,0.18822797
YUS,30,0,2024-06-24T06:52:29.917Z,english_873.wav,0,pill,755,25,4,Japanese,f,7,0.7,-40.21183655,0.79732375
YUS,30,0,2024-06-24T06:52:29.917Z,english_873.wav,0,pill,755,25,4,Japanese,f,8,0.8,9.01550121,0.51650354
YUS,30,0,2024-06-24T06:52:29.917Z,english_873.wav,0,pill,755,25,4,Japanese,f,9,0.9,-15.28098321,0.06272522
YUS,30,0,2024-06-24T06:52:29.917Z,english_873.wav,0,pill,755,25,4,Japanese,f,10,1.0,-64.77079799,1.63736384
YUS,30,0,2024-06-24T06:52:29.917Z,english_873.wav,0,pill,755,25,4,Japanese,f,11,1.09391667,80.68199225,1.95600343
YUS,31,0,2024-06-24T06:52:29.917Z,english_906.wav,0,pill,1034,25,4,Japanese,f,0,0.0,64.42168111,1.18257449
YUS,31,0,2024-06-24T06:52:29.917Z,english_906.wav,0,pill,1034,25,4,Japanese,f,1,0.1,-75.32695158,0.45696721
YUS,31,0,2024-06-24T06:52:29.917Z,english_906.wav,0,pill,1034,25,4,Japanese,f,2,0.2,-55.78357421,1.62263234
YUS,31,0,2024-06-24T06:52:29.917Z,english_906.wav,0,pill,1034,25,4,Japanese,f,3,0.3,26.12850677,0.83346952
YUS,31,0,2024-06-24T06:52:29.917Z,english_906.wav,0,pill,1034,25,4,Japanese,f,4,0.4,29.10012221,0.76465534
YUS,31,0,2024-06-24T06:52:29.917Z,english_906.wav,0,pill,1034,25,4,Japanese,f,5,0.5,7.95357938,1.66892635
YUS,31,0,2024-06-24T06:52:29.917Z,english_906.wav,0,pill,1034,25,4,Japanese,f,6,0.6,-42.71112843,1.28815297
YUS,31,0,2024-06-24T06:52:29.917Z,english_906.wav,0,pill,1034,25,4,Japanese,f,7,0.7,-60.64092572,1.91632775
YUS,31,0,2024-06-24T06:52:29.917Z,english_906.wav,0,pill,1034,25,4,Japanese,f,8,0.8,-45.42100425,1.00822189
YUS,31,0,2024-06-24T06:52:29.917Z,english_906.wav,0,pill,1034,25,4,Japanese,f,9,0.9,59.9641991,0.39736855
YUS,31,0,2024-06-24T06:52:29.917Z,english_906.wav,0,pill,1034,25,4,Japanese,f,10,1.0,50.66532668,0.09371369
YUS,31,0,2024-06-24T06:52:29.917Z,english_906.wav,0,pill,1034,25,4,Japanese,f,11,1.09391667,-51.29146387,1.05932382
YUS,32,0,2024-06-24T06:52:29.917Z,english_352.wav,0,pill,601,25,4,Japanese,f,0,0.0,84.78119141,1.3229017
YUS,32,0,2024-06-24T06:52:29.917Z,english_352.wav,0,pill,601,25,4,Japanese,f,1,0.1,88.75454048,0.55829323
YUS,32,0,2024-06-24T06:52:29.917Z,english_352.wav,0,pill,601,25,4,Japanese,f,2,0.2,23.94901813,0.0402509
YUS,32,0,2024-06-24T06:52:29.917Z,english_352.wav,0,pill,601,25,4,Japanese,f,3,0.3,-18.90676095,0.61640233
YUS,32,0,2024-06-24T06:52:29.917Z,english_352.wav,0,pill,601,25,4,Japanese,f,4,0.4,60.06070111,0.96654272
YUS,32,0,2024-06-24T06:52:29.917Z,english_352.wav,0,pill,601,25,4,Japanese,f,5,0.5,62.40800149,0.92098566
YUS,32,0,2024-06-24T06:52:29.917Z,english_352.wav,0,pill,601,25,4,Japanese,f,6,0.6,3.12749593,1.84821975
YUS,32,0,2024-06-24T06:52:29.917Z,english_352.wav,0,pill,601,25,4,Japanese,f,7,0.7,56.86714317,0.23838951
YUS,32,0,2024-06-24T06:52:29.917Z,english_352.wav,0,pill,601,25,4,Japanese,f,8,0.8,-52.83270381,0.65493925
YUS,32,0,2024-06-24T06:52:29.917Z,english_352.wav,0,pill,601,25,4,Japanese,f,9,0.9,-40.5099806,1.28053314
YUS,32,0,2024-06-24T06:52:29.917Z,english_352.wav,0,pill,601,25,4,Japanese,f,10,1.0,-16.36538997,0.87321298
YUS,32,0,2024-06-24T06:52:29.917Z,english_352.wav,0,pill,601,25,4,Japanese,f,11,1.09391667,22.50184759,0.74058038
YUS,33,0,2024-06-24T06:52:29.917Z,english_356.wav,0,pill,1515,25,4,Japanese,f,0,0.0,32.76906958,0.08562483
YUS,33,0,2024-06-24T06:52:29.917Z,english_356.wav,0,pill,1515,25,4,Japanese,f,1,0.1,-4.50463472,0.71215991
YUS,33,0,2024-06-24T06:52:29.917Z,english_356.wav,0,pill,1515,25,4,Japanese,f,2,0.2,-3.50879641,0.27192591
YUS,33,0,2024-06-24T06:52:29.917Z,english_356.wav,0,pill,1515,25,4,Japanese,f,3,0.3,-66.50182595,1.84647675
YUS,33,0,2024-06-24T06:52:29.917Z,english_356.wav,0,pill,1515,25,4,Japanese,f,4,0.4,-41.87578379,0.94018547
YUS,33,0,2024-06-24T06:52:29.917Z,english_356.wav,0,pill,1515,25,4,Japanese,f,5,0.5,15.06829484,0.35538969
YUS,33,0,2024-06-24T06:52:29.917Z,english_356.wav,0,pill,1515,25,4,Japanese,f,6,0.6,-0.09178899,0.67852857
YUS,33,0,2024-06-24T06:52:29.917Z,english_356.wav,0,pill,1515,25,4,Japanese,f,7,0.7,-46.92797448,1.60890004
YUS,33,0,2024-06-24T06:52:29.917Z,english_356.wav,0,pill,1515,25,4,Japanese,f,8,0.8,77.06532678,0.18175686
YUS,33,0,2024-06-24T06:52:29.917Z,english_356.wav,0,pill,1515,25,4,Japanese,f,9,0.9,26.9349071,1.60704056
YUS,33,0,2024-06-24T06:52:29.917Z,english_356.wav,0,pill,1515,25,4,Japanese,f,10,1.0,1.26347583,0.84129373
YUS,33,0,2024-06-24T06:52:29.917Z,english_356.wav,0,pill,1515,25,4,Japanese,f,11,1.09391667,-52.5712343,0.27010089
YUS,34,0,2024-06-24T06:52:29.917Z,english_743.wav,0,pill,553,25,4,Japanese,f,0,0.0,97.77122609,0.40936323
YUS,34,0,2024-06-24T06:52:29.917Z,english_743.wav,0,pill,553,25,4,Japanese,f,1,0.1,75.39760322,0.83333714
YUS,34,0,2024-06-24T06:52:29.917Z,english_743.wav,0,pill,553,25,4,Japanese,f,2,0.2,-92.56300928,1.9299588
YUS,34,0,2024-06-24T06:52:29.917Z,english_743.wav,0,pill,553,25,4,Japanese,f,3,0.3,73.60734954,0.31044819
YUS,34,0,2024-06-24T06:52:29.917Z,english_743.wav,0,pill,553,25,4,Japanese,f,4,0.4,84.82420222,1.11112706
YUS,34,0,2024-06-24T06:52:29.917Z,english_743.wav,0,pill,553,25,4,Japanese,f,5,0.5,-57.35733587,0.30641345
YUS,34,0,2024-06-24T06:52:29.917Z,english_743.wav,0,pill,553,25,4,Japanese,f,6,0.6,36.05799571,1.79191215
YUS,34,0,2024-06-24T06:52:29.917Z,english_743.wav,0,pill,553,25,4,Japanese,f,7,0.7,-80.10781894,1.43353199
YUS,34,0,2024-06-24T06:52:29.917Z,english_743.wav,0,pill,553,25,4,Japanese,f,8,0.8,79.81818761,0.61341243
YUS,34,0,2024-06-24T06:52:29.917Z,english_743.wav,0,pill,553,25,4,Japanese,f,9,0.9,71.53815245,1.6920607
YUS,34,0,2024-06-24T06:52:29.917Z,english_743.wav,0,pill,553,25,4,Japanese,f,10,1.0,39.3075371,0.85862509
YUS,34,0,2024-06-24T06:52:29.917Z,english_743.wav,0,pill,553,25,4,Japanese,f,11,1.09391667,85.61049635,0.78833379
YUS,35,0,2024-06-24T06:52:29.917Z,english_899.wav,0,pill,658,25,4,Japanese,f,0,0.0,36.05043058,0.90588284
YUS,35,0,2024-06-24T06:52:29.917Z,english_899.wav,0,pill,658,25,4,Japanese,f,1,0.1,33.3197066,1.60760833
YUS,35,0,2024-06-24T06:52:29.917Z,english_899.wav,0,pill,658,25,4,Japanese,f,2,0.2,-89.01295916,1.45467369
YUS,35,0,2024-06-24T06:52:29.917Z,english_899.wav,0,pill,658,25,4,Japanese,f,3,0.3,98.52221139,0.4019209
YUS,35,0,2024-06-24T06:52:29.917Z,english_899.wav,0,pill,658,25,4,Japanese,f,4,0.4,-46.63657868,1.10920818
YUS,35,0,2024-06-24T06:52:29.917Z,english_899.wav,0,pill,658,25,4,Japanese,f,5,0.5,-65.65669191,1.04007942
YUS,35,0,2024-06-24T06:52:29.917Z,english_899.wav,0,pill,658,25,4,Japanese,f,6,0.6,76.90163594,0.20562094
YUS,35,0,2024-06-24T06:52:29.917Z,english_899.wav,0,pill,658,25,4,Japanese,f,7,0.7,36.98286823,0.26673383
YUS,35,0,2024-06-24T06:52:29.917Z,english_899.wav,0,pill,658,25,4,Japanese,f,8,0.8,58.54417199,0.17186704
YUS,35,0,2024-06-24T06:52:29.917Z,english_899.wav,0,pill,658,25,4,Japanese,f,9,0.9,37.91895182,1.28815156
YUS,35,0,2024-06-24T06:52:29.917Z,english_899.wav,0,pill,658,25,4,Japanese,f,10,1.0,-84.2401269,0.03412997
YUS,35,0,2024-06-24T06:52:29.917Z,english_899.wav,0,pill,658,25,4,Japanese,f,11,1.09391667,-3.10665722,1.51688145
YUS,36,0,2024-06-24T06:52:29.917Z,english_370.wav,0,peel,4322,25,4,Japanese,f,0,0.0,91.45146765,1.23282005
YUS,36,0,2024-06-24T06:52:29.917Z,english_370.wav,0,peel,4322,25,4,Japanese,f,1,0.1,-35.10409157,0.25999131
YUS,36,0,2024-06-24T06:52:29.917Z,english_370.wav,0,peel,4322,25,4,Japanese,f,2,0.2,94.76486666,1.34886846
YUS,36,0,2024-06-24T06:52:29.917Z,english_370.wav,0,peel,4322,25,4,Japanese,f,3,0.3,-53.94210215,0.83234793
YUS,36,0,2024-06-24T06:52:29.917Z,english_370.wav,0,peel,4322,25,4,Japanese,f,4,0.4,84.25045535,0.3574364
YUS,36,0,2024-06-24T06:52:29.917Z,english_370.wav,0,peel,4322,25,4,Japanese,f,5,0.5,23.38990659,1.13678853
YUS,36,0,2024-06-24T06:52:29.917Z,english_370.wav,0,peel,4322,25,4,Japanese,f,6,0.6,-19.20564455,1.71477151
YUS,36,0,2024-06-24T06:52:29.917Z,english_370.wav,0,peel,4322,25,4,Japanese,f,7,0.7,79.34721748,0.6734852
YUS,36,0,2024-06-24T06:52:29.917Z,english_370.wav,0,peel,4322,25,4,Japanese,f,8,0.8,-19.93049437,1.07446176
YUS,36,0,2024-06-24T06:52:29.917Z,english_370.wav,0,peel,4322,25,4,Japanese,f,9,0.9,-60.8441274,1.23242025
YUS,36,0,2024-06-24T06:52:29.917Z,english_370.wav,0,peel,4322,25,4,Japanese,f,10,1.0,-1.38990897,1.52786138
YUS,36,0,2024-06-24T06:52:29.917Z,english_370.wav,0,peel,4322,25,4,Japanese,f,11,1.09391667,24.56704264,1.4714842
YUS,37,0,2024-06-24T06:52:29.917Z,english_126.wav,0,pill,1054,25,4,Japanese,f,0,0.0,17.23277349,0.07681875
YUS,37,0,2024-06-24T06:52:29.917Z,english_126.wav,0,pill,1054,25,4,Japanese,f,1,0.1,-82.02564831,1.15308157
YUS,37,0,2024-06-24T06:52:29.917Z,english_126.wav,0,pill,1054,25,4,Japanese,f,2,0.2,-89.77449202,0.24325653
YUS,37,0,2024-06-24T06:52:29.917Z,english_126.wav,0,pill,1054,25,4,Japanese,f,3,0.3,-51.19975639,0.26308615
YUS,37,0,2024-06-24T06:52:29.917Z,english_126.wav,0,pill,1054,25,4,Japanese,f,4,0.4,-15.70542785,1.15666053
YUS,37,0,2024-06-24T06:52:29.917Z,english_126.wav,0,pill,1054,25,4,Japanese,f,5,0.5,-86.49178279,0.93452427
YUS,37,0,2024-06-24T06:52:29.917Z,english_126.wav,0,pill,1054,25,4,Japanese,f,6,0.6,-63.9993416,1.80863716
YUS,37,0,2024-06-24T06:52:29.917Z,english_126.wav,0,pill,1054,25,4,Japanese,f,7,0.7,15.94919888,1.09862854
YUS,37,0,2024-06-24T06:52:29.917Z,english_126.wav,0,pill,1054,25,4,Japanese,f,8,0.8,14.83212149,1.20748097
YUS,37,0,2024-06-24T06:52:29.917Z,english_126.wav,0,pill,1054,25,4,Japanese,f,9,0.9,89.46410037,1.44558157
YUS,37,0,2024-06-24T06:52:29.917Z,english_126.wav,0,pill,1054,25,4,Japanese,f,10,1.0,-9.32479478,0.49090758
YUS,37,0,2024-06-24T06:52:29.917Z,english_126.wav,0,pill,1054,25,4,Japanese,f,11,1.09391667,36.75071045,0.88504815
YUS,38,0,2024-06-24T06:52:29.917Z,english_384.wav,0,pill,1198,25,4,Japanese,f,0,0.0,25.59746769,0.31530466
YUS,38,0,2024-06-24T06:52:29.917Z,english_384.wav,0,pill,1198,25,4,Japanese,f,1,0.1,77.10112132,1.4723663
YUS,38,0,2024-06-24T06:52:29.917Z,english_384.wav,0,pill,1198,25,4,Japanese,f,2,0.2,-44.89854527,0.76042634
YUS,38,0,2024-06-24T06:52:29.917Z,english_384.wav,0,pill,1198,25,4,Japanese,f,3,0.3,-92.39491606,1.26765442
YUS,38,0,2024-06-24T06:52:29.917Z,english_384.wav,0,pill,1198,25,4,Japanese,f,4,0.4,-7.21963548,0.4561299
YUS,38,0,2024-06-24T06:52:29.917Z,english_384.wav,0,pill,1198,25,4,Japanese,f,5,0.5,-12.57418593,0.66006902
YUS,38,0,2024-06-24T06:52:29.917Z,english_384.wav,0,pill,1198,25,4,Japanese,f,6,0.6,-91.58210139,0.52858229
YUS,38,0,2024-06-24T06:52:29.917Z,english_384.wav,0,pill,1198,25,4,Japanese,f,7,0.7,-83.16364251,0.95307861
YUS,38,0,2024-06-24T06:52:29.917Z,english_384.wav,0,pill,1198,25,4,Japanese,f,8,0.8,-99.35642135,1.25910316
YUS,38,0,2024-06-24T06:52:29.917Z,english_384.wav,0,pill,1198,25,4,Japanese,f,9,0.9,39.42669245,1.31614459
YUS,38,0,2024-06-24T06:52:29.917Z,english_384.wav,0,pill,1198,25,4,Japanese,f,10,1.0,2.14731946,0.23757066
YUS,38,0,2024-06-24T06:52:29.917Z,english_384.wav,0,pill,1198,25,4,Japanese,f,11,1.09391667,-81.26968126,1.34705459
YUS,39,0,2024-06-24T06:52:29.917Z,english_19.wav,0,pill,747,25,4,Japanese,f,0,0.0,34.83932387,0.39991481
YUS,39,0,2024-06-24T06:52:29.917Z,english_19.wav,0,pill,747,25,4,Japanese,f,1,0.1,-48.03564672,0.42708011
YUS,39,0,2024-06-24T06:52:29.917Z,english_19.wav,0,pill,747,25,4,Japanese,f,2,0.2,-39.79994301,1.66102439
YUS,39,0,2024-06-24T06:52:29.917Z,english_19.wav,0,pill,747,25,4,Japanese,f,3,0.3,55.51204031,0.51091135
YUS,39,0,2024-06-24T06:52:29.917Z,english_19.wav,0,pill,747,25,4,Japanese,f,4,0.4,-31.38608709,1.29385953
YUS,39,0,2024-06-24T06:52:29.917Z,english_19.wav,0,pill,747,25,4,Japanese,f,5,0.5,14.87165635,0.69347698
YUS,39,0,2024-06-24T06:52:29.917Z,english_19.wav,0,pill,747,25,4,Japanese,f,6,0.6,17.74253656,0.8818624
YUS,39,0,2024-06-24T06:52:29.917Z,english_19.wav,0,pill,747,25,4,Japanese,f,7,0.7,73.83891975,1.31039877
YUS,39,0,2024-06-24T06:52:29.917Z,english_19.wav,0,pill,747,25,4,Japanese,f,8,0.8,17.68085004,0.1856431
YUS,39,0,2024-06-24T06:52:29.917Z,english_19.wav,0,pill,747,25,4,Japanese,f,9,0.9,-24.1862435,0.16878638
YUS,39,0,2024-06-24T06:52:29.917Z,english_19.wav,0,pill,747,25,4,Japanese,f,10,1.0,-54.03404818,0.18582405
YUS,39,0,2024-06-24T06:52:29.917Z,english_19.wav,0,pill,747,25,4,Japanese,f,11,1.09391667,28.67386017,0.29170194
YUS,40,0,2024-06-24T06:52:29.917Z,english_961.wav,0,pill,1780,25,4,Japanese,f,0,0.0,81.83147696,1.4308336
YUS,40,0,2024-06-24T06:52:29.917Z,english_961.wav,0,pill,1780,25,4,Japanese,f,1,0.1,-55.44397817,0.90947764
YUS,40,0,2024-06-24T06:52:29.917Z,english_961.wav,0,pill,1780,25,4,Japanese,f,2,0.2,88.24181947,0.90243859
YUS,40,0,2024-06-24T06:52:29.917Z,english_961.wav,0,pill,1780,25,4,Japanese,f,3,0.3,-15.15816006,0.46936311
YUS,40,0,2024-06-24T06:52:29.917Z,english_961.wav,0,pill,1780,25,4,Japanese,f,4,0.4,-50.45638081,1.55927191
YUS,40,0,2024-06-24T06:52:29.917Z,english_961.wav,0,pill,1780,25,4,Japanese,f,5,0.5,69.96256983,0.75129721
YUS,40,0,2024-06-24T06:52:29.917Z,english_961.wav,0,pill,1780,25,4,Japanese,f,6,0.6,-17.06813057,1.46735594
YUS,40,0,2024-06-24T06:52:29.917Z,english_961.wav,0,pill,1780,25,4,Japanese,f,7,0.7,73.47800457,1.92767727
YUS,40,0,2024-06-24T06:52:29.917Z,english_961.wav,0,pill,1780,25,4,Japanese,f,8,0.8,-64.26564282,0.4665746
YUS,40,0,2024-06-24T06:52:29.917Z,english_961.wav,0,pill,1780,25,4,Japanese,f,9,0.9,75.43502269,1.80828177
YUS,40,0,2024-06-24T06:52:29.917Z,english_961.wav,0,pill,1780,25,4,Japanese,f,10,1.0,4.4137361,1.76060205
YUS,40,0,2024-06-24T06:52:29.917Z,english_961.wav,0,pill,1780,25,4,Japanese,f,11,1.09391667,-27.6807027,1.95049148
YUS,41,0,2024-06-24T06:52:29.917Z,english_166.wav,0,pill,1674,25,4,Japanese,f,0,0.0,-22.47224396,0.79935629
YUS,41,0,2024-06-24T06:52:29.917Z,english_166.wav,0,pill,1674,25,4,Japanese,f,1,0.1,8.34418228,1.08766258
YUS,41,0,2024-06-24T06:52:29.917Z,english_166.wav,0,pill,1674,25,4,Japanese,f,2,0.2,-26.80375044,0.88793969
YUS,41,0,2024-06-24T06:52:29.917Z,english_166.wav,0,pill,1674,25,4,Japanese,f,3,0.3,-25.22426401,1.85581966
YUS,41,0,2024-06-24T06:52:29.917Z,english_166.wav,0,pill,1674,25,4,Japanese,f,4,0.4,-44.17860095,1.74261815
YUS,41,0,2024-06-24T06:52:29.917Z,english_166.wav,0,pill,1674,25,4,Japanese,f,5,0.5,-7.8395137,0.67828824
YUS,41,0,2024-06-24T06:52:29.917Z,english_166.wav,0,pill,1674,25,4,Japanese,f,6,0.6,42.03338864,0.30993225
YUS,41,0,2024-06-24T06:52:29.917Z,english_166.wav,0,pill,1674,25,4,Japanese,f,7,0.7,50.48936268,1.83209491
YUS,41,0,2024-06-24T06:52:29.917Z,english_166.wav,0,pill,1674,25,4,Japanese,f,8,0.8,-79.33283531,1.96795539
YUS,41,0,2024-06-24T06:52:29.917Z,english_166.wav,0,pill,1674,25,4,Japanese,f,9,0.9,57.67304972,0.73278394
YUS,41,0,2024-06-24T06:52:29.917Z,english_166.wav,0,pill,1674,25,4,Japanese,f,10,1.0,75.92662412,1.69577801
YUS,41,0,2024-06-24T06:52:29.917Z,english_166.wav,0,pill,1674,25,4,Japanese,f,11,1.09391667,-5.06556073,0.31756742
YUS,42,0,2024-06-24T06:52:29.917Z,english_429.wav,0,pill,1977,25,4,Japanese,f,0,0.0,35.99149225,1.15996834
YUS,42,0,2024-06-24T06:52:29.917Z,english_429.wav,0,pill,1977,25,4,Japanese,f,1,0.1,-74.15243919,1.78612781
YUS,42,0,2024-06-24T06:52:29.917Z,english_429.wav,0,pill,1977,25,4,Japanese,f,2,0.2,-66.98958389,1.07132938
YUS,42,0,2024-06-24T06:52:29.917Z,english_429.wav,0,pill,1977,25,4,Japanese,f,3,0.3,-17.85195751,0.01687876
YUS,42,0,2024-06-24T06:52:29.917Z,english_429.wav,0,pill,1977,25,4,Japanese,f,4,0.4,-73.89259621,0.18602523
YUS,42,0,2024-06-24T06:52:29.917Z,english_429.wav,0,pill,1977,25,4,Japanese,f,5,0.5,79.15421071,1.63202806
YUS,42,0,2024-06-24T06:52:29.917Z,english_429.wav,0,pill,1977,25,4,Japanese,f,6,0.6,-46.04257139,0.71186645
YUS,42,0,2024-06-24T06:52:29.917Z,english_429.wav,0,pill,1977,25,4,Japanese,f,7,0.7,-20.15951385,1.59705108
YUS,42,0,2024-06-24T06:52:29.917Z,english_429.wav,0,pill,1977,25,4,Japanese,f,8,0.8,-88.88014071,0.92556725
YUS,42,0,2024-06-24T06:52:29.917Z,english_429.wav,0,pill,1977,25,4,Japanese,f,9,0.9,85.9209564,1.19440403
YUS,42,0,2024-06-24T06:52:29.917Z,english_429.wav,0,pill,1977,25,4,Japanese,f,10,1.0,-45.56975308,1.44802402
YUS,42,0,2024-06-24T06:52:29.917Z,english_429.wav,0,pill,1977,25,4,Japanese,f,11,1.09391667,-32.13799224,1.37788661
YUS,43,0,2024-06-24T06:52:29.917Z,english_900.wav,0,pill,490,25,4,Japanese,f,0,0.0,-38.9822336,0.73560369
YUS,43,0,2024-06-24T06:52:29.917Z,english_900.wav,0,pill,490,25,4,Japanese,f,1,0.1,-50.03499546,1.14426311
YUS,43,0,2024-06-24T06:52:29.917Z,english_900.wav,0,pill,490,25,4,Japanese,f,2,0.2,-63.75664225,0.04637744
YUS,43,0,2024-06-24T06:52:29.917Z,english_900.wav,0,pill,490,25,4,Japanese,f,3,0.3,20.28138285,1.01450827
YUS,43,0,2024-06-24T06:52:29.917Z,english_900.wav,0,pill,490,25,4,Japanese,f,4,0.4,93.33922424,1.77013863
YUS,43,0,2024-06-24T06:52:29.917Z,english_900.wav,0,pill,490,25,4,Japanese,f,5,0.5,1.26373227,1.59303793
YUS,43,0,2024-06-24T06:52:29.917Z,english_900.wav,0,pill,490,25,4,Japanese,f,6,0.6,19.48332465,1.12600277
YUS,43,0,2024-06-24T06:52:29.917Z,english_900.wav,0,pill,490,25,4,Japanese,f,7,0.7,67.63688751,0.62325076
YUS,43,0,2024-06-24T06:52:29.917Z,english_900.wav,0,pill,490,25,4,Japanese,f,8,0.8,55.68273017,1.46299944
YUS,43,0,2024-06-24T06:52:29.917Z,english_900.wav,0,pill,490,25,4,Japanese,f,9,0.9,-9.55904988,0.28620123
YUS,43,0,2024-06-24T06:52:29.917Z,english_900.wav,0,pill,490,25,4,Japanese,f,10,1.0,75.63174295,0.87688791
YUS,43,0,2024-06-24T06:52:29.917Z,english_900.wav,0,pill,490,25,4,Japanese,f,11,1.09391667,68.02721405,0.93516031
YUS,44,0,2024-06-24T06:52:29.917Z,english_131.wav,0,pill,519,25,4,Japanese,f,0,0.0,0.31363537,1.18724551
YUS,44,0,2024-06-24T06:52:29.917Z,english_131.wav,0,pill,519,25,4,Japanese,f,1,0.1,36.71486201,1.11707061
YUS,44,0,2024-06-24T06:52:29.917Z,english_131.wav,0,pill,519,25,4,Japanese,f,2,0.2,-43.77123754,0.00275246
YUS,44,0,2024-06-24T06:52:29.917Z,english_131.wav,0,pill,519,25,4,Japanese,f,3,0.3,-25.02514695,1.15512468
YUS,44,0,2024-06-24T06:52:29.917Z,english_131.wav,0,pill,519,25,4,Japanese,f,4,0.4,-57.33579205,1.12677457
YUS,44,0,2024-06-24T06:52:29.917Z,english_131.wav,0,pill,519,25,4,Japanese,f,5,0.5,-86.86546268,1.05779514
YUS,44,0,2024-06-24T06:52:29.917Z,english_131.wav,0,pill,519,25,4,Japanese,f,6,0.6,34.68309006,1.76361287
YUS,44,0,2024-06-24T06:52:29.917Z,english_131.wav,0,pill,519,25,4,Japanese,f,7,0.7,-54.571254,1.49422438
YUS,44,0,2024-06-24T06:52:29.917Z,english_131.wav,0,pill,519,25,4,Japanese,f,8,0.8,15.2602828,0.77084465
YUS,44,0,2024-06-24T06:52:29.917Z,english_131.wav,0,pill,519,25,4,Japanese,f,9,0.9,37.40968803,0.77617306
YUS,44,0,2024-06-24T06:52:29.917Z,english_131.wav,0,pill,519,25,4,Japanese,f,10,1.0,-75.44923375,0.87602882
YUS,44,0,2024-06-24T06:52:29.917Z,english_131.wav,0,pill,519,25,4,Japanese,f,11,1.09391667,22.36121129,1.56580011
YUS,45,0,2024-06-24T06:52:29.917Z,english_548.wav,0,pill,806,25,4,Japanese,f,0,0.0,-24.88128465,1.63350405
YUS,45,0,2024-06-24T06:52:29.917Z,english_548.wav,0,pill,806,25,4,Japanese,f,1,0.1,1.54687273,0.1653087
YUS,45,0,2024-06-24T06:52:29.917Z,english_548.wav,0,pill,806,25,4,Japanese,f,2,0.2,58.02940435,0.01517729
YUS,45,0,2024-06-24T06:52:29.917Z,english_548.wav,0,pill,806,25,4,Japanese,f,3,0.3,-2.90148727,1.81666457
YUS,45,0,2024-06-24T06:52:29.917Z,english_548.wav,0,pill,806,25,4,Japanese,f,4,0.4,9.31686881,0.9208407
YUS,45,0,2024-06-24T06:52:29.917Z,english_548.wav,0,pill,806,25,4,Japanese,f,5,0.5,-62.70026351,1.35074745
YUS,45,0,2024-06-24T06:52:29.917Z,english_548.wav,0,pill,806,25,4,Japanese,f,6,0.6,-56.6580034,0.86467249
YUS,45,0,2024-06-24T06:52:29.917Z,english_548.wav,0,pill,806,25,4,Japanese,f,7,0.7,14.62965286,1.73416909
YUS,45,0,2024-06-24T06:52:29.917Z,english_548.wav,0,pill,806,25,4,Japanese,f,8,0.8,-14.87483285,1.42113571
YUS,45,0,2024-06-24T06:52:29.917Z,english_548.wav,0,pill,806,25,4,Japanese,f,9,0.9,69.23683794,0.95555023
YUS,45,0,2024-06-24T06:52:29.917Z,english_548.wav,0,pill,806,25,4,Japanese,f,10,1.0,-42.98683333,1.22888343
YUS,45,0,2024-06-24T06:52:29.917Z,english_548.wav,0,pill,806,25,4,Japanese,f,11,1.09391667,67.19958302,1.18114311
YUS,46,0,2024-06-24T06:52:29.917Z,english_752.wav,0,pill,2105,25,4,Japanese,f,0,0.0,52.61686216,1.6341758
YUS,46,0,2024-06-24T06:52:29.917Z,english_752.wav,0,pill,2105,25,4,Japanese,f,1,0.1,-18.45204241,0.5397069
YUS,46,0,2024-06-24T06:52:29.917Z,english_752.wav,0,pill,2105,25,4,Japanese,f,2,0.2,-6.44553856,1.4905668
YUS,46,0,2024-06-24T06:52:29.917Z,english_752.wav,0,pill,2105,25,4,Japanese,f,3,0.3,54.48685686,0.49055919
YUS,46,0,2024-06-24T06:52:29.917Z,english_752.wav,0,pill,2105,25,4,Japanese,f,4,0.4,-14.12902415,1.50348136
YUS,46,0,2024-06-24T06:52:29.917Z,english_752.wav,0,pill,2105,25,4,Japanese,f,5,0.5,-68.0514313,0.53453917
YUS,46,0,2024-06-24T06:52:29.917Z,english_752.wav,0,pill,2105,25,4,Japanese,f,6,0.6,-35.48747748,1.00064578
YUS,46,0,2024-06-24T06:52:29.917Z,english_752.wav,0,pill,2105,25,4,Japanese,f,7,0.7,-40.39140323,0.9078798
YUS,46,0,2024-06-24T06:52:29.917Z,english_752.wav,0,pill,2105,25,4,Japanese,f,8,0.8,-44.26325446,1.8374475
YUS,46,0,2024-06-24T06:52:29.917Z,english_752.wav,0,pill,2105,25,4,Japanese,f,9,0.9,18.34874791,0.61675218
YUS,46,0,2024-06-24T06:52:29.917Z,english_752.wav,0,pill,2105,25,4,Japanese,f,10,1.0,-42.03859304,0.24596276
YUS,46,0,2024-06-24T06:52:29.917Z,english_752.wav,0,pill,2105,25,4,Japanese,f,11,1.09391667,68.7756392,0.85105991
YUS,47,0,2024-06-24T06:52:29.917Z,english_572.wav,0,pill,642,25,4,Japanese,f,0,0.0,74.87847498,0.12348508
YUS,47,0,2024-06-24T06:52:29.917Z,english_572.wav,0,pill,642,25,4,Japanese,f,1,0.1,-39.37509685,1.01129589
YUS,47,0,2024-06-24T06:52:29.917Z,english_572.wav,0,pill,642,25,4,Japanese,f,2,0.2,46.07522777,0.14453867
YUS,47,0,2024-06-24T06:52:29.917Z,english_572.wav,0,pill,642,25,4,Japanese,f,3,0.3,-26.59086479,0.66439835
YUS,47,0,2024-06-24T06:52:29.917Z,english_572.wav,0,pill,642,25,4,Japanese,f,4,0.4,-83.61712333,0.40930176
YUS,47,0,2024-06-24T06:52:29.917Z,english_572.wav,0,pill,642,25,4,Japanese,f,5,0.5,51.69873735,1.64421854
YUS,47,0,2024-06-24T06:52:29.917Z,english_572.wav,0,pill,642,25,4,Japanese,f,6,0.6,-66.29925424,1.67109861
YUS,47,0,2024-06-24T06:52:29.917Z,english_572.wav,0,pill,642,25,4,Japanese,f,7,0.7,-30.03465624,1.00053383
YUS,47,0,2024-06-24T06:52:29.917Z,english_572.wav,0,pill,642,25,4,Japanese,f,8,0.8,22.82757365,0.68839219
YUS,47,0,2024-06-24T06:52:29.917Z,english_572.wav,0,pill,642,25,4,Japanese,f,9,0.9,-30.60936999,0.08113885
YUS,47,0,2024-06-24T06:52:29.917Z,english_572.wav,0,pill,642,25,4,Japanese,f,10,1.0,-46.60182678,0.16383696
YUS,47,0,2024-06-24T06:52:29.917Z,english_572.wav,0,pill,642,25,4,Japanese,f,11,1.09391667,37.1532128,0.71948729
YUS,48,0,2024-06-24T06:52:29.917Z,english_611.wav,0,pill,1718,25,4,Japanese,f,0,0.0,-44.03154286,0.78645575
YUS,48,0,2024-06-24T06:52:29.917Z,english_611.wav,0,pill,1718,25,4,Japanese,f,1,0.1,43.53292368,1.64980838
YUS,48,0,2024-06-24T06:52:29.917Z,english_611.wav,0,pill,1718,25,4,Japanese,f,2,0.2,-39.32029451,0.9179457
YUS,48,0,2024-06-24T06:52:29.917Z,english_611.wav,0,pill,1718,25,4,Japanese,f,3,0.3,56.48937501,1.56943765
YUS,48,0,2024-06-24T06:52:29.917Z,english_611.wav,0,pill,1718,25,4,Japanese,f,4,0.4,79.97019062,0.89618619
YUS,48,0,2024-06-24T06:52:29.917Z,english_611.wav,0,pill,1718,25,4,Japanese,f,5,0.5,-25.23129683,1.22477339
YUS,48,0,2024-06-24T06:52:29.917Z,english_611.wav,0,pill,1718,25,4,Japanese,f,6,0.6,14.98640169,1.05903803
YUS,48,0,2024-06-24T06:52:29.917Z,english_611.wav,0,pill,1718,25,4,Japanese,f,7,0.7,23.2049895,0.37835505
YUS,48,0,2024-06-24T06:52:29.917Z,english_611.wav,0,pill,1718,25,4,Japanese,f,8,0.8,-71.91072082,1.6139649
YUS,48,0,2024-06-24T06:52:29.917Z,english_611.wav,0,pill,1718,25,4,Japanese,f,9,0.9,-47.29216682,1.9176564
YUS,48,0,2024-06-24T06:52:29.917Z,english_611.wav,0,pill,1718,25,4,Japanese,f,10,1.0,71.77208334,1.62142696
YUS,48,0,2024-06-24T06:52:29.917Z,english_611.wav,0,pill,1718,25,4,Japanese,f,11,1.09391667,-64.89664383,1.10334919
YUS,49,0,2024-06-24T06:52:29.917Z,english_983.wav,0,pill,2687,25,4,Japanese,f,0,0.0,-50.22823897,0.88633634
YUS,49,0,2024-06-24T06:52:29.917Z,english_983.wav,0,pill,2687,25,4,Japanese,f,1,0.1,-4.67437073,1.28034271
YUS,49,0,2024-06-24T06:52:29.917Z,english_983.wav,0,pill,2687,25,4,Japanese,f,2,0.2,-31.6094098,0.94172266
YUS,49,0,2024-06-24T06:52:29.917Z,english_983.wav,0,pill,2687,25,4,Japanese,f,3,0.3,25.42275216,0.73344406
YUS,49,0,2024-06-24T06:52:29.917Z,english_983.wav,0,pill,2687,25,4,Japanese,f,4,0.4,79.9624674,1.78223604
YUS,49,0,2024-06-24T06:52:29.917Z,english_983.wav,0,pill,2687,25,4,Japanese,f,5,0.5,11.84827872,1.04715588
YUS,49,0,2024-06-24T06:52:29.917Z,english_983.wav,0,pill,2687,25,4,Japanese,f,6,0.6,-53.41316004,1.93599287
YUS,49,0,2024-06-24T06:52:29.917Z,english_983.wav,0,pill,2687,25,4,Japanese,f,7,0.7,-2.37481813,0.44413806
YUS,49,0,2024-06-24T06:52:29.917Z,english_983.wav,0,pill,2687,25,4,Japanese,f,8,0.8,81.38125647,0.67013669
YUS,49,0,2024-06-24T06:52:29.917Z,english_983.wav,0,pill,2687,25,4,Japanese,f,9,0.9,-62.03068284,1.03528206
YUS,49,0,2024-06-24T06:52:29.917Z,english_983.wav,0,pill,2687,25,4,Japanese,f,10,1.0,-64.21224493,0.12422577
YUS,49,0,2024-06-24T06:52:29.917Z,english_983.wav,0,pill,2687,25,4,Japanese,f,11,1.09391667,38.19793451,1.50859084
YUS,50,1,2024-06-24T06:52:29.917Z,english_846.wav,0,pill,940,25,4,Japanese,f,0,0.0,47.64315726,0.95758586
YUS,50,1,2024-06-24T06:52:29.917Z,english_846.wav,0,pill,940,25,4,Japanese,f,1,0.1,43.78617601,0.16218947
YUS,50,1,2024-06-24T06:52:29.917Z,english_846.wav,0,pill,940,25,4,Japanese,f,2,0.2,-67.59598015,0.72860603
YUS,50,1,2024-06-24T06:52:29.917Z,english_846.wav,0,pill,940,25,4,Japanese,f,3,0.3,75.82681519,0.60627127
YUS,50,1,2024-06-24T06:52:29.917Z,english_846.wav,0,pill,940,25,4,Japanese,f,4,0.4,74.28596976,0.41876793
YUS,50,1,2024-06-24T06:52:29.917Z,english_846.wav,0,pill,940,25,4,Japanese,f,5,0.5,40.48744531,1.23414848
YUS,50,1,2024-06-24T06:52:29.917Z,english_846.wav,0,pill,940,25,4,Japanese,f,6,0.6,-65.90904049,1.54330327
YUS,50,1,2024-06-24T06:52:29.917Z,english_846.wav,0,pill,940,25,4,Japanese,f,7,0.7,90.52035497,1.06483437
YUS,50,1,2024-06-24T06:52:29.917Z,english_846.wav,0,pill,940,25,4,Japanese,f,8,0.8,-68.67205107,0.84380864
YUS,50,1,2024-06-24T06:52:29.917Z,english_846.wav,0,pill,940,25,4,Japanese,f,9,0.9,8.67982792,0.84626324
YUS,50,1,2024-06-24T06:52:29.917Z,english_846.wav,0,pill,940,25,4,Japanese,f,10,1.0,-64.09193989,1.29492524
YUS,50,1,2024-06-24T06:52:29.917Z,english_846.wav,0,pill,940,25,4,Japanese,f,11,1.09391667,11.5113113,0.37776928
YUS,51,1,2024-06-24T06:52:29.917Z,english_956.wav,0,pill,591,25,4,Japanese,f,0,0.0,-69.56603744,1.25885793
YUS,51,1,2024-06-24T06:52:29.917Z,english_956.wav,0,pill,591,25,4,Japanese,f,1,0.1,-25.37186141,1.06466306
YUS,51,1,2024-06-24T06:52:29.917Z,english_956.wav,0,pill,591,25,4,Japanese,f,2,0.2,27.97650052,0.94194041
YUS,51,1,2024-06-24T06:52:29.917Z,english_956.wav,0,pill,591,25,4,Japanese,f,3,0.3,-27.59550019,1.53569938
YUS,51,1,2024-06-24T06:52:29.917Z,english_956.wav,0,pill,591,25,4,Japanese,f,4,0.4,-92.97950526,1.85243798
YUS,51,1,2024-06-24T06:52:29.917Z,english_956.wav,0,pill,591,25,4,Japanese,f,5,0.5,38.52785923,1.85210152
YUS,51,1,2024-06-24T06:52:29.917Z,english_956.wav,0,pill,591,25,4,Japanese,f,6,0.6,10.83790673,0.63562422
YUS,51,1,2024-06-24T06:52:29.917Z,english_956.wav,0,pill,591,25,4,Japanese,f,7,0.7,-7.44647917,1.69096149
YUS,51,1,2024-06-24T06:52:29.917Z,english_956.wav,0,pill,591,25,4,Japanese,f,8,0.8,21.12716208,0.44450575
YUS,51,1,2024-06-24T06:52:29.917Z,english_956.wav,0,pill,591,25,4,Japanese,f,9,0.9,68.89451613,0.92187191
YUS,51,1,2024-06-24T06:52:29.917Z,english_956.wav,0,pill,591,25,4,Japanese,f,10,1.0,40.53084536,1.63644611
YUS,51,1,2024-06-24T06:52:29.917Z,english_956.wav,0,pill,591,25,4,Japanese,f,11,1.09391667,63.98453991,0.57157091
YUS,52,1,2024-06-24T06:52:29.917Z,english_240.wav,0,pill,509,25,4,Japanese,f,0,0.0,94.92487397,1.16173124
YUS,52,1,2024-06-24T06:52:29.917Z,english_240.wav,0,pill,509,25,4,Japanese,f,1,0.1,46.60086456,0.28146868
YUS,52,1,2024-06-24T06:52:29.917Z,english_240.wav,0,pill,509,25,4,Japanese,f,2,0.2,-85.09682287,1.34805144
YUS,52,1,2024-06-24T06:52:29.917Z,english_240.wav,0,pill,509,25,4,Japanese,f,3,0.3,61.23591388,0.20054267
YUS,52,1,2024-06-24T06:52:29.917Z,english_240.wav,0,pill,509,25,4,Japanese,f,4,0.4,-87.76590316,1.28124808
YUS,52,1,2024-06-24T06:52:29.917Z,english_240.wav,0,pill,509,25,4,Japanese,f,5,0.5,-26.78505593,0.75335144
YUS,52,1,2024-06-24T06:52:29.917Z,english_240.wav,0,pill,509,25,4,Japanese,f,6,0.6,79.97771783,0.06187073
YUS,52,1,2024-06-24T06:52:29.917Z,english_240.wav,0,pill,509,25,4,Japanese,f,7,0.7,-52.5823066,0.9449402
YUS,52,1,2024-06-24T06:52:29.917Z,english_240.wav,0,pill,509,25,4,Japanese,f,8,0.8,-50.02012697,0.10878198
YUS,52,1,2024-06-24T06:52:29.917Z,english_240.wav,0,pill,509,25,4,Japanese,f,9,0.9,92.54545653,1.66426768
YUS,52,1,2024-06-24T06:52:29.917Z,english_240.wav,0,pill,509,25,4,Japanese,f,10,1.0,-31.99180963,1.44792205
YUS,52,1,2024-06-24T06:52:29.917Z,english_240.wav,0,pill,509,25,4,Japanese,f,11,1.09391667,16.04001658,0.58420497
YUS,53,1,2024-06-24T06:52:29.917Z,english_463.wav,0,peel,1393,25,4,Japanese,f,0,0.0,10.50801154,1.17811947
YUS,53,1,2024-06-24T06:52:29.917Z,english_463.wav,0,peel,1393,25,4,Japanese,f,1,0.1,53.01075337,0.17767022
YUS,53,1,2024-06-24T06:52:29.917Z,english_463.wav,0,peel,1393,25,4,Japanese,f,2,0.2,-45.92576003,0.48691175
YUS,53,1,2024-06-24T06:52:29.917Z,english_463.wav,0,peel,1393,25,4,Japanese,f,3,0.3,19.52430908,0.61421231
YUS,53,1,2024-06-24T06:52:29.917Z,english_463.wav,0,peel,1393,25,4,Japanese,f,4,0.4,-49.30728031,1.08242916
YUS,53,1,2024-06-24T06:52:29.917Z,english_463.wav,0,peel,1393,25,4,Japanese,f,5,0.5,14.12996474,0.36464212
YUS,53,1,2024-06-24T06:52:29.917Z,english_463.wav,0,peel,1393,25,4,Japanese,f,6,0.6,-38.56124135,1.11640778
YUS,53,1,2024-06-24T06:52:29.917Z,english_463.wav,0,peel,1393,25,4,Japanese,f,7,0.7,60.51994471,0.46617429
YUS,53,1,2024-06-24T06:52:29.917Z,english_463.wav,0,peel,1393,25,4,Japanese,f,8,0.8,-80.92150268,1.24207175
YUS,53,1,2024-06-24T06:52:29.917Z,english_463.wav,0,peel,1393,25,4,Japanese,f,9,0.9,77.91302957,1.740718
YUS,53,1,2024-06-24T06:52:29.917Z,english_463.wav,0,peel,1393,25,4,Japanese,f,10,1.0,-17.96219129,0.97634615
YUS,53,1,2024-06-24T06:52:29.917Z,english_463.wav,0,peel,1393,25,4,Japanese,f,11,1.09391667,-4.0549477,0.84642764
YUS,54,1,2024-06-24T06:52:29.917Z,english_897.wav,0,pill,696,25,4,Japanese,f,0,0.0,91.54141142,0.1445201
YUS,54,1,2024-06-24T06:52:29.917Z,english_897.wav,0,pill,696,25,4,Japanese,f,1,0.1,20.06999674,1.86000345
YUS,54,1,2024-06-24T06:52:29.917Z,english_897.wav,0,pill,696,25,4,Japanese,f,2,0.2,-60.17862007,0.67850772
YUS,54,1,2024-06-24T06:52:29.917Z,english_897.wav,0,pill,696,25,4,Japanese,f,3,0.3,22.55775305,0.042785
YUS,54,1,2024-06-24T06:52:29.917Z,english_897.wav,0,pill,696,25,4,Japanese,f,4,0.4,-29.18349392,0.33792534
YUS,54,1,2024-06-24T06:52:29.917Z,english_897.wav,0,pill,696,25,4,Japanese,f,5,0.5,-4.34715828,1.54286554
YUS,54,1,2024-06-24T06:52:29.917Z,english_897.wav,0,pill,696,25,4,Japanese,f,6,0.6,3.54639982,1.41726271
YUS,54,1,2024-06-24T06:52:29.917Z,english_897.wav,0,pill,696,25,4,Japanese,f,7,0.7,14.95981451,0.22962892
YUS,54,1,2024-06-24T06:52:29.917Z,english_897.wav,0,pill,696,25,4,Japanese,f,8,0.8,79.03500803,0.98987379
YUS,54,1,2024-06-24T06:52:29.917Z,english_897.wav,0,pill,696,25,4,Japanese,f,9,0.9,89.82097388,0.31366212
YUS,54,1,2024-06-24T06:52:29.917Z,english_897.wav,0,pill,696,25,4,Japanese,f,10,1.0,-18.02507746,0.34929613
YUS,54,1,2024-06-24T06:52:29.917Z,english_897.wav,0,pill,696,25,4,Japanese,f,11,1.09391667,-21.60386418,1.95291291
YUS,55,1,2024-06-24T06:52:29.917Z,english_174.wav,0,pill,509,25,4,Japanese,f,0,0.0,-1.27352161,1.81219165
YUS,55,1,2024-06-24T06:52:29.917Z,english_174.wav,0,pill,509,25,4,Japanese,f,1,0.1,-67.76486912,0.77028854
YUS,55,1,2024-06-24T06:52:29.917Z,english_174.wav,0,pill,509,25,4,Japanese,f,2,0.2,38.59821356,0.44136445
YUS,55,1,2024-06-24T06:52:29.917Z,english_174.wav,0,pill,509,25,4,Japanese,f,3,0.3,-68.30936474,1.01129338
YUS,55,1,2024-06-24T06:52:29.917Z,english_174.wav,0,pill,509,25,4,Japanese,f,4,0.4,-90.24428589,0.76518489
YUS,55,1,2024-06-24T06:52:29.917Z,english_174.wav,0,pill,509,25,4,Japanese,f,5,0.5,-78.84758788,1.51905633
YUS,55,1,2024-06-24T06:52:29.917Z,english_174.wav,0,pill,509,25,4,Japanese,f,6,0.6,82.67516556,0.9260744
YUS,55,1,2024-06-24T06:52:29.917Z,english_174.wav,0,pill,509,25,4,Japanese,f,7,0.7,27.65744762,1.48661059
YUS,55,1,2024-06-24T06:52:29.917Z,english_174.wav,0,pill,509,25,4,Japanese,f,8,0.8,82.5621195,0.13101211
YUS,55,1,2024-06-24T06:52:29.917Z,english_174.wav,0,pill,509,25,4,Japanese,f,9,0.9,22.03109017,0.66605082
YUS,55,1,2024-06-24T06:52:29.917Z,english_174.wav,0,pill,509,25,4,Japanese,f,10,1.0,97.22651297,0.90549752
YUS,55,1,2024-06-24T06:52:29.917Z,english_174.wav,0,pill,509,25,4,Japanese,f,11,1.09391667,6.30116613,1.52579229
YUS,56,1,2024-06-24T06:52:29.917Z,english_224.wav,0,pill,647,25,4,Japanese,f,0,0.0,-78.61506242,0.96291184
YUS,56,1,2024-06-24T06:52:29.917Z,english_224.wav,0,pill,647,25,4,Japanese,f,1,0.1,50.32903383,1.02849412
YUS,56,1,2024-06-24T06:52:29.917Z,english_224.wav,0,pill,647,25,4,Japanese,f,2,0.2,13.41609495,1.48046057
YUS,56,1,2024-06-24T06:52:29.917Z,english_224.wav,0,pill,647,25,4,Japanese,f,3,0.3,-65.62214638,0.95403391
YUS,56,1,2024-06-24T06:52:29.917Z,english_224.wav,0,pill,647,25,4,Japanese,f,4,0.4,-58.93648778,0.16536285
YUS,56,1,2024-06-24T06:52:29.917Z,english_224.wav,0,pill,647,25,4,Japanese,f,5,0.5,72.28111683,1.42811474
YUS,56,1,2024-06-24T06:52:29.917Z,english_224.wav,0,pill,647,25,4,Japanese,f,6,0.6,-46.77069374,0.74831178
YUS,56,1,2024-06-24T06:52:29.917Z,english_224.wav,0,pill,647,25,4,Japanese,f,7,0.7,-90.37193795,1.44512366
YUS,56,1,2024-06-24T06:52:29.917Z,english_224.wav,0,pill,647,25,4,Japanese,f,8,0.8,-0.43339445,1.0370843
YUS,56,1,2024-06-24T06:52:29.917Z,english_224.wav,0,pill,647,25,4,Japanese,f,9,0.9,-45.45823975,0.73747726
YUS,56,1,2024-06-24T06:52:29.917Z,english_224.wav,0,pill,647,25,4,Japanese,f,10,1.0,-68.1553756,0.53686902
YUS,56,1,2024-06-24T06:52:29.917Z,english_224.wav,0,pill,647,25,4,Japanese,f,11,1.09391667,-50.27313826,1.24590757
YUS,57,1,2024-06-24T06:52:29.917Z,english_606.wav,0,pill,444,25,4,Japanese,f,0,0.0,72.77252021,1.14271188
YUS,57,1,2024-06-24T06:52:29.917Z,english_606.wav,0,pill,444,25,4,Japanese,f,1,0.1,22.60713343,1.41897374
YUS,57,1,2024-06-24T06:52:29.917Z,english_606.wav,0,pill,444,25,4,Japanese,f,2,0.2,30.91882808,1.73372854
YUS,57,1,2024-06-24T06:52:29.917Z,english_606.wav,0,pill,444,25,4,Japanese,f,3,0.3,-48.84223864,1.07065865
YUS,57,1,2024-06-24T06:52:29.917Z,english_606.wav,0,pill,444,25,4,Japanese,f,4,0.4,-29.82386042,0.5542197
YUS,57,1,2024-06-24T06:52:29.917Z,english_606.wav,0,pill,444,25,4,Japanese,f,5,0.5,82.48397831,0.65978179
YUS,57,1,2024-06-24T06:52:29.917Z,english_606.wav,0,pill,444,25,4,Japanese,f,6,0.6,-18.49396427,0.64487358
YUS,57,1,2024-06-24T06:52:29.917Z,english_606.wav,0,pill,444,25,4,Japanese,f,7,0.7,26.88567381,1.50533402
YUS,57,1,2024-06-24T06:52:29.917Z,english_606.wav,0,pill,444,25,4,Japanese,f,8,0.8,-18.34346668,1.51615031
YUS,57,1,2024-06-24T06:52:29.917Z,english_606.wav,0,pill,444,25,4,Japanese,f,9,0.9,10.06544583,0.11673085
YUS,57,1,2024-06-24T06:52:29.917Z,english_606.wav,0,pill,444,25,4,Japanese,f,10,1.0,-89.88083722,0.60775024
YUS,57,1,2024-06-24T06:52:29.917Z,english_606.wav,0,pill,444,25,4,Japanese,f,11,1.09391667,66.64968825,0.13627416
YUS,58,1,2024-06-24T06:52:29.917Z,english_491.wav,0,peel,573,25,4,Japanese,f,0,0.0,-86.04728356,0.47614904
YUS,58,1,2024-06-24T06:52:29.917Z,english_491.wav,0,peel,573,25,4,Japanese,f,1,0.1,-65.88451303,0.55089812
YUS,58,1,2024-06-24T06:52:29.917Z,english_491.wav,0,peel,573,25,4,Japanese,f,2,0.2,-80.48711576,1.1167033
YUS,58,1,2024-06-24T06:52:29.917Z,english_491.wav,0,peel,573,25,4,Japanese,f,3,0.3,-14.20773903,1.47203435
YUS,58,1,2024-06-24T06:52:29.917Z,english_491.wav,0,peel,573,25,4,Japanese,f,4,0.4,8.14780759,1.34464479
YUS,58,1,2024-06-24T06:52:29.917Z,english_491.wav,0,peel,573,25,4,Japanese,f,5,0.5,-64.09571567,1.15432427
YUS,58,1,2024-06-24T06:52:29.917Z,english_491.wav,0,peel,573,25,4,Japanese,f,6,0.6,54.51757577,1.10816548
YUS,58,1,2024-06-24T06:52:29.917Z,english_491.wav,0,peel,573,25,4,Japanese,f,7,0.7,44.38602798,0.53599429
YUS,58,1,2024-06-24T06:52:29.917Z,english_491.wav,0,peel,573,25,4,Japanese,f,8,0.8,-1.2376907,1.13980754
YUS,58,1,2024-06-24T06:52:29.917Z,english_491.wav,0,peel,573,25,4,Japanese,f,9,0.9,77.13121924,0.89300384
YUS,58,1,2024-06-24T06:52:29.917Z,english_491.wav,0,peel,573,25,4,Japanese,f,10,1.0,-14.590686,0.5502855
YUS,58,1,2024-06-24T06:52:29.917Z,english_491.wav,0,peel,573,25,4,Japanese,f,11,1.09391667,68.41813951,1.59909439
YUS,59,1,2024-06-24T06:52:29.917Z,english_550.wav,0,pill,639,25,4,Japanese,f,0,0.0,85.56762679,1.30256716
YUS,59,1,2024-06-24T06:52:29.917Z,english_550.wav,0,pill,639,25,4,Japanese,f,1,0.1,-46.94203093,1.73510164
YUS,59,1,2024-06-24T06:52:29.917Z,english_550.wav,0,pill,639,25,4,Japanese,f,2,0.2,10.19407412,0.89036326
YUS,59,1,2024-06-24T06:52:29.917Z,english_550.wav,0,pill,639,25,4,Japanese,f,3,0.3,1.47506103,0.09950504
YUS,59,1,2024-06-24T06:52:29.917Z,english_550.wav,0,pill,639,25,4,Japanese,f,4,0.4,18.20902046,0.7123978
YUS,59,1,2024-06-24T06:52:29.917Z,english_550.wav,0,pill,639,25,4,Japanese,f,5,0.5,-9.07211541,0.78286675
YUS,59,1,2024-06-24T06:52:29.917Z,english_550.wav,0,pill,639,25,4,Japanese,f,6,0.6,68.24492246,1.57257447
YUS,59,1,2024-06-24T06:52:29.917Z,english_550.wav,0,pill,639,25,4,Japanese,f,7,0.7,-55.39194289,0.50906814
YUS,59,1,2024-06-24T06:52:29.917Z,english_550.wav,0,pill,639,25,4,Japanese,f,8,0.8,17.18108307,0.32905773
YUS,59,1,2024-06-24T06:52:29.917Z,english_550.wav,0,pill,639,25,4,Japanese,f,9,0.9,23.42877298,1.19492705
YUS,59,1,2024-06-24T06:52:29.917Z,english_550.wav,0,pill,639,25,4,Japanese,f,10,1.0,2.91525796,1.53585055
YUS,59,1,2024-06-24T06:52:29.917Z,english_550.wav,0,pill,639,25,4,Japanese,f,11,1.09391667,84.75217651,0.16869385
YUS,60,1,2024-06-24T06:52:29.917Z,english_521.wav,0,peel,370,25,4,Japanese,f,0,0.0,5.37787975,1.11621025
YUS,60,1,2024-06-24T06:52:29.917Z,english_521.wav,0,peel,370,25,4,Japanese,f,1,0.1,9.32249591,0.69917502
YUS,60,1,2024-06-24T06:52:29.917Z,english_521.wav,0,peel,370,25,4,Japanese,f,2,0.2,4.19745407,0.1199413
YUS,60,1,2024-06-24T06:52:29.917Z,english_521.wav,0,peel,370,25,4,Japanese,f,3,0.3,-75.18613478,1.762579
YUS,60,1,2024-06-24T06:52:29.917Z,english_521.wav,0,peel,370,25,4,Japanese,f,4,0.4,87.02780947,1.43452798
YUS,60,1,2024-06-24T06:52:29.917Z,english_521.wav,0,peel,370,25,4,Japanese,f,5,0.5,-73.26225675,0.23094002
YUS,60,1,2024-06-24T06:52:29.917Z,english_521.wav,0,peel,370,25,4,Japanese,f,6,0.6,66.15406762,1.51181612
YUS,60,1,2024-06-24T06:52:29.917Z,english_521.wav,0,peel,370,25,4,Japanese,f,7,0.7,-9.80579818,1.4155143
YUS,60,1,2024-06-24T06:52:29.917Z,english_521.wav,0,peel,370,25,4,Japanese,f,8,0.8,17.20812603,1.82718341
YUS,60,1,2024-06-24T06:52:29.917Z,english_521.wav,0,peel,370,25,4,Japanese,f,9,0.9,21.88979452,1.93759588
YUS,60,1,2024-06-24T06:52:29.917Z,english_521.wav,0,peel,370,25,4,Japanese,f,10,1.0,-69.39969828,1.70606784
YUS,60,1,2024-06-24T06:52:29.917Z,english_521.wav,0,peel,370,25,4,Japanese,f,11,1.09391667,-64.03153918,0.09885652
YUS,61,1,2024-06-24T06:52:29.917Z,english_48.wav,0,pill,689,25,4,Japanese,f,0,0.0,60.63460718,0.33804588
YUS,61,1,2024-06-24T06:52:29.917Z,english_48.wav,0,pill,689,25,4,Japanese,f,1,0.1,-63.25879977,1.53774441
YUS,61,1,2024-06-24T06:52:29.917Z,english_48.wav,0,pill,689,25,4,Japanese,f,2,0.2,72.16287223,0.96691945
YUS,61,1,2024-06-24T06:52:29.917Z,english_48.wav,0,pill,689,25,4,Japanese,f,3,0.3,56.56802271,1.67994136
YUS,61,1,2024-06-24T06:52:29.917Z,english_48.wav,0,pill,689,25,4,Japanese,f,4,0.4,90.70764649,1.00040305
YUS,61,1,2024-06-24T06:52:29.917Z,english_48.wav,0,pill,689,25,4,Japanese,f,5,0.5,-36.31712893,1.89041629
YUS,61,1,2024-06-24T06:52:29.917Z,english_48.wav,0,pill,689,25,4,Japanese,f,6,0.6,25.72223985,0.11424734
YUS,61,1,2024-06-24T06:52:29.917Z,english_48.wav,0,pill,689,25,4,Japanese,f,7,0.7,-14.91989637,0.3528252
YUS,61,1,2024-06-24T06:52:29.917Z,english_48.wav,0,pill,689,25,4,Japanese,f,8,0.8,-17.95558792,0.85742963
YUS,61,1,2024-06-24T06:52:29.917Z,english_48.wav,0,pill,689,25,4,Japanese,f,9,0.9,-5.44719263,0.59657969
YUS,61,1,2024-06-24T06:52:29.917Z,english_48.wav,0,pill,689,25,4,Japanese,f,10,1.0,-94.92564537,0.30631529
YUS,61,1,2024-06-24T06:52:29.917Z,english_48.wav,0,pill,689,25,4,Japanese,f,11,1.09391667,-13.08808473,1.45053444
YUS,62,1,2024-06-24T06:52:29.917Z,english_163.wav,0,pill,961,25,4,Japanese,f,0,0.0,-75.52696483,0.21633828
YUS,62,1,2024-06-24T06:52:29.917Z,english_163.wav,0,pill,961,25,4,Japanese,f,1,0.1,-50.94410786,0.31603177
YUS,62,1,2024-06-24T06:52:29.917Z,english_163.wav,0,pill,961,25,4,Japanese,f,2,0.2,-38.29944429,1.04333718
YUS,62,1,2024-06-24T06:52:29.917Z,english_163.wav,0,pill,961,25,4,Japanese,f,3,0.3,-32.57127411,1.57763682
YUS,62,1,2024-06-24T06:52:29.917Z,english_163.wav,0,pill,961,25,4,Japanese,f,4,0.4,-30.55941116,0.14485533
YUS,62,1,2024-06-24T06:52:29.917Z,english_163.wav,0,pill,961,25,4,Japanese,f,5,0.5,-14.52407307,1.53043555
YUS,62,1,2024-06-24T06:52:29.917Z,english_163.wav,0,pill,961,25,4,Japanese,f,6,0.6,28.48601544,0.0734581
YUS,62,1,2024-06-24T06:52:29.917Z,english_163.wav,0,pill,961,25,4,Japanese,f,7,0.7,-14.30599007,1.19104414
YUS,62,1,2024-06-24T06:52:29.917Z,english_163.wav,0,pill,961,25,4,Japanese,f,8,0.8,38.98323909,0.4056819
YUS,62,1,2024-06-24T06:52:29.917Z,english_163.wav,0,pill,961,25,4,Japanese,f,9,0.9,-70.97720427,1.30823112
YUS,62,1,2024-06-24T06:52:29.917Z,english_163.wav,0,pill,961,25,4,Japanese,f,10,1.0,-31.77991107,1.63835528
YUS,62,1,2024-06-24T06:52:29.917Z,english_163.wav,0,pill,961,25,4,Japanese,f,11,1.09391667,-57.22342155,1.03131117
YUS,63,1,2024-06-24T06:52:29.917Z,english_167.wav,0,pill,1450,25,4,Japanese,f,0,0.0,24.63183347,0.27443004
YUS,63,1,2024-06-24T06:52:29.917Z,english_167.wav,0,pill,1450,25,4,Japanese,f,1,0.1,13.73246145,1.84171745
YUS,63,1,2024-06-24T06:52:29.917Z,english_167.wav,0,pill,1450,25,4,Japanese,f,2,0.2,-60.43880616,1.67288004
YUS,63,1,2024-06-24T06:52:29.917Z,english_167.wav,0,pill,1450,25,4,Japanese,f,3,0.3,7.09789875,0.06788145
YUS,63,1,2024-06-24T06:52:29.917Z,english_167.wav,0,pill,1450,25,4,Japanese,f,4,0.4,-33.19551678,0.85380936
YUS,63,1,2024-06-24T06:52:29.917Z,english_167.wav,0,pill,1450,25,4,Japanese,f,5,0.5,95.64356753,0.74095746
YUS,63,1,2024-06-24T06:52:29.917Z,english_167.wav,0,pill,1450,25,4,Japanese,f,6,0.6,-14.26788655,0.50118345
YUS,63,1,2024-06-24T06:52:29.917Z,english_167.wav,0,pill,1450,25,4,Japanese,f,7,0.7,66.37452918,0.34417323
YUS,63,1,2024-06-24T06:52:29.917Z,english_167.wav,0,pill,1450,25,4,Japanese,f,8,0.8,21.11990371,0.18827799
YUS,63,1,2024-06-24T06:52:29.917Z,english_167.wav,0,pill,1450,25,4,Japanese,f,9,0.9,91.73440173,1.5764248
YUS,63,1,2024-06-24T06:52:29.917Z,english_167.wav,0,pill,1450,25,4,Japanese,f,10,1.0,98.54474933,1.57665407
YUS,63,1,2024-06-24T06:52:29.917Z,english_167.wav,0,pill,1450,25,4,Japanese,f,11,1.09391667,47.66166762,0.79567252
YUS,64,1,2024-06-24T06:52:29.917Z,english_129.wav,0,pill,2164,25,4,Japanese,f,0,0.0,-44.56015923,0.4294496
YUS,64,1,2024-06-24T06:52:29.917Z,english_129.wav,0,pill,2164,25,4,Japanese,f,1,0.1,-58.7339049,1.17691203
YUS,64,1,2024-06-24T06:52:29.917Z,english_129.wav,0,pill,2164,25,4,Japanese,f,2,0.2,4.64427176,0.00792795
YUS,64,1,2024-06-24T06:52:29.917Z,english_129.wav,0,pill,2164,25,4,Japanese,f,3,0.3,36.13533526,1.62066926
YUS,64,1,2024-06-24T06:52:29.917Z,english_129.wav,0,pill,2164,25,4,Japanese,f,4,0.4,49.60525777,0.46131477
YUS,64,1,2024-06-24T06:52:29.917Z,english_129.wav,0,pill,2164,25,4,Japanese,f,5,0.5,66.06381969,0.9562515
YUS,64,1,2024-06-24T06:52:29.917Z,english_129.wav,0,pill,2164,25,4,Japanese,f,6,0.6,-22.87129592,0.58790942
YUS,64,1,2024-06-24T06:52:29.917Z,english_129.wav,0,pill,2164,25,4,Japanese,f,7,0.7,88.56170171,0.99020247
YUS,64,1,2024-06-24T06:52:29.917Z,english_129.wav,0,pill,2164,25,4,Japanese,f,8,0.8,17.84118116,0.9945804
YUS,64,1,2024-06-24T06:52:29.917Z,english_129.wav,0,pill,2164,25,4,Japanese,f,9,0.9,-28.77319114,1.36695424
YUS,64,1,2024-06-24T06:52:29.917Z,english_129.wav,0,pill,2164,25,4,Japanese,f,10,1.0,86.03376827,0.72564016
YUS,64,1,2024-06-24T06:52:29.917Z,english_129.wav,0,pill,2164,25,4,Japanese,f,11,1.09391667,39.56098905,1.15202696
YUS,65,1,2024-06-24T06:52:29.917Z,english_338.wav,0,peel,1390,25,4,Japanese,f,0,0.0,-28.32882855,1.26446903
YUS,65,1,2024-06-24T06:52:29.917Z,english_338.wav,0,peel,1390,25,4,Japanese,f,1,0.1,57.31812169,0.76759877
YUS,65,1,2024-06-24T06:52:29.917Z,english_338.wav,0,peel,1390,25,4,Japanese,f,2,0.2,14.45982208,1.52351901
YUS,65,1,2024-06-24T06:52:29.917Z,english_338.wav,0,peel,1390,25,4,Japanese,f,3,0.3,77.41090692,1.04471398
YUS,65,1,2024-06-24T06:52:29.917Z,english_338.wav,0,peel,1390,25,4,Japanese,f,4,0.4,-1.8867557,0.90426999
YUS,65,1,2024-06-24T06:52:29.917Z,english_338.wav,0,peel,1390,25,4,Japanese,f,5,0.5,-35.85874383,1.69664706
YUS,65,1,2024-06-24T06:52:29.917Z,english_338.wav,0,peel,1390,25,4,Japanese,f,6,0.6,-55.1613605,0.17582058
YUS,65,1,2024-06-24T06:52:29.917Z,english_338.wav,0,peel,1390,25,4,Japanese,f,7,0.7,-70.94430614,0.54140942
YUS,65,1,2024-06-24T06:52:29.917Z,english_338.wav,0,peel,1390,25,4,Japanese,f,8,0.8,5.91952673,0.81798021
YUS,65,1,2024-06-24T06:52:29.917Z,english_338.wav,0,peel,1390,25,4,Japanese,f,9,0.9,-77.52896216,1.90630538
YUS,65,1,2024-06-24T06:52:29.917Z,english_338.wav,0,peel,1390,25,4,Japanese,f,10,1.0,-12.19112467,0.59557422
YUS,65,1,2024-06-24T06:52:29.917Z,english_338.wav,0,peel,1390,25,4,Japanese,f,11,1.09391667,6.6549641,0.42071392
YUS,66,1,2024-06-24T06:52:29.917Z,english_205.wav,0,pill,747,25,4,Japanese,f,0,0.0,56.82976783,1.96536411
YUS,66,1,2024-06-24T06:52:29.917Z,english_205.wav,0,pill,747,25,4,Japanese,f,1,0.1,-4.18818005,1.65463192
YUS,66,1,2024-06-24T06:52:29.917Z,english_205.wav,0,pill,747,25,4,Japanese,f,2,0.2,38.88249383,1.20705079
YUS,66,1,2024-06-24T06:52:29.917Z,english_205.wav,0,pill,747,25,4,Japanese,f,3,0.3,-62.55482064,1.01845998
YUS,66,1,2024-06-24T06:52:29.917Z,english_205.wav,0,pill,747,25,4,Japanese,f,4,0.4,-71.1999088,1.21355865
YUS,66,1,2024-06-24T06:52:29.917Z,english_205.wav,0,pill,747,25,4,Japanese,f,5,0.5,76.75946394,1.24989356
YUS,66,1,2024-06-24T06:52:29.917Z,english_205.wav,0,pill,747,25,4,Japanese,f,6,0.6,-88.17613487,0.92766979
YUS,66,1,2024-06-24T06:52:29.917Z,english_205.wav,0,pill,747,25,4,Japanese,f,7,0.7,-47.95022574,0.92420432
YUS,66,1,2024-06-24T06:52:29.917Z,english_205.wav,0,pill,747,25,4,Japanese,f,8,0.8,36.49012842,0.521979
YUS,66,1,2024-06-24T06:52:29.917Z,english_205.wav,0,pill,747,25,4,Japanese,f,9,0.9,58.14148902,1.99842272
YUS,66,1,2024-06-24T06:52:29.917Z,english_205.wav,0,pill,747,25,4,Japanese,f,10,1.0,-54.42029586,0.40180649
YUS,66,1,2024-06-24T06:52:29.917Z,english_205.wav,0,pill,747,25,4,Japanese,f,11,1.09391667,23.46713727,0.98322277
YUS,67,1,2024-06-24T06:52:29.917Z,english_320.wav,0,pill,683,25,4,Japanese,f,0,0.0,44.47796626,1.16365892
YUS,67,1,2024-06-24T06:52:29.917Z,english_320.wav,0,pill,683,25,4,Japanese,f,1,0.1,72.35684443,1.32074679
YUS,67,1,2024-06-24T06:52:29.917Z,english_320.wav,0,pill,683,25,4,Japanese,f,2,0.2,-17.68947707,0.98723075
YUS,67,1,2024-06-24T06:52:29.917Z,english_320.wav,0,pill,683,25,4,Japanese,f,3,0.3,70.79565504,1.34736881
YUS,67,1,2024-06-24T06:52:29.917Z,english_320.wav,0,pill,683,25,4,Japanese,f,4,0.4,-42.99608759,1.9395238
YUS,67,1,2024-06-24T06:52:29.917Z,english_320.wav,0,pill,683,25,4,Japanese,f,5,0.5,31.43453027,1.00857384
YUS,67,1,2024-06-24T06:52:29.917Z,english_320.wav,0,pill,683,25,4,Japanese,f,6,0.6,-18.00256732,0.72649141
YUS,67,1,2024-06-24T06:52:29.917Z,english_320.wav,0,pill,683,25,4,Japanese,f,7,0.7,43.1706274,0.12011257
YUS,67,1,2024-06-24T06:52:29.917Z,english_320.wav,0,pill,683,25,4,Japanese,f,8,0.8,-37.59278076,0.44120338
YUS,67,1,2024-06-24T06:52:29.917Z,english_320.wav,0,pill,683,25,4,Japanese,f,9,0.9,7.82795904,0.10933434
YUS,67,1,2024-06-24T06:52:29.917Z,english_320.wav,0,pill,683,25,4,Japanese,f,10,1.0,39.02364152,0.34432793
YUS,67,1,2024-06-24T06:52:29.917Z,english_320.wav,0,pill,683,25,4,Japanese,f,11,1.09391667,-63.74950888,1.78306962
YUS,68,1,2024-06-24T06:52:29.917Z,english_653.wav,0,pill,398,25,4,Japanese,f,0,0.0,41.8259341,0.17533452
YUS,68,1,2024-06-24T06:52:29.917Z,english_653.wav,0,pill,398,25,4,Japanese,f,1,0.1,17.38671322,1.08757539
YUS,68,1,2024-06-24T06:52:29.917Z,english_653.wav,0,pill,398,25,4,Japanese,f,2,0.2,86.12532741,1.96334993
YUS,68,1,2024-06-24T06:52:29.917Z,english_653.wav,0,pill,398,25,4,Japanese,f,3,0.3,-33.72650973,1.47062591
YUS,68,1,2024-06-24T06:52:29.917Z,english_653.wav,0,pill,398,25,4,Japanese,f,4,0.4,-40.64508362,1.06368379
YUS,68,1,2024-06-24T06:52:29.917Z,english_653.wav,0,pill,398,25,4,Japanese,f,5,0.5,29.34700904,1.07766545
YUS,68,1,2024-06-24T06:52:29.917Z,english_653.wav,0,pill,398,25,4,Japanese,f,6,0.6,-10.62645481,1.32143854
YUS,68,1,2024-06-24T06:52:29.917Z,english_653.wav,0,pill,398,25,4,Japanese,f,7,0.7,-39.23364733,0.74682372
YUS,68,1,2024-06-24T06:52:29.917Z,english_653.wav,0,pill,398,25,4,Japanese,f,8,0.8,1.23936202,0.56607345
YUS,68,1,2024-06-24T06:52:29.917Z,english_653.wav,0,pill,398,25,4,Japanese,f,9,0.9,54.61023708,0.97558446
YUS,68,1,2024-06-24T06:52:29.917Z,english_653.wav,0,pill,398,25,4,Japanese,f,10,1.0,68.93146106,0.53847025
YUS,68,1,2024-06-24T06:52:29.917Z,english_653.wav,0,pill,398,25,4,Japanese,f,11,1.09391667,98.0100566,0.14439152
YUS,69,1,2024-06-24T06:52:29.917Z,english_519.wav,0,peel,792,25,4,Japanese,f,0,0.0,-89.70690317,1.70012146
YUS,69,1,2024-06-24T06:52:29.917Z,english_519.wav,0,peel,792,25,4,Japanese,f,1,0.1,12.73288581,0.30558637
YUS,69,1,2024-06-24T06:52:29.917Z,english_519.wav,0,peel,792,25,4,Japanese,f,2,0.2,-28.85796661,1.20634899
YUS,69,1,2024-06-24T06:52:29.917Z,english_519.wav,0,peel,792,25,4,Japanese,f,3,0.3,26.94929279,0.03671801
YUS,69,1,2024-06-24T06:52:29.917Z,english_519.wav,0,peel,792,25,4,Japanese,f,4,0.4,88.17509723,1.89470366
YUS,69,1,2024-06-24T06:52:29.917Z,english_519.wav,0,peel,792,25,4,Japanese,f,5,0.5,-36.4551596,1.56676756
YUS,69,1,2024-06-24T06:52:29.917Z,english_519.wav,0,peel,792,25,4,Japanese,f,6,0.6,24.45140187,0.94993833
YUS,69,1,2024-06-24T06:52:29.917Z,english_519.wav,0,peel,792,25,4,Japanese,f,7,0.7,7.63765931,1.07658622
YUS,69,1,2024-06-24T06:52:29.917Z,english_519.wav,0,peel,792,25,4,Japanese,f,8,0.8,1.30228681,1.81741966
YUS,69,1,2024-06-24T06:52:29.917Z,english_519.wav,0,peel,792,25,4,Japanese,f,9,0.9,72.18985419,0.56710914
YUS,69,1,2024-06-24T06:52:29.917Z,english_519.wav,0,peel,792,25,4,Japanese,f,10,1.0,-56.35512761,0.45384515
YUS,69,1,2024-06-24T06:52:29.917Z,english_519.wav,0,peel,792,25,4,Japanese,f,11,1.09391667,-27.12026306,1.11287687
YUS,70,1,2024-06-24T06:52:29.917Z,english_125.wav,0,pill,720,25,4,Japanese,f,0,0.0,37.27554733,0.5612227
YUS,70,1,2024-06-24T06:52:29.917Z,english_125.wav,0,pill,720,25,4,Japanese,f,1,0.1,24.29830201,1.75747345
YUS,70,1,2024-06-24T06:52:29.917Z,english_125.wav,0,pill,720,25,4,Japanese,f,2,0.2,-43.3040728,1.33602667
YUS,70,1,2024-06-24T06:52:29.917Z,english_125.wav,0,pill,720,25,4,Japanese,f,3,0.3,32.63559677,0.25379983
YUS,70,1,2024-06-24T06:52:29.917Z,english_125.wav,0,pill,720,25,4,Japanese,f,4,0.4,65.75819377,0.46765889
YUS,70,1,2024-06-24T06:52:29.917Z,english_125.wav,0,pill,720,25,4,Japanese,f,5,0.5,93.24268126,0.0945868
YUS,70,1,2024-06-24T06:52:29.917Z,english_125.wav,0,pill,720,25,4,Japanese,f,6,0.6,-15.30697981,1.31767057
YUS,70,1,2024-06-24T06:52:29.917Z,english_125.wav,0,pill,720,25,4,Japanese,f,7,0.7,92.42760244,0.46721292
YUS,70,1,2024-06-24T06:52:29.917Z,english_125.wav,0,pill,720,25,4,Japanese,f,8,0.8,43.95412796,1.38944415
YUS,70,1,2024-06-24T06:52:29.917Z,english_125.wav,0,pill,720,25,4,Japanese,f,9,0.9,15.32237433,1.70361777
YUS,70,1,2024-06-24T06:52:29.917Z,english_125.wav,0,pill,720,25,4,Japanese,f,10,1.0,-94.44407427,0.93528665
YUS,70,1,2024-06-24T06:52:29.917Z,english_125.wav,0,pill,720,25,4,Japanese,f,11,1.09391667,87.09346239,1.20335548
YUS,71,1,2024-06-24T06:52:29.917Z,english_821.wav,0,peel,758,25,4,Japanese,f,0,0.0,60.02897282,0.81118736
YUS,71,1,2024-06-24T06:52:29.917Z,english_821.wav,0,peel,758,25,4,Japanese,f,1,0.1,-31.71016541,1.4887669
YUS,71,1,2024-06-24T06:52:29.917Z,english_821.wav,0,peel,758,25,4,Japanese,f,2,0.2,65.3097336,0.65578563
YUS,71,1,2024-06-24T06:52:29.917Z,english_821.wav,0,peel,758,25,4,Japanese,f,3,0.3,39.90488009,0.99843063
YUS,71,1,2024-06-24T06:52:29.917Z,english_821.wav,0,peel,758,25,4,Japanese,f,4,0.4,65.66520818,0.54862628
YUS,71,1,2024-06-24T06:52:29.917Z,english_821.wav,0,peel,758,25,4,Japanese,f,5,0.5,-73.56912207,0.9620802
YUS,71,1,2024-06-24T06:52:29.917Z,english_821.wav,0,peel,758,25,4,Japanese,f,6,0.6,0.74999233,1.96570853
YUS,71,1,2024-06-24T06:52:29.917Z,english_821.wav,0,peel,758,25,4,Japanese,f,7,0.7,64.12769535,1.86660776
YUS,71,1,2024-06-24T06:52:29.917Z,english_821.wav,0,peel,758,25,4,Japanese,f,8,0.8,-79.18665898,0.48590566
YUS,71,1,2024-06-24T06:52:29.917Z,english_821.wav,0,peel,758,25,4,Japanese,f,9,0.9,-84.62050136,1.1315153
YUS,71,1,2024-06-24T06:52:29.917Z,english_821.wav,0,peel,758,25,4,Japanese,f,10,1.0,99.19624858,1.62744853
YUS,71,1,2024-06-24T06:52:29.917Z,english_821.wav,0,peel,758,25,4,Japanese,f,11,1.09391667,71.58670695,1.94836872
YUS,72,1,2024-06-24T06:52:29.917Z,english_37.wav,0,pill,675,25,4,Japanese,f,0,0.0,68.40782596,0.52957209
YUS,72,1,2024-06-24T06:52:29.917Z,english_37.wav,0,pill,675,25,4,Japanese,f,1,0.1,41.58379148,1.67320718
YUS,72,1,2024-06-24T06:52:29.917Z,english_37.wav,0,pill,675,25,4,Japanese,f,2,0.2,63.04378759,1.31144487
YUS,72,1,2024-06-24T06:52:29.917Z,english_37.wav,0,pill,675,25,4,Japanese,f,3,0.3,12.39470235,1.11254506
YUS,72,1,2024-06-24T06:52:29.917Z,english_37.wav,0,pill,675,25,4,Japanese,f,4,0.4,-38.69600303,0.57972705
YUS,72,1,2024-06-24T06:52:29.917Z,english_37.wav,0,pill,675,25,4,Japanese,f,5,0.5,-51.98957982,0.30651039
YUS,72,1,2024-06-24T06:52:29.917Z,english_37.wav,0,pill,675,25,4,Japanese,f,6,0.6,90.7945682,0.45858619
YUS,72,1,2024-06-24T06:52:29.917Z,english_37.wav,0,pill,675,25,4,Japanese,f,7,0.7,40.67115675,1.55641423
YUS,72,1,2024-06-24T06:52:29.917Z,english_37.wav,0,pill,675,25,4,Japanese,f,8,0.8,34.01498334,1.01642962
YUS,72,1,2024-06-24T06:52:29.917Z,english_37.wav,0,pill,675,25,4,Japanese,f,9,0.9,-88.26662934,0.95850402
YUS,72,1,2024-06-24T06:52:29.917Z,english_37.wav,0,pill,675,25,4,Japanese,f,10,1.0,-41.35685221,0.70833558
YUS,72,1,2024-06-24T06:52:29.917Z,english_37.wav,0,pill,675,25,4,Japanese,f,11,1.09391667,-27.43470179,0.55678167
YUS,73,1,2024-06-24T06:52:29.917Z,english_909.wav,0,peel,624,25,4,Japanese,f,0,0.0,10.71027544,0.31194576
YUS,73,1,2024-06-24T06:52:29.917Z,english_909.wav,0,peel,624,25,4,Japanese,f,1,0.1,-48.99679887,0.75562572
YUS,73,1,2024-06-24T06:52:29.917Z,english_909.wav,0,peel,624,25,4,Japanese,f,2,0.2,0.10936675,1.15361909
YUS,73,1,2024-06-24T06:52:29.917Z,english_909.wav,0,peel,624,25,4,Japanese,f,3,0.3,-9.5972352,1.70848665
YUS,73,1,2024-06-24T06:52:29.917Z,english_909.wav,0,peel,624,25,4,Japanese,f,4,0.4,41.63700809,1.17263968
YUS,73,1,2024-06-24T06:52:29.917Z,english_909.wav,0,peel,624,25,4,Japanese,f,5,0.5,-54.98653808,1.91472761
YUS,73,1,2024-06-24T06:52:29.917Z,english_909.wav,0,peel,624,25,4,Japanese,f,6,0.6,-79.93461055,0.74389201
YUS,73,1,2024-06-24T06:52:29.917Z,english_909.wav,0,peel,624,25,4,Japanese,f,7,0.7,-18.97053935,0.87039019
YUS,73,1,2024-06-24T06:52:29.917Z,english_909.wav,0,peel,624,25,4,Japanese,f,8,0.8,-79.95487678,0.69566776
YUS,73,1,2024-06-24T06:52:29.917Z,english_909.wav,0,peel,624,25,4,Japanese,f,9,0.9,48.57972969,0.96721203
YUS,73,1,2024-06-24T06:52:29.917Z,english_909.wav,0,peel,624,25,4,Japanese,f,10,1.0,81.75147214,1.53411622
YUS,73,1,2024-06-24T06:52:29.917Z,english_909.wav,0,peel,624,25,4,Japanese,f,11,1.09391667,-81.8755088,1.74360808
YUS,74,1,2024-06-24T06:52:29.917Z,english_655.wav,0,peel,458,25,4,Japanese,f,0,0.0,-90.05217159,1.15438405
YUS,74,1,2024-06-24T06:52:29.917Z,english_655.wav,0,peel,458,25,4,Japanese,f,1,0.1,-51.53203878,1.12188764
YUS,74,1,2024-06-24T06:52:29.917Z,english_655.wav,0,peel,458,25,4,Japanese,f,2,0.2,-18.56413276,0.95676367
YUS,74,1,2024-06-24T06:52:29.917Z,english_655.wav,0,peel,458,25,4,Japanese,f,3,0.3,-32.31488117,0.61420414
YUS,74,1,2024-06-24T06:52:29.917Z,english_655.wav,0,peel,458,25,4,Japanese,f,4,0.4,49.43339315,0.76264188
YUS,74,1,2024-06-24T06:52:29.917Z,english_655.wav,0,peel,458,25,4,Japanese,f,5,0.5,-67.53322914,1.45400352
YUS,74,1,2024-06-24T06:52:29.917Z,english_655.wav,0,peel,458,25,4,Japanese,f,6,0.6,90.11454302,0.06830652
YUS,74,1,2024-06-24T06:52:29.917Z,english_655.wav,0,peel,458,25,4,Japanese,f,7,0.7,98.57977716,0.91955523
YUS,74,1,2024-06-24T06:52:29.917Z,english_655.wav,0,peel,458,25,4,Japanese,f,8,0.8,29.43352269,0.33519017
YUS,74,1,2024-06-24T06:52:29.917Z,english_655.wav,0,peel,458,25,4,Japanese,f,9,0.9,91.08820104,0.7797243
YUS,74,1,2024-06-24T06:52:29.917Z,english_655.wav,0,peel,458,25,4,Japanese,f,10,1.0,-3.70059628,1.01878467
YUS,74,1,2024-06-24T06:52:29.917Z,english_655.wav,0,peel,458,25,4,Japanese,f,11,1.09391667,30.30784512,1.55349389
YUS,75,1,2024-06-24T06:52:29.917Z,english_124.wav,0,peel,540,25,4,Japanese,f,0,0.0,5.35510852,0.99413203
YUS,75,1,2024-06-24T06:52:29.917Z,english_124.wav,0,peel,540,25,4,Japanese,f,1,0.1,82.22763866,0.35886786
YUS,75,1,2024-06-24T06:52:29.917Z,english_124.wav,0,peel,540,25,4,Japanese,f,2,0.2,78.44526729,0.68901736
YUS,75,1,2024-06-24T06:52:29.917Z,english_124.wav,0,peel,540,25,4,Japanese,f,3,0.3,-3.07690156,1.32582542
YUS,75,1,2024-06-24T06:52:29.917Z,english_124.wav,0,peel,540,25,4,Japanese,f,4,0.4,-26.87127611,1.93650033
YUS,75,1,2024-06-24T06:52:29.917Z,english_124.wav,0,peel,540,25,4,Japanese,f,5,0.5,-1.1256219,1.64621245
YUS,75,1,2024-06-24T06:52:29.917Z,english_124.wav,0,peel,540,25,4,Japanese,f,6,0.6,-86.86575837,1.68793936
YUS,75,1,2024-06-24T06:52:29.917Z,english_124.wav,0,peel,540,25,4,Japanese,f,7,0.7,73.06997556,1.14468764
YUS,75,1,2024-06-24T06:52:29.917Z,english_124.wav,0,peel,540,25,4,Japanese,f,8,0.8,48.90999268,1.13594555
YUS,75,1,2024-06-24T06:52:29.917Z,english_124.wav,0,peel,540,25,4,Japanese,f,9,0.9,52.65203742,0.473778
YUS,75,1,2024-06-24T06:52:29.917Z,english_124.wav,0,peel,540,25,4,Japanese,f,10,1.0,-49.74668146,1.84215607
YUS,75,1,2024-06-24T06:52:29.917Z,english_124.wav,0,peel,540,25,4,Japanese,f,11,1.09391667,-71.87075445,0.96391319
YUS,76,1,2024-06-24T06:52:29.917Z,english_515.wav,0,pill,801,25,4,Japanese,f,0,0.0,-58.23176372,1.22843541
YUS,76,1,2024-06-24T06:52:29.917Z,english_515.wav,0,pill,801,25,4,Japanese,f,1,0.1,-76.45173976,1.63015901
YUS,76,1,2024-06-24T06:52:29.917Z,english_515.wav,0,pill,801,25,4,Japanese,f,2,0.2,25.49902523,1.20813881
YUS,76,1,2024-06-24T06:52:29.917Z,english_515.wav,0,pill,801,25,4,Japanese,f,3,0.3,5.27103545,0.47612476
YUS,76,1,2024-06-24T06:52:29.917Z,english_515.wav,0,pill,801,25,4,Japanese,f,4,0.4,-41.64983344,0.26545174
YUS,76,1,2024-06-24T06:52:29.917Z,english_515.wav,0,pill,801,25,4,Japanese,f,5,0.5,-51.29888172,1.8557412
YUS,76,1,2024-06-24T06:52:29.917Z,english_515.wav,0,pill,801,25,4,Japanese,f,6,0.6,65.36966432,0.81547092
YUS,76,1,2024-06-24T06:52:29.917Z,english_515.wav,0,pill,801,25,4,Japanese,f,7,0.7,-56.17839976,1.63185656
YUS,76,1,2024-06-24T06:52:29.917Z,english_515.wav,0,pill,801,25,4,Japanese,f,8,0.8,-12.23547481,0.09263004
YUS,76,1,2024-06-24T06:52:29.917Z,english_515.wav,0,pill,801,25,4,Japanese,f,9,0.9,-89.1418522,1.76127396
YUS,76,1,2024-06-24T06:52:29.917Z,english_515.wav,0,pill,801,25,4,Japanese,f,10,1.0,8.96872742,0.57224671
YUS,76,1,2024-06-24T06:52:29.917Z,english_515.wav,0,pill,801,25,4,Japanese,f,11,1.09391667,-18.30503433,1.26155121
YUS,77,1,2024-06-24T06:52:29.917Z,english_842.wav,0,pill,673,25,4,Japanese,f,0,0.0,-81.72100022,1.05096469
YUS,77,1,2024-06-24T06:52:29.917Z,english_842.wav,0,pill,673,25,4,Japanese,f,1,0.1,18.84637506,0.68369723
YUS,77,1,2024-06-24T06:52:29.917Z,english_842.wav,0,pill,673,25,4,Japanese,f,2,0.2,-80.18621681,1.52749806
YUS,77,1,2024-06-24T06:52:29.917Z,english_842.wav,0,pill,673,25,4,Japanese,f,3,0.3,38.99509662,0.81526033
YUS,77,1,2024-06-24T06:52:29.917Z,english_842.wav,0,pill,673,25,4,Japanese,f,4,0.4,24.76840986,1.70702662
YUS,77,1,2024-06-24T06:52:29.917Z,english_842.wav,0,pill,673,25,4,Japanese,f,5,0.5,-19.71585535,1.05576458
YUS,77,1,2024-06-24T06:52:29.917Z,english_842.wav,0,pill,673,25,4,Japanese,f,6,0.6,69.03077802,0.15620837
