subj,trial,block,date,stim,stim_order,response,rt,age,english,language,sex,param_index,segment,pitch,stretch
AKY,0,0,2024-06-29T07:52:56.098Z,english_137.wav,0,peel,8969,52,4,Japanese,f,0,0.0,-81.54177422,0.16940048
AKY,0,0,2024-06-29T07:52:56.098Z,english_137.wav,0,peel,8969,52,4,Japanese,f,1,0.1,48.50229113,1.33204053
AKY,0,0,2024-06-29T07:52:56.098Z,english_137.wav,0,peel,8969,52,4,Japanese,f,2,0.2,-43.40912925,1.8593258
AKY,0,0,2024-06-29T07:52:56.098Z,english_137.wav,0,peel,8969,52,4,Japanese,f,3,0.3,54.89578869,1.77805515
AKY,0,0,2024-06-29T07:52:56.098Z,english_137.wav,0,peel,8969,52,4,Japanese,f,4,0.32341667,90.09778797,1.80981769
AKY,1,0,2024-06-29T07:52:56.098Z,english_431.wav,0,peel,7468,52,4,Japanese,f,0,0.0,-28.91437381,1.3282391
AKY,1,0,2024-06-29T07:52:56.098Z,english_431.wav,0,peel,7468,52,4,Japanese,f,1,0.1,30.6479342,1.9405757
AKY,1,0,2024-06-29T07:52:56.098Z,english_431.wav,0,peel,7468,52,4,Japanese,f,2,0.2,41.25713347,1.67607787
AKY,1,0,2024-06-29T07:52:56.098Z,english_431.wav,0,peel,7468,52,4,Japanese,f,3,0.3,9.19018397,0.62213613
AKY,1,0,2024-06-29T07:52:56.098Z,english_431.wav,0,peel,7468,52,4,Japanese,f,4,0.32341667,-61.77590044,0.50881411
AKY,2,0,2024-06-29T07:52:56.098Z,english_310.wav,0,peel,5649,52,4,Japanese,f,0,0.0,82.1385274,0.14341218
AKY,2,0,2024-06-29T07:52:56.098Z,english_310.wav,0,peel,5649,52,4,Japanese,f,1,0.1,-33.74608058,1.80934389
AKY,2,0,2024-06-29T07:52:56.098Z,english_310.wav,0,peel,5649,52,4,Japanese,f,2,0.2,62.12487376,1.28785402
AKY,2,0,2024-06-29T07:52:56.098Z,english_310.wav,0,peel,5649,52,4,Japanese,f,3,0.3,96.31437548,1.13060378
AKY,2,0,2024-06-29T07:52:56.098Z,english_310.wav,0,peel,5649,52,4,Japanese,f,4,0.32341667,-23.64802517,1.05137249
AKY,3,0,2024-06-29T07:52:56.098Z,english_872.wav,0,peel,3494,52,4,Japanese,f,0,0.0,0.56374655,0.10935802
AKY,3,0,2024-06-29T07:52:56.098Z,english_872.wav,0,peel,3494,52,4,Japanese,f,1,0.1,-70.88107799,0.91778609
AKY,3,0,2024-06-29T07:52:56.098Z,english_872.wav,0,peel,3494,52,4,Japanese,f,2,0.2,6.46677515,1.38740199
AKY,3,0,2024-06-29T07:52:56.098Z,english_872.wav,0,peel,3494,52,4,Japanese,f,3,0.3,-23.51354109,0.12682507
AKY,3,0,2024-06-29T07:52:56.098Z,english_872.wav,0,peel,3494,52,4,Japanese,f,4,0.32341667,81.64578493,0.71067476
AKY,4,0,2024-06-29T07:52:56.098Z,english_649.wav,0,peel,5047,52,4,Japanese,f,0,0.0,65.82222467,0.56154429
AKY,4,0,2024-06-29T07:52:56.098Z,english_649.wav,0,peel,5047,52,4,Japanese,f,1,0.1,-9.35575527,0.64767017
AKY,4,0,2024-06-29T07:52:56.098Z,english_649.wav,0,peel,5047,52,4,Japanese,f,2,0.2,-91.83315911,0.84538271
AKY,4,0,2024-06-29T07:52:56.098Z,english_649.wav,0,peel,5047,52,4,Japanese,f,3,0.3,79.30022345,0.4979411
AKY,4,0,2024-06-29T07:52:56.098Z,english_649.wav,0,peel,5047,52,4,Japanese,f,4,0.32341667,45.86180924,0.89353148
AKY,5,0,2024-06-29T07:52:56.098Z,english_160.wav,0,peel,5267,52,4,Japanese,f,0,0.0,2.54964477,0.54357393
AKY,5,0,2024-06-29T07:52:56.098Z,english_160.wav,0,peel,5267,52,4,Japanese,f,1,0.1,26.84692557,1.29343216
AKY,5,0,2024-06-29T07:52:56.098Z,english_160.wav,0,peel,5267,52,4,Japanese,f,2,0.2,72.58457191,0.42070854
AKY,5,0,2024-06-29T07:52:56.098Z,english_160.wav,0,peel,5267,52,4,Japanese,f,3,0.3,-6.94481249,1.04489529
AKY,5,0,2024-06-29T07:52:56.098Z,english_160.wav,0,peel,5267,52,4,Japanese,f,4,0.32341667,35.80656171,0.26802137
AKY,6,0,2024-06-29T07:52:56.098Z,english_864.wav,0,peel,8493,52,4,Japanese,f,0,0.0,-41.66547405,0.15536101
AKY,6,0,2024-06-29T07:52:56.098Z,english_864.wav,0,peel,8493,52,4,Japanese,f,1,0.1,47.36949562,1.78739046
AKY,6,0,2024-06-29T07:52:56.098Z,english_864.wav,0,peel,8493,52,4,Japanese,f,2,0.2,87.97635609,1.48310956
AKY,6,0,2024-06-29T07:52:56.098Z,english_864.wav,0,peel,8493,52,4,Japanese,f,3,0.3,-18.88921291,0.35838492
AKY,6,0,2024-06-29T07:52:56.098Z,english_864.wav,0,peel,8493,52,4,Japanese,f,4,0.32341667,13.88839096,0.21709894
AKY,7,0,2024-06-29T07:52:56.098Z,english_366.wav,0,pill,6339,52,4,Japanese,f,0,0.0,30.08929792,0.87054072
AKY,7,0,2024-06-29T07:52:56.098Z,english_366.wav,0,pill,6339,52,4,Japanese,f,1,0.1,-17.9139155,0.34658018
AKY,7,0,2024-06-29T07:52:56.098Z,english_366.wav,0,pill,6339,52,4,Japanese,f,2,0.2,-66.75779592,0.49970414
AKY,7,0,2024-06-29T07:52:56.098Z,english_366.wav,0,pill,6339,52,4,Japanese,f,3,0.3,77.64459909,1.94720887
AKY,7,0,2024-06-29T07:52:56.098Z,english_366.wav,0,pill,6339,52,4,Japanese,f,4,0.32341667,72.64294537,1.76390144
AKY,8,0,2024-06-29T07:52:56.098Z,english_671.wav,0,pill,1851,52,4,Japanese,f,0,0.0,32.91930287,1.74193101
AKY,8,0,2024-06-29T07:52:56.098Z,english_671.wav,0,pill,1851,52,4,Japanese,f,1,0.1,6.16976114,0.51820224
AKY,8,0,2024-06-29T07:52:56.098Z,english_671.wav,0,pill,1851,52,4,Japanese,f,2,0.2,-34.00390264,0.07120536
AKY,8,0,2024-06-29T07:52:56.098Z,english_671.wav,0,pill,1851,52,4,Japanese,f,3,0.3,18.374511,0.3828633
AKY,8,0,2024-06-29T07:52:56.098Z,english_671.wav,0,pill,1851,52,4,Japanese,f,4,0.32341667,-2.98713897,1.2592669
AKY,9,0,2024-06-29T07:52:56.098Z,english_774.wav,0,peel,3179,52,4,Japanese,f,0,0.0,-13.3479616,1.45409172
AKY,9,0,2024-06-29T07:52:56.098Z,english_774.wav,0,peel,3179,52,4,Japanese,f,1,0.1,-18.75352159,1.07775337
AKY,9,0,2024-06-29T07:52:56.098Z,english_774.wav,0,peel,3179,52,4,Japanese,f,2,0.2,-41.83192829,0.61872946
AKY,9,0,2024-06-29T07:52:56.098Z,english_774.wav,0,peel,3179,52,4,Japanese,f,3,0.3,14.77986843,1.87871381
AKY,9,0,2024-06-29T07:52:56.098Z,english_774.wav,0,peel,3179,52,4,Japanese,f,4,0.32341667,45.85609187,1.0399825
AKY,10,0,2024-06-29T07:52:56.098Z,english_397.wav,0,pill,2139,52,4,Japanese,f,0,0.0,89.67962381,0.42719638
AKY,10,0,2024-06-29T07:52:56.098Z,english_397.wav,0,pill,2139,52,4,Japanese,f,1,0.1,-80.29722345,0.89466904
AKY,10,0,2024-06-29T07:52:56.098Z,english_397.wav,0,pill,2139,52,4,Japanese,f,2,0.2,60.53564011,0.56174568
AKY,10,0,2024-06-29T07:52:56.098Z,english_397.wav,0,pill,2139,52,4,Japanese,f,3,0.3,9.94565725,0.1553242
AKY,10,0,2024-06-29T07:52:56.098Z,english_397.wav,0,pill,2139,52,4,Japanese,f,4,0.32341667,0.1319882,1.89079641
AKY,11,0,2024-06-29T07:52:56.098Z,english_197.wav,0,pill,4936,52,4,Japanese,f,0,0.0,-60.72223742,1.8449777
AKY,11,0,2024-06-29T07:52:56.098Z,english_197.wav,0,pill,4936,52,4,Japanese,f,1,0.1,-88.93421142,1.74693134
AKY,11,0,2024-06-29T07:52:56.098Z,english_197.wav,0,pill,4936,52,4,Japanese,f,2,0.2,51.43827126,1.11057597
AKY,11,0,2024-06-29T07:52:56.098Z,english_197.wav,0,pill,4936,52,4,Japanese,f,3,0.3,7.80125839,1.67371275
AKY,11,0,2024-06-29T07:52:56.098Z,english_197.wav,0,pill,4936,52,4,Japanese,f,4,0.32341667,-53.06876459,1.16077516
AKY,12,0,2024-06-29T07:52:56.098Z,english_312.wav,0,pill,2282,52,4,Japanese,f,0,0.0,44.01610098,1.36033213
AKY,12,0,2024-06-29T07:52:56.098Z,english_312.wav,0,pill,2282,52,4,Japanese,f,1,0.1,-34.76139374,0.08557756
AKY,12,0,2024-06-29T07:52:56.098Z,english_312.wav,0,pill,2282,52,4,Japanese,f,2,0.2,-43.47986862,1.06509633
AKY,12,0,2024-06-29T07:52:56.098Z,english_312.wav,0,pill,2282,52,4,Japanese,f,3,0.3,-9.79517271,0.67257935
AKY,12,0,2024-06-29T07:52:56.098Z,english_312.wav,0,pill,2282,52,4,Japanese,f,4,0.32341667,85.48914895,0.12614926
AKY,13,0,2024-06-29T07:52:56.098Z,english_713.wav,0,peel,5591,52,4,Japanese,f,0,0.0,18.77281956,1.04868626
AKY,13,0,2024-06-29T07:52:56.098Z,english_713.wav,0,peel,5591,52,4,Japanese,f,1,0.1,40.78610286,0.48332939
AKY,13,0,2024-06-29T07:52:56.098Z,english_713.wav,0,peel,5591,52,4,Japanese,f,2,0.2,84.18153491,0.83217717
AKY,13,0,2024-06-29T07:52:56.098Z,english_713.wav,0,peel,5591,52,4,Japanese,f,3,0.3,47.00827256,1.90318663
AKY,13,0,2024-06-29T07:52:56.098Z,english_713.wav,0,peel,5591,52,4,Japanese,f,4,0.32341667,66.01008384,0.50055362
AKY,14,0,2024-06-29T07:52:56.098Z,english_723.wav,0,peel,1253,52,4,Japanese,f,0,0.0,-85.17156731,1.02541656
AKY,14,0,2024-06-29T07:52:56.098Z,english_723.wav,0,peel,1253,52,4,Japanese,f,1,0.1,92.93654667,0.92088513
AKY,14,0,2024-06-29T07:52:56.098Z,english_723.wav,0,peel,1253,52,4,Japanese,f,2,0.2,-28.89042756,0.78256854
AKY,14,0,2024-06-29T07:52:56.098Z,english_723.wav,0,peel,1253,52,4,Japanese,f,3,0.3,36.79914563,1.22887413
AKY,14,0,2024-06-29T07:52:56.098Z,english_723.wav,0,peel,1253,52,4,Japanese,f,4,0.32341667,6.86426773,1.77193963
AKY,15,0,2024-06-29T07:52:56.098Z,english_588.wav,0,pill,1913,52,4,Japanese,f,0,0.0,99.95047602,0.54608042
AKY,15,0,2024-06-29T07:52:56.098Z,english_588.wav,0,pill,1913,52,4,Japanese,f,1,0.1,6.8401109,0.86340392
AKY,15,0,2024-06-29T07:52:56.098Z,english_588.wav,0,pill,1913,52,4,Japanese,f,2,0.2,-15.9093749,0.01522231
AKY,15,0,2024-06-29T07:52:56.098Z,english_588.wav,0,pill,1913,52,4,Japanese,f,3,0.3,-95.80500507,0.86017392
AKY,15,0,2024-06-29T07:52:56.098Z,english_588.wav,0,pill,1913,52,4,Japanese,f,4,0.32341667,23.59255786,0.36914066
AKY,16,0,2024-06-29T07:52:56.098Z,english_14.wav,0,pill,1650,52,4,Japanese,f,0,0.0,98.00979643,0.92494293
AKY,16,0,2024-06-29T07:52:56.098Z,english_14.wav,0,pill,1650,52,4,Japanese,f,1,0.1,-39.90204919,0.80403915
AKY,16,0,2024-06-29T07:52:56.098Z,english_14.wav,0,pill,1650,52,4,Japanese,f,2,0.2,51.0517473,0.29426005
AKY,16,0,2024-06-29T07:52:56.098Z,english_14.wav,0,pill,1650,52,4,Japanese,f,3,0.3,-8.39716694,0.14957292
AKY,16,0,2024-06-29T07:52:56.098Z,english_14.wav,0,pill,1650,52,4,Japanese,f,4,0.32341667,82.54419716,0.1717279
AKY,17,0,2024-06-29T07:52:56.098Z,english_895.wav,0,peel,1938,52,4,Japanese,f,0,0.0,-36.05432491,1.57991636
AKY,17,0,2024-06-29T07:52:56.098Z,english_895.wav,0,peel,1938,52,4,Japanese,f,1,0.1,0.27991529,1.29141926
AKY,17,0,2024-06-29T07:52:56.098Z,english_895.wav,0,peel,1938,52,4,Japanese,f,2,0.2,-68.50060493,0.78617821
AKY,17,0,2024-06-29T07:52:56.098Z,english_895.wav,0,peel,1938,52,4,Japanese,f,3,0.3,-65.34452755,0.53071912
AKY,17,0,2024-06-29T07:52:56.098Z,english_895.wav,0,peel,1938,52,4,Japanese,f,4,0.32341667,44.30205494,1.44568828
AKY,18,0,2024-06-29T07:52:56.098Z,english_188.wav,0,peel,3039,52,4,Japanese,f,0,0.0,-13.13088252,0.29227292
AKY,18,0,2024-06-29T07:52:56.098Z,english_188.wav,0,peel,3039,52,4,Japanese,f,1,0.1,51.13663316,1.25360943
AKY,18,0,2024-06-29T07:52:56.098Z,english_188.wav,0,peel,3039,52,4,Japanese,f,2,0.2,-80.18048506,1.7916357
AKY,18,0,2024-06-29T07:52:56.098Z,english_188.wav,0,peel,3039,52,4,Japanese,f,3,0.3,-47.89773773,0.58346705
AKY,18,0,2024-06-29T07:52:56.098Z,english_188.wav,0,peel,3039,52,4,Japanese,f,4,0.32341667,-7.0568118,1.77612328
AKY,19,0,2024-06-29T07:52:56.098Z,english_466.wav,0,peel,3511,52,4,Japanese,f,0,0.0,59.64739432,1.91119383
AKY,19,0,2024-06-29T07:52:56.098Z,english_466.wav,0,peel,3511,52,4,Japanese,f,1,0.1,-20.63646321,1.29572765
AKY,19,0,2024-06-29T07:52:56.098Z,english_466.wav,0,peel,3511,52,4,Japanese,f,2,0.2,62.86141463,0.99944191
AKY,19,0,2024-06-29T07:52:56.098Z,english_466.wav,0,peel,3511,52,4,Japanese,f,3,0.3,-65.74461877,1.01221774
AKY,19,0,2024-06-29T07:52:56.098Z,english_466.wav,0,peel,3511,52,4,Japanese,f,4,0.32341667,44.70090984,0.89697717
AKY,20,0,2024-06-29T07:52:56.098Z,english_302.wav,0,peel,3805,52,4,Japanese,f,0,0.0,-63.95927305,1.3663617
AKY,20,0,2024-06-29T07:52:56.098Z,english_302.wav,0,peel,3805,52,4,Japanese,f,1,0.1,-82.44028643,1.24112643
AKY,20,0,2024-06-29T07:52:56.098Z,english_302.wav,0,peel,3805,52,4,Japanese,f,2,0.2,-63.33590257,1.83999602
AKY,20,0,2024-06-29T07:52:56.098Z,english_302.wav,0,peel,3805,52,4,Japanese,f,3,0.3,-82.33590521,0.89576132
AKY,20,0,2024-06-29T07:52:56.098Z,english_302.wav,0,peel,3805,52,4,Japanese,f,4,0.32341667,-77.43124585,1.51483357
AKY,21,0,2024-06-29T07:52:56.098Z,english_786.wav,0,peel,1769,52,4,Japanese,f,0,0.0,50.77560123,0.9907589
AKY,21,0,2024-06-29T07:52:56.098Z,english_786.wav,0,peel,1769,52,4,Japanese,f,1,0.1,-87.08435808,0.48193409
AKY,21,0,2024-06-29T07:52:56.098Z,english_786.wav,0,peel,1769,52,4,Japanese,f,2,0.2,-36.07136163,1.01949061
AKY,21,0,2024-06-29T07:52:56.098Z,english_786.wav,0,peel,1769,52,4,Japanese,f,3,0.3,98.77618087,1.06334926
AKY,21,0,2024-06-29T07:52:56.098Z,english_786.wav,0,peel,1769,52,4,Japanese,f,4,0.32341667,86.70070823,0.94164836
AKY,22,0,2024-06-29T07:52:56.098Z,english_74.wav,0,peel,2361,52,4,Japanese,f,0,0.0,86.29588785,1.196208
AKY,22,0,2024-06-29T07:52:56.098Z,english_74.wav,0,peel,2361,52,4,Japanese,f,1,0.1,-14.52381687,1.63208143
AKY,22,0,2024-06-29T07:52:56.098Z,english_74.wav,0,peel,2361,52,4,Japanese,f,2,0.2,77.94321906,0.46125368
AKY,22,0,2024-06-29T07:52:56.098Z,english_74.wav,0,peel,2361,52,4,Japanese,f,3,0.3,-32.33104188,1.38278461
AKY,22,0,2024-06-29T07:52:56.098Z,english_74.wav,0,peel,2361,52,4,Japanese,f,4,0.32341667,9.46602754,0.83147108
AKY,23,0,2024-06-29T07:52:56.098Z,english_900.wav,0,peel,1329,52,4,Japanese,f,0,0.0,-54.93304755,1.64865849
AKY,23,0,2024-06-29T07:52:56.098Z,english_900.wav,0,peel,1329,52,4,Japanese,f,1,0.1,58.88524349,1.11215591
AKY,23,0,2024-06-29T07:52:56.098Z,english_900.wav,0,peel,1329,52,4,Japanese,f,2,0.2,-67.87194092,0.89823705
AKY,23,0,2024-06-29T07:52:56.098Z,english_900.wav,0,peel,1329,52,4,Japanese,f,3,0.3,20.66021993,1.30060406
AKY,23,0,2024-06-29T07:52:56.098Z,english_900.wav,0,peel,1329,52,4,Japanese,f,4,0.32341667,-10.79853151,1.95850441
AKY,24,0,2024-06-29T07:52:56.098Z,english_343.wav,0,peel,2154,52,4,Japanese,f,0,0.0,-26.15456552,0.99905336
AKY,24,0,2024-06-29T07:52:56.098Z,english_343.wav,0,peel,2154,52,4,Japanese,f,1,0.1,-4.26522308,0.59066439
AKY,24,0,2024-06-29T07:52:56.098Z,english_343.wav,0,peel,2154,52,4,Japanese,f,2,0.2,55.3227334,1.69088488
AKY,24,0,2024-06-29T07:52:56.098Z,english_343.wav,0,peel,2154,52,4,Japanese,f,3,0.3,-26.26518208,1.70645599
AKY,24,0,2024-06-29T07:52:56.098Z,english_343.wav,0,peel,2154,52,4,Japanese,f,4,0.32341667,-18.3065251,0.13143106
AKY,25,0,2024-06-29T07:52:56.098Z,english_198.wav,0,peel,5579,52,4,Japanese,f,0,0.0,-3.53881338,0.6033193
AKY,25,0,2024-06-29T07:52:56.098Z,english_198.wav,0,peel,5579,52,4,Japanese,f,1,0.1,58.04445454,0.57837506
AKY,25,0,2024-06-29T07:52:56.098Z,english_198.wav,0,peel,5579,52,4,Japanese,f,2,0.2,67.39523563,1.37850613
AKY,25,0,2024-06-29T07:52:56.098Z,english_198.wav,0,peel,5579,52,4,Japanese,f,3,0.3,56.58835275,0.73107668
AKY,25,0,2024-06-29T07:52:56.098Z,english_198.wav,0,peel,5579,52,4,Japanese,f,4,0.32341667,7.34595052,0.42006089
AKY,26,0,2024-06-29T07:52:56.098Z,english_420.wav,0,peel,1142,52,4,Japanese,f,0,0.0,-56.31893026,0.25307214
AKY,26,0,2024-06-29T07:52:56.098Z,english_420.wav,0,peel,1142,52,4,Japanese,f,1,0.1,66.6522923,1.93095887
AKY,26,0,2024-06-29T07:52:56.098Z,english_420.wav,0,peel,1142,52,4,Japanese,f,2,0.2,2.15493058,0.49520396
AKY,26,0,2024-06-29T07:52:56.098Z,english_420.wav,0,peel,1142,52,4,Japanese,f,3,0.3,-23.51601285,1.55970731
AKY,26,0,2024-06-29T07:52:56.098Z,english_420.wav,0,peel,1142,52,4,Japanese,f,4,0.32341667,22.32226467,0.71957325
AKY,27,0,2024-06-29T07:52:56.098Z,english_56.wav,0,pill,3423,52,4,Japanese,f,0,0.0,47.39262259,1.7837475
AKY,27,0,2024-06-29T07:52:56.098Z,english_56.wav,0,pill,3423,52,4,Japanese,f,1,0.1,8.89686315,1.39740624
AKY,27,0,2024-06-29T07:52:56.098Z,english_56.wav,0,pill,3423,52,4,Japanese,f,2,0.2,-49.65570225,0.11209095
AKY,27,0,2024-06-29T07:52:56.098Z,english_56.wav,0,pill,3423,52,4,Japanese,f,3,0.3,44.77904805,1.4946119
AKY,27,0,2024-06-29T07:52:56.098Z,english_56.wav,0,pill,3423,52,4,Japanese,f,4,0.32341667,-94.65832844,1.03498606
AKY,28,0,2024-06-29T07:52:56.098Z,english_991.wav,0,pill,1149,52,4,Japanese,f,0,0.0,-73.33762004,0.7279734
AKY,28,0,2024-06-29T07:52:56.098Z,english_991.wav,0,pill,1149,52,4,Japanese,f,1,0.1,-90.08677455,0.374322
AKY,28,0,2024-06-29T07:52:56.098Z,english_991.wav,0,pill,1149,52,4,Japanese,f,2,0.2,-98.84294029,0.98894361
AKY,28,0,2024-06-29T07:52:56.098Z,english_991.wav,0,pill,1149,52,4,Japanese,f,3,0.3,59.84972986,1.07774369
AKY,28,0,2024-06-29T07:52:56.098Z,english_991.wav,0,pill,1149,52,4,Japanese,f,4,0.32341667,21.03568625,0.51480923
AKY,29,0,2024-06-29T07:52:56.098Z,english_421.wav,0,pill,4945,52,4,Japanese,f,0,0.0,25.39012861,1.47358925
AKY,29,0,2024-06-29T07:52:56.098Z,english_421.wav,0,pill,4945,52,4,Japanese,f,1,0.1,49.11153532,1.20920516
AKY,29,0,2024-06-29T07:52:56.098Z,english_421.wav,0,pill,4945,52,4,Japanese,f,2,0.2,38.93723883,0.72174872
AKY,29,0,2024-06-29T07:52:56.098Z,english_421.wav,0,pill,4945,52,4,Japanese,f,3,0.3,-9.34286459,0.24556907
AKY,29,0,2024-06-29T07:52:56.098Z,english_421.wav,0,pill,4945,52,4,Japanese,f,4,0.32341667,-9.28476392,0.87006143
AKY,30,0,2024-06-29T07:52:56.098Z,english_964.wav,0,peel,1405,52,4,Japanese,f,0,0.0,11.04708611,0.74384055
AKY,30,0,2024-06-29T07:52:56.098Z,english_964.wav,0,peel,1405,52,4,Japanese,f,1,0.1,-10.67848967,0.46038505
AKY,30,0,2024-06-29T07:52:56.098Z,english_964.wav,0,peel,1405,52,4,Japanese,f,2,0.2,64.95328634,0.80934661
AKY,30,0,2024-06-29T07:52:56.098Z,english_964.wav,0,peel,1405,52,4,Japanese,f,3,0.3,-78.10341524,1.94282647
AKY,30,0,2024-06-29T07:52:56.098Z,english_964.wav,0,peel,1405,52,4,Japanese,f,4,0.32341667,-48.61651995,1.99482071
AKY,31,0,2024-06-29T07:52:56.098Z,english_865.wav,0,pill,1327,52,4,Japanese,f,0,0.0,57.45647421,1.64387024
AKY,31,0,2024-06-29T07:52:56.098Z,english_865.wav,0,pill,1327,52,4,Japanese,f,1,0.1,-62.30549211,0.05749027
AKY,31,0,2024-06-29T07:52:56.098Z,english_865.wav,0,pill,1327,52,4,Japanese,f,2,0.2,-35.85649312,0.09554773
AKY,31,0,2024-06-29T07:52:56.098Z,english_865.wav,0,pill,1327,52,4,Japanese,f,3,0.3,55.00701181,1.62598434
AKY,31,0,2024-06-29T07:52:56.098Z,english_865.wav,0,pill,1327,52,4,Japanese,f,4,0.32341667,-39.97662747,0.71232625
AKY,32,0,2024-06-29T07:52:56.098Z,english_240.wav,0,peel,1497,52,4,Japanese,f,0,0.0,-96.55121617,1.04823872
AKY,32,0,2024-06-29T07:52:56.098Z,english_240.wav,0,peel,1497,52,4,Japanese,f,1,0.1,73.99435309,1.11556714
AKY,32,0,2024-06-29T07:52:56.098Z,english_240.wav,0,peel,1497,52,4,Japanese,f,2,0.2,-27.17256968,0.68795106
AKY,32,0,2024-06-29T07:52:56.098Z,english_240.wav,0,peel,1497,52,4,Japanese,f,3,0.3,-2.05185553,1.30325309
AKY,32,0,2024-06-29T07:52:56.098Z,english_240.wav,0,peel,1497,52,4,Japanese,f,4,0.32341667,80.37406519,0.86977317
AKY,33,0,2024-06-29T07:52:56.098Z,english_966.wav,0,peel,2922,52,4,Japanese,f,0,0.0,23.00954068,1.02848684
AKY,33,0,2024-06-29T07:52:56.098Z,english_966.wav,0,peel,2922,52,4,Japanese,f,1,0.1,-2.7733657,1.22612364
AKY,33,0,2024-06-29T07:52:56.098Z,english_966.wav,0,peel,2922,52,4,Japanese,f,2,0.2,-6.00176123,0.03461529
AKY,33,0,2024-06-29T07:52:56.098Z,english_966.wav,0,peel,2922,52,4,Japanese,f,3,0.3,-64.80320904,0.22357585
AKY,33,0,2024-06-29T07:52:56.098Z,english_966.wav,0,peel,2922,52,4,Japanese,f,4,0.32341667,94.15296916,0.55383001
AKY,34,0,2024-06-29T07:52:56.098Z,english_355.wav,0,peel,1412,52,4,Japanese,f,0,0.0,33.6784286,1.28512049
AKY,34,0,2024-06-29T07:52:56.098Z,english_355.wav,0,peel,1412,52,4,Japanese,f,1,0.1,30.74796889,1.04729355
AKY,34,0,2024-06-29T07:52:56.098Z,english_355.wav,0,peel,1412,52,4,Japanese,f,2,0.2,71.39310534,0.74339822
AKY,34,0,2024-06-29T07:52:56.098Z,english_355.wav,0,peel,1412,52,4,Japanese,f,3,0.3,38.16266559,0.86152361
AKY,34,0,2024-06-29T07:52:56.098Z,english_355.wav,0,peel,1412,52,4,Japanese,f,4,0.32341667,-39.8799084,1.83215587
AKY,35,0,2024-06-29T07:52:56.098Z,english_643.wav,0,peel,1285,52,4,Japanese,f,0,0.0,-40.15003434,1.60262153
AKY,35,0,2024-06-29T07:52:56.098Z,english_643.wav,0,peel,1285,52,4,Japanese,f,1,0.1,-24.12893917,1.7682358
AKY,35,0,2024-06-29T07:52:56.098Z,english_643.wav,0,peel,1285,52,4,Japanese,f,2,0.2,-40.66556796,0.31725537
AKY,35,0,2024-06-29T07:52:56.098Z,english_643.wav,0,peel,1285,52,4,Japanese,f,3,0.3,75.01987067,0.56722121
AKY,35,0,2024-06-29T07:52:56.098Z,english_643.wav,0,peel,1285,52,4,Japanese,f,4,0.32341667,29.71481383,1.87277365
AKY,36,0,2024-06-29T07:52:56.098Z,english_353.wav,0,pill,1369,52,4,Japanese,f,0,0.0,51.44050484,0.16518243
AKY,36,0,2024-06-29T07:52:56.098Z,english_353.wav,0,pill,1369,52,4,Japanese,f,1,0.1,-8.32491594,1.32533476
AKY,36,0,2024-06-29T07:52:56.098Z,english_353.wav,0,pill,1369,52,4,Japanese,f,2,0.2,-53.32966552,0.41923861
AKY,36,0,2024-06-29T07:52:56.098Z,english_353.wav,0,pill,1369,52,4,Japanese,f,3,0.3,68.29246543,1.87374553
AKY,36,0,2024-06-29T07:52:56.098Z,english_353.wav,0,pill,1369,52,4,Japanese,f,4,0.32341667,-32.22441747,1.13071195
AKY,37,0,2024-06-29T07:52:56.098Z,english_12.wav,0,pill,1246,52,4,Japanese,f,0,0.0,48.33680056,1.48429429
AKY,37,0,2024-06-29T07:52:56.098Z,english_12.wav,0,pill,1246,52,4,Japanese,f,1,0.1,27.41870997,0.15715938
AKY,37,0,2024-06-29T07:52:56.098Z,english_12.wav,0,pill,1246,52,4,Japanese,f,2,0.2,-39.95667364,0.62940339
AKY,37,0,2024-06-29T07:52:56.098Z,english_12.wav,0,pill,1246,52,4,Japanese,f,3,0.3,73.52964836,0.05281398
AKY,37,0,2024-06-29T07:52:56.098Z,english_12.wav,0,pill,1246,52,4,Japanese,f,4,0.32341667,-36.35494906,1.6412938
AKY,38,0,2024-06-29T07:52:56.098Z,english_410.wav,0,pill,1034,52,4,Japanese,f,0,0.0,-74.64506245,0.42358098
AKY,38,0,2024-06-29T07:52:56.098Z,english_410.wav,0,pill,1034,52,4,Japanese,f,1,0.1,65.24401488,0.42526697
AKY,38,0,2024-06-29T07:52:56.098Z,english_410.wav,0,pill,1034,52,4,Japanese,f,2,0.2,-65.86471953,1.12385183
AKY,38,0,2024-06-29T07:52:56.098Z,english_410.wav,0,pill,1034,52,4,Japanese,f,3,0.3,98.79489106,0.33588109
AKY,38,0,2024-06-29T07:52:56.098Z,english_410.wav,0,pill,1034,52,4,Japanese,f,4,0.32341667,14.95451541,1.7246864
AKY,39,0,2024-06-29T07:52:56.098Z,english_860.wav,0,peel,2790,52,4,Japanese,f,0,0.0,10.25066679,1.47817545
AKY,39,0,2024-06-29T07:52:56.098Z,english_860.wav,0,peel,2790,52,4,Japanese,f,1,0.1,55.87909831,1.32859058
AKY,39,0,2024-06-29T07:52:56.098Z,english_860.wav,0,peel,2790,52,4,Japanese,f,2,0.2,81.09373959,0.99201561
AKY,39,0,2024-06-29T07:52:56.098Z,english_860.wav,0,peel,2790,52,4,Japanese,f,3,0.3,15.52286826,0.3312489
AKY,39,0,2024-06-29T07:52:56.098Z,english_860.wav,0,peel,2790,52,4,Japanese,f,4,0.32341667,58.18702512,0.66001743
AKY,40,0,2024-06-29T07:52:56.098Z,english_221.wav,0,peel,1200,52,4,Japanese,f,0,0.0,85.84184869,1.38100565
AKY,40,0,2024-06-29T07:52:56.098Z,english_221.wav,0,peel,1200,52,4,Japanese,f,1,0.1,-20.37513589,0.79531516
AKY,40,0,2024-06-29T07:52:56.098Z,english_221.wav,0,peel,1200,52,4,Japanese,f,2,0.2,-89.75984637,0.9538446
AKY,40,0,2024-06-29T07:52:56.098Z,english_221.wav,0,peel,1200,52,4,Japanese,f,3,0.3,50.66879934,1.56492426
AKY,40,0,2024-06-29T07:52:56.098Z,english_221.wav,0,peel,1200,52,4,Japanese,f,4,0.32341667,20.92538743,1.60855456
AKY,41,0,2024-06-29T07:52:56.098Z,english_931.wav,0,peel,2399,52,4,Japanese,f,0,0.0,-78.99767873,0.72988395
AKY,41,0,2024-06-29T07:52:56.098Z,english_931.wav,0,peel,2399,52,4,Japanese,f,1,0.1,-34.67093685,1.40858855
AKY,41,0,2024-06-29T07:52:56.098Z,english_931.wav,0,peel,2399,52,4,Japanese,f,2,0.2,2.25144273,1.82787629
AKY,41,0,2024-06-29T07:52:56.098Z,english_931.wav,0,peel,2399,52,4,Japanese,f,3,0.3,-93.87287365,1.51045502
AKY,41,0,2024-06-29T07:52:56.098Z,english_931.wav,0,peel,2399,52,4,Japanese,f,4,0.32341667,57.8562517,1.42241625
AKY,42,0,2024-06-29T07:52:56.098Z,english_385.wav,0,peel,1403,52,4,Japanese,f,0,0.0,-55.07910634,1.75648555
AKY,42,0,2024-06-29T07:52:56.098Z,english_385.wav,0,peel,1403,52,4,Japanese,f,1,0.1,-94.47680079,1.20856462
AKY,42,0,2024-06-29T07:52:56.098Z,english_385.wav,0,peel,1403,52,4,Japanese,f,2,0.2,38.70414457,0.98103352
AKY,42,0,2024-06-29T07:52:56.098Z,english_385.wav,0,peel,1403,52,4,Japanese,f,3,0.3,-46.17691,1.45745263
AKY,42,0,2024-06-29T07:52:56.098Z,english_385.wav,0,peel,1403,52,4,Japanese,f,4,0.32341667,2.5941508,0.88353815
AKY,43,0,2024-06-29T07:52:56.098Z,english_821.wav,0,peel,1918,52,4,Japanese,f,0,0.0,-4.04234253,1.62928948
AKY,43,0,2024-06-29T07:52:56.098Z,english_821.wav,0,peel,1918,52,4,Japanese,f,1,0.1,50.39518932,0.78033958
AKY,43,0,2024-06-29T07:52:56.098Z,english_821.wav,0,peel,1918,52,4,Japanese,f,2,0.2,58.18996785,1.56476115
AKY,43,0,2024-06-29T07:52:56.098Z,english_821.wav,0,peel,1918,52,4,Japanese,f,3,0.3,-22.07293427,0.56557752
AKY,43,0,2024-06-29T07:52:56.098Z,english_821.wav,0,peel,1918,52,4,Japanese,f,4,0.32341667,56.43229939,0.93389964
AKY,44,0,2024-06-29T07:52:56.098Z,english_189.wav,0,pill,2195,52,4,Japanese,f,0,0.0,-22.70456848,0.82906961
AKY,44,0,2024-06-29T07:52:56.098Z,english_189.wav,0,pill,2195,52,4,Japanese,f,1,0.1,-12.00888723,0.58408113
AKY,44,0,2024-06-29T07:52:56.098Z,english_189.wav,0,pill,2195,52,4,Japanese,f,2,0.2,15.14046376,0.19058783
AKY,44,0,2024-06-29T07:52:56.098Z,english_189.wav,0,pill,2195,52,4,Japanese,f,3,0.3,-19.30106293,0.57788611
AKY,44,0,2024-06-29T07:52:56.098Z,english_189.wav,0,pill,2195,52,4,Japanese,f,4,0.32341667,-20.57313834,0.32577637
AKY,45,0,2024-06-29T07:52:56.098Z,english_835.wav,0,peel,1041,52,4,Japanese,f,0,0.0,-14.38506183,1.1584592
AKY,45,0,2024-06-29T07:52:56.098Z,english_835.wav,0,peel,1041,52,4,Japanese,f,1,0.1,-85.63264453,0.74788643
AKY,45,0,2024-06-29T07:52:56.098Z,english_835.wav,0,peel,1041,52,4,Japanese,f,2,0.2,-9.08737486,0.99645811
AKY,45,0,2024-06-29T07:52:56.098Z,english_835.wav,0,peel,1041,52,4,Japanese,f,3,0.3,-52.4382226,1.13057998
AKY,45,0,2024-06-29T07:52:56.098Z,english_835.wav,0,peel,1041,52,4,Japanese,f,4,0.32341667,30.89255677,0.17868889
AKY,46,0,2024-06-29T07:52:56.098Z,english_36.wav,0,pill,1130,52,4,Japanese,f,0,0.0,8.79498818,0.0614271
AKY,46,0,2024-06-29T07:52:56.098Z,english_36.wav,0,pill,1130,52,4,Japanese,f,1,0.1,-18.99628775,0.22652961
AKY,46,0,2024-06-29T07:52:56.098Z,english_36.wav,0,pill,1130,52,4,Japanese,f,2,0.2,-17.40156662,0.46484299
AKY,46,0,2024-06-29T07:52:56.098Z,english_36.wav,0,pill,1130,52,4,Japanese,f,3,0.3,-85.73958234,0.81464033
AKY,46,0,2024-06-29T07:52:56.098Z,english_36.wav,0,pill,1130,52,4,Japanese,f,4,0.32341667,45.44069908,0.21843777
AKY,47,0,2024-06-29T07:52:56.098Z,english_667.wav,0,peel,785,52,4,Japanese,f,0,0.0,-36.96649028,1.3014101
AKY,47,0,2024-06-29T07:52:56.098Z,english_667.wav,0,peel,785,52,4,Japanese,f,1,0.1,9.08709827,0.05882523
AKY,47,0,2024-06-29T07:52:56.098Z,english_667.wav,0,peel,785,52,4,Japanese,f,2,0.2,85.36553945,1.428997
AKY,47,0,2024-06-29T07:52:56.098Z,english_667.wav,0,peel,785,52,4,Japanese,f,3,0.3,-41.19556041,1.2429303
AKY,47,0,2024-06-29T07:52:56.098Z,english_667.wav,0,peel,785,52,4,Japanese,f,4,0.32341667,-31.79783786,0.97363261
AKY,48,0,2024-06-29T07:52:56.098Z,english_191.wav,0,peel,1169,52,4,Japanese,f,0,0.0,5.22709543,0.24693927
AKY,48,0,2024-06-29T07:52:56.098Z,english_191.wav,0,peel,1169,52,4,Japanese,f,1,0.1,-51.29785688,1.61528443
AKY,48,0,2024-06-29T07:52:56.098Z,english_191.wav,0,peel,1169,52,4,Japanese,f,2,0.2,14.39503603,0.10158113
AKY,48,0,2024-06-29T07:52:56.098Z,english_191.wav,0,peel,1169,52,4,Japanese,f,3,0.3,60.50312404,1.02883866
AKY,48,0,2024-06-29T07:52:56.098Z,english_191.wav,0,peel,1169,52,4,Japanese,f,4,0.32341667,68.15927452,0.69870432
AKY,49,0,2024-06-29T07:52:56.098Z,english_220.wav,0,peel,817,52,4,Japanese,f,0,0.0,-49.83323752,1.6244524
AKY,49,0,2024-06-29T07:52:56.098Z,english_220.wav,0,peel,817,52,4,Japanese,f,1,0.1,49.13629021,0.7812698
AKY,49,0,2024-06-29T07:52:56.098Z,english_220.wav,0,peel,817,52,4,Japanese,f,2,0.2,10.673463,1.29736816
AKY,49,0,2024-06-29T07:52:56.098Z,english_220.wav,0,peel,817,52,4,Japanese,f,3,0.3,-2.35218347,1.3419496
AKY,49,0,2024-06-29T07:52:56.098Z,english_220.wav,0,peel,817,52,4,Japanese,f,4,0.32341667,-2.61587219,1.06575232
AKY,50,1,2024-06-29T07:57:59.755Z,english_20.wav,0,peel,4553,52,4,Japanese,f,0,0.0,-56.6830557,0.06363068
AKY,50,1,2024-06-29T07:57:59.755Z,english_20.wav,0,peel,4553,52,4,Japanese,f,1,0.1,50.66790367,1.80739158
AKY,50,1,2024-06-29T07:57:59.755Z,english_20.wav,0,peel,4553,52,4,Japanese,f,2,0.2,-18.96445326,1.41045117
AKY,50,1,2024-06-29T07:57:59.755Z,english_20.wav,0,peel,4553,52,4,Japanese,f,3,0.3,-25.44345058,0.2049667
AKY,50,1,2024-06-29T07:57:59.755Z,english_20.wav,0,peel,4553,52,4,Japanese,f,4,0.32341667,12.75548414,0.27136646
AKY,51,1,2024-06-29T07:57:59.755Z,english_901.wav,0,peel,2001,52,4,Japanese,f,0,0.0,-14.81770559,1.5194741
AKY,51,1,2024-06-29T07:57:59.755Z,english_901.wav,0,peel,2001,52,4,Japanese,f,1,0.1,-27.73561163,1.98674938
AKY,51,1,2024-06-29T07:57:59.755Z,english_901.wav,0,peel,2001,52,4,Japanese,f,2,0.2,-22.44015454,0.54356598
AKY,51,1,2024-06-29T07:57:59.755Z,english_901.wav,0,peel,2001,52,4,Japanese,f,3,0.3,-41.34815185,1.30497628
AKY,51,1,2024-06-29T07:57:59.755Z,english_901.wav,0,peel,2001,52,4,Japanese,f,4,0.32341667,10.13492358,0.61526789
AKY,52,1,2024-06-29T07:57:59.755Z,english_594.wav,0,peel,649,52,4,Japanese,f,0,0.0,-85.15725243,1.49995106
AKY,52,1,2024-06-29T07:57:59.755Z,english_594.wav,0,peel,649,52,4,Japanese,f,1,0.1,18.57908242,1.36683942
AKY,52,1,2024-06-29T07:57:59.755Z,english_594.wav,0,peel,649,52,4,Japanese,f,2,0.2,-52.1381203,1.31792707
AKY,52,1,2024-06-29T07:57:59.755Z,english_594.wav,0,peel,649,52,4,Japanese,f,3,0.3,77.56862162,0.76119001
AKY,52,1,2024-06-29T07:57:59.755Z,english_594.wav,0,peel,649,52,4,Japanese,f,4,0.32341667,89.7133381,1.77084997
AKY,53,1,2024-06-29T07:57:59.755Z,english_973.wav,0,pill,1307,52,4,Japanese,f,0,0.0,67.86183821,1.19015671
AKY,53,1,2024-06-29T07:57:59.755Z,english_973.wav,0,pill,1307,52,4,Japanese,f,1,0.1,19.68291271,0.58574514
AKY,53,1,2024-06-29T07:57:59.755Z,english_973.wav,0,pill,1307,52,4,Japanese,f,2,0.2,97.35795082,0.11672587
AKY,53,1,2024-06-29T07:57:59.755Z,english_973.wav,0,pill,1307,52,4,Japanese,f,3,0.3,-17.83494635,0.43523095
AKY,53,1,2024-06-29T07:57:59.755Z,english_973.wav,0,pill,1307,52,4,Japanese,f,4,0.32341667,-53.451809,1.74630461
AKY,54,1,2024-06-29T07:57:59.755Z,english_595.wav,0,peel,1551,52,4,Japanese,f,0,0.0,-39.84727911,1.6526444
AKY,54,1,2024-06-29T07:57:59.755Z,english_595.wav,0,peel,1551,52,4,Japanese,f,1,0.1,-68.85607622,1.11711065
AKY,54,1,2024-06-29T07:57:59.755Z,english_595.wav,0,peel,1551,52,4,Japanese,f,2,0.2,23.68364187,1.96516016
AKY,54,1,2024-06-29T07:57:59.755Z,english_595.wav,0,peel,1551,52,4,Japanese,f,3,0.3,-80.51887658,0.34053421
AKY,54,1,2024-06-29T07:57:59.755Z,english_595.wav,0,peel,1551,52,4,Japanese,f,4,0.32341667,-94.66311932,1.22603371
AKY,55,1,2024-06-29T07:57:59.755Z,english_405.wav,0,pill,1126,52,4,Japanese,f,0,0.0,-94.88566807,1.97726842
AKY,55,1,2024-06-29T07:57:59.755Z,english_405.wav,0,pill,1126,52,4,Japanese,f,1,0.1,45.39575719,1.2658567
AKY,55,1,2024-06-29T07:57:59.755Z,english_405.wav,0,pill,1126,52,4,Japanese,f,2,0.2,-94.78509898,0.10443365
AKY,55,1,2024-06-29T07:57:59.755Z,english_405.wav,0,pill,1126,52,4,Japanese,f,3,0.3,54.14618135,0.24635614
AKY,55,1,2024-06-29T07:57:59.755Z,english_405.wav,0,pill,1126,52,4,Japanese,f,4,0.32341667,-20.18916124,0.76836832
AKY,56,1,2024-06-29T07:57:59.755Z,english_423.wav,0,peel,668,52,4,Japanese,f,0,0.0,48.83941012,1.35290702
AKY,56,1,2024-06-29T07:57:59.755Z,english_423.wav,0,peel,668,52,4,Japanese,f,1,0.1,26.57948938,1.33919202
AKY,56,1,2024-06-29T07:57:59.755Z,english_423.wav,0,peel,668,52,4,Japanese,f,2,0.2,56.70545245,1.37149513
AKY,56,1,2024-06-29T07:57:59.755Z,english_423.wav,0,peel,668,52,4,Japanese,f,3,0.3,-62.41131033,1.11357765
AKY,56,1,2024-06-29T07:57:59.755Z,english_423.wav,0,peel,668,52,4,Japanese,f,4,0.32341667,78.49803502,1.20699722
AKY,57,1,2024-06-29T07:57:59.755Z,english_474.wav,0,pill,3510,52,4,Japanese,f,0,0.0,42.88606971,0.87351765
AKY,57,1,2024-06-29T07:57:59.755Z,english_474.wav,0,pill,3510,52,4,Japanese,f,1,0.1,6.82691085,1.08551449
AKY,57,1,2024-06-29T07:57:59.755Z,english_474.wav,0,pill,3510,52,4,Japanese,f,2,0.2,-33.80031927,1.99847166
AKY,57,1,2024-06-29T07:57:59.755Z,english_474.wav,0,pill,3510,52,4,Japanese,f,3,0.3,-97.18672796,0.27470298
AKY,57,1,2024-06-29T07:57:59.755Z,english_474.wav,0,pill,3510,52,4,Japanese,f,4,0.32341667,-4.7462475,0.02962094
AKY,58,1,2024-06-29T07:57:59.755Z,english_145.wav,0,pill,1401,52,4,Japanese,f,0,0.0,-29.75830226,1.9441914
AKY,58,1,2024-06-29T07:57:59.755Z,english_145.wav,0,pill,1401,52,4,Japanese,f,1,0.1,0.94664025,0.04744273
AKY,58,1,2024-06-29T07:57:59.755Z,english_145.wav,0,pill,1401,52,4,Japanese,f,2,0.2,-55.39340023,1.27144901
AKY,58,1,2024-06-29T07:57:59.755Z,english_145.wav,0,pill,1401,52,4,Japanese,f,3,0.3,-49.58722608,0.20842421
AKY,58,1,2024-06-29T07:57:59.755Z,english_145.wav,0,pill,1401,52,4,Japanese,f,4,0.32341667,-83.35110665,0.85478836
AKY,59,1,2024-06-29T07:57:59.755Z,english_689.wav,0,pill,817,52,4,Japanese,f,0,0.0,42.02822248,1.89069384
AKY,59,1,2024-06-29T07:57:59.755Z,english_689.wav,0,pill,817,52,4,Japanese,f,1,0.1,-61.92185233,0.33123617
AKY,59,1,2024-06-29T07:57:59.755Z,english_689.wav,0,pill,817,52,4,Japanese,f,2,0.2,-8.45156809,0.5478675
AKY,59,1,2024-06-29T07:57:59.755Z,english_689.wav,0,pill,817,52,4,Japanese,f,3,0.3,15.09500637,0.80334133
AKY,59,1,2024-06-29T07:57:59.755Z,english_689.wav,0,pill,817,52,4,Japanese,f,4,0.32341667,8.33163023,1.42024866
AKY,60,1,2024-06-29T07:57:59.755Z,english_304.wav,0,peel,1460,52,4,Japanese,f,0,0.0,-80.7192326,0.54130022
AKY,60,1,2024-06-29T07:57:59.755Z,english_304.wav,0,peel,1460,52,4,Japanese,f,1,0.1,34.14230443,0.20766845
AKY,60,1,2024-06-29T07:57:59.755Z,english_304.wav,0,peel,1460,52,4,Japanese,f,2,0.2,-43.78548789,1.25157904
AKY,60,1,2024-06-29T07:57:59.755Z,english_304.wav,0,peel,1460,52,4,Japanese,f,3,0.3,85.79520644,0.76195837
AKY,60,1,2024-06-29T07:57:59.755Z,english_304.wav,0,peel,1460,52,4,Japanese,f,4,0.32341667,-29.32737886,0.20991234
AKY,61,1,2024-06-29T07:57:59.755Z,english_362.wav,0,pill,2173,52,4,Japanese,f,0,0.0,12.71485551,1.44490364
AKY,61,1,2024-06-29T07:57:59.755Z,english_362.wav,0,pill,2173,52,4,Japanese,f,1,0.1,-18.83660308,1.3029027
AKY,61,1,2024-06-29T07:57:59.755Z,english_362.wav,0,pill,2173,52,4,Japanese,f,2,0.2,-52.07271323,1.10609828
AKY,61,1,2024-06-29T07:57:59.755Z,english_362.wav,0,pill,2173,52,4,Japanese,f,3,0.3,-29.96931661,1.18379787
AKY,61,1,2024-06-29T07:57:59.755Z,english_362.wav,0,pill,2173,52,4,Japanese,f,4,0.32341667,-9.99178163,1.80996789
AKY,62,1,2024-06-29T07:57:59.755Z,english_409.wav,0,pill,923,52,4,Japanese,f,0,0.0,-24.04105399,0.29560797
AKY,62,1,2024-06-29T07:57:59.755Z,english_409.wav,0,pill,923,52,4,Japanese,f,1,0.1,-26.67389605,1.53762848
AKY,62,1,2024-06-29T07:57:59.755Z,english_409.wav,0,pill,923,52,4,Japanese,f,2,0.2,23.9966363,0.34602898
AKY,62,1,2024-06-29T07:57:59.755Z,english_409.wav,0,pill,923,52,4,Japanese,f,3,0.3,16.61705293,1.21824435
AKY,62,1,2024-06-29T07:57:59.755Z,english_409.wav,0,pill,923,52,4,Japanese,f,4,0.32341667,73.09980407,1.55330233
AKY,63,1,2024-06-29T07:57:59.755Z,english_469.wav,0,peel,951,52,4,Japanese,f,0,0.0,-12.92877168,0.59007764
AKY,63,1,2024-06-29T07:57:59.755Z,english_469.wav,0,peel,951,52,4,Japanese,f,1,0.1,-67.35237443,1.36577084
AKY,63,1,2024-06-29T07:57:59.755Z,english_469.wav,0,peel,951,52,4,Japanese,f,2,0.2,-70.76493751,1.86337992
AKY,63,1,2024-06-29T07:57:59.755Z,english_469.wav,0,peel,951,52,4,Japanese,f,3,0.3,86.785725,1.85233296
AKY,63,1,2024-06-29T07:57:59.755Z,english_469.wav,0,peel,951,52,4,Japanese,f,4,0.32341667,-36.33255728,1.108986
AKY,64,1,2024-06-29T07:57:59.755Z,english_273.wav,0,pill,1036,52,4,Japanese,f,0,0.0,-44.98289573,1.94838534
AKY,64,1,2024-06-29T07:57:59.755Z,english_273.wav,0,pill,1036,52,4,Japanese,f,1,0.1,24.32546199,0.68888608
AKY,64,1,2024-06-29T07:57:59.755Z,english_273.wav,0,pill,1036,52,4,Japanese,f,2,0.2,61.84573583,1.95265796
AKY,64,1,2024-06-29T07:57:59.755Z,english_273.wav,0,pill,1036,52,4,Japanese,f,3,0.3,-1.88803465,1.62060328
AKY,64,1,2024-06-29T07:57:59.755Z,english_273.wav,0,pill,1036,52,4,Japanese,f,4,0.32341667,57.02125087,0.94638053
AKY,65,1,2024-06-29T07:57:59.755Z,english_890.wav,0,peel,881,52,4,Japanese,f,0,0.0,-68.21158685,0.82535308
AKY,65,1,2024-06-29T07:57:59.755Z,english_890.wav,0,peel,881,52,4,Japanese,f,1,0.1,-83.19360642,1.79167423
AKY,65,1,2024-06-29T07:57:59.755Z,english_890.wav,0,peel,881,52,4,Japanese,f,2,0.2,79.13343252,0.78297904
AKY,65,1,2024-06-29T07:57:59.755Z,english_890.wav,0,peel,881,52,4,Japanese,f,3,0.3,80.54326003,0.23441015
AKY,65,1,2024-06-29T07:57:59.755Z,english_890.wav,0,peel,881,52,4,Japanese,f,4,0.32341667,-30.48737523,1.41044901
AKY,66,1,2024-06-29T07:57:59.755Z,english_6.wav,0,peel,1059,52,4,Japanese,f,0,0.0,-8.2116192,1.24832701
AKY,66,1,2024-06-29T07:57:59.755Z,english_6.wav,0,peel,1059,52,4,Japanese,f,1,0.1,-28.50933877,0.74984456
AKY,66,1,2024-06-29T07:57:59.755Z,english_6.wav,0,peel,1059,52,4,Japanese,f,2,0.2,-90.20174912,1.37568362
AKY,66,1,2024-06-29T07:57:59.755Z,english_6.wav,0,peel,1059,52,4,Japanese,f,3,0.3,-7.18062469,0.47637706
AKY,66,1,2024-06-29T07:57:59.755Z,english_6.wav,0,peel,1059,52,4,Japanese,f,4,0.32341667,-36.83558467,0.68255954
AKY,67,1,2024-06-29T07:57:59.755Z,english_125.wav,0,peel,767,52,4,Japanese,f,0,0.0,-5.59692586,0.61478703
AKY,67,1,2024-06-29T07:57:59.755Z,english_125.wav,0,peel,767,52,4,Japanese,f,1,0.1,45.61970603,0.5852269
AKY,67,1,2024-06-29T07:57:59.755Z,english_125.wav,0,peel,767,52,4,Japanese,f,2,0.2,-80.48713695,1.26290546
AKY,67,1,2024-06-29T07:57:59.755Z,english_125.wav,0,peel,767,52,4,Japanese,f,3,0.3,76.65956808,1.54178375
AKY,67,1,2024-06-29T07:57:59.755Z,english_125.wav,0,peel,767,52,4,Japanese,f,4,0.32341667,-9.14506838,0.79261171
AKY,68,1,2024-06-29T07:57:59.755Z,english_303.wav,0,pill,1630,52,4,Japanese,f,0,0.0,67.00540241,1.22520816
AKY,68,1,2024-06-29T07:57:59.755Z,english_303.wav,0,pill,1630,52,4,Japanese,f,1,0.1,32.95821842,1.22732479
AKY,68,1,2024-06-29T07:57:59.755Z,english_303.wav,0,pill,1630,52,4,Japanese,f,2,0.2,-23.67517146,0.54923068
AKY,68,1,2024-06-29T07:57:59.755Z,english_303.wav,0,pill,1630,52,4,Japanese,f,3,0.3,-66.94926695,0.8977578
AKY,68,1,2024-06-29T07:57:59.755Z,english_303.wav,0,pill,1630,52,4,Japanese,f,4,0.32341667,65.71723135,1.41807679
AKY,69,1,2024-06-29T07:57:59.755Z,english_331.wav,0,peel,1121,52,4,Japanese,f,0,0.0,12.66323204,1.93220763
AKY,69,1,2024-06-29T07:57:59.755Z,english_331.wav,0,peel,1121,52,4,Japanese,f,1,0.1,-81.78605138,1.48237299
AKY,69,1,2024-06-29T07:57:59.755Z,english_331.wav,0,peel,1121,52,4,Japanese,f,2,0.2,59.07546792,1.15413743
AKY,69,1,2024-06-29T07:57:59.755Z,english_331.wav,0,peel,1121,52,4,Japanese,f,3,0.3,-83.73170191,1.02182823
AKY,69,1,2024-06-29T07:57:59.755Z,english_331.wav,0,peel,1121,52,4,Japanese,f,4,0.32341667,3.10587362,0.81670354
AKY,70,1,2024-06-29T07:57:59.755Z,english_245.wav,0,peel,542,52,4,Japanese,f,0,0.0,74.89239003,1.30710747
AKY,70,1,2024-06-29T07:57:59.755Z,english_245.wav,0,peel,542,52,4,Japanese,f,1,0.1,41.98679172,0.93119149
AKY,70,1,2024-06-29T07:57:59.755Z,english_245.wav,0,peel,542,52,4,Japanese,f,2,0.2,99.42105985,1.84379828
AKY,70,1,2024-06-29T07:57:59.755Z,english_245.wav,0,peel,542,52,4,Japanese,f,3,0.3,-75.11958538,1.72828743
AKY,70,1,2024-06-29T07:57:59.755Z,english_245.wav,0,peel,542,52,4,Japanese,f,4,0.32341667,-62.10664415,0.50124118
AKY,71,1,2024-06-29T07:57:59.755Z,english_415.wav,0,pill,1495,52,4,Japanese,f,0,0.0,36.00223879,1.49199547
AKY,71,1,2024-06-29T07:57:59.755Z,english_415.wav,0,pill,1495,52,4,Japanese,f,1,0.1,-82.63332374,1.79959711
AKY,71,1,2024-06-29T07:57:59.755Z,english_415.wav,0,pill,1495,52,4,Japanese,f,2,0.2,57.55038703,0.64689267
AKY,71,1,2024-06-29T07:57:59.755Z,english_415.wav,0,pill,1495,52,4,Japanese,f,3,0.3,-9.83064734,0.31881377
AKY,71,1,2024-06-29T07:57:59.755Z,english_415.wav,0,pill,1495,52,4,Japanese,f,4,0.32341667,-29.78573939,0.18568486
AKY,72,1,2024-06-29T07:57:59.755Z,english_211.wav,0,peel,661,52,4,Japanese,f,0,0.0,37.34807541,1.77380832
AKY,72,1,2024-06-29T07:57:59.755Z,english_211.wav,0,peel,661,52,4,Japanese,f,1,0.1,97.98979508,1.35747523
AKY,72,1,2024-06-29T07:57:59.755Z,english_211.wav,0,peel,661,52,4,Japanese,f,2,0.2,-20.02981109,1.74013371
AKY,72,1,2024-06-29T07:57:59.755Z,english_211.wav,0,peel,661,52,4,Japanese,f,3,0.3,-69.8116311,0.94808553
AKY,72,1,2024-06-29T07:57:59.755Z,english_211.wav,0,peel,661,52,4,Japanese,f,4,0.32341667,35.11126142,0.23094119
AKY,73,1,2024-06-29T07:57:59.755Z,english_153.wav,0,peel,1133,52,4,Japanese,f,0,0.0,1.34878197,1.20280718
AKY,73,1,2024-06-29T07:57:59.755Z,english_153.wav,0,peel,1133,52,4,Japanese,f,1,0.1,-86.14475674,1.60924223
AKY,73,1,2024-06-29T07:57:59.755Z,english_153.wav,0,peel,1133,52,4,Japanese,f,2,0.2,3.24582423,0.94422247
AKY,73,1,2024-06-29T07:57:59.755Z,english_153.wav,0,peel,1133,52,4,Japanese,f,3,0.3,-6.94068795,0.98008297
AKY,73,1,2024-06-29T07:57:59.755Z,english_153.wav,0,peel,1133,52,4,Japanese,f,4,0.32341667,-76.91560753,0.34988026
AKY,74,1,2024-06-29T07:57:59.755Z,english_755.wav,0,pill,1362,52,4,Japanese,f,0,0.0,-15.85533995,0.06987403
AKY,74,1,2024-06-29T07:57:59.755Z,english_755.wav,0,pill,1362,52,4,Japanese,f,1,0.1,-97.95934782,0.83204773
AKY,74,1,2024-06-29T07:57:59.755Z,english_755.wav,0,pill,1362,52,4,Japanese,f,2,0.2,-5.14559719,1.06816443
AKY,74,1,2024-06-29T07:57:59.755Z,english_755.wav,0,pill,1362,52,4,Japanese,f,3,0.3,32.74087849,1.42856986
AKY,74,1,2024-06-29T07:57:59.755Z,english_755.wav,0,pill,1362,52,4,Japanese,f,4,0.32341667,-56.93437429,0.58130438
AKY,75,1,2024-06-29T07:57:59.755Z,english_442.wav,0,peel,1112,52,4,Japanese,f,0,0.0,-5.21319176,1.35819452
AKY,75,1,2024-06-29T07:57:59.755Z,english_442.wav,0,peel,1112,52,4,Japanese,f,1,0.1,-16.23989513,1.66019663
AKY,75,1,2024-06-29T07:57:59.755Z,english_442.wav,0,peel,1112,52,4,Japanese,f,2,0.2,-36.77315909,0.51170704
AKY,75,1,2024-06-29T07:57:59.755Z,english_442.wav,0,peel,1112,52,4,Japanese,f,3,0.3,-33.51446291,1.6590932
AKY,75,1,2024-06-29T07:57:59.755Z,english_442.wav,0,peel,1112,52,4,Japanese,f,4,0.32341667,-25.07447919,0.97998973
AKY,76,1,2024-06-29T07:57:59.755Z,english_62.wav,0,peel,931,52,4,Japanese,f,0,0.0,17.28527913,1.12530616
AKY,76,1,2024-06-29T07:57:59.755Z,english_62.wav,0,peel,931,52,4,Japanese,f,1,0.1,8.63936001,1.09357984
AKY,76,1,2024-06-29T07:57:59.755Z,english_62.wav,0,peel,931,52,4,Japanese,f,2,0.2,-69.0074729,1.07648496
AKY,76,1,2024-06-29T07:57:59.755Z,english_62.wav,0,peel,931,52,4,Japanese,f,3,0.3,-18.85502465,0.36768209
AKY,76,1,2024-06-29T07:57:59.755Z,english_62.wav,0,peel,931,52,4,Japanese,f,4,0.32341667,59.46739627,0.39033463
AKY,77,1,2024-06-29T07:57:59.755Z,english_951.wav,0,peel,799,52,4,Japanese,f,0,0.0,-0.1209724,0.19208806
AKY,77,1,2024-06-29T07:57:59.755Z,english_951.wav,0,peel,799,52,4,Japanese,f,1,0.1,-14.6507611,1.44795721
AKY,77,1,2024-06-29T07:57:59.755Z,english_951.wav,0,peel,799,52,4,Japanese,f,2,0.2,-2.36153686,0.88209985
AKY,77,1,2024-06-29T07:57:59.755Z,english_951.wav,0,peel,799,52,4,Japanese,f,3,0.3,15.28547447,1.97099669
AKY,77,1,2024-06-29T07:57:59.755Z,english_951.wav,0,peel,799,52,4,Japanese,f,4,0.32341667,-0.16445922,0.158195
AKY,78,1,2024-06-29T07:57:59.755Z,english_94.wav,0,peel,917,52,4,Japanese,f,0,0.0,-78.50776969,1.58967719
AKY,78,1,2024-06-29T07:57:59.755Z,english_94.wav,0,peel,917,52,4,Japanese,f,1,0.1,21.81048112,0.88841047
AKY,78,1,2024-06-29T07:57:59.755Z,english_94.wav,0,peel,917,52,4,Japanese,f,2,0.2,76.78230264,1.12549424
AKY,78,1,2024-06-29T07:57:59.755Z,english_94.wav,0,peel,917,52,4,Japanese,f,3,0.3,-35.62145712,1.80621507
AKY,78,1,2024-06-29T07:57:59.755Z,english_94.wav,0,peel,917,52,4,Japanese,f,4,0.32341667,-71.39427505,1.00879957
AKY,79,1,2024-06-29T07:57:59.755Z,english_375.wav,0,peel,3296,52,4,Japanese,f,0,0.0,18.096335,0.30735121
AKY,79,1,2024-06-29T07:57:59.755Z,english_375.wav,0,peel,3296,52,4,Japanese,f,1,0.1,-55.77885891,1.17808606
AKY,79,1,2024-06-29T07:57:59.755Z,english_375.wav,0,peel,3296,52,4,Japanese,f,2,0.2,-79.80603762,1.03107785
AKY,79,1,2024-06-29T07:57:59.755Z,english_375.wav,0,peel,3296,52,4,Japanese,f,3,0.3,-57.7566014,0.46519988
AKY,79,1,2024-06-29T07:57:59.755Z,english_375.wav,0,peel,3296,52,4,Japanese,f,4,0.32341667,74.14673873,1.41875211
AKY,80,1,2024-06-29T07:57:59.755Z,english_205.wav,0,peel,955,52,4,Japanese,f,0,0.0,55.03693902,1.41699591
AKY,80,1,2024-06-29T07:57:59.755Z,english_205.wav,0,peel,955,52,4,Japanese,f,1,0.1,59.05347117,0.25749205
AKY,80,1,2024-06-29T07:57:59.755Z,english_205.wav,0,peel,955,52,4,Japanese,f,2,0.2,-51.93258482,1.78695407
AKY,80,1,2024-06-29T07:57:59.755Z,english_205.wav,0,peel,955,52,4,Japanese,f,3,0.3,-18.66886592,0.11157042
AKY,80,1,2024-06-29T07:57:59.755Z,english_205.wav,0,peel,955,52,4,Japanese,f,4,0.32341667,-25.16213195,1.74030417
AKY,81,1,2024-06-29T07:57:59.755Z,english_569.wav,0,pill,857,52,4,Japanese,f,0,0.0,-44.4695194,1.56768834
AKY,81,1,2024-06-29T07:57:59.755Z,english_569.wav,0,pill,857,52,4,Japanese,f,1,0.1,50.36705327,0.42032873
AKY,81,1,2024-06-29T07:57:59.755Z,english_569.wav,0,pill,857,52,4,Japanese,f,2,0.2,-76.17438636,0.31133764
AKY,81,1,2024-06-29T07:57:59.755Z,english_569.wav,0,pill,857,52,4,Japanese,f,3,0.3,55.47083669,0.91900801
AKY,81,1,2024-06-29T07:57:59.755Z,english_569.wav,0,pill,857,52,4,Japanese,f,4,0.32341667,-10.68913609,1.26529561
AKY,82,1,2024-06-29T07:57:59.755Z,english_96.wav,0,peel,1169,52,4,Japanese,f,0,0.0,-2.60251168,1.33849038
AKY,82,1,2024-06-29T07:57:59.755Z,english_96.wav,0,peel,1169,52,4,Japanese,f,1,0.1,3.1808695,1.03790095
AKY,82,1,2024-06-29T07:57:59.755Z,english_96.wav,0,peel,1169,52,4,Japanese,f,2,0.2,-93.89625608,0.32730996
AKY,82,1,2024-06-29T07:57:59.755Z,english_96.wav,0,peel,1169,52,4,Japanese,f,3,0.3,22.03695444,1.15118519
AKY,82,1,2024-06-29T07:57:59.755Z,english_96.wav,0,peel,1169,52,4,Japanese,f,4,0.32341667,89.13776591,1.37996061
AKY,83,1,2024-06-29T07:57:59.755Z,english_514.wav,0,pill,1990,52,4,Japanese,f,0,0.0,-61.65105701,1.12509033
AKY,83,1,2024-06-29T07:57:59.755Z,english_514.wav,0,pill,1990,52,4,Japanese,f,1,0.1,49.84264816,0.78701739
AKY,83,1,2024-06-29T07:57:59.755Z,english_514.wav,0,pill,1990,52,4,Japanese,f,2,0.2,14.14440898,0.37052689
AKY,83,1,2024-06-29T07:57:59.755Z,english_514.wav,0,pill,1990,52,4,Japanese,f,3,0.3,-30.10662908,1.42053426
AKY,83,1,2024-06-29T07:57:59.755Z,english_514.wav,0,pill,1990,52,4,Japanese,f,4,0.32341667,90.48337022,1.94621598
AKY,84,1,2024-06-29T07:57:59.755Z,english_382.wav,0,peel,655,52,4,Japanese,f,0,0.0,-83.35497559,1.24516413
AKY,84,1,2024-06-29T07:57:59.755Z,english_382.wav,0,peel,655,52,4,Japanese,f,1,0.1,7.83115402,0.59675254
AKY,84,1,2024-06-29T07:57:59.755Z,english_382.wav,0,peel,655,52,4,Japanese,f,2,0.2,77.46115257,0.61036026
AKY,84,1,2024-06-29T07:57:59.755Z,english_382.wav,0,peel,655,52,4,Japanese,f,3,0.3,89.755233,1.95554414
AKY,84,1,2024-06-29T07:57:59.755Z,english_382.wav,0,peel,655,52,4,Japanese,f,4,0.32341667,-36.08570956,1.60845727
AKY,85,1,2024-06-29T07:57:59.755Z,english_702.wav,0,peel,2705,52,4,Japanese,f,0,0.0,-19.6614881,1.13820402
AKY,85,1,2024-06-29T07:57:59.755Z,english_702.wav,0,peel,2705,52,4,Japanese,f,1,0.1,-92.60133235,1.47755069
AKY,85,1,2024-06-29T07:57:59.755Z,english_702.wav,0,peel,2705,52,4,Japanese,f,2,0.2,-18.01071493,1.33705675
AKY,85,1,2024-06-29T07:57:59.755Z,english_702.wav,0,peel,2705,52,4,Japanese,f,3,0.3,91.54675011,0.59768286
AKY,85,1,2024-06-29T07:57:59.755Z,english_702.wav,0,peel,2705,52,4,Japanese,f,4,0.32341667,23.09112348,0.82103567
AKY,86,1,2024-06-29T07:57:59.755Z,english_174.wav,0,pill,1098,52,4,Japanese,f,0,0.0,-14.93169449,0.27768215
AKY,86,1,2024-06-29T07:57:59.755Z,english_174.wav,0,pill,1098,52,4,Japanese,f,1,0.1,-60.50222611,0.13809097
AKY,86,1,2024-06-29T07:57:59.755Z,english_174.wav,0,pill,1098,52,4,Japanese,f,2,0.2,-88.67347191,0.18584848
AKY,86,1,2024-06-29T07:57:59.755Z,english_174.wav,0,pill,1098,52,4,Japanese,f,3,0.3,-20.58504224,1.46718454
AKY,86,1,2024-06-29T07:57:59.755Z,english_174.wav,0,pill,1098,52,4,Japanese,f,4,0.32341667,-52.28073567,0.17567705
AKY,87,1,2024-06-29T07:57:59.755Z,english_44.wav,0,pill,1563,52,4,Japanese,f,0,0.0,-68.86201344,1.38154723
AKY,87,1,2024-06-29T07:57:59.755Z,english_44.wav,0,pill,1563,52,4,Japanese,f,1,0.1,36.61833882,0.11193842
AKY,87,1,2024-06-29T07:57:59.755Z,english_44.wav,0,pill,1563,52,4,Japanese,f,2,0.2,-60.65796264,0.83798569
AKY,87,1,2024-06-29T07:57:59.755Z,english_44.wav,0,pill,1563,52,4,Japanese,f,3,0.3,-99.582901,0.3073865
AKY,87,1,2024-06-29T07:57:59.755Z,english_44.wav,0,pill,1563,52,4,Japanese,f,4,0.32341667,68.59920212,1.10922951
AKY,88,1,2024-06-29T07:57:59.755Z,english_450.wav,0,peel,636,52,4,Japanese,f,0,0.0,32.75253923,1.28767958
AKY,88,1,2024-06-29T07:57:59.755Z,english_450.wav,0,peel,636,52,4,Japanese,f,1,0.1,-95.51335644,1.7262356
AKY,88,1,2024-06-29T07:57:59.755Z,english_450.wav,0,peel,636,52,4,Japanese,f,2,0.2,34.87485597,0.97567272
AKY,88,1,2024-06-29T07:57:59.755Z,english_450.wav,0,peel,636,52,4,Japanese,f,3,0.3,-23.91285283,1.94639387
AKY,88,1,2024-06-29T07:57:59.755Z,english_450.wav,0,peel,636,52,4,Japanese,f,4,0.32341667,-8.67870007,1.78958339
AKY,89,1,2024-06-29T07:57:59.755Z,english_682.wav,0,peel,844,52,4,Japanese,f,0,0.0,-19.80167737,1.6131825
AKY,89,1,2024-06-29T07:57:59.755Z,english_682.wav,0,peel,844,52,4,Japanese,f,1,0.1,-30.98220326,1.03205672
AKY,89,1,2024-06-29T07:57:59.755Z,english_682.wav,0,peel,844,52,4,Japanese,f,2,0.2,26.07010201,1.08357256
AKY,89,1,2024-06-29T07:57:59.755Z,english_682.wav,0,peel,844,52,4,Japanese,f,3,0.3,-7.79776739,1.70642947
AKY,89,1,2024-06-29T07:57:59.755Z,english_682.wav,0,peel,844,52,4,Japanese,f,4,0.32341667,-10.9148898,0.86858281
AKY,90,1,2024-06-29T07:57:59.755Z,english_341.wav,0,pill,1169,52,4,Japanese,f,0,0.0,-3.29192029,0.92007635
AKY,90,1,2024-06-29T07:57:59.755Z,english_341.wav,0,pill,1169,52,4,Japanese,f,1,0.1,-63.07334109,0.76766635
AKY,90,1,2024-06-29T07:57:59.755Z,english_341.wav,0,pill,1169,52,4,Japanese,f,2,0.2,-52.81319379,0.00478881
AKY,90,1,2024-06-29T07:57:59.755Z,english_341.wav,0,pill,1169,52,4,Japanese,f,3,0.3,47.65296252,0.69804387
AKY,90,1,2024-06-29T07:57:59.755Z,english_341.wav,0,pill,1169,52,4,Japanese,f,4,0.32341667,-2.67842738,0.15231077
AKY,91,1,2024-06-29T07:57:59.755Z,english_623.wav,0,peel,703,52,4,Japanese,f,0,0.0,-23.54178515,1.91881792
AKY,91,1,2024-06-29T07:57:59.755Z,english_623.wav,0,peel,703,52,4,Japanese,f,1,0.1,-47.52772515,0.99675119
AKY,91,1,2024-06-29T07:57:59.755Z,english_623.wav,0,peel,703,52,4,Japanese,f,2,0.2,47.20668934,0.26332691
AKY,91,1,2024-06-29T07:57:59.755Z,english_623.wav,0,peel,703,52,4,Japanese,f,3,0.3,-98.32001938,1.33317057
AKY,91,1,2024-06-29T07:57:59.755Z,english_623.wav,0,peel,703,52,4,Japanese,f,4,0.32341667,-63.09014275,1.04211108
AKY,92,1,2024-06-29T07:57:59.755Z,english_165.wav,0,peel,976,52,4,Japanese,f,0,0.0,-65.85966689,0.99094124
AKY,92,1,2024-06-29T07:57:59.755Z,english_165.wav,0,peel,976,52,4,Japanese,f,1,0.1,57.4210377,1.25140592
AKY,92,1,2024-06-29T07:57:59.755Z,english_165.wav,0,peel,976,52,4,Japanese,f,2,0.2,-53.4891742,1.66606931
AKY,92,1,2024-06-29T07:57:59.755Z,english_165.wav,0,peel,976,52,4,Japanese,f,3,0.3,-32.80877015,0.56557264
AKY,92,1,2024-06-29T07:57:59.755Z,english_165.wav,0,peel,976,52,4,Japanese,f,4,0.32341667,-23.63509804,1.31427626
AKY,93,1,2024-06-29T07:57:59.755Z,english_477.wav,0,pill,1270,52,4,Japanese,f,0,0.0,9.7496965,0.26828956
AKY,93,1,2024-06-29T07:57:59.755Z,english_477.wav,0,pill,1270,52,4,Japanese,f,1,0.1,70.56003184,0.51901368
AKY,93,1,2024-06-29T07:57:59.755Z,english_477.wav,0,pill,1270,52,4,Japanese,f,2,0.2,34.49551211,0.35677294
AKY,93,1,2024-06-29T07:57:59.755Z,english_477.wav,0,pill,1270,52,4,Japanese,f,3,0.3,-75.0597055,1.39462812
AKY,93,1,2024-06-29T07:57:59.755Z,english_477.wav,0,pill,1270,52,4,Japanese,f,4,0.32341667,-82.15638008,0.55199483
AKY,94,1,2024-06-29T07:57:59.755Z,english_334.wav,0,peel,2021,52,4,Japanese,f,0,0.0,-67.45724149,1.41500124
AKY,94,1,2024-06-29T07:57:59.755Z,english_334.wav,0,peel,2021,52,4,Japanese,f,1,0.1,-9.29085452,1.93519658
AKY,94,1,2024-06-29T07:57:59.755Z,english_334.wav,0,peel,2021,52,4,Japanese,f,2,0.2,-52.27794836,1.67457228
AKY,94,1,2024-06-29T07:57:59.755Z,english_334.wav,0,peel,2021,52,4,Japanese,f,3,0.3,97.74689659,1.80763723
AKY,94,1,2024-06-29T07:57:59.755Z,english_334.wav,0,peel,2021,52,4,Japanese,f,4,0.32341667,69.13668576,0.68141016
AKY,95,1,2024-06-29T07:57:59.755Z,english_496.wav,0,peel,1953,52,4,Japanese,f,0,0.0,-50.36729616,1.24588939
AKY,95,1,2024-06-29T07:57:59.755Z,english_496.wav,0,peel,1953,52,4,Japanese,f,1,0.1,43.15166092,1.651593
AKY,95,1,2024-06-29T07:57:59.755Z,english_496.wav,0,peel,1953,52,4,Japanese,f,2,0.2,-89.08132341,0.94120535
AKY,95,1,2024-06-29T07:57:59.755Z,english_496.wav,0,peel,1953,52,4,Japanese,f,3,0.3,-31.93753525,0.55989053
AKY,95,1,2024-06-29T07:57:59.755Z,english_496.wav,0,peel,1953,52,4,Japanese,f,4,0.32341667,-79.66514086,1.95233748
AKY,96,1,2024-06-29T07:57:59.755Z,english_311.wav,0,pill,1313,52,4,Japanese,f,0,0.0,-35.59355899,0.16094856
AKY,96,1,2024-06-29T07:57:59.755Z,english_311.wav,0,pill,1313,52,4,Japanese,f,1,0.1,-50.39310557,1.33895436
AKY,96,1,2024-06-29T07:57:59.755Z,english_311.wav,0,pill,1313,52,4,Japanese,f,2,0.2,-53.37222601,0.01028283
AKY,96,1,2024-06-29T07:57:59.755Z,english_311.wav,0,pill,1313,52,4,Japanese,f,3,0.3,72.25802658,0.48497386
AKY,96,1,2024-06-29T07:57:59.755Z,english_311.wav,0,pill,1313,52,4,Japanese,f,4,0.32341667,48.72421008,0.48591183
AKY,97,1,2024-06-29T07:57:59.755Z,english_506.wav,0,peel,715,52,4,Japanese,f,0,0.0,-17.73769578,0.98447335
AKY,97,1,2024-06-29T07:57:59.755Z,english_506.wav,0,peel,715,52,4,Japanese,f,1,0.1,-41.45582363,0.94666259
AKY,97,1,2024-06-29T07:57:59.755Z,english_506.wav,0,peel,715,52,4,Japanese,f,2,0.2,30.66866042,0.72831062
AKY,97,1,2024-06-29T07:57:59.755Z,english_506.wav,0,peel,715,52,4,Japanese,f,3,0.3,59.8078046,1.02790064
AKY,97,1,2024-06-29T07:57:59.755Z,english_506.wav,0,peel,715,52,4,Japanese,f,4,0.32341667,84.38248427,0.39724826
AKY,98,1,2024-06-29T07:57:59.755Z,english_704.wav,0,peel,1287,52,4,Japanese,f,0,0.0,-24.48288207,0.92043902
AKY,98,1,2024-06-29T07:57:59.755Z,english_704.wav,0,peel,1287,52,4,Japanese,f,1,0.1,-9.94163531,0.96595902
AKY,98,1,2024-06-29T07:57:59.755Z,english_704.wav,0,peel,1287,52,4,Japanese,f,2,0.2,74.85271107,1.40327859
AKY,98,1,2024-06-29T07:57:59.755Z,english_704.wav,0,peel,1287,52,4,Japanese,f,3,0.3,-38.44921803,1.07325586
AKY,98,1,2024-06-29T07:57:59.755Z,english_704.wav,0,peel,1287,52,4,Japanese,f,4,0.32341667,-21.20994959,1.87555588
AKY,99,1,2024-06-29T07:57:59.755Z,english_553.wav,0,peel,647,52,4,Japanese,f,0,0.0,-18.85071283,1.30647824
AKY,99,1,2024-06-29T07:57:59.755Z,english_553.wav,0,peel,647,52,4,Japanese,f,1,0.1,56.72439372,1.55205535
AKY,99,1,2024-06-29T07:57:59.755Z,english_553.wav,0,peel,647,52,4,Japanese,f,2,0.2,-32.51510613,1.79127341
AKY,99,1,2024-06-29T07:57:59.755Z,english_553.wav,0,peel,647,52,4,Japanese,f,3,0.3,-81.56708954,0.1795284
AKY,99,1,2024-06-29T07:57:59.755Z,english_553.wav,0,peel,647,52,4,Japanese,f,4,0.32341667,42.80590219,0.48805839
AKY,100,2,2024-06-29T08:01:13.507Z,english_521.wav,0,pill,1526,52,4,Japanese,f,0,0.0,-39.78859965,1.84590666
AKY,100,2,2024-06-29T08:01:13.507Z,english_521.wav,0,pill,1526,52,4,Japanese,f,1,0.1,94.65680132,0.33665341
AKY,100,2,2024-06-29T08:01:13.507Z,english_521.wav,0,pill,1526,52,4,Japanese,f,2,0.2,-68.68225016,1.01474729
AKY,100,2,2024-06-29T08:01:13.507Z,english_521.wav,0,pill,1526,52,4,Japanese,f,3,0.3,19.56493677,0.73624599
AKY,100,2,2024-06-29T08:01:13.507Z,english_521.wav,0,pill,1526,52,4,Japanese,f,4,0.32341667,69.42990376,1.4391639
AKY,101,2,2024-06-29T08:01:13.507Z,english_590.wav,0,pill,1415,52,4,Japanese,f,0,0.0,-36.198224,1.58650853
AKY,101,2,2024-06-29T08:01:13.507Z,english_590.wav,0,pill,1415,52,4,Japanese,f,1,0.1,-81.6019347,0.24081988
AKY,101,2,2024-06-29T08:01:13.507Z,english_590.wav,0,pill,1415,52,4,Japanese,f,2,0.2,23.00860846,0.40073912
AKY,101,2,2024-06-29T08:01:13.507Z,english_590.wav,0,pill,1415,52,4,Japanese,f,3,0.3,-40.72667736,0.83686248
AKY,101,2,2024-06-29T08:01:13.507Z,english_590.wav,0,pill,1415,52,4,Japanese,f,4,0.32341667,31.06175796,1.43958247
AKY,102,2,2024-06-29T08:01:13.507Z,english_620.wav,0,peel,3908,52,4,Japanese,f,0,0.0,-92.9203055,0.0,0.43561856
AKY,102,2,2024-06-29T08:01:13.507Z,english_620.wav,0,peel,3908,52,4,Japanese,f,1,0.1,26.7086056,0.1,0.24535421
AKY,102,2,2024-06-29T08:01:13.507Z,english_620.wav,0,peel,3908,52,4,Japanese,f,2,0.2,89.1883135,0.2,1.34102831
AKY,102,2,2024-06-29T08:01:13.507Z,english_620.wav,0,peel,3908,52,4,Japanese,f,3,0.3,-0.0557738795,0.3,1.80103954
AKY,102,2,2024-06-29T08:01:13.507Z,english_620.wav,0,peel,3908,52,4,Japanese,f,4,0.323416667,2.9787243,0.32341667,0.21248525
AKY,103,2,2024-06-29T08:01:13.507Z,english_434.wav,0,peel,2115,52,4,Japanese,f,0,0.0,-4.12787863,0.96421208
AKY,103,2,2024-06-29T08:01:13.507Z,english_434.wav,0,peel,2115,52,4,Japanese,f,1,0.1,-30.19441281,1.08561731
AKY,103,2,2024-06-29T08:01:13.507Z,english_434.wav,0,peel,2115,52,4,Japanese,f,2,0.2,41.04377471,1.46356301
AKY,103,2,2024-06-29T08:01:13.507Z,english_434.wav,0,peel,2115,52,4,Japanese,f,3,0.3,-32.43591961,0.25116585
AKY,103,2,2024-06-29T08:01:13.507Z,english_434.wav,0,peel,2115,52,4,Japanese,f,4,0.32341667,61.53108406,0.73120458
AKY,104,2,2024-06-29T08:01:13.507Z,english_828.wav,0,peel,900,52,4,Japanese,f,0,0.0,51.6479082,0.4417702
AKY,104,2,2024-06-29T08:01:13.507Z,english_828.wav,0,peel,900,52,4,Japanese,f,1,0.1,37.62818293,1.22957458
AKY,104,2,2024-06-29T08:01:13.507Z,english_828.wav,0,peel,900,52,4,Japanese,f,2,0.2,55.79615955,0.69909727
AKY,104,2,2024-06-29T08:01:13.507Z,english_828.wav,0,peel,900,52,4,Japanese,f,3,0.3,31.91979646,1.572544
AKY,104,2,2024-06-29T08:01:13.507Z,english_828.wav,0,peel,900,52,4,Japanese,f,4,0.32341667,-22.21091203,0.87669833
AKY,105,2,2024-06-29T08:01:13.507Z,english_178.wav,0,peel,2839,52,4,Japanese,f,0,0.0,-14.41838744,0.71193749
AKY,105,2,2024-06-29T08:01:13.507Z,english_178.wav,0,peel,2839,52,4,Japanese,f,1,0.1,64.59665955,0.54024543
AKY,105,2,2024-06-29T08:01:13.507Z,english_178.wav,0,peel,2839,52,4,Japanese,f,2,0.2,-96.76492712,1.78065704
AKY,105,2,2024-06-29T08:01:13.507Z,english_178.wav,0,peel,2839,52,4,Japanese,f,3,0.3,-50.00654232,1.40559917
AKY,105,2,2024-06-29T08:01:13.507Z,english_178.wav,0,peel,2839,52,4,Japanese,f,4,0.32341667,42.56426636,0.99785593
AKY,106,2,2024-06-29T08:01:13.507Z,english_464.wav,0,peel,1342,52,4,Japanese,f,0,0.0,53.08614354,0.76512863
AKY,106,2,2024-06-29T08:01:13.507Z,english_464.wav,0,peel,1342,52,4,Japanese,f,1,0.1,30.21863436,1.75958979
AKY,106,2,2024-06-29T08:01:13.507Z,english_464.wav,0,peel,1342,52,4,Japanese,f,2,0.2,-72.79337117,0.91412587
AKY,106,2,2024-06-29T08:01:13.507Z,english_464.wav,0,peel,1342,52,4,Japanese,f,3,0.3,91.0452741,1.02089091
AKY,106,2,2024-06-29T08:01:13.507Z,english_464.wav,0,peel,1342,52,4,Japanese,f,4,0.32341667,-31.40181873,1.37846458
AKY,107,2,2024-06-29T08:01:13.507Z,english_662.wav,0,pill,1456,52,4,Japanese,f,0,0.0,-34.20942979,0.58122658
AKY,107,2,2024-06-29T08:01:13.507Z,english_662.wav,0,pill,1456,52,4,Japanese,f,1,0.1,-64.9220759,0.35407044
AKY,107,2,2024-06-29T08:01:13.507Z,english_662.wav,0,pill,1456,52,4,Japanese,f,2,0.2,-46.13526655,1.02300599
AKY,107,2,2024-06-29T08:01:13.507Z,english_662.wav,0,pill,1456,52,4,Japanese,f,3,0.3,16.61128262,0.09808433
AKY,107,2,2024-06-29T08:01:13.507Z,english_662.wav,0,pill,1456,52,4,Japanese,f,4,0.32341667,-72.42442326,0.71975239
AKY,108,2,2024-06-29T08:01:13.507Z,english_507.wav,0,peel,665,52,4,Japanese,f,0,0.0,-61.1842488,1.97653192
AKY,108,2,2024-06-29T08:01:13.507Z,english_507.wav,0,peel,665,52,4,Japanese,f,1,0.1,-67.40048172,1.52355847
AKY,108,2,2024-06-29T08:01:13.507Z,english_507.wav,0,peel,665,52,4,Japanese,f,2,0.2,12.41471853,0.98006415
AKY,108,2,2024-06-29T08:01:13.507Z,english_507.wav,0,peel,665,52,4,Japanese,f,3,0.3,-23.82579329,0.44372312
AKY,108,2,2024-06-29T08:01:13.507Z,english_507.wav,0,peel,665,52,4,Japanese,f,4,0.32341667,9.53005369,0.65281453
AKY,109,2,2024-06-29T08:01:13.507Z,english_98.wav,0,peel,1355,52,4,Japanese,f,0,0.0,-23.07451683,0.55932234
AKY,109,2,2024-06-29T08:01:13.507Z,english_98.wav,0,peel,1355,52,4,Japanese,f,1,0.1,58.83766866,1.03192869
AKY,109,2,2024-06-29T08:01:13.507Z,english_98.wav,0,peel,1355,52,4,Japanese,f,2,0.2,75.90401246,1.16154403
AKY,109,2,2024-06-29T08:01:13.507Z,english_98.wav,0,peel,1355,52,4,Japanese,f,3,0.3,-86.31256295,0.50819795
AKY,109,2,2024-06-29T08:01:13.507Z,english_98.wav,0,peel,1355,52,4,Japanese,f,4,0.32341667,26.17624316,1.94690859
AKY,110,2,2024-06-29T08:01:13.507Z,english_163.wav,0,peel,547,52,4,Japanese,f,0,0.0,-28.85321754,1.43434597
AKY,110,2,2024-06-29T08:01:13.507Z,english_163.wav,0,peel,547,52,4,Japanese,f,1,0.1,9.37410395,1.75766865
AKY,110,2,2024-06-29T08:01:13.507Z,english_163.wav,0,peel,547,52,4,Japanese,f,2,0.2,-43.22266742,0.90391943
AKY,110,2,2024-06-29T08:01:13.507Z,english_163.wav,0,peel,547,52,4,Japanese,f,3,0.3,48.63715122,1.21743426
AKY,110,2,2024-06-29T08:01:13.507Z,english_163.wav,0,peel,547,52,4,Japanese,f,4,0.32341667,-94.22333204,1.8516503
AKY,111,2,2024-06-29T08:01:13.507Z,english_934.wav,0,peel,676,52,4,Japanese,f,0,0.0,48.23169593,1.38760579
AKY,111,2,2024-06-29T08:01:13.507Z,english_934.wav,0,peel,676,52,4,Japanese,f,1,0.1,42.81145804,1.74622613
AKY,111,2,2024-06-29T08:01:13.507Z,english_934.wav,0,peel,676,52,4,Japanese,f,2,0.2,79.06411095,0.2874918
AKY,111,2,2024-06-29T08:01:13.507Z,english_934.wav,0,peel,676,52,4,Japanese,f,3,0.3,69.44528076,1.61606763
AKY,111,2,2024-06-29T08:01:13.507Z,english_934.wav,0,peel,676,52,4,Japanese,f,4,0.32341667,88.54940569,1.62058381
AKY,112,2,2024-06-29T08:01:13.507Z,english_468.wav,0,pill,1614,52,4,Japanese,f,0,0.0,-33.82586043,0.35164089
AKY,112,2,2024-06-29T08:01:13.507Z,english_468.wav,0,pill,1614,52,4,Japanese,f,1,0.1,-42.55840131,0.20114733
AKY,112,2,2024-06-29T08:01:13.507Z,english_468.wav,0,pill,1614,52,4,Japanese,f,2,0.2,-36.6492295,1.40729654
AKY,112,2,2024-06-29T08:01:13.507Z,english_468.wav,0,pill,1614,52,4,Japanese,f,3,0.3,39.91321296,0.04300573
AKY,112,2,2024-06-29T08:01:13.507Z,english_468.wav,0,pill,1614,52,4,Japanese,f,4,0.32341667,54.14936319,1.79642733
AKY,113,2,2024-06-29T08:01:13.507Z,english_847.wav,0,peel,1230,52,4,Japanese,f,0,0.0,76.45550118,0.38890762
AKY,113,2,2024-06-29T08:01:13.507Z,english_847.wav,0,peel,1230,52,4,Japanese,f,1,0.1,-18.38123868,1.01718805
AKY,113,2,2024-06-29T08:01:13.507Z,english_847.wav,0,peel,1230,52,4,Japanese,f,2,0.2,18.403778,1.24872656
AKY,113,2,2024-06-29T08:01:13.507Z,english_847.wav,0,peel,1230,52,4,Japanese,f,3,0.3,57.196546,0.81951257
AKY,113,2,2024-06-29T08:01:13.507Z,english_847.wav,0,peel,1230,52,4,Japanese,f,4,0.32341667,32.99763753,0.74194876
AKY,114,2,2024-06-29T08:01:13.507Z,english_695.wav,0,pill,1721,52,4,Japanese,f,0,0.0,-74.02191529,1.19534619
AKY,114,2,2024-06-29T08:01:13.507Z,english_695.wav,0,pill,1721,52,4,Japanese,f,1,0.1,54.28596986,0.93917139
AKY,114,2,2024-06-29T08:01:13.507Z,english_695.wav,0,pill,1721,52,4,Japanese,f,2,0.2,-13.22196683,0.1241488
AKY,114,2,2024-06-29T08:01:13.507Z,english_695.wav,0,pill,1721,52,4,Japanese,f,3,0.3,1.82272444,1.20091234
AKY,114,2,2024-06-29T08:01:13.507Z,english_695.wav,0,pill,1721,52,4,Japanese,f,4,0.32341667,-11.74905262,0.46222147
AKY,115,2,2024-06-29T08:01:13.507Z,english_242.wav,0,peel,841,52,4,Japanese,f,0,0.0,26.44185099,0.44763058
AKY,115,2,2024-06-29T08:01:13.507Z,english_242.wav,0,peel,841,52,4,Japanese,f,1,0.1,44.29547205,1.06541359
AKY,115,2,2024-06-29T08:01:13.507Z,english_242.wav,0,peel,841,52,4,Japanese,f,2,0.2,-3.86423299,0.64111919
AKY,115,2,2024-06-29T08:01:13.507Z,english_242.wav,0,peel,841,52,4,Japanese,f,3,0.3,60.29108386,0.35225786
AKY,115,2,2024-06-29T08:01:13.507Z,english_242.wav,0,peel,841,52,4,Japanese,f,4,0.32341667,18.66576556,1.0072971
AKY,116,2,2024-06-29T08:01:13.507Z,english_428.wav,0,peel,748,52,4,Japanese,f,0,0.0,-98.34466569,1.83106884
AKY,116,2,2024-06-29T08:01:13.507Z,english_428.wav,0,peel,748,52,4,Japanese,f,1,0.1,-10.51162175,1.34345266
AKY,116,2,2024-06-29T08:01:13.507Z,english_428.wav,0,peel,748,52,4,Japanese,f,2,0.2,97.93427859,0.65853672
AKY,116,2,2024-06-29T08:01:13.507Z,english_428.wav,0,peel,748,52,4,Japanese,f,3,0.3,35.61870537,1.28105878
AKY,116,2,2024-06-29T08:01:13.507Z,english_428.wav,0,peel,748,52,4,Japanese,f,4,0.32341667,-12.49352836,0.15324236
AKY,117,2,2024-06-29T08:01:13.507Z,english_666.wav,0,peel,865,52,4,Japanese,f,0,0.0,-6.63307831,0.44221414
AKY,117,2,2024-06-29T08:01:13.507Z,english_666.wav,0,peel,865,52,4,Japanese,f,1,0.1,-47.66524373,1.62559692
AKY,117,2,2024-06-29T08:01:13.507Z,english_666.wav,0,peel,865,52,4,Japanese,f,2,0.2,66.93817534,0.27313334
AKY,117,2,2024-06-29T08:01:13.507Z,english_666.wav,0,peel,865,52,4,Japanese,f,3,0.3,-1.338646,0.46846925
AKY,117,2,2024-06-29T08:01:13.507Z,english_666.wav,0,peel,865,52,4,Japanese,f,4,0.32341667,-14.31927765,1.08883823
AKY,118,2,2024-06-29T08:01:13.507Z,english_150.wav,0,peel,611,52,4,Japanese,f,0,0.0,-51.77489255,0.6625495
AKY,118,2,2024-06-29T08:01:13.507Z,english_150.wav,0,peel,611,52,4,Japanese,f,1,0.1,16.7322824,1.26353984
AKY,118,2,2024-06-29T08:01:13.507Z,english_150.wav,0,peel,611,52,4,Japanese,f,2,0.2,-56.19561079,0.38378194
AKY,118,2,2024-06-29T08:01:13.507Z,english_150.wav,0,peel,611,52,4,Japanese,f,3,0.3,36.81691324,1.59154348
AKY,118,2,2024-06-29T08:01:13.507Z,english_150.wav,0,peel,611,52,4,Japanese,f,4,0.32341667,-97.11243964,0.94821753
AKY,119,2,2024-06-29T08:01:13.507Z,english_676.wav,0,peel,601,52,4,Japanese,f,0,0.0,3.93099148,1.7716209
AKY,119,2,2024-06-29T08:01:13.507Z,english_676.wav,0,peel,601,52,4,Japanese,f,1,0.1,73.76311644,1.97281878
AKY,119,2,2024-06-29T08:01:13.507Z,english_676.wav,0,peel,601,52,4,Japanese,f,2,0.2,-26.92634129,1.42487848
AKY,119,2,2024-06-29T08:01:13.507Z,english_676.wav,0,peel,601,52,4,Japanese,f,3,0.3,51.70874443,1.45099775
AKY,119,2,2024-06-29T08:01:13.507Z,english_676.wav,0,peel,601,52,4,Japanese,f,4,0.32341667,-48.7675791,1.84822532
AKY,120,2,2024-06-29T08:01:13.507Z,english_80.wav,0,peel,873,52,4,Japanese,f,0,0.0,33.21374474,1.09809668
AKY,120,2,2024-06-29T08:01:13.507Z,english_80.wav,0,peel,873,52,4,Japanese,f,1,0.1,-72.2618742,1.73594877
AKY,120,2,2024-06-29T08:01:13.507Z,english_80.wav,0,peel,873,52,4,Japanese,f,2,0.2,-29.44860443,0.30037535
AKY,120,2,2024-06-29T08:01:13.507Z,english_80.wav,0,peel,873,52,4,Japanese,f,3,0.3,-33.36418129,0.36613598
AKY,120,2,2024-06-29T08:01:13.507Z,english_80.wav,0,peel,873,52,4,Japanese,f,4,0.32341667,-65.11319145,0.50687614
AKY,121,2,2024-06-29T08:01:13.507Z,english_47.wav,0,pill,1364,52,4,Japanese,f,0,0.0,70.62381491,1.36620222
AKY,121,2,2024-06-29T08:01:13.507Z,english_47.wav,0,pill,1364,52,4,Japanese,f,1,0.1,-43.60565268,0.47559644
AKY,121,2,2024-06-29T08:01:13.507Z,english_47.wav,0,pill,1364,52,4,Japanese,f,2,0.2,29.54670776,0.92078875
AKY,121,2,2024-06-29T08:01:13.507Z,english_47.wav,0,pill,1364,52,4,Japanese,f,3,0.3,95.208653,0.83015506
AKY,121,2,2024-06-29T08:01:13.507Z,english_47.wav,0,pill,1364,52,4,Japanese,f,4,0.32341667,-87.83630424,1.40747595
AKY,122,2,2024-06-29T08:01:13.507Z,english_210.wav,0,peel,896,52,4,Japanese,f,0,0.0,43.03172008,0.27268056
AKY,122,2,2024-06-29T08:01:13.507Z,english_210.wav,0,peel,896,52,4,Japanese,f,1,0.1,58.48529179,0.59270989
AKY,122,2,2024-06-29T08:01:13.507Z,english_210.wav,0,peel,896,52,4,Japanese,f,2,0.2,57.29337371,1.57355776
AKY,122,2,2024-06-29T08:01:13.507Z,english_210.wav,0,peel,896,52,4,Japanese,f,3,0.3,-45.34642936,1.97663548
AKY,122,2,2024-06-29T08:01:13.507Z,english_210.wav,0,peel,896,52,4,Japanese,f,4,0.32341667,-3.49486879,1.39997912
AKY,123,2,2024-06-29T08:01:13.507Z,english_422.wav,0,peel,1019,52,4,Japanese,f,0,0.0,-79.81150205,1.34332733
AKY,123,2,2024-06-29T08:01:13.507Z,english_422.wav,0,peel,1019,52,4,Japanese,f,1,0.1,-2.02836706,0.77514932
AKY,123,2,2024-06-29T08:01:13.507Z,english_422.wav,0,peel,1019,52,4,Japanese,f,2,0.2,-11.18998235,0.33214039
AKY,123,2,2024-06-29T08:01:13.507Z,english_422.wav,0,peel,1019,52,4,Japanese,f,3,0.3,52.04958687,0.53493982
AKY,123,2,2024-06-29T08:01:13.507Z,english_422.wav,0,peel,1019,52,4,Japanese,f,4,0.32341667,-63.48776447,0.45685022
AKY,124,2,2024-06-29T08:01:13.507Z,english_771.wav,0,peel,842,52,4,Japanese,f,0,0.0,52.29619013,1.65909918
AKY,124,2,2024-06-29T08:01:13.507Z,english_771.wav,0,peel,842,52,4,Japanese,f,1,0.1,55.26271333,1.05958749
AKY,124,2,2024-06-29T08:01:13.507Z,english_771.wav,0,peel,842,52,4,Japanese,f,2,0.2,49.2587818,1.33758239
AKY,124,2,2024-06-29T08:01:13.507Z,english_771.wav,0,peel,842,52,4,Japanese,f,3,0.3,48.45532009,1.75478958
AKY,124,2,2024-06-29T08:01:13.507Z,english_771.wav,0,peel,842,52,4,Japanese,f,4,0.32341667,-98.45631565,0.37013483
AKY,125,2,2024-06-29T08:01:13.507Z,english_109.wav,0,pill,1048,52,4,Japanese,f,0,0.0,44.56131593,1.07349586
AKY,125,2,2024-06-29T08:01:13.507Z,english_109.wav,0,pill,1048,52,4,Japanese,f,1,0.1,-35.23159756,1.27535987
AKY,125,2,2024-06-29T08:01:13.507Z,english_109.wav,0,pill,1048,52,4,Japanese,f,2,0.2,-19.62269282,1.28483541
AKY,125,2,2024-06-29T08:01:13.507Z,english_109.wav,0,pill,1048,52,4,Japanese,f,3,0.3,38.10372837,1.04109326
AKY,125,2,2024-06-29T08:01:13.507Z,english_109.wav,0,pill,1048,52,4,Japanese,f,4,0.32341667,-20.09605057,0.10213448
AKY,126,2,2024-06-29T08:01:13.507Z,english_121.wav,0,peel,678,52,4,Japanese,f,0,0.0,-30.24687583,0.23154591
AKY,126,2,2024-06-29T08:01:13.507Z,english_121.wav,0,peel,678,52,4,Japanese,f,1,0.1,-28.09260766,0.6680997
AKY,126,2,2024-06-29T08:01:13.507Z,english_121.wav,0,peel,678,52,4,Japanese,f,2,0.2,-29.54951374,1.79539672
AKY,126,2,2024-06-29T08:01:13.507Z,english_121.wav,0,peel,678,52,4,Japanese,f,3,0.3,-37.35286973,0.57554739
AKY,126,2,2024-06-29T08:01:13.507Z,english_121.wav,0,peel,678,52,4,Japanese,f,4,0.32341667,58.68529554,1.8709958
AKY,127,2,2024-06-29T08:01:13.507Z,english_203.wav,0,peel,672,52,4,Japanese,f,0,0.0,-22.28277813,1.31475846
AKY,127,2,2024-06-29T08:01:13.507Z,english_203.wav,0,peel,672,52,4,Japanese,f,1,0.1,13.21695477,1.08922412
AKY,127,2,2024-06-29T08:01:13.507Z,english_203.wav,0,peel,672,52,4,Japanese,f,2,0.2,63.23651974,0.55450355
AKY,127,2,2024-06-29T08:01:13.507Z,english_203.wav,0,peel,672,52,4,Japanese,f,3,0.3,-20.14830746,1.72034007
AKY,127,2,2024-06-29T08:01:13.507Z,english_203.wav,0,peel,672,52,4,Japanese,f,4,0.32341667,-78.55276631,0.92481053
AKY,128,2,2024-06-29T08:01:13.507Z,english_413.wav,0,peel,1437,52,4,Japanese,f,0,0.0,-9.66675054,1.82887045
AKY,128,2,2024-06-29T08:01:13.507Z,english_413.wav,0,peel,1437,52,4,Japanese,f,1,0.1,15.27504309,0.80668743
AKY,128,2,2024-06-29T08:01:13.507Z,english_413.wav,0,peel,1437,52,4,Japanese,f,2,0.2,-94.93171401,0.90586838
AKY,128,2,2024-06-29T08:01:13.507Z,english_413.wav,0,peel,1437,52,4,Japanese,f,3,0.3,-42.87800999,1.3937681
AKY,128,2,2024-06-29T08:01:13.507Z,english_413.wav,0,peel,1437,52,4,Japanese,f,4,0.32341667,-63.39385234,0.34165264
AKY,129,2,2024-06-29T08:01:13.507Z,english_983.wav,0,peel,840,52,4,Japanese,f,0,0.0,32.38711768,0.79408654
AKY,129,2,2024-06-29T08:01:13.507Z,english_983.wav,0,peel,840,52,4,Japanese,f,1,0.1,-65.51600844,1.57845546
AKY,129,2,2024-06-29T08:01:13.507Z,english_983.wav,0,peel,840,52,4,Japanese,f,2,0.2,12.03576385,1.23356187
AKY,129,2,2024-06-29T08:01:13.507Z,english_983.wav,0,peel,840,52,4,Japanese,f,3,0.3,-64.14785636,0.65581831
AKY,129,2,2024-06-29T08:01:13.507Z,english_983.wav,0,peel,840,52,4,Japanese,f,4,0.32341667,-72.48499617,0.27936162
AKY,130,2,2024-06-29T08:01:13.507Z,english_618.wav,0,pill,1908,52,4,Japanese,f,0,0.0,58.31579708,1.46895394
AKY,130,2,2024-06-29T08:01:13.507Z,english_618.wav,0,pill,1908,52,4,Japanese,f,1,0.1,6.96253647,0.48660613
AKY,130,2,2024-06-29T08:01:13.507Z,english_618.wav,0,pill,1908,52,4,Japanese,f,2,0.2,-4.41581756,1.00963977
AKY,130,2,2024-06-29T08:01:13.507Z,english_618.wav,0,pill,1908,52,4,Japanese,f,3,0.3,-63.5775247,1.29399549
AKY,130,2,2024-06-29T08:01:13.507Z,english_618.wav,0,pill,1908,52,4,Japanese,f,4,0.32341667,97.77631762,0.84060701
AKY,131,2,2024-06-29T08:01:13.507Z,english_756.wav,0,peel,650,52,4,Japanese,f,0,0.0,-75.60908863,1.29894989
AKY,131,2,2024-06-29T08:01:13.507Z,english_756.wav,0,peel,650,52,4,Japanese,f,1,0.1,-4.30259752,0.61363685
AKY,131,2,2024-06-29T08:01:13.507Z,english_756.wav,0,peel,650,52,4,Japanese,f,2,0.2,20.94377522,1.41793961
AKY,131,2,2024-06-29T08:01:13.507Z,english_756.wav,0,peel,650,52,4,Japanese,f,3,0.3,10.45062111,1.73528762
AKY,131,2,2024-06-29T08:01:13.507Z,english_756.wav,0,peel,650,52,4,Japanese,f,4,0.32341667,86.50209298,0.4791473
AKY,132,2,2024-06-29T08:01:13.507Z,english_949.wav,0,peel,629,52,4,Japanese,f,0,0.0,48.32946721,1.50413289
AKY,132,2,2024-06-29T08:01:13.507Z,english_949.wav,0,peel,629,52,4,Japanese,f,1,0.1,73.83586198,1.55745414
AKY,132,2,2024-06-29T08:01:13.507Z,english_949.wav,0,peel,629,52,4,Japanese,f,2,0.2,-30.27812065,1.00772566
AKY,132,2,2024-06-29T08:01:13.507Z,english_949.wav,0,peel,629,52,4,Japanese,f,3,0.3,-32.50397555,0.86702054
AKY,132,2,2024-06-29T08:01:13.507Z,english_949.wav,0,peel,629,52,4,Japanese,f,4,0.32341667,96.46984971,1.67836019
AKY,133,2,2024-06-29T08:01:13.507Z,english_83.wav,0,peel,758,52,4,Japanese,f,0,0.0,98.86804112,0.82381457
AKY,133,2,2024-06-29T08:01:13.507Z,english_83.wav,0,peel,758,52,4,Japanese,f,1,0.1,-37.42051535,1.26275754
AKY,133,2,2024-06-29T08:01:13.507Z,english_83.wav,0,peel,758,52,4,Japanese,f,2,0.2,23.85234946,0.74836396
AKY,133,2,2024-06-29T08:01:13.507Z,english_83.wav,0,peel,758,52,4,Japanese,f,3,0.3,28.05435803,0.41584898
AKY,133,2,2024-06-29T08:01:13.507Z,english_83.wav,0,peel,758,52,4,Japanese,f,4,0.32341667,2.44147447,1.88336536
AKY,134,2,2024-06-29T08:01:13.507Z,english_448.wav,0,peel,431,52,4,Japanese,f,0,0.0,0.37188167,1.15390094
AKY,134,2,2024-06-29T08:01:13.507Z,english_448.wav,0,peel,431,52,4,Japanese,f,1,0.1,-67.82723624,1.58767458
AKY,134,2,2024-06-29T08:01:13.507Z,english_448.wav,0,peel,431,52,4,Japanese,f,2,0.2,65.77705469,1.13313853
AKY,134,2,2024-06-29T08:01:13.507Z,english_448.wav,0,peel,431,52,4,Japanese,f,3,0.3,83.31626383,0.27075507
AKY,134,2,2024-06-29T08:01:13.507Z,english_448.wav,0,peel,431,52,4,Japanese,f,4,0.32341667,-27.56829045,1.20964916
AKY,135,2,2024-06-29T08:01:13.507Z,english_120.wav,0,pill,1219,52,4,Japanese,f,0,0.0,55.2306484,0.43658612
AKY,135,2,2024-06-29T08:01:13.507Z,english_120.wav,0,pill,1219,52,4,Japanese,f,1,0.1,82.00530973,0.03999251
AKY,135,2,2024-06-29T08:01:13.507Z,english_120.wav,0,pill,1219,52,4,Japanese,f,2,0.2,-5.84837635,0.80827096
AKY,135,2,2024-06-29T08:01:13.507Z,english_120.wav,0,pill,1219,52,4,Japanese,f,3,0.3,66.20489525,1.78669421
AKY,135,2,2024-06-29T08:01:13.507Z,english_120.wav,0,pill,1219,52,4,Japanese,f,4,0.32341667,-73.22302923,1.04341795
AKY,136,2,2024-06-29T08:01:13.507Z,english_185.wav,0,peel,777,52,4,Japanese,f,0,0.0,-67.20213277,0.62417316
AKY,136,2,2024-06-29T08:01:13.507Z,english_185.wav,0,peel,777,52,4,Japanese,f,1,0.1,-70.91279736,1.12829576
AKY,136,2,2024-06-29T08:01:13.507Z,english_185.wav,0,peel,777,52,4,Japanese,f,2,0.2,11.55913655,0.70978518
AKY,136,2,2024-06-29T08:01:13.507Z,english_185.wav,0,peel,777,52,4,Japanese,f,3,0.3,-88.76292025,0.02882377
AKY,136,2,2024-06-29T08:01:13.507Z,english_185.wav,0,peel,777,52,4,Japanese,f,4,0.32341667,-25.67800099,0.52970381
AKY,137,2,2024-06-29T08:01:13.507Z,english_625.wav,0,peel,939,52,4,Japanese,f,0,0.0,25.70847239,1.1960971
AKY,137,2,2024-06-29T08:01:13.507Z,english_625.wav,0,peel,939,52,4,Japanese,f,1,0.1,-37.82303983,0.02795501
AKY,137,2,2024-06-29T08:01:13.507Z,english_625.wav,0,peel,939,52,4,Japanese,f,2,0.2,38.52328891,1.10198652
AKY,137,2,2024-06-29T08:01:13.507Z,english_625.wav,0,peel,939,52,4,Japanese,f,3,0.3,-23.93667478,0.08852642
AKY,137,2,2024-06-29T08:01:13.507Z,english_625.wav,0,peel,939,52,4,Japanese,f,4,0.32341667,-53.98326942,1.59813041
AKY,138,2,2024-06-29T08:01:13.507Z,english_151.wav,0,peel,1186,52,4,Japanese,f,0,0.0,-8.78950662,1.36403682
AKY,138,2,2024-06-29T08:01:13.507Z,english_151.wav,0,peel,1186,52,4,Japanese,f,1,0.1,-1.70650264,1.76375426
AKY,138,2,2024-06-29T08:01:13.507Z,english_151.wav,0,peel,1186,52,4,Japanese,f,2,0.2,-17.50286784,1.43087438
AKY,138,2,2024-06-29T08:01:13.507Z,english_151.wav,0,peel,1186,52,4,Japanese,f,3,0.3,88.78233286,1.18017331
AKY,138,2,2024-06-29T08:01:13.507Z,english_151.wav,0,peel,1186,52,4,Japanese,f,4,0.32341667,55.08117545,1.30400061
AKY,139,2,2024-06-29T08:01:13.507Z,english_851.wav,0,peel,521,52,4,Japanese,f,0,0.0,-83.90491711,1.65488062
AKY,139,2,2024-06-29T08:01:13.507Z,english_851.wav,0,peel,521,52,4,Japanese,f,1,0.1,92.94065497,0.14315595
AKY,139,2,2024-06-29T08:01:13.507Z,english_851.wav,0,peel,521,52,4,Japanese,f,2,0.2,-63.47542883,0.84481863
AKY,139,2,2024-06-29T08:01:13.507Z,english_851.wav,0,peel,521,52,4,Japanese,f,3,0.3,13.34025436,1.9580918
AKY,139,2,2024-06-29T08:01:13.507Z,english_851.wav,0,peel,521,52,4,Japanese,f,4,0.32341667,32.96474042,0.23608581
AKY,140,2,2024-06-29T08:01:13.507Z,english_427.wav,0,pill,1247,52,4,Japanese,f,0,0.0,38.10585738,0.62221409
AKY,140,2,2024-06-29T08:01:13.507Z,english_427.wav,0,pill,1247,52,4,Japanese,f,1,0.1,75.26959407,1.20145201
AKY,140,2,2024-06-29T08:01:13.507Z,english_427.wav,0,pill,1247,52,4,Japanese,f,2,0.2,-92.48152235,0.18894815
AKY,140,2,2024-06-29T08:01:13.507Z,english_427.wav,0,pill,1247,52,4,Japanese,f,3,0.3,-38.24940669,0.36527681
AKY,140,2,2024-06-29T08:01:13.507Z,english_427.wav,0,pill,1247,52,4,Japanese,f,4,0.32341667,-41.67637111,0.02898627
AKY,141,2,2024-06-29T08:01:13.507Z,english_318.wav,0,pill,996,52,4,Japanese,f,0,0.0,40.16064427,0.11467793
AKY,141,2,2024-06-29T08:01:13.507Z,english_318.wav,0,pill,996,52,4,Japanese,f,1,0.1,-52.58874178,0.6224104
AKY,141,2,2024-06-29T08:01:13.507Z,english_318.wav,0,pill,996,52,4,Japanese,f,2,0.2,46.7653316,0.05328619
AKY,141,2,2024-06-29T08:01:13.507Z,english_318.wav,0,pill,996,52,4,Japanese,f,3,0.3,-41.44559589,0.01138238
AKY,141,2,2024-06-29T08:01:13.507Z,english_318.wav,0,pill,996,52,4,Japanese,f,4,0.32341667,-2.50443948,1.16020285
AKY,142,2,2024-06-29T08:01:13.507Z,english_241.wav,0,peel,615,52,4,Japanese,f,0,0.0,68.9743722,1.94478574
AKY,142,2,2024-06-29T08:01:13.507Z,english_241.wav,0,peel,615,52,4,Japanese,f,1,0.1,68.48567391,1.84895789
AKY,142,2,2024-06-29T08:01:13.507Z,english_241.wav,0,peel,615,52,4,Japanese,f,2,0.2,12.6952975,1.1085625
AKY,142,2,2024-06-29T08:01:13.507Z,english_241.wav,0,peel,615,52,4,Japanese,f,3,0.3,61.42298605,1.36682755
AKY,142,2,2024-06-29T08:01:13.507Z,english_241.wav,0,peel,615,52,4,Japanese,f,4,0.32341667,-18.578671,0.93494379
AKY,143,2,2024-06-29T08:01:13.507Z,english_209.wav,0,peel,2530,52,4,Japanese,f,0,0.0,14.15361396,1.44232267
AKY,143,2,2024-06-29T08:01:13.507Z,english_209.wav,0,peel,2530,52,4,Japanese,f,1,0.1,85.95109622,1.49291498
AKY,143,2,2024-06-29T08:01:13.507Z,english_209.wav,0,peel,2530,52,4,Japanese,f,2,0.2,18.04804687,1.19611731
AKY,143,2,2024-06-29T08:01:13.507Z,english_209.wav,0,peel,2530,52,4,Japanese,f,3,0.3,28.2522976,1.49647535
AKY,143,2,2024-06-29T08:01:13.507Z,english_209.wav,0,peel,2530,52,4,Japanese,f,4,0.32341667,5.36776296,0.30324849
AKY,144,2,2024-06-29T08:01:13.507Z,english_916.wav,0,peel,818,52,4,Japanese,f,0,0.0,-50.62314768,0.5519299
AKY,144,2,2024-06-29T08:01:13.507Z,english_916.wav,0,peel,818,52,4,Japanese,f,1,0.1,-52.55300278,1.16723516
AKY,144,2,2024-06-29T08:01:13.507Z,english_916.wav,0,peel,818,52,4,Japanese,f,2,0.2,54.298582,1.72376738
AKY,144,2,2024-06-29T08:01:13.507Z,english_916.wav,0,peel,818,52,4,Japanese,f,3,0.3,-23.99088857,0.41493786
AKY,144,2,2024-06-29T08:01:13.507Z,english_916.wav,0,peel,818,52,4,Japanese,f,4,0.32341667,4.88948607,1.97918138
AKY,145,2,2024-06-29T08:01:13.507Z,english_485.wav,0,peel,708,52,4,Japanese,f,0,0.0,-7.08941798,1.8206563
AKY,145,2,2024-06-29T08:01:13.507Z,english_485.wav,0,peel,708,52,4,Japanese,f,1,0.1,-70.64579204,0.10660577
AKY,145,2,2024-06-29T08:01:13.507Z,english_485.wav,0,peel,708,52,4,Japanese,f,2,0.2,23.79115045,1.92760945
AKY,145,2,2024-06-29T08:01:13.507Z,english_485.wav,0,peel,708,52,4,Japanese,f,3,0.3,0.80487994,0.77499174
AKY,145,2,2024-06-29T08:01:13.507Z,english_485.wav,0,peel,708,52,4,Japanese,f,4,0.32341667,4.72097057,1.20070888
AKY,146,2,2024-06-29T08:01:13.507Z,english_76.wav,0,peel,668,52,4,Japanese,f,0,0.0,24.78743387,1.26829138
AKY,146,2,2024-06-29T08:01:13.507Z,english_76.wav,0,peel,668,52,4,Japanese,f,1,0.1,-7.95135802,1.4446717
AKY,146,2,2024-06-29T08:01:13.507Z,english_76.wav,0,peel,668,52,4,Japanese,f,2,0.2,-9.56689875,0.88177173
AKY,146,2,2024-06-29T08:01:13.507Z,english_76.wav,0,peel,668,52,4,Japanese,f,3,0.3,-78.25819759,1.63003096
AKY,146,2,2024-06-29T08:01:13.507Z,english_76.wav,0,peel,668,52,4,Japanese,f,4,0.32341667,26.4311908,1.97074408
AKY,147,2,2024-06-29T08:01:13.507Z,english_272.wav,0,peel,1498,52,4,Japanese,f,0,0.0,61.82030971,1.51341556
AKY,147,2,2024-06-29T08:01:13.507Z,english_272.wav,0,peel,1498,52,4,Japanese,f,1,0.1,4.16580657,0.43290826
AKY,147,2,2024-06-29T08:01:13.507Z,english_272.wav,0,peel,1498,52,4,Japanese,f,2,0.2,-53.2567432,1.82734584
AKY,147,2,2024-06-29T08:01:13.507Z,english_272.wav,0,peel,1498,52,4,Japanese,f,3,0.3,-52.99830768,0.22094446
AKY,147,2,2024-06-29T08:01:13.507Z,english_272.wav,0,peel,1498,52,4,Japanese,f,4,0.32341667,-92.9943793,1.88040337
AKY,148,2,2024-06-29T08:01:13.507Z,english_520.wav,0,peel,1077,52,4,Japanese,f,0,0.0,86.3711843,1.94117834
AKY,148,2,2024-06-29T08:01:13.507Z,english_520.wav,0,peel,1077,52,4,Japanese,f,1,0.1,30.73905166,1.71866566
AKY,148,2,2024-06-29T08:01:13.507Z,english_520.wav,0,peel,1077,52,4,Japanese,f,2,0.2,6.06230503,1.15295637
AKY,148,2,2024-06-29T08:01:13.507Z,english_520.wav,0,peel,1077,52,4,Japanese,f,3,0.3,-72.93527416,0.80072648
AKY,148,2,2024-06-29T08:01:13.507Z,english_520.wav,0,peel,1077,52,4,Japanese,f,4,0.32341667,40.17700679,1.71054199
AKY,149,2,2024-06-29T08:01:13.507Z,english_152.wav,0,peel,883,52,4,Japanese,f,0,0.0,-21.97873044,1.75752799
AKY,149,2,2024-06-29T08:01:13.507Z,english_152.wav,0,peel,883,52,4,Japanese,f,1,0.1,85.66675034,1.21467008
AKY,149,2,2024-06-29T08:01:13.507Z,english_152.wav,0,peel,883,52,4,Japanese,f,2,0.2,-66.57447909,0.82299352
AKY,149,2,2024-06-29T08:01:13.507Z,english_152.wav,0,peel,883,52,4,Japanese,f,3,0.3,-33.8772441,0.48869868
AKY,149,2,2024-06-29T08:01:13.507Z,english_152.wav,0,peel,883,52,4,Japanese,f,4,0.32341667,-46.50239179,0.31705885
AKY,150,3,2024-06-29T08:04:25.617Z,english_632.wav,0,peel,2315,52,4,Japanese,f,0,0.0,-56.22391322,1.21249895
AKY,150,3,2024-06-29T08:04:25.617Z,english_632.wav,0,peel,2315,52,4,Japanese,f,1,0.1,-47.59423942,0.39515719
AKY,150,3,2024-06-29T08:04:25.617Z,english_632.wav,0,peel,2315,52,4,Japanese,f,2,0.2,91.93727259,1.8528852
AKY,150,3,2024-06-29T08:04:25.617Z,english_632.wav,0,peel,2315,52,4,Japanese,f,3,0.3,-33.89646621,1.67254104
AKY,150,3,2024-06-29T08:04:25.617Z,english_632.wav,0,peel,2315,52,4,Japanese,f,4,0.32341667,46.88387871,1.21014685
AKY,151,3,2024-06-29T08:04:25.617Z,english_587.wav,0,peel,943,52,4,Japanese,f,0,0.0,-33.32102811,0.7972352
AKY,151,3,2024-06-29T08:04:25.617Z,english_587.wav,0,peel,943,52,4,Japanese,f,1,0.1,46.1287001,1.97425238
AKY,151,3,2024-06-29T08:04:25.617Z,english_587.wav,0,peel,943,52,4,Japanese,f,2,0.2,-62.23894368,0.99609006
AKY,151,3,2024-06-29T08:04:25.617Z,english_587.wav,0,peel,943,52,4,Japanese,f,3,0.3,36.67711132,1.18577707
AKY,151,3,2024-06-29T08:04:25.617Z,english_587.wav,0,peel,943,52,4,Japanese,f,4,0.32341667,-11.53320103,1.64089558
AKY,152,3,2024-06-29T08:04:25.617Z,english_305.wav,0,peel,976,52,4,Japanese,f,0,0.0,-23.95553444,0.70401859
AKY,152,3,2024-06-29T08:04:25.617Z,english_305.wav,0,peel,976,52,4,Japanese,f,1,0.1,-97.95184299,0.00875292
AKY,152,3,2024-06-29T08:04:25.617Z,english_305.wav,0,peel,976,52,4,Japanese,f,2,0.2,95.23338475,1.8427633
AKY,152,3,2024-06-29T08:04:25.617Z,english_305.wav,0,peel,976,52,4,Japanese,f,3,0.3,10.74081096,1.83453859
AKY,152,3,2024-06-29T08:04:25.617Z,english_305.wav,0,peel,976,52,4,Japanese,f,4,0.32341667,24.9757793,1.77535614
AKY,153,3,2024-06-29T08:04:25.617Z,english_906.wav,0,peel,542,52,4,Japanese,f,0,0.0,-40.48589107,1.22436898
AKY,153,3,2024-06-29T08:04:25.617Z,english_906.wav,0,peel,542,52,4,Japanese,f,1,0.1,47.48995475,1.54823641
AKY,153,3,2024-06-29T08:04:25.617Z,english_906.wav,0,peel,542,52,4,Japanese,f,2,0.2,-46.73743802,1.02590908
AKY,153,3,2024-06-29T08:04:25.617Z,english_906.wav,0,peel,542,52,4,Japanese,f,3,0.3,-97.96557374,1.74877791
AKY,153,3,2024-06-29T08:04:25.617Z,english_906.wav,0,peel,542,52,4,Japanese,f,4,0.32341667,18.48293991,0.76585735
AKY,154,3,2024-06-29T08:04:25.617Z,english_779.wav,0,peel,683,52,4,Japanese,f,0,0.0,-66.48303018,1.22216448
AKY,154,3,2024-06-29T08:04:25.617Z,english_779.wav,0,peel,683,52,4,Japanese,f,1,0.1,55.33592885,1.30288261
AKY,154,3,2024-06-29T08:04:25.617Z,english_779.wav,0,peel,683,52,4,Japanese,f,2,0.2,67.38671669,0.25409759
AKY,154,3,2024-06-29T08:04:25.617Z,english_779.wav,0,peel,683,52,4,Japanese,f,3,0.3,65.49052189,1.76174581
AKY,154,3,2024-06-29T08:04:25.617Z,english_779.wav,0,peel,683,52,4,Japanese,f,4,0.32341667,-12.12955258,0.12280057
AKY,155,3,2024-06-29T08:04:25.617Z,english_575.wav,0,peel,461,52,4,Japanese,f,0,0.0,61.73461998,1.8510319
AKY,155,3,2024-06-29T08:04:25.617Z,english_575.wav,0,peel,461,52,4,Japanese,f,1,0.1,-88.57549656,1.54102878
AKY,155,3,2024-06-29T08:04:25.617Z,english_575.wav,0,peel,461,52,4,Japanese,f,2,0.2,-30.88461278,1.19801244
AKY,155,3,2024-06-29T08:04:25.617Z,english_575.wav,0,peel,461,52,4,Japanese,f,3,0.3,-63.73327026,1.20026237
AKY,155,3,2024-06-29T08:04:25.617Z,english_575.wav,0,peel,461,52,4,Japanese,f,4,0.32341667,-0.55806298,1.04112184
AKY,156,3,2024-06-29T08:04:25.617Z,english_330.wav,0,peel,451,52,4,Japanese,f,0,0.0,-66.0623823,0.0,1.84658225
AKY,156,3,2024-06-29T08:04:25.617Z,english_330.wav,0,peel,451,52,4,Japanese,f,1,0.1,-90.7862333,0.1,0.94726644
AKY,156,3,2024-06-29T08:04:25.617Z,english_330.wav,0,peel,451,52,4,Japanese,f,2,0.2,-0.00810713819,0.2,1.52006519
AKY,156,3,2024-06-29T08:04:25.617Z,english_330.wav,0,peel,451,52,4,Japanese,f,3,0.3,-61.2450651,0.3,1.63286843
AKY,156,3,2024-06-29T08:04:25.617Z,english_330.wav,0,peel,451,52,4,Japanese,f,4,0.323416667,-0.344586516,0.32341667,1.74173618
AKY,157,3,2024-06-29T08:04:25.617Z,english_812.wav,0,peel,497,52,4,Japanese,f,0,0.0,70.24469457,0.85599223
AKY,157,3,2024-06-29T08:04:25.617Z,english_812.wav,0,peel,497,52,4,Japanese,f,1,0.1,-27.51466786,0.39005905
AKY,157,3,2024-06-29T08:04:25.617Z,english_812.wav,0,peel,497,52,4,Japanese,f,2,0.2,60.55844263,1.43275618
AKY,157,3,2024-06-29T08:04:25.617Z,english_812.wav,0,peel,497,52,4,Japanese,f,3,0.3,52.93607499,1.34329238
AKY,157,3,2024-06-29T08:04:25.617Z,english_812.wav,0,peel,497,52,4,Japanese,f,4,0.32341667,74.74872052,0.96810209
AKY,158,3,2024-06-29T08:04:25.617Z,english_335.wav,0,pill,876,52,4,Japanese,f,0,0.0,2.73277154,0.73564724
AKY,158,3,2024-06-29T08:04:25.617Z,english_335.wav,0,pill,876,52,4,Japanese,f,1,0.1,-7.1950175,0.15546095
AKY,158,3,2024-06-29T08:04:25.617Z,english_335.wav,0,pill,876,52,4,Japanese,f,2,0.2,60.45920583,0.90435367
AKY,158,3,2024-06-29T08:04:25.617Z,english_335.wav,0,pill,876,52,4,Japanese,f,3,0.3,-26.91989021,0.56661996
AKY,158,3,2024-06-29T08:04:25.617Z,english_335.wav,0,pill,876,52,4,Japanese,f,4,0.32341667,-2.30142169,1.21763394
AKY,159,3,2024-06-29T08:04:25.617Z,english_547.wav,0,pill,1255,52,4,Japanese,f,0,0.0,30.48969685,1.04682874
AKY,159,3,2024-06-29T08:04:25.617Z,english_547.wav,0,pill,1255,52,4,Japanese,f,1,0.1,-38.27442703,0.75017858
AKY,159,3,2024-06-29T08:04:25.617Z,english_547.wav,0,pill,1255,52,4,Japanese,f,2,0.2,29.58442849,0.7996645
AKY,159,3,2024-06-29T08:04:25.617Z,english_547.wav,0,pill,1255,52,4,Japanese,f,3,0.3,-4.27268154,1.92102789
AKY,159,3,2024-06-29T08:04:25.617Z,english_547.wav,0,pill,1255,52,4,Japanese,f,4,0.32341667,58.02076364,1.77056707
AKY,160,3,2024-06-29T08:04:25.617Z,english_262.wav,0,peel,658,52,4,Japanese,f,0,0.0,-55.0240476,0.91992097
AKY,160,3,2024-06-29T08:04:25.617Z,english_262.wav,0,peel,658,52,4,Japanese,f,1,0.1,46.31562141,0.94194362
AKY,160,3,2024-06-29T08:04:25.617Z,english_262.wav,0,peel,658,52,4,Japanese,f,2,0.2,62.5855756,1.80305422
AKY,160,3,2024-06-29T08:04:25.617Z,english_262.wav,0,peel,658,52,4,Japanese,f,3,0.3,-4.25909078,0.51544707
AKY,160,3,2024-06-29T08:04:25.617Z,english_262.wav,0,peel,658,52,4,Japanese,f,4,0.32341667,16.27030636,1.47198659
AKY,161,3,2024-06-29T08:04:25.617Z,english_467.wav,0,peel,1259,52,4,Japanese,f,0,0.0,-0.54983343,1.824027
AKY,161,3,2024-06-29T08:04:25.617Z,english_467.wav,0,peel,1259,52,4,Japanese,f,1,0.1,-84.54516502,1.06295632
AKY,161,3,2024-06-29T08:04:25.617Z,english_467.wav,0,peel,1259,52,4,Japanese,f,2,0.2,54.30123894,1.09976952
AKY,161,3,2024-06-29T08:04:25.617Z,english_467.wav,0,peel,1259,52,4,Japanese,f,3,0.3,-82.00368026,1.11766566
AKY,161,3,2024-06-29T08:04:25.617Z,english_467.wav,0,peel,1259,52,4,Japanese,f,4,0.32341667,-54.10816942,0.44824559
AKY,162,3,2024-06-29T08:04:25.617Z,english_384.wav,0,pill,913,52,4,Japanese,f,0,0.0,-38.96228733,0.34616893
AKY,162,3,2024-06-29T08:04:25.617Z,english_384.wav,0,pill,913,52,4,Japanese,f,1,0.1,2.386347,0.04115024
AKY,162,3,2024-06-29T08:04:25.617Z,english_384.wav,0,pill,913,52,4,Japanese,f,2,0.2,48.26486793,0.35900131
AKY,162,3,2024-06-29T08:04:25.617Z,english_384.wav,0,pill,913,52,4,Japanese,f,3,0.3,-48.11903655,1.58519606
AKY,162,3,2024-06-29T08:04:25.617Z,english_384.wav,0,pill,913,52,4,Japanese,f,4,0.32341667,19.29531145,0.95531857
AKY,163,3,2024-06-29T08:04:25.617Z,english_509.wav,0,peel,1429,52,4,Japanese,f,0,0.0,58.37136146,0.93627824
AKY,163,3,2024-06-29T08:04:25.617Z,english_509.wav,0,peel,1429,52,4,Japanese,f,1,0.1,-30.59588084,1.268957
AKY,163,3,2024-06-29T08:04:25.617Z,english_509.wav,0,peel,1429,52,4,Japanese,f,2,0.2,-42.62400689,0.87018438
AKY,163,3,2024-06-29T08:04:25.617Z,english_509.wav,0,peel,1429,52,4,Japanese,f,3,0.3,58.46483968,1.67134466
AKY,163,3,2024-06-29T08:04:25.617Z,english_509.wav,0,peel,1429,52,4,Japanese,f,4,0.32341667,44.09610342,1.96584472
AKY,164,3,2024-06-29T08:04:25.617Z,english_285.wav,0,pill,1102,52,4,Japanese,f,0,0.0,-19.0536712,1.18823065
AKY,164,3,2024-06-29T08:04:25.617Z,english_285.wav,0,pill,1102,52,4,Japanese,f,1,0.1,-63.15395986,1.010644
AKY,164,3,2024-06-29T08:04:25.617Z,english_285.wav,0,pill,1102,52,4,Japanese,f,2,0.2,-57.682926,0.4943662
AKY,164,3,2024-06-29T08:04:25.617Z,english_285.wav,0,pill,1102,52,4,Japanese,f,3,0.3,-56.52362331,0.66348991
AKY,164,3,2024-06-29T08:04:25.617Z,english_285.wav,0,pill,1102,52,4,Japanese,f,4,0.32341667,11.40665652,0.86242978
AKY,165,3,2024-06-29T08:04:25.617Z,english_456.wav,0,peel,922,52,4,Japanese,f,0,0.0,43.57092671,0.12750432
AKY,165,3,2024-06-29T08:04:25.617Z,english_456.wav,0,peel,922,52,4,Japanese,f,1,0.1,59.73787768,0.97340157
AKY,165,3,2024-06-29T08:04:25.617Z,english_456.wav,0,peel,922,52,4,Japanese,f,2,0.2,82.18665257,0.43547726
AKY,165,3,2024-06-29T08:04:25.617Z,english_456.wav,0,peel,922,52,4,Japanese,f,3,0.3,84.09992258,1.17970357
AKY,165,3,2024-06-29T08:04:25.617Z,english_456.wav,0,peel,922,52,4,Japanese,f,4,0.32341667,14.68455092,0.64309566
AKY,166,3,2024-06-29T08:04:25.617Z,english_73.wav,0,peel,709,52,4,Japanese,f,0,0.0,-73.49165063,1.41947215
AKY,166,3,2024-06-29T08:04:25.617Z,english_73.wav,0,peel,709,52,4,Japanese,f,1,0.1,65.54847429,1.68852165
AKY,166,3,2024-06-29T08:04:25.617Z,english_73.wav,0,peel,709,52,4,Japanese,f,2,0.2,-55.11967081,0.59259525
AKY,166,3,2024-06-29T08:04:25.617Z,english_73.wav,0,peel,709,52,4,Japanese,f,3,0.3,68.77466141,0.85140805
AKY,166,3,2024-06-29T08:04:25.617Z,english_73.wav,0,peel,709,52,4,Japanese,f,4,0.32341667,-37.79888894,1.17745107
AKY,167,3,2024-06-29T08:04:25.617Z,english_750.wav,0,peel,610,52,4,Japanese,f,0,0.0,54.68497377,0.76623701
AKY,167,3,2024-06-29T08:04:25.617Z,english_750.wav,0,peel,610,52,4,Japanese,f,1,0.1,0.91792919,1.58478782
AKY,167,3,2024-06-29T08:04:25.617Z,english_750.wav,0,peel,610,52,4,Japanese,f,2,0.2,-67.69423006,0.74884996
AKY,167,3,2024-06-29T08:04:25.617Z,english_750.wav,0,peel,610,52,4,Japanese,f,3,0.3,20.92985273,0.15814923
AKY,167,3,2024-06-29T08:04:25.617Z,english_750.wav,0,peel,610,52,4,Japanese,f,4,0.32341667,-39.60032316,1.58320499
AKY,168,3,2024-06-29T08:04:25.617Z,english_168.wav,0,pill,1951,52,4,Japanese,f,0,0.0,-69.10300998,1.14537751
AKY,168,3,2024-06-29T08:04:25.617Z,english_168.wav,0,pill,1951,52,4,Japanese,f,1,0.1,-24.44784794,1.06854972
AKY,168,3,2024-06-29T08:04:25.617Z,english_168.wav,0,pill,1951,52,4,Japanese,f,2,0.2,35.31321785,0.45192262
AKY,168,3,2024-06-29T08:04:25.617Z,english_168.wav,0,pill,1951,52,4,Japanese,f,3,0.3,-41.77498511,0.2846318
AKY,168,3,2024-06-29T08:04:25.617Z,english_168.wav,0,pill,1951,52,4,Japanese,f,4,0.32341667,19.92389913,0.9853942
AKY,169,3,2024-06-29T08:04:25.617Z,english_856.wav,0,peel,703,52,4,Japanese,f,0,0.0,-44.08940674,1.51880133
AKY,169,3,2024-06-29T08:04:25.617Z,english_856.wav,0,peel,703,52,4,Japanese,f,1,0.1,-25.77644107,0.99524475
AKY,169,3,2024-06-29T08:04:25.617Z,english_856.wav,0,peel,703,52,4,Japanese,f,2,0.2,6.39263247,1.11391415
AKY,169,3,2024-06-29T08:04:25.617Z,english_856.wav,0,peel,703,52,4,Japanese,f,3,0.3,92.67536145,0.95575529
AKY,169,3,2024-06-29T08:04:25.617Z,english_856.wav,0,peel,703,52,4,Japanese,f,4,0.32341667,45.15991817,1.02944292
AKY,170,3,2024-06-29T08:04:25.617Z,english_406.wav,0,peel,715,52,4,Japanese,f,0,0.0,28.09923375,1.43312072
AKY,170,3,2024-06-29T08:04:25.617Z,english_406.wav,0,peel,715,52,4,Japanese,f,1,0.1,-15.10813675,0.8890381
AKY,170,3,2024-06-29T08:04:25.617Z,english_406.wav,0,peel,715,52,4,Japanese,f,2,0.2,-12.43931725,0.60560557
AKY,170,3,2024-06-29T08:04:25.617Z,english_406.wav,0,peel,715,52,4,Japanese,f,3,0.3,-27.33468297,1.13565345
AKY,170,3,2024-06-29T08:04:25.617Z,english_406.wav,0,peel,715,52,4,Japanese,f,4,0.32341667,-62.66931892,1.8467177
AKY,171,3,2024-06-29T08:04:25.617Z,english_268.wav,0,peel,668,52,4,Japanese,f,0,0.0,55.18591224,1.47327052
AKY,171,3,2024-06-29T08:04:25.617Z,english_268.wav,0,peel,668,52,4,Japanese,f,1,0.1,47.37483414,0.95932673
AKY,171,3,2024-06-29T08:04:25.617Z,english_268.wav,0,peel,668,52,4,Japanese,f,2,0.2,46.97410588,1.80275919
AKY,171,3,2024-06-29T08:04:25.617Z,english_268.wav,0,peel,668,52,4,Japanese,f,3,0.3,-64.08979313,1.6474991
AKY,171,3,2024-06-29T08:04:25.617Z,english_268.wav,0,peel,668,52,4,Japanese,f,4,0.32341667,35.8590447,1.56533667
AKY,172,3,2024-06-29T08:04:25.617Z,english_504.wav,0,pill,1229,52,4,Japanese,f,0,0.0,4.11468456,0.75379057
AKY,172,3,2024-06-29T08:04:25.617Z,english_504.wav,0,pill,1229,52,4,Japanese,f,1,0.1,70.56620437,1.18348717
AKY,172,3,2024-06-29T08:04:25.617Z,english_504.wav,0,pill,1229,52,4,Japanese,f,2,0.2,3.26767498,0.25360202
AKY,172,3,2024-06-29T08:04:25.617Z,english_504.wav,0,pill,1229,52,4,Japanese,f,3,0.3,-3.14493553,1.87094491
AKY,172,3,2024-06-29T08:04:25.617Z,english_504.wav,0,pill,1229,52,4,Japanese,f,4,0.32341667,43.57926014,0.110125
AKY,173,3,2024-06-29T08:04:25.617Z,english_651.wav,0,peel,614,52,4,Japanese,f,0,0.0,94.66063372,0.16277223
AKY,173,3,2024-06-29T08:04:25.617Z,english_651.wav,0,peel,614,52,4,Japanese,f,1,0.1,53.93234837,1.71236475
AKY,173,3,2024-06-29T08:04:25.617Z,english_651.wav,0,peel,614,52,4,Japanese,f,2,0.2,-71.35755131,0.37376336
AKY,173,3,2024-06-29T08:04:25.617Z,english_651.wav,0,peel,614,52,4,Japanese,f,3,0.3,50.84025958,0.80998932
AKY,173,3,2024-06-29T08:04:25.617Z,english_651.wav,0,peel,614,52,4,Japanese,f,4,0.32341667,-24.67252949,0.23835763
AKY,174,3,2024-06-29T08:04:25.617Z,english_722.wav,0,peel,468,52,4,Japanese,f,0,0.0,56.33358757,0.09194264
AKY,174,3,2024-06-29T08:04:25.617Z,english_722.wav,0,peel,468,52,4,Japanese,f,1,0.1,-63.11389498,1.89550133
AKY,174,3,2024-06-29T08:04:25.617Z,english_722.wav,0,peel,468,52,4,Japanese,f,2,0.2,65.64746862,0.18403216
AKY,174,3,2024-06-29T08:04:25.617Z,english_722.wav,0,peel,468,52,4,Japanese,f,3,0.3,-93.10605514,1.23223326
AKY,174,3,2024-06-29T08:04:25.617Z,english_722.wav,0,peel,468,52,4,Japanese,f,4,0.32341667,-45.92743551,0.28331892
AKY,175,3,2024-06-29T08:04:25.617Z,english_124.wav,0,peel,515,52,4,Japanese,f,0,0.0,-16.92140416,1.25482105
AKY,175,3,2024-06-29T08:04:25.617Z,english_124.wav,0,peel,515,52,4,Japanese,f,1,0.1,97.41289205,1.97830042
AKY,175,3,2024-06-29T08:04:25.617Z,english_124.wav,0,peel,515,52,4,Japanese,f,2,0.2,-78.49167412,1.09846955
AKY,175,3,2024-06-29T08:04:25.617Z,english_124.wav,0,peel,515,52,4,Japanese,f,3,0.3,-3.48618202,0.36540564
AKY,175,3,2024-06-29T08:04:25.617Z,english_124.wav,0,peel,515,52,4,Japanese,f,4,0.32341667,5.32047068,0.96325389
AKY,176,3,2024-06-29T08:04:25.617Z,english_487.wav,0,pill,1487,52,4,Japanese,f,0,0.0,57.34447058,0.27098038
AKY,176,3,2024-06-29T08:04:25.617Z,english_487.wav,0,pill,1487,52,4,Japanese,f,1,0.1,-38.59224607,1.03105808
AKY,176,3,2024-06-29T08:04:25.617Z,english_487.wav,0,pill,1487,52,4,Japanese,f,2,0.2,-30.93562102,0.17810411
AKY,176,3,2024-06-29T08:04:25.617Z,english_487.wav,0,pill,1487,52,4,Japanese,f,3,0.3,-21.39452484,0.81608244
AKY,176,3,2024-06-29T08:04:25.617Z,english_487.wav,0,pill,1487,52,4,Japanese,f,4,0.32341667,-98.93333205,1.1056793
AKY,177,3,2024-06-29T08:04:25.617Z,english_571.wav,0,pill,1630,52,4,Japanese,f,0,0.0,-42.92588422,0.65590276
AKY,177,3,2024-06-29T08:04:25.617Z,english_571.wav,0,pill,1630,52,4,Japanese,f,1,0.1,-87.39276897,1.8306878
AKY,177,3,2024-06-29T08:04:25.617Z,english_571.wav,0,pill,1630,52,4,Japanese,f,2,0.2,19.06282168,0.06889765
AKY,177,3,2024-06-29T08:04:25.617Z,english_571.wav,0,pill,1630,52,4,Japanese,f,3,0.3,-99.30459792,0.29364209
AKY,177,3,2024-06-29T08:04:25.617Z,english_571.wav,0,pill,1630,52,4,Japanese,f,4,0.32341667,41.25263337,1.388798
AKY,178,3,2024-06-29T08:04:25.617Z,english_788.wav,0,peel,529,52,4,Japanese,f,0,0.0,-93.79628683,0.67330318
AKY,178,3,2024-06-29T08:04:25.617Z,english_788.wav,0,peel,529,52,4,Japanese,f,1,0.1,-45.29703147,1.33385595
AKY,178,3,2024-06-29T08:04:25.617Z,english_788.wav,0,peel,529,52,4,Japanese,f,2,0.2,-46.01001772,1.35248941
AKY,178,3,2024-06-29T08:04:25.617Z,english_788.wav,0,peel,529,52,4,Japanese,f,3,0.3,-56.6729179,1.33220146
AKY,178,3,2024-06-29T08:04:25.617Z,english_788.wav,0,peel,529,52,4,Japanese,f,4,0.32341667,51.29020462,1.32468206
AKY,179,3,2024-06-29T08:04:25.617Z,english_960.wav,0,peel,478,52,4,Japanese,f,0,0.0,35.80457434,0.79357899
AKY,179,3,2024-06-29T08:04:25.617Z,english_960.wav,0,peel,478,52,4,Japanese,f,1,0.1,-19.98469691,0.63900775
AKY,179,3,2024-06-29T08:04:25.617Z,english_960.wav,0,peel,478,52,4,Japanese,f,2,0.2,-8.88025322,1.83966222
AKY,179,3,2024-06-29T08:04:25.617Z,english_960.wav,0,peel,478,52,4,Japanese,f,3,0.3,6.59365348,1.05168668
AKY,179,3,2024-06-29T08:04:25.617Z,english_960.wav,0,peel,478,52,4,Japanese,f,4,0.32341667,64.0885905,1.66020449
AKY,180,3,2024-06-29T08:04:25.617Z,english_963.wav,0,peel,635,52,4,Japanese,f,0,0.0,-60.03327616,0.86711865
AKY,180,3,2024-06-29T08:04:25.617Z,english_963.wav,0,peel,635,52,4,Japanese,f,1,0.1,-15.51067414,1.69273621
AKY,180,3,2024-06-29T08:04:25.617Z,english_963.wav,0,peel,635,52,4,Japanese,f,2,0.2,59.36715957,0.74157302
AKY,180,3,2024-06-29T08:04:25.617Z,english_963.wav,0,peel,635,52,4,Japanese,f,3,0.3,-98.70464219,1.73078555
AKY,180,3,2024-06-29T08:04:25.617Z,english_963.wav,0,peel,635,52,4,Japanese,f,4,0.32341667,37.26723218,1.37482324
AKY,181,3,2024-06-29T08:04:25.617Z,english_945.wav,0,peel,745,52,4,Japanese,f,0,0.0,63.16075011,1.8314946
AKY,181,3,2024-06-29T08:04:25.617Z,english_945.wav,0,peel,745,52,4,Japanese,f,1,0.1,87.55520176,1.3737613
AKY,181,3,2024-06-29T08:04:25.617Z,english_945.wav,0,peel,745,52,4,Japanese,f,2,0.2,-69.60467193,0.61639792
AKY,181,3,2024-06-29T08:04:25.617Z,english_945.wav,0,peel,745,52,4,Japanese,f,3,0.3,-69.25530384,1.67239747
AKY,181,3,2024-06-29T08:04:25.617Z,english_945.wav,0,peel,745,52,4,Japanese,f,4,0.32341667,-47.64160087,1.88344595
AKY,182,3,2024-06-29T08:04:25.617Z,english_390.wav,0,pill,2926,52,4,Japanese,f,0,0.0,-50.40750922,1.41643644
AKY,182,3,2024-06-29T08:04:25.617Z,english_390.wav,0,pill,2926,52,4,Japanese,f,1,0.1,-38.67641955,0.84399933
AKY,182,3,2024-06-29T08:04:25.617Z,english_390.wav,0,pill,2926,52,4,Japanese,f,2,0.2,-37.03459725,1.67796426
AKY,182,3,2024-06-29T08:04:25.617Z,english_390.wav,0,pill,2926,52,4,Japanese,f,3,0.3,-24.07335547,0.43781117
AKY,182,3,2024-06-29T08:04:25.617Z,english_390.wav,0,pill,2926,52,4,Japanese,f,4,0.32341667,75.09366884,0.01225463
AKY,183,3,2024-06-29T08:04:25.617Z,english_327.wav,0,peel,1358,52,4,Japanese,f,0,0.0,-65.34261839,0.94624792
AKY,183,3,2024-06-29T08:04:25.617Z,english_327.wav,0,peel,1358,52,4,Japanese,f,1,0.1,-88.88296173,0.88463276
AKY,183,3,2024-06-29T08:04:25.617Z,english_327.wav,0,peel,1358,52,4,Japanese,f,2,0.2,-52.48624316,0.8064175
AKY,183,3,2024-06-29T08:04:25.617Z,english_327.wav,0,peel,1358,52,4,Japanese,f,3,0.3,35.3894457,1.08656597
AKY,183,3,2024-06-29T08:04:25.617Z,english_327.wav,0,peel,1358,52,4,Japanese,f,4,0.32341667,-31.26503482,0.95323019
