subj,trial,block,date,stim,stim_order,response,rt,param_index,segment,pitch,stretch
AYN,0,0,2024-07-07T09:06:52.758Z,english_234.wav,0,pill,1885,0,0.0,-96.19421376,0.0948498
AYN,0,0,2024-07-07T09:06:52.758Z,english_234.wav,0,pill,1885,1,0.1,96.13097212,1.36649532
AYN,0,0,2024-07-07T09:06:52.758Z,english_234.wav,0,pill,1885,2,0.2,-68.61115628,0.00312314
AYN,0,0,2024-07-07T09:06:52.758Z,english_234.wav,0,pill,1885,3,0.3,58.3624958,0.01269103
AYN,0,0,2024-07-07T09:06:52.758Z,english_234.wav,0,pill,1885,4,0.32341667,60.51337125,1.76377265
AYN,1,0,2024-07-07T09:06:52.758Z,english_863.wav,0,peel,1485,0,0.0,52.03013683,1.83111202
AYN,1,0,2024-07-07T09:06:52.758Z,english_863.wav,0,peel,1485,1,0.1,21.53783975,0.9779226
AYN,1,0,2024-07-07T09:06:52.758Z,english_863.wav,0,peel,1485,2,0.2,-42.8061331,1.19089157
AYN,1,0,2024-07-07T09:06:52.758Z,english_863.wav,0,peel,1485,3,0.3,-9.69253087,0.269847
AYN,1,0,2024-07-07T09:06:52.758Z,english_863.wav,0,peel,1485,4,0.32341667,56.44290307,0.87913369
AYN,2,0,2024-07-07T09:06:52.758Z,english_800.wav,0,pill,1502,0,0.0,-9.91001254,0.13142639
AYN,2,0,2024-07-07T09:06:52.758Z,english_800.wav,0,pill,1502,1,0.1,-86.79409322,1.71040153
AYN,2,0,2024-07-07T09:06:52.758Z,english_800.wav,0,pill,1502,2,0.2,-27.39997365,0.18637657
AYN,2,0,2024-07-07T09:06:52.758Z,english_800.wav,0,pill,1502,3,0.3,13.46737707,1.09766523
AYN,2,0,2024-07-07T09:06:52.758Z,english_800.wav,0,pill,1502,4,0.32341667,-32.56208711,1.57940615
AYN,3,0,2024-07-07T09:06:52.758Z,english_812.wav,0,peel,1450,0,0.0,70.24469457,0.85599223
AYN,3,0,2024-07-07T09:06:52.758Z,english_812.wav,0,peel,1450,1,0.1,-27.51466786,0.39005905
AYN,3,0,2024-07-07T09:06:52.758Z,english_812.wav,0,peel,1450,2,0.2,60.55844263,1.43275618
AYN,3,0,2024-07-07T09:06:52.758Z,english_812.wav,0,peel,1450,3,0.3,52.93607499,1.34329238
AYN,3,0,2024-07-07T09:06:52.758Z,english_812.wav,0,peel,1450,4,0.32341667,74.74872052,0.96810209
AYN,4,0,2024-07-07T09:06:52.758Z,english_954.wav,0,peel,1492,0,0.0,-31.7323473,1.78985335
AYN,4,0,2024-07-07T09:06:52.758Z,english_954.wav,0,peel,1492,1,0.1,26.42807939,1.38754521
AYN,4,0,2024-07-07T09:06:52.758Z,english_954.wav,0,peel,1492,2,0.2,22.25968883,1.54917493
AYN,4,0,2024-07-07T09:06:52.758Z,english_954.wav,0,peel,1492,3,0.3,-25.30270181,1.54718362
AYN,4,0,2024-07-07T09:06:52.758Z,english_954.wav,0,peel,1492,4,0.32341667,46.97185243,0.09638929
AYN,5,0,2024-07-07T09:06:52.758Z,english_913.wav,0,peel,2307,0,0.0,27.9375346,0.72243167
AYN,5,0,2024-07-07T09:06:52.758Z,english_913.wav,0,peel,2307,1,0.1,41.67879689,1.59129257
AYN,5,0,2024-07-07T09:06:52.758Z,english_913.wav,0,peel,2307,2,0.2,-50.96955224,1.19382874
AYN,5,0,2024-07-07T09:06:52.758Z,english_913.wav,0,peel,2307,3,0.3,93.1868058,0.86840853
AYN,5,0,2024-07-07T09:06:52.758Z,english_913.wav,0,peel,2307,4,0.32341667,83.79752677,0.21021697
AYN,6,0,2024-07-07T09:06:52.758Z,english_662.wav,0,pill,1654,0,0.0,-34.20942979,0.58122658
AYN,6,0,2024-07-07T09:06:52.758Z,english_662.wav,0,pill,1654,1,0.1,-64.9220759,0.35407044
AYN,6,0,2024-07-07T09:06:52.758Z,english_662.wav,0,pill,1654,2,0.2,-46.13526655,1.02300599
AYN,6,0,2024-07-07T09:06:52.758Z,english_662.wav,0,pill,1654,3,0.3,16.61128262,0.09808433
AYN,6,0,2024-07-07T09:06:52.758Z,english_662.wav,0,pill,1654,4,0.32341667,-72.42442326,0.71975239
AYN,7,0,2024-07-07T09:06:52.758Z,english_490.wav,0,peel,1379,0,0.0,39.23640548,0.12600295
AYN,7,0,2024-07-07T09:06:52.758Z,english_490.wav,0,peel,1379,1,0.1,-42.18123516,0.88631808
AYN,7,0,2024-07-07T09:06:52.758Z,english_490.wav,0,peel,1379,2,0.2,53.94030347,1.76218548
AYN,7,0,2024-07-07T09:06:52.758Z,english_490.wav,0,peel,1379,3,0.3,-65.41993581,1.86160188
AYN,7,0,2024-07-07T09:06:52.758Z,english_490.wav,0,peel,1379,4,0.32341667,90.15742696,1.03493088
AYN,8,0,2024-07-07T09:06:52.758Z,english_620.wav,0,peel,1570,0,0.0,-92.9203055,0.0,0.43561856
AYN,8,0,2024-07-07T09:06:52.758Z,english_620.wav,0,peel,1570,1,0.1,26.7086056,0.1,0.24535421
AYN,8,0,2024-07-07T09:06:52.758Z,english_620.wav,0,peel,1570,2,0.2,89.1883135,0.2,1.34102831
AYN,8,0,2024-07-07T09:06:52.758Z,english_620.wav,0,peel,1570,3,0.3,-0.0557738795,0.3,1.80103954
AYN,8,0,2024-07-07T09:06:52.758Z,english_620.wav,0,peel,1570,4,0.323416667,2.9787243,0.32341667,0.21248525
AYN,9,0,2024-07-07T09:06:52.758Z,english_88.wav,0,peel,4405,0,0.0,26.55889683,1.3027014
AYN,9,0,2024-07-07T09:06:52.758Z,english_88.wav,0,peel,4405,1,0.1,31.00356365,0.67122251
AYN,9,0,2024-07-07T09:06:52.758Z,english_88.wav,0,peel,4405,2,0.2,-60.56468942,0.59704477
AYN,9,0,2024-07-07T09:06:52.758Z,english_88.wav,0,peel,4405,3,0.3,-56.53017227,1.68194373
AYN,9,0,2024-07-07T09:06:52.758Z,english_88.wav,0,peel,4405,4,0.32341667,-78.90279024,0.42277005
AYN,10,0,2024-07-07T09:06:52.758Z,english_81.wav,0,peel,928,0,0.0,-8.99652005,1.6890162
AYN,10,0,2024-07-07T09:06:52.758Z,english_81.wav,0,peel,928,1,0.1,37.2959996,1.86826101
AYN,10,0,2024-07-07T09:06:52.758Z,english_81.wav,0,peel,928,2,0.2,56.49217416,0.68929954
AYN,10,0,2024-07-07T09:06:52.758Z,english_81.wav,0,peel,928,3,0.3,99.31521879,0.22383451
AYN,10,0,2024-07-07T09:06:52.758Z,english_81.wav,0,peel,928,4,0.32341667,-25.36881215,0.930773
AYN,11,0,2024-07-07T09:06:52.758Z,english_214.wav,0,peel,1308,0,0.0,58.82847816,1.81864401
AYN,11,0,2024-07-07T09:06:52.758Z,english_214.wav,0,peel,1308,1,0.1,87.26801489,0.97241975
AYN,11,0,2024-07-07T09:06:52.758Z,english_214.wav,0,peel,1308,2,0.2,-28.10234025,1.91423566
AYN,11,0,2024-07-07T09:06:52.758Z,english_214.wav,0,peel,1308,3,0.3,-36.12188516,1.71940232
AYN,11,0,2024-07-07T09:06:52.758Z,english_214.wav,0,peel,1308,4,0.32341667,-45.93983978,0.68694042
AYN,12,0,2024-07-07T09:06:52.758Z,english_189.wav,0,pill,1624,0,0.0,-22.70456848,0.82906961
AYN,12,0,2024-07-07T09:06:52.758Z,english_189.wav,0,pill,1624,1,0.1,-12.00888723,0.58408113
AYN,12,0,2024-07-07T09:06:52.758Z,english_189.wav,0,pill,1624,2,0.2,15.14046376,0.19058783
AYN,12,0,2024-07-07T09:06:52.758Z,english_189.wav,0,pill,1624,3,0.3,-19.30106293,0.57788611
AYN,12,0,2024-07-07T09:06:52.758Z,english_189.wav,0,pill,1624,4,0.32341667,-20.57313834,0.32577637
AYN,13,0,2024-07-07T09:06:52.758Z,english_64.wav,0,peel,2025,0,0.0,-77.75081389,0.01503168
AYN,13,0,2024-07-07T09:06:52.758Z,english_64.wav,0,peel,2025,1,0.1,47.79712302,0.51971923
AYN,13,0,2024-07-07T09:06:52.758Z,english_64.wav,0,peel,2025,2,0.2,-98.04646937,1.01128345
AYN,13,0,2024-07-07T09:06:52.758Z,english_64.wav,0,peel,2025,3,0.3,-20.17707595,0.69563875
AYN,13,0,2024-07-07T09:06:52.758Z,english_64.wav,0,peel,2025,4,0.32341667,53.05828969,1.51814807
AYN,14,0,2024-07-07T09:06:52.758Z,english_748.wav,0,peel,1000,0,0.0,0.23647087,0.91094575
AYN,14,0,2024-07-07T09:06:52.758Z,english_748.wav,0,peel,1000,1,0.1,45.60572596,1.68800655
AYN,14,0,2024-07-07T09:06:52.758Z,english_748.wav,0,peel,1000,2,0.2,6.14588966,1.37684191
AYN,14,0,2024-07-07T09:06:52.758Z,english_748.wav,0,peel,1000,3,0.3,-10.39850874,0.70556294
AYN,14,0,2024-07-07T09:06:52.758Z,english_748.wav,0,peel,1000,4,0.32341667,-7.86503132,1.52987196
AYN,15,0,2024-07-07T09:06:52.758Z,english_370.wav,0,peel,843,0,0.0,-90.17078727,0.17796458
AYN,15,0,2024-07-07T09:06:52.758Z,english_370.wav,0,peel,843,1,0.1,-71.99280791,1.08934715
AYN,15,0,2024-07-07T09:06:52.758Z,english_370.wav,0,peel,843,2,0.2,-13.60727202,1.05914244
AYN,15,0,2024-07-07T09:06:52.758Z,english_370.wav,0,peel,843,3,0.3,-0.93192742,1.87852505
AYN,15,0,2024-07-07T09:06:52.758Z,english_370.wav,0,peel,843,4,0.32341667,33.27852394,1.24161401
AYN,16,0,2024-07-07T09:06:52.758Z,english_232.wav,0,pill,1216,0,0.0,15.13134779,0.53160298
AYN,16,0,2024-07-07T09:06:52.758Z,english_232.wav,0,pill,1216,1,0.1,-49.29605083,0.4519978
AYN,16,0,2024-07-07T09:06:52.758Z,english_232.wav,0,pill,1216,2,0.2,59.10606455,0.39260156
AYN,16,0,2024-07-07T09:06:52.758Z,english_232.wav,0,pill,1216,3,0.3,48.81708847,0.4692084
AYN,16,0,2024-07-07T09:06:52.758Z,english_232.wav,0,pill,1216,4,0.32341667,14.83590121,0.46233459
AYN,17,0,2024-07-07T09:06:52.758Z,english_372.wav,0,peel,649,0,0.0,-10.50721777,1.53321121
AYN,17,0,2024-07-07T09:06:52.758Z,english_372.wav,0,peel,649,1,0.1,60.4890014,1.14830486
AYN,17,0,2024-07-07T09:06:52.758Z,english_372.wav,0,peel,649,2,0.2,35.20626745,1.01416029
AYN,17,0,2024-07-07T09:06:52.758Z,english_372.wav,0,peel,649,3,0.3,-86.52802988,1.14285759
AYN,17,0,2024-07-07T09:06:52.758Z,english_372.wav,0,peel,649,4,0.32341667,85.69336351,1.69996326
AYN,18,0,2024-07-07T09:06:52.758Z,english_853.wav,0,pill,1323,0,0.0,87.83319324,0.81037323
AYN,18,0,2024-07-07T09:06:52.758Z,english_853.wav,0,pill,1323,1,0.1,64.16710312,1.2495933
AYN,18,0,2024-07-07T09:06:52.758Z,english_853.wav,0,pill,1323,2,0.2,12.98667351,0.22916278
AYN,18,0,2024-07-07T09:06:52.758Z,english_853.wav,0,pill,1323,3,0.3,25.03434444,0.67764146
AYN,18,0,2024-07-07T09:06:52.758Z,english_853.wav,0,pill,1323,4,0.32341667,98.3458188,0.13807639
AYN,19,0,2024-07-07T09:06:52.758Z,english_219.wav,0,pill,7842,0,0.0,38.40040381,1.09142553
AYN,19,0,2024-07-07T09:06:52.758Z,english_219.wav,0,pill,7842,1,0.1,-26.23926727,0.5740428
AYN,19,0,2024-07-07T09:06:52.758Z,english_219.wav,0,pill,7842,2,0.2,-57.67558578,1.19056911
AYN,19,0,2024-07-07T09:06:52.758Z,english_219.wav,0,pill,7842,3,0.3,50.56926795,1.87089358
AYN,19,0,2024-07-07T09:06:52.758Z,english_219.wav,0,pill,7842,4,0.32341667,64.39220397,1.06933149
AYN,20,0,2024-07-07T09:06:52.758Z,english_746.wav,0,peel,865,0,0.0,-1.32395796,1.72273729
AYN,20,0,2024-07-07T09:06:52.758Z,english_746.wav,0,peel,865,1,0.1,-67.07117971,1.22961235
AYN,20,0,2024-07-07T09:06:52.758Z,english_746.wav,0,peel,865,2,0.2,75.09604974,1.29107068
AYN,20,0,2024-07-07T09:06:52.758Z,english_746.wav,0,peel,865,3,0.3,-48.59278454,1.34694816
AYN,20,0,2024-07-07T09:06:52.758Z,english_746.wav,0,peel,865,4,0.32341667,-6.52080997,0.94274536
AYN,21,0,2024-07-07T09:06:52.758Z,english_861.wav,0,peel,1401,0,0.0,-30.19921015,0.56503536
AYN,21,0,2024-07-07T09:06:52.758Z,english_861.wav,0,peel,1401,1,0.1,75.2433288,1.43622494
AYN,21,0,2024-07-07T09:06:52.758Z,english_861.wav,0,peel,1401,2,0.2,-49.47813624,1.73497671
AYN,21,0,2024-07-07T09:06:52.758Z,english_861.wav,0,peel,1401,3,0.3,86.59581665,0.70763908
AYN,21,0,2024-07-07T09:06:52.758Z,english_861.wav,0,peel,1401,4,0.32341667,58.40562581,1.29518241
AYN,22,0,2024-07-07T09:06:52.758Z,english_73.wav,0,peel,989,0,0.0,-73.49165063,1.41947215
AYN,22,0,2024-07-07T09:06:52.758Z,english_73.wav,0,peel,989,1,0.1,65.54847429,1.68852165
AYN,22,0,2024-07-07T09:06:52.758Z,english_73.wav,0,peel,989,2,0.2,-55.11967081,0.59259525
AYN,22,0,2024-07-07T09:06:52.758Z,english_73.wav,0,peel,989,3,0.3,68.77466141,0.85140805
AYN,22,0,2024-07-07T09:06:52.758Z,english_73.wav,0,peel,989,4,0.32341667,-37.79888894,1.17745107
AYN,23,0,2024-07-07T09:06:52.758Z,english_301.wav,0,peel,1279,0,0.0,-78.18927369,1.31935747
AYN,23,0,2024-07-07T09:06:52.758Z,english_301.wav,0,peel,1279,1,0.1,-3.52439177,1.41636911
AYN,23,0,2024-07-07T09:06:52.758Z,english_301.wav,0,peel,1279,2,0.2,-23.22473782,1.38842862
AYN,23,0,2024-07-07T09:06:52.758Z,english_301.wav,0,peel,1279,3,0.3,-11.7220967,1.25169603
AYN,23,0,2024-07-07T09:06:52.758Z,english_301.wav,0,peel,1279,4,0.32341667,-5.78047748,1.38740104
AYN,24,0,2024-07-07T09:06:52.758Z,english_922.wav,0,pill,833,0,0.0,-90.36253489,0.33253962
AYN,24,0,2024-07-07T09:06:52.758Z,english_922.wav,0,pill,833,1,0.1,-6.38761956,1.51366693
AYN,24,0,2024-07-07T09:06:52.758Z,english_922.wav,0,pill,833,2,0.2,-78.09661245,0.40049791
AYN,24,0,2024-07-07T09:06:52.758Z,english_922.wav,0,pill,833,3,0.3,-92.75722173,1.29207892
AYN,24,0,2024-07-07T09:06:52.758Z,english_922.wav,0,pill,833,4,0.32341667,-80.16719401,1.40400382
AYN,25,0,2024-07-07T09:06:52.758Z,english_35.wav,0,pill,5140,0,0.0,-35.14158545,0.855771
AYN,25,0,2024-07-07T09:06:52.758Z,english_35.wav,0,pill,5140,1,0.1,-54.49669119,0.5452371
AYN,25,0,2024-07-07T09:06:52.758Z,english_35.wav,0,pill,5140,2,0.2,37.91149238,1.65995376
AYN,25,0,2024-07-07T09:06:52.758Z,english_35.wav,0,pill,5140,3,0.3,-55.38086503,0.74505496
AYN,25,0,2024-07-07T09:06:52.758Z,english_35.wav,0,pill,5140,4,0.32341667,54.77667999,0.83530932
AYN,26,0,2024-07-07T09:06:52.758Z,english_243.wav,0,peel,2019,0,0.0,-74.41503345,0.65151457
AYN,26,0,2024-07-07T09:06:52.758Z,english_243.wav,0,peel,2019,1,0.1,-16.65530333,0.20623253
AYN,26,0,2024-07-07T09:06:52.758Z,english_243.wav,0,peel,2019,2,0.2,-1.41224798,0.87153721
AYN,26,0,2024-07-07T09:06:52.758Z,english_243.wav,0,peel,2019,3,0.3,37.30419975,0.28583671
AYN,26,0,2024-07-07T09:06:52.758Z,english_243.wav,0,peel,2019,4,0.32341667,-3.40378668,1.90700275
AYN,27,0,2024-07-07T09:06:52.758Z,english_299.wav,0,peel,941,0,0.0,-2.55977829,0.95716625
AYN,27,0,2024-07-07T09:06:52.758Z,english_299.wav,0,peel,941,1,0.1,1.77446255,1.43363845
AYN,27,0,2024-07-07T09:06:52.758Z,english_299.wav,0,peel,941,2,0.2,-18.83457859,1.1421669
AYN,27,0,2024-07-07T09:06:52.758Z,english_299.wav,0,peel,941,3,0.3,-71.88845024,1.57148089
AYN,27,0,2024-07-07T09:06:52.758Z,english_299.wav,0,peel,941,4,0.32341667,99.76623745,1.70410623
AYN,28,0,2024-07-07T09:06:52.758Z,english_175.wav,0,pill,1324,0,0.0,-88.83902874,0.00773228
AYN,28,0,2024-07-07T09:06:52.758Z,english_175.wav,0,pill,1324,1,0.1,8.60564456,1.6431495
AYN,28,0,2024-07-07T09:06:52.758Z,english_175.wav,0,pill,1324,2,0.2,7.189218,0.24882977
AYN,28,0,2024-07-07T09:06:52.758Z,english_175.wav,0,pill,1324,3,0.3,-2.31675389,1.20663028
AYN,28,0,2024-07-07T09:06:52.758Z,english_175.wav,0,pill,1324,4,0.32341667,-21.56803319,0.57172188
AYN,29,0,2024-07-07T09:06:52.758Z,english_648.wav,0,peel,993,0,0.0,-36.17742204,0.57576188
AYN,29,0,2024-07-07T09:06:52.758Z,english_648.wav,0,peel,993,1,0.1,30.10697278,1.1310908
AYN,29,0,2024-07-07T09:06:52.758Z,english_648.wav,0,peel,993,2,0.2,-67.31320052,1.67112441
AYN,29,0,2024-07-07T09:06:52.758Z,english_648.wav,0,peel,993,3,0.3,-10.94597212,0.39641968
AYN,29,0,2024-07-07T09:06:52.758Z,english_648.wav,0,peel,993,4,0.32341667,72.59648235,1.93789316
AYN,30,0,2024-07-07T09:06:52.758Z,english_705.wav,0,peel,854,0,0.0,3.76426423,0.9500377
AYN,30,0,2024-07-07T09:06:52.758Z,english_705.wav,0,peel,854,1,0.1,90.96696755,0.74173997
AYN,30,0,2024-07-07T09:06:52.758Z,english_705.wav,0,peel,854,2,0.2,-32.86898574,1.78776637
AYN,30,0,2024-07-07T09:06:52.758Z,english_705.wav,0,peel,854,3,0.3,-21.12550784,0.8178788
AYN,30,0,2024-07-07T09:06:52.758Z,english_705.wav,0,peel,854,4,0.32341667,39.74077299,1.54913024
AYN,31,0,2024-07-07T09:06:52.758Z,english_516.wav,0,peel,1036,0,0.0,-37.49134217,0.47483782
AYN,31,0,2024-07-07T09:06:52.758Z,english_516.wav,0,peel,1036,1,0.1,56.61653956,1.0523806
AYN,31,0,2024-07-07T09:06:52.758Z,english_516.wav,0,peel,1036,2,0.2,60.98574822,0.59798137
AYN,31,0,2024-07-07T09:06:52.758Z,english_516.wav,0,peel,1036,3,0.3,-0.52682824,0.6957238
AYN,31,0,2024-07-07T09:06:52.758Z,english_516.wav,0,peel,1036,4,0.32341667,-50.41932267,1.76373844
AYN,32,0,2024-07-07T09:06:52.758Z,english_651.wav,0,pill,898,0,0.0,94.66063372,0.16277223
AYN,32,0,2024-07-07T09:06:52.758Z,english_651.wav,0,pill,898,1,0.1,53.93234837,1.71236475
AYN,32,0,2024-07-07T09:06:52.758Z,english_651.wav,0,pill,898,2,0.2,-71.35755131,0.37376336
AYN,32,0,2024-07-07T09:06:52.758Z,english_651.wav,0,pill,898,3,0.3,50.84025958,0.80998932
AYN,32,0,2024-07-07T09:06:52.758Z,english_651.wav,0,pill,898,4,0.32341667,-24.67252949,0.23835763
AYN,33,0,2024-07-07T09:06:52.758Z,english_977.wav,0,peel,1030,0,0.0,63.46196139,0.87194913
AYN,33,0,2024-07-07T09:06:52.758Z,english_977.wav,0,peel,1030,1,0.1,-23.64022125,1.67919547
AYN,33,0,2024-07-07T09:06:52.758Z,english_977.wav,0,peel,1030,2,0.2,31.65242203,0.97011806
AYN,33,0,2024-07-07T09:06:52.758Z,english_977.wav,0,peel,1030,3,0.3,16.19881364,1.40431802
AYN,33,0,2024-07-07T09:06:52.758Z,english_977.wav,0,peel,1030,4,0.32341667,-33.08554183,1.02563167
AYN,34,0,2024-07-07T09:06:52.758Z,english_515.wav,0,pill,867,0,0.0,-51.44071002,1.17100165
AYN,34,0,2024-07-07T09:06:52.758Z,english_515.wav,0,pill,867,1,0.1,-54.80209221,0.37535268
AYN,34,0,2024-07-07T09:06:52.758Z,english_515.wav,0,pill,867,2,0.2,64.47174239,1.31079719
AYN,34,0,2024-07-07T09:06:52.758Z,english_515.wav,0,pill,867,3,0.3,-10.56071982,1.40472496
AYN,34,0,2024-07-07T09:06:52.758Z,english_515.wav,0,pill,867,4,0.32341667,-39.86348554,0.6392892
AYN,35,0,2024-07-07T09:06:52.758Z,english_23.wav,0,peel,1011,0,0.0,-50.80982819,0.58244855
AYN,35,0,2024-07-07T09:06:52.758Z,english_23.wav,0,peel,1011,1,0.1,76.10516215,1.77510268
AYN,35,0,2024-07-07T09:06:52.758Z,english_23.wav,0,peel,1011,2,0.2,-90.32463898,0.60847707
AYN,35,0,2024-07-07T09:06:52.758Z,english_23.wav,0,peel,1011,3,0.3,15.76928166,0.62114149
AYN,35,0,2024-07-07T09:06:52.758Z,english_23.wav,0,peel,1011,4,0.32341667,-7.56392806,1.60162938
AYN,36,0,2024-07-07T09:06:52.758Z,english_793.wav,0,pill,1471,0,0.0,-3.59370976,0.95327953
AYN,36,0,2024-07-07T09:06:52.758Z,english_793.wav,0,pill,1471,1,0.1,-92.44382947,0.8890172
AYN,36,0,2024-07-07T09:06:52.758Z,english_793.wav,0,pill,1471,2,0.2,-89.84008222,0.47547445
AYN,36,0,2024-07-07T09:06:52.758Z,english_793.wav,0,pill,1471,3,0.3,96.09352514,1.09208031
AYN,36,0,2024-07-07T09:06:52.758Z,english_793.wav,0,pill,1471,4,0.32341667,42.94050617,0.63383093
AYN,37,0,2024-07-07T09:06:52.758Z,english_230.wav,0,peel,1876,0,0.0,59.01519707,0.66464778
AYN,37,0,2024-07-07T09:06:52.758Z,english_230.wav,0,peel,1876,1,0.1,-74.67447784,1.09498554
AYN,37,0,2024-07-07T09:06:52.758Z,english_230.wav,0,peel,1876,2,0.2,78.11378701,0.24708562
AYN,37,0,2024-07-07T09:06:52.758Z,english_230.wav,0,peel,1876,3,0.3,26.79367619,1.40152246
AYN,37,0,2024-07-07T09:06:52.758Z,english_230.wav,0,peel,1876,4,0.32341667,29.92451654,1.02203861
AYN,38,0,2024-07-07T09:06:52.758Z,english_225.wav,0,peel,7753,0,0.0,66.72796839,1.97535322
AYN,38,0,2024-07-07T09:06:52.758Z,english_225.wav,0,peel,7753,1,0.1,3.03768966,1.18784527
AYN,38,0,2024-07-07T09:06:52.758Z,english_225.wav,0,peel,7753,2,0.2,-45.96345052,1.58393351
AYN,38,0,2024-07-07T09:06:52.758Z,english_225.wav,0,peel,7753,3,0.3,-88.14676012,1.17885171
AYN,38,0,2024-07-07T09:06:52.758Z,english_225.wav,0,peel,7753,4,0.32341667,46.76760659,1.387907
AYN,39,0,2024-07-07T09:06:52.758Z,english_143.wav,0,pill,1275,0,0.0,-40.90047407,0.05812512
AYN,39,0,2024-07-07T09:06:52.758Z,english_143.wav,0,pill,1275,1,0.1,-35.35291254,0.81203879
AYN,39,0,2024-07-07T09:06:52.758Z,english_143.wav,0,pill,1275,2,0.2,36.32983964,0.61124866
AYN,39,0,2024-07-07T09:06:52.758Z,english_143.wav,0,pill,1275,3,0.3,-7.67980486,0.41683772
AYN,39,0,2024-07-07T09:06:52.758Z,english_143.wav,0,pill,1275,4,0.32341667,-89.59854269,1.86697452
AYN,40,0,2024-07-07T09:06:52.758Z,english_270.wav,0,peel,1158,0,0.0,-54.89328754,1.02368747
AYN,40,0,2024-07-07T09:06:52.758Z,english_270.wav,0,peel,1158,1,0.1,-41.12345733,1.74263534
AYN,40,0,2024-07-07T09:06:52.758Z,english_270.wav,0,peel,1158,2,0.2,79.03328036,0.45342006
AYN,40,0,2024-07-07T09:06:52.758Z,english_270.wav,0,peel,1158,3,0.3,-87.71335894,1.29911503
AYN,40,0,2024-07-07T09:06:52.758Z,english_270.wav,0,peel,1158,4,0.32341667,-48.20373708,0.95859349
AYN,41,0,2024-07-07T09:06:52.758Z,english_741.wav,0,peel,2318,0,0.0,-74.62614727,1.92216761
AYN,41,0,2024-07-07T09:06:52.758Z,english_741.wav,0,peel,2318,1,0.1,33.834367,1.50741835
AYN,41,0,2024-07-07T09:06:52.758Z,english_741.wav,0,peel,2318,2,0.2,-60.21329901,0.74273648
AYN,41,0,2024-07-07T09:06:52.758Z,english_741.wav,0,peel,2318,3,0.3,-95.39639135,0.98175705
AYN,41,0,2024-07-07T09:06:52.758Z,english_741.wav,0,peel,2318,4,0.32341667,3.10560698,0.9878567
AYN,42,0,2024-07-07T09:06:52.758Z,english_874.wav,0,peel,1178,0,0.0,32.94582558,0.77720789
AYN,42,0,2024-07-07T09:06:52.758Z,english_874.wav,0,peel,1178,1,0.1,73.76521909,1.44852608
AYN,42,0,2024-07-07T09:06:52.758Z,english_874.wav,0,peel,1178,2,0.2,-83.94992572,1.18086928
AYN,42,0,2024-07-07T09:06:52.758Z,english_874.wav,0,peel,1178,3,0.3,-61.86791133,0.75042975
AYN,42,0,2024-07-07T09:06:52.758Z,english_874.wav,0,peel,1178,4,0.32341667,-94.71312943,1.11461748
AYN,43,0,2024-07-07T09:06:52.758Z,english_448.wav,0,peel,1018,0,0.0,0.37188167,1.15390094
AYN,43,0,2024-07-07T09:06:52.758Z,english_448.wav,0,peel,1018,1,0.1,-67.82723624,1.58767458
AYN,43,0,2024-07-07T09:06:52.758Z,english_448.wav,0,peel,1018,2,0.2,65.77705469,1.13313853
AYN,43,0,2024-07-07T09:06:52.758Z,english_448.wav,0,peel,1018,3,0.3,83.31626383,0.27075507
AYN,43,0,2024-07-07T09:06:52.758Z,english_448.wav,0,peel,1018,4,0.32341667,-27.56829045,1.20964916
AYN,44,0,2024-07-07T09:06:52.758Z,english_484.wav,0,pill,527,0,0.0,79.97188672,0.20745104
AYN,44,0,2024-07-07T09:06:52.758Z,english_484.wav,0,pill,527,1,0.1,-84.58904822,1.46214797
AYN,44,0,2024-07-07T09:06:52.758Z,english_484.wav,0,pill,527,2,0.2,70.2960477,0.40821612
AYN,44,0,2024-07-07T09:06:52.758Z,english_484.wav,0,pill,527,3,0.3,-66.44520929,1.23203415
AYN,44,0,2024-07-07T09:06:52.758Z,english_484.wav,0,pill,527,4,0.32341667,-78.91715359,1.26593617
AYN,45,0,2024-07-07T09:06:52.758Z,english_760.wav,0,peel,1229,0,0.0,24.3902693,0.0,0.67210823
AYN,45,0,2024-07-07T09:06:52.758Z,english_760.wav,0,peel,1229,1,0.1,-0.0247174936,0.1,1.89588113
AYN,45,0,2024-07-07T09:06:52.758Z,english_760.wav,0,peel,1229,2,0.2,82.8662613,0.2,0.23432987
AYN,45,0,2024-07-07T09:06:52.758Z,english_760.wav,0,peel,1229,3,0.3,-7.97314524,0.3,1.20797246
AYN,45,0,2024-07-07T09:06:52.758Z,english_760.wav,0,peel,1229,4,0.323416667,-6.32438983,0.32341667,1.72866971
AYN,46,0,2024-07-07T09:06:52.758Z,english_123.wav,0,pill,4421,0,0.0,67.91608163,1.13046919
AYN,46,0,2024-07-07T09:06:52.758Z,english_123.wav,0,pill,4421,1,0.1,-92.32097988,1.99597614
AYN,46,0,2024-07-07T09:06:52.758Z,english_123.wav,0,pill,4421,2,0.2,57.07371841,1.53523853
AYN,46,0,2024-07-07T09:06:52.758Z,english_123.wav,0,pill,4421,3,0.3,19.28317816,0.24385811
AYN,46,0,2024-07-07T09:06:52.758Z,english_123.wav,0,pill,4421,4,0.32341667,15.30546887,0.39158976
AYN,47,0,2024-07-07T09:06:52.758Z,english_585.wav,0,pill,2119,0,0.0,-47.47167609,0.91486293
AYN,47,0,2024-07-07T09:06:52.758Z,english_585.wav,0,pill,2119,1,0.1,-85.73018253,0.8051019
AYN,47,0,2024-07-07T09:06:52.758Z,english_585.wav,0,pill,2119,2,0.2,4.69567907,1.25289508
AYN,47,0,2024-07-07T09:06:52.758Z,english_585.wav,0,pill,2119,3,0.3,51.83381109,0.83258124
AYN,47,0,2024-07-07T09:06:52.758Z,english_585.wav,0,pill,2119,4,0.32341667,14.12777642,1.43411439
AYN,48,0,2024-07-07T09:06:52.758Z,english_917.wav,0,peel,993,0,0.0,-2.28432431,0.51220006
AYN,48,0,2024-07-07T09:06:52.758Z,english_917.wav,0,peel,993,1,0.1,-50.4941454,0.3783057
AYN,48,0,2024-07-07T09:06:52.758Z,english_917.wav,0,peel,993,2,0.2,86.41176613,0.52629226
AYN,48,0,2024-07-07T09:06:52.758Z,english_917.wav,0,peel,993,3,0.3,-50.97734163,0.68389314
AYN,48,0,2024-07-07T09:06:52.758Z,english_917.wav,0,peel,993,4,0.32341667,97.13453513,1.73708117
AYN,49,0,2024-07-07T09:06:52.758Z,english_764.wav,0,peel,1729,0,0.0,7.00590276,1.84020442
AYN,49,0,2024-07-07T09:06:52.758Z,english_764.wav,0,peel,1729,1,0.1,-69.33047837,0.1607256
AYN,49,0,2024-07-07T09:06:52.758Z,english_764.wav,0,peel,1729,2,0.2,-20.89747671,1.70981587
AYN,49,0,2024-07-07T09:06:52.758Z,english_764.wav,0,peel,1729,3,0.3,-96.63564891,1.13854431
AYN,49,0,2024-07-07T09:06:52.758Z,english_764.wav,0,peel,1729,4,0.32341667,78.55111455,1.5536836
AYN,50,1,2024-07-07T09:06:52.758Z,english_687.wav,0,pill,3384,0,0.0,86.90300909,0.475784
AYN,50,1,2024-07-07T09:06:52.758Z,english_687.wav,0,pill,3384,1,0.1,79.71843279,0.40603367
AYN,50,1,2024-07-07T09:06:52.758Z,english_687.wav,0,pill,3384,2,0.2,34.94433723,0.97706088
AYN,50,1,2024-07-07T09:06:52.758Z,english_687.wav,0,pill,3384,3,0.3,-45.53952821,0.65075382
AYN,50,1,2024-07-07T09:06:52.758Z,english_687.wav,0,pill,3384,4,0.32341667,63.0204093,0.93918167
AYN,51,1,2024-07-07T09:06:52.758Z,english_719.wav,0,peel,2060,0,0.0,-32.14306232,1.4431753
AYN,51,1,2024-07-07T09:06:52.758Z,english_719.wav,0,peel,2060,1,0.1,-81.40439332,0.46175707
AYN,51,1,2024-07-07T09:06:52.758Z,english_719.wav,0,peel,2060,2,0.2,-20.1172293,1.86886769
AYN,51,1,2024-07-07T09:06:52.758Z,english_719.wav,0,peel,2060,3,0.3,67.63048238,0.67969247
AYN,51,1,2024-07-07T09:06:52.758Z,english_719.wav,0,peel,2060,4,0.32341667,50.83305788,1.68151983
AYN,52,1,2024-07-07T09:06:52.758Z,english_348.wav,0,pill,828,0,0.0,21.35215111,0.19799702
AYN,52,1,2024-07-07T09:06:52.758Z,english_348.wav,0,pill,828,1,0.1,14.79849269,0.60931017
AYN,52,1,2024-07-07T09:06:52.758Z,english_348.wav,0,pill,828,2,0.2,53.1788992,0.16102666
AYN,52,1,2024-07-07T09:06:52.758Z,english_348.wav,0,pill,828,3,0.3,-95.85723561,1.54818605
AYN,52,1,2024-07-07T09:06:52.758Z,english_348.wav,0,pill,828,4,0.32341667,5.27283499,0.26552753
AYN,53,1,2024-07-07T09:06:52.758Z,english_532.wav,0,peel,841,0,0.0,-19.59321792,1.69826346
AYN,53,1,2024-07-07T09:06:52.758Z,english_532.wav,0,peel,841,1,0.1,84.44945775,1.19849103
AYN,53,1,2024-07-07T09:06:52.758Z,english_532.wav,0,peel,841,2,0.2,-5.6477907,0.05164805
AYN,53,1,2024-07-07T09:06:52.758Z,english_532.wav,0,peel,841,3,0.3,-66.11375502,0.74129516
AYN,53,1,2024-07-07T09:06:52.758Z,english_532.wav,0,peel,841,4,0.32341667,-46.16722618,0.11393119
AYN,54,1,2024-07-07T09:06:52.758Z,english_561.wav,0,pill,2771,0,0.0,62.21065415,1.32725493
AYN,54,1,2024-07-07T09:06:52.758Z,english_561.wav,0,pill,2771,1,0.1,-9.84770717,1.15871491
AYN,54,1,2024-07-07T09:06:52.758Z,english_561.wav,0,pill,2771,2,0.2,-12.92274306,0.82816789
AYN,54,1,2024-07-07T09:06:52.758Z,english_561.wav,0,pill,2771,3,0.3,16.08334811,1.72308293
AYN,54,1,2024-07-07T09:06:52.758Z,english_561.wav,0,pill,2771,4,0.32341667,-22.38830035,0.72943893
AYN,55,1,2024-07-07T09:06:52.758Z,english_34.wav,0,peel,658,0,0.0,-48.07924103,1.44836266
AYN,55,1,2024-07-07T09:06:52.758Z,english_34.wav,0,peel,658,1,0.1,-64.84739183,1.89580324
AYN,55,1,2024-07-07T09:06:52.758Z,english_34.wav,0,peel,658,2,0.2,-20.81716265,0.64308549
AYN,55,1,2024-07-07T09:06:52.758Z,english_34.wav,0,peel,658,3,0.3,91.13652067,0.0848332
AYN,55,1,2024-07-07T09:06:52.758Z,english_34.wav,0,peel,658,4,0.32341667,-54.46543937,0.8036564
AYN,56,1,2024-07-07T09:06:52.758Z,english_30.wav,0,peel,705,0,0.0,-18.5398728,0.31748681
AYN,56,1,2024-07-07T09:06:52.758Z,english_30.wav,0,peel,705,1,0.1,-67.34991207,1.82477139
AYN,56,1,2024-07-07T09:06:52.758Z,english_30.wav,0,peel,705,2,0.2,65.54879707,1.59992979
AYN,56,1,2024-07-07T09:06:52.758Z,english_30.wav,0,peel,705,3,0.3,30.88088319,0.89523729
AYN,56,1,2024-07-07T09:06:52.758Z,english_30.wav,0,peel,705,4,0.32341667,50.60550813,1.02052202
AYN,57,1,2024-07-07T09:06:52.758Z,english_986.wav,0,peel,1182,0,0.0,36.93997263,1.7539978
AYN,57,1,2024-07-07T09:06:52.758Z,english_986.wav,0,peel,1182,1,0.1,-76.80061303,1.40735445
AYN,57,1,2024-07-07T09:06:52.758Z,english_986.wav,0,peel,1182,2,0.2,60.8418497,0.62226098
AYN,57,1,2024-07-07T09:06:52.758Z,english_986.wav,0,peel,1182,3,0.3,-27.90828951,0.48175931
AYN,57,1,2024-07-07T09:06:52.758Z,english_986.wav,0,peel,1182,4,0.32341667,99.51838141,1.5918282
AYN,58,1,2024-07-07T09:06:52.758Z,english_537.wav,0,pill,973,0,0.0,70.8709352,0.55947112
AYN,58,1,2024-07-07T09:06:52.758Z,english_537.wav,0,pill,973,1,0.1,32.34369018,1.10627241
AYN,58,1,2024-07-07T09:06:52.758Z,english_537.wav,0,pill,973,2,0.2,-92.9302278,1.10842043
AYN,58,1,2024-07-07T09:06:52.758Z,english_537.wav,0,pill,973,3,0.3,14.89115364,0.86800797
AYN,58,1,2024-07-07T09:06:52.758Z,english_537.wav,0,pill,973,4,0.32341667,-67.12260703,1.7659473
AYN,59,1,2024-07-07T09:06:52.758Z,english_208.wav,0,pill,1639,0,0.0,-16.36413188,1.19542909
AYN,59,1,2024-07-07T09:06:52.758Z,english_208.wav,0,pill,1639,1,0.1,25.67725806,0.42717457
AYN,59,1,2024-07-07T09:06:52.758Z,english_208.wav,0,pill,1639,2,0.2,15.43722313,1.01088833
AYN,59,1,2024-07-07T09:06:52.758Z,english_208.wav,0,pill,1639,3,0.3,-39.3158007,1.09044814
AYN,59,1,2024-07-07T09:06:52.758Z,english_208.wav,0,pill,1639,4,0.32341667,38.48956167,1.60091335
AYN,60,1,2024-07-07T09:06:52.758Z,english_471.wav,0,peel,665,0,0.0,47.42131089,0.58869392
AYN,60,1,2024-07-07T09:06:52.758Z,english_471.wav,0,peel,665,1,0.1,-63.95282256,1.74739294
AYN,60,1,2024-07-07T09:06:52.758Z,english_471.wav,0,peel,665,2,0.2,31.67244378,1.10105994
AYN,60,1,2024-07-07T09:06:52.758Z,english_471.wav,0,peel,665,3,0.3,40.6572625,0.54790015
AYN,60,1,2024-07-07T09:06:52.758Z,english_471.wav,0,peel,665,4,0.32341667,-18.6332399,1.33029013
AYN,61,1,2024-07-07T09:06:52.758Z,english_335.wav,0,pill,379,0,0.0,2.73277154,0.73564724
AYN,61,1,2024-07-07T09:06:52.758Z,english_335.wav,0,pill,379,1,0.1,-7.1950175,0.15546095
AYN,61,1,2024-07-07T09:06:52.758Z,english_335.wav,0,pill,379,2,0.2,60.45920583,0.90435367
AYN,61,1,2024-07-07T09:06:52.758Z,english_335.wav,0,pill,379,3,0.3,-26.91989021,0.56661996
AYN,61,1,2024-07-07T09:06:52.758Z,english_335.wav,0,pill,379,4,0.32341667,-2.30142169,1.21763394
AYN,62,1,2024-07-07T09:06:52.758Z,english_165.wav,0,peel,425,0,0.0,-65.85966689,0.99094124
AYN,62,1,2024-07-07T09:06:52.758Z,english_165.wav,0,peel,425,1,0.1,57.4210377,1.25140592
AYN,62,1,2024-07-07T09:06:52.758Z,english_165.wav,0,peel,425,2,0.2,-53.4891742,1.66606931
AYN,62,1,2024-07-07T09:06:52.758Z,english_165.wav,0,peel,425,3,0.3,-32.80877015,0.56557264
AYN,62,1,2024-07-07T09:06:52.758Z,english_165.wav,0,peel,425,4,0.32341667,-23.63509804,1.31427626
AYN,63,1,2024-07-07T09:06:52.758Z,english_283.wav,0,pill,335,0,0.0,-27.01977409,1.23470843
AYN,63,1,2024-07-07T09:06:52.758Z,english_283.wav,0,pill,335,1,0.1,-58.6063919,0.41737987
AYN,63,1,2024-07-07T09:06:52.758Z,english_283.wav,0,pill,335,2,0.2,36.15867228,0.64455365
AYN,63,1,2024-07-07T09:06:52.758Z,english_283.wav,0,pill,335,3,0.3,-77.91689069,1.80541824
AYN,63,1,2024-07-07T09:06:52.758Z,english_283.wav,0,pill,335,4,0.32341667,-77.99680679,1.86024907
AYN,64,1,2024-07-07T09:06:52.758Z,english_186.wav,0,peel,430,0,0.0,-54.7664391,1.87021502
AYN,64,1,2024-07-07T09:06:52.758Z,english_186.wav,0,peel,430,1,0.1,-8.4263529,1.36390049
AYN,64,1,2024-07-07T09:06:52.758Z,english_186.wav,0,peel,430,2,0.2,6.22451559,1.69942617
AYN,64,1,2024-07-07T09:06:52.758Z,english_186.wav,0,peel,430,3,0.3,-12.35671223,1.8066537
AYN,64,1,2024-07-07T09:06:52.758Z,english_186.wav,0,peel,430,4,0.32341667,86.21839615,1.2511354
AYN,65,1,2024-07-07T09:06:52.758Z,english_294.wav,0,peel,1021,0,0.0,-92.15775888,0.74816787
AYN,65,1,2024-07-07T09:06:52.758Z,english_294.wav,0,peel,1021,1,0.1,71.96645866,1.71916745
AYN,65,1,2024-07-07T09:06:52.758Z,english_294.wav,0,peel,1021,2,0.2,-25.46852775,1.7524902
AYN,65,1,2024-07-07T09:06:52.758Z,english_294.wav,0,peel,1021,3,0.3,17.21488016,0.9780509
AYN,65,1,2024-07-07T09:06:52.758Z,english_294.wav,0,peel,1021,4,0.32341667,-10.41176069,1.21177262
AYN,66,1,2024-07-07T09:06:52.758Z,english_437.wav,0,pill,568,0,0.0,61.91803223,0.36516876
AYN,66,1,2024-07-07T09:06:52.758Z,english_437.wav,0,pill,568,1,0.1,0.99543568,0.43500315
AYN,66,1,2024-07-07T09:06:52.758Z,english_437.wav,0,pill,568,2,0.2,-50.96874522,1.25398366
AYN,66,1,2024-07-07T09:06:52.758Z,english_437.wav,0,pill,568,3,0.3,-47.73319396,0.60570222
AYN,66,1,2024-07-07T09:06:52.758Z,english_437.wav,0,pill,568,4,0.32341667,15.35939938,0.97208355
AYN,67,1,2024-07-07T09:06:52.758Z,english_8.wav,0,pill,1977,0,0.0,-11.83025711,1.51300734
AYN,67,1,2024-07-07T09:06:52.758Z,english_8.wav,0,pill,1977,1,0.1,8.7470631,0.24000547
AYN,67,1,2024-07-07T09:06:52.758Z,english_8.wav,0,pill,1977,2,0.2,-15.41843982,1.17952525
AYN,67,1,2024-07-07T09:06:52.758Z,english_8.wav,0,pill,1977,3,0.3,-87.7437633,1.57032258
AYN,67,1,2024-07-07T09:06:52.758Z,english_8.wav,0,pill,1977,4,0.32341667,-40.85253846,0.7584977
AYN,68,1,2024-07-07T09:06:52.758Z,english_71.wav,0,peel,1151,0,0.0,-89.06637534,0.37218892
AYN,68,1,2024-07-07T09:06:52.758Z,english_71.wav,0,peel,1151,1,0.1,-28.638437,1.29479557
AYN,68,1,2024-07-07T09:06:52.758Z,english_71.wav,0,peel,1151,2,0.2,-8.31899436,1.34818575
AYN,68,1,2024-07-07T09:06:52.758Z,english_71.wav,0,peel,1151,3,0.3,67.7820648,1.24266832
AYN,68,1,2024-07-07T09:06:52.758Z,english_71.wav,0,peel,1151,4,0.32341667,4.09606073,1.38884894
AYN,69,1,2024-07-07T09:06:52.758Z,english_180.wav,0,peel,1365,0,0.0,-79.96502932,0.84610218
AYN,69,1,2024-07-07T09:06:52.758Z,english_180.wav,0,peel,1365,1,0.1,33.21752916,1.88919334
AYN,69,1,2024-07-07T09:06:52.758Z,english_180.wav,0,peel,1365,2,0.2,-97.52705813,0.18699196
AYN,69,1,2024-07-07T09:06:52.758Z,english_180.wav,0,peel,1365,3,0.3,42.51331828,0.0366283
AYN,69,1,2024-07-07T09:06:52.758Z,english_180.wav,0,peel,1365,4,0.32341667,-42.98571984,0.95813987
AYN,70,1,2024-07-07T09:06:52.758Z,english_280.wav,0,pill,1562,0,0.0,88.60957906,0.0301642
AYN,70,1,2024-07-07T09:06:52.758Z,english_280.wav,0,pill,1562,1,0.1,84.68226706,1.61205195
AYN,70,1,2024-07-07T09:06:52.758Z,english_280.wav,0,pill,1562,2,0.2,-77.43679957,1.42137195
AYN,70,1,2024-07-07T09:06:52.758Z,english_280.wav,0,pill,1562,3,0.3,45.11946934,1.73240953
AYN,70,1,2024-07-07T09:06:52.758Z,english_280.wav,0,pill,1562,4,0.32341667,-36.96988582,0.09602122
AYN,71,1,2024-07-07T09:06:52.758Z,english_862.wav,0,pill,1073,0,0.0,97.17644144,0.51253178
AYN,71,1,2024-07-07T09:06:52.758Z,english_862.wav,0,pill,1073,1,0.1,26.34966999,0.21080737
AYN,71,1,2024-07-07T09:06:52.758Z,english_862.wav,0,pill,1073,2,0.2,-21.73584106,0.27401534
AYN,71,1,2024-07-07T09:06:52.758Z,english_862.wav,0,pill,1073,3,0.3,70.49109419,1.91980484
AYN,71,1,2024-07-07T09:06:52.758Z,english_862.wav,0,pill,1073,4,0.32341667,43.48373212,0.96077188
AYN,72,1,2024-07-07T09:06:52.758Z,english_926.wav,0,peel,718,0,0.0,-21.84910749,1.63725542
AYN,72,1,2024-07-07T09:06:52.758Z,english_926.wav,0,peel,718,1,0.1,92.62617727,0.91190035
AYN,72,1,2024-07-07T09:06:52.758Z,english_926.wav,0,peel,718,2,0.2,-40.07927874,0.45967153
AYN,72,1,2024-07-07T09:06:52.758Z,english_926.wav,0,peel,718,3,0.3,30.58508574,0.64362954
AYN,72,1,2024-07-07T09:06:52.758Z,english_926.wav,0,peel,718,4,0.32341667,-68.98646438,1.44788087
AYN,73,1,2024-07-07T09:06:52.758Z,english_877.wav,0,peel,1361,0,0.0,49.36401037,1.25510861
AYN,73,1,2024-07-07T09:06:52.758Z,english_877.wav,0,peel,1361,1,0.1,15.17280231,0.84700305
AYN,73,1,2024-07-07T09:06:52.758Z,english_877.wav,0,peel,1361,2,0.2,22.36436744,0.32703774
AYN,73,1,2024-07-07T09:06:52.758Z,english_877.wav,0,peel,1361,3,0.3,-25.51979868,1.72637958
AYN,73,1,2024-07-07T09:06:52.758Z,english_877.wav,0,peel,1361,4,0.32341667,-55.72443313,0.52117686
AYN,74,1,2024-07-07T09:06:52.758Z,english_678.wav,0,peel,1175,0,0.0,87.86222938,1.6760541
AYN,74,1,2024-07-07T09:06:52.758Z,english_678.wav,0,peel,1175,1,0.1,-47.14792626,0.22369522
AYN,74,1,2024-07-07T09:06:52.758Z,english_678.wav,0,peel,1175,2,0.2,-6.84659798,1.1260271
AYN,74,1,2024-07-07T09:06:52.758Z,english_678.wav,0,peel,1175,3,0.3,87.67045201,1.53941447
AYN,74,1,2024-07-07T09:06:52.758Z,english_678.wav,0,peel,1175,4,0.32341667,-51.71213936,1.37136581
AYN,75,1,2024-07-07T09:06:52.758Z,english_212.wav,0,peel,749,0,0.0,-8.03708838,0.69940518
AYN,75,1,2024-07-07T09:06:52.758Z,english_212.wav,0,peel,749,1,0.1,72.60121642,1.0039509
AYN,75,1,2024-07-07T09:06:52.758Z,english_212.wav,0,peel,749,2,0.2,-98.76374397,1.17731185
AYN,75,1,2024-07-07T09:06:52.758Z,english_212.wav,0,peel,749,3,0.3,31.47742107,0.88066499
AYN,75,1,2024-07-07T09:06:52.758Z,english_212.wav,0,peel,749,4,0.32341667,53.59344022,0.33624016
AYN,76,1,2024-07-07T09:06:52.758Z,english_796.wav,0,pill,701,0,0.0,57.52331511,0.93419081
AYN,76,1,2024-07-07T09:06:52.758Z,english_796.wav,0,pill,701,1,0.1,-53.71774571,0.77950231
AYN,76,1,2024-07-07T09:06:52.758Z,english_796.wav,0,pill,701,2,0.2,-36.09214461,0.54947466
AYN,76,1,2024-07-07T09:06:52.758Z,english_796.wav,0,pill,701,3,0.3,23.21783142,1.69054841
AYN,76,1,2024-07-07T09:06:52.758Z,english_796.wav,0,pill,701,4,0.32341667,-74.52171885,0.76047802
AYN,77,1,2024-07-07T09:06:52.758Z,english_879.wav,0,peel,602,0,0.0,-56.32485069,0.53184386
AYN,77,1,2024-07-07T09:06:52.758Z,english_879.wav,0,peel,602,1,0.1,64.67592183,1.34296213
AYN,77,1,2024-07-07T09:06:52.758Z,english_879.wav,0,peel,602,2,0.2,25.82204554,0.44649674
AYN,77,1,2024-07-07T09:06:52.758Z,english_879.wav,0,peel,602,3,0.3,5.66794257,0.79707043
AYN,77,1,2024-07-07T09:06:52.758Z,english_879.wav,0,peel,602,4,0.32341667,-31.65503708,1.19804995
AYN,78,1,2024-07-07T09:06:52.758Z,english_968.wav,0,pill,810,0,0.0,-36.76350372,0.52322451
AYN,78,1,2024-07-07T09:06:52.758Z,english_968.wav,0,pill,810,1,0.1,-99.8991193,0.66419732
AYN,78,1,2024-07-07T09:06:52.758Z,english_968.wav,0,pill,810,2,0.2,27.503089,0.44232096
AYN,78,1,2024-07-07T09:06:52.758Z,english_968.wav,0,pill,810,3,0.3,-34.85106147,1.90778707
AYN,78,1,2024-07-07T09:06:52.758Z,english_968.wav,0,pill,810,4,0.32341667,68.2869663,0.59652698
AYN,79,1,2024-07-07T09:06:52.758Z,english_757.wav,0,peel,732,0,0.0,-71.37581006,0.57944866
AYN,79,1,2024-07-07T09:06:52.758Z,english_757.wav,0,peel,732,1,0.1,-34.89028362,1.76833087
AYN,79,1,2024-07-07T09:06:52.758Z,english_757.wav,0,peel,732,2,0.2,97.72444176,0.43040584
AYN,79,1,2024-07-07T09:06:52.758Z,english_757.wav,0,peel,732,3,0.3,8.64322444,1.84780211
AYN,79,1,2024-07-07T09:06:52.758Z,english_757.wav,0,peel,732,4,0.32341667,-59.15215987,0.21714226
AYN,80,1,2024-07-07T09:06:52.758Z,english_356.wav,0,peel,865,0,0.0,87.74309864,0.22820547
AYN,80,1,2024-07-07T09:06:52.758Z,english_356.wav,0,peel,865,1,0.1,-4.48264388,1.49009691
AYN,80,1,2024-07-07T09:06:52.758Z,english_356.wav,0,peel,865,2,0.2,90.19031952,1.39023362
AYN,80,1,2024-07-07T09:06:52.758Z,english_356.wav,0,peel,865,3,0.3,-69.40540064,1.78473098
AYN,80,1,2024-07-07T09:06:52.758Z,english_356.wav,0,peel,865,4,0.32341667,65.10278108,0.80628385
AYN,81,1,2024-07-07T09:06:52.758Z,english_248.wav,0,pill,942,0,0.0,62.49888219,0.01612638
AYN,81,1,2024-07-07T09:06:52.758Z,english_248.wav,0,pill,942,1,0.1,-37.43052778,0.65001727
AYN,81,1,2024-07-07T09:06:52.758Z,english_248.wav,0,pill,942,2,0.2,50.26474258,1.10053755
AYN,81,1,2024-07-07T09:06:52.758Z,english_248.wav,0,pill,942,3,0.3,-90.47385391,0.93833438
AYN,81,1,2024-07-07T09:06:52.758Z,english_248.wav,0,pill,942,4,0.32341667,-16.4169983,1.90627888
AYN,82,1,2024-07-07T09:06:52.758Z,english_854.wav,0,pill,948,0,0.0,-3.2532791,1.78139632
AYN,82,1,2024-07-07T09:06:52.758Z,english_854.wav,0,pill,948,1,0.1,19.40039505,1.50161717
AYN,82,1,2024-07-07T09:06:52.758Z,english_854.wav,0,pill,948,2,0.2,-14.62360686,0.8978804
AYN,82,1,2024-07-07T09:06:52.758Z,english_854.wav,0,pill,948,3,0.3,-63.13820282,1.66267041
AYN,82,1,2024-07-07T09:06:52.758Z,english_854.wav,0,pill,948,4,0.32341667,44.42181264,1.68588082
AYN,83,1,2024-07-07T09:06:52.758Z,english_934.wav,0,peel,2169,0,0.0,48.23169593,1.38760579
AYN,83,1,2024-07-07T09:06:52.758Z,english_934.wav,0,peel,2169,1,0.1,42.81145804,1.74622613
AYN,83,1,2024-07-07T09:06:52.758Z,english_934.wav,0,peel,2169,2,0.2,79.06411095,0.2874918
AYN,83,1,2024-07-07T09:06:52.758Z,english_934.wav,0,peel,2169,3,0.3,69.44528076,1.61606763
AYN,83,1,2024-07-07T09:06:52.758Z,english_934.wav,0,peel,2169,4,0.32341667,88.54940569,1.62058381
AYN,84,1,2024-07-07T09:06:52.758Z,english_74.wav,0,peel,997,0,0.0,86.29588785,1.196208
AYN,84,1,2024-07-07T09:06:52.758Z,english_74.wav,0,peel,997,1,0.1,-14.52381687,1.63208143
AYN,84,1,2024-07-07T09:06:52.758Z,english_74.wav,0,peel,997,2,0.2,77.94321906,0.46125368
AYN,84,1,2024-07-07T09:06:52.758Z,english_74.wav,0,peel,997,3,0.3,-32.33104188,1.38278461
AYN,84,1,2024-07-07T09:06:52.758Z,english_74.wav,0,peel,997,4,0.32341667,9.46602754,0.83147108
AYN,85,1,2024-07-07T09:06:52.758Z,english_367.wav,0,pill,2331,0,0.0,69.68935346,1.12532443
AYN,85,1,2024-07-07T09:06:52.758Z,english_367.wav,0,pill,2331,1,0.1,-21.84293244,1.15903886
AYN,85,1,2024-07-07T09:06:52.758Z,english_367.wav,0,pill,2331,2,0.2,-22.40126322,1.68834661
AYN,85,1,2024-07-07T09:06:52.758Z,english_367.wav,0,pill,2331,3,0.3,-77.83415675,1.78966274
AYN,85,1,2024-07-07T09:06:52.758Z,english_367.wav,0,pill,2331,4,0.32341667,18.42522507,1.57311162
AYN,86,1,2024-07-07T09:06:52.758Z,english_921.wav,0,pill,1257,0,0.0,60.93482672,0.06624465
AYN,86,1,2024-07-07T09:06:52.758Z,english_921.wav,0,pill,1257,1,0.1,-71.63665921,1.88925143
AYN,86,1,2024-07-07T09:06:52.758Z,english_921.wav,0,pill,1257,2,0.2,-30.77028929,0.40013084
AYN,86,1,2024-07-07T09:06:52.758Z,english_921.wav,0,pill,1257,3,0.3,-44.68164597,1.26601564
AYN,86,1,2024-07-07T09:06:52.758Z,english_921.wav,0,pill,1257,4,0.32341667,34.59415858,1.98956357
AYN,87,1,2024-07-07T09:06:52.758Z,english_942.wav,0,peel,780,0,0.0,96.26286183,1.14976657
AYN,87,1,2024-07-07T09:06:52.758Z,english_942.wav,0,peel,780,1,0.1,-96.45992778,0.962364
AYN,87,1,2024-07-07T09:06:52.758Z,english_942.wav,0,peel,780,2,0.2,50.93322043,0.99280793
AYN,87,1,2024-07-07T09:06:52.758Z,english_942.wav,0,peel,780,3,0.3,14.6207779,1.92237923
AYN,87,1,2024-07-07T09:06:52.758Z,english_942.wav,0,peel,780,4,0.32341667,7.19296333,1.02094568
AYN,88,1,2024-07-07T09:06:52.758Z,english_605.wav,0,pill,745,0,0.0,-82.65591545,0.90945233
AYN,88,1,2024-07-07T09:06:52.758Z,english_605.wav,0,pill,745,1,0.1,35.78886654,1.65178877
AYN,88,1,2024-07-07T09:06:52.758Z,english_605.wav,0,pill,745,2,0.2,-36.80716754,0.21181898
AYN,88,1,2024-07-07T09:06:52.758Z,english_605.wav,0,pill,745,3,0.3,-4.39131435,1.21754483
AYN,88,1,2024-07-07T09:06:52.758Z,english_605.wav,0,pill,745,4,0.32341667,-17.17702763,1.60493484
AYN,89,1,2024-07-07T09:06:52.758Z,english_535.wav,0,pill,1641,0,0.0,-5.32882057,0.21055966
AYN,89,1,2024-07-07T09:06:52.758Z,english_535.wav,0,pill,1641,1,0.1,-34.98045039,0.89683134
AYN,89,1,2024-07-07T09:06:52.758Z,english_535.wav,0,pill,1641,2,0.2,30.10834221,1.11178172
AYN,89,1,2024-07-07T09:06:52.758Z,english_535.wav,0,pill,1641,3,0.3,-70.22542568,0.20123235
AYN,89,1,2024-07-07T09:06:52.758Z,english_535.wav,0,pill,1641,4,0.32341667,-73.0016054,0.99564794
AYN,90,1,2024-07-07T09:06:52.758Z,english_164.wav,0,peel,703,0,0.0,-18.99376005,1.91320144
AYN,90,1,2024-07-07T09:06:52.758Z,english_164.wav,0,peel,703,1,0.1,-38.65269109,0.23857652
AYN,90,1,2024-07-07T09:06:52.758Z,english_164.wav,0,peel,703,2,0.2,64.75288033,1.41883879
AYN,90,1,2024-07-07T09:06:52.758Z,english_164.wav,0,peel,703,3,0.3,-33.8407164,1.34667564
AYN,90,1,2024-07-07T09:06:52.758Z,english_164.wav,0,peel,703,4,0.32341667,27.96502681,0.04602263
AYN,91,1,2024-07-07T09:06:52.758Z,english_985.wav,0,pill,1607,0,0.0,31.76144354,0.46805505
AYN,91,1,2024-07-07T09:06:52.758Z,english_985.wav,0,pill,1607,1,0.1,49.0534069,1.72857245
AYN,91,1,2024-07-07T09:06:52.758Z,english_985.wav,0,pill,1607,2,0.2,-59.14058353,0.05336254
AYN,91,1,2024-07-07T09:06:52.758Z,english_985.wav,0,pill,1607,3,0.3,-36.25561351,0.45417652
AYN,91,1,2024-07-07T09:06:52.758Z,english_985.wav,0,pill,1607,4,0.32341667,-53.50268286,1.33850641
AYN,92,1,2024-07-07T09:06:52.758Z,english_617.wav,0,peel,1437,0,0.0,-99.94195333,1.17597353
AYN,92,1,2024-07-07T09:06:52.758Z,english_617.wav,0,peel,1437,1,0.1,-27.54289523,0.72595777
AYN,92,1,2024-07-07T09:06:52.758Z,english_617.wav,0,peel,1437,2,0.2,-31.48016085,0.94648609
AYN,92,1,2024-07-07T09:06:52.758Z,english_617.wav,0,peel,1437,3,0.3,-72.28967102,1.67485207
AYN,92,1,2024-07-07T09:06:52.758Z,english_617.wav,0,peel,1437,4,0.32341667,-18.83127656,0.94146903
AYN,93,1,2024-07-07T09:06:52.758Z,english_766.wav,0,peel,1064,0,0.0,-86.57417509,1.21737292
AYN,93,1,2024-07-07T09:06:52.758Z,english_766.wav,0,peel,1064,1,0.1,-67.75686223,1.61484435
AYN,93,1,2024-07-07T09:06:52.758Z,english_766.wav,0,peel,1064,2,0.2,74.21258041,1.47872362
AYN,93,1,2024-07-07T09:06:52.758Z,english_766.wav,0,peel,1064,3,0.3,65.20164426,1.81064247
AYN,93,1,2024-07-07T09:06:52.758Z,english_766.wav,0,peel,1064,4,0.32341667,-26.41371036,1.37776493
AYN,94,1,2024-07-07T09:06:52.758Z,english_602.wav,0,pill,1303,0,0.0,-53.18857274,1.95117352
AYN,94,1,2024-07-07T09:06:52.758Z,english_602.wav,0,pill,1303,1,0.1,-52.96167371,1.1427253
AYN,94,1,2024-07-07T09:06:52.758Z,english_602.wav,0,pill,1303,2,0.2,38.20784676,1.10694813
AYN,94,1,2024-07-07T09:06:52.758Z,english_602.wav,0,pill,1303,3,0.3,46.0178344,0.8717932
AYN,94,1,2024-07-07T09:06:52.758Z,english_602.wav,0,pill,1303,4,0.32341667,78.11630752,0.71626065
AYN,95,1,2024-07-07T09:06:52.758Z,english_60.wav,0,peel,725,0,0.0,82.53369854,0.66834278
AYN,95,1,2024-07-07T09:06:52.758Z,english_60.wav,0,peel,725,1,0.1,60.14491878,1.16350573
AYN,95,1,2024-07-07T09:06:52.758Z,english_60.wav,0,peel,725,2,0.2,-26.84704149,1.24827189
AYN,95,1,2024-07-07T09:06:52.758Z,english_60.wav,0,peel,725,3,0.3,-19.8784386,0.70182905
AYN,95,1,2024-07-07T09:06:52.758Z,english_60.wav,0,peel,725,4,0.32341667,-26.04492652,0.20173025
AYN,96,1,2024-07-07T09:06:52.758Z,english_871.wav,0,pill,1106,0,0.0,84.63625516,0.21643415
AYN,96,1,2024-07-07T09:06:52.758Z,english_871.wav,0,pill,1106,1,0.1,-19.11058767,1.23538017
AYN,96,1,2024-07-07T09:06:52.758Z,english_871.wav,0,pill,1106,2,0.2,49.1497137,1.26375285
AYN,96,1,2024-07-07T09:06:52.758Z,english_871.wav,0,pill,1106,3,0.3,-83.07816512,0.03257235
AYN,96,1,2024-07-07T09:06:52.758Z,english_871.wav,0,pill,1106,4,0.32341667,11.22002909,1.90703832
AYN,97,1,2024-07-07T09:06:52.758Z,english_768.wav,0,peel,3209,0,0.0,-28.93145359,1.5002074
AYN,97,1,2024-07-07T09:06:52.758Z,english_768.wav,0,peel,3209,1,0.1,59.49166151,1.15432208
AYN,97,1,2024-07-07T09:06:52.758Z,english_768.wav,0,peel,3209,2,0.2,41.87955621,0.01731471
AYN,97,1,2024-07-07T09:06:52.758Z,english_768.wav,0,peel,3209,3,0.3,-92.17589111,0.98337229
AYN,97,1,2024-07-07T09:06:52.758Z,english_768.wav,0,peel,3209,4,0.32341667,15.2364545,0.4381055
AYN,98,1,2024-07-07T09:06:52.758Z,english_494.wav,0,pill,1279,0,0.0,-3.60210196,0.0,0.92014098
AYN,98,1,2024-07-07T09:06:52.758Z,english_494.wav,0,pill,1279,1,0.1,-0.0120609558,0.1,1.08763174
AYN,98,1,2024-07-07T09:06:52.758Z,english_494.wav,0,pill,1279,2,0.2,-75.2550513,0.2,0.29239621
AYN,98,1,2024-07-07T09:06:52.758Z,english_494.wav,0,pill,1279,3,0.3,39.6800445,0.3,0.26357805
AYN,98,1,2024-07-07T09:06:52.758Z,english_494.wav,0,pill,1279,4,0.323416667,78.1977592,0.32341667,1.67878037
AYN,99,1,2024-07-07T09:06:52.758Z,english_508.wav,0,pill,1464,0,0.0,-21.23116318,1.79614382
AYN,99,1,2024-07-07T09:06:52.758Z,english_508.wav,0,pill,1464,1,0.1,-27.56583205,0.60449395
AYN,99,1,2024-07-07T09:06:52.758Z,english_508.wav,0,pill,1464,2,0.2,64.21774851,0.56582153
AYN,99,1,2024-07-07T09:06:52.758Z,english_508.wav,0,pill,1464,3,0.3,-9.24056951,1.01665474
AYN,99,1,2024-07-07T09:06:52.758Z,english_508.wav,0,pill,1464,4,0.32341667,-9.74670904,0.78905044
AYN,100,2,2024-07-07T09:06:52.758Z,english_419.wav,0,pill,921,0,0.0,74.10926047,0.0,0.423980314
AYN,100,2,2024-07-07T09:06:52.758Z,english_419.wav,0,pill,921,1,0.1,-50.44969368,0.1,1.12483838
AYN,100,2,2024-07-07T09:06:52.758Z,english_419.wav,0,pill,921,2,0.2,-38.37630765,0.2,0.473465541
AYN,100,2,2024-07-07T09:06:52.758Z,english_419.wav,0,pill,921,3,0.3,-57.54140712,0.3,0.000838613621
AYN,100,2,2024-07-07T09:06:52.758Z,english_419.wav,0,pill,921,4,0.32341667,48.12555486,0.323416667,0.389285402
AYN,101,2,2024-07-07T09:06:52.758Z,english_91.wav,0,pill,1473,0,0.0,-67.73951944,0.2772338
AYN,101,2,2024-07-07T09:06:52.758Z,english_91.wav,0,pill,1473,1,0.1,83.83337034,0.0816757
AYN,101,2,2024-07-07T09:06:52.758Z,english_91.wav,0,pill,1473,2,0.2,-12.75649653,0.92538416
AYN,101,2,2024-07-07T09:06:52.758Z,english_91.wav,0,pill,1473,3,0.3,5.95502951,0.40714056
AYN,101,2,2024-07-07T09:06:52.758Z,english_91.wav,0,pill,1473,4,0.32341667,59.56964586,1.8717525
AYN,102,2,2024-07-07T09:06:52.758Z,english_744.wav,0,peel,735,0,0.0,43.39686976,0.75505854
AYN,102,2,2024-07-07T09:06:52.758Z,english_744.wav,0,peel,735,1,0.1,-61.67573043,1.01311725
AYN,102,2,2024-07-07T09:06:52.758Z,english_744.wav,0,peel,735,2,0.2,0.51873183,0.73457108
AYN,102,2,2024-07-07T09:06:52.758Z,english_744.wav,0,peel,735,3,0.3,12.88130512,0.90154102
AYN,102,2,2024-07-07T09:06:52.758Z,english_744.wav,0,peel,735,4,0.32341667,57.31714449,1.01338509
AYN,103,2,2024-07-07T09:06:52.758Z,english_347.wav,0,peel,1883,0,0.0,34.89178431,1.32203506
AYN,103,2,2024-07-07T09:06:52.758Z,english_347.wav,0,peel,1883,1,0.1,53.24978685,0.28714436
AYN,103,2,2024-07-07T09:06:52.758Z,english_347.wav,0,peel,1883,2,0.2,4.11185022,1.66093526
AYN,103,2,2024-07-07T09:06:52.758Z,english_347.wav,0,peel,1883,3,0.3,89.26663646,1.29826057
AYN,103,2,2024-07-07T09:06:52.758Z,english_347.wav,0,peel,1883,4,0.32341667,-53.02646266,0.05504814
AYN,104,2,2024-07-07T09:06:52.758Z,english_989.wav,0,pill,991,0,0.0,-51.1051603,1.00035195
AYN,104,2,2024-07-07T09:06:52.758Z,english_989.wav,0,pill,991,1,0.1,-91.26717948,0.46124463
AYN,104,2,2024-07-07T09:06:52.758Z,english_989.wav,0,pill,991,2,0.2,73.5145218,0.77735517
AYN,104,2,2024-07-07T09:06:52.758Z,english_989.wav,0,pill,991,3,0.3,54.43703181,1.21549894
AYN,104,2,2024-07-07T09:06:52.758Z,english_989.wav,0,pill,991,4,0.32341667,-36.95823638,0.33045291
AYN,105,2,2024-07-07T09:06:52.758Z,english_410.wav,0,peel,661,0,0.0,-74.64506245,0.42358098
AYN,105,2,2024-07-07T09:06:52.758Z,english_410.wav,0,peel,661,1,0.1,65.24401488,0.42526697
AYN,105,2,2024-07-07T09:06:52.758Z,english_410.wav,0,peel,661,2,0.2,-65.86471953,1.12385183
AYN,105,2,2024-07-07T09:06:52.758Z,english_410.wav,0,peel,661,3,0.3,98.79489106,0.33588109
AYN,105,2,2024-07-07T09:06:52.758Z,english_410.wav,0,peel,661,4,0.32341667,14.95451541,1.7246864
AYN,106,2,2024-07-07T09:06:52.758Z,english_912.wav,0,peel,545,0,0.0,-43.64864707,0.87210048
AYN,106,2,2024-07-07T09:06:52.758Z,english_912.wav,0,peel,545,1,0.1,94.54433808,1.43243955
AYN,106,2,2024-07-07T09:06:52.758Z,english_912.wav,0,peel,545,2,0.2,67.98324072,1.49899487
AYN,106,2,2024-07-07T09:06:52.758Z,english_912.wav,0,peel,545,3,0.3,9.27329172,0.42663795
AYN,106,2,2024-07-07T09:06:52.758Z,english_912.wav,0,peel,545,4,0.32341667,-55.44973818,0.19299009
AYN,107,2,2024-07-07T09:06:52.758Z,english_435.wav,0,peel,598,0,0.0,-61.49548479,0.36819492
AYN,107,2,2024-07-07T09:06:52.758Z,english_435.wav,0,peel,598,1,0.1,18.53940612,1.77990606
AYN,107,2,2024-07-07T09:06:52.758Z,english_435.wav,0,peel,598,2,0.2,-39.20879804,1.09377229
AYN,107,2,2024-07-07T09:06:52.758Z,english_435.wav,0,peel,598,3,0.3,-30.66509024,1.98213584
AYN,107,2,2024-07-07T09:06:52.758Z,english_435.wav,0,peel,598,4,0.32341667,7.07056367,0.5936591
AYN,108,2,2024-07-07T09:06:52.758Z,english_700.wav,0,pill,741,0,0.0,-76.89056698,0.13963816
AYN,108,2,2024-07-07T09:06:52.758Z,english_700.wav,0,pill,741,1,0.1,-93.17552037,0.76842729
AYN,108,2,2024-07-07T09:06:52.758Z,english_700.wav,0,pill,741,2,0.2,51.24439156,0.49149542
AYN,108,2,2024-07-07T09:06:52.758Z,english_700.wav,0,pill,741,3,0.3,89.4516499,1.08714417
AYN,108,2,2024-07-07T09:06:52.758Z,english_700.wav,0,pill,741,4,0.32341667,-68.48659069,1.35188588
AYN,109,2,2024-07-07T09:06:52.758Z,english_284.wav,0,pill,1152,0,0.0,-77.15161711,0.74585549
AYN,109,2,2024-07-07T09:06:52.758Z,english_284.wav,0,pill,1152,1,0.1,80.53955212,0.017077
AYN,109,2,2024-07-07T09:06:52.758Z,english_284.wav,0,pill,1152,2,0.2,-73.74967403,0.284322
AYN,109,2,2024-07-07T09:06:52.758Z,english_284.wav,0,pill,1152,3,0.3,-47.67008962,1.04459593
AYN,109,2,2024-07-07T09:06:52.758Z,english_284.wav,0,pill,1152,4,0.32341667,40.40758666,0.8536958
AYN,110,2,2024-07-07T09:06:52.758Z,english_504.wav,0,pill,1060,0,0.0,4.11468456,0.75379057
AYN,110,2,2024-07-07T09:06:52.758Z,english_504.wav,0,pill,1060,1,0.1,70.56620437,1.18348717
AYN,110,2,2024-07-07T09:06:52.758Z,english_504.wav,0,pill,1060,2,0.2,3.26767498,0.25360202
AYN,110,2,2024-07-07T09:06:52.758Z,english_504.wav,0,pill,1060,3,0.3,-3.14493553,1.87094491
AYN,110,2,2024-07-07T09:06:52.758Z,english_504.wav,0,pill,1060,4,0.32341667,43.57926014,0.110125
AYN,111,2,2024-07-07T09:06:52.758Z,english_670.wav,0,pill,959,0,0.0,64.75672565,1.5535903
AYN,111,2,2024-07-07T09:06:52.758Z,english_670.wav,0,pill,959,1,0.1,85.95156369,0.12522594
AYN,111,2,2024-07-07T09:06:52.758Z,english_670.wav,0,pill,959,2,0.2,-44.32949438,0.22842632
AYN,111,2,2024-07-07T09:06:52.758Z,english_670.wav,0,pill,959,3,0.3,22.57192219,0.17636502
AYN,111,2,2024-07-07T09:06:52.758Z,english_670.wav,0,pill,959,4,0.32341667,34.74005277,0.16208776
AYN,112,2,2024-07-07T09:06:52.758Z,english_845.wav,0,peel,861,0,0.0,-39.21264236,0.82761504
AYN,112,2,2024-07-07T09:06:52.758Z,english_845.wav,0,peel,861,1,0.1,99.78041888,0.53375751
AYN,112,2,2024-07-07T09:06:52.758Z,english_845.wav,0,peel,861,2,0.2,-59.29104422,1.24236426
AYN,112,2,2024-07-07T09:06:52.758Z,english_845.wav,0,peel,861,3,0.3,57.0409613,1.27736464
AYN,112,2,2024-07-07T09:06:52.758Z,english_845.wav,0,peel,861,4,0.32341667,-93.6361214,0.79024728
AYN,113,2,2024-07-07T09:06:52.758Z,english_252.wav,0,peel,1087,0,0.0,79.75601627,0.77799761
AYN,113,2,2024-07-07T09:06:52.758Z,english_252.wav,0,peel,1087,1,0.1,17.00183399,1.07711339
AYN,113,2,2024-07-07T09:06:52.758Z,english_252.wav,0,peel,1087,2,0.2,-25.42800597,0.7917181
AYN,113,2,2024-07-07T09:06:52.758Z,english_252.wav,0,peel,1087,3,0.3,-47.65138194,1.47632881
AYN,113,2,2024-07-07T09:06:52.758Z,english_252.wav,0,peel,1087,4,0.32341667,35.10652067,1.65919103
AYN,114,2,2024-07-07T09:06:52.758Z,english_92.wav,0,peel,862,0,0.0,31.88505953,1.50112375
AYN,114,2,2024-07-07T09:06:52.758Z,english_92.wav,0,peel,862,1,0.1,-5.62534355,0.35596674
AYN,114,2,2024-07-07T09:06:52.758Z,english_92.wav,0,peel,862,2,0.2,-66.19250112,1.12270031
AYN,114,2,2024-07-07T09:06:52.758Z,english_92.wav,0,peel,862,3,0.3,-77.62644198,1.09837269
AYN,114,2,2024-07-07T09:06:52.758Z,english_92.wav,0,peel,862,4,0.32341667,-66.61656061,1.16274455
AYN,115,2,2024-07-07T09:06:52.758Z,english_966.wav,0,pill,650,0,0.0,23.00954068,1.02848684
AYN,115,2,2024-07-07T09:06:52.758Z,english_966.wav,0,pill,650,1,0.1,-2.7733657,1.22612364
AYN,115,2,2024-07-07T09:06:52.758Z,english_966.wav,0,pill,650,2,0.2,-6.00176123,0.03461529
AYN,115,2,2024-07-07T09:06:52.758Z,english_966.wav,0,pill,650,3,0.3,-64.80320904,0.22357585
AYN,115,2,2024-07-07T09:06:52.758Z,english_966.wav,0,pill,650,4,0.32341667,94.15296916,0.55383001
AYN,116,2,2024-07-07T09:06:52.758Z,english_37.wav,0,peel,467,0,0.0,-5.54999706,1.12257854
AYN,116,2,2024-07-07T09:06:52.758Z,english_37.wav,0,peel,467,1,0.1,23.22206304,1.8669628
AYN,116,2,2024-07-07T09:06:52.758Z,english_37.wav,0,peel,467,2,0.2,-57.36481589,0.39386712
AYN,116,2,2024-07-07T09:06:52.758Z,english_37.wav,0,peel,467,3,0.3,58.0578648,1.21765674
AYN,116,2,2024-07-07T09:06:52.758Z,english_37.wav,0,peel,467,4,0.32341667,66.03280024,0.74428952
AYN,117,2,2024-07-07T09:06:52.758Z,english_277.wav,0,pill,773,0,0.0,57.10742469,0.00973607
AYN,117,2,2024-07-07T09:06:52.758Z,english_277.wav,0,pill,773,1,0.1,-91.86277199,0.30409245
AYN,117,2,2024-07-07T09:06:52.758Z,english_277.wav,0,pill,773,2,0.2,15.18492706,1.04533503
AYN,117,2,2024-07-07T09:06:52.758Z,english_277.wav,0,pill,773,3,0.3,-70.52173838,1.32138987
AYN,117,2,2024-07-07T09:06:52.758Z,english_277.wav,0,pill,773,4,0.32341667,87.41438228,0.22027268
AYN,118,2,2024-07-07T09:06:52.758Z,english_559.wav,0,pill,1252,0,0.0,72.91796617,0.28347303
AYN,118,2,2024-07-07T09:06:52.758Z,english_559.wav,0,pill,1252,1,0.1,49.0763932,0.33705515
AYN,118,2,2024-07-07T09:06:52.758Z,english_559.wav,0,pill,1252,2,0.2,37.36372944,1.25665906
AYN,118,2,2024-07-07T09:06:52.758Z,english_559.wav,0,pill,1252,3,0.3,62.8744144,0.42135622
AYN,118,2,2024-07-07T09:06:52.758Z,english_559.wav,0,pill,1252,4,0.32341667,-70.24316133,0.44445559
AYN,119,2,2024-07-07T09:06:52.758Z,english_289.wav,0,peel,587,0,0.0,-55.97739865,0.95213243
AYN,119,2,2024-07-07T09:06:52.758Z,english_289.wav,0,peel,587,1,0.1,-97.9801122,0.81858491
AYN,119,2,2024-07-07T09:06:52.758Z,english_289.wav,0,peel,587,2,0.2,44.28679287,1.16094748
AYN,119,2,2024-07-07T09:06:52.758Z,english_289.wav,0,peel,587,3,0.3,-74.0895039,0.92969459
AYN,119,2,2024-07-07T09:06:52.758Z,english_289.wav,0,peel,587,4,0.32341667,-44.25845537,0.41504245
AYN,120,2,2024-07-07T09:06:52.758Z,english_947.wav,0,peel,594,0,0.0,73.13113362,0.1925557
AYN,120,2,2024-07-07T09:06:52.758Z,english_947.wav,0,peel,594,1,0.1,-55.13077299,1.89478059
AYN,120,2,2024-07-07T09:06:52.758Z,english_947.wav,0,peel,594,2,0.2,59.32217849,0.99662771
AYN,120,2,2024-07-07T09:06:52.758Z,english_947.wav,0,peel,594,3,0.3,-71.25946194,0.61263341
AYN,120,2,2024-07-07T09:06:52.758Z,english_947.wav,0,peel,594,4,0.32341667,39.2274254,0.46373334
AYN,121,2,2024-07-07T09:06:52.758Z,english_54.wav,0,peel,1135,0,0.0,1.86764875,1.47639799
AYN,121,2,2024-07-07T09:06:52.758Z,english_54.wav,0,peel,1135,1,0.1,-1.78672474,1.92944336
AYN,121,2,2024-07-07T09:06:52.758Z,english_54.wav,0,peel,1135,2,0.2,-26.58380414,0.76292987
AYN,121,2,2024-07-07T09:06:52.758Z,english_54.wav,0,peel,1135,3,0.3,-2.56688864,1.78735236
AYN,121,2,2024-07-07T09:06:52.758Z,english_54.wav,0,peel,1135,4,0.32341667,-76.29238916,0.80366269
AYN,122,2,2024-07-07T09:06:52.758Z,english_623.wav,0,pill,466,0,0.0,-23.54178515,1.91881792
AYN,122,2,2024-07-07T09:06:52.758Z,english_623.wav,0,pill,466,1,0.1,-47.52772515,0.99675119
AYN,122,2,2024-07-07T09:06:52.758Z,english_623.wav,0,pill,466,2,0.2,47.20668934,0.26332691
AYN,122,2,2024-07-07T09:06:52.758Z,english_623.wav,0,pill,466,3,0.3,-98.32001938,1.33317057
AYN,122,2,2024-07-07T09:06:52.758Z,english_623.wav,0,pill,466,4,0.32341667,-63.09014275,1.04211108
AYN,123,2,2024-07-07T09:06:52.758Z,english_948.wav,0,peel,656,0,0.0,12.28616187,1.33435242
AYN,123,2,2024-07-07T09:06:52.758Z,english_948.wav,0,peel,656,1,0.1,33.44634687,1.33862855
AYN,123,2,2024-07-07T09:06:52.758Z,english_948.wav,0,peel,656,2,0.2,98.80566767,1.25876505
AYN,123,2,2024-07-07T09:06:52.758Z,english_948.wav,0,peel,656,3,0.3,-93.57044844,1.87938727
AYN,123,2,2024-07-07T09:06:52.758Z,english_948.wav,0,peel,656,4,0.32341667,-51.09398555,1.88731406
AYN,124,2,2024-07-07T09:06:52.758Z,english_457.wav,0,peel,1815,0,0.0,-73.30847947,0.35525387
AYN,124,2,2024-07-07T09:06:52.758Z,english_457.wav,0,peel,1815,1,0.1,-25.74413936,0.90483023
AYN,124,2,2024-07-07T09:06:52.758Z,english_457.wav,0,peel,1815,2,0.2,8.82772976,1.30004432
AYN,124,2,2024-07-07T09:06:52.758Z,english_457.wav,0,peel,1815,3,0.3,-2.30416086,0.93422762
AYN,124,2,2024-07-07T09:06:52.758Z,english_457.wav,0,peel,1815,4,0.32341667,-34.04493945,1.31504388
AYN,125,2,2024-07-07T09:06:52.758Z,english_464.wav,0,peel,701,0,0.0,53.08614354,0.76512863
AYN,125,2,2024-07-07T09:06:52.758Z,english_464.wav,0,peel,701,1,0.1,30.21863436,1.75958979
AYN,125,2,2024-07-07T09:06:52.758Z,english_464.wav,0,peel,701,2,0.2,-72.79337117,0.91412587
AYN,125,2,2024-07-07T09:06:52.758Z,english_464.wav,0,peel,701,3,0.3,91.0452741,1.02089091
AYN,125,2,2024-07-07T09:06:52.758Z,english_464.wav,0,peel,701,4,0.32341667,-31.40181873,1.37846458
AYN,126,2,2024-07-07T09:06:52.758Z,english_125.wav,0,peel,871,0,0.0,-5.59692586,0.61478703
AYN,126,2,2024-07-07T09:06:52.758Z,english_125.wav,0,peel,871,1,0.1,45.61970603,0.5852269
AYN,126,2,2024-07-07T09:06:52.758Z,english_125.wav,0,peel,871,2,0.2,-80.48713695,1.26290546
AYN,126,2,2024-07-07T09:06:52.758Z,english_125.wav,0,peel,871,3,0.3,76.65956808,1.54178375
AYN,126,2,2024-07-07T09:06:52.758Z,english_125.wav,0,peel,871,4,0.32341667,-9.14506838,0.79261171
AYN,127,2,2024-07-07T09:06:52.758Z,english_649.wav,0,pill,586,0,0.0,65.82222467,0.56154429
AYN,127,2,2024-07-07T09:06:52.758Z,english_649.wav,0,pill,586,1,0.1,-9.35575527,0.64767017
AYN,127,2,2024-07-07T09:06:52.758Z,english_649.wav,0,pill,586,2,0.2,-91.83315911,0.84538271
AYN,127,2,2024-07-07T09:06:52.758Z,english_649.wav,0,pill,586,3,0.3,79.30022345,0.4979411
AYN,127,2,2024-07-07T09:06:52.758Z,english_649.wav,0,pill,586,4,0.32341667,45.86180924,0.89353148
AYN,128,2,2024-07-07T09:06:52.758Z,english_890.wav,0,peel,645,0,0.0,-68.21158685,0.82535308
AYN,128,2,2024-07-07T09:06:52.758Z,english_890.wav,0,peel,645,1,0.1,-83.19360642,1.79167423
AYN,128,2,2024-07-07T09:06:52.758Z,english_890.wav,0,peel,645,2,0.2,79.13343252,0.78297904
AYN,128,2,2024-07-07T09:06:52.758Z,english_890.wav,0,peel,645,3,0.3,80.54326003,0.23441015
AYN,128,2,2024-07-07T09:06:52.758Z,english_890.wav,0,peel,645,4,0.32341667,-30.48737523,1.41044901
AYN,129,2,2024-07-07T09:06:52.758Z,english_849.wav,0,pill,835,0,0.0,-24.45439181,1.62147024
AYN,129,2,2024-07-07T09:06:52.758Z,english_849.wav,0,pill,835,1,0.1,-64.97605389,1.28655358
AYN,129,2,2024-07-07T09:06:52.758Z,english_849.wav,0,pill,835,2,0.2,-67.78874915,0.154454
AYN,129,2,2024-07-07T09:06:52.758Z,english_849.wav,0,pill,835,3,0.3,-6.53184928,1.49227138
AYN,129,2,2024-07-07T09:06:52.758Z,english_849.wav,0,pill,835,4,0.32341667,59.1884023,1.08662162
AYN,130,2,2024-07-07T09:06:52.758Z,english_701.wav,0,peel,1583,0,0.0,87.15265727,1.41120649
AYN,130,2,2024-07-07T09:06:52.758Z,english_701.wav,0,peel,1583,1,0.1,38.39882515,0.44004622
AYN,130,2,2024-07-07T09:06:52.758Z,english_701.wav,0,peel,1583,2,0.2,64.60201562,1.15462264
AYN,130,2,2024-07-07T09:06:52.758Z,english_701.wav,0,peel,1583,3,0.3,12.58613119,1.17454355
AYN,130,2,2024-07-07T09:06:52.758Z,english_701.wav,0,peel,1583,4,0.32341667,46.94968762,1.38716818
AYN,131,2,2024-07-07T09:06:52.758Z,english_996.wav,0,pill,908,0,0.0,-71.70531914,1.36459419
AYN,131,2,2024-07-07T09:06:52.758Z,english_996.wav,0,pill,908,1,0.1,-47.61419544,0.5051745
AYN,131,2,2024-07-07T09:06:52.758Z,english_996.wav,0,pill,908,2,0.2,48.0330823,1.09957376
AYN,131,2,2024-07-07T09:06:52.758Z,english_996.wav,0,pill,908,3,0.3,34.27821317,0.27950682
AYN,131,2,2024-07-07T09:06:52.758Z,english_996.wav,0,pill,908,4,0.32341667,-72.4662587,0.22836241
AYN,132,2,2024-07-07T09:06:52.758Z,english_543.wav,0,peel,579,0,0.0,13.74009622,0.63900578
AYN,132,2,2024-07-07T09:06:52.758Z,english_543.wav,0,peel,579,1,0.1,51.80972721,1.6206981
AYN,132,2,2024-07-07T09:06:52.758Z,english_543.wav,0,peel,579,2,0.2,86.3964352,0.03304675
AYN,132,2,2024-07-07T09:06:52.758Z,english_543.wav,0,peel,579,3,0.3,-66.39783761,1.7049324
AYN,132,2,2024-07-07T09:06:52.758Z,english_543.wav,0,peel,579,4,0.32341667,31.11863834,1.46507556
AYN,133,2,2024-07-07T09:06:52.758Z,english_899.wav,0,pill,475,0,0.0,34.44970312,1.0262563
AYN,133,2,2024-07-07T09:06:52.758Z,english_899.wav,0,pill,475,1,0.1,-73.97598586,0.5565938
AYN,133,2,2024-07-07T09:06:52.758Z,english_899.wav,0,pill,475,2,0.2,4.84970015,0.08950317
AYN,133,2,2024-07-07T09:06:52.758Z,english_899.wav,0,pill,475,3,0.3,25.99530817,1.10823657
AYN,133,2,2024-07-07T09:06:52.758Z,english_899.wav,0,pill,475,4,0.32341667,7.0197251,1.27665612
AYN,134,2,2024-07-07T09:06:52.758Z,english_824.wav,0,pill,1354,0,0.0,80.46503136,1.43025592
AYN,134,2,2024-07-07T09:06:52.758Z,english_824.wav,0,pill,1354,1,0.1,-48.668347,0.89138167
AYN,134,2,2024-07-07T09:06:52.758Z,english_824.wav,0,pill,1354,2,0.2,37.27765876,1.91281619
AYN,134,2,2024-07-07T09:06:52.758Z,english_824.wav,0,pill,1354,3,0.3,-91.29945309,0.71335031
AYN,134,2,2024-07-07T09:06:52.758Z,english_824.wav,0,pill,1354,4,0.32341667,14.46507007,0.89780818
AYN,135,2,2024-07-07T09:06:52.758Z,english_970.wav,0,peel,570,0,0.0,37.22911191,0.60712849
AYN,135,2,2024-07-07T09:06:52.758Z,english_970.wav,0,peel,570,1,0.1,36.57191813,1.26781741
AYN,135,2,2024-07-07T09:06:52.758Z,english_970.wav,0,peel,570,2,0.2,20.2344678,1.29373459
AYN,135,2,2024-07-07T09:06:52.758Z,english_970.wav,0,peel,570,3,0.3,-86.31030026,0.18112256
AYN,135,2,2024-07-07T09:06:52.758Z,english_970.wav,0,peel,570,4,0.32341667,-83.96880691,1.07780169
AYN,136,2,2024-07-07T09:06:52.758Z,english_614.wav,0,peel,1689,0,0.0,78.57791509,1.76663636
AYN,136,2,2024-07-07T09:06:52.758Z,english_614.wav,0,peel,1689,1,0.1,-6.15631212,0.7337869
AYN,136,2,2024-07-07T09:06:52.758Z,english_614.wav,0,peel,1689,2,0.2,-15.34092719,1.62880485
AYN,136,2,2024-07-07T09:06:52.758Z,english_614.wav,0,peel,1689,3,0.3,21.91351344,0.61213133
AYN,136,2,2024-07-07T09:06:52.758Z,english_614.wav,0,peel,1689,4,0.32341667,-10.50820757,0.41097232
AYN,137,2,2024-07-07T09:06:52.758Z,english_731.wav,0,peel,1012,0,0.0,91.74609406,0.2840719
AYN,137,2,2024-07-07T09:06:52.758Z,english_731.wav,0,peel,1012,1,0.1,96.5637085,1.75324284
AYN,137,2,2024-07-07T09:06:52.758Z,english_731.wav,0,peel,1012,2,0.2,-58.02596537,1.43086201
AYN,137,2,2024-07-07T09:06:52.758Z,english_731.wav,0,peel,1012,3,0.3,21.59328018,1.68336342
AYN,137,2,2024-07-07T09:06:52.758Z,english_731.wav,0,peel,1012,4,0.32341667,13.26044458,0.60031718
AYN,138,2,2024-07-07T09:06:52.758Z,english_756.wav,0,pill,1201,0,0.0,-75.60908863,1.29894989
AYN,138,2,2024-07-07T09:06:52.758Z,english_756.wav,0,pill,1201,1,0.1,-4.30259752,0.61363685
AYN,138,2,2024-07-07T09:06:52.758Z,english_756.wav,0,pill,1201,2,0.2,20.94377522,1.41793961
AYN,138,2,2024-07-07T09:06:52.758Z,english_756.wav,0,pill,1201,3,0.3,10.45062111,1.73528762
AYN,138,2,2024-07-07T09:06:52.758Z,english_756.wav,0,pill,1201,4,0.32341667,86.50209298,0.4791473
AYN,139,2,2024-07-07T09:06:52.758Z,english_222.wav,0,pill,1184,0,0.0,-5.8882644,0.97478352
AYN,139,2,2024-07-07T09:06:52.758Z,english_222.wav,0,pill,1184,1,0.1,-15.4334302,1.79573252
AYN,139,2,2024-07-07T09:06:52.758Z,english_222.wav,0,pill,1184,2,0.2,-39.50203868,1.71948726
AYN,139,2,2024-07-07T09:06:52.758Z,english_222.wav,0,pill,1184,3,0.3,67.79027175,0.41699719
AYN,139,2,2024-07-07T09:06:52.758Z,english_222.wav,0,pill,1184,4,0.32341667,-43.17344259,0.26315099
AYN,140,2,2024-07-07T09:06:52.758Z,english_885.wav,0,pill,806,0,0.0,36.3288655,0.78617108
AYN,140,2,2024-07-07T09:06:52.758Z,english_885.wav,0,pill,806,1,0.1,-33.4786966,0.96292114
AYN,140,2,2024-07-07T09:06:52.758Z,english_885.wav,0,pill,806,2,0.2,8.05827153,0.70266535
AYN,140,2,2024-07-07T09:06:52.758Z,english_885.wav,0,pill,806,3,0.3,84.98004341,0.45613544
AYN,140,2,2024-07-07T09:06:52.758Z,english_885.wav,0,pill,806,4,0.32341667,-34.65749493,0.81873504
AYN,141,2,2024-07-07T09:06:52.758Z,english_360.wav,0,peel,1025,0,0.0,-50.57937638,0.73788637
AYN,141,2,2024-07-07T09:06:52.758Z,english_360.wav,0,peel,1025,1,0.1,-29.22164644,0.6487653
AYN,141,2,2024-07-07T09:06:52.758Z,english_360.wav,0,peel,1025,2,0.2,-88.45421248,0.73193848
AYN,141,2,2024-07-07T09:06:52.758Z,english_360.wav,0,peel,1025,3,0.3,93.68039656,1.75347372
AYN,141,2,2024-07-07T09:06:52.758Z,english_360.wav,0,peel,1025,4,0.32341667,-2.59092547,1.19277037
AYN,142,2,2024-07-07T09:06:52.758Z,english_936.wav,0,peel,1106,0,0.0,48.39129511,0.54114143
AYN,142,2,2024-07-07T09:06:52.758Z,english_936.wav,0,peel,1106,1,0.1,-60.21618585,1.68728974
AYN,142,2,2024-07-07T09:06:52.758Z,english_936.wav,0,peel,1106,2,0.2,21.92845445,1.39155326
AYN,142,2,2024-07-07T09:06:52.758Z,english_936.wav,0,peel,1106,3,0.3,72.85258749,0.90488419
AYN,142,2,2024-07-07T09:06:52.758Z,english_936.wav,0,peel,1106,4,0.32341667,60.11152814,1.20326098
AYN,143,2,2024-07-07T09:06:52.758Z,english_313.wav,0,pill,1560,0,0.0,63.86599335,0.35841412
AYN,143,2,2024-07-07T09:06:52.758Z,english_313.wav,0,pill,1560,1,0.1,-55.89800258,0.35021793
AYN,143,2,2024-07-07T09:06:52.758Z,english_313.wav,0,pill,1560,2,0.2,90.86254046,1.77750413
AYN,143,2,2024-07-07T09:06:52.758Z,english_313.wav,0,pill,1560,3,0.3,0.53087649,1.87396687
AYN,143,2,2024-07-07T09:06:52.758Z,english_313.wav,0,pill,1560,4,0.32341667,-69.87913817,1.16176786
AYN,144,2,2024-07-07T09:06:52.758Z,english_530.wav,0,pill,964,0,0.0,21.55057906,0.25130805
AYN,144,2,2024-07-07T09:06:52.758Z,english_530.wav,0,pill,964,1,0.1,-20.17265513,0.96020899
AYN,144,2,2024-07-07T09:06:52.758Z,english_530.wav,0,pill,964,2,0.2,-52.07974762,1.55252741
AYN,144,2,2024-07-07T09:06:52.758Z,english_530.wav,0,pill,964,3,0.3,87.36384387,1.19622655
AYN,144,2,2024-07-07T09:06:52.758Z,english_530.wav,0,pill,964,4,0.32341667,-72.92256984,0.75880724
AYN,145,2,2024-07-07T09:06:52.758Z,english_881.wav,0,peel,599,0,0.0,7.28069095,1.60234882
AYN,145,2,2024-07-07T09:06:52.758Z,english_881.wav,0,peel,599,1,0.1,-64.28928902,0.93497238
AYN,145,2,2024-07-07T09:06:52.758Z,english_881.wav,0,peel,599,2,0.2,-2.07432692,0.58107235
AYN,145,2,2024-07-07T09:06:52.758Z,english_881.wav,0,peel,599,3,0.3,51.5536886,1.34691236
AYN,145,2,2024-07-07T09:06:52.758Z,english_881.wav,0,peel,599,4,0.32341667,65.74991707,0.85842561
AYN,146,2,2024-07-07T09:06:52.758Z,english_708.wav,0,pill,1124,0,0.0,-27.19248895,0.74061838
AYN,146,2,2024-07-07T09:06:52.758Z,english_708.wav,0,pill,1124,1,0.1,84.25795725,1.13599963
AYN,146,2,2024-07-07T09:06:52.758Z,english_708.wav,0,pill,1124,2,0.2,-19.19551503,1.10086254
AYN,146,2,2024-07-07T09:06:52.758Z,english_708.wav,0,pill,1124,3,0.3,29.88012033,0.53054382
AYN,146,2,2024-07-07T09:06:52.758Z,english_708.wav,0,pill,1124,4,0.32341667,46.0858662,1.51974387
AYN,147,2,2024-07-07T09:06:52.758Z,english_825.wav,0,pill,1158,0,0.0,9.96211161,0.17252736
AYN,147,2,2024-07-07T09:06:52.758Z,english_825.wav,0,pill,1158,1,0.1,-28.44120521,0.52830291
AYN,147,2,2024-07-07T09:06:52.758Z,english_825.wav,0,pill,1158,2,0.2,58.95311712,0.51646024
AYN,147,2,2024-07-07T09:06:52.758Z,english_825.wav,0,pill,1158,3,0.3,-14.85414305,0.70859388
AYN,147,2,2024-07-07T09:06:52.758Z,english_825.wav,0,pill,1158,4,0.32341667,85.14956963,0.64434305
AYN,148,2,2024-07-07T09:06:52.758Z,english_16.wav,0,peel,388,0,0.0,-86.84797814,0.47796166
AYN,148,2,2024-07-07T09:06:52.758Z,english_16.wav,0,peel,388,1,0.1,29.78439304,1.82902446
AYN,148,2,2024-07-07T09:06:52.758Z,english_16.wav,0,peel,388,2,0.2,93.37667148,1.57835565
AYN,148,2,2024-07-07T09:06:52.758Z,english_16.wav,0,peel,388,3,0.3,-84.28086854,0.98546729
AYN,148,2,2024-07-07T09:06:52.758Z,english_16.wav,0,peel,388,4,0.32341667,-8.77302982,0.88950072
AYN,149,2,2024-07-07T09:06:52.758Z,english_540.wav,0,pill,913,0,0.0,-46.6752609,1.16352469
AYN,149,2,2024-07-07T09:06:52.758Z,english_540.wav,0,pill,913,1,0.1,-93.20209644,0.0234781
AYN,149,2,2024-07-07T09:06:52.758Z,english_540.wav,0,pill,913,2,0.2,64.96419662,0.05926191
AYN,149,2,2024-07-07T09:06:52.758Z,english_540.wav,0,pill,913,3,0.3,-12.16484387,1.47406284
AYN,149,2,2024-07-07T09:06:52.758Z,english_540.wav,0,pill,913,4,0.32341667,-44.34688232,0.60104864
AYN,150,3,2024-07-07T09:06:52.758Z,english_956.wav,0,pill,3224,0,0.0,-98.71257913,1.5828524
AYN,150,3,2024-07-07T09:06:52.758Z,english_956.wav,0,pill,3224,1,0.1,-36.05702295,0.66985857
AYN,150,3,2024-07-07T09:06:52.758Z,english_956.wav,0,pill,3224,2,0.2,-31.95582623,0.13798036
AYN,150,3,2024-07-07T09:06:52.758Z,english_956.wav,0,pill,3224,3,0.3,-81.31295359,0.22663358
AYN,150,3,2024-07-07T09:06:52.758Z,english_956.wav,0,pill,3224,4,0.32341667,45.09425789,0.54862974
AYN,151,3,2024-07-07T09:06:52.758Z,english_642.wav,0,peel,611,0,0.0,31.40946548,0.21393667
AYN,151,3,2024-07-07T09:06:52.758Z,english_642.wav,0,peel,611,1,0.1,4.73018903,1.31302396
AYN,151,3,2024-07-07T09:06:52.758Z,english_642.wav,0,peel,611,2,0.2,85.2390777,0.95537026
AYN,151,3,2024-07-07T09:06:52.758Z,english_642.wav,0,peel,611,3,0.3,-59.81643451,1.00167733
AYN,151,3,2024-07-07T09:06:52.758Z,english_642.wav,0,peel,611,4,0.32341667,-42.92691369,0.89750156
AYN,152,3,2024-07-07T09:06:52.758Z,english_840.wav,0,pill,618,0,0.0,-27.11425843,1.31301797
AYN,152,3,2024-07-07T09:06:52.758Z,english_840.wav,0,pill,618,1,0.1,-47.31494811,0.54280133
AYN,152,3,2024-07-07T09:06:52.758Z,english_840.wav,0,pill,618,2,0.2,-88.66887426,0.14090987
AYN,152,3,2024-07-07T09:06:52.758Z,english_840.wav,0,pill,618,3,0.3,7.86940595,0.11950116
AYN,152,3,2024-07-07T09:06:52.758Z,english_840.wav,0,pill,618,4,0.32341667,87.61758205,1.48166624
AYN,153,3,2024-07-07T09:06:52.758Z,english_199.wav,0,peel,969,0,0.0,-24.89956817,0.07306367
AYN,153,3,2024-07-07T09:06:52.758Z,english_199.wav,0,peel,969,1,0.1,-48.49200931,0.10334581
AYN,153,3,2024-07-07T09:06:52.758Z,english_199.wav,0,peel,969,2,0.2,-89.66548778,1.49062114
AYN,153,3,2024-07-07T09:06:52.758Z,english_199.wav,0,peel,969,3,0.3,29.20785813,0.36717513
AYN,153,3,2024-07-07T09:06:52.758Z,english_199.wav,0,peel,969,4,0.32341667,-88.68286362,1.33179809
AYN,154,3,2024-07-07T09:06:52.758Z,english_278.wav,0,peel,857,0,0.0,-49.55521664,0.96598769
AYN,154,3,2024-07-07T09:06:52.758Z,english_278.wav,0,peel,857,1,0.1,60.24292507,1.32709354
AYN,154,3,2024-07-07T09:06:52.758Z,english_278.wav,0,peel,857,2,0.2,34.32984246,0.84496159
AYN,154,3,2024-07-07T09:06:52.758Z,english_278.wav,0,peel,857,3,0.3,91.69210883,1.50157491
AYN,154,3,2024-07-07T09:06:52.758Z,english_278.wav,0,peel,857,4,0.32341667,78.84715657,1.85534648
AYN,155,3,2024-07-07T09:06:52.758Z,english_51.wav,0,pill,1048,0,0.0,88.48054236,0.21487201
AYN,155,3,2024-07-07T09:06:52.758Z,english_51.wav,0,pill,1048,1,0.1,-53.5534646,0.90061677
AYN,155,3,2024-07-07T09:06:52.758Z,english_51.wav,0,pill,1048,2,0.2,-33.31344908,0.24834744
AYN,155,3,2024-07-07T09:06:52.758Z,english_51.wav,0,pill,1048,3,0.3,87.0533187,1.31052611
AYN,155,3,2024-07-07T09:06:52.758Z,english_51.wav,0,pill,1048,4,0.32341667,-16.55219825,0.58644625
AYN,156,3,2024-07-07T09:06:52.758Z,english_964.wav,0,peel,862,0,0.0,11.04708611,0.74384055
AYN,156,3,2024-07-07T09:06:52.758Z,english_964.wav,0,peel,862,1,0.1,-10.67848967,0.46038505
AYN,156,3,2024-07-07T09:06:52.758Z,english_964.wav,0,peel,862,2,0.2,64.95328634,0.80934661
AYN,156,3,2024-07-07T09:06:52.758Z,english_964.wav,0,peel,862,3,0.3,-78.10341524,1.94282647
AYN,156,3,2024-07-07T09:06:52.758Z,english_964.wav,0,peel,862,4,0.32341667,-48.61651995,1.99482071
AYN,157,3,2024-07-07T09:06:52.758Z,english_769.wav,0,pill,556,0,0.0,-12.68288087,1.59358978
AYN,157,3,2024-07-07T09:06:52.758Z,english_769.wav,0,pill,556,1,0.1,13.58895245,0.16681031
AYN,157,3,2024-07-07T09:06:52.758Z,english_769.wav,0,pill,556,2,0.2,-5.57429841,0.74292099
AYN,157,3,2024-07-07T09:06:52.758Z,english_769.wav,0,pill,556,3,0.3,-26.44516544,0.17250104
AYN,157,3,2024-07-07T09:06:52.758Z,english_769.wav,0,pill,556,4,0.32341667,85.93285426,0.16730253
AYN,158,3,2024-07-07T09:06:52.758Z,english_408.wav,0,peel,625,0,0.0,-0.16211679,1.52185603
AYN,158,3,2024-07-07T09:06:52.758Z,english_408.wav,0,peel,625,1,0.1,16.68246491,0.27925492
AYN,158,3,2024-07-07T09:06:52.758Z,english_408.wav,0,peel,625,2,0.2,-84.31504289,0.96179544
AYN,158,3,2024-07-07T09:06:52.758Z,english_408.wav,0,peel,625,3,0.3,20.95362966,1.64669203
AYN,158,3,2024-07-07T09:06:52.758Z,english_408.wav,0,peel,625,4,0.32341667,15.25079186,1.54793764
AYN,159,3,2024-07-07T09:06:52.758Z,english_41.wav,0,pill,981,0,0.0,42.21237724,0.98996482
AYN,159,3,2024-07-07T09:06:52.758Z,english_41.wav,0,pill,981,1,0.1,33.8271633,0.77076848
AYN,159,3,2024-07-07T09:06:52.758Z,english_41.wav,0,pill,981,2,0.2,20.96644351,0.37402384
AYN,159,3,2024-07-07T09:06:52.758Z,english_41.wav,0,pill,981,3,0.3,-53.61985723,1.98545705
AYN,159,3,2024-07-07T09:06:52.758Z,english_41.wav,0,pill,981,4,0.32341667,-55.68725705,1.53352273
AYN,160,3,2024-07-07T09:06:52.758Z,english_424.wav,0,peel,539,0,0.0,-7.44814198,1.7438251
AYN,160,3,2024-07-07T09:06:52.758Z,english_424.wav,0,peel,539,1,0.1,9.0703424,1.33993463
AYN,160,3,2024-07-07T09:06:52.758Z,english_424.wav,0,peel,539,2,0.2,-65.6005214,0.96535207
AYN,160,3,2024-07-07T09:06:52.758Z,english_424.wav,0,peel,539,3,0.3,79.88163057,0.39557207
AYN,160,3,2024-07-07T09:06:52.758Z,english_424.wav,0,peel,539,4,0.32341667,48.78273262,0.47346175
AYN,161,3,2024-07-07T09:06:52.758Z,english_480.wav,0,pill,493,0,0.0,-9.10453384,0.61491247
AYN,161,3,2024-07-07T09:06:52.758Z,english_480.wav,0,pill,493,1,0.1,72.09708103,1.35502449
AYN,161,3,2024-07-07T09:06:52.758Z,english_480.wav,0,pill,493,2,0.2,-73.7181862,0.28674933
AYN,161,3,2024-07-07T09:06:52.758Z,english_480.wav,0,pill,493,3,0.3,18.73451671,0.14653082
AYN,161,3,2024-07-07T09:06:52.758Z,english_480.wav,0,pill,493,4,0.32341667,83.35837597,1.34653786
AYN,162,3,2024-07-07T09:06:52.758Z,english_743.wav,0,peel,436,0,0.0,-28.24983145,1.42102626
AYN,162,3,2024-07-07T09:06:52.758Z,english_743.wav,0,peel,436,1,0.1,71.30498545,0.84283155
AYN,162,3,2024-07-07T09:06:52.758Z,english_743.wav,0,peel,436,2,0.2,-89.00652632,0.82757129
AYN,162,3,2024-07-07T09:06:52.758Z,english_743.wav,0,peel,436,3,0.3,3.43441779,1.38808557
AYN,162,3,2024-07-07T09:06:52.758Z,english_743.wav,0,peel,436,4,0.32341667,-16.71659348,0.28501565
AYN,163,3,2024-07-07T09:06:52.758Z,english_425.wav,0,peel,979,0,0.0,52.16022051,1.95369626
AYN,163,3,2024-07-07T09:06:52.758Z,english_425.wav,0,peel,979,1,0.1,-4.0342476,0.01224448
AYN,163,3,2024-07-07T09:06:52.758Z,english_425.wav,0,peel,979,2,0.2,71.82190917,1.45838463
AYN,163,3,2024-07-07T09:06:52.758Z,english_425.wav,0,peel,979,3,0.3,77.8432037,1.1656734
AYN,163,3,2024-07-07T09:06:52.758Z,english_425.wav,0,peel,979,4,0.32341667,29.14791909,1.54078916
AYN,164,3,2024-07-07T09:06:52.758Z,english_722.wav,0,pill,568,0,0.0,56.33358757,0.09194264
AYN,164,3,2024-07-07T09:06:52.758Z,english_722.wav,0,pill,568,1,0.1,-63.11389498,1.89550133
AYN,164,3,2024-07-07T09:06:52.758Z,english_722.wav,0,pill,568,2,0.2,65.64746862,0.18403216
AYN,164,3,2024-07-07T09:06:52.758Z,english_722.wav,0,pill,568,3,0.3,-93.10605514,1.23223326
AYN,164,3,2024-07-07T09:06:52.758Z,english_722.wav,0,pill,568,4,0.32341667,-45.92743551,0.28331892
AYN,165,3,2024-07-07T09:06:52.758Z,english_421.wav,0,peel,583,0,0.0,25.39012861,1.47358925
AYN,165,3,2024-07-07T09:06:52.758Z,english_421.wav,0,peel,583,1,0.1,49.11153532,1.20920516
AYN,165,3,2024-07-07T09:06:52.758Z,english_421.wav,0,peel,583,2,0.2,38.93723883,0.72174872
AYN,165,3,2024-07-07T09:06:52.758Z,english_421.wav,0,peel,583,3,0.3,-9.34286459,0.24556907
AYN,165,3,2024-07-07T09:06:52.758Z,english_421.wav,0,peel,583,4,0.32341667,-9.28476392,0.87006143
AYN,166,3,2024-07-07T09:06:52.758Z,english_682.wav,0,pill,1478,0,0.0,-19.80167737,1.6131825
AYN,166,3,2024-07-07T09:06:52.758Z,english_682.wav,0,pill,1478,1,0.1,-30.98220326,1.03205672
AYN,166,3,2024-07-07T09:06:52.758Z,english_682.wav,0,pill,1478,2,0.2,26.07010201,1.08357256
AYN,166,3,2024-07-07T09:06:52.758Z,english_682.wav,0,pill,1478,3,0.3,-7.79776739,1.70642947
AYN,166,3,2024-07-07T09:06:52.758Z,english_682.wav,0,pill,1478,4,0.32341667,-10.9148898,0.86858281
AYN,167,3,2024-07-07T09:06:52.758Z,english_341.wav,0,pill,825,0,0.0,-3.29192029,0.92007635
AYN,167,3,2024-07-07T09:06:52.758Z,english_341.wav,0,pill,825,1,0.1,-63.07334109,0.76766635
AYN,167,3,2024-07-07T09:06:52.758Z,english_341.wav,0,pill,825,2,0.2,-52.81319379,0.00478881
AYN,167,3,2024-07-07T09:06:52.758Z,english_341.wav,0,pill,825,3,0.3,47.65296252,0.69804387
AYN,167,3,2024-07-07T09:06:52.758Z,english_341.wav,0,pill,825,4,0.32341667,-2.67842738,0.15231077
AYN,168,3,2024-07-07T09:06:52.758Z,english_369.wav,0,peel,513,0,0.0,-12.14177447,1.64093778
AYN,168,3,2024-07-07T09:06:52.758Z,english_369.wav,0,peel,513,1,0.1,76.29699147,1.47479283
AYN,168,3,2024-07-07T09:06:52.758Z,english_369.wav,0,peel,513,2,0.2,-85.49552365,1.31757561
AYN,168,3,2024-07-07T09:06:52.758Z,english_369.wav,0,peel,513,3,0.3,-68.94608988,1.92077404
AYN,168,3,2024-07-07T09:06:52.758Z,english_369.wav,0,peel,513,4,0.32341667,40.32615784,1.4628922
AYN,169,3,2024-07-07T09:06:52.758Z,english_867.wav,0,peel,847,0,0.0,9.0283109,0.25019481
AYN,169,3,2024-07-07T09:06:52.758Z,english_867.wav,0,peel,847,1,0.1,6.96107974,0.62311927
AYN,169,3,2024-07-07T09:06:52.758Z,english_867.wav,0,peel,847,2,0.2,14.88339172,1.78918939
AYN,169,3,2024-07-07T09:06:52.758Z,english_867.wav,0,peel,847,3,0.3,-2.73093064,1.34945049
AYN,169,3,2024-07-07T09:06:52.758Z,english_867.wav,0,peel,847,4,0.32341667,-85.27526638,0.75720604
AYN,170,3,2024-07-07T09:06:52.758Z,english_626.wav,0,pill,543,0,0.0,4.25415757,0.7037323
AYN,170,3,2024-07-07T09:06:52.758Z,english_626.wav,0,pill,543,1,0.1,-41.27415217,1.26912647
AYN,170,3,2024-07-07T09:06:52.758Z,english_626.wav,0,pill,543,2,0.2,-74.74598363,0.17760594
AYN,170,3,2024-07-07T09:06:52.758Z,english_626.wav,0,pill,543,3,0.3,-15.94741517,1.12963497
AYN,170,3,2024-07-07T09:06:52.758Z,english_626.wav,0,pill,543,4,0.32341667,43.51897949,0.85087029
AYN,171,3,2024-07-07T09:06:52.758Z,english_762.wav,0,peel,697,0,0.0,-56.40971946,1.43822993
AYN,171,3,2024-07-07T09:06:52.758Z,english_762.wav,0,peel,697,1,0.1,-9.09046034,1.11776807
AYN,171,3,2024-07-07T09:06:52.758Z,english_762.wav,0,peel,697,2,0.2,20.98892014,0.71531135
AYN,171,3,2024-07-07T09:06:52.758Z,english_762.wav,0,peel,697,3,0.3,-66.43296232,0.54997993
AYN,171,3,2024-07-07T09:06:52.758Z,english_762.wav,0,peel,697,4,0.32341667,-91.78640069,0.26897274
AYN,172,3,2024-07-07T09:06:52.758Z,english_740.wav,0,peel,1684,0,0.0,17.63845752,0.65519257
AYN,172,3,2024-07-07T09:06:52.758Z,english_740.wav,0,peel,1684,1,0.1,36.88289119,0.996231
AYN,172,3,2024-07-07T09:06:52.758Z,english_740.wav,0,peel,1684,2,0.2,-63.85348159,0.85360158
AYN,172,3,2024-07-07T09:06:52.758Z,english_740.wav,0,peel,1684,3,0.3,-97.96670479,1.42654033
AYN,172,3,2024-07-07T09:06:52.758Z,english_740.wav,0,peel,1684,4,0.32341667,43.035587,1.01691569
AYN,173,3,2024-07-07T09:06:52.758Z,english_86.wav,0,peel,1439,0,0.0,-48.59393833,1.45450552
AYN,173,3,2024-07-07T09:06:52.758Z,english_86.wav,0,peel,1439,1,0.1,77.37095157,1.8635573
AYN,173,3,2024-07-07T09:06:52.758Z,english_86.wav,0,peel,1439,2,0.2,44.19816726,1.174515
AYN,173,3,2024-07-07T09:06:52.758Z,english_86.wav,0,peel,1439,3,0.3,-99.780271,1.46785746
AYN,173,3,2024-07-07T09:06:52.758Z,english_86.wav,0,peel,1439,4,0.32341667,38.96545556,0.99607158
AYN,174,3,2024-07-07T09:06:52.758Z,english_894.wav,0,pill,435,0,0.0,55.36181915,0.37154348
AYN,174,3,2024-07-07T09:06:52.758Z,english_894.wav,0,pill,435,1,0.1,1.74798824,0.78809476
AYN,174,3,2024-07-07T09:06:52.758Z,english_894.wav,0,pill,435,2,0.2,53.5320483,0.08099688
AYN,174,3,2024-07-07T09:06:52.758Z,english_894.wav,0,pill,435,3,0.3,-10.60196251,1.90254096
AYN,174,3,2024-07-07T09:06:52.758Z,english_894.wav,0,pill,435,4,0.32341667,46.95013059,0.68783971
AYN,175,3,2024-07-07T09:06:52.758Z,english_21.wav,0,pill,1934,0,0.0,-21.85116114,1.17417274
AYN,175,3,2024-07-07T09:06:52.758Z,english_21.wav,0,pill,1934,1,0.1,-94.69976897,0.84289237
AYN,175,3,2024-07-07T09:06:52.758Z,english_21.wav,0,pill,1934,2,0.2,59.00053046,1.58737119
AYN,175,3,2024-07-07T09:06:52.758Z,english_21.wav,0,pill,1934,3,0.3,-81.44868512,0.70500889
AYN,175,3,2024-07-07T09:06:52.758Z,english_21.wav,0,pill,1934,4,0.32341667,-68.72650823,1.41810016
AYN,176,3,2024-07-07T09:06:52.758Z,english_255.wav,0,peel,1060,0,0.0,-42.74550593,1.65518669
AYN,176,3,2024-07-07T09:06:52.758Z,english_255.wav,0,peel,1060,1,0.1,35.44578771,1.85823386
AYN,176,3,2024-07-07T09:06:52.758Z,english_255.wav,0,peel,1060,2,0.2,98.7346041,1.2123315
AYN,176,3,2024-07-07T09:06:52.758Z,english_255.wav,0,peel,1060,3,0.3,14.08839822,0.62099519
AYN,176,3,2024-07-07T09:06:52.758Z,english_255.wav,0,peel,1060,4,0.32341667,-55.38739786,1.08486436
AYN,177,3,2024-07-07T09:06:52.758Z,english_738.wav,0,peel,1428,0,0.0,-37.88087101,1.83397703
AYN,177,3,2024-07-07T09:06:52.758Z,english_738.wav,0,peel,1428,1,0.1,-16.85966727,1.52099356
AYN,177,3,2024-07-07T09:06:52.758Z,english_738.wav,0,peel,1428,2,0.2,-79.76891938,1.69283951
AYN,177,3,2024-07-07T09:06:52.758Z,english_738.wav,0,peel,1428,3,0.3,-82.30918252,1.81957343
AYN,177,3,2024-07-07T09:06:52.758Z,english_738.wav,0,peel,1428,4,0.32341667,59.65991076,0.75908376
AYN,178,3,2024-07-07T09:06:52.758Z,english_451.wav,0,pill,639,0,0.0,-87.31297583,0.44823779
AYN,178,3,2024-07-07T09:06:52.758Z,english_451.wav,0,pill,639,1,0.1,-44.51362963,0.44678563
AYN,178,3,2024-07-07T09:06:52.758Z,english_451.wav,0,pill,639,2,0.2,-15.52945473,1.69444841
AYN,178,3,2024-07-07T09:06:52.758Z,english_451.wav,0,pill,639,3,0.3,11.70886435,0.18586344
AYN,178,3,2024-07-07T09:06:52.758Z,english_451.wav,0,pill,639,4,0.32341667,82.84342256,0.9677256
AYN,179,3,2024-07-07T09:06:52.758Z,english_531.wav,0,pill,594,0,0.0,-79.40575395,0.23141906
AYN,179,3,2024-07-07T09:06:52.758Z,english_531.wav,0,pill,594,1,0.1,24.69139357,1.34739197
AYN,179,3,2024-07-07T09:06:52.758Z,english_531.wav,0,pill,594,2,0.2,31.85465478,0.44473315
AYN,179,3,2024-07-07T09:06:52.758Z,english_531.wav,0,pill,594,3,0.3,0.37788074,1.31624907
AYN,179,3,2024-07-07T09:06:52.758Z,english_531.wav,0,pill,594,4,0.32341667,-42.85922685,0.82105614
AYN,180,3,2024-07-07T09:06:52.758Z,english_113.wav,0,pill,1420,0,0.0,8.7952765,0.51001639
AYN,180,3,2024-07-07T09:06:52.758Z,english_113.wav,0,pill,1420,1,0.1,91.94692023,1.45766025
AYN,180,3,2024-07-07T09:06:52.758Z,english_113.wav,0,pill,1420,2,0.2,-6.68088057,1.25674442
AYN,180,3,2024-07-07T09:06:52.758Z,english_113.wav,0,pill,1420,3,0.3,38.28142065,1.93213547
AYN,180,3,2024-07-07T09:06:52.758Z,english_113.wav,0,pill,1420,4,0.32341667,-37.19939988,0.45590133
AYN,181,3,2024-07-07T09:06:52.758Z,english_797.wav,0,peel,2154,0,0.0,-10.77604935,1.75152448
AYN,181,3,2024-07-07T09:06:52.758Z,english_797.wav,0,peel,2154,1,0.1,76.52998448,0.25625033
AYN,181,3,2024-07-07T09:06:52.758Z,english_797.wav,0,peel,2154,2,0.2,-52.30950648,1.63910521
AYN,181,3,2024-07-07T09:06:52.758Z,english_797.wav,0,peel,2154,3,0.3,-19.27189704,1.44412191
AYN,181,3,2024-07-07T09:06:52.758Z,english_797.wav,0,peel,2154,4,0.32341667,-68.52312916,1.41513857
AYN,182,3,2024-07-07T09:06:52.758Z,english_539.wav,0,peel,890,0,0.0,-67.77604021,0.83598486
AYN,182,3,2024-07-07T09:06:52.758Z,english_539.wav,0,peel,890,1,0.1,61.22104537,1.51877163
AYN,182,3,2024-07-07T09:06:52.758Z,english_539.wav,0,peel,890,2,0.2,38.09257369,1.73578169
AYN,182,3,2024-07-07T09:06:52.758Z,english_539.wav,0,peel,890,3,0.3,-20.76875757,0.52680037
AYN,182,3,2024-07-07T09:06:52.758Z,english_539.wav,0,peel,890,4,0.32341667,-47.71444482,1.99278149
AYN,183,3,2024-07-07T09:06:52.758Z,english_801.wav,0,peel,3168,0,0.0,66.50571345,0.19311528
AYN,183,3,2024-07-07T09:06:52.758Z,english_801.wav,0,peel,3168,1,0.1,-53.03260979,0.48683601
AYN,183,3,2024-07-07T09:06:52.758Z,english_801.wav,0,peel,3168,2,0.2,-3.89459646,1.16293258
AYN,183,3,2024-07-07T09:06:52.758Z,english_801.wav,0,peel,3168,3,0.3,8.32951864,1.55734707
AYN,183,3,2024-07-07T09:06:52.758Z,english_801.wav,0,peel,3168,4,0.32341667,-87.46806733,0.63471681
AYN,184,3,2024-07-07T09:06:52.758Z,english_688.wav,0,pill,1107,0,0.0,-45.64286614,1.06356906
AYN,184,3,2024-07-07T09:06:52.758Z,english_688.wav,0,pill,1107,1,0.1,39.73956276,0.85197809
AYN,184,3,2024-07-07T09:06:52.758Z,english_688.wav,0,pill,1107,2,0.2,40.53719602,0.68718846
AYN,184,3,2024-07-07T09:06:52.758Z,english_688.wav,0,pill,1107,3,0.3,-71.29470492,1.67995478
AYN,184,3,2024-07-07T09:06:52.758Z,english_688.wav,0,pill,1107,4,0.32341667,73.7490074,1.45979079
AYN,185,3,2024-07-07T09:06:52.758Z,english_836.wav,0,pill,1187,0,0.0,34.85846782,1.04017402
AYN,185,3,2024-07-07T09:06:52.758Z,english_836.wav,0,pill,1187,1,0.1,41.54458908,0.35535359
AYN,185,3,2024-07-07T09:06:52.758Z,english_836.wav,0,pill,1187,2,0.2,23.27363575,0.10471693
AYN,185,3,2024-07-07T09:06:52.758Z,english_836.wav,0,pill,1187,3,0.3,86.83996211,0.55523491
AYN,185,3,2024-07-07T09:06:52.758Z,english_836.wav,0,pill,1187,4,0.32341667,-32.25656931,0.70311776
AYN,186,3,2024-07-07T09:06:52.758Z,english_737.wav,0,peel,803,0,0.0,21.35751723,1.17499048
AYN,186,3,2024-07-07T09:06:52.758Z,english_737.wav,0,peel,803,1,0.1,61.52152077,1.09581395
AYN,186,3,2024-07-07T09:06:52.758Z,english_737.wav,0,peel,803,2,0.2,-29.75610596,0.62940412
AYN,186,3,2024-07-07T09:06:52.758Z,english_737.wav,0,peel,803,3,0.3,-39.80249708,0.11793022
AYN,186,3,2024-07-07T09:06:52.758Z,english_737.wav,0,peel,803,4,0.32341667,-14.64937497,0.62377861
AYN,187,3,2024-07-07T09:06:52.758Z,english_487.wav,0,peel,1149,0,0.0,57.34447058,0.27098038
AYN,187,3,2024-07-07T09:06:52.758Z,english_487.wav,0,peel,1149,1,0.1,-38.59224607,1.03105808
AYN,187,3,2024-07-07T09:06:52.758Z,english_487.wav,0,peel,1149,2,0.2,-30.93562102,0.17810411
AYN,187,3,2024-07-07T09:06:52.758Z,english_487.wav,0,peel,1149,3,0.3,-21.39452484,0.81608244
AYN,187,3,2024-07-07T09:06:52.758Z,english_487.wav,0,peel,1149,4,0.32341667,-98.93333205,1.1056793
AYN,188,3,2024-07-07T09:06:52.758Z,english_897.wav,0,pill,856,0,0.0,-6.17515852,1.45954458
AYN,188,3,2024-07-07T09:06:52.758Z,english_897.wav,0,pill,856,1,0.1,-25.56252799,1.4662158
AYN,188,3,2024-07-07T09:06:52.758Z,english_897.wav,0,pill,856,2,0.2,-51.51756482,1.09304129
AYN,188,3,2024-07-07T09:06:52.758Z,english_897.wav,0,pill,856,3,0.3,-57.3776393,1.17713492
AYN,188,3,2024-07-07T09:06:52.758Z,english_897.wav,0,pill,856,4,0.32341667,-65.82780913,1.23726335
AYN,189,3,2024-07-07T09:06:52.758Z,english_401.wav,0,peel,491,0,0.0,-70.37998858,1.11338134
AYN,189,3,2024-07-07T09:06:52.758Z,english_401.wav,0,peel,491,1,0.1,49.27188779,1.59691292
AYN,189,3,2024-07-07T09:06:52.758Z,english_401.wav,0,peel,491,2,0.2,5.09566389,0.88679935
AYN,189,3,2024-07-07T09:06:52.758Z,english_401.wav,0,peel,491,3,0.3,58.42368176,1.89749174
AYN,189,3,2024-07-07T09:06:52.758Z,english_401.wav,0,peel,491,4,0.32341667,-43.06407799,1.35831765
AYN,190,3,2024-07-07T09:06:52.758Z,english_579.wav,0,pill,652,0,0.0,78.52989573,1.74799876
AYN,190,3,2024-07-07T09:06:52.758Z,english_579.wav,0,pill,652,1,0.1,-26.17758211,0.36264633
AYN,190,3,2024-07-07T09:06:52.758Z,english_579.wav,0,pill,652,2,0.2,-65.60231522,1.15645327
AYN,190,3,2024-07-07T09:06:52.758Z,english_579.wav,0,pill,652,3,0.3,-66.03357835,1.81639149
AYN,190,3,2024-07-07T09:06:52.758Z,english_579.wav,0,pill,652,4,0.32341667,-36.23940811,1.38509752
AYN,191,3,2024-07-07T09:06:52.758Z,english_479.wav,0,peel,1073,0,0.0,74.98268857,0.98081986
AYN,191,3,2024-07-07T09:06:52.758Z,english_479.wav,0,peel,1073,1,0.1,16.03290679,0.71187618
AYN,191,3,2024-07-07T09:06:52.758Z,english_479.wav,0,peel,1073,2,0.2,78.97784812,0.27050369
AYN,191,3,2024-07-07T09:06:52.758Z,english_479.wav,0,peel,1073,3,0.3,-15.63843586,1.15797271
AYN,191,3,2024-07-07T09:06:52.758Z,english_479.wav,0,peel,1073,4,0.32341667,42.04802753,1.51318639
AYN,192,3,2024-07-07T09:06:52.758Z,english_265.wav,0,peel,628,0,0.0,-30.2287418,1.31067296
AYN,192,3,2024-07-07T09:06:52.758Z,english_265.wav,0,peel,628,1,0.1,86.62283936,0.87427745
AYN,192,3,2024-07-07T09:06:52.758Z,english_265.wav,0,peel,628,2,0.2,-21.47577863,1.37620008
AYN,192,3,2024-07-07T09:06:52.758Z,english_265.wav,0,peel,628,3,0.3,84.9300577,0.45825557
AYN,192,3,2024-07-07T09:06:52.758Z,english_265.wav,0,peel,628,4,0.32341667,59.52250756,1.13518739
AYN,193,3,2024-07-07T09:06:52.758Z,english_128.wav,0,pill,701,0,0.0,-84.07301703,0.96445051
AYN,193,3,2024-07-07T09:06:52.758Z,english_128.wav,0,pill,701,1,0.1,0.2051398,0.77165422
AYN,193,3,2024-07-07T09:06:52.758Z,english_128.wav,0,pill,701,2,0.2,50.77588291,0.60279997
AYN,193,3,2024-07-07T09:06:52.758Z,english_128.wav,0,pill,701,3,0.3,3.27834455,0.59915485
AYN,193,3,2024-07-07T09:06:52.758Z,english_128.wav,0,pill,701,4,0.32341667,59.5943459,0.43521132
AYN,194,3,2024-07-07T09:06:52.758Z,english_82.wav,0,peel,616,0,0.0,-21.02351082,0.76668052
AYN,194,3,2024-07-07T09:06:52.758Z,english_82.wav,0,peel,616,1,0.1,1.53612588,0.94640395
AYN,194,3,2024-07-07T09:06:52.758Z,english_82.wav,0,peel,616,2,0.2,82.9198569,1.02754902
AYN,194,3,2024-07-07T09:06:52.758Z,english_82.wav,0,peel,616,3,0.3,67.34737065,1.57368428
AYN,194,3,2024-07-07T09:06:52.758Z,english_82.wav,0,peel,616,4,0.32341667,-34.9418752,0.67195212
AYN,195,3,2024-07-07T09:06:52.758Z,english_681.wav,0,peel,783,0,0.0,65.45313908,1.43173201
AYN,195,3,2024-07-07T09:06:52.758Z,english_681.wav,0,peel,783,1,0.1,23.22224239,1.64604346
AYN,195,3,2024-07-07T09:06:52.758Z,english_681.wav,0,peel,783,2,0.2,44.35096717,0.82186037
AYN,195,3,2024-07-07T09:06:52.758Z,english_681.wav,0,peel,783,3,0.3,67.45757963,0.26689352
AYN,195,3,2024-07-07T09:06:52.758Z,english_681.wav,0,peel,783,4,0.32341667,55.5822091,1.64490636
AYN,196,3,2024-07-07T09:06:52.758Z,english_259.wav,0,pill,687,0,0.0,7.90187791,1.3064553
AYN,196,3,2024-07-07T09:06:52.758Z,english_259.wav,0,pill,687,1,0.1,31.67295647,1.01100372
AYN,196,3,2024-07-07T09:06:52.758Z,english_259.wav,0,pill,687,2,0.2,-53.65780041,0.35520266
AYN,196,3,2024-07-07T09:06:52.758Z,english_259.wav,0,pill,687,3,0.3,-72.94929757,1.35187683
AYN,196,3,2024-07-07T09:06:52.758Z,english_259.wav,0,pill,687,4,0.32341667,58.35152721,1.39599087
AYN,197,3,2024-07-07T09:06:52.758Z,english_819.wav,0,peel,525,0,0.0,56.56933068,1.61805944
AYN,197,3,2024-07-07T09:06:52.758Z,english_819.wav,0,peel,525,1,0.1,16.98960986,1.69207785
AYN,197,3,2024-07-07T09:06:52.758Z,english_819.wav,0,peel,525,2,0.2,-13.59600893,1.33633205
AYN,197,3,2024-07-07T09:06:52.758Z,english_819.wav,0,peel,525,3,0.3,79.1710335,0.49452457
AYN,197,3,2024-07-07T09:06:52.758Z,english_819.wav,0,peel,525,4,0.32341667,25.34620926,1.97134574
AYN,198,3,2024-07-07T09:06:52.758Z,english_390.wav,0,peel,645,0,0.0,-50.40750922,1.41643644
AYN,198,3,2024-07-07T09:06:52.758Z,english_390.wav,0,peel,645,1,0.1,-38.67641955,0.84399933
AYN,198,3,2024-07-07T09:06:52.758Z,english_390.wav,0,peel,645,2,0.2,-37.03459725,1.67796426
AYN,198,3,2024-07-07T09:06:52.758Z,english_390.wav,0,peel,645,3,0.3,-24.07335547,0.43781117
AYN,198,3,2024-07-07T09:06:52.758Z,english_390.wav,0,peel,645,4,0.32341667,75.09366884,0.01225463
AYN,199,3,2024-07-07T09:06:52.758Z,english_647.wav,0,peel,638,0,0.0,-8.76796469,1.6238225
AYN,199,3,2024-07-07T09:06:52.758Z,english_647.wav,0,peel,638,1,0.1,-49.13996982,1.56934089
AYN,199,3,2024-07-07T09:06:52.758Z,english_647.wav,0,peel,638,2,0.2,43.79634461,0.78560304
AYN,199,3,2024-07-07T09:06:52.758Z,english_647.wav,0,peel,638,3,0.3,5.5781311,0.61771672
AYN,199,3,2024-07-07T09:06:52.758Z,english_647.wav,0,peel,638,4,0.32341667,17.41251701,1.2404866
AYN,200,4,2024-07-07T09:06:52.758Z,english_646.wav,0,peel,1002,0,0.0,65.65927644,1.85038449
AYN,200,4,2024-07-07T09:06:52.758Z,english_646.wav,0,peel,1002,1,0.1,-31.23211399,1.10748568
AYN,200,4,2024-07-07T09:06:52.758Z,english_646.wav,0,peel,1002,2,0.2,62.59110385,1.14052106
AYN,200,4,2024-07-07T09:06:52.758Z,english_646.wav,0,peel,1002,3,0.3,-86.43369357,1.38971404
AYN,200,4,2024-07-07T09:06:52.758Z,english_646.wav,0,peel,1002,4,0.32341667,41.84315348,0.49971738
AYN,201,4,2024-07-07T09:06:52.758Z,english_32.wav,0,pill,563,0,0.0,89.50349963,1.73304916
AYN,201,4,2024-07-07T09:06:52.758Z,english_32.wav,0,pill,563,1,0.1,51.51128255,0.02192789
AYN,201,4,2024-07-07T09:06:52.758Z,english_32.wav,0,pill,563,2,0.2,-58.32910347,1.71493142
AYN,201,4,2024-07-07T09:06:52.758Z,english_32.wav,0,pill,563,3,0.3,15.96172744,1.28451373
AYN,201,4,2024-07-07T09:06:52.758Z,english_32.wav,0,pill,563,4,0.32341667,84.40449403,1.22971166
AYN,202,4,2024-07-07T09:06:52.758Z,english_656.wav,0,peel,558,0,0.0,-4.15957802,0.9962349
AYN,202,4,2024-07-07T09:06:52.758Z,english_656.wav,0,peel,558,1,0.1,-31.70283109,1.16669679
AYN,202,4,2024-07-07T09:06:52.758Z,english_656.wav,0,peel,558,2,0.2,-35.90055673,0.85512169
AYN,202,4,2024-07-07T09:06:52.758Z,english_656.wav,0,peel,558,3,0.3,-27.39202404,1.68840921
AYN,202,4,2024-07-07T09:06:52.758Z,english_656.wav,0,peel,558,4,0.32341667,-5.54715508,1.5699395
AYN,203,4,2024-07-07T09:06:52.758Z,english_158.wav,0,peel,685,0,0.0,33.09785739,1.71128449
AYN,203,4,2024-07-07T09:06:52.758Z,english_158.wav,0,peel,685,1,0.1,-85.08083727,1.56145129
AYN,203,4,2024-07-07T09:06:52.758Z,english_158.wav,0,peel,685,2,0.2,97.70701203,0.69707892
AYN,203,4,2024-07-07T09:06:52.758Z,english_158.wav,0,peel,685,3,0.3,2.54261044,1.19647348
AYN,203,4,2024-07-07T09:06:52.758Z,english_158.wav,0,peel,685,4,0.32341667,-59.73934841,1.17782448
AYN,204,4,2024-07-07T09:06:52.758Z,english_438.wav,0,pill,497,0,0.0,31.75305261,1.38451981
AYN,204,4,2024-07-07T09:06:52.758Z,english_438.wav,0,pill,497,1,0.1,20.27112767,1.99020027
AYN,204,4,2024-07-07T09:06:52.758Z,english_438.wav,0,pill,497,2,0.2,66.65258945,0.15645945
AYN,204,4,2024-07-07T09:06:52.758Z,english_438.wav,0,pill,497,3,0.3,70.72003494,1.37678514
AYN,204,4,2024-07-07T09:06:52.758Z,english_438.wav,0,pill,497,4,0.32341667,59.11013505,0.82730153
AYN,205,4,2024-07-07T09:06:52.758Z,english_603.wav,0,pill,681,0,0.0,-14.17444723,1.28295305
AYN,205,4,2024-07-07T09:06:52.758Z,english_603.wav,0,pill,681,1,0.1,-4.64921339,0.35920956
AYN,205,4,2024-07-07T09:06:52.758Z,english_603.wav,0,pill,681,2,0.2,-23.32469505,0.60281559
AYN,205,4,2024-07-07T09:06:52.758Z,english_603.wav,0,pill,681,3,0.3,-59.01260874,0.58107079
AYN,205,4,2024-07-07T09:06:52.758Z,english_603.wav,0,pill,681,4,0.32341667,88.53711532,1.19087365
AYN,206,4,2024-07-07T09:06:52.758Z,english_365.wav,0,peel,520,0,0.0,58.11205919,0.53708026
AYN,206,4,2024-07-07T09:06:52.758Z,english_365.wav,0,peel,520,1,0.1,-61.04014877,1.10456153
AYN,206,4,2024-07-07T09:06:52.758Z,english_365.wav,0,peel,520,2,0.2,12.43042802,1.31731937
AYN,206,4,2024-07-07T09:06:52.758Z,english_365.wav,0,peel,520,3,0.3,17.00746388,1.02387946
AYN,206,4,2024-07-07T09:06:52.758Z,english_365.wav,0,peel,520,4,0.32341667,-69.10644956,1.31633463
AYN,207,4,2024-07-07T09:06:52.758Z,english_423.wav,0,pill,474,0,0.0,48.83941012,1.35290702
AYN,207,4,2024-07-07T09:06:52.758Z,english_423.wav,0,pill,474,1,0.1,26.57948938,1.33919202
AYN,207,4,2024-07-07T09:06:52.758Z,english_423.wav,0,pill,474,2,0.2,56.70545245,1.37149513
AYN,207,4,2024-07-07T09:06:52.758Z,english_423.wav,0,pill,474,3,0.3,-62.41131033,1.11357765
AYN,207,4,2024-07-07T09:06:52.758Z,english_423.wav,0,pill,474,4,0.32341667,78.49803502,1.20699722
AYN,208,4,2024-07-07T09:06:52.758Z,english_118.wav,0,pill,556,0,0.0,-46.26080879,0.77156844
AYN,208,4,2024-07-07T09:06:52.758Z,english_118.wav,0,pill,556,1,0.1,-14.63576669,0.55135676
AYN,208,4,2024-07-07T09:06:52.758Z,english_118.wav,0,pill,556,2,0.2,85.04541628,0.92804695
AYN,208,4,2024-07-07T09:06:52.758Z,english_118.wav,0,pill,556,3,0.3,-49.31762638,1.40435072
AYN,208,4,2024-07-07T09:06:52.758Z,english_118.wav,0,pill,556,4,0.32341667,16.64479416,1.67291824
AYN,209,4,2024-07-07T09:06:52.758Z,english_609.wav,0,pill,648,0,0.0,93.61263388,0.51617504
AYN,209,4,2024-07-07T09:06:52.758Z,english_609.wav,0,pill,648,1,0.1,38.40290552,0.56544547
AYN,209,4,2024-07-07T09:06:52.758Z,english_609.wav,0,pill,648,2,0.2,-21.94770243,0.43418402
AYN,209,4,2024-07-07T09:06:52.758Z,english_609.wav,0,pill,648,3,0.3,-11.92302894,1.38818447
AYN,209,4,2024-07-07T09:06:52.758Z,english_609.wav,0,pill,648,4,0.32341667,30.65806027,1.36410066
AYN,210,4,2024-07-07T09:06:52.758Z,english_101.wav,0,pill,553,0,0.0,60.77829508,0.77962125
AYN,210,4,2024-07-07T09:06:52.758Z,english_101.wav,0,pill,553,1,0.1,43.41373716,0.02040908
AYN,210,4,2024-07-07T09:06:52.758Z,english_101.wav,0,pill,553,2,0.2,56.16195873,0.79248433
AYN,210,4,2024-07-07T09:06:52.758Z,english_101.wav,0,pill,553,3,0.3,-99.94719329,1.74003505
AYN,210,4,2024-07-07T09:06:52.758Z,english_101.wav,0,pill,553,4,0.32341667,-1.35074094,1.66206156
AYN,211,4,2024-07-07T09:06:52.758Z,english_45.wav,0,peel,445,0,0.0,72.55677234,0.302627
AYN,211,4,2024-07-07T09:06:52.758Z,english_45.wav,0,peel,445,1,0.1,34.43244276,1.957389
AYN,211,4,2024-07-07T09:06:52.758Z,english_45.wav,0,peel,445,2,0.2,12.66368291,1.1456601
AYN,211,4,2024-07-07T09:06:52.758Z,english_45.wav,0,peel,445,3,0.3,47.17471186,1.77472104
AYN,211,4,2024-07-07T09:06:52.758Z,english_45.wav,0,peel,445,4,0.32341667,-48.2883803,1.7760992
AYN,212,4,2024-07-07T09:06:52.758Z,english_802.wav,0,peel,936,0,0.0,44.11448731,1.89082481
AYN,212,4,2024-07-07T09:06:52.758Z,english_802.wav,0,peel,936,1,0.1,27.89646601,1.73386287
AYN,212,4,2024-07-07T09:06:52.758Z,english_802.wav,0,peel,936,2,0.2,-19.36127415,0.34468699
AYN,212,4,2024-07-07T09:06:52.758Z,english_802.wav,0,peel,936,3,0.3,15.17899174,0.39328876
AYN,212,4,2024-07-07T09:06:52.758Z,english_802.wav,0,peel,936,4,0.32341667,-18.70870555,1.25778986
AYN,213,4,2024-07-07T09:06:52.758Z,english_888.wav,0,peel,619,0,0.0,-75.11317729,0.15619421
AYN,213,4,2024-07-07T09:06:52.758Z,english_888.wav,0,peel,619,1,0.1,-15.41916561,1.45351631
AYN,213,4,2024-07-07T09:06:52.758Z,english_888.wav,0,peel,619,2,0.2,30.82770832,1.60154734
AYN,213,4,2024-07-07T09:06:52.758Z,english_888.wav,0,peel,619,3,0.3,69.72581111,1.09787436
AYN,213,4,2024-07-07T09:06:52.758Z,english_888.wav,0,peel,619,4,0.32341667,-21.6620698,1.3760261
AYN,214,4,2024-07-07T09:06:52.758Z,english_358.wav,0,pill,410,0,0.0,-24.40280242,0.64702298
AYN,214,4,2024-07-07T09:06:52.758Z,english_358.wav,0,pill,410,1,0.1,62.18566088,0.86836285
AYN,214,4,2024-07-07T09:06:52.758Z,english_358.wav,0,pill,410,2,0.2,5.26675109,1.05826104
AYN,214,4,2024-07-07T09:06:52.758Z,english_358.wav,0,pill,410,3,0.3,-31.91571391,1.98011631
AYN,214,4,2024-07-07T09:06:52.758Z,english_358.wav,0,pill,410,4,0.32341667,27.35112364,0.35058307
AYN,215,4,2024-07-07T09:06:52.758Z,english_928.wav,0,pill,1156,0,0.0,55.07207497,1.22706758
AYN,215,4,2024-07-07T09:06:52.758Z,english_928.wav,0,pill,1156,1,0.1,83.71672672,0.97206042
AYN,215,4,2024-07-07T09:06:52.758Z,english_928.wav,0,pill,1156,2,0.2,-43.28929986,0.16969859
AYN,215,4,2024-07-07T09:06:52.758Z,english_928.wav,0,pill,1156,3,0.3,-17.1692271,0.90092586
AYN,215,4,2024-07-07T09:06:52.758Z,english_928.wav,0,pill,1156,4,0.32341667,-36.644272,0.43024518
