subj,trial,block,date,stim,stim_order,response,rt,age,english,language,sex,param_index,segment,pitch,stretch
AYT,0,0,2024-06-29T09:52:24.879Z,english_889.wav,0,pill,1530,19,5,Japanese,F,0,0.0,-92.0683747,0.69619005
AYT,0,0,2024-06-29T09:52:24.879Z,english_889.wav,0,pill,1530,19,5,Japanese,F,1,0.1,92.92883541,1.46059979
AYT,0,0,2024-06-29T09:52:24.879Z,english_889.wav,0,pill,1530,19,5,Japanese,F,2,0.2,-38.78028918,1.13034103
AYT,0,0,2024-06-29T09:52:24.879Z,english_889.wav,0,pill,1530,19,5,Japanese,F,3,0.3,33.48812202,1.0639125
AYT,0,0,2024-06-29T09:52:24.879Z,english_889.wav,0,pill,1530,19,5,Japanese,F,4,0.32341667,68.79643169,0.42066581
AYT,1,0,2024-06-29T09:52:24.879Z,english_877.wav,0,peel,716,19,5,Japanese,F,0,0.0,49.36401037,1.25510861
AYT,1,0,2024-06-29T09:52:24.879Z,english_877.wav,0,peel,716,19,5,Japanese,F,1,0.1,15.17280231,0.84700305
AYT,1,0,2024-06-29T09:52:24.879Z,english_877.wav,0,peel,716,19,5,Japanese,F,2,0.2,22.36436744,0.32703774
AYT,1,0,2024-06-29T09:52:24.879Z,english_877.wav,0,peel,716,19,5,Japanese,F,3,0.3,-25.51979868,1.72637958
AYT,1,0,2024-06-29T09:52:24.879Z,english_877.wav,0,peel,716,19,5,Japanese,F,4,0.32341667,-55.72443313,0.52117686
AYT,2,0,2024-06-29T09:52:24.879Z,english_126.wav,0,peel,619,19,5,Japanese,F,0,0.0,-71.89060105,0.84485729
AYT,2,0,2024-06-29T09:52:24.879Z,english_126.wav,0,peel,619,19,5,Japanese,F,1,0.1,-54.28004149,1.61340521
AYT,2,0,2024-06-29T09:52:24.879Z,english_126.wav,0,peel,619,19,5,Japanese,F,2,0.2,67.0997098,1.10892805
AYT,2,0,2024-06-29T09:52:24.879Z,english_126.wav,0,peel,619,19,5,Japanese,F,3,0.3,-96.31741745,1.20133652
AYT,2,0,2024-06-29T09:52:24.879Z,english_126.wav,0,peel,619,19,5,Japanese,F,4,0.32341667,22.67293764,0.33470898
AYT,3,0,2024-06-29T09:52:24.879Z,english_834.wav,0,pill,751,19,5,Japanese,F,0,0.0,-64.94927172,0.98752234
AYT,3,0,2024-06-29T09:52:24.879Z,english_834.wav,0,pill,751,19,5,Japanese,F,1,0.1,49.61052881,1.31122352
AYT,3,0,2024-06-29T09:52:24.879Z,english_834.wav,0,pill,751,19,5,Japanese,F,2,0.2,-25.04715585,0.09065599
AYT,3,0,2024-06-29T09:52:24.879Z,english_834.wav,0,pill,751,19,5,Japanese,F,3,0.3,95.09819394,1.07854905
AYT,3,0,2024-06-29T09:52:24.879Z,english_834.wav,0,pill,751,19,5,Japanese,F,4,0.32341667,84.16953653,1.76453498
AYT,4,0,2024-06-29T09:52:24.879Z,english_533.wav,0,pill,1837,19,5,Japanese,F,0,0.0,-10.36570298,0.10013008
AYT,4,0,2024-06-29T09:52:24.879Z,english_533.wav,0,pill,1837,19,5,Japanese,F,1,0.1,-67.04420928,1.73583104
AYT,4,0,2024-06-29T09:52:24.879Z,english_533.wav,0,pill,1837,19,5,Japanese,F,2,0.2,-31.24691396,1.00550506
AYT,4,0,2024-06-29T09:52:24.879Z,english_533.wav,0,pill,1837,19,5,Japanese,F,3,0.3,-22.73912087,1.21009828
AYT,4,0,2024-06-29T09:52:24.879Z,english_533.wav,0,pill,1837,19,5,Japanese,F,4,0.32341667,-4.63915005,1.69946188
AYT,5,0,2024-06-29T09:52:24.879Z,english_995.wav,0,pill,1321,19,5,Japanese,F,0,0.0,49.33707883,0.89732458
AYT,5,0,2024-06-29T09:52:24.879Z,english_995.wav,0,pill,1321,19,5,Japanese,F,1,0.1,54.78730957,0.49662083
AYT,5,0,2024-06-29T09:52:24.879Z,english_995.wav,0,pill,1321,19,5,Japanese,F,2,0.2,-5.99414072,0.83265132
AYT,5,0,2024-06-29T09:52:24.879Z,english_995.wav,0,pill,1321,19,5,Japanese,F,3,0.3,26.8687238,1.32035917
AYT,5,0,2024-06-29T09:52:24.879Z,english_995.wav,0,pill,1321,19,5,Japanese,F,4,0.32341667,38.3348194,1.99869744
AYT,6,0,2024-06-29T09:52:24.879Z,english_205.wav,0,peel,650,19,5,Japanese,F,0,0.0,55.03693902,1.41699591
AYT,6,0,2024-06-29T09:52:24.879Z,english_205.wav,0,peel,650,19,5,Japanese,F,1,0.1,59.05347117,0.25749205
AYT,6,0,2024-06-29T09:52:24.879Z,english_205.wav,0,peel,650,19,5,Japanese,F,2,0.2,-51.93258482,1.78695407
AYT,6,0,2024-06-29T09:52:24.879Z,english_205.wav,0,peel,650,19,5,Japanese,F,3,0.3,-18.66886592,0.11157042
AYT,6,0,2024-06-29T09:52:24.879Z,english_205.wav,0,peel,650,19,5,Japanese,F,4,0.32341667,-25.16213195,1.74030417
AYT,7,0,2024-06-29T09:52:24.879Z,english_470.wav,0,peel,429,19,5,Japanese,F,0,0.0,-20.39789813,1.83124966
AYT,7,0,2024-06-29T09:52:24.879Z,english_470.wav,0,peel,429,19,5,Japanese,F,1,0.1,20.62750989,0.41787925
AYT,7,0,2024-06-29T09:52:24.879Z,english_470.wav,0,peel,429,19,5,Japanese,F,2,0.2,-59.78251605,1.85790598
AYT,7,0,2024-06-29T09:52:24.879Z,english_470.wav,0,peel,429,19,5,Japanese,F,3,0.3,-88.74051682,0.99710793
AYT,7,0,2024-06-29T09:52:24.879Z,english_470.wav,0,peel,429,19,5,Japanese,F,4,0.32341667,8.31634628,0.56985764
AYT,8,0,2024-06-29T09:52:24.879Z,english_267.wav,0,pill,1024,19,5,Japanese,F,0,0.0,-83.13365237,1.47105267
AYT,8,0,2024-06-29T09:52:24.879Z,english_267.wav,0,pill,1024,19,5,Japanese,F,1,0.1,76.30308178,0.87521108
AYT,8,0,2024-06-29T09:52:24.879Z,english_267.wav,0,pill,1024,19,5,Japanese,F,2,0.2,53.87961391,1.04060287
AYT,8,0,2024-06-29T09:52:24.879Z,english_267.wav,0,pill,1024,19,5,Japanese,F,3,0.3,62.72167491,0.25080793
AYT,8,0,2024-06-29T09:52:24.879Z,english_267.wav,0,pill,1024,19,5,Japanese,F,4,0.32341667,-33.79574379,1.11989054
AYT,9,0,2024-06-29T09:52:24.879Z,english_7.wav,0,pill,929,19,5,Japanese,F,0,0.0,-21.06405819,1.08184232
AYT,9,0,2024-06-29T09:52:24.879Z,english_7.wav,0,pill,929,19,5,Japanese,F,1,0.1,52.71042782,0.36719269
AYT,9,0,2024-06-29T09:52:24.879Z,english_7.wav,0,pill,929,19,5,Japanese,F,2,0.2,-75.60464889,0.43185312
AYT,9,0,2024-06-29T09:52:24.879Z,english_7.wav,0,pill,929,19,5,Japanese,F,3,0.3,-40.56941306,0.01474265
AYT,9,0,2024-06-29T09:52:24.879Z,english_7.wav,0,pill,929,19,5,Japanese,F,4,0.32341667,63.70656894,0.90880476
AYT,10,0,2024-06-29T09:52:24.879Z,english_35.wav,0,pill,3761,19,5,Japanese,F,0,0.0,-35.14158545,0.855771
AYT,10,0,2024-06-29T09:52:24.879Z,english_35.wav,0,pill,3761,19,5,Japanese,F,1,0.1,-54.49669119,0.5452371
AYT,10,0,2024-06-29T09:52:24.879Z,english_35.wav,0,pill,3761,19,5,Japanese,F,2,0.2,37.91149238,1.65995376
AYT,10,0,2024-06-29T09:52:24.879Z,english_35.wav,0,pill,3761,19,5,Japanese,F,3,0.3,-55.38086503,0.74505496
AYT,10,0,2024-06-29T09:52:24.879Z,english_35.wav,0,pill,3761,19,5,Japanese,F,4,0.32341667,54.77667999,0.83530932
AYT,11,0,2024-06-29T09:52:24.879Z,english_988.wav,0,pill,1348,19,5,Japanese,F,0,0.0,23.53561789,0.18772999
AYT,11,0,2024-06-29T09:52:24.879Z,english_988.wav,0,pill,1348,19,5,Japanese,F,1,0.1,39.09545525,0.71537172
AYT,11,0,2024-06-29T09:52:24.879Z,english_988.wav,0,pill,1348,19,5,Japanese,F,2,0.2,-32.2225044,0.50944864
AYT,11,0,2024-06-29T09:52:24.879Z,english_988.wav,0,pill,1348,19,5,Japanese,F,3,0.3,5.54449519,0.59930705
AYT,11,0,2024-06-29T09:52:24.879Z,english_988.wav,0,pill,1348,19,5,Japanese,F,4,0.32341667,-94.58480047,1.43881296
AYT,12,0,2024-06-29T09:52:24.879Z,english_304.wav,0,pill,1205,19,5,Japanese,F,0,0.0,-80.7192326,0.54130022
AYT,12,0,2024-06-29T09:52:24.879Z,english_304.wav,0,pill,1205,19,5,Japanese,F,1,0.1,34.14230443,0.20766845
AYT,12,0,2024-06-29T09:52:24.879Z,english_304.wav,0,pill,1205,19,5,Japanese,F,2,0.2,-43.78548789,1.25157904
AYT,12,0,2024-06-29T09:52:24.879Z,english_304.wav,0,pill,1205,19,5,Japanese,F,3,0.3,85.79520644,0.76195837
AYT,12,0,2024-06-29T09:52:24.879Z,english_304.wav,0,pill,1205,19,5,Japanese,F,4,0.32341667,-29.32737886,0.20991234
AYT,13,0,2024-06-29T09:52:24.879Z,english_104.wav,0,peel,2651,19,5,Japanese,F,0,0.0,42.44693926,0.1741435
AYT,13,0,2024-06-29T09:52:24.879Z,english_104.wav,0,peel,2651,19,5,Japanese,F,1,0.1,82.22484934,0.11379641
AYT,13,0,2024-06-29T09:52:24.879Z,english_104.wav,0,peel,2651,19,5,Japanese,F,2,0.2,7.21737924,1.60376175
AYT,13,0,2024-06-29T09:52:24.879Z,english_104.wav,0,peel,2651,19,5,Japanese,F,3,0.3,26.54640215,1.08059257
AYT,13,0,2024-06-29T09:52:24.879Z,english_104.wav,0,peel,2651,19,5,Japanese,F,4,0.32341667,-33.4974026,1.8061622
AYT,14,0,2024-06-29T09:52:24.879Z,english_620.wav,0,peel,1756,19,5,Japanese,F,0,0.0,-92.9203055,0.0,0.43561856
AYT,14,0,2024-06-29T09:52:24.879Z,english_620.wav,0,peel,1756,19,5,Japanese,F,1,0.1,26.7086056,0.1,0.24535421
AYT,14,0,2024-06-29T09:52:24.879Z,english_620.wav,0,peel,1756,19,5,Japanese,F,2,0.2,89.1883135,0.2,1.34102831
AYT,14,0,2024-06-29T09:52:24.879Z,english_620.wav,0,peel,1756,19,5,Japanese,F,3,0.3,-0.0557738795,0.3,1.80103954
AYT,14,0,2024-06-29T09:52:24.879Z,english_620.wav,0,peel,1756,19,5,Japanese,F,4,0.323416667,2.9787243,0.32341667,0.21248525
AYT,15,0,2024-06-29T09:52:24.879Z,english_151.wav,0,peel,431,19,5,Japanese,F,0,0.0,-8.78950662,1.36403682
AYT,15,0,2024-06-29T09:52:24.879Z,english_151.wav,0,peel,431,19,5,Japanese,F,1,0.1,-1.70650264,1.76375426
AYT,15,0,2024-06-29T09:52:24.879Z,english_151.wav,0,peel,431,19,5,Japanese,F,2,0.2,-17.50286784,1.43087438
AYT,15,0,2024-06-29T09:52:24.879Z,english_151.wav,0,peel,431,19,5,Japanese,F,3,0.3,88.78233286,1.18017331
AYT,15,0,2024-06-29T09:52:24.879Z,english_151.wav,0,peel,431,19,5,Japanese,F,4,0.32341667,55.08117545,1.30400061
AYT,16,0,2024-06-29T09:52:24.879Z,english_946.wav,0,pill,650,19,5,Japanese,F,0,0.0,-74.23479435,1.22824298
AYT,16,0,2024-06-29T09:52:24.879Z,english_946.wav,0,pill,650,19,5,Japanese,F,1,0.1,-11.3601526,0.85784227
AYT,16,0,2024-06-29T09:52:24.879Z,english_946.wav,0,pill,650,19,5,Japanese,F,2,0.2,36.50675361,0.09585286
AYT,16,0,2024-06-29T09:52:24.879Z,english_946.wav,0,pill,650,19,5,Japanese,F,3,0.3,-13.94845552,0.43829102
AYT,16,0,2024-06-29T09:52:24.879Z,english_946.wav,0,pill,650,19,5,Japanese,F,4,0.32341667,-6.97265347,0.86422506
AYT,17,0,2024-06-29T09:52:24.879Z,english_818.wav,0,peel,582,19,5,Japanese,F,0,0.0,88.49542613,1.4873036
AYT,17,0,2024-06-29T09:52:24.879Z,english_818.wav,0,peel,582,19,5,Japanese,F,1,0.1,-7.37005163,1.25102077
AYT,17,0,2024-06-29T09:52:24.879Z,english_818.wav,0,peel,582,19,5,Japanese,F,2,0.2,-1.58613611,0.80764036
AYT,17,0,2024-06-29T09:52:24.879Z,english_818.wav,0,peel,582,19,5,Japanese,F,3,0.3,-69.41222379,0.80656775
AYT,17,0,2024-06-29T09:52:24.879Z,english_818.wav,0,peel,582,19,5,Japanese,F,4,0.32341667,14.01707612,1.41859799
AYT,18,0,2024-06-29T09:52:24.879Z,english_100.wav,0,peel,1031,19,5,Japanese,F,0,0.0,-66.86198445,0.79522553
AYT,18,0,2024-06-29T09:52:24.879Z,english_100.wav,0,peel,1031,19,5,Japanese,F,1,0.1,32.23990363,0.27784591
AYT,18,0,2024-06-29T09:52:24.879Z,english_100.wav,0,peel,1031,19,5,Japanese,F,2,0.2,-63.31896149,1.76330212
AYT,18,0,2024-06-29T09:52:24.879Z,english_100.wav,0,peel,1031,19,5,Japanese,F,3,0.3,-73.00038049,0.60946618
AYT,18,0,2024-06-29T09:52:24.879Z,english_100.wav,0,peel,1031,19,5,Japanese,F,4,0.32341667,32.15710315,0.42695433
AYT,19,0,2024-06-29T09:52:24.879Z,english_702.wav,0,peel,322,19,5,Japanese,F,0,0.0,-19.6614881,1.13820402
AYT,19,0,2024-06-29T09:52:24.879Z,english_702.wav,0,peel,322,19,5,Japanese,F,1,0.1,-92.60133235,1.47755069
AYT,19,0,2024-06-29T09:52:24.879Z,english_702.wav,0,peel,322,19,5,Japanese,F,2,0.2,-18.01071493,1.33705675
AYT,19,0,2024-06-29T09:52:24.879Z,english_702.wav,0,peel,322,19,5,Japanese,F,3,0.3,91.54675011,0.59768286
AYT,19,0,2024-06-29T09:52:24.879Z,english_702.wav,0,peel,322,19,5,Japanese,F,4,0.32341667,23.09112348,0.82103567
AYT,20,0,2024-06-29T09:52:24.879Z,english_121.wav,0,pill,1731,19,5,Japanese,F,0,0.0,-30.24687583,0.23154591
AYT,20,0,2024-06-29T09:52:24.879Z,english_121.wav,0,pill,1731,19,5,Japanese,F,1,0.1,-28.09260766,0.6680997
AYT,20,0,2024-06-29T09:52:24.879Z,english_121.wav,0,pill,1731,19,5,Japanese,F,2,0.2,-29.54951374,1.79539672
AYT,20,0,2024-06-29T09:52:24.879Z,english_121.wav,0,pill,1731,19,5,Japanese,F,3,0.3,-37.35286973,0.57554739
AYT,20,0,2024-06-29T09:52:24.879Z,english_121.wav,0,pill,1731,19,5,Japanese,F,4,0.32341667,58.68529554,1.8709958
AYT,21,0,2024-06-29T09:52:24.879Z,english_448.wav,0,peel,353,19,5,Japanese,F,0,0.0,0.37188167,1.15390094
AYT,21,0,2024-06-29T09:52:24.879Z,english_448.wav,0,peel,353,19,5,Japanese,F,1,0.1,-67.82723624,1.58767458
AYT,21,0,2024-06-29T09:52:24.879Z,english_448.wav,0,peel,353,19,5,Japanese,F,2,0.2,65.77705469,1.13313853
AYT,21,0,2024-06-29T09:52:24.879Z,english_448.wav,0,peel,353,19,5,Japanese,F,3,0.3,83.31626383,0.27075507
AYT,21,0,2024-06-29T09:52:24.879Z,english_448.wav,0,peel,353,19,5,Japanese,F,4,0.32341667,-27.56829045,1.20964916
AYT,22,0,2024-06-29T09:52:24.879Z,english_425.wav,0,pill,2462,19,5,Japanese,F,0,0.0,52.16022051,1.95369626
AYT,22,0,2024-06-29T09:52:24.879Z,english_425.wav,0,pill,2462,19,5,Japanese,F,1,0.1,-4.0342476,0.01224448
AYT,22,0,2024-06-29T09:52:24.879Z,english_425.wav,0,pill,2462,19,5,Japanese,F,2,0.2,71.82190917,1.45838463
AYT,22,0,2024-06-29T09:52:24.879Z,english_425.wav,0,pill,2462,19,5,Japanese,F,3,0.3,77.8432037,1.1656734
AYT,22,0,2024-06-29T09:52:24.879Z,english_425.wav,0,pill,2462,19,5,Japanese,F,4,0.32341667,29.14791909,1.54078916
AYT,23,0,2024-06-29T09:52:24.879Z,english_155.wav,0,peel,232,19,5,Japanese,F,0,0.0,53.87474094,1.93436975
AYT,23,0,2024-06-29T09:52:24.879Z,english_155.wav,0,peel,232,19,5,Japanese,F,1,0.1,74.81745726,0.64472983
AYT,23,0,2024-06-29T09:52:24.879Z,english_155.wav,0,peel,232,19,5,Japanese,F,2,0.2,8.25192738,1.6098708
AYT,23,0,2024-06-29T09:52:24.879Z,english_155.wav,0,peel,232,19,5,Japanese,F,3,0.3,-52.88121257,1.15705679
AYT,23,0,2024-06-29T09:52:24.879Z,english_155.wav,0,peel,232,19,5,Japanese,F,4,0.32341667,48.31209788,0.66500292
AYT,24,0,2024-06-29T09:52:24.879Z,english_555.wav,0,peel,635,19,5,Japanese,F,0,0.0,69.49762262,1.08530069
AYT,24,0,2024-06-29T09:52:24.879Z,english_555.wav,0,peel,635,19,5,Japanese,F,1,0.1,42.72159746,0.99979939
AYT,24,0,2024-06-29T09:52:24.879Z,english_555.wav,0,peel,635,19,5,Japanese,F,2,0.2,96.74773092,1.75882447
AYT,24,0,2024-06-29T09:52:24.879Z,english_555.wav,0,peel,635,19,5,Japanese,F,3,0.3,-27.92411753,1.36775981
AYT,24,0,2024-06-29T09:52:24.879Z,english_555.wav,0,peel,635,19,5,Japanese,F,4,0.32341667,33.93273626,0.90104071
AYT,25,0,2024-06-29T09:52:24.879Z,english_331.wav,0,peel,404,19,5,Japanese,F,0,0.0,12.66323204,1.93220763
AYT,25,0,2024-06-29T09:52:24.879Z,english_331.wav,0,peel,404,19,5,Japanese,F,1,0.1,-81.78605138,1.48237299
AYT,25,0,2024-06-29T09:52:24.879Z,english_331.wav,0,peel,404,19,5,Japanese,F,2,0.2,59.07546792,1.15413743
AYT,25,0,2024-06-29T09:52:24.879Z,english_331.wav,0,peel,404,19,5,Japanese,F,3,0.3,-83.73170191,1.02182823
AYT,25,0,2024-06-29T09:52:24.879Z,english_331.wav,0,peel,404,19,5,Japanese,F,4,0.32341667,3.10587362,0.81670354
AYT,26,0,2024-06-29T09:52:24.879Z,english_801.wav,0,pill,317,19,5,Japanese,F,0,0.0,66.50571345,0.19311528
AYT,26,0,2024-06-29T09:52:24.879Z,english_801.wav,0,pill,317,19,5,Japanese,F,1,0.1,-53.03260979,0.48683601
AYT,26,0,2024-06-29T09:52:24.879Z,english_801.wav,0,pill,317,19,5,Japanese,F,2,0.2,-3.89459646,1.16293258
AYT,26,0,2024-06-29T09:52:24.879Z,english_801.wav,0,pill,317,19,5,Japanese,F,3,0.3,8.32951864,1.55734707
AYT,26,0,2024-06-29T09:52:24.879Z,english_801.wav,0,pill,317,19,5,Japanese,F,4,0.32341667,-87.46806733,0.63471681
AYT,27,0,2024-06-29T09:52:24.879Z,english_240.wav,0,pill,811,19,5,Japanese,F,0,0.0,-96.55121617,1.04823872
AYT,27,0,2024-06-29T09:52:24.879Z,english_240.wav,0,pill,811,19,5,Japanese,F,1,0.1,73.99435309,1.11556714
AYT,27,0,2024-06-29T09:52:24.879Z,english_240.wav,0,pill,811,19,5,Japanese,F,2,0.2,-27.17256968,0.68795106
AYT,27,0,2024-06-29T09:52:24.879Z,english_240.wav,0,pill,811,19,5,Japanese,F,3,0.3,-2.05185553,1.30325309
AYT,27,0,2024-06-29T09:52:24.879Z,english_240.wav,0,pill,811,19,5,Japanese,F,4,0.32341667,80.37406519,0.86977317
AYT,28,0,2024-06-29T09:52:24.879Z,english_650.wav,0,peel,523,19,5,Japanese,F,0,0.0,-14.34164867,1.10695192
AYT,28,0,2024-06-29T09:52:24.879Z,english_650.wav,0,peel,523,19,5,Japanese,F,1,0.1,-59.47569919,1.2442548
AYT,28,0,2024-06-29T09:52:24.879Z,english_650.wav,0,peel,523,19,5,Japanese,F,2,0.2,-47.0995584,0.31281267
AYT,28,0,2024-06-29T09:52:24.879Z,english_650.wav,0,peel,523,19,5,Japanese,F,3,0.3,-55.25841156,1.9869399
AYT,28,0,2024-06-29T09:52:24.879Z,english_650.wav,0,peel,523,19,5,Japanese,F,4,0.32341667,83.92345375,1.10607629
AYT,29,0,2024-06-29T09:52:24.879Z,english_688.wav,0,pill,441,19,5,Japanese,F,0,0.0,-45.64286614,1.06356906
AYT,29,0,2024-06-29T09:52:24.879Z,english_688.wav,0,pill,441,19,5,Japanese,F,1,0.1,39.73956276,0.85197809
AYT,29,0,2024-06-29T09:52:24.879Z,english_688.wav,0,pill,441,19,5,Japanese,F,2,0.2,40.53719602,0.68718846
AYT,29,0,2024-06-29T09:52:24.879Z,english_688.wav,0,pill,441,19,5,Japanese,F,3,0.3,-71.29470492,1.67995478
AYT,29,0,2024-06-29T09:52:24.879Z,english_688.wav,0,pill,441,19,5,Japanese,F,4,0.32341667,73.7490074,1.45979079
AYT,30,0,2024-06-29T09:52:24.879Z,english_546.wav,0,pill,563,19,5,Japanese,F,0,0.0,81.21590514,1.56657823
AYT,30,0,2024-06-29T09:52:24.879Z,english_546.wav,0,pill,563,19,5,Japanese,F,1,0.1,75.01018689,0.84038259
AYT,30,0,2024-06-29T09:52:24.879Z,english_546.wav,0,pill,563,19,5,Japanese,F,2,0.2,15.56226302,0.00684501
AYT,30,0,2024-06-29T09:52:24.879Z,english_546.wav,0,pill,563,19,5,Japanese,F,3,0.3,48.30886192,1.68157273
AYT,30,0,2024-06-29T09:52:24.879Z,english_546.wav,0,pill,563,19,5,Japanese,F,4,0.32341667,18.80923499,1.09409739
AYT,31,0,2024-06-29T09:52:24.879Z,english_674.wav,0,peel,257,19,5,Japanese,F,0,0.0,-38.60253285,0.25488683
AYT,31,0,2024-06-29T09:52:24.879Z,english_674.wav,0,peel,257,19,5,Japanese,F,1,0.1,46.14948962,1.80679583
AYT,31,0,2024-06-29T09:52:24.879Z,english_674.wav,0,peel,257,19,5,Japanese,F,2,0.2,-49.76414787,1.59420413
AYT,31,0,2024-06-29T09:52:24.879Z,english_674.wav,0,peel,257,19,5,Japanese,F,3,0.3,-66.16492387,1.25714797
AYT,31,0,2024-06-29T09:52:24.879Z,english_674.wav,0,peel,257,19,5,Japanese,F,4,0.32341667,28.37583826,1.20557216
AYT,32,0,2024-06-29T09:52:24.879Z,english_838.wav,0,pill,672,19,5,Japanese,F,0,0.0,-46.43239877,0.57293762
AYT,32,0,2024-06-29T09:52:24.879Z,english_838.wav,0,pill,672,19,5,Japanese,F,1,0.1,-0.77549132,1.65450135
AYT,32,0,2024-06-29T09:52:24.879Z,english_838.wav,0,pill,672,19,5,Japanese,F,2,0.2,-47.56158581,0.30574951
AYT,32,0,2024-06-29T09:52:24.879Z,english_838.wav,0,pill,672,19,5,Japanese,F,3,0.3,7.18116474,0.96315644
AYT,32,0,2024-06-29T09:52:24.879Z,english_838.wav,0,pill,672,19,5,Japanese,F,4,0.32341667,-87.38880816,0.83017899
AYT,33,0,2024-06-29T09:52:24.879Z,english_400.wav,0,peel,587,19,5,Japanese,F,0,0.0,-9.17924521,1.06898792
AYT,33,0,2024-06-29T09:52:24.879Z,english_400.wav,0,peel,587,19,5,Japanese,F,1,0.1,-51.0410118,0.05890524
AYT,33,0,2024-06-29T09:52:24.879Z,english_400.wav,0,peel,587,19,5,Japanese,F,2,0.2,66.2548805,1.54728483
AYT,33,0,2024-06-29T09:52:24.879Z,english_400.wav,0,peel,587,19,5,Japanese,F,3,0.3,92.33374018,1.43953162
AYT,33,0,2024-06-29T09:52:24.879Z,english_400.wav,0,peel,587,19,5,Japanese,F,4,0.32341667,-60.80730989,1.12546459
AYT,34,0,2024-06-29T09:52:24.879Z,english_943.wav,0,pill,561,19,5,Japanese,F,0,0.0,-88.39234314,0.07745413
AYT,34,0,2024-06-29T09:52:24.879Z,english_943.wav,0,pill,561,19,5,Japanese,F,1,0.1,65.27529367,1.64078214
AYT,34,0,2024-06-29T09:52:24.879Z,english_943.wav,0,pill,561,19,5,Japanese,F,2,0.2,-24.85222093,0.23468741
AYT,34,0,2024-06-29T09:52:24.879Z,english_943.wav,0,pill,561,19,5,Japanese,F,3,0.3,20.61002448,1.49561498
AYT,34,0,2024-06-29T09:52:24.879Z,english_943.wav,0,pill,561,19,5,Japanese,F,4,0.32341667,-74.64601709,1.25217021
AYT,35,0,2024-06-29T09:52:24.879Z,english_127.wav,0,peel,306,19,5,Japanese,F,0,0.0,-69.70750805,0.25070661
AYT,35,0,2024-06-29T09:52:24.879Z,english_127.wav,0,peel,306,19,5,Japanese,F,1,0.1,-23.17484413,1.1475992
AYT,35,0,2024-06-29T09:52:24.879Z,english_127.wav,0,peel,306,19,5,Japanese,F,2,0.2,16.27024862,1.99299371
AYT,35,0,2024-06-29T09:52:24.879Z,english_127.wav,0,peel,306,19,5,Japanese,F,3,0.3,-50.08342814,0.57749513
AYT,35,0,2024-06-29T09:52:24.879Z,english_127.wav,0,peel,306,19,5,Japanese,F,4,0.32341667,22.60332787,1.27832678
AYT,36,0,2024-06-29T09:52:24.879Z,english_120.wav,0,pill,412,19,5,Japanese,F,0,0.0,55.2306484,0.43658612
AYT,36,0,2024-06-29T09:52:24.879Z,english_120.wav,0,pill,412,19,5,Japanese,F,1,0.1,82.00530973,0.03999251
AYT,36,0,2024-06-29T09:52:24.879Z,english_120.wav,0,pill,412,19,5,Japanese,F,2,0.2,-5.84837635,0.80827096
AYT,36,0,2024-06-29T09:52:24.879Z,english_120.wav,0,pill,412,19,5,Japanese,F,3,0.3,66.20489525,1.78669421
AYT,36,0,2024-06-29T09:52:24.879Z,english_120.wav,0,pill,412,19,5,Japanese,F,4,0.32341667,-73.22302923,1.04341795
AYT,37,0,2024-06-29T09:52:24.879Z,english_985.wav,0,pill,670,19,5,Japanese,F,0,0.0,31.76144354,0.46805505
AYT,37,0,2024-06-29T09:52:24.879Z,english_985.wav,0,pill,670,19,5,Japanese,F,1,0.1,49.0534069,1.72857245
AYT,37,0,2024-06-29T09:52:24.879Z,english_985.wav,0,pill,670,19,5,Japanese,F,2,0.2,-59.14058353,0.05336254
AYT,37,0,2024-06-29T09:52:24.879Z,english_985.wav,0,pill,670,19,5,Japanese,F,3,0.3,-36.25561351,0.45417652
AYT,37,0,2024-06-29T09:52:24.879Z,english_985.wav,0,pill,670,19,5,Japanese,F,4,0.32341667,-53.50268286,1.33850641
AYT,38,0,2024-06-29T09:52:24.879Z,english_749.wav,0,peel,331,19,5,Japanese,F,0,0.0,-84.66020389,1.10062914
AYT,38,0,2024-06-29T09:52:24.879Z,english_749.wav,0,peel,331,19,5,Japanese,F,1,0.1,45.42505651,0.81865822
AYT,38,0,2024-06-29T09:52:24.879Z,english_749.wav,0,peel,331,19,5,Japanese,F,2,0.2,27.47623271,1.25164699
AYT,38,0,2024-06-29T09:52:24.879Z,english_749.wav,0,peel,331,19,5,Japanese,F,3,0.3,44.62305857,1.77685805
AYT,38,0,2024-06-29T09:52:24.879Z,english_749.wav,0,peel,331,19,5,Japanese,F,4,0.32341667,-87.62087265,0.97343419
AYT,39,0,2024-06-29T09:52:24.879Z,english_716.wav,0,peel,74,19,5,Japanese,F,0,0.0,-41.01159081,1.70683796
AYT,39,0,2024-06-29T09:52:24.879Z,english_716.wav,0,peel,74,19,5,Japanese,F,1,0.1,-51.78631031,1.57787804
AYT,39,0,2024-06-29T09:52:24.879Z,english_716.wav,0,peel,74,19,5,Japanese,F,2,0.2,-25.7252513,1.76538287
AYT,39,0,2024-06-29T09:52:24.879Z,english_716.wav,0,peel,74,19,5,Japanese,F,3,0.3,78.18950514,1.34280163
AYT,39,0,2024-06-29T09:52:24.879Z,english_716.wav,0,peel,74,19,5,Japanese,F,4,0.32341667,-26.78025651,1.89346788
AYT,40,0,2024-06-29T09:52:24.879Z,english_800.wav,0,pill,439,19,5,Japanese,F,0,0.0,-9.91001254,0.13142639
AYT,40,0,2024-06-29T09:52:24.879Z,english_800.wav,0,pill,439,19,5,Japanese,F,1,0.1,-86.79409322,1.71040153
AYT,40,0,2024-06-29T09:52:24.879Z,english_800.wav,0,pill,439,19,5,Japanese,F,2,0.2,-27.39997365,0.18637657
AYT,40,0,2024-06-29T09:52:24.879Z,english_800.wav,0,pill,439,19,5,Japanese,F,3,0.3,13.46737707,1.09766523
AYT,40,0,2024-06-29T09:52:24.879Z,english_800.wav,0,pill,439,19,5,Japanese,F,4,0.32341667,-32.56208711,1.57940615
AYT,41,0,2024-06-29T09:52:24.879Z,english_848.wav,0,peel,445,19,5,Japanese,F,0,0.0,43.30233352,0.12582596
AYT,41,0,2024-06-29T09:52:24.879Z,english_848.wav,0,peel,445,19,5,Japanese,F,1,0.1,-77.77691247,1.72621372
AYT,41,0,2024-06-29T09:52:24.879Z,english_848.wav,0,peel,445,19,5,Japanese,F,2,0.2,-68.99020863,1.753656
AYT,41,0,2024-06-29T09:52:24.879Z,english_848.wav,0,peel,445,19,5,Japanese,F,3,0.3,-43.68641023,1.37442753
AYT,41,0,2024-06-29T09:52:24.879Z,english_848.wav,0,peel,445,19,5,Japanese,F,4,0.32341667,-14.19502025,1.04930351
AYT,42,0,2024-06-29T09:52:24.879Z,english_67.wav,0,peel,1071,19,5,Japanese,F,0,0.0,70.16279698,0.73199358
AYT,42,0,2024-06-29T09:52:24.879Z,english_67.wav,0,peel,1071,19,5,Japanese,F,1,0.1,33.8182948,0.88382403
AYT,42,0,2024-06-29T09:52:24.879Z,english_67.wav,0,peel,1071,19,5,Japanese,F,2,0.2,-49.10498957,1.67993254
AYT,42,0,2024-06-29T09:52:24.879Z,english_67.wav,0,peel,1071,19,5,Japanese,F,3,0.3,-4.93823124,0.24455532
AYT,42,0,2024-06-29T09:52:24.879Z,english_67.wav,0,peel,1071,19,5,Japanese,F,4,0.32341667,24.09614703,1.99747442
AYT,43,0,2024-06-29T09:52:24.879Z,english_478.wav,0,peel,551,19,5,Japanese,F,0,0.0,-70.9954821,0.91489342
AYT,43,0,2024-06-29T09:52:24.879Z,english_478.wav,0,peel,551,19,5,Japanese,F,1,0.1,18.763036,1.0325944
AYT,43,0,2024-06-29T09:52:24.879Z,english_478.wav,0,peel,551,19,5,Japanese,F,2,0.2,84.30682023,1.47139294
AYT,43,0,2024-06-29T09:52:24.879Z,english_478.wav,0,peel,551,19,5,Japanese,F,3,0.3,96.70790152,0.31719256
AYT,43,0,2024-06-29T09:52:24.879Z,english_478.wav,0,peel,551,19,5,Japanese,F,4,0.32341667,-65.75430749,1.1469235
AYT,44,0,2024-06-29T09:52:24.879Z,english_98.wav,0,pill,559,19,5,Japanese,F,0,0.0,-23.07451683,0.55932234
AYT,44,0,2024-06-29T09:52:24.879Z,english_98.wav,0,pill,559,19,5,Japanese,F,1,0.1,58.83766866,1.03192869
AYT,44,0,2024-06-29T09:52:24.879Z,english_98.wav,0,pill,559,19,5,Japanese,F,2,0.2,75.90401246,1.16154403
AYT,44,0,2024-06-29T09:52:24.879Z,english_98.wav,0,pill,559,19,5,Japanese,F,3,0.3,-86.31256295,0.50819795
AYT,44,0,2024-06-29T09:52:24.879Z,english_98.wav,0,pill,559,19,5,Japanese,F,4,0.32341667,26.17624316,1.94690859
AYT,45,0,2024-06-29T09:52:24.879Z,english_124.wav,0,peel,411,19,5,Japanese,F,0,0.0,-16.92140416,1.25482105
AYT,45,0,2024-06-29T09:52:24.879Z,english_124.wav,0,peel,411,19,5,Japanese,F,1,0.1,97.41289205,1.97830042
AYT,45,0,2024-06-29T09:52:24.879Z,english_124.wav,0,peel,411,19,5,Japanese,F,2,0.2,-78.49167412,1.09846955
AYT,45,0,2024-06-29T09:52:24.879Z,english_124.wav,0,peel,411,19,5,Japanese,F,3,0.3,-3.48618202,0.36540564
AYT,45,0,2024-06-29T09:52:24.879Z,english_124.wav,0,peel,411,19,5,Japanese,F,4,0.32341667,5.32047068,0.96325389
AYT,46,0,2024-06-29T09:52:24.879Z,english_672.wav,0,peel,408,19,5,Japanese,F,0,0.0,30.04022321,0.7872581
AYT,46,0,2024-06-29T09:52:24.879Z,english_672.wav,0,peel,408,19,5,Japanese,F,1,0.1,-49.20146972,1.24822874
AYT,46,0,2024-06-29T09:52:24.879Z,english_672.wav,0,peel,408,19,5,Japanese,F,2,0.2,68.57510342,1.0921985
AYT,46,0,2024-06-29T09:52:24.879Z,english_672.wav,0,peel,408,19,5,Japanese,F,3,0.3,46.99705545,1.42682896
AYT,46,0,2024-06-29T09:52:24.879Z,english_672.wav,0,peel,408,19,5,Japanese,F,4,0.32341667,-96.75951233,0.39437363
AYT,47,0,2024-06-29T09:52:24.879Z,english_93.wav,0,pill,684,19,5,Japanese,F,0,0.0,-63.58558414,0.84265136
AYT,47,0,2024-06-29T09:52:24.879Z,english_93.wav,0,pill,684,19,5,Japanese,F,1,0.1,47.93190562,0.45441634
AYT,47,0,2024-06-29T09:52:24.879Z,english_93.wav,0,pill,684,19,5,Japanese,F,2,0.2,74.1463043,1.33476805
AYT,47,0,2024-06-29T09:52:24.879Z,english_93.wav,0,pill,684,19,5,Japanese,F,3,0.3,46.42515129,0.61821532
AYT,47,0,2024-06-29T09:52:24.879Z,english_93.wav,0,pill,684,19,5,Japanese,F,4,0.32341667,-19.17332826,1.94889868
AYT,48,0,2024-06-29T09:52:24.879Z,english_144.wav,0,pill,534,19,5,Japanese,F,0,0.0,-68.95587174,0.23806678
AYT,48,0,2024-06-29T09:52:24.879Z,english_144.wav,0,pill,534,19,5,Japanese,F,1,0.1,-74.16141139,0.77020267
AYT,48,0,2024-06-29T09:52:24.879Z,english_144.wav,0,pill,534,19,5,Japanese,F,2,0.2,-19.31034794,0.33858197
AYT,48,0,2024-06-29T09:52:24.879Z,english_144.wav,0,pill,534,19,5,Japanese,F,3,0.3,-77.96768175,1.42512122
AYT,48,0,2024-06-29T09:52:24.879Z,english_144.wav,0,pill,534,19,5,Japanese,F,4,0.32341667,3.46911061,0.57629619
AYT,49,0,2024-06-29T09:52:24.879Z,english_675.wav,0,peel,260,19,5,Japanese,F,0,0.0,-31.75128323,1.35198954
AYT,49,0,2024-06-29T09:52:24.879Z,english_675.wav,0,peel,260,19,5,Japanese,F,1,0.1,60.52679753,1.32787853
AYT,49,0,2024-06-29T09:52:24.879Z,english_675.wav,0,peel,260,19,5,Japanese,F,2,0.2,-22.8835824,1.57632911
AYT,49,0,2024-06-29T09:52:24.879Z,english_675.wav,0,peel,260,19,5,Japanese,F,3,0.3,-6.32596177,0.80140737
AYT,49,0,2024-06-29T09:52:24.879Z,english_675.wav,0,peel,260,19,5,Japanese,F,4,0.32341667,-61.06491024,0.99818917
AYT,50,1,2024-06-29T09:55:10.463Z,english_36.wav,0,pill,710,19,5,Japanese,F,0,0.0,8.79498818,0.0614271
AYT,50,1,2024-06-29T09:55:10.463Z,english_36.wav,0,pill,710,19,5,Japanese,F,1,0.1,-18.99628775,0.22652961
AYT,50,1,2024-06-29T09:55:10.463Z,english_36.wav,0,pill,710,19,5,Japanese,F,2,0.2,-17.40156662,0.46484299
AYT,50,1,2024-06-29T09:55:10.463Z,english_36.wav,0,pill,710,19,5,Japanese,F,3,0.3,-85.73958234,0.81464033
AYT,50,1,2024-06-29T09:55:10.463Z,english_36.wav,0,pill,710,19,5,Japanese,F,4,0.32341667,45.44069908,0.21843777
AYT,51,1,2024-06-29T09:55:10.463Z,english_858.wav,0,peel,673,19,5,Japanese,F,0,0.0,45.12570132,0.50395823
AYT,51,1,2024-06-29T09:55:10.463Z,english_858.wav,0,peel,673,19,5,Japanese,F,1,0.1,-46.71359417,1.50658612
AYT,51,1,2024-06-29T09:55:10.463Z,english_858.wav,0,peel,673,19,5,Japanese,F,2,0.2,-60.32464978,0.86887416
AYT,51,1,2024-06-29T09:55:10.463Z,english_858.wav,0,peel,673,19,5,Japanese,F,3,0.3,-70.46241098,0.20520469
AYT,51,1,2024-06-29T09:55:10.463Z,english_858.wav,0,peel,673,19,5,Japanese,F,4,0.32341667,76.51169453,1.05885662
AYT,52,1,2024-06-29T09:55:10.463Z,english_57.wav,0,pill,693,19,5,Japanese,F,0,0.0,-27.39668164,1.97835384
AYT,52,1,2024-06-29T09:55:10.463Z,english_57.wav,0,pill,693,19,5,Japanese,F,1,0.1,63.52389761,0.69906452
AYT,52,1,2024-06-29T09:55:10.463Z,english_57.wav,0,pill,693,19,5,Japanese,F,2,0.2,-55.42033209,0.75389415
AYT,52,1,2024-06-29T09:55:10.463Z,english_57.wav,0,pill,693,19,5,Japanese,F,3,0.3,40.81906742,0.20375649
AYT,52,1,2024-06-29T09:55:10.463Z,english_57.wav,0,pill,693,19,5,Japanese,F,4,0.32341667,-12.75543821,1.65585112
AYT,53,1,2024-06-29T09:55:10.463Z,english_963.wav,0,peel,328,19,5,Japanese,F,0,0.0,-60.03327616,0.86711865
AYT,53,1,2024-06-29T09:55:10.463Z,english_963.wav,0,peel,328,19,5,Japanese,F,1,0.1,-15.51067414,1.69273621
AYT,53,1,2024-06-29T09:55:10.463Z,english_963.wav,0,peel,328,19,5,Japanese,F,2,0.2,59.36715957,0.74157302
AYT,53,1,2024-06-29T09:55:10.463Z,english_963.wav,0,peel,328,19,5,Japanese,F,3,0.3,-98.70464219,1.73078555
AYT,53,1,2024-06-29T09:55:10.463Z,english_963.wav,0,peel,328,19,5,Japanese,F,4,0.32341667,37.26723218,1.37482324
AYT,54,1,2024-06-29T09:55:10.463Z,english_3.wav,0,peel,337,19,5,Japanese,F,0,0.0,-57.66547148,1.73485112
AYT,54,1,2024-06-29T09:55:10.463Z,english_3.wav,0,peel,337,19,5,Japanese,F,1,0.1,-70.60568286,1.4226462
AYT,54,1,2024-06-29T09:55:10.463Z,english_3.wav,0,peel,337,19,5,Japanese,F,2,0.2,70.86912423,1.06235888
AYT,54,1,2024-06-29T09:55:10.463Z,english_3.wav,0,peel,337,19,5,Japanese,F,3,0.3,-17.39285893,1.05619652
AYT,54,1,2024-06-29T09:55:10.463Z,english_3.wav,0,peel,337,19,5,Japanese,F,4,0.32341667,-60.61780379,1.35606233
AYT,55,1,2024-06-29T09:55:10.463Z,english_374.wav,0,peel,549,19,5,Japanese,F,0,0.0,-43.98521466,1.11607514
AYT,55,1,2024-06-29T09:55:10.463Z,english_374.wav,0,peel,549,19,5,Japanese,F,1,0.1,-24.87181663,0.38249505
AYT,55,1,2024-06-29T09:55:10.463Z,english_374.wav,0,peel,549,19,5,Japanese,F,2,0.2,-29.31566683,1.56774755
AYT,55,1,2024-06-29T09:55:10.463Z,english_374.wav,0,peel,549,19,5,Japanese,F,3,0.3,-43.36019392,1.33837662
AYT,55,1,2024-06-29T09:55:10.463Z,english_374.wav,0,peel,549,19,5,Japanese,F,4,0.32341667,-35.5175379,0.68793086
AYT,56,1,2024-06-29T09:55:10.463Z,english_493.wav,0,peel,275,19,5,Japanese,F,0,0.0,42.62366846,0.72879325
AYT,56,1,2024-06-29T09:55:10.463Z,english_493.wav,0,peel,275,19,5,Japanese,F,1,0.1,-24.95330968,1.87742997
AYT,56,1,2024-06-29T09:55:10.463Z,english_493.wav,0,peel,275,19,5,Japanese,F,2,0.2,82.3526737,1.69463318
AYT,56,1,2024-06-29T09:55:10.463Z,english_493.wav,0,peel,275,19,5,Japanese,F,3,0.3,53.78370402,0.82529142
AYT,56,1,2024-06-29T09:55:10.463Z,english_493.wav,0,peel,275,19,5,Japanese,F,4,0.32341667,-52.5410085,0.10126548
AYT,57,1,2024-06-29T09:55:10.463Z,english_404.wav,0,peel,273,19,5,Japanese,F,0,0.0,32.93077195,0.80618862
AYT,57,1,2024-06-29T09:55:10.463Z,english_404.wav,0,peel,273,19,5,Japanese,F,1,0.1,51.79107477,1.03327995
AYT,57,1,2024-06-29T09:55:10.463Z,english_404.wav,0,peel,273,19,5,Japanese,F,2,0.2,-61.91466198,1.39590152
AYT,57,1,2024-06-29T09:55:10.463Z,english_404.wav,0,peel,273,19,5,Japanese,F,3,0.3,33.45957754,1.8615638
AYT,57,1,2024-06-29T09:55:10.463Z,english_404.wav,0,peel,273,19,5,Japanese,F,4,0.32341667,-82.23793256,0.80137687
AYT,58,1,2024-06-29T09:55:10.463Z,english_224.wav,0,pill,1078,19,5,Japanese,F,0,0.0,-3.31597843,0.45157501
AYT,58,1,2024-06-29T09:55:10.463Z,english_224.wav,0,pill,1078,19,5,Japanese,F,1,0.1,-35.19448657,1.77513434
AYT,58,1,2024-06-29T09:55:10.463Z,english_224.wav,0,pill,1078,19,5,Japanese,F,2,0.2,-54.62049262,0.36912314
AYT,58,1,2024-06-29T09:55:10.463Z,english_224.wav,0,pill,1078,19,5,Japanese,F,3,0.3,50.12510099,1.67171916
AYT,58,1,2024-06-29T09:55:10.463Z,english_224.wav,0,pill,1078,19,5,Japanese,F,4,0.32341667,96.66013203,1.16069525
AYT,59,1,2024-06-29T09:55:10.463Z,english_28.wav,0,pill,562,19,5,Japanese,F,0,0.0,46.68805065,0.37315412
AYT,59,1,2024-06-29T09:55:10.463Z,english_28.wav,0,pill,562,19,5,Japanese,F,1,0.1,-19.91180265,0.08560602
AYT,59,1,2024-06-29T09:55:10.463Z,english_28.wav,0,pill,562,19,5,Japanese,F,2,0.2,30.74929008,0.67724734
AYT,59,1,2024-06-29T09:55:10.463Z,english_28.wav,0,pill,562,19,5,Japanese,F,3,0.3,14.01537548,0.53332652
AYT,59,1,2024-06-29T09:55:10.463Z,english_28.wav,0,pill,562,19,5,Japanese,F,4,0.32341667,-32.95915121,1.33480721
AYT,60,1,2024-06-29T09:55:10.463Z,english_632.wav,0,peel,1375,19,5,Japanese,F,0,0.0,-56.22391322,1.21249895
AYT,60,1,2024-06-29T09:55:10.463Z,english_632.wav,0,peel,1375,19,5,Japanese,F,1,0.1,-47.59423942,0.39515719
AYT,60,1,2024-06-29T09:55:10.463Z,english_632.wav,0,peel,1375,19,5,Japanese,F,2,0.2,91.93727259,1.8528852
AYT,60,1,2024-06-29T09:55:10.463Z,english_632.wav,0,peel,1375,19,5,Japanese,F,3,0.3,-33.89646621,1.67254104
AYT,60,1,2024-06-29T09:55:10.463Z,english_632.wav,0,peel,1375,19,5,Japanese,F,4,0.32341667,46.88387871,1.21014685
AYT,61,1,2024-06-29T09:55:10.463Z,english_523.wav,0,pill,1042,19,5,Japanese,F,0,0.0,8.07414344,0.20594791
AYT,61,1,2024-06-29T09:55:10.463Z,english_523.wav,0,pill,1042,19,5,Japanese,F,1,0.1,27.61667564,1.87511385
AYT,61,1,2024-06-29T09:55:10.463Z,english_523.wav,0,pill,1042,19,5,Japanese,F,2,0.2,12.25175146,0.19246655
AYT,61,1,2024-06-29T09:55:10.463Z,english_523.wav,0,pill,1042,19,5,Japanese,F,3,0.3,5.7333769,0.42766967
AYT,61,1,2024-06-29T09:55:10.463Z,english_523.wav,0,pill,1042,19,5,Japanese,F,4,0.32341667,77.72310536,1.43882185
AYT,62,1,2024-06-29T09:55:10.463Z,english_699.wav,0,peel,1605,19,5,Japanese,F,0,0.0,-21.84844695,0.55007596
AYT,62,1,2024-06-29T09:55:10.463Z,english_699.wav,0,peel,1605,19,5,Japanese,F,1,0.1,-20.61050251,0.98595355
AYT,62,1,2024-06-29T09:55:10.463Z,english_699.wav,0,peel,1605,19,5,Japanese,F,2,0.2,-7.57046677,1.16771202
AYT,62,1,2024-06-29T09:55:10.463Z,english_699.wav,0,peel,1605,19,5,Japanese,F,3,0.3,-90.18255135,0.60930532
AYT,62,1,2024-06-29T09:55:10.463Z,english_699.wav,0,peel,1605,19,5,Japanese,F,4,0.32341667,-39.12532958,1.39260434
AYT,63,1,2024-06-29T09:55:10.463Z,english_909.wav,0,peel,1647,19,5,Japanese,F,0,0.0,-19.4205152,0.17681169
AYT,63,1,2024-06-29T09:55:10.463Z,english_909.wav,0,peel,1647,19,5,Japanese,F,1,0.1,-31.830868,1.02014656
AYT,63,1,2024-06-29T09:55:10.463Z,english_909.wav,0,peel,1647,19,5,Japanese,F,2,0.2,71.05598051,1.59945112
AYT,63,1,2024-06-29T09:55:10.463Z,english_909.wav,0,peel,1647,19,5,Japanese,F,3,0.3,-13.09259164,1.33685121
AYT,63,1,2024-06-29T09:55:10.463Z,english_909.wav,0,peel,1647,19,5,Japanese,F,4,0.32341667,-99.47743822,0.41114962
AYT,64,1,2024-06-29T09:55:10.463Z,english_564.wav,0,pill,698,19,5,Japanese,F,0,0.0,-4.16228192,1.35245187
AYT,64,1,2024-06-29T09:55:10.463Z,english_564.wav,0,pill,698,19,5,Japanese,F,1,0.1,-8.38376801,0.24798142
AYT,64,1,2024-06-29T09:55:10.463Z,english_564.wav,0,pill,698,19,5,Japanese,F,2,0.2,52.82752554,1.26376743
AYT,64,1,2024-06-29T09:55:10.463Z,english_564.wav,0,pill,698,19,5,Japanese,F,3,0.3,-92.64870354,0.73548171
AYT,64,1,2024-06-29T09:55:10.463Z,english_564.wav,0,pill,698,19,5,Japanese,F,4,0.32341667,-48.86146536,0.1394123
AYT,65,1,2024-06-29T09:55:10.463Z,english_72.wav,0,pill,508,19,5,Japanese,F,0,0.0,3.79788214,1.04175162
AYT,65,1,2024-06-29T09:55:10.463Z,english_72.wav,0,pill,508,19,5,Japanese,F,1,0.1,-35.73428138,0.91099175
AYT,65,1,2024-06-29T09:55:10.463Z,english_72.wav,0,pill,508,19,5,Japanese,F,2,0.2,-30.83181688,0.34322307
AYT,65,1,2024-06-29T09:55:10.463Z,english_72.wav,0,pill,508,19,5,Japanese,F,3,0.3,-68.4260973,1.39599539
AYT,65,1,2024-06-29T09:55:10.463Z,english_72.wav,0,pill,508,19,5,Japanese,F,4,0.32341667,-10.87667298,0.78322702
AYT,66,1,2024-06-29T09:55:10.463Z,english_164.wav,0,pill,1021,19,5,Japanese,F,0,0.0,-18.99376005,1.91320144
AYT,66,1,2024-06-29T09:55:10.463Z,english_164.wav,0,pill,1021,19,5,Japanese,F,1,0.1,-38.65269109,0.23857652
AYT,66,1,2024-06-29T09:55:10.463Z,english_164.wav,0,pill,1021,19,5,Japanese,F,2,0.2,64.75288033,1.41883879
AYT,66,1,2024-06-29T09:55:10.463Z,english_164.wav,0,pill,1021,19,5,Japanese,F,3,0.3,-33.8407164,1.34667564
AYT,66,1,2024-06-29T09:55:10.463Z,english_164.wav,0,pill,1021,19,5,Japanese,F,4,0.32341667,27.96502681,0.04602263
AYT,67,1,2024-06-29T09:55:10.463Z,english_923.wav,0,peel,481,19,5,Japanese,F,0,0.0,-0.59122564,1.19594648
AYT,67,1,2024-06-29T09:55:10.463Z,english_923.wav,0,peel,481,19,5,Japanese,F,1,0.1,-5.70499959,1.05419104
AYT,67,1,2024-06-29T09:55:10.463Z,english_923.wav,0,peel,481,19,5,Japanese,F,2,0.2,-29.88927864,0.73000078
AYT,67,1,2024-06-29T09:55:10.463Z,english_923.wav,0,peel,481,19,5,Japanese,F,3,0.3,-82.02126299,1.36390543
AYT,67,1,2024-06-29T09:55:10.463Z,english_923.wav,0,peel,481,19,5,Japanese,F,4,0.32341667,16.89967319,1.13865732
AYT,68,1,2024-06-29T09:55:10.463Z,english_198.wav,0,peel,1672,19,5,Japanese,F,0,0.0,-3.53881338,0.6033193
AYT,68,1,2024-06-29T09:55:10.463Z,english_198.wav,0,peel,1672,19,5,Japanese,F,1,0.1,58.04445454,0.57837506
AYT,68,1,2024-06-29T09:55:10.463Z,english_198.wav,0,peel,1672,19,5,Japanese,F,2,0.2,67.39523563,1.37850613
AYT,68,1,2024-06-29T09:55:10.463Z,english_198.wav,0,peel,1672,19,5,Japanese,F,3,0.3,56.58835275,0.73107668
AYT,68,1,2024-06-29T09:55:10.463Z,english_198.wav,0,peel,1672,19,5,Japanese,F,4,0.32341667,7.34595052,0.42006089
AYT,69,1,2024-06-29T09:55:10.463Z,english_427.wav,0,pill,478,19,5,Japanese,F,0,0.0,38.10585738,0.62221409
AYT,69,1,2024-06-29T09:55:10.463Z,english_427.wav,0,pill,478,19,5,Japanese,F,1,0.1,75.26959407,1.20145201
AYT,69,1,2024-06-29T09:55:10.463Z,english_427.wav,0,pill,478,19,5,Japanese,F,2,0.2,-92.48152235,0.18894815
AYT,69,1,2024-06-29T09:55:10.463Z,english_427.wav,0,pill,478,19,5,Japanese,F,3,0.3,-38.24940669,0.36527681
AYT,69,1,2024-06-29T09:55:10.463Z,english_427.wav,0,pill,478,19,5,Japanese,F,4,0.32341667,-41.67637111,0.02898627
AYT,70,1,2024-06-29T09:55:10.463Z,english_215.wav,0,peel,416,19,5,Japanese,F,0,0.0,-93.71362427,1.31176069
AYT,70,1,2024-06-29T09:55:10.463Z,english_215.wav,0,peel,416,19,5,Japanese,F,1,0.1,20.4696733,1.25536714
AYT,70,1,2024-06-29T09:55:10.463Z,english_215.wav,0,peel,416,19,5,Japanese,F,2,0.2,-66.57352715,1.5696385
AYT,70,1,2024-06-29T09:55:10.463Z,english_215.wav,0,peel,416,19,5,Japanese,F,3,0.3,-0.6079782,0.03144419
AYT,70,1,2024-06-29T09:55:10.463Z,english_215.wav,0,peel,416,19,5,Japanese,F,4,0.32341667,-5.73921948,0.79048669
AYT,71,1,2024-06-29T09:55:10.463Z,english_423.wav,0,peel,404,19,5,Japanese,F,0,0.0,48.83941012,1.35290702
AYT,71,1,2024-06-29T09:55:10.463Z,english_423.wav,0,peel,404,19,5,Japanese,F,1,0.1,26.57948938,1.33919202
AYT,71,1,2024-06-29T09:55:10.463Z,english_423.wav,0,peel,404,19,5,Japanese,F,2,0.2,56.70545245,1.37149513
AYT,71,1,2024-06-29T09:55:10.463Z,english_423.wav,0,peel,404,19,5,Japanese,F,3,0.3,-62.41131033,1.11357765
AYT,71,1,2024-06-29T09:55:10.463Z,english_423.wav,0,peel,404,19,5,Japanese,F,4,0.32341667,78.49803502,1.20699722
AYT,72,1,2024-06-29T09:55:10.463Z,english_496.wav,0,peel,524,19,5,Japanese,F,0,0.0,-50.36729616,1.24588939
AYT,72,1,2024-06-29T09:55:10.463Z,english_496.wav,0,peel,524,19,5,Japanese,F,1,0.1,43.15166092,1.651593
AYT,72,1,2024-06-29T09:55:10.463Z,english_496.wav,0,peel,524,19,5,Japanese,F,2,0.2,-89.08132341,0.94120535
AYT,72,1,2024-06-29T09:55:10.463Z,english_496.wav,0,peel,524,19,5,Japanese,F,3,0.3,-31.93753525,0.55989053
AYT,72,1,2024-06-29T09:55:10.463Z,english_496.wav,0,peel,524,19,5,Japanese,F,4,0.32341667,-79.66514086,1.95233748
AYT,73,1,2024-06-29T09:55:10.463Z,english_869.wav,0,pill,274,19,5,Japanese,F,0,0.0,31.82870938,0.91730192
AYT,73,1,2024-06-29T09:55:10.463Z,english_869.wav,0,pill,274,19,5,Japanese,F,1,0.1,55.69153841,1.54634356
AYT,73,1,2024-06-29T09:55:10.463Z,english_869.wav,0,pill,274,19,5,Japanese,F,2,0.2,44.83997999,0.32401745
AYT,73,1,2024-06-29T09:55:10.463Z,english_869.wav,0,pill,274,19,5,Japanese,F,3,0.3,-64.6596515,1.34292926
AYT,73,1,2024-06-29T09:55:10.463Z,english_869.wav,0,pill,274,19,5,Japanese,F,4,0.32341667,-51.58434075,0.99771643
AYT,74,1,2024-06-29T09:55:10.463Z,english_925.wav,0,peel,349,19,5,Japanese,F,0,0.0,-23.38055082,1.07708889
AYT,74,1,2024-06-29T09:55:10.463Z,english_925.wav,0,peel,349,19,5,Japanese,F,1,0.1,12.69502826,1.65606803
AYT,74,1,2024-06-29T09:55:10.463Z,english_925.wav,0,peel,349,19,5,Japanese,F,2,0.2,77.53463838,0.48648737
AYT,74,1,2024-06-29T09:55:10.463Z,english_925.wav,0,peel,349,19,5,Japanese,F,3,0.3,58.05299948,0.8939016
AYT,74,1,2024-06-29T09:55:10.463Z,english_925.wav,0,peel,349,19,5,Japanese,F,4,0.32341667,54.12197927,0.72199492
AYT,75,1,2024-06-29T09:55:10.463Z,english_145.wav,0,pill,473,19,5,Japanese,F,0,0.0,-29.75830226,1.9441914
AYT,75,1,2024-06-29T09:55:10.463Z,english_145.wav,0,pill,473,19,5,Japanese,F,1,0.1,0.94664025,0.04744273
AYT,75,1,2024-06-29T09:55:10.463Z,english_145.wav,0,pill,473,19,5,Japanese,F,2,0.2,-55.39340023,1.27144901
AYT,75,1,2024-06-29T09:55:10.463Z,english_145.wav,0,pill,473,19,5,Japanese,F,3,0.3,-49.58722608,0.20842421
AYT,75,1,2024-06-29T09:55:10.463Z,english_145.wav,0,pill,473,19,5,Japanese,F,4,0.32341667,-83.35110665,0.85478836
AYT,76,1,2024-06-29T09:55:10.463Z,english_332.wav,0,peel,463,19,5,Japanese,F,0,0.0,-51.41680869,1.58782391
AYT,76,1,2024-06-29T09:55:10.463Z,english_332.wav,0,peel,463,19,5,Japanese,F,1,0.1,4.985172,0.72138411
AYT,76,1,2024-06-29T09:55:10.463Z,english_332.wav,0,peel,463,19,5,Japanese,F,2,0.2,88.20327684,1.12265768
AYT,76,1,2024-06-29T09:55:10.463Z,english_332.wav,0,peel,463,19,5,Japanese,F,3,0.3,-58.40734817,0.23569111
AYT,76,1,2024-06-29T09:55:10.463Z,english_332.wav,0,peel,463,19,5,Japanese,F,4,0.32341667,68.30800912,1.23583309
AYT,77,1,2024-06-29T09:55:10.463Z,english_759.wav,0,pill,599,19,5,Japanese,F,0,0.0,22.56482953,0.32974928
AYT,77,1,2024-06-29T09:55:10.463Z,english_759.wav,0,pill,599,19,5,Japanese,F,1,0.1,-26.57515882,0.74944663
AYT,77,1,2024-06-29T09:55:10.463Z,english_759.wav,0,pill,599,19,5,Japanese,F,2,0.2,58.52096087,0.73148935
AYT,77,1,2024-06-29T09:55:10.463Z,english_759.wav,0,pill,599,19,5,Japanese,F,3,0.3,67.88336338,0.69769471
AYT,77,1,2024-06-29T09:55:10.463Z,english_759.wav,0,pill,599,19,5,Japanese,F,4,0.32341667,-98.7178367,1.46371733
AYT,78,1,2024-06-29T09:55:10.463Z,english_791.wav,0,peel,424,19,5,Japanese,F,0,0.0,65.91759783,1.00744019
AYT,78,1,2024-06-29T09:55:10.463Z,english_791.wav,0,peel,424,19,5,Japanese,F,1,0.1,-36.70731143,0.67929445
AYT,78,1,2024-06-29T09:55:10.463Z,english_791.wav,0,peel,424,19,5,Japanese,F,2,0.2,67.54354156,0.95779159
AYT,78,1,2024-06-29T09:55:10.463Z,english_791.wav,0,peel,424,19,5,Japanese,F,3,0.3,2.89249458,1.93585264
AYT,78,1,2024-06-29T09:55:10.463Z,english_791.wav,0,peel,424,19,5,Japanese,F,4,0.32341667,-55.92630603,0.7587469
AYT,79,1,2024-06-29T09:55:10.463Z,english_961.wav,0,peel,446,19,5,Japanese,F,0,0.0,20.81275789,1.87720953
AYT,79,1,2024-06-29T09:55:10.463Z,english_961.wav,0,peel,446,19,5,Japanese,F,1,0.1,46.48072234,1.43497285
AYT,79,1,2024-06-29T09:55:10.463Z,english_961.wav,0,peel,446,19,5,Japanese,F,2,0.2,79.36291712,1.9095844
AYT,79,1,2024-06-29T09:55:10.463Z,english_961.wav,0,peel,446,19,5,Japanese,F,3,0.3,7.86976501,0.20821065
AYT,79,1,2024-06-29T09:55:10.463Z,english_961.wav,0,peel,446,19,5,Japanese,F,4,0.32341667,-45.45751668,0.0640973
AYT,80,1,2024-06-29T09:55:10.463Z,english_887.wav,0,peel,865,19,5,Japanese,F,0,0.0,21.36154006,0.58574694
AYT,80,1,2024-06-29T09:55:10.463Z,english_887.wav,0,peel,865,19,5,Japanese,F,1,0.1,-21.46213737,0.48413962
AYT,80,1,2024-06-29T09:55:10.463Z,english_887.wav,0,peel,865,19,5,Japanese,F,2,0.2,-45.53850124,1.16923549
AYT,80,1,2024-06-29T09:55:10.463Z,english_887.wav,0,peel,865,19,5,Japanese,F,3,0.3,-75.36110743,1.46190157
AYT,80,1,2024-06-29T09:55:10.463Z,english_887.wav,0,peel,865,19,5,Japanese,F,4,0.32341667,-96.67184991,0.00789239
AYT,81,1,2024-06-29T09:55:10.463Z,english_310.wav,0,pill,852,19,5,Japanese,F,0,0.0,82.1385274,0.14341218
AYT,81,1,2024-06-29T09:55:10.463Z,english_310.wav,0,pill,852,19,5,Japanese,F,1,0.1,-33.74608058,1.80934389
AYT,81,1,2024-06-29T09:55:10.463Z,english_310.wav,0,pill,852,19,5,Japanese,F,2,0.2,62.12487376,1.28785402
AYT,81,1,2024-06-29T09:55:10.463Z,english_310.wav,0,pill,852,19,5,Japanese,F,3,0.3,96.31437548,1.13060378
AYT,81,1,2024-06-29T09:55:10.463Z,english_310.wav,0,pill,852,19,5,Japanese,F,4,0.32341667,-23.64802517,1.05137249
AYT,82,1,2024-06-29T09:55:10.463Z,english_560.wav,0,peel,934,19,5,Japanese,F,0,0.0,6.26341837,1.61909233
AYT,82,1,2024-06-29T09:55:10.463Z,english_560.wav,0,peel,934,19,5,Japanese,F,1,0.1,-94.10474965,0.93851614
AYT,82,1,2024-06-29T09:55:10.463Z,english_560.wav,0,peel,934,19,5,Japanese,F,2,0.2,-43.88069215,1.37910144
AYT,82,1,2024-06-29T09:55:10.463Z,english_560.wav,0,peel,934,19,5,Japanese,F,3,0.3,-26.3559156,1.10578935
AYT,82,1,2024-06-29T09:55:10.463Z,english_560.wav,0,peel,934,19,5,Japanese,F,4,0.32341667,-91.38105747,0.02070647
AYT,83,1,2024-06-29T09:55:10.463Z,english_291.wav,0,peel,492,19,5,Japanese,F,0,0.0,-23.91479102,1.25533579
AYT,83,1,2024-06-29T09:55:10.463Z,english_291.wav,0,peel,492,19,5,Japanese,F,1,0.1,-31.34063508,0.8599513
AYT,83,1,2024-06-29T09:55:10.463Z,english_291.wav,0,peel,492,19,5,Japanese,F,2,0.2,-16.29866726,1.40556138
AYT,83,1,2024-06-29T09:55:10.463Z,english_291.wav,0,peel,492,19,5,Japanese,F,3,0.3,10.36632866,0.42924112
AYT,83,1,2024-06-29T09:55:10.463Z,english_291.wav,0,peel,492,19,5,Japanese,F,4,0.32341667,7.35722843,0.61564446
AYT,84,1,2024-06-29T09:55:10.463Z,english_447.wav,0,pill,312,19,5,Japanese,F,0,0.0,38.77193801,0.52212734
AYT,84,1,2024-06-29T09:55:10.463Z,english_447.wav,0,pill,312,19,5,Japanese,F,1,0.1,-3.53992528,0.58948567
AYT,84,1,2024-06-29T09:55:10.463Z,english_447.wav,0,pill,312,19,5,Japanese,F,2,0.2,54.1888363,0.60662966
AYT,84,1,2024-06-29T09:55:10.463Z,english_447.wav,0,pill,312,19,5,Japanese,F,3,0.3,-95.90180003,0.73195254
AYT,84,1,2024-06-29T09:55:10.463Z,english_447.wav,0,pill,312,19,5,Japanese,F,4,0.32341667,48.32118178,0.21856551
AYT,85,1,2024-06-29T09:55:10.463Z,english_283.wav,0,pill,516,19,5,Japanese,F,0,0.0,-27.01977409,1.23470843
AYT,85,1,2024-06-29T09:55:10.463Z,english_283.wav,0,pill,516,19,5,Japanese,F,1,0.1,-58.6063919,0.41737987
AYT,85,1,2024-06-29T09:55:10.463Z,english_283.wav,0,pill,516,19,5,Japanese,F,2,0.2,36.15867228,0.64455365
AYT,85,1,2024-06-29T09:55:10.463Z,english_283.wav,0,pill,516,19,5,Japanese,F,3,0.3,-77.91689069,1.80541824
AYT,85,1,2024-06-29T09:55:10.463Z,english_283.wav,0,pill,516,19,5,Japanese,F,4,0.32341667,-77.99680679,1.86024907
AYT,86,1,2024-06-29T09:55:10.463Z,english_833.wav,0,pill,924,19,5,Japanese,F,0,0.0,18.29317799,0.49951345
AYT,86,1,2024-06-29T09:55:10.463Z,english_833.wav,0,pill,924,19,5,Japanese,F,1,0.1,20.01945042,1.12176851
AYT,86,1,2024-06-29T09:55:10.463Z,english_833.wav,0,pill,924,19,5,Japanese,F,2,0.2,-77.99741705,0.59960618
AYT,86,1,2024-06-29T09:55:10.463Z,english_833.wav,0,pill,924,19,5,Japanese,F,3,0.3,19.36192697,0.50557433
AYT,86,1,2024-06-29T09:55:10.463Z,english_833.wav,0,pill,924,19,5,Japanese,F,4,0.32341667,43.06785988,0.3288339
AYT,87,1,2024-06-29T09:55:10.463Z,english_922.wav,0,peel,377,19,5,Japanese,F,0,0.0,-90.36253489,0.33253962
AYT,87,1,2024-06-29T09:55:10.463Z,english_922.wav,0,peel,377,19,5,Japanese,F,1,0.1,-6.38761956,1.51366693
AYT,87,1,2024-06-29T09:55:10.463Z,english_922.wav,0,peel,377,19,5,Japanese,F,2,0.2,-78.09661245,0.40049791
AYT,87,1,2024-06-29T09:55:10.463Z,english_922.wav,0,peel,377,19,5,Japanese,F,3,0.3,-92.75722173,1.29207892
AYT,87,1,2024-06-29T09:55:10.463Z,english_922.wav,0,peel,377,19,5,Japanese,F,4,0.32341667,-80.16719401,1.40400382
AYT,88,1,2024-06-29T09:55:10.463Z,english_815.wav,0,peel,245,19,5,Japanese,F,0,0.0,-76.1669867,0.29426078
AYT,88,1,2024-06-29T09:55:10.463Z,english_815.wav,0,peel,245,19,5,Japanese,F,1,0.1,-40.517901,0.96858733
AYT,88,1,2024-06-29T09:55:10.463Z,english_815.wav,0,peel,245,19,5,Japanese,F,2,0.2,-46.68959253,0.83382199
AYT,88,1,2024-06-29T09:55:10.463Z,english_815.wav,0,peel,245,19,5,Japanese,F,3,0.3,-79.23468646,1.13727176
AYT,88,1,2024-06-29T09:55:10.463Z,english_815.wav,0,peel,245,19,5,Japanese,F,4,0.32341667,-63.63497058,0.09357312
AYT,89,1,2024-06-29T09:55:10.463Z,english_221.wav,0,peel,216,19,5,Japanese,F,0,0.0,85.84184869,1.38100565
AYT,89,1,2024-06-29T09:55:10.463Z,english_221.wav,0,peel,216,19,5,Japanese,F,1,0.1,-20.37513589,0.79531516
AYT,89,1,2024-06-29T09:55:10.463Z,english_221.wav,0,peel,216,19,5,Japanese,F,2,0.2,-89.75984637,0.9538446
AYT,89,1,2024-06-29T09:55:10.463Z,english_221.wav,0,peel,216,19,5,Japanese,F,3,0.3,50.66879934,1.56492426
AYT,89,1,2024-06-29T09:55:10.463Z,english_221.wav,0,peel,216,19,5,Japanese,F,4,0.32341667,20.92538743,1.60855456
AYT,90,1,2024-06-29T09:55:10.463Z,english_913.wav,0,peel,667,19,5,Japanese,F,0,0.0,27.9375346,0.72243167
AYT,90,1,2024-06-29T09:55:10.463Z,english_913.wav,0,peel,667,19,5,Japanese,F,1,0.1,41.67879689,1.59129257
AYT,90,1,2024-06-29T09:55:10.463Z,english_913.wav,0,peel,667,19,5,Japanese,F,2,0.2,-50.96955224,1.19382874
AYT,90,1,2024-06-29T09:55:10.463Z,english_913.wav,0,peel,667,19,5,Japanese,F,3,0.3,93.1868058,0.86840853
AYT,90,1,2024-06-29T09:55:10.463Z,english_913.wav,0,peel,667,19,5,Japanese,F,4,0.32341667,83.79752677,0.21021697
AYT,91,1,2024-06-29T09:55:10.463Z,english_553.wav,0,peel,1044,19,5,Japanese,F,0,0.0,-18.85071283,1.30647824
AYT,91,1,2024-06-29T09:55:10.463Z,english_553.wav,0,peel,1044,19,5,Japanese,F,1,0.1,56.72439372,1.55205535
AYT,91,1,2024-06-29T09:55:10.463Z,english_553.wav,0,peel,1044,19,5,Japanese,F,2,0.2,-32.51510613,1.79127341
AYT,91,1,2024-06-29T09:55:10.463Z,english_553.wav,0,peel,1044,19,5,Japanese,F,3,0.3,-81.56708954,0.1795284
AYT,91,1,2024-06-29T09:55:10.463Z,english_553.wav,0,peel,1044,19,5,Japanese,F,4,0.32341667,42.80590219,0.48805839
AYT,92,1,2024-06-29T09:55:10.463Z,english_298.wav,0,pill,517,19,5,Japanese,F,0,0.0,-71.75530507,0.91890611
AYT,92,1,2024-06-29T09:55:10.463Z,english_298.wav,0,pill,517,19,5,Japanese,F,1,0.1,76.25876358,0.7322353
AYT,92,1,2024-06-29T09:55:10.463Z,english_298.wav,0,pill,517,19,5,Japanese,F,2,0.2,11.95102224,0.50601445
AYT,92,1,2024-06-29T09:55:10.463Z,english_298.wav,0,pill,517,19,5,Japanese,F,3,0.3,79.91037795,0.41160049
AYT,92,1,2024-06-29T09:55:10.463Z,english_298.wav,0,pill,517,19,5,Japanese,F,4,0.32341667,30.12462174,0.81223035
AYT,93,1,2024-06-29T09:55:10.463Z,english_401.wav,0,pill,311,19,5,Japanese,F,0,0.0,-70.37998858,1.11338134
AYT,93,1,2024-06-29T09:55:10.463Z,english_401.wav,0,pill,311,19,5,Japanese,F,1,0.1,49.27188779,1.59691292
AYT,93,1,2024-06-29T09:55:10.463Z,english_401.wav,0,pill,311,19,5,Japanese,F,2,0.2,5.09566389,0.88679935
AYT,93,1,2024-06-29T09:55:10.463Z,english_401.wav,0,pill,311,19,5,Japanese,F,3,0.3,58.42368176,1.89749174
AYT,93,1,2024-06-29T09:55:10.463Z,english_401.wav,0,pill,311,19,5,Japanese,F,4,0.32341667,-43.06407799,1.35831765
AYT,94,1,2024-06-29T09:55:10.463Z,english_860.wav,0,peel,815,19,5,Japanese,F,0,0.0,10.25066679,1.47817545
AYT,94,1,2024-06-29T09:55:10.463Z,english_860.wav,0,peel,815,19,5,Japanese,F,1,0.1,55.87909831,1.32859058
AYT,94,1,2024-06-29T09:55:10.463Z,english_860.wav,0,peel,815,19,5,Japanese,F,2,0.2,81.09373959,0.99201561
AYT,94,1,2024-06-29T09:55:10.463Z,english_860.wav,0,peel,815,19,5,Japanese,F,3,0.3,15.52286826,0.3312489
AYT,94,1,2024-06-29T09:55:10.463Z,english_860.wav,0,peel,815,19,5,Japanese,F,4,0.32341667,58.18702512,0.66001743
AYT,95,1,2024-06-29T09:55:10.463Z,english_468.wav,0,pill,418,19,5,Japanese,F,0,0.0,-33.82586043,0.35164089
AYT,95,1,2024-06-29T09:55:10.463Z,english_468.wav,0,pill,418,19,5,Japanese,F,1,0.1,-42.55840131,0.20114733
AYT,95,1,2024-06-29T09:55:10.463Z,english_468.wav,0,pill,418,19,5,Japanese,F,2,0.2,-36.6492295,1.40729654
AYT,95,1,2024-06-29T09:55:10.463Z,english_468.wav,0,pill,418,19,5,Japanese,F,3,0.3,39.91321296,0.04300573
AYT,95,1,2024-06-29T09:55:10.463Z,english_468.wav,0,pill,418,19,5,Japanese,F,4,0.32341667,54.14936319,1.79642733
AYT,96,1,2024-06-29T09:55:10.463Z,english_345.wav,0,peel,303,19,5,Japanese,F,0,0.0,-46.00579497,1.58751342
AYT,96,1,2024-06-29T09:55:10.463Z,english_345.wav,0,peel,303,19,5,Japanese,F,1,0.1,-45.5805492,1.0202646
AYT,96,1,2024-06-29T09:55:10.463Z,english_345.wav,0,peel,303,19,5,Japanese,F,2,0.2,-14.04378539,0.61561299
AYT,96,1,2024-06-29T09:55:10.463Z,english_345.wav,0,peel,303,19,5,Japanese,F,3,0.3,63.72413351,1.21547564
AYT,96,1,2024-06-29T09:55:10.463Z,english_345.wav,0,peel,303,19,5,Japanese,F,4,0.32341667,18.03717792,1.47127253
AYT,97,1,2024-06-29T09:55:10.463Z,english_251.wav,0,pill,175,19,5,Japanese,F,0,0.0,-35.26640223,1.59441442
AYT,97,1,2024-06-29T09:55:10.463Z,english_251.wav,0,pill,175,19,5,Japanese,F,1,0.1,-82.14936791,1.21410308
AYT,97,1,2024-06-29T09:55:10.463Z,english_251.wav,0,pill,175,19,5,Japanese,F,2,0.2,39.53587687,0.89125894
AYT,97,1,2024-06-29T09:55:10.463Z,english_251.wav,0,pill,175,19,5,Japanese,F,3,0.3,-75.44024907,0.14763688
AYT,97,1,2024-06-29T09:55:10.463Z,english_251.wav,0,pill,175,19,5,Japanese,F,4,0.32341667,26.94148116,1.71797298
AYT,98,1,2024-06-29T09:55:10.463Z,english_141.wav,0,peel,888,19,5,Japanese,F,0,0.0,-85.83390244,1.36546316
AYT,98,1,2024-06-29T09:55:10.463Z,english_141.wav,0,peel,888,19,5,Japanese,F,1,0.1,-83.68236309,0.39424104
AYT,98,1,2024-06-29T09:55:10.463Z,english_141.wav,0,peel,888,19,5,Japanese,F,2,0.2,-69.95552588,1.31629396
AYT,98,1,2024-06-29T09:55:10.463Z,english_141.wav,0,peel,888,19,5,Japanese,F,3,0.3,-14.67715053,0.23786768
AYT,98,1,2024-06-29T09:55:10.463Z,english_141.wav,0,peel,888,19,5,Japanese,F,4,0.32341667,73.76142723,0.2069198
AYT,99,1,2024-06-29T09:55:10.463Z,english_568.wav,0,pill,1182,19,5,Japanese,F,0,0.0,-80.38325009,1.52383372
AYT,99,1,2024-06-29T09:55:10.463Z,english_568.wav,0,pill,1182,19,5,Japanese,F,1,0.1,65.28340143,0.37337456
AYT,99,1,2024-06-29T09:55:10.463Z,english_568.wav,0,pill,1182,19,5,Japanese,F,2,0.2,22.57833022,0.67023469
AYT,99,1,2024-06-29T09:55:10.463Z,english_568.wav,0,pill,1182,19,5,Japanese,F,3,0.3,-55.44872251,1.98652091
AYT,99,1,2024-06-29T09:55:10.463Z,english_568.wav,0,pill,1182,19,5,Japanese,F,4,0.32341667,-94.3142815,1.15861726
AYT,100,2,2024-06-29T09:55:10.463Z,english_953.wav,0,peel,399,19,5,Japanese,F,0,0.0,-16.02430182,0.31806788
AYT,100,2,2024-06-29T09:55:10.463Z,english_953.wav,0,peel,399,19,5,Japanese,F,1,0.1,29.58660593,0.5983964
AYT,100,2,2024-06-29T09:55:10.463Z,english_953.wav,0,peel,399,19,5,Japanese,F,2,0.2,-69.77021268,1.47459901
AYT,100,2,2024-06-29T09:55:10.463Z,english_953.wav,0,peel,399,19,5,Japanese,F,3,0.3,10.24378989,1.63555671
AYT,100,2,2024-06-29T09:55:10.463Z,english_953.wav,0,peel,399,19,5,Japanese,F,4,0.32341667,-68.66835117,1.74756834
AYT,101,2,2024-06-29T09:55:10.463Z,english_771.wav,0,peel,235,19,5,Japanese,F,0,0.0,52.29619013,1.65909918
AYT,101,2,2024-06-29T09:55:10.463Z,english_771.wav,0,peel,235,19,5,Japanese,F,1,0.1,55.26271333,1.05958749
AYT,101,2,2024-06-29T09:55:10.463Z,english_771.wav,0,peel,235,19,5,Japanese,F,2,0.2,49.2587818,1.33758239
AYT,101,2,2024-06-29T09:55:10.463Z,english_771.wav,0,peel,235,19,5,Japanese,F,3,0.3,48.45532009,1.75478958
AYT,101,2,2024-06-29T09:55:10.463Z,english_771.wav,0,peel,235,19,5,Japanese,F,4,0.32341667,-98.45631565,0.37013483
AYT,102,2,2024-06-29T09:55:10.463Z,english_601.wav,0,pill,1580,19,5,Japanese,F,0,0.0,54.32401431,0.08668951
AYT,102,2,2024-06-29T09:55:10.463Z,english_601.wav,0,pill,1580,19,5,Japanese,F,1,0.1,-6.72935942,1.16468766
AYT,102,2,2024-06-29T09:55:10.463Z,english_601.wav,0,pill,1580,19,5,Japanese,F,2,0.2,39.12079493,1.8612572
AYT,102,2,2024-06-29T09:55:10.463Z,english_601.wav,0,pill,1580,19,5,Japanese,F,3,0.3,39.92141387,0.92171433
AYT,102,2,2024-06-29T09:55:10.463Z,english_601.wav,0,pill,1580,19,5,Japanese,F,4,0.32341667,-27.14681087,0.50419734
AYT,103,2,2024-06-29T09:55:10.463Z,english_170.wav,0,pill,536,19,5,Japanese,F,0,0.0,6.45066022,1.58910722
AYT,103,2,2024-06-29T09:55:10.463Z,english_170.wav,0,pill,536,19,5,Japanese,F,1,0.1,-4.11198278,0.3365331
AYT,103,2,2024-06-29T09:55:10.463Z,english_170.wav,0,pill,536,19,5,Japanese,F,2,0.2,96.59136675,0.38643451
AYT,103,2,2024-06-29T09:55:10.463Z,english_170.wav,0,pill,536,19,5,Japanese,F,3,0.3,21.57070742,1.58623933
AYT,103,2,2024-06-29T09:55:10.463Z,english_170.wav,0,pill,536,19,5,Japanese,F,4,0.32341667,94.47980818,1.61968164
AYT,104,2,2024-06-29T09:55:10.463Z,english_612.wav,0,pill,683,19,5,Japanese,F,0,0.0,-84.32217164,1.34068621
AYT,104,2,2024-06-29T09:55:10.463Z,english_612.wav,0,pill,683,19,5,Japanese,F,1,0.1,36.55311424,0.03443149
AYT,104,2,2024-06-29T09:55:10.463Z,english_612.wav,0,pill,683,19,5,Japanese,F,2,0.2,92.38334081,0.45903509
AYT,104,2,2024-06-29T09:55:10.463Z,english_612.wav,0,pill,683,19,5,Japanese,F,3,0.3,11.68953794,0.60209198
AYT,104,2,2024-06-29T09:55:10.463Z,english_612.wav,0,pill,683,19,5,Japanese,F,4,0.32341667,43.3279226,0.29533154
AYT,105,2,2024-06-29T09:55:10.463Z,english_342.wav,0,pill,1164,19,5,Japanese,F,0,0.0,78.00911228,0.99673345
AYT,105,2,2024-06-29T09:55:10.463Z,english_342.wav,0,pill,1164,19,5,Japanese,F,1,0.1,-28.67768894,1.80563483
AYT,105,2,2024-06-29T09:55:10.463Z,english_342.wav,0,pill,1164,19,5,Japanese,F,2,0.2,73.55618202,1.38552336
AYT,105,2,2024-06-29T09:55:10.463Z,english_342.wav,0,pill,1164,19,5,Japanese,F,3,0.3,93.0509223,0.17145116
AYT,105,2,2024-06-29T09:55:10.463Z,english_342.wav,0,pill,1164,19,5,Japanese,F,4,0.32341667,-2.74816459,0.15059009
AYT,106,2,2024-06-29T09:55:10.463Z,english_179.wav,0,peel,1719,19,5,Japanese,F,0,0.0,76.93131114,0.23318107
AYT,106,2,2024-06-29T09:55:10.463Z,english_179.wav,0,peel,1719,19,5,Japanese,F,1,0.1,5.5150778,0.47080089
AYT,106,2,2024-06-29T09:55:10.463Z,english_179.wav,0,peel,1719,19,5,Japanese,F,2,0.2,3.89208722,1.31062884
AYT,106,2,2024-06-29T09:55:10.463Z,english_179.wav,0,peel,1719,19,5,Japanese,F,3,0.3,-8.47825544,0.27743795
AYT,106,2,2024-06-29T09:55:10.463Z,english_179.wav,0,peel,1719,19,5,Japanese,F,4,0.32341667,50.73924617,0.83516241
AYT,107,2,2024-06-29T09:55:10.463Z,english_462.wav,0,peel,980,19,5,Japanese,F,0,0.0,-35.73318704,1.53267708
AYT,107,2,2024-06-29T09:55:10.463Z,english_462.wav,0,peel,980,19,5,Japanese,F,1,0.1,-5.65949109,1.98369384
AYT,107,2,2024-06-29T09:55:10.463Z,english_462.wav,0,peel,980,19,5,Japanese,F,2,0.2,-49.47542688,1.31270994
AYT,107,2,2024-06-29T09:55:10.463Z,english_462.wav,0,peel,980,19,5,Japanese,F,3,0.3,-98.18570674,1.26289606
AYT,107,2,2024-06-29T09:55:10.463Z,english_462.wav,0,peel,980,19,5,Japanese,F,4,0.32341667,-16.34927785,1.36496903
AYT,108,2,2024-06-29T09:55:10.463Z,english_70.wav,0,pill,1029,19,5,Japanese,F,0,0.0,-53.09237622,1.21678364
AYT,108,2,2024-06-29T09:55:10.463Z,english_70.wav,0,pill,1029,19,5,Japanese,F,1,0.1,85.97526897,0.94111324
AYT,108,2,2024-06-29T09:55:10.463Z,english_70.wav,0,pill,1029,19,5,Japanese,F,2,0.2,25.5645184,1.03926055
AYT,108,2,2024-06-29T09:55:10.463Z,english_70.wav,0,pill,1029,19,5,Japanese,F,3,0.3,1.25172137,0.29519406
AYT,108,2,2024-06-29T09:55:10.463Z,english_70.wav,0,pill,1029,19,5,Japanese,F,4,0.32341667,93.59431896,0.80175783
AYT,109,2,2024-06-29T09:55:10.463Z,english_977.wav,0,peel,1771,19,5,Japanese,F,0,0.0,63.46196139,0.87194913
AYT,109,2,2024-06-29T09:55:10.463Z,english_977.wav,0,peel,1771,19,5,Japanese,F,1,0.1,-23.64022125,1.67919547
AYT,109,2,2024-06-29T09:55:10.463Z,english_977.wav,0,peel,1771,19,5,Japanese,F,2,0.2,31.65242203,0.97011806
AYT,109,2,2024-06-29T09:55:10.463Z,english_977.wav,0,peel,1771,19,5,Japanese,F,3,0.3,16.19881364,1.40431802
AYT,109,2,2024-06-29T09:55:10.463Z,english_977.wav,0,peel,1771,19,5,Japanese,F,4,0.32341667,-33.08554183,1.02563167
AYT,110,2,2024-06-29T09:55:10.463Z,english_719.wav,0,peel,271,19,5,Japanese,F,0,0.0,-32.14306232,1.4431753
AYT,110,2,2024-06-29T09:55:10.463Z,english_719.wav,0,peel,271,19,5,Japanese,F,1,0.1,-81.40439332,0.46175707
AYT,110,2,2024-06-29T09:55:10.463Z,english_719.wav,0,peel,271,19,5,Japanese,F,2,0.2,-20.1172293,1.86886769
AYT,110,2,2024-06-29T09:55:10.463Z,english_719.wav,0,peel,271,19,5,Japanese,F,3,0.3,67.63048238,0.67969247
AYT,110,2,2024-06-29T09:55:10.463Z,english_719.wav,0,peel,271,19,5,Japanese,F,4,0.32341667,50.83305788,1.68151983
AYT,111,2,2024-06-29T09:55:10.463Z,english_125.wav,0,pill,559,19,5,Japanese,F,0,0.0,-5.59692586,0.61478703
AYT,111,2,2024-06-29T09:55:10.463Z,english_125.wav,0,pill,559,19,5,Japanese,F,1,0.1,45.61970603,0.5852269
AYT,111,2,2024-06-29T09:55:10.463Z,english_125.wav,0,pill,559,19,5,Japanese,F,2,0.2,-80.48713695,1.26290546
AYT,111,2,2024-06-29T09:55:10.463Z,english_125.wav,0,pill,559,19,5,Japanese,F,3,0.3,76.65956808,1.54178375
AYT,111,2,2024-06-29T09:55:10.463Z,english_125.wav,0,pill,559,19,5,Japanese,F,4,0.32341667,-9.14506838,0.79261171
AYT,112,2,2024-06-29T09:55:10.463Z,english_955.wav,0,peel,323,19,5,Japanese,F,0,0.0,-93.58498903,1.26703381
AYT,112,2,2024-06-29T09:55:10.463Z,english_955.wav,0,peel,323,19,5,Japanese,F,1,0.1,-11.56731864,0.51967441
AYT,112,2,2024-06-29T09:55:10.463Z,english_955.wav,0,peel,323,19,5,Japanese,F,2,0.2,60.37787928,1.0313906
AYT,112,2,2024-06-29T09:55:10.463Z,english_955.wav,0,peel,323,19,5,Japanese,F,3,0.3,83.42366765,1.58878747
AYT,112,2,2024-06-29T09:55:10.463Z,english_955.wav,0,peel,323,19,5,Japanese,F,4,0.32341667,-60.32056418,1.0025339
AYT,113,2,2024-06-29T09:55:10.463Z,english_857.wav,0,peel,243,19,5,Japanese,F,0,0.0,-33.07031843,1.04325491
AYT,113,2,2024-06-29T09:55:10.463Z,english_857.wav,0,peel,243,19,5,Japanese,F,1,0.1,12.9349985,0.44078978
AYT,113,2,2024-06-29T09:55:10.463Z,english_857.wav,0,peel,243,19,5,Japanese,F,2,0.2,4.33682254,1.36028147
AYT,113,2,2024-06-29T09:55:10.463Z,english_857.wav,0,peel,243,19,5,Japanese,F,3,0.3,90.68056828,1.16905302
AYT,113,2,2024-06-29T09:55:10.463Z,english_857.wav,0,peel,243,19,5,Japanese,F,4,0.32341667,37.69781409,1.24618942
AYT,114,2,2024-06-29T09:55:10.463Z,english_697.wav,0,pill,1235,19,5,Japanese,F,0,0.0,34.8877197,0.0,0.10761674
AYT,114,2,2024-06-29T09:55:10.463Z,english_697.wav,0,pill,1235,19,5,Japanese,F,1,0.1,-0.0129750448,0.1,0.88035305
AYT,114,2,2024-06-29T09:55:10.463Z,english_697.wav,0,pill,1235,19,5,Japanese,F,2,0.2,48.8877829,0.2,0.12183403
AYT,114,2,2024-06-29T09:55:10.463Z,english_697.wav,0,pill,1235,19,5,Japanese,F,3,0.3,68.5745634,0.3,0.55306263
AYT,114,2,2024-06-29T09:55:10.463Z,english_697.wav,0,pill,1235,19,5,Japanese,F,4,0.323416667,18.9536775,0.32341667,1.83833688
AYT,115,2,2024-06-29T09:55:10.463Z,english_828.wav,0,peel,588,19,5,Japanese,F,0,0.0,51.6479082,0.4417702
AYT,115,2,2024-06-29T09:55:10.463Z,english_828.wav,0,peel,588,19,5,Japanese,F,1,0.1,37.62818293,1.22957458
AYT,115,2,2024-06-29T09:55:10.463Z,english_828.wav,0,peel,588,19,5,Japanese,F,2,0.2,55.79615955,0.69909727
AYT,115,2,2024-06-29T09:55:10.463Z,english_828.wav,0,peel,588,19,5,Japanese,F,3,0.3,31.91979646,1.572544
AYT,115,2,2024-06-29T09:55:10.463Z,english_828.wav,0,peel,588,19,5,Japanese,F,4,0.32341667,-22.21091203,0.87669833
AYT,116,2,2024-06-29T09:55:10.463Z,english_613.wav,0,pill,1402,19,5,Japanese,F,0,0.0,-12.80235787,0.8409713
AYT,116,2,2024-06-29T09:55:10.463Z,english_613.wav,0,pill,1402,19,5,Japanese,F,1,0.1,38.67858639,0.30410002
AYT,116,2,2024-06-29T09:55:10.463Z,english_613.wav,0,pill,1402,19,5,Japanese,F,2,0.2,21.08834288,0.031636
AYT,116,2,2024-06-29T09:55:10.463Z,english_613.wav,0,pill,1402,19,5,Japanese,F,3,0.3,94.81469787,1.79222997
AYT,116,2,2024-06-29T09:55:10.463Z,english_613.wav,0,pill,1402,19,5,Japanese,F,4,0.32341667,18.45506868,1.98455664
AYT,117,2,2024-06-29T09:55:10.463Z,english_309.wav,0,peel,891,19,5,Japanese,F,0,0.0,59.8258624,0.58100331
AYT,117,2,2024-06-29T09:55:10.463Z,english_309.wav,0,peel,891,19,5,Japanese,F,1,0.1,73.70427758,0.81024997
AYT,117,2,2024-06-29T09:55:10.463Z,english_309.wav,0,peel,891,19,5,Japanese,F,2,0.2,-8.71125849,0.10827203
AYT,117,2,2024-06-29T09:55:10.463Z,english_309.wav,0,peel,891,19,5,Japanese,F,3,0.3,-86.6882155,0.09670208
AYT,117,2,2024-06-29T09:55:10.463Z,english_309.wav,0,peel,891,19,5,Japanese,F,4,0.32341667,-90.77340978,1.53063904
AYT,118,2,2024-06-29T09:55:10.463Z,english_921.wav,0,pill,1360,19,5,Japanese,F,0,0.0,60.93482672,0.06624465
AYT,118,2,2024-06-29T09:55:10.463Z,english_921.wav,0,pill,1360,19,5,Japanese,F,1,0.1,-71.63665921,1.88925143
AYT,118,2,2024-06-29T09:55:10.463Z,english_921.wav,0,pill,1360,19,5,Japanese,F,2,0.2,-30.77028929,0.40013084
AYT,118,2,2024-06-29T09:55:10.463Z,english_921.wav,0,pill,1360,19,5,Japanese,F,3,0.3,-44.68164597,1.26601564
AYT,118,2,2024-06-29T09:55:10.463Z,english_921.wav,0,pill,1360,19,5,Japanese,F,4,0.32341667,34.59415858,1.98956357
AYT,119,2,2024-06-29T09:55:10.463Z,english_888.wav,0,peel,348,19,5,Japanese,F,0,0.0,-75.11317729,0.15619421
AYT,119,2,2024-06-29T09:55:10.463Z,english_888.wav,0,peel,348,19,5,Japanese,F,1,0.1,-15.41916561,1.45351631
AYT,119,2,2024-06-29T09:55:10.463Z,english_888.wav,0,peel,348,19,5,Japanese,F,2,0.2,30.82770832,1.60154734
AYT,119,2,2024-06-29T09:55:10.463Z,english_888.wav,0,peel,348,19,5,Japanese,F,3,0.3,69.72581111,1.09787436
AYT,119,2,2024-06-29T09:55:10.463Z,english_888.wav,0,peel,348,19,5,Japanese,F,4,0.32341667,-21.6620698,1.3760261
AYT,120,2,2024-06-29T09:55:10.463Z,english_330.wav,0,peel,151,19,5,Japanese,F,0,0.0,-66.0623823,0.0,1.84658225
AYT,120,2,2024-06-29T09:55:10.463Z,english_330.wav,0,peel,151,19,5,Japanese,F,1,0.1,-90.7862333,0.1,0.94726644
AYT,120,2,2024-06-29T09:55:10.463Z,english_330.wav,0,peel,151,19,5,Japanese,F,2,0.2,-0.00810713819,0.2,1.52006519
AYT,120,2,2024-06-29T09:55:10.463Z,english_330.wav,0,peel,151,19,5,Japanese,F,3,0.3,-61.2450651,0.3,1.63286843
AYT,120,2,2024-06-29T09:55:10.463Z,english_330.wav,0,peel,151,19,5,Japanese,F,4,0.323416667,-0.344586516,0.32341667,1.74173618
AYT,121,2,2024-06-29T09:55:10.463Z,english_96.wav,0,peel,1066,19,5,Japanese,F,0,0.0,-2.60251168,1.33849038
AYT,121,2,2024-06-29T09:55:10.463Z,english_96.wav,0,peel,1066,19,5,Japanese,F,1,0.1,3.1808695,1.03790095
AYT,121,2,2024-06-29T09:55:10.463Z,english_96.wav,0,peel,1066,19,5,Japanese,F,2,0.2,-93.89625608,0.32730996
AYT,121,2,2024-06-29T09:55:10.463Z,english_96.wav,0,peel,1066,19,5,Japanese,F,3,0.3,22.03695444,1.15118519
AYT,121,2,2024-06-29T09:55:10.463Z,english_96.wav,0,peel,1066,19,5,Japanese,F,4,0.32341667,89.13776591,1.37996061
AYT,122,2,2024-06-29T09:55:10.463Z,english_931.wav,0,peel,580,19,5,Japanese,F,0,0.0,-78.99767873,0.72988395
AYT,122,2,2024-06-29T09:55:10.463Z,english_931.wav,0,peel,580,19,5,Japanese,F,1,0.1,-34.67093685,1.40858855
AYT,122,2,2024-06-29T09:55:10.463Z,english_931.wav,0,peel,580,19,5,Japanese,F,2,0.2,2.25144273,1.82787629
AYT,122,2,2024-06-29T09:55:10.463Z,english_931.wav,0,peel,580,19,5,Japanese,F,3,0.3,-93.87287365,1.51045502
AYT,122,2,2024-06-29T09:55:10.463Z,english_931.wav,0,peel,580,19,5,Japanese,F,4,0.32341667,57.8562517,1.42241625
AYT,123,2,2024-06-29T09:55:10.463Z,english_510.wav,0,pill,798,19,5,Japanese,F,0,0.0,-39.77235695,0.97080384
AYT,123,2,2024-06-29T09:55:10.463Z,english_510.wav,0,pill,798,19,5,Japanese,F,1,0.1,-55.9025784,0.1022914
AYT,123,2,2024-06-29T09:55:10.463Z,english_510.wav,0,pill,798,19,5,Japanese,F,2,0.2,42.12378864,1.56878682
AYT,123,2,2024-06-29T09:55:10.463Z,english_510.wav,0,pill,798,19,5,Japanese,F,3,0.3,-5.9333084,1.19302163
AYT,123,2,2024-06-29T09:55:10.463Z,english_510.wav,0,pill,798,19,5,Japanese,F,4,0.32341667,84.8199861,1.45606517
AYT,124,2,2024-06-29T09:55:10.463Z,english_79.wav,0,pill,1239,19,5,Japanese,F,0,0.0,-69.52518262,0.23164561
AYT,124,2,2024-06-29T09:55:10.463Z,english_79.wav,0,pill,1239,19,5,Japanese,F,1,0.1,56.533406,1.01948637
AYT,124,2,2024-06-29T09:55:10.463Z,english_79.wav,0,pill,1239,19,5,Japanese,F,2,0.2,25.92051761,0.17653141
AYT,124,2,2024-06-29T09:55:10.463Z,english_79.wav,0,pill,1239,19,5,Japanese,F,3,0.3,81.58880491,0.14868702
AYT,124,2,2024-06-29T09:55:10.463Z,english_79.wav,0,pill,1239,19,5,Japanese,F,4,0.32341667,-19.75719301,0.33345335
AYT,125,2,2024-06-29T09:55:10.463Z,english_880.wav,0,peel,706,19,5,Japanese,F,0,0.0,3.17154152,0.81183988
AYT,125,2,2024-06-29T09:55:10.463Z,english_880.wav,0,peel,706,19,5,Japanese,F,1,0.1,-74.02271749,1.44061269
AYT,125,2,2024-06-29T09:55:10.463Z,english_880.wav,0,peel,706,19,5,Japanese,F,2,0.2,46.15952764,0.42884863
AYT,125,2,2024-06-29T09:55:10.463Z,english_880.wav,0,peel,706,19,5,Japanese,F,3,0.3,4.14106927,1.93838261
AYT,125,2,2024-06-29T09:55:10.463Z,english_880.wav,0,peel,706,19,5,Japanese,F,4,0.32341667,26.36707366,1.4503687
AYT,126,2,2024-06-29T09:55:10.463Z,english_327.wav,0,peel,1817,19,5,Japanese,F,0,0.0,-65.34261839,0.94624792
AYT,126,2,2024-06-29T09:55:10.463Z,english_327.wav,0,peel,1817,19,5,Japanese,F,1,0.1,-88.88296173,0.88463276
AYT,126,2,2024-06-29T09:55:10.463Z,english_327.wav,0,peel,1817,19,5,Japanese,F,2,0.2,-52.48624316,0.8064175
AYT,126,2,2024-06-29T09:55:10.463Z,english_327.wav,0,peel,1817,19,5,Japanese,F,3,0.3,35.3894457,1.08656597
AYT,126,2,2024-06-29T09:55:10.463Z,english_327.wav,0,peel,1817,19,5,Japanese,F,4,0.32341667,-31.26503482,0.95323019
AYT,127,2,2024-06-29T09:55:10.463Z,english_873.wav,0,pill,369,19,5,Japanese,F,0,0.0,85.43762199,1.00056931
AYT,127,2,2024-06-29T09:55:10.463Z,english_873.wav,0,pill,369,19,5,Japanese,F,1,0.1,-27.24751419,0.47504393
AYT,127,2,2024-06-29T09:55:10.463Z,english_873.wav,0,pill,369,19,5,Japanese,F,2,0.2,-8.79829555,0.788147
AYT,127,2,2024-06-29T09:55:10.463Z,english_873.wav,0,pill,369,19,5,Japanese,F,3,0.3,-97.88620301,0.64075463
AYT,127,2,2024-06-29T09:55:10.463Z,english_873.wav,0,pill,369,19,5,Japanese,F,4,0.32341667,49.57089273,0.87603086
AYT,128,2,2024-06-29T09:55:10.463Z,english_381.wav,0,peel,265,19,5,Japanese,F,0,0.0,-64.83599525,0.77808766
AYT,128,2,2024-06-29T09:55:10.463Z,english_381.wav,0,peel,265,19,5,Japanese,F,1,0.1,97.61236857,1.62635576
AYT,128,2,2024-06-29T09:55:10.463Z,english_381.wav,0,peel,265,19,5,Japanese,F,2,0.2,-60.27157178,0.65298664
AYT,128,2,2024-06-29T09:55:10.463Z,english_381.wav,0,peel,265,19,5,Japanese,F,3,0.3,84.45732791,0.46881793
AYT,128,2,2024-06-29T09:55:10.463Z,english_381.wav,0,peel,265,19,5,Japanese,F,4,0.32341667,-87.53832291,1.22836965
AYT,129,2,2024-06-29T09:55:10.463Z,english_618.wav,0,pill,416,19,5,Japanese,F,0,0.0,58.31579708,1.46895394
AYT,129,2,2024-06-29T09:55:10.463Z,english_618.wav,0,pill,416,19,5,Japanese,F,1,0.1,6.96253647,0.48660613
AYT,129,2,2024-06-29T09:55:10.463Z,english_618.wav,0,pill,416,19,5,Japanese,F,2,0.2,-4.41581756,1.00963977
AYT,129,2,2024-06-29T09:55:10.463Z,english_618.wav,0,pill,416,19,5,Japanese,F,3,0.3,-63.5775247,1.29399549
AYT,129,2,2024-06-29T09:55:10.463Z,english_618.wav,0,pill,416,19,5,Japanese,F,4,0.32341667,97.77631762,0.84060701
AYT,130,2,2024-06-29T09:55:10.463Z,english_278.wav,0,peel,189,19,5,Japanese,F,0,0.0,-49.55521664,0.96598769
AYT,130,2,2024-06-29T09:55:10.463Z,english_278.wav,0,peel,189,19,5,Japanese,F,1,0.1,60.24292507,1.32709354
AYT,130,2,2024-06-29T09:55:10.463Z,english_278.wav,0,peel,189,19,5,Japanese,F,2,0.2,34.32984246,0.84496159
AYT,130,2,2024-06-29T09:55:10.463Z,english_278.wav,0,peel,189,19,5,Japanese,F,3,0.3,91.69210883,1.50157491
AYT,130,2,2024-06-29T09:55:10.463Z,english_278.wav,0,peel,189,19,5,Japanese,F,4,0.32341667,78.84715657,1.85534648
AYT,131,2,2024-06-29T09:55:10.463Z,english_582.wav,0,pill,2126,19,5,Japanese,F,0,0.0,-29.81423477,0.27230029
AYT,131,2,2024-06-29T09:55:10.463Z,english_582.wav,0,pill,2126,19,5,Japanese,F,1,0.1,37.42565533,0.84765039
AYT,131,2,2024-06-29T09:55:10.463Z,english_582.wav,0,pill,2126,19,5,Japanese,F,2,0.2,79.58894888,1.99526631
AYT,131,2,2024-06-29T09:55:10.463Z,english_582.wav,0,pill,2126,19,5,Japanese,F,3,0.3,49.55779855,1.55519667
AYT,131,2,2024-06-29T09:55:10.463Z,english_582.wav,0,pill,2126,19,5,Japanese,F,4,0.32341667,54.00509918,1.66653349
AYT,132,2,2024-06-29T09:55:10.463Z,english_2.wav,0,peel,577,19,5,Japanese,F,0,0.0,-99.15346184,1.13720105
AYT,132,2,2024-06-29T09:55:10.463Z,english_2.wav,0,peel,577,19,5,Japanese,F,1,0.1,80.90141422,1.91777804
AYT,132,2,2024-06-29T09:55:10.463Z,english_2.wav,0,peel,577,19,5,Japanese,F,2,0.2,25.8663891,0.47706995
AYT,132,2,2024-06-29T09:55:10.463Z,english_2.wav,0,peel,577,19,5,Japanese,F,3,0.3,75.24606714,0.3458575
AYT,132,2,2024-06-29T09:55:10.463Z,english_2.wav,0,peel,577,19,5,Japanese,F,4,0.32341667,-83.41413367,0.38623968
AYT,133,2,2024-06-29T09:55:10.463Z,english_282.wav,0,pill,503,19,5,Japanese,F,0,0.0,0.76940706,0.32837311
AYT,133,2,2024-06-29T09:55:10.463Z,english_282.wav,0,pill,503,19,5,Japanese,F,1,0.1,85.14494722,0.39977994
AYT,133,2,2024-06-29T09:55:10.463Z,english_282.wav,0,pill,503,19,5,Japanese,F,2,0.2,-92.43433596,0.62065738
AYT,133,2,2024-06-29T09:55:10.463Z,english_282.wav,0,pill,503,19,5,Japanese,F,3,0.3,-98.42888083,0.06200237
AYT,133,2,2024-06-29T09:55:10.463Z,english_282.wav,0,pill,503,19,5,Japanese,F,4,0.32341667,-32.58662549,1.4193679
AYT,134,2,2024-06-29T09:55:10.463Z,english_482.wav,0,peel,231,19,5,Japanese,F,0,0.0,-75.58658814,1.00366747
AYT,134,2,2024-06-29T09:55:10.463Z,english_482.wav,0,peel,231,19,5,Japanese,F,1,0.1,-97.88900999,1.47597923
AYT,134,2,2024-06-29T09:55:10.463Z,english_482.wav,0,peel,231,19,5,Japanese,F,2,0.2,-4.46161317,1.10854794
AYT,134,2,2024-06-29T09:55:10.463Z,english_482.wav,0,peel,231,19,5,Japanese,F,3,0.3,31.34799552,1.07348452
AYT,134,2,2024-06-29T09:55:10.463Z,english_482.wav,0,peel,231,19,5,Japanese,F,4,0.32341667,-51.80510351,0.67390339
AYT,135,2,2024-06-29T09:55:10.463Z,english_595.wav,0,peel,307,19,5,Japanese,F,0,0.0,-39.84727911,1.6526444
AYT,135,2,2024-06-29T09:55:10.463Z,english_595.wav,0,peel,307,19,5,Japanese,F,1,0.1,-68.85607622,1.11711065
AYT,135,2,2024-06-29T09:55:10.463Z,english_595.wav,0,peel,307,19,5,Japanese,F,2,0.2,23.68364187,1.96516016
AYT,135,2,2024-06-29T09:55:10.463Z,english_595.wav,0,peel,307,19,5,Japanese,F,3,0.3,-80.51887658,0.34053421
AYT,135,2,2024-06-29T09:55:10.463Z,english_595.wav,0,peel,307,19,5,Japanese,F,4,0.32341667,-94.66311932,1.22603371
AYT,136,2,2024-06-29T09:55:10.463Z,english_890.wav,0,peel,1069,19,5,Japanese,F,0,0.0,-68.21158685,0.82535308
AYT,136,2,2024-06-29T09:55:10.463Z,english_890.wav,0,peel,1069,19,5,Japanese,F,1,0.1,-83.19360642,1.79167423
AYT,136,2,2024-06-29T09:55:10.463Z,english_890.wav,0,peel,1069,19,5,Japanese,F,2,0.2,79.13343252,0.78297904
AYT,136,2,2024-06-29T09:55:10.463Z,english_890.wav,0,peel,1069,19,5,Japanese,F,3,0.3,80.54326003,0.23441015
AYT,136,2,2024-06-29T09:55:10.463Z,english_890.wav,0,peel,1069,19,5,Japanese,F,4,0.32341667,-30.48737523,1.41044901
AYT,137,2,2024-06-29T09:55:10.463Z,english_528.wav,0,pill,900,19,5,Japanese,F,0,0.0,34.31610554,1.55529168
AYT,137,2,2024-06-29T09:55:10.463Z,english_528.wav,0,pill,900,19,5,Japanese,F,1,0.1,28.08911917,0.29936297
AYT,137,2,2024-06-29T09:55:10.463Z,english_528.wav,0,pill,900,19,5,Japanese,F,2,0.2,-86.77613696,0.95155831
AYT,137,2,2024-06-29T09:55:10.463Z,english_528.wav,0,pill,900,19,5,Japanese,F,3,0.3,-45.45420678,1.46511459
AYT,137,2,2024-06-29T09:55:10.463Z,english_528.wav,0,pill,900,19,5,Japanese,F,4,0.32341667,-58.86275596,0.63923396
AYT,138,2,2024-06-29T09:55:10.463Z,english_51.wav,0,pill,385,19,5,Japanese,F,0,0.0,88.48054236,0.21487201
AYT,138,2,2024-06-29T09:55:10.463Z,english_51.wav,0,pill,385,19,5,Japanese,F,1,0.1,-53.5534646,0.90061677
AYT,138,2,2024-06-29T09:55:10.463Z,english_51.wav,0,pill,385,19,5,Japanese,F,2,0.2,-33.31344908,0.24834744
AYT,138,2,2024-06-29T09:55:10.463Z,english_51.wav,0,pill,385,19,5,Japanese,F,3,0.3,87.0533187,1.31052611
AYT,138,2,2024-06-29T09:55:10.463Z,english_51.wav,0,pill,385,19,5,Japanese,F,4,0.32341667,-16.55219825,0.58644625
AYT,139,2,2024-06-29T09:55:10.463Z,english_169.wav,0,peel,877,19,5,Japanese,F,0,0.0,21.52556644,0.24747868
AYT,139,2,2024-06-29T09:55:10.463Z,english_169.wav,0,peel,877,19,5,Japanese,F,1,0.1,-62.21960884,0.51530303
AYT,139,2,2024-06-29T09:55:10.463Z,english_169.wav,0,peel,877,19,5,Japanese,F,2,0.2,-58.58818316,1.14352058
AYT,139,2,2024-06-29T09:55:10.463Z,english_169.wav,0,peel,877,19,5,Japanese,F,3,0.3,14.95103608,1.46694059
AYT,139,2,2024-06-29T09:55:10.463Z,english_169.wav,0,peel,877,19,5,Japanese,F,4,0.32341667,21.70814087,1.67980684
AYT,140,2,2024-06-29T09:55:10.463Z,english_167.wav,0,pill,386,19,5,Japanese,F,0,0.0,57.26975159,0.44729063
AYT,140,2,2024-06-29T09:55:10.463Z,english_167.wav,0,pill,386,19,5,Japanese,F,1,0.1,54.31010869,1.623568
AYT,140,2,2024-06-29T09:55:10.463Z,english_167.wav,0,pill,386,19,5,Japanese,F,2,0.2,99.57020207,0.28743218
AYT,140,2,2024-06-29T09:55:10.463Z,english_167.wav,0,pill,386,19,5,Japanese,F,3,0.3,27.92735821,0.71837494
AYT,140,2,2024-06-29T09:55:10.463Z,english_167.wav,0,pill,386,19,5,Japanese,F,4,0.32341667,73.13424206,1.35815305
AYT,141,2,2024-06-29T09:55:10.463Z,english_557.wav,0,peel,245,19,5,Japanese,F,0,0.0,43.94308994,0.38165316
AYT,141,2,2024-06-29T09:55:10.463Z,english_557.wav,0,peel,245,19,5,Japanese,F,1,0.1,84.77773598,1.19567933
AYT,141,2,2024-06-29T09:55:10.463Z,english_557.wav,0,peel,245,19,5,Japanese,F,2,0.2,-14.75143777,1.35103773
AYT,141,2,2024-06-29T09:55:10.463Z,english_557.wav,0,peel,245,19,5,Japanese,F,3,0.3,-37.76141322,1.69174007
AYT,141,2,2024-06-29T09:55:10.463Z,english_557.wav,0,peel,245,19,5,Japanese,F,4,0.32341667,-5.99076179,0.4334092
AYT,142,2,2024-06-29T09:55:10.463Z,english_811.wav,0,pill,1036,19,5,Japanese,F,0,0.0,-51.03425556,1.55055496
AYT,142,2,2024-06-29T09:55:10.463Z,english_811.wav,0,pill,1036,19,5,Japanese,F,1,0.1,22.81695275,1.74830484
AYT,142,2,2024-06-29T09:55:10.463Z,english_811.wav,0,pill,1036,19,5,Japanese,F,2,0.2,73.06623682,1.24661488
AYT,142,2,2024-06-29T09:55:10.463Z,english_811.wav,0,pill,1036,19,5,Japanese,F,3,0.3,-9.17693151,0.09792889
AYT,142,2,2024-06-29T09:55:10.463Z,english_811.wav,0,pill,1036,19,5,Japanese,F,4,0.32341667,79.97760745,0.03735929
AYT,143,2,2024-06-29T09:55:10.463Z,english_516.wav,0,peel,561,19,5,Japanese,F,0,0.0,-37.49134217,0.47483782
AYT,143,2,2024-06-29T09:55:10.463Z,english_516.wav,0,peel,561,19,5,Japanese,F,1,0.1,56.61653956,1.0523806
AYT,143,2,2024-06-29T09:55:10.463Z,english_516.wav,0,peel,561,19,5,Japanese,F,2,0.2,60.98574822,0.59798137
AYT,143,2,2024-06-29T09:55:10.463Z,english_516.wav,0,peel,561,19,5,Japanese,F,3,0.3,-0.52682824,0.6957238
AYT,143,2,2024-06-29T09:55:10.463Z,english_516.wav,0,peel,561,19,5,Japanese,F,4,0.32341667,-50.41932267,1.76373844
AYT,144,2,2024-06-29T09:55:10.463Z,english_352.wav,0,peel,662,19,5,Japanese,F,0,0.0,71.64354449,0.18312459
AYT,144,2,2024-06-29T09:55:10.463Z,english_352.wav,0,peel,662,19,5,Japanese,F,1,0.1,53.2516906,1.19991438
AYT,144,2,2024-06-29T09:55:10.463Z,english_352.wav,0,peel,662,19,5,Japanese,F,2,0.2,28.90726554,1.21095973
AYT,144,2,2024-06-29T09:55:10.463Z,english_352.wav,0,peel,662,19,5,Japanese,F,3,0.3,-49.8940387,1.61067418
AYT,144,2,2024-06-29T09:55:10.463Z,english_352.wav,0,peel,662,19,5,Japanese,F,4,0.32341667,21.76832357,1.26376439
AYT,145,2,2024-06-29T09:55:10.463Z,english_530.wav,0,pill,819,19,5,Japanese,F,0,0.0,21.55057906,0.25130805
AYT,145,2,2024-06-29T09:55:10.463Z,english_530.wav,0,pill,819,19,5,Japanese,F,1,0.1,-20.17265513,0.96020899
AYT,145,2,2024-06-29T09:55:10.463Z,english_530.wav,0,pill,819,19,5,Japanese,F,2,0.2,-52.07974762,1.55252741
AYT,145,2,2024-06-29T09:55:10.463Z,english_530.wav,0,pill,819,19,5,Japanese,F,3,0.3,87.36384387,1.19622655
AYT,145,2,2024-06-29T09:55:10.463Z,english_530.wav,0,pill,819,19,5,Japanese,F,4,0.32341667,-72.92256984,0.75880724
AYT,146,2,2024-06-29T09:55:10.463Z,english_31.wav,0,peel,794,19,5,Japanese,F,0,0.0,21.28810337,1.2057056
AYT,146,2,2024-06-29T09:55:10.463Z,english_31.wav,0,peel,794,19,5,Japanese,F,1,0.1,68.821868,0.99381392
AYT,146,2,2024-06-29T09:55:10.463Z,english_31.wav,0,peel,794,19,5,Japanese,F,2,0.2,-73.02143346,0.87600828
AYT,146,2,2024-06-29T09:55:10.463Z,english_31.wav,0,peel,794,19,5,Japanese,F,3,0.3,68.60173581,1.15844697
AYT,146,2,2024-06-29T09:55:10.463Z,english_31.wav,0,peel,794,19,5,Japanese,F,4,0.32341667,51.47999234,1.3722803
AYT,147,2,2024-06-29T09:55:10.463Z,english_907.wav,0,peel,712,19,5,Japanese,F,0,0.0,13.97638225,0.68575839
AYT,147,2,2024-06-29T09:55:10.463Z,english_907.wav,0,peel,712,19,5,Japanese,F,1,0.1,36.81481791,1.58611259
AYT,147,2,2024-06-29T09:55:10.463Z,english_907.wav,0,peel,712,19,5,Japanese,F,2,0.2,1.21651202,1.59547025
AYT,147,2,2024-06-29T09:55:10.463Z,english_907.wav,0,peel,712,19,5,Japanese,F,3,0.3,35.47405672,0.75888392
AYT,147,2,2024-06-29T09:55:10.463Z,english_907.wav,0,peel,712,19,5,Japanese,F,4,0.32341667,-27.93760057,0.06937964
AYT,148,2,2024-06-29T09:55:10.463Z,english_143.wav,0,pill,1106,19,5,Japanese,F,0,0.0,-40.90047407,0.05812512
AYT,148,2,2024-06-29T09:55:10.463Z,english_143.wav,0,pill,1106,19,5,Japanese,F,1,0.1,-35.35291254,0.81203879
AYT,148,2,2024-06-29T09:55:10.463Z,english_143.wav,0,pill,1106,19,5,Japanese,F,2,0.2,36.32983964,0.61124866
AYT,148,2,2024-06-29T09:55:10.463Z,english_143.wav,0,pill,1106,19,5,Japanese,F,3,0.3,-7.67980486,0.41683772
AYT,148,2,2024-06-29T09:55:10.463Z,english_143.wav,0,pill,1106,19,5,Japanese,F,4,0.32341667,-89.59854269,1.86697452
AYT,149,2,2024-06-29T09:55:10.463Z,english_369.wav,0,peel,1676,19,5,Japanese,F,0,0.0,-12.14177447,1.64093778
AYT,149,2,2024-06-29T09:55:10.463Z,english_369.wav,0,peel,1676,19,5,Japanese,F,1,0.1,76.29699147,1.47479283
AYT,149,2,2024-06-29T09:55:10.463Z,english_369.wav,0,peel,1676,19,5,Japanese,F,2,0.2,-85.49552365,1.31757561
AYT,149,2,2024-06-29T09:55:10.463Z,english_369.wav,0,peel,1676,19,5,Japanese,F,3,0.3,-68.94608988,1.92077404
AYT,149,2,2024-06-29T09:55:10.463Z,english_369.wav,0,peel,1676,19,5,Japanese,F,4,0.32341667,40.32615784,1.4628922
AYT,150,3,2024-06-29T09:55:10.463Z,english_249.wav,0,pill,1113,19,5,Japanese,F,0,0.0,78.40227579,1.91339694
AYT,150,3,2024-06-29T09:55:10.463Z,english_249.wav,0,pill,1113,19,5,Japanese,F,1,0.1,-55.1129652,1.00834957
AYT,150,3,2024-06-29T09:55:10.463Z,english_249.wav,0,pill,1113,19,5,Japanese,F,2,0.2,6.74447168,0.29418026
AYT,150,3,2024-06-29T09:55:10.463Z,english_249.wav,0,pill,1113,19,5,Japanese,F,3,0.3,27.3376716,1.53256547
AYT,150,3,2024-06-29T09:55:10.463Z,english_249.wav,0,pill,1113,19,5,Japanese,F,4,0.32341667,-97.08031886,0.99264532
AYT,151,3,2024-06-29T09:55:10.463Z,english_406.wav,0,peel,364,19,5,Japanese,F,0,0.0,28.09923375,1.43312072
AYT,151,3,2024-06-29T09:55:10.463Z,english_406.wav,0,peel,364,19,5,Japanese,F,1,0.1,-15.10813675,0.8890381
AYT,151,3,2024-06-29T09:55:10.463Z,english_406.wav,0,peel,364,19,5,Japanese,F,2,0.2,-12.43931725,0.60560557
AYT,151,3,2024-06-29T09:55:10.463Z,english_406.wav,0,peel,364,19,5,Japanese,F,3,0.3,-27.33468297,1.13565345
AYT,151,3,2024-06-29T09:55:10.463Z,english_406.wav,0,peel,364,19,5,Japanese,F,4,0.32341667,-62.66931892,1.8467177
AYT,152,3,2024-06-29T09:55:10.463Z,english_593.wav,0,pill,1492,19,5,Japanese,F,0,0.0,0.23295982,1.83954553
AYT,152,3,2024-06-29T09:55:10.463Z,english_593.wav,0,pill,1492,19,5,Japanese,F,1,0.1,-0.52832444,1.77820403
AYT,152,3,2024-06-29T09:55:10.463Z,english_593.wav,0,pill,1492,19,5,Japanese,F,2,0.2,18.28609946,0.36770598
AYT,152,3,2024-06-29T09:55:10.463Z,english_593.wav,0,pill,1492,19,5,Japanese,F,3,0.3,21.25816485,0.42189114
AYT,152,3,2024-06-29T09:55:10.463Z,english_593.wav,0,pill,1492,19,5,Japanese,F,4,0.32341667,60.44039038,0.07588974
AYT,153,3,2024-06-29T09:55:10.463Z,english_437.wav,0,peel,996,19,5,Japanese,F,0,0.0,61.91803223,0.36516876
AYT,153,3,2024-06-29T09:55:10.463Z,english_437.wav,0,peel,996,19,5,Japanese,F,1,0.1,0.99543568,0.43500315
AYT,153,3,2024-06-29T09:55:10.463Z,english_437.wav,0,peel,996,19,5,Japanese,F,2,0.2,-50.96874522,1.25398366
AYT,153,3,2024-06-29T09:55:10.463Z,english_437.wav,0,peel,996,19,5,Japanese,F,3,0.3,-47.73319396,0.60570222
AYT,153,3,2024-06-29T09:55:10.463Z,english_437.wav,0,peel,996,19,5,Japanese,F,4,0.32341667,15.35939938,0.97208355
AYT,154,3,2024-06-29T09:55:10.463Z,english_648.wav,0,peel,1162,19,5,Japanese,F,0,0.0,-36.17742204,0.57576188
AYT,154,3,2024-06-29T09:55:10.463Z,english_648.wav,0,peel,1162,19,5,Japanese,F,1,0.1,30.10697278,1.1310908
AYT,154,3,2024-06-29T09:55:10.463Z,english_648.wav,0,peel,1162,19,5,Japanese,F,2,0.2,-67.31320052,1.67112441
AYT,154,3,2024-06-29T09:55:10.463Z,english_648.wav,0,peel,1162,19,5,Japanese,F,3,0.3,-10.94597212,0.39641968
AYT,154,3,2024-06-29T09:55:10.463Z,english_648.wav,0,peel,1162,19,5,Japanese,F,4,0.32341667,72.59648235,1.93789316
AYT,155,3,2024-06-29T09:55:10.463Z,english_235.wav,0,peel,1323,19,5,Japanese,F,0,0.0,-1.09951899,1.56432712
AYT,155,3,2024-06-29T09:55:10.463Z,english_235.wav,0,peel,1323,19,5,Japanese,F,1,0.1,-96.83918407,0.18127978
AYT,155,3,2024-06-29T09:55:10.463Z,english_235.wav,0,peel,1323,19,5,Japanese,F,2,0.2,96.22116446,1.26168206
AYT,155,3,2024-06-29T09:55:10.463Z,english_235.wav,0,peel,1323,19,5,Japanese,F,3,0.3,48.9502898,1.98140435
AYT,155,3,2024-06-29T09:55:10.463Z,english_235.wav,0,peel,1323,19,5,Japanese,F,4,0.32341667,38.18641725,0.52366779
AYT,156,3,2024-06-29T09:55:10.463Z,english_780.wav,0,peel,961,19,5,Japanese,F,0,0.0,-15.29393571,0.99089132
AYT,156,3,2024-06-29T09:55:10.463Z,english_780.wav,0,peel,961,19,5,Japanese,F,1,0.1,-51.86215325,0.3216491
AYT,156,3,2024-06-29T09:55:10.463Z,english_780.wav,0,peel,961,19,5,Japanese,F,2,0.2,-27.43889325,1.38797184
AYT,156,3,2024-06-29T09:55:10.463Z,english_780.wav,0,peel,961,19,5,Japanese,F,3,0.3,37.56841363,0.96060741
AYT,156,3,2024-06-29T09:55:10.463Z,english_780.wav,0,peel,961,19,5,Japanese,F,4,0.32341667,-40.51855496,0.89048449
AYT,157,3,2024-06-29T09:55:10.463Z,english_319.wav,0,pill,620,19,5,Japanese,F,0,0.0,-84.37928886,1.17141126
AYT,157,3,2024-06-29T09:55:10.463Z,english_319.wav,0,pill,620,19,5,Japanese,F,1,0.1,-52.76931383,1.13741792
AYT,157,3,2024-06-29T09:55:10.463Z,english_319.wav,0,pill,620,19,5,Japanese,F,2,0.2,56.06390533,0.91618882
AYT,157,3,2024-06-29T09:55:10.463Z,english_319.wav,0,pill,620,19,5,Japanese,F,3,0.3,-69.46438111,0.7080153
AYT,157,3,2024-06-29T09:55:10.463Z,english_319.wav,0,pill,620,19,5,Japanese,F,4,0.32341667,91.86152445,0.5910213
AYT,158,3,2024-06-29T09:55:10.463Z,english_783.wav,0,peel,598,19,5,Japanese,F,0,0.0,23.05268069,1.49549247
AYT,158,3,2024-06-29T09:55:10.463Z,english_783.wav,0,peel,598,19,5,Japanese,F,1,0.1,9.36005369,0.13797177
AYT,158,3,2024-06-29T09:55:10.463Z,english_783.wav,0,peel,598,19,5,Japanese,F,2,0.2,62.81522218,1.80236654
AYT,158,3,2024-06-29T09:55:10.463Z,english_783.wav,0,peel,598,19,5,Japanese,F,3,0.3,67.71456376,0.33800471
AYT,158,3,2024-06-29T09:55:10.463Z,english_783.wav,0,peel,598,19,5,Japanese,F,4,0.32341667,77.96788237,1.97708045
AYT,159,3,2024-06-29T09:55:10.463Z,english_991.wav,0,pill,720,19,5,Japanese,F,0,0.0,-73.33762004,0.7279734
AYT,159,3,2024-06-29T09:55:10.463Z,english_991.wav,0,pill,720,19,5,Japanese,F,1,0.1,-90.08677455,0.374322
AYT,159,3,2024-06-29T09:55:10.463Z,english_991.wav,0,pill,720,19,5,Japanese,F,2,0.2,-98.84294029,0.98894361
AYT,159,3,2024-06-29T09:55:10.463Z,english_991.wav,0,pill,720,19,5,Japanese,F,3,0.3,59.84972986,1.07774369
AYT,159,3,2024-06-29T09:55:10.463Z,english_991.wav,0,pill,720,19,5,Japanese,F,4,0.32341667,21.03568625,0.51480923
AYT,160,3,2024-06-29T09:55:10.463Z,english_804.wav,0,pill,497,19,5,Japanese,F,0,0.0,11.23319328,0.16159815
AYT,160,3,2024-06-29T09:55:10.463Z,english_804.wav,0,pill,497,19,5,Japanese,F,1,0.1,-75.15189859,1.76023076
AYT,160,3,2024-06-29T09:55:10.463Z,english_804.wav,0,pill,497,19,5,Japanese,F,2,0.2,5.39397939,0.7355024
AYT,160,3,2024-06-29T09:55:10.463Z,english_804.wav,0,pill,497,19,5,Japanese,F,3,0.3,42.92141331,1.74636497
AYT,160,3,2024-06-29T09:55:10.463Z,english_804.wav,0,pill,497,19,5,Japanese,F,4,0.32341667,-79.84726866,1.05562007
AYT,161,3,2024-06-29T09:55:10.463Z,english_797.wav,0,peel,438,19,5,Japanese,F,0,0.0,-10.77604935,1.75152448
AYT,161,3,2024-06-29T09:55:10.463Z,english_797.wav,0,peel,438,19,5,Japanese,F,1,0.1,76.52998448,0.25625033
AYT,161,3,2024-06-29T09:55:10.463Z,english_797.wav,0,peel,438,19,5,Japanese,F,2,0.2,-52.30950648,1.63910521
AYT,161,3,2024-06-29T09:55:10.463Z,english_797.wav,0,peel,438,19,5,Japanese,F,3,0.3,-19.27189704,1.44412191
AYT,161,3,2024-06-29T09:55:10.463Z,english_797.wav,0,peel,438,19,5,Japanese,F,4,0.32341667,-68.52312916,1.41513857
AYT,162,3,2024-06-29T09:55:10.463Z,english_714.wav,0,peel,1202,19,5,Japanese,F,0,0.0,6.62463448,0.98205871
AYT,162,3,2024-06-29T09:55:10.463Z,english_714.wav,0,peel,1202,19,5,Japanese,F,1,0.1,-7.37775178,1.90018259
AYT,162,3,2024-06-29T09:55:10.463Z,english_714.wav,0,peel,1202,19,5,Japanese,F,2,0.2,-58.74003357,1.33033281
AYT,162,3,2024-06-29T09:55:10.463Z,english_714.wav,0,peel,1202,19,5,Japanese,F,3,0.3,-38.84014254,0.20009115
AYT,162,3,2024-06-29T09:55:10.463Z,english_714.wav,0,peel,1202,19,5,Japanese,F,4,0.32341667,-23.67047323,0.44650169
AYT,163,3,2024-06-29T09:55:10.463Z,english_597.wav,0,pill,1579,19,5,Japanese,F,0,0.0,-83.66792118,0.17389721
AYT,163,3,2024-06-29T09:55:10.463Z,english_597.wav,0,pill,1579,19,5,Japanese,F,1,0.1,-19.98744657,0.39349672
AYT,163,3,2024-06-29T09:55:10.463Z,english_597.wav,0,pill,1579,19,5,Japanese,F,2,0.2,-30.38458549,1.97590818
AYT,163,3,2024-06-29T09:55:10.463Z,english_597.wav,0,pill,1579,19,5,Japanese,F,3,0.3,-63.4406446,1.84988074
AYT,163,3,2024-06-29T09:55:10.463Z,english_597.wav,0,pill,1579,19,5,Japanese,F,4,0.32341667,25.67812426,1.17620678
AYT,164,3,2024-06-29T09:55:10.463Z,english_434.wav,0,pill,863,19,5,Japanese,F,0,0.0,-4.12787863,0.96421208
AYT,164,3,2024-06-29T09:55:10.463Z,english_434.wav,0,pill,863,19,5,Japanese,F,1,0.1,-30.19441281,1.08561731
AYT,164,3,2024-06-29T09:55:10.463Z,english_434.wav,0,pill,863,19,5,Japanese,F,2,0.2,41.04377471,1.46356301
AYT,164,3,2024-06-29T09:55:10.463Z,english_434.wav,0,pill,863,19,5,Japanese,F,3,0.3,-32.43591961,0.25116585
AYT,164,3,2024-06-29T09:55:10.463Z,english_434.wav,0,pill,863,19,5,Japanese,F,4,0.32341667,61.53108406,0.73120458
AYT,165,3,2024-06-29T09:55:10.463Z,english_918.wav,0,peel,388,19,5,Japanese,F,0,0.0,-64.11083249,1.38668504
AYT,165,3,2024-06-29T09:55:10.463Z,english_918.wav,0,peel,388,19,5,Japanese,F,1,0.1,75.84330997,1.4522357
AYT,165,3,2024-06-29T09:55:10.463Z,english_918.wav,0,peel,388,19,5,Japanese,F,2,0.2,-30.10314186,1.37046734
AYT,165,3,2024-06-29T09:55:10.463Z,english_918.wav,0,peel,388,19,5,Japanese,F,3,0.3,91.40385877,0.70209545
AYT,165,3,2024-06-29T09:55:10.463Z,english_918.wav,0,peel,388,19,5,Japanese,F,4,0.32341667,-14.12068895,0.09881605
AYT,166,3,2024-06-29T09:55:10.463Z,english_308.wav,0,peel,907,19,5,Japanese,F,0,0.0,71.04817524,1.27905886
AYT,166,3,2024-06-29T09:55:10.463Z,english_308.wav,0,peel,907,19,5,Japanese,F,1,0.1,-29.23230128,0.28593244
AYT,166,3,2024-06-29T09:55:10.463Z,english_308.wav,0,peel,907,19,5,Japanese,F,2,0.2,-23.90252129,0.87298087
AYT,166,3,2024-06-29T09:55:10.463Z,english_308.wav,0,peel,907,19,5,Japanese,F,3,0.3,-20.50746627,0.50431278
AYT,166,3,2024-06-29T09:55:10.463Z,english_308.wav,0,peel,907,19,5,Japanese,F,4,0.32341667,-25.31970697,1.06118321
AYT,167,3,2024-06-29T09:55:10.463Z,english_162.wav,0,peel,548,19,5,Japanese,F,0,0.0,-93.72635155,0.46304305
AYT,167,3,2024-06-29T09:55:10.463Z,english_162.wav,0,peel,548,19,5,Japanese,F,1,0.1,-77.68974918,1.90149112
AYT,167,3,2024-06-29T09:55:10.463Z,english_162.wav,0,peel,548,19,5,Japanese,F,2,0.2,15.19581884,1.02605911
AYT,167,3,2024-06-29T09:55:10.463Z,english_162.wav,0,peel,548,19,5,Japanese,F,3,0.3,64.44828449,1.67084882
AYT,167,3,2024-06-29T09:55:10.463Z,english_162.wav,0,peel,548,19,5,Japanese,F,4,0.32341667,-98.3856278,0.11792656
AYT,168,3,2024-06-29T09:55:10.463Z,english_134.wav,0,peel,525,19,5,Japanese,F,0,0.0,70.72156413,1.84700732
AYT,168,3,2024-06-29T09:55:10.463Z,english_134.wav,0,peel,525,19,5,Japanese,F,1,0.1,-64.20531103,1.20878884
AYT,168,3,2024-06-29T09:55:10.463Z,english_134.wav,0,peel,525,19,5,Japanese,F,2,0.2,35.7891913,0.51924654
AYT,168,3,2024-06-29T09:55:10.463Z,english_134.wav,0,peel,525,19,5,Japanese,F,3,0.3,-77.33475241,1.95615398
AYT,168,3,2024-06-29T09:55:10.463Z,english_134.wav,0,peel,525,19,5,Japanese,F,4,0.32341667,85.6978336,1.72102519
AYT,169,3,2024-06-29T09:55:10.463Z,english_396.wav,0,peel,1902,19,5,Japanese,F,0,0.0,2.39126912,1.48231007
AYT,169,3,2024-06-29T09:55:10.463Z,english_396.wav,0,peel,1902,19,5,Japanese,F,1,0.1,-38.95035948,0.85829723
AYT,169,3,2024-06-29T09:55:10.463Z,english_396.wav,0,peel,1902,19,5,Japanese,F,2,0.2,78.31320688,1.16655306
AYT,169,3,2024-06-29T09:55:10.463Z,english_396.wav,0,peel,1902,19,5,Japanese,F,3,0.3,16.98024706,0.51680164
AYT,169,3,2024-06-29T09:55:10.463Z,english_396.wav,0,peel,1902,19,5,Japanese,F,4,0.32341667,44.66397079,1.5133775
AYT,170,3,2024-06-29T09:55:10.463Z,english_939.wav,0,pill,580,19,5,Japanese,F,0,0.0,-23.2558256,0.1774722
AYT,170,3,2024-06-29T09:55:10.463Z,english_939.wav,0,pill,580,19,5,Japanese,F,1,0.1,-16.62065377,0.56271239
AYT,170,3,2024-06-29T09:55:10.463Z,english_939.wav,0,pill,580,19,5,Japanese,F,2,0.2,-49.54734698,1.42782479
AYT,170,3,2024-06-29T09:55:10.463Z,english_939.wav,0,pill,580,19,5,Japanese,F,3,0.3,22.82101289,0.76516147
AYT,170,3,2024-06-29T09:55:10.463Z,english_939.wav,0,pill,580,19,5,Japanese,F,4,0.32341667,28.63490654,1.70219777
AYT,171,3,2024-06-29T09:55:10.463Z,english_581.wav,0,pill,1788,19,5,Japanese,F,0,0.0,-4.1565262,0.01704603
AYT,171,3,2024-06-29T09:55:10.463Z,english_581.wav,0,pill,1788,19,5,Japanese,F,1,0.1,84.55344465,1.32903406
AYT,171,3,2024-06-29T09:55:10.463Z,english_581.wav,0,pill,1788,19,5,Japanese,F,2,0.2,-57.45750027,1.58046526
AYT,171,3,2024-06-29T09:55:10.463Z,english_581.wav,0,pill,1788,19,5,Japanese,F,3,0.3,-14.35569009,1.16633299
AYT,171,3,2024-06-29T09:55:10.463Z,english_581.wav,0,pill,1788,19,5,Japanese,F,4,0.32341667,-54.33758456,1.20758605
AYT,172,3,2024-06-29T09:55:10.463Z,english_731.wav,0,pill,1037,19,5,Japanese,F,0,0.0,91.74609406,0.2840719
AYT,172,3,2024-06-29T09:55:10.463Z,english_731.wav,0,pill,1037,19,5,Japanese,F,1,0.1,96.5637085,1.75324284
AYT,172,3,2024-06-29T09:55:10.463Z,english_731.wav,0,pill,1037,19,5,Japanese,F,2,0.2,-58.02596537,1.43086201
AYT,172,3,2024-06-29T09:55:10.463Z,english_731.wav,0,pill,1037,19,5,Japanese,F,3,0.3,21.59328018,1.68336342
AYT,172,3,2024-06-29T09:55:10.463Z,english_731.wav,0,pill,1037,19,5,Japanese,F,4,0.32341667,13.26044458,0.60031718
AYT,173,3,2024-06-29T09:55:10.463Z,english_337.wav,0,peel,1106,19,5,Japanese,F,0,0.0,17.21863108,0.02346696
AYT,173,3,2024-06-29T09:55:10.463Z,english_337.wav,0,peel,1106,19,5,Japanese,F,1,0.1,-16.30098312,1.2349353
AYT,173,3,2024-06-29T09:55:10.463Z,english_337.wav,0,peel,1106,19,5,Japanese,F,2,0.2,70.17733319,1.07823504
AYT,173,3,2024-06-29T09:55:10.463Z,english_337.wav,0,peel,1106,19,5,Japanese,F,3,0.3,-7.16478631,1.83339424
AYT,173,3,2024-06-29T09:55:10.463Z,english_337.wav,0,peel,1106,19,5,Japanese,F,4,0.32341667,-84.96176299,1.87583376
AYT,174,3,2024-06-29T09:55:10.463Z,english_998.wav,0,pill,1621,19,5,Japanese,F,0,0.0,-57.03196796,0.0179282
AYT,174,3,2024-06-29T09:55:10.463Z,english_998.wav,0,pill,1621,19,5,Japanese,F,1,0.1,-12.93623633,1.72217412
AYT,174,3,2024-06-29T09:55:10.463Z,english_998.wav,0,pill,1621,19,5,Japanese,F,2,0.2,-24.63186366,0.91011795
AYT,174,3,2024-06-29T09:55:10.463Z,english_998.wav,0,pill,1621,19,5,Japanese,F,3,0.3,-10.49750637,1.24282972
AYT,174,3,2024-06-29T09:55:10.463Z,english_998.wav,0,pill,1621,19,5,Japanese,F,4,0.32341667,22.76793653,0.40520665
AYT,175,3,2024-06-29T09:55:10.463Z,english_306.wav,0,peel,506,19,5,Japanese,F,0,0.0,-78.46406697,1.96625377
AYT,175,3,2024-06-29T09:55:10.463Z,english_306.wav,0,peel,506,19,5,Japanese,F,1,0.1,-60.64765069,1.9128761
AYT,175,3,2024-06-29T09:55:10.463Z,english_306.wav,0,peel,506,19,5,Japanese,F,2,0.2,41.654101,0.92284414
AYT,175,3,2024-06-29T09:55:10.463Z,english_306.wav,0,peel,506,19,5,Japanese,F,3,0.3,58.45609749,1.12546267
AYT,175,3,2024-06-29T09:55:10.463Z,english_306.wav,0,peel,506,19,5,Japanese,F,4,0.32341667,-89.32145871,0.77622038
AYT,176,3,2024-06-29T09:55:10.463Z,english_103.wav,0,pill,1250,19,5,Japanese,F,0,0.0,-79.54710498,0.84178061
AYT,176,3,2024-06-29T09:55:10.463Z,english_103.wav,0,pill,1250,19,5,Japanese,F,1,0.1,-41.31314025,1.9706485
AYT,176,3,2024-06-29T09:55:10.463Z,english_103.wav,0,pill,1250,19,5,Japanese,F,2,0.2,-48.58046961,1.55059924
AYT,176,3,2024-06-29T09:55:10.463Z,english_103.wav,0,pill,1250,19,5,Japanese,F,3,0.3,50.88097047,1.14550684
AYT,176,3,2024-06-29T09:55:10.463Z,english_103.wav,0,pill,1250,19,5,Japanese,F,4,0.32341667,21.22320476,1.67039139
AYT,177,3,2024-06-29T09:55:10.463Z,english_996.wav,0,peel,463,19,5,Japanese,F,0,0.0,-71.70531914,1.36459419
AYT,177,3,2024-06-29T09:55:10.463Z,english_996.wav,0,peel,463,19,5,Japanese,F,1,0.1,-47.61419544,0.5051745
AYT,177,3,2024-06-29T09:55:10.463Z,english_996.wav,0,peel,463,19,5,Japanese,F,2,0.2,48.0330823,1.09957376
AYT,177,3,2024-06-29T09:55:10.463Z,english_996.wav,0,peel,463,19,5,Japanese,F,3,0.3,34.27821317,0.27950682
AYT,177,3,2024-06-29T09:55:10.463Z,english_996.wav,0,peel,463,19,5,Japanese,F,4,0.32341667,-72.4662587,0.22836241
AYT,178,3,2024-06-29T09:55:10.463Z,english_981.wav,0,peel,358,19,5,Japanese,F,0,0.0,-19.49446297,1.96452006
AYT,178,3,2024-06-29T09:55:10.463Z,english_981.wav,0,peel,358,19,5,Japanese,F,1,0.1,-69.0386812,1.2006287
AYT,178,3,2024-06-29T09:55:10.463Z,english_981.wav,0,peel,358,19,5,Japanese,F,2,0.2,-25.77088537,0.98600753
AYT,178,3,2024-06-29T09:55:10.463Z,english_981.wav,0,peel,358,19,5,Japanese,F,3,0.3,65.67633712,0.21362544
AYT,178,3,2024-06-29T09:55:10.463Z,english_981.wav,0,peel,358,19,5,Japanese,F,4,0.32341667,-6.1640169,0.33780549
AYT,179,3,2024-06-29T09:55:10.463Z,english_964.wav,0,peel,1032,19,5,Japanese,F,0,0.0,11.04708611,0.74384055
AYT,179,3,2024-06-29T09:55:10.463Z,english_964.wav,0,peel,1032,19,5,Japanese,F,1,0.1,-10.67848967,0.46038505
AYT,179,3,2024-06-29T09:55:10.463Z,english_964.wav,0,peel,1032,19,5,Japanese,F,2,0.2,64.95328634,0.80934661
AYT,179,3,2024-06-29T09:55:10.463Z,english_964.wav,0,peel,1032,19,5,Japanese,F,3,0.3,-78.10341524,1.94282647
AYT,179,3,2024-06-29T09:55:10.463Z,english_964.wav,0,peel,1032,19,5,Japanese,F,4,0.32341667,-48.61651995,1.99482071
AYT,180,3,2024-06-29T09:55:10.463Z,english_428.wav,0,pill,1480,19,5,Japanese,F,0,0.0,-98.34466569,1.83106884
AYT,180,3,2024-06-29T09:55:10.463Z,english_428.wav,0,pill,1480,19,5,Japanese,F,1,0.1,-10.51162175,1.34345266
AYT,180,3,2024-06-29T09:55:10.463Z,english_428.wav,0,pill,1480,19,5,Japanese,F,2,0.2,97.93427859,0.65853672
AYT,180,3,2024-06-29T09:55:10.463Z,english_428.wav,0,pill,1480,19,5,Japanese,F,3,0.3,35.61870537,1.28105878
AYT,180,3,2024-06-29T09:55:10.463Z,english_428.wav,0,pill,1480,19,5,Japanese,F,4,0.32341667,-12.49352836,0.15324236
AYT,181,3,2024-06-29T09:55:10.463Z,english_957.wav,0,pill,346,19,5,Japanese,F,0,0.0,-8.34255742,0.77577071
AYT,181,3,2024-06-29T09:55:10.463Z,english_957.wav,0,pill,346,19,5,Japanese,F,1,0.1,-36.8236739,1.35435363
AYT,181,3,2024-06-29T09:55:10.463Z,english_957.wav,0,pill,346,19,5,Japanese,F,2,0.2,6.68978896,0.94592229
AYT,181,3,2024-06-29T09:55:10.463Z,english_957.wav,0,pill,346,19,5,Japanese,F,3,0.3,-85.51463088,0.8988777
AYT,181,3,2024-06-29T09:55:10.463Z,english_957.wav,0,pill,346,19,5,Japanese,F,4,0.32341667,-16.82289389,0.34403417
AYT,182,3,2024-06-29T09:55:10.463Z,english_452.wav,0,peel,1307,19,5,Japanese,F,0,0.0,-15.91859121,0.16050204
AYT,182,3,2024-06-29T09:55:10.463Z,english_452.wav,0,peel,1307,19,5,Japanese,F,1,0.1,66.54493607,1.05820221
AYT,182,3,2024-06-29T09:55:10.463Z,english_452.wav,0,peel,1307,19,5,Japanese,F,2,0.2,49.2405228,1.42476674
AYT,182,3,2024-06-29T09:55:10.463Z,english_452.wav,0,peel,1307,19,5,Japanese,F,3,0.3,-8.75382859,0.48128336
AYT,182,3,2024-06-29T09:55:10.463Z,english_452.wav,0,peel,1307,19,5,Japanese,F,4,0.32341667,-35.51952716,0.52453318
AYT,183,3,2024-06-29T09:55:10.463Z,english_303.wav,0,peel,1082,19,5,Japanese,F,0,0.0,67.00540241,1.22520816
AYT,183,3,2024-06-29T09:55:10.463Z,english_303.wav,0,peel,1082,19,5,Japanese,F,1,0.1,32.95821842,1.22732479
AYT,183,3,2024-06-29T09:55:10.463Z,english_303.wav,0,peel,1082,19,5,Japanese,F,2,0.2,-23.67517146,0.54923068
AYT,183,3,2024-06-29T09:55:10.463Z,english_303.wav,0,peel,1082,19,5,Japanese,F,3,0.3,-66.94926695,0.8977578
AYT,183,3,2024-06-29T09:55:10.463Z,english_303.wav,0,peel,1082,19,5,Japanese,F,4,0.32341667,65.71723135,1.41807679
AYT,184,3,2024-06-29T09:55:10.463Z,english_262.wav,0,pill,925,19,5,Japanese,F,0,0.0,-55.0240476,0.91992097
AYT,184,3,2024-06-29T09:55:10.463Z,english_262.wav,0,pill,925,19,5,Japanese,F,1,0.1,46.31562141,0.94194362
