subj,trial,block,date,stim,stim_order,response,rt,age,english,language,sex,param_index,segment,pitch,stretch
consent,0,0,2024-05-30T21:02:11.858Z,english_765.wav,0,pill,2506,29,2,Japanese,m,0,0.0,-52.71695997,0.24697616
consent,0,0,2024-05-30T21:02:11.858Z,english_765.wav,0,pill,2506,29,2,Japanese,m,1,0.1,-0.72548599,1.34458244
consent,0,0,2024-05-30T21:02:11.858Z,english_765.wav,0,pill,2506,29,2,Japanese,m,2,0.2,-25.46106624,0.2833524
consent,0,0,2024-05-30T21:02:11.858Z,english_765.wav,0,pill,2506,29,2,Japanese,m,3,0.3,-15.36834083,0.99517128
consent,0,0,2024-05-30T21:02:11.858Z,english_765.wav,0,pill,2506,29,2,Japanese,m,4,0.32341667,-34.08212533,0.81265208
consent,1,0,2024-05-30T21:02:11.858Z,english_363.wav,0,pill,7970,29,2,Japanese,m,0,0.0,-8.62246293,0.22304778
consent,1,0,2024-05-30T21:02:11.858Z,english_363.wav,0,pill,7970,29,2,Japanese,m,1,0.1,-37.95317313,0.51009023
consent,1,0,2024-05-30T21:02:11.858Z,english_363.wav,0,pill,7970,29,2,Japanese,m,2,0.2,-98.56362786,1.67320701
consent,1,0,2024-05-30T21:02:11.858Z,english_363.wav,0,pill,7970,29,2,Japanese,m,3,0.3,79.4101663,0.32318158
consent,1,0,2024-05-30T21:02:11.858Z,english_363.wav,0,pill,7970,29,2,Japanese,m,4,0.32341667,-19.01593507,1.23606141
consent,2,0,2024-05-30T21:02:11.858Z,english_287.wav,0,pill,4079,29,2,Japanese,m,0,0.0,-5.71925808,1.04112926
consent,2,0,2024-05-30T21:02:11.858Z,english_287.wav,0,pill,4079,29,2,Japanese,m,1,0.1,-94.78041007,0.35149142
consent,2,0,2024-05-30T21:02:11.858Z,english_287.wav,0,pill,4079,29,2,Japanese,m,2,0.2,8.34641368,0.86781598
consent,2,0,2024-05-30T21:02:11.858Z,english_287.wav,0,pill,4079,29,2,Japanese,m,3,0.3,36.34893025,1.897904
consent,2,0,2024-05-30T21:02:11.858Z,english_287.wav,0,pill,4079,29,2,Japanese,m,4,0.32341667,-22.47689594,0.5607403
consent,3,0,2024-05-30T21:02:11.858Z,english_493.wav,0,pill,2266,29,2,Japanese,m,0,0.0,42.62366846,0.72879325
consent,3,0,2024-05-30T21:02:11.858Z,english_493.wav,0,pill,2266,29,2,Japanese,m,1,0.1,-24.95330968,1.87742997
consent,3,0,2024-05-30T21:02:11.858Z,english_493.wav,0,pill,2266,29,2,Japanese,m,2,0.2,82.3526737,1.69463318
consent,3,0,2024-05-30T21:02:11.858Z,english_493.wav,0,pill,2266,29,2,Japanese,m,3,0.3,53.78370402,0.82529142
consent,3,0,2024-05-30T21:02:11.858Z,english_493.wav,0,pill,2266,29,2,Japanese,m,4,0.32341667,-52.5410085,0.10126548
consent,4,0,2024-05-30T21:02:11.858Z,english_688.wav,0,pill,918,29,2,Japanese,m,0,0.0,-45.64286614,1.06356906
consent,4,0,2024-05-30T21:02:11.858Z,english_688.wav,0,pill,918,29,2,Japanese,m,1,0.1,39.73956276,0.85197809
consent,4,0,2024-05-30T21:02:11.858Z,english_688.wav,0,pill,918,29,2,Japanese,m,2,0.2,40.53719602,0.68718846
consent,4,0,2024-05-30T21:02:11.858Z,english_688.wav,0,pill,918,29,2,Japanese,m,3,0.3,-71.29470492,1.67995478
consent,4,0,2024-05-30T21:02:11.858Z,english_688.wav,0,pill,918,29,2,Japanese,m,4,0.32341667,73.7490074,1.45979079
consent,5,0,2024-05-30T21:02:11.858Z,english_512.wav,0,pill,1337,29,2,Japanese,m,0,0.0,92.76608442,1.91273189
consent,5,0,2024-05-30T21:02:11.858Z,english_512.wav,0,pill,1337,29,2,Japanese,m,1,0.1,-20.68005196,1.02897077
consent,5,0,2024-05-30T21:02:11.858Z,english_512.wav,0,pill,1337,29,2,Japanese,m,2,0.2,-55.10098951,0.7965214
consent,5,0,2024-05-30T21:02:11.858Z,english_512.wav,0,pill,1337,29,2,Japanese,m,3,0.3,79.8086149,1.98502062
consent,5,0,2024-05-30T21:02:11.858Z,english_512.wav,0,pill,1337,29,2,Japanese,m,4,0.32341667,-91.21136492,0.13323305
consent,6,0,2024-05-30T21:02:11.858Z,english_187.wav,0,pill,1002,29,2,Japanese,m,0,0.0,-18.35695568,0.61755768
consent,6,0,2024-05-30T21:02:11.858Z,english_187.wav,0,pill,1002,29,2,Japanese,m,1,0.1,10.21632188,1.6626445
consent,6,0,2024-05-30T21:02:11.858Z,english_187.wav,0,pill,1002,29,2,Japanese,m,2,0.2,0.69047377,0.70950015
consent,6,0,2024-05-30T21:02:11.858Z,english_187.wav,0,pill,1002,29,2,Japanese,m,3,0.3,67.68385624,0.8856252
consent,6,0,2024-05-30T21:02:11.858Z,english_187.wav,0,pill,1002,29,2,Japanese,m,4,0.32341667,48.15291114,1.92627472
consent,7,0,2024-05-30T21:02:11.858Z,english_529.wav,0,pill,1463,29,2,Japanese,m,0,0.0,13.90759343,0.83001961
consent,7,0,2024-05-30T21:02:11.858Z,english_529.wav,0,pill,1463,29,2,Japanese,m,1,0.1,-33.526088,0.02518437
consent,7,0,2024-05-30T21:02:11.858Z,english_529.wav,0,pill,1463,29,2,Japanese,m,2,0.2,-34.32120589,1.61112877
consent,7,0,2024-05-30T21:02:11.858Z,english_529.wav,0,pill,1463,29,2,Japanese,m,3,0.3,-18.30112723,0.91948239
consent,7,0,2024-05-30T21:02:11.858Z,english_529.wav,0,pill,1463,29,2,Japanese,m,4,0.32341667,16.4796061,0.33204613
consent,8,0,2024-05-30T21:02:11.858Z,english_971.wav,0,pill,2162,29,2,Japanese,m,0,0.0,27.0641734,0.01013217
consent,8,0,2024-05-30T21:02:11.858Z,english_971.wav,0,pill,2162,29,2,Japanese,m,1,0.1,-43.13434162,0.95424486
consent,8,0,2024-05-30T21:02:11.858Z,english_971.wav,0,pill,2162,29,2,Japanese,m,2,0.2,83.45364082,1.16332163
consent,8,0,2024-05-30T21:02:11.858Z,english_971.wav,0,pill,2162,29,2,Japanese,m,3,0.3,46.6736971,0.56494555
consent,8,0,2024-05-30T21:02:11.858Z,english_971.wav,0,pill,2162,29,2,Japanese,m,4,0.32341667,-28.9166607,0.73596031
consent,9,0,2024-05-30T21:02:11.858Z,english_216.wav,0,pill,1383,29,2,Japanese,m,0,0.0,-62.2888105,1.07577895
consent,9,0,2024-05-30T21:02:11.858Z,english_216.wav,0,pill,1383,29,2,Japanese,m,1,0.1,-52.19325919,1.07125686
consent,9,0,2024-05-30T21:02:11.858Z,english_216.wav,0,pill,1383,29,2,Japanese,m,2,0.2,-77.81566322,1.51342084
consent,9,0,2024-05-30T21:02:11.858Z,english_216.wav,0,pill,1383,29,2,Japanese,m,3,0.3,73.5246301,1.37714716
consent,9,0,2024-05-30T21:02:11.858Z,english_216.wav,0,pill,1383,29,2,Japanese,m,4,0.32341667,73.4409389,1.55456291
consent,10,0,2024-05-30T21:02:11.858Z,english_397.wav,0,pill,896,29,2,Japanese,m,0,0.0,89.67962381,0.42719638
consent,10,0,2024-05-30T21:02:11.858Z,english_397.wav,0,pill,896,29,2,Japanese,m,1,0.1,-80.29722345,0.89466904
consent,10,0,2024-05-30T21:02:11.858Z,english_397.wav,0,pill,896,29,2,Japanese,m,2,0.2,60.53564011,0.56174568
consent,10,0,2024-05-30T21:02:11.858Z,english_397.wav,0,pill,896,29,2,Japanese,m,3,0.3,9.94565725,0.1553242
consent,10,0,2024-05-30T21:02:11.858Z,english_397.wav,0,pill,896,29,2,Japanese,m,4,0.32341667,0.1319882,1.89079641
consent,11,0,2024-05-30T21:02:11.858Z,english_51.wav,0,pill,402,29,2,Japanese,m,0,0.0,88.48054236,0.21487201
consent,11,0,2024-05-30T21:02:11.858Z,english_51.wav,0,pill,402,29,2,Japanese,m,1,0.1,-53.5534646,0.90061677
consent,11,0,2024-05-30T21:02:11.858Z,english_51.wav,0,pill,402,29,2,Japanese,m,2,0.2,-33.31344908,0.24834744
consent,11,0,2024-05-30T21:02:11.858Z,english_51.wav,0,pill,402,29,2,Japanese,m,3,0.3,87.0533187,1.31052611
consent,11,0,2024-05-30T21:02:11.858Z,english_51.wav,0,pill,402,29,2,Japanese,m,4,0.32341667,-16.55219825,0.58644625
consent,12,0,2024-05-30T21:02:11.858Z,english_177.wav,0,pill,373,29,2,Japanese,m,0,0.0,87.98258728,1.54790065
consent,12,0,2024-05-30T21:02:11.858Z,english_177.wav,0,pill,373,29,2,Japanese,m,1,0.1,87.12011565,0.90861448
consent,12,0,2024-05-30T21:02:11.858Z,english_177.wav,0,pill,373,29,2,Japanese,m,2,0.2,-29.82518494,0.58649069
consent,12,0,2024-05-30T21:02:11.858Z,english_177.wav,0,pill,373,29,2,Japanese,m,3,0.3,54.38835911,0.51296238
consent,12,0,2024-05-30T21:02:11.858Z,english_177.wav,0,pill,373,29,2,Japanese,m,4,0.32341667,53.98423531,1.78492888
consent,13,0,2024-05-30T21:02:11.858Z,english_296.wav,0,pill,217,29,2,Japanese,m,0,0.0,-4.92142852,1.99305172
consent,13,0,2024-05-30T21:02:11.858Z,english_296.wav,0,pill,217,29,2,Japanese,m,1,0.1,-5.74196289,0.92633133
consent,13,0,2024-05-30T21:02:11.858Z,english_296.wav,0,pill,217,29,2,Japanese,m,2,0.2,76.26647078,0.44879969
consent,13,0,2024-05-30T21:02:11.858Z,english_296.wav,0,pill,217,29,2,Japanese,m,3,0.3,-62.74030654,1.47417428
consent,13,0,2024-05-30T21:02:11.858Z,english_296.wav,0,pill,217,29,2,Japanese,m,4,0.32341667,-60.661992,1.05571007
consent,14,0,2024-05-30T21:02:11.858Z,english_24.wav,0,pill,2007,29,2,Japanese,m,0,0.0,83.82729659,0.31203725
consent,14,0,2024-05-30T21:02:11.858Z,english_24.wav,0,pill,2007,29,2,Japanese,m,1,0.1,-2.54724082,1.56948954
consent,14,0,2024-05-30T21:02:11.858Z,english_24.wav,0,pill,2007,29,2,Japanese,m,2,0.2,88.70909739,0.87333864
consent,14,0,2024-05-30T21:02:11.858Z,english_24.wav,0,pill,2007,29,2,Japanese,m,3,0.3,48.93770926,0.88535019
consent,14,0,2024-05-30T21:02:11.858Z,english_24.wav,0,pill,2007,29,2,Japanese,m,4,0.32341667,53.25190048,0.66112496
consent,15,0,2024-05-30T21:02:11.858Z,english_521.wav,0,pill,1571,29,2,Japanese,m,0,0.0,-39.78859965,1.84590666
consent,15,0,2024-05-30T21:02:11.858Z,english_521.wav,0,pill,1571,29,2,Japanese,m,1,0.1,94.65680132,0.33665341
consent,15,0,2024-05-30T21:02:11.858Z,english_521.wav,0,pill,1571,29,2,Japanese,m,2,0.2,-68.68225016,1.01474729
consent,15,0,2024-05-30T21:02:11.858Z,english_521.wav,0,pill,1571,29,2,Japanese,m,3,0.3,19.56493677,0.73624599
consent,15,0,2024-05-30T21:02:11.858Z,english_521.wav,0,pill,1571,29,2,Japanese,m,4,0.32341667,69.42990376,1.4391639
consent,16,0,2024-05-30T21:02:11.858Z,english_97.wav,0,pill,547,29,2,Japanese,m,0,0.0,57.21139396,1.63402743
consent,16,0,2024-05-30T21:02:11.858Z,english_97.wav,0,pill,547,29,2,Japanese,m,1,0.1,-7.40408397,0.54734888
consent,16,0,2024-05-30T21:02:11.858Z,english_97.wav,0,pill,547,29,2,Japanese,m,2,0.2,77.7995227,1.5228594
consent,16,0,2024-05-30T21:02:11.858Z,english_97.wav,0,pill,547,29,2,Japanese,m,3,0.3,-51.1747528,1.13050105
consent,16,0,2024-05-30T21:02:11.858Z,english_97.wav,0,pill,547,29,2,Japanese,m,4,0.32341667,77.11982253,0.82586999
consent,17,0,2024-05-30T21:02:11.858Z,english_204.wav,0,pill,941,29,2,Japanese,m,0,0.0,67.46317025,1.58701212
consent,17,0,2024-05-30T21:02:11.858Z,english_204.wav,0,pill,941,29,2,Japanese,m,1,0.1,38.91463365,1.82178317
consent,17,0,2024-05-30T21:02:11.858Z,english_204.wav,0,pill,941,29,2,Japanese,m,2,0.2,-85.28377865,1.60361911
consent,17,0,2024-05-30T21:02:11.858Z,english_204.wav,0,pill,941,29,2,Japanese,m,3,0.3,55.65505401,0.21823774
consent,17,0,2024-05-30T21:02:11.858Z,english_204.wav,0,pill,941,29,2,Japanese,m,4,0.32341667,56.32983288,0.04661671
consent,18,0,2024-05-30T21:02:11.858Z,english_816.wav,0,pill,127,29,2,Japanese,m,0,0.0,-5.39935373,0.27372013
consent,18,0,2024-05-30T21:02:11.858Z,english_816.wav,0,pill,127,29,2,Japanese,m,1,0.1,-58.12348851,1.23542608
consent,18,0,2024-05-30T21:02:11.858Z,english_816.wav,0,pill,127,29,2,Japanese,m,2,0.2,-97.19740724,1.6956732
consent,18,0,2024-05-30T21:02:11.858Z,english_816.wav,0,pill,127,29,2,Japanese,m,3,0.3,4.60418864,0.17466083
consent,18,0,2024-05-30T21:02:11.858Z,english_816.wav,0,pill,127,29,2,Japanese,m,4,0.32341667,57.92285533,0.69657013
consent,19,0,2024-05-30T21:02:11.858Z,english_739.wav,0,pill,184,29,2,Japanese,m,0,0.0,-30.44662447,1.4086692
consent,19,0,2024-05-30T21:02:11.858Z,english_739.wav,0,pill,184,29,2,Japanese,m,1,0.1,-27.69908881,0.95518545
consent,19,0,2024-05-30T21:02:11.858Z,english_739.wav,0,pill,184,29,2,Japanese,m,2,0.2,25.08576745,1.0815723
consent,19,0,2024-05-30T21:02:11.858Z,english_739.wav,0,pill,184,29,2,Japanese,m,3,0.3,-20.92476775,0.08724184
consent,19,0,2024-05-30T21:02:11.858Z,english_739.wav,0,pill,184,29,2,Japanese,m,4,0.32341667,-46.92266257,1.12979104
consent,20,0,2024-05-30T21:02:11.858Z,english_390.wav,0,pill,63,29,2,Japanese,m,0,0.0,-50.40750922,1.41643644
consent,20,0,2024-05-30T21:02:11.858Z,english_390.wav,0,pill,63,29,2,Japanese,m,1,0.1,-38.67641955,0.84399933
consent,20,0,2024-05-30T21:02:11.858Z,english_390.wav,0,pill,63,29,2,Japanese,m,2,0.2,-37.03459725,1.67796426
consent,20,0,2024-05-30T21:02:11.858Z,english_390.wav,0,pill,63,29,2,Japanese,m,3,0.3,-24.07335547,0.43781117
consent,20,0,2024-05-30T21:02:11.858Z,english_390.wav,0,pill,63,29,2,Japanese,m,4,0.32341667,75.09366884,0.01225463
consent,21,0,2024-05-30T21:02:11.858Z,english_773.wav,0,pill,725,29,2,Japanese,m,0,0.0,-97.46951928,0.54003315
consent,21,0,2024-05-30T21:02:11.858Z,english_773.wav,0,pill,725,29,2,Japanese,m,1,0.1,85.58858853,1.35505424
consent,21,0,2024-05-30T21:02:11.858Z,english_773.wav,0,pill,725,29,2,Japanese,m,2,0.2,-54.69649905,1.09283168
consent,21,0,2024-05-30T21:02:11.858Z,english_773.wav,0,pill,725,29,2,Japanese,m,3,0.3,-97.24656559,1.42526307
consent,21,0,2024-05-30T21:02:11.858Z,english_773.wav,0,pill,725,29,2,Japanese,m,4,0.32341667,40.28006613,0.69844725
consent,22,0,2024-05-30T21:02:11.858Z,english_684.wav,0,pill,93,29,2,Japanese,m,0,0.0,0.36394418,1.65924935
consent,22,0,2024-05-30T21:02:11.858Z,english_684.wav,0,pill,93,29,2,Japanese,m,1,0.1,28.47964645,1.32149406
consent,22,0,2024-05-30T21:02:11.858Z,english_684.wav,0,pill,93,29,2,Japanese,m,2,0.2,60.47995017,0.32417562
consent,22,0,2024-05-30T21:02:11.858Z,english_684.wav,0,pill,93,29,2,Japanese,m,3,0.3,-33.43266819,1.42108385
consent,22,0,2024-05-30T21:02:11.858Z,english_684.wav,0,pill,93,29,2,Japanese,m,4,0.32341667,-31.86672206,1.29243289
consent,23,0,2024-05-30T21:02:11.858Z,english_937.wav,0,pill,396,29,2,Japanese,m,0,0.0,76.77394395,1.55370699
consent,23,0,2024-05-30T21:02:11.858Z,english_937.wav,0,pill,396,29,2,Japanese,m,1,0.1,49.33576264,1.82028848
consent,23,0,2024-05-30T21:02:11.858Z,english_937.wav,0,pill,396,29,2,Japanese,m,2,0.2,-87.39935237,1.42487505
consent,23,0,2024-05-30T21:02:11.858Z,english_937.wav,0,pill,396,29,2,Japanese,m,3,0.3,11.02170053,0.87896062
consent,23,0,2024-05-30T21:02:11.858Z,english_937.wav,0,pill,396,29,2,Japanese,m,4,0.32341667,91.99381322,0.96516852
consent,24,0,2024-05-30T21:02:11.858Z,english_999.wav,0,pill,431,29,2,Japanese,m,0,0.0,-43.88463807,1.5561212
consent,24,0,2024-05-30T21:02:11.858Z,english_999.wav,0,pill,431,29,2,Japanese,m,1,0.1,-19.69329198,1.76032244
consent,24,0,2024-05-30T21:02:11.858Z,english_999.wav,0,pill,431,29,2,Japanese,m,2,0.2,-16.47401585,0.67323911
consent,24,0,2024-05-30T21:02:11.858Z,english_999.wav,0,pill,431,29,2,Japanese,m,3,0.3,-27.91485083,0.0725875
consent,24,0,2024-05-30T21:02:11.858Z,english_999.wav,0,pill,431,29,2,Japanese,m,4,0.32341667,-38.65265262,0.89314247
consent,25,0,2024-05-30T21:02:11.858Z,english_72.wav,0,pill,385,29,2,Japanese,m,0,0.0,3.79788214,1.04175162
consent,25,0,2024-05-30T21:02:11.858Z,english_72.wav,0,pill,385,29,2,Japanese,m,1,0.1,-35.73428138,0.91099175
consent,25,0,2024-05-30T21:02:11.858Z,english_72.wav,0,pill,385,29,2,Japanese,m,2,0.2,-30.83181688,0.34322307
consent,25,0,2024-05-30T21:02:11.858Z,english_72.wav,0,pill,385,29,2,Japanese,m,3,0.3,-68.4260973,1.39599539
consent,25,0,2024-05-30T21:02:11.858Z,english_72.wav,0,pill,385,29,2,Japanese,m,4,0.32341667,-10.87667298,0.78322702
consent,26,0,2024-05-30T21:02:11.858Z,english_319.wav,0,pill,95,29,2,Japanese,m,0,0.0,-84.37928886,1.17141126
consent,26,0,2024-05-30T21:02:11.858Z,english_319.wav,0,pill,95,29,2,Japanese,m,1,0.1,-52.76931383,1.13741792
consent,26,0,2024-05-30T21:02:11.858Z,english_319.wav,0,pill,95,29,2,Japanese,m,2,0.2,56.06390533,0.91618882
consent,26,0,2024-05-30T21:02:11.858Z,english_319.wav,0,pill,95,29,2,Japanese,m,3,0.3,-69.46438111,0.7080153
consent,26,0,2024-05-30T21:02:11.858Z,english_319.wav,0,pill,95,29,2,Japanese,m,4,0.32341667,91.86152445,0.5910213
consent,27,0,2024-05-30T21:02:11.858Z,english_472.wav,0,pill,316,29,2,Japanese,m,0,0.0,-33.48324222,1.19367533
consent,27,0,2024-05-30T21:02:11.858Z,english_472.wav,0,pill,316,29,2,Japanese,m,1,0.1,-52.47175565,0.64788551
consent,27,0,2024-05-30T21:02:11.858Z,english_472.wav,0,pill,316,29,2,Japanese,m,2,0.2,-13.12063744,0.92970714
consent,27,0,2024-05-30T21:02:11.858Z,english_472.wav,0,pill,316,29,2,Japanese,m,3,0.3,83.57117959,0.61503547
consent,27,0,2024-05-30T21:02:11.858Z,english_472.wav,0,pill,316,29,2,Japanese,m,4,0.32341667,95.60610647,0.52013695
consent,28,0,2024-05-30T21:02:11.858Z,english_616.wav,0,pill,313,29,2,Japanese,m,0,0.0,-71.12360497,0.83412473
consent,28,0,2024-05-30T21:02:11.858Z,english_616.wav,0,pill,313,29,2,Japanese,m,1,0.1,55.35355355,1.49185731
consent,28,0,2024-05-30T21:02:11.858Z,english_616.wav,0,pill,313,29,2,Japanese,m,2,0.2,-15.85026512,1.32170209
consent,28,0,2024-05-30T21:02:11.858Z,english_616.wav,0,pill,313,29,2,Japanese,m,3,0.3,-22.60587367,0.90458331
consent,28,0,2024-05-30T21:02:11.858Z,english_616.wav,0,pill,313,29,2,Japanese,m,4,0.32341667,-45.64131884,1.17134835
consent,29,0,2024-05-30T21:02:11.858Z,english_311.wav,0,pill,205,29,2,Japanese,m,0,0.0,-35.59355899,0.16094856
consent,29,0,2024-05-30T21:02:11.858Z,english_311.wav,0,pill,205,29,2,Japanese,m,1,0.1,-50.39310557,1.33895436
consent,29,0,2024-05-30T21:02:11.858Z,english_311.wav,0,pill,205,29,2,Japanese,m,2,0.2,-53.37222601,0.01028283
consent,29,0,2024-05-30T21:02:11.858Z,english_311.wav,0,pill,205,29,2,Japanese,m,3,0.3,72.25802658,0.48497386
consent,29,0,2024-05-30T21:02:11.858Z,english_311.wav,0,pill,205,29,2,Japanese,m,4,0.32341667,48.72421008,0.48591183
consent,30,0,2024-05-30T21:02:11.858Z,english_920.wav,0,pill,300,29,2,Japanese,m,0,0.0,95.7501832,1.54313256
consent,30,0,2024-05-30T21:02:11.858Z,english_920.wav,0,pill,300,29,2,Japanese,m,1,0.1,-3.19831823,1.33500472
consent,30,0,2024-05-30T21:02:11.858Z,english_920.wav,0,pill,300,29,2,Japanese,m,2,0.2,-16.96134457,1.12819963
consent,30,0,2024-05-30T21:02:11.858Z,english_920.wav,0,pill,300,29,2,Japanese,m,3,0.3,-28.81747413,1.72147256
consent,30,0,2024-05-30T21:02:11.858Z,english_920.wav,0,pill,300,29,2,Japanese,m,4,0.32341667,42.63505928,0.57593815
consent,31,0,2024-05-30T21:02:11.858Z,english_215.wav,0,pill,204,29,2,Japanese,m,0,0.0,-93.71362427,1.31176069
consent,31,0,2024-05-30T21:02:11.858Z,english_215.wav,0,pill,204,29,2,Japanese,m,1,0.1,20.4696733,1.25536714
consent,31,0,2024-05-30T21:02:11.858Z,english_215.wav,0,pill,204,29,2,Japanese,m,2,0.2,-66.57352715,1.5696385
consent,31,0,2024-05-30T21:02:11.858Z,english_215.wav,0,pill,204,29,2,Japanese,m,3,0.3,-0.6079782,0.03144419
consent,31,0,2024-05-30T21:02:11.858Z,english_215.wav,0,pill,204,29,2,Japanese,m,4,0.32341667,-5.73921948,0.79048669
consent,32,0,2024-05-30T21:02:11.858Z,english_710.wav,0,pill,135,29,2,Japanese,m,0,0.0,-75.8732007,1.76991952
consent,32,0,2024-05-30T21:02:11.858Z,english_710.wav,0,pill,135,29,2,Japanese,m,1,0.1,-57.22858583,1.84377411
consent,32,0,2024-05-30T21:02:11.858Z,english_710.wav,0,pill,135,29,2,Japanese,m,2,0.2,28.4956072,1.20069914
consent,32,0,2024-05-30T21:02:11.858Z,english_710.wav,0,pill,135,29,2,Japanese,m,3,0.3,-96.06281818,0.06088286
consent,32,0,2024-05-30T21:02:11.858Z,english_710.wav,0,pill,135,29,2,Japanese,m,4,0.32341667,12.57492899,1.86160088
consent,33,0,2024-05-30T21:02:11.858Z,english_959.wav,0,pill,198,29,2,Japanese,m,0,0.0,-78.42285057,1.71892855
consent,33,0,2024-05-30T21:02:11.858Z,english_959.wav,0,pill,198,29,2,Japanese,m,1,0.1,6.44734251,1.96402951
consent,33,0,2024-05-30T21:02:11.858Z,english_959.wav,0,pill,198,29,2,Japanese,m,2,0.2,20.74966326,0.26247596
consent,33,0,2024-05-30T21:02:11.858Z,english_959.wav,0,pill,198,29,2,Japanese,m,3,0.3,-29.69680039,1.29464598
consent,33,0,2024-05-30T21:02:11.858Z,english_959.wav,0,pill,198,29,2,Japanese,m,4,0.32341667,34.2282551,1.77868038
consent,34,0,2024-05-30T21:02:11.858Z,english_782.wav,0,pill,172,29,2,Japanese,m,0,0.0,-98.70381677,1.47488053
consent,34,0,2024-05-30T21:02:11.858Z,english_782.wav,0,pill,172,29,2,Japanese,m,1,0.1,-69.82387258,0.7270016
consent,34,0,2024-05-30T21:02:11.858Z,english_782.wav,0,pill,172,29,2,Japanese,m,2,0.2,35.26613747,0.08778447
consent,34,0,2024-05-30T21:02:11.858Z,english_782.wav,0,pill,172,29,2,Japanese,m,3,0.3,-81.38004879,1.16903228
consent,34,0,2024-05-30T21:02:11.858Z,english_782.wav,0,pill,172,29,2,Japanese,m,4,0.32341667,-61.83067014,0.92727902
consent,35,0,2024-05-30T21:02:11.858Z,english_550.wav,0,pill,161,29,2,Japanese,m,0,0.0,19.46608022,0.78600887
consent,35,0,2024-05-30T21:02:11.858Z,english_550.wav,0,pill,161,29,2,Japanese,m,1,0.1,-94.3556307,1.03273328
consent,35,0,2024-05-30T21:02:11.858Z,english_550.wav,0,pill,161,29,2,Japanese,m,2,0.2,-80.90695222,0.36941932
consent,35,0,2024-05-30T21:02:11.858Z,english_550.wav,0,pill,161,29,2,Japanese,m,3,0.3,-65.36230075,0.47038634
consent,35,0,2024-05-30T21:02:11.858Z,english_550.wav,0,pill,161,29,2,Japanese,m,4,0.32341667,-18.45722395,0.11798167
consent,36,0,2024-05-30T21:02:11.858Z,english_802.wav,0,pill,27,29,2,Japanese,m,0,0.0,44.11448731,1.89082481
consent,36,0,2024-05-30T21:02:11.858Z,english_802.wav,0,pill,27,29,2,Japanese,m,1,0.1,27.89646601,1.73386287
consent,36,0,2024-05-30T21:02:11.858Z,english_802.wav,0,pill,27,29,2,Japanese,m,2,0.2,-19.36127415,0.34468699
consent,36,0,2024-05-30T21:02:11.858Z,english_802.wav,0,pill,27,29,2,Japanese,m,3,0.3,15.17899174,0.39328876
consent,36,0,2024-05-30T21:02:11.858Z,english_802.wav,0,pill,27,29,2,Japanese,m,4,0.32341667,-18.70870555,1.25778986
consent,37,0,2024-05-30T21:02:11.858Z,english_730.wav,0,pill,68,29,2,Japanese,m,0,0.0,12.15035978,0.91227818
consent,37,0,2024-05-30T21:02:11.858Z,english_730.wav,0,pill,68,29,2,Japanese,m,1,0.1,-56.22765555,1.17022701
consent,37,0,2024-05-30T21:02:11.858Z,english_730.wav,0,pill,68,29,2,Japanese,m,2,0.2,-53.26534685,0.58034143
consent,37,0,2024-05-30T21:02:11.858Z,english_730.wav,0,pill,68,29,2,Japanese,m,3,0.3,-25.75230742,1.9562998
consent,37,0,2024-05-30T21:02:11.858Z,english_730.wav,0,pill,68,29,2,Japanese,m,4,0.32341667,-73.04726616,1.99538846
consent,38,0,2024-05-30T21:02:11.858Z,english_817.wav,0,pill,1314,29,2,Japanese,m,0,0.0,58.06319333,0.77394069
consent,38,0,2024-05-30T21:02:11.858Z,english_817.wav,0,pill,1314,29,2,Japanese,m,1,0.1,0.91206114,0.81778066
consent,38,0,2024-05-30T21:02:11.858Z,english_817.wav,0,pill,1314,29,2,Japanese,m,2,0.2,-27.80824757,1.48752315
consent,38,0,2024-05-30T21:02:11.858Z,english_817.wav,0,pill,1314,29,2,Japanese,m,3,0.3,-73.7491051,0.41888886
consent,38,0,2024-05-30T21:02:11.858Z,english_817.wav,0,pill,1314,29,2,Japanese,m,4,0.32341667,69.75698508,0.93012443
consent,39,0,2024-05-30T21:02:11.858Z,english_989.wav,0,pill,11399,29,2,Japanese,m,0,0.0,-51.1051603,1.00035195
consent,39,0,2024-05-30T21:02:11.858Z,english_989.wav,0,pill,11399,29,2,Japanese,m,1,0.1,-91.26717948,0.46124463
consent,39,0,2024-05-30T21:02:11.858Z,english_989.wav,0,pill,11399,29,2,Japanese,m,2,0.2,73.5145218,0.77735517
consent,39,0,2024-05-30T21:02:11.858Z,english_989.wav,0,pill,11399,29,2,Japanese,m,3,0.3,54.43703181,1.21549894
consent,39,0,2024-05-30T21:02:11.858Z,english_989.wav,0,pill,11399,29,2,Japanese,m,4,0.32341667,-36.95823638,0.33045291
consent,40,0,2024-05-30T21:02:11.858Z,english_771.wav,0,pill,1218,29,2,Japanese,m,0,0.0,52.29619013,1.65909918
consent,40,0,2024-05-30T21:02:11.858Z,english_771.wav,0,pill,1218,29,2,Japanese,m,1,0.1,55.26271333,1.05958749
consent,40,0,2024-05-30T21:02:11.858Z,english_771.wav,0,pill,1218,29,2,Japanese,m,2,0.2,49.2587818,1.33758239
consent,40,0,2024-05-30T21:02:11.858Z,english_771.wav,0,pill,1218,29,2,Japanese,m,3,0.3,48.45532009,1.75478958
consent,40,0,2024-05-30T21:02:11.858Z,english_771.wav,0,pill,1218,29,2,Japanese,m,4,0.32341667,-98.45631565,0.37013483
consent,41,0,2024-05-30T21:02:11.858Z,english_654.wav,0,peel,1392,29,2,Japanese,m,0,0.0,-97.13147194,0.91673578
consent,41,0,2024-05-30T21:02:11.858Z,english_654.wav,0,peel,1392,29,2,Japanese,m,1,0.1,-81.37819023,1.23280851
consent,41,0,2024-05-30T21:02:11.858Z,english_654.wav,0,peel,1392,29,2,Japanese,m,2,0.2,51.48571278,1.64688363
consent,41,0,2024-05-30T21:02:11.858Z,english_654.wav,0,peel,1392,29,2,Japanese,m,3,0.3,54.00949099,1.75994168
consent,41,0,2024-05-30T21:02:11.858Z,english_654.wav,0,peel,1392,29,2,Japanese,m,4,0.32341667,-95.1633683,0.20104411
consent,42,0,2024-05-30T21:02:11.858Z,english_757.wav,0,peel,379,29,2,Japanese,m,0,0.0,-71.37581006,0.57944866
consent,42,0,2024-05-30T21:02:11.858Z,english_757.wav,0,peel,379,29,2,Japanese,m,1,0.1,-34.89028362,1.76833087
consent,42,0,2024-05-30T21:02:11.858Z,english_757.wav,0,peel,379,29,2,Japanese,m,2,0.2,97.72444176,0.43040584
consent,42,0,2024-05-30T21:02:11.858Z,english_757.wav,0,peel,379,29,2,Japanese,m,3,0.3,8.64322444,1.84780211
consent,42,0,2024-05-30T21:02:11.858Z,english_757.wav,0,peel,379,29,2,Japanese,m,4,0.32341667,-59.15215987,0.21714226
consent,43,0,2024-05-30T21:02:11.858Z,english_166.wav,0,peel,292,29,2,Japanese,m,0,0.0,37.27670025,1.42766663
consent,43,0,2024-05-30T21:02:11.858Z,english_166.wav,0,peel,292,29,2,Japanese,m,1,0.1,34.38847046,0.72731767
consent,43,0,2024-05-30T21:02:11.858Z,english_166.wav,0,peel,292,29,2,Japanese,m,2,0.2,49.91842175,1.80608275
consent,43,0,2024-05-30T21:02:11.858Z,english_166.wav,0,peel,292,29,2,Japanese,m,3,0.3,56.9541748,1.91598421
consent,43,0,2024-05-30T21:02:11.858Z,english_166.wav,0,peel,292,29,2,Japanese,m,4,0.32341667,10.97290623,1.21084105
consent,44,0,2024-05-30T21:02:11.858Z,english_375.wav,0,peel,270,29,2,Japanese,m,0,0.0,18.096335,0.30735121
consent,44,0,2024-05-30T21:02:11.858Z,english_375.wav,0,peel,270,29,2,Japanese,m,1,0.1,-55.77885891,1.17808606
consent,44,0,2024-05-30T21:02:11.858Z,english_375.wav,0,peel,270,29,2,Japanese,m,2,0.2,-79.80603762,1.03107785
consent,44,0,2024-05-30T21:02:11.858Z,english_375.wav,0,peel,270,29,2,Japanese,m,3,0.3,-57.7566014,0.46519988
consent,44,0,2024-05-30T21:02:11.858Z,english_375.wav,0,peel,270,29,2,Japanese,m,4,0.32341667,74.14673873,1.41875211
consent,45,0,2024-05-30T21:02:11.858Z,english_530.wav,0,peel,4,29,2,Japanese,m,0,0.0,21.55057906,0.25130805
consent,45,0,2024-05-30T21:02:11.858Z,english_530.wav,0,peel,4,29,2,Japanese,m,1,0.1,-20.17265513,0.96020899
consent,45,0,2024-05-30T21:02:11.858Z,english_530.wav,0,peel,4,29,2,Japanese,m,2,0.2,-52.07974762,1.55252741
consent,45,0,2024-05-30T21:02:11.858Z,english_530.wav,0,peel,4,29,2,Japanese,m,3,0.3,87.36384387,1.19622655
consent,45,0,2024-05-30T21:02:11.858Z,english_530.wav,0,peel,4,29,2,Japanese,m,4,0.32341667,-72.92256984,0.75880724
consent,46,0,2024-05-30T21:02:11.858Z,english_691.wav,0,peel,79,29,2,Japanese,m,0,0.0,28.79078449,1.07683297
consent,46,0,2024-05-30T21:02:11.858Z,english_691.wav,0,peel,79,29,2,Japanese,m,1,0.1,99.1184909,1.07376069
consent,46,0,2024-05-30T21:02:11.858Z,english_691.wav,0,peel,79,29,2,Japanese,m,2,0.2,-54.13985733,0.28522735
consent,46,0,2024-05-30T21:02:11.858Z,english_691.wav,0,peel,79,29,2,Japanese,m,3,0.3,-85.36319246,0.85701066
consent,46,0,2024-05-30T21:02:11.858Z,english_691.wav,0,peel,79,29,2,Japanese,m,4,0.32341667,-73.61621094,1.71165398
consent,47,0,2024-05-30T21:02:11.858Z,english_148.wav,0,peel,331,29,2,Japanese,m,0,0.0,-15.87588743,0.13468567
consent,47,0,2024-05-30T21:02:11.858Z,english_148.wav,0,peel,331,29,2,Japanese,m,1,0.1,66.05332506,1.11017862
consent,47,0,2024-05-30T21:02:11.858Z,english_148.wav,0,peel,331,29,2,Japanese,m,2,0.2,50.59551539,0.42983488
consent,47,0,2024-05-30T21:02:11.858Z,english_148.wav,0,peel,331,29,2,Japanese,m,3,0.3,-59.45276716,0.2729575
consent,47,0,2024-05-30T21:02:11.858Z,english_148.wav,0,peel,331,29,2,Japanese,m,4,0.32341667,58.4155276,0.65396017
consent,48,0,2024-05-30T21:02:11.858Z,english_433.wav,0,peel,105,29,2,Japanese,m,0,0.0,-74.58178472,0.69852952
consent,48,0,2024-05-30T21:02:11.858Z,english_433.wav,0,peel,105,29,2,Japanese,m,1,0.1,-50.00917691,1.92405883
consent,48,0,2024-05-30T21:02:11.858Z,english_433.wav,0,peel,105,29,2,Japanese,m,2,0.2,48.18572343,0.3905825
consent,48,0,2024-05-30T21:02:11.858Z,english_433.wav,0,peel,105,29,2,Japanese,m,3,0.3,-63.95387597,0.31453116
consent,48,0,2024-05-30T21:02:11.858Z,english_433.wav,0,peel,105,29,2,Japanese,m,4,0.32341667,-68.91859183,1.4953114
consent,49,0,2024-05-30T21:02:11.858Z,english_220.wav,0,peel,761,29,2,Japanese,m,0,0.0,-49.83323752,1.6244524
consent,49,0,2024-05-30T21:02:11.858Z,english_220.wav,0,peel,761,29,2,Japanese,m,1,0.1,49.13629021,0.7812698
consent,49,0,2024-05-30T21:02:11.858Z,english_220.wav,0,peel,761,29,2,Japanese,m,2,0.2,10.673463,1.29736816
consent,49,0,2024-05-30T21:02:11.858Z,english_220.wav,0,peel,761,29,2,Japanese,m,3,0.3,-2.35218347,1.3419496
consent,49,0,2024-05-30T21:02:11.858Z,english_220.wav,0,peel,761,29,2,Japanese,m,4,0.32341667,-2.61587219,1.06575232
consent,50,1,2024-05-30T21:02:11.858Z,english_846.wav,0,peel,2536,29,2,Japanese,m,0,0.0,61.87306923,1.6800264
consent,50,1,2024-05-30T21:02:11.858Z,english_846.wav,0,peel,2536,29,2,Japanese,m,1,0.1,-5.64177324,0.32387551
consent,50,1,2024-05-30T21:02:11.858Z,english_846.wav,0,peel,2536,29,2,Japanese,m,2,0.2,86.75305487,0.09122421
consent,50,1,2024-05-30T21:02:11.858Z,english_846.wav,0,peel,2536,29,2,Japanese,m,3,0.3,-27.71752308,0.55014386
consent,50,1,2024-05-30T21:02:11.858Z,english_846.wav,0,peel,2536,29,2,Japanese,m,4,0.32341667,-26.78048177,0.82256102
consent,51,1,2024-05-30T21:02:11.858Z,english_328.wav,0,peel,472,29,2,Japanese,m,0,0.0,-24.96515822,0.68772771
consent,51,1,2024-05-30T21:02:11.858Z,english_328.wav,0,peel,472,29,2,Japanese,m,1,0.1,36.64267249,0.30369637
consent,51,1,2024-05-30T21:02:11.858Z,english_328.wav,0,peel,472,29,2,Japanese,m,2,0.2,-93.60804347,1.16330199
consent,51,1,2024-05-30T21:02:11.858Z,english_328.wav,0,peel,472,29,2,Japanese,m,3,0.3,9.86556644,0.69001341
consent,51,1,2024-05-30T21:02:11.858Z,english_328.wav,0,peel,472,29,2,Japanese,m,4,0.32341667,-17.13685423,0.54642887
consent,52,1,2024-05-30T21:02:11.858Z,english_436.wav,0,peel,138,29,2,Japanese,m,0,0.0,58.73131257,0.30497449
consent,52,1,2024-05-30T21:02:11.858Z,english_436.wav,0,peel,138,29,2,Japanese,m,1,0.1,65.29204538,1.04665744
consent,52,1,2024-05-30T21:02:11.858Z,english_436.wav,0,peel,138,29,2,Japanese,m,2,0.2,7.63213906,1.03883923
consent,52,1,2024-05-30T21:02:11.858Z,english_436.wav,0,peel,138,29,2,Japanese,m,3,0.3,-2.54756362,0.97345352
consent,52,1,2024-05-30T21:02:11.858Z,english_436.wav,0,peel,138,29,2,Japanese,m,4,0.32341667,-11.40614268,0.16121918
consent,53,1,2024-05-30T21:02:11.858Z,english_707.wav,0,peel,2594,29,2,Japanese,m,0,0.0,-17.04120346,1.06535483
consent,53,1,2024-05-30T21:02:11.858Z,english_707.wav,0,peel,2594,29,2,Japanese,m,1,0.1,-57.44917128,0.89541794
consent,53,1,2024-05-30T21:02:11.858Z,english_707.wav,0,peel,2594,29,2,Japanese,m,2,0.2,90.75848643,1.64838001
consent,53,1,2024-05-30T21:02:11.858Z,english_707.wav,0,peel,2594,29,2,Japanese,m,3,0.3,96.79852424,0.75431717
consent,53,1,2024-05-30T21:02:11.858Z,english_707.wav,0,peel,2594,29,2,Japanese,m,4,0.32341667,27.01716591,0.48082071
consent,54,1,2024-05-30T21:02:11.858Z,english_843.wav,0,peel,316,29,2,Japanese,m,0,0.0,-34.38568909,1.38988397
consent,54,1,2024-05-30T21:02:11.858Z,english_843.wav,0,peel,316,29,2,Japanese,m,1,0.1,91.48235516,0.61638546
consent,54,1,2024-05-30T21:02:11.858Z,english_843.wav,0,peel,316,29,2,Japanese,m,2,0.2,45.43581208,1.5800421
consent,54,1,2024-05-30T21:02:11.858Z,english_843.wav,0,peel,316,29,2,Japanese,m,3,0.3,47.04005582,1.07327256
consent,54,1,2024-05-30T21:02:11.858Z,english_843.wav,0,peel,316,29,2,Japanese,m,4,0.32341667,30.80916685,0.46994626
consent,55,1,2024-05-30T21:02:11.858Z,english_253.wav,0,peel,114,29,2,Japanese,m,0,0.0,12.9108365,0.20464585
consent,55,1,2024-05-30T21:02:11.858Z,english_253.wav,0,peel,114,29,2,Japanese,m,1,0.1,-70.83420593,1.97412558
consent,55,1,2024-05-30T21:02:11.858Z,english_253.wav,0,peel,114,29,2,Japanese,m,2,0.2,-6.13796162,1.12401504
consent,55,1,2024-05-30T21:02:11.858Z,english_253.wav,0,peel,114,29,2,Japanese,m,3,0.3,38.03543053,1.75851492
consent,55,1,2024-05-30T21:02:11.858Z,english_253.wav,0,peel,114,29,2,Japanese,m,4,0.32341667,-61.21147917,0.77953826
consent,56,1,2024-05-30T21:02:11.858Z,english_543.wav,0,peel,66,29,2,Japanese,m,0,0.0,13.74009622,0.63900578
consent,56,1,2024-05-30T21:02:11.858Z,english_543.wav,0,peel,66,29,2,Japanese,m,1,0.1,51.80972721,1.6206981
consent,56,1,2024-05-30T21:02:11.858Z,english_543.wav,0,peel,66,29,2,Japanese,m,2,0.2,86.3964352,0.03304675
consent,56,1,2024-05-30T21:02:11.858Z,english_543.wav,0,peel,66,29,2,Japanese,m,3,0.3,-66.39783761,1.7049324
consent,56,1,2024-05-30T21:02:11.858Z,english_543.wav,0,peel,66,29,2,Japanese,m,4,0.32341667,31.11863834,1.46507556
consent,57,1,2024-05-30T21:02:11.858Z,english_151.wav,0,peel,97,29,2,Japanese,m,0,0.0,-8.78950662,1.36403682
consent,57,1,2024-05-30T21:02:11.858Z,english_151.wav,0,peel,97,29,2,Japanese,m,1,0.1,-1.70650264,1.76375426
consent,57,1,2024-05-30T21:02:11.858Z,english_151.wav,0,peel,97,29,2,Japanese,m,2,0.2,-17.50286784,1.43087438
consent,57,1,2024-05-30T21:02:11.858Z,english_151.wav,0,peel,97,29,2,Japanese,m,3,0.3,88.78233286,1.18017331
consent,57,1,2024-05-30T21:02:11.858Z,english_151.wav,0,peel,97,29,2,Japanese,m,4,0.32341667,55.08117545,1.30400061
consent,58,1,2024-05-30T21:02:11.858Z,english_128.wav,0,peel,139,29,2,Japanese,m,0,0.0,-84.07301703,0.96445051
consent,58,1,2024-05-30T21:02:11.858Z,english_128.wav,0,peel,139,29,2,Japanese,m,1,0.1,0.2051398,0.77165422
consent,58,1,2024-05-30T21:02:11.858Z,english_128.wav,0,peel,139,29,2,Japanese,m,2,0.2,50.77588291,0.60279997
consent,58,1,2024-05-30T21:02:11.858Z,english_128.wav,0,peel,139,29,2,Japanese,m,3,0.3,3.27834455,0.59915485
consent,58,1,2024-05-30T21:02:11.858Z,english_128.wav,0,peel,139,29,2,Japanese,m,4,0.32341667,59.5943459,0.43521132
consent,59,1,2024-05-30T21:02:11.858Z,english_566.wav,0,peel,12,29,2,Japanese,m,0,0.0,70.56000247,1.04698608
consent,59,1,2024-05-30T21:02:11.858Z,english_566.wav,0,peel,12,29,2,Japanese,m,1,0.1,-0.18246418,1.13826263
consent,59,1,2024-05-30T21:02:11.858Z,english_566.wav,0,peel,12,29,2,Japanese,m,2,0.2,-23.7188651,1.91259561
consent,59,1,2024-05-30T21:02:11.858Z,english_566.wav,0,peel,12,29,2,Japanese,m,3,0.3,12.5469797,1.08561121
consent,59,1,2024-05-30T21:02:11.858Z,english_566.wav,0,peel,12,29,2,Japanese,m,4,0.32341667,-84.37997634,1.98926692
consent,60,1,2024-05-30T21:02:11.858Z,english_935.wav,0,peel,15,29,2,Japanese,m,0,0.0,64.39543101,0.53440609
consent,60,1,2024-05-30T21:02:11.858Z,english_935.wav,0,peel,15,29,2,Japanese,m,1,0.1,86.95314533,0.5847186
consent,60,1,2024-05-30T21:02:11.858Z,english_935.wav,0,peel,15,29,2,Japanese,m,2,0.2,-18.93400703,0.87093815
consent,60,1,2024-05-30T21:02:11.858Z,english_935.wav,0,peel,15,29,2,Japanese,m,3,0.3,36.25821345,1.35336039
consent,60,1,2024-05-30T21:02:11.858Z,english_935.wav,0,peel,15,29,2,Japanese,m,4,0.32341667,-52.75689815,1.46825192
consent,61,1,2024-05-30T21:02:11.858Z,english_240.wav,0,peel,413,29,2,Japanese,m,0,0.0,-96.55121617,1.04823872
consent,61,1,2024-05-30T21:02:11.858Z,english_240.wav,0,peel,413,29,2,Japanese,m,1,0.1,73.99435309,1.11556714
consent,61,1,2024-05-30T21:02:11.858Z,english_240.wav,0,peel,413,29,2,Japanese,m,2,0.2,-27.17256968,0.68795106
consent,61,1,2024-05-30T21:02:11.858Z,english_240.wav,0,peel,413,29,2,Japanese,m,3,0.3,-2.05185553,1.30325309
consent,61,1,2024-05-30T21:02:11.858Z,english_240.wav,0,peel,413,29,2,Japanese,m,4,0.32341667,80.37406519,0.86977317
consent,62,1,2024-05-30T21:02:11.858Z,english_546.wav,0,peel,103,29,2,Japanese,m,0,0.0,81.21590514,1.56657823
consent,62,1,2024-05-30T21:02:11.858Z,english_546.wav,0,peel,103,29,2,Japanese,m,1,0.1,75.01018689,0.84038259
consent,62,1,2024-05-30T21:02:11.858Z,english_546.wav,0,peel,103,29,2,Japanese,m,2,0.2,15.56226302,0.00684501
consent,62,1,2024-05-30T21:02:11.858Z,english_546.wav,0,peel,103,29,2,Japanese,m,3,0.3,48.30886192,1.68157273
consent,62,1,2024-05-30T21:02:11.858Z,english_546.wav,0,peel,103,29,2,Japanese,m,4,0.32341667,18.80923499,1.09409739
consent,63,1,2024-05-30T21:02:11.858Z,english_910.wav,0,peel,512,29,2,Japanese,m,0,0.0,-5.78748479,0.61840584
consent,63,1,2024-05-30T21:02:11.858Z,english_910.wav,0,peel,512,29,2,Japanese,m,1,0.1,25.040103,1.20431928
consent,63,1,2024-05-30T21:02:11.858Z,english_910.wav,0,peel,512,29,2,Japanese,m,2,0.2,-40.66398147,1.66594732
consent,63,1,2024-05-30T21:02:11.858Z,english_910.wav,0,peel,512,29,2,Japanese,m,3,0.3,-99.21011725,0.99007018
consent,63,1,2024-05-30T21:02:11.858Z,english_910.wav,0,peel,512,29,2,Japanese,m,4,0.32341667,30.82754841,0.23705338
consent,64,1,2024-05-30T21:02:11.858Z,english_972.wav,0,peel,313,29,2,Japanese,m,0,0.0,-87.82800068,1.28286493
consent,64,1,2024-05-30T21:02:11.858Z,english_972.wav,0,peel,313,29,2,Japanese,m,1,0.1,-25.45661385,0.89058027
consent,64,1,2024-05-30T21:02:11.858Z,english_972.wav,0,peel,313,29,2,Japanese,m,2,0.2,2.95853851,1.4716374
consent,64,1,2024-05-30T21:02:11.858Z,english_972.wav,0,peel,313,29,2,Japanese,m,3,0.3,84.61583696,0.6386035
consent,64,1,2024-05-30T21:02:11.858Z,english_972.wav,0,peel,313,29,2,Japanese,m,4,0.32341667,42.95706616,1.51056083
consent,65,1,2024-05-30T21:02:11.858Z,english_105.wav,0,peel,338,29,2,Japanese,m,0,0.0,15.80659439,1.08535851
consent,65,1,2024-05-30T21:02:11.858Z,english_105.wav,0,peel,338,29,2,Japanese,m,1,0.1,42.66899606,0.24895576
consent,65,1,2024-05-30T21:02:11.858Z,english_105.wav,0,peel,338,29,2,Japanese,m,2,0.2,70.76731416,1.16165898
consent,65,1,2024-05-30T21:02:11.858Z,english_105.wav,0,peel,338,29,2,Japanese,m,3,0.3,70.45261783,1.37248151
consent,65,1,2024-05-30T21:02:11.858Z,english_105.wav,0,peel,338,29,2,Japanese,m,4,0.32341667,38.01355443,0.81952348
consent,66,1,2024-05-30T21:02:11.858Z,english_995.wav,0,peel,34,29,2,Japanese,m,0,0.0,49.33707883,0.89732458
consent,66,1,2024-05-30T21:02:11.858Z,english_995.wav,0,peel,34,29,2,Japanese,m,1,0.1,54.78730957,0.49662083
consent,66,1,2024-05-30T21:02:11.858Z,english_995.wav,0,peel,34,29,2,Japanese,m,2,0.2,-5.99414072,0.83265132
consent,66,1,2024-05-30T21:02:11.858Z,english_995.wav,0,peel,34,29,2,Japanese,m,3,0.3,26.8687238,1.32035917
consent,66,1,2024-05-30T21:02:11.858Z,english_995.wav,0,peel,34,29,2,Japanese,m,4,0.32341667,38.3348194,1.99869744
consent,67,1,2024-05-30T21:02:11.858Z,english_497.wav,0,peel,210,29,2,Japanese,m,0,0.0,3.92391523,0.25005623
consent,67,1,2024-05-30T21:02:11.858Z,english_497.wav,0,peel,210,29,2,Japanese,m,1,0.1,-39.44421726,1.18920756
consent,67,1,2024-05-30T21:02:11.858Z,english_497.wav,0,peel,210,29,2,Japanese,m,2,0.2,-70.21843081,1.75478959
consent,67,1,2024-05-30T21:02:11.858Z,english_497.wav,0,peel,210,29,2,Japanese,m,3,0.3,-95.13281119,0.47878412
consent,67,1,2024-05-30T21:02:11.858Z,english_497.wav,0,peel,210,29,2,Japanese,m,4,0.32341667,-23.7064256,0.88125504
consent,68,1,2024-05-30T21:02:11.858Z,english_683.wav,0,peel,56,29,2,Japanese,m,0,0.0,-73.37543508,1.70409633
consent,68,1,2024-05-30T21:02:11.858Z,english_683.wav,0,peel,56,29,2,Japanese,m,1,0.1,66.4080647,1.25556383
consent,68,1,2024-05-30T21:02:11.858Z,english_683.wav,0,peel,56,29,2,Japanese,m,2,0.2,46.46812351,0.87554738
consent,68,1,2024-05-30T21:02:11.858Z,english_683.wav,0,peel,56,29,2,Japanese,m,3,0.3,71.67755016,1.32863005
consent,68,1,2024-05-30T21:02:11.858Z,english_683.wav,0,peel,56,29,2,Japanese,m,4,0.32341667,2.86253031,0.20364682
consent,69,1,2024-05-30T21:02:11.858Z,english_415.wav,0,peel,183,29,2,Japanese,m,0,0.0,36.00223879,1.49199547
consent,69,1,2024-05-30T21:02:11.858Z,english_415.wav,0,peel,183,29,2,Japanese,m,1,0.1,-82.63332374,1.79959711
consent,69,1,2024-05-30T21:02:11.858Z,english_415.wav,0,peel,183,29,2,Japanese,m,2,0.2,57.55038703,0.64689267
consent,69,1,2024-05-30T21:02:11.858Z,english_415.wav,0,peel,183,29,2,Japanese,m,3,0.3,-9.83064734,0.31881377
consent,69,1,2024-05-30T21:02:11.858Z,english_415.wav,0,peel,183,29,2,Japanese,m,4,0.32341667,-29.78573939,0.18568486
consent,70,1,2024-05-30T21:02:11.858Z,english_234.wav,0,peel,214,29,2,Japanese,m,0,0.0,-96.19421376,0.0948498
consent,70,1,2024-05-30T21:02:11.858Z,english_234.wav,0,peel,214,29,2,Japanese,m,1,0.1,96.13097212,1.36649532
consent,70,1,2024-05-30T21:02:11.858Z,english_234.wav,0,peel,214,29,2,Japanese,m,2,0.2,-68.61115628,0.00312314
consent,70,1,2024-05-30T21:02:11.858Z,english_234.wav,0,peel,214,29,2,Japanese,m,3,0.3,58.3624958,0.01269103
consent,70,1,2024-05-30T21:02:11.858Z,english_234.wav,0,peel,214,29,2,Japanese,m,4,0.32341667,60.51337125,1.76377265
consent,71,1,2024-05-30T21:02:11.858Z,english_456.wav,0,pill,1807,29,2,Japanese,m,0,0.0,43.57092671,0.12750432
consent,71,1,2024-05-30T21:02:11.858Z,english_456.wav,0,pill,1807,29,2,Japanese,m,1,0.1,59.73787768,0.97340157
consent,71,1,2024-05-30T21:02:11.858Z,english_456.wav,0,pill,1807,29,2,Japanese,m,2,0.2,82.18665257,0.43547726
consent,71,1,2024-05-30T21:02:11.858Z,english_456.wav,0,pill,1807,29,2,Japanese,m,3,0.3,84.09992258,1.17970357
consent,71,1,2024-05-30T21:02:11.858Z,english_456.wav,0,pill,1807,29,2,Japanese,m,4,0.32341667,14.68455092,0.64309566
consent,72,1,2024-05-30T21:02:11.858Z,english_16.wav,0,peel,420,29,2,Japanese,m,0,0.0,-86.84797814,0.47796166
consent,72,1,2024-05-30T21:02:11.858Z,english_16.wav,0,peel,420,29,2,Japanese,m,1,0.1,29.78439304,1.82902446
consent,72,1,2024-05-30T21:02:11.858Z,english_16.wav,0,peel,420,29,2,Japanese,m,2,0.2,93.37667148,1.57835565
consent,72,1,2024-05-30T21:02:11.858Z,english_16.wav,0,peel,420,29,2,Japanese,m,3,0.3,-84.28086854,0.98546729
consent,72,1,2024-05-30T21:02:11.858Z,english_16.wav,0,peel,420,29,2,Japanese,m,4,0.32341667,-8.77302982,0.88950072
consent,73,1,2024-05-30T21:02:11.858Z,english_651.wav,0,pill,437,29,2,Japanese,m,0,0.0,94.66063372,0.16277223
consent,73,1,2024-05-30T21:02:11.858Z,english_651.wav,0,pill,437,29,2,Japanese,m,1,0.1,53.93234837,1.71236475
consent,73,1,2024-05-30T21:02:11.858Z,english_651.wav,0,pill,437,29,2,Japanese,m,2,0.2,-71.35755131,0.37376336
consent,73,1,2024-05-30T21:02:11.858Z,english_651.wav,0,pill,437,29,2,Japanese,m,3,0.3,50.84025958,0.80998932
consent,73,1,2024-05-30T21:02:11.858Z,english_651.wav,0,pill,437,29,2,Japanese,m,4,0.32341667,-24.67252949,0.23835763
consent,74,1,2024-05-30T21:02:11.858Z,english_626.wav,0,pill,463,29,2,Japanese,m,0,0.0,4.25415757,0.7037323
consent,74,1,2024-05-30T21:02:11.858Z,english_626.wav,0,pill,463,29,2,Japanese,m,1,0.1,-41.27415217,1.26912647
consent,74,1,2024-05-30T21:02:11.858Z,english_626.wav,0,pill,463,29,2,Japanese,m,2,0.2,-74.74598363,0.17760594
consent,74,1,2024-05-30T21:02:11.858Z,english_626.wav,0,pill,463,29,2,Japanese,m,3,0.3,-15.94741517,1.12963497
consent,74,1,2024-05-30T21:02:11.858Z,english_626.wav,0,pill,463,29,2,Japanese,m,4,0.32341667,43.51897949,0.85087029
consent,75,1,2024-05-30T21:02:11.858Z,english_392.wav,0,pill,559,29,2,Japanese,m,0,0.0,-12.90562814,1.13144201
consent,75,1,2024-05-30T21:02:11.858Z,english_392.wav,0,pill,559,29,2,Japanese,m,1,0.1,-1.29416779,0.98893381
consent,75,1,2024-05-30T21:02:11.858Z,english_392.wav,0,pill,559,29,2,Japanese,m,2,0.2,-53.34155903,0.07204825
consent,75,1,2024-05-30T21:02:11.858Z,english_392.wav,0,pill,559,29,2,Japanese,m,3,0.3,-48.65153398,1.52779633
consent,75,1,2024-05-30T21:02:11.858Z,english_392.wav,0,pill,559,29,2,Japanese,m,4,0.32341667,-43.47653164,1.32355089
consent,76,1,2024-05-30T21:02:11.858Z,english_638.wav,0,pill,430,29,2,Japanese,m,0,0.0,6.92468799,1.1702122
consent,76,1,2024-05-30T21:02:11.858Z,english_638.wav,0,pill,430,29,2,Japanese,m,1,0.1,52.10042521,0.51269982
consent,76,1,2024-05-30T21:02:11.858Z,english_638.wav,0,pill,430,29,2,Japanese,m,2,0.2,-39.07293948,0.1912204
consent,76,1,2024-05-30T21:02:11.858Z,english_638.wav,0,pill,430,29,2,Japanese,m,3,0.3,38.46029754,0.91406415
consent,76,1,2024-05-30T21:02:11.858Z,english_638.wav,0,pill,430,29,2,Japanese,m,4,0.32341667,-16.6630855,1.67689755
consent,77,1,2024-05-30T21:02:11.858Z,english_933.wav,0,peel,1196,29,2,Japanese,m,0,0.0,-48.12258855,1.54767366
consent,77,1,2024-05-30T21:02:11.858Z,english_933.wav,0,peel,1196,29,2,Japanese,m,1,0.1,27.26905516,0.30219473
consent,77,1,2024-05-30T21:02:11.858Z,english_933.wav,0,peel,1196,29,2,Japanese,m,2,0.2,0.35087756,1.50410475
consent,77,1,2024-05-30T21:02:11.858Z,english_933.wav,0,peel,1196,29,2,Japanese,m,3,0.3,94.96402149,1.44820406
consent,77,1,2024-05-30T21:02:11.858Z,english_933.wav,0,peel,1196,29,2,Japanese,m,4,0.32341667,61.52669097,0.05049928
consent,78,1,2024-05-30T21:02:11.858Z,english_18.wav,0,pill,319,29,2,Japanese,m,0,0.0,-61.9567004,0.0,0.45038722
consent,78,1,2024-05-30T21:02:11.858Z,english_18.wav,0,pill,319,29,2,Japanese,m,1,0.1,39.2027204,0.1,1.56185221
consent,78,1,2024-05-30T21:02:11.858Z,english_18.wav,0,pill,319,29,2,Japanese,m,2,0.2,-0.0626834214,0.2,0.80652275
consent,78,1,2024-05-30T21:02:11.858Z,english_18.wav,0,pill,319,29,2,Japanese,m,3,0.3,-72.2820301,0.3,0.39505163
consent,78,1,2024-05-30T21:02:11.858Z,english_18.wav,0,pill,319,29,2,Japanese,m,4,0.323416667,-52.9459242,0.32341667,0.50402069
consent,79,1,2024-05-30T21:02:11.858Z,english_200.wav,0,peel,458,29,2,Japanese,m,0,0.0,48.98677304,1.07797747
consent,79,1,2024-05-30T21:02:11.858Z,english_200.wav,0,peel,458,29,2,Japanese,m,1,0.1,13.54292536,1.23698451
consent,79,1,2024-05-30T21:02:11.858Z,english_200.wav,0,peel,458,29,2,Japanese,m,2,0.2,15.98335964,0.85343662
consent,79,1,2024-05-30T21:02:11.858Z,english_200.wav,0,peel,458,29,2,Japanese,m,3,0.3,-46.7743147,1.38707984
consent,79,1,2024-05-30T21:02:11.858Z,english_200.wav,0,peel,458,29,2,Japanese,m,4,0.32341667,-12.18386714,0.65409939
consent,80,1,2024-05-30T21:02:11.858Z,english_480.wav,0,peel,398,29,2,Japanese,m,0,0.0,-9.10453384,0.61491247
consent,80,1,2024-05-30T21:02:11.858Z,english_480.wav,0,peel,398,29,2,Japanese,m,1,0.1,72.09708103,1.35502449
consent,80,1,2024-05-30T21:02:11.858Z,english_480.wav,0,peel,398,29,2,Japanese,m,2,0.2,-73.7181862,0.28674933
consent,80,1,2024-05-30T21:02:11.858Z,english_480.wav,0,peel,398,29,2,Japanese,m,3,0.3,18.73451671,0.14653082
consent,80,1,2024-05-30T21:02:11.858Z,english_480.wav,0,peel,398,29,2,Japanese,m,4,0.32341667,83.35837597,1.34653786
consent,81,1,2024-05-30T21:02:11.858Z,english_264.wav,0,peel,327,29,2,Japanese,m,0,0.0,16.10521774,1.02407609
consent,81,1,2024-05-30T21:02:11.858Z,english_264.wav,0,peel,327,29,2,Japanese,m,1,0.1,-43.55481907,1.4393598
consent,81,1,2024-05-30T21:02:11.858Z,english_264.wav,0,peel,327,29,2,Japanese,m,2,0.2,-16.87093852,1.31552174
consent,81,1,2024-05-30T21:02:11.858Z,english_264.wav,0,peel,327,29,2,Japanese,m,3,0.3,-81.41755984,1.17516842
consent,81,1,2024-05-30T21:02:11.858Z,english_264.wav,0,peel,327,29,2,Japanese,m,4,0.32341667,-76.00277997,0.613195
consent,82,1,2024-05-30T21:02:11.858Z,english_835.wav,0,peel,65,29,2,Japanese,m,0,0.0,-14.38506183,1.1584592
consent,82,1,2024-05-30T21:02:11.858Z,english_835.wav,0,peel,65,29,2,Japanese,m,1,0.1,-85.63264453,0.74788643
consent,82,1,2024-05-30T21:02:11.858Z,english_835.wav,0,peel,65,29,2,Japanese,m,2,0.2,-9.08737486,0.99645811
consent,82,1,2024-05-30T21:02:11.858Z,english_835.wav,0,peel,65,29,2,Japanese,m,3,0.3,-52.4382226,1.13057998
consent,82,1,2024-05-30T21:02:11.858Z,english_835.wav,0,peel,65,29,2,Japanese,m,4,0.32341667,30.89255677,0.17868889
consent,83,1,2024-05-30T21:02:11.858Z,english_818.wav,0,peel,226,29,2,Japanese,m,0,0.0,88.49542613,1.4873036
consent,83,1,2024-05-30T21:02:11.858Z,english_818.wav,0,peel,226,29,2,Japanese,m,1,0.1,-7.37005163,1.25102077
consent,83,1,2024-05-30T21:02:11.858Z,english_818.wav,0,peel,226,29,2,Japanese,m,2,0.2,-1.58613611,0.80764036
consent,83,1,2024-05-30T21:02:11.858Z,english_818.wav,0,peel,226,29,2,Japanese,m,3,0.3,-69.41222379,0.80656775
consent,83,1,2024-05-30T21:02:11.858Z,english_818.wav,0,peel,226,29,2,Japanese,m,4,0.32341667,14.01707612,1.41859799
consent,84,1,2024-05-30T21:02:11.858Z,english_662.wav,0,pill,1544,29,2,Japanese,m,0,0.0,-34.20942979,0.58122658
consent,84,1,2024-05-30T21:02:11.858Z,english_662.wav,0,pill,1544,29,2,Japanese,m,1,0.1,-64.9220759,0.35407044
consent,84,1,2024-05-30T21:02:11.858Z,english_662.wav,0,pill,1544,29,2,Japanese,m,2,0.2,-46.13526655,1.02300599
consent,84,1,2024-05-30T21:02:11.858Z,english_662.wav,0,pill,1544,29,2,Japanese,m,3,0.3,16.61128262,0.09808433
consent,84,1,2024-05-30T21:02:11.858Z,english_662.wav,0,pill,1544,29,2,Japanese,m,4,0.32341667,-72.42442326,0.71975239
consent,85,1,2024-05-30T21:02:11.858Z,english_130.wav,0,pill,155,29,2,Japanese,m,0,0.0,-27.4951122,0.83907871
consent,85,1,2024-05-30T21:02:11.858Z,english_130.wav,0,pill,155,29,2,Japanese,m,1,0.1,-38.07775804,1.38560413
consent,85,1,2024-05-30T21:02:11.858Z,english_130.wav,0,pill,155,29,2,Japanese,m,2,0.2,-9.69340922,0.50531735
consent,85,1,2024-05-30T21:02:11.858Z,english_130.wav,0,pill,155,29,2,Japanese,m,3,0.3,-88.09187015,0.53414674
consent,85,1,2024-05-30T21:02:11.858Z,english_130.wav,0,pill,155,29,2,Japanese,m,4,0.32341667,-47.45461314,1.10107345
consent,86,1,2024-05-30T21:02:11.858Z,english_12.wav,0,pill,1118,29,2,Japanese,m,0,0.0,48.33680056,1.48429429
consent,86,1,2024-05-30T21:02:11.858Z,english_12.wav,0,pill,1118,29,2,Japanese,m,1,0.1,27.41870997,0.15715938
consent,86,1,2024-05-30T21:02:11.858Z,english_12.wav,0,pill,1118,29,2,Japanese,m,2,0.2,-39.95667364,0.62940339
consent,86,1,2024-05-30T21:02:11.858Z,english_12.wav,0,pill,1118,29,2,Japanese,m,3,0.3,73.52964836,0.05281398
consent,86,1,2024-05-30T21:02:11.858Z,english_12.wav,0,pill,1118,29,2,Japanese,m,4,0.32341667,-36.35494906,1.6412938
consent,87,1,2024-05-30T21:02:11.858Z,english_743.wav,0,pill,2625,29,2,Japanese,m,0,0.0,-28.24983145,1.42102626
consent,87,1,2024-05-30T21:02:11.858Z,english_743.wav,0,pill,2625,29,2,Japanese,m,1,0.1,71.30498545,0.84283155
consent,87,1,2024-05-30T21:02:11.858Z,english_743.wav,0,pill,2625,29,2,Japanese,m,2,0.2,-89.00652632,0.82757129
consent,87,1,2024-05-30T21:02:11.858Z,english_743.wav,0,pill,2625,29,2,Japanese,m,3,0.3,3.43441779,1.38808557
consent,87,1,2024-05-30T21:02:11.858Z,english_743.wav,0,pill,2625,29,2,Japanese,m,4,0.32341667,-16.71659348,0.28501565
consent,88,1,2024-05-30T21:02:11.858Z,english_52.wav,0,peel,678,29,2,Japanese,m,0,0.0,54.63859099,0.91426261
consent,88,1,2024-05-30T21:02:11.858Z,english_52.wav,0,peel,678,29,2,Japanese,m,1,0.1,-85.67195477,1.20728413
consent,88,1,2024-05-30T21:02:11.858Z,english_52.wav,0,peel,678,29,2,Japanese,m,2,0.2,2.4878885,0.71733995
consent,88,1,2024-05-30T21:02:11.858Z,english_52.wav,0,peel,678,29,2,Japanese,m,3,0.3,86.13143505,1.54149443
consent,88,1,2024-05-30T21:02:11.858Z,english_52.wav,0,peel,678,29,2,Japanese,m,4,0.32341667,-53.30399902,1.3376245
consent,89,1,2024-05-30T21:02:11.858Z,english_400.wav,0,pill,1359,29,2,Japanese,m,0,0.0,-9.17924521,1.06898792
consent,89,1,2024-05-30T21:02:11.858Z,english_400.wav,0,pill,1359,29,2,Japanese,m,1,0.1,-51.0410118,0.05890524
consent,89,1,2024-05-30T21:02:11.858Z,english_400.wav,0,pill,1359,29,2,Japanese,m,2,0.2,66.2548805,1.54728483
consent,89,1,2024-05-30T21:02:11.858Z,english_400.wav,0,pill,1359,29,2,Japanese,m,3,0.3,92.33374018,1.43953162
consent,89,1,2024-05-30T21:02:11.858Z,english_400.wav,0,pill,1359,29,2,Japanese,m,4,0.32341667,-60.80730989,1.12546459
consent,90,1,2024-05-30T21:02:11.858Z,english_893.wav,0,pill,156,29,2,Japanese,m,0,0.0,17.19699967,0.82427167
consent,90,1,2024-05-30T21:02:11.858Z,english_893.wav,0,pill,156,29,2,Japanese,m,1,0.1,57.52525856,1.49866988
consent,90,1,2024-05-30T21:02:11.858Z,english_893.wav,0,pill,156,29,2,Japanese,m,2,0.2,13.30661706,0.84536161
consent,90,1,2024-05-30T21:02:11.858Z,english_893.wav,0,pill,156,29,2,Japanese,m,3,0.3,33.02687073,0.10168024
consent,90,1,2024-05-30T21:02:11.858Z,english_893.wav,0,pill,156,29,2,Japanese,m,4,0.32341667,-64.43392463,0.7117056
consent,91,1,2024-05-30T21:02:11.858Z,english_929.wav,0,pill,365,29,2,Japanese,m,0,0.0,29.19700723,1.75028237
consent,91,1,2024-05-30T21:02:11.858Z,english_929.wav,0,pill,365,29,2,Japanese,m,1,0.1,15.63825327,0.16776534
consent,91,1,2024-05-30T21:02:11.858Z,english_929.wav,0,pill,365,29,2,Japanese,m,2,0.2,3.65085895,0.15899819
consent,91,1,2024-05-30T21:02:11.858Z,english_929.wav,0,pill,365,29,2,Japanese,m,3,0.3,-91.18848108,0.41497916
consent,91,1,2024-05-30T21:02:11.858Z,english_929.wav,0,pill,365,29,2,Japanese,m,4,0.32341667,53.29025089,0.946821
consent,92,1,2024-05-30T21:02:11.858Z,english_599.wav,0,pill,235,29,2,Japanese,m,0,0.0,-57.09760884,1.03382432
consent,92,1,2024-05-30T21:02:11.858Z,english_599.wav,0,pill,235,29,2,Japanese,m,1,0.1,31.85682387,1.26885403
consent,92,1,2024-05-30T21:02:11.858Z,english_599.wav,0,pill,235,29,2,Japanese,m,2,0.2,-6.73425875,1.24717465
consent,92,1,2024-05-30T21:02:11.858Z,english_599.wav,0,pill,235,29,2,Japanese,m,3,0.3,47.95830633,1.34338376
consent,92,1,2024-05-30T21:02:11.858Z,english_599.wav,0,pill,235,29,2,Japanese,m,4,0.32341667,-83.8084816,0.34550335
consent,93,1,2024-05-30T21:02:11.858Z,english_554.wav,0,peel,1167,29,2,Japanese,m,0,0.0,9.57607907,1.93967122
consent,93,1,2024-05-30T21:02:11.858Z,english_554.wav,0,peel,1167,29,2,Japanese,m,1,0.1,29.37398753,1.74360796
consent,93,1,2024-05-30T21:02:11.858Z,english_554.wav,0,peel,1167,29,2,Japanese,m,2,0.2,-58.71210794,0.37945994
consent,93,1,2024-05-30T21:02:11.858Z,english_554.wav,0,peel,1167,29,2,Japanese,m,3,0.3,-10.7927705,1.56347046
consent,93,1,2024-05-30T21:02:11.858Z,english_554.wav,0,peel,1167,29,2,Japanese,m,4,0.32341667,21.8128915,1.38248676
consent,94,1,2024-05-30T21:02:11.858Z,english_48.wav,0,pill,82,29,2,Japanese,m,0,0.0,73.79399561,0.74385981
consent,94,1,2024-05-30T21:02:11.858Z,english_48.wav,0,pill,82,29,2,Japanese,m,1,0.1,-6.33056249,1.05457567
consent,94,1,2024-05-30T21:02:11.858Z,english_48.wav,0,pill,82,29,2,Japanese,m,2,0.2,-25.55346814,0.45493163
consent,94,1,2024-05-30T21:02:11.858Z,english_48.wav,0,pill,82,29,2,Japanese,m,3,0.3,46.43305776,0.06513279
consent,94,1,2024-05-30T21:02:11.858Z,english_48.wav,0,pill,82,29,2,Japanese,m,4,0.32341667,-46.56414761,0.46755714
consent,95,1,2024-05-30T21:02:11.858Z,english_444.wav,0,pill,44,29,2,Japanese,m,0,0.0,57.2872587,0.52242118
consent,95,1,2024-05-30T21:02:11.858Z,english_444.wav,0,pill,44,29,2,Japanese,m,1,0.1,68.85097071,1.61316948
consent,95,1,2024-05-30T21:02:11.858Z,english_444.wav,0,pill,44,29,2,Japanese,m,2,0.2,-30.10164543,0.15196309
consent,95,1,2024-05-30T21:02:11.858Z,english_444.wav,0,pill,44,29,2,Japanese,m,3,0.3,-57.0249627,0.44426911
consent,95,1,2024-05-30T21:02:11.858Z,english_444.wav,0,pill,44,29,2,Japanese,m,4,0.32341667,-54.19692118,1.48693747
consent,96,1,2024-05-30T21:02:11.858Z,english_652.wav,0,pill,78,29,2,Japanese,m,0,0.0,4.27736911,0.30427218
consent,96,1,2024-05-30T21:02:11.858Z,english_652.wav,0,pill,78,29,2,Japanese,m,1,0.1,18.79087972,0.67520162
consent,96,1,2024-05-30T21:02:11.858Z,english_652.wav,0,pill,78,29,2,Japanese,m,2,0.2,61.32163128,0.66270689
consent,96,1,2024-05-30T21:02:11.858Z,english_652.wav,0,pill,78,29,2,Japanese,m,3,0.3,45.76092148,0.93987847
consent,96,1,2024-05-30T21:02:11.858Z,english_652.wav,0,pill,78,29,2,Japanese,m,4,0.32341667,-45.08671386,1.10617978
consent,97,1,2024-05-30T21:02:11.858Z,english_885.wav,0,peel,228,29,2,Japanese,m,0,0.0,36.3288655,0.78617108
consent,97,1,2024-05-30T21:02:11.858Z,english_885.wav,0,peel,228,29,2,Japanese,m,1,0.1,-33.4786966,0.96292114
consent,97,1,2024-05-30T21:02:11.858Z,english_885.wav,0,peel,228,29,2,Japanese,m,2,0.2,8.05827153,0.70266535
consent,97,1,2024-05-30T21:02:11.858Z,english_885.wav,0,peel,228,29,2,Japanese,m,3,0.3,84.98004341,0.45613544
consent,97,1,2024-05-30T21:02:11.858Z,english_885.wav,0,peel,228,29,2,Japanese,m,4,0.32341667,-34.65749493,0.81873504
consent,98,1,2024-05-30T21:02:11.858Z,english_608.wav,0,peel,550,29,2,Japanese,m,0,0.0,78.8022196,1.54390555
consent,98,1,2024-05-30T21:02:11.858Z,english_608.wav,0,peel,550,29,2,Japanese,m,1,0.1,59.03316834,1.36513164
consent,98,1,2024-05-30T21:02:11.858Z,english_608.wav,0,peel,550,29,2,Japanese,m,2,0.2,-13.94961152,0.78716897
consent,98,1,2024-05-30T21:02:11.858Z,english_608.wav,0,peel,550,29,2,Japanese,m,3,0.3,55.83681575,1.29889886
consent,98,1,2024-05-30T21:02:11.858Z,english_608.wav,0,peel,550,29,2,Japanese,m,4,0.32341667,-13.77656228,0.44376749
consent,99,1,2024-05-30T21:02:11.858Z,english_236.wav,0,peel,366,29,2,Japanese,m,0,0.0,14.26564849,0.89253674
consent,99,1,2024-05-30T21:02:11.858Z,english_236.wav,0,peel,366,29,2,Japanese,m,1,0.1,60.97219358,0.38957934
consent,99,1,2024-05-30T21:02:11.858Z,english_236.wav,0,peel,366,29,2,Japanese,m,2,0.2,-12.39626346,1.55558051
consent,99,1,2024-05-30T21:02:11.858Z,english_236.wav,0,peel,366,29,2,Japanese,m,3,0.3,-62.87774076,0.2682718
consent,99,1,2024-05-30T21:02:11.858Z,english_236.wav,0,peel,366,29,2,Japanese,m,4,0.32341667,-75.97684705,1.92182597
consent,100,2,2024-05-30T21:02:11.858Z,english_110.wav,0,pill,436,29,2,Japanese,m,0,0.0,87.43016285,1.84693198
consent,100,2,2024-05-30T21:02:11.858Z,english_110.wav,0,pill,436,29,2,Japanese,m,1,0.1,-22.53798338,0.72868036
consent,100,2,2024-05-30T21:02:11.858Z,english_110.wav,0,pill,436,29,2,Japanese,m,2,0.2,60.38266123,1.6889543
consent,100,2,2024-05-30T21:02:11.858Z,english_110.wav,0,pill,436,29,2,Japanese,m,3,0.3,50.75224473,0.97311446
consent,100,2,2024-05-30T21:02:11.858Z,english_110.wav,0,pill,436,29,2,Japanese,m,4,0.32341667,87.78495288,0.46157718
consent,101,2,2024-05-30T21:02:11.858Z,english_990.wav,0,pill,134,29,2,Japanese,m,0,0.0,-17.98511021,0.6190444
consent,101,2,2024-05-30T21:02:11.858Z,english_990.wav,0,pill,134,29,2,Japanese,m,1,0.1,-90.3005676,0.77548775
consent,101,2,2024-05-30T21:02:11.858Z,english_990.wav,0,pill,134,29,2,Japanese,m,2,0.2,4.37005684,0.55013224
consent,101,2,2024-05-30T21:02:11.858Z,english_990.wav,0,pill,134,29,2,Japanese,m,3,0.3,83.93705034,0.66784051
consent,101,2,2024-05-30T21:02:11.858Z,english_990.wav,0,pill,134,29,2,Japanese,m,4,0.32341667,-36.57803625,0.32384409
consent,102,2,2024-05-30T21:02:11.858Z,english_25.wav,0,pill,96,29,2,Japanese,m,0,0.0,-93.68210842,1.14210865
consent,102,2,2024-05-30T21:02:11.858Z,english_25.wav,0,pill,96,29,2,Japanese,m,1,0.1,-14.41268038,1.90089654
consent,102,2,2024-05-30T21:02:11.858Z,english_25.wav,0,pill,96,29,2,Japanese,m,2,0.2,72.93230065,0.61137859
consent,102,2,2024-05-30T21:02:11.858Z,english_25.wav,0,pill,96,29,2,Japanese,m,3,0.3,23.28545759,1.93042398
consent,102,2,2024-05-30T21:02:11.858Z,english_25.wav,0,pill,96,29,2,Japanese,m,4,0.32341667,18.09953767,1.11869114
consent,103,2,2024-05-30T21:02:11.858Z,english_201.wav,0,peel,1254,29,2,Japanese,m,0,0.0,-11.66329209,1.59313322
consent,103,2,2024-05-30T21:02:11.858Z,english_201.wav,0,peel,1254,29,2,Japanese,m,1,0.1,-73.85436231,1.78385616
consent,103,2,2024-05-30T21:02:11.858Z,english_201.wav,0,peel,1254,29,2,Japanese,m,2,0.2,-12.5199597,0.57641365
consent,103,2,2024-05-30T21:02:11.858Z,english_201.wav,0,peel,1254,29,2,Japanese,m,3,0.3,-44.18013019,1.54371285
consent,103,2,2024-05-30T21:02:11.858Z,english_201.wav,0,peel,1254,29,2,Japanese,m,4,0.32341667,47.68284229,1.11944384
consent,104,2,2024-05-30T21:02:11.858Z,english_944.wav,0,peel,524,29,2,Japanese,m,0,0.0,70.24274457,0.61048125
consent,104,2,2024-05-30T21:02:11.858Z,english_944.wav,0,peel,524,29,2,Japanese,m,1,0.1,-48.79231442,1.63310511
consent,104,2,2024-05-30T21:02:11.858Z,english_944.wav,0,peel,524,29,2,Japanese,m,2,0.2,-6.42324239,0.21687347
consent,104,2,2024-05-30T21:02:11.858Z,english_944.wav,0,peel,524,29,2,Japanese,m,3,0.3,-7.7338836,0.45027042
consent,104,2,2024-05-30T21:02:11.858Z,english_944.wav,0,peel,524,29,2,Japanese,m,4,0.32341667,69.46240638,0.90306897
consent,105,2,2024-05-30T21:02:11.858Z,english_680.wav,0,pill,1109,29,2,Japanese,m,0,0.0,93.24972168,1.89994278
consent,105,2,2024-05-30T21:02:11.858Z,english_680.wav,0,pill,1109,29,2,Japanese,m,1,0.1,21.55707386,1.06559033
consent,105,2,2024-05-30T21:02:11.858Z,english_680.wav,0,pill,1109,29,2,Japanese,m,2,0.2,-58.84044748,0.79606997
consent,105,2,2024-05-30T21:02:11.858Z,english_680.wav,0,pill,1109,29,2,Japanese,m,3,0.3,-13.55367876,0.35899559
consent,105,2,2024-05-30T21:02:11.858Z,english_680.wav,0,pill,1109,29,2,Japanese,m,4,0.32341667,17.98073729,1.50925573
consent,106,2,2024-05-30T21:02:11.858Z,english_682.wav,0,pill,833,29,2,Japanese,m,0,0.0,-19.80167737,1.6131825
consent,106,2,2024-05-30T21:02:11.858Z,english_682.wav,0,pill,833,29,2,Japanese,m,1,0.1,-30.98220326,1.03205672
consent,106,2,2024-05-30T21:02:11.858Z,english_682.wav,0,pill,833,29,2,Japanese,m,2,0.2,26.07010201,1.08357256
consent,106,2,2024-05-30T21:02:11.858Z,english_682.wav,0,pill,833,29,2,Japanese,m,3,0.3,-7.79776739,1.70642947
consent,106,2,2024-05-30T21:02:11.858Z,english_682.wav,0,pill,833,29,2,Japanese,m,4,0.32341667,-10.9148898,0.86858281
consent,107,2,2024-05-30T21:02:11.858Z,english_874.wav,0,pill,284,29,2,Japanese,m,0,0.0,32.94582558,0.77720789
consent,107,2,2024-05-30T21:02:11.858Z,english_874.wav,0,pill,284,29,2,Japanese,m,1,0.1,73.76521909,1.44852608
consent,107,2,2024-05-30T21:02:11.858Z,english_874.wav,0,pill,284,29,2,Japanese,m,2,0.2,-83.94992572,1.18086928
consent,107,2,2024-05-30T21:02:11.858Z,english_874.wav,0,pill,284,29,2,Japanese,m,3,0.3,-61.86791133,0.75042975
consent,107,2,2024-05-30T21:02:11.858Z,english_874.wav,0,pill,284,29,2,Japanese,m,4,0.32341667,-94.71312943,1.11461748
consent,108,2,2024-05-30T21:02:11.858Z,english_629.wav,0,pill,1005,29,2,Japanese,m,0,0.0,76.68747977,0.56482572
consent,108,2,2024-05-30T21:02:11.858Z,english_629.wav,0,pill,1005,29,2,Japanese,m,1,0.1,72.0676039,0.14075004
consent,108,2,2024-05-30T21:02:11.858Z,english_629.wav,0,pill,1005,29,2,Japanese,m,2,0.2,-3.42071834,0.80885654
consent,108,2,2024-05-30T21:02:11.858Z,english_629.wav,0,pill,1005,29,2,Japanese,m,3,0.3,-75.36993348,1.43133267
consent,108,2,2024-05-30T21:02:11.858Z,english_629.wav,0,pill,1005,29,2,Japanese,m,4,0.32341667,-15.4233884,0.14234351
consent,109,2,2024-05-30T21:02:11.858Z,english_453.wav,0,pill,1025,29,2,Japanese,m,0,0.0,-60.23429987,1.87756573
consent,109,2,2024-05-30T21:02:11.858Z,english_453.wav,0,pill,1025,29,2,Japanese,m,1,0.1,80.38725697,0.94070469
consent,109,2,2024-05-30T21:02:11.858Z,english_453.wav,0,pill,1025,29,2,Japanese,m,2,0.2,66.16689695,1.71191258
consent,109,2,2024-05-30T21:02:11.858Z,english_453.wav,0,pill,1025,29,2,Japanese,m,3,0.3,-59.46214637,0.56012011
consent,109,2,2024-05-30T21:02:11.858Z,english_453.wav,0,pill,1025,29,2,Japanese,m,4,0.32341667,-39.76201882,0.35119419
consent,110,2,2024-05-30T21:02:11.858Z,english_312.wav,0,pill,86,29,2,Japanese,m,0,0.0,44.01610098,1.36033213
consent,110,2,2024-05-30T21:02:11.858Z,english_312.wav,0,pill,86,29,2,Japanese,m,1,0.1,-34.76139374,0.08557756
consent,110,2,2024-05-30T21:02:11.858Z,english_312.wav,0,pill,86,29,2,Japanese,m,2,0.2,-43.47986862,1.06509633
consent,110,2,2024-05-30T21:02:11.858Z,english_312.wav,0,pill,86,29,2,Japanese,m,3,0.3,-9.79517271,0.67257935
consent,110,2,2024-05-30T21:02:11.858Z,english_312.wav,0,pill,86,29,2,Japanese,m,4,0.32341667,85.48914895,0.12614926
consent,111,2,2024-05-30T21:02:11.858Z,english_280.wav,0,pill,1504,29,2,Japanese,m,0,0.0,88.60957906,0.0301642
consent,111,2,2024-05-30T21:02:11.858Z,english_280.wav,0,pill,1504,29,2,Japanese,m,1,0.1,84.68226706,1.61205195
consent,111,2,2024-05-30T21:02:11.858Z,english_280.wav,0,pill,1504,29,2,Japanese,m,2,0.2,-77.43679957,1.42137195
consent,111,2,2024-05-30T21:02:11.858Z,english_280.wav,0,pill,1504,29,2,Japanese,m,3,0.3,45.11946934,1.73240953
consent,111,2,2024-05-30T21:02:11.858Z,english_280.wav,0,pill,1504,29,2,Japanese,m,4,0.32341667,-36.96988582,0.09602122
consent,112,2,2024-05-30T21:02:11.858Z,english_368.wav,0,pill,147,29,2,Japanese,m,0,0.0,-25.00542805,1.03431482
consent,112,2,2024-05-30T21:02:11.858Z,english_368.wav,0,pill,147,29,2,Japanese,m,1,0.1,-48.20991773,0.92366821
consent,112,2,2024-05-30T21:02:11.858Z,english_368.wav,0,pill,147,29,2,Japanese,m,2,0.2,-51.83604218,0.34019883
consent,112,2,2024-05-30T21:02:11.858Z,english_368.wav,0,pill,147,29,2,Japanese,m,3,0.3,14.57062672,1.21184807
consent,112,2,2024-05-30T21:02:11.858Z,english_368.wav,0,pill,147,29,2,Japanese,m,4,0.32341667,-26.77020505,0.81530657
consent,113,2,2024-05-30T21:02:11.858Z,english_504.wav,0,pill,462,29,2,Japanese,m,0,0.0,4.11468456,0.75379057
consent,113,2,2024-05-30T21:02:11.858Z,english_504.wav,0,pill,462,29,2,Japanese,m,1,0.1,70.56620437,1.18348717
consent,113,2,2024-05-30T21:02:11.858Z,english_504.wav,0,pill,462,29,2,Japanese,m,2,0.2,3.26767498,0.25360202
consent,113,2,2024-05-30T21:02:11.858Z,english_504.wav,0,pill,462,29,2,Japanese,m,3,0.3,-3.14493553,1.87094491
consent,113,2,2024-05-30T21:02:11.858Z,english_504.wav,0,pill,462,29,2,Japanese,m,4,0.32341667,43.57926014,0.110125
consent,114,2,2024-05-30T21:02:11.858Z,english_439.wav,0,pill,375,29,2,Japanese,m,0,0.0,-34.98153375,0.51703437
consent,114,2,2024-05-30T21:02:11.858Z,english_439.wav,0,pill,375,29,2,Japanese,m,1,0.1,58.81829455,0.92552513
consent,114,2,2024-05-30T21:02:11.858Z,english_439.wav,0,pill,375,29,2,Japanese,m,2,0.2,-39.64168408,1.94754337
consent,114,2,2024-05-30T21:02:11.858Z,english_439.wav,0,pill,375,29,2,Japanese,m,3,0.3,-65.89684329,0.19153473
consent,114,2,2024-05-30T21:02:11.858Z,english_439.wav,0,pill,375,29,2,Japanese,m,4,0.32341667,-18.09409032,1.29438445
consent,115,2,2024-05-30T21:02:11.858Z,english_305.wav,0,pill,29,29,2,Japanese,m,0,0.0,-23.95553444,0.70401859
consent,115,2,2024-05-30T21:02:11.858Z,english_305.wav,0,pill,29,29,2,Japanese,m,1,0.1,-97.95184299,0.00875292
consent,115,2,2024-05-30T21:02:11.858Z,english_305.wav,0,pill,29,29,2,Japanese,m,2,0.2,95.23338475,1.8427633
consent,115,2,2024-05-30T21:02:11.858Z,english_305.wav,0,pill,29,29,2,Japanese,m,3,0.3,10.74081096,1.83453859
consent,115,2,2024-05-30T21:02:11.858Z,english_305.wav,0,pill,29,29,2,Japanese,m,4,0.32341667,24.9757793,1.77535614
consent,116,2,2024-05-30T21:02:11.858Z,english_903.wav,0,pill,329,29,2,Japanese,m,0,0.0,73.58848698,0.30588109
consent,116,2,2024-05-30T21:02:11.858Z,english_903.wav,0,pill,329,29,2,Japanese,m,1,0.1,-95.58060262,0.88963747
consent,116,2,2024-05-30T21:02:11.858Z,english_903.wav,0,pill,329,29,2,Japanese,m,2,0.2,17.41642173,1.73634476
consent,116,2,2024-05-30T21:02:11.858Z,english_903.wav,0,pill,329,29,2,Japanese,m,3,0.3,94.35223882,0.71257749
consent,116,2,2024-05-30T21:02:11.858Z,english_903.wav,0,pill,329,29,2,Japanese,m,4,0.32341667,-49.48803877,1.4824474
consent,117,2,2024-05-30T21:02:11.858Z,english_660.wav,0,pill,119,29,2,Japanese,m,0,0.0,-18.17224728,0.25133372
consent,117,2,2024-05-30T21:02:11.858Z,english_660.wav,0,pill,119,29,2,Japanese,m,1,0.1,-51.94390165,0.1756709
consent,117,2,2024-05-30T21:02:11.858Z,english_660.wav,0,pill,119,29,2,Japanese,m,2,0.2,-79.57293034,0.660284
consent,117,2,2024-05-30T21:02:11.858Z,english_660.wav,0,pill,119,29,2,Japanese,m,3,0.3,67.99606973,1.08301436
consent,117,2,2024-05-30T21:02:11.858Z,english_660.wav,0,pill,119,29,2,Japanese,m,4,0.32341667,-2.00416122,0.81155284
consent,118,2,2024-05-30T21:02:11.858Z,english_191.wav,0,pill,41,29,2,Japanese,m,0,0.0,5.22709543,0.24693927
consent,118,2,2024-05-30T21:02:11.858Z,english_191.wav,0,pill,41,29,2,Japanese,m,1,0.1,-51.29785688,1.61528443
consent,118,2,2024-05-30T21:02:11.858Z,english_191.wav,0,pill,41,29,2,Japanese,m,2,0.2,14.39503603,0.10158113
consent,118,2,2024-05-30T21:02:11.858Z,english_191.wav,0,pill,41,29,2,Japanese,m,3,0.3,60.50312404,1.02883866
consent,118,2,2024-05-30T21:02:11.858Z,english_191.wav,0,pill,41,29,2,Japanese,m,4,0.32341667,68.15927452,0.69870432
consent,119,2,2024-05-30T21:02:11.858Z,english_5.wav,0,pill,61,29,2,Japanese,m,0,0.0,-15.92383461,0.27445408
consent,119,2,2024-05-30T21:02:11.858Z,english_5.wav,0,pill,61,29,2,Japanese,m,1,0.1,-20.01914587,0.54328549
consent,119,2,2024-05-30T21:02:11.858Z,english_5.wav,0,pill,61,29,2,Japanese,m,2,0.2,40.70457056,0.32172142
consent,119,2,2024-05-30T21:02:11.858Z,english_5.wav,0,pill,61,29,2,Japanese,m,3,0.3,-94.67131236,1.15903644
consent,119,2,2024-05-30T21:02:11.858Z,english_5.wav,0,pill,61,29,2,Japanese,m,4,0.32341667,-88.33027294,0.94870148
consent,120,2,2024-05-30T21:02:11.858Z,english_135.wav,0,pill,347,29,2,Japanese,m,0,0.0,92.53632507,0.8813083
consent,120,2,2024-05-30T21:02:11.858Z,english_135.wav,0,pill,347,29,2,Japanese,m,1,0.1,42.68843281,1.60503348
consent,120,2,2024-05-30T21:02:11.858Z,english_135.wav,0,pill,347,29,2,Japanese,m,2,0.2,87.27237188,0.22265806
consent,120,2,2024-05-30T21:02:11.858Z,english_135.wav,0,pill,347,29,2,Japanese,m,3,0.3,-70.62725941,0.4233462
consent,120,2,2024-05-30T21:02:11.858Z,english_135.wav,0,pill,347,29,2,Japanese,m,4,0.32341667,91.37204548,0.99500327
consent,121,2,2024-05-30T21:02:11.858Z,english_780.wav,0,pill,387,29,2,Japanese,m,0,0.0,-15.29393571,0.99089132
consent,121,2,2024-05-30T21:02:11.858Z,english_780.wav,0,pill,387,29,2,Japanese,m,1,0.1,-51.86215325,0.3216491
consent,121,2,2024-05-30T21:02:11.858Z,english_780.wav,0,pill,387,29,2,Japanese,m,2,0.2,-27.43889325,1.38797184
consent,121,2,2024-05-30T21:02:11.858Z,english_780.wav,0,pill,387,29,2,Japanese,m,3,0.3,37.56841363,0.96060741
consent,121,2,2024-05-30T21:02:11.858Z,english_780.wav,0,pill,387,29,2,Japanese,m,4,0.32341667,-40.51855496,0.89048449
consent,122,2,2024-05-30T21:02:11.858Z,english_594.wav,0,pill,291,29,2,Japanese,m,0,0.0,-85.15725243,1.49995106
consent,122,2,2024-05-30T21:02:11.858Z,english_594.wav,0,pill,291,29,2,Japanese,m,1,0.1,18.57908242,1.36683942
consent,122,2,2024-05-30T21:02:11.858Z,english_594.wav,0,pill,291,29,2,Japanese,m,2,0.2,-52.1381203,1.31792707
consent,122,2,2024-05-30T21:02:11.858Z,english_594.wav,0,pill,291,29,2,Japanese,m,3,0.3,77.56862162,0.76119001
consent,122,2,2024-05-30T21:02:11.858Z,english_594.wav,0,pill,291,29,2,Japanese,m,4,0.32341667,89.7133381,1.77084997
consent,123,2,2024-05-30T21:02:11.858Z,english_553.wav,0,pill,368,29,2,Japanese,m,0,0.0,-18.85071283,1.30647824
consent,123,2,2024-05-30T21:02:11.858Z,english_553.wav,0,pill,368,29,2,Japanese,m,1,0.1,56.72439372,1.55205535
consent,123,2,2024-05-30T21:02:11.858Z,english_553.wav,0,pill,368,29,2,Japanese,m,2,0.2,-32.51510613,1.79127341
consent,123,2,2024-05-30T21:02:11.858Z,english_553.wav,0,pill,368,29,2,Japanese,m,3,0.3,-81.56708954,0.1795284
consent,123,2,2024-05-30T21:02:11.858Z,english_553.wav,0,pill,368,29,2,Japanese,m,4,0.32341667,42.80590219,0.48805839
consent,124,2,2024-05-30T21:02:11.858Z,english_679.wav,0,pill,204,29,2,Japanese,m,0,0.0,37.61966445,0.05085037
consent,124,2,2024-05-30T21:02:11.858Z,english_679.wav,0,pill,204,29,2,Japanese,m,1,0.1,51.99791738,0.83446012
consent,124,2,2024-05-30T21:02:11.858Z,english_679.wav,0,pill,204,29,2,Japanese,m,2,0.2,47.28862711,0.17034906
consent,124,2,2024-05-30T21:02:11.858Z,english_679.wav,0,pill,204,29,2,Japanese,m,3,0.3,96.96405016,1.15010704
consent,124,2,2024-05-30T21:02:11.858Z,english_679.wav,0,pill,204,29,2,Japanese,m,4,0.32341667,17.22990972,1.32170415
consent,125,2,2024-05-30T21:02:11.858Z,english_47.wav,0,pill,22,29,2,Japanese,m,0,0.0,70.62381491,1.36620222
consent,125,2,2024-05-30T21:02:11.858Z,english_47.wav,0,pill,22,29,2,Japanese,m,1,0.1,-43.60565268,0.47559644
consent,125,2,2024-05-30T21:02:11.858Z,english_47.wav,0,pill,22,29,2,Japanese,m,2,0.2,29.54670776,0.92078875
consent,125,2,2024-05-30T21:02:11.858Z,english_47.wav,0,pill,22,29,2,Japanese,m,3,0.3,95.208653,0.83015506
consent,125,2,2024-05-30T21:02:11.858Z,english_47.wav,0,pill,22,29,2,Japanese,m,4,0.32341667,-87.83630424,1.40747595
consent,126,2,2024-05-30T21:02:11.858Z,english_669.wav,0,pill,38,29,2,Japanese,m,0,0.0,-58.38123624,0.53455866
consent,126,2,2024-05-30T21:02:11.858Z,english_669.wav,0,pill,38,29,2,Japanese,m,1,0.1,-80.20155876,0.64376179
consent,126,2,2024-05-30T21:02:11.858Z,english_669.wav,0,pill,38,29,2,Japanese,m,2,0.2,-25.59737246,0.76694756
consent,126,2,2024-05-30T21:02:11.858Z,english_669.wav,0,pill,38,29,2,Japanese,m,3,0.3,-30.25633946,1.36842807
consent,126,2,2024-05-30T21:02:11.858Z,english_669.wav,0,pill,38,29,2,Japanese,m,4,0.32341667,-70.78768349,0.06434218
consent,127,2,2024-05-30T21:02:11.858Z,english_116.wav,0,pill,102,29,2,Japanese,m,0,0.0,47.3382154,1.30986561
consent,127,2,2024-05-30T21:02:11.858Z,english_116.wav,0,pill,102,29,2,Japanese,m,1,0.1,-82.57412589,0.36649927
consent,127,2,2024-05-30T21:02:11.858Z,english_116.wav,0,pill,102,29,2,Japanese,m,2,0.2,24.81754674,1.53598436
consent,127,2,2024-05-30T21:02:11.858Z,english_116.wav,0,pill,102,29,2,Japanese,m,3,0.3,61.93416492,1.65694634
consent,127,2,2024-05-30T21:02:11.858Z,english_116.wav,0,pill,102,29,2,Japanese,m,4,0.32341667,-97.8286579,0.40343631
consent,128,2,2024-05-30T21:02:11.858Z,english_562.wav,0,pill,578,29,2,Japanese,m,0,0.0,-40.22672309,0.64031882
consent,128,2,2024-05-30T21:02:11.858Z,english_562.wav,0,pill,578,29,2,Japanese,m,1,0.1,77.961849,0.7637006
consent,128,2,2024-05-30T21:02:11.858Z,english_562.wav,0,pill,578,29,2,Japanese,m,2,0.2,25.52463525,0.87632482
consent,128,2,2024-05-30T21:02:11.858Z,english_562.wav,0,pill,578,29,2,Japanese,m,3,0.3,84.62788358,0.98972612
consent,128,2,2024-05-30T21:02:11.858Z,english_562.wav,0,pill,578,29,2,Japanese,m,4,0.32341667,-53.67427145,0.74010285
consent,129,2,2024-05-30T21:02:11.858Z,english_725.wav,0,pill,526,29,2,Japanese,m,0,0.0,26.80600371,0.25466557
consent,129,2,2024-05-30T21:02:11.858Z,english_725.wav,0,pill,526,29,2,Japanese,m,1,0.1,82.24352357,0.77088778
consent,129,2,2024-05-30T21:02:11.858Z,english_725.wav,0,pill,526,29,2,Japanese,m,2,0.2,-3.79901328,0.70697722
consent,129,2,2024-05-30T21:02:11.858Z,english_725.wav,0,pill,526,29,2,Japanese,m,3,0.3,68.54562933,1.24247197
consent,129,2,2024-05-30T21:02:11.858Z,english_725.wav,0,pill,526,29,2,Japanese,m,4,0.32341667,-39.79698803,1.34526742
consent,130,2,2024-05-30T21:02:11.858Z,english_176.wav,0,pill,474,29,2,Japanese,m,0,0.0,-62.84257592,0.68193044
consent,130,2,2024-05-30T21:02:11.858Z,english_176.wav,0,pill,474,29,2,Japanese,m,1,0.1,86.95506575,0.26950978
consent,130,2,2024-05-30T21:02:11.858Z,english_176.wav,0,pill,474,29,2,Japanese,m,2,0.2,-28.0397163,0.45294908
consent,130,2,2024-05-30T21:02:11.858Z,english_176.wav,0,pill,474,29,2,Japanese,m,3,0.3,-64.80124174,0.91353321
consent,130,2,2024-05-30T21:02:11.858Z,english_176.wav,0,pill,474,29,2,Japanese,m,4,0.32341667,-98.66046935,1.10925614
consent,131,2,2024-05-30T21:02:11.858Z,english_636.wav,0,pill,388,29,2,Japanese,m,0,0.0,-20.37295141,1.69276631
consent,131,2,2024-05-30T21:02:11.858Z,english_636.wav,0,pill,388,29,2,Japanese,m,1,0.1,-84.7288786,1.69908726
consent,131,2,2024-05-30T21:02:11.858Z,english_636.wav,0,pill,388,29,2,Japanese,m,2,0.2,24.84265136,1.44836333
consent,131,2,2024-05-30T21:02:11.858Z,english_636.wav,0,pill,388,29,2,Japanese,m,3,0.3,-9.2443485,1.36647816
consent,131,2,2024-05-30T21:02:11.858Z,english_636.wav,0,pill,388,29,2,Japanese,m,4,0.32341667,49.04875774,0.88112598
consent,132,2,2024-05-30T21:02:11.858Z,english_961.wav,0,pill,1116,29,2,Japanese,m,0,0.0,20.81275789,1.87720953
consent,132,2,2024-05-30T21:02:11.858Z,english_961.wav,0,pill,1116,29,2,Japanese,m,1,0.1,46.48072234,1.43497285
consent,132,2,2024-05-30T21:02:11.858Z,english_961.wav,0,pill,1116,29,2,Japanese,m,2,0.2,79.36291712,1.9095844
consent,132,2,2024-05-30T21:02:11.858Z,english_961.wav,0,pill,1116,29,2,Japanese,m,3,0.3,7.86976501,0.20821065
consent,132,2,2024-05-30T21:02:11.858Z,english_961.wav,0,pill,1116,29,2,Japanese,m,4,0.32341667,-45.45751668,0.0640973
consent,133,2,2024-05-30T21:02:11.858Z,english_700.wav,0,pill,38,29,2,Japanese,m,0,0.0,-76.89056698,0.13963816
consent,133,2,2024-05-30T21:02:11.858Z,english_700.wav,0,pill,38,29,2,Japanese,m,1,0.1,-93.17552037,0.76842729
consent,133,2,2024-05-30T21:02:11.858Z,english_700.wav,0,pill,38,29,2,Japanese,m,2,0.2,51.24439156,0.49149542
consent,133,2,2024-05-30T21:02:11.858Z,english_700.wav,0,pill,38,29,2,Japanese,m,3,0.3,89.4516499,1.08714417
consent,133,2,2024-05-30T21:02:11.858Z,english_700.wav,0,pill,38,29,2,Japanese,m,4,0.32341667,-68.48659069,1.35188588
consent,134,2,2024-05-30T21:02:11.858Z,english_826.wav,0,pill,16,29,2,Japanese,m,0,0.0,24.96468068,1.6444456
consent,134,2,2024-05-30T21:02:11.858Z,english_826.wav,0,pill,16,29,2,Japanese,m,1,0.1,1.37616969,0.97947611
consent,134,2,2024-05-30T21:02:11.858Z,english_826.wav,0,pill,16,29,2,Japanese,m,2,0.2,-71.19975556,0.49097947
consent,134,2,2024-05-30T21:02:11.858Z,english_826.wav,0,pill,16,29,2,Japanese,m,3,0.3,-48.49913399,0.98819908
consent,134,2,2024-05-30T21:02:11.858Z,english_826.wav,0,pill,16,29,2,Japanese,m,4,0.32341667,40.69153462,1.05842158
consent,135,2,2024-05-30T21:02:11.858Z,english_270.wav,0,pill,329,29,2,Japanese,m,0,0.0,-54.89328754,1.02368747
consent,135,2,2024-05-30T21:02:11.858Z,english_270.wav,0,pill,329,29,2,Japanese,m,1,0.1,-41.12345733,1.74263534
consent,135,2,2024-05-30T21:02:11.858Z,english_270.wav,0,pill,329,29,2,Japanese,m,2,0.2,79.03328036,0.45342006
consent,135,2,2024-05-30T21:02:11.858Z,english_270.wav,0,pill,329,29,2,Japanese,m,3,0.3,-87.71335894,1.29911503
consent,135,2,2024-05-30T21:02:11.858Z,english_270.wav,0,pill,329,29,2,Japanese,m,4,0.32341667,-48.20373708,0.95859349
consent,136,2,2024-05-30T21:02:11.858Z,english_687.wav,0,pill,352,29,2,Japanese,m,0,0.0,86.90300909,0.475784
consent,136,2,2024-05-30T21:02:11.858Z,english_687.wav,0,pill,352,29,2,Japanese,m,1,0.1,79.71843279,0.40603367
consent,136,2,2024-05-30T21:02:11.858Z,english_687.wav,0,pill,352,29,2,Japanese,m,2,0.2,34.94433723,0.97706088
consent,136,2,2024-05-30T21:02:11.858Z,english_687.wav,0,pill,352,29,2,Japanese,m,3,0.3,-45.53952821,0.65075382
consent,136,2,2024-05-30T21:02:11.858Z,english_687.wav,0,pill,352,29,2,Japanese,m,4,0.32341667,63.0204093,0.93918167
consent,137,2,2024-05-30T21:02:11.858Z,english_857.wav,0,pill,388,29,2,Japanese,m,0,0.0,-33.07031843,1.04325491
consent,137,2,2024-05-30T21:02:11.858Z,english_857.wav,0,pill,388,29,2,Japanese,m,1,0.1,12.9349985,0.44078978
consent,137,2,2024-05-30T21:02:11.858Z,english_857.wav,0,pill,388,29,2,Japanese,m,2,0.2,4.33682254,1.36028147
consent,137,2,2024-05-30T21:02:11.858Z,english_857.wav,0,pill,388,29,2,Japanese,m,3,0.3,90.68056828,1.16905302
consent,137,2,2024-05-30T21:02:11.858Z,english_857.wav,0,pill,388,29,2,Japanese,m,4,0.32341667,37.69781409,1.24618942
consent,138,2,2024-05-30T21:02:11.858Z,english_77.wav,0,pill,288,29,2,Japanese,m,0,0.0,-72.40491727,0.02183184
consent,138,2,2024-05-30T21:02:11.858Z,english_77.wav,0,pill,288,29,2,Japanese,m,1,0.1,8.82020558,1.36505393
consent,138,2,2024-05-30T21:02:11.858Z,english_77.wav,0,pill,288,29,2,Japanese,m,2,0.2,89.28229375,1.34112472
consent,138,2,2024-05-30T21:02:11.858Z,english_77.wav,0,pill,288,29,2,Japanese,m,3,0.3,-14.39120814,0.45737201
consent,138,2,2024-05-30T21:02:11.858Z,english_77.wav,0,pill,288,29,2,Japanese,m,4,0.32341667,0.18022976,1.1673494
consent,139,2,2024-05-30T21:02:11.858Z,english_572.wav,0,pill,158,29,2,Japanese,m,0,0.0,-16.16189062,1.82210005
consent,139,2,2024-05-30T21:02:11.858Z,english_572.wav,0,pill,158,29,2,Japanese,m,1,0.1,-40.8511413,0.80249033
consent,139,2,2024-05-30T21:02:11.858Z,english_572.wav,0,pill,158,29,2,Japanese,m,2,0.2,-77.3747243,0.69959732
consent,139,2,2024-05-30T21:02:11.858Z,english_572.wav,0,pill,158,29,2,Japanese,m,3,0.3,87.62803369,0.43311894
consent,139,2,2024-05-30T21:02:11.858Z,english_572.wav,0,pill,158,29,2,Japanese,m,4,0.32341667,81.6005998,1.25204325
consent,140,2,2024-05-30T21:02:11.858Z,english_649.wav,0,pill,29,29,2,Japanese,m,0,0.0,65.82222467,0.56154429
consent,140,2,2024-05-30T21:02:11.858Z,english_649.wav,0,pill,29,29,2,Japanese,m,1,0.1,-9.35575527,0.64767017
consent,140,2,2024-05-30T21:02:11.858Z,english_649.wav,0,pill,29,29,2,Japanese,m,2,0.2,-91.83315911,0.84538271
consent,140,2,2024-05-30T21:02:11.858Z,english_649.wav,0,pill,29,29,2,Japanese,m,3,0.3,79.30022345,0.4979411
consent,140,2,2024-05-30T21:02:11.858Z,english_649.wav,0,pill,29,29,2,Japanese,m,4,0.32341667,45.86180924,0.89353148
consent,141,2,2024-05-30T21:02:11.858Z,english_847.wav,0,pill,262,29,2,Japanese,m,0,0.0,76.45550118,0.38890762
consent,141,2,2024-05-30T21:02:11.858Z,english_847.wav,0,pill,262,29,2,Japanese,m,1,0.1,-18.38123868,1.01718805
consent,141,2,2024-05-30T21:02:11.858Z,english_847.wav,0,pill,262,29,2,Japanese,m,2,0.2,18.403778,1.24872656
consent,141,2,2024-05-30T21:02:11.858Z,english_847.wav,0,pill,262,29,2,Japanese,m,3,0.3,57.196546,0.81951257
consent,141,2,2024-05-30T21:02:11.858Z,english_847.wav,0,pill,262,29,2,Japanese,m,4,0.32341667,32.99763753,0.74194876
consent,142,2,2024-05-30T21:02:11.858Z,english_690.wav,0,pill,324,29,2,Japanese,m,0,0.0,33.047654,0.0,1.58265684
consent,142,2,2024-05-30T21:02:11.858Z,english_690.wav,0,pill,324,29,2,Japanese,m,1,0.1,0.0212167444,0.1,0.6931717
consent,142,2,2024-05-30T21:02:11.858Z,english_690.wav,0,pill,324,29,2,Japanese,m,2,0.2,21.343237,0.2,1.47002515
consent,142,2,2024-05-30T21:02:11.858Z,english_690.wav,0,pill,324,29,2,Japanese,m,3,0.3,35.4710796,0.3,1.9856235
consent,142,2,2024-05-30T21:02:11.858Z,english_690.wav,0,pill,324,29,2,Japanese,m,4,0.323416667,79.4400816,0.32341667,1.00479917
consent,143,2,2024-05-30T21:02:11.858Z,english_199.wav,0,pill,319,29,2,Japanese,m,0,0.0,-24.89956817,0.07306367
consent,143,2,2024-05-30T21:02:11.858Z,english_199.wav,0,pill,319,29,2,Japanese,m,1,0.1,-48.49200931,0.10334581
consent,143,2,2024-05-30T21:02:11.858Z,english_199.wav,0,pill,319,29,2,Japanese,m,2,0.2,-89.66548778,1.49062114
consent,143,2,2024-05-30T21:02:11.858Z,english_199.wav,0,pill,319,29,2,Japanese,m,3,0.3,29.20785813,0.36717513
consent,143,2,2024-05-30T21:02:11.858Z,english_199.wav,0,pill,319,29,2,Japanese,m,4,0.32341667,-88.68286362,1.33179809
consent,144,2,2024-05-30T21:02:11.858Z,english_872.wav,0,pill,371,29,2,Japanese,m,0,0.0,0.56374655,0.10935802
consent,144,2,2024-05-30T21:02:11.858Z,english_872.wav,0,pill,371,29,2,Japanese,m,1,0.1,-70.88107799,0.91778609
consent,144,2,2024-05-30T21:02:11.858Z,english_872.wav,0,pill,371,29,2,Japanese,m,2,0.2,6.46677515,1.38740199
consent,144,2,2024-05-30T21:02:11.858Z,english_872.wav,0,pill,371,29,2,Japanese,m,3,0.3,-23.51354109,0.12682507
consent,144,2,2024-05-30T21:02:11.858Z,english_872.wav,0,pill,371,29,2,Japanese,m,4,0.32341667,81.64578493,0.71067476
consent,145,2,2024-05-30T21:02:11.858Z,english_274.wav,0,pill,231,29,2,Japanese,m,0,0.0,-30.61452779,0.78021116
consent,145,2,2024-05-30T21:02:11.858Z,english_274.wav,0,pill,231,29,2,Japanese,m,1,0.1,-42.14612233,1.93993358
consent,145,2,2024-05-30T21:02:11.858Z,english_274.wav,0,pill,231,29,2,Japanese,m,2,0.2,32.00602795,0.32963606
consent,145,2,2024-05-30T21:02:11.858Z,english_274.wav,0,pill,231,29,2,Japanese,m,3,0.3,-37.74375581,1.46133782
consent,145,2,2024-05-30T21:02:11.858Z,english_274.wav,0,pill,231,29,2,Japanese,m,4,0.32341667,-54.5397802,1.53178785
consent,146,2,2024-05-30T21:02:11.858Z,english_658.wav,0,pill,2,29,2,Japanese,m,0,0.0,-80.21976745,0.49170119
consent,146,2,2024-05-30T21:02:11.858Z,english_658.wav,0,pill,2,29,2,Japanese,m,1,0.1,11.23314836,0.6994793
consent,146,2,2024-05-30T21:02:11.858Z,english_658.wav,0,pill,2,29,2,Japanese,m,2,0.2,8.94946791,1.18458539
consent,146,2,2024-05-30T21:02:11.858Z,english_658.wav,0,pill,2,29,2,Japanese,m,3,0.3,17.22411688,0.7091276
consent,146,2,2024-05-30T21:02:11.858Z,english_658.wav,0,pill,2,29,2,Japanese,m,4,0.32341667,10.67081381,1.7453453
consent,147,2,2024-05-30T21:02:11.858Z,english_224.wav,0,pill,83,29,2,Japanese,m,0,0.0,-3.31597843,0.45157501
consent,147,2,2024-05-30T21:02:11.858Z,english_224.wav,0,pill,83,29,2,Japanese,m,1,0.1,-35.19448657,1.77513434
consent,147,2,2024-05-30T21:02:11.858Z,english_224.wav,0,pill,83,29,2,Japanese,m,2,0.2,-54.62049262,0.36912314
consent,147,2,2024-05-30T21:02:11.858Z,english_224.wav,0,pill,83,29,2,Japanese,m,3,0.3,50.12510099,1.67171916
consent,147,2,2024-05-30T21:02:11.858Z,english_224.wav,0,pill,83,29,2,Japanese,m,4,0.32341667,96.66013203,1.16069525
consent,148,2,2024-05-30T21:02:11.858Z,english_297.wav,0,pill,58,29,2,Japanese,m,0,0.0,43.84745313,1.28698197
consent,148,2,2024-05-30T21:02:11.858Z,english_297.wav,0,pill,58,29,2,Japanese,m,1,0.1,-76.77337823,0.55126404
consent,148,2,2024-05-30T21:02:11.858Z,english_297.wav,0,pill,58,29,2,Japanese,m,2,0.2,52.72097055,0.14077967
consent,148,2,2024-05-30T21:02:11.858Z,english_297.wav,0,pill,58,29,2,Japanese,m,3,0.3,-53.36684977,1.29889067
consent,148,2,2024-05-30T21:02:11.858Z,english_297.wav,0,pill,58,29,2,Japanese,m,4,0.32341667,81.15212258,1.30715655
consent,149,2,2024-05-30T21:02:11.858Z,english_123.wav,0,pill,40,29,2,Japanese,m,0,0.0,67.91608163,1.13046919
consent,149,2,2024-05-30T21:02:11.858Z,english_123.wav,0,pill,40,29,2,Japanese,m,1,0.1,-92.32097988,1.99597614
consent,149,2,2024-05-30T21:02:11.858Z,english_123.wav,0,pill,40,29,2,Japanese,m,2,0.2,57.07371841,1.53523853
consent,149,2,2024-05-30T21:02:11.858Z,english_123.wav,0,pill,40,29,2,Japanese,m,3,0.3,19.28317816,0.24385811
consent,149,2,2024-05-30T21:02:11.858Z,english_123.wav,0,pill,40,29,2,Japanese,m,4,0.32341667,15.30546887,0.39158976
consent,150,3,2024-05-30T21:02:11.858Z,english_766.wav,0,pill,243,29,2,Japanese,m,0,0.0,-86.57417509,1.21737292
consent,150,3,2024-05-30T21:02:11.858Z,english_766.wav,0,pill,243,29,2,Japanese,m,1,0.1,-67.75686223,1.61484435
consent,150,3,2024-05-30T21:02:11.858Z,english_766.wav,0,pill,243,29,2,Japanese,m,2,0.2,74.21258041,1.47872362
consent,150,3,2024-05-30T21:02:11.858Z,english_766.wav,0,pill,243,29,2,Japanese,m,3,0.3,65.20164426,1.81064247
consent,150,3,2024-05-30T21:02:11.858Z,english_766.wav,0,pill,243,29,2,Japanese,m,4,0.32341667,-26.41371036,1.37776493
consent,151,3,2024-05-30T21:02:11.858Z,english_556.wav,0,pill,168,29,2,Japanese,m,0,0.0,35.62658416,1.88481821
consent,151,3,2024-05-30T21:02:11.858Z,english_556.wav,0,pill,168,29,2,Japanese,m,1,0.1,28.75181601,0.4023528
consent,151,3,2024-05-30T21:02:11.858Z,english_556.wav,0,pill,168,29,2,Japanese,m,2,0.2,-2.62389444,1.49364055
consent,151,3,2024-05-30T21:02:11.858Z,english_556.wav,0,pill,168,29,2,Japanese,m,3,0.3,64.03572584,1.54190039
consent,151,3,2024-05-30T21:02:11.858Z,english_556.wav,0,pill,168,29,2,Japanese,m,4,0.32341667,72.79696002,0.53435232
consent,152,3,2024-05-30T21:02:11.858Z,english_670.wav,0,pill,36,29,2,Japanese,m,0,0.0,64.75672565,1.5535903
consent,152,3,2024-05-30T21:02:11.858Z,english_670.wav,0,pill,36,29,2,Japanese,m,1,0.1,85.95156369,0.12522594
consent,152,3,2024-05-30T21:02:11.858Z,english_670.wav,0,pill,36,29,2,Japanese,m,2,0.2,-44.32949438,0.22842632
consent,152,3,2024-05-30T21:02:11.858Z,english_670.wav,0,pill,36,29,2,Japanese,m,3,0.3,22.57192219,0.17636502
consent,152,3,2024-05-30T21:02:11.858Z,english_670.wav,0,pill,36,29,2,Japanese,m,4,0.32341667,34.74005277,0.16208776
consent,153,3,2024-05-30T21:02:11.858Z,english_884.wav,0,pill,146,29,2,Japanese,m,0,0.0,77.1498115,1.83268558
consent,153,3,2024-05-30T21:02:11.858Z,english_884.wav,0,pill,146,29,2,Japanese,m,1,0.1,10.32602389,0.76817862
consent,153,3,2024-05-30T21:02:11.858Z,english_884.wav,0,pill,146,29,2,Japanese,m,2,0.2,4.15464736,1.59331573
consent,153,3,2024-05-30T21:02:11.858Z,english_884.wav,0,pill,146,29,2,Japanese,m,3,0.3,21.19252889,0.58913169
consent,153,3,2024-05-30T21:02:11.858Z,english_884.wav,0,pill,146,29,2,Japanese,m,4,0.32341667,-7.11336122,0.81393531
consent,154,3,2024-05-30T21:02:11.858Z,english_853.wav,0,pill,225,29,2,Japanese,m,0,0.0,87.83319324,0.81037323
consent,154,3,2024-05-30T21:02:11.858Z,english_853.wav,0,pill,225,29,2,Japanese,m,1,0.1,64.16710312,1.2495933
consent,154,3,2024-05-30T21:02:11.858Z,english_853.wav,0,pill,225,29,2,Japanese,m,2,0.2,12.98667351,0.22916278
consent,154,3,2024-05-30T21:02:11.858Z,english_853.wav,0,pill,225,29,2,Japanese,m,3,0.3,25.03434444,0.67764146
consent,154,3,2024-05-30T21:02:11.858Z,english_853.wav,0,pill,225,29,2,Japanese,m,4,0.32341667,98.3458188,0.13807639
consent,155,3,2024-05-30T21:02:11.858Z,english_389.wav,0,pill,112,29,2,Japanese,m,0,0.0,36.16487693,1.25286497
consent,155,3,2024-05-30T21:02:11.858Z,english_389.wav,0,pill,112,29,2,Japanese,m,1,0.1,-97.36259769,1.31396789
consent,155,3,2024-05-30T21:02:11.858Z,english_389.wav,0,pill,112,29,2,Japanese,m,2,0.2,24.50411951,1.84060757
consent,155,3,2024-05-30T21:02:11.858Z,english_389.wav,0,pill,112,29,2,Japanese,m,3,0.3,43.1395046,0.64046023
consent,155,3,2024-05-30T21:02:11.858Z,english_389.wav,0,pill,112,29,2,Japanese,m,4,0.32341667,85.14605982,1.47992762
consent,156,3,2024-05-30T21:02:11.858Z,english_837.wav,0,pill,273,29,2,Japanese,m,0,0.0,-10.72674788,0.56055933
consent,156,3,2024-05-30T21:02:11.858Z,english_837.wav,0,pill,273,29,2,Japanese,m,1,0.1,33.60933966,1.16716927
consent,156,3,2024-05-30T21:02:11.858Z,english_837.wav,0,pill,273,29,2,Japanese,m,2,0.2,-1.37827911,1.02731607
consent,156,3,2024-05-30T21:02:11.858Z,english_837.wav,0,pill,273,29,2,Japanese,m,3,0.3,29.3498758,1.96665864
consent,156,3,2024-05-30T21:02:11.858Z,english_837.wav,0,pill,273,29,2,Japanese,m,4,0.32341667,31.86641091,0.45425732
consent,157,3,2024-05-30T21:02:11.858Z,english_147.wav,0,pill,27,29,2,Japanese,m,0,0.0,-14.37625717,1.08714974
consent,157,3,2024-05-30T21:02:11.858Z,english_147.wav,0,pill,27,29,2,Japanese,m,1,0.1,-48.99147792,1.05600262
consent,157,3,2024-05-30T21:02:11.858Z,english_147.wav,0,pill,27,29,2,Japanese,m,2,0.2,-76.025031,0.62193731
consent,157,3,2024-05-30T21:02:11.858Z,english_147.wav,0,pill,27,29,2,Japanese,m,3,0.3,-4.271985,1.23272935
consent,157,3,2024-05-30T21:02:11.858Z,english_147.wav,0,pill,27,29,2,Japanese,m,4,0.32341667,90.36670579,0.90867663
consent,158,3,2024-05-30T21:02:11.858Z,english_880.wav,0,pill,111,29,2,Japanese,m,0,0.0,3.17154152,0.81183988
consent,158,3,2024-05-30T21:02:11.858Z,english_880.wav,0,pill,111,29,2,Japanese,m,1,0.1,-74.02271749,1.44061269
consent,158,3,2024-05-30T21:02:11.858Z,english_880.wav,0,pill,111,29,2,Japanese,m,2,0.2,46.15952764,0.42884863
consent,158,3,2024-05-30T21:02:11.858Z,english_880.wav,0,pill,111,29,2,Japanese,m,3,0.3,4.14106927,1.93838261
consent,158,3,2024-05-30T21:02:11.858Z,english_880.wav,0,pill,111,29,2,Japanese,m,4,0.32341667,26.36707366,1.4503687
consent,159,3,2024-05-30T21:02:11.858Z,english_288.wav,0,pill,184,29,2,Japanese,m,0,0.0,35.15100251,1.01330681
consent,159,3,2024-05-30T21:02:11.858Z,english_288.wav,0,pill,184,29,2,Japanese,m,1,0.1,49.55485069,0.90213232
consent,159,3,2024-05-30T21:02:11.858Z,english_288.wav,0,pill,184,29,2,Japanese,m,2,0.2,28.604189,1.8181607
consent,159,3,2024-05-30T21:02:11.858Z,english_288.wav,0,pill,184,29,2,Japanese,m,3,0.3,38.59633835,1.82579698
consent,159,3,2024-05-30T21:02:11.858Z,english_288.wav,0,pill,184,29,2,Japanese,m,4,0.32341667,-98.9026904,0.14571105
consent,160,3,2024-05-30T21:02:11.858Z,english_830.wav,0,pill,177,29,2,Japanese,m,0,0.0,2.63258607,0.89301132
consent,160,3,2024-05-30T21:02:11.858Z,english_830.wav,0,pill,177,29,2,Japanese,m,1,0.1,-31.8387274,1.32560067
consent,160,3,2024-05-30T21:02:11.858Z,english_830.wav,0,pill,177,29,2,Japanese,m,2,0.2,-6.78563658,1.08718884
consent,160,3,2024-05-30T21:02:11.858Z,english_830.wav,0,pill,177,29,2,Japanese,m,3,0.3,-57.52390495,0.53430446
consent,160,3,2024-05-30T21:02:11.858Z,english_830.wav,0,pill,177,29,2,Japanese,m,4,0.32341667,51.13575953,0.53816607
consent,161,3,2024-05-30T21:02:11.858Z,english_68.wav,0,pill,78,29,2,Japanese,m,0,0.0,-23.38152803,1.83565324
consent,161,3,2024-05-30T21:02:11.858Z,english_68.wav,0,pill,78,29,2,Japanese,m,1,0.1,-36.0918901,0.35162477
consent,161,3,2024-05-30T21:02:11.858Z,english_68.wav,0,pill,78,29,2,Japanese,m,2,0.2,65.46592862,1.10705723
consent,161,3,2024-05-30T21:02:11.858Z,english_68.wav,0,pill,78,29,2,Japanese,m,3,0.3,48.57602628,1.09550925
consent,161,3,2024-05-30T21:02:11.858Z,english_68.wav,0,pill,78,29,2,Japanese,m,4,0.32341667,-93.64245591,0.05753383
consent,162,3,2024-05-30T21:02:11.858Z,english_364.wav,0,pill,589,29,2,Japanese,m,0,0.0,19.50953027,1.75500584
consent,162,3,2024-05-30T21:02:11.858Z,english_364.wav,0,pill,589,29,2,Japanese,m,1,0.1,48.44847612,1.3553812
consent,162,3,2024-05-30T21:02:11.858Z,english_364.wav,0,pill,589,29,2,Japanese,m,2,0.2,-85.20645473,0.86672295
consent,162,3,2024-05-30T21:02:11.858Z,english_364.wav,0,pill,589,29,2,Japanese,m,3,0.3,97.47454191,1.42489128
consent,162,3,2024-05-30T21:02:11.858Z,english_364.wav,0,pill,589,29,2,Japanese,m,4,0.32341667,-45.42958463,1.19673805
consent,163,3,2024-05-30T21:02:11.858Z,english_195.wav,0,pill,308,29,2,Japanese,m,0,0.0,88.76446124,0.85936173
consent,163,3,2024-05-30T21:02:11.858Z,english_195.wav,0,pill,308,29,2,Japanese,m,1,0.1,56.50909504,1.06337161
consent,163,3,2024-05-30T21:02:11.858Z,english_195.wav,0,pill,308,29,2,Japanese,m,2,0.2,-5.11157055,1.01766647
consent,163,3,2024-05-30T21:02:11.858Z,english_195.wav,0,pill,308,29,2,Japanese,m,3,0.3,14.19517065,1.03928052
consent,163,3,2024-05-30T21:02:11.858Z,english_195.wav,0,pill,308,29,2,Japanese,m,4,0.32341667,67.19148892,1.18131313
consent,164,3,2024-05-30T21:02:11.858Z,english_202.wav,0,pill,250,29,2,Japanese,m,0,0.0,-30.7410802,1.48506999
consent,164,3,2024-05-30T21:02:11.858Z,english_202.wav,0,pill,250,29,2,Japanese,m,1,0.1,-19.68361402,1.61937363
consent,164,3,2024-05-30T21:02:11.858Z,english_202.wav,0,pill,250,29,2,Japanese,m,2,0.2,-9.93463647,0.73964021
consent,164,3,2024-05-30T21:02:11.858Z,english_202.wav,0,pill,250,29,2,Japanese,m,3,0.3,-7.1971022,1.93955383
consent,164,3,2024-05-30T21:02:11.858Z,english_202.wav,0,pill,250,29,2,Japanese,m,4,0.32341667,-23.97797133,1.43199581
consent,165,3,2024-05-30T21:02:11.858Z,english_732.wav,0,pill,346,29,2,Japanese,m,0,0.0,-12.49530298,1.28394154
consent,165,3,2024-05-30T21:02:11.858Z,english_732.wav,0,pill,346,29,2,Japanese,m,1,0.1,77.35683448,1.95772399
consent,165,3,2024-05-30T21:02:11.858Z,english_732.wav,0,pill,346,29,2,Japanese,m,2,0.2,46.14200593,1.14408971
consent,165,3,2024-05-30T21:02:11.858Z,english_732.wav,0,pill,346,29,2,Japanese,m,3,0.3,-17.19403126,0.21034957
consent,165,3,2024-05-30T21:02:11.858Z,english_732.wav,0,pill,346,29,2,Japanese,m,4,0.32341667,-81.60069167,0.50538316
consent,166,3,2024-05-30T21:02:11.858Z,english_423.wav,0,pill,360,29,2,Japanese,m,0,0.0,48.83941012,1.35290702
consent,166,3,2024-05-30T21:02:11.858Z,english_423.wav,0,pill,360,29,2,Japanese,m,1,0.1,26.57948938,1.33919202
consent,166,3,2024-05-30T21:02:11.858Z,english_423.wav,0,pill,360,29,2,Japanese,m,2,0.2,56.70545245,1.37149513
consent,166,3,2024-05-30T21:02:11.858Z,english_423.wav,0,pill,360,29,2,Japanese,m,3,0.3,-62.41131033,1.11357765
consent,166,3,2024-05-30T21:02:11.858Z,english_423.wav,0,pill,360,29,2,Japanese,m,4,0.32341667,78.49803502,1.20699722
consent,167,3,2024-05-30T21:02:11.858Z,english_753.wav,0,pill,223,29,2,Japanese,m,0,0.0,38.61944715,0.75641923
consent,167,3,2024-05-30T21:02:11.858Z,english_753.wav,0,pill,223,29,2,Japanese,m,1,0.1,-76.3398938,1.17320485
consent,167,3,2024-05-30T21:02:11.858Z,english_753.wav,0,pill,223,29,2,Japanese,m,2,0.2,-80.92813522,0.63072958
consent,167,3,2024-05-30T21:02:11.858Z,english_753.wav,0,pill,223,29,2,Japanese,m,3,0.3,-16.48508052,1.96252246
consent,167,3,2024-05-30T21:02:11.858Z,english_753.wav,0,pill,223,29,2,Japanese,m,4,0.32341667,16.23487259,1.97125296
consent,168,3,2024-05-30T21:02:11.858Z,english_182.wav,0,pill,394,29,2,Japanese,m,0,0.0,57.43769915,0.89919812
consent,168,3,2024-05-30T21:02:11.858Z,english_182.wav,0,pill,394,29,2,Japanese,m,1,0.1,-87.06676545,1.25243937
consent,168,3,2024-05-30T21:02:11.858Z,english_182.wav,0,pill,394,29,2,Japanese,m,2,0.2,-91.52107401,1.35021358
consent,168,3,2024-05-30T21:02:11.858Z,english_182.wav,0,pill,394,29,2,Japanese,m,3,0.3,52.0843588,0.52787795
consent,168,3,2024-05-30T21:02:11.858Z,english_182.wav,0,pill,394,29,2,Japanese,m,4,0.32341667,18.07264914,0.72620624
consent,169,3,2024-05-30T21:02:11.858Z,english_266.wav,0,pill,448,29,2,Japanese,m,0,0.0,16.70772117,0.81064175
consent,169,3,2024-05-30T21:02:11.858Z,english_266.wav,0,pill,448,29,2,Japanese,m,1,0.1,-61.82971906,1.48442032
consent,169,3,2024-05-30T21:02:11.858Z,english_266.wav,0,pill,448,29,2,Japanese,m,2,0.2,-31.41060896,1.39445033
consent,169,3,2024-05-30T21:02:11.858Z,english_266.wav,0,pill,448,29,2,Japanese,m,3,0.3,-8.94045194,1.01594082
consent,169,3,2024-05-30T21:02:11.858Z,english_266.wav,0,pill,448,29,2,Japanese,m,4,0.32341667,-27.43066022,0.75934284
consent,170,3,2024-05-30T21:02:11.858Z,english_870.wav,0,pill,226,29,2,Japanese,m,0,0.0,-85.66751388,1.70746054
consent,170,3,2024-05-30T21:02:11.858Z,english_870.wav,0,pill,226,29,2,Japanese,m,1,0.1,30.55194498,0.68953906
consent,170,3,2024-05-30T21:02:11.858Z,english_870.wav,0,pill,226,29,2,Japanese,m,2,0.2,-98.28008273,1.62274852
consent,170,3,2024-05-30T21:02:11.858Z,english_870.wav,0,pill,226,29,2,Japanese,m,3,0.3,-58.1418371,0.74531017
consent,170,3,2024-05-30T21:02:11.858Z,english_870.wav,0,pill,226,29,2,Japanese,m,4,0.32341667,81.20200135,1.06596266
consent,171,3,2024-05-30T21:02:11.858Z,english_761.wav,0,pill,69,29,2,Japanese,m,0,0.0,-7.84319468,0.39728316
consent,171,3,2024-05-30T21:02:11.858Z,english_761.wav,0,pill,69,29,2,Japanese,m,1,0.1,77.10262164,0.76675063
consent,171,3,2024-05-30T21:02:11.858Z,english_761.wav,0,pill,69,29,2,Japanese,m,2,0.2,23.07677451,1.40075404
consent,171,3,2024-05-30T21:02:11.858Z,english_761.wav,0,pill,69,29,2,Japanese,m,3,0.3,-22.28856666,0.53792203
consent,171,3,2024-05-30T21:02:11.858Z,english_761.wav,0,pill,69,29,2,Japanese,m,4,0.32341667,18.71779046,1.06229189
consent,172,3,2024-05-30T21:02:11.858Z,english_805.wav,0,pill,4,29,2,Japanese,m,0,0.0,-11.97504695,0.06029378
consent,172,3,2024-05-30T21:02:11.858Z,english_805.wav,0,pill,4,29,2,Japanese,m,1,0.1,96.82911573,0.81391401
consent,172,3,2024-05-30T21:02:11.858Z,english_805.wav,0,pill,4,29,2,Japanese,m,2,0.2,7.51835152,1.33531055
consent,172,3,2024-05-30T21:02:11.858Z,english_805.wav,0,pill,4,29,2,Japanese,m,3,0.3,2.47378187,1.7608484
consent,172,3,2024-05-30T21:02:11.858Z,english_805.wav,0,pill,4,29,2,Japanese,m,4,0.32341667,-43.26336213,1.4289718
consent,173,3,2024-05-30T21:02:11.858Z,english_126.wav,0,pill,14,29,2,Japanese,m,0,0.0,-71.89060105,0.84485729
consent,173,3,2024-05-30T21:02:11.858Z,english_126.wav,0,pill,14,29,2,Japanese,m,1,0.1,-54.28004149,1.61340521
consent,173,3,2024-05-30T21:02:11.858Z,english_126.wav,0,pill,14,29,2,Japanese,m,2,0.2,67.0997098,1.10892805
consent,173,3,2024-05-30T21:02:11.858Z,english_126.wav,0,pill,14,29,2,Japanese,m,3,0.3,-96.31741745,1.20133652
consent,173,3,2024-05-30T21:02:11.858Z,english_126.wav,0,pill,14,29,2,Japanese,m,4,0.32341667,22.67293764,0.33470898
consent,174,3,2024-05-30T21:02:11.858Z,english_69.wav,0,pill,180,29,2,Japanese,m,0,0.0,-57.18730239,0.11878381
consent,174,3,2024-05-30T21:02:11.858Z,english_69.wav,0,pill,180,29,2,Japanese,m,1,0.1,16.22212469,1.00797921
consent,174,3,2024-05-30T21:02:11.858Z,english_69.wav,0,pill,180,29,2,Japanese,m,2,0.2,-44.28071093,0.42082068
consent,174,3,2024-05-30T21:02:11.858Z,english_69.wav,0,pill,180,29,2,Japanese,m,3,0.3,-70.80378082,0.50205716
consent,174,3,2024-05-30T21:02:11.858Z,english_69.wav,0,pill,180,29,2,Japanese,m,4,0.32341667,-58.3439892,0.68985838
consent,175,3,2024-05-30T21:02:11.858Z,english_420.wav,0,pill,130,29,2,Japanese,m,0,0.0,-56.31893026,0.25307214
consent,175,3,2024-05-30T21:02:11.858Z,english_420.wav,0,pill,130,29,2,Japanese,m,1,0.1,66.6522923,1.93095887
consent,175,3,2024-05-30T21:02:11.858Z,english_420.wav,0,pill,130,29,2,Japanese,m,2,0.2,2.15493058,0.49520396
consent,175,3,2024-05-30T21:02:11.858Z,english_420.wav,0,pill,130,29,2,Japanese,m,3,0.3,-23.51601285,1.55970731
consent,175,3,2024-05-30T21:02:11.858Z,english_420.wav,0,pill,130,29,2,Japanese,m,4,0.32341667,22.32226467,0.71957325
consent,176,3,2024-05-30T21:02:11.858Z,english_153.wav,0,pill,229,29,2,Japanese,m,0,0.0,1.34878197,1.20280718
consent,176,3,2024-05-30T21:02:11.858Z,english_153.wav,0,pill,229,29,2,Japanese,m,1,0.1,-86.14475674,1.60924223
consent,176,3,2024-05-30T21:02:11.858Z,english_153.wav,0,pill,229,29,2,Japanese,m,2,0.2,3.24582423,0.94422247
consent,176,3,2024-05-30T21:02:11.858Z,english_153.wav,0,pill,229,29,2,Japanese,m,3,0.3,-6.94068795,0.98008297
consent,176,3,2024-05-30T21:02:11.858Z,english_153.wav,0,pill,229,29,2,Japanese,m,4,0.32341667,-76.91560753,0.34988026
consent,177,3,2024-05-30T21:02:11.858Z,english_633.wav,0,pill,151,29,2,Japanese,m,0,0.0,-53.72283933,1.23998369
consent,177,3,2024-05-30T21:02:11.858Z,english_633.wav,0,pill,151,29,2,Japanese,m,1,0.1,14.71438877,1.35266241
consent,177,3,2024-05-30T21:02:11.858Z,english_633.wav,0,pill,151,29,2,Japanese,m,2,0.2,95.18630031,0.66132985
consent,177,3,2024-05-30T21:02:11.858Z,english_633.wav,0,pill,151,29,2,Japanese,m,3,0.3,96.89096157,0.52728002
consent,177,3,2024-05-30T21:02:11.858Z,english_633.wav,0,pill,151,29,2,Japanese,m,4,0.32341667,8.38596779,1.4824282
consent,178,3,2024-05-30T21:02:11.858Z,english_161.wav,0,pill,457,29,2,Japanese,m,0,0.0,16.17182642,0.80971259
consent,178,3,2024-05-30T21:02:11.858Z,english_161.wav,0,pill,457,29,2,Japanese,m,1,0.1,51.23408036,1.56168911
consent,178,3,2024-05-30T21:02:11.858Z,english_161.wav,0,pill,457,29,2,Japanese,m,2,0.2,56.55598601,0.91666403
