subj,trial,block,date,stim,stim_order,response,rt,age,english,language,sex,param_index,segment,pitch,stretch
KES,0,0,2024-07-18T11:46:30.017Z,english_802.wav,0,pill,6788,19,3,Japanese,m,0,0.0,44.11448731,1.89082481
KES,0,0,2024-07-18T11:46:30.017Z,english_802.wav,0,pill,6788,19,3,Japanese,m,1,0.1,27.89646601,1.73386287
KES,0,0,2024-07-18T11:46:30.017Z,english_802.wav,0,pill,6788,19,3,Japanese,m,2,0.2,-19.36127415,0.34468699
KES,0,0,2024-07-18T11:46:30.017Z,english_802.wav,0,pill,6788,19,3,Japanese,m,3,0.3,15.17899174,0.39328876
KES,0,0,2024-07-18T11:46:30.017Z,english_802.wav,0,pill,6788,19,3,Japanese,m,4,0.32341667,-18.70870555,1.25778986
KES,1,0,2024-07-18T11:46:30.017Z,english_953.wav,0,peel,2494,19,3,Japanese,m,0,0.0,-16.02430182,0.31806788
KES,1,0,2024-07-18T11:46:30.017Z,english_953.wav,0,peel,2494,19,3,Japanese,m,1,0.1,29.58660593,0.5983964
KES,1,0,2024-07-18T11:46:30.017Z,english_953.wav,0,peel,2494,19,3,Japanese,m,2,0.2,-69.77021268,1.47459901
KES,1,0,2024-07-18T11:46:30.017Z,english_953.wav,0,peel,2494,19,3,Japanese,m,3,0.3,10.24378989,1.63555671
KES,1,0,2024-07-18T11:46:30.017Z,english_953.wav,0,peel,2494,19,3,Japanese,m,4,0.32341667,-68.66835117,1.74756834
KES,2,0,2024-07-18T11:46:30.017Z,english_751.wav,0,peel,6171,19,3,Japanese,m,0,0.0,45.03630887,0.43450625
KES,2,0,2024-07-18T11:46:30.017Z,english_751.wav,0,peel,6171,19,3,Japanese,m,1,0.1,46.59103402,1.30072592
KES,2,0,2024-07-18T11:46:30.017Z,english_751.wav,0,peel,6171,19,3,Japanese,m,2,0.2,-30.90440374,1.20093797
KES,2,0,2024-07-18T11:46:30.017Z,english_751.wav,0,peel,6171,19,3,Japanese,m,3,0.3,-61.26470289,0.81911259
KES,2,0,2024-07-18T11:46:30.017Z,english_751.wav,0,peel,6171,19,3,Japanese,m,4,0.32341667,34.91384756,0.19140491
KES,3,0,2024-07-18T11:46:30.017Z,english_646.wav,0,pill,7378,19,3,Japanese,m,0,0.0,65.65927644,1.85038449
KES,3,0,2024-07-18T11:46:30.017Z,english_646.wav,0,pill,7378,19,3,Japanese,m,1,0.1,-31.23211399,1.10748568
KES,3,0,2024-07-18T11:46:30.017Z,english_646.wav,0,pill,7378,19,3,Japanese,m,2,0.2,62.59110385,1.14052106
KES,3,0,2024-07-18T11:46:30.017Z,english_646.wav,0,pill,7378,19,3,Japanese,m,3,0.3,-86.43369357,1.38971404
KES,3,0,2024-07-18T11:46:30.017Z,english_646.wav,0,pill,7378,19,3,Japanese,m,4,0.32341667,41.84315348,0.49971738
KES,4,0,2024-07-18T11:46:30.017Z,english_505.wav,0,peel,4842,19,3,Japanese,m,0,0.0,-14.1569725,0.45361713
KES,4,0,2024-07-18T11:46:30.017Z,english_505.wav,0,peel,4842,19,3,Japanese,m,1,0.1,55.52926248,0.94516805
KES,4,0,2024-07-18T11:46:30.017Z,english_505.wav,0,peel,4842,19,3,Japanese,m,2,0.2,53.00334781,0.85342654
KES,4,0,2024-07-18T11:46:30.017Z,english_505.wav,0,peel,4842,19,3,Japanese,m,3,0.3,75.03788466,1.32942474
KES,4,0,2024-07-18T11:46:30.017Z,english_505.wav,0,peel,4842,19,3,Japanese,m,4,0.32341667,-7.91266729,0.93790665
KES,5,0,2024-07-18T11:46:30.017Z,english_283.wav,0,pill,3020,19,3,Japanese,m,0,0.0,-27.01977409,1.23470843
KES,5,0,2024-07-18T11:46:30.017Z,english_283.wav,0,pill,3020,19,3,Japanese,m,1,0.1,-58.6063919,0.41737987
KES,5,0,2024-07-18T11:46:30.017Z,english_283.wav,0,pill,3020,19,3,Japanese,m,2,0.2,36.15867228,0.64455365
KES,5,0,2024-07-18T11:46:30.017Z,english_283.wav,0,pill,3020,19,3,Japanese,m,3,0.3,-77.91689069,1.80541824
KES,5,0,2024-07-18T11:46:30.017Z,english_283.wav,0,pill,3020,19,3,Japanese,m,4,0.32341667,-77.99680679,1.86024907
KES,6,0,2024-07-18T11:46:30.017Z,english_858.wav,0,pill,5996,19,3,Japanese,m,0,0.0,45.12570132,0.50395823
KES,6,0,2024-07-18T11:46:30.017Z,english_858.wav,0,pill,5996,19,3,Japanese,m,1,0.1,-46.71359417,1.50658612
KES,6,0,2024-07-18T11:46:30.017Z,english_858.wav,0,pill,5996,19,3,Japanese,m,2,0.2,-60.32464978,0.86887416
KES,6,0,2024-07-18T11:46:30.017Z,english_858.wav,0,pill,5996,19,3,Japanese,m,3,0.3,-70.46241098,0.20520469
KES,6,0,2024-07-18T11:46:30.017Z,english_858.wav,0,pill,5996,19,3,Japanese,m,4,0.32341667,76.51169453,1.05885662
KES,7,0,2024-07-18T11:46:30.017Z,english_723.wav,0,peel,5204,19,3,Japanese,m,0,0.0,-85.17156731,1.02541656
KES,7,0,2024-07-18T11:46:30.017Z,english_723.wav,0,peel,5204,19,3,Japanese,m,1,0.1,92.93654667,0.92088513
KES,7,0,2024-07-18T11:46:30.017Z,english_723.wav,0,peel,5204,19,3,Japanese,m,2,0.2,-28.89042756,0.78256854
KES,7,0,2024-07-18T11:46:30.017Z,english_723.wav,0,peel,5204,19,3,Japanese,m,3,0.3,36.79914563,1.22887413
KES,7,0,2024-07-18T11:46:30.017Z,english_723.wav,0,peel,5204,19,3,Japanese,m,4,0.32341667,6.86426773,1.77193963
KES,8,0,2024-07-18T11:46:30.017Z,english_598.wav,0,peel,3005,19,3,Japanese,m,0,0.0,4.26365523,0.04069017
KES,8,0,2024-07-18T11:46:30.017Z,english_598.wav,0,peel,3005,19,3,Japanese,m,1,0.1,-29.634957,1.27980102
KES,8,0,2024-07-18T11:46:30.017Z,english_598.wav,0,peel,3005,19,3,Japanese,m,2,0.2,-17.49120793,0.98781586
KES,8,0,2024-07-18T11:46:30.017Z,english_598.wav,0,peel,3005,19,3,Japanese,m,3,0.3,-34.93876912,1.55939702
KES,8,0,2024-07-18T11:46:30.017Z,english_598.wav,0,peel,3005,19,3,Japanese,m,4,0.32341667,49.49845506,1.74128412
KES,9,0,2024-07-18T11:46:30.017Z,english_425.wav,0,peel,7582,19,3,Japanese,m,0,0.0,52.16022051,1.95369626
KES,9,0,2024-07-18T11:46:30.017Z,english_425.wav,0,peel,7582,19,3,Japanese,m,1,0.1,-4.0342476,0.01224448
KES,9,0,2024-07-18T11:46:30.017Z,english_425.wav,0,peel,7582,19,3,Japanese,m,2,0.2,71.82190917,1.45838463
KES,9,0,2024-07-18T11:46:30.017Z,english_425.wav,0,peel,7582,19,3,Japanese,m,3,0.3,77.8432037,1.1656734
KES,9,0,2024-07-18T11:46:30.017Z,english_425.wav,0,peel,7582,19,3,Japanese,m,4,0.32341667,29.14791909,1.54078916
KES,10,0,2024-07-18T11:46:30.017Z,english_855.wav,0,pill,14098,19,3,Japanese,m,0,0.0,27.89321206,0.30262259
KES,10,0,2024-07-18T11:46:30.017Z,english_855.wav,0,pill,14098,19,3,Japanese,m,1,0.1,-46.00582393,1.40968126
KES,10,0,2024-07-18T11:46:30.017Z,english_855.wav,0,pill,14098,19,3,Japanese,m,2,0.2,35.37102385,0.80904714
KES,10,0,2024-07-18T11:46:30.017Z,english_855.wav,0,pill,14098,19,3,Japanese,m,3,0.3,-58.73762704,1.48943687
KES,10,0,2024-07-18T11:46:30.017Z,english_855.wav,0,pill,14098,19,3,Japanese,m,4,0.32341667,-46.78314799,1.29572868
KES,11,0,2024-07-18T11:46:30.017Z,english_334.wav,0,pill,7961,19,3,Japanese,m,0,0.0,-67.45724149,1.41500124
KES,11,0,2024-07-18T11:46:30.017Z,english_334.wav,0,pill,7961,19,3,Japanese,m,1,0.1,-9.29085452,1.93519658
KES,11,0,2024-07-18T11:46:30.017Z,english_334.wav,0,pill,7961,19,3,Japanese,m,2,0.2,-52.27794836,1.67457228
KES,11,0,2024-07-18T11:46:30.017Z,english_334.wav,0,pill,7961,19,3,Japanese,m,3,0.3,97.74689659,1.80763723
KES,11,0,2024-07-18T11:46:30.017Z,english_334.wav,0,pill,7961,19,3,Japanese,m,4,0.32341667,69.13668576,0.68141016
KES,12,0,2024-07-18T11:46:30.017Z,english_647.wav,0,peel,6302,19,3,Japanese,m,0,0.0,-8.76796469,1.6238225
KES,12,0,2024-07-18T11:46:30.017Z,english_647.wav,0,peel,6302,19,3,Japanese,m,1,0.1,-49.13996982,1.56934089
KES,12,0,2024-07-18T11:46:30.017Z,english_647.wav,0,peel,6302,19,3,Japanese,m,2,0.2,43.79634461,0.78560304
KES,12,0,2024-07-18T11:46:30.017Z,english_647.wav,0,peel,6302,19,3,Japanese,m,3,0.3,5.5781311,0.61771672
KES,12,0,2024-07-18T11:46:30.017Z,english_647.wav,0,peel,6302,19,3,Japanese,m,4,0.32341667,17.41251701,1.2404866
KES,13,0,2024-07-18T11:46:30.017Z,english_478.wav,0,pill,5596,19,3,Japanese,m,0,0.0,-70.9954821,0.91489342
KES,13,0,2024-07-18T11:46:30.017Z,english_478.wav,0,pill,5596,19,3,Japanese,m,1,0.1,18.763036,1.0325944
KES,13,0,2024-07-18T11:46:30.017Z,english_478.wav,0,pill,5596,19,3,Japanese,m,2,0.2,84.30682023,1.47139294
KES,13,0,2024-07-18T11:46:30.017Z,english_478.wav,0,pill,5596,19,3,Japanese,m,3,0.3,96.70790152,0.31719256
KES,13,0,2024-07-18T11:46:30.017Z,english_478.wav,0,pill,5596,19,3,Japanese,m,4,0.32341667,-65.75430749,1.1469235
KES,14,0,2024-07-18T11:46:30.017Z,english_55.wav,0,peel,6844,19,3,Japanese,m,0,0.0,71.89255128,0.24931264
KES,14,0,2024-07-18T11:46:30.017Z,english_55.wav,0,peel,6844,19,3,Japanese,m,1,0.1,0.20692224,1.79813092
KES,14,0,2024-07-18T11:46:30.017Z,english_55.wav,0,peel,6844,19,3,Japanese,m,2,0.2,-68.61006599,0.71729895
KES,14,0,2024-07-18T11:46:30.017Z,english_55.wav,0,peel,6844,19,3,Japanese,m,3,0.3,-5.20952515,1.28733782
KES,14,0,2024-07-18T11:46:30.017Z,english_55.wav,0,peel,6844,19,3,Japanese,m,4,0.32341667,28.45991968,1.77061752
KES,15,0,2024-07-18T11:46:30.017Z,english_915.wav,0,pill,5964,19,3,Japanese,m,0,0.0,40.39704719,0.11203387
KES,15,0,2024-07-18T11:46:30.017Z,english_915.wav,0,pill,5964,19,3,Japanese,m,1,0.1,-77.86782689,0.449249
KES,15,0,2024-07-18T11:46:30.017Z,english_915.wav,0,pill,5964,19,3,Japanese,m,2,0.2,21.84672988,0.02407483
KES,15,0,2024-07-18T11:46:30.017Z,english_915.wav,0,pill,5964,19,3,Japanese,m,3,0.3,-56.0972156,1.6502756
KES,15,0,2024-07-18T11:46:30.017Z,english_915.wav,0,pill,5964,19,3,Japanese,m,4,0.32341667,65.00594456,0.65362707
KES,16,0,2024-07-18T11:46:30.017Z,english_498.wav,0,pill,12181,19,3,Japanese,m,0,0.0,2.49020902,0.78964515
KES,16,0,2024-07-18T11:46:30.017Z,english_498.wav,0,pill,12181,19,3,Japanese,m,1,0.1,-20.55300452,0.24391593
KES,16,0,2024-07-18T11:46:30.017Z,english_498.wav,0,pill,12181,19,3,Japanese,m,2,0.2,-34.14985779,0.11401041
KES,16,0,2024-07-18T11:46:30.017Z,english_498.wav,0,pill,12181,19,3,Japanese,m,3,0.3,79.54997135,1.52582154
KES,16,0,2024-07-18T11:46:30.017Z,english_498.wav,0,pill,12181,19,3,Japanese,m,4,0.32341667,20.54695207,0.62547878
KES,17,0,2024-07-18T11:46:30.017Z,english_539.wav,0,pill,2574,19,3,Japanese,m,0,0.0,-67.77604021,0.83598486
KES,17,0,2024-07-18T11:46:30.017Z,english_539.wav,0,pill,2574,19,3,Japanese,m,1,0.1,61.22104537,1.51877163
KES,17,0,2024-07-18T11:46:30.017Z,english_539.wav,0,pill,2574,19,3,Japanese,m,2,0.2,38.09257369,1.73578169
KES,17,0,2024-07-18T11:46:30.017Z,english_539.wav,0,pill,2574,19,3,Japanese,m,3,0.3,-20.76875757,0.52680037
KES,17,0,2024-07-18T11:46:30.017Z,english_539.wav,0,pill,2574,19,3,Japanese,m,4,0.32341667,-47.71444482,1.99278149
KES,18,0,2024-07-18T11:46:30.017Z,english_648.wav,0,pill,1534,19,3,Japanese,m,0,0.0,-36.17742204,0.57576188
KES,18,0,2024-07-18T11:46:30.017Z,english_648.wav,0,pill,1534,19,3,Japanese,m,1,0.1,30.10697278,1.1310908
KES,18,0,2024-07-18T11:46:30.017Z,english_648.wav,0,pill,1534,19,3,Japanese,m,2,0.2,-67.31320052,1.67112441
KES,18,0,2024-07-18T11:46:30.017Z,english_648.wav,0,pill,1534,19,3,Japanese,m,3,0.3,-10.94597212,0.39641968
KES,18,0,2024-07-18T11:46:30.017Z,english_648.wav,0,pill,1534,19,3,Japanese,m,4,0.32341667,72.59648235,1.93789316
KES,19,0,2024-07-18T11:46:30.017Z,english_886.wav,0,peel,2860,19,3,Japanese,m,0,0.0,52.0334205,0.43451348
KES,19,0,2024-07-18T11:46:30.017Z,english_886.wav,0,peel,2860,19,3,Japanese,m,1,0.1,-34.60142464,1.57387994
KES,19,0,2024-07-18T11:46:30.017Z,english_886.wav,0,peel,2860,19,3,Japanese,m,2,0.2,77.69993065,1.05416836
KES,19,0,2024-07-18T11:46:30.017Z,english_886.wav,0,peel,2860,19,3,Japanese,m,3,0.3,29.08950905,0.32554246
KES,19,0,2024-07-18T11:46:30.017Z,english_886.wav,0,peel,2860,19,3,Japanese,m,4,0.32341667,-98.8324779,1.85669509
KES,20,0,2024-07-18T11:46:30.017Z,english_252.wav,0,peel,1411,19,3,Japanese,m,0,0.0,79.75601627,0.77799761
KES,20,0,2024-07-18T11:46:30.017Z,english_252.wav,0,peel,1411,19,3,Japanese,m,1,0.1,17.00183399,1.07711339
KES,20,0,2024-07-18T11:46:30.017Z,english_252.wav,0,peel,1411,19,3,Japanese,m,2,0.2,-25.42800597,0.7917181
KES,20,0,2024-07-18T11:46:30.017Z,english_252.wav,0,peel,1411,19,3,Japanese,m,3,0.3,-47.65138194,1.47632881
KES,20,0,2024-07-18T11:46:30.017Z,english_252.wav,0,peel,1411,19,3,Japanese,m,4,0.32341667,35.10652067,1.65919103
KES,21,0,2024-07-18T11:46:30.017Z,english_896.wav,0,pill,6855,19,3,Japanese,m,0,0.0,-76.63716622,1.08893336
KES,21,0,2024-07-18T11:46:30.017Z,english_896.wav,0,pill,6855,19,3,Japanese,m,1,0.1,-73.11298951,0.41748987
KES,21,0,2024-07-18T11:46:30.017Z,english_896.wav,0,pill,6855,19,3,Japanese,m,2,0.2,48.53347054,0.32012442
KES,21,0,2024-07-18T11:46:30.017Z,english_896.wav,0,pill,6855,19,3,Japanese,m,3,0.3,-4.46661278,0.63387312
KES,21,0,2024-07-18T11:46:30.017Z,english_896.wav,0,pill,6855,19,3,Japanese,m,4,0.32341667,-44.69533701,1.27766005
KES,22,0,2024-07-18T11:46:30.017Z,english_10.wav,0,peel,7229,19,3,Japanese,m,0,0.0,-80.92247099,1.33142191
KES,22,0,2024-07-18T11:46:30.017Z,english_10.wav,0,peel,7229,19,3,Japanese,m,1,0.1,11.56157957,0.6588087
KES,22,0,2024-07-18T11:46:30.017Z,english_10.wav,0,peel,7229,19,3,Japanese,m,2,0.2,72.61501241,1.62851887
KES,22,0,2024-07-18T11:46:30.017Z,english_10.wav,0,peel,7229,19,3,Japanese,m,3,0.3,91.01400741,1.4109269
KES,22,0,2024-07-18T11:46:30.017Z,english_10.wav,0,peel,7229,19,3,Japanese,m,4,0.32341667,-64.58672822,0.76235223
KES,23,0,2024-07-18T11:46:30.017Z,english_292.wav,0,peel,2092,19,3,Japanese,m,0,0.0,-39.45275529,0.85174507
KES,23,0,2024-07-18T11:46:30.017Z,english_292.wav,0,peel,2092,19,3,Japanese,m,1,0.1,-35.03464337,0.73996191
KES,23,0,2024-07-18T11:46:30.017Z,english_292.wav,0,peel,2092,19,3,Japanese,m,2,0.2,31.68370279,1.42892595
KES,23,0,2024-07-18T11:46:30.017Z,english_292.wav,0,peel,2092,19,3,Japanese,m,3,0.3,-53.75991965,0.04968332
KES,23,0,2024-07-18T11:46:30.017Z,english_292.wav,0,peel,2092,19,3,Japanese,m,4,0.32341667,12.49992629,0.58931553
KES,24,0,2024-07-18T11:46:30.017Z,english_836.wav,0,pill,3685,19,3,Japanese,m,0,0.0,34.85846782,1.04017402
KES,24,0,2024-07-18T11:46:30.017Z,english_836.wav,0,pill,3685,19,3,Japanese,m,1,0.1,41.54458908,0.35535359
KES,24,0,2024-07-18T11:46:30.017Z,english_836.wav,0,pill,3685,19,3,Japanese,m,2,0.2,23.27363575,0.10471693
KES,24,0,2024-07-18T11:46:30.017Z,english_836.wav,0,pill,3685,19,3,Japanese,m,3,0.3,86.83996211,0.55523491
KES,24,0,2024-07-18T11:46:30.017Z,english_836.wav,0,pill,3685,19,3,Japanese,m,4,0.32341667,-32.25656931,0.70311776
KES,25,0,2024-07-18T11:46:30.017Z,english_354.wav,0,pill,4176,19,3,Japanese,m,0,0.0,-63.97501145,0.52067601
KES,25,0,2024-07-18T11:46:30.017Z,english_354.wav,0,pill,4176,19,3,Japanese,m,1,0.1,-43.11314734,0.59903392
KES,25,0,2024-07-18T11:46:30.017Z,english_354.wav,0,pill,4176,19,3,Japanese,m,2,0.2,10.53928595,0.9992363
KES,25,0,2024-07-18T11:46:30.017Z,english_354.wav,0,pill,4176,19,3,Japanese,m,3,0.3,-23.15258088,1.16142831
KES,25,0,2024-07-18T11:46:30.017Z,english_354.wav,0,pill,4176,19,3,Japanese,m,4,0.32341667,3.22925066,0.37639432
KES,26,0,2024-07-18T11:46:30.017Z,english_171.wav,0,peel,11067,19,3,Japanese,m,0,0.0,13.65984607,0.71637608
KES,26,0,2024-07-18T11:46:30.017Z,english_171.wav,0,peel,11067,19,3,Japanese,m,1,0.1,70.55092655,1.80826384
KES,26,0,2024-07-18T11:46:30.017Z,english_171.wav,0,peel,11067,19,3,Japanese,m,2,0.2,57.57935127,0.47277884
KES,26,0,2024-07-18T11:46:30.017Z,english_171.wav,0,peel,11067,19,3,Japanese,m,3,0.3,-55.35579571,1.22036711
KES,26,0,2024-07-18T11:46:30.017Z,english_171.wav,0,peel,11067,19,3,Japanese,m,4,0.32341667,13.04572565,0.00907712
KES,27,0,2024-07-18T11:46:30.017Z,english_829.wav,0,pill,7024,19,3,Japanese,m,0,0.0,60.30417439,0.94286345
KES,27,0,2024-07-18T11:46:30.017Z,english_829.wav,0,pill,7024,19,3,Japanese,m,1,0.1,-26.87459656,0.76756767
KES,27,0,2024-07-18T11:46:30.017Z,english_829.wav,0,pill,7024,19,3,Japanese,m,2,0.2,59.05286014,1.50609211
KES,27,0,2024-07-18T11:46:30.017Z,english_829.wav,0,pill,7024,19,3,Japanese,m,3,0.3,-38.64739237,0.33518122
KES,27,0,2024-07-18T11:46:30.017Z,english_829.wav,0,pill,7024,19,3,Japanese,m,4,0.32341667,68.61732932,1.40687349
KES,28,0,2024-07-18T11:46:30.017Z,english_548.wav,0,peel,5992,19,3,Japanese,m,0,0.0,19.39315344,0.41811488
KES,28,0,2024-07-18T11:46:30.017Z,english_548.wav,0,peel,5992,19,3,Japanese,m,1,0.1,82.09582914,1.70384437
KES,28,0,2024-07-18T11:46:30.017Z,english_548.wav,0,peel,5992,19,3,Japanese,m,2,0.2,-65.55781301,1.82142436
KES,28,0,2024-07-18T11:46:30.017Z,english_548.wav,0,peel,5992,19,3,Japanese,m,3,0.3,-5.02691035,1.13784798
KES,28,0,2024-07-18T11:46:30.017Z,english_548.wav,0,peel,5992,19,3,Japanese,m,4,0.32341667,62.63141303,1.73168063
KES,29,0,2024-07-18T11:46:30.017Z,english_142.wav,0,peel,7466,19,3,Japanese,m,0,0.0,-46.59943425,0.40064358
KES,29,0,2024-07-18T11:46:30.017Z,english_142.wav,0,peel,7466,19,3,Japanese,m,1,0.1,63.17145436,0.61162855
KES,29,0,2024-07-18T11:46:30.017Z,english_142.wav,0,peel,7466,19,3,Japanese,m,2,0.2,73.87775976,0.23189939
KES,29,0,2024-07-18T11:46:30.017Z,english_142.wav,0,peel,7466,19,3,Japanese,m,3,0.3,-84.55157756,1.54635995
KES,29,0,2024-07-18T11:46:30.017Z,english_142.wav,0,peel,7466,19,3,Japanese,m,4,0.32341667,20.35536038,1.86221744
KES,30,0,2024-07-18T11:46:30.017Z,english_796.wav,0,peel,2544,19,3,Japanese,m,0,0.0,57.52331511,0.93419081
KES,30,0,2024-07-18T11:46:30.017Z,english_796.wav,0,peel,2544,19,3,Japanese,m,1,0.1,-53.71774571,0.77950231
KES,30,0,2024-07-18T11:46:30.017Z,english_796.wav,0,peel,2544,19,3,Japanese,m,2,0.2,-36.09214461,0.54947466
KES,30,0,2024-07-18T11:46:30.017Z,english_796.wav,0,peel,2544,19,3,Japanese,m,3,0.3,23.21783142,1.69054841
KES,30,0,2024-07-18T11:46:30.017Z,english_796.wav,0,peel,2544,19,3,Japanese,m,4,0.32341667,-74.52171885,0.76047802
KES,31,0,2024-07-18T11:46:30.017Z,english_319.wav,0,peel,1406,19,3,Japanese,m,0,0.0,-84.37928886,1.17141126
KES,31,0,2024-07-18T11:46:30.017Z,english_319.wav,0,peel,1406,19,3,Japanese,m,1,0.1,-52.76931383,1.13741792
KES,31,0,2024-07-18T11:46:30.017Z,english_319.wav,0,peel,1406,19,3,Japanese,m,2,0.2,56.06390533,0.91618882
KES,31,0,2024-07-18T11:46:30.017Z,english_319.wav,0,peel,1406,19,3,Japanese,m,3,0.3,-69.46438111,0.7080153
KES,31,0,2024-07-18T11:46:30.017Z,english_319.wav,0,peel,1406,19,3,Japanese,m,4,0.32341667,91.86152445,0.5910213
KES,32,0,2024-07-18T11:46:30.017Z,english_400.wav,0,peel,1377,19,3,Japanese,m,0,0.0,-9.17924521,1.06898792
KES,32,0,2024-07-18T11:46:30.017Z,english_400.wav,0,peel,1377,19,3,Japanese,m,1,0.1,-51.0410118,0.05890524
KES,32,0,2024-07-18T11:46:30.017Z,english_400.wav,0,peel,1377,19,3,Japanese,m,2,0.2,66.2548805,1.54728483
KES,32,0,2024-07-18T11:46:30.017Z,english_400.wav,0,peel,1377,19,3,Japanese,m,3,0.3,92.33374018,1.43953162
KES,32,0,2024-07-18T11:46:30.017Z,english_400.wav,0,peel,1377,19,3,Japanese,m,4,0.32341667,-60.80730989,1.12546459
KES,33,0,2024-07-18T11:46:30.017Z,english_671.wav,0,peel,3282,19,3,Japanese,m,0,0.0,32.91930287,1.74193101
KES,33,0,2024-07-18T11:46:30.017Z,english_671.wav,0,peel,3282,19,3,Japanese,m,1,0.1,6.16976114,0.51820224
KES,33,0,2024-07-18T11:46:30.017Z,english_671.wav,0,peel,3282,19,3,Japanese,m,2,0.2,-34.00390264,0.07120536
KES,33,0,2024-07-18T11:46:30.017Z,english_671.wav,0,peel,3282,19,3,Japanese,m,3,0.3,18.374511,0.3828633
KES,33,0,2024-07-18T11:46:30.017Z,english_671.wav,0,peel,3282,19,3,Japanese,m,4,0.32341667,-2.98713897,1.2592669
KES,34,0,2024-07-18T11:46:30.017Z,english_161.wav,0,peel,6000,19,3,Japanese,m,0,0.0,16.17182642,0.80971259
KES,34,0,2024-07-18T11:46:30.017Z,english_161.wav,0,peel,6000,19,3,Japanese,m,1,0.1,51.23408036,1.56168911
KES,34,0,2024-07-18T11:46:30.017Z,english_161.wav,0,peel,6000,19,3,Japanese,m,2,0.2,56.55598601,0.91666403
KES,34,0,2024-07-18T11:46:30.017Z,english_161.wav,0,peel,6000,19,3,Japanese,m,3,0.3,-25.08054758,1.93998208
KES,34,0,2024-07-18T11:46:30.017Z,english_161.wav,0,peel,6000,19,3,Japanese,m,4,0.32341667,-70.36900789,0.76147365
KES,35,0,2024-07-18T11:46:30.017Z,english_831.wav,0,pill,11394,19,3,Japanese,m,0,0.0,-7.33710711,1.53159971
KES,35,0,2024-07-18T11:46:30.017Z,english_831.wav,0,pill,11394,19,3,Japanese,m,1,0.1,-87.69782071,1.22669962
KES,35,0,2024-07-18T11:46:30.017Z,english_831.wav,0,pill,11394,19,3,Japanese,m,2,0.2,34.03975531,0.70180407
KES,35,0,2024-07-18T11:46:30.017Z,english_831.wav,0,pill,11394,19,3,Japanese,m,3,0.3,-2.18295653,1.02244347
KES,35,0,2024-07-18T11:46:30.017Z,english_831.wav,0,pill,11394,19,3,Japanese,m,4,0.32341667,20.908766,1.06702443
KES,36,0,2024-07-18T11:46:30.017Z,english_575.wav,0,pill,1406,19,3,Japanese,m,0,0.0,61.73461998,1.8510319
KES,36,0,2024-07-18T11:46:30.017Z,english_575.wav,0,pill,1406,19,3,Japanese,m,1,0.1,-88.57549656,1.54102878
KES,36,0,2024-07-18T11:46:30.017Z,english_575.wav,0,pill,1406,19,3,Japanese,m,2,0.2,-30.88461278,1.19801244
KES,36,0,2024-07-18T11:46:30.017Z,english_575.wav,0,pill,1406,19,3,Japanese,m,3,0.3,-63.73327026,1.20026237
KES,36,0,2024-07-18T11:46:30.017Z,english_575.wav,0,pill,1406,19,3,Japanese,m,4,0.32341667,-0.55806298,1.04112184
KES,37,0,2024-07-18T11:46:30.017Z,english_592.wav,0,pill,1752,19,3,Japanese,m,0,0.0,-77.34060672,0.96869857
KES,37,0,2024-07-18T11:46:30.017Z,english_592.wav,0,pill,1752,19,3,Japanese,m,1,0.1,27.41551815,1.75134411
KES,37,0,2024-07-18T11:46:30.017Z,english_592.wav,0,pill,1752,19,3,Japanese,m,2,0.2,-17.47445882,1.41680483
KES,37,0,2024-07-18T11:46:30.017Z,english_592.wav,0,pill,1752,19,3,Japanese,m,3,0.3,-61.08462212,1.07260777
KES,37,0,2024-07-18T11:46:30.017Z,english_592.wav,0,pill,1752,19,3,Japanese,m,4,0.32341667,74.7675789,0.73150904
KES,38,0,2024-07-18T11:46:30.017Z,english_736.wav,0,pill,5392,19,3,Japanese,m,0,0.0,44.94907169,1.40223879
KES,38,0,2024-07-18T11:46:30.017Z,english_736.wav,0,pill,5392,19,3,Japanese,m,1,0.1,-89.05982676,1.76358699
KES,38,0,2024-07-18T11:46:30.017Z,english_736.wav,0,pill,5392,19,3,Japanese,m,2,0.2,27.88925208,0.99111008
KES,38,0,2024-07-18T11:46:30.017Z,english_736.wav,0,pill,5392,19,3,Japanese,m,3,0.3,77.01163693,1.90426439
KES,38,0,2024-07-18T11:46:30.017Z,english_736.wav,0,pill,5392,19,3,Japanese,m,4,0.32341667,-28.23601136,1.97036362
KES,39,0,2024-07-18T11:46:30.017Z,english_188.wav,0,peel,6858,19,3,Japanese,m,0,0.0,-13.13088252,0.29227292
KES,39,0,2024-07-18T11:46:30.017Z,english_188.wav,0,peel,6858,19,3,Japanese,m,1,0.1,51.13663316,1.25360943
KES,39,0,2024-07-18T11:46:30.017Z,english_188.wav,0,peel,6858,19,3,Japanese,m,2,0.2,-80.18048506,1.7916357
KES,39,0,2024-07-18T11:46:30.017Z,english_188.wav,0,peel,6858,19,3,Japanese,m,3,0.3,-47.89773773,0.58346705
KES,39,0,2024-07-18T11:46:30.017Z,english_188.wav,0,peel,6858,19,3,Japanese,m,4,0.32341667,-7.0568118,1.77612328
KES,40,0,2024-07-18T11:46:30.017Z,english_141.wav,0,peel,7042,19,3,Japanese,m,0,0.0,-85.83390244,1.36546316
KES,40,0,2024-07-18T11:46:30.017Z,english_141.wav,0,peel,7042,19,3,Japanese,m,1,0.1,-83.68236309,0.39424104
KES,40,0,2024-07-18T11:46:30.017Z,english_141.wav,0,peel,7042,19,3,Japanese,m,2,0.2,-69.95552588,1.31629396
KES,40,0,2024-07-18T11:46:30.017Z,english_141.wav,0,peel,7042,19,3,Japanese,m,3,0.3,-14.67715053,0.23786768
KES,40,0,2024-07-18T11:46:30.017Z,english_141.wav,0,peel,7042,19,3,Japanese,m,4,0.32341667,73.76142723,0.2069198
KES,41,0,2024-07-18T11:53:35.268Z,english_685.wav,0,pill,18829,19,3,Japanese,m,0,0.0,91.61032892,0.4504418
KES,41,0,2024-07-18T11:53:35.268Z,english_685.wav,0,pill,18829,19,3,Japanese,m,1,0.1,39.6206555,1.04279806
KES,41,0,2024-07-18T11:53:35.268Z,english_685.wav,0,pill,18829,19,3,Japanese,m,2,0.2,-3.19880539,1.33634651
KES,41,0,2024-07-18T11:53:35.268Z,english_685.wav,0,pill,18829,19,3,Japanese,m,3,0.3,-72.84721689,1.25094987
KES,41,0,2024-07-18T11:53:35.268Z,english_685.wav,0,pill,18829,19,3,Japanese,m,4,0.32341667,98.11411302,0.37726169
KES,42,0,2024-07-18T11:53:35.268Z,english_841.wav,0,peel,1791,19,3,Japanese,m,0,0.0,36.57834023,0.37598589
KES,42,0,2024-07-18T11:53:35.268Z,english_841.wav,0,peel,1791,19,3,Japanese,m,1,0.1,81.12994836,1.18949815
KES,42,0,2024-07-18T11:53:35.268Z,english_841.wav,0,peel,1791,19,3,Japanese,m,2,0.2,55.4316434,1.24219065
KES,42,0,2024-07-18T11:53:35.268Z,english_841.wav,0,peel,1791,19,3,Japanese,m,3,0.3,-50.85387517,1.45004046
KES,42,0,2024-07-18T11:53:35.268Z,english_841.wav,0,peel,1791,19,3,Japanese,m,4,0.32341667,-52.13814436,0.19253582
KES,43,0,2024-07-18T11:53:35.268Z,english_610.wav,0,pill,1065,19,3,Japanese,m,0,0.0,-14.96432812,0.5672697
KES,43,0,2024-07-18T11:53:35.268Z,english_610.wav,0,pill,1065,19,3,Japanese,m,1,0.1,48.51886955,0.75156182
KES,43,0,2024-07-18T11:53:35.268Z,english_610.wav,0,pill,1065,19,3,Japanese,m,2,0.2,47.07358548,0.38846335
KES,43,0,2024-07-18T11:53:35.268Z,english_610.wav,0,pill,1065,19,3,Japanese,m,3,0.3,17.30383174,1.52072292
KES,43,0,2024-07-18T11:53:35.268Z,english_610.wav,0,pill,1065,19,3,Japanese,m,4,0.32341667,1.51764356,1.56024836
KES,44,0,2024-07-18T11:53:35.268Z,english_852.wav,0,pill,569,19,3,Japanese,m,0,0.0,-59.21906832,1.76087743
KES,44,0,2024-07-18T11:53:35.268Z,english_852.wav,0,pill,569,19,3,Japanese,m,1,0.1,5.96662808,0.85304022
KES,44,0,2024-07-18T11:53:35.268Z,english_852.wav,0,pill,569,19,3,Japanese,m,2,0.2,12.29830648,0.5029047
KES,44,0,2024-07-18T11:53:35.268Z,english_852.wav,0,pill,569,19,3,Japanese,m,3,0.3,-98.20735767,0.66544939
KES,44,0,2024-07-18T11:53:35.268Z,english_852.wav,0,pill,569,19,3,Japanese,m,4,0.32341667,-0.5186354,0.26669214
KES,45,0,2024-07-18T11:53:35.268Z,english_837.wav,0,peel,2245,19,3,Japanese,m,0,0.0,-10.72674788,0.56055933
KES,45,0,2024-07-18T11:53:35.268Z,english_837.wav,0,peel,2245,19,3,Japanese,m,1,0.1,33.60933966,1.16716927
KES,45,0,2024-07-18T11:53:35.268Z,english_837.wav,0,peel,2245,19,3,Japanese,m,2,0.2,-1.37827911,1.02731607
KES,45,0,2024-07-18T11:53:35.268Z,english_837.wav,0,peel,2245,19,3,Japanese,m,3,0.3,29.3498758,1.96665864
KES,45,0,2024-07-18T11:53:35.268Z,english_837.wav,0,peel,2245,19,3,Japanese,m,4,0.32341667,31.86641091,0.45425732
KES,46,0,2024-07-18T11:53:35.268Z,english_846.wav,0,pill,1060,19,3,Japanese,m,0,0.0,61.87306923,1.6800264
KES,46,0,2024-07-18T11:53:35.268Z,english_846.wav,0,pill,1060,19,3,Japanese,m,1,0.1,-5.64177324,0.32387551
KES,46,0,2024-07-18T11:53:35.268Z,english_846.wav,0,pill,1060,19,3,Japanese,m,2,0.2,86.75305487,0.09122421
KES,46,0,2024-07-18T11:53:35.268Z,english_846.wav,0,pill,1060,19,3,Japanese,m,3,0.3,-27.71752308,0.55014386
KES,46,0,2024-07-18T11:53:35.268Z,english_846.wav,0,pill,1060,19,3,Japanese,m,4,0.32341667,-26.78048177,0.82256102
KES,47,0,2024-07-18T11:53:35.268Z,english_166.wav,0,peel,1139,19,3,Japanese,m,0,0.0,37.27670025,1.42766663
KES,47,0,2024-07-18T11:53:35.268Z,english_166.wav,0,peel,1139,19,3,Japanese,m,1,0.1,34.38847046,0.72731767
KES,47,0,2024-07-18T11:53:35.268Z,english_166.wav,0,peel,1139,19,3,Japanese,m,2,0.2,49.91842175,1.80608275
KES,47,0,2024-07-18T11:53:35.268Z,english_166.wav,0,peel,1139,19,3,Japanese,m,3,0.3,56.9541748,1.91598421
KES,47,0,2024-07-18T11:53:35.268Z,english_166.wav,0,peel,1139,19,3,Japanese,m,4,0.32341667,10.97290623,1.21084105
KES,48,0,2024-07-18T11:53:35.268Z,english_401.wav,0,peel,1800,19,3,Japanese,m,0,0.0,-70.37998858,1.11338134
KES,48,0,2024-07-18T11:53:35.268Z,english_401.wav,0,peel,1800,19,3,Japanese,m,1,0.1,49.27188779,1.59691292
KES,48,0,2024-07-18T11:53:35.268Z,english_401.wav,0,peel,1800,19,3,Japanese,m,2,0.2,5.09566389,0.88679935
KES,48,0,2024-07-18T11:53:35.268Z,english_401.wav,0,peel,1800,19,3,Japanese,m,3,0.3,58.42368176,1.89749174
KES,48,0,2024-07-18T11:53:35.268Z,english_401.wav,0,peel,1800,19,3,Japanese,m,4,0.32341667,-43.06407799,1.35831765
KES,49,0,2024-07-18T11:53:35.268Z,english_135.wav,0,pill,674,19,3,Japanese,m,0,0.0,92.53632507,0.8813083
KES,49,0,2024-07-18T11:53:35.268Z,english_135.wav,0,pill,674,19,3,Japanese,m,1,0.1,42.68843281,1.60503348
KES,49,0,2024-07-18T11:53:35.268Z,english_135.wav,0,pill,674,19,3,Japanese,m,2,0.2,87.27237188,0.22265806
KES,49,0,2024-07-18T11:53:35.268Z,english_135.wav,0,pill,674,19,3,Japanese,m,3,0.3,-70.62725941,0.4233462
KES,49,0,2024-07-18T11:53:35.268Z,english_135.wav,0,pill,674,19,3,Japanese,m,4,0.32341667,91.37204548,0.99500327
KES,50,1,2024-07-18T11:54:37.831Z,english_177.wav,0,pill,1753,19,3,Japanese,m,0,0.0,87.98258728,1.54790065
KES,50,1,2024-07-18T11:54:37.831Z,english_177.wav,0,pill,1753,19,3,Japanese,m,1,0.1,87.12011565,0.90861448
KES,50,1,2024-07-18T11:54:37.831Z,english_177.wav,0,pill,1753,19,3,Japanese,m,2,0.2,-29.82518494,0.58649069
KES,50,1,2024-07-18T11:54:37.831Z,english_177.wav,0,pill,1753,19,3,Japanese,m,3,0.3,54.38835911,0.51296238
KES,50,1,2024-07-18T11:54:37.831Z,english_177.wav,0,pill,1753,19,3,Japanese,m,4,0.32341667,53.98423531,1.78492888
KES,51,1,2024-07-18T11:54:37.831Z,english_273.wav,0,peel,603,19,3,Japanese,m,0,0.0,-44.98289573,1.94838534
KES,51,1,2024-07-18T11:54:37.831Z,english_273.wav,0,peel,603,19,3,Japanese,m,1,0.1,24.32546199,0.68888608
KES,51,1,2024-07-18T11:54:37.831Z,english_273.wav,0,peel,603,19,3,Japanese,m,2,0.2,61.84573583,1.95265796
KES,51,1,2024-07-18T11:54:37.831Z,english_273.wav,0,peel,603,19,3,Japanese,m,3,0.3,-1.88803465,1.62060328
KES,51,1,2024-07-18T11:54:37.831Z,english_273.wav,0,peel,603,19,3,Japanese,m,4,0.32341667,57.02125087,0.94638053
KES,52,1,2024-07-18T11:54:37.831Z,english_285.wav,0,pill,654,19,3,Japanese,m,0,0.0,-19.0536712,1.18823065
KES,52,1,2024-07-18T11:54:37.831Z,english_285.wav,0,pill,654,19,3,Japanese,m,1,0.1,-63.15395986,1.010644
KES,52,1,2024-07-18T11:54:37.831Z,english_285.wav,0,pill,654,19,3,Japanese,m,2,0.2,-57.682926,0.4943662
KES,52,1,2024-07-18T11:54:37.831Z,english_285.wav,0,pill,654,19,3,Japanese,m,3,0.3,-56.52362331,0.66348991
KES,52,1,2024-07-18T11:54:37.831Z,english_285.wav,0,pill,654,19,3,Japanese,m,4,0.32341667,11.40665652,0.86242978
KES,53,1,2024-07-18T11:54:37.831Z,english_180.wav,0,pill,695,19,3,Japanese,m,0,0.0,-79.96502932,0.84610218
KES,53,1,2024-07-18T11:54:37.831Z,english_180.wav,0,pill,695,19,3,Japanese,m,1,0.1,33.21752916,1.88919334
KES,53,1,2024-07-18T11:54:37.831Z,english_180.wav,0,pill,695,19,3,Japanese,m,2,0.2,-97.52705813,0.18699196
KES,53,1,2024-07-18T11:54:37.831Z,english_180.wav,0,pill,695,19,3,Japanese,m,3,0.3,42.51331828,0.0366283
KES,53,1,2024-07-18T11:54:37.831Z,english_180.wav,0,pill,695,19,3,Japanese,m,4,0.32341667,-42.98571984,0.95813987
KES,54,1,2024-07-18T11:54:37.831Z,english_682.wav,0,peel,493,19,3,Japanese,m,0,0.0,-19.80167737,1.6131825
KES,54,1,2024-07-18T11:54:37.831Z,english_682.wav,0,peel,493,19,3,Japanese,m,1,0.1,-30.98220326,1.03205672
KES,54,1,2024-07-18T11:54:37.831Z,english_682.wav,0,peel,493,19,3,Japanese,m,2,0.2,26.07010201,1.08357256
KES,54,1,2024-07-18T11:54:37.831Z,english_682.wav,0,peel,493,19,3,Japanese,m,3,0.3,-7.79776739,1.70642947
KES,54,1,2024-07-18T11:54:37.831Z,english_682.wav,0,peel,493,19,3,Japanese,m,4,0.32341667,-10.9148898,0.86858281
KES,55,1,2024-07-18T11:54:37.831Z,english_457.wav,0,pill,2228,19,3,Japanese,m,0,0.0,-73.30847947,0.35525387
KES,55,1,2024-07-18T11:54:37.831Z,english_457.wav,0,pill,2228,19,3,Japanese,m,1,0.1,-25.74413936,0.90483023
KES,55,1,2024-07-18T11:54:37.831Z,english_457.wav,0,pill,2228,19,3,Japanese,m,2,0.2,8.82772976,1.30004432
KES,55,1,2024-07-18T11:54:37.831Z,english_457.wav,0,pill,2228,19,3,Japanese,m,3,0.3,-2.30416086,0.93422762
KES,55,1,2024-07-18T11:54:37.831Z,english_457.wav,0,pill,2228,19,3,Japanese,m,4,0.32341667,-34.04493945,1.31504388
KES,56,1,2024-07-18T11:54:37.831Z,english_997.wav,0,peel,3959,19,3,Japanese,m,0,0.0,93.4252615,0.4603395
KES,56,1,2024-07-18T11:54:37.831Z,english_997.wav,0,peel,3959,19,3,Japanese,m,1,0.1,62.16088314,0.21654412
KES,56,1,2024-07-18T11:54:37.831Z,english_997.wav,0,peel,3959,19,3,Japanese,m,2,0.2,-26.38638022,1.36234896
KES,56,1,2024-07-18T11:54:37.831Z,english_997.wav,0,peel,3959,19,3,Japanese,m,3,0.3,89.15363163,1.07462804
KES,56,1,2024-07-18T11:54:37.831Z,english_997.wav,0,peel,3959,19,3,Japanese,m,4,0.32341667,-25.83137337,0.84007196
KES,57,1,2024-07-18T11:54:37.831Z,english_863.wav,0,pill,1750,19,3,Japanese,m,0,0.0,52.03013683,1.83111202
KES,57,1,2024-07-18T11:54:37.831Z,english_863.wav,0,pill,1750,19,3,Japanese,m,1,0.1,21.53783975,0.9779226
KES,57,1,2024-07-18T11:54:37.831Z,english_863.wav,0,pill,1750,19,3,Japanese,m,2,0.2,-42.8061331,1.19089157
KES,57,1,2024-07-18T11:54:37.831Z,english_863.wav,0,pill,1750,19,3,Japanese,m,3,0.3,-9.69253087,0.269847
KES,57,1,2024-07-18T11:54:37.831Z,english_863.wav,0,pill,1750,19,3,Japanese,m,4,0.32341667,56.44290307,0.87913369
KES,58,1,2024-07-18T11:54:37.831Z,english_472.wav,0,pill,8021,19,3,Japanese,m,0,0.0,-33.48324222,1.19367533
KES,58,1,2024-07-18T11:54:37.831Z,english_472.wav,0,pill,8021,19,3,Japanese,m,1,0.1,-52.47175565,0.64788551
KES,58,1,2024-07-18T11:54:37.831Z,english_472.wav,0,pill,8021,19,3,Japanese,m,2,0.2,-13.12063744,0.92970714
KES,58,1,2024-07-18T11:54:37.831Z,english_472.wav,0,pill,8021,19,3,Japanese,m,3,0.3,83.57117959,0.61503547
KES,58,1,2024-07-18T11:54:37.831Z,english_472.wav,0,pill,8021,19,3,Japanese,m,4,0.32341667,95.60610647,0.52013695
KES,59,1,2024-07-18T11:55:31.596Z,english_377.wav,0,pill,3503,19,3,Japanese,m,0,0.0,74.10679581,1.90218841
KES,59,1,2024-07-18T11:55:31.596Z,english_377.wav,0,pill,3503,19,3,Japanese,m,1,0.1,-97.36412995,1.60160035
KES,59,1,2024-07-18T11:55:31.596Z,english_377.wav,0,pill,3503,19,3,Japanese,m,2,0.2,-84.25672888,1.668912
KES,59,1,2024-07-18T11:55:31.596Z,english_377.wav,0,pill,3503,19,3,Japanese,m,3,0.3,27.09308902,1.51590505
KES,59,1,2024-07-18T11:55:31.596Z,english_377.wav,0,pill,3503,19,3,Japanese,m,4,0.32341667,-12.33253686,0.99909344
KES,60,1,2024-07-18T11:55:31.596Z,english_589.wav,0,pill,2051,19,3,Japanese,m,0,0.0,58.55453646,1.98928345
KES,60,1,2024-07-18T11:55:31.596Z,english_589.wav,0,pill,2051,19,3,Japanese,m,1,0.1,30.45164265,1.49107718
KES,60,1,2024-07-18T11:55:31.596Z,english_589.wav,0,pill,2051,19,3,Japanese,m,2,0.2,-45.43400091,0.52639062
KES,60,1,2024-07-18T11:55:31.596Z,english_589.wav,0,pill,2051,19,3,Japanese,m,3,0.3,84.99084473,0.34590986
KES,60,1,2024-07-18T11:55:31.596Z,english_589.wav,0,pill,2051,19,3,Japanese,m,4,0.32341667,65.45411119,0.67022481
KES,61,1,2024-07-18T11:55:31.596Z,english_654.wav,0,peel,2194,19,3,Japanese,m,0,0.0,-97.13147194,0.91673578
KES,61,1,2024-07-18T11:55:31.596Z,english_654.wav,0,peel,2194,19,3,Japanese,m,1,0.1,-81.37819023,1.23280851
KES,61,1,2024-07-18T11:55:31.596Z,english_654.wav,0,peel,2194,19,3,Japanese,m,2,0.2,51.48571278,1.64688363
KES,61,1,2024-07-18T11:55:31.596Z,english_654.wav,0,peel,2194,19,3,Japanese,m,3,0.3,54.00949099,1.75994168
KES,61,1,2024-07-18T11:55:31.596Z,english_654.wav,0,peel,2194,19,3,Japanese,m,4,0.32341667,-95.1633683,0.20104411
KES,62,1,2024-07-18T11:55:31.596Z,english_762.wav,0,pill,1401,19,3,Japanese,m,0,0.0,-56.40971946,1.43822993
KES,62,1,2024-07-18T11:55:31.596Z,english_762.wav,0,pill,1401,19,3,Japanese,m,1,0.1,-9.09046034,1.11776807
KES,62,1,2024-07-18T11:55:31.596Z,english_762.wav,0,pill,1401,19,3,Japanese,m,2,0.2,20.98892014,0.71531135
KES,62,1,2024-07-18T11:55:31.596Z,english_762.wav,0,pill,1401,19,3,Japanese,m,3,0.3,-66.43296232,0.54997993
KES,62,1,2024-07-18T11:55:31.596Z,english_762.wav,0,pill,1401,19,3,Japanese,m,4,0.32341667,-91.78640069,0.26897274
KES,63,1,2024-07-18T11:55:31.596Z,english_856.wav,0,pill,746,19,3,Japanese,m,0,0.0,-44.08940674,1.51880133
KES,63,1,2024-07-18T11:55:31.596Z,english_856.wav,0,pill,746,19,3,Japanese,m,1,0.1,-25.77644107,0.99524475
KES,63,1,2024-07-18T11:55:31.596Z,english_856.wav,0,pill,746,19,3,Japanese,m,2,0.2,6.39263247,1.11391415
KES,63,1,2024-07-18T11:55:31.596Z,english_856.wav,0,pill,746,19,3,Japanese,m,3,0.3,92.67536145,0.95575529
KES,63,1,2024-07-18T11:55:31.596Z,english_856.wav,0,pill,746,19,3,Japanese,m,4,0.32341667,45.15991817,1.02944292
KES,64,1,2024-07-18T11:55:31.596Z,english_414.wav,0,pill,460,19,3,Japanese,m,0,0.0,19.47839865,0.9434816
KES,64,1,2024-07-18T11:55:31.596Z,english_414.wav,0,pill,460,19,3,Japanese,m,1,0.1,59.9490877,1.1146936
KES,64,1,2024-07-18T11:55:31.596Z,english_414.wav,0,pill,460,19,3,Japanese,m,2,0.2,22.33981162,0.48476454
KES,64,1,2024-07-18T11:55:31.596Z,english_414.wav,0,pill,460,19,3,Japanese,m,3,0.3,18.97426154,0.23554241
KES,64,1,2024-07-18T11:55:31.596Z,english_414.wav,0,pill,460,19,3,Japanese,m,4,0.32341667,15.16306506,1.13007685
KES,65,1,2024-07-18T11:55:31.596Z,english_640.wav,0,pill,2120,19,3,Japanese,m,0,0.0,74.95875769,1.81273707
KES,65,1,2024-07-18T11:55:31.596Z,english_640.wav,0,pill,2120,19,3,Japanese,m,1,0.1,87.73764633,1.50076703
KES,65,1,2024-07-18T11:55:31.596Z,english_640.wav,0,pill,2120,19,3,Japanese,m,2,0.2,-71.36544648,0.25286143
KES,65,1,2024-07-18T11:55:31.596Z,english_640.wav,0,pill,2120,19,3,Japanese,m,3,0.3,11.07583082,0.53181051
KES,65,1,2024-07-18T11:55:31.596Z,english_640.wav,0,pill,2120,19,3,Japanese,m,4,0.32341667,18.32643638,0.76351343
KES,66,1,2024-07-18T11:55:31.596Z,english_768.wav,0,pill,4053,19,3,Japanese,m,0,0.0,-28.93145359,1.5002074
KES,66,1,2024-07-18T11:55:31.596Z,english_768.wav,0,pill,4053,19,3,Japanese,m,1,0.1,59.49166151,1.15432208
KES,66,1,2024-07-18T11:55:31.596Z,english_768.wav,0,pill,4053,19,3,Japanese,m,2,0.2,41.87955621,0.01731471
KES,66,1,2024-07-18T11:55:31.596Z,english_768.wav,0,pill,4053,19,3,Japanese,m,3,0.3,-92.17589111,0.98337229
KES,66,1,2024-07-18T11:55:31.596Z,english_768.wav,0,pill,4053,19,3,Japanese,m,4,0.32341667,15.2364545,0.4381055
KES,67,1,2024-07-18T11:55:31.596Z,english_149.wav,0,peel,7283,19,3,Japanese,m,0,0.0,84.22842235,1.59516341
KES,67,1,2024-07-18T11:55:31.596Z,english_149.wav,0,peel,7283,19,3,Japanese,m,1,0.1,-27.4405272,0.66089578
KES,67,1,2024-07-18T11:55:31.596Z,english_149.wav,0,peel,7283,19,3,Japanese,m,2,0.2,-61.08664731,1.85372623
KES,67,1,2024-07-18T11:55:31.596Z,english_149.wav,0,peel,7283,19,3,Japanese,m,3,0.3,-73.42064763,1.25159901
KES,67,1,2024-07-18T11:55:31.596Z,english_149.wav,0,peel,7283,19,3,Japanese,m,4,0.32341667,74.80057547,1.10687529
KES,68,1,2024-07-18T11:55:31.596Z,english_104.wav,0,pill,4711,19,3,Japanese,m,0,0.0,42.44693926,0.1741435
KES,68,1,2024-07-18T11:55:31.596Z,english_104.wav,0,pill,4711,19,3,Japanese,m,1,0.1,82.22484934,0.11379641
KES,68,1,2024-07-18T11:55:31.596Z,english_104.wav,0,pill,4711,19,3,Japanese,m,2,0.2,7.21737924,1.60376175
KES,68,1,2024-07-18T11:55:31.596Z,english_104.wav,0,pill,4711,19,3,Japanese,m,3,0.3,26.54640215,1.08059257
KES,68,1,2024-07-18T11:55:31.596Z,english_104.wav,0,pill,4711,19,3,Japanese,m,4,0.32341667,-33.4974026,1.8061622
KES,69,1,2024-07-18T11:55:31.596Z,english_848.wav,0,peel,540,19,3,Japanese,m,0,0.0,43.30233352,0.12582596
KES,69,1,2024-07-18T11:55:31.596Z,english_848.wav,0,peel,540,19,3,Japanese,m,1,0.1,-77.77691247,1.72621372
KES,69,1,2024-07-18T11:55:31.596Z,english_848.wav,0,peel,540,19,3,Japanese,m,2,0.2,-68.99020863,1.753656
KES,69,1,2024-07-18T11:55:31.596Z,english_848.wav,0,peel,540,19,3,Japanese,m,3,0.3,-43.68641023,1.37442753
KES,69,1,2024-07-18T11:55:31.596Z,english_848.wav,0,peel,540,19,3,Japanese,m,4,0.32341667,-14.19502025,1.04930351
KES,70,1,2024-07-18T11:55:31.596Z,english_978.wav,0,peel,390,19,3,Japanese,m,0,0.0,-73.1961296,0.69168228
KES,70,1,2024-07-18T11:55:31.596Z,english_978.wav,0,peel,390,19,3,Japanese,m,1,0.1,-56.98452675,1.28516196
KES,70,1,2024-07-18T11:55:31.596Z,english_978.wav,0,peel,390,19,3,Japanese,m,2,0.2,1.81288897,1.00851945
KES,70,1,2024-07-18T11:55:31.596Z,english_978.wav,0,peel,390,19,3,Japanese,m,3,0.3,-17.93803526,0.05981722
KES,70,1,2024-07-18T11:55:31.596Z,english_978.wav,0,peel,390,19,3,Japanese,m,4,0.32341667,-33.17886565,1.89275203
KES,71,1,2024-07-18T11:55:31.596Z,english_45.wav,0,peel,733,19,3,Japanese,m,0,0.0,72.55677234,0.302627
KES,71,1,2024-07-18T11:55:31.596Z,english_45.wav,0,peel,733,19,3,Japanese,m,1,0.1,34.43244276,1.957389
KES,71,1,2024-07-18T11:55:31.596Z,english_45.wav,0,peel,733,19,3,Japanese,m,2,0.2,12.66368291,1.1456601
KES,71,1,2024-07-18T11:55:31.596Z,english_45.wav,0,peel,733,19,3,Japanese,m,3,0.3,47.17471186,1.77472104
KES,71,1,2024-07-18T11:55:31.596Z,english_45.wav,0,peel,733,19,3,Japanese,m,4,0.32341667,-48.2883803,1.7760992
KES,72,1,2024-07-18T11:55:31.596Z,english_533.wav,0,peel,3591,19,3,Japanese,m,0,0.0,-10.36570298,0.10013008
KES,72,1,2024-07-18T11:55:31.596Z,english_533.wav,0,peel,3591,19,3,Japanese,m,1,0.1,-67.04420928,1.73583104
KES,72,1,2024-07-18T11:55:31.596Z,english_533.wav,0,peel,3591,19,3,Japanese,m,2,0.2,-31.24691396,1.00550506
KES,72,1,2024-07-18T11:55:31.596Z,english_533.wav,0,peel,3591,19,3,Japanese,m,3,0.3,-22.73912087,1.21009828
KES,72,1,2024-07-18T11:55:31.596Z,english_533.wav,0,peel,3591,19,3,Japanese,m,4,0.32341667,-4.63915005,1.69946188
KES,73,1,2024-07-18T11:55:31.596Z,english_734.wav,0,pill,2049,19,3,Japanese,m,0,0.0,23.12527103,1.15728247
KES,73,1,2024-07-18T11:55:31.596Z,english_734.wav,0,pill,2049,19,3,Japanese,m,1,0.1,70.97885261,1.10975856
KES,73,1,2024-07-18T11:55:31.596Z,english_734.wav,0,pill,2049,19,3,Japanese,m,2,0.2,-68.62860591,0.41126476
KES,73,1,2024-07-18T11:55:31.596Z,english_734.wav,0,pill,2049,19,3,Japanese,m,3,0.3,-14.81239301,1.45213782
KES,73,1,2024-07-18T11:55:31.596Z,english_734.wav,0,pill,2049,19,3,Japanese,m,4,0.32341667,-74.40513958,1.98917216
KES,74,1,2024-07-18T11:55:31.596Z,english_903.wav,0,peel,911,19,3,Japanese,m,0,0.0,73.58848698,0.30588109
KES,74,1,2024-07-18T11:55:31.596Z,english_903.wav,0,peel,911,19,3,Japanese,m,1,0.1,-95.58060262,0.88963747
KES,74,1,2024-07-18T11:55:31.596Z,english_903.wav,0,peel,911,19,3,Japanese,m,2,0.2,17.41642173,1.73634476
KES,74,1,2024-07-18T11:55:31.596Z,english_903.wav,0,peel,911,19,3,Japanese,m,3,0.3,94.35223882,0.71257749
KES,74,1,2024-07-18T11:55:31.596Z,english_903.wav,0,peel,911,19,3,Japanese,m,4,0.32341667,-49.48803877,1.4824474
KES,75,1,2024-07-18T11:55:31.596Z,english_383.wav,0,pill,3608,19,3,Japanese,m,0,0.0,-1.49759031,0.61403304
KES,75,1,2024-07-18T11:55:31.596Z,english_383.wav,0,pill,3608,19,3,Japanese,m,1,0.1,48.0809444,0.69225556
KES,75,1,2024-07-18T11:55:31.596Z,english_383.wav,0,pill,3608,19,3,Japanese,m,2,0.2,-84.09524499,0.33452268
KES,75,1,2024-07-18T11:55:31.596Z,english_383.wav,0,pill,3608,19,3,Japanese,m,3,0.3,95.23220486,1.06792504
KES,75,1,2024-07-18T11:55:31.596Z,english_383.wav,0,pill,3608,19,3,Japanese,m,4,0.32341667,64.91086902,0.58483827
KES,76,1,2024-07-18T11:55:31.596Z,english_960.wav,0,peel,901,19,3,Japanese,m,0,0.0,35.80457434,0.79357899
KES,76,1,2024-07-18T11:55:31.596Z,english_960.wav,0,peel,901,19,3,Japanese,m,1,0.1,-19.98469691,0.63900775
KES,76,1,2024-07-18T11:55:31.596Z,english_960.wav,0,peel,901,19,3,Japanese,m,2,0.2,-8.88025322,1.83966222
KES,76,1,2024-07-18T11:55:31.596Z,english_960.wav,0,peel,901,19,3,Japanese,m,3,0.3,6.59365348,1.05168668
KES,76,1,2024-07-18T11:55:31.596Z,english_960.wav,0,peel,901,19,3,Japanese,m,4,0.32341667,64.0885905,1.66020449
KES,77,1,2024-07-18T11:55:31.596Z,english_507.wav,0,peel,2686,19,3,Japanese,m,0,0.0,-61.1842488,1.97653192
KES,77,1,2024-07-18T11:55:31.596Z,english_507.wav,0,peel,2686,19,3,Japanese,m,1,0.1,-67.40048172,1.52355847
KES,77,1,2024-07-18T11:55:31.596Z,english_507.wav,0,peel,2686,19,3,Japanese,m,2,0.2,12.41471853,0.98006415
KES,77,1,2024-07-18T11:55:31.596Z,english_507.wav,0,peel,2686,19,3,Japanese,m,3,0.3,-23.82579329,0.44372312
KES,77,1,2024-07-18T11:55:31.596Z,english_507.wav,0,peel,2686,19,3,Japanese,m,4,0.32341667,9.53005369,0.65281453
KES,78,1,2024-07-18T11:55:31.596Z,english_216.wav,0,peel,915,19,3,Japanese,m,0,0.0,-62.2888105,1.07577895
KES,78,1,2024-07-18T11:55:31.596Z,english_216.wav,0,peel,915,19,3,Japanese,m,1,0.1,-52.19325919,1.07125686
KES,78,1,2024-07-18T11:55:31.596Z,english_216.wav,0,peel,915,19,3,Japanese,m,2,0.2,-77.81566322,1.51342084
KES,78,1,2024-07-18T11:55:31.596Z,english_216.wav,0,peel,915,19,3,Japanese,m,3,0.3,73.5246301,1.37714716
KES,78,1,2024-07-18T11:55:31.596Z,english_216.wav,0,peel,915,19,3,Japanese,m,4,0.32341667,73.4409389,1.55456291
KES,79,1,2024-07-18T11:55:31.596Z,english_318.wav,0,pill,792,19,3,Japanese,m,0,0.0,40.16064427,0.11467793
KES,79,1,2024-07-18T11:55:31.596Z,english_318.wav,0,pill,792,19,3,Japanese,m,1,0.1,-52.58874178,0.6224104
KES,79,1,2024-07-18T11:55:31.596Z,english_318.wav,0,pill,792,19,3,Japanese,m,2,0.2,46.7653316,0.05328619
KES,79,1,2024-07-18T11:55:31.596Z,english_318.wav,0,pill,792,19,3,Japanese,m,3,0.3,-41.44559589,0.01138238
KES,79,1,2024-07-18T11:55:31.596Z,english_318.wav,0,pill,792,19,3,Japanese,m,4,0.32341667,-2.50443948,1.16020285
KES,80,1,2024-07-18T11:55:31.596Z,english_716.wav,0,peel,2145,19,3,Japanese,m,0,0.0,-41.01159081,1.70683796
KES,80,1,2024-07-18T11:55:31.596Z,english_716.wav,0,peel,2145,19,3,Japanese,m,1,0.1,-51.78631031,1.57787804
KES,80,1,2024-07-18T11:55:31.596Z,english_716.wav,0,peel,2145,19,3,Japanese,m,2,0.2,-25.7252513,1.76538287
KES,80,1,2024-07-18T11:55:31.596Z,english_716.wav,0,peel,2145,19,3,Japanese,m,3,0.3,78.18950514,1.34280163
KES,80,1,2024-07-18T11:55:31.596Z,english_716.wav,0,peel,2145,19,3,Japanese,m,4,0.32341667,-26.78025651,1.89346788
KES,81,1,2024-07-18T11:55:31.596Z,english_578.wav,0,pill,1745,19,3,Japanese,m,0,0.0,-76.90925642,1.21901793
KES,81,1,2024-07-18T11:55:31.596Z,english_578.wav,0,pill,1745,19,3,Japanese,m,1,0.1,-68.48676994,1.4118495
KES,81,1,2024-07-18T11:55:31.596Z,english_578.wav,0,pill,1745,19,3,Japanese,m,2,0.2,36.30884798,0.05521057
KES,81,1,2024-07-18T11:55:31.596Z,english_578.wav,0,pill,1745,19,3,Japanese,m,3,0.3,-36.82491274,1.45629656
KES,81,1,2024-07-18T11:55:31.596Z,english_578.wav,0,pill,1745,19,3,Japanese,m,4,0.32341667,-4.04717442,1.80268091
KES,82,1,2024-07-18T11:55:31.596Z,english_162.wav,0,peel,1403,19,3,Japanese,m,0,0.0,-93.72635155,0.46304305
KES,82,1,2024-07-18T11:55:31.596Z,english_162.wav,0,peel,1403,19,3,Japanese,m,1,0.1,-77.68974918,1.90149112
KES,82,1,2024-07-18T11:55:31.596Z,english_162.wav,0,peel,1403,19,3,Japanese,m,2,0.2,15.19581884,1.02605911
KES,82,1,2024-07-18T11:55:31.596Z,english_162.wav,0,peel,1403,19,3,Japanese,m,3,0.3,64.44828449,1.67084882
KES,82,1,2024-07-18T11:55:31.596Z,english_162.wav,0,peel,1403,19,3,Japanese,m,4,0.32341667,-98.3856278,0.11792656
KES,83,1,2024-07-18T11:55:31.596Z,english_409.wav,0,pill,874,19,3,Japanese,m,0,0.0,-24.04105399,0.29560797
KES,83,1,2024-07-18T11:55:31.596Z,english_409.wav,0,pill,874,19,3,Japanese,m,1,0.1,-26.67389605,1.53762848
KES,83,1,2024-07-18T11:55:31.596Z,english_409.wav,0,pill,874,19,3,Japanese,m,2,0.2,23.9966363,0.34602898
KES,83,1,2024-07-18T11:55:31.596Z,english_409.wav,0,pill,874,19,3,Japanese,m,3,0.3,16.61705293,1.21824435
KES,83,1,2024-07-18T11:55:31.596Z,english_409.wav,0,pill,874,19,3,Japanese,m,4,0.32341667,73.09980407,1.55330233
KES,84,1,2024-07-18T11:55:31.596Z,english_788.wav,0,peel,253,19,3,Japanese,m,0,0.0,-93.79628683,0.67330318
KES,84,1,2024-07-18T11:55:31.596Z,english_788.wav,0,peel,253,19,3,Japanese,m,1,0.1,-45.29703147,1.33385595
KES,84,1,2024-07-18T11:55:31.596Z,english_788.wav,0,peel,253,19,3,Japanese,m,2,0.2,-46.01001772,1.35248941
KES,84,1,2024-07-18T11:55:31.596Z,english_788.wav,0,peel,253,19,3,Japanese,m,3,0.3,-56.6729179,1.33220146
KES,84,1,2024-07-18T11:55:31.596Z,english_788.wav,0,peel,253,19,3,Japanese,m,4,0.32341667,51.29020462,1.32468206
KES,85,1,2024-07-18T11:55:31.596Z,english_800.wav,0,pill,725,19,3,Japanese,m,0,0.0,-9.91001254,0.13142639
KES,85,1,2024-07-18T11:55:31.596Z,english_800.wav,0,pill,725,19,3,Japanese,m,1,0.1,-86.79409322,1.71040153
KES,85,1,2024-07-18T11:55:31.596Z,english_800.wav,0,pill,725,19,3,Japanese,m,2,0.2,-27.39997365,0.18637657
KES,85,1,2024-07-18T11:55:31.596Z,english_800.wav,0,pill,725,19,3,Japanese,m,3,0.3,13.46737707,1.09766523
KES,85,1,2024-07-18T11:55:31.596Z,english_800.wav,0,pill,725,19,3,Japanese,m,4,0.32341667,-32.56208711,1.57940615
KES,86,1,2024-07-18T11:55:31.596Z,english_202.wav,0,peel,3536,19,3,Japanese,m,0,0.0,-30.7410802,1.48506999
KES,86,1,2024-07-18T11:55:31.596Z,english_202.wav,0,peel,3536,19,3,Japanese,m,1,0.1,-19.68361402,1.61937363
KES,86,1,2024-07-18T11:55:31.596Z,english_202.wav,0,peel,3536,19,3,Japanese,m,2,0.2,-9.93463647,0.73964021
KES,86,1,2024-07-18T11:55:31.596Z,english_202.wav,0,peel,3536,19,3,Japanese,m,3,0.3,-7.1971022,1.93955383
KES,86,1,2024-07-18T11:55:31.596Z,english_202.wav,0,peel,3536,19,3,Japanese,m,4,0.32341667,-23.97797133,1.43199581
KES,87,1,2024-07-18T11:55:31.596Z,english_938.wav,0,pill,588,19,3,Japanese,m,0,0.0,55.68553541,1.13527087
KES,87,1,2024-07-18T11:55:31.596Z,english_938.wav,0,pill,588,19,3,Japanese,m,1,0.1,19.57508628,0.57526943
KES,87,1,2024-07-18T11:55:31.596Z,english_938.wav,0,pill,588,19,3,Japanese,m,2,0.2,99.59707332,0.71873046
KES,87,1,2024-07-18T11:55:31.596Z,english_938.wav,0,pill,588,19,3,Japanese,m,3,0.3,-43.3789335,0.88566698
KES,87,1,2024-07-18T11:55:31.596Z,english_938.wav,0,pill,588,19,3,Japanese,m,4,0.32341667,90.00594125,0.39461425
KES,88,1,2024-07-18T11:55:31.596Z,english_66.wav,0,pill,455,19,3,Japanese,m,0,0.0,16.07147303,1.75051971
KES,88,1,2024-07-18T11:55:31.596Z,english_66.wav,0,pill,455,19,3,Japanese,m,1,0.1,50.76577123,0.02971233
KES,88,1,2024-07-18T11:55:31.596Z,english_66.wav,0,pill,455,19,3,Japanese,m,2,0.2,-29.1595681,0.63583886
KES,88,1,2024-07-18T11:55:31.596Z,english_66.wav,0,pill,455,19,3,Japanese,m,3,0.3,-80.89120138,1.46734397
KES,88,1,2024-07-18T11:55:31.596Z,english_66.wav,0,pill,455,19,3,Japanese,m,4,0.32341667,-8.46229461,1.61280944
KES,89,1,2024-07-18T11:55:31.596Z,english_389.wav,0,peel,725,19,3,Japanese,m,0,0.0,36.16487693,1.25286497
KES,89,1,2024-07-18T11:55:31.596Z,english_389.wav,0,peel,725,19,3,Japanese,m,1,0.1,-97.36259769,1.31396789
KES,89,1,2024-07-18T11:55:31.596Z,english_389.wav,0,peel,725,19,3,Japanese,m,2,0.2,24.50411951,1.84060757
KES,89,1,2024-07-18T11:55:31.596Z,english_389.wav,0,peel,725,19,3,Japanese,m,3,0.3,43.1395046,0.64046023
KES,89,1,2024-07-18T11:55:31.596Z,english_389.wav,0,peel,725,19,3,Japanese,m,4,0.32341667,85.14605982,1.47992762
KES,90,1,2024-07-18T11:55:31.596Z,english_268.wav,0,peel,801,19,3,Japanese,m,0,0.0,55.18591224,1.47327052
KES,90,1,2024-07-18T11:55:31.596Z,english_268.wav,0,peel,801,19,3,Japanese,m,1,0.1,47.37483414,0.95932673
KES,90,1,2024-07-18T11:55:31.596Z,english_268.wav,0,peel,801,19,3,Japanese,m,2,0.2,46.97410588,1.80275919
KES,90,1,2024-07-18T11:55:31.596Z,english_268.wav,0,peel,801,19,3,Japanese,m,3,0.3,-64.08979313,1.6474991
KES,90,1,2024-07-18T11:55:31.596Z,english_268.wav,0,peel,801,19,3,Japanese,m,4,0.32341667,35.8590447,1.56533667
KES,91,1,2024-07-18T11:55:31.596Z,english_594.wav,0,peel,327,19,3,Japanese,m,0,0.0,-85.15725243,1.49995106
KES,91,1,2024-07-18T11:55:31.596Z,english_594.wav,0,peel,327,19,3,Japanese,m,1,0.1,18.57908242,1.36683942
KES,91,1,2024-07-18T11:55:31.596Z,english_594.wav,0,peel,327,19,3,Japanese,m,2,0.2,-52.1381203,1.31792707
KES,91,1,2024-07-18T11:55:31.596Z,english_594.wav,0,peel,327,19,3,Japanese,m,3,0.3,77.56862162,0.76119001
KES,91,1,2024-07-18T11:55:31.596Z,english_594.wav,0,peel,327,19,3,Japanese,m,4,0.32341667,89.7133381,1.77084997
KES,92,1,2024-07-18T11:55:31.596Z,english_80.wav,0,pill,1926,19,3,Japanese,m,0,0.0,33.21374474,1.09809668
KES,92,1,2024-07-18T11:55:31.596Z,english_80.wav,0,pill,1926,19,3,Japanese,m,1,0.1,-72.2618742,1.73594877
KES,92,1,2024-07-18T11:55:31.596Z,english_80.wav,0,pill,1926,19,3,Japanese,m,2,0.2,-29.44860443,0.30037535
KES,92,1,2024-07-18T11:55:31.596Z,english_80.wav,0,pill,1926,19,3,Japanese,m,3,0.3,-33.36418129,0.36613598
KES,92,1,2024-07-18T11:55:31.596Z,english_80.wav,0,pill,1926,19,3,Japanese,m,4,0.32341667,-65.11319145,0.50687614
KES,93,1,2024-07-18T11:55:31.596Z,english_471.wav,0,pill,1760,19,3,Japanese,m,0,0.0,47.42131089,0.58869392
KES,93,1,2024-07-18T11:55:31.596Z,english_471.wav,0,pill,1760,19,3,Japanese,m,1,0.1,-63.95282256,1.74739294
KES,93,1,2024-07-18T11:55:31.596Z,english_471.wav,0,pill,1760,19,3,Japanese,m,2,0.2,31.67244378,1.10105994
KES,93,1,2024-07-18T11:55:31.596Z,english_471.wav,0,pill,1760,19,3,Japanese,m,3,0.3,40.6572625,0.54790015
KES,93,1,2024-07-18T11:55:31.596Z,english_471.wav,0,pill,1760,19,3,Japanese,m,4,0.32341667,-18.6332399,1.33029013
KES,94,1,2024-07-18T11:55:31.596Z,english_579.wav,0,pill,3312,19,3,Japanese,m,0,0.0,78.52989573,1.74799876
KES,94,1,2024-07-18T11:55:31.596Z,english_579.wav,0,pill,3312,19,3,Japanese,m,1,0.1,-26.17758211,0.36264633
KES,94,1,2024-07-18T11:55:31.596Z,english_579.wav,0,pill,3312,19,3,Japanese,m,2,0.2,-65.60231522,1.15645327
KES,94,1,2024-07-18T11:55:31.596Z,english_579.wav,0,pill,3312,19,3,Japanese,m,3,0.3,-66.03357835,1.81639149
KES,94,1,2024-07-18T11:55:31.596Z,english_579.wav,0,pill,3312,19,3,Japanese,m,4,0.32341667,-36.23940811,1.38509752
KES,95,1,2024-07-18T11:55:31.596Z,english_79.wav,0,pill,515,19,3,Japanese,m,0,0.0,-69.52518262,0.23164561
KES,95,1,2024-07-18T11:55:31.596Z,english_79.wav,0,pill,515,19,3,Japanese,m,1,0.1,56.533406,1.01948637
KES,95,1,2024-07-18T11:55:31.596Z,english_79.wav,0,pill,515,19,3,Japanese,m,2,0.2,25.92051761,0.17653141
KES,95,1,2024-07-18T11:55:31.596Z,english_79.wav,0,pill,515,19,3,Japanese,m,3,0.3,81.58880491,0.14868702
KES,95,1,2024-07-18T11:55:31.596Z,english_79.wav,0,pill,515,19,3,Japanese,m,4,0.32341667,-19.75719301,0.33345335
KES,96,1,2024-07-18T11:55:31.596Z,english_124.wav,0,peel,7973,19,3,Japanese,m,0,0.0,-16.92140416,1.25482105
KES,96,1,2024-07-18T11:55:31.596Z,english_124.wav,0,peel,7973,19,3,Japanese,m,1,0.1,97.41289205,1.97830042
KES,96,1,2024-07-18T11:55:31.596Z,english_124.wav,0,peel,7973,19,3,Japanese,m,2,0.2,-78.49167412,1.09846955
KES,96,1,2024-07-18T11:55:31.596Z,english_124.wav,0,peel,7973,19,3,Japanese,m,3,0.3,-3.48618202,0.36540564
KES,96,1,2024-07-18T11:55:31.596Z,english_124.wav,0,peel,7973,19,3,Japanese,m,4,0.32341667,5.32047068,0.96325389
KES,97,1,2024-07-18T11:55:31.596Z,english_280.wav,0,pill,2539,19,3,Japanese,m,0,0.0,88.60957906,0.0301642
KES,97,1,2024-07-18T11:55:31.596Z,english_280.wav,0,pill,2539,19,3,Japanese,m,1,0.1,84.68226706,1.61205195
KES,97,1,2024-07-18T11:55:31.596Z,english_280.wav,0,pill,2539,19,3,Japanese,m,2,0.2,-77.43679957,1.42137195
KES,97,1,2024-07-18T11:55:31.596Z,english_280.wav,0,pill,2539,19,3,Japanese,m,3,0.3,45.11946934,1.73240953
KES,97,1,2024-07-18T11:55:31.596Z,english_280.wav,0,pill,2539,19,3,Japanese,m,4,0.32341667,-36.96988582,0.09602122
KES,98,1,2024-07-18T11:55:31.596Z,english_384.wav,0,pill,897,19,3,Japanese,m,0,0.0,-38.96228733,0.34616893
KES,98,1,2024-07-18T11:55:31.596Z,english_384.wav,0,pill,897,19,3,Japanese,m,1,0.1,2.386347,0.04115024
KES,98,1,2024-07-18T11:55:31.596Z,english_384.wav,0,pill,897,19,3,Japanese,m,2,0.2,48.26486793,0.35900131
KES,98,1,2024-07-18T11:55:31.596Z,english_384.wav,0,pill,897,19,3,Japanese,m,3,0.3,-48.11903655,1.58519606
KES,98,1,2024-07-18T11:55:31.596Z,english_384.wav,0,pill,897,19,3,Japanese,m,4,0.32341667,19.29531145,0.95531857
KES,99,1,2024-07-18T11:55:31.596Z,english_508.wav,0,pill,9788,19,3,Japanese,m,0,0.0,-21.23116318,1.79614382
KES,99,1,2024-07-18T11:55:31.596Z,english_508.wav,0,pill,9788,19,3,Japanese,m,1,0.1,-27.56583205,0.60449395
KES,99,1,2024-07-18T11:55:31.596Z,english_508.wav,0,pill,9788,19,3,Japanese,m,2,0.2,64.21774851,0.56582153
KES,99,1,2024-07-18T11:55:31.596Z,english_508.wav,0,pill,9788,19,3,Japanese,m,3,0.3,-9.24056951,1.01665474
KES,99,1,2024-07-18T11:55:31.596Z,english_508.wav,0,pill,9788,19,3,Japanese,m,4,0.32341667,-9.74670904,0.78905044
KES,100,2,2024-07-18T11:58:37.557Z,english_791.wav,0,peel,1098,19,3,Japanese,m,0,0.0,65.91759783,1.00744019
KES,100,2,2024-07-18T11:58:37.557Z,english_791.wav,0,peel,1098,19,3,Japanese,m,1,0.1,-36.70731143,0.67929445
KES,100,2,2024-07-18T11:58:37.557Z,english_791.wav,0,peel,1098,19,3,Japanese,m,2,0.2,67.54354156,0.95779159
KES,100,2,2024-07-18T11:58:37.557Z,english_791.wav,0,peel,1098,19,3,Japanese,m,3,0.3,2.89249458,1.93585264
KES,100,2,2024-07-18T11:58:37.557Z,english_791.wav,0,peel,1098,19,3,Japanese,m,4,0.32341667,-55.92630603,0.7587469
KES,101,2,2024-07-18T11:58:37.557Z,english_168.wav,0,pill,3121,19,3,Japanese,m,0,0.0,-69.10300998,1.14537751
KES,101,2,2024-07-18T11:58:37.557Z,english_168.wav,0,pill,3121,19,3,Japanese,m,1,0.1,-24.44784794,1.06854972
KES,101,2,2024-07-18T11:58:37.557Z,english_168.wav,0,pill,3121,19,3,Japanese,m,2,0.2,35.31321785,0.45192262
KES,101,2,2024-07-18T11:58:37.557Z,english_168.wav,0,pill,3121,19,3,Japanese,m,3,0.3,-41.77498511,0.2846318
KES,101,2,2024-07-18T11:58:37.557Z,english_168.wav,0,pill,3121,19,3,Japanese,m,4,0.32341667,19.92389913,0.9853942
KES,102,2,2024-07-18T11:58:37.557Z,english_26.wav,0,peel,10375,19,3,Japanese,m,0,0.0,54.38966875,1.86679487
KES,102,2,2024-07-18T11:58:37.557Z,english_26.wav,0,peel,10375,19,3,Japanese,m,1,0.1,0.3460174,0.79762949
KES,102,2,2024-07-18T11:58:37.557Z,english_26.wav,0,peel,10375,19,3,Japanese,m,2,0.2,-72.33258957,0.93682052
KES,102,2,2024-07-18T11:58:37.557Z,english_26.wav,0,peel,10375,19,3,Japanese,m,3,0.3,67.09142092,1.42469209
KES,102,2,2024-07-18T11:58:37.557Z,english_26.wav,0,peel,10375,19,3,Japanese,m,4,0.32341667,16.00565239,1.17807545
KES,103,2,2024-07-18T11:58:37.557Z,english_297.wav,0,peel,2620,19,3,Japanese,m,0,0.0,43.84745313,1.28698197
KES,103,2,2024-07-18T11:58:37.557Z,english_297.wav,0,peel,2620,19,3,Japanese,m,1,0.1,-76.77337823,0.55126404
KES,103,2,2024-07-18T11:58:37.557Z,english_297.wav,0,peel,2620,19,3,Japanese,m,2,0.2,52.72097055,0.14077967
KES,103,2,2024-07-18T11:58:37.557Z,english_297.wav,0,peel,2620,19,3,Japanese,m,3,0.3,-53.36684977,1.29889067
KES,103,2,2024-07-18T11:58:37.557Z,english_297.wav,0,peel,2620,19,3,Japanese,m,4,0.32341667,81.15212258,1.30715655
KES,104,2,2024-07-18T11:58:37.557Z,english_566.wav,0,pill,1518,19,3,Japanese,m,0,0.0,70.56000247,1.04698608
KES,104,2,2024-07-18T11:58:37.557Z,english_566.wav,0,pill,1518,19,3,Japanese,m,1,0.1,-0.18246418,1.13826263
KES,104,2,2024-07-18T11:58:37.557Z,english_566.wav,0,pill,1518,19,3,Japanese,m,2,0.2,-23.7188651,1.91259561
KES,104,2,2024-07-18T11:58:37.557Z,english_566.wav,0,pill,1518,19,3,Japanese,m,3,0.3,12.5469797,1.08561121
KES,104,2,2024-07-18T11:58:37.557Z,english_566.wav,0,pill,1518,19,3,Japanese,m,4,0.32341667,-84.37997634,1.98926692
KES,105,2,2024-07-18T11:58:37.557Z,english_740.wav,0,pill,5152,19,3,Japanese,m,0,0.0,17.63845752,0.65519257
KES,105,2,2024-07-18T11:58:37.557Z,english_740.wav,0,pill,5152,19,3,Japanese,m,1,0.1,36.88289119,0.996231
KES,105,2,2024-07-18T11:58:37.557Z,english_740.wav,0,pill,5152,19,3,Japanese,m,2,0.2,-63.85348159,0.85360158
KES,105,2,2024-07-18T11:58:37.557Z,english_740.wav,0,pill,5152,19,3,Japanese,m,3,0.3,-97.96670479,1.42654033
KES,105,2,2024-07-18T11:58:37.557Z,english_740.wav,0,pill,5152,19,3,Japanese,m,4,0.32341667,43.035587,1.01691569
KES,106,2,2024-07-18T11:58:37.557Z,english_240.wav,0,pill,1072,19,3,Japanese,m,0,0.0,-96.55121617,1.04823872
KES,106,2,2024-07-18T11:58:37.557Z,english_240.wav,0,pill,1072,19,3,Japanese,m,1,0.1,73.99435309,1.11556714
KES,106,2,2024-07-18T11:58:37.557Z,english_240.wav,0,pill,1072,19,3,Japanese,m,2,0.2,-27.17256968,0.68795106
KES,106,2,2024-07-18T11:58:37.557Z,english_240.wav,0,pill,1072,19,3,Japanese,m,3,0.3,-2.05185553,1.30325309
KES,106,2,2024-07-18T11:58:37.557Z,english_240.wav,0,pill,1072,19,3,Japanese,m,4,0.32341667,80.37406519,0.86977317
KES,107,2,2024-07-18T11:58:37.557Z,english_137.wav,0,peel,1075,19,3,Japanese,m,0,0.0,-81.54177422,0.16940048
KES,107,2,2024-07-18T11:58:37.557Z,english_137.wav,0,peel,1075,19,3,Japanese,m,1,0.1,48.50229113,1.33204053
KES,107,2,2024-07-18T11:58:37.557Z,english_137.wav,0,peel,1075,19,3,Japanese,m,2,0.2,-43.40912925,1.8593258
KES,107,2,2024-07-18T11:58:37.557Z,english_137.wav,0,peel,1075,19,3,Japanese,m,3,0.3,54.89578869,1.77805515
KES,107,2,2024-07-18T11:58:37.557Z,english_137.wav,0,peel,1075,19,3,Japanese,m,4,0.32341667,90.09778797,1.80981769
KES,108,2,2024-07-18T11:58:37.557Z,english_303.wav,0,peel,2314,19,3,Japanese,m,0,0.0,67.00540241,1.22520816
KES,108,2,2024-07-18T11:58:37.557Z,english_303.wav,0,peel,2314,19,3,Japanese,m,1,0.1,32.95821842,1.22732479
KES,108,2,2024-07-18T11:58:37.557Z,english_303.wav,0,peel,2314,19,3,Japanese,m,2,0.2,-23.67517146,0.54923068
KES,108,2,2024-07-18T11:58:37.557Z,english_303.wav,0,peel,2314,19,3,Japanese,m,3,0.3,-66.94926695,0.8977578
KES,108,2,2024-07-18T11:58:37.557Z,english_303.wav,0,peel,2314,19,3,Japanese,m,4,0.32341667,65.71723135,1.41807679
KES,109,2,2024-07-18T11:58:37.557Z,english_251.wav,0,peel,4187,19,3,Japanese,m,0,0.0,-35.26640223,1.59441442
KES,109,2,2024-07-18T11:58:37.557Z,english_251.wav,0,peel,4187,19,3,Japanese,m,1,0.1,-82.14936791,1.21410308
KES,109,2,2024-07-18T11:58:37.557Z,english_251.wav,0,peel,4187,19,3,Japanese,m,2,0.2,39.53587687,0.89125894
KES,109,2,2024-07-18T11:58:37.557Z,english_251.wav,0,peel,4187,19,3,Japanese,m,3,0.3,-75.44024907,0.14763688
KES,109,2,2024-07-18T11:58:37.557Z,english_251.wav,0,peel,4187,19,3,Japanese,m,4,0.32341667,26.94148116,1.71797298
KES,110,2,2024-07-18T11:58:37.557Z,english_105.wav,0,pill,1835,19,3,Japanese,m,0,0.0,15.80659439,1.08535851
KES,110,2,2024-07-18T11:58:37.557Z,english_105.wav,0,pill,1835,19,3,Japanese,m,1,0.1,42.66899606,0.24895576
KES,110,2,2024-07-18T11:58:37.557Z,english_105.wav,0,pill,1835,19,3,Japanese,m,2,0.2,70.76731416,1.16165898
KES,110,2,2024-07-18T11:58:37.557Z,english_105.wav,0,pill,1835,19,3,Japanese,m,3,0.3,70.45261783,1.37248151
KES,110,2,2024-07-18T11:58:37.557Z,english_105.wav,0,pill,1835,19,3,Japanese,m,4,0.32341667,38.01355443,0.81952348
KES,111,2,2024-07-18T11:58:37.557Z,english_537.wav,0,pill,3371,19,3,Japanese,m,0,0.0,70.8709352,0.55947112
KES,111,2,2024-07-18T11:58:37.557Z,english_537.wav,0,pill,3371,19,3,Japanese,m,1,0.1,32.34369018,1.10627241
KES,111,2,2024-07-18T11:58:37.557Z,english_537.wav,0,pill,3371,19,3,Japanese,m,2,0.2,-92.9302278,1.10842043
KES,111,2,2024-07-18T11:58:37.557Z,english_537.wav,0,pill,3371,19,3,Japanese,m,3,0.3,14.89115364,0.86800797
KES,111,2,2024-07-18T11:58:37.557Z,english_537.wav,0,pill,3371,19,3,Japanese,m,4,0.32341667,-67.12260703,1.7659473
KES,112,2,2024-07-18T11:58:37.557Z,english_803.wav,0,pill,2312,19,3,Japanese,m,0,0.0,8.73756077,1.22190991
KES,112,2,2024-07-18T11:58:37.557Z,english_803.wav,0,pill,2312,19,3,Japanese,m,1,0.1,-41.53503623,1.08276728
KES,112,2,2024-07-18T11:58:37.557Z,english_803.wav,0,pill,2312,19,3,Japanese,m,2,0.2,-84.76471985,1.59545905
KES,112,2,2024-07-18T11:58:37.557Z,english_803.wav,0,pill,2312,19,3,Japanese,m,3,0.3,-27.96408635,1.3875394
KES,112,2,2024-07-18T11:58:37.557Z,english_803.wav,0,pill,2312,19,3,Japanese,m,4,0.32341667,72.02290108,0.92287786
KES,113,2,2024-07-18T11:58:37.557Z,english_476.wav,0,pill,2313,19,3,Japanese,m,0,0.0,67.27413703,1.71507594
KES,113,2,2024-07-18T11:58:37.557Z,english_476.wav,0,pill,2313,19,3,Japanese,m,1,0.1,-35.99891676,1.5691203
KES,113,2,2024-07-18T11:58:37.557Z,english_476.wav,0,pill,2313,19,3,Japanese,m,2,0.2,53.1347651,0.1869461
KES,113,2,2024-07-18T11:58:37.557Z,english_476.wav,0,pill,2313,19,3,Japanese,m,3,0.3,-27.53585108,0.94822926
KES,113,2,2024-07-18T11:58:37.557Z,english_476.wav,0,pill,2313,19,3,Japanese,m,4,0.32341667,13.88563074,1.63186757
KES,114,2,2024-07-18T11:58:37.557Z,english_475.wav,0,peel,1743,19,3,Japanese,m,0,0.0,-68.25626322,0.40988158
KES,114,2,2024-07-18T11:58:37.557Z,english_475.wav,0,peel,1743,19,3,Japanese,m,1,0.1,-56.46648788,1.90107213
KES,114,2,2024-07-18T11:58:37.557Z,english_475.wav,0,peel,1743,19,3,Japanese,m,2,0.2,49.77560279,0.54721615
KES,114,2,2024-07-18T11:58:37.557Z,english_475.wav,0,peel,1743,19,3,Japanese,m,3,0.3,-41.74178488,1.80730726
KES,114,2,2024-07-18T11:58:37.557Z,english_475.wav,0,peel,1743,19,3,Japanese,m,4,0.32341667,-60.3255454,0.11427958
KES,115,2,2024-07-18T11:58:37.557Z,english_911.wav,0,pill,950,19,3,Japanese,m,0,0.0,62.6913709,0.89860539
KES,115,2,2024-07-18T11:58:37.557Z,english_911.wav,0,pill,950,19,3,Japanese,m,1,0.1,-28.7089255,0.06791792
KES,115,2,2024-07-18T11:58:37.557Z,english_911.wav,0,pill,950,19,3,Japanese,m,2,0.2,-71.03383871,1.00076401
KES,115,2,2024-07-18T11:58:37.557Z,english_911.wav,0,pill,950,19,3,Japanese,m,3,0.3,93.02773855,1.24961505
KES,115,2,2024-07-18T11:58:37.557Z,english_911.wav,0,pill,950,19,3,Japanese,m,4,0.32341667,93.73973981,1.26639778
KES,116,2,2024-07-18T11:58:37.557Z,english_394.wav,0,pill,3618,19,3,Japanese,m,0,0.0,73.08757955,1.29313131
KES,116,2,2024-07-18T11:58:37.557Z,english_394.wav,0,pill,3618,19,3,Japanese,m,1,0.1,5.60908311,0.62691873
KES,116,2,2024-07-18T11:58:37.557Z,english_394.wav,0,pill,3618,19,3,Japanese,m,2,0.2,76.56705043,1.4938005
KES,116,2,2024-07-18T11:58:37.557Z,english_394.wav,0,pill,3618,19,3,Japanese,m,3,0.3,18.85166324,1.2266925
KES,116,2,2024-07-18T11:58:37.557Z,english_394.wav,0,pill,3618,19,3,Japanese,m,4,0.32341667,8.45052692,0.67844158
KES,117,2,2024-07-18T11:58:37.557Z,english_597.wav,0,peel,1958,19,3,Japanese,m,0,0.0,-83.66792118,0.17389721
KES,117,2,2024-07-18T11:58:37.557Z,english_597.wav,0,peel,1958,19,3,Japanese,m,1,0.1,-19.98744657,0.39349672
KES,117,2,2024-07-18T11:58:37.557Z,english_597.wav,0,peel,1958,19,3,Japanese,m,2,0.2,-30.38458549,1.97590818
KES,117,2,2024-07-18T11:58:37.557Z,english_597.wav,0,peel,1958,19,3,Japanese,m,3,0.3,-63.4406446,1.84988074
KES,117,2,2024-07-18T11:58:37.557Z,english_597.wav,0,peel,1958,19,3,Japanese,m,4,0.32341667,25.67812426,1.17620678
KES,118,2,2024-07-18T11:58:37.557Z,english_799.wav,0,pill,4695,19,3,Japanese,m,0,0.0,-48.4958847,1.9233431
KES,118,2,2024-07-18T11:58:37.557Z,english_799.wav,0,pill,4695,19,3,Japanese,m,1,0.1,-9.52866418,1.11542891
KES,118,2,2024-07-18T11:58:37.557Z,english_799.wav,0,pill,4695,19,3,Japanese,m,2,0.2,1.94176449,0.95865462
KES,118,2,2024-07-18T11:58:37.557Z,english_799.wav,0,pill,4695,19,3,Japanese,m,3,0.3,5.71676827,0.6616034
KES,118,2,2024-07-18T11:58:37.557Z,english_799.wav,0,pill,4695,19,3,Japanese,m,4,0.32341667,30.27282792,1.91183458
KES,119,2,2024-07-18T11:58:37.557Z,english_585.wav,0,peel,507,19,3,Japanese,m,0,0.0,-47.47167609,0.91486293
KES,119,2,2024-07-18T11:58:37.557Z,english_585.wav,0,peel,507,19,3,Japanese,m,1,0.1,-85.73018253,0.8051019
KES,119,2,2024-07-18T11:58:37.557Z,english_585.wav,0,peel,507,19,3,Japanese,m,2,0.2,4.69567907,1.25289508
KES,119,2,2024-07-18T11:58:37.557Z,english_585.wav,0,peel,507,19,3,Japanese,m,3,0.3,51.83381109,0.83258124
KES,119,2,2024-07-18T11:58:37.557Z,english_585.wav,0,peel,507,19,3,Japanese,m,4,0.32341667,14.12777642,1.43411439
KES,120,2,2024-07-18T11:58:37.557Z,english_392.wav,0,pill,1095,19,3,Japanese,m,0,0.0,-12.90562814,1.13144201
KES,120,2,2024-07-18T11:58:37.557Z,english_392.wav,0,pill,1095,19,3,Japanese,m,1,0.1,-1.29416779,0.98893381
KES,120,2,2024-07-18T11:58:37.557Z,english_392.wav,0,pill,1095,19,3,Japanese,m,2,0.2,-53.34155903,0.07204825
KES,120,2,2024-07-18T11:58:37.557Z,english_392.wav,0,pill,1095,19,3,Japanese,m,3,0.3,-48.65153398,1.52779633
KES,120,2,2024-07-18T11:58:37.557Z,english_392.wav,0,pill,1095,19,3,Japanese,m,4,0.32341667,-43.47653164,1.32355089
KES,121,2,2024-07-18T11:58:37.557Z,english_532.wav,0,peel,4820,19,3,Japanese,m,0,0.0,-19.59321792,1.69826346
KES,121,2,2024-07-18T11:58:37.557Z,english_532.wav,0,peel,4820,19,3,Japanese,m,1,0.1,84.44945775,1.19849103
KES,121,2,2024-07-18T11:58:37.557Z,english_532.wav,0,peel,4820,19,3,Japanese,m,2,0.2,-5.6477907,0.05164805
KES,121,2,2024-07-18T11:58:37.557Z,english_532.wav,0,peel,4820,19,3,Japanese,m,3,0.3,-66.11375502,0.74129516
KES,121,2,2024-07-18T11:58:37.557Z,english_532.wav,0,peel,4820,19,3,Japanese,m,4,0.32341667,-46.16722618,0.11393119
KES,122,2,2024-07-18T11:58:37.557Z,english_708.wav,0,pill,3592,19,3,Japanese,m,0,0.0,-27.19248895,0.74061838
KES,122,2,2024-07-18T11:58:37.557Z,english_708.wav,0,pill,3592,19,3,Japanese,m,1,0.1,84.25795725,1.13599963
KES,122,2,2024-07-18T11:58:37.557Z,english_708.wav,0,pill,3592,19,3,Japanese,m,2,0.2,-19.19551503,1.10086254
KES,122,2,2024-07-18T11:58:37.557Z,english_708.wav,0,pill,3592,19,3,Japanese,m,3,0.3,29.88012033,0.53054382
KES,122,2,2024-07-18T11:58:37.557Z,english_708.wav,0,pill,3592,19,3,Japanese,m,4,0.32341667,46.0858662,1.51974387
KES,123,2,2024-07-18T11:58:37.557Z,english_76.wav,0,peel,1684,19,3,Japanese,m,0,0.0,24.78743387,1.26829138
KES,123,2,2024-07-18T11:58:37.557Z,english_76.wav,0,peel,1684,19,3,Japanese,m,1,0.1,-7.95135802,1.4446717
KES,123,2,2024-07-18T11:58:37.557Z,english_76.wav,0,peel,1684,19,3,Japanese,m,2,0.2,-9.56689875,0.88177173
KES,123,2,2024-07-18T11:58:37.557Z,english_76.wav,0,peel,1684,19,3,Japanese,m,3,0.3,-78.25819759,1.63003096
KES,123,2,2024-07-18T11:58:37.557Z,english_76.wav,0,peel,1684,19,3,Japanese,m,4,0.32341667,26.4311908,1.97074408
KES,124,2,2024-07-18T11:58:37.557Z,english_950.wav,0,peel,1457,19,3,Japanese,m,0,0.0,-21.9776243,0.20752278
KES,124,2,2024-07-18T11:58:37.557Z,english_950.wav,0,peel,1457,19,3,Japanese,m,1,0.1,-41.40023943,1.93939622
KES,124,2,2024-07-18T11:58:37.557Z,english_950.wav,0,peel,1457,19,3,Japanese,m,2,0.2,48.01515584,1.55608343
KES,124,2,2024-07-18T11:58:37.557Z,english_950.wav,0,peel,1457,19,3,Japanese,m,3,0.3,-87.95551252,1.49634866
KES,124,2,2024-07-18T11:58:37.557Z,english_950.wav,0,peel,1457,19,3,Japanese,m,4,0.32341667,-39.5252386,0.91783384
KES,125,2,2024-07-18T11:58:37.557Z,english_128.wav,0,pill,2513,19,3,Japanese,m,0,0.0,-84.07301703,0.96445051
KES,125,2,2024-07-18T11:58:37.557Z,english_128.wav,0,pill,2513,19,3,Japanese,m,1,0.1,0.2051398,0.77165422
KES,125,2,2024-07-18T11:58:37.557Z,english_128.wav,0,pill,2513,19,3,Japanese,m,2,0.2,50.77588291,0.60279997
KES,125,2,2024-07-18T11:58:37.557Z,english_128.wav,0,pill,2513,19,3,Japanese,m,3,0.3,3.27834455,0.59915485
KES,125,2,2024-07-18T11:58:37.557Z,english_128.wav,0,pill,2513,19,3,Japanese,m,4,0.32341667,59.5943459,0.43521132
KES,126,2,2024-07-18T11:58:37.557Z,english_200.wav,0,peel,4498,19,3,Japanese,m,0,0.0,48.98677304,1.07797747
KES,126,2,2024-07-18T11:58:37.557Z,english_200.wav,0,peel,4498,19,3,Japanese,m,1,0.1,13.54292536,1.23698451
KES,126,2,2024-07-18T11:58:37.557Z,english_200.wav,0,peel,4498,19,3,Japanese,m,2,0.2,15.98335964,0.85343662
KES,126,2,2024-07-18T11:58:37.557Z,english_200.wav,0,peel,4498,19,3,Japanese,m,3,0.3,-46.7743147,1.38707984
KES,126,2,2024-07-18T11:58:37.557Z,english_200.wav,0,peel,4498,19,3,Japanese,m,4,0.32341667,-12.18386714,0.65409939
KES,127,2,2024-07-18T11:58:37.557Z,english_798.wav,0,peel,5162,19,3,Japanese,m,0,0.0,-16.40769998,1.85457914
KES,127,2,2024-07-18T11:58:37.557Z,english_798.wav,0,peel,5162,19,3,Japanese,m,1,0.1,3.00381127,1.50219522
KES,127,2,2024-07-18T11:58:37.557Z,english_798.wav,0,peel,5162,19,3,Japanese,m,2,0.2,-31.24410556,0.78751403
KES,127,2,2024-07-18T11:58:37.557Z,english_798.wav,0,peel,5162,19,3,Japanese,m,3,0.3,-53.27973877,1.17339142
KES,127,2,2024-07-18T11:58:37.557Z,english_798.wav,0,peel,5162,19,3,Japanese,m,4,0.32341667,91.43563813,1.30184409
KES,128,2,2024-07-18T11:58:37.557Z,english_847.wav,0,peel,1812,19,3,Japanese,m,0,0.0,76.45550118,0.38890762
KES,128,2,2024-07-18T11:58:37.557Z,english_847.wav,0,peel,1812,19,3,Japanese,m,1,0.1,-18.38123868,1.01718805
KES,128,2,2024-07-18T11:58:37.557Z,english_847.wav,0,peel,1812,19,3,Japanese,m,2,0.2,18.403778,1.24872656
KES,128,2,2024-07-18T11:58:37.557Z,english_847.wav,0,peel,1812,19,3,Japanese,m,3,0.3,57.196546,0.81951257
KES,128,2,2024-07-18T11:58:37.557Z,english_847.wav,0,peel,1812,19,3,Japanese,m,4,0.32341667,32.99763753,0.74194876
KES,129,2,2024-07-18T11:58:37.557Z,english_272.wav,0,peel,1903,19,3,Japanese,m,0,0.0,61.82030971,1.51341556
KES,129,2,2024-07-18T11:58:37.557Z,english_272.wav,0,peel,1903,19,3,Japanese,m,1,0.1,4.16580657,0.43290826
KES,129,2,2024-07-18T11:58:37.557Z,english_272.wav,0,peel,1903,19,3,Japanese,m,2,0.2,-53.2567432,1.82734584
KES,129,2,2024-07-18T11:58:37.557Z,english_272.wav,0,peel,1903,19,3,Japanese,m,3,0.3,-52.99830768,0.22094446
KES,129,2,2024-07-18T11:58:37.557Z,english_272.wav,0,peel,1903,19,3,Japanese,m,4,0.32341667,-92.9943793,1.88040337
KES,130,2,2024-07-18T11:58:37.557Z,english_50.wav,0,pill,1647,19,3,Japanese,m,0,0.0,-72.72872807,1.68140442
KES,130,2,2024-07-18T11:58:37.557Z,english_50.wav,0,pill,1647,19,3,Japanese,m,1,0.1,-88.33626222,1.82728433
KES,130,2,2024-07-18T11:58:37.557Z,english_50.wav,0,pill,1647,19,3,Japanese,m,2,0.2,-2.18882928,0.80476824
KES,130,2,2024-07-18T11:58:37.557Z,english_50.wav,0,pill,1647,19,3,Japanese,m,3,0.3,60.61456424,0.21215651
KES,130,2,2024-07-18T11:58:37.557Z,english_50.wav,0,pill,1647,19,3,Japanese,m,4,0.32341667,95.28335061,1.87644163
KES,131,2,2024-07-18T11:58:37.557Z,english_907.wav,0,peel,1804,19,3,Japanese,m,0,0.0,13.97638225,0.68575839
KES,131,2,2024-07-18T11:58:37.557Z,english_907.wav,0,peel,1804,19,3,Japanese,m,1,0.1,36.81481791,1.58611259
KES,131,2,2024-07-18T11:58:37.557Z,english_907.wav,0,peel,1804,19,3,Japanese,m,2,0.2,1.21651202,1.59547025
KES,131,2,2024-07-18T11:58:37.557Z,english_907.wav,0,peel,1804,19,3,Japanese,m,3,0.3,35.47405672,0.75888392
KES,131,2,2024-07-18T11:58:37.557Z,english_907.wav,0,peel,1804,19,3,Japanese,m,4,0.32341667,-27.93760057,0.06937964
KES,132,2,2024-07-18T11:58:37.557Z,english_990.wav,0,peel,2560,19,3,Japanese,m,0,0.0,-17.98511021,0.6190444
KES,132,2,2024-07-18T11:58:37.557Z,english_990.wav,0,peel,2560,19,3,Japanese,m,1,0.1,-90.3005676,0.77548775
KES,132,2,2024-07-18T11:58:37.557Z,english_990.wav,0,peel,2560,19,3,Japanese,m,2,0.2,4.37005684,0.55013224
KES,132,2,2024-07-18T11:58:37.557Z,english_990.wav,0,peel,2560,19,3,Japanese,m,3,0.3,83.93705034,0.66784051
KES,132,2,2024-07-18T11:58:37.557Z,english_990.wav,0,peel,2560,19,3,Japanese,m,4,0.32341667,-36.57803625,0.32384409
KES,133,2,2024-07-18T11:58:37.557Z,english_631.wav,0,pill,6020,19,3,Japanese,m,0,0.0,-74.37700429,0.77307226
KES,133,2,2024-07-18T11:58:37.557Z,english_631.wav,0,pill,6020,19,3,Japanese,m,1,0.1,-18.72790858,0.75923189
KES,133,2,2024-07-18T11:58:37.557Z,english_631.wav,0,pill,6020,19,3,Japanese,m,2,0.2,-40.03216697,1.00825659
KES,133,2,2024-07-18T11:58:37.557Z,english_631.wav,0,pill,6020,19,3,Japanese,m,3,0.3,-98.5967418,1.46579839
KES,133,2,2024-07-18T11:58:37.557Z,english_631.wav,0,pill,6020,19,3,Japanese,m,4,0.32341667,-41.89017921,0.34107994
KES,134,2,2024-07-18T11:58:37.557Z,english_27.wav,0,pill,2527,19,3,Japanese,m,0,0.0,-6.18374659,1.89085405
KES,134,2,2024-07-18T11:58:37.557Z,english_27.wav,0,pill,2527,19,3,Japanese,m,1,0.1,32.21095844,0.80138328
KES,134,2,2024-07-18T11:58:37.557Z,english_27.wav,0,pill,2527,19,3,Japanese,m,2,0.2,21.02729748,1.01248602
KES,134,2,2024-07-18T11:58:37.557Z,english_27.wav,0,pill,2527,19,3,Japanese,m,3,0.3,4.79829383,1.67412938
KES,134,2,2024-07-18T11:58:37.557Z,english_27.wav,0,pill,2527,19,3,Japanese,m,4,0.32341667,-70.7577659,0.3387802
KES,135,2,2024-07-18T11:58:37.557Z,english_809.wav,0,peel,1259,19,3,Japanese,m,0,0.0,-9.08149959,0.73203403
KES,135,2,2024-07-18T11:58:37.557Z,english_809.wav,0,peel,1259,19,3,Japanese,m,1,0.1,12.16544582,0.53159531
KES,135,2,2024-07-18T11:58:37.557Z,english_809.wav,0,peel,1259,19,3,Japanese,m,2,0.2,40.52205867,1.48114639
KES,135,2,2024-07-18T11:58:37.557Z,english_809.wav,0,peel,1259,19,3,Japanese,m,3,0.3,-94.19679153,1.77078339
KES,135,2,2024-07-18T11:58:37.557Z,english_809.wav,0,peel,1259,19,3,Japanese,m,4,0.32341667,-5.82752377,1.36117577
KES,136,2,2024-07-18T11:58:37.557Z,english_572.wav,0,pill,2213,19,3,Japanese,m,0,0.0,-16.16189062,1.82210005
KES,136,2,2024-07-18T11:58:37.557Z,english_572.wav,0,pill,2213,19,3,Japanese,m,1,0.1,-40.8511413,0.80249033
KES,136,2,2024-07-18T11:58:37.557Z,english_572.wav,0,pill,2213,19,3,Japanese,m,2,0.2,-77.3747243,0.69959732
KES,136,2,2024-07-18T11:58:37.557Z,english_572.wav,0,pill,2213,19,3,Japanese,m,3,0.3,87.62803369,0.43311894
KES,136,2,2024-07-18T11:58:37.557Z,english_572.wav,0,pill,2213,19,3,Japanese,m,4,0.32341667,81.6005998,1.25204325
KES,137,2,2024-07-18T11:58:37.557Z,english_424.wav,0,peel,3968,19,3,Japanese,m,0,0.0,-7.44814198,1.7438251
KES,137,2,2024-07-18T11:58:37.557Z,english_424.wav,0,peel,3968,19,3,Japanese,m,1,0.1,9.0703424,1.33993463
KES,137,2,2024-07-18T11:58:37.557Z,english_424.wav,0,peel,3968,19,3,Japanese,m,2,0.2,-65.6005214,0.96535207
KES,137,2,2024-07-18T11:58:37.557Z,english_424.wav,0,peel,3968,19,3,Japanese,m,3,0.3,79.88163057,0.39557207
KES,137,2,2024-07-18T11:58:37.557Z,english_424.wav,0,peel,3968,19,3,Japanese,m,4,0.32341667,48.78273262,0.47346175
KES,138,2,2024-07-18T11:58:37.557Z,english_909.wav,0,peel,1648,19,3,Japanese,m,0,0.0,-19.4205152,0.17681169
KES,138,2,2024-07-18T11:58:37.557Z,english_909.wav,0,peel,1648,19,3,Japanese,m,1,0.1,-31.830868,1.02014656
KES,138,2,2024-07-18T11:58:37.557Z,english_909.wav,0,peel,1648,19,3,Japanese,m,2,0.2,71.05598051,1.59945112
KES,138,2,2024-07-18T11:58:37.557Z,english_909.wav,0,peel,1648,19,3,Japanese,m,3,0.3,-13.09259164,1.33685121
KES,138,2,2024-07-18T11:58:37.557Z,english_909.wav,0,peel,1648,19,3,Japanese,m,4,0.32341667,-99.47743822,0.41114962
KES,139,2,2024-07-18T11:58:37.557Z,english_348.wav,0,peel,2192,19,3,Japanese,m,0,0.0,21.35215111,0.19799702
KES,139,2,2024-07-18T11:58:37.557Z,english_348.wav,0,peel,2192,19,3,Japanese,m,1,0.1,14.79849269,0.60931017
KES,139,2,2024-07-18T11:58:37.557Z,english_348.wav,0,peel,2192,19,3,Japanese,m,2,0.2,53.1788992,0.16102666
KES,139,2,2024-07-18T11:58:37.557Z,english_348.wav,0,peel,2192,19,3,Japanese,m,3,0.3,-95.85723561,1.54818605
KES,139,2,2024-07-18T11:58:37.557Z,english_348.wav,0,peel,2192,19,3,Japanese,m,4,0.32341667,5.27283499,0.26552753
KES,140,2,2024-07-18T11:58:37.557Z,english_119.wav,0,pill,3371,19,3,Japanese,m,0,0.0,-72.13623542,1.33116293
KES,140,2,2024-07-18T11:58:37.557Z,english_119.wav,0,pill,3371,19,3,Japanese,m,1,0.1,-47.93500709,0.14257244
KES,140,2,2024-07-18T11:58:37.557Z,english_119.wav,0,pill,3371,19,3,Japanese,m,2,0.2,91.39212861,1.10285667
KES,140,2,2024-07-18T11:58:37.557Z,english_119.wav,0,pill,3371,19,3,Japanese,m,3,0.3,-4.62561099,0.57572872
KES,140,2,2024-07-18T11:58:37.557Z,english_119.wav,0,pill,3371,19,3,Japanese,m,4,0.32341667,-33.86599352,1.36512269
KES,141,2,2024-07-18T11:58:37.557Z,english_260.wav,0,pill,7478,19,3,Japanese,m,0,0.0,-45.73422918,1.75247731
KES,141,2,2024-07-18T11:58:37.557Z,english_260.wav,0,pill,7478,19,3,Japanese,m,1,0.1,-23.757295,1.29821829
KES,141,2,2024-07-18T11:58:37.557Z,english_260.wav,0,pill,7478,19,3,Japanese,m,2,0.2,-1.17180464,0.50372963
KES,141,2,2024-07-18T11:58:37.557Z,english_260.wav,0,pill,7478,19,3,Japanese,m,3,0.3,42.98000529,1.19905143
KES,141,2,2024-07-18T11:58:37.557Z,english_260.wav,0,pill,7478,19,3,Japanese,m,4,0.32341667,7.49715463,0.66690199
KES,142,2,2024-07-18T11:58:37.557Z,english_787.wav,0,peel,1540,19,3,Japanese,m,0,0.0,57.99353047,1.96251481
KES,142,2,2024-07-18T11:58:37.557Z,english_787.wav,0,peel,1540,19,3,Japanese,m,1,0.1,-40.79525362,0.94444479
KES,142,2,2024-07-18T11:58:37.557Z,english_787.wav,0,peel,1540,19,3,Japanese,m,2,0.2,23.78072576,0.924778
KES,142,2,2024-07-18T11:58:37.557Z,english_787.wav,0,peel,1540,19,3,Japanese,m,3,0.3,72.96982422,0.31383508
KES,142,2,2024-07-18T11:58:37.557Z,english_787.wav,0,peel,1540,19,3,Japanese,m,4,0.32341667,53.76957631,0.68947425
KES,143,2,2024-07-18T11:58:37.557Z,english_433.wav,0,pill,4451,19,3,Japanese,m,0,0.0,-74.58178472,0.69852952
KES,143,2,2024-07-18T11:58:37.557Z,english_433.wav,0,pill,4451,19,3,Japanese,m,1,0.1,-50.00917691,1.92405883
KES,143,2,2024-07-18T11:58:37.557Z,english_433.wav,0,pill,4451,19,3,Japanese,m,2,0.2,48.18572343,0.3905825
KES,143,2,2024-07-18T11:58:37.557Z,english_433.wav,0,pill,4451,19,3,Japanese,m,3,0.3,-63.95387597,0.31453116
KES,143,2,2024-07-18T11:58:37.557Z,english_433.wav,0,pill,4451,19,3,Japanese,m,4,0.32341667,-68.91859183,1.4953114
KES,144,2,2024-07-18T11:58:37.557Z,english_512.wav,0,peel,712,19,3,Japanese,m,0,0.0,92.76608442,1.91273189
KES,144,2,2024-07-18T11:58:37.557Z,english_512.wav,0,peel,712,19,3,Japanese,m,1,0.1,-20.68005196,1.02897077
KES,144,2,2024-07-18T11:58:37.557Z,english_512.wav,0,peel,712,19,3,Japanese,m,2,0.2,-55.10098951,0.7965214
KES,144,2,2024-07-18T11:58:37.557Z,english_512.wav,0,peel,712,19,3,Japanese,m,3,0.3,79.8086149,1.98502062
KES,144,2,2024-07-18T11:58:37.557Z,english_512.wav,0,peel,712,19,3,Japanese,m,4,0.32341667,-91.21136492,0.13323305
KES,145,2,2024-07-18T11:58:37.557Z,english_54.wav,0,peel,1787,19,3,Japanese,m,0,0.0,1.86764875,1.47639799
KES,145,2,2024-07-18T11:58:37.557Z,english_54.wav,0,peel,1787,19,3,Japanese,m,1,0.1,-1.78672474,1.92944336
KES,145,2,2024-07-18T11:58:37.557Z,english_54.wav,0,peel,1787,19,3,Japanese,m,2,0.2,-26.58380414,0.76292987
KES,145,2,2024-07-18T11:58:37.557Z,english_54.wav,0,peel,1787,19,3,Japanese,m,3,0.3,-2.56688864,1.78735236
KES,145,2,2024-07-18T11:58:37.557Z,english_54.wav,0,peel,1787,19,3,Japanese,m,4,0.32341667,-76.29238916,0.80366269
KES,146,2,2024-07-18T11:58:37.557Z,english_875.wav,0,peel,6538,19,3,Japanese,m,0,0.0,-72.29566874,0.47412948
KES,146,2,2024-07-18T11:58:37.557Z,english_875.wav,0,peel,6538,19,3,Japanese,m,1,0.1,40.49821439,0.97105678
KES,146,2,2024-07-18T11:58:37.557Z,english_875.wav,0,peel,6538,19,3,Japanese,m,2,0.2,61.66936014,1.31175081
KES,146,2,2024-07-18T11:58:37.557Z,english_875.wav,0,peel,6538,19,3,Japanese,m,3,0.3,36.92950197,0.55015514
KES,146,2,2024-07-18T11:58:37.557Z,english_875.wav,0,peel,6538,19,3,Japanese,m,4,0.32341667,61.03530789,1.23529794
KES,147,2,2024-07-18T11:58:37.557Z,english_403.wav,0,pill,1357,19,3,Japanese,m,0,0.0,-92.65414009,1.93574734
KES,147,2,2024-07-18T11:58:37.557Z,english_403.wav,0,pill,1357,19,3,Japanese,m,1,0.1,75.99659731,0.36447309
KES,147,2,2024-07-18T11:58:37.557Z,english_403.wav,0,pill,1357,19,3,Japanese,m,2,0.2,-27.37801557,1.02888701
KES,147,2,2024-07-18T11:58:37.557Z,english_403.wav,0,pill,1357,19,3,Japanese,m,3,0.3,-80.04540334,0.02385722
KES,147,2,2024-07-18T11:58:37.557Z,english_403.wav,0,pill,1357,19,3,Japanese,m,4,0.32341667,30.50648557,1.40553938
KES,148,2,2024-07-18T11:58:37.557Z,english_385.wav,0,peel,2190,19,3,Japanese,m,0,0.0,-55.07910634,1.75648555
KES,148,2,2024-07-18T11:58:37.557Z,english_385.wav,0,peel,2190,19,3,Japanese,m,1,0.1,-94.47680079,1.20856462
KES,148,2,2024-07-18T11:58:37.557Z,english_385.wav,0,peel,2190,19,3,Japanese,m,2,0.2,38.70414457,0.98103352
KES,148,2,2024-07-18T11:58:37.557Z,english_385.wav,0,peel,2190,19,3,Japanese,m,3,0.3,-46.17691,1.45745263
KES,148,2,2024-07-18T11:58:37.557Z,english_385.wav,0,peel,2190,19,3,Japanese,m,4,0.32341667,2.5941508,0.88353815
KES,149,2,2024-07-18T11:58:37.557Z,english_461.wav,0,peel,2209,19,3,Japanese,m,0,0.0,-99.86661298,0.04975834
KES,149,2,2024-07-18T11:58:37.557Z,english_461.wav,0,peel,2209,19,3,Japanese,m,1,0.1,65.11959058,1.27856071
KES,149,2,2024-07-18T11:58:37.557Z,english_461.wav,0,peel,2209,19,3,Japanese,m,2,0.2,-96.19635976,1.53618081
KES,149,2,2024-07-18T11:58:37.557Z,english_461.wav,0,peel,2209,19,3,Japanese,m,3,0.3,56.69155656,1.97602464
KES,149,2,2024-07-18T11:58:37.557Z,english_461.wav,0,peel,2209,19,3,Japanese,m,4,0.32341667,-82.13106063,1.41647384
KES,150,3,2024-07-18T12:02:54.996Z,english_446.wav,0,peel,1489,19,3,Japanese,m,0,0.0,-50.90487531,0.84721497
KES,150,3,2024-07-18T12:02:54.996Z,english_446.wav,0,peel,1489,19,3,Japanese,m,1,0.1,77.9515464,0.90863808
KES,150,3,2024-07-18T12:02:54.996Z,english_446.wav,0,peel,1489,19,3,Japanese,m,2,0.2,12.96913102,0.45582271
KES,150,3,2024-07-18T12:02:54.996Z,english_446.wav,0,peel,1489,19,3,Japanese,m,3,0.3,31.20275809,0.65529325
KES,150,3,2024-07-18T12:02:54.996Z,english_446.wav,0,peel,1489,19,3,Japanese,m,4,0.32341667,-30.39700356,0.08422993
KES,151,3,2024-07-18T12:02:54.996Z,english_492.wav,0,peel,959,19,3,Japanese,m,0,0.0,-66.2832746,0.52930651
KES,151,3,2024-07-18T12:02:54.996Z,english_492.wav,0,peel,959,19,3,Japanese,m,1,0.1,-19.36008054,1.11739795
KES,151,3,2024-07-18T12:02:54.996Z,english_492.wav,0,peel,959,19,3,Japanese,m,2,0.2,95.25769545,1.86018292
KES,151,3,2024-07-18T12:02:54.996Z,english_492.wav,0,peel,959,19,3,Japanese,m,3,0.3,-42.69351484,0.07313262
KES,151,3,2024-07-18T12:02:54.996Z,english_492.wav,0,peel,959,19,3,Japanese,m,4,0.32341667,48.13359561,0.30480454
KES,152,3,2024-07-18T12:02:54.996Z,english_451.wav,0,pill,1270,19,3,Japanese,m,0,0.0,-87.31297583,0.44823779
KES,152,3,2024-07-18T12:02:54.996Z,english_451.wav,0,pill,1270,19,3,Japanese,m,1,0.1,-44.51362963,0.44678563
KES,152,3,2024-07-18T12:02:54.996Z,english_451.wav,0,pill,1270,19,3,Japanese,m,2,0.2,-15.52945473,1.69444841
KES,152,3,2024-07-18T12:02:54.996Z,english_451.wav,0,pill,1270,19,3,Japanese,m,3,0.3,11.70886435,0.18586344
KES,152,3,2024-07-18T12:02:54.996Z,english_451.wav,0,pill,1270,19,3,Japanese,m,4,0.32341667,82.84342256,0.9677256
KES,153,3,2024-07-18T12:02:54.996Z,english_315.wav,0,pill,1095,19,3,Japanese,m,0,0.0,3.76150079,1.04293113
KES,153,3,2024-07-18T12:02:54.996Z,english_315.wav,0,pill,1095,19,3,Japanese,m,1,0.1,4.93204799,0.55537984
KES,153,3,2024-07-18T12:02:54.996Z,english_315.wav,0,pill,1095,19,3,Japanese,m,2,0.2,-81.53480532,1.13024782
KES,153,3,2024-07-18T12:02:54.996Z,english_315.wav,0,pill,1095,19,3,Japanese,m,3,0.3,45.94577355,1.06792043
KES,153,3,2024-07-18T12:02:54.996Z,english_315.wav,0,pill,1095,19,3,Japanese,m,4,0.32341667,-55.96194099,1.80369969
KES,154,3,2024-07-18T12:02:54.996Z,english_236.wav,0,pill,1345,19,3,Japanese,m,0,0.0,14.26564849,0.89253674
KES,154,3,2024-07-18T12:02:54.996Z,english_236.wav,0,pill,1345,19,3,Japanese,m,1,0.1,60.97219358,0.38957934
KES,154,3,2024-07-18T12:02:54.996Z,english_236.wav,0,pill,1345,19,3,Japanese,m,2,0.2,-12.39626346,1.55558051
KES,154,3,2024-07-18T12:02:54.996Z,english_236.wav,0,pill,1345,19,3,Japanese,m,3,0.3,-62.87774076,0.2682718
KES,154,3,2024-07-18T12:02:54.996Z,english_236.wav,0,pill,1345,19,3,Japanese,m,4,0.32341667,-75.97684705,1.92182597
KES,155,3,2024-07-18T12:02:54.996Z,english_808.wav,0,pill,1649,19,3,Japanese,m,0,0.0,23.02589628,1.07384277
KES,155,3,2024-07-18T12:02:54.996Z,english_808.wav,0,pill,1649,19,3,Japanese,m,1,0.1,10.58817829,1.3919179
KES,155,3,2024-07-18T12:02:54.996Z,english_808.wav,0,pill,1649,19,3,Japanese,m,2,0.2,36.77134597,0.54960524
KES,155,3,2024-07-18T12:02:54.996Z,english_808.wav,0,pill,1649,19,3,Japanese,m,3,0.3,-30.31603221,1.95871365
KES,155,3,2024-07-18T12:02:54.996Z,english_808.wav,0,pill,1649,19,3,Japanese,m,4,0.32341667,9.74764343,0.79150541
KES,156,3,2024-07-18T12:02:54.996Z,english_156.wav,0,pill,2389,19,3,Japanese,m,0,0.0,93.86570948,0.27803573
KES,156,3,2024-07-18T12:02:54.996Z,english_156.wav,0,pill,2389,19,3,Japanese,m,1,0.1,63.74639013,0.76121308
KES,156,3,2024-07-18T12:02:54.996Z,english_156.wav,0,pill,2389,19,3,Japanese,m,2,0.2,-97.10775444,0.98438609
KES,156,3,2024-07-18T12:02:54.996Z,english_156.wav,0,pill,2389,19,3,Japanese,m,3,0.3,99.76737427,0.34877861
KES,156,3,2024-07-18T12:02:54.996Z,english_156.wav,0,pill,2389,19,3,Japanese,m,4,0.32341667,11.29868277,0.58154428
KES,157,3,2024-07-18T12:02:54.996Z,english_182.wav,0,pill,4315,19,3,Japanese,m,0,0.0,57.43769915,0.89919812
KES,157,3,2024-07-18T12:02:54.996Z,english_182.wav,0,pill,4315,19,3,Japanese,m,1,0.1,-87.06676545,1.25243937
KES,157,3,2024-07-18T12:02:54.996Z,english_182.wav,0,pill,4315,19,3,Japanese,m,2,0.2,-91.52107401,1.35021358
KES,157,3,2024-07-18T12:02:54.996Z,english_182.wav,0,pill,4315,19,3,Japanese,m,3,0.3,52.0843588,0.52787795
KES,157,3,2024-07-18T12:02:54.996Z,english_182.wav,0,pill,4315,19,3,Japanese,m,4,0.32341667,18.07264914,0.72620624
KES,158,3,2024-07-18T12:02:54.996Z,english_912.wav,0,peel,1852,19,3,Japanese,m,0,0.0,-43.64864707,0.87210048
KES,158,3,2024-07-18T12:02:54.996Z,english_912.wav,0,peel,1852,19,3,Japanese,m,1,0.1,94.54433808,1.43243955
KES,158,3,2024-07-18T12:02:54.996Z,english_912.wav,0,peel,1852,19,3,Japanese,m,2,0.2,67.98324072,1.49899487
KES,158,3,2024-07-18T12:02:54.996Z,english_912.wav,0,peel,1852,19,3,Japanese,m,3,0.3,9.27329172,0.42663795
KES,158,3,2024-07-18T12:02:54.996Z,english_912.wav,0,peel,1852,19,3,Japanese,m,4,0.32341667,-55.44973818,0.19299009
KES,159,3,2024-07-18T12:02:54.996Z,english_102.wav,0,peel,23398,19,3,Japanese,m,0,0.0,32.71328306,1.2311829
KES,159,3,2024-07-18T12:02:54.996Z,english_102.wav,0,peel,23398,19,3,Japanese,m,1,0.1,59.73255369,0.25599615
KES,159,3,2024-07-18T12:02:54.996Z,english_102.wav,0,peel,23398,19,3,Japanese,m,2,0.2,-0.64397298,1.7526023
KES,159,3,2024-07-18T12:02:54.996Z,english_102.wav,0,peel,23398,19,3,Japanese,m,3,0.3,-37.18099902,1.98319627
KES,159,3,2024-07-18T12:02:54.996Z,english_102.wav,0,peel,23398,19,3,Japanese,m,4,0.32341667,41.63197766,1.38410598
KES,160,3,2024-07-18T12:02:54.996Z,english_70.wav,0,pill,2414,19,3,Japanese,m,0,0.0,-53.09237622,1.21678364
KES,160,3,2024-07-18T12:02:54.996Z,english_70.wav,0,pill,2414,19,3,Japanese,m,1,0.1,85.97526897,0.94111324
KES,160,3,2024-07-18T12:02:54.996Z,english_70.wav,0,pill,2414,19,3,Japanese,m,2,0.2,25.5645184,1.03926055
KES,160,3,2024-07-18T12:02:54.996Z,english_70.wav,0,pill,2414,19,3,Japanese,m,3,0.3,1.25172137,0.29519406
KES,160,3,2024-07-18T12:02:54.996Z,english_70.wav,0,pill,2414,19,3,Japanese,m,4,0.32341667,93.59431896,0.80175783
KES,161,3,2024-07-18T12:02:54.996Z,english_574.wav,0,peel,726,19,3,Japanese,m,0,0.0,53.128433,0.28349694
KES,161,3,2024-07-18T12:02:54.996Z,english_574.wav,0,peel,726,19,3,Japanese,m,1,0.1,70.24248151,0.66519348
KES,161,3,2024-07-18T12:02:54.996Z,english_574.wav,0,peel,726,19,3,Japanese,m,2,0.2,47.13290739,1.25768036
KES,161,3,2024-07-18T12:02:54.996Z,english_574.wav,0,peel,726,19,3,Japanese,m,3,0.3,52.31480293,1.43482954
KES,161,3,2024-07-18T12:02:54.996Z,english_574.wav,0,peel,726,19,3,Japanese,m,4,0.32341667,-33.06438127,1.23350688
KES,162,3,2024-07-18T12:02:54.996Z,english_571.wav,0,peel,1881,19,3,Japanese,m,0,0.0,-42.92588422,0.65590276
KES,162,3,2024-07-18T12:02:54.996Z,english_571.wav,0,peel,1881,19,3,Japanese,m,1,0.1,-87.39276897,1.8306878
KES,162,3,2024-07-18T12:02:54.996Z,english_571.wav,0,peel,1881,19,3,Japanese,m,2,0.2,19.06282168,0.06889765
KES,162,3,2024-07-18T12:02:54.996Z,english_571.wav,0,peel,1881,19,3,Japanese,m,3,0.3,-99.30459792,0.29364209
KES,162,3,2024-07-18T12:02:54.996Z,english_571.wav,0,peel,1881,19,3,Japanese,m,4,0.32341667,41.25263337,1.388798
KES,163,3,2024-07-18T12:02:54.996Z,english_779.wav,0,pill,1946,19,3,Japanese,m,0,0.0,-66.48303018,1.22216448
KES,163,3,2024-07-18T12:02:54.996Z,english_779.wav,0,pill,1946,19,3,Japanese,m,1,0.1,55.33592885,1.30288261
KES,163,3,2024-07-18T12:02:54.996Z,english_779.wav,0,pill,1946,19,3,Japanese,m,2,0.2,67.38671669,0.25409759
KES,163,3,2024-07-18T12:02:54.996Z,english_779.wav,0,pill,1946,19,3,Japanese,m,3,0.3,65.49052189,1.76174581
KES,163,3,2024-07-18T12:02:54.996Z,english_779.wav,0,pill,1946,19,3,Japanese,m,4,0.32341667,-12.12955258,0.12280057
KES,164,3,2024-07-18T12:02:54.996Z,english_48.wav,0,pill,1524,19,3,Japanese,m,0,0.0,73.79399561,0.74385981
KES,164,3,2024-07-18T12:02:54.996Z,english_48.wav,0,pill,1524,19,3,Japanese,m,1,0.1,-6.33056249,1.05457567
KES,164,3,2024-07-18T12:02:54.996Z,english_48.wav,0,pill,1524,19,3,Japanese,m,2,0.2,-25.55346814,0.45493163
KES,164,3,2024-07-18T12:02:54.996Z,english_48.wav,0,pill,1524,19,3,Japanese,m,3,0.3,46.43305776,0.06513279
KES,164,3,2024-07-18T12:02:54.996Z,english_48.wav,0,pill,1524,19,3,Japanese,m,4,0.32341667,-46.56414761,0.46755714
KES,165,3,2024-07-18T12:02:54.996Z,english_511.wav,0,peel,2521,19,3,Japanese,m,0,0.0,-54.05076571,1.68448531
KES,165,3,2024-07-18T12:02:54.996Z,english_511.wav,0,peel,2521,19,3,Japanese,m,1,0.1,58.21305336,0.64957271
KES,165,3,2024-07-18T12:02:54.996Z,english_511.wav,0,peel,2521,19,3,Japanese,m,2,0.2,93.28984864,1.47534814
KES,165,3,2024-07-18T12:02:54.996Z,english_511.wav,0,peel,2521,19,3,Japanese,m,3,0.3,-93.08437199,1.38615571
KES,165,3,2024-07-18T12:02:54.996Z,english_511.wav,0,peel,2521,19,3,Japanese,m,4,0.32341667,48.49476441,0.71972648
KES,166,3,2024-07-18T12:02:54.996Z,english_989.wav,0,pill,5436,19,3,Japanese,m,0,0.0,-51.1051603,1.00035195
KES,166,3,2024-07-18T12:02:54.996Z,english_989.wav,0,pill,5436,19,3,Japanese,m,1,0.1,-91.26717948,0.46124463
KES,166,3,2024-07-18T12:02:54.996Z,english_989.wav,0,pill,5436,19,3,Japanese,m,2,0.2,73.5145218,0.77735517
KES,166,3,2024-07-18T12:02:54.996Z,english_989.wav,0,pill,5436,19,3,Japanese,m,3,0.3,54.43703181,1.21549894
KES,166,3,2024-07-18T12:02:54.996Z,english_989.wav,0,pill,5436,19,3,Japanese,m,4,0.32341667,-36.95823638,0.33045291
KES,167,3,2024-07-18T12:02:54.996Z,english_233.wav,0,peel,1675,19,3,Japanese,m,0,0.0,-3.83672366,0.89757337
KES,167,3,2024-07-18T12:02:54.996Z,english_233.wav,0,peel,1675,19,3,Japanese,m,1,0.1,-39.8423846,0.76715273
KES,167,3,2024-07-18T12:02:54.996Z,english_233.wav,0,peel,1675,19,3,Japanese,m,2,0.2,85.69163348,1.38961473
KES,167,3,2024-07-18T12:02:54.996Z,english_233.wav,0,peel,1675,19,3,Japanese,m,3,0.3,40.61484277,0.78787282
KES,167,3,2024-07-18T12:02:54.996Z,english_233.wav,0,peel,1675,19,3,Japanese,m,4,0.32341667,-44.9800047,0.48224738
KES,168,3,2024-07-18T12:02:54.996Z,english_18.wav,0,pill,2334,19,3,Japanese,m,0,0.0,-61.9567004,0.0,0.45038722
KES,168,3,2024-07-18T12:02:54.996Z,english_18.wav,0,pill,2334,19,3,Japanese,m,1,0.1,39.2027204,0.1,1.56185221
KES,168,3,2024-07-18T12:02:54.996Z,english_18.wav,0,pill,2334,19,3,Japanese,m,2,0.2,-0.0626834214,0.2,0.80652275
KES,168,3,2024-07-18T12:02:54.996Z,english_18.wav,0,pill,2334,19,3,Japanese,m,3,0.3,-72.2820301,0.3,0.39505163
KES,168,3,2024-07-18T12:02:54.996Z,english_18.wav,0,pill,2334,19,3,Japanese,m,4,0.323416667,-52.9459242,0.32341667,0.50402069
KES,169,3,2024-07-18T12:02:54.996Z,english_28.wav,0,pill,1199,19,3,Japanese,m,0,0.0,46.68805065,0.37315412
KES,169,3,2024-07-18T12:02:54.996Z,english_28.wav,0,pill,1199,19,3,Japanese,m,1,0.1,-19.91180265,0.08560602
KES,169,3,2024-07-18T12:02:54.996Z,english_28.wav,0,pill,1199,19,3,Japanese,m,2,0.2,30.74929008,0.67724734
KES,169,3,2024-07-18T12:02:54.996Z,english_28.wav,0,pill,1199,19,3,Japanese,m,3,0.3,14.01537548,0.53332652
KES,169,3,2024-07-18T12:02:54.996Z,english_28.wav,0,pill,1199,19,3,Japanese,m,4,0.32341667,-32.95915121,1.33480721
KES,170,3,2024-07-18T12:02:54.996Z,english_435.wav,0,peel,692,19,3,Japanese,m,0,0.0,-61.49548479,0.36819492
KES,170,3,2024-07-18T12:02:54.996Z,english_435.wav,0,peel,692,19,3,Japanese,m,1,0.1,18.53940612,1.77990606
KES,170,3,2024-07-18T12:02:54.996Z,english_435.wav,0,peel,692,19,3,Japanese,m,2,0.2,-39.20879804,1.09377229
KES,170,3,2024-07-18T12:02:54.996Z,english_435.wav,0,peel,692,19,3,Japanese,m,3,0.3,-30.66509024,1.98213584
KES,170,3,2024-07-18T12:02:54.996Z,english_435.wav,0,peel,692,19,3,Japanese,m,4,0.32341667,7.07056367,0.5936591
KES,171,3,2024-07-18T12:02:54.996Z,english_681.wav,0,peel,3313,19,3,Japanese,m,0,0.0,65.45313908,1.43173201
KES,171,3,2024-07-18T12:02:54.996Z,english_681.wav,0,peel,3313,19,3,Japanese,m,1,0.1,23.22224239,1.64604346
KES,171,3,2024-07-18T12:02:54.996Z,english_681.wav,0,peel,3313,19,3,Japanese,m,2,0.2,44.35096717,0.82186037
KES,171,3,2024-07-18T12:02:54.996Z,english_681.wav,0,peel,3313,19,3,Japanese,m,3,0.3,67.45757963,0.26689352
KES,171,3,2024-07-18T12:02:54.996Z,english_681.wav,0,peel,3313,19,3,Japanese,m,4,0.32341667,55.5822091,1.64490636
KES,172,3,2024-07-18T12:02:54.996Z,english_737.wav,0,pill,1944,19,3,Japanese,m,0,0.0,21.35751723,1.17499048
KES,172,3,2024-07-18T12:02:54.996Z,english_737.wav,0,pill,1944,19,3,Japanese,m,1,0.1,61.52152077,1.09581395
KES,172,3,2024-07-18T12:02:54.996Z,english_737.wav,0,pill,1944,19,3,Japanese,m,2,0.2,-29.75610596,0.62940412
KES,172,3,2024-07-18T12:02:54.996Z,english_737.wav,0,pill,1944,19,3,Japanese,m,3,0.3,-39.80249708,0.11793022
KES,172,3,2024-07-18T12:02:54.996Z,english_737.wav,0,pill,1944,19,3,Japanese,m,4,0.32341667,-14.64937497,0.62377861
KES,173,3,2024-07-18T12:02:54.996Z,english_305.wav,0,peel,1529,19,3,Japanese,m,0,0.0,-23.95553444,0.70401859
KES,173,3,2024-07-18T12:02:54.996Z,english_305.wav,0,peel,1529,19,3,Japanese,m,1,0.1,-97.95184299,0.00875292
KES,173,3,2024-07-18T12:02:54.996Z,english_305.wav,0,peel,1529,19,3,Japanese,m,2,0.2,95.23338475,1.8427633
KES,173,3,2024-07-18T12:02:54.996Z,english_305.wav,0,peel,1529,19,3,Japanese,m,3,0.3,10.74081096,1.83453859
KES,173,3,2024-07-18T12:02:54.996Z,english_305.wav,0,peel,1529,19,3,Japanese,m,4,0.32341667,24.9757793,1.77535614
KES,174,3,2024-07-18T12:02:54.996Z,english_523.wav,0,pill,2516,19,3,Japanese,m,0,0.0,8.07414344,0.20594791
KES,174,3,2024-07-18T12:02:54.996Z,english_523.wav,0,pill,2516,19,3,Japanese,m,1,0.1,27.61667564,1.87511385
KES,174,3,2024-07-18T12:02:54.996Z,english_523.wav,0,pill,2516,19,3,Japanese,m,2,0.2,12.25175146,0.19246655
KES,174,3,2024-07-18T12:02:54.996Z,english_523.wav,0,pill,2516,19,3,Japanese,m,3,0.3,5.7333769,0.42766967
KES,174,3,2024-07-18T12:02:54.996Z,english_523.wav,0,pill,2516,19,3,Japanese,m,4,0.32341667,77.72310536,1.43882185
KES,175,3,2024-07-18T12:02:54.996Z,english_13.wav,0,peel,1270,19,3,Japanese,m,0,0.0,85.79405153,0.93145275
KES,175,3,2024-07-18T12:02:54.996Z,english_13.wav,0,peel,1270,19,3,Japanese,m,1,0.1,-22.00296346,0.69811424
KES,175,3,2024-07-18T12:02:54.996Z,english_13.wav,0,peel,1270,19,3,Japanese,m,2,0.2,45.89988476,1.08090206
KES,175,3,2024-07-18T12:02:54.996Z,english_13.wav,0,peel,1270,19,3,Japanese,m,3,0.3,-17.47250281,0.35305012
KES,175,3,2024-07-18T12:02:54.996Z,english_13.wav,0,peel,1270,19,3,Japanese,m,4,0.32341667,-30.34546067,0.65915907
KES,176,3,2024-07-18T12:02:54.996Z,english_234.wav,0,pill,2117,19,3,Japanese,m,0,0.0,-96.19421376,0.0948498
KES,176,3,2024-07-18T12:02:54.996Z,english_234.wav,0,pill,2117,19,3,Japanese,m,1,0.1,96.13097212,1.36649532
KES,176,3,2024-07-18T12:02:54.996Z,english_234.wav,0,pill,2117,19,3,Japanese,m,2,0.2,-68.61115628,0.00312314
KES,176,3,2024-07-18T12:02:54.996Z,english_234.wav,0,pill,2117,19,3,Japanese,m,3,0.3,58.3624958,0.01269103
KES,176,3,2024-07-18T12:02:54.996Z,english_234.wav,0,pill,2117,19,3,Japanese,m,4,0.32341667,60.51337125,1.76377265
KES,177,3,2024-07-18T12:02:54.996Z,english_993.wav,0,pill,1331,19,3,Japanese,m,0,0.0,-66.15449332,1.17508471
KES,177,3,2024-07-18T12:02:54.996Z,english_993.wav,0,pill,1331,19,3,Japanese,m,1,0.1,33.08083728,0.94744004
KES,177,3,2024-07-18T12:02:54.996Z,english_993.wav,0,pill,1331,19,3,Japanese,m,2,0.2,51.46479562,0.74931244
KES,177,3,2024-07-18T12:02:54.996Z,english_993.wav,0,pill,1331,19,3,Japanese,m,3,0.3,-80.58676237,0.35628979
KES,177,3,2024-07-18T12:02:54.996Z,english_993.wav,0,pill,1331,19,3,Japanese,m,4,0.32341667,81.97884737,1.25416847
KES,178,3,2024-07-18T12:02:54.996Z,english_441.wav,0,peel,628,19,3,Japanese,m,0,0.0,-34.50722314,1.86415324
KES,178,3,2024-07-18T12:02:54.996Z,english_441.wav,0,peel,628,19,3,Japanese,m,1,0.1,91.55175756,1.34062972
KES,178,3,2024-07-18T12:02:54.996Z,english_441.wav,0,peel,628,19,3,Japanese,m,2,0.2,-74.07917439,1.20894222
KES,178,3,2024-07-18T12:02:54.996Z,english_441.wav,0,peel,628,19,3,Japanese,m,3,0.3,82.08396891,0.00248362
KES,178,3,2024-07-18T12:02:54.996Z,english_441.wav,0,peel,628,19,3,Japanese,m,4,0.32341667,13.2563292,0.67485278
KES,179,3,2024-07-18T12:02:54.996Z,english_95.wav,0,pill,1686,19,3,Japanese,m,0,0.0,-9.17523314,0.73915747
KES,179,3,2024-07-18T12:02:54.996Z,english_95.wav,0,pill,1686,19,3,Japanese,m,1,0.1,-95.16832451,1.01172325
KES,179,3,2024-07-18T12:02:54.996Z,english_95.wav,0,pill,1686,19,3,Japanese,m,2,0.2,-21.6130257,1.19817679
KES,179,3,2024-07-18T12:02:54.996Z,english_95.wav,0,pill,1686,19,3,Japanese,m,3,0.3,0.51006416,1.53285694
KES,179,3,2024-07-18T12:02:54.996Z,english_95.wav,0,pill,1686,19,3,Japanese,m,4,0.32341667,43.00131518,1.08383215
KES,180,3,2024-07-18T12:02:54.996Z,english_959.wav,0,pill,1748,19,3,Japanese,m,0,0.0,-78.42285057,1.71892855
KES,180,3,2024-07-18T12:02:54.996Z,english_959.wav,0,pill,1748,19,3,Japanese,m,1,0.1,6.44734251,1.96402951
KES,180,3,2024-07-18T12:02:54.996Z,english_959.wav,0,pill,1748,19,3,Japanese,m,2,0.2,20.74966326,0.26247596
KES,180,3,2024-07-18T12:02:54.996Z,english_959.wav,0,pill,1748,19,3,Japanese,m,3,0.3,-29.69680039,1.29464598
KES,180,3,2024-07-18T12:02:54.996Z,english_959.wav,0,pill,1748,19,3,Japanese,m,4,0.32341667,34.2282551,1.77868038
KES,181,3,2024-07-18T12:02:54.996Z,english_890.wav,0,peel,2710,19,3,Japanese,m,0,0.0,-68.21158685,0.82535308
KES,181,3,2024-07-18T12:02:54.996Z,english_890.wav,0,peel,2710,19,3,Japanese,m,1,0.1,-83.19360642,1.79167423
KES,181,3,2024-07-18T12:02:54.996Z,english_890.wav,0,peel,2710,19,3,Japanese,m,2,0.2,79.13343252,0.78297904
KES,181,3,2024-07-18T12:02:54.996Z,english_890.wav,0,peel,2710,19,3,Japanese,m,3,0.3,80.54326003,0.23441015
KES,181,3,2024-07-18T12:02:54.996Z,english_890.wav,0,peel,2710,19,3,Japanese,m,4,0.32341667,-30.48737523,1.41044901
KES,182,3,2024-07-18T12:02:54.996Z,english_466.wav,0,peel,1054,19,3,Japanese,m,0,0.0,59.64739432,1.91119383
KES,182,3,2024-07-18T12:02:54.996Z,english_466.wav,0,peel,1054,19,3,Japanese,m,1,0.1,-20.63646321,1.29572765
KES,182,3,2024-07-18T12:02:54.996Z,english_466.wav,0,peel,1054,19,3,Japanese,m,2,0.2,62.86141463,0.99944191
KES,182,3,2024-07-18T12:02:54.996Z,english_466.wav,0,peel,1054,19,3,Japanese,m,3,0.3,-65.74461877,1.01221774
KES,182,3,2024-07-18T12:02:54.996Z,english_466.wav,0,peel,1054,19,3,Japanese,m,4,0.32341667,44.70090984,0.89697717
KES,183,3,2024-07-18T12:02:54.996Z,english_316.wav,0,pill,1415,19,3,Japanese,m,0,0.0,57.83477319,0.36818456
KES,183,3,2024-07-18T12:02:54.996Z,english_316.wav,0,pill,1415,19,3,Japanese,m,1,0.1,-58.77664409,0.44097806
KES,183,3,2024-07-18T12:02:54.996Z,english_316.wav,0,pill,1415,19,3,Japanese,m,2,0.2,-11.91657597,0.11283472
