subj,trial,block,date,stim,stim_order,response,rt,age,english,language,sex,param_index,segment,pitch,stretch
KUA,0,0,2024-06-30T18:31:21.970Z,english_467.wav,0,peel,2479,45,4,japanese,f,0,0.0,-0.54983343,1.824027
KUA,0,0,2024-06-30T18:31:21.970Z,english_467.wav,0,peel,2479,45,4,japanese,f,1,0.1,-84.54516502,1.06295632
KUA,0,0,2024-06-30T18:31:21.970Z,english_467.wav,0,peel,2479,45,4,japanese,f,2,0.2,54.30123894,1.09976952
KUA,0,0,2024-06-30T18:31:21.970Z,english_467.wav,0,peel,2479,45,4,japanese,f,3,0.3,-82.00368026,1.11766566
KUA,0,0,2024-06-30T18:31:21.970Z,english_467.wav,0,peel,2479,45,4,japanese,f,4,0.32341667,-54.10816942,0.44824559
KUA,1,0,2024-06-30T18:31:21.970Z,english_176.wav,0,pill,1415,45,4,japanese,f,0,0.0,-62.84257592,0.68193044
KUA,1,0,2024-06-30T18:31:21.970Z,english_176.wav,0,pill,1415,45,4,japanese,f,1,0.1,86.95506575,0.26950978
KUA,1,0,2024-06-30T18:31:21.970Z,english_176.wav,0,pill,1415,45,4,japanese,f,2,0.2,-28.0397163,0.45294908
KUA,1,0,2024-06-30T18:31:21.970Z,english_176.wav,0,pill,1415,45,4,japanese,f,3,0.3,-64.80124174,0.91353321
KUA,1,0,2024-06-30T18:31:21.970Z,english_176.wav,0,pill,1415,45,4,japanese,f,4,0.32341667,-98.66046935,1.10925614
KUA,2,0,2024-06-30T18:31:21.970Z,english_979.wav,0,peel,4372,45,4,japanese,f,0,0.0,-1.00654814,1.61411081
KUA,2,0,2024-06-30T18:31:21.970Z,english_979.wav,0,peel,4372,45,4,japanese,f,1,0.1,18.39835707,1.30464512
KUA,2,0,2024-06-30T18:31:21.970Z,english_979.wav,0,peel,4372,45,4,japanese,f,2,0.2,-42.91789413,0.93120215
KUA,2,0,2024-06-30T18:31:21.970Z,english_979.wav,0,peel,4372,45,4,japanese,f,3,0.3,-58.29527223,0.87145212
KUA,2,0,2024-06-30T18:31:21.970Z,english_979.wav,0,peel,4372,45,4,japanese,f,4,0.32341667,86.14740424,1.17332389
KUA,3,0,2024-06-30T18:31:21.970Z,english_618.wav,0,pill,5061,45,4,japanese,f,0,0.0,58.31579708,1.46895394
KUA,3,0,2024-06-30T18:31:21.970Z,english_618.wav,0,pill,5061,45,4,japanese,f,1,0.1,6.96253647,0.48660613
KUA,3,0,2024-06-30T18:31:21.970Z,english_618.wav,0,pill,5061,45,4,japanese,f,2,0.2,-4.41581756,1.00963977
KUA,3,0,2024-06-30T18:31:21.970Z,english_618.wav,0,pill,5061,45,4,japanese,f,3,0.3,-63.5775247,1.29399549
KUA,3,0,2024-06-30T18:31:21.970Z,english_618.wav,0,pill,5061,45,4,japanese,f,4,0.32341667,97.77631762,0.84060701
KUA,4,0,2024-06-30T18:31:21.970Z,english_100.wav,0,peel,2200,45,4,japanese,f,0,0.0,-66.86198445,0.79522553
KUA,4,0,2024-06-30T18:31:21.970Z,english_100.wav,0,peel,2200,45,4,japanese,f,1,0.1,32.23990363,0.27784591
KUA,4,0,2024-06-30T18:31:21.970Z,english_100.wav,0,peel,2200,45,4,japanese,f,2,0.2,-63.31896149,1.76330212
KUA,4,0,2024-06-30T18:31:21.970Z,english_100.wav,0,peel,2200,45,4,japanese,f,3,0.3,-73.00038049,0.60946618
KUA,4,0,2024-06-30T18:31:21.970Z,english_100.wav,0,peel,2200,45,4,japanese,f,4,0.32341667,32.15710315,0.42695433
KUA,5,0,2024-06-30T18:31:21.970Z,english_177.wav,0,pill,1708,45,4,japanese,f,0,0.0,87.98258728,1.54790065
KUA,5,0,2024-06-30T18:31:21.970Z,english_177.wav,0,pill,1708,45,4,japanese,f,1,0.1,87.12011565,0.90861448
KUA,5,0,2024-06-30T18:31:21.970Z,english_177.wav,0,pill,1708,45,4,japanese,f,2,0.2,-29.82518494,0.58649069
KUA,5,0,2024-06-30T18:31:21.970Z,english_177.wav,0,pill,1708,45,4,japanese,f,3,0.3,54.38835911,0.51296238
KUA,5,0,2024-06-30T18:31:21.970Z,english_177.wav,0,pill,1708,45,4,japanese,f,4,0.32341667,53.98423531,1.78492888
KUA,6,0,2024-06-30T18:31:21.970Z,english_854.wav,0,peel,1021,45,4,japanese,f,0,0.0,-3.2532791,1.78139632
KUA,6,0,2024-06-30T18:31:21.970Z,english_854.wav,0,peel,1021,45,4,japanese,f,1,0.1,19.40039505,1.50161717
KUA,6,0,2024-06-30T18:31:21.970Z,english_854.wav,0,peel,1021,45,4,japanese,f,2,0.2,-14.62360686,0.8978804
KUA,6,0,2024-06-30T18:31:21.970Z,english_854.wav,0,peel,1021,45,4,japanese,f,3,0.3,-63.13820282,1.66267041
KUA,6,0,2024-06-30T18:31:21.970Z,english_854.wav,0,peel,1021,45,4,japanese,f,4,0.32341667,44.42181264,1.68588082
KUA,7,0,2024-06-30T18:31:21.970Z,english_898.wav,0,peel,1320,45,4,japanese,f,0,0.0,77.23607787,0.41308158
KUA,7,0,2024-06-30T18:31:21.970Z,english_898.wav,0,peel,1320,45,4,japanese,f,1,0.1,-36.99854877,1.59324842
KUA,7,0,2024-06-30T18:31:21.970Z,english_898.wav,0,peel,1320,45,4,japanese,f,2,0.2,16.09723403,1.42339693
KUA,7,0,2024-06-30T18:31:21.970Z,english_898.wav,0,peel,1320,45,4,japanese,f,3,0.3,29.12208023,1.17478291
KUA,7,0,2024-06-30T18:31:21.970Z,english_898.wav,0,peel,1320,45,4,japanese,f,4,0.32341667,-69.45423228,1.88393163
KUA,8,0,2024-06-30T18:31:21.970Z,english_837.wav,0,peel,1127,45,4,japanese,f,0,0.0,-10.72674788,0.56055933
KUA,8,0,2024-06-30T18:31:21.970Z,english_837.wav,0,peel,1127,45,4,japanese,f,1,0.1,33.60933966,1.16716927
KUA,8,0,2024-06-30T18:31:21.970Z,english_837.wav,0,peel,1127,45,4,japanese,f,2,0.2,-1.37827911,1.02731607
KUA,8,0,2024-06-30T18:31:21.970Z,english_837.wav,0,peel,1127,45,4,japanese,f,3,0.3,29.3498758,1.96665864
KUA,8,0,2024-06-30T18:31:21.970Z,english_837.wav,0,peel,1127,45,4,japanese,f,4,0.32341667,31.86641091,0.45425732
KUA,9,0,2024-06-30T18:31:21.970Z,english_718.wav,0,peel,2956,45,4,japanese,f,0,0.0,-62.54470118,0.40124114
KUA,9,0,2024-06-30T18:31:21.970Z,english_718.wav,0,peel,2956,45,4,japanese,f,1,0.1,-40.70811043,0.49945062
KUA,9,0,2024-06-30T18:31:21.970Z,english_718.wav,0,peel,2956,45,4,japanese,f,2,0.2,-11.25435391,1.54880463
KUA,9,0,2024-06-30T18:31:21.970Z,english_718.wav,0,peel,2956,45,4,japanese,f,3,0.3,-68.52161814,0.39118497
KUA,9,0,2024-06-30T18:31:21.970Z,english_718.wav,0,peel,2956,45,4,japanese,f,4,0.32341667,-77.89834334,0.07447668
KUA,10,0,2024-06-30T18:31:21.970Z,english_663.wav,0,peel,1292,45,4,japanese,f,0,0.0,55.84438863,1.29444713
KUA,10,0,2024-06-30T18:31:21.970Z,english_663.wav,0,peel,1292,45,4,japanese,f,1,0.1,-89.02249371,0.90215198
KUA,10,0,2024-06-30T18:31:21.970Z,english_663.wav,0,peel,1292,45,4,japanese,f,2,0.2,-13.61345685,1.61104603
KUA,10,0,2024-06-30T18:31:21.970Z,english_663.wav,0,peel,1292,45,4,japanese,f,3,0.3,14.50375693,0.31375715
KUA,10,0,2024-06-30T18:31:21.970Z,english_663.wav,0,peel,1292,45,4,japanese,f,4,0.32341667,80.63633164,1.01784406
KUA,11,0,2024-06-30T18:31:21.970Z,english_540.wav,0,pill,1481,45,4,japanese,f,0,0.0,-46.6752609,1.16352469
KUA,11,0,2024-06-30T18:31:21.970Z,english_540.wav,0,pill,1481,45,4,japanese,f,1,0.1,-93.20209644,0.0234781
KUA,11,0,2024-06-30T18:31:21.970Z,english_540.wav,0,pill,1481,45,4,japanese,f,2,0.2,64.96419662,0.05926191
KUA,11,0,2024-06-30T18:31:21.970Z,english_540.wav,0,pill,1481,45,4,japanese,f,3,0.3,-12.16484387,1.47406284
KUA,11,0,2024-06-30T18:31:21.970Z,english_540.wav,0,pill,1481,45,4,japanese,f,4,0.32341667,-44.34688232,0.60104864
KUA,12,0,2024-06-30T18:31:21.970Z,english_655.wav,0,peel,1062,45,4,japanese,f,0,0.0,84.9811401,1.09123398
KUA,12,0,2024-06-30T18:31:21.970Z,english_655.wav,0,peel,1062,45,4,japanese,f,1,0.1,70.1996811,0.51840547
KUA,12,0,2024-06-30T18:31:21.970Z,english_655.wav,0,peel,1062,45,4,japanese,f,2,0.2,-5.60681941,0.58569322
KUA,12,0,2024-06-30T18:31:21.970Z,english_655.wav,0,peel,1062,45,4,japanese,f,3,0.3,-33.00324328,1.11132849
KUA,12,0,2024-06-30T18:31:21.970Z,english_655.wav,0,peel,1062,45,4,japanese,f,4,0.32341667,24.65490624,0.28465301
KUA,13,0,2024-06-30T18:31:21.970Z,english_445.wav,0,peel,903,45,4,japanese,f,0,0.0,88.00598922,1.42174052
KUA,13,0,2024-06-30T18:31:21.970Z,english_445.wav,0,peel,903,45,4,japanese,f,1,0.1,96.51328737,1.49122509
KUA,13,0,2024-06-30T18:31:21.970Z,english_445.wav,0,peel,903,45,4,japanese,f,2,0.2,29.11093561,0.62095286
KUA,13,0,2024-06-30T18:31:21.970Z,english_445.wav,0,peel,903,45,4,japanese,f,3,0.3,69.6076589,1.14630865
KUA,13,0,2024-06-30T18:31:21.970Z,english_445.wav,0,peel,903,45,4,japanese,f,4,0.32341667,-59.73938179,1.38538671
KUA,14,0,2024-06-30T18:31:21.970Z,english_564.wav,0,peel,1051,45,4,japanese,f,0,0.0,-4.16228192,1.35245187
KUA,14,0,2024-06-30T18:31:21.970Z,english_564.wav,0,peel,1051,45,4,japanese,f,1,0.1,-8.38376801,0.24798142
KUA,14,0,2024-06-30T18:31:21.970Z,english_564.wav,0,peel,1051,45,4,japanese,f,2,0.2,52.82752554,1.26376743
KUA,14,0,2024-06-30T18:31:21.970Z,english_564.wav,0,peel,1051,45,4,japanese,f,3,0.3,-92.64870354,0.73548171
KUA,14,0,2024-06-30T18:31:21.970Z,english_564.wav,0,peel,1051,45,4,japanese,f,4,0.32341667,-48.86146536,0.1394123
KUA,15,0,2024-06-30T18:31:21.970Z,english_422.wav,0,pill,1175,45,4,japanese,f,0,0.0,-79.81150205,1.34332733
KUA,15,0,2024-06-30T18:31:21.970Z,english_422.wav,0,pill,1175,45,4,japanese,f,1,0.1,-2.02836706,0.77514932
KUA,15,0,2024-06-30T18:31:21.970Z,english_422.wav,0,pill,1175,45,4,japanese,f,2,0.2,-11.18998235,0.33214039
KUA,15,0,2024-06-30T18:31:21.970Z,english_422.wav,0,pill,1175,45,4,japanese,f,3,0.3,52.04958687,0.53493982
KUA,15,0,2024-06-30T18:31:21.970Z,english_422.wav,0,pill,1175,45,4,japanese,f,4,0.32341667,-63.48776447,0.45685022
KUA,16,0,2024-06-30T18:31:21.970Z,english_44.wav,0,peel,897,45,4,japanese,f,0,0.0,-68.86201344,1.38154723
KUA,16,0,2024-06-30T18:31:21.970Z,english_44.wav,0,peel,897,45,4,japanese,f,1,0.1,36.61833882,0.11193842
KUA,16,0,2024-06-30T18:31:21.970Z,english_44.wav,0,peel,897,45,4,japanese,f,2,0.2,-60.65796264,0.83798569
KUA,16,0,2024-06-30T18:31:21.970Z,english_44.wav,0,peel,897,45,4,japanese,f,3,0.3,-99.582901,0.3073865
KUA,16,0,2024-06-30T18:31:21.970Z,english_44.wav,0,peel,897,45,4,japanese,f,4,0.32341667,68.59920212,1.10922951
KUA,17,0,2024-06-30T18:31:21.970Z,english_714.wav,0,peel,785,45,4,japanese,f,0,0.0,6.62463448,0.98205871
KUA,17,0,2024-06-30T18:31:21.970Z,english_714.wav,0,peel,785,45,4,japanese,f,1,0.1,-7.37775178,1.90018259
KUA,17,0,2024-06-30T18:31:21.970Z,english_714.wav,0,peel,785,45,4,japanese,f,2,0.2,-58.74003357,1.33033281
KUA,17,0,2024-06-30T18:31:21.970Z,english_714.wav,0,peel,785,45,4,japanese,f,3,0.3,-38.84014254,0.20009115
KUA,17,0,2024-06-30T18:31:21.970Z,english_714.wav,0,peel,785,45,4,japanese,f,4,0.32341667,-23.67047323,0.44650169
KUA,18,0,2024-06-30T18:31:21.970Z,english_330.wav,0,peel,866,45,4,japanese,f,0,0.0,-66.0623823,0.0,1.84658225
KUA,18,0,2024-06-30T18:31:21.970Z,english_330.wav,0,peel,866,45,4,japanese,f,1,0.1,-90.7862333,0.1,0.94726644
KUA,18,0,2024-06-30T18:31:21.970Z,english_330.wav,0,peel,866,45,4,japanese,f,2,0.2,-0.00810713819,0.2,1.52006519
KUA,18,0,2024-06-30T18:31:21.970Z,english_330.wav,0,peel,866,45,4,japanese,f,3,0.3,-61.2450651,0.3,1.63286843
KUA,18,0,2024-06-30T18:31:21.970Z,english_330.wav,0,peel,866,45,4,japanese,f,4,0.323416667,-0.344586516,0.32341667,1.74173618
KUA,19,0,2024-06-30T18:31:21.970Z,english_683.wav,0,pill,2471,45,4,japanese,f,0,0.0,-73.37543508,1.70409633
KUA,19,0,2024-06-30T18:31:21.970Z,english_683.wav,0,pill,2471,45,4,japanese,f,1,0.1,66.4080647,1.25556383
KUA,19,0,2024-06-30T18:31:21.970Z,english_683.wav,0,pill,2471,45,4,japanese,f,2,0.2,46.46812351,0.87554738
KUA,19,0,2024-06-30T18:31:21.970Z,english_683.wav,0,pill,2471,45,4,japanese,f,3,0.3,71.67755016,1.32863005
KUA,19,0,2024-06-30T18:31:21.970Z,english_683.wav,0,pill,2471,45,4,japanese,f,4,0.32341667,2.86253031,0.20364682
KUA,20,0,2024-06-30T18:31:21.970Z,english_791.wav,0,peel,827,45,4,japanese,f,0,0.0,65.91759783,1.00744019
KUA,20,0,2024-06-30T18:31:21.970Z,english_791.wav,0,peel,827,45,4,japanese,f,1,0.1,-36.70731143,0.67929445
KUA,20,0,2024-06-30T18:31:21.970Z,english_791.wav,0,peel,827,45,4,japanese,f,2,0.2,67.54354156,0.95779159
KUA,20,0,2024-06-30T18:31:21.970Z,english_791.wav,0,peel,827,45,4,japanese,f,3,0.3,2.89249458,1.93585264
KUA,20,0,2024-06-30T18:31:21.970Z,english_791.wav,0,peel,827,45,4,japanese,f,4,0.32341667,-55.92630603,0.7587469
KUA,21,0,2024-06-30T18:31:21.970Z,english_958.wav,0,pill,2152,45,4,japanese,f,0,0.0,17.32592779,0.33109802
KUA,21,0,2024-06-30T18:31:21.970Z,english_958.wav,0,pill,2152,45,4,japanese,f,1,0.1,89.03376041,1.83345348
KUA,21,0,2024-06-30T18:31:21.970Z,english_958.wav,0,pill,2152,45,4,japanese,f,2,0.2,-24.89219777,1.95859429
KUA,21,0,2024-06-30T18:31:21.970Z,english_958.wav,0,pill,2152,45,4,japanese,f,3,0.3,-92.10798137,1.50296341
KUA,21,0,2024-06-30T18:31:21.970Z,english_958.wav,0,pill,2152,45,4,japanese,f,4,0.32341667,3.27828718,0.1474067
KUA,22,0,2024-06-30T18:31:21.970Z,english_42.wav,0,pill,1337,45,4,japanese,f,0,0.0,-15.36487641,1.81244548
KUA,22,0,2024-06-30T18:31:21.970Z,english_42.wav,0,pill,1337,45,4,japanese,f,1,0.1,11.43696078,1.472484
KUA,22,0,2024-06-30T18:31:21.970Z,english_42.wav,0,pill,1337,45,4,japanese,f,2,0.2,34.58464447,0.21504119
KUA,22,0,2024-06-30T18:31:21.970Z,english_42.wav,0,pill,1337,45,4,japanese,f,3,0.3,68.67640378,0.80253652
KUA,22,0,2024-06-30T18:31:21.970Z,english_42.wav,0,pill,1337,45,4,japanese,f,4,0.32341667,-67.59461511,1.53231421
KUA,23,0,2024-06-30T18:31:21.970Z,english_707.wav,0,peel,883,45,4,japanese,f,0,0.0,-17.04120346,1.06535483
KUA,23,0,2024-06-30T18:31:21.970Z,english_707.wav,0,peel,883,45,4,japanese,f,1,0.1,-57.44917128,0.89541794
KUA,23,0,2024-06-30T18:31:21.970Z,english_707.wav,0,peel,883,45,4,japanese,f,2,0.2,90.75848643,1.64838001
KUA,23,0,2024-06-30T18:31:21.970Z,english_707.wav,0,peel,883,45,4,japanese,f,3,0.3,96.79852424,0.75431717
KUA,23,0,2024-06-30T18:31:21.970Z,english_707.wav,0,peel,883,45,4,japanese,f,4,0.32341667,27.01716591,0.48082071
KUA,24,0,2024-06-30T18:31:21.970Z,english_222.wav,0,peel,778,45,4,japanese,f,0,0.0,-5.8882644,0.97478352
KUA,24,0,2024-06-30T18:31:21.970Z,english_222.wav,0,peel,778,45,4,japanese,f,1,0.1,-15.4334302,1.79573252
KUA,24,0,2024-06-30T18:31:21.970Z,english_222.wav,0,peel,778,45,4,japanese,f,2,0.2,-39.50203868,1.71948726
KUA,24,0,2024-06-30T18:31:21.970Z,english_222.wav,0,peel,778,45,4,japanese,f,3,0.3,67.79027175,0.41699719
KUA,24,0,2024-06-30T18:31:21.970Z,english_222.wav,0,peel,778,45,4,japanese,f,4,0.32341667,-43.17344259,0.26315099
KUA,25,0,2024-06-30T18:31:21.970Z,english_513.wav,0,pill,1151,45,4,japanese,f,0,0.0,76.78578212,0.02403043
KUA,25,0,2024-06-30T18:31:21.970Z,english_513.wav,0,pill,1151,45,4,japanese,f,1,0.1,20.42124481,0.85164369
KUA,25,0,2024-06-30T18:31:21.970Z,english_513.wav,0,pill,1151,45,4,japanese,f,2,0.2,83.32251122,1.08658436
KUA,25,0,2024-06-30T18:31:21.970Z,english_513.wav,0,pill,1151,45,4,japanese,f,3,0.3,47.28432413,0.40639055
KUA,25,0,2024-06-30T18:31:21.970Z,english_513.wav,0,pill,1151,45,4,japanese,f,4,0.32341667,-50.64117466,1.29336046
KUA,26,0,2024-06-30T18:31:21.970Z,english_142.wav,0,pill,1054,45,4,japanese,f,0,0.0,-46.59943425,0.40064358
KUA,26,0,2024-06-30T18:31:21.970Z,english_142.wav,0,pill,1054,45,4,japanese,f,1,0.1,63.17145436,0.61162855
KUA,26,0,2024-06-30T18:31:21.970Z,english_142.wav,0,pill,1054,45,4,japanese,f,2,0.2,73.87775976,0.23189939
KUA,26,0,2024-06-30T18:31:21.970Z,english_142.wav,0,pill,1054,45,4,japanese,f,3,0.3,-84.55157756,1.54635995
KUA,26,0,2024-06-30T18:31:21.970Z,english_142.wav,0,pill,1054,45,4,japanese,f,4,0.32341667,20.35536038,1.86221744
KUA,27,0,2024-06-30T18:31:21.970Z,english_478.wav,0,peel,2818,45,4,japanese,f,0,0.0,-70.9954821,0.91489342
KUA,27,0,2024-06-30T18:31:21.970Z,english_478.wav,0,peel,2818,45,4,japanese,f,1,0.1,18.763036,1.0325944
KUA,27,0,2024-06-30T18:31:21.970Z,english_478.wav,0,peel,2818,45,4,japanese,f,2,0.2,84.30682023,1.47139294
KUA,27,0,2024-06-30T18:31:21.970Z,english_478.wav,0,peel,2818,45,4,japanese,f,3,0.3,96.70790152,0.31719256
KUA,27,0,2024-06-30T18:31:21.970Z,english_478.wav,0,peel,2818,45,4,japanese,f,4,0.32341667,-65.75430749,1.1469235
KUA,28,0,2024-06-30T18:31:21.970Z,english_507.wav,0,peel,847,45,4,japanese,f,0,0.0,-61.1842488,1.97653192
KUA,28,0,2024-06-30T18:31:21.970Z,english_507.wav,0,peel,847,45,4,japanese,f,1,0.1,-67.40048172,1.52355847
KUA,28,0,2024-06-30T18:31:21.970Z,english_507.wav,0,peel,847,45,4,japanese,f,2,0.2,12.41471853,0.98006415
KUA,28,0,2024-06-30T18:31:21.970Z,english_507.wav,0,peel,847,45,4,japanese,f,3,0.3,-23.82579329,0.44372312
KUA,28,0,2024-06-30T18:31:21.970Z,english_507.wav,0,peel,847,45,4,japanese,f,4,0.32341667,9.53005369,0.65281453
KUA,29,0,2024-06-30T18:31:21.970Z,english_742.wav,0,pill,827,45,4,japanese,f,0,0.0,12.62363586,1.26368295
KUA,29,0,2024-06-30T18:31:21.970Z,english_742.wav,0,pill,827,45,4,japanese,f,1,0.1,23.02085171,0.7448394
KUA,29,0,2024-06-30T18:31:21.970Z,english_742.wav,0,pill,827,45,4,japanese,f,2,0.2,23.36423086,0.05261082
KUA,29,0,2024-06-30T18:31:21.970Z,english_742.wav,0,pill,827,45,4,japanese,f,3,0.3,97.70614946,1.01748925
KUA,29,0,2024-06-30T18:31:21.970Z,english_742.wav,0,pill,827,45,4,japanese,f,4,0.32341667,-25.72861775,0.88645775
KUA,30,0,2024-06-30T18:31:21.970Z,english_148.wav,0,pill,933,45,4,japanese,f,0,0.0,-15.87588743,0.13468567
KUA,30,0,2024-06-30T18:31:21.970Z,english_148.wav,0,pill,933,45,4,japanese,f,1,0.1,66.05332506,1.11017862
KUA,30,0,2024-06-30T18:31:21.970Z,english_148.wav,0,pill,933,45,4,japanese,f,2,0.2,50.59551539,0.42983488
KUA,30,0,2024-06-30T18:31:21.970Z,english_148.wav,0,pill,933,45,4,japanese,f,3,0.3,-59.45276716,0.2729575
KUA,30,0,2024-06-30T18:31:21.970Z,english_148.wav,0,pill,933,45,4,japanese,f,4,0.32341667,58.4155276,0.65396017
KUA,31,0,2024-06-30T18:31:21.970Z,english_174.wav,0,pill,892,45,4,japanese,f,0,0.0,-14.93169449,0.27768215
KUA,31,0,2024-06-30T18:31:21.970Z,english_174.wav,0,pill,892,45,4,japanese,f,1,0.1,-60.50222611,0.13809097
KUA,31,0,2024-06-30T18:31:21.970Z,english_174.wav,0,pill,892,45,4,japanese,f,2,0.2,-88.67347191,0.18584848
KUA,31,0,2024-06-30T18:31:21.970Z,english_174.wav,0,pill,892,45,4,japanese,f,3,0.3,-20.58504224,1.46718454
KUA,31,0,2024-06-30T18:31:21.970Z,english_174.wav,0,pill,892,45,4,japanese,f,4,0.32341667,-52.28073567,0.17567705
KUA,32,0,2024-06-30T18:31:21.970Z,english_22.wav,0,peel,1078,45,4,japanese,f,0,0.0,78.11206964,1.48448967
KUA,32,0,2024-06-30T18:31:21.970Z,english_22.wav,0,peel,1078,45,4,japanese,f,1,0.1,30.08823316,0.28770474
KUA,32,0,2024-06-30T18:31:21.970Z,english_22.wav,0,peel,1078,45,4,japanese,f,2,0.2,62.70691674,1.03274311
KUA,32,0,2024-06-30T18:31:21.970Z,english_22.wav,0,peel,1078,45,4,japanese,f,3,0.3,-69.9857022,0.45071415
KUA,32,0,2024-06-30T18:31:21.970Z,english_22.wav,0,peel,1078,45,4,japanese,f,4,0.32341667,-1.96178027,0.30900593
KUA,33,0,2024-06-30T18:31:21.970Z,english_611.wav,0,peel,1543,45,4,japanese,f,0,0.0,4.04989913,1.48647041
KUA,33,0,2024-06-30T18:31:21.970Z,english_611.wav,0,peel,1543,45,4,japanese,f,1,0.1,-26.35519993,0.87297853
KUA,33,0,2024-06-30T18:31:21.970Z,english_611.wav,0,peel,1543,45,4,japanese,f,2,0.2,-41.22744209,0.91907267
KUA,33,0,2024-06-30T18:31:21.970Z,english_611.wav,0,peel,1543,45,4,japanese,f,3,0.3,-72.41198747,0.12624761
KUA,33,0,2024-06-30T18:31:21.970Z,english_611.wav,0,peel,1543,45,4,japanese,f,4,0.32341667,-60.09703168,0.964981
KUA,34,0,2024-06-30T18:31:21.970Z,english_260.wav,0,pill,3615,45,4,japanese,f,0,0.0,-45.73422918,1.75247731
KUA,34,0,2024-06-30T18:31:21.970Z,english_260.wav,0,pill,3615,45,4,japanese,f,1,0.1,-23.757295,1.29821829
KUA,34,0,2024-06-30T18:31:21.970Z,english_260.wav,0,pill,3615,45,4,japanese,f,2,0.2,-1.17180464,0.50372963
KUA,34,0,2024-06-30T18:31:21.970Z,english_260.wav,0,pill,3615,45,4,japanese,f,3,0.3,42.98000529,1.19905143
KUA,34,0,2024-06-30T18:31:21.970Z,english_260.wav,0,pill,3615,45,4,japanese,f,4,0.32341667,7.49715463,0.66690199
KUA,35,0,2024-06-30T18:31:21.970Z,english_400.wav,0,peel,1190,45,4,japanese,f,0,0.0,-9.17924521,1.06898792
KUA,35,0,2024-06-30T18:31:21.970Z,english_400.wav,0,peel,1190,45,4,japanese,f,1,0.1,-51.0410118,0.05890524
KUA,35,0,2024-06-30T18:31:21.970Z,english_400.wav,0,peel,1190,45,4,japanese,f,2,0.2,66.2548805,1.54728483
KUA,35,0,2024-06-30T18:31:21.970Z,english_400.wav,0,peel,1190,45,4,japanese,f,3,0.3,92.33374018,1.43953162
KUA,35,0,2024-06-30T18:31:21.970Z,english_400.wav,0,peel,1190,45,4,japanese,f,4,0.32341667,-60.80730989,1.12546459
KUA,36,0,2024-06-30T18:31:21.970Z,english_442.wav,0,peel,911,45,4,japanese,f,0,0.0,-5.21319176,1.35819452
KUA,36,0,2024-06-30T18:31:21.970Z,english_442.wav,0,peel,911,45,4,japanese,f,1,0.1,-16.23989513,1.66019663
KUA,36,0,2024-06-30T18:31:21.970Z,english_442.wav,0,peel,911,45,4,japanese,f,2,0.2,-36.77315909,0.51170704
KUA,36,0,2024-06-30T18:31:21.970Z,english_442.wav,0,peel,911,45,4,japanese,f,3,0.3,-33.51446291,1.6590932
KUA,36,0,2024-06-30T18:31:21.970Z,english_442.wav,0,peel,911,45,4,japanese,f,4,0.32341667,-25.07447919,0.97998973
KUA,37,0,2024-06-30T18:31:21.970Z,english_8.wav,0,pill,1413,45,4,japanese,f,0,0.0,-11.83025711,1.51300734
KUA,37,0,2024-06-30T18:31:21.970Z,english_8.wav,0,pill,1413,45,4,japanese,f,1,0.1,8.7470631,0.24000547
KUA,37,0,2024-06-30T18:31:21.970Z,english_8.wav,0,pill,1413,45,4,japanese,f,2,0.2,-15.41843982,1.17952525
KUA,37,0,2024-06-30T18:31:21.970Z,english_8.wav,0,pill,1413,45,4,japanese,f,3,0.3,-87.7437633,1.57032258
KUA,37,0,2024-06-30T18:31:21.970Z,english_8.wav,0,pill,1413,45,4,japanese,f,4,0.32341667,-40.85253846,0.7584977
KUA,38,0,2024-06-30T18:31:21.970Z,english_272.wav,0,peel,1062,45,4,japanese,f,0,0.0,61.82030971,1.51341556
KUA,38,0,2024-06-30T18:31:21.970Z,english_272.wav,0,peel,1062,45,4,japanese,f,1,0.1,4.16580657,0.43290826
KUA,38,0,2024-06-30T18:31:21.970Z,english_272.wav,0,peel,1062,45,4,japanese,f,2,0.2,-53.2567432,1.82734584
KUA,38,0,2024-06-30T18:31:21.970Z,english_272.wav,0,peel,1062,45,4,japanese,f,3,0.3,-52.99830768,0.22094446
KUA,38,0,2024-06-30T18:31:21.970Z,english_272.wav,0,peel,1062,45,4,japanese,f,4,0.32341667,-92.9943793,1.88040337
KUA,39,0,2024-06-30T18:31:21.970Z,english_703.wav,0,pill,1346,45,4,japanese,f,0,0.0,21.25560127,1.22587136
KUA,39,0,2024-06-30T18:31:21.970Z,english_703.wav,0,pill,1346,45,4,japanese,f,1,0.1,-5.61566417,1.28752652
KUA,39,0,2024-06-30T18:31:21.970Z,english_703.wav,0,pill,1346,45,4,japanese,f,2,0.2,-88.15973778,1.61643937
KUA,39,0,2024-06-30T18:31:21.970Z,english_703.wav,0,pill,1346,45,4,japanese,f,3,0.3,39.86499493,1.32560109
KUA,39,0,2024-06-30T18:31:21.970Z,english_703.wav,0,pill,1346,45,4,japanese,f,4,0.32341667,64.67338156,0.74206522
KUA,40,0,2024-06-30T18:31:21.970Z,english_115.wav,0,peel,1018,45,4,japanese,f,0,0.0,-6.4126324,0.37361158
KUA,40,0,2024-06-30T18:31:21.970Z,english_115.wav,0,peel,1018,45,4,japanese,f,1,0.1,-78.70213007,1.5865766
KUA,40,0,2024-06-30T18:31:21.970Z,english_115.wav,0,peel,1018,45,4,japanese,f,2,0.2,-0.36204046,1.00360432
KUA,40,0,2024-06-30T18:31:21.970Z,english_115.wav,0,peel,1018,45,4,japanese,f,3,0.3,-47.97210547,1.3933449
KUA,40,0,2024-06-30T18:31:21.970Z,english_115.wav,0,peel,1018,45,4,japanese,f,4,0.32341667,3.06964689,1.1205092
KUA,41,0,2024-06-30T18:31:21.970Z,english_111.wav,0,pill,789,45,4,japanese,f,0,0.0,43.12539807,1.84745579
KUA,41,0,2024-06-30T18:31:21.970Z,english_111.wav,0,pill,789,45,4,japanese,f,1,0.1,63.99665526,0.92577031
KUA,41,0,2024-06-30T18:31:21.970Z,english_111.wav,0,pill,789,45,4,japanese,f,2,0.2,86.04570556,0.31264784
KUA,41,0,2024-06-30T18:31:21.970Z,english_111.wav,0,pill,789,45,4,japanese,f,3,0.3,-25.76798659,0.89352032
KUA,41,0,2024-06-30T18:31:21.970Z,english_111.wav,0,pill,789,45,4,japanese,f,4,0.32341667,-36.14422463,0.32138535
KUA,42,0,2024-06-30T18:31:21.970Z,english_409.wav,0,peel,1065,45,4,japanese,f,0,0.0,-24.04105399,0.29560797
KUA,42,0,2024-06-30T18:31:21.970Z,english_409.wav,0,peel,1065,45,4,japanese,f,1,0.1,-26.67389605,1.53762848
KUA,42,0,2024-06-30T18:31:21.970Z,english_409.wav,0,peel,1065,45,4,japanese,f,2,0.2,23.9966363,0.34602898
KUA,42,0,2024-06-30T18:31:21.970Z,english_409.wav,0,peel,1065,45,4,japanese,f,3,0.3,16.61705293,1.21824435
KUA,42,0,2024-06-30T18:31:21.970Z,english_409.wav,0,peel,1065,45,4,japanese,f,4,0.32341667,73.09980407,1.55330233
KUA,43,0,2024-06-30T18:31:21.970Z,english_955.wav,0,peel,1294,45,4,japanese,f,0,0.0,-93.58498903,1.26703381
KUA,43,0,2024-06-30T18:31:21.970Z,english_955.wav,0,peel,1294,45,4,japanese,f,1,0.1,-11.56731864,0.51967441
KUA,43,0,2024-06-30T18:31:21.970Z,english_955.wav,0,peel,1294,45,4,japanese,f,2,0.2,60.37787928,1.0313906
KUA,43,0,2024-06-30T18:31:21.970Z,english_955.wav,0,peel,1294,45,4,japanese,f,3,0.3,83.42366765,1.58878747
KUA,43,0,2024-06-30T18:31:21.970Z,english_955.wav,0,peel,1294,45,4,japanese,f,4,0.32341667,-60.32056418,1.0025339
KUA,44,0,2024-06-30T18:31:21.970Z,english_980.wav,0,peel,1548,45,4,japanese,f,0,0.0,-32.33629208,1.21290567
KUA,44,0,2024-06-30T18:31:21.970Z,english_980.wav,0,peel,1548,45,4,japanese,f,1,0.1,-4.4140807,0.22350007
KUA,44,0,2024-06-30T18:31:21.970Z,english_980.wav,0,peel,1548,45,4,japanese,f,2,0.2,76.81412515,1.68078519
KUA,44,0,2024-06-30T18:31:21.970Z,english_980.wav,0,peel,1548,45,4,japanese,f,3,0.3,-16.24877133,0.16816052
KUA,44,0,2024-06-30T18:31:21.970Z,english_980.wav,0,peel,1548,45,4,japanese,f,4,0.32341667,-26.44128118,1.48722631
KUA,45,0,2024-06-30T18:31:21.970Z,english_21.wav,0,peel,708,45,4,japanese,f,0,0.0,-21.85116114,1.17417274
KUA,45,0,2024-06-30T18:31:21.970Z,english_21.wav,0,peel,708,45,4,japanese,f,1,0.1,-94.69976897,0.84289237
KUA,45,0,2024-06-30T18:31:21.970Z,english_21.wav,0,peel,708,45,4,japanese,f,2,0.2,59.00053046,1.58737119
KUA,45,0,2024-06-30T18:31:21.970Z,english_21.wav,0,peel,708,45,4,japanese,f,3,0.3,-81.44868512,0.70500889
KUA,45,0,2024-06-30T18:31:21.970Z,english_21.wav,0,peel,708,45,4,japanese,f,4,0.32341667,-68.72650823,1.41810016
KUA,46,0,2024-06-30T18:31:21.970Z,english_134.wav,0,peel,948,45,4,japanese,f,0,0.0,70.72156413,1.84700732
KUA,46,0,2024-06-30T18:31:21.970Z,english_134.wav,0,peel,948,45,4,japanese,f,1,0.1,-64.20531103,1.20878884
KUA,46,0,2024-06-30T18:31:21.970Z,english_134.wav,0,peel,948,45,4,japanese,f,2,0.2,35.7891913,0.51924654
KUA,46,0,2024-06-30T18:31:21.970Z,english_134.wav,0,peel,948,45,4,japanese,f,3,0.3,-77.33475241,1.95615398
KUA,46,0,2024-06-30T18:31:21.970Z,english_134.wav,0,peel,948,45,4,japanese,f,4,0.32341667,85.6978336,1.72102519
KUA,47,0,2024-06-30T18:31:21.970Z,english_397.wav,0,pill,865,45,4,japanese,f,0,0.0,89.67962381,0.42719638
KUA,47,0,2024-06-30T18:31:21.970Z,english_397.wav,0,pill,865,45,4,japanese,f,1,0.1,-80.29722345,0.89466904
KUA,47,0,2024-06-30T18:31:21.970Z,english_397.wav,0,pill,865,45,4,japanese,f,2,0.2,60.53564011,0.56174568
KUA,47,0,2024-06-30T18:31:21.970Z,english_397.wav,0,pill,865,45,4,japanese,f,3,0.3,9.94565725,0.1553242
KUA,47,0,2024-06-30T18:31:21.970Z,english_397.wav,0,pill,865,45,4,japanese,f,4,0.32341667,0.1319882,1.89079641
KUA,48,0,2024-06-30T18:31:21.970Z,english_910.wav,0,peel,797,45,4,japanese,f,0,0.0,-5.78748479,0.61840584
KUA,48,0,2024-06-30T18:31:21.970Z,english_910.wav,0,peel,797,45,4,japanese,f,1,0.1,25.040103,1.20431928
KUA,48,0,2024-06-30T18:31:21.970Z,english_910.wav,0,peel,797,45,4,japanese,f,2,0.2,-40.66398147,1.66594732
KUA,48,0,2024-06-30T18:31:21.970Z,english_910.wav,0,peel,797,45,4,japanese,f,3,0.3,-99.21011725,0.99007018
KUA,48,0,2024-06-30T18:31:21.970Z,english_910.wav,0,peel,797,45,4,japanese,f,4,0.32341667,30.82754841,0.23705338
KUA,49,0,2024-06-30T18:31:21.970Z,english_170.wav,0,pill,968,45,4,japanese,f,0,0.0,6.45066022,1.58910722
KUA,49,0,2024-06-30T18:31:21.970Z,english_170.wav,0,pill,968,45,4,japanese,f,1,0.1,-4.11198278,0.3365331
KUA,49,0,2024-06-30T18:31:21.970Z,english_170.wav,0,pill,968,45,4,japanese,f,2,0.2,96.59136675,0.38643451
KUA,49,0,2024-06-30T18:31:21.970Z,english_170.wav,0,pill,968,45,4,japanese,f,3,0.3,21.57070742,1.58623933
KUA,49,0,2024-06-30T18:31:21.970Z,english_170.wav,0,pill,968,45,4,japanese,f,4,0.32341667,94.47980818,1.61968164
KUA,50,1,2024-06-30T18:34:51.896Z,english_634.wav,0,peel,1653,45,4,japanese,f,0,0.0,-94.29539956,0.6011183
KUA,50,1,2024-06-30T18:34:51.896Z,english_634.wav,0,peel,1653,45,4,japanese,f,1,0.1,28.41708136,1.15242669
KUA,50,1,2024-06-30T18:34:51.896Z,english_634.wav,0,peel,1653,45,4,japanese,f,2,0.2,-99.13935281,0.68826906
KUA,50,1,2024-06-30T18:34:51.896Z,english_634.wav,0,peel,1653,45,4,japanese,f,3,0.3,-78.11216949,1.44169335
KUA,50,1,2024-06-30T18:34:51.896Z,english_634.wav,0,peel,1653,45,4,japanese,f,4,0.32341667,-54.5881907,0.90266094
KUA,51,1,2024-06-30T18:34:51.896Z,english_413.wav,0,peel,943,45,4,japanese,f,0,0.0,-9.66675054,1.82887045
KUA,51,1,2024-06-30T18:34:51.896Z,english_413.wav,0,peel,943,45,4,japanese,f,1,0.1,15.27504309,0.80668743
KUA,51,1,2024-06-30T18:34:51.896Z,english_413.wav,0,peel,943,45,4,japanese,f,2,0.2,-94.93171401,0.90586838
KUA,51,1,2024-06-30T18:34:51.896Z,english_413.wav,0,peel,943,45,4,japanese,f,3,0.3,-42.87800999,1.3937681
KUA,51,1,2024-06-30T18:34:51.896Z,english_413.wav,0,peel,943,45,4,japanese,f,4,0.32341667,-63.39385234,0.34165264
KUA,52,1,2024-06-30T18:34:51.896Z,english_730.wav,0,pill,737,45,4,japanese,f,0,0.0,12.15035978,0.91227818
KUA,52,1,2024-06-30T18:34:51.896Z,english_730.wav,0,pill,737,45,4,japanese,f,1,0.1,-56.22765555,1.17022701
KUA,52,1,2024-06-30T18:34:51.896Z,english_730.wav,0,pill,737,45,4,japanese,f,2,0.2,-53.26534685,0.58034143
KUA,52,1,2024-06-30T18:34:51.896Z,english_730.wav,0,pill,737,45,4,japanese,f,3,0.3,-25.75230742,1.9562998
KUA,52,1,2024-06-30T18:34:51.896Z,english_730.wav,0,pill,737,45,4,japanese,f,4,0.32341667,-73.04726616,1.99538846
KUA,53,1,2024-06-30T18:34:51.896Z,english_82.wav,0,peel,950,45,4,japanese,f,0,0.0,-21.02351082,0.76668052
KUA,53,1,2024-06-30T18:34:51.896Z,english_82.wav,0,peel,950,45,4,japanese,f,1,0.1,1.53612588,0.94640395
KUA,53,1,2024-06-30T18:34:51.896Z,english_82.wav,0,peel,950,45,4,japanese,f,2,0.2,82.9198569,1.02754902
KUA,53,1,2024-06-30T18:34:51.896Z,english_82.wav,0,peel,950,45,4,japanese,f,3,0.3,67.34737065,1.57368428
KUA,53,1,2024-06-30T18:34:51.896Z,english_82.wav,0,peel,950,45,4,japanese,f,4,0.32341667,-34.9418752,0.67195212
KUA,54,1,2024-06-30T18:34:51.896Z,english_532.wav,0,pill,780,45,4,japanese,f,0,0.0,-19.59321792,1.69826346
KUA,54,1,2024-06-30T18:34:51.896Z,english_532.wav,0,pill,780,45,4,japanese,f,1,0.1,84.44945775,1.19849103
KUA,54,1,2024-06-30T18:34:51.896Z,english_532.wav,0,pill,780,45,4,japanese,f,2,0.2,-5.6477907,0.05164805
KUA,54,1,2024-06-30T18:34:51.896Z,english_532.wav,0,pill,780,45,4,japanese,f,3,0.3,-66.11375502,0.74129516
KUA,54,1,2024-06-30T18:34:51.896Z,english_532.wav,0,pill,780,45,4,japanese,f,4,0.32341667,-46.16722618,0.11393119
KUA,55,1,2024-06-30T18:34:51.896Z,english_474.wav,0,peel,598,45,4,japanese,f,0,0.0,42.88606971,0.87351765
KUA,55,1,2024-06-30T18:34:51.896Z,english_474.wav,0,peel,598,45,4,japanese,f,1,0.1,6.82691085,1.08551449
KUA,55,1,2024-06-30T18:34:51.896Z,english_474.wav,0,peel,598,45,4,japanese,f,2,0.2,-33.80031927,1.99847166
KUA,55,1,2024-06-30T18:34:51.896Z,english_474.wav,0,peel,598,45,4,japanese,f,3,0.3,-97.18672796,0.27470298
KUA,55,1,2024-06-30T18:34:51.896Z,english_474.wav,0,peel,598,45,4,japanese,f,4,0.32341667,-4.7462475,0.02962094
KUA,56,1,2024-06-30T18:34:51.896Z,english_750.wav,0,peel,860,45,4,japanese,f,0,0.0,54.68497377,0.76623701
KUA,56,1,2024-06-30T18:34:51.896Z,english_750.wav,0,peel,860,45,4,japanese,f,1,0.1,0.91792919,1.58478782
KUA,56,1,2024-06-30T18:34:51.896Z,english_750.wav,0,peel,860,45,4,japanese,f,2,0.2,-67.69423006,0.74884996
KUA,56,1,2024-06-30T18:34:51.896Z,english_750.wav,0,peel,860,45,4,japanese,f,3,0.3,20.92985273,0.15814923
KUA,56,1,2024-06-30T18:34:51.896Z,english_750.wav,0,peel,860,45,4,japanese,f,4,0.32341667,-39.60032316,1.58320499
KUA,57,1,2024-06-30T18:34:51.896Z,english_302.wav,0,peel,657,45,4,japanese,f,0,0.0,-63.95927305,1.3663617
KUA,57,1,2024-06-30T18:34:51.896Z,english_302.wav,0,peel,657,45,4,japanese,f,1,0.1,-82.44028643,1.24112643
KUA,57,1,2024-06-30T18:34:51.896Z,english_302.wav,0,peel,657,45,4,japanese,f,2,0.2,-63.33590257,1.83999602
KUA,57,1,2024-06-30T18:34:51.896Z,english_302.wav,0,peel,657,45,4,japanese,f,3,0.3,-82.33590521,0.89576132
KUA,57,1,2024-06-30T18:34:51.896Z,english_302.wav,0,peel,657,45,4,japanese,f,4,0.32341667,-77.43124585,1.51483357
KUA,58,1,2024-06-30T18:34:51.896Z,english_419.wav,0,pill,707,45,4,japanese,f,0,0.0,74.10926047,0.0,0.423980314
KUA,58,1,2024-06-30T18:34:51.896Z,english_419.wav,0,pill,707,45,4,japanese,f,1,0.1,-50.44969368,0.1,1.12483838
KUA,58,1,2024-06-30T18:34:51.896Z,english_419.wav,0,pill,707,45,4,japanese,f,2,0.2,-38.37630765,0.2,0.473465541
KUA,58,1,2024-06-30T18:34:51.896Z,english_419.wav,0,pill,707,45,4,japanese,f,3,0.3,-57.54140712,0.3,0.000838613621
KUA,58,1,2024-06-30T18:34:51.896Z,english_419.wav,0,pill,707,45,4,japanese,f,4,0.32341667,48.12555486,0.323416667,0.389285402
KUA,59,1,2024-06-30T18:34:51.896Z,english_68.wav,0,peel,619,45,4,japanese,f,0,0.0,-23.38152803,1.83565324
KUA,59,1,2024-06-30T18:34:51.896Z,english_68.wav,0,peel,619,45,4,japanese,f,1,0.1,-36.0918901,0.35162477
KUA,59,1,2024-06-30T18:34:51.896Z,english_68.wav,0,peel,619,45,4,japanese,f,2,0.2,65.46592862,1.10705723
KUA,59,1,2024-06-30T18:34:51.896Z,english_68.wav,0,peel,619,45,4,japanese,f,3,0.3,48.57602628,1.09550925
KUA,59,1,2024-06-30T18:34:51.896Z,english_68.wav,0,peel,619,45,4,japanese,f,4,0.32341667,-93.64245591,0.05753383
KUA,60,1,2024-06-30T18:34:51.896Z,english_536.wav,0,peel,756,45,4,japanese,f,0,0.0,19.16157828,1.0914138
KUA,60,1,2024-06-30T18:34:51.896Z,english_536.wav,0,peel,756,45,4,japanese,f,1,0.1,-70.44875328,1.55996729
KUA,60,1,2024-06-30T18:34:51.896Z,english_536.wav,0,peel,756,45,4,japanese,f,2,0.2,9.3844651,1.22014226
KUA,60,1,2024-06-30T18:34:51.896Z,english_536.wav,0,peel,756,45,4,japanese,f,3,0.3,54.79833109,0.24268308
KUA,60,1,2024-06-30T18:34:51.896Z,english_536.wav,0,peel,756,45,4,japanese,f,4,0.32341667,-43.58683919,1.12643869
KUA,61,1,2024-06-30T18:34:51.896Z,english_629.wav,0,pill,820,45,4,japanese,f,0,0.0,76.68747977,0.56482572
KUA,61,1,2024-06-30T18:34:51.896Z,english_629.wav,0,pill,820,45,4,japanese,f,1,0.1,72.0676039,0.14075004
KUA,61,1,2024-06-30T18:34:51.896Z,english_629.wav,0,pill,820,45,4,japanese,f,2,0.2,-3.42071834,0.80885654
KUA,61,1,2024-06-30T18:34:51.896Z,english_629.wav,0,pill,820,45,4,japanese,f,3,0.3,-75.36993348,1.43133267
KUA,61,1,2024-06-30T18:34:51.896Z,english_629.wav,0,pill,820,45,4,japanese,f,4,0.32341667,-15.4233884,0.14234351
KUA,62,1,2024-06-30T18:34:51.896Z,english_539.wav,0,peel,557,45,4,japanese,f,0,0.0,-67.77604021,0.83598486
KUA,62,1,2024-06-30T18:34:51.896Z,english_539.wav,0,peel,557,45,4,japanese,f,1,0.1,61.22104537,1.51877163
KUA,62,1,2024-06-30T18:34:51.896Z,english_539.wav,0,peel,557,45,4,japanese,f,2,0.2,38.09257369,1.73578169
KUA,62,1,2024-06-30T18:34:51.896Z,english_539.wav,0,peel,557,45,4,japanese,f,3,0.3,-20.76875757,0.52680037
KUA,62,1,2024-06-30T18:34:51.896Z,english_539.wav,0,peel,557,45,4,japanese,f,4,0.32341667,-47.71444482,1.99278149
KUA,63,1,2024-06-30T18:34:51.896Z,english_85.wav,0,peel,709,45,4,japanese,f,0,0.0,69.91092253,1.07696769
KUA,63,1,2024-06-30T18:34:51.896Z,english_85.wav,0,peel,709,45,4,japanese,f,1,0.1,90.04885235,1.65675227
KUA,63,1,2024-06-30T18:34:51.896Z,english_85.wav,0,peel,709,45,4,japanese,f,2,0.2,-54.471964,1.18566865
KUA,63,1,2024-06-30T18:34:51.896Z,english_85.wav,0,peel,709,45,4,japanese,f,3,0.3,-32.42862041,0.43131811
KUA,63,1,2024-06-30T18:34:51.896Z,english_85.wav,0,peel,709,45,4,japanese,f,4,0.32341667,-26.25094384,1.88641509
KUA,64,1,2024-06-30T18:34:51.896Z,english_173.wav,0,peel,885,45,4,japanese,f,0,0.0,11.1251521,0.60172576
KUA,64,1,2024-06-30T18:34:51.896Z,english_173.wav,0,peel,885,45,4,japanese,f,1,0.1,94.22411188,0.44802145
KUA,64,1,2024-06-30T18:34:51.896Z,english_173.wav,0,peel,885,45,4,japanese,f,2,0.2,89.44753043,1.27552997
KUA,64,1,2024-06-30T18:34:51.896Z,english_173.wav,0,peel,885,45,4,japanese,f,3,0.3,74.30769895,1.09756939
KUA,64,1,2024-06-30T18:34:51.896Z,english_173.wav,0,peel,885,45,4,japanese,f,4,0.32341667,-37.47679669,0.7907315
KUA,65,1,2024-06-30T18:34:51.896Z,english_827.wav,0,peel,994,45,4,japanese,f,0,0.0,-49.24128803,1.70838213
KUA,65,1,2024-06-30T18:34:51.896Z,english_827.wav,0,peel,994,45,4,japanese,f,1,0.1,62.6158679,0.88048656
KUA,65,1,2024-06-30T18:34:51.896Z,english_827.wav,0,peel,994,45,4,japanese,f,2,0.2,-85.72053716,1.47530841
KUA,65,1,2024-06-30T18:34:51.896Z,english_827.wav,0,peel,994,45,4,japanese,f,3,0.3,-65.54354982,0.04991031
KUA,65,1,2024-06-30T18:34:51.896Z,english_827.wav,0,peel,994,45,4,japanese,f,4,0.32341667,-42.30235352,0.1531298
KUA,66,1,2024-06-30T18:34:51.896Z,english_462.wav,0,peel,642,45,4,japanese,f,0,0.0,-35.73318704,1.53267708
KUA,66,1,2024-06-30T18:34:51.896Z,english_462.wav,0,peel,642,45,4,japanese,f,1,0.1,-5.65949109,1.98369384
KUA,66,1,2024-06-30T18:34:51.896Z,english_462.wav,0,peel,642,45,4,japanese,f,2,0.2,-49.47542688,1.31270994
KUA,66,1,2024-06-30T18:34:51.896Z,english_462.wav,0,peel,642,45,4,japanese,f,3,0.3,-98.18570674,1.26289606
KUA,66,1,2024-06-30T18:34:51.896Z,english_462.wav,0,peel,642,45,4,japanese,f,4,0.32341667,-16.34927785,1.36496903
KUA,67,1,2024-06-30T18:34:51.896Z,english_349.wav,0,peel,898,45,4,japanese,f,0,0.0,-10.00495534,0.36915768
KUA,67,1,2024-06-30T18:34:51.896Z,english_349.wav,0,peel,898,45,4,japanese,f,1,0.1,54.31199814,0.83111041
KUA,67,1,2024-06-30T18:34:51.896Z,english_349.wav,0,peel,898,45,4,japanese,f,2,0.2,48.17968705,1.70147194
KUA,67,1,2024-06-30T18:34:51.896Z,english_349.wav,0,peel,898,45,4,japanese,f,3,0.3,8.48926652,1.08588898
KUA,67,1,2024-06-30T18:34:51.896Z,english_349.wav,0,peel,898,45,4,japanese,f,4,0.32341667,42.05620052,0.02584958
KUA,68,1,2024-06-30T18:34:51.896Z,english_792.wav,0,peel,792,45,4,japanese,f,0,0.0,-56.39949456,1.32676777
KUA,68,1,2024-06-30T18:34:51.896Z,english_792.wav,0,peel,792,45,4,japanese,f,1,0.1,-76.36067248,1.08004851
KUA,68,1,2024-06-30T18:34:51.896Z,english_792.wav,0,peel,792,45,4,japanese,f,2,0.2,-58.44160547,1.5809308
KUA,68,1,2024-06-30T18:34:51.896Z,english_792.wav,0,peel,792,45,4,japanese,f,3,0.3,25.29086486,0.16508433
KUA,68,1,2024-06-30T18:34:51.896Z,english_792.wav,0,peel,792,45,4,japanese,f,4,0.32341667,-6.58788169,1.18870574
KUA,69,1,2024-06-30T18:34:51.896Z,english_956.wav,0,pill,716,45,4,japanese,f,0,0.0,-98.71257913,1.5828524
KUA,69,1,2024-06-30T18:34:51.896Z,english_956.wav,0,pill,716,45,4,japanese,f,1,0.1,-36.05702295,0.66985857
KUA,69,1,2024-06-30T18:34:51.896Z,english_956.wav,0,pill,716,45,4,japanese,f,2,0.2,-31.95582623,0.13798036
KUA,69,1,2024-06-30T18:34:51.896Z,english_956.wav,0,pill,716,45,4,japanese,f,3,0.3,-81.31295359,0.22663358
KUA,69,1,2024-06-30T18:34:51.896Z,english_956.wav,0,pill,716,45,4,japanese,f,4,0.32341667,45.09425789,0.54862974
KUA,70,1,2024-06-30T18:34:51.896Z,english_424.wav,0,peel,584,45,4,japanese,f,0,0.0,-7.44814198,1.7438251
KUA,70,1,2024-06-30T18:34:51.896Z,english_424.wav,0,peel,584,45,4,japanese,f,1,0.1,9.0703424,1.33993463
KUA,70,1,2024-06-30T18:34:51.896Z,english_424.wav,0,peel,584,45,4,japanese,f,2,0.2,-65.6005214,0.96535207
KUA,70,1,2024-06-30T18:34:51.896Z,english_424.wav,0,peel,584,45,4,japanese,f,3,0.3,79.88163057,0.39557207
KUA,70,1,2024-06-30T18:34:51.896Z,english_424.wav,0,peel,584,45,4,japanese,f,4,0.32341667,48.78273262,0.47346175
KUA,71,1,2024-06-30T18:34:51.896Z,english_733.wav,0,peel,683,45,4,japanese,f,0,0.0,-77.09135463,1.21028291
KUA,71,1,2024-06-30T18:34:51.896Z,english_733.wav,0,peel,683,45,4,japanese,f,1,0.1,-30.68901019,1.14931675
KUA,71,1,2024-06-30T18:34:51.896Z,english_733.wav,0,peel,683,45,4,japanese,f,2,0.2,-27.18135709,1.68866455
KUA,71,1,2024-06-30T18:34:51.896Z,english_733.wav,0,peel,683,45,4,japanese,f,3,0.3,-10.74804936,0.29390693
KUA,71,1,2024-06-30T18:34:51.896Z,english_733.wav,0,peel,683,45,4,japanese,f,4,0.32341667,-57.14773718,0.43305962
KUA,72,1,2024-06-30T18:34:51.896Z,english_99.wav,0,pill,1187,45,4,japanese,f,0,0.0,9.75149611,0.79411887
KUA,72,1,2024-06-30T18:34:51.896Z,english_99.wav,0,pill,1187,45,4,japanese,f,1,0.1,-7.37998228,0.53064308
KUA,72,1,2024-06-30T18:34:51.896Z,english_99.wav,0,pill,1187,45,4,japanese,f,2,0.2,29.15889261,0.10254027
KUA,72,1,2024-06-30T18:34:51.896Z,english_99.wav,0,pill,1187,45,4,japanese,f,3,0.3,-23.23230809,0.53999741
KUA,72,1,2024-06-30T18:34:51.896Z,english_99.wav,0,pill,1187,45,4,japanese,f,4,0.32341667,51.25937721,0.74302856
KUA,73,1,2024-06-30T18:34:51.896Z,english_449.wav,0,peel,724,45,4,japanese,f,0,0.0,-46.54576765,0.60085197
KUA,73,1,2024-06-30T18:34:51.896Z,english_449.wav,0,peel,724,45,4,japanese,f,1,0.1,20.05422573,1.74901032
KUA,73,1,2024-06-30T18:34:51.896Z,english_449.wav,0,peel,724,45,4,japanese,f,2,0.2,54.52400621,1.9506545
KUA,73,1,2024-06-30T18:34:51.896Z,english_449.wav,0,peel,724,45,4,japanese,f,3,0.3,73.66855139,1.81044704
KUA,73,1,2024-06-30T18:34:51.896Z,english_449.wav,0,peel,724,45,4,japanese,f,4,0.32341667,-1.88675615,0.93562966
KUA,74,1,2024-06-30T18:34:51.896Z,english_943.wav,0,pill,850,45,4,japanese,f,0,0.0,-88.39234314,0.07745413
KUA,74,1,2024-06-30T18:34:51.896Z,english_943.wav,0,pill,850,45,4,japanese,f,1,0.1,65.27529367,1.64078214
KUA,74,1,2024-06-30T18:34:51.896Z,english_943.wav,0,pill,850,45,4,japanese,f,2,0.2,-24.85222093,0.23468741
KUA,74,1,2024-06-30T18:34:51.896Z,english_943.wav,0,pill,850,45,4,japanese,f,3,0.3,20.61002448,1.49561498
KUA,74,1,2024-06-30T18:34:51.896Z,english_943.wav,0,pill,850,45,4,japanese,f,4,0.32341667,-74.64601709,1.25217021
KUA,75,1,2024-06-30T18:34:51.896Z,english_518.wav,0,pill,2553,45,4,japanese,f,0,0.0,52.37511869,0.23824141
KUA,75,1,2024-06-30T18:34:51.896Z,english_518.wav,0,pill,2553,45,4,japanese,f,1,0.1,-33.3490586,0.80559068
KUA,75,1,2024-06-30T18:34:51.896Z,english_518.wav,0,pill,2553,45,4,japanese,f,2,0.2,-71.20035434,1.24725456
KUA,75,1,2024-06-30T18:34:51.896Z,english_518.wav,0,pill,2553,45,4,japanese,f,3,0.3,6.23243823,1.01334401
KUA,75,1,2024-06-30T18:34:51.896Z,english_518.wav,0,pill,2553,45,4,japanese,f,4,0.32341667,-29.48660546,1.51264586
KUA,76,1,2024-06-30T18:34:51.896Z,english_604.wav,0,peel,549,45,4,japanese,f,0,0.0,11.37360706,1.9162078
KUA,76,1,2024-06-30T18:34:51.896Z,english_604.wav,0,peel,549,45,4,japanese,f,1,0.1,-50.20832577,0.59247461
KUA,76,1,2024-06-30T18:34:51.896Z,english_604.wav,0,peel,549,45,4,japanese,f,2,0.2,-34.39542541,1.79911242
KUA,76,1,2024-06-30T18:34:51.896Z,english_604.wav,0,peel,549,45,4,japanese,f,3,0.3,-9.87560088,0.998763
KUA,76,1,2024-06-30T18:34:51.896Z,english_604.wav,0,peel,549,45,4,japanese,f,4,0.32341667,34.71454295,0.76768671
KUA,77,1,2024-06-30T18:34:51.896Z,english_230.wav,0,pill,592,45,4,japanese,f,0,0.0,59.01519707,0.66464778
KUA,77,1,2024-06-30T18:34:51.896Z,english_230.wav,0,pill,592,45,4,japanese,f,1,0.1,-74.67447784,1.09498554
KUA,77,1,2024-06-30T18:34:51.896Z,english_230.wav,0,pill,592,45,4,japanese,f,2,0.2,78.11378701,0.24708562
KUA,77,1,2024-06-30T18:34:51.896Z,english_230.wav,0,pill,592,45,4,japanese,f,3,0.3,26.79367619,1.40152246
KUA,77,1,2024-06-30T18:34:51.896Z,english_230.wav,0,pill,592,45,4,japanese,f,4,0.32341667,29.92451654,1.02203861
KUA,78,1,2024-06-30T18:34:51.896Z,english_893.wav,0,peel,529,45,4,japanese,f,0,0.0,17.19699967,0.82427167
KUA,78,1,2024-06-30T18:34:51.896Z,english_893.wav,0,peel,529,45,4,japanese,f,1,0.1,57.52525856,1.49866988
KUA,78,1,2024-06-30T18:34:51.896Z,english_893.wav,0,peel,529,45,4,japanese,f,2,0.2,13.30661706,0.84536161
KUA,78,1,2024-06-30T18:34:51.896Z,english_893.wav,0,peel,529,45,4,japanese,f,3,0.3,33.02687073,0.10168024
KUA,78,1,2024-06-30T18:34:51.896Z,english_893.wav,0,peel,529,45,4,japanese,f,4,0.32341667,-64.43392463,0.7117056
KUA,79,1,2024-06-30T18:34:51.896Z,english_226.wav,0,peel,657,45,4,japanese,f,0,0.0,-56.53605181,0.51185795
KUA,79,1,2024-06-30T18:34:51.896Z,english_226.wav,0,peel,657,45,4,japanese,f,1,0.1,-5.93547338,0.73377568
KUA,79,1,2024-06-30T18:34:51.896Z,english_226.wav,0,peel,657,45,4,japanese,f,2,0.2,-81.0596442,1.62034912
KUA,79,1,2024-06-30T18:34:51.896Z,english_226.wav,0,peel,657,45,4,japanese,f,3,0.3,-12.14261426,0.19474782
KUA,79,1,2024-06-30T18:34:51.896Z,english_226.wav,0,peel,657,45,4,japanese,f,4,0.32341667,40.67667876,0.1395898
KUA,80,1,2024-06-30T18:34:51.896Z,english_858.wav,0,peel,571,45,4,japanese,f,0,0.0,45.12570132,0.50395823
KUA,80,1,2024-06-30T18:34:51.896Z,english_858.wav,0,peel,571,45,4,japanese,f,1,0.1,-46.71359417,1.50658612
KUA,80,1,2024-06-30T18:34:51.896Z,english_858.wav,0,peel,571,45,4,japanese,f,2,0.2,-60.32464978,0.86887416
KUA,80,1,2024-06-30T18:34:51.896Z,english_858.wav,0,peel,571,45,4,japanese,f,3,0.3,-70.46241098,0.20520469
KUA,80,1,2024-06-30T18:34:51.896Z,english_858.wav,0,peel,571,45,4,japanese,f,4,0.32341667,76.51169453,1.05885662
KUA,81,1,2024-06-30T18:34:51.896Z,english_776.wav,0,pill,573,45,4,japanese,f,0,0.0,29.86548478,0.57139857
KUA,81,1,2024-06-30T18:34:51.896Z,english_776.wav,0,pill,573,45,4,japanese,f,1,0.1,2.8025705,1.94435619
KUA,81,1,2024-06-30T18:34:51.896Z,english_776.wav,0,pill,573,45,4,japanese,f,2,0.2,-38.4768188,0.3951066
KUA,81,1,2024-06-30T18:34:51.896Z,english_776.wav,0,pill,573,45,4,japanese,f,3,0.3,-89.49838949,0.29859462
KUA,81,1,2024-06-30T18:34:51.896Z,english_776.wav,0,pill,573,45,4,japanese,f,4,0.32341667,30.18488016,1.93939037
KUA,82,1,2024-06-30T18:34:51.896Z,english_681.wav,0,peel,513,45,4,japanese,f,0,0.0,65.45313908,1.43173201
KUA,82,1,2024-06-30T18:34:51.896Z,english_681.wav,0,peel,513,45,4,japanese,f,1,0.1,23.22224239,1.64604346
KUA,82,1,2024-06-30T18:34:51.896Z,english_681.wav,0,peel,513,45,4,japanese,f,2,0.2,44.35096717,0.82186037
KUA,82,1,2024-06-30T18:34:51.896Z,english_681.wav,0,peel,513,45,4,japanese,f,3,0.3,67.45757963,0.26689352
KUA,82,1,2024-06-30T18:34:51.896Z,english_681.wav,0,peel,513,45,4,japanese,f,4,0.32341667,55.5822091,1.64490636
KUA,83,1,2024-06-30T18:34:51.896Z,english_685.wav,0,peel,1340,45,4,japanese,f,0,0.0,91.61032892,0.4504418
KUA,83,1,2024-06-30T18:34:51.896Z,english_685.wav,0,peel,1340,45,4,japanese,f,1,0.1,39.6206555,1.04279806
KUA,83,1,2024-06-30T18:34:51.896Z,english_685.wav,0,peel,1340,45,4,japanese,f,2,0.2,-3.19880539,1.33634651
KUA,83,1,2024-06-30T18:34:51.896Z,english_685.wav,0,peel,1340,45,4,japanese,f,3,0.3,-72.84721689,1.25094987
KUA,83,1,2024-06-30T18:34:51.896Z,english_685.wav,0,peel,1340,45,4,japanese,f,4,0.32341667,98.11411302,0.37726169
KUA,84,1,2024-06-30T18:34:51.896Z,english_251.wav,0,pill,1780,45,4,japanese,f,0,0.0,-35.26640223,1.59441442
KUA,84,1,2024-06-30T18:34:51.896Z,english_251.wav,0,pill,1780,45,4,japanese,f,1,0.1,-82.14936791,1.21410308
KUA,84,1,2024-06-30T18:34:51.896Z,english_251.wav,0,pill,1780,45,4,japanese,f,2,0.2,39.53587687,0.89125894
KUA,84,1,2024-06-30T18:34:51.896Z,english_251.wav,0,pill,1780,45,4,japanese,f,3,0.3,-75.44024907,0.14763688
KUA,84,1,2024-06-30T18:34:51.896Z,english_251.wav,0,pill,1780,45,4,japanese,f,4,0.32341667,26.94148116,1.71797298
KUA,85,1,2024-06-30T18:34:51.896Z,english_975.wav,0,pill,755,45,4,japanese,f,0,0.0,30.76275893,1.75032315
KUA,85,1,2024-06-30T18:34:51.896Z,english_975.wav,0,pill,755,45,4,japanese,f,1,0.1,-18.30184736,1.1766706
KUA,85,1,2024-06-30T18:34:51.896Z,english_975.wav,0,pill,755,45,4,japanese,f,2,0.2,88.92209311,0.11148121
KUA,85,1,2024-06-30T18:34:51.896Z,english_975.wav,0,pill,755,45,4,japanese,f,3,0.3,-15.78836893,1.00992181
KUA,85,1,2024-06-30T18:34:51.896Z,english_975.wav,0,pill,755,45,4,japanese,f,4,0.32341667,81.69873146,1.08252971
KUA,86,1,2024-06-30T18:34:51.896Z,english_862.wav,0,pill,628,45,4,japanese,f,0,0.0,97.17644144,0.51253178
KUA,86,1,2024-06-30T18:34:51.896Z,english_862.wav,0,pill,628,45,4,japanese,f,1,0.1,26.34966999,0.21080737
KUA,86,1,2024-06-30T18:34:51.896Z,english_862.wav,0,pill,628,45,4,japanese,f,2,0.2,-21.73584106,0.27401534
KUA,86,1,2024-06-30T18:34:51.896Z,english_862.wav,0,pill,628,45,4,japanese,f,3,0.3,70.49109419,1.91980484
KUA,86,1,2024-06-30T18:34:51.896Z,english_862.wav,0,pill,628,45,4,japanese,f,4,0.32341667,43.48373212,0.96077188
KUA,87,1,2024-06-30T18:34:51.896Z,english_972.wav,0,peel,544,45,4,japanese,f,0,0.0,-87.82800068,1.28286493
KUA,87,1,2024-06-30T18:34:51.896Z,english_972.wav,0,peel,544,45,4,japanese,f,1,0.1,-25.45661385,0.89058027
KUA,87,1,2024-06-30T18:34:51.896Z,english_972.wav,0,peel,544,45,4,japanese,f,2,0.2,2.95853851,1.4716374
KUA,87,1,2024-06-30T18:34:51.896Z,english_972.wav,0,peel,544,45,4,japanese,f,3,0.3,84.61583696,0.6386035
KUA,87,1,2024-06-30T18:34:51.896Z,english_972.wav,0,peel,544,45,4,japanese,f,4,0.32341667,42.95706616,1.51056083
KUA,88,1,2024-06-30T18:34:51.896Z,english_705.wav,0,pill,1680,45,4,japanese,f,0,0.0,3.76426423,0.9500377
KUA,88,1,2024-06-30T18:34:51.896Z,english_705.wav,0,pill,1680,45,4,japanese,f,1,0.1,90.96696755,0.74173997
KUA,88,1,2024-06-30T18:34:51.896Z,english_705.wav,0,pill,1680,45,4,japanese,f,2,0.2,-32.86898574,1.78776637
KUA,88,1,2024-06-30T18:34:51.896Z,english_705.wav,0,pill,1680,45,4,japanese,f,3,0.3,-21.12550784,0.8178788
KUA,88,1,2024-06-30T18:34:51.896Z,english_705.wav,0,pill,1680,45,4,japanese,f,4,0.32341667,39.74077299,1.54913024
KUA,89,1,2024-06-30T18:34:51.896Z,english_571.wav,0,pill,1097,45,4,japanese,f,0,0.0,-42.92588422,0.65590276
KUA,89,1,2024-06-30T18:34:51.896Z,english_571.wav,0,pill,1097,45,4,japanese,f,1,0.1,-87.39276897,1.8306878
KUA,89,1,2024-06-30T18:34:51.896Z,english_571.wav,0,pill,1097,45,4,japanese,f,2,0.2,19.06282168,0.06889765
KUA,89,1,2024-06-30T18:34:51.896Z,english_571.wav,0,pill,1097,45,4,japanese,f,3,0.3,-99.30459792,0.29364209
KUA,89,1,2024-06-30T18:34:51.896Z,english_571.wav,0,pill,1097,45,4,japanese,f,4,0.32341667,41.25263337,1.388798
KUA,90,1,2024-06-30T18:34:51.896Z,english_201.wav,0,peel,477,45,4,japanese,f,0,0.0,-11.66329209,1.59313322
KUA,90,1,2024-06-30T18:34:51.896Z,english_201.wav,0,peel,477,45,4,japanese,f,1,0.1,-73.85436231,1.78385616
KUA,90,1,2024-06-30T18:34:51.896Z,english_201.wav,0,peel,477,45,4,japanese,f,2,0.2,-12.5199597,0.57641365
KUA,90,1,2024-06-30T18:34:51.896Z,english_201.wav,0,peel,477,45,4,japanese,f,3,0.3,-44.18013019,1.54371285
KUA,90,1,2024-06-30T18:34:51.896Z,english_201.wav,0,peel,477,45,4,japanese,f,4,0.32341667,47.68284229,1.11944384
KUA,91,1,2024-06-30T18:34:51.896Z,english_562.wav,0,pill,1123,45,4,japanese,f,0,0.0,-40.22672309,0.64031882
KUA,91,1,2024-06-30T18:34:51.896Z,english_562.wav,0,pill,1123,45,4,japanese,f,1,0.1,77.961849,0.7637006
KUA,91,1,2024-06-30T18:34:51.896Z,english_562.wav,0,pill,1123,45,4,japanese,f,2,0.2,25.52463525,0.87632482
KUA,91,1,2024-06-30T18:34:51.896Z,english_562.wav,0,pill,1123,45,4,japanese,f,3,0.3,84.62788358,0.98972612
KUA,91,1,2024-06-30T18:34:51.896Z,english_562.wav,0,pill,1123,45,4,japanese,f,4,0.32341667,-53.67427145,0.74010285
KUA,92,1,2024-06-30T18:34:51.896Z,english_911.wav,0,pill,779,45,4,japanese,f,0,0.0,62.6913709,0.89860539
KUA,92,1,2024-06-30T18:34:51.896Z,english_911.wav,0,pill,779,45,4,japanese,f,1,0.1,-28.7089255,0.06791792
KUA,92,1,2024-06-30T18:34:51.896Z,english_911.wav,0,pill,779,45,4,japanese,f,2,0.2,-71.03383871,1.00076401
KUA,92,1,2024-06-30T18:34:51.896Z,english_911.wav,0,pill,779,45,4,japanese,f,3,0.3,93.02773855,1.24961505
KUA,92,1,2024-06-30T18:34:51.896Z,english_911.wav,0,pill,779,45,4,japanese,f,4,0.32341667,93.73973981,1.26639778
KUA,93,1,2024-06-30T18:34:51.896Z,english_161.wav,0,peel,522,45,4,japanese,f,0,0.0,16.17182642,0.80971259
KUA,93,1,2024-06-30T18:34:51.896Z,english_161.wav,0,peel,522,45,4,japanese,f,1,0.1,51.23408036,1.56168911
KUA,93,1,2024-06-30T18:34:51.896Z,english_161.wav,0,peel,522,45,4,japanese,f,2,0.2,56.55598601,0.91666403
KUA,93,1,2024-06-30T18:34:51.896Z,english_161.wav,0,peel,522,45,4,japanese,f,3,0.3,-25.08054758,1.93998208
KUA,93,1,2024-06-30T18:34:51.896Z,english_161.wav,0,peel,522,45,4,japanese,f,4,0.32341667,-70.36900789,0.76147365
KUA,94,1,2024-06-30T18:34:51.896Z,english_651.wav,0,peel,579,45,4,japanese,f,0,0.0,94.66063372,0.16277223
KUA,94,1,2024-06-30T18:34:51.896Z,english_651.wav,0,peel,579,45,4,japanese,f,1,0.1,53.93234837,1.71236475
KUA,94,1,2024-06-30T18:34:51.896Z,english_651.wav,0,peel,579,45,4,japanese,f,2,0.2,-71.35755131,0.37376336
KUA,94,1,2024-06-30T18:34:51.896Z,english_651.wav,0,peel,579,45,4,japanese,f,3,0.3,50.84025958,0.80998932
KUA,94,1,2024-06-30T18:34:51.896Z,english_651.wav,0,peel,579,45,4,japanese,f,4,0.32341667,-24.67252949,0.23835763
KUA,95,1,2024-06-30T18:34:51.896Z,english_199.wav,0,pill,1097,45,4,japanese,f,0,0.0,-24.89956817,0.07306367
KUA,95,1,2024-06-30T18:34:51.896Z,english_199.wav,0,pill,1097,45,4,japanese,f,1,0.1,-48.49200931,0.10334581
KUA,95,1,2024-06-30T18:34:51.896Z,english_199.wav,0,pill,1097,45,4,japanese,f,2,0.2,-89.66548778,1.49062114
KUA,95,1,2024-06-30T18:34:51.896Z,english_199.wav,0,pill,1097,45,4,japanese,f,3,0.3,29.20785813,0.36717513
KUA,95,1,2024-06-30T18:34:51.896Z,english_199.wav,0,pill,1097,45,4,japanese,f,4,0.32341667,-88.68286362,1.33179809
KUA,96,1,2024-06-30T18:34:51.896Z,english_121.wav,0,peel,582,45,4,japanese,f,0,0.0,-30.24687583,0.23154591
KUA,96,1,2024-06-30T18:34:51.896Z,english_121.wav,0,peel,582,45,4,japanese,f,1,0.1,-28.09260766,0.6680997
KUA,96,1,2024-06-30T18:34:51.896Z,english_121.wav,0,peel,582,45,4,japanese,f,2,0.2,-29.54951374,1.79539672
KUA,96,1,2024-06-30T18:34:51.896Z,english_121.wav,0,peel,582,45,4,japanese,f,3,0.3,-37.35286973,0.57554739
KUA,96,1,2024-06-30T18:34:51.896Z,english_121.wav,0,peel,582,45,4,japanese,f,4,0.32341667,58.68529554,1.8709958
KUA,97,1,2024-06-30T18:34:51.896Z,english_181.wav,0,pill,610,45,4,japanese,f,0,0.0,-20.89133039,0.39550568
KUA,97,1,2024-06-30T18:34:51.896Z,english_181.wav,0,pill,610,45,4,japanese,f,1,0.1,-68.36112581,0.87114476
KUA,97,1,2024-06-30T18:34:51.896Z,english_181.wav,0,pill,610,45,4,japanese,f,2,0.2,-21.7912093,0.0214418
KUA,97,1,2024-06-30T18:34:51.896Z,english_181.wav,0,pill,610,45,4,japanese,f,3,0.3,7.62752627,1.98777716
KUA,97,1,2024-06-30T18:34:51.896Z,english_181.wav,0,pill,610,45,4,japanese,f,4,0.32341667,53.94324841,0.40706026
KUA,98,1,2024-06-30T18:34:51.896Z,english_147.wav,0,peel,532,45,4,japanese,f,0,0.0,-14.37625717,1.08714974
KUA,98,1,2024-06-30T18:34:51.896Z,english_147.wav,0,peel,532,45,4,japanese,f,1,0.1,-48.99147792,1.05600262
KUA,98,1,2024-06-30T18:34:51.896Z,english_147.wav,0,peel,532,45,4,japanese,f,2,0.2,-76.025031,0.62193731
KUA,98,1,2024-06-30T18:34:51.896Z,english_147.wav,0,peel,532,45,4,japanese,f,3,0.3,-4.271985,1.23272935
KUA,98,1,2024-06-30T18:34:51.896Z,english_147.wav,0,peel,532,45,4,japanese,f,4,0.32341667,90.36670579,0.90867663
KUA,99,1,2024-06-30T18:34:51.896Z,english_461.wav,0,pill,1000,45,4,japanese,f,0,0.0,-99.86661298,0.04975834
KUA,99,1,2024-06-30T18:34:51.896Z,english_461.wav,0,pill,1000,45,4,japanese,f,1,0.1,65.11959058,1.27856071
KUA,99,1,2024-06-30T18:34:51.896Z,english_461.wav,0,pill,1000,45,4,japanese,f,2,0.2,-96.19635976,1.53618081
KUA,99,1,2024-06-30T18:34:51.896Z,english_461.wav,0,pill,1000,45,4,japanese,f,3,0.3,56.69155656,1.97602464
KUA,99,1,2024-06-30T18:34:51.896Z,english_461.wav,0,pill,1000,45,4,japanese,f,4,0.32341667,-82.13106063,1.41647384
KUA,100,2,2024-06-30T18:37:16.908Z,english_916.wav,0,peel,13195,45,4,japanese,f,0,0.0,-50.62314768,0.5519299
KUA,100,2,2024-06-30T18:37:16.908Z,english_916.wav,0,peel,13195,45,4,japanese,f,1,0.1,-52.55300278,1.16723516
KUA,100,2,2024-06-30T18:37:16.908Z,english_916.wav,0,peel,13195,45,4,japanese,f,2,0.2,54.298582,1.72376738
KUA,100,2,2024-06-30T18:37:16.908Z,english_916.wav,0,peel,13195,45,4,japanese,f,3,0.3,-23.99088857,0.41493786
KUA,100,2,2024-06-30T18:37:16.908Z,english_916.wav,0,peel,13195,45,4,japanese,f,4,0.32341667,4.88948607,1.97918138
KUA,101,2,2024-06-30T18:37:16.908Z,english_109.wav,0,peel,1115,45,4,japanese,f,0,0.0,44.56131593,1.07349586
KUA,101,2,2024-06-30T18:37:16.908Z,english_109.wav,0,peel,1115,45,4,japanese,f,1,0.1,-35.23159756,1.27535987
KUA,101,2,2024-06-30T18:37:16.908Z,english_109.wav,0,peel,1115,45,4,japanese,f,2,0.2,-19.62269282,1.28483541
KUA,101,2,2024-06-30T18:37:16.908Z,english_109.wav,0,peel,1115,45,4,japanese,f,3,0.3,38.10372837,1.04109326
KUA,101,2,2024-06-30T18:37:16.908Z,english_109.wav,0,peel,1115,45,4,japanese,f,4,0.32341667,-20.09605057,0.10213448
KUA,102,2,2024-06-30T18:37:16.908Z,english_704.wav,0,peel,734,45,4,japanese,f,0,0.0,-24.48288207,0.92043902
KUA,102,2,2024-06-30T18:37:16.908Z,english_704.wav,0,peel,734,45,4,japanese,f,1,0.1,-9.94163531,0.96595902
KUA,102,2,2024-06-30T18:37:16.908Z,english_704.wav,0,peel,734,45,4,japanese,f,2,0.2,74.85271107,1.40327859
KUA,102,2,2024-06-30T18:37:16.908Z,english_704.wav,0,peel,734,45,4,japanese,f,3,0.3,-38.44921803,1.07325586
KUA,102,2,2024-06-30T18:37:16.908Z,english_704.wav,0,peel,734,45,4,japanese,f,4,0.32341667,-21.20994959,1.87555588
KUA,103,2,2024-06-30T18:37:16.908Z,english_954.wav,0,pill,1899,45,4,japanese,f,0,0.0,-31.7323473,1.78985335
KUA,103,2,2024-06-30T18:37:16.908Z,english_954.wav,0,pill,1899,45,4,japanese,f,1,0.1,26.42807939,1.38754521
KUA,103,2,2024-06-30T18:37:16.908Z,english_954.wav,0,pill,1899,45,4,japanese,f,2,0.2,22.25968883,1.54917493
KUA,103,2,2024-06-30T18:37:16.908Z,english_954.wav,0,pill,1899,45,4,japanese,f,3,0.3,-25.30270181,1.54718362
KUA,103,2,2024-06-30T18:37:16.908Z,english_954.wav,0,pill,1899,45,4,japanese,f,4,0.32341667,46.97185243,0.09638929
KUA,104,2,2024-06-30T18:37:16.908Z,english_967.wav,0,pill,1081,45,4,japanese,f,0,0.0,-33.19777689,0.76720641
KUA,104,2,2024-06-30T18:37:16.908Z,english_967.wav,0,pill,1081,45,4,japanese,f,1,0.1,83.84847924,1.4094361
KUA,104,2,2024-06-30T18:37:16.908Z,english_967.wav,0,pill,1081,45,4,japanese,f,2,0.2,81.27362124,0.74435637
KUA,104,2,2024-06-30T18:37:16.908Z,english_967.wav,0,pill,1081,45,4,japanese,f,3,0.3,22.78466805,0.29904584
KUA,104,2,2024-06-30T18:37:16.908Z,english_967.wav,0,pill,1081,45,4,japanese,f,4,0.32341667,16.56894366,0.47687807
KUA,105,2,2024-06-30T18:37:16.908Z,english_788.wav,0,peel,731,45,4,japanese,f,0,0.0,-93.79628683,0.67330318
KUA,105,2,2024-06-30T18:37:16.908Z,english_788.wav,0,peel,731,45,4,japanese,f,1,0.1,-45.29703147,1.33385595
KUA,105,2,2024-06-30T18:37:16.908Z,english_788.wav,0,peel,731,45,4,japanese,f,2,0.2,-46.01001772,1.35248941
KUA,105,2,2024-06-30T18:37:16.908Z,english_788.wav,0,peel,731,45,4,japanese,f,3,0.3,-56.6729179,1.33220146
KUA,105,2,2024-06-30T18:37:16.908Z,english_788.wav,0,peel,731,45,4,japanese,f,4,0.32341667,51.29020462,1.32468206
KUA,106,2,2024-06-30T18:37:16.908Z,english_797.wav,0,peel,814,45,4,japanese,f,0,0.0,-10.77604935,1.75152448
KUA,106,2,2024-06-30T18:37:16.908Z,english_797.wav,0,peel,814,45,4,japanese,f,1,0.1,76.52998448,0.25625033
KUA,106,2,2024-06-30T18:37:16.908Z,english_797.wav,0,peel,814,45,4,japanese,f,2,0.2,-52.30950648,1.63910521
KUA,106,2,2024-06-30T18:37:16.908Z,english_797.wav,0,peel,814,45,4,japanese,f,3,0.3,-19.27189704,1.44412191
KUA,106,2,2024-06-30T18:37:16.908Z,english_797.wav,0,peel,814,45,4,japanese,f,4,0.32341667,-68.52312916,1.41513857
KUA,107,2,2024-06-30T18:37:16.908Z,english_860.wav,0,pill,856,45,4,japanese,f,0,0.0,10.25066679,1.47817545
KUA,107,2,2024-06-30T18:37:16.908Z,english_860.wav,0,pill,856,45,4,japanese,f,1,0.1,55.87909831,1.32859058
KUA,107,2,2024-06-30T18:37:16.908Z,english_860.wav,0,pill,856,45,4,japanese,f,2,0.2,81.09373959,0.99201561
KUA,107,2,2024-06-30T18:37:16.908Z,english_860.wav,0,pill,856,45,4,japanese,f,3,0.3,15.52286826,0.3312489
KUA,107,2,2024-06-30T18:37:16.908Z,english_860.wav,0,pill,856,45,4,japanese,f,4,0.32341667,58.18702512,0.66001743
KUA,108,2,2024-06-30T18:37:16.908Z,english_80.wav,0,pill,903,45,4,japanese,f,0,0.0,33.21374474,1.09809668
KUA,108,2,2024-06-30T18:37:16.908Z,english_80.wav,0,pill,903,45,4,japanese,f,1,0.1,-72.2618742,1.73594877
KUA,108,2,2024-06-30T18:37:16.908Z,english_80.wav,0,pill,903,45,4,japanese,f,2,0.2,-29.44860443,0.30037535
KUA,108,2,2024-06-30T18:37:16.908Z,english_80.wav,0,pill,903,45,4,japanese,f,3,0.3,-33.36418129,0.36613598
KUA,108,2,2024-06-30T18:37:16.908Z,english_80.wav,0,pill,903,45,4,japanese,f,4,0.32341667,-65.11319145,0.50687614
KUA,109,2,2024-06-30T18:37:16.908Z,english_229.wav,0,peel,747,45,4,japanese,f,0,0.0,51.56916705,1.25898044
KUA,109,2,2024-06-30T18:37:16.908Z,english_229.wav,0,peel,747,45,4,japanese,f,1,0.1,-51.28327497,0.34588319
KUA,109,2,2024-06-30T18:37:16.908Z,english_229.wav,0,peel,747,45,4,japanese,f,2,0.2,97.78221202,1.91985924
KUA,109,2,2024-06-30T18:37:16.908Z,english_229.wav,0,peel,747,45,4,japanese,f,3,0.3,-75.98126047,0.82059623
KUA,109,2,2024-06-30T18:37:16.908Z,english_229.wav,0,peel,747,45,4,japanese,f,4,0.32341667,-44.05308002,1.38191391
KUA,110,2,2024-06-30T18:37:16.908Z,english_987.wav,0,peel,665,45,4,japanese,f,0,0.0,91.33137772,1.82656395
KUA,110,2,2024-06-30T18:37:16.908Z,english_987.wav,0,peel,665,45,4,japanese,f,1,0.1,-39.20299527,1.12122948
KUA,110,2,2024-06-30T18:37:16.908Z,english_987.wav,0,peel,665,45,4,japanese,f,2,0.2,78.9852337,1.12025045
KUA,110,2,2024-06-30T18:37:16.908Z,english_987.wav,0,peel,665,45,4,japanese,f,3,0.3,-94.66209845,1.02557261
KUA,110,2,2024-06-30T18:37:16.908Z,english_987.wav,0,peel,665,45,4,japanese,f,4,0.32341667,-71.76730894,1.06580695
KUA,111,2,2024-06-30T18:37:16.908Z,english_254.wav,0,peel,770,45,4,japanese,f,0,0.0,-9.19838866,1.99657173
KUA,111,2,2024-06-30T18:37:16.908Z,english_254.wav,0,peel,770,45,4,japanese,f,1,0.1,15.86633291,1.39044581
KUA,111,2,2024-06-30T18:37:16.908Z,english_254.wav,0,peel,770,45,4,japanese,f,2,0.2,-42.67167238,1.09933375
KUA,111,2,2024-06-30T18:37:16.908Z,english_254.wav,0,peel,770,45,4,japanese,f,3,0.3,-11.53254556,0.78821302
KUA,111,2,2024-06-30T18:37:16.908Z,english_254.wav,0,peel,770,45,4,japanese,f,4,0.32341667,-12.27536806,0.39297423
KUA,112,2,2024-06-30T18:37:16.908Z,english_981.wav,0,pill,833,45,4,japanese,f,0,0.0,-19.49446297,1.96452006
KUA,112,2,2024-06-30T18:37:16.908Z,english_981.wav,0,pill,833,45,4,japanese,f,1,0.1,-69.0386812,1.2006287
KUA,112,2,2024-06-30T18:37:16.908Z,english_981.wav,0,pill,833,45,4,japanese,f,2,0.2,-25.77088537,0.98600753
KUA,112,2,2024-06-30T18:37:16.908Z,english_981.wav,0,pill,833,45,4,japanese,f,3,0.3,65.67633712,0.21362544
KUA,112,2,2024-06-30T18:37:16.908Z,english_981.wav,0,pill,833,45,4,japanese,f,4,0.32341667,-6.1640169,0.33780549
KUA,113,2,2024-06-30T18:37:16.908Z,english_459.wav,0,pill,782,45,4,japanese,f,0,0.0,30.23503988,1.42205963
KUA,113,2,2024-06-30T18:37:16.908Z,english_459.wav,0,pill,782,45,4,japanese,f,1,0.1,-58.09525271,0.13069666
KUA,113,2,2024-06-30T18:37:16.908Z,english_459.wav,0,pill,782,45,4,japanese,f,2,0.2,22.03715272,0.55220733
KUA,113,2,2024-06-30T18:37:16.908Z,english_459.wav,0,pill,782,45,4,japanese,f,3,0.3,-33.09468511,0.48840502
KUA,113,2,2024-06-30T18:37:16.908Z,english_459.wav,0,pill,782,45,4,japanese,f,4,0.32341667,-9.46836848,1.08918734
KUA,114,2,2024-06-30T18:37:16.908Z,english_132.wav,0,peel,521,45,4,japanese,f,0,0.0,-72.51222148,1.10010631
KUA,114,2,2024-06-30T18:37:16.908Z,english_132.wav,0,peel,521,45,4,japanese,f,1,0.1,-7.68798614,1.14985521
KUA,114,2,2024-06-30T18:37:16.908Z,english_132.wav,0,peel,521,45,4,japanese,f,2,0.2,-26.80347179,1.49426164
KUA,114,2,2024-06-30T18:37:16.908Z,english_132.wav,0,peel,521,45,4,japanese,f,3,0.3,-51.62992771,1.25622472
KUA,114,2,2024-06-30T18:37:16.908Z,english_132.wav,0,peel,521,45,4,japanese,f,4,0.32341667,-1.85745595,0.89976888
KUA,115,2,2024-06-30T18:37:16.908Z,english_210.wav,0,peel,649,45,4,japanese,f,0,0.0,43.03172008,0.27268056
KUA,115,2,2024-06-30T18:37:16.908Z,english_210.wav,0,peel,649,45,4,japanese,f,1,0.1,58.48529179,0.59270989
KUA,115,2,2024-06-30T18:37:16.908Z,english_210.wav,0,peel,649,45,4,japanese,f,2,0.2,57.29337371,1.57355776
KUA,115,2,2024-06-30T18:37:16.908Z,english_210.wav,0,peel,649,45,4,japanese,f,3,0.3,-45.34642936,1.97663548
KUA,115,2,2024-06-30T18:37:16.908Z,english_210.wav,0,peel,649,45,4,japanese,f,4,0.32341667,-3.49486879,1.39997912
KUA,116,2,2024-06-30T18:37:16.908Z,english_312.wav,0,pill,893,45,4,japanese,f,0,0.0,44.01610098,1.36033213
KUA,116,2,2024-06-30T18:37:16.908Z,english_312.wav,0,pill,893,45,4,japanese,f,1,0.1,-34.76139374,0.08557756
KUA,116,2,2024-06-30T18:37:16.908Z,english_312.wav,0,pill,893,45,4,japanese,f,2,0.2,-43.47986862,1.06509633
KUA,116,2,2024-06-30T18:37:16.908Z,english_312.wav,0,pill,893,45,4,japanese,f,3,0.3,-9.79517271,0.67257935
KUA,116,2,2024-06-30T18:37:16.908Z,english_312.wav,0,pill,893,45,4,japanese,f,4,0.32341667,85.48914895,0.12614926
KUA,117,2,2024-06-30T18:37:16.908Z,english_687.wav,0,pill,740,45,4,japanese,f,0,0.0,86.90300909,0.475784
KUA,117,2,2024-06-30T18:37:16.908Z,english_687.wav,0,pill,740,45,4,japanese,f,1,0.1,79.71843279,0.40603367
KUA,117,2,2024-06-30T18:37:16.908Z,english_687.wav,0,pill,740,45,4,japanese,f,2,0.2,34.94433723,0.97706088
KUA,117,2,2024-06-30T18:37:16.908Z,english_687.wav,0,pill,740,45,4,japanese,f,3,0.3,-45.53952821,0.65075382
KUA,117,2,2024-06-30T18:37:16.908Z,english_687.wav,0,pill,740,45,4,japanese,f,4,0.32341667,63.0204093,0.93918167
KUA,118,2,2024-06-30T18:37:16.908Z,english_58.wav,0,peel,606,45,4,japanese,f,0,0.0,20.12478601,1.19415515
KUA,118,2,2024-06-30T18:37:16.908Z,english_58.wav,0,peel,606,45,4,japanese,f,1,0.1,-22.60038942,0.26098942
KUA,118,2,2024-06-30T18:37:16.908Z,english_58.wav,0,peel,606,45,4,japanese,f,2,0.2,34.38627512,1.99195241
KUA,118,2,2024-06-30T18:37:16.908Z,english_58.wav,0,peel,606,45,4,japanese,f,3,0.3,30.90369434,0.42925074
KUA,118,2,2024-06-30T18:37:16.908Z,english_58.wav,0,peel,606,45,4,japanese,f,4,0.32341667,11.39971337,0.50368767
KUA,119,2,2024-06-30T18:37:16.908Z,english_953.wav,0,peel,669,45,4,japanese,f,0,0.0,-16.02430182,0.31806788
KUA,119,2,2024-06-30T18:37:16.908Z,english_953.wav,0,peel,669,45,4,japanese,f,1,0.1,29.58660593,0.5983964
KUA,119,2,2024-06-30T18:37:16.908Z,english_953.wav,0,peel,669,45,4,japanese,f,2,0.2,-69.77021268,1.47459901
KUA,119,2,2024-06-30T18:37:16.908Z,english_953.wav,0,peel,669,45,4,japanese,f,3,0.3,10.24378989,1.63555671
KUA,119,2,2024-06-30T18:37:16.908Z,english_953.wav,0,peel,669,45,4,japanese,f,4,0.32341667,-68.66835117,1.74756834
KUA,120,2,2024-06-30T18:37:16.908Z,english_808.wav,0,peel,1840,45,4,japanese,f,0,0.0,23.02589628,1.07384277
KUA,120,2,2024-06-30T18:37:16.908Z,english_808.wav,0,peel,1840,45,4,japanese,f,1,0.1,10.58817829,1.3919179
KUA,120,2,2024-06-30T18:37:16.908Z,english_808.wav,0,peel,1840,45,4,japanese,f,2,0.2,36.77134597,0.54960524
KUA,120,2,2024-06-30T18:37:16.908Z,english_808.wav,0,peel,1840,45,4,japanese,f,3,0.3,-30.31603221,1.95871365
KUA,120,2,2024-06-30T18:37:16.908Z,english_808.wav,0,peel,1840,45,4,japanese,f,4,0.32341667,9.74764343,0.79150541
KUA,121,2,2024-06-30T18:37:16.908Z,english_281.wav,0,pill,776,45,4,japanese,f,0,0.0,-55.42099824,1.64310908
KUA,121,2,2024-06-30T18:37:16.908Z,english_281.wav,0,pill,776,45,4,japanese,f,1,0.1,30.44020676,0.76997124
KUA,121,2,2024-06-30T18:37:16.908Z,english_281.wav,0,pill,776,45,4,japanese,f,2,0.2,53.34739709,0.1940809
KUA,121,2,2024-06-30T18:37:16.908Z,english_281.wav,0,pill,776,45,4,japanese,f,3,0.3,-32.26512488,0.25794937
KUA,121,2,2024-06-30T18:37:16.908Z,english_281.wav,0,pill,776,45,4,japanese,f,4,0.32341667,-59.86883114,1.27043487
KUA,122,2,2024-06-30T18:37:16.908Z,english_477.wav,0,pill,702,45,4,japanese,f,0,0.0,9.7496965,0.26828956
KUA,122,2,2024-06-30T18:37:16.908Z,english_477.wav,0,pill,702,45,4,japanese,f,1,0.1,70.56003184,0.51901368
KUA,122,2,2024-06-30T18:37:16.908Z,english_477.wav,0,pill,702,45,4,japanese,f,2,0.2,34.49551211,0.35677294
KUA,122,2,2024-06-30T18:37:16.908Z,english_477.wav,0,pill,702,45,4,japanese,f,3,0.3,-75.0597055,1.39462812
KUA,122,2,2024-06-30T18:37:16.908Z,english_477.wav,0,pill,702,45,4,japanese,f,4,0.32341667,-82.15638008,0.55199483
KUA,123,2,2024-06-30T18:37:16.908Z,english_824.wav,0,peel,536,45,4,japanese,f,0,0.0,80.46503136,1.43025592
KUA,123,2,2024-06-30T18:37:16.908Z,english_824.wav,0,peel,536,45,4,japanese,f,1,0.1,-48.668347,0.89138167
KUA,123,2,2024-06-30T18:37:16.908Z,english_824.wav,0,peel,536,45,4,japanese,f,2,0.2,37.27765876,1.91281619
KUA,123,2,2024-06-30T18:37:16.908Z,english_824.wav,0,peel,536,45,4,japanese,f,3,0.3,-91.29945309,0.71335031
KUA,123,2,2024-06-30T18:37:16.908Z,english_824.wav,0,peel,536,45,4,japanese,f,4,0.32341667,14.46507007,0.89780818
KUA,124,2,2024-06-30T18:37:16.908Z,english_485.wav,0,peel,1121,45,4,japanese,f,0,0.0,-7.08941798,1.8206563
KUA,124,2,2024-06-30T18:37:16.908Z,english_485.wav,0,peel,1121,45,4,japanese,f,1,0.1,-70.64579204,0.10660577
KUA,124,2,2024-06-30T18:37:16.908Z,english_485.wav,0,peel,1121,45,4,japanese,f,2,0.2,23.79115045,1.92760945
KUA,124,2,2024-06-30T18:37:16.908Z,english_485.wav,0,peel,1121,45,4,japanese,f,3,0.3,0.80487994,0.77499174
KUA,124,2,2024-06-30T18:37:16.908Z,english_485.wav,0,peel,1121,45,4,japanese,f,4,0.32341667,4.72097057,1.20070888
KUA,125,2,2024-06-30T18:37:16.908Z,english_696.wav,0,peel,556,45,4,japanese,f,0,0.0,-48.45243871,0.15817179
KUA,125,2,2024-06-30T18:37:16.908Z,english_696.wav,0,peel,556,45,4,japanese,f,1,0.1,82.41340646,0.69939178
KUA,125,2,2024-06-30T18:37:16.908Z,english_696.wav,0,peel,556,45,4,japanese,f,2,0.2,-7.53339347,1.28466279
KUA,125,2,2024-06-30T18:37:16.908Z,english_696.wav,0,peel,556,45,4,japanese,f,3,0.3,-30.87957178,1.90686052
KUA,125,2,2024-06-30T18:37:16.908Z,english_696.wav,0,peel,556,45,4,japanese,f,4,0.32341667,75.39947922,0.63235415
KUA,126,2,2024-06-30T18:37:16.908Z,english_588.wav,0,pill,1280,45,4,japanese,f,0,0.0,99.95047602,0.54608042
KUA,126,2,2024-06-30T18:37:16.908Z,english_588.wav,0,pill,1280,45,4,japanese,f,1,0.1,6.8401109,0.86340392
KUA,126,2,2024-06-30T18:37:16.908Z,english_588.wav,0,pill,1280,45,4,japanese,f,2,0.2,-15.9093749,0.01522231
KUA,126,2,2024-06-30T18:37:16.908Z,english_588.wav,0,pill,1280,45,4,japanese,f,3,0.3,-95.80500507,0.86017392
KUA,126,2,2024-06-30T18:37:16.908Z,english_588.wav,0,pill,1280,45,4,japanese,f,4,0.32341667,23.59255786,0.36914066
KUA,127,2,2024-06-30T18:37:16.908Z,english_970.wav,0,peel,626,45,4,japanese,f,0,0.0,37.22911191,0.60712849
KUA,127,2,2024-06-30T18:37:16.908Z,english_970.wav,0,peel,626,45,4,japanese,f,1,0.1,36.57191813,1.26781741
KUA,127,2,2024-06-30T18:37:16.908Z,english_970.wav,0,peel,626,45,4,japanese,f,2,0.2,20.2344678,1.29373459
KUA,127,2,2024-06-30T18:37:16.908Z,english_970.wav,0,peel,626,45,4,japanese,f,3,0.3,-86.31030026,0.18112256
KUA,127,2,2024-06-30T18:37:16.908Z,english_970.wav,0,peel,626,45,4,japanese,f,4,0.32341667,-83.96880691,1.07780169
KUA,128,2,2024-06-30T18:37:16.908Z,english_950.wav,0,pill,925,45,4,japanese,f,0,0.0,-21.9776243,0.20752278
KUA,128,2,2024-06-30T18:37:16.908Z,english_950.wav,0,pill,925,45,4,japanese,f,1,0.1,-41.40023943,1.93939622
KUA,128,2,2024-06-30T18:37:16.908Z,english_950.wav,0,pill,925,45,4,japanese,f,2,0.2,48.01515584,1.55608343
KUA,128,2,2024-06-30T18:37:16.908Z,english_950.wav,0,pill,925,45,4,japanese,f,3,0.3,-87.95551252,1.49634866
KUA,128,2,2024-06-30T18:37:16.908Z,english_950.wav,0,pill,925,45,4,japanese,f,4,0.32341667,-39.5252386,0.91783384
KUA,129,2,2024-06-30T18:37:16.908Z,english_398.wav,0,peel,1138,45,4,japanese,f,0,0.0,-72.24204172,0.50855809
KUA,129,2,2024-06-30T18:37:16.908Z,english_398.wav,0,peel,1138,45,4,japanese,f,1,0.1,29.80242672,0.68040596
KUA,129,2,2024-06-30T18:37:16.908Z,english_398.wav,0,peel,1138,45,4,japanese,f,2,0.2,-29.26741326,1.59063958
KUA,129,2,2024-06-30T18:37:16.908Z,english_398.wav,0,peel,1138,45,4,japanese,f,3,0.3,30.68380911,1.71035635
KUA,129,2,2024-06-30T18:37:16.908Z,english_398.wav,0,peel,1138,45,4,japanese,f,4,0.32341667,-23.61694816,1.737831
KUA,130,2,2024-06-30T18:37:16.908Z,english_576.wav,0,pill,587,45,4,japanese,f,0,0.0,70.71636046,1.40655209
KUA,130,2,2024-06-30T18:37:16.908Z,english_576.wav,0,pill,587,45,4,japanese,f,1,0.1,-53.10414049,0.7609351
KUA,130,2,2024-06-30T18:37:16.908Z,english_576.wav,0,pill,587,45,4,japanese,f,2,0.2,34.4374047,1.0155723
KUA,130,2,2024-06-30T18:37:16.908Z,english_576.wav,0,pill,587,45,4,japanese,f,3,0.3,19.64113521,1.45906276
KUA,130,2,2024-06-30T18:37:16.908Z,english_576.wav,0,pill,587,45,4,japanese,f,4,0.32341667,36.63265498,1.49724695
KUA,131,2,2024-06-30T18:37:16.908Z,english_650.wav,0,pill,737,45,4,japanese,f,0,0.0,-14.34164867,1.10695192
KUA,131,2,2024-06-30T18:37:16.908Z,english_650.wav,0,pill,737,45,4,japanese,f,1,0.1,-59.47569919,1.2442548
KUA,131,2,2024-06-30T18:37:16.908Z,english_650.wav,0,pill,737,45,4,japanese,f,2,0.2,-47.0995584,0.31281267
KUA,131,2,2024-06-30T18:37:16.908Z,english_650.wav,0,pill,737,45,4,japanese,f,3,0.3,-55.25841156,1.9869399
KUA,131,2,2024-06-30T18:37:16.908Z,english_650.wav,0,pill,737,45,4,japanese,f,4,0.32341667,83.92345375,1.10607629
KUA,132,2,2024-06-30T18:37:16.908Z,english_610.wav,0,pill,753,45,4,japanese,f,0,0.0,-14.96432812,0.5672697
KUA,132,2,2024-06-30T18:37:16.908Z,english_610.wav,0,pill,753,45,4,japanese,f,1,0.1,48.51886955,0.75156182
KUA,132,2,2024-06-30T18:37:16.908Z,english_610.wav,0,pill,753,45,4,japanese,f,2,0.2,47.07358548,0.38846335
KUA,132,2,2024-06-30T18:37:16.908Z,english_610.wav,0,pill,753,45,4,japanese,f,3,0.3,17.30383174,1.52072292
KUA,132,2,2024-06-30T18:37:16.908Z,english_610.wav,0,pill,753,45,4,japanese,f,4,0.32341667,1.51764356,1.56024836
KUA,133,2,2024-06-30T18:37:16.908Z,english_316.wav,0,pill,719,45,4,japanese,f,0,0.0,57.83477319,0.36818456
KUA,133,2,2024-06-30T18:37:16.908Z,english_316.wav,0,pill,719,45,4,japanese,f,1,0.1,-58.77664409,0.44097806
KUA,133,2,2024-06-30T18:37:16.908Z,english_316.wav,0,pill,719,45,4,japanese,f,2,0.2,-11.91657597,0.11283472
KUA,133,2,2024-06-30T18:37:16.908Z,english_316.wav,0,pill,719,45,4,japanese,f,3,0.3,34.77508847,1.48283273
KUA,133,2,2024-06-30T18:37:16.908Z,english_316.wav,0,pill,719,45,4,japanese,f,4,0.32341667,-82.62529931,0.30363046
KUA,134,2,2024-06-30T18:37:16.908Z,english_810.wav,0,peel,568,45,4,japanese,f,0,0.0,44.6757801,0.0,0.77700382
KUA,134,2,2024-06-30T18:37:16.908Z,english_810.wav,0,peel,568,45,4,japanese,f,1,0.1,-98.4252216,0.1,1.25917073
KUA,134,2,2024-06-30T18:37:16.908Z,english_810.wav,0,peel,568,45,4,japanese,f,2,0.2,55.4106213,0.2,0.78203472
KUA,134,2,2024-06-30T18:37:16.908Z,english_810.wav,0,peel,568,45,4,japanese,f,3,0.3,-18.4676839,0.3,1.13021068
KUA,134,2,2024-06-30T18:37:16.908Z,english_810.wav,0,peel,568,45,4,japanese,f,4,0.323416667,0.0259169543,0.32341667,0.14578676
KUA,135,2,2024-06-30T18:37:16.908Z,english_401.wav,0,peel,560,45,4,japanese,f,0,0.0,-70.37998858,1.11338134
KUA,135,2,2024-06-30T18:37:16.908Z,english_401.wav,0,peel,560,45,4,japanese,f,1,0.1,49.27188779,1.59691292
KUA,135,2,2024-06-30T18:37:16.908Z,english_401.wav,0,peel,560,45,4,japanese,f,2,0.2,5.09566389,0.88679935
KUA,135,2,2024-06-30T18:37:16.908Z,english_401.wav,0,peel,560,45,4,japanese,f,3,0.3,58.42368176,1.89749174
KUA,135,2,2024-06-30T18:37:16.908Z,english_401.wav,0,peel,560,45,4,japanese,f,4,0.32341667,-43.06407799,1.35831765
KUA,136,2,2024-06-30T18:37:16.908Z,english_27.wav,0,peel,650,45,4,japanese,f,0,0.0,-6.18374659,1.89085405
KUA,136,2,2024-06-30T18:37:16.908Z,english_27.wav,0,peel,650,45,4,japanese,f,1,0.1,32.21095844,0.80138328
KUA,136,2,2024-06-30T18:37:16.908Z,english_27.wav,0,peel,650,45,4,japanese,f,2,0.2,21.02729748,1.01248602
KUA,136,2,2024-06-30T18:37:16.908Z,english_27.wav,0,peel,650,45,4,japanese,f,3,0.3,4.79829383,1.67412938
KUA,136,2,2024-06-30T18:37:16.908Z,english_27.wav,0,peel,650,45,4,japanese,f,4,0.32341667,-70.7577659,0.3387802
KUA,137,2,2024-06-30T18:37:16.908Z,english_12.wav,0,pill,832,45,4,japanese,f,0,0.0,48.33680056,1.48429429
KUA,137,2,2024-06-30T18:37:16.908Z,english_12.wav,0,pill,832,45,4,japanese,f,1,0.1,27.41870997,0.15715938
KUA,137,2,2024-06-30T18:37:16.908Z,english_12.wav,0,pill,832,45,4,japanese,f,2,0.2,-39.95667364,0.62940339
KUA,137,2,2024-06-30T18:37:16.908Z,english_12.wav,0,pill,832,45,4,japanese,f,3,0.3,73.52964836,0.05281398
KUA,137,2,2024-06-30T18:37:16.908Z,english_12.wav,0,pill,832,45,4,japanese,f,4,0.32341667,-36.35494906,1.6412938
KUA,138,2,2024-06-30T18:37:16.908Z,english_155.wav,0,peel,459,45,4,japanese,f,0,0.0,53.87474094,1.93436975
KUA,138,2,2024-06-30T18:37:16.908Z,english_155.wav,0,peel,459,45,4,japanese,f,1,0.1,74.81745726,0.64472983
KUA,138,2,2024-06-30T18:37:16.908Z,english_155.wav,0,peel,459,45,4,japanese,f,2,0.2,8.25192738,1.6098708
KUA,138,2,2024-06-30T18:37:16.908Z,english_155.wav,0,peel,459,45,4,japanese,f,3,0.3,-52.88121257,1.15705679
KUA,138,2,2024-06-30T18:37:16.908Z,english_155.wav,0,peel,459,45,4,japanese,f,4,0.32341667,48.31209788,0.66500292
KUA,139,2,2024-06-30T18:37:16.908Z,english_106.wav,0,peel,655,45,4,japanese,f,0,0.0,-46.25200282,0.21046793
KUA,139,2,2024-06-30T18:37:16.908Z,english_106.wav,0,peel,655,45,4,japanese,f,1,0.1,-83.38564728,1.42142181
KUA,139,2,2024-06-30T18:37:16.908Z,english_106.wav,0,peel,655,45,4,japanese,f,2,0.2,68.00501759,0.86156936
KUA,139,2,2024-06-30T18:37:16.908Z,english_106.wav,0,peel,655,45,4,japanese,f,3,0.3,49.15199267,0.65348811
KUA,139,2,2024-06-30T18:37:16.908Z,english_106.wav,0,peel,655,45,4,japanese,f,4,0.32341667,-5.93966373,0.76273979
KUA,140,2,2024-06-30T18:37:16.908Z,english_358.wav,0,peel,935,45,4,japanese,f,0,0.0,-24.40280242,0.64702298
KUA,140,2,2024-06-30T18:37:16.908Z,english_358.wav,0,peel,935,45,4,japanese,f,1,0.1,62.18566088,0.86836285
KUA,140,2,2024-06-30T18:37:16.908Z,english_358.wav,0,peel,935,45,4,japanese,f,2,0.2,5.26675109,1.05826104
KUA,140,2,2024-06-30T18:37:16.908Z,english_358.wav,0,peel,935,45,4,japanese,f,3,0.3,-31.91571391,1.98011631
KUA,140,2,2024-06-30T18:37:16.908Z,english_358.wav,0,peel,935,45,4,japanese,f,4,0.32341667,27.35112364,0.35058307
KUA,141,2,2024-06-30T18:37:16.908Z,english_896.wav,0,pill,641,45,4,japanese,f,0,0.0,-76.63716622,1.08893336
KUA,141,2,2024-06-30T18:37:16.908Z,english_896.wav,0,pill,641,45,4,japanese,f,1,0.1,-73.11298951,0.41748987
KUA,141,2,2024-06-30T18:37:16.908Z,english_896.wav,0,pill,641,45,4,japanese,f,2,0.2,48.53347054,0.32012442
KUA,141,2,2024-06-30T18:37:16.908Z,english_896.wav,0,pill,641,45,4,japanese,f,3,0.3,-4.46661278,0.63387312
KUA,141,2,2024-06-30T18:37:16.908Z,english_896.wav,0,pill,641,45,4,japanese,f,4,0.32341667,-44.69533701,1.27766005
KUA,142,2,2024-06-30T18:37:16.908Z,english_377.wav,0,peel,336,45,4,japanese,f,0,0.0,74.10679581,1.90218841
KUA,142,2,2024-06-30T18:37:16.908Z,english_377.wav,0,peel,336,45,4,japanese,f,1,0.1,-97.36412995,1.60160035
KUA,142,2,2024-06-30T18:37:16.908Z,english_377.wav,0,peel,336,45,4,japanese,f,2,0.2,-84.25672888,1.668912
KUA,142,2,2024-06-30T18:37:16.908Z,english_377.wav,0,peel,336,45,4,japanese,f,3,0.3,27.09308902,1.51590505
KUA,142,2,2024-06-30T18:37:16.908Z,english_377.wav,0,peel,336,45,4,japanese,f,4,0.32341667,-12.33253686,0.99909344
KUA,143,2,2024-06-30T18:37:16.908Z,english_396.wav,0,peel,564,45,4,japanese,f,0,0.0,2.39126912,1.48231007
KUA,143,2,2024-06-30T18:37:16.908Z,english_396.wav,0,peel,564,45,4,japanese,f,1,0.1,-38.95035948,0.85829723
KUA,143,2,2024-06-30T18:37:16.908Z,english_396.wav,0,peel,564,45,4,japanese,f,2,0.2,78.31320688,1.16655306
KUA,143,2,2024-06-30T18:37:16.908Z,english_396.wav,0,peel,564,45,4,japanese,f,3,0.3,16.98024706,0.51680164
KUA,143,2,2024-06-30T18:37:16.908Z,english_396.wav,0,peel,564,45,4,japanese,f,4,0.32341667,44.66397079,1.5133775
KUA,144,2,2024-06-30T18:37:16.908Z,english_848.wav,0,peel,1547,45,4,japanese,f,0,0.0,43.30233352,0.12582596
KUA,144,2,2024-06-30T18:37:16.908Z,english_848.wav,0,peel,1547,45,4,japanese,f,1,0.1,-77.77691247,1.72621372
KUA,144,2,2024-06-30T18:37:16.908Z,english_848.wav,0,peel,1547,45,4,japanese,f,2,0.2,-68.99020863,1.753656
KUA,144,2,2024-06-30T18:37:16.908Z,english_848.wav,0,peel,1547,45,4,japanese,f,3,0.3,-43.68641023,1.37442753
KUA,144,2,2024-06-30T18:37:16.908Z,english_848.wav,0,peel,1547,45,4,japanese,f,4,0.32341667,-14.19502025,1.04930351
KUA,145,2,2024-06-30T18:37:16.908Z,english_389.wav,0,peel,651,45,4,japanese,f,0,0.0,36.16487693,1.25286497
KUA,145,2,2024-06-30T18:37:16.908Z,english_389.wav,0,peel,651,45,4,japanese,f,1,0.1,-97.36259769,1.31396789
KUA,145,2,2024-06-30T18:37:16.908Z,english_389.wav,0,peel,651,45,4,japanese,f,2,0.2,24.50411951,1.84060757
KUA,145,2,2024-06-30T18:37:16.908Z,english_389.wav,0,peel,651,45,4,japanese,f,3,0.3,43.1395046,0.64046023
KUA,145,2,2024-06-30T18:37:16.908Z,english_389.wav,0,peel,651,45,4,japanese,f,4,0.32341667,85.14605982,1.47992762
KUA,146,2,2024-06-30T18:37:16.908Z,english_310.wav,0,peel,652,45,4,japanese,f,0,0.0,82.1385274,0.14341218
KUA,146,2,2024-06-30T18:37:16.908Z,english_310.wav,0,peel,652,45,4,japanese,f,1,0.1,-33.74608058,1.80934389
KUA,146,2,2024-06-30T18:37:16.908Z,english_310.wav,0,peel,652,45,4,japanese,f,2,0.2,62.12487376,1.28785402
KUA,146,2,2024-06-30T18:37:16.908Z,english_310.wav,0,peel,652,45,4,japanese,f,3,0.3,96.31437548,1.13060378
KUA,146,2,2024-06-30T18:37:16.908Z,english_310.wav,0,peel,652,45,4,japanese,f,4,0.32341667,-23.64802517,1.05137249
KUA,147,2,2024-06-30T18:37:16.908Z,english_843.wav,0,pill,567,45,4,japanese,f,0,0.0,-34.38568909,1.38988397
KUA,147,2,2024-06-30T18:37:16.908Z,english_843.wav,0,pill,567,45,4,japanese,f,1,0.1,91.48235516,0.61638546
KUA,147,2,2024-06-30T18:37:16.908Z,english_843.wav,0,pill,567,45,4,japanese,f,2,0.2,45.43581208,1.5800421
KUA,147,2,2024-06-30T18:37:16.908Z,english_843.wav,0,pill,567,45,4,japanese,f,3,0.3,47.04005582,1.07327256
KUA,147,2,2024-06-30T18:37:16.908Z,english_843.wav,0,pill,567,45,4,japanese,f,4,0.32341667,30.80916685,0.46994626
KUA,148,2,2024-06-30T18:37:16.908Z,english_872.wav,0,pill,651,45,4,japanese,f,0,0.0,0.56374655,0.10935802
KUA,148,2,2024-06-30T18:37:16.908Z,english_872.wav,0,pill,651,45,4,japanese,f,1,0.1,-70.88107799,0.91778609
KUA,148,2,2024-06-30T18:37:16.908Z,english_872.wav,0,pill,651,45,4,japanese,f,2,0.2,6.46677515,1.38740199
KUA,148,2,2024-06-30T18:37:16.908Z,english_872.wav,0,pill,651,45,4,japanese,f,3,0.3,-23.51354109,0.12682507
KUA,148,2,2024-06-30T18:37:16.908Z,english_872.wav,0,pill,651,45,4,japanese,f,4,0.32341667,81.64578493,0.71067476
KUA,149,2,2024-06-30T18:37:16.908Z,english_529.wav,0,pill,663,45,4,japanese,f,0,0.0,13.90759343,0.83001961
KUA,149,2,2024-06-30T18:37:16.908Z,english_529.wav,0,pill,663,45,4,japanese,f,1,0.1,-33.526088,0.02518437
KUA,149,2,2024-06-30T18:37:16.908Z,english_529.wav,0,pill,663,45,4,japanese,f,2,0.2,-34.32120589,1.61112877
KUA,149,2,2024-06-30T18:37:16.908Z,english_529.wav,0,pill,663,45,4,japanese,f,3,0.3,-18.30112723,0.91948239
KUA,149,2,2024-06-30T18:37:16.908Z,english_529.wav,0,pill,663,45,4,japanese,f,4,0.32341667,16.4796061,0.33204613
KUA,150,3,2024-06-30T18:39:50.681Z,english_489.wav,0,pill,2058,45,4,japanese,f,0,0.0,5.7057461,0.60142671
KUA,150,3,2024-06-30T18:39:50.681Z,english_489.wav,0,pill,2058,45,4,japanese,f,1,0.1,-88.87009038,1.38499056
KUA,150,3,2024-06-30T18:39:50.681Z,english_489.wav,0,pill,2058,45,4,japanese,f,2,0.2,73.69789316,0.38073994
KUA,150,3,2024-06-30T18:39:50.681Z,english_489.wav,0,pill,2058,45,4,japanese,f,3,0.3,8.66804208,0.90212706
KUA,150,3,2024-06-30T18:39:50.681Z,english_489.wav,0,pill,2058,45,4,japanese,f,4,0.32341667,-19.53009002,1.00729778
KUA,151,3,2024-06-30T18:39:50.681Z,english_833.wav,0,peel,1041,45,4,japanese,f,0,0.0,18.29317799,0.49951345
KUA,151,3,2024-06-30T18:39:50.681Z,english_833.wav,0,peel,1041,45,4,japanese,f,1,0.1,20.01945042,1.12176851
KUA,151,3,2024-06-30T18:39:50.681Z,english_833.wav,0,peel,1041,45,4,japanese,f,2,0.2,-77.99741705,0.59960618
KUA,151,3,2024-06-30T18:39:50.681Z,english_833.wav,0,peel,1041,45,4,japanese,f,3,0.3,19.36192697,0.50557433
KUA,151,3,2024-06-30T18:39:50.681Z,english_833.wav,0,peel,1041,45,4,japanese,f,4,0.32341667,43.06785988,0.3288339
KUA,152,3,2024-06-30T18:39:50.681Z,english_897.wav,0,peel,454,45,4,japanese,f,0,0.0,-6.17515852,1.45954458
KUA,152,3,2024-06-30T18:39:50.681Z,english_897.wav,0,peel,454,45,4,japanese,f,1,0.1,-25.56252799,1.4662158
KUA,152,3,2024-06-30T18:39:50.681Z,english_897.wav,0,peel,454,45,4,japanese,f,2,0.2,-51.51756482,1.09304129
KUA,152,3,2024-06-30T18:39:50.681Z,english_897.wav,0,peel,454,45,4,japanese,f,3,0.3,-57.3776393,1.17713492
KUA,152,3,2024-06-30T18:39:50.681Z,english_897.wav,0,peel,454,45,4,japanese,f,4,0.32341667,-65.82780913,1.23726335
KUA,153,3,2024-06-30T18:39:50.681Z,english_871.wav,0,peel,638,45,4,japanese,f,0,0.0,84.63625516,0.21643415
KUA,153,3,2024-06-30T18:39:50.681Z,english_871.wav,0,peel,638,45,4,japanese,f,1,0.1,-19.11058767,1.23538017
KUA,153,3,2024-06-30T18:39:50.681Z,english_871.wav,0,peel,638,45,4,japanese,f,2,0.2,49.1497137,1.26375285
KUA,153,3,2024-06-30T18:39:50.681Z,english_871.wav,0,peel,638,45,4,japanese,f,3,0.3,-83.07816512,0.03257235
KUA,153,3,2024-06-30T18:39:50.681Z,english_871.wav,0,peel,638,45,4,japanese,f,4,0.32341667,11.22002909,1.90703832
KUA,154,3,2024-06-30T18:39:50.681Z,english_471.wav,0,peel,799,45,4,japanese,f,0,0.0,47.42131089,0.58869392
KUA,154,3,2024-06-30T18:39:50.681Z,english_471.wav,0,peel,799,45,4,japanese,f,1,0.1,-63.95282256,1.74739294
KUA,154,3,2024-06-30T18:39:50.681Z,english_471.wav,0,peel,799,45,4,japanese,f,2,0.2,31.67244378,1.10105994
KUA,154,3,2024-06-30T18:39:50.681Z,english_471.wav,0,peel,799,45,4,japanese,f,3,0.3,40.6572625,0.54790015
KUA,154,3,2024-06-30T18:39:50.681Z,english_471.wav,0,peel,799,45,4,japanese,f,4,0.32341667,-18.6332399,1.33029013
KUA,155,3,2024-06-30T18:39:50.681Z,english_385.wav,0,peel,823,45,4,japanese,f,0,0.0,-55.07910634,1.75648555
KUA,155,3,2024-06-30T18:39:50.681Z,english_385.wav,0,peel,823,45,4,japanese,f,1,0.1,-94.47680079,1.20856462
KUA,155,3,2024-06-30T18:39:50.681Z,english_385.wav,0,peel,823,45,4,japanese,f,2,0.2,38.70414457,0.98103352
KUA,155,3,2024-06-30T18:39:50.681Z,english_385.wav,0,peel,823,45,4,japanese,f,3,0.3,-46.17691,1.45745263
KUA,155,3,2024-06-30T18:39:50.681Z,english_385.wav,0,peel,823,45,4,japanese,f,4,0.32341667,2.5941508,0.88353815
KUA,156,3,2024-06-30T18:39:50.681Z,english_631.wav,0,peel,2537,45,4,japanese,f,0,0.0,-74.37700429,0.77307226
KUA,156,3,2024-06-30T18:39:50.681Z,english_631.wav,0,peel,2537,45,4,japanese,f,1,0.1,-18.72790858,0.75923189
KUA,156,3,2024-06-30T18:39:50.681Z,english_631.wav,0,peel,2537,45,4,japanese,f,2,0.2,-40.03216697,1.00825659
KUA,156,3,2024-06-30T18:39:50.681Z,english_631.wav,0,peel,2537,45,4,japanese,f,3,0.3,-98.5967418,1.46579839
KUA,156,3,2024-06-30T18:39:50.681Z,english_631.wav,0,peel,2537,45,4,japanese,f,4,0.32341667,-41.89017921,0.34107994
KUA,157,3,2024-06-30T18:39:50.681Z,english_24.wav,0,peel,987,45,4,japanese,f,0,0.0,83.82729659,0.31203725
KUA,157,3,2024-06-30T18:39:50.681Z,english_24.wav,0,peel,987,45,4,japanese,f,1,0.1,-2.54724082,1.56948954
KUA,157,3,2024-06-30T18:39:50.681Z,english_24.wav,0,peel,987,45,4,japanese,f,2,0.2,88.70909739,0.87333864
KUA,157,3,2024-06-30T18:39:50.681Z,english_24.wav,0,peel,987,45,4,japanese,f,3,0.3,48.93770926,0.88535019
KUA,157,3,2024-06-30T18:39:50.681Z,english_24.wav,0,peel,987,45,4,japanese,f,4,0.32341667,53.25190048,0.66112496
KUA,158,3,2024-06-30T18:39:50.681Z,english_11.wav,0,pill,698,45,4,japanese,f,0,0.0,-20.45826732,1.19869378
KUA,158,3,2024-06-30T18:39:50.681Z,english_11.wav,0,pill,698,45,4,japanese,f,1,0.1,-31.26113472,0.2059713
KUA,158,3,2024-06-30T18:39:50.681Z,english_11.wav,0,pill,698,45,4,japanese,f,2,0.2,84.03210455,0.62296143
KUA,158,3,2024-06-30T18:39:50.681Z,english_11.wav,0,pill,698,45,4,japanese,f,3,0.3,30.35463164,1.49781179
KUA,158,3,2024-06-30T18:39:50.681Z,english_11.wav,0,pill,698,45,4,japanese,f,4,0.32341667,-63.36217442,0.18750748
KUA,159,3,2024-06-30T18:39:50.681Z,english_391.wav,0,pill,613,45,4,japanese,f,0,0.0,67.64906061,0.41951577
KUA,159,3,2024-06-30T18:39:50.681Z,english_391.wav,0,pill,613,45,4,japanese,f,1,0.1,79.28195584,0.03526883
KUA,159,3,2024-06-30T18:39:50.681Z,english_391.wav,0,pill,613,45,4,japanese,f,2,0.2,62.27299227,0.81828659
KUA,159,3,2024-06-30T18:39:50.681Z,english_391.wav,0,pill,613,45,4,japanese,f,3,0.3,-11.10764883,1.2900604
KUA,159,3,2024-06-30T18:39:50.681Z,english_391.wav,0,pill,613,45,4,japanese,f,4,0.32341667,57.41338752,1.95373865
KUA,160,3,2024-06-30T18:39:50.681Z,english_999.wav,0,peel,555,45,4,japanese,f,0,0.0,-43.88463807,1.5561212
KUA,160,3,2024-06-30T18:39:50.681Z,english_999.wav,0,peel,555,45,4,japanese,f,1,0.1,-19.69329198,1.76032244
KUA,160,3,2024-06-30T18:39:50.681Z,english_999.wav,0,peel,555,45,4,japanese,f,2,0.2,-16.47401585,0.67323911
KUA,160,3,2024-06-30T18:39:50.681Z,english_999.wav,0,peel,555,45,4,japanese,f,3,0.3,-27.91485083,0.0725875
KUA,160,3,2024-06-30T18:39:50.681Z,english_999.wav,0,peel,555,45,4,japanese,f,4,0.32341667,-38.65265262,0.89314247
KUA,161,3,2024-06-30T18:39:50.681Z,english_4.wav,0,peel,416,45,4,japanese,f,0,0.0,97.57442054,1.3122383
KUA,161,3,2024-06-30T18:39:50.681Z,english_4.wav,0,peel,416,45,4,japanese,f,1,0.1,57.41970729,1.27661748
KUA,161,3,2024-06-30T18:39:50.681Z,english_4.wav,0,peel,416,45,4,japanese,f,2,0.2,32.67065062,1.16138222
KUA,161,3,2024-06-30T18:39:50.681Z,english_4.wav,0,peel,416,45,4,japanese,f,3,0.3,34.06011343,0.34510216
KUA,161,3,2024-06-30T18:39:50.681Z,english_4.wav,0,peel,416,45,4,japanese,f,4,0.32341667,83.59797788,1.84938224
KUA,162,3,2024-06-30T18:39:50.681Z,english_1.wav,0,peel,394,45,4,japanese,f,0,0.0,53.99031816,1.91732561
KUA,162,3,2024-06-30T18:39:50.681Z,english_1.wav,0,peel,394,45,4,japanese,f,1,0.1,-58.32145174,0.75352701
KUA,162,3,2024-06-30T18:39:50.681Z,english_1.wav,0,peel,394,45,4,japanese,f,2,0.2,-86.75659624,1.40297919
KUA,162,3,2024-06-30T18:39:50.681Z,english_1.wav,0,peel,394,45,4,japanese,f,3,0.3,-31.84945767,0.12157709
KUA,162,3,2024-06-30T18:39:50.681Z,english_1.wav,0,peel,394,45,4,japanese,f,4,0.32341667,-59.21997754,1.57687546
KUA,163,3,2024-06-30T18:39:50.681Z,english_238.wav,0,peel,419,45,4,japanese,f,0,0.0,87.78466979,1.0750983
KUA,163,3,2024-06-30T18:39:50.681Z,english_238.wav,0,peel,419,45,4,japanese,f,1,0.1,65.39287108,0.03626896
KUA,163,3,2024-06-30T18:39:50.681Z,english_238.wav,0,peel,419,45,4,japanese,f,2,0.2,-38.39100082,1.9832234
KUA,163,3,2024-06-30T18:39:50.681Z,english_238.wav,0,peel,419,45,4,japanese,f,3,0.3,-20.01297649,0.17604691
KUA,163,3,2024-06-30T18:39:50.681Z,english_238.wav,0,peel,419,45,4,japanese,f,4,0.32341667,78.31880556,1.61383808
KUA,164,3,2024-06-30T18:39:50.681Z,english_502.wav,0,peel,570,45,4,japanese,f,0,0.0,-23.73065935,0.0797034
KUA,164,3,2024-06-30T18:39:50.681Z,english_502.wav,0,peel,570,45,4,japanese,f,1,0.1,2.70754613,1.83600464
KUA,164,3,2024-06-30T18:39:50.681Z,english_502.wav,0,peel,570,45,4,japanese,f,2,0.2,25.650451,1.48948742
KUA,164,3,2024-06-30T18:39:50.681Z,english_502.wav,0,peel,570,45,4,japanese,f,3,0.3,-49.55254658,1.22465236
KUA,164,3,2024-06-30T18:39:50.681Z,english_502.wav,0,peel,570,45,4,japanese,f,4,0.32341667,16.82642172,1.41984075
KUA,165,3,2024-06-30T18:39:50.681Z,english_619.wav,0,peel,1426,45,4,japanese,f,0,0.0,38.53351318,1.25542912
KUA,165,3,2024-06-30T18:39:50.681Z,english_619.wav,0,peel,1426,45,4,japanese,f,1,0.1,-11.21157995,0.83005785
KUA,165,3,2024-06-30T18:39:50.681Z,english_619.wav,0,peel,1426,45,4,japanese,f,2,0.2,29.79887689,1.51254928
KUA,165,3,2024-06-30T18:39:50.681Z,english_619.wav,0,peel,1426,45,4,japanese,f,3,0.3,48.6384615,0.37972577
KUA,165,3,2024-06-30T18:39:50.681Z,english_619.wav,0,peel,1426,45,4,japanese,f,4,0.32341667,-66.5905708,0.44889873
KUA,166,3,2024-06-30T18:39:50.681Z,english_113.wav,0,pill,1501,45,4,japanese,f,0,0.0,8.7952765,0.51001639
KUA,166,3,2024-06-30T18:39:50.681Z,english_113.wav,0,pill,1501,45,4,japanese,f,1,0.1,91.94692023,1.45766025
KUA,166,3,2024-06-30T18:39:50.681Z,english_113.wav,0,pill,1501,45,4,japanese,f,2,0.2,-6.68088057,1.25674442
KUA,166,3,2024-06-30T18:39:50.681Z,english_113.wav,0,pill,1501,45,4,japanese,f,3,0.3,38.28142065,1.93213547
KUA,166,3,2024-06-30T18:39:50.681Z,english_113.wav,0,pill,1501,45,4,japanese,f,4,0.32341667,-37.19939988,0.45590133
KUA,167,3,2024-06-30T18:39:50.681Z,english_821.wav,0,pill,1563,45,4,japanese,f,0,0.0,-4.04234253,1.62928948
KUA,167,3,2024-06-30T18:39:50.681Z,english_821.wav,0,pill,1563,45,4,japanese,f,1,0.1,50.39518932,0.78033958
KUA,167,3,2024-06-30T18:39:50.681Z,english_821.wav,0,pill,1563,45,4,japanese,f,2,0.2,58.18996785,1.56476115
KUA,167,3,2024-06-30T18:39:50.681Z,english_821.wav,0,pill,1563,45,4,japanese,f,3,0.3,-22.07293427,0.56557752
KUA,167,3,2024-06-30T18:39:50.681Z,english_821.wav,0,pill,1563,45,4,japanese,f,4,0.32341667,56.43229939,0.93389964
KUA,168,3,2024-06-30T18:39:50.681Z,english_490.wav,0,peel,1708,45,4,japanese,f,0,0.0,39.23640548,0.12600295
KUA,168,3,2024-06-30T18:39:50.681Z,english_490.wav,0,peel,1708,45,4,japanese,f,1,0.1,-42.18123516,0.88631808
KUA,168,3,2024-06-30T18:39:50.681Z,english_490.wav,0,peel,1708,45,4,japanese,f,2,0.2,53.94030347,1.76218548
KUA,168,3,2024-06-30T18:39:50.681Z,english_490.wav,0,peel,1708,45,4,japanese,f,3,0.3,-65.41993581,1.86160188
KUA,168,3,2024-06-30T18:39:50.681Z,english_490.wav,0,peel,1708,45,4,japanese,f,4,0.32341667,90.15742696,1.03493088
KUA,169,3,2024-06-30T18:39:50.681Z,english_33.wav,0,pill,1063,45,4,japanese,f,0,0.0,13.53683954,1.37746345
KUA,169,3,2024-06-30T18:39:50.681Z,english_33.wav,0,pill,1063,45,4,japanese,f,1,0.1,-23.61599557,1.14776292
KUA,169,3,2024-06-30T18:39:50.681Z,english_33.wav,0,pill,1063,45,4,japanese,f,2,0.2,60.58241295,1.15899553
KUA,169,3,2024-06-30T18:39:50.681Z,english_33.wav,0,pill,1063,45,4,japanese,f,3,0.3,-2.03686091,0.64766031
KUA,169,3,2024-06-30T18:39:50.681Z,english_33.wav,0,pill,1063,45,4,japanese,f,4,0.32341667,79.90239576,1.69768968
KUA,170,3,2024-06-30T18:39:50.681Z,english_440.wav,0,peel,756,45,4,japanese,f,0,0.0,44.70308901,0.0,1.51497438
KUA,170,3,2024-06-30T18:39:50.681Z,english_440.wav,0,peel,756,45,4,japanese,f,1,0.1,-88.0257567,0.1,1.05972447
KUA,170,3,2024-06-30T18:39:50.681Z,english_440.wav,0,peel,756,45,4,japanese,f,2,0.2,1.19893433,0.2,0.590820378
KUA,170,3,2024-06-30T18:39:50.681Z,english_440.wav,0,peel,756,45,4,japanese,f,3,0.3,19.45485395,0.3,0.680586803
KUA,170,3,2024-06-30T18:39:50.681Z,english_440.wav,0,peel,756,45,4,japanese,f,4,0.32341667,13.00088222,0.323416667,0.000618341324
KUA,171,3,2024-06-30T18:39:50.681Z,english_739.wav,0,peel,810,45,4,japanese,f,0,0.0,-30.44662447,1.4086692
KUA,171,3,2024-06-30T18:39:50.681Z,english_739.wav,0,peel,810,45,4,japanese,f,1,0.1,-27.69908881,0.95518545
KUA,171,3,2024-06-30T18:39:50.681Z,english_739.wav,0,peel,810,45,4,japanese,f,2,0.2,25.08576745,1.0815723
KUA,171,3,2024-06-30T18:39:50.681Z,english_739.wav,0,peel,810,45,4,japanese,f,3,0.3,-20.92476775,0.08724184
KUA,171,3,2024-06-30T18:39:50.681Z,english_739.wav,0,peel,810,45,4,japanese,f,4,0.32341667,-46.92266257,1.12979104
KUA,172,3,2024-06-30T18:39:50.681Z,english_241.wav,0,peel,452,45,4,japanese,f,0,0.0,68.9743722,1.94478574
KUA,172,3,2024-06-30T18:39:50.681Z,english_241.wav,0,peel,452,45,4,japanese,f,1,0.1,68.48567391,1.84895789
KUA,172,3,2024-06-30T18:39:50.681Z,english_241.wav,0,peel,452,45,4,japanese,f,2,0.2,12.6952975,1.1085625
KUA,172,3,2024-06-30T18:39:50.681Z,english_241.wav,0,peel,452,45,4,japanese,f,3,0.3,61.42298605,1.36682755
KUA,172,3,2024-06-30T18:39:50.681Z,english_241.wav,0,peel,452,45,4,japanese,f,4,0.32341667,-18.578671,0.93494379
KUA,173,3,2024-06-30T18:39:50.681Z,english_630.wav,0,pill,693,45,4,japanese,f,0,0.0,97.25925287,0.34607754
KUA,173,3,2024-06-30T18:39:50.681Z,english_630.wav,0,pill,693,45,4,japanese,f,1,0.1,76.95662127,0.15996234
KUA,173,3,2024-06-30T18:39:50.681Z,english_630.wav,0,pill,693,45,4,japanese,f,2,0.2,5.01423186,1.73874617
KUA,173,3,2024-06-30T18:39:50.681Z,english_630.wav,0,pill,693,45,4,japanese,f,3,0.3,-27.88706711,0.41181915
KUA,173,3,2024-06-30T18:39:50.681Z,english_630.wav,0,pill,693,45,4,japanese,f,4,0.32341667,90.69966072,0.77788697
KUA,174,3,2024-06-30T18:39:50.681Z,english_701.wav,0,peel,4400,45,4,japanese,f,0,0.0,87.15265727,1.41120649
KUA,174,3,2024-06-30T18:39:50.681Z,english_701.wav,0,peel,4400,45,4,japanese,f,1,0.1,38.39882515,0.44004622
KUA,174,3,2024-06-30T18:39:50.681Z,english_701.wav,0,peel,4400,45,4,japanese,f,2,0.2,64.60201562,1.15462264
KUA,174,3,2024-06-30T18:39:50.681Z,english_701.wav,0,peel,4400,45,4,japanese,f,3,0.3,12.58613119,1.17454355
KUA,174,3,2024-06-30T18:39:50.681Z,english_701.wav,0,peel,4400,45,4,japanese,f,4,0.32341667,46.94968762,1.38716818
KUA,175,3,2024-06-30T18:39:50.681Z,english_484.wav,0,pill,858,45,4,japanese,f,0,0.0,79.97188672,0.20745104
KUA,175,3,2024-06-30T18:39:50.681Z,english_484.wav,0,pill,858,45,4,japanese,f,1,0.1,-84.58904822,1.46214797
KUA,175,3,2024-06-30T18:39:50.681Z,english_484.wav,0,pill,858,45,4,japanese,f,2,0.2,70.2960477,0.40821612
KUA,175,3,2024-06-30T18:39:50.681Z,english_484.wav,0,pill,858,45,4,japanese,f,3,0.3,-66.44520929,1.23203415
KUA,175,3,2024-06-30T18:39:50.681Z,english_484.wav,0,pill,858,45,4,japanese,f,4,0.32341667,-78.91715359,1.26593617
KUA,176,3,2024-06-30T18:39:50.681Z,english_341.wav,0,pill,756,45,4,japanese,f,0,0.0,-3.29192029,0.92007635
KUA,176,3,2024-06-30T18:39:50.681Z,english_341.wav,0,pill,756,45,4,japanese,f,1,0.1,-63.07334109,0.76766635
KUA,176,3,2024-06-30T18:39:50.681Z,english_341.wav,0,pill,756,45,4,japanese,f,2,0.2,-52.81319379,0.00478881
KUA,176,3,2024-06-30T18:39:50.681Z,english_341.wav,0,pill,756,45,4,japanese,f,3,0.3,47.65296252,0.69804387
KUA,176,3,2024-06-30T18:39:50.681Z,english_341.wav,0,pill,756,45,4,japanese,f,4,0.32341667,-2.67842738,0.15231077
KUA,177,3,2024-06-30T18:39:50.681Z,english_51.wav,0,pill,648,45,4,japanese,f,0,0.0,88.48054236,0.21487201
KUA,177,3,2024-06-30T18:39:50.681Z,english_51.wav,0,pill,648,45,4,japanese,f,1,0.1,-53.5534646,0.90061677
KUA,177,3,2024-06-30T18:39:50.681Z,english_51.wav,0,pill,648,45,4,japanese,f,2,0.2,-33.31344908,0.24834744
KUA,177,3,2024-06-30T18:39:50.681Z,english_51.wav,0,pill,648,45,4,japanese,f,3,0.3,87.0533187,1.31052611
KUA,177,3,2024-06-30T18:39:50.681Z,english_51.wav,0,pill,648,45,4,japanese,f,4,0.32341667,-16.55219825,0.58644625
KUA,178,3,2024-06-30T18:39:50.681Z,english_320.wav,0,peel,1708,45,4,japanese,f,0,0.0,-85.59568725,1.40519879
KUA,178,3,2024-06-30T18:39:50.681Z,english_320.wav,0,peel,1708,45,4,japanese,f,1,0.1,-85.79055124,0.4213256
KUA,178,3,2024-06-30T18:39:50.681Z,english_320.wav,0,peel,1708,45,4,japanese,f,2,0.2,-34.52195848,0.82537755
KUA,178,3,2024-06-30T18:39:50.681Z,english_320.wav,0,peel,1708,45,4,japanese,f,3,0.3,14.03031204,0.50617831
KUA,178,3,2024-06-30T18:39:50.681Z,english_320.wav,0,peel,1708,45,4,japanese,f,4,0.32341667,45.83597199,1.22725326
KUA,179,3,2024-06-30T18:39:50.681Z,english_342.wav,0,peel,673,45,4,japanese,f,0,0.0,78.00911228,0.99673345
KUA,179,3,2024-06-30T18:39:50.681Z,english_342.wav,0,peel,673,45,4,japanese,f,1,0.1,-28.67768894,1.80563483
KUA,179,3,2024-06-30T18:39:50.681Z,english_342.wav,0,peel,673,45,4,japanese,f,2,0.2,73.55618202,1.38552336
KUA,179,3,2024-06-30T18:39:50.681Z,english_342.wav,0,peel,673,45,4,japanese,f,3,0.3,93.0509223,0.17145116
KUA,179,3,2024-06-30T18:39:50.681Z,english_342.wav,0,peel,673,45,4,japanese,f,4,0.32341667,-2.74816459,0.15059009
KUA,180,3,2024-06-30T18:39:50.681Z,english_612.wav,0,pill,812,45,4,japanese,f,0,0.0,-84.32217164,1.34068621
KUA,180,3,2024-06-30T18:39:50.681Z,english_612.wav,0,pill,812,45,4,japanese,f,1,0.1,36.55311424,0.03443149
KUA,180,3,2024-06-30T18:39:50.681Z,english_612.wav,0,pill,812,45,4,japanese,f,2,0.2,92.38334081,0.45903509
KUA,180,3,2024-06-30T18:39:50.681Z,english_612.wav,0,pill,812,45,4,japanese,f,3,0.3,11.68953794,0.60209198
KUA,180,3,2024-06-30T18:39:50.681Z,english_612.wav,0,pill,812,45,4,japanese,f,4,0.32341667,43.3279226,0.29533154
KUA,181,3,2024-06-30T18:39:50.681Z,english_294.wav,0,peel,449,45,4,japanese,f,0,0.0,-92.15775888,0.74816787
KUA,181,3,2024-06-30T18:39:50.681Z,english_294.wav,0,peel,449,45,4,japanese,f,1,0.1,71.96645866,1.71916745
KUA,181,3,2024-06-30T18:39:50.681Z,english_294.wav,0,peel,449,45,4,japanese,f,2,0.2,-25.46852775,1.7524902
KUA,181,3,2024-06-30T18:39:50.681Z,english_294.wav,0,peel,449,45,4,japanese,f,3,0.3,17.21488016,0.9780509
KUA,181,3,2024-06-30T18:39:50.681Z,english_294.wav,0,peel,449,45,4,japanese,f,4,0.32341667,-10.41176069,1.21177262
KUA,182,3,2024-06-30T18:39:50.681Z,english_774.wav,0,pill,628,45,4,japanese,f,0,0.0,-13.3479616,1.45409172
KUA,182,3,2024-06-30T18:39:50.681Z,english_774.wav,0,pill,628,45,4,japanese,f,1,0.1,-18.75352159,1.07775337
KUA,182,3,2024-06-30T18:39:50.681Z,english_774.wav,0,pill,628,45,4,japanese,f,2,0.2,-41.83192829,0.61872946
KUA,182,3,2024-06-30T18:39:50.681Z,english_774.wav,0,pill,628,45,4,japanese,f,3,0.3,14.77986843,1.87871381
KUA,182,3,2024-06-30T18:39:50.681Z,english_774.wav,0,pill,628,45,4,japanese,f,4,0.32341667,45.85609187,1.0399825
KUA,183,3,2024-06-30T18:39:50.681Z,english_101.wav,0,pill,610,45,4,japanese,f,0,0.0,60.77829508,0.77962125
KUA,183,3,2024-06-30T18:39:50.681Z,english_101.wav,0,pill,610,45,4,japanese,f,1,0.1,43.41373716,0.02040908
KUA,183,3,2024-06-30T18:39:50.681Z,english_101.wav,0,pill,610,45,4,japanese,f,2,0.2,56.16195873,0.79248433
KUA,183,3,2024-06-30T18:39:50.681Z,english_101.wav,0,pill,610,45,4,japanese,f,3,0.3,-99.94719329,1.74003505
KUA,183,3,2024-06-30T18:39:50.681Z,english_101.wav,0,pill,610,45,4,japanese,f,4,0.32341667,-1.35074094,1.66206156
KUA,184,3,2024-06-30T18:39:50.681Z,english_91.wav,0,pill,603,45,4,japanese,f,0,0.0,-67.73951944,0.2772338
KUA,184,3,2024-06-30T18:39:50.681Z,english_91.wav,0,pill,603,45,4,japanese,f,1,0.1,83.83337034,0.0816757
