subj,trial,block,date,stim,stim_order,response,rt,age,english,language,sex,param_index,segment,pitch,stretch
MAN,0,0,2024-06-19T03:11:31.735Z,english_14.wav,0,pill,18685,23,3,Japanese,m,0,0.0,98.00979643,0.92494293
MAN,0,0,2024-06-19T03:11:31.735Z,english_14.wav,0,pill,18685,23,3,Japanese,m,1,0.1,-39.90204919,0.80403915
MAN,0,0,2024-06-19T03:11:31.735Z,english_14.wav,0,pill,18685,23,3,Japanese,m,2,0.2,51.0517473,0.29426005
MAN,0,0,2024-06-19T03:11:31.735Z,english_14.wav,0,pill,18685,23,3,Japanese,m,3,0.3,-8.39716694,0.14957292
MAN,0,0,2024-06-19T03:11:31.735Z,english_14.wav,0,pill,18685,23,3,Japanese,m,4,0.32341667,82.54419716,0.1717279
MAN,1,0,2024-06-19T03:11:31.735Z,english_442.wav,0,pill,4142,23,3,Japanese,m,0,0.0,-5.21319176,1.35819452
MAN,1,0,2024-06-19T03:11:31.735Z,english_442.wav,0,pill,4142,23,3,Japanese,m,1,0.1,-16.23989513,1.66019663
MAN,1,0,2024-06-19T03:11:31.735Z,english_442.wav,0,pill,4142,23,3,Japanese,m,2,0.2,-36.77315909,0.51170704
MAN,1,0,2024-06-19T03:11:31.735Z,english_442.wav,0,pill,4142,23,3,Japanese,m,3,0.3,-33.51446291,1.6590932
MAN,1,0,2024-06-19T03:11:31.735Z,english_442.wav,0,pill,4142,23,3,Japanese,m,4,0.32341667,-25.07447919,0.97998973
MAN,2,0,2024-06-19T03:11:31.735Z,english_541.wav,0,pill,1297,23,3,Japanese,m,0,0.0,-20.13323906,0.51383156
MAN,2,0,2024-06-19T03:11:31.735Z,english_541.wav,0,pill,1297,23,3,Japanese,m,1,0.1,2.48768759,0.65082056
MAN,2,0,2024-06-19T03:11:31.735Z,english_541.wav,0,pill,1297,23,3,Japanese,m,2,0.2,-86.20966861,0.48716137
MAN,2,0,2024-06-19T03:11:31.735Z,english_541.wav,0,pill,1297,23,3,Japanese,m,3,0.3,59.01445297,0.54905673
MAN,2,0,2024-06-19T03:11:31.735Z,english_541.wav,0,pill,1297,23,3,Japanese,m,4,0.32341667,61.23853539,1.76268899
MAN,3,0,2024-06-19T03:11:31.735Z,english_75.wav,0,pill,766,23,3,Japanese,m,0,0.0,-9.18091647,0.92930856
MAN,3,0,2024-06-19T03:11:31.735Z,english_75.wav,0,pill,766,23,3,Japanese,m,1,0.1,-62.02164907,1.94000482
MAN,3,0,2024-06-19T03:11:31.735Z,english_75.wav,0,pill,766,23,3,Japanese,m,2,0.2,-12.90623207,1.2183621
MAN,3,0,2024-06-19T03:11:31.735Z,english_75.wav,0,pill,766,23,3,Japanese,m,3,0.3,15.17089036,0.47349695
MAN,3,0,2024-06-19T03:11:31.735Z,english_75.wav,0,pill,766,23,3,Japanese,m,4,0.32341667,10.89352922,1.02561006
MAN,4,0,2024-06-19T03:11:31.735Z,english_646.wav,0,pill,715,23,3,Japanese,m,0,0.0,65.65927644,1.85038449
MAN,4,0,2024-06-19T03:11:31.735Z,english_646.wav,0,pill,715,23,3,Japanese,m,1,0.1,-31.23211399,1.10748568
MAN,4,0,2024-06-19T03:11:31.735Z,english_646.wav,0,pill,715,23,3,Japanese,m,2,0.2,62.59110385,1.14052106
MAN,4,0,2024-06-19T03:11:31.735Z,english_646.wav,0,pill,715,23,3,Japanese,m,3,0.3,-86.43369357,1.38971404
MAN,4,0,2024-06-19T03:11:31.735Z,english_646.wav,0,pill,715,23,3,Japanese,m,4,0.32341667,41.84315348,0.49971738
MAN,5,0,2024-06-19T03:11:31.735Z,english_895.wav,0,pill,2122,23,3,Japanese,m,0,0.0,-36.05432491,1.57991636
MAN,5,0,2024-06-19T03:11:31.735Z,english_895.wav,0,pill,2122,23,3,Japanese,m,1,0.1,0.27991529,1.29141926
MAN,5,0,2024-06-19T03:11:31.735Z,english_895.wav,0,pill,2122,23,3,Japanese,m,2,0.2,-68.50060493,0.78617821
MAN,5,0,2024-06-19T03:11:31.735Z,english_895.wav,0,pill,2122,23,3,Japanese,m,3,0.3,-65.34452755,0.53071912
MAN,5,0,2024-06-19T03:11:31.735Z,english_895.wav,0,pill,2122,23,3,Japanese,m,4,0.32341667,44.30205494,1.44568828
MAN,6,0,2024-06-19T03:11:31.735Z,english_650.wav,0,pill,630,23,3,Japanese,m,0,0.0,-14.34164867,1.10695192
MAN,6,0,2024-06-19T03:11:31.735Z,english_650.wav,0,pill,630,23,3,Japanese,m,1,0.1,-59.47569919,1.2442548
MAN,6,0,2024-06-19T03:11:31.735Z,english_650.wav,0,pill,630,23,3,Japanese,m,2,0.2,-47.0995584,0.31281267
MAN,6,0,2024-06-19T03:11:31.735Z,english_650.wav,0,pill,630,23,3,Japanese,m,3,0.3,-55.25841156,1.9869399
MAN,6,0,2024-06-19T03:11:31.735Z,english_650.wav,0,pill,630,23,3,Japanese,m,4,0.32341667,83.92345375,1.10607629
MAN,7,0,2024-06-19T03:11:31.735Z,english_318.wav,0,pill,2013,23,3,Japanese,m,0,0.0,40.16064427,0.11467793
MAN,7,0,2024-06-19T03:11:31.735Z,english_318.wav,0,pill,2013,23,3,Japanese,m,1,0.1,-52.58874178,0.6224104
MAN,7,0,2024-06-19T03:11:31.735Z,english_318.wav,0,pill,2013,23,3,Japanese,m,2,0.2,46.7653316,0.05328619
MAN,7,0,2024-06-19T03:11:31.735Z,english_318.wav,0,pill,2013,23,3,Japanese,m,3,0.3,-41.44559589,0.01138238
MAN,7,0,2024-06-19T03:11:31.735Z,english_318.wav,0,pill,2013,23,3,Japanese,m,4,0.32341667,-2.50443948,1.16020285
MAN,8,0,2024-06-19T03:11:31.735Z,english_456.wav,0,pill,4132,23,3,Japanese,m,0,0.0,43.57092671,0.12750432
MAN,8,0,2024-06-19T03:11:31.735Z,english_456.wav,0,pill,4132,23,3,Japanese,m,1,0.1,59.73787768,0.97340157
MAN,8,0,2024-06-19T03:11:31.735Z,english_456.wav,0,pill,4132,23,3,Japanese,m,2,0.2,82.18665257,0.43547726
MAN,8,0,2024-06-19T03:11:31.735Z,english_456.wav,0,pill,4132,23,3,Japanese,m,3,0.3,84.09992258,1.17970357
MAN,8,0,2024-06-19T03:11:31.735Z,english_456.wav,0,pill,4132,23,3,Japanese,m,4,0.32341667,14.68455092,0.64309566
MAN,9,0,2024-06-19T03:11:31.735Z,english_735.wav,0,pill,1784,23,3,Japanese,m,0,0.0,51.40973306,0.29099813
MAN,9,0,2024-06-19T03:11:31.735Z,english_735.wav,0,pill,1784,23,3,Japanese,m,1,0.1,-5.42867159,1.62833375
MAN,9,0,2024-06-19T03:11:31.735Z,english_735.wav,0,pill,1784,23,3,Japanese,m,2,0.2,13.71146629,0.32849247
MAN,9,0,2024-06-19T03:11:31.735Z,english_735.wav,0,pill,1784,23,3,Japanese,m,3,0.3,-14.17202169,0.46991549
MAN,9,0,2024-06-19T03:11:31.735Z,english_735.wav,0,pill,1784,23,3,Japanese,m,4,0.32341667,14.98699592,0.51625305
MAN,10,0,2024-06-19T03:11:31.735Z,english_362.wav,0,pill,3703,23,3,Japanese,m,0,0.0,12.71485551,1.44490364
MAN,10,0,2024-06-19T03:11:31.735Z,english_362.wav,0,pill,3703,23,3,Japanese,m,1,0.1,-18.83660308,1.3029027
MAN,10,0,2024-06-19T03:11:31.735Z,english_362.wav,0,pill,3703,23,3,Japanese,m,2,0.2,-52.07271323,1.10609828
MAN,10,0,2024-06-19T03:11:31.735Z,english_362.wav,0,pill,3703,23,3,Japanese,m,3,0.3,-29.96931661,1.18379787
MAN,10,0,2024-06-19T03:11:31.735Z,english_362.wav,0,pill,3703,23,3,Japanese,m,4,0.32341667,-9.99178163,1.80996789
MAN,11,0,2024-06-19T03:11:31.735Z,english_806.wav,0,pill,1596,23,3,Japanese,m,0,0.0,17.38837614,1.03842349
MAN,11,0,2024-06-19T03:11:31.735Z,english_806.wav,0,pill,1596,23,3,Japanese,m,1,0.1,50.31160736,1.08461549
MAN,11,0,2024-06-19T03:11:31.735Z,english_806.wav,0,pill,1596,23,3,Japanese,m,2,0.2,74.21499327,1.8436814
MAN,11,0,2024-06-19T03:11:31.735Z,english_806.wav,0,pill,1596,23,3,Japanese,m,3,0.3,16.647622,1.85846725
MAN,11,0,2024-06-19T03:11:31.735Z,english_806.wav,0,pill,1596,23,3,Japanese,m,4,0.32341667,27.12519974,1.15820289
MAN,12,0,2024-06-19T03:11:31.735Z,english_537.wav,0,pill,2805,23,3,Japanese,m,0,0.0,70.8709352,0.55947112
MAN,12,0,2024-06-19T03:11:31.735Z,english_537.wav,0,pill,2805,23,3,Japanese,m,1,0.1,32.34369018,1.10627241
MAN,12,0,2024-06-19T03:11:31.735Z,english_537.wav,0,pill,2805,23,3,Japanese,m,2,0.2,-92.9302278,1.10842043
MAN,12,0,2024-06-19T03:11:31.735Z,english_537.wav,0,pill,2805,23,3,Japanese,m,3,0.3,14.89115364,0.86800797
MAN,12,0,2024-06-19T03:11:31.735Z,english_537.wav,0,pill,2805,23,3,Japanese,m,4,0.32341667,-67.12260703,1.7659473
MAN,13,0,2024-06-19T03:11:31.735Z,english_901.wav,0,peel,919,23,3,Japanese,m,0,0.0,-14.81770559,1.5194741
MAN,13,0,2024-06-19T03:11:31.735Z,english_901.wav,0,peel,919,23,3,Japanese,m,1,0.1,-27.73561163,1.98674938
MAN,13,0,2024-06-19T03:11:31.735Z,english_901.wav,0,peel,919,23,3,Japanese,m,2,0.2,-22.44015454,0.54356598
MAN,13,0,2024-06-19T03:11:31.735Z,english_901.wav,0,peel,919,23,3,Japanese,m,3,0.3,-41.34815185,1.30497628
MAN,13,0,2024-06-19T03:11:31.735Z,english_901.wav,0,peel,919,23,3,Japanese,m,4,0.32341667,10.13492358,0.61526789
MAN,14,0,2024-06-19T03:13:37.445Z,english_894.wav,0,pill,2864,23,3,Japanese,m,0,0.0,55.36181915,0.37154348
MAN,14,0,2024-06-19T03:13:37.445Z,english_894.wav,0,pill,2864,23,3,Japanese,m,1,0.1,1.74798824,0.78809476
MAN,14,0,2024-06-19T03:13:37.445Z,english_894.wav,0,pill,2864,23,3,Japanese,m,2,0.2,53.5320483,0.08099688
MAN,14,0,2024-06-19T03:13:37.445Z,english_894.wav,0,pill,2864,23,3,Japanese,m,3,0.3,-10.60196251,1.90254096
MAN,14,0,2024-06-19T03:13:37.445Z,english_894.wav,0,pill,2864,23,3,Japanese,m,4,0.32341667,46.95013059,0.68783971
MAN,15,0,2024-06-19T03:13:37.445Z,english_177.wav,0,pill,5637,23,3,Japanese,m,0,0.0,87.98258728,1.54790065
MAN,15,0,2024-06-19T03:13:37.445Z,english_177.wav,0,pill,5637,23,3,Japanese,m,1,0.1,87.12011565,0.90861448
MAN,15,0,2024-06-19T03:13:37.445Z,english_177.wav,0,pill,5637,23,3,Japanese,m,2,0.2,-29.82518494,0.58649069
MAN,15,0,2024-06-19T03:13:37.445Z,english_177.wav,0,pill,5637,23,3,Japanese,m,3,0.3,54.38835911,0.51296238
MAN,15,0,2024-06-19T03:13:37.445Z,english_177.wav,0,pill,5637,23,3,Japanese,m,4,0.32341667,53.98423531,1.78492888
MAN,16,0,2024-06-19T03:13:37.445Z,english_171.wav,0,pill,11326,23,3,Japanese,m,0,0.0,13.65984607,0.71637608
MAN,16,0,2024-06-19T03:13:37.445Z,english_171.wav,0,pill,11326,23,3,Japanese,m,1,0.1,70.55092655,1.80826384
MAN,16,0,2024-06-19T03:13:37.445Z,english_171.wav,0,pill,11326,23,3,Japanese,m,2,0.2,57.57935127,0.47277884
MAN,16,0,2024-06-19T03:13:37.445Z,english_171.wav,0,pill,11326,23,3,Japanese,m,3,0.3,-55.35579571,1.22036711
MAN,16,0,2024-06-19T03:13:37.445Z,english_171.wav,0,pill,11326,23,3,Japanese,m,4,0.32341667,13.04572565,0.00907712
MAN,17,0,2024-06-19T03:13:37.445Z,english_475.wav,0,pill,6349,23,3,Japanese,m,0,0.0,-68.25626322,0.40988158
MAN,17,0,2024-06-19T03:13:37.445Z,english_475.wav,0,pill,6349,23,3,Japanese,m,1,0.1,-56.46648788,1.90107213
MAN,17,0,2024-06-19T03:13:37.445Z,english_475.wav,0,pill,6349,23,3,Japanese,m,2,0.2,49.77560279,0.54721615
MAN,17,0,2024-06-19T03:13:37.445Z,english_475.wav,0,pill,6349,23,3,Japanese,m,3,0.3,-41.74178488,1.80730726
MAN,17,0,2024-06-19T03:13:37.445Z,english_475.wav,0,pill,6349,23,3,Japanese,m,4,0.32341667,-60.3255454,0.11427958
MAN,18,0,2024-06-19T03:13:37.445Z,english_94.wav,0,peel,3545,23,3,Japanese,m,0,0.0,-78.50776969,1.58967719
MAN,18,0,2024-06-19T03:13:37.445Z,english_94.wav,0,peel,3545,23,3,Japanese,m,1,0.1,21.81048112,0.88841047
MAN,18,0,2024-06-19T03:13:37.445Z,english_94.wav,0,peel,3545,23,3,Japanese,m,2,0.2,76.78230264,1.12549424
MAN,18,0,2024-06-19T03:13:37.445Z,english_94.wav,0,peel,3545,23,3,Japanese,m,3,0.3,-35.62145712,1.80621507
MAN,18,0,2024-06-19T03:13:37.445Z,english_94.wav,0,peel,3545,23,3,Japanese,m,4,0.32341667,-71.39427505,1.00879957
MAN,19,0,2024-06-19T03:13:37.445Z,english_152.wav,0,pill,3430,23,3,Japanese,m,0,0.0,-21.97873044,1.75752799
MAN,19,0,2024-06-19T03:13:37.445Z,english_152.wav,0,pill,3430,23,3,Japanese,m,1,0.1,85.66675034,1.21467008
MAN,19,0,2024-06-19T03:13:37.445Z,english_152.wav,0,pill,3430,23,3,Japanese,m,2,0.2,-66.57447909,0.82299352
MAN,19,0,2024-06-19T03:13:37.445Z,english_152.wav,0,pill,3430,23,3,Japanese,m,3,0.3,-33.8772441,0.48869868
MAN,19,0,2024-06-19T03:13:37.445Z,english_152.wav,0,pill,3430,23,3,Japanese,m,4,0.32341667,-46.50239179,0.31705885
MAN,20,0,2024-06-19T03:13:37.445Z,english_593.wav,0,pill,2811,23,3,Japanese,m,0,0.0,0.23295982,1.83954553
MAN,20,0,2024-06-19T03:13:37.445Z,english_593.wav,0,pill,2811,23,3,Japanese,m,1,0.1,-0.52832444,1.77820403
MAN,20,0,2024-06-19T03:13:37.445Z,english_593.wav,0,pill,2811,23,3,Japanese,m,2,0.2,18.28609946,0.36770598
MAN,20,0,2024-06-19T03:13:37.445Z,english_593.wav,0,pill,2811,23,3,Japanese,m,3,0.3,21.25816485,0.42189114
MAN,20,0,2024-06-19T03:13:37.445Z,english_593.wav,0,pill,2811,23,3,Japanese,m,4,0.32341667,60.44039038,0.07588974
MAN,21,0,2024-06-19T03:13:37.445Z,english_862.wav,0,pill,1122,23,3,Japanese,m,0,0.0,97.17644144,0.51253178
MAN,21,0,2024-06-19T03:13:37.445Z,english_862.wav,0,pill,1122,23,3,Japanese,m,1,0.1,26.34966999,0.21080737
MAN,21,0,2024-06-19T03:13:37.445Z,english_862.wav,0,pill,1122,23,3,Japanese,m,2,0.2,-21.73584106,0.27401534
MAN,21,0,2024-06-19T03:13:37.445Z,english_862.wav,0,pill,1122,23,3,Japanese,m,3,0.3,70.49109419,1.91980484
MAN,21,0,2024-06-19T03:13:37.445Z,english_862.wav,0,pill,1122,23,3,Japanese,m,4,0.32341667,43.48373212,0.96077188
MAN,22,0,2024-06-19T03:13:37.445Z,english_938.wav,0,pill,618,23,3,Japanese,m,0,0.0,55.68553541,1.13527087
MAN,22,0,2024-06-19T03:13:37.445Z,english_938.wav,0,pill,618,23,3,Japanese,m,1,0.1,19.57508628,0.57526943
MAN,22,0,2024-06-19T03:13:37.445Z,english_938.wav,0,pill,618,23,3,Japanese,m,2,0.2,99.59707332,0.71873046
MAN,22,0,2024-06-19T03:13:37.445Z,english_938.wav,0,pill,618,23,3,Japanese,m,3,0.3,-43.3789335,0.88566698
MAN,22,0,2024-06-19T03:13:37.445Z,english_938.wav,0,pill,618,23,3,Japanese,m,4,0.32341667,90.00594125,0.39461425
MAN,23,0,2024-06-19T03:13:37.445Z,english_68.wav,0,pill,1752,23,3,Japanese,m,0,0.0,-23.38152803,1.83565324
MAN,23,0,2024-06-19T03:13:37.445Z,english_68.wav,0,pill,1752,23,3,Japanese,m,1,0.1,-36.0918901,0.35162477
MAN,23,0,2024-06-19T03:13:37.445Z,english_68.wav,0,pill,1752,23,3,Japanese,m,2,0.2,65.46592862,1.10705723
MAN,23,0,2024-06-19T03:13:37.445Z,english_68.wav,0,pill,1752,23,3,Japanese,m,3,0.3,48.57602628,1.09550925
MAN,23,0,2024-06-19T03:13:37.445Z,english_68.wav,0,pill,1752,23,3,Japanese,m,4,0.32341667,-93.64245591,0.05753383
MAN,24,0,2024-06-19T03:13:37.445Z,english_482.wav,0,pill,30144,23,3,Japanese,m,0,0.0,-75.58658814,1.00366747
MAN,24,0,2024-06-19T03:13:37.445Z,english_482.wav,0,pill,30144,23,3,Japanese,m,1,0.1,-97.88900999,1.47597923
MAN,24,0,2024-06-19T03:13:37.445Z,english_482.wav,0,pill,30144,23,3,Japanese,m,2,0.2,-4.46161317,1.10854794
MAN,24,0,2024-06-19T03:13:37.445Z,english_482.wav,0,pill,30144,23,3,Japanese,m,3,0.3,31.34799552,1.07348452
MAN,24,0,2024-06-19T03:13:37.445Z,english_482.wav,0,pill,30144,23,3,Japanese,m,4,0.32341667,-51.80510351,0.67390339
MAN,25,0,2024-06-19T03:13:37.445Z,english_326.wav,0,pill,1157,23,3,Japanese,m,0,0.0,-13.70476372,1.64570887
MAN,25,0,2024-06-19T03:13:37.445Z,english_326.wav,0,pill,1157,23,3,Japanese,m,1,0.1,47.7156259,0.91266102
MAN,25,0,2024-06-19T03:13:37.445Z,english_326.wav,0,pill,1157,23,3,Japanese,m,2,0.2,23.24839736,0.36997562
MAN,25,0,2024-06-19T03:13:37.445Z,english_326.wav,0,pill,1157,23,3,Japanese,m,3,0.3,67.08212267,1.96258237
MAN,25,0,2024-06-19T03:13:37.445Z,english_326.wav,0,pill,1157,23,3,Japanese,m,4,0.32341667,78.79356023,1.01334204
MAN,26,0,2024-06-19T03:13:37.445Z,english_309.wav,0,pill,610,23,3,Japanese,m,0,0.0,59.8258624,0.58100331
MAN,26,0,2024-06-19T03:13:37.445Z,english_309.wav,0,pill,610,23,3,Japanese,m,1,0.1,73.70427758,0.81024997
MAN,26,0,2024-06-19T03:13:37.445Z,english_309.wav,0,pill,610,23,3,Japanese,m,2,0.2,-8.71125849,0.10827203
MAN,26,0,2024-06-19T03:13:37.445Z,english_309.wav,0,pill,610,23,3,Japanese,m,3,0.3,-86.6882155,0.09670208
MAN,26,0,2024-06-19T03:13:37.445Z,english_309.wav,0,pill,610,23,3,Japanese,m,4,0.32341667,-90.77340978,1.53063904
MAN,27,0,2024-06-19T03:13:37.445Z,english_88.wav,0,pill,1510,23,3,Japanese,m,0,0.0,26.55889683,1.3027014
MAN,27,0,2024-06-19T03:13:37.445Z,english_88.wav,0,pill,1510,23,3,Japanese,m,1,0.1,31.00356365,0.67122251
MAN,27,0,2024-06-19T03:13:37.445Z,english_88.wav,0,pill,1510,23,3,Japanese,m,2,0.2,-60.56468942,0.59704477
MAN,27,0,2024-06-19T03:13:37.445Z,english_88.wav,0,pill,1510,23,3,Japanese,m,3,0.3,-56.53017227,1.68194373
MAN,27,0,2024-06-19T03:13:37.445Z,english_88.wav,0,pill,1510,23,3,Japanese,m,4,0.32341667,-78.90279024,0.42277005
MAN,28,0,2024-06-19T03:13:37.445Z,english_842.wav,0,pill,1736,23,3,Japanese,m,0,0.0,-48.5952207,0.12382156
MAN,28,0,2024-06-19T03:13:37.445Z,english_842.wav,0,pill,1736,23,3,Japanese,m,1,0.1,29.19485822,1.75564688
MAN,28,0,2024-06-19T03:13:37.445Z,english_842.wav,0,pill,1736,23,3,Japanese,m,2,0.2,84.54328152,0.24815543
MAN,28,0,2024-06-19T03:13:37.445Z,english_842.wav,0,pill,1736,23,3,Japanese,m,3,0.3,69.99994667,1.2885643
MAN,28,0,2024-06-19T03:13:37.445Z,english_842.wav,0,pill,1736,23,3,Japanese,m,4,0.32341667,56.72069463,0.70518165
MAN,29,0,2024-06-19T03:13:37.445Z,english_134.wav,0,pill,1222,23,3,Japanese,m,0,0.0,70.72156413,1.84700732
MAN,29,0,2024-06-19T03:13:37.445Z,english_134.wav,0,pill,1222,23,3,Japanese,m,1,0.1,-64.20531103,1.20878884
MAN,29,0,2024-06-19T03:13:37.445Z,english_134.wav,0,pill,1222,23,3,Japanese,m,2,0.2,35.7891913,0.51924654
MAN,29,0,2024-06-19T03:13:37.445Z,english_134.wav,0,pill,1222,23,3,Japanese,m,3,0.3,-77.33475241,1.95615398
MAN,29,0,2024-06-19T03:13:37.445Z,english_134.wav,0,pill,1222,23,3,Japanese,m,4,0.32341667,85.6978336,1.72102519
MAN,30,0,2024-06-19T03:13:37.445Z,english_298.wav,0,pill,449,23,3,Japanese,m,0,0.0,-71.75530507,0.91890611
MAN,30,0,2024-06-19T03:13:37.445Z,english_298.wav,0,pill,449,23,3,Japanese,m,1,0.1,76.25876358,0.7322353
MAN,30,0,2024-06-19T03:13:37.445Z,english_298.wav,0,pill,449,23,3,Japanese,m,2,0.2,11.95102224,0.50601445
MAN,30,0,2024-06-19T03:13:37.445Z,english_298.wav,0,pill,449,23,3,Japanese,m,3,0.3,79.91037795,0.41160049
MAN,30,0,2024-06-19T03:13:37.445Z,english_298.wav,0,pill,449,23,3,Japanese,m,4,0.32341667,30.12462174,0.81223035
MAN,31,0,2024-06-19T03:13:37.445Z,english_924.wav,0,pill,700,23,3,Japanese,m,0,0.0,63.64154058,1.83477076
MAN,31,0,2024-06-19T03:13:37.445Z,english_924.wav,0,pill,700,23,3,Japanese,m,1,0.1,-60.55254199,0.21366754
MAN,31,0,2024-06-19T03:13:37.445Z,english_924.wav,0,pill,700,23,3,Japanese,m,2,0.2,-47.94670646,1.07859551
MAN,31,0,2024-06-19T03:13:37.445Z,english_924.wav,0,pill,700,23,3,Japanese,m,3,0.3,-76.50696127,1.9507375
MAN,31,0,2024-06-19T03:13:37.445Z,english_924.wav,0,pill,700,23,3,Japanese,m,4,0.32341667,44.23103111,1.33476666
MAN,32,0,2024-06-19T03:13:37.445Z,english_702.wav,0,pill,869,23,3,Japanese,m,0,0.0,-19.6614881,1.13820402
MAN,32,0,2024-06-19T03:13:37.445Z,english_702.wav,0,pill,869,23,3,Japanese,m,1,0.1,-92.60133235,1.47755069
MAN,32,0,2024-06-19T03:13:37.445Z,english_702.wav,0,pill,869,23,3,Japanese,m,2,0.2,-18.01071493,1.33705675
MAN,32,0,2024-06-19T03:13:37.445Z,english_702.wav,0,pill,869,23,3,Japanese,m,3,0.3,91.54675011,0.59768286
MAN,32,0,2024-06-19T03:13:37.445Z,english_702.wav,0,pill,869,23,3,Japanese,m,4,0.32341667,23.09112348,0.82103567
MAN,33,0,2024-06-19T03:13:37.445Z,english_967.wav,0,pill,2868,23,3,Japanese,m,0,0.0,-33.19777689,0.76720641
MAN,33,0,2024-06-19T03:13:37.445Z,english_967.wav,0,pill,2868,23,3,Japanese,m,1,0.1,83.84847924,1.4094361
MAN,33,0,2024-06-19T03:13:37.445Z,english_967.wav,0,pill,2868,23,3,Japanese,m,2,0.2,81.27362124,0.74435637
MAN,33,0,2024-06-19T03:13:37.445Z,english_967.wav,0,pill,2868,23,3,Japanese,m,3,0.3,22.78466805,0.29904584
MAN,33,0,2024-06-19T03:13:37.445Z,english_967.wav,0,pill,2868,23,3,Japanese,m,4,0.32341667,16.56894366,0.47687807
MAN,34,0,2024-06-19T03:13:37.445Z,english_37.wav,0,pill,5313,23,3,Japanese,m,0,0.0,-5.54999706,1.12257854
MAN,34,0,2024-06-19T03:13:37.445Z,english_37.wav,0,pill,5313,23,3,Japanese,m,1,0.1,23.22206304,1.8669628
MAN,34,0,2024-06-19T03:13:37.445Z,english_37.wav,0,pill,5313,23,3,Japanese,m,2,0.2,-57.36481589,0.39386712
MAN,34,0,2024-06-19T03:13:37.445Z,english_37.wav,0,pill,5313,23,3,Japanese,m,3,0.3,58.0578648,1.21765674
MAN,34,0,2024-06-19T03:13:37.445Z,english_37.wav,0,pill,5313,23,3,Japanese,m,4,0.32341667,66.03280024,0.74428952
MAN,35,0,2024-06-19T03:13:37.445Z,english_800.wav,0,pill,423,23,3,Japanese,m,0,0.0,-9.91001254,0.13142639
MAN,35,0,2024-06-19T03:13:37.445Z,english_800.wav,0,pill,423,23,3,Japanese,m,1,0.1,-86.79409322,1.71040153
MAN,35,0,2024-06-19T03:13:37.445Z,english_800.wav,0,pill,423,23,3,Japanese,m,2,0.2,-27.39997365,0.18637657
MAN,35,0,2024-06-19T03:13:37.445Z,english_800.wav,0,pill,423,23,3,Japanese,m,3,0.3,13.46737707,1.09766523
MAN,35,0,2024-06-19T03:13:37.445Z,english_800.wav,0,pill,423,23,3,Japanese,m,4,0.32341667,-32.56208711,1.57940615
MAN,36,0,2024-06-19T03:13:37.445Z,english_550.wav,0,pill,353,23,3,Japanese,m,0,0.0,19.46608022,0.78600887
MAN,36,0,2024-06-19T03:13:37.445Z,english_550.wav,0,pill,353,23,3,Japanese,m,1,0.1,-94.3556307,1.03273328
MAN,36,0,2024-06-19T03:13:37.445Z,english_550.wav,0,pill,353,23,3,Japanese,m,2,0.2,-80.90695222,0.36941932
MAN,36,0,2024-06-19T03:13:37.445Z,english_550.wav,0,pill,353,23,3,Japanese,m,3,0.3,-65.36230075,0.47038634
MAN,36,0,2024-06-19T03:13:37.445Z,english_550.wav,0,pill,353,23,3,Japanese,m,4,0.32341667,-18.45722395,0.11798167
MAN,37,0,2024-06-19T03:13:37.445Z,english_244.wav,0,pill,2808,23,3,Japanese,m,0,0.0,-70.20374383,1.65134166
MAN,37,0,2024-06-19T03:13:37.445Z,english_244.wav,0,pill,2808,23,3,Japanese,m,1,0.1,67.84882107,1.23738837
MAN,37,0,2024-06-19T03:13:37.445Z,english_244.wav,0,pill,2808,23,3,Japanese,m,2,0.2,0.61676271,0.90147553
MAN,37,0,2024-06-19T03:13:37.445Z,english_244.wav,0,pill,2808,23,3,Japanese,m,3,0.3,-96.58934439,1.79293216
MAN,37,0,2024-06-19T03:13:37.445Z,english_244.wav,0,pill,2808,23,3,Japanese,m,4,0.32341667,-77.46985837,1.15013727
MAN,38,0,2024-06-19T03:13:37.445Z,english_2.wav,0,pill,1639,23,3,Japanese,m,0,0.0,-99.15346184,1.13720105
MAN,38,0,2024-06-19T03:13:37.445Z,english_2.wav,0,pill,1639,23,3,Japanese,m,1,0.1,80.90141422,1.91777804
MAN,38,0,2024-06-19T03:13:37.445Z,english_2.wav,0,pill,1639,23,3,Japanese,m,2,0.2,25.8663891,0.47706995
MAN,38,0,2024-06-19T03:13:37.445Z,english_2.wav,0,pill,1639,23,3,Japanese,m,3,0.3,75.24606714,0.3458575
MAN,38,0,2024-06-19T03:13:37.445Z,english_2.wav,0,pill,1639,23,3,Japanese,m,4,0.32341667,-83.41413367,0.38623968
MAN,39,0,2024-06-19T03:13:37.445Z,english_579.wav,0,pill,1432,23,3,Japanese,m,0,0.0,78.52989573,1.74799876
MAN,39,0,2024-06-19T03:13:37.445Z,english_579.wav,0,pill,1432,23,3,Japanese,m,1,0.1,-26.17758211,0.36264633
MAN,39,0,2024-06-19T03:13:37.445Z,english_579.wav,0,pill,1432,23,3,Japanese,m,2,0.2,-65.60231522,1.15645327
MAN,39,0,2024-06-19T03:13:37.445Z,english_579.wav,0,pill,1432,23,3,Japanese,m,3,0.3,-66.03357835,1.81639149
MAN,39,0,2024-06-19T03:13:37.445Z,english_579.wav,0,pill,1432,23,3,Japanese,m,4,0.32341667,-36.23940811,1.38509752
MAN,40,0,2024-06-19T03:13:37.445Z,english_626.wav,0,pill,339,23,3,Japanese,m,0,0.0,4.25415757,0.7037323
MAN,40,0,2024-06-19T03:13:37.445Z,english_626.wav,0,pill,339,23,3,Japanese,m,1,0.1,-41.27415217,1.26912647
MAN,40,0,2024-06-19T03:13:37.445Z,english_626.wav,0,pill,339,23,3,Japanese,m,2,0.2,-74.74598363,0.17760594
MAN,40,0,2024-06-19T03:13:37.445Z,english_626.wav,0,pill,339,23,3,Japanese,m,3,0.3,-15.94741517,1.12963497
MAN,40,0,2024-06-19T03:13:37.445Z,english_626.wav,0,pill,339,23,3,Japanese,m,4,0.32341667,43.51897949,0.85087029
MAN,41,0,2024-06-19T03:13:37.445Z,english_744.wav,0,pill,198,23,3,Japanese,m,0,0.0,43.39686976,0.75505854
MAN,41,0,2024-06-19T03:13:37.445Z,english_744.wav,0,pill,198,23,3,Japanese,m,1,0.1,-61.67573043,1.01311725
MAN,41,0,2024-06-19T03:13:37.445Z,english_744.wav,0,pill,198,23,3,Japanese,m,2,0.2,0.51873183,0.73457108
MAN,41,0,2024-06-19T03:13:37.445Z,english_744.wav,0,pill,198,23,3,Japanese,m,3,0.3,12.88130512,0.90154102
MAN,41,0,2024-06-19T03:13:37.445Z,english_744.wav,0,pill,198,23,3,Japanese,m,4,0.32341667,57.31714449,1.01338509
MAN,42,0,2024-06-19T03:13:37.445Z,english_449.wav,0,pill,1452,23,3,Japanese,m,0,0.0,-46.54576765,0.60085197
MAN,42,0,2024-06-19T03:13:37.445Z,english_449.wav,0,pill,1452,23,3,Japanese,m,1,0.1,20.05422573,1.74901032
MAN,42,0,2024-06-19T03:13:37.445Z,english_449.wav,0,pill,1452,23,3,Japanese,m,2,0.2,54.52400621,1.9506545
MAN,42,0,2024-06-19T03:13:37.445Z,english_449.wav,0,pill,1452,23,3,Japanese,m,3,0.3,73.66855139,1.81044704
MAN,42,0,2024-06-19T03:13:37.445Z,english_449.wav,0,pill,1452,23,3,Japanese,m,4,0.32341667,-1.88675615,0.93562966
MAN,43,0,2024-06-19T03:13:37.445Z,english_687.wav,0,pill,398,23,3,Japanese,m,0,0.0,86.90300909,0.475784
MAN,43,0,2024-06-19T03:13:37.445Z,english_687.wav,0,pill,398,23,3,Japanese,m,1,0.1,79.71843279,0.40603367
MAN,43,0,2024-06-19T03:13:37.445Z,english_687.wav,0,pill,398,23,3,Japanese,m,2,0.2,34.94433723,0.97706088
MAN,43,0,2024-06-19T03:13:37.445Z,english_687.wav,0,pill,398,23,3,Japanese,m,3,0.3,-45.53952821,0.65075382
MAN,43,0,2024-06-19T03:13:37.445Z,english_687.wav,0,pill,398,23,3,Japanese,m,4,0.32341667,63.0204093,0.93918167
MAN,44,0,2024-06-19T03:13:37.445Z,english_131.wav,0,peel,4516,23,3,Japanese,m,0,0.0,-90.65248477,1.67513221
MAN,44,0,2024-06-19T03:13:37.445Z,english_131.wav,0,peel,4516,23,3,Japanese,m,1,0.1,7.0988446,1.62916956
MAN,44,0,2024-06-19T03:13:37.445Z,english_131.wav,0,peel,4516,23,3,Japanese,m,2,0.2,-30.94637352,1.4017665
MAN,44,0,2024-06-19T03:13:37.445Z,english_131.wav,0,peel,4516,23,3,Japanese,m,3,0.3,-31.86179524,1.07276153
MAN,44,0,2024-06-19T03:13:37.445Z,english_131.wav,0,peel,4516,23,3,Japanese,m,4,0.32341667,1.85809033,1.80109071
MAN,45,0,2024-06-19T03:13:37.445Z,english_344.wav,0,pill,10063,23,3,Japanese,m,0,0.0,-81.18103124,1.80730522
MAN,45,0,2024-06-19T03:13:37.445Z,english_344.wav,0,pill,10063,23,3,Japanese,m,1,0.1,-15.12635331,1.30606229
MAN,45,0,2024-06-19T03:13:37.445Z,english_344.wav,0,pill,10063,23,3,Japanese,m,2,0.2,92.11407185,0.89739403
MAN,45,0,2024-06-19T03:13:37.445Z,english_344.wav,0,pill,10063,23,3,Japanese,m,3,0.3,-26.28325028,0.17834637
MAN,45,0,2024-06-19T03:13:37.445Z,english_344.wav,0,pill,10063,23,3,Japanese,m,4,0.32341667,-10.89648072,0.48618419
MAN,46,0,2024-06-19T03:13:37.445Z,english_786.wav,0,pill,247,23,3,Japanese,m,0,0.0,50.77560123,0.9907589
MAN,46,0,2024-06-19T03:13:37.445Z,english_786.wav,0,pill,247,23,3,Japanese,m,1,0.1,-87.08435808,0.48193409
MAN,46,0,2024-06-19T03:13:37.445Z,english_786.wav,0,pill,247,23,3,Japanese,m,2,0.2,-36.07136163,1.01949061
MAN,46,0,2024-06-19T03:13:37.445Z,english_786.wav,0,pill,247,23,3,Japanese,m,3,0.3,98.77618087,1.06334926
MAN,46,0,2024-06-19T03:13:37.445Z,english_786.wav,0,pill,247,23,3,Japanese,m,4,0.32341667,86.70070823,0.94164836
MAN,47,0,2024-06-19T03:13:37.445Z,english_771.wav,0,peel,4084,23,3,Japanese,m,0,0.0,52.29619013,1.65909918
MAN,47,0,2024-06-19T03:13:37.445Z,english_771.wav,0,peel,4084,23,3,Japanese,m,1,0.1,55.26271333,1.05958749
MAN,47,0,2024-06-19T03:13:37.445Z,english_771.wav,0,peel,4084,23,3,Japanese,m,2,0.2,49.2587818,1.33758239
MAN,47,0,2024-06-19T03:13:37.445Z,english_771.wav,0,peel,4084,23,3,Japanese,m,3,0.3,48.45532009,1.75478958
MAN,47,0,2024-06-19T03:13:37.445Z,english_771.wav,0,peel,4084,23,3,Japanese,m,4,0.32341667,-98.45631565,0.37013483
MAN,48,0,2024-06-19T03:13:37.445Z,english_379.wav,0,peel,472,23,3,Japanese,m,0,0.0,30.14616912,1.43961489
MAN,48,0,2024-06-19T03:13:37.445Z,english_379.wav,0,peel,472,23,3,Japanese,m,1,0.1,-79.51193423,1.4219763
MAN,48,0,2024-06-19T03:13:37.445Z,english_379.wav,0,peel,472,23,3,Japanese,m,2,0.2,7.34860539,0.62633101
MAN,48,0,2024-06-19T03:13:37.445Z,english_379.wav,0,peel,472,23,3,Japanese,m,3,0.3,-43.99342265,1.13621958
MAN,48,0,2024-06-19T03:13:37.445Z,english_379.wav,0,peel,472,23,3,Japanese,m,4,0.32341667,37.72881761,1.35387794
MAN,49,0,2024-06-19T03:13:37.445Z,english_276.wav,0,peel,459,23,3,Japanese,m,0,0.0,-87.25523595,1.1918401
MAN,49,0,2024-06-19T03:13:37.445Z,english_276.wav,0,peel,459,23,3,Japanese,m,1,0.1,16.91650801,0.89399115
MAN,49,0,2024-06-19T03:13:37.445Z,english_276.wav,0,peel,459,23,3,Japanese,m,2,0.2,-40.09372932,0.89701806
MAN,49,0,2024-06-19T03:13:37.445Z,english_276.wav,0,peel,459,23,3,Japanese,m,3,0.3,3.19229046,1.98333504
MAN,49,0,2024-06-19T03:13:37.445Z,english_276.wav,0,peel,459,23,3,Japanese,m,4,0.32341667,18.84785296,1.85350493
MAN,50,1,2024-06-19T03:16:57.023Z,english_714.wav,0,peel,2595,23,3,Japanese,m,0,0.0,6.62463448,0.98205871
MAN,50,1,2024-06-19T03:16:57.023Z,english_714.wav,0,peel,2595,23,3,Japanese,m,1,0.1,-7.37775178,1.90018259
MAN,50,1,2024-06-19T03:16:57.023Z,english_714.wav,0,peel,2595,23,3,Japanese,m,2,0.2,-58.74003357,1.33033281
MAN,50,1,2024-06-19T03:16:57.023Z,english_714.wav,0,peel,2595,23,3,Japanese,m,3,0.3,-38.84014254,0.20009115
MAN,50,1,2024-06-19T03:16:57.023Z,english_714.wav,0,peel,2595,23,3,Japanese,m,4,0.32341667,-23.67047323,0.44650169
MAN,51,1,2024-06-19T03:16:57.023Z,english_259.wav,0,pill,831,23,3,Japanese,m,0,0.0,7.90187791,1.3064553
MAN,51,1,2024-06-19T03:16:57.023Z,english_259.wav,0,pill,831,23,3,Japanese,m,1,0.1,31.67295647,1.01100372
MAN,51,1,2024-06-19T03:16:57.023Z,english_259.wav,0,pill,831,23,3,Japanese,m,2,0.2,-53.65780041,0.35520266
MAN,51,1,2024-06-19T03:16:57.023Z,english_259.wav,0,pill,831,23,3,Japanese,m,3,0.3,-72.94929757,1.35187683
MAN,51,1,2024-06-19T03:16:57.023Z,english_259.wav,0,pill,831,23,3,Japanese,m,4,0.32341667,58.35152721,1.39599087
MAN,52,1,2024-06-19T03:16:57.023Z,english_57.wav,0,pill,1494,23,3,Japanese,m,0,0.0,-27.39668164,1.97835384
MAN,52,1,2024-06-19T03:16:57.023Z,english_57.wav,0,pill,1494,23,3,Japanese,m,1,0.1,63.52389761,0.69906452
MAN,52,1,2024-06-19T03:16:57.023Z,english_57.wav,0,pill,1494,23,3,Japanese,m,2,0.2,-55.42033209,0.75389415
MAN,52,1,2024-06-19T03:16:57.023Z,english_57.wav,0,pill,1494,23,3,Japanese,m,3,0.3,40.81906742,0.20375649
MAN,52,1,2024-06-19T03:16:57.023Z,english_57.wav,0,pill,1494,23,3,Japanese,m,4,0.32341667,-12.75543821,1.65585112
MAN,53,1,2024-06-19T03:16:57.023Z,english_792.wav,0,peel,1133,23,3,Japanese,m,0,0.0,-56.39949456,1.32676777
MAN,53,1,2024-06-19T03:16:57.023Z,english_792.wav,0,peel,1133,23,3,Japanese,m,1,0.1,-76.36067248,1.08004851
MAN,53,1,2024-06-19T03:16:57.023Z,english_792.wav,0,peel,1133,23,3,Japanese,m,2,0.2,-58.44160547,1.5809308
MAN,53,1,2024-06-19T03:16:57.023Z,english_792.wav,0,peel,1133,23,3,Japanese,m,3,0.3,25.29086486,0.16508433
MAN,53,1,2024-06-19T03:16:57.023Z,english_792.wav,0,peel,1133,23,3,Japanese,m,4,0.32341667,-6.58788169,1.18870574
MAN,54,1,2024-06-19T03:16:57.023Z,english_853.wav,0,pill,436,23,3,Japanese,m,0,0.0,87.83319324,0.81037323
MAN,54,1,2024-06-19T03:16:57.023Z,english_853.wav,0,pill,436,23,3,Japanese,m,1,0.1,64.16710312,1.2495933
MAN,54,1,2024-06-19T03:16:57.023Z,english_853.wav,0,pill,436,23,3,Japanese,m,2,0.2,12.98667351,0.22916278
MAN,54,1,2024-06-19T03:16:57.023Z,english_853.wav,0,pill,436,23,3,Japanese,m,3,0.3,25.03434444,0.67764146
MAN,54,1,2024-06-19T03:16:57.023Z,english_853.wav,0,pill,436,23,3,Japanese,m,4,0.32341667,98.3458188,0.13807639
MAN,55,1,2024-06-19T03:16:57.023Z,english_231.wav,0,peel,2543,23,3,Japanese,m,0,0.0,-57.04299033,1.30850831
MAN,55,1,2024-06-19T03:16:57.023Z,english_231.wav,0,peel,2543,23,3,Japanese,m,1,0.1,-61.30294243,1.06317761
MAN,55,1,2024-06-19T03:16:57.023Z,english_231.wav,0,peel,2543,23,3,Japanese,m,2,0.2,11.10207427,1.86768436
MAN,55,1,2024-06-19T03:16:57.023Z,english_231.wav,0,peel,2543,23,3,Japanese,m,3,0.3,-1.38864911,1.42169342
MAN,55,1,2024-06-19T03:16:57.023Z,english_231.wav,0,peel,2543,23,3,Japanese,m,4,0.32341667,-40.37897369,0.58634772
MAN,56,1,2024-06-19T03:16:57.023Z,english_849.wav,0,pill,1601,23,3,Japanese,m,0,0.0,-24.45439181,1.62147024
MAN,56,1,2024-06-19T03:16:57.023Z,english_849.wav,0,pill,1601,23,3,Japanese,m,1,0.1,-64.97605389,1.28655358
MAN,56,1,2024-06-19T03:16:57.023Z,english_849.wav,0,pill,1601,23,3,Japanese,m,2,0.2,-67.78874915,0.154454
MAN,56,1,2024-06-19T03:16:57.023Z,english_849.wav,0,pill,1601,23,3,Japanese,m,3,0.3,-6.53184928,1.49227138
MAN,56,1,2024-06-19T03:16:57.023Z,english_849.wav,0,pill,1601,23,3,Japanese,m,4,0.32341667,59.1884023,1.08662162
MAN,57,1,2024-06-19T03:16:57.023Z,english_397.wav,0,pill,498,23,3,Japanese,m,0,0.0,89.67962381,0.42719638
MAN,57,1,2024-06-19T03:16:57.023Z,english_397.wav,0,pill,498,23,3,Japanese,m,1,0.1,-80.29722345,0.89466904
MAN,57,1,2024-06-19T03:16:57.023Z,english_397.wav,0,pill,498,23,3,Japanese,m,2,0.2,60.53564011,0.56174568
MAN,57,1,2024-06-19T03:16:57.023Z,english_397.wav,0,pill,498,23,3,Japanese,m,3,0.3,9.94565725,0.1553242
MAN,57,1,2024-06-19T03:16:57.023Z,english_397.wav,0,pill,498,23,3,Japanese,m,4,0.32341667,0.1319882,1.89079641
MAN,58,1,2024-06-19T03:16:57.023Z,english_399.wav,0,pill,331,23,3,Japanese,m,0,0.0,77.00947727,0.99570417
MAN,58,1,2024-06-19T03:16:57.023Z,english_399.wav,0,pill,331,23,3,Japanese,m,1,0.1,68.68212777,1.08385584
MAN,58,1,2024-06-19T03:16:57.023Z,english_399.wav,0,pill,331,23,3,Japanese,m,2,0.2,29.89909441,0.2210854
MAN,58,1,2024-06-19T03:16:57.023Z,english_399.wav,0,pill,331,23,3,Japanese,m,3,0.3,-37.60275897,0.41623588
MAN,58,1,2024-06-19T03:16:57.023Z,english_399.wav,0,pill,331,23,3,Japanese,m,4,0.32341667,-61.49193386,0.38461981
MAN,59,1,2024-06-19T03:16:57.023Z,english_402.wav,0,peel,1513,23,3,Japanese,m,0,0.0,-69.75327375,0.88104294
MAN,59,1,2024-06-19T03:16:57.023Z,english_402.wav,0,peel,1513,23,3,Japanese,m,1,0.1,-37.13247603,1.50830761
MAN,59,1,2024-06-19T03:16:57.023Z,english_402.wav,0,peel,1513,23,3,Japanese,m,2,0.2,95.06865819,0.86613458
MAN,59,1,2024-06-19T03:16:57.023Z,english_402.wav,0,peel,1513,23,3,Japanese,m,3,0.3,-83.65219271,1.46195184
MAN,59,1,2024-06-19T03:16:57.023Z,english_402.wav,0,peel,1513,23,3,Japanese,m,4,0.32341667,-39.65623645,1.78030697
MAN,60,1,2024-06-19T03:16:57.023Z,english_229.wav,0,peel,386,23,3,Japanese,m,0,0.0,51.56916705,1.25898044
MAN,60,1,2024-06-19T03:16:57.023Z,english_229.wav,0,peel,386,23,3,Japanese,m,1,0.1,-51.28327497,0.34588319
MAN,60,1,2024-06-19T03:16:57.023Z,english_229.wav,0,peel,386,23,3,Japanese,m,2,0.2,97.78221202,1.91985924
MAN,60,1,2024-06-19T03:16:57.023Z,english_229.wav,0,peel,386,23,3,Japanese,m,3,0.3,-75.98126047,0.82059623
MAN,60,1,2024-06-19T03:16:57.023Z,english_229.wav,0,peel,386,23,3,Japanese,m,4,0.32341667,-44.05308002,1.38191391
MAN,61,1,2024-06-19T03:16:57.023Z,english_529.wav,0,pill,438,23,3,Japanese,m,0,0.0,13.90759343,0.83001961
MAN,61,1,2024-06-19T03:16:57.023Z,english_529.wav,0,pill,438,23,3,Japanese,m,1,0.1,-33.526088,0.02518437
MAN,61,1,2024-06-19T03:16:57.023Z,english_529.wav,0,pill,438,23,3,Japanese,m,2,0.2,-34.32120589,1.61112877
MAN,61,1,2024-06-19T03:16:57.023Z,english_529.wav,0,pill,438,23,3,Japanese,m,3,0.3,-18.30112723,0.91948239
MAN,61,1,2024-06-19T03:16:57.023Z,english_529.wav,0,pill,438,23,3,Japanese,m,4,0.32341667,16.4796061,0.33204613
MAN,62,1,2024-06-19T03:16:57.023Z,english_468.wav,0,pill,1963,23,3,Japanese,m,0,0.0,-33.82586043,0.35164089
MAN,62,1,2024-06-19T03:16:57.023Z,english_468.wav,0,pill,1963,23,3,Japanese,m,1,0.1,-42.55840131,0.20114733
MAN,62,1,2024-06-19T03:16:57.023Z,english_468.wav,0,pill,1963,23,3,Japanese,m,2,0.2,-36.6492295,1.40729654
MAN,62,1,2024-06-19T03:16:57.023Z,english_468.wav,0,pill,1963,23,3,Japanese,m,3,0.3,39.91321296,0.04300573
MAN,62,1,2024-06-19T03:16:57.023Z,english_468.wav,0,pill,1963,23,3,Japanese,m,4,0.32341667,54.14936319,1.79642733
MAN,63,1,2024-06-19T03:16:57.023Z,english_963.wav,0,peel,2046,23,3,Japanese,m,0,0.0,-60.03327616,0.86711865
MAN,63,1,2024-06-19T03:16:57.023Z,english_963.wav,0,peel,2046,23,3,Japanese,m,1,0.1,-15.51067414,1.69273621
MAN,63,1,2024-06-19T03:16:57.023Z,english_963.wav,0,peel,2046,23,3,Japanese,m,2,0.2,59.36715957,0.74157302
MAN,63,1,2024-06-19T03:16:57.023Z,english_963.wav,0,peel,2046,23,3,Japanese,m,3,0.3,-98.70464219,1.73078555
MAN,63,1,2024-06-19T03:16:57.023Z,english_963.wav,0,peel,2046,23,3,Japanese,m,4,0.32341667,37.26723218,1.37482324
MAN,64,1,2024-06-19T03:16:57.023Z,english_818.wav,0,pill,3785,23,3,Japanese,m,0,0.0,88.49542613,1.4873036
MAN,64,1,2024-06-19T03:16:57.023Z,english_818.wav,0,pill,3785,23,3,Japanese,m,1,0.1,-7.37005163,1.25102077
MAN,64,1,2024-06-19T03:16:57.023Z,english_818.wav,0,pill,3785,23,3,Japanese,m,2,0.2,-1.58613611,0.80764036
MAN,64,1,2024-06-19T03:16:57.023Z,english_818.wav,0,pill,3785,23,3,Japanese,m,3,0.3,-69.41222379,0.80656775
MAN,64,1,2024-06-19T03:16:57.023Z,english_818.wav,0,pill,3785,23,3,Japanese,m,4,0.32341667,14.01707612,1.41859799
MAN,65,1,2024-06-19T03:16:57.023Z,english_724.wav,0,peel,430,23,3,Japanese,m,0,0.0,-91.46740291,0.46376674
MAN,65,1,2024-06-19T03:16:57.023Z,english_724.wav,0,peel,430,23,3,Japanese,m,1,0.1,23.01616352,1.84849858
MAN,65,1,2024-06-19T03:16:57.023Z,english_724.wav,0,peel,430,23,3,Japanese,m,2,0.2,-29.32408493,1.44978715
MAN,65,1,2024-06-19T03:16:57.023Z,english_724.wav,0,peel,430,23,3,Japanese,m,3,0.3,-79.49145217,1.24719002
MAN,65,1,2024-06-19T03:16:57.023Z,english_724.wav,0,peel,430,23,3,Japanese,m,4,0.32341667,82.35247912,0.99570929
MAN,66,1,2024-06-19T03:16:57.023Z,english_188.wav,0,peel,426,23,3,Japanese,m,0,0.0,-13.13088252,0.29227292
MAN,66,1,2024-06-19T03:16:57.023Z,english_188.wav,0,peel,426,23,3,Japanese,m,1,0.1,51.13663316,1.25360943
MAN,66,1,2024-06-19T03:16:57.023Z,english_188.wav,0,peel,426,23,3,Japanese,m,2,0.2,-80.18048506,1.7916357
MAN,66,1,2024-06-19T03:16:57.023Z,english_188.wav,0,peel,426,23,3,Japanese,m,3,0.3,-47.89773773,0.58346705
MAN,66,1,2024-06-19T03:16:57.023Z,english_188.wav,0,peel,426,23,3,Japanese,m,4,0.32341667,-7.0568118,1.77612328
MAN,67,1,2024-06-19T03:16:57.023Z,english_768.wav,0,pill,595,23,3,Japanese,m,0,0.0,-28.93145359,1.5002074
MAN,67,1,2024-06-19T03:16:57.023Z,english_768.wav,0,pill,595,23,3,Japanese,m,1,0.1,59.49166151,1.15432208
MAN,67,1,2024-06-19T03:16:57.023Z,english_768.wav,0,pill,595,23,3,Japanese,m,2,0.2,41.87955621,0.01731471
MAN,67,1,2024-06-19T03:16:57.023Z,english_768.wav,0,pill,595,23,3,Japanese,m,3,0.3,-92.17589111,0.98337229
MAN,67,1,2024-06-19T03:16:57.023Z,english_768.wav,0,pill,595,23,3,Japanese,m,4,0.32341667,15.2364545,0.4381055
MAN,68,1,2024-06-19T03:16:57.023Z,english_559.wav,0,pill,2384,23,3,Japanese,m,0,0.0,72.91796617,0.28347303
MAN,68,1,2024-06-19T03:16:57.023Z,english_559.wav,0,pill,2384,23,3,Japanese,m,1,0.1,49.0763932,0.33705515
MAN,68,1,2024-06-19T03:16:57.023Z,english_559.wav,0,pill,2384,23,3,Japanese,m,2,0.2,37.36372944,1.25665906
MAN,68,1,2024-06-19T03:16:57.023Z,english_559.wav,0,pill,2384,23,3,Japanese,m,3,0.3,62.8744144,0.42135622
MAN,68,1,2024-06-19T03:16:57.023Z,english_559.wav,0,pill,2384,23,3,Japanese,m,4,0.32341667,-70.24316133,0.44445559
MAN,69,1,2024-06-19T03:16:57.023Z,english_926.wav,0,pill,471,23,3,Japanese,m,0,0.0,-21.84910749,1.63725542
MAN,69,1,2024-06-19T03:16:57.023Z,english_926.wav,0,pill,471,23,3,Japanese,m,1,0.1,92.62617727,0.91190035
MAN,69,1,2024-06-19T03:16:57.023Z,english_926.wav,0,pill,471,23,3,Japanese,m,2,0.2,-40.07927874,0.45967153
MAN,69,1,2024-06-19T03:16:57.023Z,english_926.wav,0,pill,471,23,3,Japanese,m,3,0.3,30.58508574,0.64362954
MAN,69,1,2024-06-19T03:16:57.023Z,english_926.wav,0,pill,471,23,3,Japanese,m,4,0.32341667,-68.98646438,1.44788087
MAN,70,1,2024-06-19T03:16:57.023Z,english_269.wav,0,peel,328,23,3,Japanese,m,0,0.0,61.09556447,1.11606818
MAN,70,1,2024-06-19T03:16:57.023Z,english_269.wav,0,peel,328,23,3,Japanese,m,1,0.1,-3.97684721,1.55443041
MAN,70,1,2024-06-19T03:16:57.023Z,english_269.wav,0,peel,328,23,3,Japanese,m,2,0.2,-87.59080112,1.78173809
MAN,70,1,2024-06-19T03:16:57.023Z,english_269.wav,0,peel,328,23,3,Japanese,m,3,0.3,78.47165079,1.73012946
MAN,70,1,2024-06-19T03:16:57.023Z,english_269.wav,0,peel,328,23,3,Japanese,m,4,0.32341667,-52.74135522,0.88090417
MAN,71,1,2024-06-19T03:16:57.023Z,english_864.wav,0,peel,316,23,3,Japanese,m,0,0.0,-41.66547405,0.15536101
MAN,71,1,2024-06-19T03:16:57.023Z,english_864.wav,0,peel,316,23,3,Japanese,m,1,0.1,47.36949562,1.78739046
MAN,71,1,2024-06-19T03:16:57.023Z,english_864.wav,0,peel,316,23,3,Japanese,m,2,0.2,87.97635609,1.48310956
MAN,71,1,2024-06-19T03:16:57.023Z,english_864.wav,0,peel,316,23,3,Japanese,m,3,0.3,-18.88921291,0.35838492
MAN,71,1,2024-06-19T03:16:57.023Z,english_864.wav,0,peel,316,23,3,Japanese,m,4,0.32341667,13.88839096,0.21709894
MAN,72,1,2024-06-19T03:16:57.023Z,english_720.wav,0,pill,1020,23,3,Japanese,m,0,0.0,85.23240719,1.23446246
MAN,72,1,2024-06-19T03:16:57.023Z,english_720.wav,0,pill,1020,23,3,Japanese,m,1,0.1,78.65958559,0.77382892
MAN,72,1,2024-06-19T03:16:57.023Z,english_720.wav,0,pill,1020,23,3,Japanese,m,2,0.2,-56.45174874,0.48705718
MAN,72,1,2024-06-19T03:16:57.023Z,english_720.wav,0,pill,1020,23,3,Japanese,m,3,0.3,71.88898266,1.42335328
MAN,72,1,2024-06-19T03:16:57.023Z,english_720.wav,0,pill,1020,23,3,Japanese,m,4,0.32341667,-9.13482,1.32495619
MAN,73,1,2024-06-19T03:16:57.023Z,english_36.wav,0,pill,538,23,3,Japanese,m,0,0.0,8.79498818,0.0614271
MAN,73,1,2024-06-19T03:16:57.023Z,english_36.wav,0,pill,538,23,3,Japanese,m,1,0.1,-18.99628775,0.22652961
MAN,73,1,2024-06-19T03:16:57.023Z,english_36.wav,0,pill,538,23,3,Japanese,m,2,0.2,-17.40156662,0.46484299
MAN,73,1,2024-06-19T03:16:57.023Z,english_36.wav,0,pill,538,23,3,Japanese,m,3,0.3,-85.73958234,0.81464033
MAN,73,1,2024-06-19T03:16:57.023Z,english_36.wav,0,pill,538,23,3,Japanese,m,4,0.32341667,45.44069908,0.21843777
MAN,74,1,2024-06-19T03:16:57.023Z,english_232.wav,0,pill,422,23,3,Japanese,m,0,0.0,15.13134779,0.53160298
MAN,74,1,2024-06-19T03:16:57.023Z,english_232.wav,0,pill,422,23,3,Japanese,m,1,0.1,-49.29605083,0.4519978
MAN,74,1,2024-06-19T03:16:57.023Z,english_232.wav,0,pill,422,23,3,Japanese,m,2,0.2,59.10606455,0.39260156
MAN,74,1,2024-06-19T03:16:57.023Z,english_232.wav,0,pill,422,23,3,Japanese,m,3,0.3,48.81708847,0.4692084
MAN,74,1,2024-06-19T03:16:57.023Z,english_232.wav,0,pill,422,23,3,Japanese,m,4,0.32341667,14.83590121,0.46233459
MAN,75,1,2024-06-19T03:16:57.023Z,english_950.wav,0,peel,371,23,3,Japanese,m,0,0.0,-21.9776243,0.20752278
MAN,75,1,2024-06-19T03:16:57.023Z,english_950.wav,0,peel,371,23,3,Japanese,m,1,0.1,-41.40023943,1.93939622
MAN,75,1,2024-06-19T03:16:57.023Z,english_950.wav,0,peel,371,23,3,Japanese,m,2,0.2,48.01515584,1.55608343
MAN,75,1,2024-06-19T03:16:57.023Z,english_950.wav,0,peel,371,23,3,Japanese,m,3,0.3,-87.95551252,1.49634866
MAN,75,1,2024-06-19T03:16:57.023Z,english_950.wav,0,peel,371,23,3,Japanese,m,4,0.32341667,-39.5252386,0.91783384
MAN,76,1,2024-06-19T03:16:57.023Z,english_130.wav,0,pill,4582,23,3,Japanese,m,0,0.0,-27.4951122,0.83907871
MAN,76,1,2024-06-19T03:16:57.023Z,english_130.wav,0,pill,4582,23,3,Japanese,m,1,0.1,-38.07775804,1.38560413
MAN,76,1,2024-06-19T03:16:57.023Z,english_130.wav,0,pill,4582,23,3,Japanese,m,2,0.2,-9.69340922,0.50531735
MAN,76,1,2024-06-19T03:16:57.023Z,english_130.wav,0,pill,4582,23,3,Japanese,m,3,0.3,-88.09187015,0.53414674
MAN,76,1,2024-06-19T03:16:57.023Z,english_130.wav,0,pill,4582,23,3,Japanese,m,4,0.32341667,-47.45461314,1.10107345
MAN,77,1,2024-06-19T03:16:57.023Z,english_987.wav,0,peel,2766,23,3,Japanese,m,0,0.0,91.33137772,1.82656395
MAN,77,1,2024-06-19T03:16:57.023Z,english_987.wav,0,peel,2766,23,3,Japanese,m,1,0.1,-39.20299527,1.12122948
MAN,77,1,2024-06-19T03:16:57.023Z,english_987.wav,0,peel,2766,23,3,Japanese,m,2,0.2,78.9852337,1.12025045
MAN,77,1,2024-06-19T03:16:57.023Z,english_987.wav,0,peel,2766,23,3,Japanese,m,3,0.3,-94.66209845,1.02557261
MAN,77,1,2024-06-19T03:16:57.023Z,english_987.wav,0,peel,2766,23,3,Japanese,m,4,0.32341667,-71.76730894,1.06580695
MAN,78,1,2024-06-19T03:16:57.023Z,english_441.wav,0,peel,586,23,3,Japanese,m,0,0.0,-34.50722314,1.86415324
MAN,78,1,2024-06-19T03:16:57.023Z,english_441.wav,0,peel,586,23,3,Japanese,m,1,0.1,91.55175756,1.34062972
MAN,78,1,2024-06-19T03:16:57.023Z,english_441.wav,0,peel,586,23,3,Japanese,m,2,0.2,-74.07917439,1.20894222
MAN,78,1,2024-06-19T03:16:57.023Z,english_441.wav,0,peel,586,23,3,Japanese,m,3,0.3,82.08396891,0.00248362
MAN,78,1,2024-06-19T03:16:57.023Z,english_441.wav,0,peel,586,23,3,Japanese,m,4,0.32341667,13.2563292,0.67485278
MAN,79,1,2024-06-19T03:16:57.023Z,english_970.wav,0,peel,393,23,3,Japanese,m,0,0.0,37.22911191,0.60712849
MAN,79,1,2024-06-19T03:16:57.023Z,english_970.wav,0,peel,393,23,3,Japanese,m,1,0.1,36.57191813,1.26781741
MAN,79,1,2024-06-19T03:16:57.023Z,english_970.wav,0,peel,393,23,3,Japanese,m,2,0.2,20.2344678,1.29373459
MAN,79,1,2024-06-19T03:16:57.023Z,english_970.wav,0,peel,393,23,3,Japanese,m,3,0.3,-86.31030026,0.18112256
MAN,79,1,2024-06-19T03:16:57.023Z,english_970.wav,0,peel,393,23,3,Japanese,m,4,0.32341667,-83.96880691,1.07780169
MAN,80,1,2024-06-19T03:16:57.023Z,english_103.wav,0,peel,257,23,3,Japanese,m,0,0.0,-79.54710498,0.84178061
MAN,80,1,2024-06-19T03:16:57.023Z,english_103.wav,0,peel,257,23,3,Japanese,m,1,0.1,-41.31314025,1.9706485
MAN,80,1,2024-06-19T03:16:57.023Z,english_103.wav,0,peel,257,23,3,Japanese,m,2,0.2,-48.58046961,1.55059924
MAN,80,1,2024-06-19T03:16:57.023Z,english_103.wav,0,peel,257,23,3,Japanese,m,3,0.3,50.88097047,1.14550684
MAN,80,1,2024-06-19T03:16:57.023Z,english_103.wav,0,peel,257,23,3,Japanese,m,4,0.32341667,21.22320476,1.67039139
MAN,81,1,2024-06-19T03:16:57.023Z,english_712.wav,0,pill,362,23,3,Japanese,m,0,0.0,-69.83835125,1.15670948
MAN,81,1,2024-06-19T03:16:57.023Z,english_712.wav,0,pill,362,23,3,Japanese,m,1,0.1,-89.98535393,0.40201287
MAN,81,1,2024-06-19T03:16:57.023Z,english_712.wav,0,pill,362,23,3,Japanese,m,2,0.2,47.33040466,0.06412681
MAN,81,1,2024-06-19T03:16:57.023Z,english_712.wav,0,pill,362,23,3,Japanese,m,3,0.3,-32.03166139,1.50973484
MAN,81,1,2024-06-19T03:16:57.023Z,english_712.wav,0,pill,362,23,3,Japanese,m,4,0.32341667,-5.29851616,1.18377017
MAN,82,1,2024-06-19T03:16:57.023Z,english_204.wav,0,peel,296,23,3,Japanese,m,0,0.0,67.46317025,1.58701212
MAN,82,1,2024-06-19T03:16:57.023Z,english_204.wav,0,peel,296,23,3,Japanese,m,1,0.1,38.91463365,1.82178317
MAN,82,1,2024-06-19T03:16:57.023Z,english_204.wav,0,peel,296,23,3,Japanese,m,2,0.2,-85.28377865,1.60361911
MAN,82,1,2024-06-19T03:16:57.023Z,english_204.wav,0,peel,296,23,3,Japanese,m,3,0.3,55.65505401,0.21823774
MAN,82,1,2024-06-19T03:16:57.023Z,english_204.wav,0,peel,296,23,3,Japanese,m,4,0.32341667,56.32983288,0.04661671
MAN,83,1,2024-06-19T03:16:57.023Z,english_327.wav,0,pill,503,23,3,Japanese,m,0,0.0,-65.34261839,0.94624792
MAN,83,1,2024-06-19T03:16:57.023Z,english_327.wav,0,pill,503,23,3,Japanese,m,1,0.1,-88.88296173,0.88463276
MAN,83,1,2024-06-19T03:16:57.023Z,english_327.wav,0,pill,503,23,3,Japanese,m,2,0.2,-52.48624316,0.8064175
MAN,83,1,2024-06-19T03:16:57.023Z,english_327.wav,0,pill,503,23,3,Japanese,m,3,0.3,35.3894457,1.08656597
MAN,83,1,2024-06-19T03:16:57.023Z,english_327.wav,0,pill,503,23,3,Japanese,m,4,0.32341667,-31.26503482,0.95323019
MAN,84,1,2024-06-19T03:16:57.023Z,english_493.wav,0,peel,760,23,3,Japanese,m,0,0.0,42.62366846,0.72879325
MAN,84,1,2024-06-19T03:16:57.023Z,english_493.wav,0,peel,760,23,3,Japanese,m,1,0.1,-24.95330968,1.87742997
MAN,84,1,2024-06-19T03:16:57.023Z,english_493.wav,0,peel,760,23,3,Japanese,m,2,0.2,82.3526737,1.69463318
MAN,84,1,2024-06-19T03:16:57.023Z,english_493.wav,0,peel,760,23,3,Japanese,m,3,0.3,53.78370402,0.82529142
MAN,84,1,2024-06-19T03:16:57.023Z,english_493.wav,0,peel,760,23,3,Japanese,m,4,0.32341667,-52.5410085,0.10126548
MAN,85,1,2024-06-19T03:16:57.023Z,english_437.wav,0,pill,3277,23,3,Japanese,m,0,0.0,61.91803223,0.36516876
MAN,85,1,2024-06-19T03:16:57.023Z,english_437.wav,0,pill,3277,23,3,Japanese,m,1,0.1,0.99543568,0.43500315
MAN,85,1,2024-06-19T03:16:57.023Z,english_437.wav,0,pill,3277,23,3,Japanese,m,2,0.2,-50.96874522,1.25398366
MAN,85,1,2024-06-19T03:16:57.023Z,english_437.wav,0,pill,3277,23,3,Japanese,m,3,0.3,-47.73319396,0.60570222
MAN,85,1,2024-06-19T03:16:57.023Z,english_437.wav,0,pill,3277,23,3,Japanese,m,4,0.32341667,15.35939938,0.97208355
MAN,86,1,2024-06-19T03:16:57.023Z,english_764.wav,0,pill,6989,23,3,Japanese,m,0,0.0,7.00590276,1.84020442
MAN,86,1,2024-06-19T03:16:57.023Z,english_764.wav,0,pill,6989,23,3,Japanese,m,1,0.1,-69.33047837,0.1607256
MAN,86,1,2024-06-19T03:16:57.023Z,english_764.wav,0,pill,6989,23,3,Japanese,m,2,0.2,-20.89747671,1.70981587
MAN,86,1,2024-06-19T03:16:57.023Z,english_764.wav,0,pill,6989,23,3,Japanese,m,3,0.3,-96.63564891,1.13854431
MAN,86,1,2024-06-19T03:16:57.023Z,english_764.wav,0,pill,6989,23,3,Japanese,m,4,0.32341667,78.55111455,1.5536836
MAN,87,1,2024-06-19T03:16:57.023Z,english_785.wav,0,peel,190,23,3,Japanese,m,0,0.0,41.51350967,0.93543931
MAN,87,1,2024-06-19T03:16:57.023Z,english_785.wav,0,peel,190,23,3,Japanese,m,1,0.1,26.23517368,1.17819894
MAN,87,1,2024-06-19T03:16:57.023Z,english_785.wav,0,peel,190,23,3,Japanese,m,2,0.2,-12.63822228,1.98833146
MAN,87,1,2024-06-19T03:16:57.023Z,english_785.wav,0,peel,190,23,3,Japanese,m,3,0.3,-30.66588474,0.80021218
MAN,87,1,2024-06-19T03:16:57.023Z,english_785.wav,0,peel,190,23,3,Japanese,m,4,0.32341667,26.08399401,1.2737519
MAN,88,1,2024-06-19T03:16:57.023Z,english_301.wav,0,peel,246,23,3,Japanese,m,0,0.0,-78.18927369,1.31935747
MAN,88,1,2024-06-19T03:16:57.023Z,english_301.wav,0,peel,246,23,3,Japanese,m,1,0.1,-3.52439177,1.41636911
MAN,88,1,2024-06-19T03:16:57.023Z,english_301.wav,0,peel,246,23,3,Japanese,m,2,0.2,-23.22473782,1.38842862
MAN,88,1,2024-06-19T03:16:57.023Z,english_301.wav,0,peel,246,23,3,Japanese,m,3,0.3,-11.7220967,1.25169603
MAN,88,1,2024-06-19T03:16:57.023Z,english_301.wav,0,peel,246,23,3,Japanese,m,4,0.32341667,-5.78047748,1.38740104
MAN,89,1,2024-06-19T03:16:57.023Z,english_410.wav,0,pill,567,23,3,Japanese,m,0,0.0,-74.64506245,0.42358098
MAN,89,1,2024-06-19T03:16:57.023Z,english_410.wav,0,pill,567,23,3,Japanese,m,1,0.1,65.24401488,0.42526697
MAN,89,1,2024-06-19T03:16:57.023Z,english_410.wav,0,pill,567,23,3,Japanese,m,2,0.2,-65.86471953,1.12385183
MAN,89,1,2024-06-19T03:16:57.023Z,english_410.wav,0,pill,567,23,3,Japanese,m,3,0.3,98.79489106,0.33588109
MAN,89,1,2024-06-19T03:16:57.023Z,english_410.wav,0,pill,567,23,3,Japanese,m,4,0.32341667,14.95451541,1.7246864
MAN,90,1,2024-06-19T03:16:57.023Z,english_168.wav,0,pill,407,23,3,Japanese,m,0,0.0,-69.10300998,1.14537751
MAN,90,1,2024-06-19T03:16:57.023Z,english_168.wav,0,pill,407,23,3,Japanese,m,1,0.1,-24.44784794,1.06854972
MAN,90,1,2024-06-19T03:16:57.023Z,english_168.wav,0,pill,407,23,3,Japanese,m,2,0.2,35.31321785,0.45192262
MAN,90,1,2024-06-19T03:16:57.023Z,english_168.wav,0,pill,407,23,3,Japanese,m,3,0.3,-41.77498511,0.2846318
MAN,90,1,2024-06-19T03:16:57.023Z,english_168.wav,0,pill,407,23,3,Japanese,m,4,0.32341667,19.92389913,0.9853942
MAN,91,1,2024-06-19T03:16:57.023Z,english_359.wav,0,pill,349,23,3,Japanese,m,0,0.0,95.13315851,1.5844105
MAN,91,1,2024-06-19T03:16:57.023Z,english_359.wav,0,pill,349,23,3,Japanese,m,1,0.1,95.71495863,0.46491803
MAN,91,1,2024-06-19T03:16:57.023Z,english_359.wav,0,pill,349,23,3,Japanese,m,2,0.2,4.56295435,1.17107987
MAN,91,1,2024-06-19T03:16:57.023Z,english_359.wav,0,pill,349,23,3,Japanese,m,3,0.3,-11.93773809,0.63485582
MAN,91,1,2024-06-19T03:16:57.023Z,english_359.wav,0,pill,349,23,3,Japanese,m,4,0.32341667,-75.72789111,0.10666132
MAN,92,1,2024-06-19T03:16:57.023Z,english_719.wav,0,pill,462,23,3,Japanese,m,0,0.0,-32.14306232,1.4431753
MAN,92,1,2024-06-19T03:16:57.023Z,english_719.wav,0,pill,462,23,3,Japanese,m,1,0.1,-81.40439332,0.46175707
MAN,92,1,2024-06-19T03:16:57.023Z,english_719.wav,0,pill,462,23,3,Japanese,m,2,0.2,-20.1172293,1.86886769
MAN,92,1,2024-06-19T03:16:57.023Z,english_719.wav,0,pill,462,23,3,Japanese,m,3,0.3,67.63048238,0.67969247
MAN,92,1,2024-06-19T03:16:57.023Z,english_719.wav,0,pill,462,23,3,Japanese,m,4,0.32341667,50.83305788,1.68151983
MAN,93,1,2024-06-19T03:16:57.023Z,english_661.wav,0,peel,2867,23,3,Japanese,m,0,0.0,14.15805194,1.06290545
MAN,93,1,2024-06-19T03:16:57.023Z,english_661.wav,0,peel,2867,23,3,Japanese,m,1,0.1,-77.97020538,1.12952287
MAN,93,1,2024-06-19T03:16:57.023Z,english_661.wav,0,peel,2867,23,3,Japanese,m,2,0.2,-31.78835068,1.47556517
MAN,93,1,2024-06-19T03:16:57.023Z,english_661.wav,0,peel,2867,23,3,Japanese,m,3,0.3,1.84085651,0.41137052
MAN,93,1,2024-06-19T03:16:57.023Z,english_661.wav,0,peel,2867,23,3,Japanese,m,4,0.32341667,31.49677972,1.48872703
MAN,94,1,2024-06-19T03:16:57.023Z,english_77.wav,0,pill,444,23,3,Japanese,m,0,0.0,-72.40491727,0.02183184
MAN,94,1,2024-06-19T03:16:57.023Z,english_77.wav,0,pill,444,23,3,Japanese,m,1,0.1,8.82020558,1.36505393
MAN,94,1,2024-06-19T03:16:57.023Z,english_77.wav,0,pill,444,23,3,Japanese,m,2,0.2,89.28229375,1.34112472
MAN,94,1,2024-06-19T03:16:57.023Z,english_77.wav,0,pill,444,23,3,Japanese,m,3,0.3,-14.39120814,0.45737201
MAN,94,1,2024-06-19T03:16:57.023Z,english_77.wav,0,pill,444,23,3,Japanese,m,4,0.32341667,0.18022976,1.1673494
MAN,95,1,2024-06-19T03:16:57.023Z,english_878.wav,0,pill,395,23,3,Japanese,m,0,0.0,84.19501339,0.22676298
MAN,95,1,2024-06-19T03:16:57.023Z,english_878.wav,0,pill,395,23,3,Japanese,m,1,0.1,76.71234668,0.28568495
MAN,95,1,2024-06-19T03:16:57.023Z,english_878.wav,0,pill,395,23,3,Japanese,m,2,0.2,-74.61835319,0.74220819
MAN,95,1,2024-06-19T03:16:57.023Z,english_878.wav,0,pill,395,23,3,Japanese,m,3,0.3,83.79758366,1.72755148
MAN,95,1,2024-06-19T03:16:57.023Z,english_878.wav,0,pill,395,23,3,Japanese,m,4,0.32341667,-29.32243698,1.88938616
MAN,96,1,2024-06-19T03:16:57.023Z,english_430.wav,0,pill,402,23,3,Japanese,m,0,0.0,72.23510535,0.8682214
MAN,96,1,2024-06-19T03:16:57.023Z,english_430.wav,0,pill,402,23,3,Japanese,m,1,0.1,-9.56156918,0.26781202
MAN,96,1,2024-06-19T03:16:57.023Z,english_430.wav,0,pill,402,23,3,Japanese,m,2,0.2,36.71559936,1.38873793
MAN,96,1,2024-06-19T03:16:57.023Z,english_430.wav,0,pill,402,23,3,Japanese,m,3,0.3,-33.55254317,0.29076709
MAN,96,1,2024-06-19T03:16:57.023Z,english_430.wav,0,pill,402,23,3,Japanese,m,4,0.32341667,-25.71861109,0.30869259
MAN,97,1,2024-06-19T03:16:57.023Z,english_594.wav,0,pill,7567,23,3,Japanese,m,0,0.0,-85.15725243,1.49995106
MAN,97,1,2024-06-19T03:16:57.023Z,english_594.wav,0,pill,7567,23,3,Japanese,m,1,0.1,18.57908242,1.36683942
MAN,97,1,2024-06-19T03:16:57.023Z,english_594.wav,0,pill,7567,23,3,Japanese,m,2,0.2,-52.1381203,1.31792707
MAN,97,1,2024-06-19T03:16:57.023Z,english_594.wav,0,pill,7567,23,3,Japanese,m,3,0.3,77.56862162,0.76119001
MAN,97,1,2024-06-19T03:16:57.023Z,english_594.wav,0,pill,7567,23,3,Japanese,m,4,0.32341667,89.7133381,1.77084997
MAN,98,1,2024-06-19T03:16:57.023Z,english_403.wav,0,pill,335,23,3,Japanese,m,0,0.0,-92.65414009,1.93574734
MAN,98,1,2024-06-19T03:16:57.023Z,english_403.wav,0,pill,335,23,3,Japanese,m,1,0.1,75.99659731,0.36447309
MAN,98,1,2024-06-19T03:16:57.023Z,english_403.wav,0,pill,335,23,3,Japanese,m,2,0.2,-27.37801557,1.02888701
MAN,98,1,2024-06-19T03:16:57.023Z,english_403.wav,0,pill,335,23,3,Japanese,m,3,0.3,-80.04540334,0.02385722
MAN,98,1,2024-06-19T03:16:57.023Z,english_403.wav,0,pill,335,23,3,Japanese,m,4,0.32341667,30.50648557,1.40553938
MAN,99,1,2024-06-19T03:16:57.023Z,english_622.wav,0,peel,564,23,3,Japanese,m,0,0.0,-46.49267806,1.425187
MAN,99,1,2024-06-19T03:16:57.023Z,english_622.wav,0,peel,564,23,3,Japanese,m,1,0.1,-80.07623079,0.61910367
MAN,99,1,2024-06-19T03:16:57.023Z,english_622.wav,0,peel,564,23,3,Japanese,m,2,0.2,-28.70131311,1.30297951
MAN,99,1,2024-06-19T03:16:57.023Z,english_622.wav,0,peel,564,23,3,Japanese,m,3,0.3,-26.89352847,1.73248838
MAN,99,1,2024-06-19T03:16:57.023Z,english_622.wav,0,peel,564,23,3,Japanese,m,4,0.32341667,-24.31243398,0.85523545
MAN,100,2,2024-06-19T03:16:57.023Z,english_412.wav,0,pill,1391,23,3,Japanese,m,0,0.0,-82.38375592,0.41347899
MAN,100,2,2024-06-19T03:16:57.023Z,english_412.wav,0,pill,1391,23,3,Japanese,m,1,0.1,-35.89348303,0.05505218
MAN,100,2,2024-06-19T03:16:57.023Z,english_412.wav,0,pill,1391,23,3,Japanese,m,2,0.2,-78.50422887,1.28972039
MAN,100,2,2024-06-19T03:16:57.023Z,english_412.wav,0,pill,1391,23,3,Japanese,m,3,0.3,8.19618882,0.97331843
MAN,100,2,2024-06-19T03:16:57.023Z,english_412.wav,0,pill,1391,23,3,Japanese,m,4,0.32341667,88.30694734,0.22558246
MAN,101,2,2024-06-19T03:16:57.023Z,english_788.wav,0,peel,3226,23,3,Japanese,m,0,0.0,-93.79628683,0.67330318
MAN,101,2,2024-06-19T03:16:57.023Z,english_788.wav,0,peel,3226,23,3,Japanese,m,1,0.1,-45.29703147,1.33385595
MAN,101,2,2024-06-19T03:16:57.023Z,english_788.wav,0,peel,3226,23,3,Japanese,m,2,0.2,-46.01001772,1.35248941
MAN,101,2,2024-06-19T03:16:57.023Z,english_788.wav,0,peel,3226,23,3,Japanese,m,3,0.3,-56.6729179,1.33220146
MAN,101,2,2024-06-19T03:16:57.023Z,english_788.wav,0,peel,3226,23,3,Japanese,m,4,0.32341667,51.29020462,1.32468206
MAN,102,2,2024-06-19T03:16:57.023Z,english_869.wav,0,pill,1436,23,3,Japanese,m,0,0.0,31.82870938,0.91730192
MAN,102,2,2024-06-19T03:16:57.023Z,english_869.wav,0,pill,1436,23,3,Japanese,m,1,0.1,55.69153841,1.54634356
MAN,102,2,2024-06-19T03:16:57.023Z,english_869.wav,0,pill,1436,23,3,Japanese,m,2,0.2,44.83997999,0.32401745
MAN,102,2,2024-06-19T03:16:57.023Z,english_869.wav,0,pill,1436,23,3,Japanese,m,3,0.3,-64.6596515,1.34292926
MAN,102,2,2024-06-19T03:16:57.023Z,english_869.wav,0,pill,1436,23,3,Japanese,m,4,0.32341667,-51.58434075,0.99771643
MAN,103,2,2024-06-19T03:16:57.023Z,english_789.wav,0,peel,4971,23,3,Japanese,m,0,0.0,70.69388181,1.62690516
MAN,103,2,2024-06-19T03:16:57.023Z,english_789.wav,0,peel,4971,23,3,Japanese,m,1,0.1,-91.45782136,1.02092359
MAN,103,2,2024-06-19T03:16:57.023Z,english_789.wav,0,peel,4971,23,3,Japanese,m,2,0.2,-94.67801392,0.93437639
MAN,103,2,2024-06-19T03:16:57.023Z,english_789.wav,0,peel,4971,23,3,Japanese,m,3,0.3,83.76501612,1.8239896
MAN,103,2,2024-06-19T03:16:57.023Z,english_789.wav,0,peel,4971,23,3,Japanese,m,4,0.32341667,-4.60584958,1.29596798
MAN,104,2,2024-06-19T03:16:57.023Z,english_946.wav,0,pill,338,23,3,Japanese,m,0,0.0,-74.23479435,1.22824298
MAN,104,2,2024-06-19T03:16:57.023Z,english_946.wav,0,pill,338,23,3,Japanese,m,1,0.1,-11.3601526,0.85784227
MAN,104,2,2024-06-19T03:16:57.023Z,english_946.wav,0,pill,338,23,3,Japanese,m,2,0.2,36.50675361,0.09585286
MAN,104,2,2024-06-19T03:16:57.023Z,english_946.wav,0,pill,338,23,3,Japanese,m,3,0.3,-13.94845552,0.43829102
MAN,104,2,2024-06-19T03:16:57.023Z,english_946.wav,0,pill,338,23,3,Japanese,m,4,0.32341667,-6.97265347,0.86422506
MAN,105,2,2024-06-19T03:16:57.023Z,english_928.wav,0,pill,243,23,3,Japanese,m,0,0.0,55.07207497,1.22706758
MAN,105,2,2024-06-19T03:16:57.023Z,english_928.wav,0,pill,243,23,3,Japanese,m,1,0.1,83.71672672,0.97206042
MAN,105,2,2024-06-19T03:16:57.023Z,english_928.wav,0,pill,243,23,3,Japanese,m,2,0.2,-43.28929986,0.16969859
MAN,105,2,2024-06-19T03:16:57.023Z,english_928.wav,0,pill,243,23,3,Japanese,m,3,0.3,-17.1692271,0.90092586
MAN,105,2,2024-06-19T03:16:57.023Z,english_928.wav,0,pill,243,23,3,Japanese,m,4,0.32341667,-36.644272,0.43024518
MAN,106,2,2024-06-19T03:16:57.023Z,english_927.wav,0,pill,590,23,3,Japanese,m,0,0.0,81.66311017,1.3783001
MAN,106,2,2024-06-19T03:16:57.023Z,english_927.wav,0,pill,590,23,3,Japanese,m,1,0.1,0.87570902,0.51323502
MAN,106,2,2024-06-19T03:16:57.023Z,english_927.wav,0,pill,590,23,3,Japanese,m,2,0.2,-59.21619647,0.98265958
MAN,106,2,2024-06-19T03:16:57.023Z,english_927.wav,0,pill,590,23,3,Japanese,m,3,0.3,-57.6787773,0.30790993
MAN,106,2,2024-06-19T03:16:57.023Z,english_927.wav,0,pill,590,23,3,Japanese,m,4,0.32341667,-30.87043146,1.17222751
MAN,107,2,2024-06-19T03:16:57.023Z,english_398.wav,0,peel,738,23,3,Japanese,m,0,0.0,-72.24204172,0.50855809
MAN,107,2,2024-06-19T03:16:57.023Z,english_398.wav,0,peel,738,23,3,Japanese,m,1,0.1,29.80242672,0.68040596
MAN,107,2,2024-06-19T03:16:57.023Z,english_398.wav,0,peel,738,23,3,Japanese,m,2,0.2,-29.26741326,1.59063958
MAN,107,2,2024-06-19T03:16:57.023Z,english_398.wav,0,peel,738,23,3,Japanese,m,3,0.3,30.68380911,1.71035635
MAN,107,2,2024-06-19T03:16:57.023Z,english_398.wav,0,peel,738,23,3,Japanese,m,4,0.32341667,-23.61694816,1.737831
MAN,108,2,2024-06-19T03:16:57.023Z,english_840.wav,0,pill,447,23,3,Japanese,m,0,0.0,-27.11425843,1.31301797
MAN,108,2,2024-06-19T03:16:57.023Z,english_840.wav,0,pill,447,23,3,Japanese,m,1,0.1,-47.31494811,0.54280133
MAN,108,2,2024-06-19T03:16:57.023Z,english_840.wav,0,pill,447,23,3,Japanese,m,2,0.2,-88.66887426,0.14090987
MAN,108,2,2024-06-19T03:16:57.023Z,english_840.wav,0,pill,447,23,3,Japanese,m,3,0.3,7.86940595,0.11950116
MAN,108,2,2024-06-19T03:16:57.023Z,english_840.wav,0,pill,447,23,3,Japanese,m,4,0.32341667,87.61758205,1.48166624
MAN,109,2,2024-06-19T03:16:57.023Z,english_585.wav,0,pill,2647,23,3,Japanese,m,0,0.0,-47.47167609,0.91486293
MAN,109,2,2024-06-19T03:16:57.023Z,english_585.wav,0,pill,2647,23,3,Japanese,m,1,0.1,-85.73018253,0.8051019
MAN,109,2,2024-06-19T03:16:57.023Z,english_585.wav,0,pill,2647,23,3,Japanese,m,2,0.2,4.69567907,1.25289508
MAN,109,2,2024-06-19T03:16:57.023Z,english_585.wav,0,pill,2647,23,3,Japanese,m,3,0.3,51.83381109,0.83258124
MAN,109,2,2024-06-19T03:16:57.023Z,english_585.wav,0,pill,2647,23,3,Japanese,m,4,0.32341667,14.12777642,1.43411439
MAN,110,2,2024-06-19T03:16:57.023Z,english_176.wav,0,pill,370,23,3,Japanese,m,0,0.0,-62.84257592,0.68193044
MAN,110,2,2024-06-19T03:16:57.023Z,english_176.wav,0,pill,370,23,3,Japanese,m,1,0.1,86.95506575,0.26950978
MAN,110,2,2024-06-19T03:16:57.023Z,english_176.wav,0,pill,370,23,3,Japanese,m,2,0.2,-28.0397163,0.45294908
MAN,110,2,2024-06-19T03:16:57.023Z,english_176.wav,0,pill,370,23,3,Japanese,m,3,0.3,-64.80124174,0.91353321
MAN,110,2,2024-06-19T03:16:57.023Z,english_176.wav,0,pill,370,23,3,Japanese,m,4,0.32341667,-98.66046935,1.10925614
MAN,111,2,2024-06-19T03:16:57.023Z,english_859.wav,0,pill,415,23,3,Japanese,m,0,0.0,71.31858369,0.11764496
MAN,111,2,2024-06-19T03:16:57.023Z,english_859.wav,0,pill,415,23,3,Japanese,m,1,0.1,-33.60875554,0.29827778
MAN,111,2,2024-06-19T03:16:57.023Z,english_859.wav,0,pill,415,23,3,Japanese,m,2,0.2,-64.15502461,0.43254339
MAN,111,2,2024-06-19T03:16:57.023Z,english_859.wav,0,pill,415,23,3,Japanese,m,3,0.3,-36.22537369,0.12368506
MAN,111,2,2024-06-19T03:16:57.023Z,english_859.wav,0,pill,415,23,3,Japanese,m,4,0.32341667,-23.59955866,0.97858169
MAN,112,2,2024-06-19T03:16:57.023Z,english_534.wav,0,pill,332,23,3,Japanese,m,0,0.0,-42.4271338,1.1267565
MAN,112,2,2024-06-19T03:16:57.023Z,english_534.wav,0,pill,332,23,3,Japanese,m,1,0.1,-80.6424644,0.6842577
MAN,112,2,2024-06-19T03:16:57.023Z,english_534.wav,0,pill,332,23,3,Japanese,m,2,0.2,59.29592388,0.01459656
MAN,112,2,2024-06-19T03:16:57.023Z,english_534.wav,0,pill,332,23,3,Japanese,m,3,0.3,75.02007223,1.03701198
MAN,112,2,2024-06-19T03:16:57.023Z,english_534.wav,0,pill,332,23,3,Japanese,m,4,0.32341667,-57.55026449,1.25840342
MAN,113,2,2024-06-19T03:16:57.023Z,english_356.wav,0,peel,425,23,3,Japanese,m,0,0.0,87.74309864,0.22820547
MAN,113,2,2024-06-19T03:16:57.023Z,english_356.wav,0,peel,425,23,3,Japanese,m,1,0.1,-4.48264388,1.49009691
MAN,113,2,2024-06-19T03:16:57.023Z,english_356.wav,0,peel,425,23,3,Japanese,m,2,0.2,90.19031952,1.39023362
MAN,113,2,2024-06-19T03:16:57.023Z,english_356.wav,0,peel,425,23,3,Japanese,m,3,0.3,-69.40540064,1.78473098
MAN,113,2,2024-06-19T03:16:57.023Z,english_356.wav,0,peel,425,23,3,Japanese,m,4,0.32341667,65.10278108,0.80628385
MAN,114,2,2024-06-19T03:16:57.023Z,english_255.wav,0,peel,315,23,3,Japanese,m,0,0.0,-42.74550593,1.65518669
MAN,114,2,2024-06-19T03:16:57.023Z,english_255.wav,0,peel,315,23,3,Japanese,m,1,0.1,35.44578771,1.85823386
MAN,114,2,2024-06-19T03:16:57.023Z,english_255.wav,0,peel,315,23,3,Japanese,m,2,0.2,98.7346041,1.2123315
MAN,114,2,2024-06-19T03:16:57.023Z,english_255.wav,0,peel,315,23,3,Japanese,m,3,0.3,14.08839822,0.62099519
MAN,114,2,2024-06-19T03:16:57.023Z,english_255.wav,0,peel,315,23,3,Japanese,m,4,0.32341667,-55.38739786,1.08486436
MAN,115,2,2024-06-19T03:16:57.023Z,english_857.wav,0,peel,801,23,3,Japanese,m,0,0.0,-33.07031843,1.04325491
MAN,115,2,2024-06-19T03:16:57.023Z,english_857.wav,0,peel,801,23,3,Japanese,m,1,0.1,12.9349985,0.44078978
MAN,115,2,2024-06-19T03:16:57.023Z,english_857.wav,0,peel,801,23,3,Japanese,m,2,0.2,4.33682254,1.36028147
MAN,115,2,2024-06-19T03:16:57.023Z,english_857.wav,0,peel,801,23,3,Japanese,m,3,0.3,90.68056828,1.16905302
MAN,115,2,2024-06-19T03:16:57.023Z,english_857.wav,0,peel,801,23,3,Japanese,m,4,0.32341667,37.69781409,1.24618942
MAN,116,2,2024-06-19T03:16:57.023Z,english_704.wav,0,peel,418,23,3,Japanese,m,0,0.0,-24.48288207,0.92043902
MAN,116,2,2024-06-19T03:16:57.023Z,english_704.wav,0,peel,418,23,3,Japanese,m,1,0.1,-9.94163531,0.96595902
MAN,116,2,2024-06-19T03:16:57.023Z,english_704.wav,0,peel,418,23,3,Japanese,m,2,0.2,74.85271107,1.40327859
MAN,116,2,2024-06-19T03:16:57.023Z,english_704.wav,0,peel,418,23,3,Japanese,m,3,0.3,-38.44921803,1.07325586
MAN,116,2,2024-06-19T03:16:57.023Z,english_704.wav,0,peel,418,23,3,Japanese,m,4,0.32341667,-21.20994959,1.87555588
MAN,117,2,2024-06-19T03:16:57.023Z,english_316.wav,0,pill,976,23,3,Japanese,m,0,0.0,57.83477319,0.36818456
MAN,117,2,2024-06-19T03:16:57.023Z,english_316.wav,0,pill,976,23,3,Japanese,m,1,0.1,-58.77664409,0.44097806
MAN,117,2,2024-06-19T03:16:57.023Z,english_316.wav,0,pill,976,23,3,Japanese,m,2,0.2,-11.91657597,0.11283472
MAN,117,2,2024-06-19T03:16:57.023Z,english_316.wav,0,pill,976,23,3,Japanese,m,3,0.3,34.77508847,1.48283273
MAN,117,2,2024-06-19T03:16:57.023Z,english_316.wav,0,pill,976,23,3,Japanese,m,4,0.32341667,-82.62529931,0.30363046
MAN,118,2,2024-06-19T03:16:57.023Z,english_319.wav,0,peel,470,23,3,Japanese,m,0,0.0,-84.37928886,1.17141126
MAN,118,2,2024-06-19T03:16:57.023Z,english_319.wav,0,peel,470,23,3,Japanese,m,1,0.1,-52.76931383,1.13741792
MAN,118,2,2024-06-19T03:16:57.023Z,english_319.wav,0,peel,470,23,3,Japanese,m,2,0.2,56.06390533,0.91618882
MAN,118,2,2024-06-19T03:16:57.023Z,english_319.wav,0,peel,470,23,3,Japanese,m,3,0.3,-69.46438111,0.7080153
MAN,118,2,2024-06-19T03:16:57.023Z,english_319.wav,0,peel,470,23,3,Japanese,m,4,0.32341667,91.86152445,0.5910213
MAN,119,2,2024-06-19T03:16:57.023Z,english_502.wav,0,peel,372,23,3,Japanese,m,0,0.0,-23.73065935,0.0797034
MAN,119,2,2024-06-19T03:16:57.023Z,english_502.wav,0,peel,372,23,3,Japanese,m,1,0.1,2.70754613,1.83600464
MAN,119,2,2024-06-19T03:16:57.023Z,english_502.wav,0,peel,372,23,3,Japanese,m,2,0.2,25.650451,1.48948742
MAN,119,2,2024-06-19T03:16:57.023Z,english_502.wav,0,peel,372,23,3,Japanese,m,3,0.3,-49.55254658,1.22465236
MAN,119,2,2024-06-19T03:16:57.023Z,english_502.wav,0,peel,372,23,3,Japanese,m,4,0.32341667,16.82642172,1.41984075
MAN,120,2,2024-06-19T03:16:57.023Z,english_640.wav,0,pill,2976,23,3,Japanese,m,0,0.0,74.95875769,1.81273707
MAN,120,2,2024-06-19T03:16:57.023Z,english_640.wav,0,pill,2976,23,3,Japanese,m,1,0.1,87.73764633,1.50076703
MAN,120,2,2024-06-19T03:16:57.023Z,english_640.wav,0,pill,2976,23,3,Japanese,m,2,0.2,-71.36544648,0.25286143
MAN,120,2,2024-06-19T03:16:57.023Z,english_640.wav,0,pill,2976,23,3,Japanese,m,3,0.3,11.07583082,0.53181051
MAN,120,2,2024-06-19T03:16:57.023Z,english_640.wav,0,pill,2976,23,3,Japanese,m,4,0.32341667,18.32643638,0.76351343
MAN,121,2,2024-06-19T03:16:57.023Z,english_22.wav,0,pill,376,23,3,Japanese,m,0,0.0,78.11206964,1.48448967
MAN,121,2,2024-06-19T03:16:57.023Z,english_22.wav,0,pill,376,23,3,Japanese,m,1,0.1,30.08823316,0.28770474
MAN,121,2,2024-06-19T03:16:57.023Z,english_22.wav,0,pill,376,23,3,Japanese,m,2,0.2,62.70691674,1.03274311
MAN,121,2,2024-06-19T03:16:57.023Z,english_22.wav,0,pill,376,23,3,Japanese,m,3,0.3,-69.9857022,0.45071415
MAN,121,2,2024-06-19T03:16:57.023Z,english_22.wav,0,pill,376,23,3,Japanese,m,4,0.32341667,-1.96178027,0.30900593
MAN,122,2,2024-06-19T03:16:57.023Z,english_266.wav,0,peel,384,23,3,Japanese,m,0,0.0,16.70772117,0.81064175
MAN,122,2,2024-06-19T03:16:57.023Z,english_266.wav,0,peel,384,23,3,Japanese,m,1,0.1,-61.82971906,1.48442032
MAN,122,2,2024-06-19T03:16:57.023Z,english_266.wav,0,peel,384,23,3,Japanese,m,2,0.2,-31.41060896,1.39445033
MAN,122,2,2024-06-19T03:16:57.023Z,english_266.wav,0,peel,384,23,3,Japanese,m,3,0.3,-8.94045194,1.01594082
MAN,122,2,2024-06-19T03:16:57.023Z,english_266.wav,0,peel,384,23,3,Japanese,m,4,0.32341667,-27.43066022,0.75934284
MAN,123,2,2024-06-19T03:16:57.023Z,english_821.wav,0,peel,399,23,3,Japanese,m,0,0.0,-4.04234253,1.62928948
MAN,123,2,2024-06-19T03:16:57.023Z,english_821.wav,0,peel,399,23,3,Japanese,m,1,0.1,50.39518932,0.78033958
MAN,123,2,2024-06-19T03:16:57.023Z,english_821.wav,0,peel,399,23,3,Japanese,m,2,0.2,58.18996785,1.56476115
MAN,123,2,2024-06-19T03:16:57.023Z,english_821.wav,0,peel,399,23,3,Japanese,m,3,0.3,-22.07293427,0.56557752
MAN,123,2,2024-06-19T03:16:57.023Z,english_821.wav,0,peel,399,23,3,Japanese,m,4,0.32341667,56.43229939,0.93389964
MAN,124,2,2024-06-19T03:16:57.023Z,english_432.wav,0,peel,461,23,3,Japanese,m,0,0.0,34.04923955,0.51661687
MAN,124,2,2024-06-19T03:16:57.023Z,english_432.wav,0,peel,461,23,3,Japanese,m,1,0.1,-20.16773507,0.2259012
MAN,124,2,2024-06-19T03:16:57.023Z,english_432.wav,0,peel,461,23,3,Japanese,m,2,0.2,58.06800811,1.98214485
MAN,124,2,2024-06-19T03:16:57.023Z,english_432.wav,0,peel,461,23,3,Japanese,m,3,0.3,46.82268278,1.23025235
MAN,124,2,2024-06-19T03:16:57.023Z,english_432.wav,0,peel,461,23,3,Japanese,m,4,0.32341667,16.04458546,1.72803009
MAN,125,2,2024-06-19T03:16:57.023Z,english_600.wav,0,peel,1009,23,3,Japanese,m,0,0.0,37.30285492,1.23507691
MAN,125,2,2024-06-19T03:16:57.023Z,english_600.wav,0,peel,1009,23,3,Japanese,m,1,0.1,57.58729363,0.65453179
MAN,125,2,2024-06-19T03:16:57.023Z,english_600.wav,0,peel,1009,23,3,Japanese,m,2,0.2,-74.33256695,1.70226061
MAN,125,2,2024-06-19T03:16:57.023Z,english_600.wav,0,peel,1009,23,3,Japanese,m,3,0.3,-35.711252,0.4723836
MAN,125,2,2024-06-19T03:16:57.023Z,english_600.wav,0,peel,1009,23,3,Japanese,m,4,0.32341667,3.54782198,0.49080622
MAN,126,2,2024-06-19T03:16:57.023Z,english_220.wav,0,peel,457,23,3,Japanese,m,0,0.0,-49.83323752,1.6244524
MAN,126,2,2024-06-19T03:16:57.023Z,english_220.wav,0,peel,457,23,3,Japanese,m,1,0.1,49.13629021,0.7812698
MAN,126,2,2024-06-19T03:16:57.023Z,english_220.wav,0,peel,457,23,3,Japanese,m,2,0.2,10.673463,1.29736816
MAN,126,2,2024-06-19T03:16:57.023Z,english_220.wav,0,peel,457,23,3,Japanese,m,3,0.3,-2.35218347,1.3419496
MAN,126,2,2024-06-19T03:16:57.023Z,english_220.wav,0,peel,457,23,3,Japanese,m,4,0.32341667,-2.61587219,1.06575232
MAN,127,2,2024-06-19T03:16:57.023Z,english_519.wav,0,peel,983,23,3,Japanese,m,0,0.0,-8.06946753,0.14231686
MAN,127,2,2024-06-19T03:16:57.023Z,english_519.wav,0,peel,983,23,3,Japanese,m,1,0.1,-66.74939098,1.74411569
MAN,127,2,2024-06-19T03:16:57.023Z,english_519.wav,0,peel,983,23,3,Japanese,m,2,0.2,-27.98142454,1.42967772
MAN,127,2,2024-06-19T03:16:57.023Z,english_519.wav,0,peel,983,23,3,Japanese,m,3,0.3,-72.75033344,0.44774012
MAN,127,2,2024-06-19T03:16:57.023Z,english_519.wav,0,peel,983,23,3,Japanese,m,4,0.32341667,-36.15575878,1.4256209
MAN,128,2,2024-06-19T03:16:57.023Z,english_228.wav,0,peel,742,23,3,Japanese,m,0,0.0,10.35680964,1.81276751
MAN,128,2,2024-06-19T03:16:57.023Z,english_228.wav,0,peel,742,23,3,Japanese,m,1,0.1,-84.53961792,0.9819477
MAN,128,2,2024-06-19T03:16:57.023Z,english_228.wav,0,peel,742,23,3,Japanese,m,2,0.2,38.41788342,1.68506606
MAN,128,2,2024-06-19T03:16:57.023Z,english_228.wav,0,peel,742,23,3,Japanese,m,3,0.3,-9.18015311,0.19219142
MAN,128,2,2024-06-19T03:16:57.023Z,english_228.wav,0,peel,742,23,3,Japanese,m,4,0.32341667,-12.25744947,1.99636764
MAN,129,2,2024-06-19T03:16:57.023Z,english_46.wav,0,peel,819,23,3,Japanese,m,0,0.0,-29.32250151,0.64118776
MAN,129,2,2024-06-19T03:16:57.023Z,english_46.wav,0,peel,819,23,3,Japanese,m,1,0.1,-3.06808063,0.73649566
MAN,129,2,2024-06-19T03:16:57.023Z,english_46.wav,0,peel,819,23,3,Japanese,m,2,0.2,90.97923358,1.88790792
MAN,129,2,2024-06-19T03:16:57.023Z,english_46.wav,0,peel,819,23,3,Japanese,m,3,0.3,10.7462216,0.26788582
MAN,129,2,2024-06-19T03:16:57.023Z,english_46.wav,0,peel,819,23,3,Japanese,m,4,0.32341667,-76.74347892,0.543593
MAN,130,2,2024-06-19T03:16:57.023Z,english_691.wav,0,pill,585,23,3,Japanese,m,0,0.0,28.79078449,1.07683297
MAN,130,2,2024-06-19T03:16:57.023Z,english_691.wav,0,pill,585,23,3,Japanese,m,1,0.1,99.1184909,1.07376069
MAN,130,2,2024-06-19T03:16:57.023Z,english_691.wav,0,pill,585,23,3,Japanese,m,2,0.2,-54.13985733,0.28522735
MAN,130,2,2024-06-19T03:16:57.023Z,english_691.wav,0,pill,585,23,3,Japanese,m,3,0.3,-85.36319246,0.85701066
MAN,130,2,2024-06-19T03:16:57.023Z,english_691.wav,0,pill,585,23,3,Japanese,m,4,0.32341667,-73.61621094,1.71165398
MAN,131,2,2024-06-19T03:16:57.023Z,english_174.wav,0,pill,411,23,3,Japanese,m,0,0.0,-14.93169449,0.27768215
MAN,131,2,2024-06-19T03:16:57.023Z,english_174.wav,0,pill,411,23,3,Japanese,m,1,0.1,-60.50222611,0.13809097
MAN,131,2,2024-06-19T03:16:57.023Z,english_174.wav,0,pill,411,23,3,Japanese,m,2,0.2,-88.67347191,0.18584848
MAN,131,2,2024-06-19T03:16:57.023Z,english_174.wav,0,pill,411,23,3,Japanese,m,3,0.3,-20.58504224,1.46718454
MAN,131,2,2024-06-19T03:16:57.023Z,english_174.wav,0,pill,411,23,3,Japanese,m,4,0.32341667,-52.28073567,0.17567705
MAN,132,2,2024-06-19T03:16:57.023Z,english_573.wav,0,pill,499,23,3,Japanese,m,0,0.0,-46.41950257,0.98293374
MAN,132,2,2024-06-19T03:16:57.023Z,english_573.wav,0,pill,499,23,3,Japanese,m,1,0.1,-92.58424164,0.99885906
MAN,132,2,2024-06-19T03:16:57.023Z,english_573.wav,0,pill,499,23,3,Japanese,m,2,0.2,21.8123883,0.65769494
MAN,132,2,2024-06-19T03:16:57.023Z,english_573.wav,0,pill,499,23,3,Japanese,m,3,0.3,16.48756951,0.46238493
MAN,132,2,2024-06-19T03:16:57.023Z,english_573.wav,0,pill,499,23,3,Japanese,m,4,0.32341667,-54.36863361,0.72259175
MAN,133,2,2024-06-19T03:16:57.023Z,english_636.wav,0,peel,225,23,3,Japanese,m,0,0.0,-20.37295141,1.69276631
MAN,133,2,2024-06-19T03:16:57.023Z,english_636.wav,0,peel,225,23,3,Japanese,m,1,0.1,-84.7288786,1.69908726
MAN,133,2,2024-06-19T03:16:57.023Z,english_636.wav,0,peel,225,23,3,Japanese,m,2,0.2,24.84265136,1.44836333
MAN,133,2,2024-06-19T03:16:57.023Z,english_636.wav,0,peel,225,23,3,Japanese,m,3,0.3,-9.2443485,1.36647816
MAN,133,2,2024-06-19T03:16:57.023Z,english_636.wav,0,peel,225,23,3,Japanese,m,4,0.32341667,49.04875774,0.88112598
MAN,134,2,2024-06-19T03:16:57.023Z,english_732.wav,0,peel,300,23,3,Japanese,m,0,0.0,-12.49530298,1.28394154
MAN,134,2,2024-06-19T03:16:57.023Z,english_732.wav,0,peel,300,23,3,Japanese,m,1,0.1,77.35683448,1.95772399
MAN,134,2,2024-06-19T03:16:57.023Z,english_732.wav,0,peel,300,23,3,Japanese,m,2,0.2,46.14200593,1.14408971
MAN,134,2,2024-06-19T03:16:57.023Z,english_732.wav,0,peel,300,23,3,Japanese,m,3,0.3,-17.19403126,0.21034957
MAN,134,2,2024-06-19T03:16:57.023Z,english_732.wav,0,peel,300,23,3,Japanese,m,4,0.32341667,-81.60069167,0.50538316
MAN,135,2,2024-06-19T03:16:57.023Z,english_458.wav,0,pill,679,23,3,Japanese,m,0,0.0,-49.69821038,0.39452057
MAN,135,2,2024-06-19T03:16:57.023Z,english_458.wav,0,pill,679,23,3,Japanese,m,1,0.1,-49.80647014,1.24604375
MAN,135,2,2024-06-19T03:16:57.023Z,english_458.wav,0,pill,679,23,3,Japanese,m,2,0.2,11.98261521,0.42272405
MAN,135,2,2024-06-19T03:16:57.023Z,english_458.wav,0,pill,679,23,3,Japanese,m,3,0.3,59.43319096,0.21259233
MAN,135,2,2024-06-19T03:16:57.023Z,english_458.wav,0,pill,679,23,3,Japanese,m,4,0.32341667,-34.5671642,1.13235362
MAN,136,2,2024-06-19T03:16:57.023Z,english_365.wav,0,peel,2206,23,3,Japanese,m,0,0.0,58.11205919,0.53708026
MAN,136,2,2024-06-19T03:16:57.023Z,english_365.wav,0,peel,2206,23,3,Japanese,m,1,0.1,-61.04014877,1.10456153
MAN,136,2,2024-06-19T03:16:57.023Z,english_365.wav,0,peel,2206,23,3,Japanese,m,2,0.2,12.43042802,1.31731937
MAN,136,2,2024-06-19T03:16:57.023Z,english_365.wav,0,peel,2206,23,3,Japanese,m,3,0.3,17.00746388,1.02387946
MAN,136,2,2024-06-19T03:16:57.023Z,english_365.wav,0,peel,2206,23,3,Japanese,m,4,0.32341667,-69.10644956,1.31633463
MAN,137,2,2024-06-19T03:16:57.023Z,english_586.wav,0,pill,259,23,3,Japanese,m,0,0.0,-62.23642036,1.06144709
MAN,137,2,2024-06-19T03:16:57.023Z,english_586.wav,0,pill,259,23,3,Japanese,m,1,0.1,79.13201234,0.54207142
MAN,137,2,2024-06-19T03:16:57.023Z,english_586.wav,0,pill,259,23,3,Japanese,m,2,0.2,-89.54923437,0.72134233
MAN,137,2,2024-06-19T03:16:57.023Z,english_586.wav,0,pill,259,23,3,Japanese,m,3,0.3,-19.27573078,0.33417878
MAN,137,2,2024-06-19T03:16:57.023Z,english_586.wav,0,pill,259,23,3,Japanese,m,4,0.32341667,-62.71214645,1.54129631
MAN,138,2,2024-06-19T03:16:57.023Z,english_261.wav,0,pill,248,23,3,Japanese,m,0,0.0,-19.34212076,1.20182597
MAN,138,2,2024-06-19T03:16:57.023Z,english_261.wav,0,pill,248,23,3,Japanese,m,1,0.1,-90.49371254,0.701642
MAN,138,2,2024-06-19T03:16:57.023Z,english_261.wav,0,pill,248,23,3,Japanese,m,2,0.2,-2.84874079,0.72931556
MAN,138,2,2024-06-19T03:16:57.023Z,english_261.wav,0,pill,248,23,3,Japanese,m,3,0.3,26.59732755,0.86687176
MAN,138,2,2024-06-19T03:16:57.023Z,english_261.wav,0,pill,248,23,3,Japanese,m,4,0.32341667,39.97770901,1.42617677
MAN,139,2,2024-06-19T03:16:57.023Z,english_56.wav,0,pill,433,23,3,Japanese,m,0,0.0,47.39262259,1.7837475
MAN,139,2,2024-06-19T03:16:57.023Z,english_56.wav,0,pill,433,23,3,Japanese,m,1,0.1,8.89686315,1.39740624
MAN,139,2,2024-06-19T03:16:57.023Z,english_56.wav,0,pill,433,23,3,Japanese,m,2,0.2,-49.65570225,0.11209095
MAN,139,2,2024-06-19T03:16:57.023Z,english_56.wav,0,pill,433,23,3,Japanese,m,3,0.3,44.77904805,1.4946119
MAN,139,2,2024-06-19T03:16:57.023Z,english_56.wav,0,pill,433,23,3,Japanese,m,4,0.32341667,-94.65832844,1.03498606
MAN,140,2,2024-06-19T03:16:57.023Z,english_345.wav,0,pill,213,23,3,Japanese,m,0,0.0,-46.00579497,1.58751342
MAN,140,2,2024-06-19T03:16:57.023Z,english_345.wav,0,pill,213,23,3,Japanese,m,1,0.1,-45.5805492,1.0202646
MAN,140,2,2024-06-19T03:16:57.023Z,english_345.wav,0,pill,213,23,3,Japanese,m,2,0.2,-14.04378539,0.61561299
MAN,140,2,2024-06-19T03:16:57.023Z,english_345.wav,0,pill,213,23,3,Japanese,m,3,0.3,63.72413351,1.21547564
MAN,140,2,2024-06-19T03:16:57.023Z,english_345.wav,0,pill,213,23,3,Japanese,m,4,0.32341667,18.03717792,1.47127253
MAN,141,2,2024-06-19T03:16:57.023Z,english_685.wav,0,peel,505,23,3,Japanese,m,0,0.0,91.61032892,0.4504418
MAN,141,2,2024-06-19T03:16:57.023Z,english_685.wav,0,peel,505,23,3,Japanese,m,1,0.1,39.6206555,1.04279806
MAN,141,2,2024-06-19T03:16:57.023Z,english_685.wav,0,peel,505,23,3,Japanese,m,2,0.2,-3.19880539,1.33634651
MAN,141,2,2024-06-19T03:16:57.023Z,english_685.wav,0,peel,505,23,3,Japanese,m,3,0.3,-72.84721689,1.25094987
MAN,141,2,2024-06-19T03:16:57.023Z,english_685.wav,0,peel,505,23,3,Japanese,m,4,0.32341667,98.11411302,0.37726169
MAN,142,2,2024-06-19T03:16:57.023Z,english_975.wav,0,pill,389,23,3,Japanese,m,0,0.0,30.76275893,1.75032315
MAN,142,2,2024-06-19T03:16:57.023Z,english_975.wav,0,pill,389,23,3,Japanese,m,1,0.1,-18.30184736,1.1766706
MAN,142,2,2024-06-19T03:16:57.023Z,english_975.wav,0,pill,389,23,3,Japanese,m,2,0.2,88.92209311,0.11148121
MAN,142,2,2024-06-19T03:16:57.023Z,english_975.wav,0,pill,389,23,3,Japanese,m,3,0.3,-15.78836893,1.00992181
MAN,142,2,2024-06-19T03:16:57.023Z,english_975.wav,0,pill,389,23,3,Japanese,m,4,0.32341667,81.69873146,1.08252971
MAN,143,2,2024-06-19T03:16:57.023Z,english_690.wav,0,pill,2782,23,3,Japanese,m,0,0.0,33.047654,0.0,1.58265684
MAN,143,2,2024-06-19T03:16:57.023Z,english_690.wav,0,pill,2782,23,3,Japanese,m,1,0.1,0.0212167444,0.1,0.6931717
MAN,143,2,2024-06-19T03:16:57.023Z,english_690.wav,0,pill,2782,23,3,Japanese,m,2,0.2,21.343237,0.2,1.47002515
MAN,143,2,2024-06-19T03:16:57.023Z,english_690.wav,0,pill,2782,23,3,Japanese,m,3,0.3,35.4710796,0.3,1.9856235
MAN,143,2,2024-06-19T03:16:57.023Z,english_690.wav,0,pill,2782,23,3,Japanese,m,4,0.323416667,79.4400816,0.32341667,1.00479917
MAN,144,2,2024-06-19T03:16:57.023Z,english_179.wav,0,pill,1652,23,3,Japanese,m,0,0.0,76.93131114,0.23318107
MAN,144,2,2024-06-19T03:16:57.023Z,english_179.wav,0,pill,1652,23,3,Japanese,m,1,0.1,5.5150778,0.47080089
MAN,144,2,2024-06-19T03:16:57.023Z,english_179.wav,0,pill,1652,23,3,Japanese,m,2,0.2,3.89208722,1.31062884
MAN,144,2,2024-06-19T03:16:57.023Z,english_179.wav,0,pill,1652,23,3,Japanese,m,3,0.3,-8.47825544,0.27743795
MAN,144,2,2024-06-19T03:16:57.023Z,english_179.wav,0,pill,1652,23,3,Japanese,m,4,0.32341667,50.73924617,0.83516241
MAN,145,2,2024-06-19T03:16:57.023Z,english_496.wav,0,peel,769,23,3,Japanese,m,0,0.0,-50.36729616,1.24588939
MAN,145,2,2024-06-19T03:16:57.023Z,english_496.wav,0,peel,769,23,3,Japanese,m,1,0.1,43.15166092,1.651593
MAN,145,2,2024-06-19T03:16:57.023Z,english_496.wav,0,peel,769,23,3,Japanese,m,2,0.2,-89.08132341,0.94120535
MAN,145,2,2024-06-19T03:16:57.023Z,english_496.wav,0,peel,769,23,3,Japanese,m,3,0.3,-31.93753525,0.55989053
MAN,145,2,2024-06-19T03:16:57.023Z,english_496.wav,0,peel,769,23,3,Japanese,m,4,0.32341667,-79.66514086,1.95233748
MAN,146,2,2024-06-19T03:16:57.023Z,english_27.wav,0,peel,257,23,3,Japanese,m,0,0.0,-6.18374659,1.89085405
MAN,146,2,2024-06-19T03:16:57.023Z,english_27.wav,0,peel,257,23,3,Japanese,m,1,0.1,32.21095844,0.80138328
MAN,146,2,2024-06-19T03:16:57.023Z,english_27.wav,0,peel,257,23,3,Japanese,m,2,0.2,21.02729748,1.01248602
MAN,146,2,2024-06-19T03:16:57.023Z,english_27.wav,0,peel,257,23,3,Japanese,m,3,0.3,4.79829383,1.67412938
MAN,146,2,2024-06-19T03:16:57.023Z,english_27.wav,0,peel,257,23,3,Japanese,m,4,0.32341667,-70.7577659,0.3387802
MAN,147,2,2024-06-19T03:16:57.023Z,english_311.wav,0,pill,353,23,3,Japanese,m,0,0.0,-35.59355899,0.16094856
MAN,147,2,2024-06-19T03:16:57.023Z,english_311.wav,0,pill,353,23,3,Japanese,m,1,0.1,-50.39310557,1.33895436
MAN,147,2,2024-06-19T03:16:57.023Z,english_311.wav,0,pill,353,23,3,Japanese,m,2,0.2,-53.37222601,0.01028283
MAN,147,2,2024-06-19T03:16:57.023Z,english_311.wav,0,pill,353,23,3,Japanese,m,3,0.3,72.25802658,0.48497386
MAN,147,2,2024-06-19T03:16:57.023Z,english_311.wav,0,pill,353,23,3,Japanese,m,4,0.32341667,48.72421008,0.48591183
MAN,148,2,2024-06-19T03:16:57.023Z,english_957.wav,0,pill,381,23,3,Japanese,m,0,0.0,-8.34255742,0.77577071
MAN,148,2,2024-06-19T03:16:57.023Z,english_957.wav,0,pill,381,23,3,Japanese,m,1,0.1,-36.8236739,1.35435363
MAN,148,2,2024-06-19T03:16:57.023Z,english_957.wav,0,pill,381,23,3,Japanese,m,2,0.2,6.68978896,0.94592229
MAN,148,2,2024-06-19T03:16:57.023Z,english_957.wav,0,pill,381,23,3,Japanese,m,3,0.3,-85.51463088,0.8988777
MAN,148,2,2024-06-19T03:16:57.023Z,english_957.wav,0,pill,381,23,3,Japanese,m,4,0.32341667,-16.82289389,0.34403417
MAN,149,2,2024-06-19T03:16:57.023Z,english_604.wav,0,pill,585,23,3,Japanese,m,0,0.0,11.37360706,1.9162078
MAN,149,2,2024-06-19T03:16:57.023Z,english_604.wav,0,pill,585,23,3,Japanese,m,1,0.1,-50.20832577,0.59247461
MAN,149,2,2024-06-19T03:16:57.023Z,english_604.wav,0,pill,585,23,3,Japanese,m,2,0.2,-34.39542541,1.79911242
MAN,149,2,2024-06-19T03:16:57.023Z,english_604.wav,0,pill,585,23,3,Japanese,m,3,0.3,-9.87560088,0.998763
MAN,149,2,2024-06-19T03:16:57.023Z,english_604.wav,0,pill,585,23,3,Japanese,m,4,0.32341667,34.71454295,0.76768671
MAN,150,3,2024-06-19T03:16:57.023Z,english_313.wav,0,peel,2781,23,3,Japanese,m,0,0.0,63.86599335,0.35841412
MAN,150,3,2024-06-19T03:16:57.023Z,english_313.wav,0,peel,2781,23,3,Japanese,m,1,0.1,-55.89800258,0.35021793
MAN,150,3,2024-06-19T03:16:57.023Z,english_313.wav,0,peel,2781,23,3,Japanese,m,2,0.2,90.86254046,1.77750413
MAN,150,3,2024-06-19T03:16:57.023Z,english_313.wav,0,peel,2781,23,3,Japanese,m,3,0.3,0.53087649,1.87396687
MAN,150,3,2024-06-19T03:16:57.023Z,english_313.wav,0,peel,2781,23,3,Japanese,m,4,0.32341667,-69.87913817,1.16176786
MAN,151,3,2024-06-19T03:16:57.023Z,english_491.wav,0,pill,678,23,3,Japanese,m,0,0.0,-58.06424917,1.23740358
MAN,151,3,2024-06-19T03:16:57.023Z,english_491.wav,0,pill,678,23,3,Japanese,m,1,0.1,-10.73132445,0.97891215
MAN,151,3,2024-06-19T03:16:57.023Z,english_491.wav,0,pill,678,23,3,Japanese,m,2,0.2,17.9230478,0.17588849
MAN,151,3,2024-06-19T03:16:57.023Z,english_491.wav,0,pill,678,23,3,Japanese,m,3,0.3,-41.27614743,0.52166982
MAN,151,3,2024-06-19T03:16:57.023Z,english_491.wav,0,pill,678,23,3,Japanese,m,4,0.32341667,-30.17832464,1.65640468
MAN,152,3,2024-06-19T03:16:57.023Z,english_336.wav,0,peel,834,23,3,Japanese,m,0,0.0,29.43389708,1.05594545
MAN,152,3,2024-06-19T03:16:57.023Z,english_336.wav,0,peel,834,23,3,Japanese,m,1,0.1,-98.82505887,1.57774783
MAN,152,3,2024-06-19T03:16:57.023Z,english_336.wav,0,peel,834,23,3,Japanese,m,2,0.2,33.95949266,1.35373128
MAN,152,3,2024-06-19T03:16:57.023Z,english_336.wav,0,peel,834,23,3,Japanese,m,3,0.3,-57.79711044,1.04960404
MAN,152,3,2024-06-19T03:16:57.023Z,english_336.wav,0,peel,834,23,3,Japanese,m,4,0.32341667,81.65015026,0.39151968
MAN,153,3,2024-06-19T03:16:57.023Z,english_667.wav,0,peel,533,23,3,Japanese,m,0,0.0,-36.96649028,1.3014101
MAN,153,3,2024-06-19T03:16:57.023Z,english_667.wav,0,peel,533,23,3,Japanese,m,1,0.1,9.08709827,0.05882523
MAN,153,3,2024-06-19T03:16:57.023Z,english_667.wav,0,peel,533,23,3,Japanese,m,2,0.2,85.36553945,1.428997
MAN,153,3,2024-06-19T03:16:57.023Z,english_667.wav,0,peel,533,23,3,Japanese,m,3,0.3,-41.19556041,1.2429303
MAN,153,3,2024-06-19T03:16:57.023Z,english_667.wav,0,peel,533,23,3,Japanese,m,4,0.32341667,-31.79783786,0.97363261
MAN,154,3,2024-06-19T03:16:57.023Z,english_794.wav,0,peel,605,23,3,Japanese,m,0,0.0,5.57967757,1.6157291
MAN,154,3,2024-06-19T03:16:57.023Z,english_794.wav,0,peel,605,23,3,Japanese,m,1,0.1,-3.8737546,0.80008436
MAN,154,3,2024-06-19T03:16:57.023Z,english_794.wav,0,peel,605,23,3,Japanese,m,2,0.2,-24.29943164,0.69881068
MAN,154,3,2024-06-19T03:16:57.023Z,english_794.wav,0,peel,605,23,3,Japanese,m,3,0.3,3.56417137,1.55658335
MAN,154,3,2024-06-19T03:16:57.023Z,english_794.wav,0,peel,605,23,3,Japanese,m,4,0.32341667,-13.30357118,1.787412
MAN,155,3,2024-06-19T03:16:57.023Z,english_333.wav,0,peel,287,23,3,Japanese,m,0,0.0,61.26933292,0.50090252
MAN,155,3,2024-06-19T03:16:57.023Z,english_333.wav,0,peel,287,23,3,Japanese,m,1,0.1,38.65533839,1.61630161
MAN,155,3,2024-06-19T03:16:57.023Z,english_333.wav,0,peel,287,23,3,Japanese,m,2,0.2,-27.91605269,1.73322278
MAN,155,3,2024-06-19T03:16:57.023Z,english_333.wav,0,peel,287,23,3,Japanese,m,3,0.3,36.00101096,0.67742762
MAN,155,3,2024-06-19T03:16:57.023Z,english_333.wav,0,peel,287,23,3,Japanese,m,4,0.32341667,-78.35943708,0.46993908
MAN,156,3,2024-06-19T03:16:57.023Z,english_151.wav,0,peel,276,23,3,Japanese,m,0,0.0,-8.78950662,1.36403682
MAN,156,3,2024-06-19T03:16:57.023Z,english_151.wav,0,peel,276,23,3,Japanese,m,1,0.1,-1.70650264,1.76375426
MAN,156,3,2024-06-19T03:16:57.023Z,english_151.wav,0,peel,276,23,3,Japanese,m,2,0.2,-17.50286784,1.43087438
MAN,156,3,2024-06-19T03:16:57.023Z,english_151.wav,0,peel,276,23,3,Japanese,m,3,0.3,88.78233286,1.18017331
MAN,156,3,2024-06-19T03:16:57.023Z,english_151.wav,0,peel,276,23,3,Japanese,m,4,0.32341667,55.08117545,1.30400061
MAN,157,3,2024-06-19T03:16:57.023Z,english_822.wav,0,peel,257,23,3,Japanese,m,0,0.0,22.19463519,1.34957498
MAN,157,3,2024-06-19T03:16:57.023Z,english_822.wav,0,peel,257,23,3,Japanese,m,1,0.1,46.02970585,1.18534363
MAN,157,3,2024-06-19T03:16:57.023Z,english_822.wav,0,peel,257,23,3,Japanese,m,2,0.2,44.31281831,0.88966115
MAN,157,3,2024-06-19T03:16:57.023Z,english_822.wav,0,peel,257,23,3,Japanese,m,3,0.3,27.24156044,1.22476657
MAN,157,3,2024-06-19T03:16:57.023Z,english_822.wav,0,peel,257,23,3,Japanese,m,4,0.32341667,41.58842879,0.51847317
MAN,158,3,2024-06-19T03:16:57.023Z,english_457.wav,0,pill,2399,23,3,Japanese,m,0,0.0,-73.30847947,0.35525387
MAN,158,3,2024-06-19T03:16:57.023Z,english_457.wav,0,pill,2399,23,3,Japanese,m,1,0.1,-25.74413936,0.90483023
MAN,158,3,2024-06-19T03:16:57.023Z,english_457.wav,0,pill,2399,23,3,Japanese,m,2,0.2,8.82772976,1.30004432
MAN,158,3,2024-06-19T03:16:57.023Z,english_457.wav,0,pill,2399,23,3,Japanese,m,3,0.3,-2.30416086,0.93422762
MAN,158,3,2024-06-19T03:16:57.023Z,english_457.wav,0,pill,2399,23,3,Japanese,m,4,0.32341667,-34.04493945,1.31504388
MAN,159,3,2024-06-19T03:16:57.023Z,english_607.wav,0,pill,1404,23,3,Japanese,m,0,0.0,46.6865757,1.30575186
MAN,159,3,2024-06-19T03:16:57.023Z,english_607.wav,0,pill,1404,23,3,Japanese,m,1,0.1,39.2269946,1.04660061
MAN,159,3,2024-06-19T03:16:57.023Z,english_607.wav,0,pill,1404,23,3,Japanese,m,2,0.2,9.54774619,0.88274406
MAN,159,3,2024-06-19T03:16:57.023Z,english_607.wav,0,pill,1404,23,3,Japanese,m,3,0.3,16.02187378,1.5824547
MAN,159,3,2024-06-19T03:16:57.023Z,english_607.wav,0,pill,1404,23,3,Japanese,m,4,0.32341667,75.62266759,0.67660632
MAN,160,3,2024-06-19T03:16:57.023Z,english_81.wav,0,pill,2206,23,3,Japanese,m,0,0.0,-8.99652005,1.6890162
MAN,160,3,2024-06-19T03:16:57.023Z,english_81.wav,0,pill,2206,23,3,Japanese,m,1,0.1,37.2959996,1.86826101
MAN,160,3,2024-06-19T03:16:57.023Z,english_81.wav,0,pill,2206,23,3,Japanese,m,2,0.2,56.49217416,0.68929954
MAN,160,3,2024-06-19T03:16:57.023Z,english_81.wav,0,pill,2206,23,3,Japanese,m,3,0.3,99.31521879,0.22383451
MAN,160,3,2024-06-19T03:16:57.023Z,english_81.wav,0,pill,2206,23,3,Japanese,m,4,0.32341667,-25.36881215,0.930773
MAN,161,3,2024-06-19T03:16:57.023Z,english_391.wav,0,pill,283,23,3,Japanese,m,0,0.0,67.64906061,0.41951577
MAN,161,3,2024-06-19T03:16:57.023Z,english_391.wav,0,pill,283,23,3,Japanese,m,1,0.1,79.28195584,0.03526883
MAN,161,3,2024-06-19T03:16:57.023Z,english_391.wav,0,pill,283,23,3,Japanese,m,2,0.2,62.27299227,0.81828659
MAN,161,3,2024-06-19T03:16:57.023Z,english_391.wav,0,pill,283,23,3,Japanese,m,3,0.3,-11.10764883,1.2900604
MAN,161,3,2024-06-19T03:16:57.023Z,english_391.wav,0,pill,283,23,3,Japanese,m,4,0.32341667,57.41338752,1.95373865
MAN,162,3,2024-06-19T03:16:57.023Z,english_739.wav,0,pill,470,23,3,Japanese,m,0,0.0,-30.44662447,1.4086692
MAN,162,3,2024-06-19T03:16:57.023Z,english_739.wav,0,pill,470,23,3,Japanese,m,1,0.1,-27.69908881,0.95518545
MAN,162,3,2024-06-19T03:16:57.023Z,english_739.wav,0,pill,470,23,3,Japanese,m,2,0.2,25.08576745,1.0815723
MAN,162,3,2024-06-19T03:16:57.023Z,english_739.wav,0,pill,470,23,3,Japanese,m,3,0.3,-20.92476775,0.08724184
MAN,162,3,2024-06-19T03:16:57.023Z,english_739.wav,0,pill,470,23,3,Japanese,m,4,0.32341667,-46.92266257,1.12979104
MAN,163,3,2024-06-19T03:16:57.023Z,english_566.wav,0,pill,3101,23,3,Japanese,m,0,0.0,70.56000247,1.04698608
MAN,163,3,2024-06-19T03:16:57.023Z,english_566.wav,0,pill,3101,23,3,Japanese,m,1,0.1,-0.18246418,1.13826263
MAN,163,3,2024-06-19T03:16:57.023Z,english_566.wav,0,pill,3101,23,3,Japanese,m,2,0.2,-23.7188651,1.91259561
MAN,163,3,2024-06-19T03:16:57.023Z,english_566.wav,0,pill,3101,23,3,Japanese,m,3,0.3,12.5469797,1.08561121
MAN,163,3,2024-06-19T03:16:57.023Z,english_566.wav,0,pill,3101,23,3,Japanese,m,4,0.32341667,-84.37997634,1.98926692
MAN,164,3,2024-06-19T03:16:57.023Z,english_117.wav,0,peel,171,23,3,Japanese,m,0,0.0,-98.72491255,1.42659946
MAN,164,3,2024-06-19T03:16:57.023Z,english_117.wav,0,peel,171,23,3,Japanese,m,1,0.1,-15.15642563,1.64599539
MAN,164,3,2024-06-19T03:16:57.023Z,english_117.wav,0,peel,171,23,3,Japanese,m,2,0.2,24.45806353,0.97767705
MAN,164,3,2024-06-19T03:16:57.023Z,english_117.wav,0,peel,171,23,3,Japanese,m,3,0.3,-80.67224668,0.37962884
MAN,164,3,2024-06-19T03:16:57.023Z,english_117.wav,0,peel,171,23,3,Japanese,m,4,0.32341667,-97.50349755,0.74274723
MAN,165,3,2024-06-19T03:16:57.023Z,english_163.wav,0,peel,148,23,3,Japanese,m,0,0.0,-28.85321754,1.43434597
MAN,165,3,2024-06-19T03:16:57.023Z,english_163.wav,0,peel,148,23,3,Japanese,m,1,0.1,9.37410395,1.75766865
MAN,165,3,2024-06-19T03:16:57.023Z,english_163.wav,0,peel,148,23,3,Japanese,m,2,0.2,-43.22266742,0.90391943
MAN,165,3,2024-06-19T03:16:57.023Z,english_163.wav,0,peel,148,23,3,Japanese,m,3,0.3,48.63715122,1.21743426
MAN,165,3,2024-06-19T03:16:57.023Z,english_163.wav,0,peel,148,23,3,Japanese,m,4,0.32341667,-94.22333204,1.8516503
MAN,166,3,2024-06-19T03:16:57.023Z,english_695.wav,0,pill,336,23,3,Japanese,m,0,0.0,-74.02191529,1.19534619
MAN,166,3,2024-06-19T03:16:57.023Z,english_695.wav,0,pill,336,23,3,Japanese,m,1,0.1,54.28596986,0.93917139
MAN,166,3,2024-06-19T03:16:57.023Z,english_695.wav,0,pill,336,23,3,Japanese,m,2,0.2,-13.22196683,0.1241488
MAN,166,3,2024-06-19T03:16:57.023Z,english_695.wav,0,pill,336,23,3,Japanese,m,3,0.3,1.82272444,1.20091234
MAN,166,3,2024-06-19T03:16:57.023Z,english_695.wav,0,pill,336,23,3,Japanese,m,4,0.32341667,-11.74905262,0.46222147
MAN,167,3,2024-06-19T03:16:57.023Z,english_292.wav,0,pill,265,23,3,Japanese,m,0,0.0,-39.45275529,0.85174507
MAN,167,3,2024-06-19T03:16:57.023Z,english_292.wav,0,pill,265,23,3,Japanese,m,1,0.1,-35.03464337,0.73996191
MAN,167,3,2024-06-19T03:16:57.023Z,english_292.wav,0,pill,265,23,3,Japanese,m,2,0.2,31.68370279,1.42892595
MAN,167,3,2024-06-19T03:16:57.023Z,english_292.wav,0,pill,265,23,3,Japanese,m,3,0.3,-53.75991965,0.04968332
MAN,167,3,2024-06-19T03:16:57.023Z,english_292.wav,0,pill,265,23,3,Japanese,m,4,0.32341667,12.49992629,0.58931553
MAN,168,3,2024-06-19T03:16:57.023Z,english_889.wav,0,pill,2059,23,3,Japanese,m,0,0.0,-92.0683747,0.69619005
MAN,168,3,2024-06-19T03:16:57.023Z,english_889.wav,0,pill,2059,23,3,Japanese,m,1,0.1,92.92883541,1.46059979
MAN,168,3,2024-06-19T03:16:57.023Z,english_889.wav,0,pill,2059,23,3,Japanese,m,2,0.2,-38.78028918,1.13034103
MAN,168,3,2024-06-19T03:16:57.023Z,english_889.wav,0,pill,2059,23,3,Japanese,m,3,0.3,33.48812202,1.0639125
MAN,168,3,2024-06-19T03:16:57.023Z,english_889.wav,0,pill,2059,23,3,Japanese,m,4,0.32341667,68.79643169,0.42066581
MAN,169,3,2024-06-19T03:16:57.023Z,english_812.wav,0,pill,491,23,3,Japanese,m,0,0.0,70.24469457,0.85599223
MAN,169,3,2024-06-19T03:16:57.023Z,english_812.wav,0,pill,491,23,3,Japanese,m,1,0.1,-27.51466786,0.39005905
MAN,169,3,2024-06-19T03:16:57.023Z,english_812.wav,0,pill,491,23,3,Japanese,m,2,0.2,60.55844263,1.43275618
MAN,169,3,2024-06-19T03:16:57.023Z,english_812.wav,0,pill,491,23,3,Japanese,m,3,0.3,52.93607499,1.34329238
MAN,169,3,2024-06-19T03:16:57.023Z,english_812.wav,0,pill,491,23,3,Japanese,m,4,0.32341667,74.74872052,0.96810209
MAN,170,3,2024-06-19T03:16:57.023Z,english_226.wav,0,pill,417,23,3,Japanese,m,0,0.0,-56.53605181,0.51185795
MAN,170,3,2024-06-19T03:16:57.023Z,english_226.wav,0,pill,417,23,3,Japanese,m,1,0.1,-5.93547338,0.73377568
MAN,170,3,2024-06-19T03:16:57.023Z,english_226.wav,0,pill,417,23,3,Japanese,m,2,0.2,-81.0596442,1.62034912
MAN,170,3,2024-06-19T03:16:57.023Z,english_226.wav,0,pill,417,23,3,Japanese,m,3,0.3,-12.14261426,0.19474782
MAN,170,3,2024-06-19T03:16:57.023Z,english_226.wav,0,pill,417,23,3,Japanese,m,4,0.32341667,40.67667876,0.1395898
MAN,171,3,2024-06-19T03:16:57.023Z,english_964.wav,0,pill,206,23,3,Japanese,m,0,0.0,11.04708611,0.74384055
MAN,171,3,2024-06-19T03:16:57.023Z,english_964.wav,0,pill,206,23,3,Japanese,m,1,0.1,-10.67848967,0.46038505
MAN,171,3,2024-06-19T03:16:57.023Z,english_964.wav,0,pill,206,23,3,Japanese,m,2,0.2,64.95328634,0.80934661
MAN,171,3,2024-06-19T03:16:57.023Z,english_964.wav,0,pill,206,23,3,Japanese,m,3,0.3,-78.10341524,1.94282647
MAN,171,3,2024-06-19T03:16:57.023Z,english_964.wav,0,pill,206,23,3,Japanese,m,4,0.32341667,-48.61651995,1.99482071
MAN,172,3,2024-06-19T03:16:57.023Z,english_156.wav,0,pill,274,23,3,Japanese,m,0,0.0,93.86570948,0.27803573
MAN,172,3,2024-06-19T03:16:57.023Z,english_156.wav,0,pill,274,23,3,Japanese,m,1,0.1,63.74639013,0.76121308
MAN,172,3,2024-06-19T03:16:57.023Z,english_156.wav,0,pill,274,23,3,Japanese,m,2,0.2,-97.10775444,0.98438609
MAN,172,3,2024-06-19T03:16:57.023Z,english_156.wav,0,pill,274,23,3,Japanese,m,3,0.3,99.76737427,0.34877861
MAN,172,3,2024-06-19T03:16:57.023Z,english_156.wav,0,pill,274,23,3,Japanese,m,4,0.32341667,11.29868277,0.58154428
MAN,173,3,2024-06-19T03:16:57.023Z,english_507.wav,0,peel,295,23,3,Japanese,m,0,0.0,-61.1842488,1.97653192
MAN,173,3,2024-06-19T03:16:57.023Z,english_507.wav,0,peel,295,23,3,Japanese,m,1,0.1,-67.40048172,1.52355847
MAN,173,3,2024-06-19T03:16:57.023Z,english_507.wav,0,peel,295,23,3,Japanese,m,2,0.2,12.41471853,0.98006415
MAN,173,3,2024-06-19T03:16:57.023Z,english_507.wav,0,peel,295,23,3,Japanese,m,3,0.3,-23.82579329,0.44372312
MAN,173,3,2024-06-19T03:16:57.023Z,english_507.wav,0,peel,295,23,3,Japanese,m,4,0.32341667,9.53005369,0.65281453
MAN,174,3,2024-06-19T03:16:57.023Z,english_214.wav,0,peel,210,23,3,Japanese,m,0,0.0,58.82847816,1.81864401
MAN,174,3,2024-06-19T03:16:57.023Z,english_214.wav,0,peel,210,23,3,Japanese,m,1,0.1,87.26801489,0.97241975
MAN,174,3,2024-06-19T03:16:57.023Z,english_214.wav,0,peel,210,23,3,Japanese,m,2,0.2,-28.10234025,1.91423566
MAN,174,3,2024-06-19T03:16:57.023Z,english_214.wav,0,peel,210,23,3,Japanese,m,3,0.3,-36.12188516,1.71940232
MAN,174,3,2024-06-19T03:16:57.023Z,english_214.wav,0,peel,210,23,3,Japanese,m,4,0.32341667,-45.93983978,0.68694042
MAN,175,3,2024-06-19T03:16:57.023Z,english_872.wav,0,pill,494,23,3,Japanese,m,0,0.0,0.56374655,0.10935802
MAN,175,3,2024-06-19T03:16:57.023Z,english_872.wav,0,pill,494,23,3,Japanese,m,1,0.1,-70.88107799,0.91778609
MAN,175,3,2024-06-19T03:16:57.023Z,english_872.wav,0,pill,494,23,3,Japanese,m,2,0.2,6.46677515,1.38740199
MAN,175,3,2024-06-19T03:16:57.023Z,english_872.wav,0,pill,494,23,3,Japanese,m,3,0.3,-23.51354109,0.12682507
MAN,175,3,2024-06-19T03:16:57.023Z,english_872.wav,0,pill,494,23,3,Japanese,m,4,0.32341667,81.64578493,0.71067476
MAN,176,3,2024-06-19T03:16:57.023Z,english_603.wav,0,pill,292,23,3,Japanese,m,0,0.0,-14.17444723,1.28295305
MAN,176,3,2024-06-19T03:16:57.023Z,english_603.wav,0,pill,292,23,3,Japanese,m,1,0.1,-4.64921339,0.35920956
MAN,176,3,2024-06-19T03:16:57.023Z,english_603.wav,0,pill,292,23,3,Japanese,m,2,0.2,-23.32469505,0.60281559
MAN,176,3,2024-06-19T03:16:57.023Z,english_603.wav,0,pill,292,23,3,Japanese,m,3,0.3,-59.01260874,0.58107079
MAN,176,3,2024-06-19T03:16:57.023Z,english_603.wav,0,pill,292,23,3,Japanese,m,4,0.32341667,88.53711532,1.19087365
MAN,177,3,2024-06-19T03:16:57.023Z,english_257.wav,0,pill,412,23,3,Japanese,m,0,0.0,-68.31428674,1.40239735
MAN,177,3,2024-06-19T03:16:57.023Z,english_257.wav,0,pill,412,23,3,Japanese,m,1,0.1,-13.90908686,1.49673114
MAN,177,3,2024-06-19T03:16:57.023Z,english_257.wav,0,pill,412,23,3,Japanese,m,2,0.2,54.08743226,1.07658057
MAN,177,3,2024-06-19T03:16:57.023Z,english_257.wav,0,pill,412,23,3,Japanese,m,3,0.3,-42.73693867,0.27427112
MAN,177,3,2024-06-19T03:16:57.023Z,english_257.wav,0,pill,412,23,3,Japanese,m,4,0.32341667,-1.03846516,1.90516482
MAN,178,3,2024-06-19T03:16:57.023Z,english_647.wav,0,pill,289,23,3,Japanese,m,0,0.0,-8.76796469,1.6238225
MAN,178,3,2024-06-19T03:16:57.023Z,english_647.wav,0,pill,289,23,3,Japanese,m,1,0.1,-49.13996982,1.56934089
MAN,178,3,2024-06-19T03:16:57.023Z,english_647.wav,0,pill,289,23,3,Japanese,m,2,0.2,43.79634461,0.78560304
MAN,178,3,2024-06-19T03:16:57.023Z,english_647.wav,0,pill,289,23,3,Japanese,m,3,0.3,5.5781311,0.61771672
MAN,178,3,2024-06-19T03:16:57.023Z,english_647.wav,0,pill,289,23,3,Japanese,m,4,0.32341667,17.41251701,1.2404866
MAN,179,3,2024-06-19T03:16:57.023Z,english_480.wav,0,pill,278,23,3,Japanese,m,0,0.0,-9.10453384,0.61491247
MAN,179,3,2024-06-19T03:16:57.023Z,english_480.wav,0,pill,278,23,3,Japanese,m,1,0.1,72.09708103,1.35502449
MAN,179,3,2024-06-19T03:16:57.023Z,english_480.wav,0,pill,278,23,3,Japanese,m,2,0.2,-73.7181862,0.28674933
MAN,179,3,2024-06-19T03:16:57.023Z,english_480.wav,0,pill,278,23,3,Japanese,m,3,0.3,18.73451671,0.14653082
MAN,179,3,2024-06-19T03:16:57.023Z,english_480.wav,0,pill,278,23,3,Japanese,m,4,0.32341667,83.35837597,1.34653786
MAN,180,3,2024-06-19T03:16:57.023Z,english_932.wav,0,pill,364,23,3,Japanese,m,0,0.0,-3.8848098,1.00949787
MAN,180,3,2024-06-19T03:16:57.023Z,english_932.wav,0,pill,364,23,3,Japanese,m,1,0.1,-32.48916274,1.44703087
MAN,180,3,2024-06-19T03:16:57.023Z,english_932.wav,0,pill,364,23,3,Japanese,m,2,0.2,81.26251807,0.10808594
MAN,180,3,2024-06-19T03:16:57.023Z,english_932.wav,0,pill,364,23,3,Japanese,m,3,0.3,-18.23478105,0.03465182
MAN,180,3,2024-06-19T03:16:57.023Z,english_932.wav,0,pill,364,23,3,Japanese,m,4,0.32341667,7.90132089,0.79845554
MAN,181,3,2024-06-19T03:16:57.023Z,english_138.wav,0,pill,311,23,3,Japanese,m,0,0.0,-79.80620147,0.37063564
MAN,181,3,2024-06-19T03:16:57.023Z,english_138.wav,0,pill,311,23,3,Japanese,m,1,0.1,-15.42889109,0.81801141
MAN,181,3,2024-06-19T03:16:57.023Z,english_138.wav,0,pill,311,23,3,Japanese,m,2,0.2,-88.31677226,0.0634538
MAN,181,3,2024-06-19T03:16:57.023Z,english_138.wav,0,pill,311,23,3,Japanese,m,3,0.3,26.6486106,1.85131452
MAN,181,3,2024-06-19T03:16:57.023Z,english_138.wav,0,pill,311,23,3,Japanese,m,4,0.32341667,-42.18894711,1.66059024
MAN,182,3,2024-06-19T03:16:57.023Z,english_810.wav,0,pill,274,23,3,Japanese,m,0,0.0,44.6757801,0.0,0.77700382
MAN,182,3,2024-06-19T03:16:57.023Z,english_810.wav,0,pill,274,23,3,Japanese,m,1,0.1,-98.4252216,0.1,1.25917073
MAN,182,3,2024-06-19T03:16:57.023Z,english_810.wav,0,pill,274,23,3,Japanese,m,2,0.2,55.4106213,0.2,0.78203472
MAN,182,3,2024-06-19T03:16:57.023Z,english_810.wav,0,pill,274,23,3,Japanese,m,3,0.3,-18.4676839,0.3,1.13021068
MAN,182,3,2024-06-19T03:16:57.023Z,english_810.wav,0,pill,274,23,3,Japanese,m,4,0.323416667,0.0259169543,0.32341667,0.14578676
MAN,183,3,2024-06-19T03:16:57.023Z,english_985.wav,0,pill,450,23,3,Japanese,m,0,0.0,31.76144354,0.46805505
MAN,183,3,2024-06-19T03:16:57.023Z,english_985.wav,0,pill,450,23,3,Japanese,m,1,0.1,49.0534069,1.72857245
MAN,183,3,2024-06-19T03:16:57.023Z,english_985.wav,0,pill,450,23,3,Japanese,m,2,0.2,-59.14058353,0.05336254
MAN,183,3,2024-06-19T03:16:57.023Z,english_985.wav,0,pill,450,23,3,Japanese,m,3,0.3,-36.25561351,0.45417652
MAN,183,3,2024-06-19T03:16:57.023Z,english_985.wav,0,pill,450,23,3,Japanese,m,4,0.32341667,-53.50268286,1.33850641
MAN,184,3,2024-06-19T03:16:57.023Z,english_126.wav,0,peel,471,23,3,Japanese,m,0,0.0,-71.89060105,0.84485729
MAN,184,3,2024-06-19T03:16:57.023Z,english_126.wav,0,peel,471,23,3,Japanese,m,1,0.1,-54.28004149,1.61340521
