subj,trial,block,date,stim,stim_order,response,rt,param_index,segment,pitch,stretch
MIK07221023,0,0,2024-07-22T01:23:22.931Z,english_349.wav,0,pill,10272,0,0.0,-10.00495534,0.36915768
MIK07221023,0,0,2024-07-22T01:23:22.931Z,english_349.wav,0,pill,10272,1,0.1,54.31199814,0.83111041
MIK07221023,0,0,2024-07-22T01:23:22.931Z,english_349.wav,0,pill,10272,2,0.2,48.17968705,1.70147194
MIK07221023,0,0,2024-07-22T01:23:22.931Z,english_349.wav,0,pill,10272,3,0.3,8.48926652,1.08588898
MIK07221023,0,0,2024-07-22T01:23:22.931Z,english_349.wav,0,pill,10272,4,0.32341667,42.05620052,0.02584958
MIK07221023,1,0,2024-07-22T01:23:22.931Z,english_295.wav,0,pill,4402,0,0.0,-76.51454746,1.12273409
MIK07221023,1,0,2024-07-22T01:23:22.931Z,english_295.wav,0,pill,4402,1,0.1,-96.9380047,0.2018376
MIK07221023,1,0,2024-07-22T01:23:22.931Z,english_295.wav,0,pill,4402,2,0.2,-72.79782389,1.81703153
MIK07221023,1,0,2024-07-22T01:23:22.931Z,english_295.wav,0,pill,4402,3,0.3,-31.86888898,0.31799467
MIK07221023,1,0,2024-07-22T01:23:22.931Z,english_295.wav,0,pill,4402,4,0.32341667,-51.47839766,0.71777059
MIK07221023,2,0,2024-07-22T01:23:22.931Z,english_14.wav,0,pill,2204,0,0.0,98.00979643,0.92494293
MIK07221023,2,0,2024-07-22T01:23:22.931Z,english_14.wav,0,pill,2204,1,0.1,-39.90204919,0.80403915
MIK07221023,2,0,2024-07-22T01:23:22.931Z,english_14.wav,0,pill,2204,2,0.2,51.0517473,0.29426005
MIK07221023,2,0,2024-07-22T01:23:22.931Z,english_14.wav,0,pill,2204,3,0.3,-8.39716694,0.14957292
MIK07221023,2,0,2024-07-22T01:23:22.931Z,english_14.wav,0,pill,2204,4,0.32341667,82.54419716,0.1717279
MIK07221023,3,0,2024-07-22T01:23:22.931Z,english_943.wav,0,pill,2488,0,0.0,-88.39234314,0.07745413
MIK07221023,3,0,2024-07-22T01:23:22.931Z,english_943.wav,0,pill,2488,1,0.1,65.27529367,1.64078214
MIK07221023,3,0,2024-07-22T01:23:22.931Z,english_943.wav,0,pill,2488,2,0.2,-24.85222093,0.23468741
MIK07221023,3,0,2024-07-22T01:23:22.931Z,english_943.wav,0,pill,2488,3,0.3,20.61002448,1.49561498
MIK07221023,3,0,2024-07-22T01:23:22.931Z,english_943.wav,0,pill,2488,4,0.32341667,-74.64601709,1.25217021
MIK07221023,4,0,2024-07-22T01:23:22.931Z,english_697.wav,0,pill,1333,0,0.0,34.8877197,0.0,0.10761674
MIK07221023,4,0,2024-07-22T01:23:22.931Z,english_697.wav,0,pill,1333,1,0.1,-0.0129750448,0.1,0.88035305
MIK07221023,4,0,2024-07-22T01:23:22.931Z,english_697.wav,0,pill,1333,2,0.2,48.8877829,0.2,0.12183403
MIK07221023,4,0,2024-07-22T01:23:22.931Z,english_697.wav,0,pill,1333,3,0.3,68.5745634,0.3,0.55306263
MIK07221023,4,0,2024-07-22T01:23:22.931Z,english_697.wav,0,pill,1333,4,0.323416667,18.9536775,0.32341667,1.83833688
MIK07221023,5,0,2024-07-22T01:23:22.931Z,english_185.wav,0,pill,2138,0,0.0,-67.20213277,0.62417316
MIK07221023,5,0,2024-07-22T01:23:22.931Z,english_185.wav,0,pill,2138,1,0.1,-70.91279736,1.12829576
MIK07221023,5,0,2024-07-22T01:23:22.931Z,english_185.wav,0,pill,2138,2,0.2,11.55913655,0.70978518
MIK07221023,5,0,2024-07-22T01:23:22.931Z,english_185.wav,0,pill,2138,3,0.3,-88.76292025,0.02882377
MIK07221023,5,0,2024-07-22T01:23:22.931Z,english_185.wav,0,pill,2138,4,0.32341667,-25.67800099,0.52970381
MIK07221023,6,0,2024-07-22T01:23:22.931Z,english_171.wav,0,peel,1566,0,0.0,13.65984607,0.71637608
MIK07221023,6,0,2024-07-22T01:23:22.931Z,english_171.wav,0,peel,1566,1,0.1,70.55092655,1.80826384
MIK07221023,6,0,2024-07-22T01:23:22.931Z,english_171.wav,0,peel,1566,2,0.2,57.57935127,0.47277884
MIK07221023,6,0,2024-07-22T01:23:22.931Z,english_171.wav,0,peel,1566,3,0.3,-55.35579571,1.22036711
MIK07221023,6,0,2024-07-22T01:23:22.931Z,english_171.wav,0,peel,1566,4,0.32341667,13.04572565,0.00907712
MIK07221023,7,0,2024-07-22T01:23:22.931Z,english_548.wav,0,pill,3609,0,0.0,19.39315344,0.41811488
MIK07221023,7,0,2024-07-22T01:23:22.931Z,english_548.wav,0,pill,3609,1,0.1,82.09582914,1.70384437
MIK07221023,7,0,2024-07-22T01:23:22.931Z,english_548.wav,0,pill,3609,2,0.2,-65.55781301,1.82142436
MIK07221023,7,0,2024-07-22T01:23:22.931Z,english_548.wav,0,pill,3609,3,0.3,-5.02691035,1.13784798
MIK07221023,7,0,2024-07-22T01:23:22.931Z,english_548.wav,0,pill,3609,4,0.32341667,62.63141303,1.73168063
MIK07221023,8,0,2024-07-22T01:23:22.931Z,english_805.wav,0,pill,3355,0,0.0,-11.97504695,0.06029378
MIK07221023,8,0,2024-07-22T01:23:22.931Z,english_805.wav,0,pill,3355,1,0.1,96.82911573,0.81391401
MIK07221023,8,0,2024-07-22T01:23:22.931Z,english_805.wav,0,pill,3355,2,0.2,7.51835152,1.33531055
MIK07221023,8,0,2024-07-22T01:23:22.931Z,english_805.wav,0,pill,3355,3,0.3,2.47378187,1.7608484
MIK07221023,8,0,2024-07-22T01:23:22.931Z,english_805.wav,0,pill,3355,4,0.32341667,-43.26336213,1.4289718
MIK07221023,9,0,2024-07-22T01:23:22.931Z,english_221.wav,0,pill,876,0,0.0,85.84184869,1.38100565
MIK07221023,9,0,2024-07-22T01:23:22.931Z,english_221.wav,0,pill,876,1,0.1,-20.37513589,0.79531516
MIK07221023,9,0,2024-07-22T01:23:22.931Z,english_221.wav,0,pill,876,2,0.2,-89.75984637,0.9538446
MIK07221023,9,0,2024-07-22T01:23:22.931Z,english_221.wav,0,pill,876,3,0.3,50.66879934,1.56492426
MIK07221023,9,0,2024-07-22T01:23:22.931Z,english_221.wav,0,pill,876,4,0.32341667,20.92538743,1.60855456
MIK07221023,10,0,2024-07-22T01:23:22.931Z,english_501.wav,0,pill,9943,0,0.0,-7.07122187,1.4737248
MIK07221023,10,0,2024-07-22T01:23:22.931Z,english_501.wav,0,pill,9943,1,0.1,10.00250781,1.10212017
MIK07221023,10,0,2024-07-22T01:23:22.931Z,english_501.wav,0,pill,9943,2,0.2,-21.98285256,1.65595948
MIK07221023,10,0,2024-07-22T01:23:22.931Z,english_501.wav,0,pill,9943,3,0.3,46.16062549,0.64757112
MIK07221023,10,0,2024-07-22T01:23:22.931Z,english_501.wav,0,pill,9943,4,0.32341667,41.01655214,0.36171009
MIK07221023,11,0,2024-07-22T01:23:22.931Z,english_242.wav,0,pill,1403,0,0.0,26.44185099,0.44763058
MIK07221023,11,0,2024-07-22T01:23:22.931Z,english_242.wav,0,pill,1403,1,0.1,44.29547205,1.06541359
MIK07221023,11,0,2024-07-22T01:23:22.931Z,english_242.wav,0,pill,1403,2,0.2,-3.86423299,0.64111919
MIK07221023,11,0,2024-07-22T01:23:22.931Z,english_242.wav,0,pill,1403,3,0.3,60.29108386,0.35225786
MIK07221023,11,0,2024-07-22T01:23:22.931Z,english_242.wav,0,pill,1403,4,0.32341667,18.66576556,1.0072971
MIK07221023,12,0,2024-07-22T01:23:22.931Z,english_762.wav,0,peel,2068,0,0.0,-56.40971946,1.43822993
MIK07221023,12,0,2024-07-22T01:23:22.931Z,english_762.wav,0,peel,2068,1,0.1,-9.09046034,1.11776807
MIK07221023,12,0,2024-07-22T01:23:22.931Z,english_762.wav,0,peel,2068,2,0.2,20.98892014,0.71531135
MIK07221023,12,0,2024-07-22T01:23:22.931Z,english_762.wav,0,peel,2068,3,0.3,-66.43296232,0.54997993
MIK07221023,12,0,2024-07-22T01:23:22.931Z,english_762.wav,0,peel,2068,4,0.32341667,-91.78640069,0.26897274
MIK07221023,13,0,2024-07-22T01:23:22.931Z,english_51.wav,0,pill,1413,0,0.0,88.48054236,0.21487201
MIK07221023,13,0,2024-07-22T01:23:22.931Z,english_51.wav,0,pill,1413,1,0.1,-53.5534646,0.90061677
MIK07221023,13,0,2024-07-22T01:23:22.931Z,english_51.wav,0,pill,1413,2,0.2,-33.31344908,0.24834744
MIK07221023,13,0,2024-07-22T01:23:22.931Z,english_51.wav,0,pill,1413,3,0.3,87.0533187,1.31052611
MIK07221023,13,0,2024-07-22T01:23:22.931Z,english_51.wav,0,pill,1413,4,0.32341667,-16.55219825,0.58644625
MIK07221023,14,0,2024-07-22T01:23:22.931Z,english_337.wav,0,pill,29947,0,0.0,17.21863108,0.02346696
MIK07221023,14,0,2024-07-22T01:23:22.931Z,english_337.wav,0,pill,29947,1,0.1,-16.30098312,1.2349353
MIK07221023,14,0,2024-07-22T01:23:22.931Z,english_337.wav,0,pill,29947,2,0.2,70.17733319,1.07823504
MIK07221023,14,0,2024-07-22T01:23:22.931Z,english_337.wav,0,pill,29947,3,0.3,-7.16478631,1.83339424
MIK07221023,14,0,2024-07-22T01:23:22.931Z,english_337.wav,0,pill,29947,4,0.32341667,-84.96176299,1.87583376
MIK07221023,15,0,2024-07-22T01:23:22.931Z,english_802.wav,0,peel,6679,0,0.0,44.11448731,1.89082481
MIK07221023,15,0,2024-07-22T01:23:22.931Z,english_802.wav,0,peel,6679,1,0.1,27.89646601,1.73386287
MIK07221023,15,0,2024-07-22T01:23:22.931Z,english_802.wav,0,peel,6679,2,0.2,-19.36127415,0.34468699
MIK07221023,15,0,2024-07-22T01:23:22.931Z,english_802.wav,0,peel,6679,3,0.3,15.17899174,0.39328876
MIK07221023,15,0,2024-07-22T01:23:22.931Z,english_802.wav,0,peel,6679,4,0.32341667,-18.70870555,1.25778986
MIK07221023,16,0,2024-07-22T01:23:22.931Z,english_471.wav,0,pill,3178,0,0.0,47.42131089,0.58869392
MIK07221023,16,0,2024-07-22T01:23:22.931Z,english_471.wav,0,pill,3178,1,0.1,-63.95282256,1.74739294
MIK07221023,16,0,2024-07-22T01:23:22.931Z,english_471.wav,0,pill,3178,2,0.2,31.67244378,1.10105994
MIK07221023,16,0,2024-07-22T01:23:22.931Z,english_471.wav,0,pill,3178,3,0.3,40.6572625,0.54790015
MIK07221023,16,0,2024-07-22T01:23:22.931Z,english_471.wav,0,pill,3178,4,0.32341667,-18.6332399,1.33029013
MIK07221023,17,0,2024-07-22T01:23:22.931Z,english_593.wav,0,peel,943,0,0.0,0.23295982,1.83954553
MIK07221023,17,0,2024-07-22T01:23:22.931Z,english_593.wav,0,peel,943,1,0.1,-0.52832444,1.77820403
MIK07221023,17,0,2024-07-22T01:23:22.931Z,english_593.wav,0,peel,943,2,0.2,18.28609946,0.36770598
MIK07221023,17,0,2024-07-22T01:23:22.931Z,english_593.wav,0,peel,943,3,0.3,21.25816485,0.42189114
MIK07221023,17,0,2024-07-22T01:23:22.931Z,english_593.wav,0,peel,943,4,0.32341667,60.44039038,0.07588974
MIK07221023,18,0,2024-07-22T01:23:22.931Z,english_478.wav,0,peel,2273,0,0.0,-70.9954821,0.91489342
MIK07221023,18,0,2024-07-22T01:23:22.931Z,english_478.wav,0,peel,2273,1,0.1,18.763036,1.0325944
MIK07221023,18,0,2024-07-22T01:23:22.931Z,english_478.wav,0,peel,2273,2,0.2,84.30682023,1.47139294
MIK07221023,18,0,2024-07-22T01:23:22.931Z,english_478.wav,0,peel,2273,3,0.3,96.70790152,0.31719256
MIK07221023,18,0,2024-07-22T01:23:22.931Z,english_478.wav,0,peel,2273,4,0.32341667,-65.75430749,1.1469235
MIK07221023,19,0,2024-07-22T01:23:22.931Z,english_981.wav,0,peel,14347,0,0.0,-19.49446297,1.96452006
MIK07221023,19,0,2024-07-22T01:23:22.931Z,english_981.wav,0,peel,14347,1,0.1,-69.0386812,1.2006287
MIK07221023,19,0,2024-07-22T01:23:22.931Z,english_981.wav,0,peel,14347,2,0.2,-25.77088537,0.98600753
MIK07221023,19,0,2024-07-22T01:23:22.931Z,english_981.wav,0,peel,14347,3,0.3,65.67633712,0.21362544
MIK07221023,19,0,2024-07-22T01:23:22.931Z,english_981.wav,0,peel,14347,4,0.32341667,-6.1640169,0.33780549
MIK07221023,20,0,2024-07-22T01:23:22.931Z,english_465.wav,0,pill,6506,0,0.0,40.04056426,1.33778995
MIK07221023,20,0,2024-07-22T01:23:22.931Z,english_465.wav,0,pill,6506,1,0.1,-97.28817369,0.1899685
MIK07221023,20,0,2024-07-22T01:23:22.931Z,english_465.wav,0,pill,6506,2,0.2,-58.72937184,1.35609136
MIK07221023,20,0,2024-07-22T01:23:22.931Z,english_465.wav,0,pill,6506,3,0.3,82.2448524,1.94032164
MIK07221023,20,0,2024-07-22T01:23:22.931Z,english_465.wav,0,pill,6506,4,0.32341667,-29.20233879,0.27858753
MIK07221023,21,0,2024-07-22T01:23:22.931Z,english_186.wav,0,pill,9630,0,0.0,-54.7664391,1.87021502
MIK07221023,21,0,2024-07-22T01:23:22.931Z,english_186.wav,0,pill,9630,1,0.1,-8.4263529,1.36390049
MIK07221023,21,0,2024-07-22T01:23:22.931Z,english_186.wav,0,pill,9630,2,0.2,6.22451559,1.69942617
MIK07221023,21,0,2024-07-22T01:23:22.931Z,english_186.wav,0,pill,9630,3,0.3,-12.35671223,1.8066537
MIK07221023,21,0,2024-07-22T01:23:22.931Z,english_186.wav,0,pill,9630,4,0.32341667,86.21839615,1.2511354
MIK07221023,22,0,2024-07-22T01:23:22.931Z,english_895.wav,0,peel,1291,0,0.0,-36.05432491,1.57991636
MIK07221023,22,0,2024-07-22T01:23:22.931Z,english_895.wav,0,peel,1291,1,0.1,0.27991529,1.29141926
MIK07221023,22,0,2024-07-22T01:23:22.931Z,english_895.wav,0,peel,1291,2,0.2,-68.50060493,0.78617821
MIK07221023,22,0,2024-07-22T01:23:22.931Z,english_895.wav,0,peel,1291,3,0.3,-65.34452755,0.53071912
MIK07221023,22,0,2024-07-22T01:23:22.931Z,english_895.wav,0,peel,1291,4,0.32341667,44.30205494,1.44568828
MIK07221023,23,0,2024-07-22T01:23:22.931Z,english_474.wav,0,pill,5507,0,0.0,42.88606971,0.87351765
MIK07221023,23,0,2024-07-22T01:23:22.931Z,english_474.wav,0,pill,5507,1,0.1,6.82691085,1.08551449
MIK07221023,23,0,2024-07-22T01:23:22.931Z,english_474.wav,0,pill,5507,2,0.2,-33.80031927,1.99847166
MIK07221023,23,0,2024-07-22T01:23:22.931Z,english_474.wav,0,pill,5507,3,0.3,-97.18672796,0.27470298
MIK07221023,23,0,2024-07-22T01:23:22.931Z,english_474.wav,0,pill,5507,4,0.32341667,-4.7462475,0.02962094
MIK07221023,24,0,2024-07-22T01:23:22.931Z,english_256.wav,0,pill,1436,0,0.0,22.60769813,1.84037168
MIK07221023,24,0,2024-07-22T01:23:22.931Z,english_256.wav,0,pill,1436,1,0.1,-95.01444593,0.47687766
MIK07221023,24,0,2024-07-22T01:23:22.931Z,english_256.wav,0,pill,1436,2,0.2,-19.91310746,0.85339151
MIK07221023,24,0,2024-07-22T01:23:22.931Z,english_256.wav,0,pill,1436,3,0.3,-6.39209363,0.75097161
MIK07221023,24,0,2024-07-22T01:23:22.931Z,english_256.wav,0,pill,1436,4,0.32341667,24.02209282,1.98695073
MIK07221023,25,0,2024-07-22T01:23:22.931Z,english_528.wav,0,peel,19512,0,0.0,34.31610554,1.55529168
MIK07221023,25,0,2024-07-22T01:23:22.931Z,english_528.wav,0,peel,19512,1,0.1,28.08911917,0.29936297
MIK07221023,25,0,2024-07-22T01:23:22.931Z,english_528.wav,0,peel,19512,2,0.2,-86.77613696,0.95155831
MIK07221023,25,0,2024-07-22T01:23:22.931Z,english_528.wav,0,peel,19512,3,0.3,-45.45420678,1.46511459
MIK07221023,25,0,2024-07-22T01:23:22.931Z,english_528.wav,0,peel,19512,4,0.32341667,-58.86275596,0.63923396
MIK07221023,26,0,2024-07-22T01:23:22.931Z,english_651.wav,0,pill,2395,0,0.0,94.66063372,0.16277223
MIK07221023,26,0,2024-07-22T01:23:22.931Z,english_651.wav,0,pill,2395,1,0.1,53.93234837,1.71236475
MIK07221023,26,0,2024-07-22T01:23:22.931Z,english_651.wav,0,pill,2395,2,0.2,-71.35755131,0.37376336
MIK07221023,26,0,2024-07-22T01:23:22.931Z,english_651.wav,0,pill,2395,3,0.3,50.84025958,0.80998932
MIK07221023,26,0,2024-07-22T01:23:22.931Z,english_651.wav,0,pill,2395,4,0.32341667,-24.67252949,0.23835763
MIK07221023,27,0,2024-07-22T01:23:22.931Z,english_824.wav,0,pill,13750,0,0.0,80.46503136,1.43025592
MIK07221023,27,0,2024-07-22T01:23:22.931Z,english_824.wav,0,pill,13750,1,0.1,-48.668347,0.89138167
MIK07221023,27,0,2024-07-22T01:23:22.931Z,english_824.wav,0,pill,13750,2,0.2,37.27765876,1.91281619
MIK07221023,27,0,2024-07-22T01:23:22.931Z,english_824.wav,0,pill,13750,3,0.3,-91.29945309,0.71335031
MIK07221023,27,0,2024-07-22T01:23:22.931Z,english_824.wav,0,pill,13750,4,0.32341667,14.46507007,0.89780818
MIK07221023,28,0,2024-07-22T01:23:22.931Z,english_343.wav,0,pill,951,0,0.0,-26.15456552,0.99905336
MIK07221023,28,0,2024-07-22T01:23:22.931Z,english_343.wav,0,pill,951,1,0.1,-4.26522308,0.59066439
MIK07221023,28,0,2024-07-22T01:23:22.931Z,english_343.wav,0,pill,951,2,0.2,55.3227334,1.69088488
MIK07221023,28,0,2024-07-22T01:23:22.931Z,english_343.wav,0,pill,951,3,0.3,-26.26518208,1.70645599
MIK07221023,28,0,2024-07-22T01:23:22.931Z,english_343.wav,0,pill,951,4,0.32341667,-18.3065251,0.13143106
MIK07221023,29,0,2024-07-22T01:23:22.931Z,english_987.wav,0,peel,5195,0,0.0,91.33137772,1.82656395
MIK07221023,29,0,2024-07-22T01:23:22.931Z,english_987.wav,0,peel,5195,1,0.1,-39.20299527,1.12122948
MIK07221023,29,0,2024-07-22T01:23:22.931Z,english_987.wav,0,peel,5195,2,0.2,78.9852337,1.12025045
MIK07221023,29,0,2024-07-22T01:23:22.931Z,english_987.wav,0,peel,5195,3,0.3,-94.66209845,1.02557261
MIK07221023,29,0,2024-07-22T01:23:22.931Z,english_987.wav,0,peel,5195,4,0.32341667,-71.76730894,1.06580695
MIK07221023,30,0,2024-07-22T01:23:22.931Z,english_377.wav,0,pill,2449,0,0.0,74.10679581,1.90218841
MIK07221023,30,0,2024-07-22T01:23:22.931Z,english_377.wav,0,pill,2449,1,0.1,-97.36412995,1.60160035
MIK07221023,30,0,2024-07-22T01:23:22.931Z,english_377.wav,0,pill,2449,2,0.2,-84.25672888,1.668912
MIK07221023,30,0,2024-07-22T01:23:22.931Z,english_377.wav,0,pill,2449,3,0.3,27.09308902,1.51590505
MIK07221023,30,0,2024-07-22T01:23:22.931Z,english_377.wav,0,pill,2449,4,0.32341667,-12.33253686,0.99909344
MIK07221023,31,0,2024-07-22T01:23:22.931Z,english_368.wav,0,pill,14065,0,0.0,-25.00542805,1.03431482
MIK07221023,31,0,2024-07-22T01:23:22.931Z,english_368.wav,0,pill,14065,1,0.1,-48.20991773,0.92366821
MIK07221023,31,0,2024-07-22T01:23:22.931Z,english_368.wav,0,pill,14065,2,0.2,-51.83604218,0.34019883
MIK07221023,31,0,2024-07-22T01:23:22.931Z,english_368.wav,0,pill,14065,3,0.3,14.57062672,1.21184807
MIK07221023,31,0,2024-07-22T01:23:22.931Z,english_368.wav,0,pill,14065,4,0.32341667,-26.77020505,0.81530657
MIK07221023,32,0,2024-07-22T01:23:22.931Z,english_963.wav,0,peel,9502,0,0.0,-60.03327616,0.86711865
MIK07221023,32,0,2024-07-22T01:23:22.931Z,english_963.wav,0,peel,9502,1,0.1,-15.51067414,1.69273621
MIK07221023,32,0,2024-07-22T01:23:22.931Z,english_963.wav,0,peel,9502,2,0.2,59.36715957,0.74157302
MIK07221023,32,0,2024-07-22T01:23:22.931Z,english_963.wav,0,peel,9502,3,0.3,-98.70464219,1.73078555
MIK07221023,32,0,2024-07-22T01:23:22.931Z,english_963.wav,0,peel,9502,4,0.32341667,37.26723218,1.37482324
MIK07221023,33,0,2024-07-22T01:23:22.931Z,english_980.wav,0,pill,5523,0,0.0,-32.33629208,1.21290567
MIK07221023,33,0,2024-07-22T01:23:22.931Z,english_980.wav,0,pill,5523,1,0.1,-4.4140807,0.22350007
MIK07221023,33,0,2024-07-22T01:23:22.931Z,english_980.wav,0,pill,5523,2,0.2,76.81412515,1.68078519
MIK07221023,33,0,2024-07-22T01:23:22.931Z,english_980.wav,0,pill,5523,3,0.3,-16.24877133,0.16816052
MIK07221023,33,0,2024-07-22T01:23:22.931Z,english_980.wav,0,pill,5523,4,0.32341667,-26.44128118,1.48722631
MIK07221023,34,0,2024-07-22T01:23:22.931Z,english_904.wav,0,peel,1056,0,0.0,54.28678019,0.96279628
MIK07221023,34,0,2024-07-22T01:23:22.931Z,english_904.wav,0,peel,1056,1,0.1,-13.24417266,0.20212872
MIK07221023,34,0,2024-07-22T01:23:22.931Z,english_904.wav,0,peel,1056,2,0.2,18.94666669,1.39381084
MIK07221023,34,0,2024-07-22T01:23:22.931Z,english_904.wav,0,peel,1056,3,0.3,-21.97018078,1.57516234
MIK07221023,34,0,2024-07-22T01:23:22.931Z,english_904.wav,0,peel,1056,4,0.32341667,4.05624244,0.97228596
MIK07221023,35,0,2024-07-22T01:23:22.931Z,english_790.wav,0,pill,4172,0,0.0,51.18493756,0.66657869
MIK07221023,35,0,2024-07-22T01:23:22.931Z,english_790.wav,0,pill,4172,1,0.1,-64.70105349,0.91857876
MIK07221023,35,0,2024-07-22T01:23:22.931Z,english_790.wav,0,pill,4172,2,0.2,-90.57968214,1.26779222
MIK07221023,35,0,2024-07-22T01:23:22.931Z,english_790.wav,0,pill,4172,3,0.3,-94.64625917,1.54144859
MIK07221023,35,0,2024-07-22T01:23:22.931Z,english_790.wav,0,pill,4172,4,0.32341667,-38.85953331,1.32367104
MIK07221023,36,0,2024-07-22T01:23:22.931Z,english_990.wav,0,pill,3219,0,0.0,-17.98511021,0.6190444
MIK07221023,36,0,2024-07-22T01:23:22.931Z,english_990.wav,0,pill,3219,1,0.1,-90.3005676,0.77548775
MIK07221023,36,0,2024-07-22T01:23:22.931Z,english_990.wav,0,pill,3219,2,0.2,4.37005684,0.55013224
MIK07221023,36,0,2024-07-22T01:23:22.931Z,english_990.wav,0,pill,3219,3,0.3,83.93705034,0.66784051
MIK07221023,36,0,2024-07-22T01:23:22.931Z,english_990.wav,0,pill,3219,4,0.32341667,-36.57803625,0.32384409
MIK07221023,37,0,2024-07-22T01:23:22.931Z,english_236.wav,0,peel,1622,0,0.0,14.26564849,0.89253674
MIK07221023,37,0,2024-07-22T01:23:22.931Z,english_236.wav,0,peel,1622,1,0.1,60.97219358,0.38957934
MIK07221023,37,0,2024-07-22T01:23:22.931Z,english_236.wav,0,peel,1622,2,0.2,-12.39626346,1.55558051
MIK07221023,37,0,2024-07-22T01:23:22.931Z,english_236.wav,0,peel,1622,3,0.3,-62.87774076,0.2682718
MIK07221023,37,0,2024-07-22T01:23:22.931Z,english_236.wav,0,peel,1622,4,0.32341667,-75.97684705,1.92182597
MIK07221023,38,0,2024-07-22T01:23:22.931Z,english_149.wav,0,peel,1857,0,0.0,84.22842235,1.59516341
MIK07221023,38,0,2024-07-22T01:23:22.931Z,english_149.wav,0,peel,1857,1,0.1,-27.4405272,0.66089578
MIK07221023,38,0,2024-07-22T01:23:22.931Z,english_149.wav,0,peel,1857,2,0.2,-61.08664731,1.85372623
MIK07221023,38,0,2024-07-22T01:23:22.931Z,english_149.wav,0,peel,1857,3,0.3,-73.42064763,1.25159901
MIK07221023,38,0,2024-07-22T01:23:22.931Z,english_149.wav,0,peel,1857,4,0.32341667,74.80057547,1.10687529
MIK07221023,39,0,2024-07-22T01:23:22.931Z,english_636.wav,0,peel,2879,0,0.0,-20.37295141,1.69276631
MIK07221023,39,0,2024-07-22T01:23:22.931Z,english_636.wav,0,peel,2879,1,0.1,-84.7288786,1.69908726
MIK07221023,39,0,2024-07-22T01:23:22.931Z,english_636.wav,0,peel,2879,2,0.2,24.84265136,1.44836333
MIK07221023,39,0,2024-07-22T01:23:22.931Z,english_636.wav,0,peel,2879,3,0.3,-9.2443485,1.36647816
MIK07221023,39,0,2024-07-22T01:23:22.931Z,english_636.wav,0,peel,2879,4,0.32341667,49.04875774,0.88112598
MIK07221023,40,0,2024-07-22T01:23:22.931Z,english_584.wav,0,pill,1898,0,0.0,10.38934641,1.28044862
MIK07221023,40,0,2024-07-22T01:23:22.931Z,english_584.wav,0,pill,1898,1,0.1,16.58552078,0.12750447
MIK07221023,40,0,2024-07-22T01:23:22.931Z,english_584.wav,0,pill,1898,2,0.2,93.24376001,0.67889343
MIK07221023,40,0,2024-07-22T01:23:22.931Z,english_584.wav,0,pill,1898,3,0.3,-17.62367845,1.20299248
MIK07221023,40,0,2024-07-22T01:23:22.931Z,english_584.wav,0,pill,1898,4,0.32341667,35.31863132,1.61660781
MIK07221023,41,0,2024-07-22T01:23:22.931Z,english_913.wav,0,peel,2969,0,0.0,27.9375346,0.72243167
MIK07221023,41,0,2024-07-22T01:23:22.931Z,english_913.wav,0,peel,2969,1,0.1,41.67879689,1.59129257
MIK07221023,41,0,2024-07-22T01:23:22.931Z,english_913.wav,0,peel,2969,2,0.2,-50.96955224,1.19382874
MIK07221023,41,0,2024-07-22T01:23:22.931Z,english_913.wav,0,peel,2969,3,0.3,93.1868058,0.86840853
MIK07221023,41,0,2024-07-22T01:23:22.931Z,english_913.wav,0,peel,2969,4,0.32341667,83.79752677,0.21021697
MIK07221023,42,0,2024-07-22T01:23:22.931Z,english_416.wav,0,pill,752,0,0.0,26.92040942,0.66708871
MIK07221023,42,0,2024-07-22T01:23:22.931Z,english_416.wav,0,pill,752,1,0.1,32.98463782,0.46140785
MIK07221023,42,0,2024-07-22T01:23:22.931Z,english_416.wav,0,pill,752,2,0.2,94.30298269,0.4311344
MIK07221023,42,0,2024-07-22T01:23:22.931Z,english_416.wav,0,pill,752,3,0.3,71.4008894,0.4522554
MIK07221023,42,0,2024-07-22T01:23:22.931Z,english_416.wav,0,pill,752,4,0.32341667,-13.61584313,0.23817019
MIK07221023,43,0,2024-07-22T01:23:22.931Z,english_856.wav,0,peel,1656,0,0.0,-44.08940674,1.51880133
MIK07221023,43,0,2024-07-22T01:23:22.931Z,english_856.wav,0,peel,1656,1,0.1,-25.77644107,0.99524475
MIK07221023,43,0,2024-07-22T01:23:22.931Z,english_856.wav,0,peel,1656,2,0.2,6.39263247,1.11391415
MIK07221023,43,0,2024-07-22T01:23:22.931Z,english_856.wav,0,peel,1656,3,0.3,92.67536145,0.95575529
MIK07221023,43,0,2024-07-22T01:23:22.931Z,english_856.wav,0,peel,1656,4,0.32341667,45.15991817,1.02944292
MIK07221023,44,0,2024-07-22T01:23:22.931Z,english_261.wav,0,pill,923,0,0.0,-19.34212076,1.20182597
MIK07221023,44,0,2024-07-22T01:23:22.931Z,english_261.wav,0,pill,923,1,0.1,-90.49371254,0.701642
MIK07221023,44,0,2024-07-22T01:23:22.931Z,english_261.wav,0,pill,923,2,0.2,-2.84874079,0.72931556
MIK07221023,44,0,2024-07-22T01:23:22.931Z,english_261.wav,0,pill,923,3,0.3,26.59732755,0.86687176
MIK07221023,44,0,2024-07-22T01:23:22.931Z,english_261.wav,0,pill,923,4,0.32341667,39.97770901,1.42617677
MIK07221023,45,0,2024-07-22T01:23:22.931Z,english_502.wav,0,peel,533,0,0.0,-23.73065935,0.0797034
MIK07221023,45,0,2024-07-22T01:23:22.931Z,english_502.wav,0,peel,533,1,0.1,2.70754613,1.83600464
MIK07221023,45,0,2024-07-22T01:23:22.931Z,english_502.wav,0,peel,533,2,0.2,25.650451,1.48948742
MIK07221023,45,0,2024-07-22T01:23:22.931Z,english_502.wav,0,peel,533,3,0.3,-49.55254658,1.22465236
MIK07221023,45,0,2024-07-22T01:23:22.931Z,english_502.wav,0,peel,533,4,0.32341667,16.82642172,1.41984075
MIK07221023,46,0,2024-07-22T01:23:22.931Z,english_133.wav,0,pill,732,0,0.0,12.35833749,0.72635311
MIK07221023,46,0,2024-07-22T01:23:22.931Z,english_133.wav,0,pill,732,1,0.1,40.12315016,1.38782059
MIK07221023,46,0,2024-07-22T01:23:22.931Z,english_133.wav,0,pill,732,2,0.2,21.09458129,0.15947395
MIK07221023,46,0,2024-07-22T01:23:22.931Z,english_133.wav,0,pill,732,3,0.3,-98.82286682,0.28433836
MIK07221023,46,0,2024-07-22T01:23:22.931Z,english_133.wav,0,pill,732,4,0.32341667,-85.44748976,1.2581514
MIK07221023,47,0,2024-07-22T01:23:22.931Z,english_796.wav,0,peel,396,0,0.0,57.52331511,0.93419081
MIK07221023,47,0,2024-07-22T01:23:22.931Z,english_796.wav,0,peel,396,1,0.1,-53.71774571,0.77950231
MIK07221023,47,0,2024-07-22T01:23:22.931Z,english_796.wav,0,peel,396,2,0.2,-36.09214461,0.54947466
MIK07221023,47,0,2024-07-22T01:23:22.931Z,english_796.wav,0,peel,396,3,0.3,23.21783142,1.69054841
MIK07221023,47,0,2024-07-22T01:23:22.931Z,english_796.wav,0,peel,396,4,0.32341667,-74.52171885,0.76047802
MIK07221023,48,0,2024-07-22T01:23:22.931Z,english_661.wav,0,pill,1349,0,0.0,14.15805194,1.06290545
MIK07221023,48,0,2024-07-22T01:23:22.931Z,english_661.wav,0,pill,1349,1,0.1,-77.97020538,1.12952287
MIK07221023,48,0,2024-07-22T01:23:22.931Z,english_661.wav,0,pill,1349,2,0.2,-31.78835068,1.47556517
MIK07221023,48,0,2024-07-22T01:23:22.931Z,english_661.wav,0,pill,1349,3,0.3,1.84085651,0.41137052
MIK07221023,48,0,2024-07-22T01:23:22.931Z,english_661.wav,0,pill,1349,4,0.32341667,31.49677972,1.48872703
MIK07221023,49,0,2024-07-22T01:23:22.931Z,english_176.wav,0,pill,1022,0,0.0,-62.84257592,0.68193044
MIK07221023,49,0,2024-07-22T01:23:22.931Z,english_176.wav,0,pill,1022,1,0.1,86.95506575,0.26950978
MIK07221023,49,0,2024-07-22T01:23:22.931Z,english_176.wav,0,pill,1022,2,0.2,-28.0397163,0.45294908
MIK07221023,49,0,2024-07-22T01:23:22.931Z,english_176.wav,0,pill,1022,3,0.3,-64.80124174,0.91353321
MIK07221023,49,0,2024-07-22T01:23:22.931Z,english_176.wav,0,pill,1022,4,0.32341667,-98.66046935,1.10925614
MIK07221023,50,1,2024-07-22T01:23:22.931Z,english_886.wav,0,peel,3886,0,0.0,52.0334205,0.43451348
MIK07221023,50,1,2024-07-22T01:23:22.931Z,english_886.wav,0,peel,3886,1,0.1,-34.60142464,1.57387994
MIK07221023,50,1,2024-07-22T01:23:22.931Z,english_886.wav,0,peel,3886,2,0.2,77.69993065,1.05416836
MIK07221023,50,1,2024-07-22T01:23:22.931Z,english_886.wav,0,peel,3886,3,0.3,29.08950905,0.32554246
MIK07221023,50,1,2024-07-22T01:23:22.931Z,english_886.wav,0,peel,3886,4,0.32341667,-98.8324779,1.85669509
MIK07221023,51,1,2024-07-22T01:23:22.931Z,english_763.wav,0,pill,3612,0,0.0,64.63144232,0.7800836
MIK07221023,51,1,2024-07-22T01:23:22.931Z,english_763.wav,0,pill,3612,1,0.1,8.86346429,1.26656169
MIK07221023,51,1,2024-07-22T01:23:22.931Z,english_763.wav,0,pill,3612,2,0.2,32.79569159,1.93170043
MIK07221023,51,1,2024-07-22T01:23:22.931Z,english_763.wav,0,pill,3612,3,0.3,10.55051177,0.29422641
MIK07221023,51,1,2024-07-22T01:23:22.931Z,english_763.wav,0,pill,3612,4,0.32341667,6.38738619,1.43860225
MIK07221023,52,1,2024-07-22T01:23:22.931Z,english_216.wav,0,peel,2066,0,0.0,-62.2888105,1.07577895
MIK07221023,52,1,2024-07-22T01:23:22.931Z,english_216.wav,0,peel,2066,1,0.1,-52.19325919,1.07125686
MIK07221023,52,1,2024-07-22T01:23:22.931Z,english_216.wav,0,peel,2066,2,0.2,-77.81566322,1.51342084
MIK07221023,52,1,2024-07-22T01:23:22.931Z,english_216.wav,0,peel,2066,3,0.3,73.5246301,1.37714716
MIK07221023,52,1,2024-07-22T01:23:22.931Z,english_216.wav,0,peel,2066,4,0.32341667,73.4409389,1.55456291
MIK07221023,53,1,2024-07-22T01:23:22.931Z,english_312.wav,0,pill,630,0,0.0,44.01610098,1.36033213
MIK07221023,53,1,2024-07-22T01:23:22.931Z,english_312.wav,0,pill,630,1,0.1,-34.76139374,0.08557756
MIK07221023,53,1,2024-07-22T01:23:22.931Z,english_312.wav,0,pill,630,2,0.2,-43.47986862,1.06509633
MIK07221023,53,1,2024-07-22T01:23:22.931Z,english_312.wav,0,pill,630,3,0.3,-9.79517271,0.67257935
MIK07221023,53,1,2024-07-22T01:23:22.931Z,english_312.wav,0,pill,630,4,0.32341667,85.48914895,0.12614926
MIK07221023,54,1,2024-07-22T01:23:22.931Z,english_795.wav,0,peel,844,0,0.0,39.36518311,1.47453336
MIK07221023,54,1,2024-07-22T01:23:22.931Z,english_795.wav,0,peel,844,1,0.1,16.50141431,0.29075574
MIK07221023,54,1,2024-07-22T01:23:22.931Z,english_795.wav,0,peel,844,2,0.2,54.87860026,1.88174141
MIK07221023,54,1,2024-07-22T01:23:22.931Z,english_795.wav,0,peel,844,3,0.3,61.09971909,0.27471403
MIK07221023,54,1,2024-07-22T01:23:22.931Z,english_795.wav,0,peel,844,4,0.32341667,4.28490532,0.11399574
MIK07221023,55,1,2024-07-22T01:23:22.931Z,english_680.wav,0,pill,2153,0,0.0,93.24972168,1.89994278
MIK07221023,55,1,2024-07-22T01:23:22.931Z,english_680.wav,0,pill,2153,1,0.1,21.55707386,1.06559033
MIK07221023,55,1,2024-07-22T01:23:22.931Z,english_680.wav,0,pill,2153,2,0.2,-58.84044748,0.79606997
MIK07221023,55,1,2024-07-22T01:23:22.931Z,english_680.wav,0,pill,2153,3,0.3,-13.55367876,0.35899559
MIK07221023,55,1,2024-07-22T01:23:22.931Z,english_680.wav,0,pill,2153,4,0.32341667,17.98073729,1.50925573
MIK07221023,56,1,2024-07-22T01:23:22.931Z,english_534.wav,0,pill,855,0,0.0,-42.4271338,1.1267565
MIK07221023,56,1,2024-07-22T01:23:22.931Z,english_534.wav,0,pill,855,1,0.1,-80.6424644,0.6842577
MIK07221023,56,1,2024-07-22T01:23:22.931Z,english_534.wav,0,pill,855,2,0.2,59.29592388,0.01459656
MIK07221023,56,1,2024-07-22T01:23:22.931Z,english_534.wav,0,pill,855,3,0.3,75.02007223,1.03701198
MIK07221023,56,1,2024-07-22T01:23:22.931Z,english_534.wav,0,pill,855,4,0.32341667,-57.55026449,1.25840342
MIK07221023,57,1,2024-07-22T01:23:22.931Z,english_490.wav,0,peel,5688,0,0.0,39.23640548,0.12600295
MIK07221023,57,1,2024-07-22T01:23:22.931Z,english_490.wav,0,peel,5688,1,0.1,-42.18123516,0.88631808
MIK07221023,57,1,2024-07-22T01:23:22.931Z,english_490.wav,0,peel,5688,2,0.2,53.94030347,1.76218548
MIK07221023,57,1,2024-07-22T01:23:22.931Z,english_490.wav,0,peel,5688,3,0.3,-65.41993581,1.86160188
MIK07221023,57,1,2024-07-22T01:23:22.931Z,english_490.wav,0,peel,5688,4,0.32341667,90.15742696,1.03493088
MIK07221023,58,1,2024-07-22T01:23:22.931Z,english_84.wav,0,peel,4097,0,0.0,-42.35488886,0.45116064
MIK07221023,58,1,2024-07-22T01:23:22.931Z,english_84.wav,0,peel,4097,1,0.1,17.86576323,1.91320005
MIK07221023,58,1,2024-07-22T01:23:22.931Z,english_84.wav,0,peel,4097,2,0.2,-56.36172821,1.53140363
MIK07221023,58,1,2024-07-22T01:23:22.931Z,english_84.wav,0,peel,4097,3,0.3,69.8537656,0.53091011
MIK07221023,58,1,2024-07-22T01:23:22.931Z,english_84.wav,0,peel,4097,4,0.32341667,-47.30652012,1.59279301
MIK07221023,59,1,2024-07-22T01:23:22.931Z,english_735.wav,0,pill,2896,0,0.0,51.40973306,0.29099813
MIK07221023,59,1,2024-07-22T01:23:22.931Z,english_735.wav,0,pill,2896,1,0.1,-5.42867159,1.62833375
MIK07221023,59,1,2024-07-22T01:23:22.931Z,english_735.wav,0,pill,2896,2,0.2,13.71146629,0.32849247
MIK07221023,59,1,2024-07-22T01:23:22.931Z,english_735.wav,0,pill,2896,3,0.3,-14.17202169,0.46991549
MIK07221023,59,1,2024-07-22T01:23:22.931Z,english_735.wav,0,pill,2896,4,0.32341667,14.98699592,0.51625305
MIK07221023,60,1,2024-07-22T01:23:22.931Z,english_159.wav,0,pill,4857,0,0.0,-83.7072706,0.09138871
MIK07221023,60,1,2024-07-22T01:23:22.931Z,english_159.wav,0,pill,4857,1,0.1,-62.69238784,0.63335487
MIK07221023,60,1,2024-07-22T01:23:22.931Z,english_159.wav,0,pill,4857,2,0.2,22.09248507,1.23550763
MIK07221023,60,1,2024-07-22T01:23:22.931Z,english_159.wav,0,pill,4857,3,0.3,-80.94681782,1.83356136
MIK07221023,60,1,2024-07-22T01:23:22.931Z,english_159.wav,0,pill,4857,4,0.32341667,-55.76861956,0.76796393
MIK07221023,61,1,2024-07-22T01:23:22.931Z,english_974.wav,0,peel,1406,0,0.0,29.63575745,0.7371821
MIK07221023,61,1,2024-07-22T01:23:22.931Z,english_974.wav,0,peel,1406,1,0.1,-49.63946334,1.15838362
MIK07221023,61,1,2024-07-22T01:23:22.931Z,english_974.wav,0,peel,1406,2,0.2,87.75163431,1.66312363
MIK07221023,61,1,2024-07-22T01:23:22.931Z,english_974.wav,0,peel,1406,3,0.3,-62.39844007,0.85783748
MIK07221023,61,1,2024-07-22T01:23:22.931Z,english_974.wav,0,peel,1406,4,0.32341667,-98.5513891,1.53033297
MIK07221023,62,1,2024-07-22T01:23:22.931Z,english_412.wav,0,pill,2584,0,0.0,-82.38375592,0.41347899
MIK07221023,62,1,2024-07-22T01:23:22.931Z,english_412.wav,0,pill,2584,1,0.1,-35.89348303,0.05505218
MIK07221023,62,1,2024-07-22T01:23:22.931Z,english_412.wav,0,pill,2584,2,0.2,-78.50422887,1.28972039
MIK07221023,62,1,2024-07-22T01:23:22.931Z,english_412.wav,0,pill,2584,3,0.3,8.19618882,0.97331843
MIK07221023,62,1,2024-07-22T01:23:22.931Z,english_412.wav,0,pill,2584,4,0.32341667,88.30694734,0.22558246
MIK07221023,63,1,2024-07-22T01:23:22.931Z,english_153.wav,0,peel,687,0,0.0,1.34878197,1.20280718
MIK07221023,63,1,2024-07-22T01:23:22.931Z,english_153.wav,0,peel,687,1,0.1,-86.14475674,1.60924223
MIK07221023,63,1,2024-07-22T01:23:22.931Z,english_153.wav,0,peel,687,2,0.2,3.24582423,0.94422247
MIK07221023,63,1,2024-07-22T01:23:22.931Z,english_153.wav,0,peel,687,3,0.3,-6.94068795,0.98008297
MIK07221023,63,1,2024-07-22T01:23:22.931Z,english_153.wav,0,peel,687,4,0.32341667,-76.91560753,0.34988026
MIK07221023,64,1,2024-07-22T01:23:22.931Z,english_587.wav,0,peel,2773,0,0.0,-33.32102811,0.7972352
MIK07221023,64,1,2024-07-22T01:23:22.931Z,english_587.wav,0,peel,2773,1,0.1,46.1287001,1.97425238
MIK07221023,64,1,2024-07-22T01:23:22.931Z,english_587.wav,0,peel,2773,2,0.2,-62.23894368,0.99609006
MIK07221023,64,1,2024-07-22T01:23:22.931Z,english_587.wav,0,peel,2773,3,0.3,36.67711132,1.18577707
MIK07221023,64,1,2024-07-22T01:23:22.931Z,english_587.wav,0,peel,2773,4,0.32341667,-11.53320103,1.64089558
MIK07221023,65,1,2024-07-22T01:23:22.931Z,english_916.wav,0,pill,4972,0,0.0,-50.62314768,0.5519299
MIK07221023,65,1,2024-07-22T01:23:22.931Z,english_916.wav,0,pill,4972,1,0.1,-52.55300278,1.16723516
MIK07221023,65,1,2024-07-22T01:23:22.931Z,english_916.wav,0,pill,4972,2,0.2,54.298582,1.72376738
MIK07221023,65,1,2024-07-22T01:23:22.931Z,english_916.wav,0,pill,4972,3,0.3,-23.99088857,0.41493786
MIK07221023,65,1,2024-07-22T01:23:22.931Z,english_916.wav,0,pill,4972,4,0.32341667,4.88948607,1.97918138
MIK07221023,66,1,2024-07-22T01:23:22.931Z,english_830.wav,0,peel,1062,0,0.0,2.63258607,0.89301132
MIK07221023,66,1,2024-07-22T01:23:22.931Z,english_830.wav,0,peel,1062,1,0.1,-31.8387274,1.32560067
MIK07221023,66,1,2024-07-22T01:23:22.931Z,english_830.wav,0,peel,1062,2,0.2,-6.78563658,1.08718884
MIK07221023,66,1,2024-07-22T01:23:22.931Z,english_830.wav,0,peel,1062,3,0.3,-57.52390495,0.53430446
MIK07221023,66,1,2024-07-22T01:23:22.931Z,english_830.wav,0,peel,1062,4,0.32341667,51.13575953,0.53816607
MIK07221023,67,1,2024-07-22T01:23:22.931Z,english_232.wav,0,pill,936,0,0.0,15.13134779,0.53160298
MIK07221023,67,1,2024-07-22T01:23:22.931Z,english_232.wav,0,pill,936,1,0.1,-49.29605083,0.4519978
MIK07221023,67,1,2024-07-22T01:23:22.931Z,english_232.wav,0,pill,936,2,0.2,59.10606455,0.39260156
MIK07221023,67,1,2024-07-22T01:23:22.931Z,english_232.wav,0,pill,936,3,0.3,48.81708847,0.4692084
MIK07221023,67,1,2024-07-22T01:23:22.931Z,english_232.wav,0,pill,936,4,0.32341667,14.83590121,0.46233459
MIK07221023,68,1,2024-07-22T01:23:22.931Z,english_215.wav,0,peel,2784,0,0.0,-93.71362427,1.31176069
MIK07221023,68,1,2024-07-22T01:23:22.931Z,english_215.wav,0,peel,2784,1,0.1,20.4696733,1.25536714
MIK07221023,68,1,2024-07-22T01:23:22.931Z,english_215.wav,0,peel,2784,2,0.2,-66.57352715,1.5696385
MIK07221023,68,1,2024-07-22T01:23:22.931Z,english_215.wav,0,peel,2784,3,0.3,-0.6079782,0.03144419
MIK07221023,68,1,2024-07-22T01:23:22.931Z,english_215.wav,0,peel,2784,4,0.32341667,-5.73921948,0.79048669
MIK07221023,69,1,2024-07-22T01:23:22.931Z,english_761.wav,0,peel,2157,0,0.0,-7.84319468,0.39728316
MIK07221023,69,1,2024-07-22T01:23:22.931Z,english_761.wav,0,peel,2157,1,0.1,77.10262164,0.76675063
MIK07221023,69,1,2024-07-22T01:23:22.931Z,english_761.wav,0,peel,2157,2,0.2,23.07677451,1.40075404
MIK07221023,69,1,2024-07-22T01:23:22.931Z,english_761.wav,0,peel,2157,3,0.3,-22.28856666,0.53792203
MIK07221023,69,1,2024-07-22T01:23:22.931Z,english_761.wav,0,peel,2157,4,0.32341667,18.71779046,1.06229189
MIK07221023,70,1,2024-07-22T01:23:22.931Z,english_197.wav,0,peel,556,0,0.0,-60.72223742,1.8449777
MIK07221023,70,1,2024-07-22T01:23:22.931Z,english_197.wav,0,peel,556,1,0.1,-88.93421142,1.74693134
MIK07221023,70,1,2024-07-22T01:23:22.931Z,english_197.wav,0,peel,556,2,0.2,51.43827126,1.11057597
MIK07221023,70,1,2024-07-22T01:23:22.931Z,english_197.wav,0,peel,556,3,0.3,7.80125839,1.67371275
MIK07221023,70,1,2024-07-22T01:23:22.931Z,english_197.wav,0,peel,556,4,0.32341667,-53.06876459,1.16077516
MIK07221023,71,1,2024-07-22T01:23:22.931Z,english_897.wav,0,peel,2078,0,0.0,-6.17515852,1.45954458
MIK07221023,71,1,2024-07-22T01:23:22.931Z,english_897.wav,0,peel,2078,1,0.1,-25.56252799,1.4662158
MIK07221023,71,1,2024-07-22T01:23:22.931Z,english_897.wav,0,peel,2078,2,0.2,-51.51756482,1.09304129
MIK07221023,71,1,2024-07-22T01:23:22.931Z,english_897.wav,0,peel,2078,3,0.3,-57.3776393,1.17713492
MIK07221023,71,1,2024-07-22T01:23:22.931Z,english_897.wav,0,peel,2078,4,0.32341667,-65.82780913,1.23726335
MIK07221023,72,1,2024-07-22T01:23:22.931Z,english_806.wav,0,peel,2843,0,0.0,17.38837614,1.03842349
MIK07221023,72,1,2024-07-22T01:23:22.931Z,english_806.wav,0,peel,2843,1,0.1,50.31160736,1.08461549
MIK07221023,72,1,2024-07-22T01:23:22.931Z,english_806.wav,0,peel,2843,2,0.2,74.21499327,1.8436814
MIK07221023,72,1,2024-07-22T01:23:22.931Z,english_806.wav,0,peel,2843,3,0.3,16.647622,1.85846725
MIK07221023,72,1,2024-07-22T01:23:22.931Z,english_806.wav,0,peel,2843,4,0.32341667,27.12519974,1.15820289
MIK07221023,73,1,2024-07-22T01:23:22.931Z,english_504.wav,0,pill,1090,0,0.0,4.11468456,0.75379057
MIK07221023,73,1,2024-07-22T01:23:22.931Z,english_504.wav,0,pill,1090,1,0.1,70.56620437,1.18348717
MIK07221023,73,1,2024-07-22T01:23:22.931Z,english_504.wav,0,pill,1090,2,0.2,3.26767498,0.25360202
MIK07221023,73,1,2024-07-22T01:23:22.931Z,english_504.wav,0,pill,1090,3,0.3,-3.14493553,1.87094491
MIK07221023,73,1,2024-07-22T01:23:22.931Z,english_504.wav,0,pill,1090,4,0.32341667,43.57926014,0.110125
MIK07221023,74,1,2024-07-22T01:23:22.931Z,english_887.wav,0,pill,5273,0,0.0,21.36154006,0.58574694
MIK07221023,74,1,2024-07-22T01:23:22.931Z,english_887.wav,0,pill,5273,1,0.1,-21.46213737,0.48413962
MIK07221023,74,1,2024-07-22T01:23:22.931Z,english_887.wav,0,pill,5273,2,0.2,-45.53850124,1.16923549
MIK07221023,74,1,2024-07-22T01:23:22.931Z,english_887.wav,0,pill,5273,3,0.3,-75.36110743,1.46190157
MIK07221023,74,1,2024-07-22T01:23:22.931Z,english_887.wav,0,pill,5273,4,0.32341667,-96.67184991,0.00789239
MIK07221023,75,1,2024-07-22T01:23:22.931Z,english_321.wav,0,peel,822,0,0.0,2.07721816,1.69623759
MIK07221023,75,1,2024-07-22T01:23:22.931Z,english_321.wav,0,peel,822,1,0.1,59.48735819,1.35736687
MIK07221023,75,1,2024-07-22T01:23:22.931Z,english_321.wav,0,peel,822,2,0.2,64.78149714,1.92920457
MIK07221023,75,1,2024-07-22T01:23:22.931Z,english_321.wav,0,peel,822,3,0.3,65.58393414,0.66559077
MIK07221023,75,1,2024-07-22T01:23:22.931Z,english_321.wav,0,peel,822,4,0.32341667,14.66673939,1.66523208
MIK07221023,76,1,2024-07-22T01:23:22.931Z,english_408.wav,0,pill,946,0,0.0,-0.16211679,1.52185603
MIK07221023,76,1,2024-07-22T01:23:22.931Z,english_408.wav,0,pill,946,1,0.1,16.68246491,0.27925492
MIK07221023,76,1,2024-07-22T01:23:22.931Z,english_408.wav,0,pill,946,2,0.2,-84.31504289,0.96179544
MIK07221023,76,1,2024-07-22T01:23:22.931Z,english_408.wav,0,pill,946,3,0.3,20.95362966,1.64669203
MIK07221023,76,1,2024-07-22T01:23:22.931Z,english_408.wav,0,pill,946,4,0.32341667,15.25079186,1.54793764
MIK07221023,77,1,2024-07-22T01:23:22.931Z,english_131.wav,0,pill,899,0,0.0,-90.65248477,1.67513221
MIK07221023,77,1,2024-07-22T01:23:22.931Z,english_131.wav,0,pill,899,1,0.1,7.0988446,1.62916956
MIK07221023,77,1,2024-07-22T01:23:22.931Z,english_131.wav,0,pill,899,2,0.2,-30.94637352,1.4017665
MIK07221023,77,1,2024-07-22T01:23:22.931Z,english_131.wav,0,pill,899,3,0.3,-31.86179524,1.07276153
MIK07221023,77,1,2024-07-22T01:23:22.931Z,english_131.wav,0,pill,899,4,0.32341667,1.85809033,1.80109071
MIK07221023,78,1,2024-07-22T01:23:22.931Z,english_816.wav,0,pill,1600,0,0.0,-5.39935373,0.27372013
MIK07221023,78,1,2024-07-22T01:23:22.931Z,english_816.wav,0,pill,1600,1,0.1,-58.12348851,1.23542608
MIK07221023,78,1,2024-07-22T01:23:22.931Z,english_816.wav,0,pill,1600,2,0.2,-97.19740724,1.6956732
MIK07221023,78,1,2024-07-22T01:23:22.931Z,english_816.wav,0,pill,1600,3,0.3,4.60418864,0.17466083
MIK07221023,78,1,2024-07-22T01:23:22.931Z,english_816.wav,0,pill,1600,4,0.32341667,57.92285533,0.69657013
MIK07221023,79,1,2024-07-22T01:23:22.931Z,english_147.wav,0,pill,716,0,0.0,-14.37625717,1.08714974
MIK07221023,79,1,2024-07-22T01:23:22.931Z,english_147.wav,0,pill,716,1,0.1,-48.99147792,1.05600262
MIK07221023,79,1,2024-07-22T01:23:22.931Z,english_147.wav,0,pill,716,2,0.2,-76.025031,0.62193731
MIK07221023,79,1,2024-07-22T01:23:22.931Z,english_147.wav,0,pill,716,3,0.3,-4.271985,1.23272935
MIK07221023,79,1,2024-07-22T01:23:22.931Z,english_147.wav,0,pill,716,4,0.32341667,90.36670579,0.90867663
MIK07221023,80,1,2024-07-22T01:23:22.931Z,english_837.wav,0,pill,631,0,0.0,-10.72674788,0.56055933
MIK07221023,80,1,2024-07-22T01:23:22.931Z,english_837.wav,0,pill,631,1,0.1,33.60933966,1.16716927
MIK07221023,80,1,2024-07-22T01:23:22.931Z,english_837.wav,0,pill,631,2,0.2,-1.37827911,1.02731607
MIK07221023,80,1,2024-07-22T01:23:22.931Z,english_837.wav,0,pill,631,3,0.3,29.3498758,1.96665864
MIK07221023,80,1,2024-07-22T01:23:22.931Z,english_837.wav,0,pill,631,4,0.32341667,31.86641091,0.45425732
MIK07221023,81,1,2024-07-22T01:23:22.931Z,english_10.wav,0,pill,2520,0,0.0,-80.92247099,1.33142191
MIK07221023,81,1,2024-07-22T01:23:22.931Z,english_10.wav,0,pill,2520,1,0.1,11.56157957,0.6588087
MIK07221023,81,1,2024-07-22T01:23:22.931Z,english_10.wav,0,pill,2520,2,0.2,72.61501241,1.62851887
MIK07221023,81,1,2024-07-22T01:23:22.931Z,english_10.wav,0,pill,2520,3,0.3,91.01400741,1.4109269
MIK07221023,81,1,2024-07-22T01:23:22.931Z,english_10.wav,0,pill,2520,4,0.32341667,-64.58672822,0.76235223
MIK07221023,82,1,2024-07-22T01:23:22.931Z,english_85.wav,0,peel,512,0,0.0,69.91092253,1.07696769
MIK07221023,82,1,2024-07-22T01:23:22.931Z,english_85.wav,0,peel,512,1,0.1,90.04885235,1.65675227
MIK07221023,82,1,2024-07-22T01:23:22.931Z,english_85.wav,0,peel,512,2,0.2,-54.471964,1.18566865
MIK07221023,82,1,2024-07-22T01:23:22.931Z,english_85.wav,0,peel,512,3,0.3,-32.42862041,0.43131811
MIK07221023,82,1,2024-07-22T01:23:22.931Z,english_85.wav,0,peel,512,4,0.32341667,-26.25094384,1.88641509
MIK07221023,83,1,2024-07-22T01:23:22.931Z,english_47.wav,0,pill,452,0,0.0,70.62381491,1.36620222
MIK07221023,83,1,2024-07-22T01:23:22.931Z,english_47.wav,0,pill,452,1,0.1,-43.60565268,0.47559644
MIK07221023,83,1,2024-07-22T01:23:22.931Z,english_47.wav,0,pill,452,2,0.2,29.54670776,0.92078875
MIK07221023,83,1,2024-07-22T01:23:22.931Z,english_47.wav,0,pill,452,3,0.3,95.208653,0.83015506
MIK07221023,83,1,2024-07-22T01:23:22.931Z,english_47.wav,0,pill,452,4,0.32341667,-87.83630424,1.40747595
MIK07221023,84,1,2024-07-22T01:23:22.931Z,english_674.wav,0,peel,862,0,0.0,-38.60253285,0.25488683
MIK07221023,84,1,2024-07-22T01:23:22.931Z,english_674.wav,0,peel,862,1,0.1,46.14948962,1.80679583
MIK07221023,84,1,2024-07-22T01:23:22.931Z,english_674.wav,0,peel,862,2,0.2,-49.76414787,1.59420413
MIK07221023,84,1,2024-07-22T01:23:22.931Z,english_674.wav,0,peel,862,3,0.3,-66.16492387,1.25714797
MIK07221023,84,1,2024-07-22T01:23:22.931Z,english_674.wav,0,peel,862,4,0.32341667,28.37583826,1.20557216
MIK07221023,85,1,2024-07-22T01:23:22.931Z,english_388.wav,0,pill,910,0,0.0,17.9760939,0.95494184
MIK07221023,85,1,2024-07-22T01:23:22.931Z,english_388.wav,0,pill,910,1,0.1,-43.00340989,0.10281418
MIK07221023,85,1,2024-07-22T01:23:22.931Z,english_388.wav,0,pill,910,2,0.2,-30.55059063,1.52164503
MIK07221023,85,1,2024-07-22T01:23:22.931Z,english_388.wav,0,pill,910,3,0.3,-92.55876504,1.24827519
MIK07221023,85,1,2024-07-22T01:23:22.931Z,english_388.wav,0,pill,910,4,0.32341667,-64.21175873,0.08180338
MIK07221023,86,1,2024-07-22T01:23:22.931Z,english_172.wav,0,pill,662,0,0.0,8.59493981,0.93080222
MIK07221023,86,1,2024-07-22T01:23:22.931Z,english_172.wav,0,pill,662,1,0.1,-56.34346079,0.53387901
MIK07221023,86,1,2024-07-22T01:23:22.931Z,english_172.wav,0,pill,662,2,0.2,-95.76423912,0.34406097
MIK07221023,86,1,2024-07-22T01:23:22.931Z,english_172.wav,0,pill,662,3,0.3,11.69646411,0.74935371
MIK07221023,86,1,2024-07-22T01:23:22.931Z,english_172.wav,0,pill,662,4,0.32341667,-55.10661496,0.42041327
MIK07221023,87,1,2024-07-22T01:23:22.931Z,english_347.wav,0,peel,496,0,0.0,34.89178431,1.32203506
MIK07221023,87,1,2024-07-22T01:23:22.931Z,english_347.wav,0,peel,496,1,0.1,53.24978685,0.28714436
MIK07221023,87,1,2024-07-22T01:23:22.931Z,english_347.wav,0,peel,496,2,0.2,4.11185022,1.66093526
MIK07221023,87,1,2024-07-22T01:23:22.931Z,english_347.wav,0,peel,496,3,0.3,89.26663646,1.29826057
MIK07221023,87,1,2024-07-22T01:23:22.931Z,english_347.wav,0,peel,496,4,0.32341667,-53.02646266,0.05504814
MIK07221023,88,1,2024-07-22T01:23:22.931Z,english_704.wav,0,peel,544,0,0.0,-24.48288207,0.92043902
MIK07221023,88,1,2024-07-22T01:23:22.931Z,english_704.wav,0,peel,544,1,0.1,-9.94163531,0.96595902
MIK07221023,88,1,2024-07-22T01:23:22.931Z,english_704.wav,0,peel,544,2,0.2,74.85271107,1.40327859
MIK07221023,88,1,2024-07-22T01:23:22.931Z,english_704.wav,0,peel,544,3,0.3,-38.44921803,1.07325586
MIK07221023,88,1,2024-07-22T01:23:22.931Z,english_704.wav,0,peel,544,4,0.32341667,-21.20994959,1.87555588
MIK07221023,89,1,2024-07-22T01:23:22.931Z,english_690.wav,0,peel,374,0,0.0,33.047654,0.0,1.58265684
MIK07221023,89,1,2024-07-22T01:23:22.931Z,english_690.wav,0,peel,374,1,0.1,0.0212167444,0.1,0.6931717
MIK07221023,89,1,2024-07-22T01:23:22.931Z,english_690.wav,0,peel,374,2,0.2,21.343237,0.2,1.47002515
MIK07221023,89,1,2024-07-22T01:23:22.931Z,english_690.wav,0,peel,374,3,0.3,35.4710796,0.3,1.9856235
MIK07221023,89,1,2024-07-22T01:23:22.931Z,english_690.wav,0,peel,374,4,0.323416667,79.4400816,0.32341667,1.00479917
MIK07221023,90,1,2024-07-22T01:23:22.931Z,english_807.wav,0,peel,4346,0,0.0,-70.27095807,1.48455572
MIK07221023,90,1,2024-07-22T01:23:22.931Z,english_807.wav,0,peel,4346,1,0.1,84.77391363,1.24837561
MIK07221023,90,1,2024-07-22T01:23:22.931Z,english_807.wav,0,peel,4346,2,0.2,-27.52537388,0.77726095
MIK07221023,90,1,2024-07-22T01:23:22.931Z,english_807.wav,0,peel,4346,3,0.3,36.82986288,1.65388598
MIK07221023,90,1,2024-07-22T01:23:22.931Z,english_807.wav,0,peel,4346,4,0.32341667,16.63983573,1.10343216
MIK07221023,91,1,2024-07-22T01:23:22.931Z,english_167.wav,0,pill,4080,0,0.0,57.26975159,0.44729063
MIK07221023,91,1,2024-07-22T01:23:22.931Z,english_167.wav,0,pill,4080,1,0.1,54.31010869,1.623568
MIK07221023,91,1,2024-07-22T01:23:22.931Z,english_167.wav,0,pill,4080,2,0.2,99.57020207,0.28743218
MIK07221023,91,1,2024-07-22T01:23:22.931Z,english_167.wav,0,pill,4080,3,0.3,27.92735821,0.71837494
MIK07221023,91,1,2024-07-22T01:23:22.931Z,english_167.wav,0,pill,4080,4,0.32341667,73.13424206,1.35815305
MIK07221023,92,1,2024-07-22T01:23:22.931Z,english_71.wav,0,peel,2734,0,0.0,-89.06637534,0.37218892
MIK07221023,92,1,2024-07-22T01:23:22.931Z,english_71.wav,0,peel,2734,1,0.1,-28.638437,1.29479557
MIK07221023,92,1,2024-07-22T01:23:22.931Z,english_71.wav,0,peel,2734,2,0.2,-8.31899436,1.34818575
MIK07221023,92,1,2024-07-22T01:23:22.931Z,english_71.wav,0,peel,2734,3,0.3,67.7820648,1.24266832
MIK07221023,92,1,2024-07-22T01:23:22.931Z,english_71.wav,0,peel,2734,4,0.32341667,4.09606073,1.38884894
MIK07221023,93,1,2024-07-22T01:23:22.931Z,english_80.wav,0,pill,638,0,0.0,33.21374474,1.09809668
MIK07221023,93,1,2024-07-22T01:23:22.931Z,english_80.wav,0,pill,638,1,0.1,-72.2618742,1.73594877
MIK07221023,93,1,2024-07-22T01:23:22.931Z,english_80.wav,0,pill,638,2,0.2,-29.44860443,0.30037535
MIK07221023,93,1,2024-07-22T01:23:22.931Z,english_80.wav,0,pill,638,3,0.3,-33.36418129,0.36613598
MIK07221023,93,1,2024-07-22T01:23:22.931Z,english_80.wav,0,pill,638,4,0.32341667,-65.11319145,0.50687614
MIK07221023,94,1,2024-07-22T01:23:22.931Z,english_163.wav,0,peel,1813,0,0.0,-28.85321754,1.43434597
MIK07221023,94,1,2024-07-22T01:23:22.931Z,english_163.wav,0,peel,1813,1,0.1,9.37410395,1.75766865
MIK07221023,94,1,2024-07-22T01:23:22.931Z,english_163.wav,0,peel,1813,2,0.2,-43.22266742,0.90391943
MIK07221023,94,1,2024-07-22T01:23:22.931Z,english_163.wav,0,peel,1813,3,0.3,48.63715122,1.21743426
MIK07221023,94,1,2024-07-22T01:23:22.931Z,english_163.wav,0,peel,1813,4,0.32341667,-94.22333204,1.8516503
MIK07221023,95,1,2024-07-22T01:23:22.931Z,english_642.wav,0,peel,1239,0,0.0,31.40946548,0.21393667
MIK07221023,95,1,2024-07-22T01:23:22.931Z,english_642.wav,0,peel,1239,1,0.1,4.73018903,1.31302396
MIK07221023,95,1,2024-07-22T01:23:22.931Z,english_642.wav,0,peel,1239,2,0.2,85.2390777,0.95537026
MIK07221023,95,1,2024-07-22T01:23:22.931Z,english_642.wav,0,peel,1239,3,0.3,-59.81643451,1.00167733
MIK07221023,95,1,2024-07-22T01:23:22.931Z,english_642.wav,0,peel,1239,4,0.32341667,-42.92691369,0.89750156
MIK07221023,96,1,2024-07-22T01:23:22.931Z,english_637.wav,0,peel,386,0,0.0,-1.71458324,1.21739028
MIK07221023,96,1,2024-07-22T01:23:22.931Z,english_637.wav,0,peel,386,1,0.1,-8.03758275,0.51882016
MIK07221023,96,1,2024-07-22T01:23:22.931Z,english_637.wav,0,peel,386,2,0.2,-8.49550443,1.63519413
MIK07221023,96,1,2024-07-22T01:23:22.931Z,english_637.wav,0,peel,386,3,0.3,-8.27727969,1.34863813
MIK07221023,96,1,2024-07-22T01:23:22.931Z,english_637.wav,0,peel,386,4,0.32341667,64.42471467,1.93003029
MIK07221023,97,1,2024-07-22T01:23:22.931Z,english_691.wav,0,pill,462,0,0.0,28.79078449,1.07683297
MIK07221023,97,1,2024-07-22T01:23:22.931Z,english_691.wav,0,pill,462,1,0.1,99.1184909,1.07376069
MIK07221023,97,1,2024-07-22T01:23:22.931Z,english_691.wav,0,pill,462,2,0.2,-54.13985733,0.28522735
MIK07221023,97,1,2024-07-22T01:23:22.931Z,english_691.wav,0,pill,462,3,0.3,-85.36319246,0.85701066
MIK07221023,97,1,2024-07-22T01:23:22.931Z,english_691.wav,0,pill,462,4,0.32341667,-73.61621094,1.71165398
MIK07221023,98,1,2024-07-22T01:23:22.931Z,english_230.wav,0,pill,384,0,0.0,59.01519707,0.66464778
MIK07221023,98,1,2024-07-22T01:23:22.931Z,english_230.wav,0,pill,384,1,0.1,-74.67447784,1.09498554
MIK07221023,98,1,2024-07-22T01:23:22.931Z,english_230.wav,0,pill,384,2,0.2,78.11378701,0.24708562
MIK07221023,98,1,2024-07-22T01:23:22.931Z,english_230.wav,0,pill,384,3,0.3,26.79367619,1.40152246
MIK07221023,98,1,2024-07-22T01:23:22.931Z,english_230.wav,0,pill,384,4,0.32341667,29.92451654,1.02203861
MIK07221023,99,1,2024-07-22T01:23:22.931Z,english_567.wav,0,pill,541,0,0.0,26.28994663,0.43358591
MIK07221023,99,1,2024-07-22T01:23:22.931Z,english_567.wav,0,pill,541,1,0.1,-84.76959918,0.96759171
MIK07221023,99,1,2024-07-22T01:23:22.931Z,english_567.wav,0,pill,541,2,0.2,-17.21635209,0.27115372
MIK07221023,99,1,2024-07-22T01:23:22.931Z,english_567.wav,0,pill,541,3,0.3,-93.28005251,1.2000135
MIK07221023,99,1,2024-07-22T01:23:22.931Z,english_567.wav,0,pill,541,4,0.32341667,55.01605665,1.11881456
MIK07221023,100,2,2024-07-22T01:23:22.931Z,english_255.wav,0,peel,3767,0,0.0,-42.74550593,1.65518669
MIK07221023,100,2,2024-07-22T01:23:22.931Z,english_255.wav,0,peel,3767,1,0.1,35.44578771,1.85823386
MIK07221023,100,2,2024-07-22T01:23:22.931Z,english_255.wav,0,peel,3767,2,0.2,98.7346041,1.2123315
MIK07221023,100,2,2024-07-22T01:23:22.931Z,english_255.wav,0,peel,3767,3,0.3,14.08839822,0.62099519
MIK07221023,100,2,2024-07-22T01:23:22.931Z,english_255.wav,0,peel,3767,4,0.32341667,-55.38739786,1.08486436
MIK07221023,101,2,2024-07-22T01:23:22.931Z,english_860.wav,0,peel,1157,0,0.0,10.25066679,1.47817545
MIK07221023,101,2,2024-07-22T01:23:22.931Z,english_860.wav,0,peel,1157,1,0.1,55.87909831,1.32859058
MIK07221023,101,2,2024-07-22T01:23:22.931Z,english_860.wav,0,peel,1157,2,0.2,81.09373959,0.99201561
MIK07221023,101,2,2024-07-22T01:23:22.931Z,english_860.wav,0,peel,1157,3,0.3,15.52286826,0.3312489
MIK07221023,101,2,2024-07-22T01:23:22.931Z,english_860.wav,0,peel,1157,4,0.32341667,58.18702512,0.66001743
MIK07221023,102,2,2024-07-22T01:23:22.931Z,english_859.wav,0,pill,663,0,0.0,71.31858369,0.11764496
MIK07221023,102,2,2024-07-22T01:23:22.931Z,english_859.wav,0,pill,663,1,0.1,-33.60875554,0.29827778
MIK07221023,102,2,2024-07-22T01:23:22.931Z,english_859.wav,0,pill,663,2,0.2,-64.15502461,0.43254339
MIK07221023,102,2,2024-07-22T01:23:22.931Z,english_859.wav,0,pill,663,3,0.3,-36.22537369,0.12368506
MIK07221023,102,2,2024-07-22T01:23:22.931Z,english_859.wav,0,pill,663,4,0.32341667,-23.59955866,0.97858169
MIK07221023,103,2,2024-07-22T01:23:22.931Z,english_594.wav,0,peel,692,0,0.0,-85.15725243,1.49995106
MIK07221023,103,2,2024-07-22T01:23:22.931Z,english_594.wav,0,peel,692,1,0.1,18.57908242,1.36683942
MIK07221023,103,2,2024-07-22T01:23:22.931Z,english_594.wav,0,peel,692,2,0.2,-52.1381203,1.31792707
MIK07221023,103,2,2024-07-22T01:23:22.931Z,english_594.wav,0,peel,692,3,0.3,77.56862162,0.76119001
MIK07221023,103,2,2024-07-22T01:23:22.931Z,english_594.wav,0,peel,692,4,0.32341667,89.7133381,1.77084997
MIK07221023,104,2,2024-07-22T01:23:22.931Z,english_273.wav,0,peel,317,0,0.0,-44.98289573,1.94838534
MIK07221023,104,2,2024-07-22T01:23:22.931Z,english_273.wav,0,peel,317,1,0.1,24.32546199,0.68888608
MIK07221023,104,2,2024-07-22T01:23:22.931Z,english_273.wav,0,peel,317,2,0.2,61.84573583,1.95265796
MIK07221023,104,2,2024-07-22T01:23:22.931Z,english_273.wav,0,peel,317,3,0.3,-1.88803465,1.62060328
MIK07221023,104,2,2024-07-22T01:23:22.931Z,english_273.wav,0,peel,317,4,0.32341667,57.02125087,0.94638053
MIK07221023,105,2,2024-07-22T01:23:22.931Z,english_96.wav,0,pill,505,0,0.0,-2.60251168,1.33849038
MIK07221023,105,2,2024-07-22T01:23:22.931Z,english_96.wav,0,pill,505,1,0.1,3.1808695,1.03790095
MIK07221023,105,2,2024-07-22T01:23:22.931Z,english_96.wav,0,pill,505,2,0.2,-93.89625608,0.32730996
MIK07221023,105,2,2024-07-22T01:23:22.931Z,english_96.wav,0,pill,505,3,0.3,22.03695444,1.15118519
MIK07221023,105,2,2024-07-22T01:23:22.931Z,english_96.wav,0,pill,505,4,0.32341667,89.13776591,1.37996061
MIK07221023,106,2,2024-07-22T01:23:22.931Z,english_41.wav,0,pill,635,0,0.0,42.21237724,0.98996482
MIK07221023,106,2,2024-07-22T01:23:22.931Z,english_41.wav,0,pill,635,1,0.1,33.8271633,0.77076848
MIK07221023,106,2,2024-07-22T01:23:22.931Z,english_41.wav,0,pill,635,2,0.2,20.96644351,0.37402384
MIK07221023,106,2,2024-07-22T01:23:22.931Z,english_41.wav,0,pill,635,3,0.3,-53.61985723,1.98545705
MIK07221023,106,2,2024-07-22T01:23:22.931Z,english_41.wav,0,pill,635,4,0.32341667,-55.68725705,1.53352273
MIK07221023,107,2,2024-07-22T01:23:22.931Z,english_27.wav,0,peel,304,0,0.0,-6.18374659,1.89085405
MIK07221023,107,2,2024-07-22T01:23:22.931Z,english_27.wav,0,peel,304,1,0.1,32.21095844,0.80138328
MIK07221023,107,2,2024-07-22T01:23:22.931Z,english_27.wav,0,peel,304,2,0.2,21.02729748,1.01248602
MIK07221023,107,2,2024-07-22T01:23:22.931Z,english_27.wav,0,peel,304,3,0.3,4.79829383,1.67412938
MIK07221023,107,2,2024-07-22T01:23:22.931Z,english_27.wav,0,peel,304,4,0.32341667,-70.7577659,0.3387802
MIK07221023,108,2,2024-07-22T01:23:22.931Z,english_489.wav,0,pill,392,0,0.0,5.7057461,0.60142671
MIK07221023,108,2,2024-07-22T01:23:22.931Z,english_489.wav,0,pill,392,1,0.1,-88.87009038,1.38499056
MIK07221023,108,2,2024-07-22T01:23:22.931Z,english_489.wav,0,pill,392,2,0.2,73.69789316,0.38073994
MIK07221023,108,2,2024-07-22T01:23:22.931Z,english_489.wav,0,pill,392,3,0.3,8.66804208,0.90212706
MIK07221023,108,2,2024-07-22T01:23:22.931Z,english_489.wav,0,pill,392,4,0.32341667,-19.53009002,1.00729778
MIK07221023,109,2,2024-07-22T01:23:22.931Z,english_707.wav,0,peel,1166,0,0.0,-17.04120346,1.06535483
MIK07221023,109,2,2024-07-22T01:23:22.931Z,english_707.wav,0,peel,1166,1,0.1,-57.44917128,0.89541794
MIK07221023,109,2,2024-07-22T01:23:22.931Z,english_707.wav,0,peel,1166,2,0.2,90.75848643,1.64838001
MIK07221023,109,2,2024-07-22T01:23:22.931Z,english_707.wav,0,peel,1166,3,0.3,96.79852424,0.75431717
MIK07221023,109,2,2024-07-22T01:23:22.931Z,english_707.wav,0,peel,1166,4,0.32341667,27.01716591,0.48082071
MIK07221023,110,2,2024-07-22T01:23:22.931Z,english_323.wav,0,peel,690,0,0.0,92.33188111,1.59668922
MIK07221023,110,2,2024-07-22T01:23:22.931Z,english_323.wav,0,peel,690,1,0.1,4.22577609,1.75306106
MIK07221023,110,2,2024-07-22T01:23:22.931Z,english_323.wav,0,peel,690,2,0.2,-35.48560344,1.06071567
MIK07221023,110,2,2024-07-22T01:23:22.931Z,english_323.wav,0,peel,690,3,0.3,7.73763769,1.9328625
MIK07221023,110,2,2024-07-22T01:23:22.931Z,english_323.wav,0,peel,690,4,0.32341667,55.62458321,1.27347405
MIK07221023,111,2,2024-07-22T01:23:22.931Z,english_268.wav,0,peel,242,0,0.0,55.18591224,1.47327052
MIK07221023,111,2,2024-07-22T01:23:22.931Z,english_268.wav,0,peel,242,1,0.1,47.37483414,0.95932673
MIK07221023,111,2,2024-07-22T01:23:22.931Z,english_268.wav,0,peel,242,2,0.2,46.97410588,1.80275919
MIK07221023,111,2,2024-07-22T01:23:22.931Z,english_268.wav,0,peel,242,3,0.3,-64.08979313,1.6474991
MIK07221023,111,2,2024-07-22T01:23:22.931Z,english_268.wav,0,peel,242,4,0.32341667,35.8590447,1.56533667
MIK07221023,112,2,2024-07-22T01:23:22.931Z,english_813.wav,0,peel,365,0,0.0,55.66932548,1.32885027
MIK07221023,112,2,2024-07-22T01:23:22.931Z,english_813.wav,0,peel,365,1,0.1,81.68960615,1.76450173
MIK07221023,112,2,2024-07-22T01:23:22.931Z,english_813.wav,0,peel,365,2,0.2,55.75765178,0.71046445
MIK07221023,112,2,2024-07-22T01:23:22.931Z,english_813.wav,0,peel,365,3,0.3,-1.25572602,1.00431818
MIK07221023,112,2,2024-07-22T01:23:22.931Z,english_813.wav,0,peel,365,4,0.32341667,95.15429199,0.60962601
MIK07221023,113,2,2024-07-22T01:23:22.931Z,english_493.wav,0,peel,985,0,0.0,42.62366846,0.72879325
MIK07221023,113,2,2024-07-22T01:23:22.931Z,english_493.wav,0,peel,985,1,0.1,-24.95330968,1.87742997
MIK07221023,113,2,2024-07-22T01:23:22.931Z,english_493.wav,0,peel,985,2,0.2,82.3526737,1.69463318
MIK07221023,113,2,2024-07-22T01:23:22.931Z,english_493.wav,0,peel,985,3,0.3,53.78370402,0.82529142
MIK07221023,113,2,2024-07-22T01:23:22.931Z,english_493.wav,0,peel,985,4,0.32341667,-52.5410085,0.10126548
MIK07221023,114,2,2024-07-22T01:23:22.931Z,english_99.wav,0,pill,501,0,0.0,9.75149611,0.79411887
MIK07221023,114,2,2024-07-22T01:23:22.931Z,english_99.wav,0,pill,501,1,0.1,-7.37998228,0.53064308
MIK07221023,114,2,2024-07-22T01:23:22.931Z,english_99.wav,0,pill,501,2,0.2,29.15889261,0.10254027
MIK07221023,114,2,2024-07-22T01:23:22.931Z,english_99.wav,0,pill,501,3,0.3,-23.23230809,0.53999741
MIK07221023,114,2,2024-07-22T01:23:22.931Z,english_99.wav,0,pill,501,4,0.32341667,51.25937721,0.74302856
MIK07221023,115,2,2024-07-22T01:23:22.931Z,english_308.wav,0,pill,529,0,0.0,71.04817524,1.27905886
MIK07221023,115,2,2024-07-22T01:23:22.931Z,english_308.wav,0,pill,529,1,0.1,-29.23230128,0.28593244
MIK07221023,115,2,2024-07-22T01:23:22.931Z,english_308.wav,0,pill,529,2,0.2,-23.90252129,0.87298087
MIK07221023,115,2,2024-07-22T01:23:22.931Z,english_308.wav,0,pill,529,3,0.3,-20.50746627,0.50431278
MIK07221023,115,2,2024-07-22T01:23:22.931Z,english_308.wav,0,pill,529,4,0.32341667,-25.31970697,1.06118321
MIK07221023,116,2,2024-07-22T01:23:22.931Z,english_564.wav,0,pill,389,0,0.0,-4.16228192,1.35245187
MIK07221023,116,2,2024-07-22T01:23:22.931Z,english_564.wav,0,pill,389,1,0.1,-8.38376801,0.24798142
MIK07221023,116,2,2024-07-22T01:23:22.931Z,english_564.wav,0,pill,389,2,0.2,52.82752554,1.26376743
MIK07221023,116,2,2024-07-22T01:23:22.931Z,english_564.wav,0,pill,389,3,0.3,-92.64870354,0.73548171
MIK07221023,116,2,2024-07-22T01:23:22.931Z,english_564.wav,0,pill,389,4,0.32341667,-48.86146536,0.1394123
MIK07221023,117,2,2024-07-22T01:23:22.931Z,english_764.wav,0,pill,3842,0,0.0,7.00590276,1.84020442
MIK07221023,117,2,2024-07-22T01:23:22.931Z,english_764.wav,0,pill,3842,1,0.1,-69.33047837,0.1607256
MIK07221023,117,2,2024-07-22T01:23:22.931Z,english_764.wav,0,pill,3842,2,0.2,-20.89747671,1.70981587
MIK07221023,117,2,2024-07-22T01:23:22.931Z,english_764.wav,0,pill,3842,3,0.3,-96.63564891,1.13854431
MIK07221023,117,2,2024-07-22T01:23:22.931Z,english_764.wav,0,pill,3842,4,0.32341667,78.55111455,1.5536836
MIK07221023,118,2,2024-07-22T01:23:22.931Z,english_978.wav,0,peel,2881,0,0.0,-73.1961296,0.69168228
MIK07221023,118,2,2024-07-22T01:23:22.931Z,english_978.wav,0,peel,2881,1,0.1,-56.98452675,1.28516196
MIK07221023,118,2,2024-07-22T01:23:22.931Z,english_978.wav,0,peel,2881,2,0.2,1.81288897,1.00851945
MIK07221023,118,2,2024-07-22T01:23:22.931Z,english_978.wav,0,peel,2881,3,0.3,-17.93803526,0.05981722
MIK07221023,118,2,2024-07-22T01:23:22.931Z,english_978.wav,0,peel,2881,4,0.32341667,-33.17886565,1.89275203
MIK07221023,119,2,2024-07-22T01:23:22.931Z,english_750.wav,0,peel,959,0,0.0,54.68497377,0.76623701
MIK07221023,119,2,2024-07-22T01:23:22.931Z,english_750.wav,0,peel,959,1,0.1,0.91792919,1.58478782
MIK07221023,119,2,2024-07-22T01:23:22.931Z,english_750.wav,0,peel,959,2,0.2,-67.69423006,0.74884996
MIK07221023,119,2,2024-07-22T01:23:22.931Z,english_750.wav,0,peel,959,3,0.3,20.92985273,0.15814923
MIK07221023,119,2,2024-07-22T01:23:22.931Z,english_750.wav,0,peel,959,4,0.32341667,-39.60032316,1.58320499
MIK07221023,120,2,2024-07-22T01:23:22.931Z,english_100.wav,0,peel,1746,0,0.0,-66.86198445,0.79522553
MIK07221023,120,2,2024-07-22T01:23:22.931Z,english_100.wav,0,peel,1746,1,0.1,32.23990363,0.27784591
MIK07221023,120,2,2024-07-22T01:23:22.931Z,english_100.wav,0,peel,1746,2,0.2,-63.31896149,1.76330212
MIK07221023,120,2,2024-07-22T01:23:22.931Z,english_100.wav,0,peel,1746,3,0.3,-73.00038049,0.60946618
MIK07221023,120,2,2024-07-22T01:23:22.931Z,english_100.wav,0,peel,1746,4,0.32341667,32.15710315,0.42695433
MIK07221023,121,2,2024-07-22T01:23:22.931Z,english_376.wav,0,peel,4826,0,0.0,-10.66231765,0.83936518
MIK07221023,121,2,2024-07-22T01:23:22.931Z,english_376.wav,0,peel,4826,1,0.1,-53.95799634,1.7265478
MIK07221023,121,2,2024-07-22T01:23:22.931Z,english_376.wav,0,peel,4826,2,0.2,-44.60014177,0.44309389
MIK07221023,121,2,2024-07-22T01:23:22.931Z,english_376.wav,0,peel,4826,3,0.3,-84.32777745,1.91772458
MIK07221023,121,2,2024-07-22T01:23:22.931Z,english_376.wav,0,peel,4826,4,0.32341667,-2.76179289,0.76255227
MIK07221023,122,2,2024-07-22T01:23:22.931Z,english_144.wav,0,pill,590,0,0.0,-68.95587174,0.23806678
MIK07221023,122,2,2024-07-22T01:23:22.931Z,english_144.wav,0,pill,590,1,0.1,-74.16141139,0.77020267
MIK07221023,122,2,2024-07-22T01:23:22.931Z,english_144.wav,0,pill,590,2,0.2,-19.31034794,0.33858197
MIK07221023,122,2,2024-07-22T01:23:22.931Z,english_144.wav,0,pill,590,3,0.3,-77.96768175,1.42512122
MIK07221023,122,2,2024-07-22T01:23:22.931Z,english_144.wav,0,pill,590,4,0.32341667,3.46911061,0.57629619
MIK07221023,123,2,2024-07-22T01:23:22.931Z,english_622.wav,0,peel,508,0,0.0,-46.49267806,1.425187
MIK07221023,123,2,2024-07-22T01:23:22.931Z,english_622.wav,0,peel,508,1,0.1,-80.07623079,0.61910367
MIK07221023,123,2,2024-07-22T01:23:22.931Z,english_622.wav,0,peel,508,2,0.2,-28.70131311,1.30297951
MIK07221023,123,2,2024-07-22T01:23:22.931Z,english_622.wav,0,peel,508,3,0.3,-26.89352847,1.73248838
MIK07221023,123,2,2024-07-22T01:23:22.931Z,english_622.wav,0,peel,508,4,0.32341667,-24.31243398,0.85523545
MIK07221023,124,2,2024-07-22T01:23:22.931Z,english_526.wav,0,peel,1827,0,0.0,-32.34532461,0.924261
MIK07221023,124,2,2024-07-22T01:23:22.931Z,english_526.wav,0,peel,1827,1,0.1,-46.6208459,0.25414499
MIK07221023,124,2,2024-07-22T01:23:22.931Z,english_526.wav,0,peel,1827,2,0.2,-42.84927068,1.01925886
MIK07221023,124,2,2024-07-22T01:23:22.931Z,english_526.wav,0,peel,1827,3,0.3,3.47643827,0.65966822
MIK07221023,124,2,2024-07-22T01:23:22.931Z,english_526.wav,0,peel,1827,4,0.32341667,52.79087598,1.50872035
MIK07221023,125,2,2024-07-22T01:23:22.931Z,english_137.wav,0,peel,2506,0,0.0,-81.54177422,0.16940048
MIK07221023,125,2,2024-07-22T01:23:22.931Z,english_137.wav,0,peel,2506,1,0.1,48.50229113,1.33204053
MIK07221023,125,2,2024-07-22T01:23:22.931Z,english_137.wav,0,peel,2506,2,0.2,-43.40912925,1.8593258
MIK07221023,125,2,2024-07-22T01:23:22.931Z,english_137.wav,0,peel,2506,3,0.3,54.89578869,1.77805515
MIK07221023,125,2,2024-07-22T01:23:22.931Z,english_137.wav,0,peel,2506,4,0.32341667,90.09778797,1.80981769
MIK07221023,126,2,2024-07-22T01:23:22.931Z,english_336.wav,0,peel,611,0,0.0,29.43389708,1.05594545
MIK07221023,126,2,2024-07-22T01:23:22.931Z,english_336.wav,0,peel,611,1,0.1,-98.82505887,1.57774783
MIK07221023,126,2,2024-07-22T01:23:22.931Z,english_336.wav,0,peel,611,2,0.2,33.95949266,1.35373128
MIK07221023,126,2,2024-07-22T01:23:22.931Z,english_336.wav,0,peel,611,3,0.3,-57.79711044,1.04960404
MIK07221023,126,2,2024-07-22T01:23:22.931Z,english_336.wav,0,peel,611,4,0.32341667,81.65015026,0.39151968
MIK07221023,127,2,2024-07-22T01:23:22.931Z,english_553.wav,0,peel,381,0,0.0,-18.85071283,1.30647824
MIK07221023,127,2,2024-07-22T01:23:22.931Z,english_553.wav,0,peel,381,1,0.1,56.72439372,1.55205535
MIK07221023,127,2,2024-07-22T01:23:22.931Z,english_553.wav,0,peel,381,2,0.2,-32.51510613,1.79127341
MIK07221023,127,2,2024-07-22T01:23:22.931Z,english_553.wav,0,peel,381,3,0.3,-81.56708954,0.1795284
MIK07221023,127,2,2024-07-22T01:23:22.931Z,english_553.wav,0,peel,381,4,0.32341667,42.80590219,0.48805839
MIK07221023,128,2,2024-07-22T01:23:22.931Z,english_505.wav,0,pill,947,0,0.0,-14.1569725,0.45361713
MIK07221023,128,2,2024-07-22T01:23:22.931Z,english_505.wav,0,pill,947,1,0.1,55.52926248,0.94516805
MIK07221023,128,2,2024-07-22T01:23:22.931Z,english_505.wav,0,pill,947,2,0.2,53.00334781,0.85342654
MIK07221023,128,2,2024-07-22T01:23:22.931Z,english_505.wav,0,pill,947,3,0.3,75.03788466,1.32942474
MIK07221023,128,2,2024-07-22T01:23:22.931Z,english_505.wav,0,pill,947,4,0.32341667,-7.91266729,0.93790665
MIK07221023,129,2,2024-07-22T01:23:22.931Z,english_79.wav,0,pill,547,0,0.0,-69.52518262,0.23164561
MIK07221023,129,2,2024-07-22T01:23:22.931Z,english_79.wav,0,pill,547,1,0.1,56.533406,1.01948637
MIK07221023,129,2,2024-07-22T01:23:22.931Z,english_79.wav,0,pill,547,2,0.2,25.92051761,0.17653141
MIK07221023,129,2,2024-07-22T01:23:22.931Z,english_79.wav,0,pill,547,3,0.3,81.58880491,0.14868702
MIK07221023,129,2,2024-07-22T01:23:22.931Z,english_79.wav,0,pill,547,4,0.32341667,-19.75719301,0.33345335
MIK07221023,130,2,2024-07-22T01:23:22.931Z,english_924.wav,0,peel,4055,0,0.0,63.64154058,1.83477076
MIK07221023,130,2,2024-07-22T01:23:22.931Z,english_924.wav,0,peel,4055,1,0.1,-60.55254199,0.21366754
MIK07221023,130,2,2024-07-22T01:23:22.931Z,english_924.wav,0,peel,4055,2,0.2,-47.94670646,1.07859551
MIK07221023,130,2,2024-07-22T01:23:22.931Z,english_924.wav,0,peel,4055,3,0.3,-76.50696127,1.9507375
MIK07221023,130,2,2024-07-22T01:23:22.931Z,english_924.wav,0,peel,4055,4,0.32341667,44.23103111,1.33476666
MIK07221023,131,2,2024-07-22T01:23:22.931Z,english_602.wav,0,peel,699,0,0.0,-53.18857274,1.95117352
MIK07221023,131,2,2024-07-22T01:23:22.931Z,english_602.wav,0,peel,699,1,0.1,-52.96167371,1.1427253
MIK07221023,131,2,2024-07-22T01:23:22.931Z,english_602.wav,0,peel,699,2,0.2,38.20784676,1.10694813
MIK07221023,131,2,2024-07-22T01:23:22.931Z,english_602.wav,0,peel,699,3,0.3,46.0178344,0.8717932
MIK07221023,131,2,2024-07-22T01:23:22.931Z,english_602.wav,0,peel,699,4,0.32341667,78.11630752,0.71626065
MIK07221023,132,2,2024-07-22T01:23:22.931Z,english_112.wav,0,peel,222,0,0.0,-98.7507832,1.62855774
MIK07221023,132,2,2024-07-22T01:23:22.931Z,english_112.wav,0,peel,222,1,0.1,-92.72198769,1.23374737
MIK07221023,132,2,2024-07-22T01:23:22.931Z,english_112.wav,0,peel,222,2,0.2,15.54821062,0.76022921
MIK07221023,132,2,2024-07-22T01:23:22.931Z,english_112.wav,0,peel,222,3,0.3,-40.54151432,0.49860071
MIK07221023,132,2,2024-07-22T01:23:22.931Z,english_112.wav,0,peel,222,4,0.32341667,-42.89167932,0.23801633
MIK07221023,133,2,2024-07-22T01:23:22.931Z,english_458.wav,0,pill,625,0,0.0,-49.69821038,0.39452057
MIK07221023,133,2,2024-07-22T01:23:22.931Z,english_458.wav,0,pill,625,1,0.1,-49.80647014,1.24604375
MIK07221023,133,2,2024-07-22T01:23:22.931Z,english_458.wav,0,pill,625,2,0.2,11.98261521,0.42272405
MIK07221023,133,2,2024-07-22T01:23:22.931Z,english_458.wav,0,pill,625,3,0.3,59.43319096,0.21259233
MIK07221023,133,2,2024-07-22T01:23:22.931Z,english_458.wav,0,pill,625,4,0.32341667,-34.5671642,1.13235362
MIK07221023,134,2,2024-07-22T01:23:22.931Z,english_50.wav,0,peel,414,0,0.0,-72.72872807,1.68140442
MIK07221023,134,2,2024-07-22T01:23:22.931Z,english_50.wav,0,peel,414,1,0.1,-88.33626222,1.82728433
MIK07221023,134,2,2024-07-22T01:23:22.931Z,english_50.wav,0,peel,414,2,0.2,-2.18882928,0.80476824
MIK07221023,134,2,2024-07-22T01:23:22.931Z,english_50.wav,0,peel,414,3,0.3,60.61456424,0.21215651
MIK07221023,134,2,2024-07-22T01:23:22.931Z,english_50.wav,0,peel,414,4,0.32341667,95.28335061,1.87644163
MIK07221023,135,2,2024-07-22T01:23:22.931Z,english_219.wav,0,pill,7583,0,0.0,38.40040381,1.09142553
MIK07221023,135,2,2024-07-22T01:23:22.931Z,english_219.wav,0,pill,7583,1,0.1,-26.23926727,0.5740428
MIK07221023,135,2,2024-07-22T01:23:22.931Z,english_219.wav,0,pill,7583,2,0.2,-57.67558578,1.19056911
MIK07221023,135,2,2024-07-22T01:23:22.931Z,english_219.wav,0,pill,7583,3,0.3,50.56926795,1.87089358
MIK07221023,135,2,2024-07-22T01:23:22.931Z,english_219.wav,0,pill,7583,4,0.32341667,64.39220397,1.06933149
MIK07221023,136,2,2024-07-22T01:23:22.931Z,english_544.wav,0,peel,629,0,0.0,96.80704334,1.85115917
MIK07221023,136,2,2024-07-22T01:23:22.931Z,english_544.wav,0,peel,629,1,0.1,70.5198752,0.8718407
MIK07221023,136,2,2024-07-22T01:23:22.931Z,english_544.wav,0,peel,629,2,0.2,78.21609099,1.82238935
MIK07221023,136,2,2024-07-22T01:23:22.931Z,english_544.wav,0,peel,629,3,0.3,-95.7752672,0.25719172
MIK07221023,136,2,2024-07-22T01:23:22.931Z,english_544.wav,0,peel,629,4,0.32341667,-56.58918052,0.72929157
MIK07221023,137,2,2024-07-22T01:23:22.931Z,english_231.wav,0,peel,1087,0,0.0,-57.04299033,1.30850831
MIK07221023,137,2,2024-07-22T01:23:22.931Z,english_231.wav,0,peel,1087,1,0.1,-61.30294243,1.06317761
MIK07221023,137,2,2024-07-22T01:23:22.931Z,english_231.wav,0,peel,1087,2,0.2,11.10207427,1.86768436
MIK07221023,137,2,2024-07-22T01:23:22.931Z,english_231.wav,0,peel,1087,3,0.3,-1.38864911,1.42169342
MIK07221023,137,2,2024-07-22T01:23:22.931Z,english_231.wav,0,peel,1087,4,0.32341667,-40.37897369,0.58634772
MIK07221023,138,2,2024-07-22T01:23:22.931Z,english_54.wav,0,peel,326,0,0.0,1.86764875,1.47639799
MIK07221023,138,2,2024-07-22T01:23:22.931Z,english_54.wav,0,peel,326,1,0.1,-1.78672474,1.92944336
MIK07221023,138,2,2024-07-22T01:23:22.931Z,english_54.wav,0,peel,326,2,0.2,-26.58380414,0.76292987
MIK07221023,138,2,2024-07-22T01:23:22.931Z,english_54.wav,0,peel,326,3,0.3,-2.56688864,1.78735236
MIK07221023,138,2,2024-07-22T01:23:22.931Z,english_54.wav,0,peel,326,4,0.32341667,-76.29238916,0.80366269
MIK07221023,139,2,2024-07-22T01:23:22.931Z,english_278.wav,0,peel,461,0,0.0,-49.55521664,0.96598769
MIK07221023,139,2,2024-07-22T01:23:22.931Z,english_278.wav,0,peel,461,1,0.1,60.24292507,1.32709354
MIK07221023,139,2,2024-07-22T01:23:22.931Z,english_278.wav,0,peel,461,2,0.2,34.32984246,0.84496159
MIK07221023,139,2,2024-07-22T01:23:22.931Z,english_278.wav,0,peel,461,3,0.3,91.69210883,1.50157491
MIK07221023,139,2,2024-07-22T01:23:22.931Z,english_278.wav,0,peel,461,4,0.32341667,78.84715657,1.85534648
MIK07221023,140,2,2024-07-22T01:23:22.931Z,english_466.wav,0,pill,2523,0,0.0,59.64739432,1.91119383
MIK07221023,140,2,2024-07-22T01:23:22.931Z,english_466.wav,0,pill,2523,1,0.1,-20.63646321,1.29572765
MIK07221023,140,2,2024-07-22T01:23:22.931Z,english_466.wav,0,pill,2523,2,0.2,62.86141463,0.99944191
MIK07221023,140,2,2024-07-22T01:23:22.931Z,english_466.wav,0,pill,2523,3,0.3,-65.74461877,1.01221774
MIK07221023,140,2,2024-07-22T01:23:22.931Z,english_466.wav,0,pill,2523,4,0.32341667,44.70090984,0.89697717
MIK07221023,141,2,2024-07-22T01:23:22.931Z,english_552.wav,0,peel,1202,0,0.0,-54.22317773,0.14479657
MIK07221023,141,2,2024-07-22T01:23:22.931Z,english_552.wav,0,peel,1202,1,0.1,23.75537749,1.96762023
MIK07221023,141,2,2024-07-22T01:23:22.931Z,english_552.wav,0,peel,1202,2,0.2,-67.43154965,0.75812729
MIK07221023,141,2,2024-07-22T01:23:22.931Z,english_552.wav,0,peel,1202,3,0.3,-83.62242399,0.84420129
MIK07221023,141,2,2024-07-22T01:23:22.931Z,english_552.wav,0,peel,1202,4,0.32341667,64.2322812,0.73382384
MIK07221023,142,2,2024-07-22T01:23:22.931Z,english_364.wav,0,peel,168,0,0.0,19.50953027,1.75500584
MIK07221023,142,2,2024-07-22T01:23:22.931Z,english_364.wav,0,peel,168,1,0.1,48.44847612,1.3553812
MIK07221023,142,2,2024-07-22T01:23:22.931Z,english_364.wav,0,peel,168,2,0.2,-85.20645473,0.86672295
MIK07221023,142,2,2024-07-22T01:23:22.931Z,english_364.wav,0,peel,168,3,0.3,97.47454191,1.42489128
MIK07221023,142,2,2024-07-22T01:23:22.931Z,english_364.wav,0,peel,168,4,0.32341667,-45.42958463,1.19673805
MIK07221023,143,2,2024-07-22T01:23:22.931Z,english_941.wav,0,pill,385,0,0.0,88.25484185,1.5236155
MIK07221023,143,2,2024-07-22T01:23:22.931Z,english_941.wav,0,pill,385,1,0.1,29.23312353,0.93469446
MIK07221023,143,2,2024-07-22T01:23:22.931Z,english_941.wav,0,pill,385,2,0.2,-73.60888885,0.44203051
MIK07221023,143,2,2024-07-22T01:23:22.931Z,english_941.wav,0,pill,385,3,0.3,-38.35663254,1.28625712
MIK07221023,143,2,2024-07-22T01:23:22.931Z,english_941.wav,0,pill,385,4,0.32341667,-37.21470774,1.264942
MIK07221023,144,2,2024-07-22T01:23:22.931Z,english_31.wav,0,peel,306,0,0.0,21.28810337,1.2057056
MIK07221023,144,2,2024-07-22T01:23:22.931Z,english_31.wav,0,peel,306,1,0.1,68.821868,0.99381392
MIK07221023,144,2,2024-07-22T01:23:22.931Z,english_31.wav,0,peel,306,2,0.2,-73.02143346,0.87600828
MIK07221023,144,2,2024-07-22T01:23:22.931Z,english_31.wav,0,peel,306,3,0.3,68.60173581,1.15844697
MIK07221023,144,2,2024-07-22T01:23:22.931Z,english_31.wav,0,peel,306,4,0.32341667,51.47999234,1.3722803
MIK07221023,145,2,2024-07-22T01:23:22.931Z,english_463.wav,0,peel,251,0,0.0,-17.89775534,1.84132871
MIK07221023,145,2,2024-07-22T01:23:22.931Z,english_463.wav,0,peel,251,1,0.1,-21.51631701,1.66361617
MIK07221023,145,2,2024-07-22T01:23:22.931Z,english_463.wav,0,peel,251,2,0.2,-12.53951077,0.64060514
MIK07221023,145,2,2024-07-22T01:23:22.931Z,english_463.wav,0,peel,251,3,0.3,33.47501925,1.01091097
MIK07221023,145,2,2024-07-22T01:23:22.931Z,english_463.wav,0,peel,251,4,0.32341667,-93.09525534,0.69499506
MIK07221023,146,2,2024-07-22T01:23:22.931Z,english_239.wav,0,pill,338,0,0.0,87.44943986,1.42022081
MIK07221023,146,2,2024-07-22T01:23:22.931Z,english_239.wav,0,pill,338,1,0.1,50.09814929,0.64261102
MIK07221023,146,2,2024-07-22T01:23:22.931Z,english_239.wav,0,pill,338,2,0.2,-20.91132269,0.17156284
MIK07221023,146,2,2024-07-22T01:23:22.931Z,english_239.wav,0,pill,338,3,0.3,1.56869958,1.89365974
MIK07221023,146,2,2024-07-22T01:23:22.931Z,english_239.wav,0,pill,338,4,0.32341667,15.23790706,1.86939691
MIK07221023,147,2,2024-07-22T01:23:22.931Z,english_625.wav,0,pill,957,0,0.0,25.70847239,1.1960971
MIK07221023,147,2,2024-07-22T01:23:22.931Z,english_625.wav,0,pill,957,1,0.1,-37.82303983,0.02795501
MIK07221023,147,2,2024-07-22T01:23:22.931Z,english_625.wav,0,pill,957,2,0.2,38.52328891,1.10198652
MIK07221023,147,2,2024-07-22T01:23:22.931Z,english_625.wav,0,pill,957,3,0.3,-23.93667478,0.08852642
MIK07221023,147,2,2024-07-22T01:23:22.931Z,english_625.wav,0,pill,957,4,0.32341667,-53.98326942,1.59813041
MIK07221023,148,2,2024-07-22T01:23:22.931Z,english_804.wav,0,peel,482,0,0.0,11.23319328,0.16159815
MIK07221023,148,2,2024-07-22T01:23:22.931Z,english_804.wav,0,peel,482,1,0.1,-75.15189859,1.76023076
MIK07221023,148,2,2024-07-22T01:23:22.931Z,english_804.wav,0,peel,482,2,0.2,5.39397939,0.7355024
MIK07221023,148,2,2024-07-22T01:23:22.931Z,english_804.wav,0,peel,482,3,0.3,42.92141331,1.74636497
MIK07221023,148,2,2024-07-22T01:23:22.931Z,english_804.wav,0,peel,482,4,0.32341667,-79.84726866,1.05562007
MIK07221023,149,2,2024-07-22T01:23:22.931Z,english_283.wav,0,pill,302,0,0.0,-27.01977409,1.23470843
MIK07221023,149,2,2024-07-22T01:23:22.931Z,english_283.wav,0,pill,302,1,0.1,-58.6063919,0.41737987
MIK07221023,149,2,2024-07-22T01:23:22.931Z,english_283.wav,0,pill,302,2,0.2,36.15867228,0.64455365
MIK07221023,149,2,2024-07-22T01:23:22.931Z,english_283.wav,0,pill,302,3,0.3,-77.91689069,1.80541824
MIK07221023,149,2,2024-07-22T01:23:22.931Z,english_283.wav,0,pill,302,4,0.32341667,-77.99680679,1.86024907
MIK07221023,150,3,2024-07-22T01:23:22.931Z,english_372.wav,0,peel,290,0,0.0,-10.50721777,1.53321121
MIK07221023,150,3,2024-07-22T01:23:22.931Z,english_372.wav,0,peel,290,1,0.1,60.4890014,1.14830486
MIK07221023,150,3,2024-07-22T01:23:22.931Z,english_372.wav,0,peel,290,2,0.2,35.20626745,1.01416029
MIK07221023,150,3,2024-07-22T01:23:22.931Z,english_372.wav,0,peel,290,3,0.3,-86.52802988,1.14285759
MIK07221023,150,3,2024-07-22T01:23:22.931Z,english_372.wav,0,peel,290,4,0.32341667,85.69336351,1.69996326
MIK07221023,151,3,2024-07-22T01:23:22.931Z,english_123.wav,0,peel,1329,0,0.0,67.91608163,1.13046919
MIK07221023,151,3,2024-07-22T01:23:22.931Z,english_123.wav,0,peel,1329,1,0.1,-92.32097988,1.99597614
MIK07221023,151,3,2024-07-22T01:23:22.931Z,english_123.wav,0,peel,1329,2,0.2,57.07371841,1.53523853
MIK07221023,151,3,2024-07-22T01:23:22.931Z,english_123.wav,0,peel,1329,3,0.3,19.28317816,0.24385811
MIK07221023,151,3,2024-07-22T01:23:22.931Z,english_123.wav,0,peel,1329,4,0.32341667,15.30546887,0.39158976
MIK07221023,152,3,2024-07-22T01:23:22.931Z,english_698.wav,0,peel,443,0,0.0,-86.30999669,1.66322514
MIK07221023,152,3,2024-07-22T01:23:22.931Z,english_698.wav,0,peel,443,1,0.1,-91.60158578,1.16924533
MIK07221023,152,3,2024-07-22T01:23:22.931Z,english_698.wav,0,peel,443,2,0.2,-41.16326515,1.29610919
MIK07221023,152,3,2024-07-22T01:23:22.931Z,english_698.wav,0,peel,443,3,0.3,7.86252123,1.21006153
MIK07221023,152,3,2024-07-22T01:23:22.931Z,english_698.wav,0,peel,443,4,0.32341667,25.04181708,1.83628755
MIK07221023,153,3,2024-07-22T01:23:22.931Z,english_606.wav,0,pill,571,0,0.0,-54.19201916,1.71730642
MIK07221023,153,3,2024-07-22T01:23:22.931Z,english_606.wav,0,pill,571,1,0.1,-9.49104439,0.42216081
MIK07221023,153,3,2024-07-22T01:23:22.931Z,english_606.wav,0,pill,571,2,0.2,1.17868262,1.31506394
MIK07221023,153,3,2024-07-22T01:23:22.931Z,english_606.wav,0,pill,571,3,0.3,-95.39718692,0.06922913
MIK07221023,153,3,2024-07-22T01:23:22.931Z,english_606.wav,0,pill,571,4,0.32341667,-48.659775,0.08316227
MIK07221023,154,3,2024-07-22T01:23:22.931Z,english_652.wav,0,pill,373,0,0.0,4.27736911,0.30427218
MIK07221023,154,3,2024-07-22T01:23:22.931Z,english_652.wav,0,pill,373,1,0.1,18.79087972,0.67520162
MIK07221023,154,3,2024-07-22T01:23:22.931Z,english_652.wav,0,pill,373,2,0.2,61.32163128,0.66270689
MIK07221023,154,3,2024-07-22T01:23:22.931Z,english_652.wav,0,pill,373,3,0.3,45.76092148,0.93987847
MIK07221023,154,3,2024-07-22T01:23:22.931Z,english_652.wav,0,pill,373,4,0.32341667,-45.08671386,1.10617978
MIK07221023,155,3,2024-07-22T01:23:22.931Z,english_12.wav,0,pill,671,0,0.0,48.33680056,1.48429429
MIK07221023,155,3,2024-07-22T01:23:22.931Z,english_12.wav,0,pill,671,1,0.1,27.41870997,0.15715938
MIK07221023,155,3,2024-07-22T01:23:22.931Z,english_12.wav,0,pill,671,2,0.2,-39.95667364,0.62940339
MIK07221023,155,3,2024-07-22T01:23:22.931Z,english_12.wav,0,pill,671,3,0.3,73.52964836,0.05281398
MIK07221023,155,3,2024-07-22T01:23:22.931Z,english_12.wav,0,pill,671,4,0.32341667,-36.35494906,1.6412938
MIK07221023,156,3,2024-07-22T01:23:22.931Z,english_313.wav,0,peel,1738,0,0.0,63.86599335,0.35841412
MIK07221023,156,3,2024-07-22T01:23:22.931Z,english_313.wav,0,peel,1738,1,0.1,-55.89800258,0.35021793
MIK07221023,156,3,2024-07-22T01:23:22.931Z,english_313.wav,0,peel,1738,2,0.2,90.86254046,1.77750413
MIK07221023,156,3,2024-07-22T01:23:22.931Z,english_313.wav,0,peel,1738,3,0.3,0.53087649,1.87396687
MIK07221023,156,3,2024-07-22T01:23:22.931Z,english_313.wav,0,peel,1738,4,0.32341667,-69.87913817,1.16176786
MIK07221023,157,3,2024-07-22T01:23:22.931Z,english_116.wav,0,peel,220,0,0.0,47.3382154,1.30986561
MIK07221023,157,3,2024-07-22T01:23:22.931Z,english_116.wav,0,peel,220,1,0.1,-82.57412589,0.36649927
MIK07221023,157,3,2024-07-22T01:23:22.931Z,english_116.wav,0,peel,220,2,0.2,24.81754674,1.53598436
MIK07221023,157,3,2024-07-22T01:23:22.931Z,english_116.wav,0,peel,220,3,0.3,61.93416492,1.65694634
MIK07221023,157,3,2024-07-22T01:23:22.931Z,english_116.wav,0,peel,220,4,0.32341667,-97.8286579,0.40343631
MIK07221023,158,3,2024-07-22T01:23:22.931Z,english_545.wav,0,peel,1070,0,0.0,42.99494118,1.37740168
MIK07221023,158,3,2024-07-22T01:23:22.931Z,english_545.wav,0,peel,1070,1,0.1,72.53025652,0.91972232
MIK07221023,158,3,2024-07-22T01:23:22.931Z,english_545.wav,0,peel,1070,2,0.2,4.60849844,0.73226975
MIK07221023,158,3,2024-07-22T01:23:22.931Z,english_545.wav,0,peel,1070,3,0.3,9.93291538,1.52934768
MIK07221023,158,3,2024-07-22T01:23:22.931Z,english_545.wav,0,peel,1070,4,0.32341667,-11.25611892,0.18478607
MIK07221023,159,3,2024-07-22T01:23:22.931Z,english_821.wav,0,peel,831,0,0.0,-4.04234253,1.62928948
MIK07221023,159,3,2024-07-22T01:23:22.931Z,english_821.wav,0,peel,831,1,0.1,50.39518932,0.78033958
MIK07221023,159,3,2024-07-22T01:23:22.931Z,english_821.wav,0,peel,831,2,0.2,58.18996785,1.56476115
MIK07221023,159,3,2024-07-22T01:23:22.931Z,english_821.wav,0,peel,831,3,0.3,-22.07293427,0.56557752
MIK07221023,159,3,2024-07-22T01:23:22.931Z,english_821.wav,0,peel,831,4,0.32341667,56.43229939,0.93389964
MIK07221023,160,3,2024-07-22T01:23:22.931Z,english_227.wav,0,pill,478,0,0.0,-56.39318384,1.7541365
MIK07221023,160,3,2024-07-22T01:23:22.931Z,english_227.wav,0,pill,478,1,0.1,90.87442764,0.66011804
MIK07221023,160,3,2024-07-22T01:23:22.931Z,english_227.wav,0,pill,478,2,0.2,-39.94082392,0.16454365
MIK07221023,160,3,2024-07-22T01:23:22.931Z,english_227.wav,0,pill,478,3,0.3,31.5093861,0.63744506
MIK07221023,160,3,2024-07-22T01:23:22.931Z,english_227.wav,0,pill,478,4,0.32341667,70.38847456,0.55874538
MIK07221023,161,3,2024-07-22T01:23:22.931Z,english_819.wav,0,peel,238,0,0.0,56.56933068,1.61805944
MIK07221023,161,3,2024-07-22T01:23:22.931Z,english_819.wav,0,peel,238,1,0.1,16.98960986,1.69207785
MIK07221023,161,3,2024-07-22T01:23:22.931Z,english_819.wav,0,peel,238,2,0.2,-13.59600893,1.33633205
MIK07221023,161,3,2024-07-22T01:23:22.931Z,english_819.wav,0,peel,238,3,0.3,79.1710335,0.49452457
MIK07221023,161,3,2024-07-22T01:23:22.931Z,english_819.wav,0,peel,238,4,0.32341667,25.34620926,1.97134574
MIK07221023,162,3,2024-07-22T01:23:22.931Z,english_515.wav,0,peel,520,0,0.0,-51.44071002,1.17100165
MIK07221023,162,3,2024-07-22T01:23:22.931Z,english_515.wav,0,peel,520,1,0.1,-54.80209221,0.37535268
MIK07221023,162,3,2024-07-22T01:23:22.931Z,english_515.wav,0,peel,520,2,0.2,64.47174239,1.31079719
MIK07221023,162,3,2024-07-22T01:23:22.931Z,english_515.wav,0,peel,520,3,0.3,-10.56071982,1.40472496
MIK07221023,162,3,2024-07-22T01:23:22.931Z,english_515.wav,0,peel,520,4,0.32341667,-39.86348554,0.6392892
MIK07221023,163,3,2024-07-22T01:23:22.931Z,english_635.wav,0,peel,535,0,0.0,27.7169436,1.98702335
MIK07221023,163,3,2024-07-22T01:23:22.931Z,english_635.wav,0,peel,535,1,0.1,-44.8292656,1.27737447
MIK07221023,163,3,2024-07-22T01:23:22.931Z,english_635.wav,0,peel,535,2,0.2,67.97685769,0.57401651
MIK07221023,163,3,2024-07-22T01:23:22.931Z,english_635.wav,0,peel,535,3,0.3,82.0264667,0.46134276
MIK07221023,163,3,2024-07-22T01:23:22.931Z,english_635.wav,0,peel,535,4,0.32341667,84.34985253,0.71235155
MIK07221023,164,3,2024-07-22T01:23:22.931Z,english_127.wav,0,peel,857,0,0.0,-69.70750805,0.25070661
MIK07221023,164,3,2024-07-22T01:23:22.931Z,english_127.wav,0,peel,857,1,0.1,-23.17484413,1.1475992
MIK07221023,164,3,2024-07-22T01:23:22.931Z,english_127.wav,0,peel,857,2,0.2,16.27024862,1.99299371
MIK07221023,164,3,2024-07-22T01:23:22.931Z,english_127.wav,0,peel,857,3,0.3,-50.08342814,0.57749513
MIK07221023,164,3,2024-07-22T01:23:22.931Z,english_127.wav,0,peel,857,4,0.32341667,22.60332787,1.27832678
MIK07221023,165,3,2024-07-22T01:23:22.931Z,english_356.wav,0,peel,1738,0,0.0,87.74309864,0.22820547
MIK07221023,165,3,2024-07-22T01:23:22.931Z,english_356.wav,0,peel,1738,1,0.1,-4.48264388,1.49009691
MIK07221023,165,3,2024-07-22T01:23:22.931Z,english_356.wav,0,peel,1738,2,0.2,90.19031952,1.39023362
MIK07221023,165,3,2024-07-22T01:23:22.931Z,english_356.wav,0,peel,1738,3,0.3,-69.40540064,1.78473098
MIK07221023,165,3,2024-07-22T01:23:22.931Z,english_356.wav,0,peel,1738,4,0.32341667,65.10278108,0.80628385
MIK07221023,166,3,2024-07-22T01:23:22.931Z,english_632.wav,0,pill,3602,0,0.0,-56.22391322,1.21249895
MIK07221023,166,3,2024-07-22T01:23:22.931Z,english_632.wav,0,pill,3602,1,0.1,-47.59423942,0.39515719
MIK07221023,166,3,2024-07-22T01:23:22.931Z,english_632.wav,0,pill,3602,2,0.2,91.93727259,1.8528852
MIK07221023,166,3,2024-07-22T01:23:22.931Z,english_632.wav,0,pill,3602,3,0.3,-33.89646621,1.67254104
MIK07221023,166,3,2024-07-22T01:23:22.931Z,english_632.wav,0,pill,3602,4,0.32341667,46.88387871,1.21014685
MIK07221023,167,3,2024-07-22T01:23:22.931Z,english_866.wav,0,peel,3344,0,0.0,-75.90204766,0.10539101
MIK07221023,167,3,2024-07-22T01:23:22.931Z,english_866.wav,0,peel,3344,1,0.1,-89.66881049,1.63294926
MIK07221023,167,3,2024-07-22T01:23:22.931Z,english_866.wav,0,peel,3344,2,0.2,-86.78535298,0.21421971
MIK07221023,167,3,2024-07-22T01:23:22.931Z,english_866.wav,0,peel,3344,3,0.3,50.96369643,1.47001367
MIK07221023,167,3,2024-07-22T01:23:22.931Z,english_866.wav,0,peel,3344,4,0.32341667,36.94157773,1.56453662
MIK07221023,168,3,2024-07-22T01:23:22.931Z,english_247.wav,0,peel,846,0,0.0,48.65693284,0.25539499
MIK07221023,168,3,2024-07-22T01:23:22.931Z,english_247.wav,0,peel,846,1,0.1,-27.64572099,1.09429421
MIK07221023,168,3,2024-07-22T01:23:22.931Z,english_247.wav,0,peel,846,2,0.2,-20.19701808,0.88115619
MIK07221023,168,3,2024-07-22T01:23:22.931Z,english_247.wav,0,peel,846,3,0.3,-10.74442668,1.97859338
MIK07221023,168,3,2024-07-22T01:23:22.931Z,english_247.wav,0,peel,846,4,0.32341667,91.42432082,0.10638235
MIK07221023,169,3,2024-07-22T01:23:22.931Z,english_718.wav,0,pill,1723,0,0.0,-62.54470118,0.40124114
MIK07221023,169,3,2024-07-22T01:23:22.931Z,english_718.wav,0,pill,1723,1,0.1,-40.70811043,0.49945062
MIK07221023,169,3,2024-07-22T01:23:22.931Z,english_718.wav,0,pill,1723,2,0.2,-11.25435391,1.54880463
MIK07221023,169,3,2024-07-22T01:23:22.931Z,english_718.wav,0,pill,1723,3,0.3,-68.52161814,0.39118497
MIK07221023,169,3,2024-07-22T01:23:22.931Z,english_718.wav,0,pill,1723,4,0.32341667,-77.89834334,0.07447668
MIK07221023,170,3,2024-07-22T01:23:22.931Z,english_225.wav,0,peel,647,0,0.0,66.72796839,1.97535322
MIK07221023,170,3,2024-07-22T01:23:22.931Z,english_225.wav,0,peel,647,1,0.1,3.03768966,1.18784527
MIK07221023,170,3,2024-07-22T01:23:22.931Z,english_225.wav,0,peel,647,2,0.2,-45.96345052,1.58393351
MIK07221023,170,3,2024-07-22T01:23:22.931Z,english_225.wav,0,peel,647,3,0.3,-88.14676012,1.17885171
MIK07221023,170,3,2024-07-22T01:23:22.931Z,english_225.wav,0,peel,647,4,0.32341667,46.76760659,1.387907
MIK07221023,171,3,2024-07-22T01:23:22.931Z,english_508.wav,0,pill,823,0,0.0,-21.23116318,1.79614382
MIK07221023,171,3,2024-07-22T01:23:22.931Z,english_508.wav,0,pill,823,1,0.1,-27.56583205,0.60449395
MIK07221023,171,3,2024-07-22T01:23:22.931Z,english_508.wav,0,pill,823,2,0.2,64.21774851,0.56582153
MIK07221023,171,3,2024-07-22T01:23:22.931Z,english_508.wav,0,pill,823,3,0.3,-9.24056951,1.01665474
MIK07221023,171,3,2024-07-22T01:23:22.931Z,english_508.wav,0,pill,823,4,0.32341667,-9.74670904,0.78905044
MIK07221023,172,3,2024-07-22T01:23:22.931Z,english_713.wav,0,peel,5244,0,0.0,18.77281956,1.04868626
MIK07221023,172,3,2024-07-22T01:23:22.931Z,english_713.wav,0,peel,5244,1,0.1,40.78610286,0.48332939
MIK07221023,172,3,2024-07-22T01:23:22.931Z,english_713.wav,0,peel,5244,2,0.2,84.18153491,0.83217717
MIK07221023,172,3,2024-07-22T01:23:22.931Z,english_713.wav,0,peel,5244,3,0.3,47.00827256,1.90318663
MIK07221023,172,3,2024-07-22T01:23:22.931Z,english_713.wav,0,peel,5244,4,0.32341667,66.01008384,0.50055362
MIK07221023,173,3,2024-07-22T01:23:22.931Z,english_912.wav,0,peel,415,0,0.0,-43.64864707,0.87210048
MIK07221023,173,3,2024-07-22T01:23:22.931Z,english_912.wav,0,peel,415,1,0.1,94.54433808,1.43243955
MIK07221023,173,3,2024-07-22T01:23:22.931Z,english_912.wav,0,peel,415,2,0.2,67.98324072,1.49899487
MIK07221023,173,3,2024-07-22T01:23:22.931Z,english_912.wav,0,peel,415,3,0.3,9.27329172,0.42663795
MIK07221023,173,3,2024-07-22T01:23:22.931Z,english_912.wav,0,peel,415,4,0.32341667,-55.44973818,0.19299009
MIK07221023,174,3,2024-07-22T01:23:22.931Z,english_473.wav,0,peel,513,0,0.0,2.94536382,1.14273616
MIK07221023,174,3,2024-07-22T01:23:22.931Z,english_473.wav,0,peel,513,1,0.1,67.15962,0.71228689
MIK07221023,174,3,2024-07-22T01:23:22.931Z,english_473.wav,0,peel,513,2,0.2,-20.48190634,1.20280034
MIK07221023,174,3,2024-07-22T01:23:22.931Z,english_473.wav,0,peel,513,3,0.3,20.58811131,0.94325649
MIK07221023,174,3,2024-07-22T01:23:22.931Z,english_473.wav,0,peel,513,4,0.32341667,-71.10919795,1.82149668
MIK07221023,175,3,2024-07-22T01:23:22.931Z,english_427.wav,0,pill,574,0,0.0,38.10585738,0.62221409
MIK07221023,175,3,2024-07-22T01:23:22.931Z,english_427.wav,0,pill,574,1,0.1,75.26959407,1.20145201
MIK07221023,175,3,2024-07-22T01:23:22.931Z,english_427.wav,0,pill,574,2,0.2,-92.48152235,0.18894815
MIK07221023,175,3,2024-07-22T01:23:22.931Z,english_427.wav,0,pill,574,3,0.3,-38.24940669,0.36527681
MIK07221023,175,3,2024-07-22T01:23:22.931Z,english_427.wav,0,pill,574,4,0.32341667,-41.67637111,0.02898627
MIK07221023,176,3,2024-07-22T01:23:22.931Z,english_845.wav,0,peel,830,0,0.0,-39.21264236,0.82761504
MIK07221023,176,3,2024-07-22T01:23:22.931Z,english_845.wav,0,peel,830,1,0.1,99.78041888,0.53375751
MIK07221023,176,3,2024-07-22T01:23:22.931Z,english_845.wav,0,peel,830,2,0.2,-59.29104422,1.24236426
MIK07221023,176,3,2024-07-22T01:23:22.931Z,english_845.wav,0,peel,830,3,0.3,57.0409613,1.27736464
MIK07221023,176,3,2024-07-22T01:23:22.931Z,english_845.wav,0,peel,830,4,0.32341667,-93.6361214,0.79024728
MIK07221023,177,3,2024-07-22T01:23:22.931Z,english_495.wav,0,pill,526,0,0.0,-5.58861003,1.32978923
MIK07221023,177,3,2024-07-22T01:23:22.931Z,english_495.wav,0,pill,526,1,0.1,8.95176437,0.81778757
MIK07221023,177,3,2024-07-22T01:23:22.931Z,english_495.wav,0,pill,526,2,0.2,39.42206983,0.66481361
MIK07221023,177,3,2024-07-22T01:23:22.931Z,english_495.wav,0,pill,526,3,0.3,-84.38976819,0.35850052
MIK07221023,177,3,2024-07-22T01:23:22.931Z,english_495.wav,0,pill,526,4,0.32341667,-2.90431636,0.23899864
MIK07221023,178,3,2024-07-22T01:23:22.931Z,english_413.wav,0,peel,1465,0,0.0,-9.66675054,1.82887045
MIK07221023,178,3,2024-07-22T01:23:22.931Z,english_413.wav,0,peel,1465,1,0.1,15.27504309,0.80668743
MIK07221023,178,3,2024-07-22T01:23:22.931Z,english_413.wav,0,peel,1465,2,0.2,-94.93171401,0.90586838
MIK07221023,178,3,2024-07-22T01:23:22.931Z,english_413.wav,0,peel,1465,3,0.3,-42.87800999,1.3937681
MIK07221023,178,3,2024-07-22T01:23:22.931Z,english_413.wav,0,peel,1465,4,0.32341667,-63.39385234,0.34165264
MIK07221023,179,3,2024-07-22T01:23:22.931Z,english_267.wav,0,peel,402,0,0.0,-83.13365237,1.47105267
MIK07221023,179,3,2024-07-22T01:23:22.931Z,english_267.wav,0,peel,402,1,0.1,76.30308178,0.87521108
MIK07221023,179,3,2024-07-22T01:23:22.931Z,english_267.wav,0,peel,402,2,0.2,53.87961391,1.04060287
MIK07221023,179,3,2024-07-22T01:23:22.931Z,english_267.wav,0,peel,402,3,0.3,62.72167491,0.25080793
MIK07221023,179,3,2024-07-22T01:23:22.931Z,english_267.wav,0,peel,402,4,0.32341667,-33.79574379,1.11989054
MIK07221023,180,3,2024-07-22T01:23:22.931Z,english_233.wav,0,pill,531,0,0.0,-3.83672366,0.89757337
MIK07221023,180,3,2024-07-22T01:23:22.931Z,english_233.wav,0,pill,531,1,0.1,-39.8423846,0.76715273
MIK07221023,180,3,2024-07-22T01:23:22.931Z,english_233.wav,0,pill,531,2,0.2,85.69163348,1.38961473
MIK07221023,180,3,2024-07-22T01:23:22.931Z,english_233.wav,0,pill,531,3,0.3,40.61484277,0.78787282
MIK07221023,180,3,2024-07-22T01:23:22.931Z,english_233.wav,0,pill,531,4,0.32341667,-44.9800047,0.48224738
MIK07221023,181,3,2024-07-22T01:23:22.931Z,english_433.wav,0,peel,388,0,0.0,-74.58178472,0.69852952
MIK07221023,181,3,2024-07-22T01:23:22.931Z,english_433.wav,0,peel,388,1,0.1,-50.00917691,1.92405883
MIK07221023,181,3,2024-07-22T01:23:22.931Z,english_433.wav,0,peel,388,2,0.2,48.18572343,0.3905825
MIK07221023,181,3,2024-07-22T01:23:22.931Z,english_433.wav,0,peel,388,3,0.3,-63.95387597,0.31453116
MIK07221023,181,3,2024-07-22T01:23:22.931Z,english_433.wav,0,peel,388,4,0.32341667,-68.91859183,1.4953114
MIK07221023,182,3,2024-07-22T01:23:22.931Z,english_960.wav,0,pill,630,0,0.0,35.80457434,0.79357899
MIK07221023,182,3,2024-07-22T01:23:22.931Z,english_960.wav,0,pill,630,1,0.1,-19.98469691,0.63900775
MIK07221023,182,3,2024-07-22T01:23:22.931Z,english_960.wav,0,pill,630,2,0.2,-8.88025322,1.83966222
MIK07221023,182,3,2024-07-22T01:23:22.931Z,english_960.wav,0,pill,630,3,0.3,6.59365348,1.05168668
MIK07221023,182,3,2024-07-22T01:23:22.931Z,english_960.wav,0,pill,630,4,0.32341667,64.0885905,1.66020449
MIK07221023,183,3,2024-07-22T01:23:22.931Z,english_964.wav,0,peel,746,0,0.0,11.04708611,0.74384055
MIK07221023,183,3,2024-07-22T01:23:22.931Z,english_964.wav,0,peel,746,1,0.1,-10.67848967,0.46038505
MIK07221023,183,3,2024-07-22T01:23:22.931Z,english_964.wav,0,peel,746,2,0.2,64.95328634,0.80934661
MIK07221023,183,3,2024-07-22T01:23:22.931Z,english_964.wav,0,peel,746,3,0.3,-78.10341524,1.94282647
MIK07221023,183,3,2024-07-22T01:23:22.931Z,english_964.wav,0,peel,746,4,0.32341667,-48.61651995,1.99482071
MIK07221023,184,3,2024-07-22T01:23:22.931Z,english_351.wav,0,peel,556,0,0.0,-56.55455818,0.98366365
MIK07221023,184,3,2024-07-22T01:23:22.931Z,english_351.wav,0,peel,556,1,0.1,-81.1333892,1.13800808
MIK07221023,184,3,2024-07-22T01:23:22.931Z,english_351.wav,0,peel,556,2,0.2,70.95296343,1.04915948
MIK07221023,184,3,2024-07-22T01:23:22.931Z,english_351.wav,0,peel,556,3,0.3,-82.79021433,1.70890302
MIK07221023,184,3,2024-07-22T01:23:22.931Z,english_351.wav,0,peel,556,4,0.32341667,-21.34496407,1.83807055
MIK07221023,185,3,2024-07-22T01:23:22.931Z,english_968.wav,0,pill,461,0,0.0,-36.76350372,0.52322451
MIK07221023,185,3,2024-07-22T01:23:22.931Z,english_968.wav,0,pill,461,1,0.1,-99.8991193,0.66419732
MIK07221023,185,3,2024-07-22T01:23:22.931Z,english_968.wav,0,pill,461,2,0.2,27.503089,0.44232096
MIK07221023,185,3,2024-07-22T01:23:22.931Z,english_968.wav,0,pill,461,3,0.3,-34.85106147,1.90778707
MIK07221023,185,3,2024-07-22T01:23:22.931Z,english_968.wav,0,pill,461,4,0.32341667,68.2869663,0.59652698
MIK07221023,186,3,2024-07-22T01:23:22.931Z,english_341.wav,0,pill,632,0,0.0,-3.29192029,0.92007635
MIK07221023,186,3,2024-07-22T01:23:22.931Z,english_341.wav,0,pill,632,1,0.1,-63.07334109,0.76766635
MIK07221023,186,3,2024-07-22T01:23:22.931Z,english_341.wav,0,pill,632,2,0.2,-52.81319379,0.00478881
MIK07221023,186,3,2024-07-22T01:23:22.931Z,english_341.wav,0,pill,632,3,0.3,47.65296252,0.69804387
MIK07221023,186,3,2024-07-22T01:23:22.931Z,english_341.wav,0,pill,632,4,0.32341667,-2.67842738,0.15231077
MIK07221023,187,3,2024-07-22T01:23:22.931Z,english_610.wav,0,pill,476,0,0.0,-14.96432812,0.5672697
MIK07221023,187,3,2024-07-22T01:23:22.931Z,english_610.wav,0,pill,476,1,0.1,48.51886955,0.75156182
MIK07221023,187,3,2024-07-22T01:23:22.931Z,english_610.wav,0,pill,476,2,0.2,47.07358548,0.38846335
MIK07221023,187,3,2024-07-22T01:23:22.931Z,english_610.wav,0,pill,476,3,0.3,17.30383174,1.52072292
MIK07221023,187,3,2024-07-22T01:23:22.931Z,english_610.wav,0,pill,476,4,0.32341667,1.51764356,1.56024836
MIK07221023,188,3,2024-07-22T01:23:22.931Z,english_838.wav,0,peel,2938,0,0.0,-46.43239877,0.57293762
MIK07221023,188,3,2024-07-22T01:23:22.931Z,english_838.wav,0,peel,2938,1,0.1,-0.77549132,1.65450135
MIK07221023,188,3,2024-07-22T01:23:22.931Z,english_838.wav,0,peel,2938,2,0.2,-47.56158581,0.30574951
MIK07221023,188,3,2024-07-22T01:23:22.931Z,english_838.wav,0,peel,2938,3,0.3,7.18116474,0.96315644
MIK07221023,188,3,2024-07-22T01:23:22.931Z,english_838.wav,0,peel,2938,4,0.32341667,-87.38880816,0.83017899
MIK07221023,189,3,2024-07-22T01:23:22.931Z,english_953.wav,0,pill,1000,0,0.0,-16.02430182,0.31806788
MIK07221023,189,3,2024-07-22T01:23:22.931Z,english_953.wav,0,pill,1000,1,0.1,29.58660593,0.5983964
MIK07221023,189,3,2024-07-22T01:23:22.931Z,english_953.wav,0,pill,1000,2,0.2,-69.77021268,1.47459901
MIK07221023,189,3,2024-07-22T01:23:22.931Z,english_953.wav,0,pill,1000,3,0.3,10.24378989,1.63555671
MIK07221023,189,3,2024-07-22T01:23:22.931Z,english_953.wav,0,pill,1000,4,0.32341667,-68.66835117,1.74756834
MIK07221023,190,3,2024-07-22T01:23:22.931Z,english_428.wav,0,pill,406,0,0.0,-98.34466569,1.83106884
MIK07221023,190,3,2024-07-22T01:23:22.931Z,english_428.wav,0,pill,406,1,0.1,-10.51162175,1.34345266
MIK07221023,190,3,2024-07-22T01:23:22.931Z,english_428.wav,0,pill,406,2,0.2,97.93427859,0.65853672
MIK07221023,190,3,2024-07-22T01:23:22.931Z,english_428.wav,0,pill,406,3,0.3,35.61870537,1.28105878
MIK07221023,190,3,2024-07-22T01:23:22.931Z,english_428.wav,0,pill,406,4,0.32341667,-12.49352836,0.15324236
MIK07221023,191,3,2024-07-22T01:23:22.931Z,english_499.wav,0,pill,4641,0,0.0,-62.75547094,0.4212983
MIK07221023,191,3,2024-07-22T01:23:22.931Z,english_499.wav,0,pill,4641,1,0.1,28.73361796,1.54082224
MIK07221023,191,3,2024-07-22T01:23:22.931Z,english_499.wav,0,pill,4641,2,0.2,-71.86053711,1.07919976
MIK07221023,191,3,2024-07-22T01:23:22.931Z,english_499.wav,0,pill,4641,3,0.3,-44.40399931,1.20425095
MIK07221023,191,3,2024-07-22T01:23:22.931Z,english_499.wav,0,pill,4641,4,0.32341667,-2.72335033,0.4618338
MIK07221023,192,3,2024-07-22T01:23:22.931Z,english_650.wav,0,pill,959,0,0.0,-14.34164867,1.10695192
MIK07221023,192,3,2024-07-22T01:23:22.931Z,english_650.wav,0,pill,959,1,0.1,-59.47569919,1.2442548
MIK07221023,192,3,2024-07-22T01:23:22.931Z,english_650.wav,0,pill,959,2,0.2,-47.0995584,0.31281267
MIK07221023,192,3,2024-07-22T01:23:22.931Z,english_650.wav,0,pill,959,3,0.3,-55.25841156,1.9869399
MIK07221023,192,3,2024-07-22T01:23:22.931Z,english_650.wav,0,pill,959,4,0.32341667,83.92345375,1.10607629
MIK07221023,193,3,2024-07-22T01:23:22.931Z,english_315.wav,0,pill,836,0,0.0,3.76150079,1.04293113
MIK07221023,193,3,2024-07-22T01:23:22.931Z,english_315.wav,0,pill,836,1,0.1,4.93204799,0.55537984
MIK07221023,193,3,2024-07-22T01:23:22.931Z,english_315.wav,0,pill,836,2,0.2,-81.53480532,1.13024782
MIK07221023,193,3,2024-07-22T01:23:22.931Z,english_315.wav,0,pill,836,3,0.3,45.94577355,1.06792043
MIK07221023,193,3,2024-07-22T01:23:22.931Z,english_315.wav,0,pill,836,4,0.32341667,-55.96194099,1.80369969
MIK07221023,194,3,2024-07-22T01:23:22.931Z,english_682.wav,0,pill,6124,0,0.0,-19.80167737,1.6131825
MIK07221023,194,3,2024-07-22T01:23:22.931Z,english_682.wav,0,pill,6124,1,0.1,-30.98220326,1.03205672
MIK07221023,194,3,2024-07-22T01:23:22.931Z,english_682.wav,0,pill,6124,2,0.2,26.07010201,1.08357256
MIK07221023,194,3,2024-07-22T01:23:22.931Z,english_682.wav,0,pill,6124,3,0.3,-7.79776739,1.70642947
MIK07221023,194,3,2024-07-22T01:23:22.931Z,english_682.wav,0,pill,6124,4,0.32341667,-10.9148898,0.86858281
MIK07221023,195,3,2024-07-22T01:23:22.931Z,english_396.wav,0,peel,2349,0,0.0,2.39126912,1.48231007
MIK07221023,195,3,2024-07-22T01:23:22.931Z,english_396.wav,0,peel,2349,1,0.1,-38.95035948,0.85829723
MIK07221023,195,3,2024-07-22T01:23:22.931Z,english_396.wav,0,peel,2349,2,0.2,78.31320688,1.16655306
MIK07221023,195,3,2024-07-22T01:23:22.931Z,english_396.wav,0,peel,2349,3,0.3,16.98024706,0.51680164
MIK07221023,195,3,2024-07-22T01:23:22.931Z,english_396.wav,0,peel,2349,4,0.32341667,44.66397079,1.5133775
MIK07221023,196,3,2024-07-22T01:23:22.931Z,english_612.wav,0,pill,714,0,0.0,-84.32217164,1.34068621
MIK07221023,196,3,2024-07-22T01:23:22.931Z,english_612.wav,0,pill,714,1,0.1,36.55311424,0.03443149
MIK07221023,196,3,2024-07-22T01:23:22.931Z,english_612.wav,0,pill,714,2,0.2,92.38334081,0.45903509
MIK07221023,196,3,2024-07-22T01:23:22.931Z,english_612.wav,0,pill,714,3,0.3,11.68953794,0.60209198
MIK07221023,196,3,2024-07-22T01:23:22.931Z,english_612.wav,0,pill,714,4,0.32341667,43.3279226,0.29533154
MIK07221023,197,3,2024-07-22T01:23:22.931Z,english_767.wav,0,pill,5534,0,0.0,29.63321135,0.17563718
MIK07221023,197,3,2024-07-22T01:23:22.931Z,english_767.wav,0,pill,5534,1,0.1,-31.63783795,0.61981002
MIK07221023,197,3,2024-07-22T01:23:22.931Z,english_767.wav,0,pill,5534,2,0.2,56.53254366,1.38773128
MIK07221023,197,3,2024-07-22T01:23:22.931Z,english_767.wav,0,pill,5534,3,0.3,52.69149806,1.37795514
MIK07221023,197,3,2024-07-22T01:23:22.931Z,english_767.wav,0,pill,5534,4,0.32341667,-0.8536295,1.97315338
MIK07221023,198,3,2024-07-22T01:23:22.931Z,english_801.wav,0,pill,867,0,0.0,66.50571345,0.19311528
MIK07221023,198,3,2024-07-22T01:23:22.931Z,english_801.wav,0,pill,867,1,0.1,-53.03260979,0.48683601
MIK07221023,198,3,2024-07-22T01:23:22.931Z,english_801.wav,0,pill,867,2,0.2,-3.89459646,1.16293258
MIK07221023,198,3,2024-07-22T01:23:22.931Z,english_801.wav,0,pill,867,3,0.3,8.32951864,1.55734707
