subj,trial,block,date,stim,stim_order,response,rt,age,english,language,sex,param_index,segment,pitch,stretch
MOT,0,0,2024-06-24T03:02:19.407Z,english_19.wav,0,pill,1756,25,4,Japanese,m,0,0.0,51.84788699,0.3981759
MOT,0,0,2024-06-24T03:02:19.407Z,english_19.wav,0,pill,1756,25,4,Japanese,m,1,0.1,59.68091475,1.61217409
MOT,0,0,2024-06-24T03:02:19.407Z,english_19.wav,0,pill,1756,25,4,Japanese,m,2,0.2,-27.71167756,0.35158216
MOT,0,0,2024-06-24T03:02:19.407Z,english_19.wav,0,pill,1756,25,4,Japanese,m,3,0.3,-29.56443604,0.8770992
MOT,0,0,2024-06-24T03:02:19.407Z,english_19.wav,0,pill,1756,25,4,Japanese,m,4,0.32341667,-58.55228515,0.51670124
MOT,1,0,2024-06-24T03:02:19.407Z,english_919.wav,0,pill,1958,25,4,Japanese,m,0,0.0,-78.03270024,1.18744007
MOT,1,0,2024-06-24T03:02:19.407Z,english_919.wav,0,pill,1958,25,4,Japanese,m,1,0.1,24.9634274,0.32639994
MOT,1,0,2024-06-24T03:02:19.407Z,english_919.wav,0,pill,1958,25,4,Japanese,m,2,0.2,-36.24618286,1.14830442
MOT,1,0,2024-06-24T03:02:19.407Z,english_919.wav,0,pill,1958,25,4,Japanese,m,3,0.3,-67.38261266,0.75322619
MOT,1,0,2024-06-24T03:02:19.407Z,english_919.wav,0,pill,1958,25,4,Japanese,m,4,0.32341667,86.21803917,0.69239757
MOT,2,0,2024-06-24T03:02:19.407Z,english_546.wav,0,pill,4358,25,4,Japanese,m,0,0.0,81.21590514,1.56657823
MOT,2,0,2024-06-24T03:02:19.407Z,english_546.wav,0,pill,4358,25,4,Japanese,m,1,0.1,75.01018689,0.84038259
MOT,2,0,2024-06-24T03:02:19.407Z,english_546.wav,0,pill,4358,25,4,Japanese,m,2,0.2,15.56226302,0.00684501
MOT,2,0,2024-06-24T03:02:19.407Z,english_546.wav,0,pill,4358,25,4,Japanese,m,3,0.3,48.30886192,1.68157273
MOT,2,0,2024-06-24T03:02:19.407Z,english_546.wav,0,pill,4358,25,4,Japanese,m,4,0.32341667,18.80923499,1.09409739
MOT,3,0,2024-06-24T03:02:19.407Z,english_69.wav,0,pill,1567,25,4,Japanese,m,0,0.0,-57.18730239,0.11878381
MOT,3,0,2024-06-24T03:02:19.407Z,english_69.wav,0,pill,1567,25,4,Japanese,m,1,0.1,16.22212469,1.00797921
MOT,3,0,2024-06-24T03:02:19.407Z,english_69.wav,0,pill,1567,25,4,Japanese,m,2,0.2,-44.28071093,0.42082068
MOT,3,0,2024-06-24T03:02:19.407Z,english_69.wav,0,pill,1567,25,4,Japanese,m,3,0.3,-70.80378082,0.50205716
MOT,3,0,2024-06-24T03:02:19.407Z,english_69.wav,0,pill,1567,25,4,Japanese,m,4,0.32341667,-58.3439892,0.68985838
MOT,4,0,2024-06-24T03:02:19.407Z,english_766.wav,0,peel,896,25,4,Japanese,m,0,0.0,-86.57417509,1.21737292
MOT,4,0,2024-06-24T03:02:19.407Z,english_766.wav,0,peel,896,25,4,Japanese,m,1,0.1,-67.75686223,1.61484435
MOT,4,0,2024-06-24T03:02:19.407Z,english_766.wav,0,peel,896,25,4,Japanese,m,2,0.2,74.21258041,1.47872362
MOT,4,0,2024-06-24T03:02:19.407Z,english_766.wav,0,peel,896,25,4,Japanese,m,3,0.3,65.20164426,1.81064247
MOT,4,0,2024-06-24T03:02:19.407Z,english_766.wav,0,peel,896,25,4,Japanese,m,4,0.32341667,-26.41371036,1.37776493
MOT,5,0,2024-06-24T03:02:19.407Z,english_156.wav,0,pill,1326,25,4,Japanese,m,0,0.0,93.86570948,0.27803573
MOT,5,0,2024-06-24T03:02:19.407Z,english_156.wav,0,pill,1326,25,4,Japanese,m,1,0.1,63.74639013,0.76121308
MOT,5,0,2024-06-24T03:02:19.407Z,english_156.wav,0,pill,1326,25,4,Japanese,m,2,0.2,-97.10775444,0.98438609
MOT,5,0,2024-06-24T03:02:19.407Z,english_156.wav,0,pill,1326,25,4,Japanese,m,3,0.3,99.76737427,0.34877861
MOT,5,0,2024-06-24T03:02:19.407Z,english_156.wav,0,pill,1326,25,4,Japanese,m,4,0.32341667,11.29868277,0.58154428
MOT,6,0,2024-06-24T03:02:19.407Z,english_674.wav,0,peel,359,25,4,Japanese,m,0,0.0,-38.60253285,0.25488683
MOT,6,0,2024-06-24T03:02:19.407Z,english_674.wav,0,peel,359,25,4,Japanese,m,1,0.1,46.14948962,1.80679583
MOT,6,0,2024-06-24T03:02:19.407Z,english_674.wav,0,peel,359,25,4,Japanese,m,2,0.2,-49.76414787,1.59420413
MOT,6,0,2024-06-24T03:02:19.407Z,english_674.wav,0,peel,359,25,4,Japanese,m,3,0.3,-66.16492387,1.25714797
MOT,6,0,2024-06-24T03:02:19.407Z,english_674.wav,0,peel,359,25,4,Japanese,m,4,0.32341667,28.37583826,1.20557216
MOT,7,0,2024-06-24T03:02:19.407Z,english_868.wav,0,pill,1074,25,4,Japanese,m,0,0.0,-32.61379415,0.76599538
MOT,7,0,2024-06-24T03:02:19.407Z,english_868.wav,0,pill,1074,25,4,Japanese,m,1,0.1,-13.61007492,0.34348987
MOT,7,0,2024-06-24T03:02:19.407Z,english_868.wav,0,pill,1074,25,4,Japanese,m,2,0.2,-35.23756027,0.26787397
MOT,7,0,2024-06-24T03:02:19.407Z,english_868.wav,0,pill,1074,25,4,Japanese,m,3,0.3,83.12333319,0.46343078
MOT,7,0,2024-06-24T03:02:19.407Z,english_868.wav,0,pill,1074,25,4,Japanese,m,4,0.32341667,62.80865362,1.59158725
MOT,8,0,2024-06-24T03:02:19.407Z,english_614.wav,0,peel,308,25,4,Japanese,m,0,0.0,78.57791509,1.76663636
MOT,8,0,2024-06-24T03:02:19.407Z,english_614.wav,0,peel,308,25,4,Japanese,m,1,0.1,-6.15631212,0.7337869
MOT,8,0,2024-06-24T03:02:19.407Z,english_614.wav,0,peel,308,25,4,Japanese,m,2,0.2,-15.34092719,1.62880485
MOT,8,0,2024-06-24T03:02:19.407Z,english_614.wav,0,peel,308,25,4,Japanese,m,3,0.3,21.91351344,0.61213133
MOT,8,0,2024-06-24T03:02:19.407Z,english_614.wav,0,peel,308,25,4,Japanese,m,4,0.32341667,-10.50820757,0.41097232
MOT,9,0,2024-06-24T03:02:19.407Z,english_750.wav,0,peel,396,25,4,Japanese,m,0,0.0,54.68497377,0.76623701
MOT,9,0,2024-06-24T03:02:19.407Z,english_750.wav,0,peel,396,25,4,Japanese,m,1,0.1,0.91792919,1.58478782
MOT,9,0,2024-06-24T03:02:19.407Z,english_750.wav,0,peel,396,25,4,Japanese,m,2,0.2,-67.69423006,0.74884996
MOT,9,0,2024-06-24T03:02:19.407Z,english_750.wav,0,peel,396,25,4,Japanese,m,3,0.3,20.92985273,0.15814923
MOT,9,0,2024-06-24T03:02:19.407Z,english_750.wav,0,peel,396,25,4,Japanese,m,4,0.32341667,-39.60032316,1.58320499
MOT,10,0,2024-06-24T03:02:19.407Z,english_814.wav,0,peel,331,25,4,Japanese,m,0,0.0,-63.32480856,1.93717082
MOT,10,0,2024-06-24T03:02:19.407Z,english_814.wav,0,peel,331,25,4,Japanese,m,1,0.1,34.42157774,0.66627456
MOT,10,0,2024-06-24T03:02:19.407Z,english_814.wav,0,peel,331,25,4,Japanese,m,2,0.2,-1.27362148,1.33718687
MOT,10,0,2024-06-24T03:02:19.407Z,english_814.wav,0,peel,331,25,4,Japanese,m,3,0.3,11.18388565,1.12749716
MOT,10,0,2024-06-24T03:02:19.407Z,english_814.wav,0,peel,331,25,4,Japanese,m,4,0.32341667,-9.56708644,0.66623879
MOT,11,0,2024-06-24T03:02:19.407Z,english_856.wav,0,pill,1521,25,4,Japanese,m,0,0.0,-44.08940674,1.51880133
MOT,11,0,2024-06-24T03:02:19.407Z,english_856.wav,0,pill,1521,25,4,Japanese,m,1,0.1,-25.77644107,0.99524475
MOT,11,0,2024-06-24T03:02:19.407Z,english_856.wav,0,pill,1521,25,4,Japanese,m,2,0.2,6.39263247,1.11391415
MOT,11,0,2024-06-24T03:02:19.407Z,english_856.wav,0,pill,1521,25,4,Japanese,m,3,0.3,92.67536145,0.95575529
MOT,11,0,2024-06-24T03:02:19.407Z,english_856.wav,0,pill,1521,25,4,Japanese,m,4,0.32341667,45.15991817,1.02944292
MOT,12,0,2024-06-24T03:02:19.407Z,english_483.wav,0,pill,1278,25,4,Japanese,m,0,0.0,-5.76716701,0.46419013
MOT,12,0,2024-06-24T03:02:19.407Z,english_483.wav,0,pill,1278,25,4,Japanese,m,1,0.1,70.49761143,1.51640771
MOT,12,0,2024-06-24T03:02:19.407Z,english_483.wav,0,pill,1278,25,4,Japanese,m,2,0.2,-45.60331281,0.16811565
MOT,12,0,2024-06-24T03:02:19.407Z,english_483.wav,0,pill,1278,25,4,Japanese,m,3,0.3,83.6717315,0.53401791
MOT,12,0,2024-06-24T03:02:19.407Z,english_483.wav,0,pill,1278,25,4,Japanese,m,4,0.32341667,-49.24362833,1.0404632
MOT,13,0,2024-06-24T03:02:19.407Z,english_683.wav,0,peel,334,25,4,Japanese,m,0,0.0,-73.37543508,1.70409633
MOT,13,0,2024-06-24T03:02:19.407Z,english_683.wav,0,peel,334,25,4,Japanese,m,1,0.1,66.4080647,1.25556383
MOT,13,0,2024-06-24T03:02:19.407Z,english_683.wav,0,peel,334,25,4,Japanese,m,2,0.2,46.46812351,0.87554738
MOT,13,0,2024-06-24T03:02:19.407Z,english_683.wav,0,peel,334,25,4,Japanese,m,3,0.3,71.67755016,1.32863005
MOT,13,0,2024-06-24T03:02:19.407Z,english_683.wav,0,peel,334,25,4,Japanese,m,4,0.32341667,2.86253031,0.20364682
MOT,14,0,2024-06-24T03:02:19.407Z,english_242.wav,0,pill,613,25,4,Japanese,m,0,0.0,26.44185099,0.44763058
MOT,14,0,2024-06-24T03:02:19.407Z,english_242.wav,0,pill,613,25,4,Japanese,m,1,0.1,44.29547205,1.06541359
MOT,14,0,2024-06-24T03:02:19.407Z,english_242.wav,0,pill,613,25,4,Japanese,m,2,0.2,-3.86423299,0.64111919
MOT,14,0,2024-06-24T03:02:19.407Z,english_242.wav,0,pill,613,25,4,Japanese,m,3,0.3,60.29108386,0.35225786
MOT,14,0,2024-06-24T03:02:19.407Z,english_242.wav,0,pill,613,25,4,Japanese,m,4,0.32341667,18.66576556,1.0072971
MOT,15,0,2024-06-24T03:02:19.407Z,english_107.wav,0,peel,1265,25,4,Japanese,m,0,0.0,-19.24931684,0.69122185
MOT,15,0,2024-06-24T03:02:19.407Z,english_107.wav,0,peel,1265,25,4,Japanese,m,1,0.1,24.04874113,0.13674094
MOT,15,0,2024-06-24T03:02:19.407Z,english_107.wav,0,peel,1265,25,4,Japanese,m,2,0.2,59.01955179,1.47608642
MOT,15,0,2024-06-24T03:02:19.407Z,english_107.wav,0,peel,1265,25,4,Japanese,m,3,0.3,49.74315823,1.52525824
MOT,15,0,2024-06-24T03:02:19.407Z,english_107.wav,0,peel,1265,25,4,Japanese,m,4,0.32341667,-75.23844627,0.11985114
MOT,16,0,2024-06-24T03:02:19.407Z,english_531.wav,0,pill,1312,25,4,Japanese,m,0,0.0,-79.40575395,0.23141906
MOT,16,0,2024-06-24T03:02:19.407Z,english_531.wav,0,pill,1312,25,4,Japanese,m,1,0.1,24.69139357,1.34739197
MOT,16,0,2024-06-24T03:02:19.407Z,english_531.wav,0,pill,1312,25,4,Japanese,m,2,0.2,31.85465478,0.44473315
MOT,16,0,2024-06-24T03:02:19.407Z,english_531.wav,0,pill,1312,25,4,Japanese,m,3,0.3,0.37788074,1.31624907
MOT,16,0,2024-06-24T03:02:19.407Z,english_531.wav,0,pill,1312,25,4,Japanese,m,4,0.32341667,-42.85922685,0.82105614
MOT,17,0,2024-06-24T03:02:19.407Z,english_880.wav,0,peel,1759,25,4,Japanese,m,0,0.0,3.17154152,0.81183988
MOT,17,0,2024-06-24T03:02:19.407Z,english_880.wav,0,peel,1759,25,4,Japanese,m,1,0.1,-74.02271749,1.44061269
MOT,17,0,2024-06-24T03:02:19.407Z,english_880.wav,0,peel,1759,25,4,Japanese,m,2,0.2,46.15952764,0.42884863
MOT,17,0,2024-06-24T03:02:19.407Z,english_880.wav,0,peel,1759,25,4,Japanese,m,3,0.3,4.14106927,1.93838261
MOT,17,0,2024-06-24T03:02:19.407Z,english_880.wav,0,peel,1759,25,4,Japanese,m,4,0.32341667,26.36707366,1.4503687
MOT,18,0,2024-06-24T03:02:19.407Z,english_662.wav,0,pill,503,25,4,Japanese,m,0,0.0,-34.20942979,0.58122658
MOT,18,0,2024-06-24T03:02:19.407Z,english_662.wav,0,pill,503,25,4,Japanese,m,1,0.1,-64.9220759,0.35407044
MOT,18,0,2024-06-24T03:02:19.407Z,english_662.wav,0,pill,503,25,4,Japanese,m,2,0.2,-46.13526655,1.02300599
MOT,18,0,2024-06-24T03:02:19.407Z,english_662.wav,0,pill,503,25,4,Japanese,m,3,0.3,16.61128262,0.09808433
MOT,18,0,2024-06-24T03:02:19.407Z,english_662.wav,0,pill,503,25,4,Japanese,m,4,0.32341667,-72.42442326,0.71975239
MOT,19,0,2024-06-24T03:02:19.407Z,english_549.wav,0,peel,1086,25,4,Japanese,m,0,0.0,80.71270499,0.69011393
MOT,19,0,2024-06-24T03:02:19.407Z,english_549.wav,0,peel,1086,25,4,Japanese,m,1,0.1,-71.31396277,1.1141308
MOT,19,0,2024-06-24T03:02:19.407Z,english_549.wav,0,peel,1086,25,4,Japanese,m,2,0.2,48.34518996,0.72072674
MOT,19,0,2024-06-24T03:02:19.407Z,english_549.wav,0,peel,1086,25,4,Japanese,m,3,0.3,-66.07502609,0.60045359
MOT,19,0,2024-06-24T03:02:19.407Z,english_549.wav,0,peel,1086,25,4,Japanese,m,4,0.32341667,-52.28087662,0.77200176
MOT,20,0,2024-06-24T03:02:19.407Z,english_580.wav,0,pill,1582,25,4,Japanese,m,0,0.0,92.13406767,1.93694744
MOT,20,0,2024-06-24T03:02:19.407Z,english_580.wav,0,pill,1582,25,4,Japanese,m,1,0.1,-85.58685866,0.28773753
MOT,20,0,2024-06-24T03:02:19.407Z,english_580.wav,0,pill,1582,25,4,Japanese,m,2,0.2,57.10945482,0.86433335
MOT,20,0,2024-06-24T03:02:19.407Z,english_580.wav,0,pill,1582,25,4,Japanese,m,3,0.3,32.92004132,0.96651265
MOT,20,0,2024-06-24T03:02:19.407Z,english_580.wav,0,pill,1582,25,4,Japanese,m,4,0.32341667,52.08708517,1.25003658
MOT,21,0,2024-06-24T03:02:19.407Z,english_344.wav,0,peel,412,25,4,Japanese,m,0,0.0,-81.18103124,1.80730522
MOT,21,0,2024-06-24T03:02:19.407Z,english_344.wav,0,peel,412,25,4,Japanese,m,1,0.1,-15.12635331,1.30606229
MOT,21,0,2024-06-24T03:02:19.407Z,english_344.wav,0,peel,412,25,4,Japanese,m,2,0.2,92.11407185,0.89739403
MOT,21,0,2024-06-24T03:02:19.407Z,english_344.wav,0,peel,412,25,4,Japanese,m,3,0.3,-26.28325028,0.17834637
MOT,21,0,2024-06-24T03:02:19.407Z,english_344.wav,0,peel,412,25,4,Japanese,m,4,0.32341667,-10.89648072,0.48618419
MOT,22,0,2024-06-24T03:02:19.407Z,english_244.wav,0,peel,495,25,4,Japanese,m,0,0.0,-70.20374383,1.65134166
MOT,22,0,2024-06-24T03:02:19.407Z,english_244.wav,0,peel,495,25,4,Japanese,m,1,0.1,67.84882107,1.23738837
MOT,22,0,2024-06-24T03:02:19.407Z,english_244.wav,0,peel,495,25,4,Japanese,m,2,0.2,0.61676271,0.90147553
MOT,22,0,2024-06-24T03:02:19.407Z,english_244.wav,0,peel,495,25,4,Japanese,m,3,0.3,-96.58934439,1.79293216
MOT,22,0,2024-06-24T03:02:19.407Z,english_244.wav,0,peel,495,25,4,Japanese,m,4,0.32341667,-77.46985837,1.15013727
MOT,23,0,2024-06-24T03:02:19.407Z,english_602.wav,0,pill,795,25,4,Japanese,m,0,0.0,-53.18857274,1.95117352
MOT,23,0,2024-06-24T03:02:19.407Z,english_602.wav,0,pill,795,25,4,Japanese,m,1,0.1,-52.96167371,1.1427253
MOT,23,0,2024-06-24T03:02:19.407Z,english_602.wav,0,pill,795,25,4,Japanese,m,2,0.2,38.20784676,1.10694813
MOT,23,0,2024-06-24T03:02:19.407Z,english_602.wav,0,pill,795,25,4,Japanese,m,3,0.3,46.0178344,0.8717932
MOT,23,0,2024-06-24T03:02:19.407Z,english_602.wav,0,pill,795,25,4,Japanese,m,4,0.32341667,78.11630752,0.71626065
MOT,24,0,2024-06-24T03:02:19.407Z,english_727.wav,0,peel,117,25,4,Japanese,m,0,0.0,86.20347479,1.33530257
MOT,24,0,2024-06-24T03:02:19.407Z,english_727.wav,0,peel,117,25,4,Japanese,m,1,0.1,12.26210304,1.85547333
MOT,24,0,2024-06-24T03:02:19.407Z,english_727.wav,0,peel,117,25,4,Japanese,m,2,0.2,5.59218777,1.19683436
MOT,24,0,2024-06-24T03:02:19.407Z,english_727.wav,0,peel,117,25,4,Japanese,m,3,0.3,-46.39280156,1.89207751
MOT,24,0,2024-06-24T03:02:19.407Z,english_727.wav,0,peel,117,25,4,Japanese,m,4,0.32341667,21.79775503,1.05019022
MOT,25,0,2024-06-24T03:02:19.407Z,english_148.wav,0,pill,448,25,4,Japanese,m,0,0.0,-15.87588743,0.13468567
MOT,25,0,2024-06-24T03:02:19.407Z,english_148.wav,0,pill,448,25,4,Japanese,m,1,0.1,66.05332506,1.11017862
MOT,25,0,2024-06-24T03:02:19.407Z,english_148.wav,0,pill,448,25,4,Japanese,m,2,0.2,50.59551539,0.42983488
MOT,25,0,2024-06-24T03:02:19.407Z,english_148.wav,0,pill,448,25,4,Japanese,m,3,0.3,-59.45276716,0.2729575
MOT,25,0,2024-06-24T03:02:19.407Z,english_148.wav,0,pill,448,25,4,Japanese,m,4,0.32341667,58.4155276,0.65396017
MOT,26,0,2024-06-24T03:02:19.407Z,english_442.wav,0,peel,416,25,4,Japanese,m,0,0.0,-5.21319176,1.35819452
MOT,26,0,2024-06-24T03:02:19.407Z,english_442.wav,0,peel,416,25,4,Japanese,m,1,0.1,-16.23989513,1.66019663
MOT,26,0,2024-06-24T03:02:19.407Z,english_442.wav,0,peel,416,25,4,Japanese,m,2,0.2,-36.77315909,0.51170704
MOT,26,0,2024-06-24T03:02:19.407Z,english_442.wav,0,peel,416,25,4,Japanese,m,3,0.3,-33.51446291,1.6590932
MOT,26,0,2024-06-24T03:02:19.407Z,english_442.wav,0,peel,416,25,4,Japanese,m,4,0.32341667,-25.07447919,0.97998973
MOT,27,0,2024-06-24T03:02:19.407Z,english_431.wav,0,peel,182,25,4,Japanese,m,0,0.0,-28.91437381,1.3282391
MOT,27,0,2024-06-24T03:02:19.407Z,english_431.wav,0,peel,182,25,4,Japanese,m,1,0.1,30.6479342,1.9405757
MOT,27,0,2024-06-24T03:02:19.407Z,english_431.wav,0,peel,182,25,4,Japanese,m,2,0.2,41.25713347,1.67607787
MOT,27,0,2024-06-24T03:02:19.407Z,english_431.wav,0,peel,182,25,4,Japanese,m,3,0.3,9.19018397,0.62213613
MOT,27,0,2024-06-24T03:02:19.407Z,english_431.wav,0,peel,182,25,4,Japanese,m,4,0.32341667,-61.77590044,0.50881411
MOT,28,0,2024-06-24T03:02:19.407Z,english_516.wav,0,pill,334,25,4,Japanese,m,0,0.0,-37.49134217,0.47483782
MOT,28,0,2024-06-24T03:02:19.407Z,english_516.wav,0,pill,334,25,4,Japanese,m,1,0.1,56.61653956,1.0523806
MOT,28,0,2024-06-24T03:02:19.407Z,english_516.wav,0,pill,334,25,4,Japanese,m,2,0.2,60.98574822,0.59798137
MOT,28,0,2024-06-24T03:02:19.407Z,english_516.wav,0,pill,334,25,4,Japanese,m,3,0.3,-0.52682824,0.6957238
MOT,28,0,2024-06-24T03:02:19.407Z,english_516.wav,0,pill,334,25,4,Japanese,m,4,0.32341667,-50.41932267,1.76373844
MOT,29,0,2024-06-24T03:02:19.407Z,english_740.wav,0,peel,438,25,4,Japanese,m,0,0.0,17.63845752,0.65519257
MOT,29,0,2024-06-24T03:02:19.407Z,english_740.wav,0,peel,438,25,4,Japanese,m,1,0.1,36.88289119,0.996231
MOT,29,0,2024-06-24T03:02:19.407Z,english_740.wav,0,peel,438,25,4,Japanese,m,2,0.2,-63.85348159,0.85360158
MOT,29,0,2024-06-24T03:02:19.407Z,english_740.wav,0,peel,438,25,4,Japanese,m,3,0.3,-97.96670479,1.42654033
MOT,29,0,2024-06-24T03:02:19.407Z,english_740.wav,0,peel,438,25,4,Japanese,m,4,0.32341667,43.035587,1.01691569
MOT,30,0,2024-06-24T03:02:19.407Z,english_93.wav,0,pill,500,25,4,Japanese,m,0,0.0,-63.58558414,0.84265136
MOT,30,0,2024-06-24T03:02:19.407Z,english_93.wav,0,pill,500,25,4,Japanese,m,1,0.1,47.93190562,0.45441634
MOT,30,0,2024-06-24T03:02:19.407Z,english_93.wav,0,pill,500,25,4,Japanese,m,2,0.2,74.1463043,1.33476805
MOT,30,0,2024-06-24T03:02:19.407Z,english_93.wav,0,pill,500,25,4,Japanese,m,3,0.3,46.42515129,0.61821532
MOT,30,0,2024-06-24T03:02:19.407Z,english_93.wav,0,pill,500,25,4,Japanese,m,4,0.32341667,-19.17332826,1.94889868
MOT,31,0,2024-06-24T03:02:19.407Z,english_797.wav,0,peel,439,25,4,Japanese,m,0,0.0,-10.77604935,1.75152448
MOT,31,0,2024-06-24T03:02:19.407Z,english_797.wav,0,peel,439,25,4,Japanese,m,1,0.1,76.52998448,0.25625033
MOT,31,0,2024-06-24T03:02:19.407Z,english_797.wav,0,peel,439,25,4,Japanese,m,2,0.2,-52.30950648,1.63910521
MOT,31,0,2024-06-24T03:02:19.407Z,english_797.wav,0,peel,439,25,4,Japanese,m,3,0.3,-19.27189704,1.44412191
MOT,31,0,2024-06-24T03:02:19.407Z,english_797.wav,0,peel,439,25,4,Japanese,m,4,0.32341667,-68.52312916,1.41513857
MOT,32,0,2024-06-24T03:02:19.407Z,english_484.wav,0,pill,700,25,4,Japanese,m,0,0.0,79.97188672,0.20745104
MOT,32,0,2024-06-24T03:02:19.407Z,english_484.wav,0,pill,700,25,4,Japanese,m,1,0.1,-84.58904822,1.46214797
MOT,32,0,2024-06-24T03:02:19.407Z,english_484.wav,0,pill,700,25,4,Japanese,m,2,0.2,70.2960477,0.40821612
MOT,32,0,2024-06-24T03:02:19.407Z,english_484.wav,0,pill,700,25,4,Japanese,m,3,0.3,-66.44520929,1.23203415
MOT,32,0,2024-06-24T03:02:19.407Z,english_484.wav,0,pill,700,25,4,Japanese,m,4,0.32341667,-78.91715359,1.26593617
MOT,33,0,2024-06-24T03:02:19.407Z,english_805.wav,0,pill,712,25,4,Japanese,m,0,0.0,-11.97504695,0.06029378
MOT,33,0,2024-06-24T03:02:19.407Z,english_805.wav,0,pill,712,25,4,Japanese,m,1,0.1,96.82911573,0.81391401
MOT,33,0,2024-06-24T03:02:19.407Z,english_805.wav,0,pill,712,25,4,Japanese,m,2,0.2,7.51835152,1.33531055
MOT,33,0,2024-06-24T03:02:19.407Z,english_805.wav,0,pill,712,25,4,Japanese,m,3,0.3,2.47378187,1.7608484
MOT,33,0,2024-06-24T03:02:19.407Z,english_805.wav,0,pill,712,25,4,Japanese,m,4,0.32341667,-43.26336213,1.4289718
MOT,34,0,2024-06-24T03:02:19.407Z,english_957.wav,0,peel,355,25,4,Japanese,m,0,0.0,-8.34255742,0.77577071
MOT,34,0,2024-06-24T03:02:19.407Z,english_957.wav,0,peel,355,25,4,Japanese,m,1,0.1,-36.8236739,1.35435363
MOT,34,0,2024-06-24T03:02:19.407Z,english_957.wav,0,peel,355,25,4,Japanese,m,2,0.2,6.68978896,0.94592229
MOT,34,0,2024-06-24T03:02:19.407Z,english_957.wav,0,peel,355,25,4,Japanese,m,3,0.3,-85.51463088,0.8988777
MOT,34,0,2024-06-24T03:02:19.407Z,english_957.wav,0,peel,355,25,4,Japanese,m,4,0.32341667,-16.82289389,0.34403417
MOT,35,0,2024-06-24T03:02:19.407Z,english_143.wav,0,pill,462,25,4,Japanese,m,0,0.0,-40.90047407,0.05812512
MOT,35,0,2024-06-24T03:02:19.407Z,english_143.wav,0,pill,462,25,4,Japanese,m,1,0.1,-35.35291254,0.81203879
MOT,35,0,2024-06-24T03:02:19.407Z,english_143.wav,0,pill,462,25,4,Japanese,m,2,0.2,36.32983964,0.61124866
MOT,35,0,2024-06-24T03:02:19.407Z,english_143.wav,0,pill,462,25,4,Japanese,m,3,0.3,-7.67980486,0.41683772
MOT,35,0,2024-06-24T03:02:19.407Z,english_143.wav,0,pill,462,25,4,Japanese,m,4,0.32341667,-89.59854269,1.86697452
MOT,36,0,2024-06-24T03:02:19.407Z,english_369.wav,0,peel,436,25,4,Japanese,m,0,0.0,-12.14177447,1.64093778
MOT,36,0,2024-06-24T03:02:19.407Z,english_369.wav,0,peel,436,25,4,Japanese,m,1,0.1,76.29699147,1.47479283
MOT,36,0,2024-06-24T03:02:19.407Z,english_369.wav,0,peel,436,25,4,Japanese,m,2,0.2,-85.49552365,1.31757561
MOT,36,0,2024-06-24T03:02:19.407Z,english_369.wav,0,peel,436,25,4,Japanese,m,3,0.3,-68.94608988,1.92077404
MOT,36,0,2024-06-24T03:02:19.407Z,english_369.wav,0,peel,436,25,4,Japanese,m,4,0.32341667,40.32615784,1.4628922
MOT,37,0,2024-06-24T03:02:19.407Z,english_571.wav,0,pill,1054,25,4,Japanese,m,0,0.0,-42.92588422,0.65590276
MOT,37,0,2024-06-24T03:02:19.407Z,english_571.wav,0,pill,1054,25,4,Japanese,m,1,0.1,-87.39276897,1.8306878
MOT,37,0,2024-06-24T03:02:19.407Z,english_571.wav,0,pill,1054,25,4,Japanese,m,2,0.2,19.06282168,0.06889765
MOT,37,0,2024-06-24T03:02:19.407Z,english_571.wav,0,pill,1054,25,4,Japanese,m,3,0.3,-99.30459792,0.29364209
MOT,37,0,2024-06-24T03:02:19.407Z,english_571.wav,0,pill,1054,25,4,Japanese,m,4,0.32341667,41.25263337,1.388798
MOT,38,0,2024-06-24T03:02:19.407Z,english_52.wav,0,pill,688,25,4,Japanese,m,0,0.0,54.63859099,0.91426261
MOT,38,0,2024-06-24T03:02:19.407Z,english_52.wav,0,pill,688,25,4,Japanese,m,1,0.1,-85.67195477,1.20728413
MOT,38,0,2024-06-24T03:02:19.407Z,english_52.wav,0,pill,688,25,4,Japanese,m,2,0.2,2.4878885,0.71733995
MOT,38,0,2024-06-24T03:02:19.407Z,english_52.wav,0,pill,688,25,4,Japanese,m,3,0.3,86.13143505,1.54149443
MOT,38,0,2024-06-24T03:02:19.407Z,english_52.wav,0,pill,688,25,4,Japanese,m,4,0.32341667,-53.30399902,1.3376245
MOT,39,0,2024-06-24T03:02:19.407Z,english_872.wav,0,peel,415,25,4,Japanese,m,0,0.0,0.56374655,0.10935802
MOT,39,0,2024-06-24T03:02:19.407Z,english_872.wav,0,peel,415,25,4,Japanese,m,1,0.1,-70.88107799,0.91778609
MOT,39,0,2024-06-24T03:02:19.407Z,english_872.wav,0,peel,415,25,4,Japanese,m,2,0.2,6.46677515,1.38740199
MOT,39,0,2024-06-24T03:02:19.407Z,english_872.wav,0,peel,415,25,4,Japanese,m,3,0.3,-23.51354109,0.12682507
MOT,39,0,2024-06-24T03:02:19.407Z,english_872.wav,0,peel,415,25,4,Japanese,m,4,0.32341667,81.64578493,0.71067476
MOT,40,0,2024-06-24T03:02:19.407Z,english_808.wav,0,pill,847,25,4,Japanese,m,0,0.0,23.02589628,1.07384277
MOT,40,0,2024-06-24T03:02:19.407Z,english_808.wav,0,pill,847,25,4,Japanese,m,1,0.1,10.58817829,1.3919179
MOT,40,0,2024-06-24T03:02:19.407Z,english_808.wav,0,pill,847,25,4,Japanese,m,2,0.2,36.77134597,0.54960524
MOT,40,0,2024-06-24T03:02:19.407Z,english_808.wav,0,pill,847,25,4,Japanese,m,3,0.3,-30.31603221,1.95871365
MOT,40,0,2024-06-24T03:02:19.407Z,english_808.wav,0,pill,847,25,4,Japanese,m,4,0.32341667,9.74764343,0.79150541
MOT,41,0,2024-06-24T03:02:19.407Z,english_123.wav,0,pill,2184,25,4,Japanese,m,0,0.0,67.91608163,1.13046919
MOT,41,0,2024-06-24T03:02:19.407Z,english_123.wav,0,pill,2184,25,4,Japanese,m,1,0.1,-92.32097988,1.99597614
MOT,41,0,2024-06-24T03:02:19.407Z,english_123.wav,0,pill,2184,25,4,Japanese,m,2,0.2,57.07371841,1.53523853
MOT,41,0,2024-06-24T03:02:19.407Z,english_123.wav,0,pill,2184,25,4,Japanese,m,3,0.3,19.28317816,0.24385811
MOT,41,0,2024-06-24T03:02:19.407Z,english_123.wav,0,pill,2184,25,4,Japanese,m,4,0.32341667,15.30546887,0.39158976
MOT,42,0,2024-06-24T03:02:19.407Z,english_343.wav,0,peel,1572,25,4,Japanese,m,0,0.0,-26.15456552,0.99905336
MOT,42,0,2024-06-24T03:02:19.407Z,english_343.wav,0,peel,1572,25,4,Japanese,m,1,0.1,-4.26522308,0.59066439
MOT,42,0,2024-06-24T03:02:19.407Z,english_343.wav,0,peel,1572,25,4,Japanese,m,2,0.2,55.3227334,1.69088488
MOT,42,0,2024-06-24T03:02:19.407Z,english_343.wav,0,peel,1572,25,4,Japanese,m,3,0.3,-26.26518208,1.70645599
MOT,42,0,2024-06-24T03:02:19.407Z,english_343.wav,0,peel,1572,25,4,Japanese,m,4,0.32341667,-18.3065251,0.13143106
MOT,43,0,2024-06-24T03:02:19.407Z,english_237.wav,0,pill,391,25,4,Japanese,m,0,0.0,-40.35335157,0.42178982
MOT,43,0,2024-06-24T03:02:19.407Z,english_237.wav,0,pill,391,25,4,Japanese,m,1,0.1,42.86374565,0.6060796
MOT,43,0,2024-06-24T03:02:19.407Z,english_237.wav,0,pill,391,25,4,Japanese,m,2,0.2,7.79480372,0.58312984
MOT,43,0,2024-06-24T03:02:19.407Z,english_237.wav,0,pill,391,25,4,Japanese,m,3,0.3,-48.50613844,1.50499267
MOT,43,0,2024-06-24T03:02:19.407Z,english_237.wav,0,pill,391,25,4,Japanese,m,4,0.32341667,17.78174719,1.72211243
MOT,44,0,2024-06-24T03:02:19.407Z,english_326.wav,0,pill,1225,25,4,Japanese,m,0,0.0,-13.70476372,1.64570887
MOT,44,0,2024-06-24T03:02:19.407Z,english_326.wav,0,pill,1225,25,4,Japanese,m,1,0.1,47.7156259,0.91266102
MOT,44,0,2024-06-24T03:02:19.407Z,english_326.wav,0,pill,1225,25,4,Japanese,m,2,0.2,23.24839736,0.36997562
MOT,44,0,2024-06-24T03:02:19.407Z,english_326.wav,0,pill,1225,25,4,Japanese,m,3,0.3,67.08212267,1.96258237
MOT,44,0,2024-06-24T03:02:19.407Z,english_326.wav,0,pill,1225,25,4,Japanese,m,4,0.32341667,78.79356023,1.01334204
MOT,45,0,2024-06-24T03:02:19.407Z,english_859.wav,0,pill,824,25,4,Japanese,m,0,0.0,71.31858369,0.11764496
MOT,45,0,2024-06-24T03:02:19.407Z,english_859.wav,0,pill,824,25,4,Japanese,m,1,0.1,-33.60875554,0.29827778
MOT,45,0,2024-06-24T03:02:19.407Z,english_859.wav,0,pill,824,25,4,Japanese,m,2,0.2,-64.15502461,0.43254339
MOT,45,0,2024-06-24T03:02:19.407Z,english_859.wav,0,pill,824,25,4,Japanese,m,3,0.3,-36.22537369,0.12368506
MOT,45,0,2024-06-24T03:02:19.407Z,english_859.wav,0,pill,824,25,4,Japanese,m,4,0.32341667,-23.59955866,0.97858169
MOT,46,0,2024-06-24T03:02:19.407Z,english_581.wav,0,pill,1410,25,4,Japanese,m,0,0.0,-4.1565262,0.01704603
MOT,46,0,2024-06-24T03:02:19.407Z,english_581.wav,0,pill,1410,25,4,Japanese,m,1,0.1,84.55344465,1.32903406
MOT,46,0,2024-06-24T03:02:19.407Z,english_581.wav,0,pill,1410,25,4,Japanese,m,2,0.2,-57.45750027,1.58046526
MOT,46,0,2024-06-24T03:02:19.407Z,english_581.wav,0,pill,1410,25,4,Japanese,m,3,0.3,-14.35569009,1.16633299
MOT,46,0,2024-06-24T03:02:19.407Z,english_581.wav,0,pill,1410,25,4,Japanese,m,4,0.32341667,-54.33758456,1.20758605
MOT,47,0,2024-06-24T03:02:19.407Z,english_551.wav,0,peel,3789,25,4,Japanese,m,0,0.0,51.69986033,0.0331047
MOT,47,0,2024-06-24T03:02:19.407Z,english_551.wav,0,peel,3789,25,4,Japanese,m,1,0.1,-91.31948841,0.51079487
MOT,47,0,2024-06-24T03:02:19.407Z,english_551.wav,0,peel,3789,25,4,Japanese,m,2,0.2,12.24586311,1.83581854
MOT,47,0,2024-06-24T03:02:19.407Z,english_551.wav,0,peel,3789,25,4,Japanese,m,3,0.3,-52.90680215,0.12201236
MOT,47,0,2024-06-24T03:02:19.407Z,english_551.wav,0,peel,3789,25,4,Japanese,m,4,0.32341667,-27.23325687,1.55189277
MOT,48,0,2024-06-24T03:02:19.407Z,english_960.wav,0,peel,846,25,4,Japanese,m,0,0.0,35.80457434,0.79357899
MOT,48,0,2024-06-24T03:02:19.407Z,english_960.wav,0,peel,846,25,4,Japanese,m,1,0.1,-19.98469691,0.63900775
MOT,48,0,2024-06-24T03:02:19.407Z,english_960.wav,0,peel,846,25,4,Japanese,m,2,0.2,-8.88025322,1.83966222
MOT,48,0,2024-06-24T03:02:19.407Z,english_960.wav,0,peel,846,25,4,Japanese,m,3,0.3,6.59365348,1.05168668
MOT,48,0,2024-06-24T03:02:19.407Z,english_960.wav,0,peel,846,25,4,Japanese,m,4,0.32341667,64.0885905,1.66020449
MOT,49,0,2024-06-24T03:02:19.407Z,english_927.wav,0,pill,424,25,4,Japanese,m,0,0.0,81.66311017,1.3783001
MOT,49,0,2024-06-24T03:02:19.407Z,english_927.wav,0,pill,424,25,4,Japanese,m,1,0.1,0.87570902,0.51323502
MOT,49,0,2024-06-24T03:02:19.407Z,english_927.wav,0,pill,424,25,4,Japanese,m,2,0.2,-59.21619647,0.98265958
MOT,49,0,2024-06-24T03:02:19.407Z,english_927.wav,0,pill,424,25,4,Japanese,m,3,0.3,-57.6787773,0.30790993
MOT,49,0,2024-06-24T03:02:19.407Z,english_927.wav,0,pill,424,25,4,Japanese,m,4,0.32341667,-30.87043146,1.17222751
MOT,50,1,2024-06-24T03:02:19.407Z,english_569.wav,0,pill,1640,25,4,Japanese,m,0,0.0,-44.4695194,1.56768834
MOT,50,1,2024-06-24T03:02:19.407Z,english_569.wav,0,pill,1640,25,4,Japanese,m,1,0.1,50.36705327,0.42032873
MOT,50,1,2024-06-24T03:02:19.407Z,english_569.wav,0,pill,1640,25,4,Japanese,m,2,0.2,-76.17438636,0.31133764
MOT,50,1,2024-06-24T03:02:19.407Z,english_569.wav,0,pill,1640,25,4,Japanese,m,3,0.3,55.47083669,0.91900801
MOT,50,1,2024-06-24T03:02:19.407Z,english_569.wav,0,pill,1640,25,4,Japanese,m,4,0.32341667,-10.68913609,1.26529561
MOT,51,1,2024-06-24T03:02:19.407Z,english_547.wav,0,peel,419,25,4,Japanese,m,0,0.0,30.48969685,1.04682874
MOT,51,1,2024-06-24T03:02:19.407Z,english_547.wav,0,peel,419,25,4,Japanese,m,1,0.1,-38.27442703,0.75017858
MOT,51,1,2024-06-24T03:02:19.407Z,english_547.wav,0,peel,419,25,4,Japanese,m,2,0.2,29.58442849,0.7996645
MOT,51,1,2024-06-24T03:02:19.407Z,english_547.wav,0,peel,419,25,4,Japanese,m,3,0.3,-4.27268154,1.92102789
MOT,51,1,2024-06-24T03:02:19.407Z,english_547.wav,0,peel,419,25,4,Japanese,m,4,0.32341667,58.02076364,1.77056707
MOT,52,1,2024-06-24T03:02:19.407Z,english_465.wav,0,peel,1506,25,4,Japanese,m,0,0.0,40.04056426,1.33778995
MOT,52,1,2024-06-24T03:02:19.407Z,english_465.wav,0,peel,1506,25,4,Japanese,m,1,0.1,-97.28817369,0.1899685
MOT,52,1,2024-06-24T03:02:19.407Z,english_465.wav,0,peel,1506,25,4,Japanese,m,2,0.2,-58.72937184,1.35609136
MOT,52,1,2024-06-24T03:02:19.407Z,english_465.wav,0,peel,1506,25,4,Japanese,m,3,0.3,82.2448524,1.94032164
MOT,52,1,2024-06-24T03:02:19.407Z,english_465.wav,0,peel,1506,25,4,Japanese,m,4,0.32341667,-29.20233879,0.27858753
MOT,53,1,2024-06-24T03:02:19.407Z,english_441.wav,0,peel,2015,25,4,Japanese,m,0,0.0,-34.50722314,1.86415324
MOT,53,1,2024-06-24T03:02:19.407Z,english_441.wav,0,peel,2015,25,4,Japanese,m,1,0.1,91.55175756,1.34062972
MOT,53,1,2024-06-24T03:02:19.407Z,english_441.wav,0,peel,2015,25,4,Japanese,m,2,0.2,-74.07917439,1.20894222
MOT,53,1,2024-06-24T03:02:19.407Z,english_441.wav,0,peel,2015,25,4,Japanese,m,3,0.3,82.08396891,0.00248362
MOT,53,1,2024-06-24T03:02:19.407Z,english_441.wav,0,peel,2015,25,4,Japanese,m,4,0.32341667,13.2563292,0.67485278
MOT,54,1,2024-06-24T03:02:19.407Z,english_641.wav,0,pill,476,25,4,Japanese,m,0,0.0,-90.88934322,1.28926835
MOT,54,1,2024-06-24T03:02:19.407Z,english_641.wav,0,pill,476,25,4,Japanese,m,1,0.1,13.36673253,0.02464493
MOT,54,1,2024-06-24T03:02:19.407Z,english_641.wav,0,pill,476,25,4,Japanese,m,2,0.2,-36.70414591,0.5505433
MOT,54,1,2024-06-24T03:02:19.407Z,english_641.wav,0,pill,476,25,4,Japanese,m,3,0.3,-4.62417375,0.52188675
MOT,54,1,2024-06-24T03:02:19.407Z,english_641.wav,0,pill,476,25,4,Japanese,m,4,0.32341667,15.34366305,0.01360039
MOT,55,1,2024-06-24T03:02:19.407Z,english_961.wav,0,peel,325,25,4,Japanese,m,0,0.0,20.81275789,1.87720953
MOT,55,1,2024-06-24T03:02:19.407Z,english_961.wav,0,peel,325,25,4,Japanese,m,1,0.1,46.48072234,1.43497285
MOT,55,1,2024-06-24T03:02:19.407Z,english_961.wav,0,peel,325,25,4,Japanese,m,2,0.2,79.36291712,1.9095844
MOT,55,1,2024-06-24T03:02:19.407Z,english_961.wav,0,peel,325,25,4,Japanese,m,3,0.3,7.86976501,0.20821065
MOT,55,1,2024-06-24T03:02:19.407Z,english_961.wav,0,peel,325,25,4,Japanese,m,4,0.32341667,-45.45751668,0.0640973
MOT,56,1,2024-06-24T03:02:19.407Z,english_246.wav,0,pill,518,25,4,Japanese,m,0,0.0,-62.23082525,0.02615808
MOT,56,1,2024-06-24T03:02:19.407Z,english_246.wav,0,pill,518,25,4,Japanese,m,1,0.1,59.67623932,1.52596932
MOT,56,1,2024-06-24T03:02:19.407Z,english_246.wav,0,pill,518,25,4,Japanese,m,2,0.2,-63.30715513,1.87080553
MOT,56,1,2024-06-24T03:02:19.407Z,english_246.wav,0,pill,518,25,4,Japanese,m,3,0.3,15.41118057,0.81226596
MOT,56,1,2024-06-24T03:02:19.407Z,english_246.wav,0,pill,518,25,4,Japanese,m,4,0.32341667,90.60814582,0.64975072
MOT,57,1,2024-06-24T03:02:19.407Z,english_283.wav,0,pill,549,25,4,Japanese,m,0,0.0,-27.01977409,1.23470843
MOT,57,1,2024-06-24T03:02:19.407Z,english_283.wav,0,pill,549,25,4,Japanese,m,1,0.1,-58.6063919,0.41737987
MOT,57,1,2024-06-24T03:02:19.407Z,english_283.wav,0,pill,549,25,4,Japanese,m,2,0.2,36.15867228,0.64455365
MOT,57,1,2024-06-24T03:02:19.407Z,english_283.wav,0,pill,549,25,4,Japanese,m,3,0.3,-77.91689069,1.80541824
MOT,57,1,2024-06-24T03:02:19.407Z,english_283.wav,0,pill,549,25,4,Japanese,m,4,0.32341667,-77.99680679,1.86024907
MOT,58,1,2024-06-24T03:02:19.407Z,english_606.wav,0,pill,495,25,4,Japanese,m,0,0.0,-54.19201916,1.71730642
MOT,58,1,2024-06-24T03:02:19.407Z,english_606.wav,0,pill,495,25,4,Japanese,m,1,0.1,-9.49104439,0.42216081
MOT,58,1,2024-06-24T03:02:19.407Z,english_606.wav,0,pill,495,25,4,Japanese,m,2,0.2,1.17868262,1.31506394
MOT,58,1,2024-06-24T03:02:19.407Z,english_606.wav,0,pill,495,25,4,Japanese,m,3,0.3,-95.39718692,0.06922913
MOT,58,1,2024-06-24T03:02:19.407Z,english_606.wav,0,pill,495,25,4,Japanese,m,4,0.32341667,-48.659775,0.08316227
MOT,59,1,2024-06-24T03:02:19.407Z,english_973.wav,0,pill,586,25,4,Japanese,m,0,0.0,67.86183821,1.19015671
MOT,59,1,2024-06-24T03:02:19.407Z,english_973.wav,0,pill,586,25,4,Japanese,m,1,0.1,19.68291271,0.58574514
MOT,59,1,2024-06-24T03:02:19.407Z,english_973.wav,0,pill,586,25,4,Japanese,m,2,0.2,97.35795082,0.11672587
MOT,59,1,2024-06-24T03:02:19.407Z,english_973.wav,0,pill,586,25,4,Japanese,m,3,0.3,-17.83494635,0.43523095
MOT,59,1,2024-06-24T03:02:19.407Z,english_973.wav,0,pill,586,25,4,Japanese,m,4,0.32341667,-53.451809,1.74630461
MOT,60,1,2024-06-24T03:02:19.407Z,english_807.wav,0,peel,433,25,4,Japanese,m,0,0.0,-70.27095807,1.48455572
MOT,60,1,2024-06-24T03:02:19.407Z,english_807.wav,0,peel,433,25,4,Japanese,m,1,0.1,84.77391363,1.24837561
MOT,60,1,2024-06-24T03:02:19.407Z,english_807.wav,0,peel,433,25,4,Japanese,m,2,0.2,-27.52537388,0.77726095
MOT,60,1,2024-06-24T03:02:19.407Z,english_807.wav,0,peel,433,25,4,Japanese,m,3,0.3,36.82986288,1.65388598
MOT,60,1,2024-06-24T03:02:19.407Z,english_807.wav,0,peel,433,25,4,Japanese,m,4,0.32341667,16.63983573,1.10343216
MOT,61,1,2024-06-24T03:02:19.407Z,english_15.wav,0,pill,412,25,4,Japanese,m,0,0.0,-84.2209614,0.31323186
MOT,61,1,2024-06-24T03:02:19.407Z,english_15.wav,0,pill,412,25,4,Japanese,m,1,0.1,62.09656714,0.60538609
MOT,61,1,2024-06-24T03:02:19.407Z,english_15.wav,0,pill,412,25,4,Japanese,m,2,0.2,55.13992629,0.21165259
MOT,61,1,2024-06-24T03:02:19.407Z,english_15.wav,0,pill,412,25,4,Japanese,m,3,0.3,-55.71077558,0.62501131
MOT,61,1,2024-06-24T03:02:19.407Z,english_15.wav,0,pill,412,25,4,Japanese,m,4,0.32341667,77.6678018,0.97290752
MOT,62,1,2024-06-24T03:02:19.407Z,english_879.wav,0,peel,889,25,4,Japanese,m,0,0.0,-56.32485069,0.53184386
MOT,62,1,2024-06-24T03:02:19.407Z,english_879.wav,0,peel,889,25,4,Japanese,m,1,0.1,64.67592183,1.34296213
MOT,62,1,2024-06-24T03:02:19.407Z,english_879.wav,0,peel,889,25,4,Japanese,m,2,0.2,25.82204554,0.44649674
MOT,62,1,2024-06-24T03:02:19.407Z,english_879.wav,0,peel,889,25,4,Japanese,m,3,0.3,5.66794257,0.79707043
MOT,62,1,2024-06-24T03:02:19.407Z,english_879.wav,0,peel,889,25,4,Japanese,m,4,0.32341667,-31.65503708,1.19804995
MOT,63,1,2024-06-24T03:02:19.407Z,english_703.wav,0,peel,265,25,4,Japanese,m,0,0.0,21.25560127,1.22587136
MOT,63,1,2024-06-24T03:02:19.407Z,english_703.wav,0,peel,265,25,4,Japanese,m,1,0.1,-5.61566417,1.28752652
MOT,63,1,2024-06-24T03:02:19.407Z,english_703.wav,0,peel,265,25,4,Japanese,m,2,0.2,-88.15973778,1.61643937
MOT,63,1,2024-06-24T03:02:19.407Z,english_703.wav,0,peel,265,25,4,Japanese,m,3,0.3,39.86499493,1.32560109
MOT,63,1,2024-06-24T03:02:19.407Z,english_703.wav,0,peel,265,25,4,Japanese,m,4,0.32341667,64.67338156,0.74206522
MOT,64,1,2024-06-24T03:02:19.407Z,english_352.wav,0,peel,829,25,4,Japanese,m,0,0.0,71.64354449,0.18312459
MOT,64,1,2024-06-24T03:02:19.407Z,english_352.wav,0,peel,829,25,4,Japanese,m,1,0.1,53.2516906,1.19991438
MOT,64,1,2024-06-24T03:02:19.407Z,english_352.wav,0,peel,829,25,4,Japanese,m,2,0.2,28.90726554,1.21095973
MOT,64,1,2024-06-24T03:02:19.407Z,english_352.wav,0,peel,829,25,4,Japanese,m,3,0.3,-49.8940387,1.61067418
MOT,64,1,2024-06-24T03:02:19.407Z,english_352.wav,0,peel,829,25,4,Japanese,m,4,0.32341667,21.76832357,1.26376439
MOT,65,1,2024-06-24T03:02:19.407Z,english_896.wav,0,pill,402,25,4,Japanese,m,0,0.0,-76.63716622,1.08893336
MOT,65,1,2024-06-24T03:02:19.407Z,english_896.wav,0,pill,402,25,4,Japanese,m,1,0.1,-73.11298951,0.41748987
MOT,65,1,2024-06-24T03:02:19.407Z,english_896.wav,0,pill,402,25,4,Japanese,m,2,0.2,48.53347054,0.32012442
MOT,65,1,2024-06-24T03:02:19.407Z,english_896.wav,0,pill,402,25,4,Japanese,m,3,0.3,-4.46661278,0.63387312
MOT,65,1,2024-06-24T03:02:19.407Z,english_896.wav,0,pill,402,25,4,Japanese,m,4,0.32341667,-44.69533701,1.27766005
MOT,66,1,2024-06-24T03:02:19.407Z,english_73.wav,0,peel,823,25,4,Japanese,m,0,0.0,-73.49165063,1.41947215
MOT,66,1,2024-06-24T03:02:19.407Z,english_73.wav,0,peel,823,25,4,Japanese,m,1,0.1,65.54847429,1.68852165
MOT,66,1,2024-06-24T03:02:19.407Z,english_73.wav,0,peel,823,25,4,Japanese,m,2,0.2,-55.11967081,0.59259525
MOT,66,1,2024-06-24T03:02:19.407Z,english_73.wav,0,peel,823,25,4,Japanese,m,3,0.3,68.77466141,0.85140805
MOT,66,1,2024-06-24T03:02:19.407Z,english_73.wav,0,peel,823,25,4,Japanese,m,4,0.32341667,-37.79888894,1.17745107
MOT,67,1,2024-06-24T03:02:19.407Z,english_550.wav,0,pill,460,25,4,Japanese,m,0,0.0,19.46608022,0.78600887
MOT,67,1,2024-06-24T03:02:19.407Z,english_550.wav,0,pill,460,25,4,Japanese,m,1,0.1,-94.3556307,1.03273328
MOT,67,1,2024-06-24T03:02:19.407Z,english_550.wav,0,pill,460,25,4,Japanese,m,2,0.2,-80.90695222,0.36941932
MOT,67,1,2024-06-24T03:02:19.407Z,english_550.wav,0,pill,460,25,4,Japanese,m,3,0.3,-65.36230075,0.47038634
MOT,67,1,2024-06-24T03:02:19.407Z,english_550.wav,0,pill,460,25,4,Japanese,m,4,0.32341667,-18.45722395,0.11798167
MOT,68,1,2024-06-24T03:02:19.407Z,english_828.wav,0,peel,189,25,4,Japanese,m,0,0.0,51.6479082,0.4417702
MOT,68,1,2024-06-24T03:02:19.407Z,english_828.wav,0,peel,189,25,4,Japanese,m,1,0.1,37.62818293,1.22957458
MOT,68,1,2024-06-24T03:02:19.407Z,english_828.wav,0,peel,189,25,4,Japanese,m,2,0.2,55.79615955,0.69909727
MOT,68,1,2024-06-24T03:02:19.407Z,english_828.wav,0,peel,189,25,4,Japanese,m,3,0.3,31.91979646,1.572544
MOT,68,1,2024-06-24T03:02:19.407Z,english_828.wav,0,peel,189,25,4,Japanese,m,4,0.32341667,-22.21091203,0.87669833
MOT,69,1,2024-06-24T03:02:19.407Z,english_454.wav,0,pill,243,25,4,Japanese,m,0,0.0,-98.00335762,0.93958317
MOT,69,1,2024-06-24T03:02:19.407Z,english_454.wav,0,pill,243,25,4,Japanese,m,1,0.1,-44.25936911,1.42755355
MOT,69,1,2024-06-24T03:02:19.407Z,english_454.wav,0,pill,243,25,4,Japanese,m,2,0.2,-49.70952942,0.6160235
MOT,69,1,2024-06-24T03:02:19.407Z,english_454.wav,0,pill,243,25,4,Japanese,m,3,0.3,-16.66945989,1.95370106
MOT,69,1,2024-06-24T03:02:19.407Z,english_454.wav,0,pill,243,25,4,Japanese,m,4,0.32341667,16.63176458,0.26107778
MOT,70,1,2024-06-24T03:02:19.407Z,english_891.wav,0,pill,459,25,4,Japanese,m,0,0.0,21.29241244,0.7419472
MOT,70,1,2024-06-24T03:02:19.407Z,english_891.wav,0,pill,459,25,4,Japanese,m,1,0.1,-1.23713702,1.09270952
MOT,70,1,2024-06-24T03:02:19.407Z,english_891.wav,0,pill,459,25,4,Japanese,m,2,0.2,-74.86460599,0.8129571
MOT,70,1,2024-06-24T03:02:19.407Z,english_891.wav,0,pill,459,25,4,Japanese,m,3,0.3,18.81587233,0.16019775
MOT,70,1,2024-06-24T03:02:19.407Z,english_891.wav,0,pill,459,25,4,Japanese,m,4,0.32341667,35.3489582,1.17476401
MOT,71,1,2024-06-24T03:02:19.407Z,english_538.wav,0,peel,684,25,4,Japanese,m,0,0.0,2.36208538,1.54356298
MOT,71,1,2024-06-24T03:02:19.407Z,english_538.wav,0,peel,684,25,4,Japanese,m,1,0.1,77.85923423,0.47597082
MOT,71,1,2024-06-24T03:02:19.407Z,english_538.wav,0,peel,684,25,4,Japanese,m,2,0.2,-89.1271409,1.27977799
MOT,71,1,2024-06-24T03:02:19.407Z,english_538.wav,0,peel,684,25,4,Japanese,m,3,0.3,-18.79772534,1.05516459
MOT,71,1,2024-06-24T03:02:19.407Z,english_538.wav,0,peel,684,25,4,Japanese,m,4,0.32341667,87.62276495,1.20284762
MOT,72,1,2024-06-24T03:02:19.407Z,english_682.wav,0,peel,393,25,4,Japanese,m,0,0.0,-19.80167737,1.6131825
MOT,72,1,2024-06-24T03:02:19.407Z,english_682.wav,0,peel,393,25,4,Japanese,m,1,0.1,-30.98220326,1.03205672
MOT,72,1,2024-06-24T03:02:19.407Z,english_682.wav,0,peel,393,25,4,Japanese,m,2,0.2,26.07010201,1.08357256
MOT,72,1,2024-06-24T03:02:19.407Z,english_682.wav,0,peel,393,25,4,Japanese,m,3,0.3,-7.79776739,1.70642947
MOT,72,1,2024-06-24T03:02:19.407Z,english_682.wav,0,peel,393,25,4,Japanese,m,4,0.32341667,-10.9148898,0.86858281
MOT,73,1,2024-06-24T03:02:19.407Z,english_709.wav,0,peel,1794,25,4,Japanese,m,0,0.0,-57.85840644,1.64294201
MOT,73,1,2024-06-24T03:02:19.407Z,english_709.wav,0,peel,1794,25,4,Japanese,m,1,0.1,-9.03046344,1.39808038
MOT,73,1,2024-06-24T03:02:19.407Z,english_709.wav,0,peel,1794,25,4,Japanese,m,2,0.2,-83.08592789,1.46645034
MOT,73,1,2024-06-24T03:02:19.407Z,english_709.wav,0,peel,1794,25,4,Japanese,m,3,0.3,-30.28779026,1.11724372
MOT,73,1,2024-06-24T03:02:19.407Z,english_709.wav,0,peel,1794,25,4,Japanese,m,4,0.32341667,-42.69418167,0.30195694
MOT,74,1,2024-06-24T03:02:19.407Z,english_974.wav,0,pill,79,25,4,Japanese,m,0,0.0,29.63575745,0.7371821
MOT,74,1,2024-06-24T03:02:19.407Z,english_974.wav,0,pill,79,25,4,Japanese,m,1,0.1,-49.63946334,1.15838362
MOT,74,1,2024-06-24T03:02:19.407Z,english_974.wav,0,pill,79,25,4,Japanese,m,2,0.2,87.75163431,1.66312363
MOT,74,1,2024-06-24T03:02:19.407Z,english_974.wav,0,pill,79,25,4,Japanese,m,3,0.3,-62.39844007,0.85783748
MOT,74,1,2024-06-24T03:02:19.407Z,english_974.wav,0,pill,79,25,4,Japanese,m,4,0.32341667,-98.5513891,1.53033297
MOT,75,1,2024-06-24T03:02:19.407Z,english_182.wav,0,peel,276,25,4,Japanese,m,0,0.0,57.43769915,0.89919812
MOT,75,1,2024-06-24T03:02:19.407Z,english_182.wav,0,peel,276,25,4,Japanese,m,1,0.1,-87.06676545,1.25243937
MOT,75,1,2024-06-24T03:02:19.407Z,english_182.wav,0,peel,276,25,4,Japanese,m,2,0.2,-91.52107401,1.35021358
MOT,75,1,2024-06-24T03:02:19.407Z,english_182.wav,0,peel,276,25,4,Japanese,m,3,0.3,52.0843588,0.52787795
MOT,75,1,2024-06-24T03:02:19.407Z,english_182.wav,0,peel,276,25,4,Japanese,m,4,0.32341667,18.07264914,0.72620624
MOT,76,1,2024-06-24T03:02:19.407Z,english_268.wav,0,peel,270,25,4,Japanese,m,0,0.0,55.18591224,1.47327052
MOT,76,1,2024-06-24T03:02:19.407Z,english_268.wav,0,peel,270,25,4,Japanese,m,1,0.1,47.37483414,0.95932673
MOT,76,1,2024-06-24T03:02:19.407Z,english_268.wav,0,peel,270,25,4,Japanese,m,2,0.2,46.97410588,1.80275919
MOT,76,1,2024-06-24T03:02:19.407Z,english_268.wav,0,peel,270,25,4,Japanese,m,3,0.3,-64.08979313,1.6474991
MOT,76,1,2024-06-24T03:02:19.407Z,english_268.wav,0,peel,270,25,4,Japanese,m,4,0.32341667,35.8590447,1.56533667
MOT,77,1,2024-06-24T03:02:19.407Z,english_8.wav,0,peel,229,25,4,Japanese,m,0,0.0,-11.83025711,1.51300734
MOT,77,1,2024-06-24T03:02:19.407Z,english_8.wav,0,peel,229,25,4,Japanese,m,1,0.1,8.7470631,0.24000547
MOT,77,1,2024-06-24T03:02:19.407Z,english_8.wav,0,peel,229,25,4,Japanese,m,2,0.2,-15.41843982,1.17952525
MOT,77,1,2024-06-24T03:02:19.407Z,english_8.wav,0,peel,229,25,4,Japanese,m,3,0.3,-87.7437633,1.57032258
MOT,77,1,2024-06-24T03:02:19.407Z,english_8.wav,0,peel,229,25,4,Japanese,m,4,0.32341667,-40.85253846,0.7584977
MOT,78,1,2024-06-24T03:02:19.407Z,english_532.wav,0,pill,521,25,4,Japanese,m,0,0.0,-19.59321792,1.69826346
MOT,78,1,2024-06-24T03:02:19.407Z,english_532.wav,0,pill,521,25,4,Japanese,m,1,0.1,84.44945775,1.19849103
MOT,78,1,2024-06-24T03:02:19.407Z,english_532.wav,0,pill,521,25,4,Japanese,m,2,0.2,-5.6477907,0.05164805
MOT,78,1,2024-06-24T03:02:19.407Z,english_532.wav,0,pill,521,25,4,Japanese,m,3,0.3,-66.11375502,0.74129516
MOT,78,1,2024-06-24T03:02:19.407Z,english_532.wav,0,pill,521,25,4,Japanese,m,4,0.32341667,-46.16722618,0.11393119
MOT,79,1,2024-06-24T03:02:19.407Z,english_789.wav,0,peel,399,25,4,Japanese,m,0,0.0,70.69388181,1.62690516
MOT,79,1,2024-06-24T03:02:19.407Z,english_789.wav,0,peel,399,25,4,Japanese,m,1,0.1,-91.45782136,1.02092359
MOT,79,1,2024-06-24T03:02:19.407Z,english_789.wav,0,peel,399,25,4,Japanese,m,2,0.2,-94.67801392,0.93437639
MOT,79,1,2024-06-24T03:02:19.407Z,english_789.wav,0,peel,399,25,4,Japanese,m,3,0.3,83.76501612,1.8239896
MOT,79,1,2024-06-24T03:02:19.407Z,english_789.wav,0,peel,399,25,4,Japanese,m,4,0.32341667,-4.60584958,1.29596798
MOT,80,1,2024-06-24T03:02:19.407Z,english_362.wav,0,peel,1051,25,4,Japanese,m,0,0.0,12.71485551,1.44490364
MOT,80,1,2024-06-24T03:02:19.407Z,english_362.wav,0,peel,1051,25,4,Japanese,m,1,0.1,-18.83660308,1.3029027
MOT,80,1,2024-06-24T03:02:19.407Z,english_362.wav,0,peel,1051,25,4,Japanese,m,2,0.2,-52.07271323,1.10609828
MOT,80,1,2024-06-24T03:02:19.407Z,english_362.wav,0,peel,1051,25,4,Japanese,m,3,0.3,-29.96931661,1.18379787
MOT,80,1,2024-06-24T03:02:19.407Z,english_362.wav,0,peel,1051,25,4,Japanese,m,4,0.32341667,-9.99178163,1.80996789
MOT,81,1,2024-06-24T03:02:19.407Z,english_232.wav,0,pill,479,25,4,Japanese,m,0,0.0,15.13134779,0.53160298
MOT,81,1,2024-06-24T03:02:19.407Z,english_232.wav,0,pill,479,25,4,Japanese,m,1,0.1,-49.29605083,0.4519978
MOT,81,1,2024-06-24T03:02:19.407Z,english_232.wav,0,pill,479,25,4,Japanese,m,2,0.2,59.10606455,0.39260156
MOT,81,1,2024-06-24T03:02:19.407Z,english_232.wav,0,pill,479,25,4,Japanese,m,3,0.3,48.81708847,0.4692084
MOT,81,1,2024-06-24T03:02:19.407Z,english_232.wav,0,pill,479,25,4,Japanese,m,4,0.32341667,14.83590121,0.46233459
MOT,82,1,2024-06-24T03:02:19.407Z,english_382.wav,0,peel,1013,25,4,Japanese,m,0,0.0,-83.35497559,1.24516413
MOT,82,1,2024-06-24T03:02:19.407Z,english_382.wav,0,peel,1013,25,4,Japanese,m,1,0.1,7.83115402,0.59675254
MOT,82,1,2024-06-24T03:02:19.407Z,english_382.wav,0,peel,1013,25,4,Japanese,m,2,0.2,77.46115257,0.61036026
MOT,82,1,2024-06-24T03:02:19.407Z,english_382.wav,0,peel,1013,25,4,Japanese,m,3,0.3,89.755233,1.95554414
MOT,82,1,2024-06-24T03:02:19.407Z,english_382.wav,0,peel,1013,25,4,Japanese,m,4,0.32341667,-36.08570956,1.60845727
MOT,83,1,2024-06-24T03:02:19.407Z,english_759.wav,0,peel,1252,25,4,Japanese,m,0,0.0,22.56482953,0.32974928
MOT,83,1,2024-06-24T03:02:19.407Z,english_759.wav,0,peel,1252,25,4,Japanese,m,1,0.1,-26.57515882,0.74944663
MOT,83,1,2024-06-24T03:02:19.407Z,english_759.wav,0,peel,1252,25,4,Japanese,m,2,0.2,58.52096087,0.73148935
MOT,83,1,2024-06-24T03:02:19.407Z,english_759.wav,0,peel,1252,25,4,Japanese,m,3,0.3,67.88336338,0.69769471
MOT,83,1,2024-06-24T03:02:19.407Z,english_759.wav,0,peel,1252,25,4,Japanese,m,4,0.32341667,-98.7178367,1.46371733
MOT,84,1,2024-06-24T03:02:19.407Z,english_257.wav,0,peel,294,25,4,Japanese,m,0,0.0,-68.31428674,1.40239735
MOT,84,1,2024-06-24T03:02:19.407Z,english_257.wav,0,peel,294,25,4,Japanese,m,1,0.1,-13.90908686,1.49673114
MOT,84,1,2024-06-24T03:02:19.407Z,english_257.wav,0,peel,294,25,4,Japanese,m,2,0.2,54.08743226,1.07658057
MOT,84,1,2024-06-24T03:02:19.407Z,english_257.wav,0,peel,294,25,4,Japanese,m,3,0.3,-42.73693867,0.27427112
MOT,84,1,2024-06-24T03:02:19.407Z,english_257.wav,0,peel,294,25,4,Japanese,m,4,0.32341667,-1.03846516,1.90516482
MOT,85,1,2024-06-24T03:02:19.407Z,english_468.wav,0,pill,965,25,4,Japanese,m,0,0.0,-33.82586043,0.35164089
MOT,85,1,2024-06-24T03:02:19.407Z,english_468.wav,0,pill,965,25,4,Japanese,m,1,0.1,-42.55840131,0.20114733
MOT,85,1,2024-06-24T03:02:19.407Z,english_468.wav,0,pill,965,25,4,Japanese,m,2,0.2,-36.6492295,1.40729654
MOT,85,1,2024-06-24T03:02:19.407Z,english_468.wav,0,pill,965,25,4,Japanese,m,3,0.3,39.91321296,0.04300573
MOT,85,1,2024-06-24T03:02:19.407Z,english_468.wav,0,pill,965,25,4,Japanese,m,4,0.32341667,54.14936319,1.79642733
MOT,86,1,2024-06-24T03:02:19.407Z,english_380.wav,0,pill,1669,25,4,Japanese,m,0,0.0,-44.61260121,1.04167661
MOT,86,1,2024-06-24T03:02:19.407Z,english_380.wav,0,pill,1669,25,4,Japanese,m,1,0.1,-47.89967478,0.43386817
MOT,86,1,2024-06-24T03:02:19.407Z,english_380.wav,0,pill,1669,25,4,Japanese,m,2,0.2,34.91352544,0.93219588
MOT,86,1,2024-06-24T03:02:19.407Z,english_380.wav,0,pill,1669,25,4,Japanese,m,3,0.3,-71.89465654,0.8109376
MOT,86,1,2024-06-24T03:02:19.407Z,english_380.wav,0,pill,1669,25,4,Japanese,m,4,0.32341667,84.67713906,0.64473949
MOT,87,1,2024-06-24T03:02:19.407Z,english_90.wav,0,peel,372,25,4,Japanese,m,0,0.0,82.68866707,0.54239523
MOT,87,1,2024-06-24T03:02:19.407Z,english_90.wav,0,peel,372,25,4,Japanese,m,1,0.1,-81.25370946,1.03335699
MOT,87,1,2024-06-24T03:02:19.407Z,english_90.wav,0,peel,372,25,4,Japanese,m,2,0.2,56.28719083,1.93576477
MOT,87,1,2024-06-24T03:02:19.407Z,english_90.wav,0,peel,372,25,4,Japanese,m,3,0.3,-46.43338119,0.74570916
MOT,87,1,2024-06-24T03:02:19.407Z,english_90.wav,0,peel,372,25,4,Japanese,m,4,0.32341667,-19.93520327,1.11115504
MOT,88,1,2024-06-24T03:02:19.407Z,english_910.wav,0,peel,285,25,4,Japanese,m,0,0.0,-5.78748479,0.61840584
MOT,88,1,2024-06-24T03:02:19.407Z,english_910.wav,0,peel,285,25,4,Japanese,m,1,0.1,25.040103,1.20431928
MOT,88,1,2024-06-24T03:02:19.407Z,english_910.wav,0,peel,285,25,4,Japanese,m,2,0.2,-40.66398147,1.66594732
MOT,88,1,2024-06-24T03:02:19.407Z,english_910.wav,0,peel,285,25,4,Japanese,m,3,0.3,-99.21011725,0.99007018
MOT,88,1,2024-06-24T03:02:19.407Z,english_910.wav,0,peel,285,25,4,Japanese,m,4,0.32341667,30.82754841,0.23705338
MOT,89,1,2024-06-24T03:02:19.407Z,english_4.wav,0,peel,266,25,4,Japanese,m,0,0.0,97.57442054,1.3122383
MOT,89,1,2024-06-24T03:02:19.407Z,english_4.wav,0,peel,266,25,4,Japanese,m,1,0.1,57.41970729,1.27661748
MOT,89,1,2024-06-24T03:02:19.407Z,english_4.wav,0,peel,266,25,4,Japanese,m,2,0.2,32.67065062,1.16138222
MOT,89,1,2024-06-24T03:02:19.407Z,english_4.wav,0,peel,266,25,4,Japanese,m,3,0.3,34.06011343,0.34510216
MOT,89,1,2024-06-24T03:02:19.407Z,english_4.wav,0,peel,266,25,4,Japanese,m,4,0.32341667,83.59797788,1.84938224
MOT,90,1,2024-06-24T03:02:19.407Z,english_101.wav,0,pill,782,25,4,Japanese,m,0,0.0,60.77829508,0.77962125
MOT,90,1,2024-06-24T03:02:19.407Z,english_101.wav,0,pill,782,25,4,Japanese,m,1,0.1,43.41373716,0.02040908
MOT,90,1,2024-06-24T03:02:19.407Z,english_101.wav,0,pill,782,25,4,Japanese,m,2,0.2,56.16195873,0.79248433
MOT,90,1,2024-06-24T03:02:19.407Z,english_101.wav,0,pill,782,25,4,Japanese,m,3,0.3,-99.94719329,1.74003505
MOT,90,1,2024-06-24T03:02:19.407Z,english_101.wav,0,pill,782,25,4,Japanese,m,4,0.32341667,-1.35074094,1.66206156
MOT,91,1,2024-06-24T03:02:19.407Z,english_668.wav,0,peel,674,25,4,Japanese,m,0,0.0,48.8265236,0.43768829
MOT,91,1,2024-06-24T03:02:19.407Z,english_668.wav,0,peel,674,25,4,Japanese,m,1,0.1,97.68090991,0.31983773
MOT,91,1,2024-06-24T03:02:19.407Z,english_668.wav,0,peel,674,25,4,Japanese,m,2,0.2,47.50182685,1.24438546
MOT,91,1,2024-06-24T03:02:19.407Z,english_668.wav,0,peel,674,25,4,Japanese,m,3,0.3,81.7432518,0.49120307
MOT,91,1,2024-06-24T03:02:19.407Z,english_668.wav,0,peel,674,25,4,Japanese,m,4,0.32341667,28.08178094,0.60639718
MOT,92,1,2024-06-24T03:02:19.407Z,english_743.wav,0,peel,541,25,4,Japanese,m,0,0.0,-28.24983145,1.42102626
MOT,92,1,2024-06-24T03:02:19.407Z,english_743.wav,0,peel,541,25,4,Japanese,m,1,0.1,71.30498545,0.84283155
MOT,92,1,2024-06-24T03:02:19.407Z,english_743.wav,0,peel,541,25,4,Japanese,m,2,0.2,-89.00652632,0.82757129
MOT,92,1,2024-06-24T03:02:19.407Z,english_743.wav,0,peel,541,25,4,Japanese,m,3,0.3,3.43441779,1.38808557
MOT,92,1,2024-06-24T03:02:19.407Z,english_743.wav,0,peel,541,25,4,Japanese,m,4,0.32341667,-16.71659348,0.28501565
MOT,93,1,2024-06-24T03:02:19.407Z,english_801.wav,0,peel,387,25,4,Japanese,m,0,0.0,66.50571345,0.19311528
MOT,93,1,2024-06-24T03:02:19.407Z,english_801.wav,0,peel,387,25,4,Japanese,m,1,0.1,-53.03260979,0.48683601
MOT,93,1,2024-06-24T03:02:19.407Z,english_801.wav,0,peel,387,25,4,Japanese,m,2,0.2,-3.89459646,1.16293258
MOT,93,1,2024-06-24T03:02:19.407Z,english_801.wav,0,peel,387,25,4,Japanese,m,3,0.3,8.32951864,1.55734707
MOT,93,1,2024-06-24T03:02:19.407Z,english_801.wav,0,peel,387,25,4,Japanese,m,4,0.32341667,-87.46806733,0.63471681
MOT,94,1,2024-06-24T03:02:19.407Z,english_212.wav,0,peel,311,25,4,Japanese,m,0,0.0,-8.03708838,0.69940518
MOT,94,1,2024-06-24T03:02:19.407Z,english_212.wav,0,peel,311,25,4,Japanese,m,1,0.1,72.60121642,1.0039509
MOT,94,1,2024-06-24T03:02:19.407Z,english_212.wav,0,peel,311,25,4,Japanese,m,2,0.2,-98.76374397,1.17731185
MOT,94,1,2024-06-24T03:02:19.407Z,english_212.wav,0,peel,311,25,4,Japanese,m,3,0.3,31.47742107,0.88066499
MOT,94,1,2024-06-24T03:02:19.407Z,english_212.wav,0,peel,311,25,4,Japanese,m,4,0.32341667,53.59344022,0.33624016
MOT,95,1,2024-06-24T03:02:19.407Z,english_474.wav,0,peel,317,25,4,Japanese,m,0,0.0,42.88606971,0.87351765
MOT,95,1,2024-06-24T03:02:19.407Z,english_474.wav,0,peel,317,25,4,Japanese,m,1,0.1,6.82691085,1.08551449
MOT,95,1,2024-06-24T03:02:19.407Z,english_474.wav,0,peel,317,25,4,Japanese,m,2,0.2,-33.80031927,1.99847166
MOT,95,1,2024-06-24T03:02:19.407Z,english_474.wav,0,peel,317,25,4,Japanese,m,3,0.3,-97.18672796,0.27470298
MOT,95,1,2024-06-24T03:02:19.407Z,english_474.wav,0,peel,317,25,4,Japanese,m,4,0.32341667,-4.7462475,0.02962094
MOT,96,1,2024-06-24T03:02:19.407Z,english_714.wav,0,peel,351,25,4,Japanese,m,0,0.0,6.62463448,0.98205871
MOT,96,1,2024-06-24T03:02:19.407Z,english_714.wav,0,peel,351,25,4,Japanese,m,1,0.1,-7.37775178,1.90018259
MOT,96,1,2024-06-24T03:02:19.407Z,english_714.wav,0,peel,351,25,4,Japanese,m,2,0.2,-58.74003357,1.33033281
MOT,96,1,2024-06-24T03:02:19.407Z,english_714.wav,0,peel,351,25,4,Japanese,m,3,0.3,-38.84014254,0.20009115
MOT,96,1,2024-06-24T03:02:19.407Z,english_714.wav,0,peel,351,25,4,Japanese,m,4,0.32341667,-23.67047323,0.44650169
MOT,97,1,2024-06-24T03:02:19.407Z,english_677.wav,0,peel,1731,25,4,Japanese,m,0,0.0,74.92499355,0.4070184
MOT,97,1,2024-06-24T03:02:19.407Z,english_677.wav,0,peel,1731,25,4,Japanese,m,1,0.1,35.44886391,0.82737557
MOT,97,1,2024-06-24T03:02:19.407Z,english_677.wav,0,peel,1731,25,4,Japanese,m,2,0.2,3.82146975,0.46436239
MOT,97,1,2024-06-24T03:02:19.407Z,english_677.wav,0,peel,1731,25,4,Japanese,m,3,0.3,10.3543008,1.40426898
MOT,97,1,2024-06-24T03:02:19.407Z,english_677.wav,0,peel,1731,25,4,Japanese,m,4,0.32341667,-53.94170103,1.42138659
MOT,98,1,2024-06-24T03:02:19.407Z,english_861.wav,0,peel,397,25,4,Japanese,m,0,0.0,-30.19921015,0.56503536
MOT,98,1,2024-06-24T03:02:19.407Z,english_861.wav,0,peel,397,25,4,Japanese,m,1,0.1,75.2433288,1.43622494
MOT,98,1,2024-06-24T03:02:19.407Z,english_861.wav,0,peel,397,25,4,Japanese,m,2,0.2,-49.47813624,1.73497671
MOT,98,1,2024-06-24T03:02:19.407Z,english_861.wav,0,peel,397,25,4,Japanese,m,3,0.3,86.59581665,0.70763908
MOT,98,1,2024-06-24T03:02:19.407Z,english_861.wav,0,peel,397,25,4,Japanese,m,4,0.32341667,58.40562581,1.29518241
MOT,99,1,2024-06-24T03:02:19.407Z,english_262.wav,0,peel,256,25,4,Japanese,m,0,0.0,-55.0240476,0.91992097
MOT,99,1,2024-06-24T03:02:19.407Z,english_262.wav,0,peel,256,25,4,Japanese,m,1,0.1,46.31562141,0.94194362
MOT,99,1,2024-06-24T03:02:19.407Z,english_262.wav,0,peel,256,25,4,Japanese,m,2,0.2,62.5855756,1.80305422
MOT,99,1,2024-06-24T03:02:19.407Z,english_262.wav,0,peel,256,25,4,Japanese,m,3,0.3,-4.25909078,0.51544707
MOT,99,1,2024-06-24T03:02:19.407Z,english_262.wav,0,peel,256,25,4,Japanese,m,4,0.32341667,16.27030636,1.47198659
MOT,100,2,2024-06-24T03:08:13.362Z,english_401.wav,0,peel,828,25,4,Japanese,m,0,0.0,-70.37998858,1.11338134
MOT,100,2,2024-06-24T03:08:13.362Z,english_401.wav,0,peel,828,25,4,Japanese,m,1,0.1,49.27188779,1.59691292
MOT,100,2,2024-06-24T03:08:13.362Z,english_401.wav,0,peel,828,25,4,Japanese,m,2,0.2,5.09566389,0.88679935
MOT,100,2,2024-06-24T03:08:13.362Z,english_401.wav,0,peel,828,25,4,Japanese,m,3,0.3,58.42368176,1.89749174
MOT,100,2,2024-06-24T03:08:13.362Z,english_401.wav,0,peel,828,25,4,Japanese,m,4,0.32341667,-43.06407799,1.35831765
MOT,101,2,2024-06-24T03:08:13.362Z,english_990.wav,0,pill,445,25,4,Japanese,m,0,0.0,-17.98511021,0.6190444
MOT,101,2,2024-06-24T03:08:13.362Z,english_990.wav,0,pill,445,25,4,Japanese,m,1,0.1,-90.3005676,0.77548775
MOT,101,2,2024-06-24T03:08:13.362Z,english_990.wav,0,pill,445,25,4,Japanese,m,2,0.2,4.37005684,0.55013224
MOT,101,2,2024-06-24T03:08:13.362Z,english_990.wav,0,pill,445,25,4,Japanese,m,3,0.3,83.93705034,0.66784051
MOT,101,2,2024-06-24T03:08:13.362Z,english_990.wav,0,pill,445,25,4,Japanese,m,4,0.32341667,-36.57803625,0.32384409
MOT,102,2,2024-06-24T03:08:13.362Z,english_358.wav,0,peel,865,25,4,Japanese,m,0,0.0,-24.40280242,0.64702298
MOT,102,2,2024-06-24T03:08:13.362Z,english_358.wav,0,peel,865,25,4,Japanese,m,1,0.1,62.18566088,0.86836285
MOT,102,2,2024-06-24T03:08:13.362Z,english_358.wav,0,peel,865,25,4,Japanese,m,2,0.2,5.26675109,1.05826104
MOT,102,2,2024-06-24T03:08:13.362Z,english_358.wav,0,peel,865,25,4,Japanese,m,3,0.3,-31.91571391,1.98011631
MOT,102,2,2024-06-24T03:08:13.362Z,english_358.wav,0,peel,865,25,4,Japanese,m,4,0.32341667,27.35112364,0.35058307
MOT,103,2,2024-06-24T03:08:13.362Z,english_898.wav,0,peel,303,25,4,Japanese,m,0,0.0,77.23607787,0.41308158
MOT,103,2,2024-06-24T03:08:13.362Z,english_898.wav,0,peel,303,25,4,Japanese,m,1,0.1,-36.99854877,1.59324842
MOT,103,2,2024-06-24T03:08:13.362Z,english_898.wav,0,peel,303,25,4,Japanese,m,2,0.2,16.09723403,1.42339693
MOT,103,2,2024-06-24T03:08:13.362Z,english_898.wav,0,peel,303,25,4,Japanese,m,3,0.3,29.12208023,1.17478291
MOT,103,2,2024-06-24T03:08:13.362Z,english_898.wav,0,peel,303,25,4,Japanese,m,4,0.32341667,-69.45423228,1.88393163
MOT,104,2,2024-06-24T03:08:13.362Z,english_769.wav,0,pill,529,25,4,Japanese,m,0,0.0,-12.68288087,1.59358978
MOT,104,2,2024-06-24T03:08:13.362Z,english_769.wav,0,pill,529,25,4,Japanese,m,1,0.1,13.58895245,0.16681031
MOT,104,2,2024-06-24T03:08:13.362Z,english_769.wav,0,pill,529,25,4,Japanese,m,2,0.2,-5.57429841,0.74292099
MOT,104,2,2024-06-24T03:08:13.362Z,english_769.wav,0,pill,529,25,4,Japanese,m,3,0.3,-26.44516544,0.17250104
MOT,104,2,2024-06-24T03:08:13.362Z,english_769.wav,0,pill,529,25,4,Japanese,m,4,0.32341667,85.93285426,0.16730253
MOT,105,2,2024-06-24T03:08:13.362Z,english_116.wav,0,peel,329,25,4,Japanese,m,0,0.0,47.3382154,1.30986561
MOT,105,2,2024-06-24T03:08:13.362Z,english_116.wav,0,peel,329,25,4,Japanese,m,1,0.1,-82.57412589,0.36649927
MOT,105,2,2024-06-24T03:08:13.362Z,english_116.wav,0,peel,329,25,4,Japanese,m,2,0.2,24.81754674,1.53598436
MOT,105,2,2024-06-24T03:08:13.362Z,english_116.wav,0,peel,329,25,4,Japanese,m,3,0.3,61.93416492,1.65694634
MOT,105,2,2024-06-24T03:08:13.362Z,english_116.wav,0,peel,329,25,4,Japanese,m,4,0.32341667,-97.8286579,0.40343631
MOT,106,2,2024-06-24T03:08:13.362Z,english_636.wav,0,peel,172,25,4,Japanese,m,0,0.0,-20.37295141,1.69276631
MOT,106,2,2024-06-24T03:08:13.362Z,english_636.wav,0,peel,172,25,4,Japanese,m,1,0.1,-84.7288786,1.69908726
MOT,106,2,2024-06-24T03:08:13.362Z,english_636.wav,0,peel,172,25,4,Japanese,m,2,0.2,24.84265136,1.44836333
MOT,106,2,2024-06-24T03:08:13.362Z,english_636.wav,0,peel,172,25,4,Japanese,m,3,0.3,-9.2443485,1.36647816
MOT,106,2,2024-06-24T03:08:13.362Z,english_636.wav,0,peel,172,25,4,Japanese,m,4,0.32341667,49.04875774,0.88112598
MOT,107,2,2024-06-24T03:08:13.362Z,english_379.wav,0,pill,714,25,4,Japanese,m,0,0.0,30.14616912,1.43961489
MOT,107,2,2024-06-24T03:08:13.362Z,english_379.wav,0,pill,714,25,4,Japanese,m,1,0.1,-79.51193423,1.4219763
MOT,107,2,2024-06-24T03:08:13.362Z,english_379.wav,0,pill,714,25,4,Japanese,m,2,0.2,7.34860539,0.62633101
MOT,107,2,2024-06-24T03:08:13.362Z,english_379.wav,0,pill,714,25,4,Japanese,m,3,0.3,-43.99342265,1.13621958
MOT,107,2,2024-06-24T03:08:13.362Z,english_379.wav,0,pill,714,25,4,Japanese,m,4,0.32341667,37.72881761,1.35387794
MOT,108,2,2024-06-24T03:08:13.362Z,english_965.wav,0,pill,526,25,4,Japanese,m,0,0.0,-19.49526798,1.71910172
MOT,108,2,2024-06-24T03:08:13.362Z,english_965.wav,0,pill,526,25,4,Japanese,m,1,0.1,-33.46093545,1.16323176
MOT,108,2,2024-06-24T03:08:13.362Z,english_965.wav,0,pill,526,25,4,Japanese,m,2,0.2,95.24809114,0.56514201
MOT,108,2,2024-06-24T03:08:13.362Z,english_965.wav,0,pill,526,25,4,Japanese,m,3,0.3,26.23968625,1.82539978
MOT,108,2,2024-06-24T03:08:13.362Z,english_965.wav,0,pill,526,25,4,Japanese,m,4,0.32341667,15.70217089,1.7659451
MOT,109,2,2024-06-24T03:08:13.362Z,english_31.wav,0,pill,375,25,4,Japanese,m,0,0.0,21.28810337,1.2057056
MOT,109,2,2024-06-24T03:08:13.362Z,english_31.wav,0,pill,375,25,4,Japanese,m,1,0.1,68.821868,0.99381392
MOT,109,2,2024-06-24T03:08:13.362Z,english_31.wav,0,pill,375,25,4,Japanese,m,2,0.2,-73.02143346,0.87600828
MOT,109,2,2024-06-24T03:08:13.362Z,english_31.wav,0,pill,375,25,4,Japanese,m,3,0.3,68.60173581,1.15844697
MOT,109,2,2024-06-24T03:08:13.362Z,english_31.wav,0,pill,375,25,4,Japanese,m,4,0.32341667,51.47999234,1.3722803
MOT,110,2,2024-06-24T03:08:13.362Z,english_476.wav,0,pill,557,25,4,Japanese,m,0,0.0,67.27413703,1.71507594
MOT,110,2,2024-06-24T03:08:13.362Z,english_476.wav,0,pill,557,25,4,Japanese,m,1,0.1,-35.99891676,1.5691203
MOT,110,2,2024-06-24T03:08:13.362Z,english_476.wav,0,pill,557,25,4,Japanese,m,2,0.2,53.1347651,0.1869461
MOT,110,2,2024-06-24T03:08:13.362Z,english_476.wav,0,pill,557,25,4,Japanese,m,3,0.3,-27.53585108,0.94822926
MOT,110,2,2024-06-24T03:08:13.362Z,english_476.wav,0,pill,557,25,4,Japanese,m,4,0.32341667,13.88563074,1.63186757
MOT,111,2,2024-06-24T03:08:13.362Z,english_290.wav,0,pill,980,25,4,Japanese,m,0,0.0,73.71968657,0.30552726
MOT,111,2,2024-06-24T03:08:13.362Z,english_290.wav,0,pill,980,25,4,Japanese,m,1,0.1,-59.85317413,1.31636279
MOT,111,2,2024-06-24T03:08:13.362Z,english_290.wav,0,pill,980,25,4,Japanese,m,2,0.2,71.1426587,0.54925413
MOT,111,2,2024-06-24T03:08:13.362Z,english_290.wav,0,pill,980,25,4,Japanese,m,3,0.3,-18.50007061,1.26204455
MOT,111,2,2024-06-24T03:08:13.362Z,english_290.wav,0,pill,980,25,4,Japanese,m,4,0.32341667,-65.91143137,0.60528556
MOT,112,2,2024-06-24T03:08:13.362Z,english_839.wav,0,peel,390,25,4,Japanese,m,0,0.0,48.1700809,1.1821708
MOT,112,2,2024-06-24T03:08:13.362Z,english_839.wav,0,peel,390,25,4,Japanese,m,1,0.1,-8.22030768,1.15480022
MOT,112,2,2024-06-24T03:08:13.362Z,english_839.wav,0,peel,390,25,4,Japanese,m,2,0.2,53.56121636,1.57293091
MOT,112,2,2024-06-24T03:08:13.362Z,english_839.wav,0,peel,390,25,4,Japanese,m,3,0.3,4.54416263,0.22310878
MOT,112,2,2024-06-24T03:08:13.362Z,english_839.wav,0,peel,390,25,4,Japanese,m,4,0.32341667,-19.83463627,0.67140257
MOT,113,2,2024-06-24T03:08:13.362Z,english_70.wav,0,pill,364,25,4,Japanese,m,0,0.0,-53.09237622,1.21678364
MOT,113,2,2024-06-24T03:08:13.362Z,english_70.wav,0,pill,364,25,4,Japanese,m,1,0.1,85.97526897,0.94111324
MOT,113,2,2024-06-24T03:08:13.362Z,english_70.wav,0,pill,364,25,4,Japanese,m,2,0.2,25.5645184,1.03926055
MOT,113,2,2024-06-24T03:08:13.362Z,english_70.wav,0,pill,364,25,4,Japanese,m,3,0.3,1.25172137,0.29519406
MOT,113,2,2024-06-24T03:08:13.362Z,english_70.wav,0,pill,364,25,4,Japanese,m,4,0.32341667,93.59431896,0.80175783
MOT,114,2,2024-06-24T03:08:13.362Z,english_697.wav,0,pill,431,25,4,Japanese,m,0,0.0,34.8877197,0.0,0.10761674
MOT,114,2,2024-06-24T03:08:13.362Z,english_697.wav,0,pill,431,25,4,Japanese,m,1,0.1,-0.0129750448,0.1,0.88035305
MOT,114,2,2024-06-24T03:08:13.362Z,english_697.wav,0,pill,431,25,4,Japanese,m,2,0.2,48.8877829,0.2,0.12183403
MOT,114,2,2024-06-24T03:08:13.362Z,english_697.wav,0,pill,431,25,4,Japanese,m,3,0.3,68.5745634,0.3,0.55306263
MOT,114,2,2024-06-24T03:08:13.362Z,english_697.wav,0,pill,431,25,4,Japanese,m,4,0.323416667,18.9536775,0.32341667,1.83833688
MOT,115,2,2024-06-24T03:08:13.362Z,english_461.wav,0,pill,425,25,4,Japanese,m,0,0.0,-99.86661298,0.04975834
MOT,115,2,2024-06-24T03:08:13.362Z,english_461.wav,0,pill,425,25,4,Japanese,m,1,0.1,65.11959058,1.27856071
MOT,115,2,2024-06-24T03:08:13.362Z,english_461.wav,0,pill,425,25,4,Japanese,m,2,0.2,-96.19635976,1.53618081
MOT,115,2,2024-06-24T03:08:13.362Z,english_461.wav,0,pill,425,25,4,Japanese,m,3,0.3,56.69155656,1.97602464
MOT,115,2,2024-06-24T03:08:13.362Z,english_461.wav,0,pill,425,25,4,Japanese,m,4,0.32341667,-82.13106063,1.41647384
MOT,116,2,2024-06-24T03:08:13.362Z,english_78.wav,0,peel,275,25,4,Japanese,m,0,0.0,57.57509383,0.85738581
MOT,116,2,2024-06-24T03:08:13.362Z,english_78.wav,0,peel,275,25,4,Japanese,m,1,0.1,8.37611797,1.59375359
MOT,116,2,2024-06-24T03:08:13.362Z,english_78.wav,0,peel,275,25,4,Japanese,m,2,0.2,-42.8518908,1.65756647
MOT,116,2,2024-06-24T03:08:13.362Z,english_78.wav,0,peel,275,25,4,Japanese,m,3,0.3,26.19415986,0.53011742
MOT,116,2,2024-06-24T03:08:13.362Z,english_78.wav,0,peel,275,25,4,Japanese,m,4,0.32341667,65.52498429,1.5323802
MOT,117,2,2024-06-24T03:08:13.362Z,english_446.wav,0,pill,587,25,4,Japanese,m,0,0.0,-50.90487531,0.84721497
MOT,117,2,2024-06-24T03:08:13.362Z,english_446.wav,0,pill,587,25,4,Japanese,m,1,0.1,77.9515464,0.90863808
MOT,117,2,2024-06-24T03:08:13.362Z,english_446.wav,0,pill,587,25,4,Japanese,m,2,0.2,12.96913102,0.45582271
MOT,117,2,2024-06-24T03:08:13.362Z,english_446.wav,0,pill,587,25,4,Japanese,m,3,0.3,31.20275809,0.65529325
MOT,117,2,2024-06-24T03:08:13.362Z,english_446.wav,0,pill,587,25,4,Japanese,m,4,0.32341667,-30.39700356,0.08422993
MOT,118,2,2024-06-24T03:08:13.362Z,english_49.wav,0,peel,298,25,4,Japanese,m,0,0.0,-6.08822071,0.36436507
MOT,118,2,2024-06-24T03:08:13.362Z,english_49.wav,0,peel,298,25,4,Japanese,m,1,0.1,-56.0367764,1.66948988
MOT,118,2,2024-06-24T03:08:13.362Z,english_49.wav,0,peel,298,25,4,Japanese,m,2,0.2,-51.95657584,1.20554654
MOT,118,2,2024-06-24T03:08:13.362Z,english_49.wav,0,peel,298,25,4,Japanese,m,3,0.3,-59.93208112,0.31084089
MOT,118,2,2024-06-24T03:08:13.362Z,english_49.wav,0,peel,298,25,4,Japanese,m,4,0.32341667,-7.85847813,0.44223059
MOT,119,2,2024-06-24T03:08:13.362Z,english_510.wav,0,pill,446,25,4,Japanese,m,0,0.0,-39.77235695,0.97080384
MOT,119,2,2024-06-24T03:08:13.362Z,english_510.wav,0,pill,446,25,4,Japanese,m,1,0.1,-55.9025784,0.1022914
MOT,119,2,2024-06-24T03:08:13.362Z,english_510.wav,0,pill,446,25,4,Japanese,m,2,0.2,42.12378864,1.56878682
MOT,119,2,2024-06-24T03:08:13.362Z,english_510.wav,0,pill,446,25,4,Japanese,m,3,0.3,-5.9333084,1.19302163
MOT,119,2,2024-06-24T03:08:13.362Z,english_510.wav,0,pill,446,25,4,Japanese,m,4,0.32341667,84.8199861,1.45606517
MOT,120,2,2024-06-24T03:08:13.362Z,english_519.wav,0,peel,242,25,4,Japanese,m,0,0.0,-8.06946753,0.14231686
MOT,120,2,2024-06-24T03:08:13.362Z,english_519.wav,0,peel,242,25,4,Japanese,m,1,0.1,-66.74939098,1.74411569
MOT,120,2,2024-06-24T03:08:13.362Z,english_519.wav,0,peel,242,25,4,Japanese,m,2,0.2,-27.98142454,1.42967772
MOT,120,2,2024-06-24T03:08:13.362Z,english_519.wav,0,peel,242,25,4,Japanese,m,3,0.3,-72.75033344,0.44774012
MOT,120,2,2024-06-24T03:08:13.362Z,english_519.wav,0,peel,242,25,4,Japanese,m,4,0.32341667,-36.15575878,1.4256209
MOT,121,2,2024-06-24T03:08:13.362Z,english_64.wav,0,pill,894,25,4,Japanese,m,0,0.0,-77.75081389,0.01503168
MOT,121,2,2024-06-24T03:08:13.362Z,english_64.wav,0,pill,894,25,4,Japanese,m,1,0.1,47.79712302,0.51971923
MOT,121,2,2024-06-24T03:08:13.362Z,english_64.wav,0,pill,894,25,4,Japanese,m,2,0.2,-98.04646937,1.01128345
MOT,121,2,2024-06-24T03:08:13.362Z,english_64.wav,0,pill,894,25,4,Japanese,m,3,0.3,-20.17707595,0.69563875
MOT,121,2,2024-06-24T03:08:13.362Z,english_64.wav,0,pill,894,25,4,Japanese,m,4,0.32341667,53.05828969,1.51814807
MOT,122,2,2024-06-24T03:08:13.362Z,english_758.wav,0,peel,440,25,4,Japanese,m,0,0.0,-56.29380511,1.72966744
MOT,122,2,2024-06-24T03:08:13.362Z,english_758.wav,0,peel,440,25,4,Japanese,m,1,0.1,1.29517397,1.20455484
MOT,122,2,2024-06-24T03:08:13.362Z,english_758.wav,0,peel,440,25,4,Japanese,m,2,0.2,49.77366466,0.98441853
MOT,122,2,2024-06-24T03:08:13.362Z,english_758.wav,0,peel,440,25,4,Japanese,m,3,0.3,51.49077837,0.78323536
MOT,122,2,2024-06-24T03:08:13.362Z,english_758.wav,0,peel,440,25,4,Japanese,m,4,0.32341667,80.19813303,1.88107652
MOT,123,2,2024-06-24T03:08:13.362Z,english_829.wav,0,peel,426,25,4,Japanese,m,0,0.0,60.30417439,0.94286345
MOT,123,2,2024-06-24T03:08:13.362Z,english_829.wav,0,peel,426,25,4,Japanese,m,1,0.1,-26.87459656,0.76756767
MOT,123,2,2024-06-24T03:08:13.362Z,english_829.wav,0,peel,426,25,4,Japanese,m,2,0.2,59.05286014,1.50609211
MOT,123,2,2024-06-24T03:08:13.362Z,english_829.wav,0,peel,426,25,4,Japanese,m,3,0.3,-38.64739237,0.33518122
MOT,123,2,2024-06-24T03:08:13.362Z,english_829.wav,0,peel,426,25,4,Japanese,m,4,0.32341667,68.61732932,1.40687349
MOT,124,2,2024-06-24T03:08:13.362Z,english_363.wav,0,pill,1625,25,4,Japanese,m,0,0.0,-8.62246293,0.22304778
MOT,124,2,2024-06-24T03:08:13.362Z,english_363.wav,0,pill,1625,25,4,Japanese,m,1,0.1,-37.95317313,0.51009023
MOT,124,2,2024-06-24T03:08:13.362Z,english_363.wav,0,pill,1625,25,4,Japanese,m,2,0.2,-98.56362786,1.67320701
MOT,124,2,2024-06-24T03:08:13.362Z,english_363.wav,0,pill,1625,25,4,Japanese,m,3,0.3,79.4101663,0.32318158
MOT,124,2,2024-06-24T03:08:13.362Z,english_363.wav,0,pill,1625,25,4,Japanese,m,4,0.32341667,-19.01593507,1.23606141
MOT,125,2,2024-06-24T03:08:13.362Z,english_63.wav,0,peel,1069,25,4,Japanese,m,0,0.0,-99.27532027,1.55063038
MOT,125,2,2024-06-24T03:08:13.362Z,english_63.wav,0,peel,1069,25,4,Japanese,m,1,0.1,76.75365344,0.78453917
MOT,125,2,2024-06-24T03:08:13.362Z,english_63.wav,0,peel,1069,25,4,Japanese,m,2,0.2,-4.19867406,1.54061689
MOT,125,2,2024-06-24T03:08:13.362Z,english_63.wav,0,peel,1069,25,4,Japanese,m,3,0.3,58.21469339,0.9417581
MOT,125,2,2024-06-24T03:08:13.362Z,english_63.wav,0,peel,1069,25,4,Japanese,m,4,0.32341667,-76.25580242,1.07689855
MOT,126,2,2024-06-24T03:08:13.362Z,english_713.wav,0,pill,591,25,4,Japanese,m,0,0.0,18.77281956,1.04868626
MOT,126,2,2024-06-24T03:08:13.362Z,english_713.wav,0,pill,591,25,4,Japanese,m,1,0.1,40.78610286,0.48332939
MOT,126,2,2024-06-24T03:08:13.362Z,english_713.wav,0,pill,591,25,4,Japanese,m,2,0.2,84.18153491,0.83217717
MOT,126,2,2024-06-24T03:08:13.362Z,english_713.wav,0,pill,591,25,4,Japanese,m,3,0.3,47.00827256,1.90318663
MOT,126,2,2024-06-24T03:08:13.362Z,english_713.wav,0,pill,591,25,4,Japanese,m,4,0.32341667,66.01008384,0.50055362
MOT,127,2,2024-06-24T03:08:13.362Z,english_304.wav,0,pill,930,25,4,Japanese,m,0,0.0,-80.7192326,0.54130022
MOT,127,2,2024-06-24T03:08:13.362Z,english_304.wav,0,pill,930,25,4,Japanese,m,1,0.1,34.14230443,0.20766845
MOT,127,2,2024-06-24T03:08:13.362Z,english_304.wav,0,pill,930,25,4,Japanese,m,2,0.2,-43.78548789,1.25157904
MOT,127,2,2024-06-24T03:08:13.362Z,english_304.wav,0,pill,930,25,4,Japanese,m,3,0.3,85.79520644,0.76195837
MOT,127,2,2024-06-24T03:08:13.362Z,english_304.wav,0,pill,930,25,4,Japanese,m,4,0.32341667,-29.32737886,0.20991234
MOT,128,2,2024-06-24T03:08:13.362Z,english_635.wav,0,pill,633,25,4,Japanese,m,0,0.0,27.7169436,1.98702335
MOT,128,2,2024-06-24T03:08:13.362Z,english_635.wav,0,pill,633,25,4,Japanese,m,1,0.1,-44.8292656,1.27737447
MOT,128,2,2024-06-24T03:08:13.362Z,english_635.wav,0,pill,633,25,4,Japanese,m,2,0.2,67.97685769,0.57401651
MOT,128,2,2024-06-24T03:08:13.362Z,english_635.wav,0,pill,633,25,4,Japanese,m,3,0.3,82.0264667,0.46134276
MOT,128,2,2024-06-24T03:08:13.362Z,english_635.wav,0,pill,633,25,4,Japanese,m,4,0.32341667,84.34985253,0.71235155
MOT,129,2,2024-06-24T03:08:13.362Z,english_440.wav,0,pill,435,25,4,Japanese,m,0,0.0,44.70308901,0.0,1.51497438
MOT,129,2,2024-06-24T03:08:13.362Z,english_440.wav,0,pill,435,25,4,Japanese,m,1,0.1,-88.0257567,0.1,1.05972447
MOT,129,2,2024-06-24T03:08:13.362Z,english_440.wav,0,pill,435,25,4,Japanese,m,2,0.2,1.19893433,0.2,0.590820378
MOT,129,2,2024-06-24T03:08:13.362Z,english_440.wav,0,pill,435,25,4,Japanese,m,3,0.3,19.45485395,0.3,0.680586803
MOT,129,2,2024-06-24T03:08:13.362Z,english_440.wav,0,pill,435,25,4,Japanese,m,4,0.32341667,13.00088222,0.323416667,0.000618341324
MOT,130,2,2024-06-24T03:08:13.362Z,english_649.wav,0,pill,439,25,4,Japanese,m,0,0.0,65.82222467,0.56154429
MOT,130,2,2024-06-24T03:08:13.362Z,english_649.wav,0,pill,439,25,4,Japanese,m,1,0.1,-9.35575527,0.64767017
MOT,130,2,2024-06-24T03:08:13.362Z,english_649.wav,0,pill,439,25,4,Japanese,m,2,0.2,-91.83315911,0.84538271
MOT,130,2,2024-06-24T03:08:13.362Z,english_649.wav,0,pill,439,25,4,Japanese,m,3,0.3,79.30022345,0.4979411
MOT,130,2,2024-06-24T03:08:13.362Z,english_649.wav,0,pill,439,25,4,Japanese,m,4,0.32341667,45.86180924,0.89353148
MOT,131,2,2024-06-24T03:08:13.362Z,english_589.wav,0,pill,441,25,4,Japanese,m,0,0.0,58.55453646,1.98928345
MOT,131,2,2024-06-24T03:08:13.362Z,english_589.wav,0,pill,441,25,4,Japanese,m,1,0.1,30.45164265,1.49107718
MOT,131,2,2024-06-24T03:08:13.362Z,english_589.wav,0,pill,441,25,4,Japanese,m,2,0.2,-45.43400091,0.52639062
MOT,131,2,2024-06-24T03:08:13.362Z,english_589.wav,0,pill,441,25,4,Japanese,m,3,0.3,84.99084473,0.34590986
MOT,131,2,2024-06-24T03:08:13.362Z,english_589.wav,0,pill,441,25,4,Japanese,m,4,0.32341667,65.45411119,0.67022481
MOT,132,2,2024-06-24T03:08:13.362Z,english_691.wav,0,peel,575,25,4,Japanese,m,0,0.0,28.79078449,1.07683297
MOT,132,2,2024-06-24T03:08:13.362Z,english_691.wav,0,peel,575,25,4,Japanese,m,1,0.1,99.1184909,1.07376069
MOT,132,2,2024-06-24T03:08:13.362Z,english_691.wav,0,peel,575,25,4,Japanese,m,2,0.2,-54.13985733,0.28522735
MOT,132,2,2024-06-24T03:08:13.362Z,english_691.wav,0,peel,575,25,4,Japanese,m,3,0.3,-85.36319246,0.85701066
MOT,132,2,2024-06-24T03:08:13.362Z,english_691.wav,0,peel,575,25,4,Japanese,m,4,0.32341667,-73.61621094,1.71165398
MOT,133,2,2024-06-24T03:08:13.362Z,english_449.wav,0,peel,433,25,4,Japanese,m,0,0.0,-46.54576765,0.60085197
MOT,133,2,2024-06-24T03:08:13.362Z,english_449.wav,0,peel,433,25,4,Japanese,m,1,0.1,20.05422573,1.74901032
MOT,133,2,2024-06-24T03:08:13.362Z,english_449.wav,0,peel,433,25,4,Japanese,m,2,0.2,54.52400621,1.9506545
MOT,133,2,2024-06-24T03:08:13.362Z,english_449.wav,0,peel,433,25,4,Japanese,m,3,0.3,73.66855139,1.81044704
MOT,133,2,2024-06-24T03:08:13.362Z,english_449.wav,0,peel,433,25,4,Japanese,m,4,0.32341667,-1.88675615,0.93562966
MOT,134,2,2024-06-24T03:08:13.362Z,english_407.wav,0,peel,885,25,4,Japanese,m,0,0.0,-13.68776922,0.77658743
MOT,134,2,2024-06-24T03:08:13.362Z,english_407.wav,0,peel,885,25,4,Japanese,m,1,0.1,-57.11899702,1.53398674
MOT,134,2,2024-06-24T03:08:13.362Z,english_407.wav,0,peel,885,25,4,Japanese,m,2,0.2,62.94325807,0.70379875
MOT,134,2,2024-06-24T03:08:13.362Z,english_407.wav,0,peel,885,25,4,Japanese,m,3,0.3,-27.77030003,0.72470084
MOT,134,2,2024-06-24T03:08:13.362Z,english_407.wav,0,peel,885,25,4,Japanese,m,4,0.32341667,-61.90605897,0.771678
MOT,135,2,2024-06-24T03:08:13.362Z,english_653.wav,0,peel,664,25,4,Japanese,m,0,0.0,8.14815906,1.27061672
MOT,135,2,2024-06-24T03:08:13.362Z,english_653.wav,0,peel,664,25,4,Japanese,m,1,0.1,4.49815435,1.37470465
MOT,135,2,2024-06-24T03:08:13.362Z,english_653.wav,0,peel,664,25,4,Japanese,m,2,0.2,-96.80954485,1.57421691
MOT,135,2,2024-06-24T03:08:13.362Z,english_653.wav,0,peel,664,25,4,Japanese,m,3,0.3,-0.49075979,1.39011427
MOT,135,2,2024-06-24T03:08:13.362Z,english_653.wav,0,peel,664,25,4,Japanese,m,4,0.32341667,98.12577208,0.75484601
MOT,136,2,2024-06-24T03:08:13.362Z,english_618.wav,0,pill,688,25,4,Japanese,m,0,0.0,58.31579708,1.46895394
MOT,136,2,2024-06-24T03:08:13.362Z,english_618.wav,0,pill,688,25,4,Japanese,m,1,0.1,6.96253647,0.48660613
MOT,136,2,2024-06-24T03:08:13.362Z,english_618.wav,0,pill,688,25,4,Japanese,m,2,0.2,-4.41581756,1.00963977
MOT,136,2,2024-06-24T03:08:13.362Z,english_618.wav,0,pill,688,25,4,Japanese,m,3,0.3,-63.5775247,1.29399549
MOT,136,2,2024-06-24T03:08:13.362Z,english_618.wav,0,pill,688,25,4,Japanese,m,4,0.32341667,97.77631762,0.84060701
MOT,137,2,2024-06-24T03:08:13.362Z,english_469.wav,0,peel,58,25,4,Japanese,m,0,0.0,-12.92877168,0.59007764
MOT,137,2,2024-06-24T03:08:13.362Z,english_469.wav,0,peel,58,25,4,Japanese,m,1,0.1,-67.35237443,1.36577084
MOT,137,2,2024-06-24T03:08:13.362Z,english_469.wav,0,peel,58,25,4,Japanese,m,2,0.2,-70.76493751,1.86337992
MOT,137,2,2024-06-24T03:08:13.362Z,english_469.wav,0,peel,58,25,4,Japanese,m,3,0.3,86.785725,1.85233296
MOT,137,2,2024-06-24T03:08:13.362Z,english_469.wav,0,peel,58,25,4,Japanese,m,4,0.32341667,-36.33255728,1.108986
MOT,138,2,2024-06-24T03:08:13.362Z,english_311.wav,0,pill,537,25,4,Japanese,m,0,0.0,-35.59355899,0.16094856
MOT,138,2,2024-06-24T03:08:13.362Z,english_311.wav,0,pill,537,25,4,Japanese,m,1,0.1,-50.39310557,1.33895436
MOT,138,2,2024-06-24T03:08:13.362Z,english_311.wav,0,pill,537,25,4,Japanese,m,2,0.2,-53.37222601,0.01028283
MOT,138,2,2024-06-24T03:08:13.362Z,english_311.wav,0,pill,537,25,4,Japanese,m,3,0.3,72.25802658,0.48497386
MOT,138,2,2024-06-24T03:08:13.362Z,english_311.wav,0,pill,537,25,4,Japanese,m,4,0.32341667,48.72421008,0.48591183
MOT,139,2,2024-06-24T03:08:13.362Z,english_56.wav,0,pill,2020,25,4,Japanese,m,0,0.0,47.39262259,1.7837475
MOT,139,2,2024-06-24T03:08:13.362Z,english_56.wav,0,pill,2020,25,4,Japanese,m,1,0.1,8.89686315,1.39740624
MOT,139,2,2024-06-24T03:08:13.362Z,english_56.wav,0,pill,2020,25,4,Japanese,m,2,0.2,-49.65570225,0.11209095
MOT,139,2,2024-06-24T03:08:13.362Z,english_56.wav,0,pill,2020,25,4,Japanese,m,3,0.3,44.77904805,1.4946119
MOT,139,2,2024-06-24T03:08:13.362Z,english_56.wav,0,pill,2020,25,4,Japanese,m,4,0.32341667,-94.65832844,1.03498606
MOT,140,2,2024-06-24T03:08:13.362Z,english_751.wav,0,peel,451,25,4,Japanese,m,0,0.0,45.03630887,0.43450625
MOT,140,2,2024-06-24T03:08:13.362Z,english_751.wav,0,peel,451,25,4,Japanese,m,1,0.1,46.59103402,1.30072592
MOT,140,2,2024-06-24T03:08:13.362Z,english_751.wav,0,peel,451,25,4,Japanese,m,2,0.2,-30.90440374,1.20093797
MOT,140,2,2024-06-24T03:08:13.362Z,english_751.wav,0,peel,451,25,4,Japanese,m,3,0.3,-61.26470289,0.81911259
MOT,140,2,2024-06-24T03:08:13.362Z,english_751.wav,0,peel,451,25,4,Japanese,m,4,0.32341667,34.91384756,0.19140491
MOT,141,2,2024-06-24T03:08:13.362Z,english_239.wav,0,pill,583,25,4,Japanese,m,0,0.0,87.44943986,1.42022081
MOT,141,2,2024-06-24T03:08:13.362Z,english_239.wav,0,pill,583,25,4,Japanese,m,1,0.1,50.09814929,0.64261102
MOT,141,2,2024-06-24T03:08:13.362Z,english_239.wav,0,pill,583,25,4,Japanese,m,2,0.2,-20.91132269,0.17156284
MOT,141,2,2024-06-24T03:08:13.362Z,english_239.wav,0,pill,583,25,4,Japanese,m,3,0.3,1.56869958,1.89365974
MOT,141,2,2024-06-24T03:08:13.362Z,english_239.wav,0,pill,583,25,4,Japanese,m,4,0.32341667,15.23790706,1.86939691
MOT,142,2,2024-06-24T03:08:13.362Z,english_723.wav,0,peel,390,25,4,Japanese,m,0,0.0,-85.17156731,1.02541656
MOT,142,2,2024-06-24T03:08:13.362Z,english_723.wav,0,peel,390,25,4,Japanese,m,1,0.1,92.93654667,0.92088513
MOT,142,2,2024-06-24T03:08:13.362Z,english_723.wav,0,peel,390,25,4,Japanese,m,2,0.2,-28.89042756,0.78256854
MOT,142,2,2024-06-24T03:08:13.362Z,english_723.wav,0,peel,390,25,4,Japanese,m,3,0.3,36.79914563,1.22887413
MOT,142,2,2024-06-24T03:08:13.362Z,english_723.wav,0,peel,390,25,4,Japanese,m,4,0.32341667,6.86426773,1.77193963
MOT,143,2,2024-06-24T03:08:13.362Z,english_486.wav,0,pill,300,25,4,Japanese,m,0,0.0,31.41997184,1.22599644
MOT,143,2,2024-06-24T03:08:13.362Z,english_486.wav,0,pill,300,25,4,Japanese,m,1,0.1,58.03480486,1.4547445
MOT,143,2,2024-06-24T03:08:13.362Z,english_486.wav,0,pill,300,25,4,Japanese,m,2,0.2,-62.84801238,0.27967606
MOT,143,2,2024-06-24T03:08:13.362Z,english_486.wav,0,pill,300,25,4,Japanese,m,3,0.3,10.62451678,0.02065399
MOT,143,2,2024-06-24T03:08:13.362Z,english_486.wav,0,pill,300,25,4,Japanese,m,4,0.32341667,10.31835057,0.3128479
MOT,144,2,2024-06-24T03:08:13.362Z,english_359.wav,0,peel,463,25,4,Japanese,m,0,0.0,95.13315851,1.5844105
MOT,144,2,2024-06-24T03:08:13.362Z,english_359.wav,0,peel,463,25,4,Japanese,m,1,0.1,95.71495863,0.46491803
MOT,144,2,2024-06-24T03:08:13.362Z,english_359.wav,0,peel,463,25,4,Japanese,m,2,0.2,4.56295435,1.17107987
MOT,144,2,2024-06-24T03:08:13.362Z,english_359.wav,0,peel,463,25,4,Japanese,m,3,0.3,-11.93773809,0.63485582
MOT,144,2,2024-06-24T03:08:13.362Z,english_359.wav,0,peel,463,25,4,Japanese,m,4,0.32341667,-75.72789111,0.10666132
MOT,145,2,2024-06-24T03:08:13.362Z,english_761.wav,0,pill,683,25,4,Japanese,m,0,0.0,-7.84319468,0.39728316
MOT,145,2,2024-06-24T03:08:13.362Z,english_761.wav,0,pill,683,25,4,Japanese,m,1,0.1,77.10262164,0.76675063
MOT,145,2,2024-06-24T03:08:13.362Z,english_761.wav,0,pill,683,25,4,Japanese,m,2,0.2,23.07677451,1.40075404
MOT,145,2,2024-06-24T03:08:13.362Z,english_761.wav,0,pill,683,25,4,Japanese,m,3,0.3,-22.28856666,0.53792203
MOT,145,2,2024-06-24T03:08:13.362Z,english_761.wav,0,pill,683,25,4,Japanese,m,4,0.32341667,18.71779046,1.06229189
MOT,146,2,2024-06-24T03:08:13.362Z,english_36.wav,0,pill,481,25,4,Japanese,m,0,0.0,8.79498818,0.0614271
MOT,146,2,2024-06-24T03:08:13.362Z,english_36.wav,0,pill,481,25,4,Japanese,m,1,0.1,-18.99628775,0.22652961
MOT,146,2,2024-06-24T03:08:13.362Z,english_36.wav,0,pill,481,25,4,Japanese,m,2,0.2,-17.40156662,0.46484299
MOT,146,2,2024-06-24T03:08:13.362Z,english_36.wav,0,pill,481,25,4,Japanese,m,3,0.3,-85.73958234,0.81464033
MOT,146,2,2024-06-24T03:08:13.362Z,english_36.wav,0,pill,481,25,4,Japanese,m,4,0.32341667,45.44069908,0.21843777
MOT,147,2,2024-06-24T03:08:13.362Z,english_310.wav,0,peel,295,25,4,Japanese,m,0,0.0,82.1385274,0.14341218
MOT,147,2,2024-06-24T03:08:13.362Z,english_310.wav,0,peel,295,25,4,Japanese,m,1,0.1,-33.74608058,1.80934389
MOT,147,2,2024-06-24T03:08:13.362Z,english_310.wav,0,peel,295,25,4,Japanese,m,2,0.2,62.12487376,1.28785402
MOT,147,2,2024-06-24T03:08:13.362Z,english_310.wav,0,peel,295,25,4,Japanese,m,3,0.3,96.31437548,1.13060378
MOT,147,2,2024-06-24T03:08:13.362Z,english_310.wav,0,peel,295,25,4,Japanese,m,4,0.32341667,-23.64802517,1.05137249
MOT,148,2,2024-06-24T03:08:13.362Z,english_490.wav,0,peel,302,25,4,Japanese,m,0,0.0,39.23640548,0.12600295
MOT,148,2,2024-06-24T03:08:13.362Z,english_490.wav,0,peel,302,25,4,Japanese,m,1,0.1,-42.18123516,0.88631808
MOT,148,2,2024-06-24T03:08:13.362Z,english_490.wav,0,peel,302,25,4,Japanese,m,2,0.2,53.94030347,1.76218548
MOT,148,2,2024-06-24T03:08:13.362Z,english_490.wav,0,peel,302,25,4,Japanese,m,3,0.3,-65.41993581,1.86160188
MOT,148,2,2024-06-24T03:08:13.362Z,english_490.wav,0,peel,302,25,4,Japanese,m,4,0.32341667,90.15742696,1.03493088
MOT,149,2,2024-06-24T03:08:13.362Z,english_138.wav,0,pill,258,25,4,Japanese,m,0,0.0,-79.80620147,0.37063564
MOT,149,2,2024-06-24T03:08:13.362Z,english_138.wav,0,pill,258,25,4,Japanese,m,1,0.1,-15.42889109,0.81801141
MOT,149,2,2024-06-24T03:08:13.362Z,english_138.wav,0,pill,258,25,4,Japanese,m,2,0.2,-88.31677226,0.0634538
MOT,149,2,2024-06-24T03:08:13.362Z,english_138.wav,0,pill,258,25,4,Japanese,m,3,0.3,26.6486106,1.85131452
MOT,149,2,2024-06-24T03:08:13.362Z,english_138.wav,0,pill,258,25,4,Japanese,m,4,0.32341667,-42.18894711,1.66059024
MOT,150,3,2024-06-24T03:10:57.921Z,english_432.wav,0,peel,443,25,4,Japanese,m,0,0.0,34.04923955,0.51661687
MOT,150,3,2024-06-24T03:10:57.921Z,english_432.wav,0,peel,443,25,4,Japanese,m,1,0.1,-20.16773507,0.2259012
MOT,150,3,2024-06-24T03:10:57.921Z,english_432.wav,0,peel,443,25,4,Japanese,m,2,0.2,58.06800811,1.98214485
MOT,150,3,2024-06-24T03:10:57.921Z,english_432.wav,0,peel,443,25,4,Japanese,m,3,0.3,46.82268278,1.23025235
MOT,150,3,2024-06-24T03:10:57.921Z,english_432.wav,0,peel,443,25,4,Japanese,m,4,0.32341667,16.04458546,1.72803009
MOT,151,3,2024-06-24T03:10:57.921Z,english_699.wav,0,pill,1481,25,4,Japanese,m,0,0.0,-21.84844695,0.55007596
MOT,151,3,2024-06-24T03:10:57.921Z,english_699.wav,0,pill,1481,25,4,Japanese,m,1,0.1,-20.61050251,0.98595355
MOT,151,3,2024-06-24T03:10:57.921Z,english_699.wav,0,pill,1481,25,4,Japanese,m,2,0.2,-7.57046677,1.16771202
MOT,151,3,2024-06-24T03:10:57.921Z,english_699.wav,0,pill,1481,25,4,Japanese,m,3,0.3,-90.18255135,0.60930532
MOT,151,3,2024-06-24T03:10:57.921Z,english_699.wav,0,pill,1481,25,4,Japanese,m,4,0.32341667,-39.12532958,1.39260434
MOT,152,3,2024-06-24T03:10:57.921Z,english_737.wav,0,peel,1051,25,4,Japanese,m,0,0.0,21.35751723,1.17499048
MOT,152,3,2024-06-24T03:10:57.921Z,english_737.wav,0,peel,1051,25,4,Japanese,m,1,0.1,61.52152077,1.09581395
MOT,152,3,2024-06-24T03:10:57.921Z,english_737.wav,0,peel,1051,25,4,Japanese,m,2,0.2,-29.75610596,0.62940412
MOT,152,3,2024-06-24T03:10:57.921Z,english_737.wav,0,peel,1051,25,4,Japanese,m,3,0.3,-39.80249708,0.11793022
MOT,152,3,2024-06-24T03:10:57.921Z,english_737.wav,0,peel,1051,25,4,Japanese,m,4,0.32341667,-14.64937497,0.62377861
MOT,153,3,2024-06-24T03:10:57.921Z,english_601.wav,0,peel,997,25,4,Japanese,m,0,0.0,54.32401431,0.08668951
MOT,153,3,2024-06-24T03:10:57.921Z,english_601.wav,0,peel,997,25,4,Japanese,m,1,0.1,-6.72935942,1.16468766
MOT,153,3,2024-06-24T03:10:57.921Z,english_601.wav,0,peel,997,25,4,Japanese,m,2,0.2,39.12079493,1.8612572
MOT,153,3,2024-06-24T03:10:57.921Z,english_601.wav,0,peel,997,25,4,Japanese,m,3,0.3,39.92141387,0.92171433
MOT,153,3,2024-06-24T03:10:57.921Z,english_601.wav,0,peel,997,25,4,Japanese,m,4,0.32341667,-27.14681087,0.50419734
MOT,154,3,2024-06-24T03:10:57.921Z,english_922.wav,0,peel,696,25,4,Japanese,m,0,0.0,-90.36253489,0.33253962
MOT,154,3,2024-06-24T03:10:57.921Z,english_922.wav,0,peel,696,25,4,Japanese,m,1,0.1,-6.38761956,1.51366693
MOT,154,3,2024-06-24T03:10:57.921Z,english_922.wav,0,peel,696,25,4,Japanese,m,2,0.2,-78.09661245,0.40049791
MOT,154,3,2024-06-24T03:10:57.921Z,english_922.wav,0,peel,696,25,4,Japanese,m,3,0.3,-92.75722173,1.29207892
MOT,154,3,2024-06-24T03:10:57.921Z,english_922.wav,0,peel,696,25,4,Japanese,m,4,0.32341667,-80.16719401,1.40400382
MOT,155,3,2024-06-24T03:10:57.921Z,english_645.wav,0,pill,483,25,4,Japanese,m,0,0.0,44.09023725,0.24999948
MOT,155,3,2024-06-24T03:10:57.921Z,english_645.wav,0,pill,483,25,4,Japanese,m,1,0.1,53.49741331,0.20669006
MOT,155,3,2024-06-24T03:10:57.921Z,english_645.wav,0,pill,483,25,4,Japanese,m,2,0.2,28.7784214,0.13451906
MOT,155,3,2024-06-24T03:10:57.921Z,english_645.wav,0,pill,483,25,4,Japanese,m,3,0.3,-38.38386911,0.64617788
MOT,155,3,2024-06-24T03:10:57.921Z,english_645.wav,0,pill,483,25,4,Japanese,m,4,0.32341667,30.31484035,0.83061833
MOT,156,3,2024-06-24T03:10:57.921Z,english_643.wav,0,peel,363,25,4,Japanese,m,0,0.0,-40.15003434,1.60262153
MOT,156,3,2024-06-24T03:10:57.921Z,english_643.wav,0,peel,363,25,4,Japanese,m,1,0.1,-24.12893917,1.7682358
MOT,156,3,2024-06-24T03:10:57.921Z,english_643.wav,0,peel,363,25,4,Japanese,m,2,0.2,-40.66556796,0.31725537
MOT,156,3,2024-06-24T03:10:57.921Z,english_643.wav,0,peel,363,25,4,Japanese,m,3,0.3,75.01987067,0.56722121
MOT,156,3,2024-06-24T03:10:57.921Z,english_643.wav,0,peel,363,25,4,Japanese,m,4,0.32341667,29.71481383,1.87277365
MOT,157,3,2024-06-24T03:10:57.921Z,english_806.wav,0,peel,211,25,4,Japanese,m,0,0.0,17.38837614,1.03842349
MOT,157,3,2024-06-24T03:10:57.921Z,english_806.wav,0,peel,211,25,4,Japanese,m,1,0.1,50.31160736,1.08461549
MOT,157,3,2024-06-24T03:10:57.921Z,english_806.wav,0,peel,211,25,4,Japanese,m,2,0.2,74.21499327,1.8436814
MOT,157,3,2024-06-24T03:10:57.921Z,english_806.wav,0,peel,211,25,4,Japanese,m,3,0.3,16.647622,1.85846725
MOT,157,3,2024-06-24T03:10:57.921Z,english_806.wav,0,peel,211,25,4,Japanese,m,4,0.32341667,27.12519974,1.15820289
MOT,158,3,2024-06-24T03:10:57.921Z,english_594.wav,0,peel,237,25,4,Japanese,m,0,0.0,-85.15725243,1.49995106
MOT,158,3,2024-06-24T03:10:57.921Z,english_594.wav,0,peel,237,25,4,Japanese,m,1,0.1,18.57908242,1.36683942
MOT,158,3,2024-06-24T03:10:57.921Z,english_594.wav,0,peel,237,25,4,Japanese,m,2,0.2,-52.1381203,1.31792707
MOT,158,3,2024-06-24T03:10:57.921Z,english_594.wav,0,peel,237,25,4,Japanese,m,3,0.3,77.56862162,0.76119001
MOT,158,3,2024-06-24T03:10:57.921Z,english_594.wav,0,peel,237,25,4,Japanese,m,4,0.32341667,89.7133381,1.77084997
MOT,159,3,2024-06-24T03:10:57.921Z,english_348.wav,0,pill,412,25,4,Japanese,m,0,0.0,21.35215111,0.19799702
MOT,159,3,2024-06-24T03:10:57.921Z,english_348.wav,0,pill,412,25,4,Japanese,m,1,0.1,14.79849269,0.60931017
MOT,159,3,2024-06-24T03:10:57.921Z,english_348.wav,0,pill,412,25,4,Japanese,m,2,0.2,53.1788992,0.16102666
MOT,159,3,2024-06-24T03:10:57.921Z,english_348.wav,0,pill,412,25,4,Japanese,m,3,0.3,-95.85723561,1.54818605
MOT,159,3,2024-06-24T03:10:57.921Z,english_348.wav,0,pill,412,25,4,Japanese,m,4,0.32341667,5.27283499,0.26552753
MOT,160,3,2024-06-24T03:10:57.921Z,english_886.wav,0,peel,220,25,4,Japanese,m,0,0.0,52.0334205,0.43451348
MOT,160,3,2024-06-24T03:10:57.921Z,english_886.wav,0,peel,220,25,4,Japanese,m,1,0.1,-34.60142464,1.57387994
MOT,160,3,2024-06-24T03:10:57.921Z,english_886.wav,0,peel,220,25,4,Japanese,m,2,0.2,77.69993065,1.05416836
MOT,160,3,2024-06-24T03:10:57.921Z,english_886.wav,0,peel,220,25,4,Japanese,m,3,0.3,29.08950905,0.32554246
MOT,160,3,2024-06-24T03:10:57.921Z,english_886.wav,0,peel,220,25,4,Japanese,m,4,0.32341667,-98.8324779,1.85669509
MOT,161,3,2024-06-24T03:10:57.921Z,english_717.wav,0,peel,171,25,4,Japanese,m,0,0.0,11.70361719,1.43236824
MOT,161,3,2024-06-24T03:10:57.921Z,english_717.wav,0,peel,171,25,4,Japanese,m,1,0.1,-43.41962,0.38419888
MOT,161,3,2024-06-24T03:10:57.921Z,english_717.wav,0,peel,171,25,4,Japanese,m,2,0.2,-38.6653904,1.88953633
MOT,161,3,2024-06-24T03:10:57.921Z,english_717.wav,0,peel,171,25,4,Japanese,m,3,0.3,-38.11833374,1.28007762
MOT,161,3,2024-06-24T03:10:57.921Z,english_717.wav,0,peel,171,25,4,Japanese,m,4,0.32341667,93.29743671,0.67082429
MOT,162,3,2024-06-24T03:10:57.921Z,english_939.wav,0,peel,429,25,4,Japanese,m,0,0.0,-23.2558256,0.1774722
MOT,162,3,2024-06-24T03:10:57.921Z,english_939.wav,0,peel,429,25,4,Japanese,m,1,0.1,-16.62065377,0.56271239
MOT,162,3,2024-06-24T03:10:57.921Z,english_939.wav,0,peel,429,25,4,Japanese,m,2,0.2,-49.54734698,1.42782479
MOT,162,3,2024-06-24T03:10:57.921Z,english_939.wav,0,peel,429,25,4,Japanese,m,3,0.3,22.82101289,0.76516147
MOT,162,3,2024-06-24T03:10:57.921Z,english_939.wav,0,peel,429,25,4,Japanese,m,4,0.32341667,28.63490654,1.70219777
MOT,163,3,2024-06-24T03:10:57.921Z,english_950.wav,0,peel,66,25,4,Japanese,m,0,0.0,-21.9776243,0.20752278
MOT,163,3,2024-06-24T03:10:57.921Z,english_950.wav,0,peel,66,25,4,Japanese,m,1,0.1,-41.40023943,1.93939622
MOT,163,3,2024-06-24T03:10:57.921Z,english_950.wav,0,peel,66,25,4,Japanese,m,2,0.2,48.01515584,1.55608343
MOT,163,3,2024-06-24T03:10:57.921Z,english_950.wav,0,peel,66,25,4,Japanese,m,3,0.3,-87.95551252,1.49634866
MOT,163,3,2024-06-24T03:10:57.921Z,english_950.wav,0,peel,66,25,4,Japanese,m,4,0.32341667,-39.5252386,0.91783384
MOT,164,3,2024-06-24T03:10:57.921Z,english_22.wav,0,pill,497,25,4,Japanese,m,0,0.0,78.11206964,1.48448967
MOT,164,3,2024-06-24T03:10:57.921Z,english_22.wav,0,pill,497,25,4,Japanese,m,1,0.1,30.08823316,0.28770474
MOT,164,3,2024-06-24T03:10:57.921Z,english_22.wav,0,pill,497,25,4,Japanese,m,2,0.2,62.70691674,1.03274311
MOT,164,3,2024-06-24T03:10:57.921Z,english_22.wav,0,pill,497,25,4,Japanese,m,3,0.3,-69.9857022,0.45071415
MOT,164,3,2024-06-24T03:10:57.921Z,english_22.wav,0,pill,497,25,4,Japanese,m,4,0.32341667,-1.96178027,0.30900593
MOT,165,3,2024-06-24T03:10:57.921Z,english_720.wav,0,peel,258,25,4,Japanese,m,0,0.0,85.23240719,1.23446246
MOT,165,3,2024-06-24T03:10:57.921Z,english_720.wav,0,peel,258,25,4,Japanese,m,1,0.1,78.65958559,0.77382892
MOT,165,3,2024-06-24T03:10:57.921Z,english_720.wav,0,peel,258,25,4,Japanese,m,2,0.2,-56.45174874,0.48705718
MOT,165,3,2024-06-24T03:10:57.921Z,english_720.wav,0,peel,258,25,4,Japanese,m,3,0.3,71.88898266,1.42335328
MOT,165,3,2024-06-24T03:10:57.921Z,english_720.wav,0,peel,258,25,4,Japanese,m,4,0.32341667,-9.13482,1.32495619
MOT,166,3,2024-06-24T03:10:57.921Z,english_822.wav,0,peel,218,25,4,Japanese,m,0,0.0,22.19463519,1.34957498
MOT,166,3,2024-06-24T03:10:57.921Z,english_822.wav,0,peel,218,25,4,Japanese,m,1,0.1,46.02970585,1.18534363
MOT,166,3,2024-06-24T03:10:57.921Z,english_822.wav,0,peel,218,25,4,Japanese,m,2,0.2,44.31281831,0.88966115
MOT,166,3,2024-06-24T03:10:57.921Z,english_822.wav,0,peel,218,25,4,Japanese,m,3,0.3,27.24156044,1.22476657
MOT,166,3,2024-06-24T03:10:57.921Z,english_822.wav,0,peel,218,25,4,Japanese,m,4,0.32341667,41.58842879,0.51847317
MOT,167,3,2024-06-24T03:10:57.921Z,english_833.wav,0,peel,1670,25,4,Japanese,m,0,0.0,18.29317799,0.49951345
MOT,167,3,2024-06-24T03:10:57.921Z,english_833.wav,0,peel,1670,25,4,Japanese,m,1,0.1,20.01945042,1.12176851
MOT,167,3,2024-06-24T03:10:57.921Z,english_833.wav,0,peel,1670,25,4,Japanese,m,2,0.2,-77.99741705,0.59960618
MOT,167,3,2024-06-24T03:10:57.921Z,english_833.wav,0,peel,1670,25,4,Japanese,m,3,0.3,19.36192697,0.50557433
MOT,167,3,2024-06-24T03:10:57.921Z,english_833.wav,0,peel,1670,25,4,Japanese,m,4,0.32341667,43.06785988,0.3288339
MOT,168,3,2024-06-24T03:10:57.921Z,english_835.wav,0,pill,384,25,4,Japanese,m,0,0.0,-14.38506183,1.1584592
MOT,168,3,2024-06-24T03:10:57.921Z,english_835.wav,0,pill,384,25,4,Japanese,m,1,0.1,-85.63264453,0.74788643
MOT,168,3,2024-06-24T03:10:57.921Z,english_835.wav,0,pill,384,25,4,Japanese,m,2,0.2,-9.08737486,0.99645811
MOT,168,3,2024-06-24T03:10:57.921Z,english_835.wav,0,pill,384,25,4,Japanese,m,3,0.3,-52.4382226,1.13057998
MOT,168,3,2024-06-24T03:10:57.921Z,english_835.wav,0,pill,384,25,4,Japanese,m,4,0.32341667,30.89255677,0.17868889
MOT,169,3,2024-06-24T03:10:57.921Z,english_59.wav,0,pill,693,25,4,Japanese,m,0,0.0,30.26604033,1.5973148
MOT,169,3,2024-06-24T03:10:57.921Z,english_59.wav,0,pill,693,25,4,Japanese,m,1,0.1,25.69112756,0.24758472
MOT,169,3,2024-06-24T03:10:57.921Z,english_59.wav,0,pill,693,25,4,Japanese,m,2,0.2,-24.85549033,0.1547886
MOT,169,3,2024-06-24T03:10:57.921Z,english_59.wav,0,pill,693,25,4,Japanese,m,3,0.3,-31.2790444,0.30754036
MOT,169,3,2024-06-24T03:10:57.921Z,english_59.wav,0,pill,693,25,4,Japanese,m,4,0.32341667,86.30355152,0.40312024
MOT,170,3,2024-06-24T03:10:57.921Z,english_972.wav,0,peel,509,25,4,Japanese,m,0,0.0,-87.82800068,1.28286493
MOT,170,3,2024-06-24T03:10:57.921Z,english_972.wav,0,peel,509,25,4,Japanese,m,1,0.1,-25.45661385,0.89058027
MOT,170,3,2024-06-24T03:10:57.921Z,english_972.wav,0,peel,509,25,4,Japanese,m,2,0.2,2.95853851,1.4716374
MOT,170,3,2024-06-24T03:10:57.921Z,english_972.wav,0,peel,509,25,4,Japanese,m,3,0.3,84.61583696,0.6386035
MOT,170,3,2024-06-24T03:10:57.921Z,english_972.wav,0,peel,509,25,4,Japanese,m,4,0.32341667,42.95706616,1.51056083
MOT,171,3,2024-06-24T03:10:57.921Z,english_999.wav,0,peel,366,25,4,Japanese,m,0,0.0,-43.88463807,1.5561212
MOT,171,3,2024-06-24T03:10:57.921Z,english_999.wav,0,peel,366,25,4,Japanese,m,1,0.1,-19.69329198,1.76032244
MOT,171,3,2024-06-24T03:10:57.921Z,english_999.wav,0,peel,366,25,4,Japanese,m,2,0.2,-16.47401585,0.67323911
MOT,171,3,2024-06-24T03:10:57.921Z,english_999.wav,0,peel,366,25,4,Japanese,m,3,0.3,-27.91485083,0.0725875
MOT,171,3,2024-06-24T03:10:57.921Z,english_999.wav,0,peel,366,25,4,Japanese,m,4,0.32341667,-38.65265262,0.89314247
MOT,172,3,2024-06-24T03:10:57.921Z,english_118.wav,0,pill,402,25,4,Japanese,m,0,0.0,-46.26080879,0.77156844
MOT,172,3,2024-06-24T03:10:57.921Z,english_118.wav,0,pill,402,25,4,Japanese,m,1,0.1,-14.63576669,0.55135676
MOT,172,3,2024-06-24T03:10:57.921Z,english_118.wav,0,pill,402,25,4,Japanese,m,2,0.2,85.04541628,0.92804695
MOT,172,3,2024-06-24T03:10:57.921Z,english_118.wav,0,pill,402,25,4,Japanese,m,3,0.3,-49.31762638,1.40435072
MOT,172,3,2024-06-24T03:10:57.921Z,english_118.wav,0,pill,402,25,4,Japanese,m,4,0.32341667,16.64479416,1.67291824
MOT,173,3,2024-06-24T03:10:57.921Z,english_947.wav,0,peel,206,25,4,Japanese,m,0,0.0,73.13113362,0.1925557
MOT,173,3,2024-06-24T03:10:57.921Z,english_947.wav,0,peel,206,25,4,Japanese,m,1,0.1,-55.13077299,1.89478059
MOT,173,3,2024-06-24T03:10:57.921Z,english_947.wav,0,peel,206,25,4,Japanese,m,2,0.2,59.32217849,0.99662771
MOT,173,3,2024-06-24T03:10:57.921Z,english_947.wav,0,peel,206,25,4,Japanese,m,3,0.3,-71.25946194,0.61263341
MOT,173,3,2024-06-24T03:10:57.921Z,english_947.wav,0,peel,206,25,4,Japanese,m,4,0.32341667,39.2274254,0.46373334
MOT,174,3,2024-06-24T03:10:57.921Z,english_587.wav,0,peel,334,25,4,Japanese,m,0,0.0,-33.32102811,0.7972352
MOT,174,3,2024-06-24T03:10:57.921Z,english_587.wav,0,peel,334,25,4,Japanese,m,1,0.1,46.1287001,1.97425238
MOT,174,3,2024-06-24T03:10:57.921Z,english_587.wav,0,peel,334,25,4,Japanese,m,2,0.2,-62.23894368,0.99609006
MOT,174,3,2024-06-24T03:10:57.921Z,english_587.wav,0,peel,334,25,4,Japanese,m,3,0.3,36.67711132,1.18577707
MOT,174,3,2024-06-24T03:10:57.921Z,english_587.wav,0,peel,334,25,4,Japanese,m,4,0.32341667,-11.53320103,1.64089558
MOT,175,3,2024-06-24T03:10:57.921Z,english_48.wav,0,pill,802,25,4,Japanese,m,0,0.0,73.79399561,0.74385981
MOT,175,3,2024-06-24T03:10:57.921Z,english_48.wav,0,pill,802,25,4,Japanese,m,1,0.1,-6.33056249,1.05457567
MOT,175,3,2024-06-24T03:10:57.921Z,english_48.wav,0,pill,802,25,4,Japanese,m,2,0.2,-25.55346814,0.45493163
MOT,175,3,2024-06-24T03:10:57.921Z,english_48.wav,0,pill,802,25,4,Japanese,m,3,0.3,46.43305776,0.06513279
MOT,175,3,2024-06-24T03:10:57.921Z,english_48.wav,0,pill,802,25,4,Japanese,m,4,0.32341667,-46.56414761,0.46755714
MOT,176,3,2024-06-24T03:10:57.921Z,english_981.wav,0,peel,262,25,4,Japanese,m,0,0.0,-19.49446297,1.96452006
MOT,176,3,2024-06-24T03:10:57.921Z,english_981.wav,0,peel,262,25,4,Japanese,m,1,0.1,-69.0386812,1.2006287
MOT,176,3,2024-06-24T03:10:57.921Z,english_981.wav,0,peel,262,25,4,Japanese,m,2,0.2,-25.77088537,0.98600753
MOT,176,3,2024-06-24T03:10:57.921Z,english_981.wav,0,peel,262,25,4,Japanese,m,3,0.3,65.67633712,0.21362544
MOT,176,3,2024-06-24T03:10:57.921Z,english_981.wav,0,peel,262,25,4,Japanese,m,4,0.32341667,-6.1640169,0.33780549
MOT,177,3,2024-06-24T03:10:57.921Z,english_513.wav,0,pill,646,25,4,Japanese,m,0,0.0,76.78578212,0.02403043
MOT,177,3,2024-06-24T03:10:57.921Z,english_513.wav,0,pill,646,25,4,Japanese,m,1,0.1,20.42124481,0.85164369
MOT,177,3,2024-06-24T03:10:57.921Z,english_513.wav,0,pill,646,25,4,Japanese,m,2,0.2,83.32251122,1.08658436
MOT,177,3,2024-06-24T03:10:57.921Z,english_513.wav,0,pill,646,25,4,Japanese,m,3,0.3,47.28432413,0.40639055
MOT,177,3,2024-06-24T03:10:57.921Z,english_513.wav,0,pill,646,25,4,Japanese,m,4,0.32341667,-50.64117466,1.29336046
MOT,178,3,2024-06-24T03:10:57.921Z,english_909.wav,0,peel,218,25,4,Japanese,m,0,0.0,-19.4205152,0.17681169
MOT,178,3,2024-06-24T03:10:57.921Z,english_909.wav,0,peel,218,25,4,Japanese,m,1,0.1,-31.830868,1.02014656
MOT,178,3,2024-06-24T03:10:57.921Z,english_909.wav,0,peel,218,25,4,Japanese,m,2,0.2,71.05598051,1.59945112
MOT,178,3,2024-06-24T03:10:57.921Z,english_909.wav,0,peel,218,25,4,Japanese,m,3,0.3,-13.09259164,1.33685121
MOT,178,3,2024-06-24T03:10:57.921Z,english_909.wav,0,peel,218,25,4,Japanese,m,4,0.32341667,-99.47743822,0.41114962
MOT,179,3,2024-06-24T03:10:57.921Z,english_414.wav,0,peel,919,25,4,Japanese,m,0,0.0,19.47839865,0.9434816
MOT,179,3,2024-06-24T03:10:57.921Z,english_414.wav,0,peel,919,25,4,Japanese,m,1,0.1,59.9490877,1.1146936
MOT,179,3,2024-06-24T03:10:57.921Z,english_414.wav,0,peel,919,25,4,Japanese,m,2,0.2,22.33981162,0.48476454
MOT,179,3,2024-06-24T03:10:57.921Z,english_414.wav,0,peel,919,25,4,Japanese,m,3,0.3,18.97426154,0.23554241
MOT,179,3,2024-06-24T03:10:57.921Z,english_414.wav,0,peel,919,25,4,Japanese,m,4,0.32341667,15.16306506,1.13007685
MOT,180,3,2024-06-24T03:10:57.921Z,english_544.wav,0,peel,181,25,4,Japanese,m,0,0.0,96.80704334,1.85115917
MOT,180,3,2024-06-24T03:10:57.921Z,english_544.wav,0,peel,181,25,4,Japanese,m,1,0.1,70.5198752,0.8718407
MOT,180,3,2024-06-24T03:10:57.921Z,english_544.wav,0,peel,181,25,4,Japanese,m,2,0.2,78.21609099,1.82238935
MOT,180,3,2024-06-24T03:10:57.921Z,english_544.wav,0,peel,181,25,4,Japanese,m,3,0.3,-95.7752672,0.25719172
MOT,180,3,2024-06-24T03:10:57.921Z,english_544.wav,0,peel,181,25,4,Japanese,m,4,0.32341667,-56.58918052,0.72929157
MOT,181,3,2024-06-24T03:10:57.921Z,english_553.wav,0,pill,167,25,4,Japanese,m,0,0.0,-18.85071283,1.30647824
MOT,181,3,2024-06-24T03:10:57.921Z,english_553.wav,0,pill,167,25,4,Japanese,m,1,0.1,56.72439372,1.55205535
MOT,181,3,2024-06-24T03:10:57.921Z,english_553.wav,0,pill,167,25,4,Japanese,m,2,0.2,-32.51510613,1.79127341
MOT,181,3,2024-06-24T03:10:57.921Z,english_553.wav,0,pill,167,25,4,Japanese,m,3,0.3,-81.56708954,0.1795284
MOT,181,3,2024-06-24T03:10:57.921Z,english_553.wav,0,pill,167,25,4,Japanese,m,4,0.32341667,42.80590219,0.48805839
MOT,182,3,2024-06-24T03:10:57.921Z,english_47.wav,0,pill,1925,25,4,Japanese,m,0,0.0,70.62381491,1.36620222
MOT,182,3,2024-06-24T03:10:57.921Z,english_47.wav,0,pill,1925,25,4,Japanese,m,1,0.1,-43.60565268,0.47559644
MOT,182,3,2024-06-24T03:10:57.921Z,english_47.wav,0,pill,1925,25,4,Japanese,m,2,0.2,29.54670776,0.92078875
MOT,182,3,2024-06-24T03:10:57.921Z,english_47.wav,0,pill,1925,25,4,Japanese,m,3,0.3,95.208653,0.83015506
MOT,182,3,2024-06-24T03:10:57.921Z,english_47.wav,0,pill,1925,25,4,Japanese,m,4,0.32341667,-87.83630424,1.40747595
MOT,183,3,2024-06-24T03:10:57.921Z,english_827.wav,0,peel,2076,25,4,Japanese,m,0,0.0,-49.24128803,1.70838213
MOT,183,3,2024-06-24T03:10:57.921Z,english_827.wav,0,peel,2076,25,4,Japanese,m,1,0.1,62.6158679,0.88048656
MOT,183,3,2024-06-24T03:10:57.921Z,english_827.wav,0,peel,2076,25,4,Japanese,m,2,0.2,-85.72053716,1.47530841
MOT,183,3,2024-06-24T03:10:57.921Z,english_827.wav,0,peel,2076,25,4,Japanese,m,3,0.3,-65.54354982,0.04991031
MOT,183,3,2024-06-24T03:10:57.921Z,english_827.wav,0,peel,2076,25,4,Japanese,m,4,0.32341667,-42.30235352,0.1531298
MOT,184,3,2024-06-24T03:10:57.921Z,english_324.wav,0,pill,635,25,4,Japanese,m,0,0.0,49.07155908,0.10864525
MOT,184,3,2024-06-24T03:10:57.921Z,english_324.wav,0,pill,635,25,4,Japanese,m,1,0.1,-58.77252084,1.61132735
MOT,184,3,2024-06-24T03:10:57.921Z,english_324.wav,0,pill,635,25,4,Japanese,m,2,0.2,-55.40155542,0.60180616
MOT,184,3,2024-06-24T03:10:57.921Z,english_324.wav,0,pill,635,25,4,Japanese,m,3,0.3,19.02224292,0.93555132
