subj,trial,block,date,stim,stim_order,response,rt,age,english,language,sex,param_index,segment,pitch,stretch
NAY,0,0,2024-06-23T02:04:39.123Z,english_711.wav,0,peel,6619,19,3,Japanese,f,0,0.0,40.88671478,0.99029016
NAY,0,0,2024-06-23T02:04:39.123Z,english_711.wav,0,peel,6619,19,3,Japanese,f,1,0.1,9.07407961,0.54320223
NAY,0,0,2024-06-23T02:04:39.123Z,english_711.wav,0,peel,6619,19,3,Japanese,f,2,0.2,-23.01321115,1.60107
NAY,0,0,2024-06-23T02:04:39.123Z,english_711.wav,0,peel,6619,19,3,Japanese,f,3,0.3,-10.85681813,1.574764
NAY,0,0,2024-06-23T02:04:39.123Z,english_711.wav,0,peel,6619,19,3,Japanese,f,4,0.32341667,87.87195083,1.34863725
NAY,1,0,2024-06-23T02:04:39.123Z,english_416.wav,0,peel,4040,19,3,Japanese,f,0,0.0,26.92040942,0.66708871
NAY,1,0,2024-06-23T02:04:39.123Z,english_416.wav,0,peel,4040,19,3,Japanese,f,1,0.1,32.98463782,0.46140785
NAY,1,0,2024-06-23T02:04:39.123Z,english_416.wav,0,peel,4040,19,3,Japanese,f,2,0.2,94.30298269,0.4311344
NAY,1,0,2024-06-23T02:04:39.123Z,english_416.wav,0,peel,4040,19,3,Japanese,f,3,0.3,71.4008894,0.4522554
NAY,1,0,2024-06-23T02:04:39.123Z,english_416.wav,0,peel,4040,19,3,Japanese,f,4,0.32341667,-13.61584313,0.23817019
NAY,2,0,2024-06-23T02:04:39.123Z,english_39.wav,0,pill,1435,19,3,Japanese,f,0,0.0,28.0167149,1.3269735
NAY,2,0,2024-06-23T02:04:39.123Z,english_39.wav,0,pill,1435,19,3,Japanese,f,1,0.1,0.73047565,0.59121622
NAY,2,0,2024-06-23T02:04:39.123Z,english_39.wav,0,pill,1435,19,3,Japanese,f,2,0.2,-55.83763262,0.32613901
NAY,2,0,2024-06-23T02:04:39.123Z,english_39.wav,0,pill,1435,19,3,Japanese,f,3,0.3,-59.78026112,1.39661139
NAY,2,0,2024-06-23T02:04:39.123Z,english_39.wav,0,pill,1435,19,3,Japanese,f,4,0.32341667,81.1603589,0.76065887
NAY,3,0,2024-06-23T02:04:39.123Z,english_915.wav,0,peel,3108,19,3,Japanese,f,0,0.0,40.39704719,0.11203387
NAY,3,0,2024-06-23T02:04:39.123Z,english_915.wav,0,peel,3108,19,3,Japanese,f,1,0.1,-77.86782689,0.449249
NAY,3,0,2024-06-23T02:04:39.123Z,english_915.wav,0,peel,3108,19,3,Japanese,f,2,0.2,21.84672988,0.02407483
NAY,3,0,2024-06-23T02:04:39.123Z,english_915.wav,0,peel,3108,19,3,Japanese,f,3,0.3,-56.0972156,1.6502756
NAY,3,0,2024-06-23T02:04:39.123Z,english_915.wav,0,peel,3108,19,3,Japanese,f,4,0.32341667,65.00594456,0.65362707
NAY,4,0,2024-06-23T02:04:39.123Z,english_642.wav,0,pill,2229,19,3,Japanese,f,0,0.0,31.40946548,0.21393667
NAY,4,0,2024-06-23T02:04:39.123Z,english_642.wav,0,pill,2229,19,3,Japanese,f,1,0.1,4.73018903,1.31302396
NAY,4,0,2024-06-23T02:04:39.123Z,english_642.wav,0,pill,2229,19,3,Japanese,f,2,0.2,85.2390777,0.95537026
NAY,4,0,2024-06-23T02:04:39.123Z,english_642.wav,0,pill,2229,19,3,Japanese,f,3,0.3,-59.81643451,1.00167733
NAY,4,0,2024-06-23T02:04:39.123Z,english_642.wav,0,pill,2229,19,3,Japanese,f,4,0.32341667,-42.92691369,0.89750156
NAY,5,0,2024-06-23T02:04:39.123Z,english_328.wav,0,pill,2593,19,3,Japanese,f,0,0.0,-24.96515822,0.68772771
NAY,5,0,2024-06-23T02:04:39.123Z,english_328.wav,0,pill,2593,19,3,Japanese,f,1,0.1,36.64267249,0.30369637
NAY,5,0,2024-06-23T02:04:39.123Z,english_328.wav,0,pill,2593,19,3,Japanese,f,2,0.2,-93.60804347,1.16330199
NAY,5,0,2024-06-23T02:04:39.123Z,english_328.wav,0,pill,2593,19,3,Japanese,f,3,0.3,9.86556644,0.69001341
NAY,5,0,2024-06-23T02:04:39.123Z,english_328.wav,0,pill,2593,19,3,Japanese,f,4,0.32341667,-17.13685423,0.54642887
NAY,6,0,2024-06-23T02:04:39.123Z,english_829.wav,0,pill,2608,19,3,Japanese,f,0,0.0,60.30417439,0.94286345
NAY,6,0,2024-06-23T02:04:39.123Z,english_829.wav,0,pill,2608,19,3,Japanese,f,1,0.1,-26.87459656,0.76756767
NAY,6,0,2024-06-23T02:04:39.123Z,english_829.wav,0,pill,2608,19,3,Japanese,f,2,0.2,59.05286014,1.50609211
NAY,6,0,2024-06-23T02:04:39.123Z,english_829.wav,0,pill,2608,19,3,Japanese,f,3,0.3,-38.64739237,0.33518122
NAY,6,0,2024-06-23T02:04:39.123Z,english_829.wav,0,pill,2608,19,3,Japanese,f,4,0.32341667,68.61732932,1.40687349
NAY,7,0,2024-06-23T02:04:39.123Z,english_617.wav,0,peel,1505,19,3,Japanese,f,0,0.0,-99.94195333,1.17597353
NAY,7,0,2024-06-23T02:04:39.123Z,english_617.wav,0,peel,1505,19,3,Japanese,f,1,0.1,-27.54289523,0.72595777
NAY,7,0,2024-06-23T02:04:39.123Z,english_617.wav,0,peel,1505,19,3,Japanese,f,2,0.2,-31.48016085,0.94648609
NAY,7,0,2024-06-23T02:04:39.123Z,english_617.wav,0,peel,1505,19,3,Japanese,f,3,0.3,-72.28967102,1.67485207
NAY,7,0,2024-06-23T02:04:39.123Z,english_617.wav,0,peel,1505,19,3,Japanese,f,4,0.32341667,-18.83127656,0.94146903
NAY,8,0,2024-06-23T02:04:39.123Z,english_234.wav,0,pill,1379,19,3,Japanese,f,0,0.0,-96.19421376,0.0948498
NAY,8,0,2024-06-23T02:04:39.123Z,english_234.wav,0,pill,1379,19,3,Japanese,f,1,0.1,96.13097212,1.36649532
NAY,8,0,2024-06-23T02:04:39.123Z,english_234.wav,0,pill,1379,19,3,Japanese,f,2,0.2,-68.61115628,0.00312314
NAY,8,0,2024-06-23T02:04:39.123Z,english_234.wav,0,pill,1379,19,3,Japanese,f,3,0.3,58.3624958,0.01269103
NAY,8,0,2024-06-23T02:04:39.123Z,english_234.wav,0,pill,1379,19,3,Japanese,f,4,0.32341667,60.51337125,1.76377265
NAY,9,0,2024-06-23T02:04:39.123Z,english_520.wav,0,pill,2345,19,3,Japanese,f,0,0.0,86.3711843,1.94117834
NAY,9,0,2024-06-23T02:04:39.123Z,english_520.wav,0,pill,2345,19,3,Japanese,f,1,0.1,30.73905166,1.71866566
NAY,9,0,2024-06-23T02:04:39.123Z,english_520.wav,0,pill,2345,19,3,Japanese,f,2,0.2,6.06230503,1.15295637
NAY,9,0,2024-06-23T02:04:39.123Z,english_520.wav,0,pill,2345,19,3,Japanese,f,3,0.3,-72.93527416,0.80072648
NAY,9,0,2024-06-23T02:04:39.123Z,english_520.wav,0,pill,2345,19,3,Japanese,f,4,0.32341667,40.17700679,1.71054199
NAY,10,0,2024-06-23T02:04:39.123Z,english_305.wav,0,peel,1540,19,3,Japanese,f,0,0.0,-23.95553444,0.70401859
NAY,10,0,2024-06-23T02:04:39.123Z,english_305.wav,0,peel,1540,19,3,Japanese,f,1,0.1,-97.95184299,0.00875292
NAY,10,0,2024-06-23T02:04:39.123Z,english_305.wav,0,peel,1540,19,3,Japanese,f,2,0.2,95.23338475,1.8427633
NAY,10,0,2024-06-23T02:04:39.123Z,english_305.wav,0,peel,1540,19,3,Japanese,f,3,0.3,10.74081096,1.83453859
NAY,10,0,2024-06-23T02:04:39.123Z,english_305.wav,0,peel,1540,19,3,Japanese,f,4,0.32341667,24.9757793,1.77535614
NAY,11,0,2024-06-23T02:04:39.123Z,english_443.wav,0,pill,903,19,3,Japanese,f,0,0.0,0.608638,1.06022382
NAY,11,0,2024-06-23T02:04:39.123Z,english_443.wav,0,pill,903,19,3,Japanese,f,1,0.1,15.80398242,1.02694767
NAY,11,0,2024-06-23T02:04:39.123Z,english_443.wav,0,pill,903,19,3,Japanese,f,2,0.2,-53.8454718,0.72801533
NAY,11,0,2024-06-23T02:04:39.123Z,english_443.wav,0,pill,903,19,3,Japanese,f,3,0.3,32.36058062,1.22153209
NAY,11,0,2024-06-23T02:04:39.123Z,english_443.wav,0,pill,903,19,3,Japanese,f,4,0.32341667,41.23353215,0.58841963
NAY,12,0,2024-06-23T02:04:39.123Z,english_669.wav,0,peel,1822,19,3,Japanese,f,0,0.0,-58.38123624,0.53455866
NAY,12,0,2024-06-23T02:04:39.123Z,english_669.wav,0,peel,1822,19,3,Japanese,f,1,0.1,-80.20155876,0.64376179
NAY,12,0,2024-06-23T02:04:39.123Z,english_669.wav,0,peel,1822,19,3,Japanese,f,2,0.2,-25.59737246,0.76694756
NAY,12,0,2024-06-23T02:04:39.123Z,english_669.wav,0,peel,1822,19,3,Japanese,f,3,0.3,-30.25633946,1.36842807
NAY,12,0,2024-06-23T02:04:39.123Z,english_669.wav,0,peel,1822,19,3,Japanese,f,4,0.32341667,-70.78768349,0.06434218
NAY,13,0,2024-06-23T02:04:39.123Z,english_703.wav,0,pill,1400,19,3,Japanese,f,0,0.0,21.25560127,1.22587136
NAY,13,0,2024-06-23T02:04:39.123Z,english_703.wav,0,pill,1400,19,3,Japanese,f,1,0.1,-5.61566417,1.28752652
NAY,13,0,2024-06-23T02:04:39.123Z,english_703.wav,0,pill,1400,19,3,Japanese,f,2,0.2,-88.15973778,1.61643937
NAY,13,0,2024-06-23T02:04:39.123Z,english_703.wav,0,pill,1400,19,3,Japanese,f,3,0.3,39.86499493,1.32560109
NAY,13,0,2024-06-23T02:04:39.123Z,english_703.wav,0,pill,1400,19,3,Japanese,f,4,0.32341667,64.67338156,0.74206522
NAY,14,0,2024-06-23T02:04:39.123Z,english_702.wav,0,peel,1306,19,3,Japanese,f,0,0.0,-19.6614881,1.13820402
NAY,14,0,2024-06-23T02:04:39.123Z,english_702.wav,0,peel,1306,19,3,Japanese,f,1,0.1,-92.60133235,1.47755069
NAY,14,0,2024-06-23T02:04:39.123Z,english_702.wav,0,peel,1306,19,3,Japanese,f,2,0.2,-18.01071493,1.33705675
NAY,14,0,2024-06-23T02:04:39.123Z,english_702.wav,0,peel,1306,19,3,Japanese,f,3,0.3,91.54675011,0.59768286
NAY,14,0,2024-06-23T02:04:39.123Z,english_702.wav,0,peel,1306,19,3,Japanese,f,4,0.32341667,23.09112348,0.82103567
NAY,15,0,2024-06-23T02:04:39.123Z,english_884.wav,0,peel,1214,19,3,Japanese,f,0,0.0,77.1498115,1.83268558
NAY,15,0,2024-06-23T02:04:39.123Z,english_884.wav,0,peel,1214,19,3,Japanese,f,1,0.1,10.32602389,0.76817862
NAY,15,0,2024-06-23T02:04:39.123Z,english_884.wav,0,peel,1214,19,3,Japanese,f,2,0.2,4.15464736,1.59331573
NAY,15,0,2024-06-23T02:04:39.123Z,english_884.wav,0,peel,1214,19,3,Japanese,f,3,0.3,21.19252889,0.58913169
NAY,15,0,2024-06-23T02:04:39.123Z,english_884.wav,0,peel,1214,19,3,Japanese,f,4,0.32341667,-7.11336122,0.81393531
NAY,16,0,2024-06-23T02:04:39.123Z,english_179.wav,0,peel,1449,19,3,Japanese,f,0,0.0,76.93131114,0.23318107
NAY,16,0,2024-06-23T02:04:39.123Z,english_179.wav,0,peel,1449,19,3,Japanese,f,1,0.1,5.5150778,0.47080089
NAY,16,0,2024-06-23T02:04:39.123Z,english_179.wav,0,peel,1449,19,3,Japanese,f,2,0.2,3.89208722,1.31062884
NAY,16,0,2024-06-23T02:04:39.123Z,english_179.wav,0,peel,1449,19,3,Japanese,f,3,0.3,-8.47825544,0.27743795
NAY,16,0,2024-06-23T02:04:39.123Z,english_179.wav,0,peel,1449,19,3,Japanese,f,4,0.32341667,50.73924617,0.83516241
NAY,17,0,2024-06-23T02:04:39.123Z,english_619.wav,0,peel,1376,19,3,Japanese,f,0,0.0,38.53351318,1.25542912
NAY,17,0,2024-06-23T02:04:39.123Z,english_619.wav,0,peel,1376,19,3,Japanese,f,1,0.1,-11.21157995,0.83005785
NAY,17,0,2024-06-23T02:04:39.123Z,english_619.wav,0,peel,1376,19,3,Japanese,f,2,0.2,29.79887689,1.51254928
NAY,17,0,2024-06-23T02:04:39.123Z,english_619.wav,0,peel,1376,19,3,Japanese,f,3,0.3,48.6384615,0.37972577
NAY,17,0,2024-06-23T02:04:39.123Z,english_619.wav,0,peel,1376,19,3,Japanese,f,4,0.32341667,-66.5905708,0.44889873
NAY,18,0,2024-06-23T02:04:39.123Z,english_975.wav,0,pill,898,19,3,Japanese,f,0,0.0,30.76275893,1.75032315
NAY,18,0,2024-06-23T02:04:39.123Z,english_975.wav,0,pill,898,19,3,Japanese,f,1,0.1,-18.30184736,1.1766706
NAY,18,0,2024-06-23T02:04:39.123Z,english_975.wav,0,pill,898,19,3,Japanese,f,2,0.2,88.92209311,0.11148121
NAY,18,0,2024-06-23T02:04:39.123Z,english_975.wav,0,pill,898,19,3,Japanese,f,3,0.3,-15.78836893,1.00992181
NAY,18,0,2024-06-23T02:04:39.123Z,english_975.wav,0,pill,898,19,3,Japanese,f,4,0.32341667,81.69873146,1.08252971
NAY,19,0,2024-06-23T02:04:39.123Z,english_638.wav,0,pill,1055,19,3,Japanese,f,0,0.0,6.92468799,1.1702122
NAY,19,0,2024-06-23T02:04:39.123Z,english_638.wav,0,pill,1055,19,3,Japanese,f,1,0.1,52.10042521,0.51269982
NAY,19,0,2024-06-23T02:04:39.123Z,english_638.wav,0,pill,1055,19,3,Japanese,f,2,0.2,-39.07293948,0.1912204
NAY,19,0,2024-06-23T02:04:39.123Z,english_638.wav,0,pill,1055,19,3,Japanese,f,3,0.3,38.46029754,0.91406415
NAY,19,0,2024-06-23T02:04:39.123Z,english_638.wav,0,pill,1055,19,3,Japanese,f,4,0.32341667,-16.6630855,1.67689755
NAY,20,0,2024-06-23T02:04:39.123Z,english_725.wav,0,pill,994,19,3,Japanese,f,0,0.0,26.80600371,0.25466557
NAY,20,0,2024-06-23T02:04:39.123Z,english_725.wav,0,pill,994,19,3,Japanese,f,1,0.1,82.24352357,0.77088778
NAY,20,0,2024-06-23T02:04:39.123Z,english_725.wav,0,pill,994,19,3,Japanese,f,2,0.2,-3.79901328,0.70697722
NAY,20,0,2024-06-23T02:04:39.123Z,english_725.wav,0,pill,994,19,3,Japanese,f,3,0.3,68.54562933,1.24247197
NAY,20,0,2024-06-23T02:04:39.123Z,english_725.wav,0,pill,994,19,3,Japanese,f,4,0.32341667,-39.79698803,1.34526742
NAY,21,0,2024-06-23T02:04:39.123Z,english_196.wav,0,peel,991,19,3,Japanese,f,0,0.0,-86.38202104,1.63362226
NAY,21,0,2024-06-23T02:04:39.123Z,english_196.wav,0,peel,991,19,3,Japanese,f,1,0.1,0.95731439,1.36148231
NAY,21,0,2024-06-23T02:04:39.123Z,english_196.wav,0,peel,991,19,3,Japanese,f,2,0.2,-48.4797064,0.68683683
NAY,21,0,2024-06-23T02:04:39.123Z,english_196.wav,0,peel,991,19,3,Japanese,f,3,0.3,50.57477866,1.59869277
NAY,21,0,2024-06-23T02:04:39.123Z,english_196.wav,0,peel,991,19,3,Japanese,f,4,0.32341667,-52.07184875,0.40963154
NAY,22,0,2024-06-23T02:04:39.123Z,english_186.wav,0,peel,2024,19,3,Japanese,f,0,0.0,-54.7664391,1.87021502
NAY,22,0,2024-06-23T02:04:39.123Z,english_186.wav,0,peel,2024,19,3,Japanese,f,1,0.1,-8.4263529,1.36390049
NAY,22,0,2024-06-23T02:04:39.123Z,english_186.wav,0,peel,2024,19,3,Japanese,f,2,0.2,6.22451559,1.69942617
NAY,22,0,2024-06-23T02:04:39.123Z,english_186.wav,0,peel,2024,19,3,Japanese,f,3,0.3,-12.35671223,1.8066537
NAY,22,0,2024-06-23T02:04:39.123Z,english_186.wav,0,peel,2024,19,3,Japanese,f,4,0.32341667,86.21839615,1.2511354
NAY,23,0,2024-06-23T02:04:39.123Z,english_81.wav,0,peel,1020,19,3,Japanese,f,0,0.0,-8.99652005,1.6890162
NAY,23,0,2024-06-23T02:04:39.123Z,english_81.wav,0,peel,1020,19,3,Japanese,f,1,0.1,37.2959996,1.86826101
NAY,23,0,2024-06-23T02:04:39.123Z,english_81.wav,0,peel,1020,19,3,Japanese,f,2,0.2,56.49217416,0.68929954
NAY,23,0,2024-06-23T02:04:39.123Z,english_81.wav,0,peel,1020,19,3,Japanese,f,3,0.3,99.31521879,0.22383451
NAY,23,0,2024-06-23T02:04:39.123Z,english_81.wav,0,peel,1020,19,3,Japanese,f,4,0.32341667,-25.36881215,0.930773
NAY,24,0,2024-06-23T02:04:39.123Z,english_945.wav,0,peel,2047,19,3,Japanese,f,0,0.0,63.16075011,1.8314946
NAY,24,0,2024-06-23T02:04:39.123Z,english_945.wav,0,peel,2047,19,3,Japanese,f,1,0.1,87.55520176,1.3737613
NAY,24,0,2024-06-23T02:04:39.123Z,english_945.wav,0,peel,2047,19,3,Japanese,f,2,0.2,-69.60467193,0.61639792
NAY,24,0,2024-06-23T02:04:39.123Z,english_945.wav,0,peel,2047,19,3,Japanese,f,3,0.3,-69.25530384,1.67239747
NAY,24,0,2024-06-23T02:04:39.123Z,english_945.wav,0,peel,2047,19,3,Japanese,f,4,0.32341667,-47.64160087,1.88344595
NAY,25,0,2024-06-23T02:04:39.123Z,english_510.wav,0,peel,1997,19,3,Japanese,f,0,0.0,-39.77235695,0.97080384
NAY,25,0,2024-06-23T02:04:39.123Z,english_510.wav,0,peel,1997,19,3,Japanese,f,1,0.1,-55.9025784,0.1022914
NAY,25,0,2024-06-23T02:04:39.123Z,english_510.wav,0,peel,1997,19,3,Japanese,f,2,0.2,42.12378864,1.56878682
NAY,25,0,2024-06-23T02:04:39.123Z,english_510.wav,0,peel,1997,19,3,Japanese,f,3,0.3,-5.9333084,1.19302163
NAY,25,0,2024-06-23T02:04:39.123Z,english_510.wav,0,peel,1997,19,3,Japanese,f,4,0.32341667,84.8199861,1.45606517
NAY,26,0,2024-06-23T02:04:39.123Z,english_872.wav,0,pill,1665,19,3,Japanese,f,0,0.0,0.56374655,0.10935802
NAY,26,0,2024-06-23T02:04:39.123Z,english_872.wav,0,pill,1665,19,3,Japanese,f,1,0.1,-70.88107799,0.91778609
NAY,26,0,2024-06-23T02:04:39.123Z,english_872.wav,0,pill,1665,19,3,Japanese,f,2,0.2,6.46677515,1.38740199
NAY,26,0,2024-06-23T02:04:39.123Z,english_872.wav,0,pill,1665,19,3,Japanese,f,3,0.3,-23.51354109,0.12682507
NAY,26,0,2024-06-23T02:04:39.123Z,english_872.wav,0,pill,1665,19,3,Japanese,f,4,0.32341667,81.64578493,0.71067476
NAY,27,0,2024-06-23T02:04:39.123Z,english_752.wav,0,peel,1717,19,3,Japanese,f,0,0.0,-89.50526135,1.26833375
NAY,27,0,2024-06-23T02:04:39.123Z,english_752.wav,0,peel,1717,19,3,Japanese,f,1,0.1,16.42916277,1.25445964
NAY,27,0,2024-06-23T02:04:39.123Z,english_752.wav,0,peel,1717,19,3,Japanese,f,2,0.2,-62.11724863,1.84048801
NAY,27,0,2024-06-23T02:04:39.123Z,english_752.wav,0,peel,1717,19,3,Japanese,f,3,0.3,-22.7839786,0.96813738
NAY,27,0,2024-06-23T02:04:39.123Z,english_752.wav,0,peel,1717,19,3,Japanese,f,4,0.32341667,21.77934146,1.95604557
NAY,28,0,2024-06-23T02:04:39.123Z,english_144.wav,0,pill,831,19,3,Japanese,f,0,0.0,-68.95587174,0.23806678
NAY,28,0,2024-06-23T02:04:39.123Z,english_144.wav,0,pill,831,19,3,Japanese,f,1,0.1,-74.16141139,0.77020267
NAY,28,0,2024-06-23T02:04:39.123Z,english_144.wav,0,pill,831,19,3,Japanese,f,2,0.2,-19.31034794,0.33858197
NAY,28,0,2024-06-23T02:04:39.123Z,english_144.wav,0,pill,831,19,3,Japanese,f,3,0.3,-77.96768175,1.42512122
NAY,28,0,2024-06-23T02:04:39.123Z,english_144.wav,0,pill,831,19,3,Japanese,f,4,0.32341667,3.46911061,0.57629619
NAY,29,0,2024-06-23T02:04:39.123Z,english_924.wav,0,peel,1650,19,3,Japanese,f,0,0.0,63.64154058,1.83477076
NAY,29,0,2024-06-23T02:04:39.123Z,english_924.wav,0,peel,1650,19,3,Japanese,f,1,0.1,-60.55254199,0.21366754
NAY,29,0,2024-06-23T02:04:39.123Z,english_924.wav,0,peel,1650,19,3,Japanese,f,2,0.2,-47.94670646,1.07859551
NAY,29,0,2024-06-23T02:04:39.123Z,english_924.wav,0,peel,1650,19,3,Japanese,f,3,0.3,-76.50696127,1.9507375
NAY,29,0,2024-06-23T02:04:39.123Z,english_924.wav,0,peel,1650,19,3,Japanese,f,4,0.32341667,44.23103111,1.33476666
NAY,30,0,2024-06-23T02:04:39.123Z,english_21.wav,0,pill,3050,19,3,Japanese,f,0,0.0,-21.85116114,1.17417274
NAY,30,0,2024-06-23T02:04:39.123Z,english_21.wav,0,pill,3050,19,3,Japanese,f,1,0.1,-94.69976897,0.84289237
NAY,30,0,2024-06-23T02:04:39.123Z,english_21.wav,0,pill,3050,19,3,Japanese,f,2,0.2,59.00053046,1.58737119
NAY,30,0,2024-06-23T02:04:39.123Z,english_21.wav,0,pill,3050,19,3,Japanese,f,3,0.3,-81.44868512,0.70500889
NAY,30,0,2024-06-23T02:04:39.123Z,english_21.wav,0,pill,3050,19,3,Japanese,f,4,0.32341667,-68.72650823,1.41810016
NAY,31,0,2024-06-23T02:04:39.123Z,english_339.wav,0,pill,767,19,3,Japanese,f,0,0.0,-58.67599578,0.13141934
NAY,31,0,2024-06-23T02:04:39.123Z,english_339.wav,0,pill,767,19,3,Japanese,f,1,0.1,-13.30258388,0.16133177
NAY,31,0,2024-06-23T02:04:39.123Z,english_339.wav,0,pill,767,19,3,Japanese,f,2,0.2,-52.40820381,1.13500643
NAY,31,0,2024-06-23T02:04:39.123Z,english_339.wav,0,pill,767,19,3,Japanese,f,3,0.3,11.33062491,0.98717522
NAY,31,0,2024-06-23T02:04:39.123Z,english_339.wav,0,pill,767,19,3,Japanese,f,4,0.32341667,9.6385593,0.10332776
NAY,32,0,2024-06-23T02:04:39.123Z,english_853.wav,0,pill,785,19,3,Japanese,f,0,0.0,87.83319324,0.81037323
NAY,32,0,2024-06-23T02:04:39.123Z,english_853.wav,0,pill,785,19,3,Japanese,f,1,0.1,64.16710312,1.2495933
NAY,32,0,2024-06-23T02:04:39.123Z,english_853.wav,0,pill,785,19,3,Japanese,f,2,0.2,12.98667351,0.22916278
NAY,32,0,2024-06-23T02:04:39.123Z,english_853.wav,0,pill,785,19,3,Japanese,f,3,0.3,25.03434444,0.67764146
NAY,32,0,2024-06-23T02:04:39.123Z,english_853.wav,0,pill,785,19,3,Japanese,f,4,0.32341667,98.3458188,0.13807639
NAY,33,0,2024-06-23T02:04:39.123Z,english_518.wav,0,pill,451,19,3,Japanese,f,0,0.0,52.37511869,0.23824141
NAY,33,0,2024-06-23T02:04:39.123Z,english_518.wav,0,pill,451,19,3,Japanese,f,1,0.1,-33.3490586,0.80559068
NAY,33,0,2024-06-23T02:04:39.123Z,english_518.wav,0,pill,451,19,3,Japanese,f,2,0.2,-71.20035434,1.24725456
NAY,33,0,2024-06-23T02:04:39.123Z,english_518.wav,0,pill,451,19,3,Japanese,f,3,0.3,6.23243823,1.01334401
NAY,33,0,2024-06-23T02:04:39.123Z,english_518.wav,0,pill,451,19,3,Japanese,f,4,0.32341667,-29.48660546,1.51264586
NAY,34,0,2024-06-23T02:04:39.123Z,english_695.wav,0,pill,3824,19,3,Japanese,f,0,0.0,-74.02191529,1.19534619
NAY,34,0,2024-06-23T02:04:39.123Z,english_695.wav,0,pill,3824,19,3,Japanese,f,1,0.1,54.28596986,0.93917139
NAY,34,0,2024-06-23T02:04:39.123Z,english_695.wav,0,pill,3824,19,3,Japanese,f,2,0.2,-13.22196683,0.1241488
NAY,34,0,2024-06-23T02:04:39.123Z,english_695.wav,0,pill,3824,19,3,Japanese,f,3,0.3,1.82272444,1.20091234
NAY,34,0,2024-06-23T02:04:39.123Z,english_695.wav,0,pill,3824,19,3,Japanese,f,4,0.32341667,-11.74905262,0.46222147
NAY,35,0,2024-06-23T02:04:39.123Z,english_514.wav,0,peel,1677,19,3,Japanese,f,0,0.0,-61.65105701,1.12509033
NAY,35,0,2024-06-23T02:04:39.123Z,english_514.wav,0,peel,1677,19,3,Japanese,f,1,0.1,49.84264816,0.78701739
NAY,35,0,2024-06-23T02:04:39.123Z,english_514.wav,0,peel,1677,19,3,Japanese,f,2,0.2,14.14440898,0.37052689
NAY,35,0,2024-06-23T02:04:39.123Z,english_514.wav,0,peel,1677,19,3,Japanese,f,3,0.3,-30.10662908,1.42053426
NAY,35,0,2024-06-23T02:04:39.123Z,english_514.wav,0,peel,1677,19,3,Japanese,f,4,0.32341667,90.48337022,1.94621598
NAY,36,0,2024-06-23T02:04:39.123Z,english_767.wav,0,peel,1548,19,3,Japanese,f,0,0.0,29.63321135,0.17563718
NAY,36,0,2024-06-23T02:04:39.123Z,english_767.wav,0,peel,1548,19,3,Japanese,f,1,0.1,-31.63783795,0.61981002
NAY,36,0,2024-06-23T02:04:39.123Z,english_767.wav,0,peel,1548,19,3,Japanese,f,2,0.2,56.53254366,1.38773128
NAY,36,0,2024-06-23T02:04:39.123Z,english_767.wav,0,peel,1548,19,3,Japanese,f,3,0.3,52.69149806,1.37795514
NAY,36,0,2024-06-23T02:04:39.123Z,english_767.wav,0,peel,1548,19,3,Japanese,f,4,0.32341667,-0.8536295,1.97315338
NAY,37,0,2024-06-23T02:04:39.123Z,english_370.wav,0,peel,826,19,3,Japanese,f,0,0.0,-90.17078727,0.17796458
NAY,37,0,2024-06-23T02:04:39.123Z,english_370.wav,0,peel,826,19,3,Japanese,f,1,0.1,-71.99280791,1.08934715
NAY,37,0,2024-06-23T02:04:39.123Z,english_370.wav,0,peel,826,19,3,Japanese,f,2,0.2,-13.60727202,1.05914244
NAY,37,0,2024-06-23T02:04:39.123Z,english_370.wav,0,peel,826,19,3,Japanese,f,3,0.3,-0.93192742,1.87852505
NAY,37,0,2024-06-23T02:04:39.123Z,english_370.wav,0,peel,826,19,3,Japanese,f,4,0.32341667,33.27852394,1.24161401
NAY,38,0,2024-06-23T02:04:39.123Z,english_329.wav,0,peel,771,19,3,Japanese,f,0,0.0,-48.89108629,1.2424848
NAY,38,0,2024-06-23T02:04:39.123Z,english_329.wav,0,peel,771,19,3,Japanese,f,1,0.1,55.67852038,1.73811564
NAY,38,0,2024-06-23T02:04:39.123Z,english_329.wav,0,peel,771,19,3,Japanese,f,2,0.2,48.16827585,0.4928271
NAY,38,0,2024-06-23T02:04:39.123Z,english_329.wav,0,peel,771,19,3,Japanese,f,3,0.3,73.70818564,0.68407289
NAY,38,0,2024-06-23T02:04:39.123Z,english_329.wav,0,peel,771,19,3,Japanese,f,4,0.32341667,85.70797026,1.92917435
NAY,39,0,2024-06-23T02:04:39.123Z,english_941.wav,0,peel,1008,19,3,Japanese,f,0,0.0,88.25484185,1.5236155
NAY,39,0,2024-06-23T02:04:39.123Z,english_941.wav,0,peel,1008,19,3,Japanese,f,1,0.1,29.23312353,0.93469446
NAY,39,0,2024-06-23T02:04:39.123Z,english_941.wav,0,peel,1008,19,3,Japanese,f,2,0.2,-73.60888885,0.44203051
NAY,39,0,2024-06-23T02:04:39.123Z,english_941.wav,0,peel,1008,19,3,Japanese,f,3,0.3,-38.35663254,1.28625712
NAY,39,0,2024-06-23T02:04:39.123Z,english_941.wav,0,peel,1008,19,3,Japanese,f,4,0.32341667,-37.21470774,1.264942
NAY,40,0,2024-06-23T02:04:39.123Z,english_96.wav,0,pill,954,19,3,Japanese,f,0,0.0,-2.60251168,1.33849038
NAY,40,0,2024-06-23T02:04:39.123Z,english_96.wav,0,pill,954,19,3,Japanese,f,1,0.1,3.1808695,1.03790095
NAY,40,0,2024-06-23T02:04:39.123Z,english_96.wav,0,pill,954,19,3,Japanese,f,2,0.2,-93.89625608,0.32730996
NAY,40,0,2024-06-23T02:04:39.123Z,english_96.wav,0,pill,954,19,3,Japanese,f,3,0.3,22.03695444,1.15118519
NAY,40,0,2024-06-23T02:04:39.123Z,english_96.wav,0,pill,954,19,3,Japanese,f,4,0.32341667,89.13776591,1.37996061
NAY,41,0,2024-06-23T02:04:39.123Z,english_271.wav,0,pill,1499,19,3,Japanese,f,0,0.0,24.41564841,0.25667552
NAY,41,0,2024-06-23T02:04:39.123Z,english_271.wav,0,pill,1499,19,3,Japanese,f,1,0.1,-64.42577909,1.20221217
NAY,41,0,2024-06-23T02:04:39.123Z,english_271.wav,0,pill,1499,19,3,Japanese,f,2,0.2,32.27025317,0.24658485
NAY,41,0,2024-06-23T02:04:39.123Z,english_271.wav,0,pill,1499,19,3,Japanese,f,3,0.3,58.71212772,1.57844265
NAY,41,0,2024-06-23T02:04:39.123Z,english_271.wav,0,pill,1499,19,3,Japanese,f,4,0.32341667,46.7300547,1.00400066
NAY,42,0,2024-06-23T02:04:39.123Z,english_216.wav,0,pill,1558,19,3,Japanese,f,0,0.0,-62.2888105,1.07577895
NAY,42,0,2024-06-23T02:04:39.123Z,english_216.wav,0,pill,1558,19,3,Japanese,f,1,0.1,-52.19325919,1.07125686
NAY,42,0,2024-06-23T02:04:39.123Z,english_216.wav,0,pill,1558,19,3,Japanese,f,2,0.2,-77.81566322,1.51342084
NAY,42,0,2024-06-23T02:04:39.123Z,english_216.wav,0,pill,1558,19,3,Japanese,f,3,0.3,73.5246301,1.37714716
NAY,42,0,2024-06-23T02:04:39.123Z,english_216.wav,0,pill,1558,19,3,Japanese,f,4,0.32341667,73.4409389,1.55456291
NAY,43,0,2024-06-23T02:04:39.123Z,english_86.wav,0,peel,923,19,3,Japanese,f,0,0.0,-48.59393833,1.45450552
NAY,43,0,2024-06-23T02:04:39.123Z,english_86.wav,0,peel,923,19,3,Japanese,f,1,0.1,77.37095157,1.8635573
NAY,43,0,2024-06-23T02:04:39.123Z,english_86.wav,0,peel,923,19,3,Japanese,f,2,0.2,44.19816726,1.174515
NAY,43,0,2024-06-23T02:04:39.123Z,english_86.wav,0,peel,923,19,3,Japanese,f,3,0.3,-99.780271,1.46785746
NAY,43,0,2024-06-23T02:04:39.123Z,english_86.wav,0,peel,923,19,3,Japanese,f,4,0.32341667,38.96545556,0.99607158
NAY,44,0,2024-06-23T02:04:39.123Z,english_834.wav,0,pill,837,19,3,Japanese,f,0,0.0,-64.94927172,0.98752234
NAY,44,0,2024-06-23T02:04:39.123Z,english_834.wav,0,pill,837,19,3,Japanese,f,1,0.1,49.61052881,1.31122352
NAY,44,0,2024-06-23T02:04:39.123Z,english_834.wav,0,pill,837,19,3,Japanese,f,2,0.2,-25.04715585,0.09065599
NAY,44,0,2024-06-23T02:04:39.123Z,english_834.wav,0,pill,837,19,3,Japanese,f,3,0.3,95.09819394,1.07854905
NAY,44,0,2024-06-23T02:04:39.123Z,english_834.wav,0,pill,837,19,3,Japanese,f,4,0.32341667,84.16953653,1.76453498
NAY,45,0,2024-06-23T02:04:39.123Z,english_963.wav,0,peel,1182,19,3,Japanese,f,0,0.0,-60.03327616,0.86711865
NAY,45,0,2024-06-23T02:04:39.123Z,english_963.wav,0,peel,1182,19,3,Japanese,f,1,0.1,-15.51067414,1.69273621
NAY,45,0,2024-06-23T02:04:39.123Z,english_963.wav,0,peel,1182,19,3,Japanese,f,2,0.2,59.36715957,0.74157302
NAY,45,0,2024-06-23T02:04:39.123Z,english_963.wav,0,peel,1182,19,3,Japanese,f,3,0.3,-98.70464219,1.73078555
NAY,45,0,2024-06-23T02:04:39.123Z,english_963.wav,0,peel,1182,19,3,Japanese,f,4,0.32341667,37.26723218,1.37482324
NAY,46,0,2024-06-23T02:04:39.123Z,english_659.wav,0,peel,4082,19,3,Japanese,f,0,0.0,-86.13080632,0.77157019
NAY,46,0,2024-06-23T02:04:39.123Z,english_659.wav,0,peel,4082,19,3,Japanese,f,1,0.1,39.51927718,1.34569204
NAY,46,0,2024-06-23T02:04:39.123Z,english_659.wav,0,peel,4082,19,3,Japanese,f,2,0.2,-6.22185106,0.71695874
NAY,46,0,2024-06-23T02:04:39.123Z,english_659.wav,0,peel,4082,19,3,Japanese,f,3,0.3,5.64287294,1.04110125
NAY,46,0,2024-06-23T02:04:39.123Z,english_659.wav,0,peel,4082,19,3,Japanese,f,4,0.32341667,47.08694279,1.84115141
NAY,47,0,2024-06-23T02:04:39.123Z,english_1.wav,0,peel,1083,19,3,Japanese,f,0,0.0,53.99031816,1.91732561
NAY,47,0,2024-06-23T02:04:39.123Z,english_1.wav,0,peel,1083,19,3,Japanese,f,1,0.1,-58.32145174,0.75352701
NAY,47,0,2024-06-23T02:04:39.123Z,english_1.wav,0,peel,1083,19,3,Japanese,f,2,0.2,-86.75659624,1.40297919
NAY,47,0,2024-06-23T02:04:39.123Z,english_1.wav,0,peel,1083,19,3,Japanese,f,3,0.3,-31.84945767,0.12157709
NAY,47,0,2024-06-23T02:04:39.123Z,english_1.wav,0,peel,1083,19,3,Japanese,f,4,0.32341667,-59.21997754,1.57687546
NAY,48,0,2024-06-23T02:04:39.123Z,english_473.wav,0,pill,726,19,3,Japanese,f,0,0.0,2.94536382,1.14273616
NAY,48,0,2024-06-23T02:04:39.123Z,english_473.wav,0,pill,726,19,3,Japanese,f,1,0.1,67.15962,0.71228689
NAY,48,0,2024-06-23T02:04:39.123Z,english_473.wav,0,pill,726,19,3,Japanese,f,2,0.2,-20.48190634,1.20280034
NAY,48,0,2024-06-23T02:04:39.123Z,english_473.wav,0,pill,726,19,3,Japanese,f,3,0.3,20.58811131,0.94325649
NAY,48,0,2024-06-23T02:04:39.123Z,english_473.wav,0,pill,726,19,3,Japanese,f,4,0.32341667,-71.10919795,1.82149668
NAY,49,0,2024-06-23T02:04:39.123Z,english_313.wav,0,pill,1515,19,3,Japanese,f,0,0.0,63.86599335,0.35841412
NAY,49,0,2024-06-23T02:04:39.123Z,english_313.wav,0,pill,1515,19,3,Japanese,f,1,0.1,-55.89800258,0.35021793
NAY,49,0,2024-06-23T02:04:39.123Z,english_313.wav,0,pill,1515,19,3,Japanese,f,2,0.2,90.86254046,1.77750413
NAY,49,0,2024-06-23T02:04:39.123Z,english_313.wav,0,pill,1515,19,3,Japanese,f,3,0.3,0.53087649,1.87396687
NAY,49,0,2024-06-23T02:04:39.123Z,english_313.wav,0,pill,1515,19,3,Japanese,f,4,0.32341667,-69.87913817,1.16176786
NAY,50,1,2024-06-23T02:04:39.123Z,english_858.wav,0,peel,789,19,3,Japanese,f,0,0.0,45.12570132,0.50395823
NAY,50,1,2024-06-23T02:04:39.123Z,english_858.wav,0,peel,789,19,3,Japanese,f,1,0.1,-46.71359417,1.50658612
NAY,50,1,2024-06-23T02:04:39.123Z,english_858.wav,0,peel,789,19,3,Japanese,f,2,0.2,-60.32464978,0.86887416
NAY,50,1,2024-06-23T02:04:39.123Z,english_858.wav,0,peel,789,19,3,Japanese,f,3,0.3,-70.46241098,0.20520469
NAY,50,1,2024-06-23T02:04:39.123Z,english_858.wav,0,peel,789,19,3,Japanese,f,4,0.32341667,76.51169453,1.05885662
NAY,51,1,2024-06-23T02:04:39.123Z,english_751.wav,0,pill,3107,19,3,Japanese,f,0,0.0,45.03630887,0.43450625
NAY,51,1,2024-06-23T02:04:39.123Z,english_751.wav,0,pill,3107,19,3,Japanese,f,1,0.1,46.59103402,1.30072592
NAY,51,1,2024-06-23T02:04:39.123Z,english_751.wav,0,pill,3107,19,3,Japanese,f,2,0.2,-30.90440374,1.20093797
NAY,51,1,2024-06-23T02:04:39.123Z,english_751.wav,0,pill,3107,19,3,Japanese,f,3,0.3,-61.26470289,0.81911259
NAY,51,1,2024-06-23T02:04:39.123Z,english_751.wav,0,pill,3107,19,3,Japanese,f,4,0.32341667,34.91384756,0.19140491
NAY,52,1,2024-06-23T02:04:39.123Z,english_120.wav,0,pill,681,19,3,Japanese,f,0,0.0,55.2306484,0.43658612
NAY,52,1,2024-06-23T02:04:39.123Z,english_120.wav,0,pill,681,19,3,Japanese,f,1,0.1,82.00530973,0.03999251
NAY,52,1,2024-06-23T02:04:39.123Z,english_120.wav,0,pill,681,19,3,Japanese,f,2,0.2,-5.84837635,0.80827096
NAY,52,1,2024-06-23T02:04:39.123Z,english_120.wav,0,pill,681,19,3,Japanese,f,3,0.3,66.20489525,1.78669421
NAY,52,1,2024-06-23T02:04:39.123Z,english_120.wav,0,pill,681,19,3,Japanese,f,4,0.32341667,-73.22302923,1.04341795
NAY,53,1,2024-06-23T02:04:39.123Z,english_85.wav,0,peel,897,19,3,Japanese,f,0,0.0,69.91092253,1.07696769
NAY,53,1,2024-06-23T02:04:39.123Z,english_85.wav,0,peel,897,19,3,Japanese,f,1,0.1,90.04885235,1.65675227
NAY,53,1,2024-06-23T02:04:39.123Z,english_85.wav,0,peel,897,19,3,Japanese,f,2,0.2,-54.471964,1.18566865
NAY,53,1,2024-06-23T02:04:39.123Z,english_85.wav,0,peel,897,19,3,Japanese,f,3,0.3,-32.42862041,0.43131811
NAY,53,1,2024-06-23T02:04:39.123Z,english_85.wav,0,peel,897,19,3,Japanese,f,4,0.32341667,-26.25094384,1.88641509
NAY,54,1,2024-06-23T02:04:39.123Z,english_471.wav,0,pill,1175,19,3,Japanese,f,0,0.0,47.42131089,0.58869392
NAY,54,1,2024-06-23T02:04:39.123Z,english_471.wav,0,pill,1175,19,3,Japanese,f,1,0.1,-63.95282256,1.74739294
NAY,54,1,2024-06-23T02:04:39.123Z,english_471.wav,0,pill,1175,19,3,Japanese,f,2,0.2,31.67244378,1.10105994
NAY,54,1,2024-06-23T02:04:39.123Z,english_471.wav,0,pill,1175,19,3,Japanese,f,3,0.3,40.6572625,0.54790015
NAY,54,1,2024-06-23T02:04:39.123Z,english_471.wav,0,pill,1175,19,3,Japanese,f,4,0.32341667,-18.6332399,1.33029013
NAY,55,1,2024-06-23T02:04:39.123Z,english_256.wav,0,peel,3911,19,3,Japanese,f,0,0.0,22.60769813,1.84037168
NAY,55,1,2024-06-23T02:04:39.123Z,english_256.wav,0,peel,3911,19,3,Japanese,f,1,0.1,-95.01444593,0.47687766
NAY,55,1,2024-06-23T02:04:39.123Z,english_256.wav,0,peel,3911,19,3,Japanese,f,2,0.2,-19.91310746,0.85339151
NAY,55,1,2024-06-23T02:04:39.123Z,english_256.wav,0,peel,3911,19,3,Japanese,f,3,0.3,-6.39209363,0.75097161
NAY,55,1,2024-06-23T02:04:39.123Z,english_256.wav,0,peel,3911,19,3,Japanese,f,4,0.32341667,24.02209282,1.98695073
NAY,56,1,2024-06-23T02:04:39.123Z,english_622.wav,0,peel,993,19,3,Japanese,f,0,0.0,-46.49267806,1.425187
NAY,56,1,2024-06-23T02:04:39.123Z,english_622.wav,0,peel,993,19,3,Japanese,f,1,0.1,-80.07623079,0.61910367
NAY,56,1,2024-06-23T02:04:39.123Z,english_622.wav,0,peel,993,19,3,Japanese,f,2,0.2,-28.70131311,1.30297951
NAY,56,1,2024-06-23T02:04:39.123Z,english_622.wav,0,peel,993,19,3,Japanese,f,3,0.3,-26.89352847,1.73248838
NAY,56,1,2024-06-23T02:04:39.123Z,english_622.wav,0,peel,993,19,3,Japanese,f,4,0.32341667,-24.31243398,0.85523545
NAY,57,1,2024-06-23T02:04:39.123Z,english_33.wav,0,peel,3884,19,3,Japanese,f,0,0.0,13.53683954,1.37746345
NAY,57,1,2024-06-23T02:04:39.123Z,english_33.wav,0,peel,3884,19,3,Japanese,f,1,0.1,-23.61599557,1.14776292
NAY,57,1,2024-06-23T02:04:39.123Z,english_33.wav,0,peel,3884,19,3,Japanese,f,2,0.2,60.58241295,1.15899553
NAY,57,1,2024-06-23T02:04:39.123Z,english_33.wav,0,peel,3884,19,3,Japanese,f,3,0.3,-2.03686091,0.64766031
NAY,57,1,2024-06-23T02:04:39.123Z,english_33.wav,0,peel,3884,19,3,Japanese,f,4,0.32341667,79.90239576,1.69768968
NAY,58,1,2024-06-23T02:04:39.123Z,english_618.wav,0,pill,721,19,3,Japanese,f,0,0.0,58.31579708,1.46895394
NAY,58,1,2024-06-23T02:04:39.123Z,english_618.wav,0,pill,721,19,3,Japanese,f,1,0.1,6.96253647,0.48660613
NAY,58,1,2024-06-23T02:04:39.123Z,english_618.wav,0,pill,721,19,3,Japanese,f,2,0.2,-4.41581756,1.00963977
NAY,58,1,2024-06-23T02:04:39.123Z,english_618.wav,0,pill,721,19,3,Japanese,f,3,0.3,-63.5775247,1.29399549
NAY,58,1,2024-06-23T02:04:39.123Z,english_618.wav,0,pill,721,19,3,Japanese,f,4,0.32341667,97.77631762,0.84060701
NAY,59,1,2024-06-23T02:04:39.123Z,english_648.wav,0,peel,2378,19,3,Japanese,f,0,0.0,-36.17742204,0.57576188
NAY,59,1,2024-06-23T02:04:39.123Z,english_648.wav,0,peel,2378,19,3,Japanese,f,1,0.1,30.10697278,1.1310908
NAY,59,1,2024-06-23T02:04:39.123Z,english_648.wav,0,peel,2378,19,3,Japanese,f,2,0.2,-67.31320052,1.67112441
NAY,59,1,2024-06-23T02:04:39.123Z,english_648.wav,0,peel,2378,19,3,Japanese,f,3,0.3,-10.94597212,0.39641968
NAY,59,1,2024-06-23T02:04:39.123Z,english_648.wav,0,peel,2378,19,3,Japanese,f,4,0.32341667,72.59648235,1.93789316
NAY,60,1,2024-06-23T02:04:39.123Z,english_775.wav,0,pill,486,19,3,Japanese,f,0,0.0,58.00753923,1.75560269
NAY,60,1,2024-06-23T02:04:39.123Z,english_775.wav,0,pill,486,19,3,Japanese,f,1,0.1,88.61433734,0.86519841
NAY,60,1,2024-06-23T02:04:39.123Z,english_775.wav,0,pill,486,19,3,Japanese,f,2,0.2,97.9031651,0.93867241
NAY,60,1,2024-06-23T02:04:39.123Z,english_775.wav,0,pill,486,19,3,Japanese,f,3,0.3,14.61974867,1.86901891
NAY,60,1,2024-06-23T02:04:39.123Z,english_775.wav,0,pill,486,19,3,Japanese,f,4,0.32341667,-5.44703254,0.0946911
NAY,61,1,2024-06-23T02:04:39.123Z,english_361.wav,0,pill,849,19,3,Japanese,f,0,0.0,47.37783877,1.2281625
NAY,61,1,2024-06-23T02:04:39.123Z,english_361.wav,0,pill,849,19,3,Japanese,f,1,0.1,41.96620543,0.32170701
NAY,61,1,2024-06-23T02:04:39.123Z,english_361.wav,0,pill,849,19,3,Japanese,f,2,0.2,-99.83447432,0.41267147
NAY,61,1,2024-06-23T02:04:39.123Z,english_361.wav,0,pill,849,19,3,Japanese,f,3,0.3,-83.75612903,0.32528287
NAY,61,1,2024-06-23T02:04:39.123Z,english_361.wav,0,pill,849,19,3,Japanese,f,4,0.32341667,99.31228573,0.29737668
NAY,62,1,2024-06-23T02:04:39.123Z,english_708.wav,0,pill,1495,19,3,Japanese,f,0,0.0,-27.19248895,0.74061838
NAY,62,1,2024-06-23T02:04:39.123Z,english_708.wav,0,pill,1495,19,3,Japanese,f,1,0.1,84.25795725,1.13599963
NAY,62,1,2024-06-23T02:04:39.123Z,english_708.wav,0,pill,1495,19,3,Japanese,f,2,0.2,-19.19551503,1.10086254
NAY,62,1,2024-06-23T02:04:39.123Z,english_708.wav,0,pill,1495,19,3,Japanese,f,3,0.3,29.88012033,0.53054382
NAY,62,1,2024-06-23T02:04:39.123Z,english_708.wav,0,pill,1495,19,3,Japanese,f,4,0.32341667,46.0858662,1.51974387
NAY,63,1,2024-06-23T02:04:39.123Z,english_485.wav,0,peel,763,19,3,Japanese,f,0,0.0,-7.08941798,1.8206563
NAY,63,1,2024-06-23T02:04:39.123Z,english_485.wav,0,peel,763,19,3,Japanese,f,1,0.1,-70.64579204,0.10660577
NAY,63,1,2024-06-23T02:04:39.123Z,english_485.wav,0,peel,763,19,3,Japanese,f,2,0.2,23.79115045,1.92760945
NAY,63,1,2024-06-23T02:04:39.123Z,english_485.wav,0,peel,763,19,3,Japanese,f,3,0.3,0.80487994,0.77499174
NAY,63,1,2024-06-23T02:04:39.123Z,english_485.wav,0,peel,763,19,3,Japanese,f,4,0.32341667,4.72097057,1.20070888
NAY,64,1,2024-06-23T02:04:39.123Z,english_909.wav,0,peel,1250,19,3,Japanese,f,0,0.0,-19.4205152,0.17681169
NAY,64,1,2024-06-23T02:04:39.123Z,english_909.wav,0,peel,1250,19,3,Japanese,f,1,0.1,-31.830868,1.02014656
NAY,64,1,2024-06-23T02:04:39.123Z,english_909.wav,0,peel,1250,19,3,Japanese,f,2,0.2,71.05598051,1.59945112
NAY,64,1,2024-06-23T02:04:39.123Z,english_909.wav,0,peel,1250,19,3,Japanese,f,3,0.3,-13.09259164,1.33685121
NAY,64,1,2024-06-23T02:04:39.123Z,english_909.wav,0,peel,1250,19,3,Japanese,f,4,0.32341667,-99.47743822,0.41114962
NAY,65,1,2024-06-23T02:04:39.123Z,english_401.wav,0,peel,527,19,3,Japanese,f,0,0.0,-70.37998858,1.11338134
NAY,65,1,2024-06-23T02:04:39.123Z,english_401.wav,0,peel,527,19,3,Japanese,f,1,0.1,49.27188779,1.59691292
NAY,65,1,2024-06-23T02:04:39.123Z,english_401.wav,0,peel,527,19,3,Japanese,f,2,0.2,5.09566389,0.88679935
NAY,65,1,2024-06-23T02:04:39.123Z,english_401.wav,0,peel,527,19,3,Japanese,f,3,0.3,58.42368176,1.89749174
NAY,65,1,2024-06-23T02:04:39.123Z,english_401.wav,0,peel,527,19,3,Japanese,f,4,0.32341667,-43.06407799,1.35831765
NAY,66,1,2024-06-23T02:04:39.123Z,english_290.wav,0,pill,2062,19,3,Japanese,f,0,0.0,73.71968657,0.30552726
NAY,66,1,2024-06-23T02:04:39.123Z,english_290.wav,0,pill,2062,19,3,Japanese,f,1,0.1,-59.85317413,1.31636279
NAY,66,1,2024-06-23T02:04:39.123Z,english_290.wav,0,pill,2062,19,3,Japanese,f,2,0.2,71.1426587,0.54925413
NAY,66,1,2024-06-23T02:04:39.123Z,english_290.wav,0,pill,2062,19,3,Japanese,f,3,0.3,-18.50007061,1.26204455
NAY,66,1,2024-06-23T02:04:39.123Z,english_290.wav,0,pill,2062,19,3,Japanese,f,4,0.32341667,-65.91143137,0.60528556
NAY,67,1,2024-06-23T02:04:39.123Z,english_943.wav,0,pill,642,19,3,Japanese,f,0,0.0,-88.39234314,0.07745413
NAY,67,1,2024-06-23T02:04:39.123Z,english_943.wav,0,pill,642,19,3,Japanese,f,1,0.1,65.27529367,1.64078214
NAY,67,1,2024-06-23T02:04:39.123Z,english_943.wav,0,pill,642,19,3,Japanese,f,2,0.2,-24.85222093,0.23468741
NAY,67,1,2024-06-23T02:04:39.123Z,english_943.wav,0,pill,642,19,3,Japanese,f,3,0.3,20.61002448,1.49561498
NAY,67,1,2024-06-23T02:04:39.123Z,english_943.wav,0,pill,642,19,3,Japanese,f,4,0.32341667,-74.64601709,1.25217021
NAY,68,1,2024-06-23T02:04:39.123Z,english_626.wav,0,pill,1025,19,3,Japanese,f,0,0.0,4.25415757,0.7037323
NAY,68,1,2024-06-23T02:04:39.123Z,english_626.wav,0,pill,1025,19,3,Japanese,f,1,0.1,-41.27415217,1.26912647
NAY,68,1,2024-06-23T02:04:39.123Z,english_626.wav,0,pill,1025,19,3,Japanese,f,2,0.2,-74.74598363,0.17760594
NAY,68,1,2024-06-23T02:04:39.123Z,english_626.wav,0,pill,1025,19,3,Japanese,f,3,0.3,-15.94741517,1.12963497
NAY,68,1,2024-06-23T02:04:39.123Z,english_626.wav,0,pill,1025,19,3,Japanese,f,4,0.32341667,43.51897949,0.85087029
NAY,69,1,2024-06-23T02:04:39.123Z,english_97.wav,0,peel,647,19,3,Japanese,f,0,0.0,57.21139396,1.63402743
NAY,69,1,2024-06-23T02:04:39.123Z,english_97.wav,0,peel,647,19,3,Japanese,f,1,0.1,-7.40408397,0.54734888
NAY,69,1,2024-06-23T02:04:39.123Z,english_97.wav,0,peel,647,19,3,Japanese,f,2,0.2,77.7995227,1.5228594
NAY,69,1,2024-06-23T02:04:39.123Z,english_97.wav,0,peel,647,19,3,Japanese,f,3,0.3,-51.1747528,1.13050105
NAY,69,1,2024-06-23T02:04:39.123Z,english_97.wav,0,peel,647,19,3,Japanese,f,4,0.32341667,77.11982253,0.82586999
NAY,70,1,2024-06-23T02:04:39.123Z,english_851.wav,0,peel,776,19,3,Japanese,f,0,0.0,-83.90491711,1.65488062
NAY,70,1,2024-06-23T02:04:39.123Z,english_851.wav,0,peel,776,19,3,Japanese,f,1,0.1,92.94065497,0.14315595
NAY,70,1,2024-06-23T02:04:39.123Z,english_851.wav,0,peel,776,19,3,Japanese,f,2,0.2,-63.47542883,0.84481863
NAY,70,1,2024-06-23T02:04:39.123Z,english_851.wav,0,peel,776,19,3,Japanese,f,3,0.3,13.34025436,1.9580918
NAY,70,1,2024-06-23T02:04:39.123Z,english_851.wav,0,peel,776,19,3,Japanese,f,4,0.32341667,32.96474042,0.23608581
NAY,71,1,2024-06-23T02:04:39.123Z,english_597.wav,0,peel,2626,19,3,Japanese,f,0,0.0,-83.66792118,0.17389721
NAY,71,1,2024-06-23T02:04:39.123Z,english_597.wav,0,peel,2626,19,3,Japanese,f,1,0.1,-19.98744657,0.39349672
NAY,71,1,2024-06-23T02:04:39.123Z,english_597.wav,0,peel,2626,19,3,Japanese,f,2,0.2,-30.38458549,1.97590818
NAY,71,1,2024-06-23T02:04:39.123Z,english_597.wav,0,peel,2626,19,3,Japanese,f,3,0.3,-63.4406446,1.84988074
NAY,71,1,2024-06-23T02:04:39.123Z,english_597.wav,0,peel,2626,19,3,Japanese,f,4,0.32341667,25.67812426,1.17620678
NAY,72,1,2024-06-23T02:04:39.123Z,english_898.wav,0,peel,479,19,3,Japanese,f,0,0.0,77.23607787,0.41308158
NAY,72,1,2024-06-23T02:04:39.123Z,english_898.wav,0,peel,479,19,3,Japanese,f,1,0.1,-36.99854877,1.59324842
NAY,72,1,2024-06-23T02:04:39.123Z,english_898.wav,0,peel,479,19,3,Japanese,f,2,0.2,16.09723403,1.42339693
NAY,72,1,2024-06-23T02:04:39.123Z,english_898.wav,0,peel,479,19,3,Japanese,f,3,0.3,29.12208023,1.17478291
NAY,72,1,2024-06-23T02:04:39.123Z,english_898.wav,0,peel,479,19,3,Japanese,f,4,0.32341667,-69.45423228,1.88393163
NAY,73,1,2024-06-23T02:04:39.123Z,english_454.wav,0,peel,1667,19,3,Japanese,f,0,0.0,-98.00335762,0.93958317
NAY,73,1,2024-06-23T02:04:39.123Z,english_454.wav,0,peel,1667,19,3,Japanese,f,1,0.1,-44.25936911,1.42755355
NAY,73,1,2024-06-23T02:04:39.123Z,english_454.wav,0,peel,1667,19,3,Japanese,f,2,0.2,-49.70952942,0.6160235
NAY,73,1,2024-06-23T02:04:39.123Z,english_454.wav,0,peel,1667,19,3,Japanese,f,3,0.3,-16.66945989,1.95370106
NAY,73,1,2024-06-23T02:04:39.123Z,english_454.wav,0,peel,1667,19,3,Japanese,f,4,0.32341667,16.63176458,0.26107778
NAY,74,1,2024-06-23T02:04:39.123Z,english_876.wav,0,pill,574,19,3,Japanese,f,0,0.0,-20.36884991,0.97958319
NAY,74,1,2024-06-23T02:04:39.123Z,english_876.wav,0,pill,574,19,3,Japanese,f,1,0.1,-12.16725052,0.93484439
NAY,74,1,2024-06-23T02:04:39.123Z,english_876.wav,0,pill,574,19,3,Japanese,f,2,0.2,-26.42868614,0.43422731
NAY,74,1,2024-06-23T02:04:39.123Z,english_876.wav,0,pill,574,19,3,Japanese,f,3,0.3,-15.16942384,0.12359811
NAY,74,1,2024-06-23T02:04:39.123Z,english_876.wav,0,pill,574,19,3,Japanese,f,4,0.32341667,-52.65446315,1.31629037
NAY,75,1,2024-06-23T02:04:39.123Z,english_112.wav,0,pill,1815,19,3,Japanese,f,0,0.0,-98.7507832,1.62855774
NAY,75,1,2024-06-23T02:04:39.123Z,english_112.wav,0,pill,1815,19,3,Japanese,f,1,0.1,-92.72198769,1.23374737
NAY,75,1,2024-06-23T02:04:39.123Z,english_112.wav,0,pill,1815,19,3,Japanese,f,2,0.2,15.54821062,0.76022921
NAY,75,1,2024-06-23T02:04:39.123Z,english_112.wav,0,pill,1815,19,3,Japanese,f,3,0.3,-40.54151432,0.49860071
NAY,75,1,2024-06-23T02:04:39.123Z,english_112.wav,0,pill,1815,19,3,Japanese,f,4,0.32341667,-42.89167932,0.23801633
NAY,76,1,2024-06-23T02:04:39.123Z,english_273.wav,0,pill,883,19,3,Japanese,f,0,0.0,-44.98289573,1.94838534
NAY,76,1,2024-06-23T02:04:39.123Z,english_273.wav,0,pill,883,19,3,Japanese,f,1,0.1,24.32546199,0.68888608
NAY,76,1,2024-06-23T02:04:39.123Z,english_273.wav,0,pill,883,19,3,Japanese,f,2,0.2,61.84573583,1.95265796
NAY,76,1,2024-06-23T02:04:39.123Z,english_273.wav,0,pill,883,19,3,Japanese,f,3,0.3,-1.88803465,1.62060328
NAY,76,1,2024-06-23T02:04:39.123Z,english_273.wav,0,pill,883,19,3,Japanese,f,4,0.32341667,57.02125087,0.94638053
NAY,77,1,2024-06-23T02:04:39.123Z,english_592.wav,0,pill,605,19,3,Japanese,f,0,0.0,-77.34060672,0.96869857
NAY,77,1,2024-06-23T02:04:39.123Z,english_592.wav,0,pill,605,19,3,Japanese,f,1,0.1,27.41551815,1.75134411
NAY,77,1,2024-06-23T02:04:39.123Z,english_592.wav,0,pill,605,19,3,Japanese,f,2,0.2,-17.47445882,1.41680483
NAY,77,1,2024-06-23T02:04:39.123Z,english_592.wav,0,pill,605,19,3,Japanese,f,3,0.3,-61.08462212,1.07260777
NAY,77,1,2024-06-23T02:04:39.123Z,english_592.wav,0,pill,605,19,3,Japanese,f,4,0.32341667,74.7675789,0.73150904
NAY,78,1,2024-06-23T02:04:39.123Z,english_115.wav,0,pill,961,19,3,Japanese,f,0,0.0,-6.4126324,0.37361158
NAY,78,1,2024-06-23T02:04:39.123Z,english_115.wav,0,pill,961,19,3,Japanese,f,1,0.1,-78.70213007,1.5865766
NAY,78,1,2024-06-23T02:04:39.123Z,english_115.wav,0,pill,961,19,3,Japanese,f,2,0.2,-0.36204046,1.00360432
NAY,78,1,2024-06-23T02:04:39.123Z,english_115.wav,0,pill,961,19,3,Japanese,f,3,0.3,-47.97210547,1.3933449
NAY,78,1,2024-06-23T02:04:39.123Z,english_115.wav,0,pill,961,19,3,Japanese,f,4,0.32341667,3.06964689,1.1205092
NAY,79,1,2024-06-23T02:04:39.123Z,english_448.wav,0,pill,1482,19,3,Japanese,f,0,0.0,0.37188167,1.15390094
NAY,79,1,2024-06-23T02:04:39.123Z,english_448.wav,0,pill,1482,19,3,Japanese,f,1,0.1,-67.82723624,1.58767458
NAY,79,1,2024-06-23T02:04:39.123Z,english_448.wav,0,pill,1482,19,3,Japanese,f,2,0.2,65.77705469,1.13313853
NAY,79,1,2024-06-23T02:04:39.123Z,english_448.wav,0,pill,1482,19,3,Japanese,f,3,0.3,83.31626383,0.27075507
NAY,79,1,2024-06-23T02:04:39.123Z,english_448.wav,0,pill,1482,19,3,Japanese,f,4,0.32341667,-27.56829045,1.20964916
NAY,80,1,2024-06-23T02:04:39.123Z,english_276.wav,0,pill,1448,19,3,Japanese,f,0,0.0,-87.25523595,1.1918401
NAY,80,1,2024-06-23T02:04:39.123Z,english_276.wav,0,pill,1448,19,3,Japanese,f,1,0.1,16.91650801,0.89399115
NAY,80,1,2024-06-23T02:04:39.123Z,english_276.wav,0,pill,1448,19,3,Japanese,f,2,0.2,-40.09372932,0.89701806
NAY,80,1,2024-06-23T02:04:39.123Z,english_276.wav,0,pill,1448,19,3,Japanese,f,3,0.3,3.19229046,1.98333504
NAY,80,1,2024-06-23T02:04:39.123Z,english_276.wav,0,pill,1448,19,3,Japanese,f,4,0.32341667,18.84785296,1.85350493
NAY,81,1,2024-06-23T02:04:39.123Z,english_349.wav,0,peel,545,19,3,Japanese,f,0,0.0,-10.00495534,0.36915768
NAY,81,1,2024-06-23T02:04:39.123Z,english_349.wav,0,peel,545,19,3,Japanese,f,1,0.1,54.31199814,0.83111041
NAY,81,1,2024-06-23T02:04:39.123Z,english_349.wav,0,peel,545,19,3,Japanese,f,2,0.2,48.17968705,1.70147194
NAY,81,1,2024-06-23T02:04:39.123Z,english_349.wav,0,peel,545,19,3,Japanese,f,3,0.3,8.48926652,1.08588898
NAY,81,1,2024-06-23T02:04:39.123Z,english_349.wav,0,peel,545,19,3,Japanese,f,4,0.32341667,42.05620052,0.02584958
NAY,82,1,2024-06-23T02:04:39.123Z,english_369.wav,0,peel,3571,19,3,Japanese,f,0,0.0,-12.14177447,1.64093778
NAY,82,1,2024-06-23T02:04:39.123Z,english_369.wav,0,peel,3571,19,3,Japanese,f,1,0.1,76.29699147,1.47479283
NAY,82,1,2024-06-23T02:04:39.123Z,english_369.wav,0,peel,3571,19,3,Japanese,f,2,0.2,-85.49552365,1.31757561
NAY,82,1,2024-06-23T02:04:39.123Z,english_369.wav,0,peel,3571,19,3,Japanese,f,3,0.3,-68.94608988,1.92077404
NAY,82,1,2024-06-23T02:04:39.123Z,english_369.wav,0,peel,3571,19,3,Japanese,f,4,0.32341667,40.32615784,1.4628922
NAY,83,1,2024-06-23T02:04:39.123Z,english_704.wav,0,pill,1566,19,3,Japanese,f,0,0.0,-24.48288207,0.92043902
NAY,83,1,2024-06-23T02:04:39.123Z,english_704.wav,0,pill,1566,19,3,Japanese,f,1,0.1,-9.94163531,0.96595902
NAY,83,1,2024-06-23T02:04:39.123Z,english_704.wav,0,pill,1566,19,3,Japanese,f,2,0.2,74.85271107,1.40327859
NAY,83,1,2024-06-23T02:04:39.123Z,english_704.wav,0,pill,1566,19,3,Japanese,f,3,0.3,-38.44921803,1.07325586
NAY,83,1,2024-06-23T02:04:39.123Z,english_704.wav,0,pill,1566,19,3,Japanese,f,4,0.32341667,-21.20994959,1.87555588
NAY,84,1,2024-06-23T02:04:39.123Z,english_645.wav,0,pill,1206,19,3,Japanese,f,0,0.0,44.09023725,0.24999948
NAY,84,1,2024-06-23T02:04:39.123Z,english_645.wav,0,pill,1206,19,3,Japanese,f,1,0.1,53.49741331,0.20669006
NAY,84,1,2024-06-23T02:04:39.123Z,english_645.wav,0,pill,1206,19,3,Japanese,f,2,0.2,28.7784214,0.13451906
NAY,84,1,2024-06-23T02:04:39.123Z,english_645.wav,0,pill,1206,19,3,Japanese,f,3,0.3,-38.38386911,0.64617788
NAY,84,1,2024-06-23T02:04:39.123Z,english_645.wav,0,pill,1206,19,3,Japanese,f,4,0.32341667,30.31484035,0.83061833
NAY,85,1,2024-06-23T02:04:39.123Z,english_145.wav,0,peel,1891,19,3,Japanese,f,0,0.0,-29.75830226,1.9441914
NAY,85,1,2024-06-23T02:04:39.123Z,english_145.wav,0,peel,1891,19,3,Japanese,f,1,0.1,0.94664025,0.04744273
NAY,85,1,2024-06-23T02:04:39.123Z,english_145.wav,0,peel,1891,19,3,Japanese,f,2,0.2,-55.39340023,1.27144901
NAY,85,1,2024-06-23T02:04:39.123Z,english_145.wav,0,peel,1891,19,3,Japanese,f,3,0.3,-49.58722608,0.20842421
NAY,85,1,2024-06-23T02:04:39.123Z,english_145.wav,0,peel,1891,19,3,Japanese,f,4,0.32341667,-83.35110665,0.85478836
NAY,86,1,2024-06-23T02:04:39.123Z,english_252.wav,0,peel,596,19,3,Japanese,f,0,0.0,79.75601627,0.77799761
NAY,86,1,2024-06-23T02:04:39.123Z,english_252.wav,0,peel,596,19,3,Japanese,f,1,0.1,17.00183399,1.07711339
NAY,86,1,2024-06-23T02:04:39.123Z,english_252.wav,0,peel,596,19,3,Japanese,f,2,0.2,-25.42800597,0.7917181
NAY,86,1,2024-06-23T02:04:39.123Z,english_252.wav,0,peel,596,19,3,Japanese,f,3,0.3,-47.65138194,1.47632881
NAY,86,1,2024-06-23T02:04:39.123Z,english_252.wav,0,peel,596,19,3,Japanese,f,4,0.32341667,35.10652067,1.65919103
NAY,87,1,2024-06-23T02:04:39.123Z,english_397.wav,0,pill,826,19,3,Japanese,f,0,0.0,89.67962381,0.42719638
NAY,87,1,2024-06-23T02:04:39.123Z,english_397.wav,0,pill,826,19,3,Japanese,f,1,0.1,-80.29722345,0.89466904
NAY,87,1,2024-06-23T02:04:39.123Z,english_397.wav,0,pill,826,19,3,Japanese,f,2,0.2,60.53564011,0.56174568
NAY,87,1,2024-06-23T02:04:39.123Z,english_397.wav,0,pill,826,19,3,Japanese,f,3,0.3,9.94565725,0.1553242
NAY,87,1,2024-06-23T02:04:39.123Z,english_397.wav,0,pill,826,19,3,Japanese,f,4,0.32341667,0.1319882,1.89079641
NAY,88,1,2024-06-23T02:04:39.123Z,english_614.wav,0,peel,2667,19,3,Japanese,f,0,0.0,78.57791509,1.76663636
NAY,88,1,2024-06-23T02:04:39.123Z,english_614.wav,0,peel,2667,19,3,Japanese,f,1,0.1,-6.15631212,0.7337869
NAY,88,1,2024-06-23T02:04:39.123Z,english_614.wav,0,peel,2667,19,3,Japanese,f,2,0.2,-15.34092719,1.62880485
NAY,88,1,2024-06-23T02:04:39.123Z,english_614.wav,0,peel,2667,19,3,Japanese,f,3,0.3,21.91351344,0.61213133
NAY,88,1,2024-06-23T02:04:39.123Z,english_614.wav,0,peel,2667,19,3,Japanese,f,4,0.32341667,-10.50820757,0.41097232
NAY,89,1,2024-06-23T02:04:39.123Z,english_360.wav,0,peel,924,19,3,Japanese,f,0,0.0,-50.57937638,0.73788637
NAY,89,1,2024-06-23T02:04:39.123Z,english_360.wav,0,peel,924,19,3,Japanese,f,1,0.1,-29.22164644,0.6487653
NAY,89,1,2024-06-23T02:04:39.123Z,english_360.wav,0,peel,924,19,3,Japanese,f,2,0.2,-88.45421248,0.73193848
NAY,89,1,2024-06-23T02:04:39.123Z,english_360.wav,0,peel,924,19,3,Japanese,f,3,0.3,93.68039656,1.75347372
NAY,89,1,2024-06-23T02:04:39.123Z,english_360.wav,0,peel,924,19,3,Japanese,f,4,0.32341667,-2.59092547,1.19277037
NAY,90,1,2024-06-23T02:04:39.123Z,english_778.wav,0,peel,1105,19,3,Japanese,f,0,0.0,99.37283207,0.92158405
NAY,90,1,2024-06-23T02:04:39.123Z,english_778.wav,0,peel,1105,19,3,Japanese,f,1,0.1,61.02900927,1.90392814
NAY,90,1,2024-06-23T02:04:39.123Z,english_778.wav,0,peel,1105,19,3,Japanese,f,2,0.2,-43.89505842,0.34916702
NAY,90,1,2024-06-23T02:04:39.123Z,english_778.wav,0,peel,1105,19,3,Japanese,f,3,0.3,-6.51139434,1.21087231
NAY,90,1,2024-06-23T02:04:39.123Z,english_778.wav,0,peel,1105,19,3,Japanese,f,4,0.32341667,-98.37213751,0.72140227
NAY,91,1,2024-06-23T02:04:39.123Z,english_433.wav,0,peel,812,19,3,Japanese,f,0,0.0,-74.58178472,0.69852952
NAY,91,1,2024-06-23T02:04:39.123Z,english_433.wav,0,peel,812,19,3,Japanese,f,1,0.1,-50.00917691,1.92405883
NAY,91,1,2024-06-23T02:04:39.123Z,english_433.wav,0,peel,812,19,3,Japanese,f,2,0.2,48.18572343,0.3905825
NAY,91,1,2024-06-23T02:04:39.123Z,english_433.wav,0,peel,812,19,3,Japanese,f,3,0.3,-63.95387597,0.31453116
NAY,91,1,2024-06-23T02:04:39.123Z,english_433.wav,0,peel,812,19,3,Japanese,f,4,0.32341667,-68.91859183,1.4953114
NAY,92,1,2024-06-23T02:04:39.123Z,english_529.wav,0,pill,2236,19,3,Japanese,f,0,0.0,13.90759343,0.83001961
NAY,92,1,2024-06-23T02:04:39.123Z,english_529.wav,0,pill,2236,19,3,Japanese,f,1,0.1,-33.526088,0.02518437
NAY,92,1,2024-06-23T02:04:39.123Z,english_529.wav,0,pill,2236,19,3,Japanese,f,2,0.2,-34.32120589,1.61112877
NAY,92,1,2024-06-23T02:04:39.123Z,english_529.wav,0,pill,2236,19,3,Japanese,f,3,0.3,-18.30112723,0.91948239
NAY,92,1,2024-06-23T02:04:39.123Z,english_529.wav,0,pill,2236,19,3,Japanese,f,4,0.32341667,16.4796061,0.33204613
NAY,93,1,2024-06-23T02:04:39.123Z,english_277.wav,0,pill,3373,19,3,Japanese,f,0,0.0,57.10742469,0.00973607
NAY,93,1,2024-06-23T02:04:39.123Z,english_277.wav,0,pill,3373,19,3,Japanese,f,1,0.1,-91.86277199,0.30409245
NAY,93,1,2024-06-23T02:04:39.123Z,english_277.wav,0,pill,3373,19,3,Japanese,f,2,0.2,15.18492706,1.04533503
NAY,93,1,2024-06-23T02:04:39.123Z,english_277.wav,0,pill,3373,19,3,Japanese,f,3,0.3,-70.52173838,1.32138987
NAY,93,1,2024-06-23T02:04:39.123Z,english_277.wav,0,pill,3373,19,3,Japanese,f,4,0.32341667,87.41438228,0.22027268
NAY,94,1,2024-06-23T02:04:39.123Z,english_549.wav,0,peel,1193,19,3,Japanese,f,0,0.0,80.71270499,0.69011393
NAY,94,1,2024-06-23T02:04:39.123Z,english_549.wav,0,peel,1193,19,3,Japanese,f,1,0.1,-71.31396277,1.1141308
NAY,94,1,2024-06-23T02:04:39.123Z,english_549.wav,0,peel,1193,19,3,Japanese,f,2,0.2,48.34518996,0.72072674
NAY,94,1,2024-06-23T02:04:39.123Z,english_549.wav,0,peel,1193,19,3,Japanese,f,3,0.3,-66.07502609,0.60045359
NAY,94,1,2024-06-23T02:04:39.123Z,english_549.wav,0,peel,1193,19,3,Japanese,f,4,0.32341667,-52.28087662,0.77200176
NAY,95,1,2024-06-23T02:04:39.123Z,english_537.wav,0,peel,1205,19,3,Japanese,f,0,0.0,70.8709352,0.55947112
NAY,95,1,2024-06-23T02:04:39.123Z,english_537.wav,0,peel,1205,19,3,Japanese,f,1,0.1,32.34369018,1.10627241
NAY,95,1,2024-06-23T02:04:39.123Z,english_537.wav,0,peel,1205,19,3,Japanese,f,2,0.2,-92.9302278,1.10842043
NAY,95,1,2024-06-23T02:04:39.123Z,english_537.wav,0,peel,1205,19,3,Japanese,f,3,0.3,14.89115364,0.86800797
NAY,95,1,2024-06-23T02:04:39.123Z,english_537.wav,0,peel,1205,19,3,Japanese,f,4,0.32341667,-67.12260703,1.7659473
NAY,96,1,2024-06-23T02:04:39.123Z,english_415.wav,0,pill,952,19,3,Japanese,f,0,0.0,36.00223879,1.49199547
NAY,96,1,2024-06-23T02:04:39.123Z,english_415.wav,0,pill,952,19,3,Japanese,f,1,0.1,-82.63332374,1.79959711
NAY,96,1,2024-06-23T02:04:39.123Z,english_415.wav,0,pill,952,19,3,Japanese,f,2,0.2,57.55038703,0.64689267
NAY,96,1,2024-06-23T02:04:39.123Z,english_415.wav,0,pill,952,19,3,Japanese,f,3,0.3,-9.83064734,0.31881377
NAY,96,1,2024-06-23T02:04:39.123Z,english_415.wav,0,pill,952,19,3,Japanese,f,4,0.32341667,-29.78573939,0.18568486
NAY,97,1,2024-06-23T02:04:39.123Z,english_683.wav,0,peel,2121,19,3,Japanese,f,0,0.0,-73.37543508,1.70409633
NAY,97,1,2024-06-23T02:04:39.123Z,english_683.wav,0,peel,2121,19,3,Japanese,f,1,0.1,66.4080647,1.25556383
NAY,97,1,2024-06-23T02:04:39.123Z,english_683.wav,0,peel,2121,19,3,Japanese,f,2,0.2,46.46812351,0.87554738
NAY,97,1,2024-06-23T02:04:39.123Z,english_683.wav,0,peel,2121,19,3,Japanese,f,3,0.3,71.67755016,1.32863005
NAY,97,1,2024-06-23T02:04:39.123Z,english_683.wav,0,peel,2121,19,3,Japanese,f,4,0.32341667,2.86253031,0.20364682
NAY,98,1,2024-06-23T02:04:39.123Z,english_680.wav,0,peel,2586,19,3,Japanese,f,0,0.0,93.24972168,1.89994278
NAY,98,1,2024-06-23T02:04:39.123Z,english_680.wav,0,peel,2586,19,3,Japanese,f,1,0.1,21.55707386,1.06559033
NAY,98,1,2024-06-23T02:04:39.123Z,english_680.wav,0,peel,2586,19,3,Japanese,f,2,0.2,-58.84044748,0.79606997
NAY,98,1,2024-06-23T02:04:39.123Z,english_680.wav,0,peel,2586,19,3,Japanese,f,3,0.3,-13.55367876,0.35899559
NAY,98,1,2024-06-23T02:04:39.123Z,english_680.wav,0,peel,2586,19,3,Japanese,f,4,0.32341667,17.98073729,1.50925573
NAY,99,1,2024-06-23T02:04:39.123Z,english_43.wav,0,pill,709,19,3,Japanese,f,0,0.0,22.40064366,1.74132857
NAY,99,1,2024-06-23T02:04:39.123Z,english_43.wav,0,pill,709,19,3,Japanese,f,1,0.1,-68.20152198,0.12763156
NAY,99,1,2024-06-23T02:04:39.123Z,english_43.wav,0,pill,709,19,3,Japanese,f,2,0.2,62.56231291,0.31420738
NAY,99,1,2024-06-23T02:04:39.123Z,english_43.wav,0,pill,709,19,3,Japanese,f,3,0.3,45.0736378,0.98572154
NAY,99,1,2024-06-23T02:04:39.123Z,english_43.wav,0,pill,709,19,3,Japanese,f,4,0.32341667,-36.46791656,0.91325677
NAY,100,2,2024-06-23T02:12:14.551Z,english_259.wav,0,pill,1736,19,3,Japanese,f,0,0.0,7.90187791,1.3064553
NAY,100,2,2024-06-23T02:12:14.551Z,english_259.wav,0,pill,1736,19,3,Japanese,f,1,0.1,31.67295647,1.01100372
NAY,100,2,2024-06-23T02:12:14.551Z,english_259.wav,0,pill,1736,19,3,Japanese,f,2,0.2,-53.65780041,0.35520266
NAY,100,2,2024-06-23T02:12:14.551Z,english_259.wav,0,pill,1736,19,3,Japanese,f,3,0.3,-72.94929757,1.35187683
NAY,100,2,2024-06-23T02:12:14.551Z,english_259.wav,0,pill,1736,19,3,Japanese,f,4,0.32341667,58.35152721,1.39599087
NAY,101,2,2024-06-23T02:12:14.551Z,english_503.wav,0,peel,447,19,3,Japanese,f,0,0.0,-62.81458057,1.15988152
NAY,101,2,2024-06-23T02:12:14.551Z,english_503.wav,0,peel,447,19,3,Japanese,f,1,0.1,17.97702429,0.58853345
NAY,101,2,2024-06-23T02:12:14.551Z,english_503.wav,0,peel,447,19,3,Japanese,f,2,0.2,-8.2980926,1.29983279
NAY,101,2,2024-06-23T02:12:14.551Z,english_503.wav,0,peel,447,19,3,Japanese,f,3,0.3,-62.4217389,1.42406205
NAY,101,2,2024-06-23T02:12:14.551Z,english_503.wav,0,peel,447,19,3,Japanese,f,4,0.32341667,18.11027086,0.84018378
NAY,102,2,2024-06-23T02:12:14.551Z,english_566.wav,0,peel,611,19,3,Japanese,f,0,0.0,70.56000247,1.04698608
NAY,102,2,2024-06-23T02:12:14.551Z,english_566.wav,0,peel,611,19,3,Japanese,f,1,0.1,-0.18246418,1.13826263
NAY,102,2,2024-06-23T02:12:14.551Z,english_566.wav,0,peel,611,19,3,Japanese,f,2,0.2,-23.7188651,1.91259561
NAY,102,2,2024-06-23T02:12:14.551Z,english_566.wav,0,peel,611,19,3,Japanese,f,3,0.3,12.5469797,1.08561121
NAY,102,2,2024-06-23T02:12:14.551Z,english_566.wav,0,peel,611,19,3,Japanese,f,4,0.32341667,-84.37997634,1.98926692
NAY,103,2,2024-06-23T02:12:14.551Z,english_178.wav,0,peel,1029,19,3,Japanese,f,0,0.0,-14.41838744,0.71193749
NAY,103,2,2024-06-23T02:12:14.551Z,english_178.wav,0,peel,1029,19,3,Japanese,f,1,0.1,64.59665955,0.54024543
NAY,103,2,2024-06-23T02:12:14.551Z,english_178.wav,0,peel,1029,19,3,Japanese,f,2,0.2,-96.76492712,1.78065704
NAY,103,2,2024-06-23T02:12:14.551Z,english_178.wav,0,peel,1029,19,3,Japanese,f,3,0.3,-50.00654232,1.40559917
NAY,103,2,2024-06-23T02:12:14.551Z,english_178.wav,0,peel,1029,19,3,Japanese,f,4,0.32341667,42.56426636,0.99785593
NAY,104,2,2024-06-23T02:12:14.551Z,english_264.wav,0,peel,725,19,3,Japanese,f,0,0.0,16.10521774,1.02407609
NAY,104,2,2024-06-23T02:12:14.551Z,english_264.wav,0,peel,725,19,3,Japanese,f,1,0.1,-43.55481907,1.4393598
NAY,104,2,2024-06-23T02:12:14.551Z,english_264.wav,0,peel,725,19,3,Japanese,f,2,0.2,-16.87093852,1.31552174
NAY,104,2,2024-06-23T02:12:14.551Z,english_264.wav,0,peel,725,19,3,Japanese,f,3,0.3,-81.41755984,1.17516842
NAY,104,2,2024-06-23T02:12:14.551Z,english_264.wav,0,peel,725,19,3,Japanese,f,4,0.32341667,-76.00277997,0.613195
NAY,105,2,2024-06-23T02:12:14.551Z,english_250.wav,0,pill,1087,19,3,Japanese,f,0,0.0,15.9272347,0.97372592
NAY,105,2,2024-06-23T02:12:14.551Z,english_250.wav,0,pill,1087,19,3,Japanese,f,1,0.1,-20.77070657,1.45189783
NAY,105,2,2024-06-23T02:12:14.551Z,english_250.wav,0,pill,1087,19,3,Japanese,f,2,0.2,-20.08480075,0.50513237
NAY,105,2,2024-06-23T02:12:14.551Z,english_250.wav,0,pill,1087,19,3,Japanese,f,3,0.3,-29.82576937,1.38910207
NAY,105,2,2024-06-23T02:12:14.551Z,english_250.wav,0,pill,1087,19,3,Japanese,f,4,0.32341667,87.83532187,1.51614456
NAY,106,2,2024-06-23T02:12:14.551Z,english_409.wav,0,peel,662,19,3,Japanese,f,0,0.0,-24.04105399,0.29560797
NAY,106,2,2024-06-23T02:12:14.551Z,english_409.wav,0,peel,662,19,3,Japanese,f,1,0.1,-26.67389605,1.53762848
NAY,106,2,2024-06-23T02:12:14.551Z,english_409.wav,0,peel,662,19,3,Japanese,f,2,0.2,23.9966363,0.34602898
NAY,106,2,2024-06-23T02:12:14.551Z,english_409.wav,0,peel,662,19,3,Japanese,f,3,0.3,16.61705293,1.21824435
NAY,106,2,2024-06-23T02:12:14.551Z,english_409.wav,0,peel,662,19,3,Japanese,f,4,0.32341667,73.09980407,1.55330233
NAY,107,2,2024-06-23T02:12:14.551Z,english_424.wav,0,peel,707,19,3,Japanese,f,0,0.0,-7.44814198,1.7438251
NAY,107,2,2024-06-23T02:12:14.551Z,english_424.wav,0,peel,707,19,3,Japanese,f,1,0.1,9.0703424,1.33993463
NAY,107,2,2024-06-23T02:12:14.551Z,english_424.wav,0,peel,707,19,3,Japanese,f,2,0.2,-65.6005214,0.96535207
NAY,107,2,2024-06-23T02:12:14.551Z,english_424.wav,0,peel,707,19,3,Japanese,f,3,0.3,79.88163057,0.39557207
NAY,107,2,2024-06-23T02:12:14.551Z,english_424.wav,0,peel,707,19,3,Japanese,f,4,0.32341667,48.78273262,0.47346175
NAY,108,2,2024-06-23T02:12:14.551Z,english_467.wav,0,pill,878,19,3,Japanese,f,0,0.0,-0.54983343,1.824027
NAY,108,2,2024-06-23T02:12:14.551Z,english_467.wav,0,pill,878,19,3,Japanese,f,1,0.1,-84.54516502,1.06295632
NAY,108,2,2024-06-23T02:12:14.551Z,english_467.wav,0,pill,878,19,3,Japanese,f,2,0.2,54.30123894,1.09976952
NAY,108,2,2024-06-23T02:12:14.551Z,english_467.wav,0,pill,878,19,3,Japanese,f,3,0.3,-82.00368026,1.11766566
NAY,108,2,2024-06-23T02:12:14.551Z,english_467.wav,0,pill,878,19,3,Japanese,f,4,0.32341667,-54.10816942,0.44824559
NAY,109,2,2024-06-23T02:12:14.551Z,english_249.wav,0,peel,899,19,3,Japanese,f,0,0.0,78.40227579,1.91339694
NAY,109,2,2024-06-23T02:12:14.551Z,english_249.wav,0,peel,899,19,3,Japanese,f,1,0.1,-55.1129652,1.00834957
NAY,109,2,2024-06-23T02:12:14.551Z,english_249.wav,0,peel,899,19,3,Japanese,f,2,0.2,6.74447168,0.29418026
NAY,109,2,2024-06-23T02:12:14.551Z,english_249.wav,0,peel,899,19,3,Japanese,f,3,0.3,27.3376716,1.53256547
NAY,109,2,2024-06-23T02:12:14.551Z,english_249.wav,0,peel,899,19,3,Japanese,f,4,0.32341667,-97.08031886,0.99264532
NAY,110,2,2024-06-23T02:12:14.551Z,english_84.wav,0,pill,1966,19,3,Japanese,f,0,0.0,-42.35488886,0.45116064
NAY,110,2,2024-06-23T02:12:14.551Z,english_84.wav,0,pill,1966,19,3,Japanese,f,1,0.1,17.86576323,1.91320005
NAY,110,2,2024-06-23T02:12:14.551Z,english_84.wav,0,pill,1966,19,3,Japanese,f,2,0.2,-56.36172821,1.53140363
NAY,110,2,2024-06-23T02:12:14.551Z,english_84.wav,0,pill,1966,19,3,Japanese,f,3,0.3,69.8537656,0.53091011
NAY,110,2,2024-06-23T02:12:14.551Z,english_84.wav,0,pill,1966,19,3,Japanese,f,4,0.32341667,-47.30652012,1.59279301
NAY,111,2,2024-06-23T02:12:14.551Z,english_594.wav,0,pill,778,19,3,Japanese,f,0,0.0,-85.15725243,1.49995106
NAY,111,2,2024-06-23T02:12:14.551Z,english_594.wav,0,pill,778,19,3,Japanese,f,1,0.1,18.57908242,1.36683942
NAY,111,2,2024-06-23T02:12:14.551Z,english_594.wav,0,pill,778,19,3,Japanese,f,2,0.2,-52.1381203,1.31792707
NAY,111,2,2024-06-23T02:12:14.551Z,english_594.wav,0,pill,778,19,3,Japanese,f,3,0.3,77.56862162,0.76119001
NAY,111,2,2024-06-23T02:12:14.551Z,english_594.wav,0,pill,778,19,3,Japanese,f,4,0.32341667,89.7133381,1.77084997
NAY,112,2,2024-06-23T02:12:14.551Z,english_500.wav,0,pill,1360,19,3,Japanese,f,0,0.0,34.07818593,1.14050746
NAY,112,2,2024-06-23T02:12:14.551Z,english_500.wav,0,pill,1360,19,3,Japanese,f,1,0.1,31.06479142,1.87458021
NAY,112,2,2024-06-23T02:12:14.551Z,english_500.wav,0,pill,1360,19,3,Japanese,f,2,0.2,-63.34751057,0.77467433
NAY,112,2,2024-06-23T02:12:14.551Z,english_500.wav,0,pill,1360,19,3,Japanese,f,3,0.3,36.97827554,1.278432
NAY,112,2,2024-06-23T02:12:14.551Z,english_500.wav,0,pill,1360,19,3,Japanese,f,4,0.32341667,96.68235718,0.68469821
NAY,113,2,2024-06-23T02:12:14.551Z,english_137.wav,0,peel,1376,19,3,Japanese,f,0,0.0,-81.54177422,0.16940048
NAY,113,2,2024-06-23T02:12:14.551Z,english_137.wav,0,peel,1376,19,3,Japanese,f,1,0.1,48.50229113,1.33204053
NAY,113,2,2024-06-23T02:12:14.551Z,english_137.wav,0,peel,1376,19,3,Japanese,f,2,0.2,-43.40912925,1.8593258
NAY,113,2,2024-06-23T02:12:14.551Z,english_137.wav,0,peel,1376,19,3,Japanese,f,3,0.3,54.89578869,1.77805515
NAY,113,2,2024-06-23T02:12:14.551Z,english_137.wav,0,peel,1376,19,3,Japanese,f,4,0.32341667,90.09778797,1.80981769
NAY,114,2,2024-06-23T02:12:14.551Z,english_864.wav,0,peel,923,19,3,Japanese,f,0,0.0,-41.66547405,0.15536101
NAY,114,2,2024-06-23T02:12:14.551Z,english_864.wav,0,peel,923,19,3,Japanese,f,1,0.1,47.36949562,1.78739046
NAY,114,2,2024-06-23T02:12:14.551Z,english_864.wav,0,peel,923,19,3,Japanese,f,2,0.2,87.97635609,1.48310956
NAY,114,2,2024-06-23T02:12:14.551Z,english_864.wav,0,peel,923,19,3,Japanese,f,3,0.3,-18.88921291,0.35838492
NAY,114,2,2024-06-23T02:12:14.551Z,english_864.wav,0,peel,923,19,3,Japanese,f,4,0.32341667,13.88839096,0.21709894
NAY,115,2,2024-06-23T02:12:14.551Z,english_128.wav,0,pill,943,19,3,Japanese,f,0,0.0,-84.07301703,0.96445051
NAY,115,2,2024-06-23T02:12:14.551Z,english_128.wav,0,pill,943,19,3,Japanese,f,1,0.1,0.2051398,0.77165422
NAY,115,2,2024-06-23T02:12:14.551Z,english_128.wav,0,pill,943,19,3,Japanese,f,2,0.2,50.77588291,0.60279997
NAY,115,2,2024-06-23T02:12:14.551Z,english_128.wav,0,pill,943,19,3,Japanese,f,3,0.3,3.27834455,0.59915485
NAY,115,2,2024-06-23T02:12:14.551Z,english_128.wav,0,pill,943,19,3,Japanese,f,4,0.32341667,59.5943459,0.43521132
NAY,116,2,2024-06-23T02:12:14.551Z,english_8.wav,0,pill,918,19,3,Japanese,f,0,0.0,-11.83025711,1.51300734
NAY,116,2,2024-06-23T02:12:14.551Z,english_8.wav,0,pill,918,19,3,Japanese,f,1,0.1,8.7470631,0.24000547
NAY,116,2,2024-06-23T02:12:14.551Z,english_8.wav,0,pill,918,19,3,Japanese,f,2,0.2,-15.41843982,1.17952525
NAY,116,2,2024-06-23T02:12:14.551Z,english_8.wav,0,pill,918,19,3,Japanese,f,3,0.3,-87.7437633,1.57032258
NAY,116,2,2024-06-23T02:12:14.551Z,english_8.wav,0,pill,918,19,3,Japanese,f,4,0.32341667,-40.85253846,0.7584977
NAY,117,2,2024-06-23T02:12:14.551Z,english_468.wav,0,pill,1755,19,3,Japanese,f,0,0.0,-33.82586043,0.35164089
NAY,117,2,2024-06-23T02:12:14.551Z,english_468.wav,0,pill,1755,19,3,Japanese,f,1,0.1,-42.55840131,0.20114733
NAY,117,2,2024-06-23T02:12:14.551Z,english_468.wav,0,pill,1755,19,3,Japanese,f,2,0.2,-36.6492295,1.40729654
NAY,117,2,2024-06-23T02:12:14.551Z,english_468.wav,0,pill,1755,19,3,Japanese,f,3,0.3,39.91321296,0.04300573
NAY,117,2,2024-06-23T02:12:14.551Z,english_468.wav,0,pill,1755,19,3,Japanese,f,4,0.32341667,54.14936319,1.79642733
NAY,118,2,2024-06-23T02:12:14.551Z,english_744.wav,0,pill,1483,19,3,Japanese,f,0,0.0,43.39686976,0.75505854
NAY,118,2,2024-06-23T02:12:14.551Z,english_744.wav,0,pill,1483,19,3,Japanese,f,1,0.1,-61.67573043,1.01311725
NAY,118,2,2024-06-23T02:12:14.551Z,english_744.wav,0,pill,1483,19,3,Japanese,f,2,0.2,0.51873183,0.73457108
NAY,118,2,2024-06-23T02:12:14.551Z,english_744.wav,0,pill,1483,19,3,Japanese,f,3,0.3,12.88130512,0.90154102
NAY,118,2,2024-06-23T02:12:14.551Z,english_744.wav,0,pill,1483,19,3,Japanese,f,4,0.32341667,57.31714449,1.01338509
NAY,119,2,2024-06-23T02:12:14.551Z,english_522.wav,0,pill,934,19,3,Japanese,f,0,0.0,11.68148217,0.44643579
NAY,119,2,2024-06-23T02:12:14.551Z,english_522.wav,0,pill,934,19,3,Japanese,f,1,0.1,-74.55265788,0.16885459
NAY,119,2,2024-06-23T02:12:14.551Z,english_522.wav,0,pill,934,19,3,Japanese,f,2,0.2,95.15954448,1.67161326
NAY,119,2,2024-06-23T02:12:14.551Z,english_522.wav,0,pill,934,19,3,Japanese,f,3,0.3,-17.14209769,0.53349848
NAY,119,2,2024-06-23T02:12:14.551Z,english_522.wav,0,pill,934,19,3,Japanese,f,4,0.32341667,-35.38302731,0.4645726
NAY,120,2,2024-06-23T02:12:14.551Z,english_125.wav,0,pill,660,19,3,Japanese,f,0,0.0,-5.59692586,0.61478703
NAY,120,2,2024-06-23T02:12:14.551Z,english_125.wav,0,pill,660,19,3,Japanese,f,1,0.1,45.61970603,0.5852269
NAY,120,2,2024-06-23T02:12:14.551Z,english_125.wav,0,pill,660,19,3,Japanese,f,2,0.2,-80.48713695,1.26290546
NAY,120,2,2024-06-23T02:12:14.551Z,english_125.wav,0,pill,660,19,3,Japanese,f,3,0.3,76.65956808,1.54178375
NAY,120,2,2024-06-23T02:12:14.551Z,english_125.wav,0,pill,660,19,3,Japanese,f,4,0.32341667,-9.14506838,0.79261171
NAY,121,2,2024-06-23T02:12:14.551Z,english_91.wav,0,pill,1299,19,3,Japanese,f,0,0.0,-67.73951944,0.2772338
NAY,121,2,2024-06-23T02:12:14.551Z,english_91.wav,0,pill,1299,19,3,Japanese,f,1,0.1,83.83337034,0.0816757
NAY,121,2,2024-06-23T02:12:14.551Z,english_91.wav,0,pill,1299,19,3,Japanese,f,2,0.2,-12.75649653,0.92538416
NAY,121,2,2024-06-23T02:12:14.551Z,english_91.wav,0,pill,1299,19,3,Japanese,f,3,0.3,5.95502951,0.40714056
NAY,121,2,2024-06-23T02:12:14.551Z,english_91.wav,0,pill,1299,19,3,Japanese,f,4,0.32341667,59.56964586,1.8717525
NAY,122,2,2024-06-23T02:12:14.551Z,english_610.wav,0,peel,877,19,3,Japanese,f,0,0.0,-14.96432812,0.5672697
NAY,122,2,2024-06-23T02:12:14.551Z,english_610.wav,0,peel,877,19,3,Japanese,f,1,0.1,48.51886955,0.75156182
NAY,122,2,2024-06-23T02:12:14.551Z,english_610.wav,0,peel,877,19,3,Japanese,f,2,0.2,47.07358548,0.38846335
NAY,122,2,2024-06-23T02:12:14.551Z,english_610.wav,0,peel,877,19,3,Japanese,f,3,0.3,17.30383174,1.52072292
NAY,122,2,2024-06-23T02:12:14.551Z,english_610.wav,0,peel,877,19,3,Japanese,f,4,0.32341667,1.51764356,1.56024836
NAY,123,2,2024-06-23T02:12:14.551Z,english_92.wav,0,peel,1860,19,3,Japanese,f,0,0.0,31.88505953,1.50112375
NAY,123,2,2024-06-23T02:12:14.551Z,english_92.wav,0,peel,1860,19,3,Japanese,f,1,0.1,-5.62534355,0.35596674
NAY,123,2,2024-06-23T02:12:14.551Z,english_92.wav,0,peel,1860,19,3,Japanese,f,2,0.2,-66.19250112,1.12270031
NAY,123,2,2024-06-23T02:12:14.551Z,english_92.wav,0,peel,1860,19,3,Japanese,f,3,0.3,-77.62644198,1.09837269
NAY,123,2,2024-06-23T02:12:14.551Z,english_92.wav,0,peel,1860,19,3,Japanese,f,4,0.32341667,-66.61656061,1.16274455
NAY,124,2,2024-06-23T02:12:14.551Z,english_958.wav,0,peel,1559,19,3,Japanese,f,0,0.0,17.32592779,0.33109802
NAY,124,2,2024-06-23T02:12:14.551Z,english_958.wav,0,peel,1559,19,3,Japanese,f,1,0.1,89.03376041,1.83345348
NAY,124,2,2024-06-23T02:12:14.551Z,english_958.wav,0,peel,1559,19,3,Japanese,f,2,0.2,-24.89219777,1.95859429
NAY,124,2,2024-06-23T02:12:14.551Z,english_958.wav,0,peel,1559,19,3,Japanese,f,3,0.3,-92.10798137,1.50296341
NAY,124,2,2024-06-23T02:12:14.551Z,english_958.wav,0,peel,1559,19,3,Japanese,f,4,0.32341667,3.27828718,0.1474067
NAY,125,2,2024-06-23T02:12:14.551Z,english_673.wav,0,pill,747,19,3,Japanese,f,0,0.0,-57.74220233,1.16794182
NAY,125,2,2024-06-23T02:12:14.551Z,english_673.wav,0,pill,747,19,3,Japanese,f,1,0.1,51.69168463,0.24005868
NAY,125,2,2024-06-23T02:12:14.551Z,english_673.wav,0,pill,747,19,3,Japanese,f,2,0.2,32.71998218,1.1491536
NAY,125,2,2024-06-23T02:12:14.551Z,english_673.wav,0,pill,747,19,3,Japanese,f,3,0.3,1.53841214,1.59180477
NAY,125,2,2024-06-23T02:12:14.551Z,english_673.wav,0,pill,747,19,3,Japanese,f,4,0.32341667,-95.68622946,1.00634228
NAY,126,2,2024-06-23T02:12:14.551Z,english_624.wav,0,peel,2251,19,3,Japanese,f,0,0.0,-66.94889137,0.79130031
NAY,126,2,2024-06-23T02:12:14.551Z,english_624.wav,0,peel,2251,19,3,Japanese,f,1,0.1,-6.87427926,1.85178888
NAY,126,2,2024-06-23T02:12:14.551Z,english_624.wav,0,peel,2251,19,3,Japanese,f,2,0.2,69.52298075,0.79988954
NAY,126,2,2024-06-23T02:12:14.551Z,english_624.wav,0,peel,2251,19,3,Japanese,f,3,0.3,-45.26015132,0.87521033
NAY,126,2,2024-06-23T02:12:14.551Z,english_624.wav,0,peel,2251,19,3,Japanese,f,4,0.32341667,-50.37935108,1.50754026
NAY,127,2,2024-06-23T02:12:14.551Z,english_419.wav,0,pill,3877,19,3,Japanese,f,0,0.0,74.10926047,0.0,0.423980314
NAY,127,2,2024-06-23T02:12:14.551Z,english_419.wav,0,pill,3877,19,3,Japanese,f,1,0.1,-50.44969368,0.1,1.12483838
NAY,127,2,2024-06-23T02:12:14.551Z,english_419.wav,0,pill,3877,19,3,Japanese,f,2,0.2,-38.37630765,0.2,0.473465541
NAY,127,2,2024-06-23T02:12:14.551Z,english_419.wav,0,pill,3877,19,3,Japanese,f,3,0.3,-57.54140712,0.3,0.000838613621
NAY,127,2,2024-06-23T02:12:14.551Z,english_419.wav,0,pill,3877,19,3,Japanese,f,4,0.32341667,48.12555486,0.323416667,0.389285402
NAY,128,2,2024-06-23T02:12:14.551Z,english_356.wav,0,peel,728,19,3,Japanese,f,0,0.0,87.74309864,0.22820547
NAY,128,2,2024-06-23T02:12:14.551Z,english_356.wav,0,peel,728,19,3,Japanese,f,1,0.1,-4.48264388,1.49009691
NAY,128,2,2024-06-23T02:12:14.551Z,english_356.wav,0,peel,728,19,3,Japanese,f,2,0.2,90.19031952,1.39023362
NAY,128,2,2024-06-23T02:12:14.551Z,english_356.wav,0,peel,728,19,3,Japanese,f,3,0.3,-69.40540064,1.78473098
NAY,128,2,2024-06-23T02:12:14.551Z,english_356.wav,0,peel,728,19,3,Japanese,f,4,0.32341667,65.10278108,0.80628385
NAY,129,2,2024-06-23T02:12:14.551Z,english_579.wav,0,peel,586,19,3,Japanese,f,0,0.0,78.52989573,1.74799876
NAY,129,2,2024-06-23T02:12:14.551Z,english_579.wav,0,peel,586,19,3,Japanese,f,1,0.1,-26.17758211,0.36264633
NAY,129,2,2024-06-23T02:12:14.551Z,english_579.wav,0,peel,586,19,3,Japanese,f,2,0.2,-65.60231522,1.15645327
NAY,129,2,2024-06-23T02:12:14.551Z,english_579.wav,0,peel,586,19,3,Japanese,f,3,0.3,-66.03357835,1.81639149
NAY,129,2,2024-06-23T02:12:14.551Z,english_579.wav,0,peel,586,19,3,Japanese,f,4,0.32341667,-36.23940811,1.38509752
NAY,130,2,2024-06-23T02:12:14.551Z,english_556.wav,0,peel,716,19,3,Japanese,f,0,0.0,35.62658416,1.88481821
NAY,130,2,2024-06-23T02:12:14.551Z,english_556.wav,0,peel,716,19,3,Japanese,f,1,0.1,28.75181601,0.4023528
NAY,130,2,2024-06-23T02:12:14.551Z,english_556.wav,0,peel,716,19,3,Japanese,f,2,0.2,-2.62389444,1.49364055
NAY,130,2,2024-06-23T02:12:14.551Z,english_556.wav,0,peel,716,19,3,Japanese,f,3,0.3,64.03572584,1.54190039
NAY,130,2,2024-06-23T02:12:14.551Z,english_556.wav,0,peel,716,19,3,Japanese,f,4,0.32341667,72.79696002,0.53435232
NAY,131,2,2024-06-23T02:12:14.551Z,english_665.wav,0,pill,1002,19,3,Japanese,f,0,0.0,-25.08423312,1.80265724
NAY,131,2,2024-06-23T02:12:14.551Z,english_665.wav,0,pill,1002,19,3,Japanese,f,1,0.1,-88.66042782,0.10063576
NAY,131,2,2024-06-23T02:12:14.551Z,english_665.wav,0,pill,1002,19,3,Japanese,f,2,0.2,-73.67467666,0.92910111
NAY,131,2,2024-06-23T02:12:14.551Z,english_665.wav,0,pill,1002,19,3,Japanese,f,3,0.3,66.53606028,0.83814709
NAY,131,2,2024-06-23T02:12:14.551Z,english_665.wav,0,pill,1002,19,3,Japanese,f,4,0.32341667,-75.03630793,0.77033789
NAY,132,2,2024-06-23T02:12:14.551Z,english_386.wav,0,pill,748,19,3,Japanese,f,0,0.0,74.56899624,1.79299743
NAY,132,2,2024-06-23T02:12:14.551Z,english_386.wav,0,pill,748,19,3,Japanese,f,1,0.1,25.94107183,0.16071221
NAY,132,2,2024-06-23T02:12:14.551Z,english_386.wav,0,pill,748,19,3,Japanese,f,2,0.2,41.2839149,0.21721497
NAY,132,2,2024-06-23T02:12:14.551Z,english_386.wav,0,pill,748,19,3,Japanese,f,3,0.3,14.47866495,1.22036918
NAY,132,2,2024-06-23T02:12:14.551Z,english_386.wav,0,pill,748,19,3,Japanese,f,4,0.32341667,-14.73959674,1.81871952
NAY,133,2,2024-06-23T02:12:14.551Z,english_661.wav,0,peel,637,19,3,Japanese,f,0,0.0,14.15805194,1.06290545
NAY,133,2,2024-06-23T02:12:14.551Z,english_661.wav,0,peel,637,19,3,Japanese,f,1,0.1,-77.97020538,1.12952287
NAY,133,2,2024-06-23T02:12:14.551Z,english_661.wav,0,peel,637,19,3,Japanese,f,2,0.2,-31.78835068,1.47556517
NAY,133,2,2024-06-23T02:12:14.551Z,english_661.wav,0,peel,637,19,3,Japanese,f,3,0.3,1.84085651,0.41137052
NAY,133,2,2024-06-23T02:12:14.551Z,english_661.wav,0,peel,637,19,3,Japanese,f,4,0.32341667,31.49677972,1.48872703
NAY,134,2,2024-06-23T02:12:14.551Z,english_161.wav,0,pill,1213,19,3,Japanese,f,0,0.0,16.17182642,0.80971259
NAY,134,2,2024-06-23T02:12:14.551Z,english_161.wav,0,pill,1213,19,3,Japanese,f,1,0.1,51.23408036,1.56168911
NAY,134,2,2024-06-23T02:12:14.551Z,english_161.wav,0,pill,1213,19,3,Japanese,f,2,0.2,56.55598601,0.91666403
NAY,134,2,2024-06-23T02:12:14.551Z,english_161.wav,0,pill,1213,19,3,Japanese,f,3,0.3,-25.08054758,1.93998208
NAY,134,2,2024-06-23T02:12:14.551Z,english_161.wav,0,pill,1213,19,3,Japanese,f,4,0.32341667,-70.36900789,0.76147365
NAY,135,2,2024-06-23T02:12:14.551Z,english_955.wav,0,peel,1722,19,3,Japanese,f,0,0.0,-93.58498903,1.26703381
NAY,135,2,2024-06-23T02:12:14.551Z,english_955.wav,0,peel,1722,19,3,Japanese,f,1,0.1,-11.56731864,0.51967441
NAY,135,2,2024-06-23T02:12:14.551Z,english_955.wav,0,peel,1722,19,3,Japanese,f,2,0.2,60.37787928,1.0313906
NAY,135,2,2024-06-23T02:12:14.551Z,english_955.wav,0,peel,1722,19,3,Japanese,f,3,0.3,83.42366765,1.58878747
NAY,135,2,2024-06-23T02:12:14.551Z,english_955.wav,0,peel,1722,19,3,Japanese,f,4,0.32341667,-60.32056418,1.0025339
NAY,136,2,2024-06-23T02:12:14.551Z,english_215.wav,0,peel,860,19,3,Japanese,f,0,0.0,-93.71362427,1.31176069
NAY,136,2,2024-06-23T02:12:14.551Z,english_215.wav,0,peel,860,19,3,Japanese,f,1,0.1,20.4696733,1.25536714
NAY,136,2,2024-06-23T02:12:14.551Z,english_215.wav,0,peel,860,19,3,Japanese,f,2,0.2,-66.57352715,1.5696385
NAY,136,2,2024-06-23T02:12:14.551Z,english_215.wav,0,peel,860,19,3,Japanese,f,3,0.3,-0.6079782,0.03144419
NAY,136,2,2024-06-23T02:12:14.551Z,english_215.wav,0,peel,860,19,3,Japanese,f,4,0.32341667,-5.73921948,0.79048669
NAY,137,2,2024-06-23T02:12:14.551Z,english_294.wav,0,peel,1005,19,3,Japanese,f,0,0.0,-92.15775888,0.74816787
NAY,137,2,2024-06-23T02:12:14.551Z,english_294.wav,0,peel,1005,19,3,Japanese,f,1,0.1,71.96645866,1.71916745
NAY,137,2,2024-06-23T02:12:14.551Z,english_294.wav,0,peel,1005,19,3,Japanese,f,2,0.2,-25.46852775,1.7524902
NAY,137,2,2024-06-23T02:12:14.551Z,english_294.wav,0,peel,1005,19,3,Japanese,f,3,0.3,17.21488016,0.9780509
NAY,137,2,2024-06-23T02:12:14.551Z,english_294.wav,0,peel,1005,19,3,Japanese,f,4,0.32341667,-10.41176069,1.21177262
NAY,138,2,2024-06-23T02:12:14.551Z,english_486.wav,0,peel,2355,19,3,Japanese,f,0,0.0,31.41997184,1.22599644
NAY,138,2,2024-06-23T02:12:14.551Z,english_486.wav,0,peel,2355,19,3,Japanese,f,1,0.1,58.03480486,1.4547445
NAY,138,2,2024-06-23T02:12:14.551Z,english_486.wav,0,peel,2355,19,3,Japanese,f,2,0.2,-62.84801238,0.27967606
NAY,138,2,2024-06-23T02:12:14.551Z,english_486.wav,0,peel,2355,19,3,Japanese,f,3,0.3,10.62451678,0.02065399
NAY,138,2,2024-06-23T02:12:14.551Z,english_486.wav,0,peel,2355,19,3,Japanese,f,4,0.32341667,10.31835057,0.3128479
NAY,139,2,2024-06-23T02:12:14.551Z,english_852.wav,0,peel,701,19,3,Japanese,f,0,0.0,-59.21906832,1.76087743
NAY,139,2,2024-06-23T02:12:14.551Z,english_852.wav,0,peel,701,19,3,Japanese,f,1,0.1,5.96662808,0.85304022
NAY,139,2,2024-06-23T02:12:14.551Z,english_852.wav,0,peel,701,19,3,Japanese,f,2,0.2,12.29830648,0.5029047
NAY,139,2,2024-06-23T02:12:14.551Z,english_852.wav,0,peel,701,19,3,Japanese,f,3,0.3,-98.20735767,0.66544939
NAY,139,2,2024-06-23T02:12:14.551Z,english_852.wav,0,peel,701,19,3,Japanese,f,4,0.32341667,-0.5186354,0.26669214
NAY,140,2,2024-06-23T02:12:14.551Z,english_865.wav,0,pill,1067,19,3,Japanese,f,0,0.0,57.45647421,1.64387024
NAY,140,2,2024-06-23T02:12:14.551Z,english_865.wav,0,pill,1067,19,3,Japanese,f,1,0.1,-62.30549211,0.05749027
NAY,140,2,2024-06-23T02:12:14.551Z,english_865.wav,0,pill,1067,19,3,Japanese,f,2,0.2,-35.85649312,0.09554773
NAY,140,2,2024-06-23T02:12:14.551Z,english_865.wav,0,pill,1067,19,3,Japanese,f,3,0.3,55.00701181,1.62598434
NAY,140,2,2024-06-23T02:12:14.551Z,english_865.wav,0,pill,1067,19,3,Japanese,f,4,0.32341667,-39.97662747,0.71232625
NAY,141,2,2024-06-23T02:12:14.551Z,english_282.wav,0,pill,1187,19,3,Japanese,f,0,0.0,0.76940706,0.32837311
NAY,141,2,2024-06-23T02:12:14.551Z,english_282.wav,0,pill,1187,19,3,Japanese,f,1,0.1,85.14494722,0.39977994
NAY,141,2,2024-06-23T02:12:14.551Z,english_282.wav,0,pill,1187,19,3,Japanese,f,2,0.2,-92.43433596,0.62065738
NAY,141,2,2024-06-23T02:12:14.551Z,english_282.wav,0,pill,1187,19,3,Japanese,f,3,0.3,-98.42888083,0.06200237
NAY,141,2,2024-06-23T02:12:14.551Z,english_282.wav,0,pill,1187,19,3,Japanese,f,4,0.32341667,-32.58662549,1.4193679
NAY,142,2,2024-06-23T02:12:14.551Z,english_190.wav,0,peel,904,19,3,Japanese,f,0,0.0,81.66607819,0.0,0.126715216
NAY,142,2,2024-06-23T02:12:14.551Z,english_190.wav,0,peel,904,19,3,Japanese,f,1,0.1,-14.16938067,0.1,0.000178349903
NAY,142,2,2024-06-23T02:12:14.551Z,english_190.wav,0,peel,904,19,3,Japanese,f,2,0.2,15.7443745,0.2,1.35192229
NAY,142,2,2024-06-23T02:12:14.551Z,english_190.wav,0,peel,904,19,3,Japanese,f,3,0.3,85.77694093,0.3,1.08905811
NAY,142,2,2024-06-23T02:12:14.551Z,english_190.wav,0,peel,904,19,3,Japanese,f,4,0.32341667,33.21115004,0.323416667,1.75580408
NAY,143,2,2024-06-23T02:12:14.551Z,english_793.wav,0,peel,1049,19,3,Japanese,f,0,0.0,-3.59370976,0.95327953
NAY,143,2,2024-06-23T02:12:14.551Z,english_793.wav,0,peel,1049,19,3,Japanese,f,1,0.1,-92.44382947,0.8890172
NAY,143,2,2024-06-23T02:12:14.551Z,english_793.wav,0,peel,1049,19,3,Japanese,f,2,0.2,-89.84008222,0.47547445
NAY,143,2,2024-06-23T02:12:14.551Z,english_793.wav,0,peel,1049,19,3,Japanese,f,3,0.3,96.09352514,1.09208031
NAY,143,2,2024-06-23T02:12:14.551Z,english_793.wav,0,peel,1049,19,3,Japanese,f,4,0.32341667,42.94050617,0.63383093
NAY,144,2,2024-06-23T02:12:14.551Z,english_691.wav,0,peel,1526,19,3,Japanese,f,0,0.0,28.79078449,1.07683297
NAY,144,2,2024-06-23T02:12:14.551Z,english_691.wav,0,peel,1526,19,3,Japanese,f,1,0.1,99.1184909,1.07376069
NAY,144,2,2024-06-23T02:12:14.551Z,english_691.wav,0,peel,1526,19,3,Japanese,f,2,0.2,-54.13985733,0.28522735
NAY,144,2,2024-06-23T02:12:14.551Z,english_691.wav,0,peel,1526,19,3,Japanese,f,3,0.3,-85.36319246,0.85701066
NAY,144,2,2024-06-23T02:12:14.551Z,english_691.wav,0,peel,1526,19,3,Japanese,f,4,0.32341667,-73.61621094,1.71165398
NAY,145,2,2024-06-23T02:12:14.551Z,english_437.wav,0,peel,967,19,3,Japanese,f,0,0.0,61.91803223,0.36516876
NAY,145,2,2024-06-23T02:12:14.551Z,english_437.wav,0,peel,967,19,3,Japanese,f,1,0.1,0.99543568,0.43500315
NAY,145,2,2024-06-23T02:12:14.551Z,english_437.wav,0,peel,967,19,3,Japanese,f,2,0.2,-50.96874522,1.25398366
NAY,145,2,2024-06-23T02:12:14.551Z,english_437.wav,0,peel,967,19,3,Japanese,f,3,0.3,-47.73319396,0.60570222
NAY,145,2,2024-06-23T02:12:14.551Z,english_437.wav,0,peel,967,19,3,Japanese,f,4,0.32341667,15.35939938,0.97208355
NAY,146,2,2024-06-23T02:12:14.551Z,english_176.wav,0,pill,1018,19,3,Japanese,f,0,0.0,-62.84257592,0.68193044
NAY,146,2,2024-06-23T02:12:14.551Z,english_176.wav,0,pill,1018,19,3,Japanese,f,1,0.1,86.95506575,0.26950978
NAY,146,2,2024-06-23T02:12:14.551Z,english_176.wav,0,pill,1018,19,3,Japanese,f,2,0.2,-28.0397163,0.45294908
NAY,146,2,2024-06-23T02:12:14.551Z,english_176.wav,0,pill,1018,19,3,Japanese,f,3,0.3,-64.80124174,0.91353321
NAY,146,2,2024-06-23T02:12:14.551Z,english_176.wav,0,pill,1018,19,3,Japanese,f,4,0.32341667,-98.66046935,1.10925614
NAY,147,2,2024-06-23T02:12:14.551Z,english_947.wav,0,peel,617,19,3,Japanese,f,0,0.0,73.13113362,0.1925557
NAY,147,2,2024-06-23T02:12:14.551Z,english_947.wav,0,peel,617,19,3,Japanese,f,1,0.1,-55.13077299,1.89478059
NAY,147,2,2024-06-23T02:12:14.551Z,english_947.wav,0,peel,617,19,3,Japanese,f,2,0.2,59.32217849,0.99662771
NAY,147,2,2024-06-23T02:12:14.551Z,english_947.wav,0,peel,617,19,3,Japanese,f,3,0.3,-71.25946194,0.61263341
NAY,147,2,2024-06-23T02:12:14.551Z,english_947.wav,0,peel,617,19,3,Japanese,f,4,0.32341667,39.2274254,0.46373334
NAY,148,2,2024-06-23T02:12:14.551Z,english_383.wav,0,pill,527,19,3,Japanese,f,0,0.0,-1.49759031,0.61403304
NAY,148,2,2024-06-23T02:12:14.551Z,english_383.wav,0,pill,527,19,3,Japanese,f,1,0.1,48.0809444,0.69225556
NAY,148,2,2024-06-23T02:12:14.551Z,english_383.wav,0,pill,527,19,3,Japanese,f,2,0.2,-84.09524499,0.33452268
NAY,148,2,2024-06-23T02:12:14.551Z,english_383.wav,0,pill,527,19,3,Japanese,f,3,0.3,95.23220486,1.06792504
NAY,148,2,2024-06-23T02:12:14.551Z,english_383.wav,0,pill,527,19,3,Japanese,f,4,0.32341667,64.91086902,0.58483827
NAY,149,2,2024-06-23T02:12:14.551Z,english_766.wav,0,peel,561,19,3,Japanese,f,0,0.0,-86.57417509,1.21737292
NAY,149,2,2024-06-23T02:12:14.551Z,english_766.wav,0,peel,561,19,3,Japanese,f,1,0.1,-67.75686223,1.61484435
NAY,149,2,2024-06-23T02:12:14.551Z,english_766.wav,0,peel,561,19,3,Japanese,f,2,0.2,74.21258041,1.47872362
NAY,149,2,2024-06-23T02:12:14.551Z,english_766.wav,0,peel,561,19,3,Japanese,f,3,0.3,65.20164426,1.81064247
NAY,149,2,2024-06-23T02:12:14.551Z,english_766.wav,0,peel,561,19,3,Japanese,f,4,0.32341667,-26.41371036,1.37776493
NAY,150,3,2024-06-23T02:15:22.102Z,english_730.wav,0,pill,1416,19,3,Japanese,f,0,0.0,12.15035978,0.91227818
NAY,150,3,2024-06-23T02:15:22.102Z,english_730.wav,0,pill,1416,19,3,Japanese,f,1,0.1,-56.22765555,1.17022701
NAY,150,3,2024-06-23T02:15:22.102Z,english_730.wav,0,pill,1416,19,3,Japanese,f,2,0.2,-53.26534685,0.58034143
NAY,150,3,2024-06-23T02:15:22.102Z,english_730.wav,0,pill,1416,19,3,Japanese,f,3,0.3,-25.75230742,1.9562998
NAY,150,3,2024-06-23T02:15:22.102Z,english_730.wav,0,pill,1416,19,3,Japanese,f,4,0.32341667,-73.04726616,1.99538846
NAY,151,3,2024-06-23T02:15:22.102Z,english_921.wav,0,peel,1442,19,3,Japanese,f,0,0.0,60.93482672,0.06624465
NAY,151,3,2024-06-23T02:15:22.102Z,english_921.wav,0,peel,1442,19,3,Japanese,f,1,0.1,-71.63665921,1.88925143
NAY,151,3,2024-06-23T02:15:22.102Z,english_921.wav,0,peel,1442,19,3,Japanese,f,2,0.2,-30.77028929,0.40013084
NAY,151,3,2024-06-23T02:15:22.102Z,english_921.wav,0,peel,1442,19,3,Japanese,f,3,0.3,-44.68164597,1.26601564
NAY,151,3,2024-06-23T02:15:22.102Z,english_921.wav,0,peel,1442,19,3,Japanese,f,4,0.32341667,34.59415858,1.98956357
NAY,152,3,2024-06-23T02:15:22.102Z,english_436.wav,0,peel,913,19,3,Japanese,f,0,0.0,58.73131257,0.30497449
NAY,152,3,2024-06-23T02:15:22.102Z,english_436.wav,0,peel,913,19,3,Japanese,f,1,0.1,65.29204538,1.04665744
NAY,152,3,2024-06-23T02:15:22.102Z,english_436.wav,0,peel,913,19,3,Japanese,f,2,0.2,7.63213906,1.03883923
NAY,152,3,2024-06-23T02:15:22.102Z,english_436.wav,0,peel,913,19,3,Japanese,f,3,0.3,-2.54756362,0.97345352
NAY,152,3,2024-06-23T02:15:22.102Z,english_436.wav,0,peel,913,19,3,Japanese,f,4,0.32341667,-11.40614268,0.16121918
NAY,153,3,2024-06-23T02:15:22.102Z,english_89.wav,0,peel,754,19,3,Japanese,f,0,0.0,-42.28936571,1.68633095
NAY,153,3,2024-06-23T02:15:22.102Z,english_89.wav,0,peel,754,19,3,Japanese,f,1,0.1,12.96738115,0.49078122
NAY,153,3,2024-06-23T02:15:22.102Z,english_89.wav,0,peel,754,19,3,Japanese,f,2,0.2,-0.92476461,0.75584791
NAY,153,3,2024-06-23T02:15:22.102Z,english_89.wav,0,peel,754,19,3,Japanese,f,3,0.3,54.46155283,1.37155139
NAY,153,3,2024-06-23T02:15:22.102Z,english_89.wav,0,peel,754,19,3,Japanese,f,4,0.32341667,-5.27724964,0.6613642
NAY,154,3,2024-06-23T02:15:22.102Z,english_442.wav,0,peel,539,19,3,Japanese,f,0,0.0,-5.21319176,1.35819452
NAY,154,3,2024-06-23T02:15:22.102Z,english_442.wav,0,peel,539,19,3,Japanese,f,1,0.1,-16.23989513,1.66019663
NAY,154,3,2024-06-23T02:15:22.102Z,english_442.wav,0,peel,539,19,3,Japanese,f,2,0.2,-36.77315909,0.51170704
NAY,154,3,2024-06-23T02:15:22.102Z,english_442.wav,0,peel,539,19,3,Japanese,f,3,0.3,-33.51446291,1.6590932
NAY,154,3,2024-06-23T02:15:22.102Z,english_442.wav,0,peel,539,19,3,Japanese,f,4,0.32341667,-25.07447919,0.97998973
NAY,155,3,2024-06-23T02:15:22.102Z,english_47.wav,0,peel,1433,19,3,Japanese,f,0,0.0,70.62381491,1.36620222
NAY,155,3,2024-06-23T02:15:22.102Z,english_47.wav,0,peel,1433,19,3,Japanese,f,1,0.1,-43.60565268,0.47559644
NAY,155,3,2024-06-23T02:15:22.102Z,english_47.wav,0,peel,1433,19,3,Japanese,f,2,0.2,29.54670776,0.92078875
NAY,155,3,2024-06-23T02:15:22.102Z,english_47.wav,0,peel,1433,19,3,Japanese,f,3,0.3,95.208653,0.83015506
NAY,155,3,2024-06-23T02:15:22.102Z,english_47.wav,0,peel,1433,19,3,Japanese,f,4,0.32341667,-87.83630424,1.40747595
NAY,156,3,2024-06-23T02:15:22.102Z,english_350.wav,0,pill,1089,19,3,Japanese,f,0,0.0,97.64268741,0.61487918
NAY,156,3,2024-06-23T02:15:22.102Z,english_350.wav,0,pill,1089,19,3,Japanese,f,1,0.1,23.96704837,0.40988424
NAY,156,3,2024-06-23T02:15:22.102Z,english_350.wav,0,pill,1089,19,3,Japanese,f,2,0.2,50.30792237,0.86872158
NAY,156,3,2024-06-23T02:15:22.102Z,english_350.wav,0,pill,1089,19,3,Japanese,f,3,0.3,71.77937185,1.01783109
NAY,156,3,2024-06-23T02:15:22.102Z,english_350.wav,0,pill,1089,19,3,Japanese,f,4,0.32341667,-64.81416361,0.68761283
NAY,157,3,2024-06-23T02:15:22.102Z,english_453.wav,0,pill,640,19,3,Japanese,f,0,0.0,-60.23429987,1.87756573
NAY,157,3,2024-06-23T02:15:22.102Z,english_453.wav,0,pill,640,19,3,Japanese,f,1,0.1,80.38725697,0.94070469
NAY,157,3,2024-06-23T02:15:22.102Z,english_453.wav,0,pill,640,19,3,Japanese,f,2,0.2,66.16689695,1.71191258
NAY,157,3,2024-06-23T02:15:22.102Z,english_453.wav,0,pill,640,19,3,Japanese,f,3,0.3,-59.46214637,0.56012011
NAY,157,3,2024-06-23T02:15:22.102Z,english_453.wav,0,pill,640,19,3,Japanese,f,4,0.32341667,-39.76201882,0.35119419
NAY,158,3,2024-06-23T02:15:22.102Z,english_450.wav,0,peel,678,19,3,Japanese,f,0,0.0,32.75253923,1.28767958
NAY,158,3,2024-06-23T02:15:22.102Z,english_450.wav,0,peel,678,19,3,Japanese,f,1,0.1,-95.51335644,1.7262356
NAY,158,3,2024-06-23T02:15:22.102Z,english_450.wav,0,peel,678,19,3,Japanese,f,2,0.2,34.87485597,0.97567272
NAY,158,3,2024-06-23T02:15:22.102Z,english_450.wav,0,peel,678,19,3,Japanese,f,3,0.3,-23.91285283,1.94639387
NAY,158,3,2024-06-23T02:15:22.102Z,english_450.wav,0,peel,678,19,3,Japanese,f,4,0.32341667,-8.67870007,1.78958339
NAY,159,3,2024-06-23T02:15:22.102Z,english_74.wav,0,peel,811,19,3,Japanese,f,0,0.0,86.29588785,1.196208
NAY,159,3,2024-06-23T02:15:22.102Z,english_74.wav,0,peel,811,19,3,Japanese,f,1,0.1,-14.52381687,1.63208143
NAY,159,3,2024-06-23T02:15:22.102Z,english_74.wav,0,peel,811,19,3,Japanese,f,2,0.2,77.94321906,0.46125368
NAY,159,3,2024-06-23T02:15:22.102Z,english_74.wav,0,peel,811,19,3,Japanese,f,3,0.3,-32.33104188,1.38278461
NAY,159,3,2024-06-23T02:15:22.102Z,english_74.wav,0,peel,811,19,3,Japanese,f,4,0.32341667,9.46602754,0.83147108
NAY,160,3,2024-06-23T02:15:22.102Z,english_694.wav,0,pill,1046,19,3,Japanese,f,0,0.0,-79.88370205,0.99496101
NAY,160,3,2024-06-23T02:15:22.102Z,english_694.wav,0,pill,1046,19,3,Japanese,f,1,0.1,-58.02841319,0.06406007
NAY,160,3,2024-06-23T02:15:22.102Z,english_694.wav,0,pill,1046,19,3,Japanese,f,2,0.2,-50.54988317,0.5055253
NAY,160,3,2024-06-23T02:15:22.102Z,english_694.wav,0,pill,1046,19,3,Japanese,f,3,0.3,-20.79864769,0.19498426
NAY,160,3,2024-06-23T02:15:22.102Z,english_694.wav,0,pill,1046,19,3,Japanese,f,4,0.32341667,-73.64916114,0.36410653
NAY,161,3,2024-06-23T02:15:22.102Z,english_207.wav,0,peel,630,19,3,Japanese,f,0,0.0,-64.55688296,1.06406661
NAY,161,3,2024-06-23T02:15:22.102Z,english_207.wav,0,peel,630,19,3,Japanese,f,1,0.1,98.33987034,1.58122859
NAY,161,3,2024-06-23T02:15:22.102Z,english_207.wav,0,peel,630,19,3,Japanese,f,2,0.2,-40.48281934,1.31381917
NAY,161,3,2024-06-23T02:15:22.102Z,english_207.wav,0,peel,630,19,3,Japanese,f,3,0.3,-36.48143513,0.83233835
NAY,161,3,2024-06-23T02:15:22.102Z,english_207.wav,0,peel,630,19,3,Japanese,f,4,0.32341667,-87.11188062,0.12663517
NAY,162,3,2024-06-23T02:15:22.102Z,english_11.wav,0,peel,994,19,3,Japanese,f,0,0.0,-20.45826732,1.19869378
NAY,162,3,2024-06-23T02:15:22.102Z,english_11.wav,0,peel,994,19,3,Japanese,f,1,0.1,-31.26113472,0.2059713
NAY,162,3,2024-06-23T02:15:22.102Z,english_11.wav,0,peel,994,19,3,Japanese,f,2,0.2,84.03210455,0.62296143
NAY,162,3,2024-06-23T02:15:22.102Z,english_11.wav,0,peel,994,19,3,Japanese,f,3,0.3,30.35463164,1.49781179
NAY,162,3,2024-06-23T02:15:22.102Z,english_11.wav,0,peel,994,19,3,Japanese,f,4,0.32341667,-63.36217442,0.18750748
NAY,163,3,2024-06-23T02:15:22.102Z,english_114.wav,0,peel,1012,19,3,Japanese,f,0,0.0,32.66189176,0.56529239
NAY,163,3,2024-06-23T02:15:22.102Z,english_114.wav,0,peel,1012,19,3,Japanese,f,1,0.1,11.50533392,1.79520186
NAY,163,3,2024-06-23T02:15:22.102Z,english_114.wav,0,peel,1012,19,3,Japanese,f,2,0.2,-73.58201401,1.4619954
NAY,163,3,2024-06-23T02:15:22.102Z,english_114.wav,0,peel,1012,19,3,Japanese,f,3,0.3,-8.93644113,0.78288211
NAY,163,3,2024-06-23T02:15:22.102Z,english_114.wav,0,peel,1012,19,3,Japanese,f,4,0.32341667,-2.4794064,0.66376764
NAY,164,3,2024-06-23T02:15:22.102Z,english_914.wav,0,pill,2181,19,3,Japanese,f,0,0.0,37.51857345,0.04486829
NAY,164,3,2024-06-23T02:15:22.102Z,english_914.wav,0,pill,2181,19,3,Japanese,f,1,0.1,-30.53068311,1.18486584
NAY,164,3,2024-06-23T02:15:22.102Z,english_914.wav,0,pill,2181,19,3,Japanese,f,2,0.2,-12.980452,1.58356311
NAY,164,3,2024-06-23T02:15:22.102Z,english_914.wav,0,pill,2181,19,3,Japanese,f,3,0.3,-99.09260462,1.35478251
NAY,164,3,2024-06-23T02:15:22.102Z,english_914.wav,0,pill,2181,19,3,Japanese,f,4,0.32341667,-34.91402533,1.16671671
NAY,165,3,2024-06-23T02:15:22.102Z,english_994.wav,0,peel,2156,19,3,Japanese,f,0,0.0,53.6083957,1.72152032
NAY,165,3,2024-06-23T02:15:22.102Z,english_994.wav,0,peel,2156,19,3,Japanese,f,1,0.1,62.5650281,0.97077126
NAY,165,3,2024-06-23T02:15:22.102Z,english_994.wav,0,peel,2156,19,3,Japanese,f,2,0.2,91.00734213,1.1154275
NAY,165,3,2024-06-23T02:15:22.102Z,english_994.wav,0,peel,2156,19,3,Japanese,f,3,0.3,-14.6853323,0.93534142
NAY,165,3,2024-06-23T02:15:22.102Z,english_994.wav,0,peel,2156,19,3,Japanese,f,4,0.32341667,42.94025292,1.51312842
NAY,166,3,2024-06-23T02:15:22.102Z,english_513.wav,0,pill,1357,19,3,Japanese,f,0,0.0,76.78578212,0.02403043
NAY,166,3,2024-06-23T02:15:22.102Z,english_513.wav,0,pill,1357,19,3,Japanese,f,1,0.1,20.42124481,0.85164369
NAY,166,3,2024-06-23T02:15:22.102Z,english_513.wav,0,pill,1357,19,3,Japanese,f,2,0.2,83.32251122,1.08658436
NAY,166,3,2024-06-23T02:15:22.102Z,english_513.wav,0,pill,1357,19,3,Japanese,f,3,0.3,47.28432413,0.40639055
NAY,166,3,2024-06-23T02:15:22.102Z,english_513.wav,0,pill,1357,19,3,Japanese,f,4,0.32341667,-50.64117466,1.29336046
NAY,167,3,2024-06-23T02:15:22.102Z,english_726.wav,0,peel,799,19,3,Japanese,f,0,0.0,76.65318619,0.71374833
NAY,167,3,2024-06-23T02:15:22.102Z,english_726.wav,0,peel,799,19,3,Japanese,f,1,0.1,62.97746083,1.94407191
NAY,167,3,2024-06-23T02:15:22.102Z,english_726.wav,0,peel,799,19,3,Japanese,f,2,0.2,-20.72245964,0.55951675
NAY,167,3,2024-06-23T02:15:22.102Z,english_726.wav,0,peel,799,19,3,Japanese,f,3,0.3,42.64953343,0.7826891
NAY,167,3,2024-06-23T02:15:22.102Z,english_726.wav,0,peel,799,19,3,Japanese,f,4,0.32341667,23.5514061,0.11592549
NAY,168,3,2024-06-23T02:15:22.102Z,english_245.wav,0,peel,471,19,3,Japanese,f,0,0.0,74.89239003,1.30710747
NAY,168,3,2024-06-23T02:15:22.102Z,english_245.wav,0,peel,471,19,3,Japanese,f,1,0.1,41.98679172,0.93119149
NAY,168,3,2024-06-23T02:15:22.102Z,english_245.wav,0,peel,471,19,3,Japanese,f,2,0.2,99.42105985,1.84379828
NAY,168,3,2024-06-23T02:15:22.102Z,english_245.wav,0,peel,471,19,3,Japanese,f,3,0.3,-75.11958538,1.72828743
NAY,168,3,2024-06-23T02:15:22.102Z,english_245.wav,0,peel,471,19,3,Japanese,f,4,0.32341667,-62.10664415,0.50124118
NAY,169,3,2024-06-23T02:15:22.102Z,english_970.wav,0,peel,1200,19,3,Japanese,f,0,0.0,37.22911191,0.60712849
NAY,169,3,2024-06-23T02:15:22.102Z,english_970.wav,0,peel,1200,19,3,Japanese,f,1,0.1,36.57191813,1.26781741
NAY,169,3,2024-06-23T02:15:22.102Z,english_970.wav,0,peel,1200,19,3,Japanese,f,2,0.2,20.2344678,1.29373459
NAY,169,3,2024-06-23T02:15:22.102Z,english_970.wav,0,peel,1200,19,3,Japanese,f,3,0.3,-86.31030026,0.18112256
NAY,169,3,2024-06-23T02:15:22.102Z,english_970.wav,0,peel,1200,19,3,Japanese,f,4,0.32341667,-83.96880691,1.07780169
NAY,170,3,2024-06-23T02:15:22.102Z,english_53.wav,0,pill,1583,19,3,Japanese,f,0,0.0,5.97237457,0.42230306
NAY,170,3,2024-06-23T02:15:22.102Z,english_53.wav,0,pill,1583,19,3,Japanese,f,1,0.1,-76.12131912,0.60624646
NAY,170,3,2024-06-23T02:15:22.102Z,english_53.wav,0,pill,1583,19,3,Japanese,f,2,0.2,55.18337216,0.26369256
NAY,170,3,2024-06-23T02:15:22.102Z,english_53.wav,0,pill,1583,19,3,Japanese,f,3,0.3,70.32610425,1.07400525
NAY,170,3,2024-06-23T02:15:22.102Z,english_53.wav,0,pill,1583,19,3,Japanese,f,4,0.32341667,26.40450832,0.2721545
NAY,171,3,2024-06-23T02:15:22.102Z,english_883.wav,0,peel,1524,19,3,Japanese,f,0,0.0,-17.60743744,1.86037562
NAY,171,3,2024-06-23T02:15:22.102Z,english_883.wav,0,peel,1524,19,3,Japanese,f,1,0.1,-37.46625877,0.9331332
NAY,171,3,2024-06-23T02:15:22.102Z,english_883.wav,0,peel,1524,19,3,Japanese,f,2,0.2,55.1108939,1.34322635
NAY,171,3,2024-06-23T02:15:22.102Z,english_883.wav,0,peel,1524,19,3,Japanese,f,3,0.3,87.45591348,0.07818604
NAY,171,3,2024-06-23T02:15:22.102Z,english_883.wav,0,peel,1524,19,3,Japanese,f,4,0.32341667,-90.78539671,1.31446095
NAY,172,3,2024-06-23T02:15:22.102Z,english_735.wav,0,peel,600,19,3,Japanese,f,0,0.0,51.40973306,0.29099813
NAY,172,3,2024-06-23T02:15:22.102Z,english_735.wav,0,peel,600,19,3,Japanese,f,1,0.1,-5.42867159,1.62833375
NAY,172,3,2024-06-23T02:15:22.102Z,english_735.wav,0,peel,600,19,3,Japanese,f,2,0.2,13.71146629,0.32849247
NAY,172,3,2024-06-23T02:15:22.102Z,english_735.wav,0,peel,600,19,3,Japanese,f,3,0.3,-14.17202169,0.46991549
NAY,172,3,2024-06-23T02:15:22.102Z,english_735.wav,0,peel,600,19,3,Japanese,f,4,0.32341667,14.98699592,0.51625305
NAY,173,3,2024-06-23T02:15:22.102Z,english_431.wav,0,peel,494,19,3,Japanese,f,0,0.0,-28.91437381,1.3282391
NAY,173,3,2024-06-23T02:15:22.102Z,english_431.wav,0,peel,494,19,3,Japanese,f,1,0.1,30.6479342,1.9405757
NAY,173,3,2024-06-23T02:15:22.102Z,english_431.wav,0,peel,494,19,3,Japanese,f,2,0.2,41.25713347,1.67607787
NAY,173,3,2024-06-23T02:15:22.102Z,english_431.wav,0,peel,494,19,3,Japanese,f,3,0.3,9.19018397,0.62213613
NAY,173,3,2024-06-23T02:15:22.102Z,english_431.wav,0,peel,494,19,3,Japanese,f,4,0.32341667,-61.77590044,0.50881411
NAY,174,3,2024-06-23T02:15:22.102Z,english_747.wav,0,peel,599,19,3,Japanese,f,0,0.0,-77.73977436,1.00478752
NAY,174,3,2024-06-23T02:15:22.102Z,english_747.wav,0,peel,599,19,3,Japanese,f,1,0.1,-18.96284798,0.15717617
NAY,174,3,2024-06-23T02:15:22.102Z,english_747.wav,0,peel,599,19,3,Japanese,f,2,0.2,-36.55549612,1.90654565
NAY,174,3,2024-06-23T02:15:22.102Z,english_747.wav,0,peel,599,19,3,Japanese,f,3,0.3,89.20291952,0.7651101
NAY,174,3,2024-06-23T02:15:22.102Z,english_747.wav,0,peel,599,19,3,Japanese,f,4,0.32341667,-97.78574386,0.92755825
NAY,175,3,2024-06-23T02:15:22.102Z,english_588.wav,0,pill,501,19,3,Japanese,f,0,0.0,99.95047602,0.54608042
NAY,175,3,2024-06-23T02:15:22.102Z,english_588.wav,0,pill,501,19,3,Japanese,f,1,0.1,6.8401109,0.86340392
NAY,175,3,2024-06-23T02:15:22.102Z,english_588.wav,0,pill,501,19,3,Japanese,f,2,0.2,-15.9093749,0.01522231
NAY,175,3,2024-06-23T02:15:22.102Z,english_588.wav,0,pill,501,19,3,Japanese,f,3,0.3,-95.80500507,0.86017392
NAY,175,3,2024-06-23T02:15:22.102Z,english_588.wav,0,pill,501,19,3,Japanese,f,4,0.32341667,23.59255786,0.36914066
NAY,176,3,2024-06-23T02:15:22.102Z,english_272.wav,0,peel,467,19,3,Japanese,f,0,0.0,61.82030971,1.51341556
NAY,176,3,2024-06-23T02:15:22.102Z,english_272.wav,0,peel,467,19,3,Japanese,f,1,0.1,4.16580657,0.43290826
NAY,176,3,2024-06-23T02:15:22.102Z,english_272.wav,0,peel,467,19,3,Japanese,f,2,0.2,-53.2567432,1.82734584
NAY,176,3,2024-06-23T02:15:22.102Z,english_272.wav,0,peel,467,19,3,Japanese,f,3,0.3,-52.99830768,0.22094446
NAY,176,3,2024-06-23T02:15:22.102Z,english_272.wav,0,peel,467,19,3,Japanese,f,4,0.32341667,-92.9943793,1.88040337
NAY,177,3,2024-06-23T02:15:22.102Z,english_392.wav,0,pill,343,19,3,Japanese,f,0,0.0,-12.90562814,1.13144201
NAY,177,3,2024-06-23T02:15:22.102Z,english_392.wav,0,pill,343,19,3,Japanese,f,1,0.1,-1.29416779,0.98893381
NAY,177,3,2024-06-23T02:15:22.102Z,english_392.wav,0,pill,343,19,3,Japanese,f,2,0.2,-53.34155903,0.07204825
NAY,177,3,2024-06-23T02:15:22.102Z,english_392.wav,0,pill,343,19,3,Japanese,f,3,0.3,-48.65153398,1.52779633
NAY,177,3,2024-06-23T02:15:22.102Z,english_392.wav,0,pill,343,19,3,Japanese,f,4,0.32341667,-43.47653164,1.32355089
NAY,178,3,2024-06-23T02:15:22.102Z,english_811.wav,0,pill,1250,19,3,Japanese,f,0,0.0,-51.03425556,1.55055496
NAY,178,3,2024-06-23T02:15:22.102Z,english_811.wav,0,pill,1250,19,3,Japanese,f,1,0.1,22.81695275,1.74830484
NAY,178,3,2024-06-23T02:15:22.102Z,english_811.wav,0,pill,1250,19,3,Japanese,f,2,0.2,73.06623682,1.24661488
NAY,178,3,2024-06-23T02:15:22.102Z,english_811.wav,0,pill,1250,19,3,Japanese,f,3,0.3,-9.17693151,0.09792889
NAY,178,3,2024-06-23T02:15:22.102Z,english_811.wav,0,pill,1250,19,3,Japanese,f,4,0.32341667,79.97760745,0.03735929
NAY,179,3,2024-06-23T02:15:22.102Z,english_167.wav,0,pill,919,19,3,Japanese,f,0,0.0,57.26975159,0.44729063
NAY,179,3,2024-06-23T02:15:22.102Z,english_167.wav,0,pill,919,19,3,Japanese,f,1,0.1,54.31010869,1.623568
NAY,179,3,2024-06-23T02:15:22.102Z,english_167.wav,0,pill,919,19,3,Japanese,f,2,0.2,99.57020207,0.28743218
NAY,179,3,2024-06-23T02:15:22.102Z,english_167.wav,0,pill,919,19,3,Japanese,f,3,0.3,27.92735821,0.71837494
NAY,179,3,2024-06-23T02:15:22.102Z,english_167.wav,0,pill,919,19,3,Japanese,f,4,0.32341667,73.13424206,1.35815305
NAY,180,3,2024-06-23T02:15:22.102Z,english_509.wav,0,peel,789,19,3,Japanese,f,0,0.0,58.37136146,0.93627824
NAY,180,3,2024-06-23T02:15:22.102Z,english_509.wav,0,peel,789,19,3,Japanese,f,1,0.1,-30.59588084,1.268957
NAY,180,3,2024-06-23T02:15:22.102Z,english_509.wav,0,peel,789,19,3,Japanese,f,2,0.2,-42.62400689,0.87018438
NAY,180,3,2024-06-23T02:15:22.102Z,english_509.wav,0,peel,789,19,3,Japanese,f,3,0.3,58.46483968,1.67134466
NAY,180,3,2024-06-23T02:15:22.102Z,english_509.wav,0,peel,789,19,3,Japanese,f,4,0.32341667,44.09610342,1.96584472
NAY,181,3,2024-06-23T02:15:22.102Z,english_926.wav,0,peel,720,19,3,Japanese,f,0,0.0,-21.84910749,1.63725542
NAY,181,3,2024-06-23T02:15:22.102Z,english_926.wav,0,peel,720,19,3,Japanese,f,1,0.1,92.62617727,0.91190035
NAY,181,3,2024-06-23T02:15:22.102Z,english_926.wav,0,peel,720,19,3,Japanese,f,2,0.2,-40.07927874,0.45967153
NAY,181,3,2024-06-23T02:15:22.102Z,english_926.wav,0,peel,720,19,3,Japanese,f,3,0.3,30.58508574,0.64362954
NAY,181,3,2024-06-23T02:15:22.102Z,english_926.wav,0,peel,720,19,3,Japanese,f,4,0.32341667,-68.98646438,1.44788087
NAY,182,3,2024-06-23T02:15:22.102Z,english_171.wav,0,peel,1217,19,3,Japanese,f,0,0.0,13.65984607,0.71637608
NAY,182,3,2024-06-23T02:15:22.102Z,english_171.wav,0,peel,1217,19,3,Japanese,f,1,0.1,70.55092655,1.80826384
NAY,182,3,2024-06-23T02:15:22.102Z,english_171.wav,0,peel,1217,19,3,Japanese,f,2,0.2,57.57935127,0.47277884
NAY,182,3,2024-06-23T02:15:22.102Z,english_171.wav,0,peel,1217,19,3,Japanese,f,3,0.3,-55.35579571,1.22036711
NAY,182,3,2024-06-23T02:15:22.102Z,english_171.wav,0,peel,1217,19,3,Japanese,f,4,0.32341667,13.04572565,0.00907712
NAY,183,3,2024-06-23T02:15:22.102Z,english_844.wav,0,pill,466,19,3,Japanese,f,0,0.0,-84.59865618,1.95225136
NAY,183,3,2024-06-23T02:15:22.102Z,english_844.wav,0,pill,466,19,3,Japanese,f,1,0.1,2.74576488,1.66072701
NAY,183,3,2024-06-23T02:15:22.102Z,english_844.wav,0,pill,466,19,3,Japanese,f,2,0.2,-31.14414819,0.05165652
NAY,183,3,2024-06-23T02:15:22.102Z,english_844.wav,0,pill,466,19,3,Japanese,f,3,0.3,59.06244098,0.5878804
NAY,183,3,2024-06-23T02:15:22.102Z,english_844.wav,0,pill,466,19,3,Japanese,f,4,0.32341667,67.61674881,0.72232709
NAY,184,3,2024-06-23T02:15:22.102Z,english_417.wav,0,peel,476,19,3,Japanese,f,0,0.0,-17.25972862,1.29903721
