subj,trial,block,date,stim,stim_order,response,rt,age,english,language,sex,param_index,segment,pitch,stretch
NBI,0,0,2024-10-08T00:42:29.521Z,english_205.wav,0,pill,4373,41,5,Japanese,m,0,0.0,55.03693902,1.41699591
NBI,0,0,2024-10-08T00:42:29.521Z,english_205.wav,0,pill,4373,41,5,Japanese,m,1,0.1,59.05347117,0.25749205
NBI,0,0,2024-10-08T00:42:29.521Z,english_205.wav,0,pill,4373,41,5,Japanese,m,2,0.2,-51.93258482,1.78695407
NBI,0,0,2024-10-08T00:42:29.521Z,english_205.wav,0,pill,4373,41,5,Japanese,m,3,0.3,-18.66886592,0.11157042
NBI,0,0,2024-10-08T00:42:29.521Z,english_205.wav,0,pill,4373,41,5,Japanese,m,4,0.32341667,-25.16213195,1.74030417
NBI,1,0,2024-10-08T00:42:29.521Z,english_186.wav,0,peel,1342,41,5,Japanese,m,0,0.0,-54.7664391,1.87021502
NBI,1,0,2024-10-08T00:42:29.521Z,english_186.wav,0,peel,1342,41,5,Japanese,m,1,0.1,-8.4263529,1.36390049
NBI,1,0,2024-10-08T00:42:29.521Z,english_186.wav,0,peel,1342,41,5,Japanese,m,2,0.2,6.22451559,1.69942617
NBI,1,0,2024-10-08T00:42:29.521Z,english_186.wav,0,peel,1342,41,5,Japanese,m,3,0.3,-12.35671223,1.8066537
NBI,1,0,2024-10-08T00:42:29.521Z,english_186.wav,0,peel,1342,41,5,Japanese,m,4,0.32341667,86.21839615,1.2511354
NBI,2,0,2024-10-08T00:42:29.521Z,english_650.wav,0,pill,2509,41,5,Japanese,m,0,0.0,-14.34164867,1.10695192
NBI,2,0,2024-10-08T00:42:29.521Z,english_650.wav,0,pill,2509,41,5,Japanese,m,1,0.1,-59.47569919,1.2442548
NBI,2,0,2024-10-08T00:42:29.521Z,english_650.wav,0,pill,2509,41,5,Japanese,m,2,0.2,-47.0995584,0.31281267
NBI,2,0,2024-10-08T00:42:29.521Z,english_650.wav,0,pill,2509,41,5,Japanese,m,3,0.3,-55.25841156,1.9869399
NBI,2,0,2024-10-08T00:42:29.521Z,english_650.wav,0,pill,2509,41,5,Japanese,m,4,0.32341667,83.92345375,1.10607629
NBI,3,0,2024-10-08T00:42:29.521Z,english_642.wav,0,pill,2586,41,5,Japanese,m,0,0.0,31.40946548,0.21393667
NBI,3,0,2024-10-08T00:42:29.521Z,english_642.wav,0,pill,2586,41,5,Japanese,m,1,0.1,4.73018903,1.31302396
NBI,3,0,2024-10-08T00:42:29.521Z,english_642.wav,0,pill,2586,41,5,Japanese,m,2,0.2,85.2390777,0.95537026
NBI,3,0,2024-10-08T00:42:29.521Z,english_642.wav,0,pill,2586,41,5,Japanese,m,3,0.3,-59.81643451,1.00167733
NBI,3,0,2024-10-08T00:42:29.521Z,english_642.wav,0,pill,2586,41,5,Japanese,m,4,0.32341667,-42.92691369,0.89750156
NBI,4,0,2024-10-08T00:42:29.521Z,english_797.wav,0,pill,2008,41,5,Japanese,m,0,0.0,-10.77604935,1.75152448
NBI,4,0,2024-10-08T00:42:29.521Z,english_797.wav,0,pill,2008,41,5,Japanese,m,1,0.1,76.52998448,0.25625033
NBI,4,0,2024-10-08T00:42:29.521Z,english_797.wav,0,pill,2008,41,5,Japanese,m,2,0.2,-52.30950648,1.63910521
NBI,4,0,2024-10-08T00:42:29.521Z,english_797.wav,0,pill,2008,41,5,Japanese,m,3,0.3,-19.27189704,1.44412191
NBI,4,0,2024-10-08T00:42:29.521Z,english_797.wav,0,pill,2008,41,5,Japanese,m,4,0.32341667,-68.52312916,1.41513857
NBI,5,0,2024-10-08T00:42:29.521Z,english_617.wav,0,pill,939,41,5,Japanese,m,0,0.0,-99.94195333,1.17597353
NBI,5,0,2024-10-08T00:42:29.521Z,english_617.wav,0,pill,939,41,5,Japanese,m,1,0.1,-27.54289523,0.72595777
NBI,5,0,2024-10-08T00:42:29.521Z,english_617.wav,0,pill,939,41,5,Japanese,m,2,0.2,-31.48016085,0.94648609
NBI,5,0,2024-10-08T00:42:29.521Z,english_617.wav,0,pill,939,41,5,Japanese,m,3,0.3,-72.28967102,1.67485207
NBI,5,0,2024-10-08T00:42:29.521Z,english_617.wav,0,pill,939,41,5,Japanese,m,4,0.32341667,-18.83127656,0.94146903
NBI,6,0,2024-10-08T00:42:29.521Z,english_566.wav,0,peel,2306,41,5,Japanese,m,0,0.0,70.56000247,1.04698608
NBI,6,0,2024-10-08T00:42:29.521Z,english_566.wav,0,peel,2306,41,5,Japanese,m,1,0.1,-0.18246418,1.13826263
NBI,6,0,2024-10-08T00:42:29.521Z,english_566.wav,0,peel,2306,41,5,Japanese,m,2,0.2,-23.7188651,1.91259561
NBI,6,0,2024-10-08T00:42:29.521Z,english_566.wav,0,peel,2306,41,5,Japanese,m,3,0.3,12.5469797,1.08561121
NBI,6,0,2024-10-08T00:42:29.521Z,english_566.wav,0,peel,2306,41,5,Japanese,m,4,0.32341667,-84.37997634,1.98926692
NBI,7,0,2024-10-08T00:42:29.521Z,english_417.wav,0,peel,1160,41,5,Japanese,m,0,0.0,-17.25972862,1.29903721
NBI,7,0,2024-10-08T00:42:29.521Z,english_417.wav,0,peel,1160,41,5,Japanese,m,1,0.1,72.11413149,0.87773419
NBI,7,0,2024-10-08T00:42:29.521Z,english_417.wav,0,peel,1160,41,5,Japanese,m,2,0.2,83.70212603,1.45838331
NBI,7,0,2024-10-08T00:42:29.521Z,english_417.wav,0,peel,1160,41,5,Japanese,m,3,0.3,67.19530478,0.90979472
NBI,7,0,2024-10-08T00:42:29.521Z,english_417.wav,0,peel,1160,41,5,Japanese,m,4,0.32341667,29.72084594,0.1224986
NBI,8,0,2024-10-08T00:42:29.521Z,english_80.wav,0,peel,2547,41,5,Japanese,m,0,0.0,33.21374474,1.09809668
NBI,8,0,2024-10-08T00:42:29.521Z,english_80.wav,0,peel,2547,41,5,Japanese,m,1,0.1,-72.2618742,1.73594877
NBI,8,0,2024-10-08T00:42:29.521Z,english_80.wav,0,peel,2547,41,5,Japanese,m,2,0.2,-29.44860443,0.30037535
NBI,8,0,2024-10-08T00:42:29.521Z,english_80.wav,0,peel,2547,41,5,Japanese,m,3,0.3,-33.36418129,0.36613598
NBI,8,0,2024-10-08T00:42:29.521Z,english_80.wav,0,peel,2547,41,5,Japanese,m,4,0.32341667,-65.11319145,0.50687614
NBI,9,0,2024-10-08T00:42:29.521Z,english_113.wav,0,peel,1021,41,5,Japanese,m,0,0.0,8.7952765,0.51001639
NBI,9,0,2024-10-08T00:42:29.521Z,english_113.wav,0,peel,1021,41,5,Japanese,m,1,0.1,91.94692023,1.45766025
NBI,9,0,2024-10-08T00:42:29.521Z,english_113.wav,0,peel,1021,41,5,Japanese,m,2,0.2,-6.68088057,1.25674442
NBI,9,0,2024-10-08T00:42:29.521Z,english_113.wav,0,peel,1021,41,5,Japanese,m,3,0.3,38.28142065,1.93213547
NBI,9,0,2024-10-08T00:42:29.521Z,english_113.wav,0,peel,1021,41,5,Japanese,m,4,0.32341667,-37.19939988,0.45590133
NBI,10,0,2024-10-08T00:42:29.521Z,english_79.wav,0,pill,956,41,5,Japanese,m,0,0.0,-69.52518262,0.23164561
NBI,10,0,2024-10-08T00:42:29.521Z,english_79.wav,0,pill,956,41,5,Japanese,m,1,0.1,56.533406,1.01948637
NBI,10,0,2024-10-08T00:42:29.521Z,english_79.wav,0,pill,956,41,5,Japanese,m,2,0.2,25.92051761,0.17653141
NBI,10,0,2024-10-08T00:42:29.521Z,english_79.wav,0,pill,956,41,5,Japanese,m,3,0.3,81.58880491,0.14868702
NBI,10,0,2024-10-08T00:42:29.521Z,english_79.wav,0,pill,956,41,5,Japanese,m,4,0.32341667,-19.75719301,0.33345335
NBI,11,0,2024-10-08T00:42:29.521Z,english_496.wav,0,peel,561,41,5,Japanese,m,0,0.0,-50.36729616,1.24588939
NBI,11,0,2024-10-08T00:42:29.521Z,english_496.wav,0,peel,561,41,5,Japanese,m,1,0.1,43.15166092,1.651593
NBI,11,0,2024-10-08T00:42:29.521Z,english_496.wav,0,peel,561,41,5,Japanese,m,2,0.2,-89.08132341,0.94120535
NBI,11,0,2024-10-08T00:42:29.521Z,english_496.wav,0,peel,561,41,5,Japanese,m,3,0.3,-31.93753525,0.55989053
NBI,11,0,2024-10-08T00:42:29.521Z,english_496.wav,0,peel,561,41,5,Japanese,m,4,0.32341667,-79.66514086,1.95233748
NBI,12,0,2024-10-08T00:42:29.521Z,english_101.wav,0,pill,793,41,5,Japanese,m,0,0.0,60.77829508,0.77962125
NBI,12,0,2024-10-08T00:42:29.521Z,english_101.wav,0,pill,793,41,5,Japanese,m,1,0.1,43.41373716,0.02040908
NBI,12,0,2024-10-08T00:42:29.521Z,english_101.wav,0,pill,793,41,5,Japanese,m,2,0.2,56.16195873,0.79248433
NBI,12,0,2024-10-08T00:42:29.521Z,english_101.wav,0,pill,793,41,5,Japanese,m,3,0.3,-99.94719329,1.74003505
NBI,12,0,2024-10-08T00:42:29.521Z,english_101.wav,0,pill,793,41,5,Japanese,m,4,0.32341667,-1.35074094,1.66206156
NBI,13,0,2024-10-08T00:42:29.521Z,english_829.wav,0,peel,2090,41,5,Japanese,m,0,0.0,60.30417439,0.94286345
NBI,13,0,2024-10-08T00:42:29.521Z,english_829.wav,0,peel,2090,41,5,Japanese,m,1,0.1,-26.87459656,0.76756767
NBI,13,0,2024-10-08T00:42:29.521Z,english_829.wav,0,peel,2090,41,5,Japanese,m,2,0.2,59.05286014,1.50609211
NBI,13,0,2024-10-08T00:42:29.521Z,english_829.wav,0,peel,2090,41,5,Japanese,m,3,0.3,-38.64739237,0.33518122
NBI,13,0,2024-10-08T00:42:29.521Z,english_829.wav,0,peel,2090,41,5,Japanese,m,4,0.32341667,68.61732932,1.40687349
NBI,14,0,2024-10-08T00:42:29.521Z,english_950.wav,0,peel,528,41,5,Japanese,m,0,0.0,-21.9776243,0.20752278
NBI,14,0,2024-10-08T00:42:29.521Z,english_950.wav,0,peel,528,41,5,Japanese,m,1,0.1,-41.40023943,1.93939622
NBI,14,0,2024-10-08T00:42:29.521Z,english_950.wav,0,peel,528,41,5,Japanese,m,2,0.2,48.01515584,1.55608343
NBI,14,0,2024-10-08T00:42:29.521Z,english_950.wav,0,peel,528,41,5,Japanese,m,3,0.3,-87.95551252,1.49634866
NBI,14,0,2024-10-08T00:42:29.521Z,english_950.wav,0,peel,528,41,5,Japanese,m,4,0.32341667,-39.5252386,0.91783384
NBI,15,0,2024-10-08T00:42:29.521Z,english_67.wav,0,peel,561,41,5,Japanese,m,0,0.0,70.16279698,0.73199358
NBI,15,0,2024-10-08T00:42:29.521Z,english_67.wav,0,peel,561,41,5,Japanese,m,1,0.1,33.8182948,0.88382403
NBI,15,0,2024-10-08T00:42:29.521Z,english_67.wav,0,peel,561,41,5,Japanese,m,2,0.2,-49.10498957,1.67993254
NBI,15,0,2024-10-08T00:42:29.521Z,english_67.wav,0,peel,561,41,5,Japanese,m,3,0.3,-4.93823124,0.24455532
NBI,15,0,2024-10-08T00:42:29.521Z,english_67.wav,0,peel,561,41,5,Japanese,m,4,0.32341667,24.09614703,1.99747442
NBI,16,0,2024-10-08T00:42:29.521Z,english_343.wav,0,peel,511,41,5,Japanese,m,0,0.0,-26.15456552,0.99905336
NBI,16,0,2024-10-08T00:42:29.521Z,english_343.wav,0,peel,511,41,5,Japanese,m,1,0.1,-4.26522308,0.59066439
NBI,16,0,2024-10-08T00:42:29.521Z,english_343.wav,0,peel,511,41,5,Japanese,m,2,0.2,55.3227334,1.69088488
NBI,16,0,2024-10-08T00:42:29.521Z,english_343.wav,0,peel,511,41,5,Japanese,m,3,0.3,-26.26518208,1.70645599
NBI,16,0,2024-10-08T00:42:29.521Z,english_343.wav,0,peel,511,41,5,Japanese,m,4,0.32341667,-18.3065251,0.13143106
NBI,17,0,2024-10-08T00:42:29.521Z,english_445.wav,0,peel,1099,41,5,Japanese,m,0,0.0,88.00598922,1.42174052
NBI,17,0,2024-10-08T00:42:29.521Z,english_445.wav,0,peel,1099,41,5,Japanese,m,1,0.1,96.51328737,1.49122509
NBI,17,0,2024-10-08T00:42:29.521Z,english_445.wav,0,peel,1099,41,5,Japanese,m,2,0.2,29.11093561,0.62095286
NBI,17,0,2024-10-08T00:42:29.521Z,english_445.wav,0,peel,1099,41,5,Japanese,m,3,0.3,69.6076589,1.14630865
NBI,17,0,2024-10-08T00:42:29.521Z,english_445.wav,0,peel,1099,41,5,Japanese,m,4,0.32341667,-59.73938179,1.38538671
NBI,18,0,2024-10-08T00:42:29.521Z,english_244.wav,0,peel,627,41,5,Japanese,m,0,0.0,-70.20374383,1.65134166
NBI,18,0,2024-10-08T00:42:29.521Z,english_244.wav,0,peel,627,41,5,Japanese,m,1,0.1,67.84882107,1.23738837
NBI,18,0,2024-10-08T00:42:29.521Z,english_244.wav,0,peel,627,41,5,Japanese,m,2,0.2,0.61676271,0.90147553
NBI,18,0,2024-10-08T00:42:29.521Z,english_244.wav,0,peel,627,41,5,Japanese,m,3,0.3,-96.58934439,1.79293216
NBI,18,0,2024-10-08T00:42:29.521Z,english_244.wav,0,peel,627,41,5,Japanese,m,4,0.32341667,-77.46985837,1.15013727
NBI,19,0,2024-10-08T00:42:29.521Z,english_345.wav,0,pill,503,41,5,Japanese,m,0,0.0,-46.00579497,1.58751342
NBI,19,0,2024-10-08T00:42:29.521Z,english_345.wav,0,pill,503,41,5,Japanese,m,1,0.1,-45.5805492,1.0202646
NBI,19,0,2024-10-08T00:42:29.521Z,english_345.wav,0,pill,503,41,5,Japanese,m,2,0.2,-14.04378539,0.61561299
NBI,19,0,2024-10-08T00:42:29.521Z,english_345.wav,0,pill,503,41,5,Japanese,m,3,0.3,63.72413351,1.21547564
NBI,19,0,2024-10-08T00:42:29.521Z,english_345.wav,0,pill,503,41,5,Japanese,m,4,0.32341667,18.03717792,1.47127253
NBI,20,0,2024-10-08T00:42:29.521Z,english_638.wav,0,pill,771,41,5,Japanese,m,0,0.0,6.92468799,1.1702122
NBI,20,0,2024-10-08T00:42:29.521Z,english_638.wav,0,pill,771,41,5,Japanese,m,1,0.1,52.10042521,0.51269982
NBI,20,0,2024-10-08T00:42:29.521Z,english_638.wav,0,pill,771,41,5,Japanese,m,2,0.2,-39.07293948,0.1912204
NBI,20,0,2024-10-08T00:42:29.521Z,english_638.wav,0,pill,771,41,5,Japanese,m,3,0.3,38.46029754,0.91406415
NBI,20,0,2024-10-08T00:42:29.521Z,english_638.wav,0,pill,771,41,5,Japanese,m,4,0.32341667,-16.6630855,1.67689755
NBI,21,0,2024-10-08T00:42:29.521Z,english_193.wav,0,peel,3541,41,5,Japanese,m,0,0.0,98.63199606,1.10219899
NBI,21,0,2024-10-08T00:42:29.521Z,english_193.wav,0,peel,3541,41,5,Japanese,m,1,0.1,38.06859183,1.75752318
NBI,21,0,2024-10-08T00:42:29.521Z,english_193.wav,0,peel,3541,41,5,Japanese,m,2,0.2,58.19309996,1.8701857
NBI,21,0,2024-10-08T00:42:29.521Z,english_193.wav,0,peel,3541,41,5,Japanese,m,3,0.3,70.68425501,1.90449871
NBI,21,0,2024-10-08T00:42:29.521Z,english_193.wav,0,peel,3541,41,5,Japanese,m,4,0.32341667,89.06926868,1.70479661
NBI,22,0,2024-10-08T00:42:29.521Z,english_421.wav,0,peel,1879,41,5,Japanese,m,0,0.0,25.39012861,1.47358925
NBI,22,0,2024-10-08T00:42:29.521Z,english_421.wav,0,peel,1879,41,5,Japanese,m,1,0.1,49.11153532,1.20920516
NBI,22,0,2024-10-08T00:42:29.521Z,english_421.wav,0,peel,1879,41,5,Japanese,m,2,0.2,38.93723883,0.72174872
NBI,22,0,2024-10-08T00:42:29.521Z,english_421.wav,0,peel,1879,41,5,Japanese,m,3,0.3,-9.34286459,0.24556907
NBI,22,0,2024-10-08T00:42:29.521Z,english_421.wav,0,peel,1879,41,5,Japanese,m,4,0.32341667,-9.28476392,0.87006143
NBI,23,0,2024-10-08T00:42:29.521Z,english_978.wav,0,peel,3023,41,5,Japanese,m,0,0.0,-73.1961296,0.69168228
NBI,23,0,2024-10-08T00:42:29.521Z,english_978.wav,0,peel,3023,41,5,Japanese,m,1,0.1,-56.98452675,1.28516196
NBI,23,0,2024-10-08T00:42:29.521Z,english_978.wav,0,peel,3023,41,5,Japanese,m,2,0.2,1.81288897,1.00851945
NBI,23,0,2024-10-08T00:42:29.521Z,english_978.wav,0,peel,3023,41,5,Japanese,m,3,0.3,-17.93803526,0.05981722
NBI,23,0,2024-10-08T00:42:29.521Z,english_978.wav,0,peel,3023,41,5,Japanese,m,4,0.32341667,-33.17886565,1.89275203
NBI,24,0,2024-10-08T00:42:29.521Z,english_246.wav,0,pill,2864,41,5,Japanese,m,0,0.0,-62.23082525,0.02615808
NBI,24,0,2024-10-08T00:42:29.521Z,english_246.wav,0,pill,2864,41,5,Japanese,m,1,0.1,59.67623932,1.52596932
NBI,24,0,2024-10-08T00:42:29.521Z,english_246.wav,0,pill,2864,41,5,Japanese,m,2,0.2,-63.30715513,1.87080553
NBI,24,0,2024-10-08T00:42:29.521Z,english_246.wav,0,pill,2864,41,5,Japanese,m,3,0.3,15.41118057,0.81226596
NBI,24,0,2024-10-08T00:42:29.521Z,english_246.wav,0,pill,2864,41,5,Japanese,m,4,0.32341667,90.60814582,0.64975072
NBI,25,0,2024-10-08T00:42:29.521Z,english_990.wav,0,pill,550,41,5,Japanese,m,0,0.0,-17.98511021,0.6190444
NBI,25,0,2024-10-08T00:42:29.521Z,english_990.wav,0,pill,550,41,5,Japanese,m,1,0.1,-90.3005676,0.77548775
NBI,25,0,2024-10-08T00:42:29.521Z,english_990.wav,0,pill,550,41,5,Japanese,m,2,0.2,4.37005684,0.55013224
NBI,25,0,2024-10-08T00:42:29.521Z,english_990.wav,0,pill,550,41,5,Japanese,m,3,0.3,83.93705034,0.66784051
NBI,25,0,2024-10-08T00:42:29.521Z,english_990.wav,0,pill,550,41,5,Japanese,m,4,0.32341667,-36.57803625,0.32384409
NBI,26,0,2024-10-08T00:42:29.521Z,english_819.wav,0,peel,416,41,5,Japanese,m,0,0.0,56.56933068,1.61805944
NBI,26,0,2024-10-08T00:42:29.521Z,english_819.wav,0,peel,416,41,5,Japanese,m,1,0.1,16.98960986,1.69207785
NBI,26,0,2024-10-08T00:42:29.521Z,english_819.wav,0,peel,416,41,5,Japanese,m,2,0.2,-13.59600893,1.33633205
NBI,26,0,2024-10-08T00:42:29.521Z,english_819.wav,0,peel,416,41,5,Japanese,m,3,0.3,79.1710335,0.49452457
NBI,26,0,2024-10-08T00:42:29.521Z,english_819.wav,0,peel,416,41,5,Japanese,m,4,0.32341667,25.34620926,1.97134574
NBI,27,0,2024-10-08T00:42:29.521Z,english_151.wav,0,peel,407,41,5,Japanese,m,0,0.0,-8.78950662,1.36403682
NBI,27,0,2024-10-08T00:42:29.521Z,english_151.wav,0,peel,407,41,5,Japanese,m,1,0.1,-1.70650264,1.76375426
NBI,27,0,2024-10-08T00:42:29.521Z,english_151.wav,0,peel,407,41,5,Japanese,m,2,0.2,-17.50286784,1.43087438
NBI,27,0,2024-10-08T00:42:29.521Z,english_151.wav,0,peel,407,41,5,Japanese,m,3,0.3,88.78233286,1.18017331
NBI,27,0,2024-10-08T00:42:29.521Z,english_151.wav,0,peel,407,41,5,Japanese,m,4,0.32341667,55.08117545,1.30400061
NBI,28,0,2024-10-08T00:42:29.521Z,english_365.wav,0,peel,698,41,5,Japanese,m,0,0.0,58.11205919,0.53708026
NBI,28,0,2024-10-08T00:42:29.521Z,english_365.wav,0,peel,698,41,5,Japanese,m,1,0.1,-61.04014877,1.10456153
NBI,28,0,2024-10-08T00:42:29.521Z,english_365.wav,0,peel,698,41,5,Japanese,m,2,0.2,12.43042802,1.31731937
NBI,28,0,2024-10-08T00:42:29.521Z,english_365.wav,0,peel,698,41,5,Japanese,m,3,0.3,17.00746388,1.02387946
NBI,28,0,2024-10-08T00:42:29.521Z,english_365.wav,0,peel,698,41,5,Japanese,m,4,0.32341667,-69.10644956,1.31633463
NBI,29,0,2024-10-08T00:42:29.521Z,english_425.wav,0,pill,625,41,5,Japanese,m,0,0.0,52.16022051,1.95369626
NBI,29,0,2024-10-08T00:42:29.521Z,english_425.wav,0,pill,625,41,5,Japanese,m,1,0.1,-4.0342476,0.01224448
NBI,29,0,2024-10-08T00:42:29.521Z,english_425.wav,0,pill,625,41,5,Japanese,m,2,0.2,71.82190917,1.45838463
NBI,29,0,2024-10-08T00:42:29.521Z,english_425.wav,0,pill,625,41,5,Japanese,m,3,0.3,77.8432037,1.1656734
NBI,29,0,2024-10-08T00:42:29.521Z,english_425.wav,0,pill,625,41,5,Japanese,m,4,0.32341667,29.14791909,1.54078916
NBI,30,0,2024-10-08T00:42:29.521Z,english_443.wav,0,pill,715,41,5,Japanese,m,0,0.0,0.608638,1.06022382
NBI,30,0,2024-10-08T00:42:29.521Z,english_443.wav,0,pill,715,41,5,Japanese,m,1,0.1,15.80398242,1.02694767
NBI,30,0,2024-10-08T00:42:29.521Z,english_443.wav,0,pill,715,41,5,Japanese,m,2,0.2,-53.8454718,0.72801533
NBI,30,0,2024-10-08T00:42:29.521Z,english_443.wav,0,pill,715,41,5,Japanese,m,3,0.3,32.36058062,1.22153209
NBI,30,0,2024-10-08T00:42:29.521Z,english_443.wav,0,pill,715,41,5,Japanese,m,4,0.32341667,41.23353215,0.58841963
NBI,31,0,2024-10-08T00:42:29.521Z,english_749.wav,0,peel,563,41,5,Japanese,m,0,0.0,-84.66020389,1.10062914
NBI,31,0,2024-10-08T00:42:29.521Z,english_749.wav,0,peel,563,41,5,Japanese,m,1,0.1,45.42505651,0.81865822
NBI,31,0,2024-10-08T00:42:29.521Z,english_749.wav,0,peel,563,41,5,Japanese,m,2,0.2,27.47623271,1.25164699
NBI,31,0,2024-10-08T00:42:29.521Z,english_749.wav,0,peel,563,41,5,Japanese,m,3,0.3,44.62305857,1.77685805
NBI,31,0,2024-10-08T00:42:29.521Z,english_749.wav,0,peel,563,41,5,Japanese,m,4,0.32341667,-87.62087265,0.97343419
NBI,32,0,2024-10-08T00:42:29.521Z,english_710.wav,0,peel,561,41,5,Japanese,m,0,0.0,-75.8732007,1.76991952
NBI,32,0,2024-10-08T00:42:29.521Z,english_710.wav,0,peel,561,41,5,Japanese,m,1,0.1,-57.22858583,1.84377411
NBI,32,0,2024-10-08T00:42:29.521Z,english_710.wav,0,peel,561,41,5,Japanese,m,2,0.2,28.4956072,1.20069914
NBI,32,0,2024-10-08T00:42:29.521Z,english_710.wav,0,peel,561,41,5,Japanese,m,3,0.3,-96.06281818,0.06088286
NBI,32,0,2024-10-08T00:42:29.521Z,english_710.wav,0,peel,561,41,5,Japanese,m,4,0.32341667,12.57492899,1.86160088
NBI,33,0,2024-10-08T00:42:29.521Z,english_937.wav,0,peel,590,41,5,Japanese,m,0,0.0,76.77394395,1.55370699
NBI,33,0,2024-10-08T00:42:29.521Z,english_937.wav,0,peel,590,41,5,Japanese,m,1,0.1,49.33576264,1.82028848
NBI,33,0,2024-10-08T00:42:29.521Z,english_937.wav,0,peel,590,41,5,Japanese,m,2,0.2,-87.39935237,1.42487505
NBI,33,0,2024-10-08T00:42:29.521Z,english_937.wav,0,peel,590,41,5,Japanese,m,3,0.3,11.02170053,0.87896062
NBI,33,0,2024-10-08T00:42:29.521Z,english_937.wav,0,peel,590,41,5,Japanese,m,4,0.32341667,91.99381322,0.96516852
NBI,34,0,2024-10-08T00:42:29.521Z,english_832.wav,0,peel,432,41,5,Japanese,m,0,0.0,-21.62855277,1.31372842
NBI,34,0,2024-10-08T00:42:29.521Z,english_832.wav,0,peel,432,41,5,Japanese,m,1,0.1,-35.3834786,1.55258378
NBI,34,0,2024-10-08T00:42:29.521Z,english_832.wav,0,peel,432,41,5,Japanese,m,2,0.2,52.65867494,1.50567803
NBI,34,0,2024-10-08T00:42:29.521Z,english_832.wav,0,peel,432,41,5,Japanese,m,3,0.3,62.52082964,1.2163301
NBI,34,0,2024-10-08T00:42:29.521Z,english_832.wav,0,peel,432,41,5,Japanese,m,4,0.32341667,46.66062952,1.20100353
NBI,35,0,2024-10-08T00:42:29.521Z,english_569.wav,0,pill,495,41,5,Japanese,m,0,0.0,-44.4695194,1.56768834
NBI,35,0,2024-10-08T00:42:29.521Z,english_569.wav,0,pill,495,41,5,Japanese,m,1,0.1,50.36705327,0.42032873
NBI,35,0,2024-10-08T00:42:29.521Z,english_569.wav,0,pill,495,41,5,Japanese,m,2,0.2,-76.17438636,0.31133764
NBI,35,0,2024-10-08T00:42:29.521Z,english_569.wav,0,pill,495,41,5,Japanese,m,3,0.3,55.47083669,0.91900801
NBI,35,0,2024-10-08T00:42:29.521Z,english_569.wav,0,pill,495,41,5,Japanese,m,4,0.32341667,-10.68913609,1.26529561
NBI,36,0,2024-10-08T00:42:29.521Z,english_573.wav,0,pill,599,41,5,Japanese,m,0,0.0,-46.41950257,0.98293374
NBI,36,0,2024-10-08T00:42:29.521Z,english_573.wav,0,pill,599,41,5,Japanese,m,1,0.1,-92.58424164,0.99885906
NBI,36,0,2024-10-08T00:42:29.521Z,english_573.wav,0,pill,599,41,5,Japanese,m,2,0.2,21.8123883,0.65769494
NBI,36,0,2024-10-08T00:42:29.521Z,english_573.wav,0,pill,599,41,5,Japanese,m,3,0.3,16.48756951,0.46238493
NBI,36,0,2024-10-08T00:42:29.521Z,english_573.wav,0,pill,599,41,5,Japanese,m,4,0.32341667,-54.36863361,0.72259175
NBI,37,0,2024-10-08T00:42:29.521Z,english_96.wav,0,pill,1058,41,5,Japanese,m,0,0.0,-2.60251168,1.33849038
NBI,37,0,2024-10-08T00:42:29.521Z,english_96.wav,0,pill,1058,41,5,Japanese,m,1,0.1,3.1808695,1.03790095
NBI,37,0,2024-10-08T00:42:29.521Z,english_96.wav,0,pill,1058,41,5,Japanese,m,2,0.2,-93.89625608,0.32730996
NBI,37,0,2024-10-08T00:42:29.521Z,english_96.wav,0,pill,1058,41,5,Japanese,m,3,0.3,22.03695444,1.15118519
NBI,37,0,2024-10-08T00:42:29.521Z,english_96.wav,0,pill,1058,41,5,Japanese,m,4,0.32341667,89.13776591,1.37996061
NBI,38,0,2024-10-08T00:42:29.521Z,english_126.wav,0,peel,578,41,5,Japanese,m,0,0.0,-71.89060105,0.84485729
NBI,38,0,2024-10-08T00:42:29.521Z,english_126.wav,0,peel,578,41,5,Japanese,m,1,0.1,-54.28004149,1.61340521
NBI,38,0,2024-10-08T00:42:29.521Z,english_126.wav,0,peel,578,41,5,Japanese,m,2,0.2,67.0997098,1.10892805
NBI,38,0,2024-10-08T00:42:29.521Z,english_126.wav,0,peel,578,41,5,Japanese,m,3,0.3,-96.31741745,1.20133652
NBI,38,0,2024-10-08T00:42:29.521Z,english_126.wav,0,peel,578,41,5,Japanese,m,4,0.32341667,22.67293764,0.33470898
NBI,39,0,2024-10-08T00:42:29.521Z,english_370.wav,0,peel,474,41,5,Japanese,m,0,0.0,-90.17078727,0.17796458
NBI,39,0,2024-10-08T00:42:29.521Z,english_370.wav,0,peel,474,41,5,Japanese,m,1,0.1,-71.99280791,1.08934715
NBI,39,0,2024-10-08T00:42:29.521Z,english_370.wav,0,peel,474,41,5,Japanese,m,2,0.2,-13.60727202,1.05914244
NBI,39,0,2024-10-08T00:42:29.521Z,english_370.wav,0,peel,474,41,5,Japanese,m,3,0.3,-0.93192742,1.87852505
NBI,39,0,2024-10-08T00:42:29.521Z,english_370.wav,0,peel,474,41,5,Japanese,m,4,0.32341667,33.27852394,1.24161401
NBI,40,0,2024-10-08T00:42:29.521Z,english_254.wav,0,peel,743,41,5,Japanese,m,0,0.0,-9.19838866,1.99657173
NBI,40,0,2024-10-08T00:42:29.521Z,english_254.wav,0,peel,743,41,5,Japanese,m,1,0.1,15.86633291,1.39044581
NBI,40,0,2024-10-08T00:42:29.521Z,english_254.wav,0,peel,743,41,5,Japanese,m,2,0.2,-42.67167238,1.09933375
NBI,40,0,2024-10-08T00:42:29.521Z,english_254.wav,0,peel,743,41,5,Japanese,m,3,0.3,-11.53254556,0.78821302
NBI,40,0,2024-10-08T00:42:29.521Z,english_254.wav,0,peel,743,41,5,Japanese,m,4,0.32341667,-12.27536806,0.39297423
NBI,41,0,2024-10-08T00:42:29.521Z,english_645.wav,0,pill,600,41,5,Japanese,m,0,0.0,44.09023725,0.24999948
NBI,41,0,2024-10-08T00:42:29.521Z,english_645.wav,0,pill,600,41,5,Japanese,m,1,0.1,53.49741331,0.20669006
NBI,41,0,2024-10-08T00:42:29.521Z,english_645.wav,0,pill,600,41,5,Japanese,m,2,0.2,28.7784214,0.13451906
NBI,41,0,2024-10-08T00:42:29.521Z,english_645.wav,0,pill,600,41,5,Japanese,m,3,0.3,-38.38386911,0.64617788
NBI,41,0,2024-10-08T00:42:29.521Z,english_645.wav,0,pill,600,41,5,Japanese,m,4,0.32341667,30.31484035,0.83061833
NBI,42,0,2024-10-08T00:42:29.521Z,english_371.wav,0,peel,551,41,5,Japanese,m,0,0.0,44.65928585,0.25571852
NBI,42,0,2024-10-08T00:42:29.521Z,english_371.wav,0,peel,551,41,5,Japanese,m,1,0.1,2.85031152,1.3562861
NBI,42,0,2024-10-08T00:42:29.521Z,english_371.wav,0,peel,551,41,5,Japanese,m,2,0.2,-57.71166213,1.30905236
NBI,42,0,2024-10-08T00:42:29.521Z,english_371.wav,0,peel,551,41,5,Japanese,m,3,0.3,-66.93032782,1.33160076
NBI,42,0,2024-10-08T00:42:29.521Z,english_371.wav,0,peel,551,41,5,Japanese,m,4,0.32341667,13.43806553,0.62192137
NBI,43,0,2024-10-08T00:42:29.521Z,english_517.wav,0,peel,563,41,5,Japanese,m,0,0.0,11.23661905,0.76208972
NBI,43,0,2024-10-08T00:42:29.521Z,english_517.wav,0,peel,563,41,5,Japanese,m,1,0.1,58.81241605,0.18193562
NBI,43,0,2024-10-08T00:42:29.521Z,english_517.wav,0,peel,563,41,5,Japanese,m,2,0.2,38.38790279,1.85963831
NBI,43,0,2024-10-08T00:42:29.521Z,english_517.wav,0,peel,563,41,5,Japanese,m,3,0.3,-74.61462092,0.20223028
NBI,43,0,2024-10-08T00:42:29.521Z,english_517.wav,0,peel,563,41,5,Japanese,m,4,0.32341667,-36.69086471,1.46287498
NBI,44,0,2024-10-08T00:42:29.521Z,english_736.wav,0,peel,494,41,5,Japanese,m,0,0.0,44.94907169,1.40223879
NBI,44,0,2024-10-08T00:42:29.521Z,english_736.wav,0,peel,494,41,5,Japanese,m,1,0.1,-89.05982676,1.76358699
NBI,44,0,2024-10-08T00:42:29.521Z,english_736.wav,0,peel,494,41,5,Japanese,m,2,0.2,27.88925208,0.99111008
NBI,44,0,2024-10-08T00:42:29.521Z,english_736.wav,0,peel,494,41,5,Japanese,m,3,0.3,77.01163693,1.90426439
NBI,44,0,2024-10-08T00:42:29.521Z,english_736.wav,0,peel,494,41,5,Japanese,m,4,0.32341667,-28.23601136,1.97036362
NBI,45,0,2024-10-08T00:42:29.521Z,english_378.wav,0,peel,400,41,5,Japanese,m,0,0.0,13.37832971,0.65677047
NBI,45,0,2024-10-08T00:42:29.521Z,english_378.wav,0,peel,400,41,5,Japanese,m,1,0.1,17.37931074,1.74134092
NBI,45,0,2024-10-08T00:42:29.521Z,english_378.wav,0,peel,400,41,5,Japanese,m,2,0.2,10.9554113,0.67897054
NBI,45,0,2024-10-08T00:42:29.521Z,english_378.wav,0,peel,400,41,5,Japanese,m,3,0.3,-24.86891171,1.20159635
NBI,45,0,2024-10-08T00:42:29.521Z,english_378.wav,0,peel,400,41,5,Japanese,m,4,0.32341667,7.89965194,0.27053006
NBI,46,0,2024-10-08T00:42:29.521Z,english_303.wav,0,peel,4428,41,5,Japanese,m,0,0.0,67.00540241,1.22520816
NBI,46,0,2024-10-08T00:42:29.521Z,english_303.wav,0,peel,4428,41,5,Japanese,m,1,0.1,32.95821842,1.22732479
NBI,46,0,2024-10-08T00:42:29.521Z,english_303.wav,0,peel,4428,41,5,Japanese,m,2,0.2,-23.67517146,0.54923068
NBI,46,0,2024-10-08T00:42:29.521Z,english_303.wav,0,peel,4428,41,5,Japanese,m,3,0.3,-66.94926695,0.8977578
NBI,46,0,2024-10-08T00:42:29.521Z,english_303.wav,0,peel,4428,41,5,Japanese,m,4,0.32341667,65.71723135,1.41807679
NBI,47,0,2024-10-08T00:42:29.521Z,english_830.wav,0,peel,459,41,5,Japanese,m,0,0.0,2.63258607,0.89301132
NBI,47,0,2024-10-08T00:42:29.521Z,english_830.wav,0,peel,459,41,5,Japanese,m,1,0.1,-31.8387274,1.32560067
NBI,47,0,2024-10-08T00:42:29.521Z,english_830.wav,0,peel,459,41,5,Japanese,m,2,0.2,-6.78563658,1.08718884
NBI,47,0,2024-10-08T00:42:29.521Z,english_830.wav,0,peel,459,41,5,Japanese,m,3,0.3,-57.52390495,0.53430446
NBI,47,0,2024-10-08T00:42:29.521Z,english_830.wav,0,peel,459,41,5,Japanese,m,4,0.32341667,51.13575953,0.53816607
NBI,48,0,2024-10-08T00:42:29.521Z,english_787.wav,0,peel,458,41,5,Japanese,m,0,0.0,57.99353047,1.96251481
NBI,48,0,2024-10-08T00:42:29.521Z,english_787.wav,0,peel,458,41,5,Japanese,m,1,0.1,-40.79525362,0.94444479
NBI,48,0,2024-10-08T00:42:29.521Z,english_787.wav,0,peel,458,41,5,Japanese,m,2,0.2,23.78072576,0.924778
NBI,48,0,2024-10-08T00:42:29.521Z,english_787.wav,0,peel,458,41,5,Japanese,m,3,0.3,72.96982422,0.31383508
NBI,48,0,2024-10-08T00:42:29.521Z,english_787.wav,0,peel,458,41,5,Japanese,m,4,0.32341667,53.76957631,0.68947425
NBI,49,0,2024-10-08T00:42:29.521Z,english_201.wav,0,peel,353,41,5,Japanese,m,0,0.0,-11.66329209,1.59313322
NBI,49,0,2024-10-08T00:42:29.521Z,english_201.wav,0,peel,353,41,5,Japanese,m,1,0.1,-73.85436231,1.78385616
NBI,49,0,2024-10-08T00:42:29.521Z,english_201.wav,0,peel,353,41,5,Japanese,m,2,0.2,-12.5199597,0.57641365
NBI,49,0,2024-10-08T00:42:29.521Z,english_201.wav,0,peel,353,41,5,Japanese,m,3,0.3,-44.18013019,1.54371285
NBI,49,0,2024-10-08T00:42:29.521Z,english_201.wav,0,peel,353,41,5,Japanese,m,4,0.32341667,47.68284229,1.11944384
NBI,50,1,2024-10-08T00:46:04.181Z,english_160.wav,0,pill,1159,41,5,Japanese,m,0,0.0,2.54964477,0.54357393
NBI,50,1,2024-10-08T00:46:04.181Z,english_160.wav,0,pill,1159,41,5,Japanese,m,1,0.1,26.84692557,1.29343216
NBI,50,1,2024-10-08T00:46:04.181Z,english_160.wav,0,pill,1159,41,5,Japanese,m,2,0.2,72.58457191,0.42070854
NBI,50,1,2024-10-08T00:46:04.181Z,english_160.wav,0,pill,1159,41,5,Japanese,m,3,0.3,-6.94481249,1.04489529
NBI,50,1,2024-10-08T00:46:04.181Z,english_160.wav,0,pill,1159,41,5,Japanese,m,4,0.32341667,35.80656171,0.26802137
NBI,51,1,2024-10-08T00:46:04.181Z,english_379.wav,0,peel,583,41,5,Japanese,m,0,0.0,30.14616912,1.43961489
NBI,51,1,2024-10-08T00:46:04.181Z,english_379.wav,0,peel,583,41,5,Japanese,m,1,0.1,-79.51193423,1.4219763
NBI,51,1,2024-10-08T00:46:04.181Z,english_379.wav,0,peel,583,41,5,Japanese,m,2,0.2,7.34860539,0.62633101
NBI,51,1,2024-10-08T00:46:04.181Z,english_379.wav,0,peel,583,41,5,Japanese,m,3,0.3,-43.99342265,1.13621958
NBI,51,1,2024-10-08T00:46:04.181Z,english_379.wav,0,peel,583,41,5,Japanese,m,4,0.32341667,37.72881761,1.35387794
NBI,52,1,2024-10-08T00:46:04.181Z,english_469.wav,0,peel,349,41,5,Japanese,m,0,0.0,-12.92877168,0.59007764
NBI,52,1,2024-10-08T00:46:04.181Z,english_469.wav,0,peel,349,41,5,Japanese,m,1,0.1,-67.35237443,1.36577084
NBI,52,1,2024-10-08T00:46:04.181Z,english_469.wav,0,peel,349,41,5,Japanese,m,2,0.2,-70.76493751,1.86337992
NBI,52,1,2024-10-08T00:46:04.181Z,english_469.wav,0,peel,349,41,5,Japanese,m,3,0.3,86.785725,1.85233296
NBI,52,1,2024-10-08T00:46:04.181Z,english_469.wav,0,peel,349,41,5,Japanese,m,4,0.32341667,-36.33255728,1.108986
NBI,53,1,2024-10-08T00:46:04.181Z,english_262.wav,0,peel,520,41,5,Japanese,m,0,0.0,-55.0240476,0.91992097
NBI,53,1,2024-10-08T00:46:04.181Z,english_262.wav,0,peel,520,41,5,Japanese,m,1,0.1,46.31562141,0.94194362
NBI,53,1,2024-10-08T00:46:04.181Z,english_262.wav,0,peel,520,41,5,Japanese,m,2,0.2,62.5855756,1.80305422
NBI,53,1,2024-10-08T00:46:04.181Z,english_262.wav,0,peel,520,41,5,Japanese,m,3,0.3,-4.25909078,0.51544707
NBI,53,1,2024-10-08T00:46:04.181Z,english_262.wav,0,peel,520,41,5,Japanese,m,4,0.32341667,16.27030636,1.47198659
NBI,54,1,2024-10-08T00:46:04.181Z,english_332.wav,0,pill,503,41,5,Japanese,m,0,0.0,-51.41680869,1.58782391
NBI,54,1,2024-10-08T00:46:04.181Z,english_332.wav,0,pill,503,41,5,Japanese,m,1,0.1,4.985172,0.72138411
NBI,54,1,2024-10-08T00:46:04.181Z,english_332.wav,0,pill,503,41,5,Japanese,m,2,0.2,88.20327684,1.12265768
NBI,54,1,2024-10-08T00:46:04.181Z,english_332.wav,0,pill,503,41,5,Japanese,m,3,0.3,-58.40734817,0.23569111
NBI,54,1,2024-10-08T00:46:04.181Z,english_332.wav,0,pill,503,41,5,Japanese,m,4,0.32341667,68.30800912,1.23583309
NBI,55,1,2024-10-08T00:46:04.181Z,english_437.wav,0,pill,629,41,5,Japanese,m,0,0.0,61.91803223,0.36516876
NBI,55,1,2024-10-08T00:46:04.181Z,english_437.wav,0,pill,629,41,5,Japanese,m,1,0.1,0.99543568,0.43500315
NBI,55,1,2024-10-08T00:46:04.181Z,english_437.wav,0,pill,629,41,5,Japanese,m,2,0.2,-50.96874522,1.25398366
NBI,55,1,2024-10-08T00:46:04.181Z,english_437.wav,0,pill,629,41,5,Japanese,m,3,0.3,-47.73319396,0.60570222
NBI,55,1,2024-10-08T00:46:04.181Z,english_437.wav,0,pill,629,41,5,Japanese,m,4,0.32341667,15.35939938,0.97208355
NBI,56,1,2024-10-08T00:46:04.181Z,english_922.wav,0,peel,1691,41,5,Japanese,m,0,0.0,-90.36253489,0.33253962
NBI,56,1,2024-10-08T00:46:04.181Z,english_922.wav,0,peel,1691,41,5,Japanese,m,1,0.1,-6.38761956,1.51366693
NBI,56,1,2024-10-08T00:46:04.181Z,english_922.wav,0,peel,1691,41,5,Japanese,m,2,0.2,-78.09661245,0.40049791
NBI,56,1,2024-10-08T00:46:04.181Z,english_922.wav,0,peel,1691,41,5,Japanese,m,3,0.3,-92.75722173,1.29207892
NBI,56,1,2024-10-08T00:46:04.181Z,english_922.wav,0,peel,1691,41,5,Japanese,m,4,0.32341667,-80.16719401,1.40400382
NBI,57,1,2024-10-08T00:46:04.181Z,english_220.wav,0,peel,460,41,5,Japanese,m,0,0.0,-49.83323752,1.6244524
NBI,57,1,2024-10-08T00:46:04.181Z,english_220.wav,0,peel,460,41,5,Japanese,m,1,0.1,49.13629021,0.7812698
NBI,57,1,2024-10-08T00:46:04.181Z,english_220.wav,0,peel,460,41,5,Japanese,m,2,0.2,10.673463,1.29736816
NBI,57,1,2024-10-08T00:46:04.181Z,english_220.wav,0,peel,460,41,5,Japanese,m,3,0.3,-2.35218347,1.3419496
NBI,57,1,2024-10-08T00:46:04.181Z,english_220.wav,0,peel,460,41,5,Japanese,m,4,0.32341667,-2.61587219,1.06575232
NBI,58,1,2024-10-08T00:46:04.181Z,english_549.wav,0,pill,632,41,5,Japanese,m,0,0.0,80.71270499,0.69011393
NBI,58,1,2024-10-08T00:46:04.181Z,english_549.wav,0,pill,632,41,5,Japanese,m,1,0.1,-71.31396277,1.1141308
NBI,58,1,2024-10-08T00:46:04.181Z,english_549.wav,0,pill,632,41,5,Japanese,m,2,0.2,48.34518996,0.72072674
NBI,58,1,2024-10-08T00:46:04.181Z,english_549.wav,0,pill,632,41,5,Japanese,m,3,0.3,-66.07502609,0.60045359
NBI,58,1,2024-10-08T00:46:04.181Z,english_549.wav,0,pill,632,41,5,Japanese,m,4,0.32341667,-52.28087662,0.77200176
NBI,59,1,2024-10-08T00:46:04.181Z,english_772.wav,0,peel,360,41,5,Japanese,m,0,0.0,-76.23750274,0.54712598
NBI,59,1,2024-10-08T00:46:04.181Z,english_772.wav,0,peel,360,41,5,Japanese,m,1,0.1,54.42820472,1.66698734
NBI,59,1,2024-10-08T00:46:04.181Z,english_772.wav,0,peel,360,41,5,Japanese,m,2,0.2,26.41325181,1.761061
NBI,59,1,2024-10-08T00:46:04.181Z,english_772.wav,0,peel,360,41,5,Japanese,m,3,0.3,14.10037165,1.80899506
NBI,59,1,2024-10-08T00:46:04.181Z,english_772.wav,0,peel,360,41,5,Japanese,m,4,0.32341667,-75.83605273,1.29882268
NBI,60,1,2024-10-08T00:46:04.181Z,english_338.wav,0,peel,377,41,5,Japanese,m,0,0.0,-22.40965878,1.93572195
NBI,60,1,2024-10-08T00:46:04.181Z,english_338.wav,0,peel,377,41,5,Japanese,m,1,0.1,-10.16153496,1.78994992
NBI,60,1,2024-10-08T00:46:04.181Z,english_338.wav,0,peel,377,41,5,Japanese,m,2,0.2,-50.2449588,1.38134059
NBI,60,1,2024-10-08T00:46:04.181Z,english_338.wav,0,peel,377,41,5,Japanese,m,3,0.3,14.05674122,1.78462007
NBI,60,1,2024-10-08T00:46:04.181Z,english_338.wav,0,peel,377,41,5,Japanese,m,4,0.32341667,-78.35339858,1.2607094
NBI,61,1,2024-10-08T00:46:04.181Z,english_982.wav,0,pill,530,41,5,Japanese,m,0,0.0,12.44046596,0.81508625
NBI,61,1,2024-10-08T00:46:04.181Z,english_982.wav,0,pill,530,41,5,Japanese,m,1,0.1,-60.41666302,0.92712357
NBI,61,1,2024-10-08T00:46:04.181Z,english_982.wav,0,pill,530,41,5,Japanese,m,2,0.2,-35.31499742,0.77678916
NBI,61,1,2024-10-08T00:46:04.181Z,english_982.wav,0,pill,530,41,5,Japanese,m,3,0.3,-10.96739076,1.0294352
NBI,61,1,2024-10-08T00:46:04.181Z,english_982.wav,0,pill,530,41,5,Japanese,m,4,0.32341667,44.50624474,1.1322674
NBI,62,1,2024-10-08T00:46:04.181Z,english_602.wav,0,peel,493,41,5,Japanese,m,0,0.0,-53.18857274,1.95117352
NBI,62,1,2024-10-08T00:46:04.181Z,english_602.wav,0,peel,493,41,5,Japanese,m,1,0.1,-52.96167371,1.1427253
NBI,62,1,2024-10-08T00:46:04.181Z,english_602.wav,0,peel,493,41,5,Japanese,m,2,0.2,38.20784676,1.10694813
NBI,62,1,2024-10-08T00:46:04.181Z,english_602.wav,0,peel,493,41,5,Japanese,m,3,0.3,46.0178344,0.8717932
NBI,62,1,2024-10-08T00:46:04.181Z,english_602.wav,0,peel,493,41,5,Japanese,m,4,0.32341667,78.11630752,0.71626065
NBI,63,1,2024-10-08T00:46:04.181Z,english_940.wav,0,pill,599,41,5,Japanese,m,0,0.0,47.11462569,0.32214594
NBI,63,1,2024-10-08T00:46:04.181Z,english_940.wav,0,pill,599,41,5,Japanese,m,1,0.1,11.81885745,0.21999868
NBI,63,1,2024-10-08T00:46:04.181Z,english_940.wav,0,pill,599,41,5,Japanese,m,2,0.2,-1.49931669,0.34357292
NBI,63,1,2024-10-08T00:46:04.181Z,english_940.wav,0,pill,599,41,5,Japanese,m,3,0.3,45.92466934,1.61274527
NBI,63,1,2024-10-08T00:46:04.181Z,english_940.wav,0,pill,599,41,5,Japanese,m,4,0.32341667,-72.78738407,0.9185628
NBI,64,1,2024-10-08T00:46:04.181Z,english_717.wav,0,peel,436,41,5,Japanese,m,0,0.0,11.70361719,1.43236824
NBI,64,1,2024-10-08T00:46:04.181Z,english_717.wav,0,peel,436,41,5,Japanese,m,1,0.1,-43.41962,0.38419888
NBI,64,1,2024-10-08T00:46:04.181Z,english_717.wav,0,peel,436,41,5,Japanese,m,2,0.2,-38.6653904,1.88953633
NBI,64,1,2024-10-08T00:46:04.181Z,english_717.wav,0,peel,436,41,5,Japanese,m,3,0.3,-38.11833374,1.28007762
NBI,64,1,2024-10-08T00:46:04.181Z,english_717.wav,0,peel,436,41,5,Japanese,m,4,0.32341667,93.29743671,0.67082429
NBI,65,1,2024-10-08T00:46:04.181Z,english_510.wav,0,peel,815,41,5,Japanese,m,0,0.0,-39.77235695,0.97080384
NBI,65,1,2024-10-08T00:46:04.181Z,english_510.wav,0,peel,815,41,5,Japanese,m,1,0.1,-55.9025784,0.1022914
NBI,65,1,2024-10-08T00:46:04.181Z,english_510.wav,0,peel,815,41,5,Japanese,m,2,0.2,42.12378864,1.56878682
NBI,65,1,2024-10-08T00:46:04.181Z,english_510.wav,0,peel,815,41,5,Japanese,m,3,0.3,-5.9333084,1.19302163
NBI,65,1,2024-10-08T00:46:04.181Z,english_510.wav,0,peel,815,41,5,Japanese,m,4,0.32341667,84.8199861,1.45606517
NBI,66,1,2024-10-08T00:46:04.181Z,english_711.wav,0,peel,756,41,5,Japanese,m,0,0.0,40.88671478,0.99029016
NBI,66,1,2024-10-08T00:46:04.181Z,english_711.wav,0,peel,756,41,5,Japanese,m,1,0.1,9.07407961,0.54320223
NBI,66,1,2024-10-08T00:46:04.181Z,english_711.wav,0,peel,756,41,5,Japanese,m,2,0.2,-23.01321115,1.60107
NBI,66,1,2024-10-08T00:46:04.181Z,english_711.wav,0,peel,756,41,5,Japanese,m,3,0.3,-10.85681813,1.574764
NBI,66,1,2024-10-08T00:46:04.181Z,english_711.wav,0,peel,756,41,5,Japanese,m,4,0.32341667,87.87195083,1.34863725
NBI,67,1,2024-10-08T00:46:04.181Z,english_146.wav,0,pill,701,41,5,Japanese,m,0,0.0,-7.47107612,0.36907021
NBI,67,1,2024-10-08T00:46:04.181Z,english_146.wav,0,pill,701,41,5,Japanese,m,1,0.1,-10.73298436,0.24473139
NBI,67,1,2024-10-08T00:46:04.181Z,english_146.wav,0,pill,701,41,5,Japanese,m,2,0.2,-4.63341632,1.01983542
NBI,67,1,2024-10-08T00:46:04.181Z,english_146.wav,0,pill,701,41,5,Japanese,m,3,0.3,14.65491039,0.62607899
NBI,67,1,2024-10-08T00:46:04.181Z,english_146.wav,0,pill,701,41,5,Japanese,m,4,0.32341667,19.96333333,1.1005899
NBI,68,1,2024-10-08T00:46:04.181Z,english_639.wav,0,pill,615,41,5,Japanese,m,0,0.0,-8.64176861,1.80061108
NBI,68,1,2024-10-08T00:46:04.181Z,english_639.wav,0,pill,615,41,5,Japanese,m,1,0.1,-2.28240571,0.32075858
NBI,68,1,2024-10-08T00:46:04.181Z,english_639.wav,0,pill,615,41,5,Japanese,m,2,0.2,61.07673865,0.35362442
NBI,68,1,2024-10-08T00:46:04.181Z,english_639.wav,0,pill,615,41,5,Japanese,m,3,0.3,-20.33592136,1.48415136
NBI,68,1,2024-10-08T00:46:04.181Z,english_639.wav,0,pill,615,41,5,Japanese,m,4,0.32341667,-24.05835486,0.14560931
NBI,69,1,2024-10-08T00:46:04.181Z,english_457.wav,0,peel,529,41,5,Japanese,m,0,0.0,-73.30847947,0.35525387
NBI,69,1,2024-10-08T00:46:04.181Z,english_457.wav,0,peel,529,41,5,Japanese,m,1,0.1,-25.74413936,0.90483023
NBI,69,1,2024-10-08T00:46:04.181Z,english_457.wav,0,peel,529,41,5,Japanese,m,2,0.2,8.82772976,1.30004432
NBI,69,1,2024-10-08T00:46:04.181Z,english_457.wav,0,peel,529,41,5,Japanese,m,3,0.3,-2.30416086,0.93422762
NBI,69,1,2024-10-08T00:46:04.181Z,english_457.wav,0,peel,529,41,5,Japanese,m,4,0.32341667,-34.04493945,1.31504388
NBI,70,1,2024-10-08T00:46:04.181Z,english_99.wav,0,pill,571,41,5,Japanese,m,0,0.0,9.75149611,0.79411887
NBI,70,1,2024-10-08T00:46:04.181Z,english_99.wav,0,pill,571,41,5,Japanese,m,1,0.1,-7.37998228,0.53064308
NBI,70,1,2024-10-08T00:46:04.181Z,english_99.wav,0,pill,571,41,5,Japanese,m,2,0.2,29.15889261,0.10254027
NBI,70,1,2024-10-08T00:46:04.181Z,english_99.wav,0,pill,571,41,5,Japanese,m,3,0.3,-23.23230809,0.53999741
NBI,70,1,2024-10-08T00:46:04.181Z,english_99.wav,0,pill,571,41,5,Japanese,m,4,0.32341667,51.25937721,0.74302856
NBI,71,1,2024-10-08T00:46:04.181Z,english_746.wav,0,peel,370,41,5,Japanese,m,0,0.0,-1.32395796,1.72273729
NBI,71,1,2024-10-08T00:46:04.181Z,english_746.wav,0,peel,370,41,5,Japanese,m,1,0.1,-67.07117971,1.22961235
NBI,71,1,2024-10-08T00:46:04.181Z,english_746.wav,0,peel,370,41,5,Japanese,m,2,0.2,75.09604974,1.29107068
NBI,71,1,2024-10-08T00:46:04.181Z,english_746.wav,0,peel,370,41,5,Japanese,m,3,0.3,-48.59278454,1.34694816
NBI,71,1,2024-10-08T00:46:04.181Z,english_746.wav,0,peel,370,41,5,Japanese,m,4,0.32341667,-6.52080997,0.94274536
NBI,72,1,2024-10-08T00:46:04.181Z,english_57.wav,0,peel,1125,41,5,Japanese,m,0,0.0,-27.39668164,1.97835384
NBI,72,1,2024-10-08T00:46:04.181Z,english_57.wav,0,peel,1125,41,5,Japanese,m,1,0.1,63.52389761,0.69906452
NBI,72,1,2024-10-08T00:46:04.181Z,english_57.wav,0,peel,1125,41,5,Japanese,m,2,0.2,-55.42033209,0.75389415
NBI,72,1,2024-10-08T00:46:04.181Z,english_57.wav,0,peel,1125,41,5,Japanese,m,3,0.3,40.81906742,0.20375649
NBI,72,1,2024-10-08T00:46:04.181Z,english_57.wav,0,peel,1125,41,5,Japanese,m,4,0.32341667,-12.75543821,1.65585112
NBI,73,1,2024-10-08T00:46:04.181Z,english_383.wav,0,pill,488,41,5,Japanese,m,0,0.0,-1.49759031,0.61403304
NBI,73,1,2024-10-08T00:46:04.181Z,english_383.wav,0,pill,488,41,5,Japanese,m,1,0.1,48.0809444,0.69225556
NBI,73,1,2024-10-08T00:46:04.181Z,english_383.wav,0,pill,488,41,5,Japanese,m,2,0.2,-84.09524499,0.33452268
NBI,73,1,2024-10-08T00:46:04.181Z,english_383.wav,0,pill,488,41,5,Japanese,m,3,0.3,95.23220486,1.06792504
NBI,73,1,2024-10-08T00:46:04.181Z,english_383.wav,0,pill,488,41,5,Japanese,m,4,0.32341667,64.91086902,0.58483827
NBI,74,1,2024-10-08T00:46:04.181Z,english_692.wav,0,peel,382,41,5,Japanese,m,0,0.0,-29.13306787,0.55849531
NBI,74,1,2024-10-08T00:46:04.181Z,english_692.wav,0,peel,382,41,5,Japanese,m,1,0.1,-41.86406343,1.96517265
NBI,74,1,2024-10-08T00:46:04.181Z,english_692.wav,0,peel,382,41,5,Japanese,m,2,0.2,-94.94051661,0.19953253
NBI,74,1,2024-10-08T00:46:04.181Z,english_692.wav,0,peel,382,41,5,Japanese,m,3,0.3,78.40426091,1.89357941
NBI,74,1,2024-10-08T00:46:04.181Z,english_692.wav,0,peel,382,41,5,Japanese,m,4,0.32341667,-47.11562344,1.37874109
NBI,75,1,2024-10-08T00:46:04.181Z,english_295.wav,0,peel,1878,41,5,Japanese,m,0,0.0,-76.51454746,1.12273409
NBI,75,1,2024-10-08T00:46:04.181Z,english_295.wav,0,peel,1878,41,5,Japanese,m,1,0.1,-96.9380047,0.2018376
NBI,75,1,2024-10-08T00:46:04.181Z,english_295.wav,0,peel,1878,41,5,Japanese,m,2,0.2,-72.79782389,1.81703153
NBI,75,1,2024-10-08T00:46:04.181Z,english_295.wav,0,peel,1878,41,5,Japanese,m,3,0.3,-31.86888898,0.31799467
NBI,75,1,2024-10-08T00:46:04.181Z,english_295.wav,0,peel,1878,41,5,Japanese,m,4,0.32341667,-51.47839766,0.71777059
NBI,76,1,2024-10-08T00:46:04.181Z,english_334.wav,0,peel,529,41,5,Japanese,m,0,0.0,-67.45724149,1.41500124
NBI,76,1,2024-10-08T00:46:04.181Z,english_334.wav,0,peel,529,41,5,Japanese,m,1,0.1,-9.29085452,1.93519658
NBI,76,1,2024-10-08T00:46:04.181Z,english_334.wav,0,peel,529,41,5,Japanese,m,2,0.2,-52.27794836,1.67457228
NBI,76,1,2024-10-08T00:46:04.181Z,english_334.wav,0,peel,529,41,5,Japanese,m,3,0.3,97.74689659,1.80763723
NBI,76,1,2024-10-08T00:46:04.181Z,english_334.wav,0,peel,529,41,5,Japanese,m,4,0.32341667,69.13668576,0.68141016
NBI,77,1,2024-10-08T00:46:04.181Z,english_977.wav,0,peel,597,41,5,Japanese,m,0,0.0,63.46196139,0.87194913
NBI,77,1,2024-10-08T00:46:04.181Z,english_977.wav,0,peel,597,41,5,Japanese,m,1,0.1,-23.64022125,1.67919547
NBI,77,1,2024-10-08T00:46:04.181Z,english_977.wav,0,peel,597,41,5,Japanese,m,2,0.2,31.65242203,0.97011806
NBI,77,1,2024-10-08T00:46:04.181Z,english_977.wav,0,peel,597,41,5,Japanese,m,3,0.3,16.19881364,1.40431802
NBI,77,1,2024-10-08T00:46:04.181Z,english_977.wav,0,peel,597,41,5,Japanese,m,4,0.32341667,-33.08554183,1.02563167
NBI,78,1,2024-10-08T00:46:04.181Z,english_296.wav,0,peel,1091,41,5,Japanese,m,0,0.0,-4.92142852,1.99305172
NBI,78,1,2024-10-08T00:46:04.181Z,english_296.wav,0,peel,1091,41,5,Japanese,m,1,0.1,-5.74196289,0.92633133
NBI,78,1,2024-10-08T00:46:04.181Z,english_296.wav,0,peel,1091,41,5,Japanese,m,2,0.2,76.26647078,0.44879969
NBI,78,1,2024-10-08T00:46:04.181Z,english_296.wav,0,peel,1091,41,5,Japanese,m,3,0.3,-62.74030654,1.47417428
NBI,78,1,2024-10-08T00:46:04.181Z,english_296.wav,0,peel,1091,41,5,Japanese,m,4,0.32341667,-60.661992,1.05571007
NBI,79,1,2024-10-08T00:46:04.181Z,english_462.wav,0,peel,425,41,5,Japanese,m,0,0.0,-35.73318704,1.53267708
NBI,79,1,2024-10-08T00:46:04.181Z,english_462.wav,0,peel,425,41,5,Japanese,m,1,0.1,-5.65949109,1.98369384
NBI,79,1,2024-10-08T00:46:04.181Z,english_462.wav,0,peel,425,41,5,Japanese,m,2,0.2,-49.47542688,1.31270994
NBI,79,1,2024-10-08T00:46:04.181Z,english_462.wav,0,peel,425,41,5,Japanese,m,3,0.3,-98.18570674,1.26289606
NBI,79,1,2024-10-08T00:46:04.181Z,english_462.wav,0,peel,425,41,5,Japanese,m,4,0.32341667,-16.34927785,1.36496903
NBI,80,1,2024-10-08T00:46:04.181Z,english_238.wav,0,pill,642,41,5,Japanese,m,0,0.0,87.78466979,1.0750983
NBI,80,1,2024-10-08T00:46:04.181Z,english_238.wav,0,pill,642,41,5,Japanese,m,1,0.1,65.39287108,0.03626896
NBI,80,1,2024-10-08T00:46:04.181Z,english_238.wav,0,pill,642,41,5,Japanese,m,2,0.2,-38.39100082,1.9832234
NBI,80,1,2024-10-08T00:46:04.181Z,english_238.wav,0,pill,642,41,5,Japanese,m,3,0.3,-20.01297649,0.17604691
NBI,80,1,2024-10-08T00:46:04.181Z,english_238.wav,0,pill,642,41,5,Japanese,m,4,0.32341667,78.31880556,1.61383808
NBI,81,1,2024-10-08T00:46:04.181Z,english_231.wav,0,peel,625,41,5,Japanese,m,0,0.0,-57.04299033,1.30850831
NBI,81,1,2024-10-08T00:46:04.181Z,english_231.wav,0,peel,625,41,5,Japanese,m,1,0.1,-61.30294243,1.06317761
NBI,81,1,2024-10-08T00:46:04.181Z,english_231.wav,0,peel,625,41,5,Japanese,m,2,0.2,11.10207427,1.86768436
NBI,81,1,2024-10-08T00:46:04.181Z,english_231.wav,0,peel,625,41,5,Japanese,m,3,0.3,-1.38864911,1.42169342
NBI,81,1,2024-10-08T00:46:04.181Z,english_231.wav,0,peel,625,41,5,Japanese,m,4,0.32341667,-40.37897369,0.58634772
NBI,82,1,2024-10-08T00:46:04.181Z,english_225.wav,0,peel,599,41,5,Japanese,m,0,0.0,66.72796839,1.97535322
NBI,82,1,2024-10-08T00:46:04.181Z,english_225.wav,0,peel,599,41,5,Japanese,m,1,0.1,3.03768966,1.18784527
NBI,82,1,2024-10-08T00:46:04.181Z,english_225.wav,0,peel,599,41,5,Japanese,m,2,0.2,-45.96345052,1.58393351
NBI,82,1,2024-10-08T00:46:04.181Z,english_225.wav,0,peel,599,41,5,Japanese,m,3,0.3,-88.14676012,1.17885171
NBI,82,1,2024-10-08T00:46:04.181Z,english_225.wav,0,peel,599,41,5,Japanese,m,4,0.32341667,46.76760659,1.387907
NBI,83,1,2024-10-08T00:46:04.181Z,english_659.wav,0,pill,619,41,5,Japanese,m,0,0.0,-86.13080632,0.77157019
NBI,83,1,2024-10-08T00:46:04.181Z,english_659.wav,0,pill,619,41,5,Japanese,m,1,0.1,39.51927718,1.34569204
NBI,83,1,2024-10-08T00:46:04.181Z,english_659.wav,0,pill,619,41,5,Japanese,m,2,0.2,-6.22185106,0.71695874
NBI,83,1,2024-10-08T00:46:04.181Z,english_659.wav,0,pill,619,41,5,Japanese,m,3,0.3,5.64287294,1.04110125
NBI,83,1,2024-10-08T00:46:04.181Z,english_659.wav,0,pill,619,41,5,Japanese,m,4,0.32341667,47.08694279,1.84115141
NBI,84,1,2024-10-08T00:46:04.181Z,english_269.wav,0,peel,390,41,5,Japanese,m,0,0.0,61.09556447,1.11606818
NBI,84,1,2024-10-08T00:46:04.181Z,english_269.wav,0,peel,390,41,5,Japanese,m,1,0.1,-3.97684721,1.55443041
NBI,84,1,2024-10-08T00:46:04.181Z,english_269.wav,0,peel,390,41,5,Japanese,m,2,0.2,-87.59080112,1.78173809
NBI,84,1,2024-10-08T00:46:04.181Z,english_269.wav,0,peel,390,41,5,Japanese,m,3,0.3,78.47165079,1.73012946
NBI,84,1,2024-10-08T00:46:04.181Z,english_269.wav,0,peel,390,41,5,Japanese,m,4,0.32341667,-52.74135522,0.88090417
NBI,85,1,2024-10-08T00:46:04.181Z,english_840.wav,0,pill,710,41,5,Japanese,m,0,0.0,-27.11425843,1.31301797
NBI,85,1,2024-10-08T00:46:04.181Z,english_840.wav,0,pill,710,41,5,Japanese,m,1,0.1,-47.31494811,0.54280133
NBI,85,1,2024-10-08T00:46:04.181Z,english_840.wav,0,pill,710,41,5,Japanese,m,2,0.2,-88.66887426,0.14090987
NBI,85,1,2024-10-08T00:46:04.181Z,english_840.wav,0,pill,710,41,5,Japanese,m,3,0.3,7.86940595,0.11950116
NBI,85,1,2024-10-08T00:46:04.181Z,english_840.wav,0,pill,710,41,5,Japanese,m,4,0.32341667,87.61758205,1.48166624
NBI,86,1,2024-10-08T00:46:04.181Z,english_910.wav,0,peel,388,41,5,Japanese,m,0,0.0,-5.78748479,0.61840584
NBI,86,1,2024-10-08T00:46:04.181Z,english_910.wav,0,peel,388,41,5,Japanese,m,1,0.1,25.040103,1.20431928
NBI,86,1,2024-10-08T00:46:04.181Z,english_910.wav,0,peel,388,41,5,Japanese,m,2,0.2,-40.66398147,1.66594732
NBI,86,1,2024-10-08T00:46:04.181Z,english_910.wav,0,peel,388,41,5,Japanese,m,3,0.3,-99.21011725,0.99007018
NBI,86,1,2024-10-08T00:46:04.181Z,english_910.wav,0,peel,388,41,5,Japanese,m,4,0.32341667,30.82754841,0.23705338
NBI,87,1,2024-10-08T00:46:04.181Z,english_351.wav,0,peel,618,41,5,Japanese,m,0,0.0,-56.55455818,0.98366365
NBI,87,1,2024-10-08T00:46:04.181Z,english_351.wav,0,peel,618,41,5,Japanese,m,1,0.1,-81.1333892,1.13800808
NBI,87,1,2024-10-08T00:46:04.181Z,english_351.wav,0,peel,618,41,5,Japanese,m,2,0.2,70.95296343,1.04915948
NBI,87,1,2024-10-08T00:46:04.181Z,english_351.wav,0,peel,618,41,5,Japanese,m,3,0.3,-82.79021433,1.70890302
NBI,87,1,2024-10-08T00:46:04.181Z,english_351.wav,0,peel,618,41,5,Japanese,m,4,0.32341667,-21.34496407,1.83807055
NBI,88,1,2024-10-08T00:46:04.181Z,english_33.wav,0,peel,621,41,5,Japanese,m,0,0.0,13.53683954,1.37746345
NBI,88,1,2024-10-08T00:46:04.181Z,english_33.wav,0,peel,621,41,5,Japanese,m,1,0.1,-23.61599557,1.14776292
NBI,88,1,2024-10-08T00:46:04.181Z,english_33.wav,0,peel,621,41,5,Japanese,m,2,0.2,60.58241295,1.15899553
NBI,88,1,2024-10-08T00:46:04.181Z,english_33.wav,0,peel,621,41,5,Japanese,m,3,0.3,-2.03686091,0.64766031
NBI,88,1,2024-10-08T00:46:04.181Z,english_33.wav,0,peel,621,41,5,Japanese,m,4,0.32341667,79.90239576,1.69768968
NBI,89,1,2024-10-08T00:46:04.181Z,english_418.wav,0,pill,681,41,5,Japanese,m,0,0.0,-7.92859899,0.20369216
NBI,89,1,2024-10-08T00:46:04.181Z,english_418.wav,0,pill,681,41,5,Japanese,m,1,0.1,10.19863107,0.15242613
NBI,89,1,2024-10-08T00:46:04.181Z,english_418.wav,0,pill,681,41,5,Japanese,m,2,0.2,-44.82770696,0.77695319
NBI,89,1,2024-10-08T00:46:04.181Z,english_418.wav,0,pill,681,41,5,Japanese,m,3,0.3,-80.4141896,0.71786342
NBI,89,1,2024-10-08T00:46:04.181Z,english_418.wav,0,pill,681,41,5,Japanese,m,4,0.32341667,32.43674468,1.20494416
NBI,90,1,2024-10-08T00:46:04.181Z,english_865.wav,0,pill,518,41,5,Japanese,m,0,0.0,57.45647421,1.64387024
NBI,90,1,2024-10-08T00:46:04.181Z,english_865.wav,0,pill,518,41,5,Japanese,m,1,0.1,-62.30549211,0.05749027
NBI,90,1,2024-10-08T00:46:04.181Z,english_865.wav,0,pill,518,41,5,Japanese,m,2,0.2,-35.85649312,0.09554773
NBI,90,1,2024-10-08T00:46:04.181Z,english_865.wav,0,pill,518,41,5,Japanese,m,3,0.3,55.00701181,1.62598434
NBI,90,1,2024-10-08T00:46:04.181Z,english_865.wav,0,pill,518,41,5,Japanese,m,4,0.32341667,-39.97662747,0.71232625
NBI,91,1,2024-10-08T00:46:04.181Z,english_9.wav,0,peel,391,41,5,Japanese,m,0,0.0,24.77706225,1.13145128
NBI,91,1,2024-10-08T00:46:04.181Z,english_9.wav,0,peel,391,41,5,Japanese,m,1,0.1,91.05524194,1.19326311
NBI,91,1,2024-10-08T00:46:04.181Z,english_9.wav,0,peel,391,41,5,Japanese,m,2,0.2,30.20964975,1.50029029
NBI,91,1,2024-10-08T00:46:04.181Z,english_9.wav,0,peel,391,41,5,Japanese,m,3,0.3,-69.66301283,1.4622179
NBI,91,1,2024-10-08T00:46:04.181Z,english_9.wav,0,peel,391,41,5,Japanese,m,4,0.32341667,-3.83240646,1.9316504
NBI,92,1,2024-10-08T00:46:04.181Z,english_863.wav,0,peel,600,41,5,Japanese,m,0,0.0,52.03013683,1.83111202
NBI,92,1,2024-10-08T00:46:04.181Z,english_863.wav,0,peel,600,41,5,Japanese,m,1,0.1,21.53783975,0.9779226
NBI,92,1,2024-10-08T00:46:04.181Z,english_863.wav,0,peel,600,41,5,Japanese,m,2,0.2,-42.8061331,1.19089157
NBI,92,1,2024-10-08T00:46:04.181Z,english_863.wav,0,peel,600,41,5,Japanese,m,3,0.3,-9.69253087,0.269847
NBI,92,1,2024-10-08T00:46:04.181Z,english_863.wav,0,peel,600,41,5,Japanese,m,4,0.32341667,56.44290307,0.87913369
NBI,93,1,2024-10-08T00:46:04.181Z,english_82.wav,0,peel,628,41,5,Japanese,m,0,0.0,-21.02351082,0.76668052
NBI,93,1,2024-10-08T00:46:04.181Z,english_82.wav,0,peel,628,41,5,Japanese,m,1,0.1,1.53612588,0.94640395
NBI,93,1,2024-10-08T00:46:04.181Z,english_82.wav,0,peel,628,41,5,Japanese,m,2,0.2,82.9198569,1.02754902
NBI,93,1,2024-10-08T00:46:04.181Z,english_82.wav,0,peel,628,41,5,Japanese,m,3,0.3,67.34737065,1.57368428
NBI,93,1,2024-10-08T00:46:04.181Z,english_82.wav,0,peel,628,41,5,Japanese,m,4,0.32341667,-34.9418752,0.67195212
NBI,94,1,2024-10-08T00:46:04.181Z,english_737.wav,0,peel,1393,41,5,Japanese,m,0,0.0,21.35751723,1.17499048
NBI,94,1,2024-10-08T00:46:04.181Z,english_737.wav,0,peel,1393,41,5,Japanese,m,1,0.1,61.52152077,1.09581395
NBI,94,1,2024-10-08T00:46:04.181Z,english_737.wav,0,peel,1393,41,5,Japanese,m,2,0.2,-29.75610596,0.62940412
NBI,94,1,2024-10-08T00:46:04.181Z,english_737.wav,0,peel,1393,41,5,Japanese,m,3,0.3,-39.80249708,0.11793022
NBI,94,1,2024-10-08T00:46:04.181Z,english_737.wav,0,peel,1393,41,5,Japanese,m,4,0.32341667,-14.64937497,0.62377861
NBI,95,1,2024-10-08T00:46:04.181Z,english_564.wav,0,pill,709,41,5,Japanese,m,0,0.0,-4.16228192,1.35245187
NBI,95,1,2024-10-08T00:46:04.181Z,english_564.wav,0,pill,709,41,5,Japanese,m,1,0.1,-8.38376801,0.24798142
NBI,95,1,2024-10-08T00:46:04.181Z,english_564.wav,0,pill,709,41,5,Japanese,m,2,0.2,52.82752554,1.26376743
NBI,95,1,2024-10-08T00:46:04.181Z,english_564.wav,0,pill,709,41,5,Japanese,m,3,0.3,-92.64870354,0.73548171
NBI,95,1,2024-10-08T00:46:04.181Z,english_564.wav,0,pill,709,41,5,Japanese,m,4,0.32341667,-48.86146536,0.1394123
NBI,96,1,2024-10-08T00:46:04.181Z,english_30.wav,0,peel,434,41,5,Japanese,m,0,0.0,-18.5398728,0.31748681
NBI,96,1,2024-10-08T00:46:04.181Z,english_30.wav,0,peel,434,41,5,Japanese,m,1,0.1,-67.34991207,1.82477139
NBI,96,1,2024-10-08T00:46:04.181Z,english_30.wav,0,peel,434,41,5,Japanese,m,2,0.2,65.54879707,1.59992979
NBI,96,1,2024-10-08T00:46:04.181Z,english_30.wav,0,peel,434,41,5,Japanese,m,3,0.3,30.88088319,0.89523729
NBI,96,1,2024-10-08T00:46:04.181Z,english_30.wav,0,peel,434,41,5,Japanese,m,4,0.32341667,50.60550813,1.02052202
NBI,97,1,2024-10-08T00:46:04.181Z,english_670.wav,0,pill,753,41,5,Japanese,m,0,0.0,64.75672565,1.5535903
NBI,97,1,2024-10-08T00:46:04.181Z,english_670.wav,0,pill,753,41,5,Japanese,m,1,0.1,85.95156369,0.12522594
NBI,97,1,2024-10-08T00:46:04.181Z,english_670.wav,0,pill,753,41,5,Japanese,m,2,0.2,-44.32949438,0.22842632
NBI,97,1,2024-10-08T00:46:04.181Z,english_670.wav,0,pill,753,41,5,Japanese,m,3,0.3,22.57192219,0.17636502
NBI,97,1,2024-10-08T00:46:04.181Z,english_670.wav,0,pill,753,41,5,Japanese,m,4,0.32341667,34.74005277,0.16208776
NBI,98,1,2024-10-08T00:46:04.181Z,english_136.wav,0,peel,629,41,5,Japanese,m,0,0.0,12.04186247,0.70846626
NBI,98,1,2024-10-08T00:46:04.181Z,english_136.wav,0,peel,629,41,5,Japanese,m,1,0.1,-56.97950323,1.3229906
NBI,98,1,2024-10-08T00:46:04.181Z,english_136.wav,0,peel,629,41,5,Japanese,m,2,0.2,32.29793995,0.25119571
NBI,98,1,2024-10-08T00:46:04.181Z,english_136.wav,0,peel,629,41,5,Japanese,m,3,0.3,40.05814767,1.28510755
NBI,98,1,2024-10-08T00:46:04.181Z,english_136.wav,0,peel,629,41,5,Japanese,m,4,0.32341667,61.40693937,1.20697433
NBI,99,1,2024-10-08T00:46:04.181Z,english_37.wav,0,peel,531,41,5,Japanese,m,0,0.0,-5.54999706,1.12257854
NBI,99,1,2024-10-08T00:46:04.181Z,english_37.wav,0,peel,531,41,5,Japanese,m,1,0.1,23.22206304,1.8669628
NBI,99,1,2024-10-08T00:46:04.181Z,english_37.wav,0,peel,531,41,5,Japanese,m,2,0.2,-57.36481589,0.39386712
NBI,99,1,2024-10-08T00:46:04.181Z,english_37.wav,0,peel,531,41,5,Japanese,m,3,0.3,58.0578648,1.21765674
NBI,99,1,2024-10-08T00:46:04.181Z,english_37.wav,0,peel,531,41,5,Japanese,m,4,0.32341667,66.03280024,0.74428952
NBI,100,2,2024-10-08T00:48:41.487Z,english_489.wav,0,peel,1493,41,5,Japanese,m,0,0.0,5.7057461,0.60142671
NBI,100,2,2024-10-08T00:48:41.487Z,english_489.wav,0,peel,1493,41,5,Japanese,m,1,0.1,-88.87009038,1.38499056
NBI,100,2,2024-10-08T00:48:41.487Z,english_489.wav,0,peel,1493,41,5,Japanese,m,2,0.2,73.69789316,0.38073994
NBI,100,2,2024-10-08T00:48:41.487Z,english_489.wav,0,peel,1493,41,5,Japanese,m,3,0.3,8.66804208,0.90212706
NBI,100,2,2024-10-08T00:48:41.487Z,english_489.wav,0,peel,1493,41,5,Japanese,m,4,0.32341667,-19.53009002,1.00729778
NBI,101,2,2024-10-08T00:48:41.487Z,english_887.wav,0,peel,708,41,5,Japanese,m,0,0.0,21.36154006,0.58574694
NBI,101,2,2024-10-08T00:48:41.487Z,english_887.wav,0,peel,708,41,5,Japanese,m,1,0.1,-21.46213737,0.48413962
NBI,101,2,2024-10-08T00:48:41.487Z,english_887.wav,0,peel,708,41,5,Japanese,m,2,0.2,-45.53850124,1.16923549
NBI,101,2,2024-10-08T00:48:41.487Z,english_887.wav,0,peel,708,41,5,Japanese,m,3,0.3,-75.36110743,1.46190157
NBI,101,2,2024-10-08T00:48:41.487Z,english_887.wav,0,peel,708,41,5,Japanese,m,4,0.32341667,-96.67184991,0.00789239
NBI,102,2,2024-10-08T00:48:41.487Z,english_127.wav,0,peel,465,41,5,Japanese,m,0,0.0,-69.70750805,0.25070661
NBI,102,2,2024-10-08T00:48:41.487Z,english_127.wav,0,peel,465,41,5,Japanese,m,1,0.1,-23.17484413,1.1475992
NBI,102,2,2024-10-08T00:48:41.487Z,english_127.wav,0,peel,465,41,5,Japanese,m,2,0.2,16.27024862,1.99299371
NBI,102,2,2024-10-08T00:48:41.487Z,english_127.wav,0,peel,465,41,5,Japanese,m,3,0.3,-50.08342814,0.57749513
NBI,102,2,2024-10-08T00:48:41.487Z,english_127.wav,0,peel,465,41,5,Japanese,m,4,0.32341667,22.60332787,1.27832678
NBI,103,2,2024-10-08T00:48:41.487Z,english_818.wav,0,pill,482,41,5,Japanese,m,0,0.0,88.49542613,1.4873036
NBI,103,2,2024-10-08T00:48:41.487Z,english_818.wav,0,pill,482,41,5,Japanese,m,1,0.1,-7.37005163,1.25102077
NBI,103,2,2024-10-08T00:48:41.487Z,english_818.wav,0,pill,482,41,5,Japanese,m,2,0.2,-1.58613611,0.80764036
NBI,103,2,2024-10-08T00:48:41.487Z,english_818.wav,0,pill,482,41,5,Japanese,m,3,0.3,-69.41222379,0.80656775
NBI,103,2,2024-10-08T00:48:41.487Z,english_818.wav,0,pill,482,41,5,Japanese,m,4,0.32341667,14.01707612,1.41859799
NBI,104,2,2024-10-08T00:48:41.487Z,english_541.wav,0,pill,1126,41,5,Japanese,m,0,0.0,-20.13323906,0.51383156
NBI,104,2,2024-10-08T00:48:41.487Z,english_541.wav,0,pill,1126,41,5,Japanese,m,1,0.1,2.48768759,0.65082056
NBI,104,2,2024-10-08T00:48:41.487Z,english_541.wav,0,pill,1126,41,5,Japanese,m,2,0.2,-86.20966861,0.48716137
NBI,104,2,2024-10-08T00:48:41.487Z,english_541.wav,0,pill,1126,41,5,Japanese,m,3,0.3,59.01445297,0.54905673
NBI,104,2,2024-10-08T00:48:41.487Z,english_541.wav,0,pill,1126,41,5,Japanese,m,4,0.32341667,61.23853539,1.76268899
NBI,105,2,2024-10-08T00:48:41.487Z,english_152.wav,0,peel,378,41,5,Japanese,m,0,0.0,-21.97873044,1.75752799
NBI,105,2,2024-10-08T00:48:41.487Z,english_152.wav,0,peel,378,41,5,Japanese,m,1,0.1,85.66675034,1.21467008
NBI,105,2,2024-10-08T00:48:41.487Z,english_152.wav,0,peel,378,41,5,Japanese,m,2,0.2,-66.57447909,0.82299352
NBI,105,2,2024-10-08T00:48:41.487Z,english_152.wav,0,peel,378,41,5,Japanese,m,3,0.3,-33.8772441,0.48869868
NBI,105,2,2024-10-08T00:48:41.487Z,english_152.wav,0,peel,378,41,5,Japanese,m,4,0.32341667,-46.50239179,0.31705885
NBI,106,2,2024-10-08T00:48:41.487Z,english_276.wav,0,pill,509,41,5,Japanese,m,0,0.0,-87.25523595,1.1918401
NBI,106,2,2024-10-08T00:48:41.487Z,english_276.wav,0,pill,509,41,5,Japanese,m,1,0.1,16.91650801,0.89399115
NBI,106,2,2024-10-08T00:48:41.487Z,english_276.wav,0,pill,509,41,5,Japanese,m,2,0.2,-40.09372932,0.89701806
NBI,106,2,2024-10-08T00:48:41.487Z,english_276.wav,0,pill,509,41,5,Japanese,m,3,0.3,3.19229046,1.98333504
NBI,106,2,2024-10-08T00:48:41.487Z,english_276.wav,0,pill,509,41,5,Japanese,m,4,0.32341667,18.84785296,1.85350493
NBI,107,2,2024-10-08T00:48:41.487Z,english_230.wav,0,pill,704,41,5,Japanese,m,0,0.0,59.01519707,0.66464778
NBI,107,2,2024-10-08T00:48:41.487Z,english_230.wav,0,pill,704,41,5,Japanese,m,1,0.1,-74.67447784,1.09498554
NBI,107,2,2024-10-08T00:48:41.487Z,english_230.wav,0,pill,704,41,5,Japanese,m,2,0.2,78.11378701,0.24708562
NBI,107,2,2024-10-08T00:48:41.487Z,english_230.wav,0,pill,704,41,5,Japanese,m,3,0.3,26.79367619,1.40152246
NBI,107,2,2024-10-08T00:48:41.487Z,english_230.wav,0,pill,704,41,5,Japanese,m,4,0.32341667,29.92451654,1.02203861
NBI,108,2,2024-10-08T00:48:41.487Z,english_416.wav,0,pill,696,41,5,Japanese,m,0,0.0,26.92040942,0.66708871
NBI,108,2,2024-10-08T00:48:41.487Z,english_416.wav,0,pill,696,41,5,Japanese,m,1,0.1,32.98463782,0.46140785
NBI,108,2,2024-10-08T00:48:41.487Z,english_416.wav,0,pill,696,41,5,Japanese,m,2,0.2,94.30298269,0.4311344
NBI,108,2,2024-10-08T00:48:41.487Z,english_416.wav,0,pill,696,41,5,Japanese,m,3,0.3,71.4008894,0.4522554
NBI,108,2,2024-10-08T00:48:41.487Z,english_416.wav,0,pill,696,41,5,Japanese,m,4,0.32341667,-13.61584313,0.23817019
NBI,109,2,2024-10-08T00:48:41.487Z,english_793.wav,0,pill,600,41,5,Japanese,m,0,0.0,-3.59370976,0.95327953
NBI,109,2,2024-10-08T00:48:41.487Z,english_793.wav,0,pill,600,41,5,Japanese,m,1,0.1,-92.44382947,0.8890172
NBI,109,2,2024-10-08T00:48:41.487Z,english_793.wav,0,pill,600,41,5,Japanese,m,2,0.2,-89.84008222,0.47547445
NBI,109,2,2024-10-08T00:48:41.487Z,english_793.wav,0,pill,600,41,5,Japanese,m,3,0.3,96.09352514,1.09208031
NBI,109,2,2024-10-08T00:48:41.487Z,english_793.wav,0,pill,600,41,5,Japanese,m,4,0.32341667,42.94050617,0.63383093
NBI,110,2,2024-10-08T00:48:41.487Z,english_988.wav,0,pill,567,41,5,Japanese,m,0,0.0,23.53561789,0.18772999
NBI,110,2,2024-10-08T00:48:41.487Z,english_988.wav,0,pill,567,41,5,Japanese,m,1,0.1,39.09545525,0.71537172
NBI,110,2,2024-10-08T00:48:41.487Z,english_988.wav,0,pill,567,41,5,Japanese,m,2,0.2,-32.2225044,0.50944864
NBI,110,2,2024-10-08T00:48:41.487Z,english_988.wav,0,pill,567,41,5,Japanese,m,3,0.3,5.54449519,0.59930705
NBI,110,2,2024-10-08T00:48:41.487Z,english_988.wav,0,pill,567,41,5,Japanese,m,4,0.32341667,-94.58480047,1.43881296
NBI,111,2,2024-10-08T00:48:41.487Z,english_925.wav,0,peel,464,41,5,Japanese,m,0,0.0,-23.38055082,1.07708889
NBI,111,2,2024-10-08T00:48:41.487Z,english_925.wav,0,peel,464,41,5,Japanese,m,1,0.1,12.69502826,1.65606803
NBI,111,2,2024-10-08T00:48:41.487Z,english_925.wav,0,peel,464,41,5,Japanese,m,2,0.2,77.53463838,0.48648737
NBI,111,2,2024-10-08T00:48:41.487Z,english_925.wav,0,peel,464,41,5,Japanese,m,3,0.3,58.05299948,0.8939016
NBI,111,2,2024-10-08T00:48:41.487Z,english_925.wav,0,peel,464,41,5,Japanese,m,4,0.32341667,54.12197927,0.72199492
NBI,112,2,2024-10-08T00:48:41.487Z,english_447.wav,0,pill,608,41,5,Japanese,m,0,0.0,38.77193801,0.52212734
NBI,112,2,2024-10-08T00:48:41.487Z,english_447.wav,0,pill,608,41,5,Japanese,m,1,0.1,-3.53992528,0.58948567
NBI,112,2,2024-10-08T00:48:41.487Z,english_447.wav,0,pill,608,41,5,Japanese,m,2,0.2,54.1888363,0.60662966
NBI,112,2,2024-10-08T00:48:41.487Z,english_447.wav,0,pill,608,41,5,Japanese,m,3,0.3,-95.90180003,0.73195254
NBI,112,2,2024-10-08T00:48:41.487Z,english_447.wav,0,pill,608,41,5,Japanese,m,4,0.32341667,48.32118178,0.21856551
NBI,113,2,2024-10-08T00:48:41.487Z,english_12.wav,0,pill,711,41,5,Japanese,m,0,0.0,48.33680056,1.48429429
NBI,113,2,2024-10-08T00:48:41.487Z,english_12.wav,0,pill,711,41,5,Japanese,m,1,0.1,27.41870997,0.15715938
NBI,113,2,2024-10-08T00:48:41.487Z,english_12.wav,0,pill,711,41,5,Japanese,m,2,0.2,-39.95667364,0.62940339
NBI,113,2,2024-10-08T00:48:41.487Z,english_12.wav,0,pill,711,41,5,Japanese,m,3,0.3,73.52964836,0.05281398
NBI,113,2,2024-10-08T00:48:41.487Z,english_12.wav,0,pill,711,41,5,Japanese,m,4,0.32341667,-36.35494906,1.6412938
NBI,114,2,2024-10-08T00:48:41.487Z,english_247.wav,0,peel,462,41,5,Japanese,m,0,0.0,48.65693284,0.25539499
NBI,114,2,2024-10-08T00:48:41.487Z,english_247.wav,0,peel,462,41,5,Japanese,m,1,0.1,-27.64572099,1.09429421
NBI,114,2,2024-10-08T00:48:41.487Z,english_247.wav,0,peel,462,41,5,Japanese,m,2,0.2,-20.19701808,0.88115619
NBI,114,2,2024-10-08T00:48:41.487Z,english_247.wav,0,peel,462,41,5,Japanese,m,3,0.3,-10.74442668,1.97859338
NBI,114,2,2024-10-08T00:48:41.487Z,english_247.wav,0,peel,462,41,5,Japanese,m,4,0.32341667,91.42432082,0.10638235
NBI,115,2,2024-10-08T00:48:41.487Z,english_22.wav,0,pill,584,41,5,Japanese,m,0,0.0,78.11206964,1.48448967
NBI,115,2,2024-10-08T00:48:41.487Z,english_22.wav,0,pill,584,41,5,Japanese,m,1,0.1,30.08823316,0.28770474
NBI,115,2,2024-10-08T00:48:41.487Z,english_22.wav,0,pill,584,41,5,Japanese,m,2,0.2,62.70691674,1.03274311
NBI,115,2,2024-10-08T00:48:41.487Z,english_22.wav,0,pill,584,41,5,Japanese,m,3,0.3,-69.9857022,0.45071415
NBI,115,2,2024-10-08T00:48:41.487Z,english_22.wav,0,pill,584,41,5,Japanese,m,4,0.32341667,-1.96178027,0.30900593
NBI,116,2,2024-10-08T00:48:41.487Z,english_467.wav,0,peel,338,41,5,Japanese,m,0,0.0,-0.54983343,1.824027
NBI,116,2,2024-10-08T00:48:41.487Z,english_467.wav,0,peel,338,41,5,Japanese,m,1,0.1,-84.54516502,1.06295632
NBI,116,2,2024-10-08T00:48:41.487Z,english_467.wav,0,peel,338,41,5,Japanese,m,2,0.2,54.30123894,1.09976952
NBI,116,2,2024-10-08T00:48:41.487Z,english_467.wav,0,peel,338,41,5,Japanese,m,3,0.3,-82.00368026,1.11766566
NBI,116,2,2024-10-08T00:48:41.487Z,english_467.wav,0,peel,338,41,5,Japanese,m,4,0.32341667,-54.10816942,0.44824559
NBI,117,2,2024-10-08T00:48:41.487Z,english_458.wav,0,pill,591,41,5,Japanese,m,0,0.0,-49.69821038,0.39452057
NBI,117,2,2024-10-08T00:48:41.487Z,english_458.wav,0,pill,591,41,5,Japanese,m,1,0.1,-49.80647014,1.24604375
NBI,117,2,2024-10-08T00:48:41.487Z,english_458.wav,0,pill,591,41,5,Japanese,m,2,0.2,11.98261521,0.42272405
NBI,117,2,2024-10-08T00:48:41.487Z,english_458.wav,0,pill,591,41,5,Japanese,m,3,0.3,59.43319096,0.21259233
NBI,117,2,2024-10-08T00:48:41.487Z,english_458.wav,0,pill,591,41,5,Japanese,m,4,0.32341667,-34.5671642,1.13235362
NBI,118,2,2024-10-08T00:48:41.487Z,english_403.wav,0,peel,600,41,5,Japanese,m,0,0.0,-92.65414009,1.93574734
NBI,118,2,2024-10-08T00:48:41.487Z,english_403.wav,0,peel,600,41,5,Japanese,m,1,0.1,75.99659731,0.36447309
NBI,118,2,2024-10-08T00:48:41.487Z,english_403.wav,0,peel,600,41,5,Japanese,m,2,0.2,-27.37801557,1.02888701
NBI,118,2,2024-10-08T00:48:41.487Z,english_403.wav,0,peel,600,41,5,Japanese,m,3,0.3,-80.04540334,0.02385722
NBI,118,2,2024-10-08T00:48:41.487Z,english_403.wav,0,peel,600,41,5,Japanese,m,4,0.32341667,30.50648557,1.40553938
NBI,119,2,2024-10-08T00:48:41.487Z,english_216.wav,0,peel,396,41,5,Japanese,m,0,0.0,-62.2888105,1.07577895
NBI,119,2,2024-10-08T00:48:41.487Z,english_216.wav,0,peel,396,41,5,Japanese,m,1,0.1,-52.19325919,1.07125686
NBI,119,2,2024-10-08T00:48:41.487Z,english_216.wav,0,peel,396,41,5,Japanese,m,2,0.2,-77.81566322,1.51342084
NBI,119,2,2024-10-08T00:48:41.487Z,english_216.wav,0,peel,396,41,5,Japanese,m,3,0.3,73.5246301,1.37714716
NBI,119,2,2024-10-08T00:48:41.487Z,english_216.wav,0,peel,396,41,5,Japanese,m,4,0.32341667,73.4409389,1.55456291
NBI,120,2,2024-10-08T00:48:41.487Z,english_432.wav,0,peel,458,41,5,Japanese,m,0,0.0,34.04923955,0.51661687
NBI,120,2,2024-10-08T00:48:41.487Z,english_432.wav,0,peel,458,41,5,Japanese,m,1,0.1,-20.16773507,0.2259012
NBI,120,2,2024-10-08T00:48:41.487Z,english_432.wav,0,peel,458,41,5,Japanese,m,2,0.2,58.06800811,1.98214485
NBI,120,2,2024-10-08T00:48:41.487Z,english_432.wav,0,peel,458,41,5,Japanese,m,3,0.3,46.82268278,1.23025235
NBI,120,2,2024-10-08T00:48:41.487Z,english_432.wav,0,peel,458,41,5,Japanese,m,4,0.32341667,16.04458546,1.72803009
NBI,121,2,2024-10-08T00:48:41.487Z,english_539.wav,0,peel,387,41,5,Japanese,m,0,0.0,-67.77604021,0.83598486
NBI,121,2,2024-10-08T00:48:41.487Z,english_539.wav,0,peel,387,41,5,Japanese,m,1,0.1,61.22104537,1.51877163
NBI,121,2,2024-10-08T00:48:41.487Z,english_539.wav,0,peel,387,41,5,Japanese,m,2,0.2,38.09257369,1.73578169
NBI,121,2,2024-10-08T00:48:41.487Z,english_539.wav,0,peel,387,41,5,Japanese,m,3,0.3,-20.76875757,0.52680037
NBI,121,2,2024-10-08T00:48:41.487Z,english_539.wav,0,peel,387,41,5,Japanese,m,4,0.32341667,-47.71444482,1.99278149
NBI,122,2,2024-10-08T00:48:41.487Z,english_964.wav,0,peel,2036,41,5,Japanese,m,0,0.0,11.04708611,0.74384055
NBI,122,2,2024-10-08T00:48:41.487Z,english_964.wav,0,peel,2036,41,5,Japanese,m,1,0.1,-10.67848967,0.46038505
NBI,122,2,2024-10-08T00:48:41.487Z,english_964.wav,0,peel,2036,41,5,Japanese,m,2,0.2,64.95328634,0.80934661
NBI,122,2,2024-10-08T00:48:41.487Z,english_964.wav,0,peel,2036,41,5,Japanese,m,3,0.3,-78.10341524,1.94282647
NBI,122,2,2024-10-08T00:48:41.487Z,english_964.wav,0,peel,2036,41,5,Japanese,m,4,0.32341667,-48.61651995,1.99482071
NBI,123,2,2024-10-08T00:48:41.487Z,english_611.wav,0,pill,610,41,5,Japanese,m,0,0.0,4.04989913,1.48647041
NBI,123,2,2024-10-08T00:48:41.487Z,english_611.wav,0,pill,610,41,5,Japanese,m,1,0.1,-26.35519993,0.87297853
NBI,123,2,2024-10-08T00:48:41.487Z,english_611.wav,0,pill,610,41,5,Japanese,m,2,0.2,-41.22744209,0.91907267
NBI,123,2,2024-10-08T00:48:41.487Z,english_611.wav,0,pill,610,41,5,Japanese,m,3,0.3,-72.41198747,0.12624761
NBI,123,2,2024-10-08T00:48:41.487Z,english_611.wav,0,pill,610,41,5,Japanese,m,4,0.32341667,-60.09703168,0.964981
NBI,124,2,2024-10-08T00:48:41.487Z,english_663.wav,0,pill,1868,41,5,Japanese,m,0,0.0,55.84438863,1.29444713
NBI,124,2,2024-10-08T00:48:41.487Z,english_663.wav,0,pill,1868,41,5,Japanese,m,1,0.1,-89.02249371,0.90215198
NBI,124,2,2024-10-08T00:48:41.487Z,english_663.wav,0,pill,1868,41,5,Japanese,m,2,0.2,-13.61345685,1.61104603
NBI,124,2,2024-10-08T00:48:41.487Z,english_663.wav,0,pill,1868,41,5,Japanese,m,3,0.3,14.50375693,0.31375715
NBI,124,2,2024-10-08T00:48:41.487Z,english_663.wav,0,pill,1868,41,5,Japanese,m,4,0.32341667,80.63633164,1.01784406
NBI,125,2,2024-10-08T00:48:41.487Z,english_395.wav,0,pill,2471,41,5,Japanese,m,0,0.0,12.69072165,1.18485033
NBI,125,2,2024-10-08T00:48:41.487Z,english_395.wav,0,pill,2471,41,5,Japanese,m,1,0.1,16.88915645,0.64230571
NBI,125,2,2024-10-08T00:48:41.487Z,english_395.wav,0,pill,2471,41,5,Japanese,m,2,0.2,49.23789678,0.95454364
NBI,125,2,2024-10-08T00:48:41.487Z,english_395.wav,0,pill,2471,41,5,Japanese,m,3,0.3,39.87613746,0.75997929
NBI,125,2,2024-10-08T00:48:41.487Z,english_395.wav,0,pill,2471,41,5,Japanese,m,4,0.32341667,70.90138048,1.50770695
NBI,126,2,2024-10-08T00:48:41.487Z,english_959.wav,0,peel,381,41,5,Japanese,m,0,0.0,-78.42285057,1.71892855
NBI,126,2,2024-10-08T00:48:41.487Z,english_959.wav,0,peel,381,41,5,Japanese,m,1,0.1,6.44734251,1.96402951
NBI,126,2,2024-10-08T00:48:41.487Z,english_959.wav,0,peel,381,41,5,Japanese,m,2,0.2,20.74966326,0.26247596
NBI,126,2,2024-10-08T00:48:41.487Z,english_959.wav,0,peel,381,41,5,Japanese,m,3,0.3,-29.69680039,1.29464598
NBI,126,2,2024-10-08T00:48:41.487Z,english_959.wav,0,peel,381,41,5,Japanese,m,4,0.32341667,34.2282551,1.77868038
NBI,127,2,2024-10-08T00:48:41.487Z,english_866.wav,0,peel,1108,41,5,Japanese,m,0,0.0,-75.90204766,0.10539101
NBI,127,2,2024-10-08T00:48:41.487Z,english_866.wav,0,peel,1108,41,5,Japanese,m,1,0.1,-89.66881049,1.63294926
NBI,127,2,2024-10-08T00:48:41.487Z,english_866.wav,0,peel,1108,41,5,Japanese,m,2,0.2,-86.78535298,0.21421971
NBI,127,2,2024-10-08T00:48:41.487Z,english_866.wav,0,peel,1108,41,5,Japanese,m,3,0.3,50.96369643,1.47001367
NBI,127,2,2024-10-08T00:48:41.487Z,english_866.wav,0,peel,1108,41,5,Japanese,m,4,0.32341667,36.94157773,1.56453662
NBI,128,2,2024-10-08T00:48:41.487Z,english_632.wav,0,peel,609,41,5,Japanese,m,0,0.0,-56.22391322,1.21249895
NBI,128,2,2024-10-08T00:48:41.487Z,english_632.wav,0,peel,609,41,5,Japanese,m,1,0.1,-47.59423942,0.39515719
NBI,128,2,2024-10-08T00:48:41.487Z,english_632.wav,0,peel,609,41,5,Japanese,m,2,0.2,91.93727259,1.8528852
NBI,128,2,2024-10-08T00:48:41.487Z,english_632.wav,0,peel,609,41,5,Japanese,m,3,0.3,-33.89646621,1.67254104
NBI,128,2,2024-10-08T00:48:41.487Z,english_632.wav,0,peel,609,41,5,Japanese,m,4,0.32341667,46.88387871,1.21014685
NBI,129,2,2024-10-08T00:48:41.487Z,english_960.wav,0,peel,1056,41,5,Japanese,m,0,0.0,35.80457434,0.79357899
NBI,129,2,2024-10-08T00:48:41.487Z,english_960.wav,0,peel,1056,41,5,Japanese,m,1,0.1,-19.98469691,0.63900775
NBI,129,2,2024-10-08T00:48:41.487Z,english_960.wav,0,peel,1056,41,5,Japanese,m,2,0.2,-8.88025322,1.83966222
NBI,129,2,2024-10-08T00:48:41.487Z,english_960.wav,0,peel,1056,41,5,Japanese,m,3,0.3,6.59365348,1.05168668
NBI,129,2,2024-10-08T00:48:41.487Z,english_960.wav,0,peel,1056,41,5,Japanese,m,4,0.32341667,64.0885905,1.66020449
NBI,130,2,2024-10-08T00:48:41.487Z,english_397.wav,0,pill,568,41,5,Japanese,m,0,0.0,89.67962381,0.42719638
NBI,130,2,2024-10-08T00:48:41.487Z,english_397.wav,0,pill,568,41,5,Japanese,m,1,0.1,-80.29722345,0.89466904
NBI,130,2,2024-10-08T00:48:41.487Z,english_397.wav,0,pill,568,41,5,Japanese,m,2,0.2,60.53564011,0.56174568
NBI,130,2,2024-10-08T00:48:41.487Z,english_397.wav,0,pill,568,41,5,Japanese,m,3,0.3,9.94565725,0.1553242
NBI,130,2,2024-10-08T00:48:41.487Z,english_397.wav,0,pill,568,41,5,Japanese,m,4,0.32341667,0.1319882,1.89079641
NBI,131,2,2024-10-08T00:48:41.487Z,english_13.wav,0,pill,834,41,5,Japanese,m,0,0.0,85.79405153,0.93145275
NBI,131,2,2024-10-08T00:48:41.487Z,english_13.wav,0,pill,834,41,5,Japanese,m,1,0.1,-22.00296346,0.69811424
NBI,131,2,2024-10-08T00:48:41.487Z,english_13.wav,0,pill,834,41,5,Japanese,m,2,0.2,45.89988476,1.08090206
NBI,131,2,2024-10-08T00:48:41.487Z,english_13.wav,0,pill,834,41,5,Japanese,m,3,0.3,-17.47250281,0.35305012
NBI,131,2,2024-10-08T00:48:41.487Z,english_13.wav,0,pill,834,41,5,Japanese,m,4,0.32341667,-30.34546067,0.65915907
NBI,132,2,2024-10-08T00:48:41.487Z,english_251.wav,0,peel,404,41,5,Japanese,m,0,0.0,-35.26640223,1.59441442
NBI,132,2,2024-10-08T00:48:41.487Z,english_251.wav,0,peel,404,41,5,Japanese,m,1,0.1,-82.14936791,1.21410308
NBI,132,2,2024-10-08T00:48:41.487Z,english_251.wav,0,peel,404,41,5,Japanese,m,2,0.2,39.53587687,0.89125894
NBI,132,2,2024-10-08T00:48:41.487Z,english_251.wav,0,peel,404,41,5,Japanese,m,3,0.3,-75.44024907,0.14763688
NBI,132,2,2024-10-08T00:48:41.487Z,english_251.wav,0,peel,404,41,5,Japanese,m,4,0.32341667,26.94148116,1.71797298
NBI,133,2,2024-10-08T00:48:41.487Z,english_484.wav,0,peel,879,41,5,Japanese,m,0,0.0,79.97188672,0.20745104
NBI,133,2,2024-10-08T00:48:41.487Z,english_484.wav,0,peel,879,41,5,Japanese,m,1,0.1,-84.58904822,1.46214797
NBI,133,2,2024-10-08T00:48:41.487Z,english_484.wav,0,peel,879,41,5,Japanese,m,2,0.2,70.2960477,0.40821612
NBI,133,2,2024-10-08T00:48:41.487Z,english_484.wav,0,peel,879,41,5,Japanese,m,3,0.3,-66.44520929,1.23203415
NBI,133,2,2024-10-08T00:48:41.487Z,english_484.wav,0,peel,879,41,5,Japanese,m,4,0.32341667,-78.91715359,1.26593617
NBI,134,2,2024-10-08T00:48:41.487Z,english_411.wav,0,pill,495,41,5,Japanese,m,0,0.0,75.357241,0.83773649
NBI,134,2,2024-10-08T00:48:41.487Z,english_411.wav,0,pill,495,41,5,Japanese,m,1,0.1,-55.75688593,0.80885485
NBI,134,2,2024-10-08T00:48:41.487Z,english_411.wav,0,pill,495,41,5,Japanese,m,2,0.2,61.10111178,0.61144368
NBI,134,2,2024-10-08T00:48:41.487Z,english_411.wav,0,pill,495,41,5,Japanese,m,3,0.3,90.25367142,0.73863407
NBI,134,2,2024-10-08T00:48:41.487Z,english_411.wav,0,pill,495,41,5,Japanese,m,4,0.32341667,26.85831553,0.4624235
NBI,135,2,2024-10-08T00:48:41.487Z,english_847.wav,0,peel,494,41,5,Japanese,m,0,0.0,76.45550118,0.38890762
NBI,135,2,2024-10-08T00:48:41.487Z,english_847.wav,0,peel,494,41,5,Japanese,m,1,0.1,-18.38123868,1.01718805
NBI,135,2,2024-10-08T00:48:41.487Z,english_847.wav,0,peel,494,41,5,Japanese,m,2,0.2,18.403778,1.24872656
NBI,135,2,2024-10-08T00:48:41.487Z,english_847.wav,0,peel,494,41,5,Japanese,m,3,0.3,57.196546,0.81951257
NBI,135,2,2024-10-08T00:48:41.487Z,english_847.wav,0,peel,494,41,5,Japanese,m,4,0.32341667,32.99763753,0.74194876
NBI,136,2,2024-10-08T00:48:41.487Z,english_816.wav,0,peel,458,41,5,Japanese,m,0,0.0,-5.39935373,0.27372013
NBI,136,2,2024-10-08T00:48:41.487Z,english_816.wav,0,peel,458,41,5,Japanese,m,1,0.1,-58.12348851,1.23542608
NBI,136,2,2024-10-08T00:48:41.487Z,english_816.wav,0,peel,458,41,5,Japanese,m,2,0.2,-97.19740724,1.6956732
NBI,136,2,2024-10-08T00:48:41.487Z,english_816.wav,0,peel,458,41,5,Japanese,m,3,0.3,4.60418864,0.17466083
NBI,136,2,2024-10-08T00:48:41.487Z,english_816.wav,0,peel,458,41,5,Japanese,m,4,0.32341667,57.92285533,0.69657013
NBI,137,2,2024-10-08T00:48:41.487Z,english_836.wav,0,pill,717,41,5,Japanese,m,0,0.0,34.85846782,1.04017402
NBI,137,2,2024-10-08T00:48:41.487Z,english_836.wav,0,pill,717,41,5,Japanese,m,1,0.1,41.54458908,0.35535359
NBI,137,2,2024-10-08T00:48:41.487Z,english_836.wav,0,pill,717,41,5,Japanese,m,2,0.2,23.27363575,0.10471693
NBI,137,2,2024-10-08T00:48:41.487Z,english_836.wav,0,pill,717,41,5,Japanese,m,3,0.3,86.83996211,0.55523491
NBI,137,2,2024-10-08T00:48:41.487Z,english_836.wav,0,pill,717,41,5,Japanese,m,4,0.32341667,-32.25656931,0.70311776
NBI,138,2,2024-10-08T00:48:41.487Z,english_712.wav,0,pill,377,41,5,Japanese,m,0,0.0,-69.83835125,1.15670948
NBI,138,2,2024-10-08T00:48:41.487Z,english_712.wav,0,pill,377,41,5,Japanese,m,1,0.1,-89.98535393,0.40201287
NBI,138,2,2024-10-08T00:48:41.487Z,english_712.wav,0,pill,377,41,5,Japanese,m,2,0.2,47.33040466,0.06412681
NBI,138,2,2024-10-08T00:48:41.487Z,english_712.wav,0,pill,377,41,5,Japanese,m,3,0.3,-32.03166139,1.50973484
NBI,138,2,2024-10-08T00:48:41.487Z,english_712.wav,0,pill,377,41,5,Japanese,m,4,0.32341667,-5.29851616,1.18377017
NBI,139,2,2024-10-08T00:48:41.487Z,english_347.wav,0,peel,356,41,5,Japanese,m,0,0.0,34.89178431,1.32203506
NBI,139,2,2024-10-08T00:48:41.487Z,english_347.wav,0,peel,356,41,5,Japanese,m,1,0.1,53.24978685,0.28714436
NBI,139,2,2024-10-08T00:48:41.487Z,english_347.wav,0,peel,356,41,5,Japanese,m,2,0.2,4.11185022,1.66093526
NBI,139,2,2024-10-08T00:48:41.487Z,english_347.wav,0,peel,356,41,5,Japanese,m,3,0.3,89.26663646,1.29826057
NBI,139,2,2024-10-08T00:48:41.487Z,english_347.wav,0,peel,356,41,5,Japanese,m,4,0.32341667,-53.02646266,0.05504814
NBI,140,2,2024-10-08T00:48:41.487Z,english_619.wav,0,peel,370,41,5,Japanese,m,0,0.0,38.53351318,1.25542912
NBI,140,2,2024-10-08T00:48:41.487Z,english_619.wav,0,peel,370,41,5,Japanese,m,1,0.1,-11.21157995,0.83005785
NBI,140,2,2024-10-08T00:48:41.487Z,english_619.wav,0,peel,370,41,5,Japanese,m,2,0.2,29.79887689,1.51254928
NBI,140,2,2024-10-08T00:48:41.487Z,english_619.wav,0,peel,370,41,5,Japanese,m,3,0.3,48.6384615,0.37972577
NBI,140,2,2024-10-08T00:48:41.487Z,english_619.wav,0,peel,370,41,5,Japanese,m,4,0.32341667,-66.5905708,0.44889873
NBI,141,2,2024-10-08T00:48:41.487Z,english_800.wav,0,peel,816,41,5,Japanese,m,0,0.0,-9.91001254,0.13142639
NBI,141,2,2024-10-08T00:48:41.487Z,english_800.wav,0,peel,816,41,5,Japanese,m,1,0.1,-86.79409322,1.71040153
NBI,141,2,2024-10-08T00:48:41.487Z,english_800.wav,0,peel,816,41,5,Japanese,m,2,0.2,-27.39997365,0.18637657
NBI,141,2,2024-10-08T00:48:41.487Z,english_800.wav,0,peel,816,41,5,Japanese,m,3,0.3,13.46737707,1.09766523
NBI,141,2,2024-10-08T00:48:41.487Z,english_800.wav,0,peel,816,41,5,Japanese,m,4,0.32341667,-32.56208711,1.57940615
NBI,142,2,2024-10-08T00:48:41.487Z,english_98.wav,0,peel,487,41,5,Japanese,m,0,0.0,-23.07451683,0.55932234
NBI,142,2,2024-10-08T00:48:41.487Z,english_98.wav,0,peel,487,41,5,Japanese,m,1,0.1,58.83766866,1.03192869
NBI,142,2,2024-10-08T00:48:41.487Z,english_98.wav,0,peel,487,41,5,Japanese,m,2,0.2,75.90401246,1.16154403
NBI,142,2,2024-10-08T00:48:41.487Z,english_98.wav,0,peel,487,41,5,Japanese,m,3,0.3,-86.31256295,0.50819795
NBI,142,2,2024-10-08T00:48:41.487Z,english_98.wav,0,peel,487,41,5,Japanese,m,4,0.32341667,26.17624316,1.94690859
NBI,143,2,2024-10-08T00:48:41.487Z,english_105.wav,0,pill,588,41,5,Japanese,m,0,0.0,15.80659439,1.08535851
NBI,143,2,2024-10-08T00:48:41.487Z,english_105.wav,0,pill,588,41,5,Japanese,m,1,0.1,42.66899606,0.24895576
NBI,143,2,2024-10-08T00:48:41.487Z,english_105.wav,0,pill,588,41,5,Japanese,m,2,0.2,70.76731416,1.16165898
NBI,143,2,2024-10-08T00:48:41.487Z,english_105.wav,0,pill,588,41,5,Japanese,m,3,0.3,70.45261783,1.37248151
NBI,143,2,2024-10-08T00:48:41.487Z,english_105.wav,0,pill,588,41,5,Japanese,m,4,0.32341667,38.01355443,0.81952348
NBI,144,2,2024-10-08T00:48:41.487Z,english_436.wav,0,peel,634,41,5,Japanese,m,0,0.0,58.73131257,0.30497449
NBI,144,2,2024-10-08T00:48:41.487Z,english_436.wav,0,peel,634,41,5,Japanese,m,1,0.1,65.29204538,1.04665744
NBI,144,2,2024-10-08T00:48:41.487Z,english_436.wav,0,peel,634,41,5,Japanese,m,2,0.2,7.63213906,1.03883923
NBI,144,2,2024-10-08T00:48:41.487Z,english_436.wav,0,peel,634,41,5,Japanese,m,3,0.3,-2.54756362,0.97345352
NBI,144,2,2024-10-08T00:48:41.487Z,english_436.wav,0,peel,634,41,5,Japanese,m,4,0.32341667,-11.40614268,0.16121918
NBI,145,2,2024-10-08T00:48:41.487Z,english_491.wav,0,pill,449,41,5,Japanese,m,0,0.0,-58.06424917,1.23740358
NBI,145,2,2024-10-08T00:48:41.487Z,english_491.wav,0,pill,449,41,5,Japanese,m,1,0.1,-10.73132445,0.97891215
NBI,145,2,2024-10-08T00:48:41.487Z,english_491.wav,0,pill,449,41,5,Japanese,m,2,0.2,17.9230478,0.17588849
NBI,145,2,2024-10-08T00:48:41.487Z,english_491.wav,0,pill,449,41,5,Japanese,m,3,0.3,-41.27614743,0.52166982
NBI,145,2,2024-10-08T00:48:41.487Z,english_491.wav,0,pill,449,41,5,Japanese,m,4,0.32341667,-30.17832464,1.65640468
NBI,146,2,2024-10-08T00:48:41.487Z,english_26.wav,0,pill,3499,41,5,Japanese,m,0,0.0,54.38966875,1.86679487
NBI,146,2,2024-10-08T00:48:41.487Z,english_26.wav,0,pill,3499,41,5,Japanese,m,1,0.1,0.3460174,0.79762949
NBI,146,2,2024-10-08T00:48:41.487Z,english_26.wav,0,pill,3499,41,5,Japanese,m,2,0.2,-72.33258957,0.93682052
NBI,146,2,2024-10-08T00:48:41.487Z,english_26.wav,0,pill,3499,41,5,Japanese,m,3,0.3,67.09142092,1.42469209
NBI,146,2,2024-10-08T00:48:41.487Z,english_26.wav,0,pill,3499,41,5,Japanese,m,4,0.32341667,16.00565239,1.17807545
NBI,147,2,2024-10-08T00:48:41.487Z,english_360.wav,0,peel,419,41,5,Japanese,m,0,0.0,-50.57937638,0.73788637
NBI,147,2,2024-10-08T00:48:41.487Z,english_360.wav,0,peel,419,41,5,Japanese,m,1,0.1,-29.22164644,0.6487653
NBI,147,2,2024-10-08T00:48:41.487Z,english_360.wav,0,peel,419,41,5,Japanese,m,2,0.2,-88.45421248,0.73193848
NBI,147,2,2024-10-08T00:48:41.487Z,english_360.wav,0,peel,419,41,5,Japanese,m,3,0.3,93.68039656,1.75347372
NBI,147,2,2024-10-08T00:48:41.487Z,english_360.wav,0,peel,419,41,5,Japanese,m,4,0.32341667,-2.59092547,1.19277037
NBI,148,2,2024-10-08T00:48:41.487Z,english_112.wav,0,peel,782,41,5,Japanese,m,0,0.0,-98.7507832,1.62855774
NBI,148,2,2024-10-08T00:48:41.487Z,english_112.wav,0,peel,782,41,5,Japanese,m,1,0.1,-92.72198769,1.23374737
NBI,148,2,2024-10-08T00:48:41.487Z,english_112.wav,0,peel,782,41,5,Japanese,m,2,0.2,15.54821062,0.76022921
NBI,148,2,2024-10-08T00:48:41.487Z,english_112.wav,0,peel,782,41,5,Japanese,m,3,0.3,-40.54151432,0.49860071
NBI,148,2,2024-10-08T00:48:41.487Z,english_112.wav,0,peel,782,41,5,Japanese,m,4,0.32341667,-42.89167932,0.23801633
NBI,149,2,2024-10-08T00:48:41.487Z,english_154.wav,0,peel,374,41,5,Japanese,m,0,0.0,69.79630433,0.95543174
NBI,149,2,2024-10-08T00:48:41.487Z,english_154.wav,0,peel,374,41,5,Japanese,m,1,0.1,-67.81892388,1.87835363
NBI,149,2,2024-10-08T00:48:41.487Z,english_154.wav,0,peel,374,41,5,Japanese,m,2,0.2,14.97335347,1.19287874
NBI,149,2,2024-10-08T00:48:41.487Z,english_154.wav,0,peel,374,41,5,Japanese,m,3,0.3,8.47433965,1.12321966
NBI,149,2,2024-10-08T00:48:41.487Z,english_154.wav,0,peel,374,41,5,Japanese,m,4,0.32341667,32.47098569,0.66995817
NBI,150,3,2024-10-08T00:48:41.487Z,english_451.wav,0,peel,1388,41,5,Japanese,m,0,0.0,-87.31297583,0.44823779
NBI,150,3,2024-10-08T00:48:41.487Z,english_451.wav,0,peel,1388,41,5,Japanese,m,1,0.1,-44.51362963,0.44678563
NBI,150,3,2024-10-08T00:48:41.487Z,english_451.wav,0,peel,1388,41,5,Japanese,m,2,0.2,-15.52945473,1.69444841
NBI,150,3,2024-10-08T00:48:41.487Z,english_451.wav,0,peel,1388,41,5,Japanese,m,3,0.3,11.70886435,0.18586344
NBI,150,3,2024-10-08T00:48:41.487Z,english_451.wav,0,peel,1388,41,5,Japanese,m,4,0.32341667,82.84342256,0.9677256
NBI,151,3,2024-10-08T00:48:41.487Z,english_918.wav,0,peel,403,41,5,Japanese,m,0,0.0,-64.11083249,1.38668504
NBI,151,3,2024-10-08T00:48:41.487Z,english_918.wav,0,peel,403,41,5,Japanese,m,1,0.1,75.84330997,1.4522357
NBI,151,3,2024-10-08T00:48:41.487Z,english_918.wav,0,peel,403,41,5,Japanese,m,2,0.2,-30.10314186,1.37046734
NBI,151,3,2024-10-08T00:48:41.487Z,english_918.wav,0,peel,403,41,5,Japanese,m,3,0.3,91.40385877,0.70209545
NBI,151,3,2024-10-08T00:48:41.487Z,english_918.wav,0,peel,403,41,5,Japanese,m,4,0.32341667,-14.12068895,0.09881605
NBI,152,3,2024-10-08T00:48:41.487Z,english_844.wav,0,peel,1240,41,5,Japanese,m,0,0.0,-84.59865618,1.95225136
NBI,152,3,2024-10-08T00:48:41.487Z,english_844.wav,0,peel,1240,41,5,Japanese,m,1,0.1,2.74576488,1.66072701
NBI,152,3,2024-10-08T00:48:41.487Z,english_844.wav,0,peel,1240,41,5,Japanese,m,2,0.2,-31.14414819,0.05165652
NBI,152,3,2024-10-08T00:48:41.487Z,english_844.wav,0,peel,1240,41,5,Japanese,m,3,0.3,59.06244098,0.5878804
NBI,152,3,2024-10-08T00:48:41.487Z,english_844.wav,0,peel,1240,41,5,Japanese,m,4,0.32341667,67.61674881,0.72232709
NBI,153,3,2024-10-08T00:48:41.487Z,english_480.wav,0,peel,1139,41,5,Japanese,m,0,0.0,-9.10453384,0.61491247
NBI,153,3,2024-10-08T00:48:41.487Z,english_480.wav,0,peel,1139,41,5,Japanese,m,1,0.1,72.09708103,1.35502449
NBI,153,3,2024-10-08T00:48:41.487Z,english_480.wav,0,peel,1139,41,5,Japanese,m,2,0.2,-73.7181862,0.28674933
NBI,153,3,2024-10-08T00:48:41.487Z,english_480.wav,0,peel,1139,41,5,Japanese,m,3,0.3,18.73451671,0.14653082
NBI,153,3,2024-10-08T00:48:41.487Z,english_480.wav,0,peel,1139,41,5,Japanese,m,4,0.32341667,83.35837597,1.34653786
NBI,154,3,2024-10-08T00:48:41.487Z,english_902.wav,0,peel,794,41,5,Japanese,m,0,0.0,-4.27617126,0.16330526
NBI,154,3,2024-10-08T00:48:41.487Z,english_902.wav,0,peel,794,41,5,Japanese,m,1,0.1,-5.01127315,0.62492789
NBI,154,3,2024-10-08T00:48:41.487Z,english_902.wav,0,peel,794,41,5,Japanese,m,2,0.2,83.22080084,1.08638924
NBI,154,3,2024-10-08T00:48:41.487Z,english_902.wav,0,peel,794,41,5,Japanese,m,3,0.3,77.56473772,1.61764227
NBI,154,3,2024-10-08T00:48:41.487Z,english_902.wav,0,peel,794,41,5,Japanese,m,4,0.32341667,-13.02741535,1.72075309
NBI,155,3,2024-10-08T00:48:41.487Z,english_265.wav,0,peel,862,41,5,Japanese,m,0,0.0,-30.2287418,1.31067296
NBI,155,3,2024-10-08T00:48:41.487Z,english_265.wav,0,peel,862,41,5,Japanese,m,1,0.1,86.62283936,0.87427745
NBI,155,3,2024-10-08T00:48:41.487Z,english_265.wav,0,peel,862,41,5,Japanese,m,2,0.2,-21.47577863,1.37620008
NBI,155,3,2024-10-08T00:48:41.487Z,english_265.wav,0,peel,862,41,5,Japanese,m,3,0.3,84.9300577,0.45825557
NBI,155,3,2024-10-08T00:48:41.487Z,english_265.wav,0,peel,862,41,5,Japanese,m,4,0.32341667,59.52250756,1.13518739
NBI,156,3,2024-10-08T00:48:41.487Z,english_698.wav,0,peel,1026,41,5,Japanese,m,0,0.0,-86.30999669,1.66322514
NBI,156,3,2024-10-08T00:48:41.487Z,english_698.wav,0,peel,1026,41,5,Japanese,m,1,0.1,-91.60158578,1.16924533
NBI,156,3,2024-10-08T00:48:41.487Z,english_698.wav,0,peel,1026,41,5,Japanese,m,2,0.2,-41.16326515,1.29610919
NBI,156,3,2024-10-08T00:48:41.487Z,english_698.wav,0,peel,1026,41,5,Japanese,m,3,0.3,7.86252123,1.21006153
NBI,156,3,2024-10-08T00:48:41.487Z,english_698.wav,0,peel,1026,41,5,Japanese,m,4,0.32341667,25.04181708,1.83628755
NBI,157,3,2024-10-08T00:48:41.487Z,english_260.wav,0,pill,625,41,5,Japanese,m,0,0.0,-45.73422918,1.75247731
NBI,157,3,2024-10-08T00:48:41.487Z,english_260.wav,0,pill,625,41,5,Japanese,m,1,0.1,-23.757295,1.29821829
NBI,157,3,2024-10-08T00:48:41.487Z,english_260.wav,0,pill,625,41,5,Japanese,m,2,0.2,-1.17180464,0.50372963
NBI,157,3,2024-10-08T00:48:41.487Z,english_260.wav,0,pill,625,41,5,Japanese,m,3,0.3,42.98000529,1.19905143
NBI,157,3,2024-10-08T00:48:41.487Z,english_260.wav,0,pill,625,41,5,Japanese,m,4,0.32341667,7.49715463,0.66690199
NBI,158,3,2024-10-08T00:48:41.487Z,english_29.wav,0,peel,1712,41,5,Japanese,m,0,0.0,-2.71310826,1.50712016
NBI,158,3,2024-10-08T00:48:41.487Z,english_29.wav,0,peel,1712,41,5,Japanese,m,1,0.1,17.7201972,0.83644439
NBI,158,3,2024-10-08T00:48:41.487Z,english_29.wav,0,peel,1712,41,5,Japanese,m,2,0.2,-20.17501418,0.76078741
NBI,158,3,2024-10-08T00:48:41.487Z,english_29.wav,0,peel,1712,41,5,Japanese,m,3,0.3,12.48271646,0.17009155
NBI,158,3,2024-10-08T00:48:41.487Z,english_29.wav,0,peel,1712,41,5,Japanese,m,4,0.32341667,29.42079391,1.26727983
NBI,159,3,2024-10-08T00:48:41.487Z,english_188.wav,0,peel,459,41,5,Japanese,m,0,0.0,-13.13088252,0.29227292
NBI,159,3,2024-10-08T00:48:41.487Z,english_188.wav,0,peel,459,41,5,Japanese,m,1,0.1,51.13663316,1.25360943
NBI,159,3,2024-10-08T00:48:41.487Z,english_188.wav,0,peel,459,41,5,Japanese,m,2,0.2,-80.18048506,1.7916357
NBI,159,3,2024-10-08T00:48:41.487Z,english_188.wav,0,peel,459,41,5,Japanese,m,3,0.3,-47.89773773,0.58346705
NBI,159,3,2024-10-08T00:48:41.487Z,english_188.wav,0,peel,459,41,5,Japanese,m,4,0.32341667,-7.0568118,1.77612328
NBI,160,3,2024-10-08T00:48:41.487Z,english_608.wav,0,pill,1047,41,5,Japanese,m,0,0.0,78.8022196,1.54390555
NBI,160,3,2024-10-08T00:48:41.487Z,english_608.wav,0,pill,1047,41,5,Japanese,m,1,0.1,59.03316834,1.36513164
NBI,160,3,2024-10-08T00:48:41.487Z,english_608.wav,0,pill,1047,41,5,Japanese,m,2,0.2,-13.94961152,0.78716897
NBI,160,3,2024-10-08T00:48:41.487Z,english_608.wav,0,pill,1047,41,5,Japanese,m,3,0.3,55.83681575,1.29889886
NBI,160,3,2024-10-08T00:48:41.487Z,english_608.wav,0,pill,1047,41,5,Japanese,m,4,0.32341667,-13.77656228,0.44376749
NBI,161,3,2024-10-08T00:48:41.487Z,english_833.wav,0,peel,369,41,5,Japanese,m,0,0.0,18.29317799,0.49951345
NBI,161,3,2024-10-08T00:48:41.487Z,english_833.wav,0,peel,369,41,5,Japanese,m,1,0.1,20.01945042,1.12176851
NBI,161,3,2024-10-08T00:48:41.487Z,english_833.wav,0,peel,369,41,5,Japanese,m,2,0.2,-77.99741705,0.59960618
NBI,161,3,2024-10-08T00:48:41.487Z,english_833.wav,0,peel,369,41,5,Japanese,m,3,0.3,19.36192697,0.50557433
NBI,161,3,2024-10-08T00:48:41.487Z,english_833.wav,0,peel,369,41,5,Japanese,m,4,0.32341667,43.06785988,0.3288339
NBI,162,3,2024-10-08T00:48:41.487Z,english_200.wav,0,peel,369,41,5,Japanese,m,0,0.0,48.98677304,1.07797747
NBI,162,3,2024-10-08T00:48:41.487Z,english_200.wav,0,peel,369,41,5,Japanese,m,1,0.1,13.54292536,1.23698451
NBI,162,3,2024-10-08T00:48:41.487Z,english_200.wav,0,peel,369,41,5,Japanese,m,2,0.2,15.98335964,0.85343662
NBI,162,3,2024-10-08T00:48:41.487Z,english_200.wav,0,peel,369,41,5,Japanese,m,3,0.3,-46.7743147,1.38707984
NBI,162,3,2024-10-08T00:48:41.487Z,english_200.wav,0,peel,369,41,5,Japanese,m,4,0.32341667,-12.18386714,0.65409939
NBI,163,3,2024-10-08T00:48:41.487Z,english_920.wav,0,peel,329,41,5,Japanese,m,0,0.0,95.7501832,1.54313256
NBI,163,3,2024-10-08T00:48:41.487Z,english_920.wav,0,peel,329,41,5,Japanese,m,1,0.1,-3.19831823,1.33500472
NBI,163,3,2024-10-08T00:48:41.487Z,english_920.wav,0,peel,329,41,5,Japanese,m,2,0.2,-16.96134457,1.12819963
NBI,163,3,2024-10-08T00:48:41.487Z,english_920.wav,0,peel,329,41,5,Japanese,m,3,0.3,-28.81747413,1.72147256
NBI,163,3,2024-10-08T00:48:41.487Z,english_920.wav,0,peel,329,41,5,Japanese,m,4,0.32341667,42.63505928,0.57593815
NBI,164,3,2024-10-08T00:48:41.487Z,english_769.wav,0,pill,649,41,5,Japanese,m,0,0.0,-12.68288087,1.59358978
NBI,164,3,2024-10-08T00:48:41.487Z,english_769.wav,0,pill,649,41,5,Japanese,m,1,0.1,13.58895245,0.16681031
NBI,164,3,2024-10-08T00:48:41.487Z,english_769.wav,0,pill,649,41,5,Japanese,m,2,0.2,-5.57429841,0.74292099
NBI,164,3,2024-10-08T00:48:41.487Z,english_769.wav,0,pill,649,41,5,Japanese,m,3,0.3,-26.44516544,0.17250104
NBI,164,3,2024-10-08T00:48:41.487Z,english_769.wav,0,pill,649,41,5,Japanese,m,4,0.32341667,85.93285426,0.16730253
NBI,165,3,2024-10-08T00:48:41.487Z,english_477.wav,0,peel,518,41,5,Japanese,m,0,0.0,9.7496965,0.26828956
NBI,165,3,2024-10-08T00:48:41.487Z,english_477.wav,0,peel,518,41,5,Japanese,m,1,0.1,70.56003184,0.51901368
NBI,165,3,2024-10-08T00:48:41.487Z,english_477.wav,0,peel,518,41,5,Japanese,m,2,0.2,34.49551211,0.35677294
NBI,165,3,2024-10-08T00:48:41.487Z,english_477.wav,0,peel,518,41,5,Japanese,m,3,0.3,-75.0597055,1.39462812
NBI,165,3,2024-10-08T00:48:41.487Z,english_477.wav,0,peel,518,41,5,Japanese,m,4,0.32341667,-82.15638008,0.55199483
NBI,166,3,2024-10-08T00:48:41.487Z,english_598.wav,0,peel,906,41,5,Japanese,m,0,0.0,4.26365523,0.04069017
NBI,166,3,2024-10-08T00:48:41.487Z,english_598.wav,0,peel,906,41,5,Japanese,m,1,0.1,-29.634957,1.27980102
NBI,166,3,2024-10-08T00:48:41.487Z,english_598.wav,0,peel,906,41,5,Japanese,m,2,0.2,-17.49120793,0.98781586
NBI,166,3,2024-10-08T00:48:41.487Z,english_598.wav,0,peel,906,41,5,Japanese,m,3,0.3,-34.93876912,1.55939702
NBI,166,3,2024-10-08T00:48:41.487Z,english_598.wav,0,peel,906,41,5,Japanese,m,4,0.32341667,49.49845506,1.74128412
NBI,167,3,2024-10-08T00:48:41.487Z,english_630.wav,0,peel,589,41,5,Japanese,m,0,0.0,97.25925287,0.34607754
NBI,167,3,2024-10-08T00:48:41.487Z,english_630.wav,0,peel,589,41,5,Japanese,m,1,0.1,76.95662127,0.15996234
NBI,167,3,2024-10-08T00:48:41.487Z,english_630.wav,0,peel,589,41,5,Japanese,m,2,0.2,5.01423186,1.73874617
NBI,167,3,2024-10-08T00:48:41.487Z,english_630.wav,0,peel,589,41,5,Japanese,m,3,0.3,-27.88706711,0.41181915
NBI,167,3,2024-10-08T00:48:41.487Z,english_630.wav,0,peel,589,41,5,Japanese,m,4,0.32341667,90.69966072,0.77788697
NBI,168,3,2024-10-08T00:48:41.487Z,english_322.wav,0,peel,893,41,5,Japanese,m,0,0.0,-27.28438319,0.79345249
NBI,168,3,2024-10-08T00:48:41.487Z,english_322.wav,0,peel,893,41,5,Japanese,m,1,0.1,-98.66999083,0.28651419
NBI,168,3,2024-10-08T00:48:41.487Z,english_322.wav,0,peel,893,41,5,Japanese,m,2,0.2,-54.08694108,1.26482546
NBI,168,3,2024-10-08T00:48:41.487Z,english_322.wav,0,peel,893,41,5,Japanese,m,3,0.3,-7.3933801,0.6947791
NBI,168,3,2024-10-08T00:48:41.487Z,english_322.wav,0,peel,893,41,5,Japanese,m,4,0.32341667,72.49489683,0.74875353
NBI,169,3,2024-10-08T00:48:41.487Z,english_52.wav,0,pill,539,41,5,Japanese,m,0,0.0,54.63859099,0.91426261
NBI,169,3,2024-10-08T00:48:41.487Z,english_52.wav,0,pill,539,41,5,Japanese,m,1,0.1,-85.67195477,1.20728413
NBI,169,3,2024-10-08T00:48:41.487Z,english_52.wav,0,pill,539,41,5,Japanese,m,2,0.2,2.4878885,0.71733995
NBI,169,3,2024-10-08T00:48:41.487Z,english_52.wav,0,pill,539,41,5,Japanese,m,3,0.3,86.13143505,1.54149443
NBI,169,3,2024-10-08T00:48:41.487Z,english_52.wav,0,pill,539,41,5,Japanese,m,4,0.32341667,-53.30399902,1.3376245
NBI,170,3,2024-10-08T00:48:41.487Z,english_123.wav,0,peel,593,41,5,Japanese,m,0,0.0,67.91608163,1.13046919
NBI,170,3,2024-10-08T00:48:41.487Z,english_123.wav,0,peel,593,41,5,Japanese,m,1,0.1,-92.32097988,1.99597614
NBI,170,3,2024-10-08T00:48:41.487Z,english_123.wav,0,peel,593,41,5,Japanese,m,2,0.2,57.07371841,1.53523853
NBI,170,3,2024-10-08T00:48:41.487Z,english_123.wav,0,peel,593,41,5,Japanese,m,3,0.3,19.28317816,0.24385811
NBI,170,3,2024-10-08T00:48:41.487Z,english_123.wav,0,peel,593,41,5,Japanese,m,4,0.32341667,15.30546887,0.39158976
NBI,171,3,2024-10-08T00:48:41.487Z,english_932.wav,0,pill,633,41,5,Japanese,m,0,0.0,-3.8848098,1.00949787
NBI,171,3,2024-10-08T00:48:41.487Z,english_932.wav,0,pill,633,41,5,Japanese,m,1,0.1,-32.48916274,1.44703087
NBI,171,3,2024-10-08T00:48:41.487Z,english_932.wav,0,pill,633,41,5,Japanese,m,2,0.2,81.26251807,0.10808594
NBI,171,3,2024-10-08T00:48:41.487Z,english_932.wav,0,pill,633,41,5,Japanese,m,3,0.3,-18.23478105,0.03465182
NBI,171,3,2024-10-08T00:48:41.487Z,english_932.wav,0,pill,633,41,5,Japanese,m,4,0.32341667,7.90132089,0.79845554
NBI,172,3,2024-10-08T00:48:41.487Z,english_834.wav,0,peel,3263,41,5,Japanese,m,0,0.0,-64.94927172,0.98752234
NBI,172,3,2024-10-08T00:48:41.487Z,english_834.wav,0,peel,3263,41,5,Japanese,m,1,0.1,49.61052881,1.31122352
NBI,172,3,2024-10-08T00:48:41.487Z,english_834.wav,0,peel,3263,41,5,Japanese,m,2,0.2,-25.04715585,0.09065599
NBI,172,3,2024-10-08T00:48:41.487Z,english_834.wav,0,peel,3263,41,5,Japanese,m,3,0.3,95.09819394,1.07854905
NBI,172,3,2024-10-08T00:48:41.487Z,english_834.wav,0,peel,3263,41,5,Japanese,m,4,0.32341667,84.16953653,1.76453498
NBI,173,3,2024-10-08T00:48:41.487Z,english_6.wav,0,peel,407,41,5,Japanese,m,0,0.0,-8.2116192,1.24832701
NBI,173,3,2024-10-08T00:48:41.487Z,english_6.wav,0,peel,407,41,5,Japanese,m,1,0.1,-28.50933877,0.74984456
NBI,173,3,2024-10-08T00:48:41.487Z,english_6.wav,0,peel,407,41,5,Japanese,m,2,0.2,-90.20174912,1.37568362
NBI,173,3,2024-10-08T00:48:41.487Z,english_6.wav,0,peel,407,41,5,Japanese,m,3,0.3,-7.18062469,0.47637706
NBI,173,3,2024-10-08T00:48:41.487Z,english_6.wav,0,peel,407,41,5,Japanese,m,4,0.32341667,-36.83558467,0.68255954
NBI,174,3,2024-10-08T00:48:41.487Z,english_733.wav,0,peel,1084,41,5,Japanese,m,0,0.0,-77.09135463,1.21028291
NBI,174,3,2024-10-08T00:48:41.487Z,english_733.wav,0,peel,1084,41,5,Japanese,m,1,0.1,-30.68901019,1.14931675
NBI,174,3,2024-10-08T00:48:41.487Z,english_733.wav,0,peel,1084,41,5,Japanese,m,2,0.2,-27.18135709,1.68866455
NBI,174,3,2024-10-08T00:48:41.487Z,english_733.wav,0,peel,1084,41,5,Japanese,m,3,0.3,-10.74804936,0.29390693
NBI,174,3,2024-10-08T00:48:41.487Z,english_733.wav,0,peel,1084,41,5,Japanese,m,4,0.32341667,-57.14773718,0.43305962
NBI,175,3,2024-10-08T00:48:41.487Z,english_61.wav,0,peel,683,41,5,Japanese,m,0,0.0,-58.73450167,1.5196582
NBI,175,3,2024-10-08T00:48:41.487Z,english_61.wav,0,peel,683,41,5,Japanese,m,1,0.1,-68.77732169,0.79346499
NBI,175,3,2024-10-08T00:48:41.487Z,english_61.wav,0,peel,683,41,5,Japanese,m,2,0.2,-61.07430116,0.90548432
NBI,175,3,2024-10-08T00:48:41.487Z,english_61.wav,0,peel,683,41,5,Japanese,m,3,0.3,-87.12791991,1.71431728
NBI,175,3,2024-10-08T00:48:41.487Z,english_61.wav,0,peel,683,41,5,Japanese,m,4,0.32341667,47.32358741,0.57778581
NBI,176,3,2024-10-08T00:48:41.487Z,english_158.wav,0,peel,534,41,5,Japanese,m,0,0.0,33.09785739,1.71128449
NBI,176,3,2024-10-08T00:48:41.487Z,english_158.wav,0,peel,534,41,5,Japanese,m,1,0.1,-85.08083727,1.56145129
NBI,176,3,2024-10-08T00:48:41.487Z,english_158.wav,0,peel,534,41,5,Japanese,m,2,0.2,97.70701203,0.69707892
NBI,176,3,2024-10-08T00:48:41.487Z,english_158.wav,0,peel,534,41,5,Japanese,m,3,0.3,2.54261044,1.19647348
NBI,176,3,2024-10-08T00:48:41.487Z,english_158.wav,0,peel,534,41,5,Japanese,m,4,0.32341667,-59.73934841,1.17782448
NBI,177,3,2024-10-08T00:48:41.487Z,english_434.wav,0,peel,443,41,5,Japanese,m,0,0.0,-4.12787863,0.96421208
NBI,177,3,2024-10-08T00:48:41.487Z,english_434.wav,0,peel,443,41,5,Japanese,m,1,0.1,-30.19441281,1.08561731
NBI,177,3,2024-10-08T00:48:41.487Z,english_434.wav,0,peel,443,41,5,Japanese,m,2,0.2,41.04377471,1.46356301
NBI,177,3,2024-10-08T00:48:41.487Z,english_434.wav,0,peel,443,41,5,Japanese,m,3,0.3,-32.43591961,0.25116585
NBI,177,3,2024-10-08T00:48:41.487Z,english_434.wav,0,peel,443,41,5,Japanese,m,4,0.32341667,61.53108406,0.73120458
NBI,178,3,2024-10-08T00:48:41.487Z,english_95.wav,0,peel,431,41,5,Japanese,m,0,0.0,-9.17523314,0.73915747
NBI,178,3,2024-10-08T00:48:41.487Z,english_95.wav,0,peel,431,41,5,Japanese,m,1,0.1,-95.16832451,1.01172325
NBI,178,3,2024-10-08T00:48:41.487Z,english_95.wav,0,peel,431,41,5,Japanese,m,2,0.2,-21.6130257,1.19817679
NBI,178,3,2024-10-08T00:48:41.487Z,english_95.wav,0,peel,431,41,5,Japanese,m,3,0.3,0.51006416,1.53285694
NBI,178,3,2024-10-08T00:48:41.487Z,english_95.wav,0,peel,431,41,5,Japanese,m,4,0.32341667,43.00131518,1.08383215
NBI,179,3,2024-10-08T00:48:41.487Z,english_85.wav,0,pill,576,41,5,Japanese,m,0,0.0,69.91092253,1.07696769
NBI,179,3,2024-10-08T00:48:41.487Z,english_85.wav,0,pill,576,41,5,Japanese,m,1,0.1,90.04885235,1.65675227
NBI,179,3,2024-10-08T00:48:41.487Z,english_85.wav,0,pill,576,41,5,Japanese,m,2,0.2,-54.471964,1.18566865
NBI,179,3,2024-10-08T00:48:41.487Z,english_85.wav,0,pill,576,41,5,Japanese,m,3,0.3,-32.42862041,0.43131811
NBI,179,3,2024-10-08T00:48:41.487Z,english_85.wav,0,pill,576,41,5,Japanese,m,4,0.32341667,-26.25094384,1.88641509
NBI,180,3,2024-10-08T00:48:41.487Z,english_523.wav,0,peel,1091,41,5,Japanese,m,0,0.0,8.07414344,0.20594791
NBI,180,3,2024-10-08T00:48:41.487Z,english_523.wav,0,peel,1091,41,5,Japanese,m,1,0.1,27.61667564,1.87511385
NBI,180,3,2024-10-08T00:48:41.487Z,english_523.wav,0,peel,1091,41,5,Japanese,m,2,0.2,12.25175146,0.19246655
NBI,180,3,2024-10-08T00:48:41.487Z,english_523.wav,0,peel,1091,41,5,Japanese,m,3,0.3,5.7333769,0.42766967
NBI,180,3,2024-10-08T00:48:41.487Z,english_523.wav,0,peel,1091,41,5,Japanese,m,4,0.32341667,77.72310536,1.43882185
NBI,181,3,2024-10-08T00:48:41.487Z,english_694.wav,0,pill,629,41,5,Japanese,m,0,0.0,-79.88370205,0.99496101
NBI,181,3,2024-10-08T00:48:41.487Z,english_694.wav,0,pill,629,41,5,Japanese,m,1,0.1,-58.02841319,0.06406007
NBI,181,3,2024-10-08T00:48:41.487Z,english_694.wav,0,pill,629,41,5,Japanese,m,2,0.2,-50.54988317,0.5055253
NBI,181,3,2024-10-08T00:48:41.487Z,english_694.wav,0,pill,629,41,5,Japanese,m,3,0.3,-20.79864769,0.19498426
NBI,181,3,2024-10-08T00:48:41.487Z,english_694.wav,0,pill,629,41,5,Japanese,m,4,0.32341667,-73.64916114,0.36410653
NBI,182,3,2024-10-08T00:48:41.487Z,english_973.wav,0,pill,1049,41,5,Japanese,m,0,0.0,67.86183821,1.19015671
NBI,182,3,2024-10-08T00:48:41.487Z,english_973.wav,0,pill,1049,41,5,Japanese,m,1,0.1,19.68291271,0.58574514
NBI,182,3,2024-10-08T00:48:41.487Z,english_973.wav,0,pill,1049,41,5,Japanese,m,2,0.2,97.35795082,0.11672587
NBI,182,3,2024-10-08T00:48:41.487Z,english_973.wav,0,pill,1049,41,5,Japanese,m,3,0.3,-17.83494635,0.43523095
NBI,182,3,2024-10-08T00:48:41.487Z,english_973.wav,0,pill,1049,41,5,Japanese,m,4,0.32341667,-53.451809,1.74630461
NBI,183,3,2024-10-08T00:48:41.487Z,english_326.wav,0,peel,418,41,5,Japanese,m,0,0.0,-13.70476372,1.64570887
NBI,183,3,2024-10-08T00:48:41.487Z,english_326.wav,0,peel,418,41,5,Japanese,m,1,0.1,47.7156259,0.91266102
NBI,183,3,2024-10-08T00:48:41.487Z,english_326.wav,0,peel,418,41,5,Japanese,m,2,0.2,23.24839736,0.36997562
NBI,183,3,2024-10-08T00:48:41.487Z,english_326.wav,0,peel,418,41,5,Japanese,m,3,0.3,67.08212267,1.96258237
NBI,183,3,2024-10-08T00:48:41.487Z,english_326.wav,0,peel,418,41,5,Japanese,m,4,0.32341667,78.79356023,1.01334204
NBI,184,3,2024-10-08T00:48:41.487Z,english_716.wav,0,peel,404,41,5,Japanese,m,0,0.0,-41.01159081,1.70683796
NBI,184,3,2024-10-08T00:48:41.487Z,english_716.wav,0,peel,404,41,5,Japanese,m,1,0.1,-51.78631031,1.57787804
NBI,184,3,2024-10-08T00:48:41.487Z,english_716.wav,0,peel,404,41,5,Japanese,m,2,0.2,-25.7252513,1.76538287
NBI,184,3,2024-10-08T00:48:41.487Z,english_716.wav,0,peel,404,41,5,Japanese,m,3,0.3,78.18950514,1.34280163
